Time,RFoot_accel.x,RFoot_accel.y,RFoot_accel.z,RFoot_gyro.x,RFoot_gyro.y,RFoot_gyro.z,LFoot_accel.x,LFoot_accel.y,LFoot_accel.z,LFoot_gyro.x,LFoot_gyro.y,LFoot_gyro.z,RShank_accel.x,RShank_accel.y,RShank_accel.z,RShank_gyro.x,RShank_gyro.y,RShank_gyro.z,LShank_accel.x,LShank_accel.y,LShank_accel.z,LShank_gyro.x,LShank_gyro.y,LShank_gyro.z,RThigh_accel.x,RThigh_accel.y,RThigh_accel.z,RThigh_gyro.x,RThigh_gyro.y,RThigh_gyro.z,LThigh_accel.x,LThigh_accel.y,LThigh_accel.z,LThigh_gyro.x,LThigh_gyro.y,LThigh_gyro.z,Pelvis_accel.x,Pelvis_accel.y,Pelvis_accel.z,Pelvis_gyro.x,Pelvis_gyro.y,Pelvis_gyro.z
0.0,3546.53,-3939.94,8324.68,-3.04409,1.68752,0.358903,4119.1,3845.15,7888.3,-2.28029,2.1664,0.41937,-64.0468,9800.12,-672.546,-0.898449,-5.38595,-2.59621,-1015.7,-9886.02,-429.163,-2.22876,8.98926,7.17492,-1507.72,9494.56,-1206.56,0.271371,-21.0856,5.89594,-577.271,-9902.0,-1483.88,-3.23814,7.36987,4.57242,9410.42,852.675,3038.26,-14.9437,15.268,1.7153
0.001,3544.36,-3941.91,8326.58,-3.0394,1.71722,0.397972,4099.13,3843.48,7891.87,-2.25196,2.17957,0.356716,-53.9685,9813.02,-662.407,-0.767861,-5.52604,-2.69124,-1037.93,-9880.35,-413.259,-2.18432,9.03681,7.27826,-1461.64,9509.13,-1201.55,0.164676,-20.943,5.78556,-574.715,-9906.07,-1490.55,-3.24955,7.39898,4.57614,9405.75,862.277,3050.95,-15.2057,15.2826,1.77658
0.002,3542.19,-3943.88,8328.48,-3.03472,1.74691,0.437041,4079.16,3841.82,7895.44,-2.22364,2.19274,0.294062,-43.8903,9825.93,-652.267,-0.637272,-5.66612,-2.78627,-1060.17,-9874.68,-397.356,-2.13988,9.08435,7.38161,-1415.57,9523.69,-1196.54,0.0579817,-20.8004,5.67518,-572.16,-9910.14,-1497.22,-3.26096,7.42809,4.57986,9401.08,871.879,3063.63,-15.4677,15.2972,1.83786
0.003,3540.02,-3945.85,8330.38,-3.03003,1.77661,0.47611,4059.2,3840.16,7899.01,-2.19531,2.20591,0.231408,-33.812,9838.84,-642.128,-0.506684,-5.8062,-2.8813,-1082.4,-9869.01,-381.453,-2.09544,9.13189,7.48495,-1369.49,9538.26,-1191.52,-0.048713,-20.6578,5.5648,-569.605,-9914.22,-1503.89,-3.27237,7.45719,4.58358,9396.41,881.481,3076.32,-15.7298,15.3119,1.89914
0.004,3537.85,-3947.82,8332.28,-3.02534,1.80631,0.515179,4039.23,3838.49,7902.59,-2.16699,2.21908,0.168754,-23.7337,9851.75,-631.989,-0.376095,-5.94628,-2.97633,-1104.64,-9863.34,-365.55,-2.051,9.17944,7.5883,-1323.41,9552.82,-1186.51,-0.155408,-20.5153,5.45442,-567.049,-9918.3,-1510.56,-3.28379,7.4863,4.58729,9391.74,891.083,3089.0,-15.9918,15.3265,1.96042
0.005,3543.06,-3936.02,8322.45,-3.0507,1.82721,0.611764,4034.35,3829.29,7907.93,-2.19156,2.21515,0.138017,-23.6829,9858.92,-636.339,-0.32687,-6.0138,-2.97887,-1110.6,-9864.85,-353.76,-2.00315,9.25423,7.61041,-1279.54,9557.01,-1202.33,-0.211921,-20.2601,5.37421,-552.741,-9915.11,-1505.8,-3.28016,7.50211,4.61501,9374.15,894.67,3097.47,-16.2627,15.395,1.96082
0.006,3554.16,-3913.2,8303.22,-3.10008,1.84108,0.75436,4041.53,3814.05,7914.69,-2.25846,2.19753,0.132813,-31.6539,9861.48,-652.281,-0.342734,-6.02327,-2.90742,-1103.55,-9872.11,-345.261,-1.95258,9.35081,7.56755,-1237.42,9552.89,-1234.8,-0.228288,-19.915,5.31813,-529.031,-9906.12,-1491.89,-3.26451,7.50727,4.66192,9346.2,893.444,3102.56,-16.5408,15.5065,1.91251
0.007,3565.26,-3890.38,8284.0,-3.14947,1.85495,0.896957,4048.71,3798.81,7921.45,-2.32536,2.17991,0.12761,-39.6249,9864.05,-668.223,-0.358598,-6.03274,-2.83597,-1096.5,-9879.37,-336.762,-1.90201,9.4474,7.52468,-1195.31,9548.78,-1267.26,-0.244656,-19.5699,5.26205,-505.32,-9897.12,-1477.98,-3.24886,7.51244,4.70884,9318.26,892.218,3107.64,-16.8189,15.6181,1.8642
0.008,3576.37,-3867.57,8264.78,-3.19886,1.86883,1.03955,4055.9,3783.57,7928.21,-2.39226,2.16229,0.122407,-47.5958,9866.62,-684.165,-0.374462,-6.04221,-2.76452,-1089.45,-9886.62,-328.263,-1.85144,9.54398,7.48181,-1153.19,9544.66,-1299.73,-0.261023,-19.2248,5.20598,-481.61,-9888.13,-1464.06,-3.23321,7.51761,4.75575,9290.32,890.992,3112.73,-17.097,15.7296,1.81589
0.009,3583.57,-3848.06,8247.88,-3.23255,1.87246,1.15895,4062.76,3771.35,7933.72,-2.4545,2.15063,0.124591,-51.9054,9866.24,-697.488,-0.393436,-6.0569,-2.71211,-1083.21,-9890.73,-321.357,-1.80039,9.62116,7.45082,-1112.36,9538.66,-1330.08,-0.267225,-18.8773,5.15535,-459.992,-9880.41,-1453.03,-3.21762,7.53265,4.79948,9263.51,888.305,3118.68,-17.3803,15.8343,1.77967
0.01,3559.58,-3855.0,8249.61,-3.14067,1.7942,1.09272,4067.12,3783.3,7929.2,-2.47951,2.18666,0.185868,-26.923,9842.32,-689.851,-0.437294,-6.11336,-2.81202,-1083.5,-9869.7,-327.193,-1.74555,9.54313,7.51485,-1081.83,9517.51,-1343.47,-0.192099,-18.511,5.14829,-455.107,-9882.88,-1465.02,-3.20248,7.62673,4.81778,9245.74,873.93,3131.53,-17.7054,15.8837,1.84016
0.011,3535.59,-3861.95,8251.33,-3.0488,1.71594,1.02649,4071.48,3795.26,7924.68,-2.50451,2.22269,0.247146,-1.94072,9818.39,-682.214,-0.481152,-6.16982,-2.91192,-1083.79,-9848.66,-333.029,-1.6907,9.4651,7.57889,-1051.3,9496.37,-1356.85,-0.116973,-18.1446,5.14124,-450.223,-9885.36,-1477.01,-3.18734,7.7208,4.83609,9227.97,859.555,3144.38,-18.0305,15.933,1.90065
0.012,3511.6,-3868.89,8253.06,-2.95692,1.63768,0.960255,4075.83,3807.21,7920.16,-2.52951,2.25872,0.308423,23.0416,9794.47,-674.578,-0.52501,-6.22628,-3.01182,-1084.08,-9827.63,-338.865,-1.63586,9.38707,7.64292,-1020.77,9475.22,-1370.23,-0.041847,-17.7782,5.13419,-445.338,-9887.83,-1489.0,-3.17219,7.81487,4.85439,9210.2,845.18,3157.23,-18.3556,15.9824,1.96113
0.013,3487.61,-3875.83,8254.79,-2.86505,1.55942,0.894024,4080.19,3819.16,7915.64,-2.55451,2.29475,0.369701,48.0239,9770.54,-666.941,-0.568868,-6.28274,-3.11172,-1084.36,-9806.59,-344.701,-1.58102,9.30904,7.70695,-990.246,9454.08,-1383.61,0.033279,-17.4118,5.12713,-440.454,-9890.31,-1500.99,-3.15705,7.90895,4.87269,9192.43,830.806,3170.08,-18.6807,16.0318,2.02162
0.014,3482.35,-3884.53,8249.35,-2.82114,1.54632,0.8446,4074.12,3823.16,7908.46,-2.54782,2.29142,0.450833,56.9022,9747.4,-668.116,-0.579566,-6.22895,-3.1663,-1099.58,-9795.52,-341.772,-1.50127,9.2392,7.74762,-955.982,9452.44,-1390.19,0.035987,-16.9921,5.05912,-448.577,-9896.26,-1506.04,-3.14434,8.04018,4.93983,9187.96,827.841,3179.02,-18.89,15.9832,2.02727
0.015,3486.46,-3894.11,8240.33,-2.80123,1.5658,0.803579,4062.83,3823.18,7899.95,-2.52529,2.26843,0.541893,57.7284,9724.65,-673.695,-0.573684,-6.12005,-3.19823,-1122.26,-9789.43,-334.46,-1.40908,9.17344,7.7766,-919.85,9460.57,-1393.36,0.00248594,-16.5456,4.96063,-463.205,-9903.95,-1507.63,-3.13284,8.18999,5.03139,9190.13,830.582,3186.01,-19.0416,15.8856,2.0055
0.016,3490.58,-3903.69,8231.31,-2.78131,1.58528,0.762559,4051.54,3823.2,7891.44,-2.50276,2.24543,0.632953,58.5546,9701.89,-679.274,-0.567802,-6.01114,-3.23016,-1144.94,-9783.34,-327.147,-1.31689,9.10769,7.80559,-883.718,9468.7,-1396.54,-0.0310151,-16.0991,4.86214,-477.832,-9911.64,-1509.21,-3.12134,8.3398,5.12294,9192.3,833.322,3193.0,-19.1931,15.788,1.98373
0.017,3494.69,-3913.26,8222.29,-2.76139,1.60477,0.721538,4040.25,3823.22,7882.93,-2.48023,2.22243,0.724013,59.3808,9679.14,-684.854,-0.561919,-5.90223,-3.26208,-1167.62,-9777.25,-319.835,-1.22469,9.04193,7.83458,-847.586,9476.82,-1399.72,-0.0645162,-15.6526,4.76365,-492.46,-9919.33,-1510.79,-3.10984,8.48961,5.2145,9194.48,836.063,3199.99,-19.3447,15.6904,1.96197
0.018,3500.92,-3920.59,8216.31,-2.75377,1.61868,0.683469,4031.36,3821.78,7878.7,-2.44528,2.20345,0.825475,61.5776,9662.91,-691.132,-0.559616,-5.78932,-3.29536,-1191.47,-9776.39,-315.666,-1.17318,8.96354,7.84384,-815.687,9488.4,-1401.61,-0.0906937,-15.1923,4.66932,-506.171,-9924.46,-1509.86,-3.11492,8.63221,5.3135,9195.54,836.294,3204.38,-19.4773,15.576,1.93841
0.019,3514.59,-3920.04,8221.01,-2.78917,1.61309,0.655727,4030.91,3815.22,7889.47,-2.36689,2.19853,0.963346,68.5716,9669.49,-699.856,-0.569838,-5.66242,-3.33338,-1219.41,-9793.88,-322.498,-1.26404,8.84089,7.78405,-798.605,9512.04,-1399.02,-0.0912388,-14.6833,4.58953,-516.677,-9920.65,-1500.16,-3.17803,8.74956,5.43851,9192.72,827.743,3199.66,-19.5435,15.4031,1.90861
0.02,3528.25,-3919.49,8225.7,-2.82456,1.60751,0.627985,4030.45,3808.66,7900.23,-2.28849,2.19361,1.10122,75.5655,9676.07,-708.579,-0.58006,-5.53552,-3.37139,-1247.35,-9811.37,-329.331,-1.3549,8.71824,7.72426,-781.523,9535.68,-1396.43,-0.0917838,-14.1744,4.50974,-527.182,-9916.84,-1490.45,-3.24113,8.86692,5.56353,9189.89,819.191,3194.95,-19.6098,15.2302,1.8788
0.021,3541.91,-3918.93,8230.39,-2.85996,1.60192,0.600243,4029.99,3802.11,7911.0,-2.21009,2.18869,1.23909,82.5594,9682.65,-717.303,-0.590282,-5.40862,-3.40941,-1275.29,-9828.85,-336.163,-1.44576,8.59558,7.66447,-764.44,9559.33,-1393.83,-0.0923289,-13.6654,4.42994,-537.687,-9913.03,-1480.74,-3.30424,8.98428,5.68854,9187.07,810.64,3190.23,-19.676,15.0573,1.849
0.022,3555.57,-3918.38,8235.09,-2.89536,1.59634,0.572501,4029.54,3795.55,7921.77,-2.1317,2.18378,1.37696,89.5533,9689.23,-726.027,-0.600505,-5.28171,-3.44742,-1303.23,-9846.34,-342.996,-1.53662,8.47293,7.60468,-747.358,9582.97,-1391.24,-0.0928739,-13.1565,4.35015,-548.193,-9909.22,-1471.03,-3.36735,9.10164,5.81356,9184.25,802.089,3185.51,-19.7423,14.8843,1.81919
0.023,3525.89,-3937.7,8220.92,-2.86129,1.54716,0.442596,4050.32,3792.26,7927.39,-2.06007,2.19288,1.35503,79.238,9705.14,-731.019,-0.585058,-5.09919,-3.707,-1307.09,-9837.98,-340.456,-1.56974,8.28734,7.4714,-733.727,9595.5,-1387.34,-0.0980779,-12.6641,4.35516,-564.628,-9912.34,-1467.76,-3.47406,9.16696,5.88853,9163.9,797.484,3191.48,-19.8737,14.7385,1.78997
0.024,3483.81,-3962.7,8201.37,-2.80738,1.48552,0.283503,4077.17,3789.9,7931.55,-1.99037,2.20599,1.28744,63.9771,9723.72,-734.946,-0.562277,-4.90077,-4.02987,-1304.07,-9822.23,-335.238,-1.58636,8.08377,7.31713,-721.082,9604.85,-1383.06,-0.104613,-12.1765,4.38439,-582.756,-9917.45,-1466.33,-3.59322,9.2174,5.94922,9138.55,794.006,3200.51,-20.0237,14.6003,1.76092
0.025,3441.74,-3987.7,8181.81,-2.75346,1.42389,0.12441,4104.02,3787.54,7935.71,-1.92067,2.2191,1.21985,48.7163,9742.3,-738.873,-0.539496,-4.70235,-4.35275,-1301.05,-9806.49,-330.021,-1.60298,7.88019,7.16285,-708.438,9614.2,-1378.78,-0.111148,-11.6889,4.41363,-600.885,-9922.55,-1464.89,-3.71239,9.26784,6.0099,9113.19,790.529,3209.53,-20.1737,14.4622,1.73187
0.026,3399.67,-4012.69,8162.26,-2.69955,1.36225,-0.0346834,4130.87,3785.18,7939.87,-1.85098,2.23221,1.15227,33.4554,9760.88,-742.8,-0.516715,-4.50393,-4.67563,-1298.03,-9790.74,-324.803,-1.6196,7.67662,7.00857,-695.793,9623.55,-1374.5,-0.117683,-11.2012,4.44286,-619.014,-9927.66,-1463.46,-3.83155,9.31828,6.07058,9087.83,787.052,3218.55,-20.3237,14.3241,1.70282
0.027,3374.48,-4021.77,8152.61,-2.68882,1.34638,-0.112248,4148.06,3781.57,7941.53,-1.81587,2.21076,1.09398,35.2546,9774.95,-753.639,-0.488133,-4.28978,-4.92044,-1297.68,-9781.74,-319.177,-1.63279,7.47301,6.88089,-687.924,9629.93,-1377.5,-0.0824517,-10.6838,4.45607,-637.256,-9931.4,-1457.36,-3.9589,9.35214,6.10177,9070.74,785.572,3224.99,-20.466,14.1855,1.62611
0.028,3383.05,-3999.01,8162.8,-2.76445,1.42201,-0.0267553,4145.95,3775.46,7938.18,-1.84992,2.12019,1.05431,71.174,9779.99,-778.304,-0.447948,-4.04417,-5.00911,-1302.68,-9786.2,-312.734,-1.6391,7.26933,6.8064,-689.607,9630.36,-1395.04,0.0363133,-10.1068,4.43721,-655.724,-9932.43,-1441.95,-4.10263,9.35283,6.07399,9070.17,788.09,3226.27,-20.5928,14.0457,1.45407
0.029,3391.63,-3976.26,8172.99,-2.84009,1.49765,0.0587373,4143.84,3769.35,7934.83,-1.88398,2.02961,1.01464,107.093,9785.03,-802.97,-0.407764,-3.79855,-5.09778,-1307.68,-9790.67,-306.291,-1.64541,7.06565,6.73191,-691.29,9630.78,-1412.57,0.155078,-9.52978,4.41836,-674.193,-9933.46,-1426.53,-4.24636,9.35351,6.04621,9069.6,790.607,3227.55,-20.7196,13.906,1.28203
0.03,3400.2,-3953.5,8183.18,-2.91572,1.57328,0.14423,4141.72,3763.24,7931.48,-1.91803,1.93903,0.974969,143.013,9790.07,-827.635,-0.36758,-3.55293,-5.18645,-1312.67,-9795.14,-299.848,-1.65172,6.86197,6.65741,-692.974,9631.21,-1430.11,0.273843,-8.95276,4.39951,-692.661,-9934.49,-1411.12,-4.39009,9.3542,6.01843,9069.03,793.125,3228.83,-20.8464,13.7663,1.10999
0.031,3408.78,-3930.74,8193.36,-2.99136,1.64892,0.229723,4139.61,3757.13,7928.13,-1.95209,1.84846,0.935297,178.932,9795.11,-852.3,-0.327396,-3.30732,-5.27511,-1317.67,-9799.61,-293.406,-1.65803,6.6583,6.58292,-694.657,9631.63,-1447.65,0.392608,-8.37574,4.38065,-711.13,-9935.52,-1395.7,-4.53382,9.35489,5.99065,9068.47,795.642,3230.11,-20.9733,13.6265,0.937951
0.032,3433.74,-3917.32,8199.51,-2.91222,1.70017,0.208934,4129.57,3760.34,7931.85,-1.92805,1.85177,0.903363,183.057,9788.95,-845.985,-0.364018,-2.99071,-5.24507,-1322.23,-9802.87,-278.804,-1.68925,6.44488,6.47626,-700.917,9616.52,-1450.16,0.468701,-7.81038,4.39182,-718.889,-9925.4,-1386.87,-4.6252,9.28221,5.97932,9090.32,783.342,3227.43,-21.1096,13.4753,0.695727
0.033,3460.75,-3905.07,8205.16,-2.81373,1.74837,0.17486,4118.54,3764.72,7936.46,-1.89675,1.86682,0.872397,183.208,9781.38,-835.796,-0.410241,-2.66523,-5.20018,-1326.72,-9805.98,-263.182,-1.72359,6.23025,6.36559,-707.749,9599.46,-1450.79,0.53946,-7.24648,4.40674,-725.31,-9913.9,-1378.86,-4.71004,9.20036,5.97005,9114.98,769.189,3224.25,-21.2471,13.3226,0.44473
0.034,3487.75,-3892.81,8210.8,-2.71524,1.79657,0.140787,4107.51,3769.11,7941.06,-1.86546,1.88187,0.84143,183.358,9773.81,-825.608,-0.456464,-2.33975,-5.1553,-1331.22,-9809.08,-247.561,-1.75793,6.01561,6.25491,-714.581,9582.41,-1451.42,0.610219,-6.68258,4.42166,-731.731,-9902.4,-1370.86,-4.79488,9.11851,5.96078,9139.64,755.035,3221.08,-21.3846,13.17,0.193732
0.035,3514.76,-3880.56,8216.45,-2.61675,1.84477,0.106713,4096.48,3773.49,7945.66,-1.83416,1.89691,0.810464,183.509,9766.24,-815.42,-0.502687,-2.01427,-5.11041,-1335.72,-9812.19,-231.939,-1.79227,5.80098,6.14424,-721.413,9565.35,-1452.04,0.680978,-6.11868,4.43658,-738.151,-9890.89,-1362.85,-4.87972,9.03667,5.95151,9164.3,740.882,3217.91,-21.5222,13.0173,-0.0572655
0.036,3526.82,-3887.95,8219.37,-2.56151,1.90653,0.17304,4090.16,3766.32,7945.28,-1.76658,1.90562,0.804326,174.997,9755.94,-811.005,-0.485202,-1.7644,-5.17954,-1344.23,-9823.41,-229.823,-1.7949,5.57732,6.06426,-732.464,9553.3,-1453.1,0.736484,-5.56139,4.46073,-747.766,-9883.2,-1366.58,-4.99976,8.97032,5.97787,9171.86,734.261,3212.76,-21.6164,12.9195,-0.351594
0.037,3520.19,-3919.88,8218.87,-2.56033,1.98524,0.364868,4089.72,3744.72,7938.66,-1.65363,1.90638,0.829224,155.656,9742.22,-813.805,-0.388083,-1.60905,-5.39119,-1357.76,-9844.77,-244.588,-1.7579,5.34237,6.02265,-748.79,9547.5,-1454.71,0.772924,-5.01238,4.49643,-761.374,-9880.26,-1384.98,-5.16379,8.92335,6.04874,9158.06,737.053,3205.13,-21.6564,12.8903,-0.700087
0.038,3513.56,-3951.8,8218.37,-2.55914,2.06395,0.556696,4089.28,3723.12,7932.04,-1.54068,1.90715,0.854123,136.316,9728.5,-816.604,-0.290965,-1.4537,-5.60283,-1371.29,-9866.12,-259.353,-1.72089,5.10742,5.98104,-765.116,9541.7,-1456.31,0.809364,-4.46336,4.53212,-774.982,-9877.33,-1403.39,-5.32783,8.87638,6.11962,9144.25,739.845,3197.5,-21.6965,12.861,-1.04858
0.039,3506.92,-3983.73,8217.87,-2.55796,2.14266,0.748524,4088.84,3701.51,7925.42,-1.42773,1.90792,0.879021,116.975,9714.79,-819.404,-0.193846,-1.29834,-5.81448,-1384.82,-9887.48,-274.118,-1.68388,4.87247,5.93944,-781.441,9535.9,-1457.91,0.845804,-3.91435,4.56782,-788.59,-9874.39,-1421.79,-5.49187,8.8294,6.19049,9130.44,742.637,3189.87,-21.7365,12.8318,-1.39707
0.04,3500.29,-4015.66,8217.38,-2.55678,2.22137,0.940352,4088.4,3679.91,7918.8,-1.31478,1.90869,0.90392,97.6345,9701.07,-822.204,-0.0967269,-1.14299,-6.02612,-1398.34,-9908.84,-288.883,-1.64688,4.63752,5.89783,-797.767,9530.09,-1459.51,0.882244,-3.36533,4.60351,-802.198,-9871.46,-1440.19,-5.65591,8.78243,6.26137,9116.64,745.43,3182.24,-21.7766,12.8025,-1.74556
0.041,3503.15,-4037.95,8199.6,-2.47059,2.25457,0.787078,4098.72,3664.04,7903.9,-1.30093,1.89538,0.927596,97.1488,9707.13,-848.823,-0.191827,-1.01693,-6.00452,-1415.97,-9897.56,-285.921,-1.55314,4.56933,5.85829,-833.669,9505.22,-1459.49,0.93087,-2.88316,4.46542,-815.692,-9872.31,-1447.24,-5.83195,8.63613,6.32236,9077.76,722.321,3173.93,-21.6938,12.8012,-2.13783
0.042,3506.0,-4060.24,8181.83,-2.38441,2.28776,0.633803,4109.04,3648.18,7889.01,-1.28708,1.88206,0.951273,96.6631,9713.18,-875.441,-0.286927,-0.890857,-5.98292,-1433.59,-9886.28,-282.96,-1.4594,4.50113,5.81874,-869.572,9480.34,-1459.46,0.979496,-2.40099,4.32733,-829.186,-9873.16,-1454.29,-6.008,8.48983,6.38335,9038.88,699.213,3165.61,-21.611,12.7998,-2.5301
0.043,3508.86,-4082.52,8164.06,-2.29823,2.32096,0.480529,4119.36,3632.31,7874.11,-1.27323,1.86875,0.97495,96.1774,9719.24,-902.059,-0.382027,-0.764788,-5.96131,-1451.22,-9875.0,-279.998,-1.36567,4.43294,5.7792,-905.474,9455.46,-1459.44,1.02812,-1.91882,4.18924,-842.681,-9874.01,-1461.34,-6.18405,8.34353,6.44435,9000.0,676.105,3157.3,-21.5282,12.7985,-2.92237
0.044,3511.71,-4104.81,8146.28,-2.21204,2.35416,0.327255,4129.68,3616.44,7859.21,-1.25938,1.85543,0.998626,95.6917,9725.3,-928.677,-0.477127,-0.63872,-5.93971,-1468.84,-9863.73,-277.037,-1.27193,4.36474,5.73966,-941.376,9430.58,-1459.41,1.07675,-1.43665,4.05115,-856.175,-9874.87,-1468.39,-6.36009,8.19723,6.50534,8961.13,652.996,3148.98,-21.4455,12.7971,-3.31463
0.045,3499.96,-4119.59,8139.63,-2.03547,2.42648,0.21449,4138.58,3612.41,7854.12,-1.24195,1.85209,0.972739,79.003,9732.23,-948.288,-0.47959,-0.534973,-6.01577,-1484.3,-9848.91,-274.4,-1.17947,4.25125,5.70671,-970.388,9415.54,-1449.33,1.08085,-1.14921,3.95534,-868.792,-9871.75,-1476.05,-6.5181,8.04395,6.57615,8949.75,624.884,3158.39,-21.3704,12.8279,-3.72472
0.046,3476.52,-4128.36,8141.87,-1.7866,2.53012,0.134133,4146.33,3617.85,7856.87,-1.22164,1.85671,0.9072,49.3519,9739.86,-962.294,-0.407942,-0.449084,-6.16996,-1498.02,-9831.25,-272.023,-1.08804,4.10153,5.67903,-993.888,9408.37,-1431.19,1.04933,-1.01757,3.89335,-880.709,-9865.46,-1484.21,-6.66167,7.88509,6.65482,8960.36,592.767,3181.98,-21.3016,12.8846,-4.14906
0.047,3453.09,-4137.13,8144.12,-1.53773,2.63375,0.0537759,4154.08,3623.28,7859.62,-1.20133,1.86134,0.841661,19.7008,9747.5,-976.3,-0.336294,-0.363194,-6.32414,-1511.75,-9813.6,-269.645,-0.99661,3.95181,5.65135,-1017.39,9401.2,-1413.06,1.01781,-0.885924,3.83136,-892.625,-9859.16,-1492.36,-6.80525,7.72623,6.73349,8970.98,560.65,3205.58,-21.2328,12.9412,-4.57341
0.048,3429.65,-4145.9,8146.36,-1.28885,2.73738,-0.0265814,4161.84,3628.72,7862.37,-1.18102,1.86596,0.776122,-9.95036,9755.13,-990.306,-0.264646,-0.277305,-6.47833,-1525.47,-9795.95,-267.268,-0.90518,3.80209,5.62367,-1040.89,9394.02,-1394.93,0.986294,-0.754281,3.76937,-904.541,-9852.87,-1500.51,-6.94882,7.56737,6.81216,8981.6,528.534,3229.17,-21.1639,12.9978,-4.99775
0.049,3410.71,-4152.98,8151.85,-1.05967,2.85461,-0.1114,4169.17,3635.49,7865.96,-1.16208,1.86823,0.709135,-32.5561,9760.69,-1002.25,-0.221083,-0.181409,-6.62362,-1537.23,-9781.57,-266.409,-0.823096,3.66723,5.58451,-1062.43,9387.7,-1376.2,0.966336,-0.643829,3.70863,-915.725,-9846.57,-1508.9,-7.07498,7.40913,6.90142,8996.36,500.333,3250.52,-21.0752,13.0391,-5.43725
0.05,3427.74,-4146.55,8183.3,-0.987963,3.08068,-0.231912,4173.14,3652.97,7876.22,-1.15413,1.85163,0.630563,1.20121,9749.64,-997.692,-0.402204,-0.00545879,-6.6978,-1533.31,-9793.35,-277.698,-0.815795,3.65134,5.45344,-1068.27,9388.17,-1352.76,1.03886,-0.70291,3.65794,-921.053,-9840.17,-1519.23,-7.06188,7.25581,7.07544,9044.28,503.461,3253.94,-20.8272,12.9576,-5.99798
0.051,3444.77,-4140.12,8214.75,-0.91626,3.30675,-0.352423,4177.11,3670.45,7886.49,-1.14617,1.83503,0.55199,34.9585,9738.59,-993.135,-0.583324,0.170491,-6.77198,-1529.39,-9805.13,-288.987,-0.808493,3.63545,5.32238,-1074.12,9388.65,-1329.32,1.11139,-0.76199,3.60725,-926.381,-9833.78,-1529.55,-7.04878,7.10249,7.24946,9092.19,506.588,3257.36,-20.5792,12.8761,-6.55872
0.052,3461.81,-4133.69,8246.2,-0.844557,3.53282,-0.472935,4181.07,3687.93,7896.75,-1.13821,1.81843,0.473417,68.7159,9727.55,-988.579,-0.764444,0.346441,-6.84616,-1525.47,-9816.91,-300.275,-0.801191,3.61956,5.19132,-1079.96,9389.13,-1305.88,1.18392,-0.821071,3.55656,-931.709,-9827.38,-1539.88,-7.03568,6.94918,7.42348,9140.11,509.715,3260.78,-20.3311,12.7946,-7.11946
0.053,3478.84,-4127.25,8277.65,-0.772854,3.75889,-0.593446,4185.04,3705.4,7907.02,-1.13026,1.80182,0.394844,102.473,9716.5,-984.022,-0.945565,0.522391,-6.92034,-1521.54,-9828.69,-311.564,-0.793889,3.60367,5.06025,-1085.81,9389.6,-1282.44,1.25644,-0.880151,3.50587,-937.036,-9820.98,-1550.2,-7.02258,6.79586,7.5975,9188.03,512.842,3264.21,-20.0831,12.7132,-7.68019
0.054,3464.48,-4105.82,8268.69,-0.763687,3.88801,-0.725462,4180.67,3724.23,7905.54,-1.1547,1.76594,0.327863,117.426,9692.91,-976.766,-0.89459,0.576487,-6.91996,-1496.61,-9829.39,-324.721,-0.838119,3.55794,4.98275,-1102.35,9383.21,-1269.3,1.25624,-0.954559,3.38587,-932.294,-9811.23,-1560.17,-7.00442,6.60097,7.72948,9205.96,507.102,3270.23,-19.926,12.429,-8.28533
0.055,3434.43,-4076.9,8239.52,-0.785788,3.96864,-0.86323,4172.12,3743.73,7898.18,-1.19534,1.7204,0.266676,122.975,9663.05,-968.161,-0.727568,0.569657,-6.88231,-1461.17,-9824.55,-338.812,-0.908116,3.49729,4.93203,-1124.25,9373.39,-1261.31,1.21966,-1.03663,3.23122,-922.516,-9799.8,-1569.98,-6.98373,6.3853,7.84042,9208.91,496.928,3277.56,-19.8142,12.0436,-8.91267
0.056,3404.37,-4047.97,8210.35,-0.807889,4.04928,-1.001,4163.58,3763.23,7890.82,-1.23598,1.67487,0.20549,128.525,9633.19,-959.556,-0.560546,0.562826,-6.84466,-1425.73,-9819.71,-352.904,-0.978112,3.43664,4.88131,-1146.15,9363.56,-1253.31,1.18308,-1.1187,3.07657,-912.738,-9788.36,-1579.78,-6.96304,6.16962,7.95137,9211.85,486.754,3284.89,-19.7025,11.6582,-9.54
0.057,3374.32,-4019.04,8181.19,-0.82999,4.12991,-1.13876,4155.03,3782.73,7883.46,-1.27662,1.62934,0.144304,134.075,9603.33,-950.952,-0.393524,0.555996,-6.80701,-1390.29,-9814.87,-366.995,-1.04811,3.37599,4.83059,-1168.04,9353.74,-1245.32,1.1465,-1.20077,2.92191,-902.96,-9776.93,-1589.58,-6.94235,5.95394,8.06231,9214.79,476.58,3292.22,-19.5907,11.2727,-10.1673
0.058,3354.61,-4000.03,8163.08,-0.809771,4.19642,-1.27093,4147.69,3798.69,7877.57,-1.31755,1.58587,0.105469,132.505,9584.44,-951.305,-0.262641,0.565672,-6.78353,-1355.69,-9812.07,-374.348,-1.09959,3.30455,4.78041,-1195.34,9347.33,-1243.56,1.13105,-1.28374,2.79212,-890.889,-9767.59,-1599.39,-6.94044,5.75,8.17672,9210.44,465.86,3297.28,-19.5411,10.927,-10.7647
0.059,3371.13,-4015.71,8183.71,-0.641433,4.21349,-1.3835,4144.54,3802.23,7876.79,-1.35953,1.54964,0.144863,106.013,9603.91,-983.01,-0.258245,0.633123,-6.80963,-1324.03,-9816.38,-358.116,-1.08629,3.19537,4.73212,-1241.51,9352.9,-1263.59,1.18953,-1.36982,2.74933,-870.793,-9765.59,-1609.26,-7.00428,5.58711,8.30325,9180.56,453.23,3294.41,-19.7089,10.7203,-11.2569
0.06,3387.66,-4031.39,8204.33,-0.473096,4.23055,-1.49606,4141.39,3805.77,7876.02,-1.4015,1.51341,0.184258,79.521,9623.38,-1014.72,-0.253849,0.700575,-6.83573,-1292.37,-9820.69,-341.884,-1.07298,3.08618,4.68382,-1287.68,9358.47,-1283.63,1.248,-1.4559,2.70654,-850.697,-9763.59,-1619.13,-7.06811,5.42423,8.42978,9150.68,440.6,3291.54,-19.8767,10.5136,-11.7492
0.061,3404.18,-4047.08,8224.96,-0.304758,4.24762,-1.60862,4138.25,3809.31,7875.25,-1.44347,1.47718,0.223652,53.029,9642.85,-1046.42,-0.249453,0.768026,-6.86183,-1260.7,-9825.01,-325.652,-1.05968,2.977,4.63553,-1333.86,9364.04,-1303.66,1.30648,-1.54199,2.66375,-830.6,-9761.59,-1629.0,-7.13194,5.26134,8.55631,9120.8,427.97,3288.68,-20.0445,10.3068,-12.2414
0.062,3420.7,-4062.76,8245.58,-0.13642,4.26469,-1.72119,4135.1,3812.86,7874.48,-1.48545,1.44095,0.263047,26.5371,9662.32,-1078.13,-0.245057,0.835477,-6.88793,-1229.04,-9829.32,-309.42,-1.04637,2.86781,4.58723,-1380.03,9369.61,-1323.7,1.36496,-1.62807,2.62096,-810.504,-9759.59,-1638.87,-7.19578,5.09846,8.68284,9090.92,415.34,3285.81,-20.2124,10.1001,-12.7337
0.063,3443.64,-4085.47,8238.14,0.000129193,4.3512,-1.75029,4134.37,3814.46,7884.03,-1.52712,1.50833,0.352487,5.31027,9669.36,-1050.3,-0.286778,0.861808,-6.84063,-1222.39,-9832.94,-296.315,-0.88737,2.87018,4.56682,-1430.67,9377.78,-1321.61,1.51133,-1.73345,2.57891,-786.564,-9775.45,-1646.83,-7.21128,5.01228,8.72657,9069.17,405.792,3265.29,-20.2484,10.1731,-13.2405
0.064,3468.42,-4110.2,8222.69,0.127596,4.45757,-1.75555,4134.33,3815.52,7896.52,-1.56871,1.6053,0.456226,-14.4123,9672.85,-1005.47,-0.341676,0.876391,-6.77235,-1222.88,-9836.36,-284.102,-0.686738,2.90441,4.55439,-1482.6,9386.68,-1313.21,1.68281,-1.84436,2.53708,-761.527,-9796.41,-1654.24,-7.21297,4.94803,8.74664,9049.74,397.124,3239.72,-20.2468,10.326,-13.7515
0.065,3493.19,-4134.93,8207.23,0.255063,4.56393,-1.76081,4134.29,3816.58,7909.02,-1.6103,1.70228,0.559965,-34.1348,9676.33,-960.645,-0.396573,0.890973,-6.70407,-1223.37,-9839.78,-271.89,-0.486107,2.93865,4.54195,-1534.52,9395.58,-1304.81,1.85429,-1.95526,2.49525,-736.489,-9817.37,-1661.65,-7.21466,4.88377,8.76671,9030.31,388.457,3214.15,-20.2451,10.4789,-14.2624
0.066,3517.97,-4159.65,8191.78,0.38253,4.67029,-1.76607,4134.25,3817.63,7921.51,-1.65188,1.79926,0.663704,-53.8573,9679.82,-915.816,-0.451471,0.905556,-6.63579,-1223.86,-9843.21,-259.678,-0.285475,2.97289,4.52951,-1586.44,9404.48,-1296.41,2.02577,-2.06616,2.45341,-711.452,-9838.33,-1669.06,-7.21635,4.81951,8.78678,9010.88,379.789,3188.58,-20.2435,10.6318,-14.7734
0.067,3526.42,-4170.86,8180.91,0.455703,4.74703,-1.86306,4132.17,3813.84,7928.48,-1.68388,1.86784,0.758553,-60.624,9681.83,-885.56,-0.528834,0.873552,-6.55834,-1225.01,-9844.97,-255.707,-0.0753581,2.97773,4.51621,-1626.14,9419.8,-1291.6,2.12427,-2.18905,2.38195,-697.448,-9847.72,-1677.82,-7.18258,4.81137,8.83057,8990.96,371.62,3177.1,-20.1728,10.8187,-15.2833
0.068,3502.2,-4155.02,8179.21,0.420286,4.76452,-2.14351,4125.99,3800.35,7924.4,-1.69669,1.87962,0.835621,-41.4788,9680.88,-884.453,-0.651129,0.748378,-6.46253,-1227.45,-9843.42,-268.221,0.15373,2.92377,4.50119,-1641.39,9447.96,-1293.97,2.07679,-2.33594,2.25124,-705.512,-9833.96,-1689.28,-7.07789,4.91545,8.92178,8970.05,364.448,3193.83,-19.964,11.0736,-15.791
0.069,3477.98,-4139.19,8177.52,0.384869,4.782,-2.42395,4119.82,3786.85,7920.33,-1.70951,1.8914,0.912689,-22.3337,9679.93,-883.347,-0.773423,0.623203,-6.36672,-1229.89,-9841.87,-280.734,0.382819,2.86981,4.48617,-1656.64,9476.12,-1296.35,2.02931,-2.48283,2.12053,-713.575,-9820.19,-1700.74,-6.9732,5.01953,9.01299,8949.14,357.275,3210.55,-19.7553,11.3286,-16.2987
0.07,3453.76,-4123.35,8175.82,0.349452,4.79949,-2.70439,4113.64,3773.36,7916.25,-1.72232,1.90318,0.989758,-3.18852,9678.98,-882.24,-0.895718,0.498028,-6.27091,-1232.34,-9840.32,-293.247,0.611907,2.81586,4.47115,-1671.89,9504.29,-1298.72,1.98183,-2.62972,1.98983,-721.639,-9806.43,-1712.2,-6.86852,5.12361,9.10421,8928.24,350.103,3227.28,-19.5465,11.5835,-16.8065
0.071,3429.54,-4107.51,8174.12,0.314036,4.81697,-2.98484,4107.46,3759.87,7912.17,-1.73513,1.91496,1.06683,15.9566,9678.03,-881.133,-1.01801,0.372854,-6.1751,-1234.78,-9838.77,-305.761,0.840995,2.7619,4.45613,-1687.13,9532.45,-1301.09,1.93435,-2.77661,1.85912,-729.702,-9792.67,-1723.66,-6.76383,5.22769,9.19542,8907.33,342.931,3244.0,-19.3377,11.8384,-17.3142
0.072,3441.28,-4113.81,8181.44,0.297104,4.89122,-2.98701,4105.4,3760.15,7901.3,-1.72513,1.84285,1.14155,-0.813173,9687.48,-879.537,-0.936282,0.237757,-6.18245,-1235.29,-9849.85,-313.245,1.02736,2.71729,4.45446,-1728.07,9543.0,-1293.46,1.97935,-3.06533,1.64071,-725.068,-9785.92,-1734.5,-6.67374,5.3237,9.37125,8915.3,340.745,3246.99,-19.1636,11.7645,-17.6081
0.073,3457.52,-4122.87,8189.88,0.282483,4.97257,-2.9544,4103.85,3762.15,7889.58,-1.71227,1.76026,1.21598,-22.0723,9698.23,-877.881,-0.82905,0.101421,-6.2027,-1235.55,-9862.5,-320.1,1.20839,2.67385,4.45446,-1772.22,9551.34,-1284.59,2.03592,-3.37178,1.41135,-718.847,-9780.04,-1745.26,-6.58547,5.41871,9.55765,8926.87,339.182,3248.26,-18.9939,11.6494,-17.8753
0.074,3473.76,-4131.93,8198.33,0.267862,5.05392,-2.92179,4102.29,3764.15,7877.86,-1.69941,1.67767,1.29041,-43.3315,9708.98,-876.224,-0.721817,-0.0349161,-6.22295,-1235.81,-9875.15,-326.955,1.38942,2.63041,4.45446,-1816.37,9559.69,-1275.71,2.09248,-3.67823,1.18198,-712.627,-9774.17,-1756.02,-6.49719,5.51371,9.74405,8938.44,337.619,3249.53,-18.8242,11.5343,-18.1424
0.075,3490.0,-4140.99,8206.77,0.253242,5.13527,-2.88917,4100.74,3766.15,7866.14,-1.68656,1.59508,1.36484,-64.5907,9719.73,-874.567,-0.614584,-0.171253,-6.2432,-1236.07,-9887.8,-333.811,1.57045,2.58697,4.45446,-1860.52,9568.04,-1266.83,2.14905,-3.98468,0.952617,-706.406,-9768.29,-1766.78,-6.40892,5.60872,9.93045,8950.02,336.056,3250.79,-18.6545,11.4192,-18.4096
0.076,3501.05,-4132.78,8211.52,0.293502,5.13866,-2.86468,4098.94,3769.52,7859.5,-1.70501,1.53138,1.41526,-95.8217,9728.16,-862.328,-0.581473,-0.263523,-6.12805,-1240.43,-9892.36,-332.963,1.71437,2.57221,4.41385,-1893.11,9571.3,-1254.74,2.17403,-4.32564,0.752283,-693.628,-9776.13,-1776.05,-6.30136,5.69556,10.0592,8962.13,334.557,3247.5,-18.3117,11.3301,-18.7143
0.077,3505.63,-4102.98,8211.67,0.402364,5.04461,-2.85035,4096.82,3774.61,7859.22,-1.7626,1.4913,1.43566,-139.518,9733.69,-836.859,-0.641013,-0.30071,-5.84365,-1249.91,-9886.79,-322.488,1.81189,2.5933,4.32247,-1911.26,9568.21,-1238.62,2.15954,-4.70975,0.588238,-672.654,-9801.11,-1783.46,-6.1697,5.77221,10.1159,8974.92,333.137,3238.5,-17.7525,11.2733,-19.066
0.078,3510.2,-4073.18,8211.82,0.511227,4.95055,-2.83601,4094.71,3779.7,7858.93,-1.82018,1.45122,1.45607,-183.214,9739.21,-811.39,-0.700553,-0.337898,-5.55925,-1259.39,-9881.22,-312.012,1.90941,2.61439,4.23109,-1929.42,9565.11,-1222.51,2.14506,-5.09386,0.424193,-651.681,-9826.1,-1790.88,-6.03803,5.84886,10.1726,8987.71,331.717,3229.5,-17.1933,11.2164,-19.4177
0.079,3514.77,-4043.38,8211.96,0.620089,4.85649,-2.82167,4092.6,3784.78,7858.65,-1.87777,1.41114,1.47647,-226.91,9744.74,-785.922,-0.760093,-0.375085,-5.27485,-1268.87,-9875.66,-301.536,2.00694,2.63547,4.13971,-1947.57,9562.01,-1206.39,2.13057,-5.47797,0.260147,-630.707,-9851.08,-1798.29,-5.90636,5.92552,10.2292,9000.51,330.297,3220.5,-16.6342,11.1596,-19.7694
0.08,3519.35,-4013.59,8212.11,0.728951,4.76244,-2.80733,4090.48,3789.87,7858.36,-1.93536,1.37106,1.49688,-270.606,9750.26,-760.453,-0.819633,-0.412272,-4.99045,-1278.35,-9870.09,-291.061,2.10446,2.65656,4.04833,-1965.72,9558.92,-1190.28,2.11608,-5.86208,0.096102,-609.734,-9876.07,-1805.7,-5.77469,6.00217,10.2859,9013.3,328.877,3211.5,-16.075,11.1028,-20.1211
0.081,3519.41,-3999.3,8239.01,0.56484,4.73448,-2.87564,4092.78,3791.69,7863.29,-1.96562,1.32017,1.52554,-314.278,9786.56,-725.817,-0.973165,-0.705411,-4.90311,-1295.41,-9877.38,-293.052,2.15615,2.64747,4.01232,-1976.34,9548.67,-1179.22,2.07437,-6.28862,0.0607496,-608.177,-9877.47,-1816.13,-5.737,6.11924,10.1807,9018.36,333.915,3218.7,-15.615,11.1217,-20.3952
0.082,3519.47,-3985.01,8265.9,0.400728,4.70652,-2.94395,4095.08,3793.51,7868.22,-1.99588,1.26928,1.55421,-357.951,9822.86,-691.18,-1.1267,-0.998549,-4.81577,-1312.48,-9884.66,-295.043,2.20784,2.63837,3.97631,-1986.96,9538.42,-1168.17,2.03266,-6.71516,0.0253971,-606.621,-9878.87,-1826.56,-5.69931,6.2363,10.0756,9023.43,338.954,3225.9,-15.155,11.1406,-20.6692
0.083,3519.53,-3970.73,8292.8,0.236617,4.67856,-3.01226,4097.38,3795.33,7873.15,-2.02614,1.21839,1.58287,-401.623,9859.16,-656.544,-1.28023,-1.29169,-4.72843,-1329.55,-9891.95,-297.033,2.25953,2.62928,3.94029,-1997.57,9528.18,-1157.11,1.99095,-7.1417,-0.00995534,-605.064,-9880.27,-1837.0,-5.66162,6.35337,9.9704,9028.49,343.992,3233.1,-14.695,11.1595,-20.9433
0.084,3519.59,-3956.44,8319.7,0.072505,4.6506,-3.08058,4099.68,3797.15,7878.08,-2.0564,1.1675,1.61154,-445.296,9895.45,-621.907,-1.43376,-1.58483,-4.64109,-1346.62,-9899.24,-299.024,2.31122,2.62018,3.90428,-2008.19,9517.93,-1146.06,1.94924,-7.56824,-0.0453078,-603.508,-9881.67,-1847.43,-5.62393,6.47044,9.86522,9033.56,349.03,3240.31,-14.235,11.1784,-21.2173
0.085,3524.42,-3938.21,8325.62,-0.0156343,4.6597,-3.07241,4108.08,3796.77,7879.35,-2.07955,1.07364,1.60554,-466.069,9921.51,-601.587,-1.44162,-1.89313,-4.50687,-1347.91,-9903.2,-307.826,2.35857,2.59344,3.94692,-2026.23,9510.71,-1128.85,1.94334,-8.04626,-0.155044,-613.611,-9884.61,-1851.41,-5.58727,6.53856,9.79143,9050.03,354.48,3243.24,-13.905,11.2051,-21.4549
0.086,3533.07,-3916.83,8314.77,-0.0429958,4.69847,-3.00305,4121.35,3794.62,7877.69,-2.09702,0.945388,1.57182,-468.523,9939.37,-592.72,-1.33293,-2.21357,-4.33515,-1336.57,-9904.5,-322.076,2.40245,2.55258,4.05249,-2050.2,9505.91,-1106.73,1.96609,-8.56545,-0.324288,-633.042,-9888.78,-1850.24,-5.55144,6.56752,9.74274,9075.63,360.259,3242.75,-13.679,11.2379,-21.6634
0.087,3541.71,-3895.45,8303.91,-0.0703572,4.73723,-2.9337,4134.63,3792.47,7876.04,-2.11448,0.81714,1.5381,-470.977,9957.23,-583.853,-1.22425,-2.534,-4.16343,-1325.22,-9905.8,-336.326,2.44632,2.51172,4.15805,-2074.18,9501.11,-1084.61,1.98884,-9.08465,-0.493532,-652.472,-9892.95,-1849.06,-5.51561,6.59648,9.69404,9101.22,366.038,3242.27,-13.453,11.2707,-21.8718
0.088,3550.36,-3874.07,8293.06,-0.0977187,4.77599,-2.86434,4147.91,3790.32,7874.38,-2.13194,0.688893,1.50437,-473.432,9975.09,-574.986,-1.11556,-2.85444,-3.99171,-1313.88,-9907.1,-350.576,2.4902,2.47086,4.26361,-2098.15,9496.31,-1062.48,2.0116,-9.60384,-0.662776,-671.903,-9897.12,-1847.89,-5.47979,6.62544,9.64535,9126.82,371.817,3241.78,-13.227,11.3036,-22.0803
0.089,3558.5,-3855.74,8282.44,-0.122923,4.7921,-2.79484,4159.2,3789.43,7874.6,-2.14343,0.571721,1.47467,-477.975,9988.38,-564.24,-1.01134,-3.17578,-3.81316,-1303.18,-9906.5,-361.842,2.53374,2.43405,4.35334,-2120.27,9494.17,-1039.49,2.02186,-10.1219,-0.832417,-693.165,-9902.33,-1845.54,-5.43468,6.66036,9.60916,9150.22,376.362,3242.94,-13.0298,11.34,-22.2533
0.09,3562.57,-3861.89,8273.7,-0.130875,4.62697,-2.72416,4154.57,3798.62,7889.79,-2.10708,0.543158,1.47712,-499.235,9965.01,-538.462,-0.942855,-3.50431,-3.57993,-1297.64,-9890.72,-349.234,2.57461,2.42956,4.31641,-2127.51,9513.33,-1009.5,1.93227,-10.6305,-1.00523,-729.076,-9915.85,-1833.79,-5.3153,6.74295,9.67298,9156.02,371.035,3257.26,-13.0633,11.405,-22.1431
0.091,3566.64,-3868.03,8264.97,-0.138826,4.46185,-2.65349,4149.94,3807.81,7904.98,-2.07073,0.514596,1.47957,-520.495,9941.65,-512.685,-0.874369,-3.83284,-3.3467,-1292.11,-9874.94,-336.625,2.61548,2.42508,4.27947,-2134.75,9532.5,-979.506,1.84267,-11.1391,-1.17804,-764.987,-9929.38,-1822.03,-5.19592,6.82553,9.7368,9161.82,365.707,3271.59,-13.0968,11.47,-22.0329
0.092,3570.7,-3874.17,8256.24,-0.146777,4.29673,-2.58281,4145.31,3817.0,7920.17,-2.03438,0.486033,1.48202,-541.755,9918.29,-486.907,-0.805883,-4.16138,-3.11347,-1286.57,-9859.17,-324.017,2.65635,2.4206,4.24254,-2141.98,9551.66,-949.515,1.75308,-11.6478,-1.35085,-800.897,-9942.9,-1810.28,-5.07654,6.90812,9.80062,9167.62,360.38,3285.91,-13.1304,11.535,-21.9227
0.093,3574.77,-3880.31,8247.5,-0.154728,4.1316,-2.51213,4140.68,3826.19,7935.36,-1.99803,0.45747,1.48447,-563.015,9894.93,-461.129,-0.737396,-4.48991,-2.88025,-1281.03,-9843.39,-311.408,2.69722,2.41611,4.2056,-2149.22,9570.83,-919.524,1.66348,-12.1564,-1.52367,-836.808,-9956.42,-1798.52,-4.95716,6.99071,9.86444,9173.42,355.053,3300.23,-13.1639,11.6,-21.8126
0.094,3571.07,-3875.4,8238.95,-0.371119,4.00353,-2.4044,4130.63,3836.75,7934.86,-1.94829,0.467111,1.56138,-559.801,9903.8,-457.322,-0.669774,-4.76616,-2.77931,-1275.13,-9839.68,-308.949,2.729,2.35368,4.15549,-2144.7,9569.28,-904.297,1.62345,-12.6246,-1.74351,-859.368,-9973.17,-1784.12,-4.89015,7.0491,9.85343,9196.49,373.473,3316.94,-13.2419,11.6294,-21.5743
0.095,3563.49,-3864.98,8230.49,-0.691731,3.89398,-2.27814,4117.87,3848.0,7926.51,-1.89185,0.495854,1.67552,-544.35,9928.78,-464.5,-0.602584,-5.01625,-2.74452,-1269.06,-9841.99,-311.563,2.75624,2.26227,4.0988,-2134.29,9557.38,-896.451,1.60821,-13.0726,-1.98687,-875.252,-9991.53,-1768.4,-4.84934,7.09539,9.80501,9228.21,403.767,3334.85,-13.3421,11.6409,-21.2721
0.096,3555.91,-3854.55,8222.03,-1.01234,3.78443,-2.15189,4105.11,3859.24,7918.16,-1.83541,0.524597,1.78967,-528.899,9953.77,-471.678,-0.535394,-5.26635,-2.70974,-1262.98,-9844.31,-314.178,2.78348,2.17087,4.04211,-2123.88,9545.47,-888.606,1.59297,-13.5206,-2.23024,-891.135,-10009.9,-1752.68,-4.80852,7.14167,9.75659,9259.92,434.062,3352.76,-13.4423,11.6525,-20.9699
0.097,3548.33,-3844.12,8213.57,-1.33295,3.67488,-2.02564,4092.35,3870.49,7909.81,-1.77897,0.55334,1.90381,-513.448,9978.75,-478.856,-0.468204,-5.51645,-2.67495,-1256.91,-9846.63,-316.793,2.81072,2.07946,3.98541,-2113.48,9533.57,-880.76,1.57773,-13.9686,-2.4736,-907.019,-10028.3,-1736.95,-4.76771,7.18796,9.70816,9291.64,464.356,3370.66,-13.5425,11.664,-20.6676
0.098,3540.99,-3830.24,8212.97,-1.57697,3.57481,-1.8914,4082.53,3877.79,7904.04,-1.70923,0.548097,2.00759,-495.373,9998.0,-484.668,-0.375662,-5.73524,-2.59601,-1254.18,-9850.09,-318.013,2.81204,1.99151,3.93884,-2105.39,9527.39,-869.655,1.55146,-14.3836,-2.72439,-923.712,-10045.4,-1722.65,-4.72761,7.24375,9.65416,9323.79,492.934,3385.08,-13.6433,11.696,-20.342
0.099,3534.51,-3804.25,8239.9,-1.55291,3.50791,-1.72925,4083.0,3871.31,7907.28,-1.59292,0.423903,2.07513,-468.118,9997.17,-485.704,-0.194389,-5.84445,-2.3625,-1263.13,-9857.56,-314.352,2.72264,1.91568,3.92771,-2105.43,9541.26,-847.143,1.48658,-14.6833,-3.0012,-943.238,-10058.5,-1713.29,-4.69002,7.33282,9.58063,9357.43,515.502,3387.26,-13.7462,11.7996,-19.9347
0.1,3528.02,-3778.26,8266.83,-1.52886,3.44102,-1.5671,4083.47,3864.82,7910.52,-1.4766,0.29971,2.14268,-440.863,9996.33,-486.739,-0.013116,-5.95367,-2.129,-1272.08,-9865.03,-310.692,2.63324,1.83985,3.91657,-2105.46,9555.13,-824.63,1.4217,-14.9829,-3.27801,-962.764,-10071.5,-1703.93,-4.65243,7.4219,9.5071,9391.07,538.07,3389.45,-13.849,11.9032,-19.5275
0.101,3521.54,-3752.27,8293.77,-1.5048,3.37412,-1.40495,4083.94,3858.33,7913.76,-1.36029,0.175516,2.21022,-413.607,9995.5,-487.774,0.168157,-6.06289,-1.8955,-1281.04,-9872.51,-307.032,2.54384,1.76401,3.90544,-2105.5,9568.99,-802.118,1.35683,-15.2826,-3.55482,-982.29,-10084.6,-1694.57,-4.61484,7.51097,9.43357,9424.71,560.638,3391.64,-13.9518,12.0068,-19.1202
0.102,3515.06,-3726.29,8320.7,-1.48074,3.30722,-1.24279,4084.4,3851.85,7917.0,-1.24398,0.0513223,2.27776,-386.352,9994.67,-488.81,0.34943,-6.1721,-1.662,-1289.99,-9879.98,-303.371,2.45444,1.68818,3.8943,-2105.53,9582.86,-779.605,1.29195,-15.5822,-3.83164,-1001.82,-10097.6,-1685.21,-4.57725,7.60004,9.36004,9458.36,583.206,3393.83,-14.0547,12.1104,-18.7129
0.103,3509.29,-3736.69,8307.66,-1.51502,3.27158,-1.14518,4083.53,3823.66,7913.74,-1.18557,-0.0320542,2.25998,-374.75,9985.97,-480.951,0.434107,-6.35536,-1.63592,-1307.81,-9882.55,-293.587,2.31223,1.573,3.89023,-2107.45,9590.09,-779.869,1.25346,-15.8391,-4.06859,-1004.6,-10095.8,-1676.0,-4.55567,7.53472,9.31809,9473.67,567.818,3399.66,-14.0789,12.0821,-18.4238
0.104,3503.73,-3757.5,8283.19,-1.56597,3.24487,-1.06601,4082.28,3789.28,7908.62,-1.14371,-0.103769,2.21783,-367.622,9975.02,-470.551,0.491185,-6.55977,-1.6691,-1328.17,-9883.71,-282.054,2.15495,1.44658,3.88818,-2109.91,9595.43,-786.641,1.22251,-16.0838,-4.29417,-1002.6,-10089.7,-1666.84,-4.53866,7.42529,9.28516,9483.74,541.586,3406.53,-14.0806,12.0161,-18.1685
0.105,3498.17,-3778.31,8258.73,-1.61693,3.21817,-0.986843,4081.02,3754.89,7903.51,-1.10184,-0.175483,2.17568,-360.493,9964.06,-460.15,0.548263,-6.76419,-1.70228,-1348.52,-9884.87,-270.521,1.99766,1.32016,3.88612,-2112.37,9600.77,-793.413,1.19156,-16.3285,-4.51974,-1000.6,-10083.6,-1657.68,-4.52165,7.31586,9.25223,9493.81,515.353,3413.4,-14.0823,11.9501,-17.9132
0.106,3492.61,-3799.11,8234.26,-1.66788,3.19146,-0.907673,4079.76,3720.51,7898.39,-1.05997,-0.247197,2.13352,-353.364,9953.11,-449.75,0.60534,-6.9686,-1.73546,-1368.88,-9886.03,-258.987,1.84037,1.19374,3.88406,-2114.83,9606.1,-800.185,1.16061,-16.5733,-4.74531,-998.601,-10077.5,-1648.52,-4.50465,7.20643,9.2193,9503.88,489.121,3420.27,-14.084,11.8842,-17.6579
0.107,3487.68,-3803.35,8219.59,-1.69798,3.09401,-0.779138,4076.93,3692.81,7892.58,-1.03349,-0.326368,2.09937,-344.222,9937.35,-438.727,0.663785,-7.11289,-1.70995,-1384.24,-9883.51,-247.501,1.71518,1.06197,3.84872,-2110.77,9612.85,-809.041,1.13828,-16.6741,-4.95544,-994.891,-10068.3,-1634.69,-4.46233,7.07815,9.19699,9501.92,472.613,3432.17,-14.0108,11.833,-17.283
0.108,3484.0,-3774.46,8224.51,-1.68637,2.8551,-0.551873,4070.93,3678.5,7885.39,-1.03778,-0.420451,2.08124,-331.055,9911.94,-426.457,0.724965,-7.13693,-1.56705,-1389.62,-9873.62,-236.109,1.6542,0.919483,3.74679,-2093.66,9622.41,-822.068,1.13316,-16.4873,-5.13465,-987.76,-10052.7,-1611.52,-4.36941,6.91215,9.19591,9475.9,475.554,3454.15,-13.7876,11.8115,-16.6689
0.109,3480.32,-3745.57,8229.43,-1.67476,2.61618,-0.324608,4064.94,3664.19,7878.2,-1.04207,-0.514534,2.0631,-317.887,9886.54,-414.187,0.786144,-7.16097,-1.42415,-1395.0,-9863.72,-224.717,1.59322,0.776998,3.64486,-2076.56,9631.97,-835.094,1.12805,-16.3005,-5.31387,-980.628,-10037.2,-1588.35,-4.27648,6.74615,9.19483,9449.88,478.494,3476.12,-13.5644,11.7899,-16.0547
0.11,3476.64,-3716.68,8234.34,-1.66316,2.37726,-0.0973431,4058.94,3649.88,7871.01,-1.04636,-0.608617,2.04496,-304.72,9861.14,-401.917,0.847323,-7.18501,-1.28126,-1400.38,-9853.83,-213.325,1.53224,0.634513,3.54294,-2059.45,9641.54,-848.12,1.12293,-16.1136,-5.49309,-973.497,-10021.6,-1565.19,-4.18356,6.58015,9.19376,9423.86,481.435,3498.09,-13.3412,11.7684,-15.4406
0.111,3472.95,-3687.79,8239.26,-1.65155,2.13834,0.129922,4052.95,3635.57,7863.82,-1.05066,-0.702701,2.02682,-291.552,9835.73,-389.647,0.908502,-7.20905,-1.13836,-1405.76,-9843.93,-201.933,1.47126,0.492028,3.44101,-2042.34,9651.1,-861.147,1.11782,-15.9268,-5.67231,-966.366,-10006.0,-1542.02,-4.09063,6.41416,9.19268,9397.84,484.376,3520.06,-13.118,11.7469,-14.8264
0.112,3513.44,-3717.66,8251.56,-1.84016,2.03505,0.0863907,4072.13,3640.77,7886.67,-0.926344,-0.763348,2.02746,-274.526,9835.13,-399.046,0.931537,-7.01345,-1.04774,-1435.81,-9846.16,-208.144,1.53798,0.335814,3.32119,-2012.21,9643.15,-883.778,1.03673,-15.5188,-5.89106,-974.128,-10009.4,-1517.08,-4.01699,6.27277,9.19685,9399.16,484.992,3522.89,-12.7886,11.7237,-14.222
0.113,3559.45,-3754.87,8264.79,-2.05379,1.94872,0.00901006,4094.46,3648.4,7913.29,-0.785956,-0.819816,2.03044,-257.017,9837.63,-411.153,0.949804,-6.7904,-0.963643,-1468.94,-9849.9,-216.555,1.62066,0.177884,3.19914,-1980.45,9633.01,-907.61,0.946145,-15.0833,-6.11474,-983.751,-10015.0,-1491.92,-3.94576,6.13447,9.20168,9403.9,485.318,3523.32,-12.446,11.7002,-13.6188
0.114,3605.46,-3792.08,8278.01,-2.26742,1.86238,-0.0683706,4116.8,3656.04,7939.9,-0.645569,-0.876284,2.03343,-239.508,9840.13,-423.261,0.968071,-6.56734,-0.87955,-1502.06,-9853.64,-224.966,1.70335,0.0199539,3.07708,-1948.69,9622.87,-931.442,0.855558,-14.6477,-6.33842,-993.374,-10020.7,-1466.75,-3.87452,5.99616,9.20651,9408.64,485.644,3523.76,-12.1033,11.6768,-13.0156
0.115,3651.46,-3829.29,8291.23,-2.48105,1.77604,-0.145751,4139.13,3663.67,7966.52,-0.505182,-0.932752,2.03641,-221.999,9842.63,-435.369,0.986338,-6.34429,-0.795456,-1535.19,-9857.39,-233.378,1.78603,-0.137976,2.95503,-1916.92,9612.74,-955.274,0.764972,-14.2121,-6.5621,-1003.0,-10026.4,-1441.59,-3.80329,5.85786,9.21134,9413.38,485.97,3524.19,-11.7607,11.6534,-12.4124
0.116,3658.67,-3844.49,8305.19,-2.65272,1.67678,-0.120526,4152.2,3672.08,7987.33,-0.401712,-0.970381,2.08391,-216.146,9842.64,-451.222,1.05736,-6.08807,-0.672878,-1554.12,-9857.08,-236.113,1.80811,-0.302396,2.88149,-1873.0,9613.55,-966.265,0.676528,-13.7886,-6.79712,-1015.61,-10024.2,-1433.52,-3.78415,5.67212,9.20172,9404.8,493.388,3523.46,-11.3777,11.6034,-11.7214
0.117,3617.37,-3832.19,8320.06,-2.77194,1.56138,0.032955,4153.71,3681.45,8000.9,-0.34439,-0.984462,2.18703,-224.86,9839.55,-471.758,1.19433,-5.79038,-0.502196,-1555.29,-9851.71,-231.754,1.75442,-0.47493,2.86861,-1813.86,9628.07,-961.206,0.590763,-13.3803,-7.04631,-1031.95,-10011.9,-1446.82,-3.83015,5.42711,9.17406,9379.58,509.672,3521.27,-10.9441,11.5202,-10.9205
0.118,3576.07,-3819.89,8334.93,-2.89116,1.44597,0.186437,4155.21,3690.81,8014.47,-0.287069,-0.998543,2.29016,-233.575,9836.46,-492.294,1.3313,-5.4927,-0.331514,-1556.46,-9846.34,-227.395,1.70073,-0.647463,2.85573,-1754.72,9642.58,-956.147,0.504998,-12.972,-7.29549,-1048.29,-9999.7,-1460.11,-3.87615,5.18209,9.14639,9354.37,525.956,3519.07,-10.5106,11.4371,-10.1196
0.119,3534.78,-3807.59,8349.79,-3.01037,1.33057,0.339918,4156.72,3700.18,8028.04,-0.229747,-1.01262,2.39329,-242.29,9833.37,-512.829,1.46826,-5.19502,-0.160832,-1557.62,-9840.97,-223.036,1.64704,-0.819997,2.84284,-1695.58,9657.09,-951.088,0.419233,-12.5637,-7.54468,-1064.63,-9987.47,-1473.41,-3.92215,4.93708,9.11872,9329.15,542.24,3516.88,-10.0771,11.3539,-9.31869
0.12,3493.48,-3795.29,8364.66,-3.12959,1.21516,0.493399,4158.22,3709.55,8041.6,-0.172425,-1.0267,2.49641,-251.005,9830.29,-533.365,1.60523,-4.89734,0.0098504,-1558.79,-9835.6,-218.676,1.59335,-0.99253,2.82996,-1636.44,9671.6,-946.028,0.333468,-12.1554,-7.79387,-1080.97,-9975.24,-1486.7,-3.96815,4.69206,9.09105,9303.93,558.523,3514.69,-9.64352,11.2707,-8.5178
0.121,3489.8,-3801.46,8371.82,-3.32049,1.18545,0.534993,4138.79,3725.49,8027.22,-0.0953362,-1.05977,2.5578,-250.202,9860.07,-517.635,1.70654,-4.71546,0.114539,-1539.54,-9839.64,-218.227,1.47281,-1.22861,2.74124,-1604.68,9665.03,-951.592,0.224964,-11.483,-8.07252,-1085.16,-9988.48,-1478.55,-4.03273,4.47544,9.07753,9289.26,552.724,3541.97,-9.13286,11.3421,-7.81918
0.122,3486.12,-3807.63,8378.97,-3.51139,1.15574,0.576587,4119.36,3741.44,8012.83,-0.0182478,-1.09284,2.61919,-249.399,9889.86,-501.905,1.80784,-4.53359,0.219228,-1520.29,-9843.67,-217.777,1.35227,-1.46469,2.65252,-1572.92,9658.45,-957.155,0.11646,-10.8105,-8.35117,-1089.34,-10001.7,-1470.4,-4.0973,4.25881,9.06401,9274.59,546.925,3569.25,-8.6222,11.4135,-7.12057
0.123,3482.43,-3813.8,8386.13,-3.70229,1.12602,0.618181,4099.93,3757.38,7998.45,0.0588406,-1.12591,2.68058,-248.597,9919.65,-486.174,1.90915,-4.35172,0.323917,-1501.03,-9847.71,-217.328,1.23173,-1.70076,2.5638,-1541.15,9651.87,-962.718,0.00795653,-10.1381,-8.62982,-1093.53,-10015.0,-1462.25,-4.16187,4.04218,9.05049,9259.92,541.126,3596.53,-8.11153,11.4849,-6.42195
0.124,3478.75,-3819.97,8393.29,-3.89319,1.09631,0.659775,4080.5,3773.32,7984.06,0.135929,-1.15898,2.74197,-247.794,9949.44,-470.444,2.01046,-4.16985,0.428606,-1481.78,-9851.75,-216.878,1.11119,-1.93684,2.47507,-1509.39,9645.3,-968.281,-0.100547,-9.46563,-8.90847,-1097.72,-10028.2,-1454.1,-4.22645,3.82555,9.03697,9245.25,535.327,3623.8,-7.60087,11.5563,-5.72333
0.125,3485.27,-3820.58,8382.65,-3.99426,0.986987,0.829119,4074.27,3777.56,7973.23,0.230949,-1.17952,2.75679,-252.462,9957.43,-468.003,2.0465,-3.92812,0.516319,-1473.48,-9861.13,-208.574,1.02317,-2.21175,2.4023,-1475.39,9638.1,-978.507,-0.223509,-8.71182,-9.18278,-1100.45,-10036.1,-1447.82,-4.15877,3.62365,8.98324,9217.87,524.279,3628.42,-7.08091,11.5625,-5.05816
0.126,3499.93,-3816.75,8357.79,-4.02346,0.813974,1.10066,4078.61,3772.44,7965.24,0.340316,-1.19003,2.73435,-261.507,9947.98,-476.194,2.03034,-3.63851,0.590452,-1473.95,-9874.78,-193.985,0.961159,-2.51772,2.34228,-1439.61,9630.41,-992.463,-0.358038,-7.89292,-9.45363,-1102.01,-10039.5,-1443.04,-3.98528,3.43354,8.89735,9180.31,509.032,3614.89,-6.55352,11.5164,-4.41975
0.127,3514.6,-3812.91,8332.93,-4.05266,0.640961,1.37221,4082.95,3767.31,7957.26,0.449682,-1.20054,2.71191,-270.553,9938.53,-484.384,2.01418,-3.3489,0.664585,-1474.41,-9888.43,-179.396,0.899147,-2.82369,2.28226,-1403.82,9622.71,-1006.42,-0.492567,-7.07402,-9.72448,-1103.57,-10043.0,-1438.26,-3.8118,3.24342,8.81146,9142.76,493.785,3601.37,-6.02614,11.4704,-3.78133
0.128,3529.27,-3809.08,8308.07,-4.08187,0.467948,1.64375,4087.29,3762.19,7949.27,0.559048,-1.21106,2.68947,-279.598,9929.08,-492.575,1.99802,-3.05928,0.738718,-1474.88,-9902.09,-164.808,0.837136,-3.12967,2.22223,-1368.03,9615.02,-1020.38,-0.627096,-6.25513,-9.99532,-1105.14,-10046.5,-1433.47,-3.63831,3.05331,8.72557,9105.21,478.537,3587.85,-5.49875,11.4244,-3.14291
0.129,3544.65,-3807.95,8286.21,-4.11263,0.302898,1.88732,4092.2,3756.75,7941.76,0.66743,-1.2233,2.67129,-284.223,9919.68,-501.8,1.9894,-2.75802,0.814036,-1472.21,-9911.78,-153.394,0.777348,-3.41688,2.16691,-1335.07,9607.5,-1036.16,-0.750893,-5.40589,-10.2597,-1109.94,-10048.5,-1428.98,-3.47588,2.85732,8.64935,9067.57,466.218,3578.35,-4.99905,11.3811,-2.49487
0.13,3565.78,-3828.45,8288.3,-4.15584,0.201548,1.90711,4101.67,3748.81,7938.06,0.767938,-1.24943,2.68714,-253.491,9910.68,-519.306,2.04106,-2.36358,0.898845,-1444.45,-9889.81,-167.383,0.73535,-3.55407,2.14918,-1324.74,9601.39,-1066.54,-0.788833,-4.31398,-10.4725,-1140.62,-10037.9,-1426.82,-3.40187,2.61434,8.65049,9029.24,477.322,3601.04,-4.7208,11.3598,-1.7698
0.131,3586.92,-3848.95,8290.39,-4.19906,0.100198,1.92689,4111.13,3740.87,7934.36,0.868446,-1.27557,2.703,-222.758,9901.67,-536.812,2.09272,-1.96913,0.983653,-1416.69,-9867.84,-181.371,0.693352,-3.69127,2.13145,-1314.41,9595.27,-1096.93,-0.826773,-3.22206,-10.6853,-1171.31,-10027.3,-1424.65,-3.32785,2.37136,8.65163,8990.91,488.426,3623.72,-4.44256,11.3385,-1.04472
0.132,3608.05,-3869.45,8292.48,-4.24227,-0.00115254,1.94668,4120.6,3732.93,7930.66,0.968955,-1.3017,2.71886,-192.026,9892.67,-554.317,2.14438,-1.57469,1.06846,-1388.94,-9845.87,-195.36,0.651354,-3.82846,2.11372,-1304.08,9589.16,-1127.32,-0.864713,-2.13015,-10.8981,-1201.99,-10016.7,-1422.49,-3.25384,2.12838,8.65277,8952.58,499.53,3646.41,-4.16432,11.3171,-0.319647
0.133,3629.18,-3889.96,8294.57,-4.28549,-0.102503,1.96646,4130.06,3724.99,7926.97,1.06946,-1.32783,2.73471,-161.293,9883.67,-571.823,2.19603,-1.18024,1.15327,-1361.18,-9823.9,-209.349,0.609356,-3.96565,2.09598,-1293.75,9583.04,-1157.7,-0.902653,-1.03823,-11.1108,-1232.68,-10006.2,-1420.32,-3.17982,1.88539,8.65392,8914.24,510.634,3669.1,-3.88607,11.2958,0.405428
0.134,3615.28,-3878.79,8287.11,-4.34618,-0.161756,2.11731,4141.92,3710.99,7922.77,1.13562,-1.31126,2.67352,-150.725,9869.66,-578.986,2.26037,-0.880807,1.21248,-1363.96,-9819.59,-213.029,0.553311,-4.12126,2.06669,-1280.58,9594.54,-1189.8,-0.955956,0.085565,-11.372,-1255.76,-10006.2,-1405.13,-3.07892,1.64819,8.59927,8901.64,507.72,3694.45,-3.6399,11.1935,0.956404
0.135,3583.86,-3851.78,8274.88,-4.41562,-0.199961,2.33369,4154.97,3693.97,7918.33,1.1846,-1.27335,2.5738,-150.24,9853.14,-580.979,2.33105,-0.62888,1.25888,-1382.02,-9824.13,-211.556,0.490241,-4.28608,2.03162,-1266.01,9614.85,-1222.74,-1.01694,1.2253,-11.6573,-1275.05,-10011.6,-1383.42,-2.96456,1.41387,8.51672,8901.89,497.797,3721.14,-3.40976,11.0508,1.42033
0.136,3552.45,-3824.78,8262.66,-4.48505,-0.238166,2.55007,4168.03,3676.95,7913.89,1.23358,-1.23543,2.47409,-149.756,9836.62,-582.972,2.40173,-0.376954,1.30529,-1400.07,-9828.66,-210.082,0.427171,-4.4509,1.99655,-1251.43,9635.17,-1255.69,-1.07792,2.36504,-11.9425,-1294.33,-10016.9,-1361.72,-2.85021,1.17955,8.43418,8902.14,487.874,3747.83,-3.17961,10.908,1.88426
0.137,3521.03,-3797.77,8250.43,-4.55449,-0.276372,2.76644,4181.08,3659.93,7909.45,1.28256,-1.19751,2.37437,-149.271,9820.1,-584.965,2.47241,-0.125027,1.3517,-1418.13,-9833.19,-208.609,0.364102,-4.61572,1.96148,-1236.85,9655.48,-1288.64,-1.13891,3.50478,-12.2278,-1313.62,-10022.3,-1340.01,-2.73586,0.945236,8.35163,8902.4,477.951,3774.51,-2.94947,10.7653,2.34819
0.138,3494.0,-3787.42,8242.56,-4.63459,-0.332422,2.90149,4192.45,3643.55,7903.24,1.30385,-1.17342,2.28265,-146.54,9804.18,-589.99,2.52189,0.0869318,1.41056,-1433.31,-9832.14,-206.529,0.335512,-4.73224,1.92727,-1222.72,9666.2,-1318.76,-1.18881,4.65414,-12.5068,-1330.98,-10023.0,-1325.92,-2.68117,0.673501,8.27884,8895.84,468.69,3789.92,-2.73041,10.6215,2.81764
0.139,3482.31,-3835.34,8249.94,-4.75202,-0.450928,2.75187,4197.9,3629.4,7890.85,1.22823,-1.1977,2.21894,-135.948,9790.36,-605.626,2.49715,0.159005,1.51302,-1438.44,-9811.56,-202.327,0.427601,-4.67969,1.89608,-1210.15,9643.39,-1338.97,-1.19992,5.83715,-12.7635,-1341.57,-10007.5,-1338.49,-2.8353,0.270804,8.24019,8865.47,461.746,3765.84,-2.55013,10.4745,3.30641
0.14,3470.62,-3883.27,8257.31,-4.86945,-0.569435,2.60225,4203.35,3615.26,7878.47,1.15261,-1.22198,2.15524,-125.357,9776.53,-621.263,2.47242,0.231077,1.61548,-1443.57,-9790.98,-198.125,0.519691,-4.62715,1.86488,-1197.57,9620.58,-1359.18,-1.21104,7.02016,-13.0202,-1352.17,-9991.91,-1351.06,-2.98943,-0.131893,8.20154,8835.09,454.802,3741.76,-2.36984,10.3275,3.79519
0.141,3458.93,-3931.19,8264.69,-4.98689,-0.687942,2.45263,4208.8,3601.11,7866.08,1.07698,-1.24626,2.09153,-114.766,9762.7,-636.9,2.44769,0.30315,1.71793,-1448.7,-9770.4,-193.923,0.611781,-4.57461,1.83369,-1185.0,9597.76,-1379.4,-1.22215,8.20317,-13.277,-1362.77,-9976.37,-1363.63,-3.14356,-0.53459,8.1629,8804.71,447.858,3717.68,-2.18956,10.1805,4.28396
0.142,3447.25,-3979.12,8272.06,-5.10432,-0.806449,2.30301,4214.25,3586.97,7853.69,1.00136,-1.27054,2.02782,-104.175,9748.88,-652.536,2.42295,0.375223,1.82039,-1453.83,-9749.82,-189.721,0.70387,-4.52207,1.8025,-1172.42,9574.95,-1399.61,-1.23327,9.38618,-13.5337,-1373.36,-9960.82,-1376.2,-3.29769,-0.937286,8.12425,8774.34,440.914,3693.6,-2.00927,10.0334,4.77274
0.143,3455.46,-3981.48,8273.1,-5.0046,-0.932298,2.41715,4219.04,3597.83,7848.48,0.986331,-1.23479,1.9502,-113.525,9754.44,-659.116,2.45686,0.454748,1.83768,-1450.87,-9722.49,-183.022,0.712618,-4.45547,1.76518,-1165.19,9563.14,-1419.95,-1.26539,10.4484,-13.8304,-1389.79,-9930.18,-1366.22,-3.46086,-1.33863,8.01267,8782.37,469.028,3696.79,-1.81336,9.86649,5.30707
0.144,3469.37,-3970.83,8272.33,-4.84283,-1.06024,2.60666,4223.65,3615.83,7845.32,0.988618,-1.18189,1.86861,-128.572,9765.55,-663.108,2.50753,0.536403,1.83062,-1445.61,-9693.24,-175.611,0.697554,-4.38485,1.7261,-1159.49,9554.48,-1440.32,-1.3035,11.4762,-14.1385,-1407.88,-9895.23,-1349.8,-3.62662,-1.7396,7.88025,8801.38,507.158,3707.76,-1.61298,9.69386,5.85442
0.145,3483.28,-3960.18,8271.56,-4.68107,-1.18819,2.79617,4228.25,3633.83,7842.16,0.990905,-1.129,1.78702,-143.62,9776.66,-667.1,2.5582,0.618059,1.82357,-1440.34,-9663.99,-168.199,0.68249,-4.31424,1.68703,-1153.79,9545.82,-1460.69,-1.34162,12.5039,-14.4466,-1425.98,-9860.28,-1333.37,-3.79237,-2.14056,7.74784,8820.39,545.289,3718.73,-1.41259,9.52124,6.40176
0.146,3497.18,-3949.53,8270.79,-4.5193,-1.31614,2.98568,4232.86,3651.84,7839.0,0.993193,-1.0761,1.70543,-158.668,9787.77,-671.092,2.60886,0.699714,1.81652,-1435.08,-9634.74,-160.787,0.667425,-4.24362,1.64796,-1148.1,9537.16,-1481.06,-1.37974,13.5316,-14.7547,-1444.07,-9825.32,-1316.95,-3.95813,-2.54152,7.61542,8839.39,583.419,3729.7,-1.21221,9.34861,6.94911
0.147,3515.5,-3947.22,8270.3,-4.41131,-1.3828,3.11708,4227.17,3668.58,7838.59,1.02392,-1.02991,1.63398,-175.936,9793.32,-678.858,2.65674,0.84995,1.8093,-1432.71,-9618.48,-157.368,0.650062,-4.21948,1.58522,-1154.39,9525.51,-1490.62,-1.43762,14.4873,-15.0393,-1463.31,-9798.24,-1308.91,-4.10686,-2.94418,7.46005,8850.7,610.762,3739.8,-1.00923,9.20767,7.46096
0.148,3542.64,-3961.61,8270.37,-4.41087,-1.32689,3.13225,4200.91,3682.8,7843.66,1.11153,-0.997115,1.58282,-197.645,9787.77,-694.174,2.69905,1.13735,1.80174,-1436.12,-9628.2,-161.933,0.628101,-4.28828,1.47515,-1184.67,9507.9,-1478.54,-1.53502,15.2987,-15.277,-1484.83,-9786.88,-1317.61,-4.22152,-3.35026,7.25879,8846.6,616.531,3748.13,-0.801052,9.13011,7.90182
0.149,3569.79,-3976.0,8270.44,-4.41043,-1.27098,3.14743,4174.64,3697.01,7848.72,1.19913,-0.964324,1.53167,-219.354,9782.22,-709.489,2.74136,1.42474,1.79418,-1439.53,-9637.92,-166.499,0.606139,-4.35708,1.36508,-1214.95,9490.28,-1466.47,-1.63242,16.1102,-15.5147,-1506.35,-9775.52,-1326.32,-4.33619,-3.75633,7.05753,8842.51,622.299,3756.45,-0.592873,9.05255,8.34268
0.15,3596.93,-3990.39,8270.5,-4.40999,-1.21507,3.1626,4148.38,3711.23,7853.79,1.28674,-0.931532,1.48051,-241.063,9776.67,-724.804,2.78367,1.71214,1.78662,-1442.94,-9647.64,-171.065,0.584178,-4.42588,1.25501,-1245.24,9472.67,-1454.39,-1.72982,16.9216,-15.7524,-1527.87,-9764.17,-1335.03,-4.45085,-4.1624,6.85626,8838.41,628.067,3764.78,-0.384694,8.97499,8.78353
0.151,3624.07,-4004.78,8270.57,-4.40955,-1.15916,3.17777,4122.11,3725.45,7858.86,1.37435,-0.898741,1.42935,-262.772,9771.12,-740.119,2.82598,1.99954,1.77905,-1446.35,-9657.36,-175.631,0.562217,-4.49468,1.14494,-1275.52,9455.05,-1442.31,-1.82722,17.7331,-15.99,-1549.4,-9752.81,-1343.74,-4.56551,-4.56847,6.655,8834.31,633.836,3773.11,-0.176515,8.89742,9.22439
0.152,3625.8,-4030.42,8265.26,-4.29645,-1.28859,3.24935,4115.59,3726.02,7861.01,1.39583,-0.915676,1.4775,-265.897,9778.32,-748.25,2.759,2.22985,1.93552,-1440.27,-9666.13,-187.835,0.588631,-4.32099,1.05169,-1285.95,9445.93,-1456.25,-1.87041,18.5473,-16.3143,-1563.1,-9770.13,-1353.33,-4.58363,-5.03069,6.49413,8804.63,608.96,3782.11,0.0419555,8.788,9.6023
0.153,3624.36,-4057.47,8259.27,-4.16927,-1.44119,3.32797,4111.54,3724.88,7862.79,1.40904,-0.938826,1.53807,-266.698,9787.11,-755.482,2.67835,2.45302,2.11249,-1433.0,-9674.78,-200.994,0.621091,-4.117,0.960541,-1293.89,9437.86,-1473.45,-1.90681,19.3618,-16.6494,-1575.83,-9791.04,-1363.02,-4.58968,-5.49993,6.33832,8771.75,580.253,3791.19,0.261712,8.6746,9.97235
0.154,3622.91,-4084.51,8253.29,-4.04209,-1.59378,3.40659,4107.5,3723.74,7864.57,1.42226,-0.961976,1.59864,-267.5,9795.89,-762.714,2.59771,2.67619,2.28946,-1425.73,-9683.43,-214.152,0.653552,-3.913,0.869393,-1301.83,9429.8,-1490.64,-1.94321,20.1763,-16.9845,-1588.56,-9811.95,-1372.72,-4.59573,-5.96917,6.1825,8738.88,551.547,3800.27,0.481469,8.56119,10.3424
0.155,3621.47,-4111.56,8247.3,-3.91492,-1.74638,3.48522,4103.45,3722.61,7866.36,1.43547,-0.985126,1.65922,-268.302,9804.68,-769.947,2.51706,2.89936,2.46643,-1418.47,-9692.08,-227.311,0.686013,-3.70901,0.778245,-1309.78,9421.73,-1507.83,-1.97962,20.9908,-17.3196,-1601.29,-9832.85,-1382.42,-4.60178,-6.4384,6.02668,8706.0,522.84,3809.35,0.701226,8.44779,10.7124
0.156,3613.13,-4115.0,8241.39,-3.84208,-1.85834,3.53145,4104.02,3719.06,7873.59,1.45563,-0.955866,1.68152,-261.845,9802.05,-779.773,2.45525,3.02043,2.55711,-1410.45,-9695.25,-237.653,0.638199,-3.59367,0.706122,-1311.73,9413.56,-1511.32,-2.006,21.6932,-17.6004,-1616.82,-9843.3,-1391.72,-4.60228,-6.82508,5.8689,8685.59,511.11,3817.11,0.916794,8.31364,11.068
0.157,3596.17,-4088.95,8235.57,-3.83718,-1.91951,3.53718,4110.36,3712.5,7887.64,1.48445,-0.861093,1.65598,-246.316,9785.14,-792.842,2.41698,3.01388,2.53994,-1401.49,-9691.58,-244.473,0.49004,-3.58915,0.65778,-1306.19,9405.25,-1497.69,-2.01984,22.2554,-17.8131,-1635.84,-9840.66,-1400.51,-4.59584,-7.10854,5.70867,8680.77,520.599,3823.23,1.12712,8.15355,11.4054
0.158,3579.21,-4062.9,8229.74,-3.83228,-1.98069,3.54291,4116.7,3705.93,7901.68,1.51328,-0.766319,1.63045,-230.787,9768.23,-805.91,2.37872,3.00732,2.52276,-1392.54,-9687.92,-251.293,0.341882,-3.58463,0.609439,-1300.64,9396.93,-1484.06,-2.03368,22.8177,-18.0259,-1654.85,-9838.03,-1409.31,-4.58939,-7.39201,5.54843,8675.95,530.089,3829.35,1.33746,7.99346,11.7428
0.159,3562.25,-4036.85,8223.92,-3.82738,-2.04186,3.54864,4123.04,3699.37,7915.73,1.54211,-0.671546,1.60492,-215.258,9751.32,-818.979,2.34045,3.00077,2.50559,-1383.58,-9684.25,-258.113,0.193723,-3.58011,0.561098,-1295.1,9388.62,-1470.43,-2.04753,23.3799,-18.2386,-1673.87,-9835.4,-1418.11,-4.58295,-7.67548,5.3882,8671.13,539.579,3835.47,1.54779,7.83337,12.0801
0.16,3545.29,-4010.8,8218.09,-3.82248,-2.10303,3.55437,4129.39,3692.8,7929.77,1.57094,-0.576772,1.57938,-199.729,9734.41,-832.047,2.30218,2.99422,2.48842,-1374.63,-9680.58,-264.934,0.0455651,-3.57558,0.512757,-1289.56,9380.31,-1456.8,-2.06137,23.9422,-18.4514,-1692.89,-9832.76,-1426.91,-4.5765,-7.95895,5.22796,8666.31,549.068,3841.6,1.75812,7.67328,12.4175
0.161,3561.9,-4020.8,8222.46,-3.77919,-2.05623,3.61778,4145.78,3699.42,7923.47,1.47371,-0.462602,1.52491,-195.944,9714.61,-839.051,2.25831,3.1068,2.55276,-1372.52,-9685.58,-255.166,-0.0148801,-3.42311,0.55584,-1317.09,9388.41,-1468.19,-2.15116,24.3725,-18.6392,-1700.25,-9821.62,-1416.33,-4.59816,-8.26782,5.16956,8650.63,534.808,3846.11,2.07318,7.61362,12.81
0.162,3578.52,-4030.8,8226.83,-3.7359,-2.00944,3.68118,4162.18,3706.03,7917.17,1.37647,-0.348432,1.47044,-192.158,9694.81,-846.055,2.21444,3.21938,2.61711,-1370.41,-9690.58,-245.398,-0.0753253,-3.27063,0.598924,-1344.63,9396.51,-1479.57,-2.24095,24.8028,-18.827,-1707.6,-9810.48,-1405.74,-4.61981,-8.57668,5.11116,8634.94,520.547,3850.62,2.38824,7.55397,13.2025
0.163,3595.13,-4040.8,8231.19,-3.69261,-1.96264,3.74459,4178.57,3712.65,7910.87,1.27924,-0.234261,1.41597,-188.373,9675.01,-853.058,2.17057,3.33196,2.68146,-1368.29,-9695.58,-235.63,-0.135771,-3.11816,0.642008,-1372.17,9404.61,-1490.96,-2.33074,25.233,-19.0149,-1714.95,-9799.34,-1395.16,-4.64147,-8.88555,5.05276,8619.25,506.286,3855.14,2.70331,7.49431,13.5949
0.164,3611.75,-4050.8,8235.56,-3.64932,-1.91585,3.80799,4194.97,3719.26,7904.57,1.182,-0.120091,1.3615,-184.588,9655.21,-860.062,2.1267,3.44454,2.7458,-1366.18,-9700.58,-225.862,-0.196216,-2.96569,0.685092,-1399.7,9412.71,-1502.35,-2.42052,25.6633,-19.2027,-1722.31,-9788.2,-1384.58,-4.66313,-9.19442,4.99436,8603.57,492.026,3859.65,3.01837,7.43465,13.9874
0.165,3615.55,-4062.24,8232.17,-3.56995,-1.85197,3.79905,4205.67,3718.08,7890.24,1.14841,-0.0315916,1.27129,-188.008,9649.71,-871.533,2.12052,3.40563,2.76534,-1377.63,-9695.63,-235.931,-0.142877,-2.83133,0.680131,-1412.39,9414.95,-1503.71,-2.54023,25.9269,-19.4182,-1708.23,-9779.59,-1376.54,-4.60882,-9.56573,4.93466,8590.5,499.436,3868.27,3.37017,7.30483,14.332
0.166,3609.1,-4074.84,8222.59,-3.46171,-1.77441,3.73222,4211.82,3710.66,7869.5,1.16573,0.0363712,1.15249,-197.191,9655.64,-886.579,2.14448,3.24551,2.74902,-1399.93,-9682.72,-261.871,0.00148963,-2.71146,0.636734,-1413.19,9412.5,-1497.04,-2.68387,26.0572,-19.6559,-1677.01,-9773.0,-1370.54,-4.49375,-9.987,4.87391,8579.54,524.184,3880.18,3.75136,7.1189,14.6383
0.167,3602.65,-4087.44,8213.01,-3.35348,-1.69686,3.66539,4217.97,3703.24,7848.75,1.18304,0.104334,1.03368,-206.374,9661.58,-901.625,2.16845,3.08539,2.7327,-1422.23,-9669.81,-287.81,0.145856,-2.59159,0.593336,-1413.99,9410.05,-1490.38,-2.82751,26.1875,-19.8935,-1645.79,-9766.41,-1364.53,-4.37867,-10.4083,4.81317,8568.57,548.932,3892.08,4.13254,6.93296,14.9445
0.168,3596.2,-4100.04,8203.43,-3.24525,-1.61931,3.59856,4224.12,3695.82,7828.0,1.20036,0.172297,0.914881,-215.558,9667.51,-916.672,2.19242,2.92527,2.71638,-1444.54,-9656.9,-313.75,0.290222,-2.47172,0.549939,-1414.8,9407.6,-1483.72,-2.97115,26.3177,-20.1312,-1614.56,-9759.83,-1358.53,-4.2636,-10.8295,4.75242,8557.61,573.679,3903.99,4.51373,6.74702,15.2508
0.169,3588.0,-4112.62,8193.72,-3.13729,-1.53868,3.53724,4227.84,3690.39,7811.58,1.21784,0.235604,0.823853,-223.356,9675.68,-930.841,2.21349,2.77788,2.70076,-1464.73,-9646.93,-335.133,0.416056,-2.37247,0.503731,-1415.7,9405.18,-1476.9,-3.11329,26.4483,-20.3578,-1586.61,-9756.47,-1353.71,-4.15796,-11.2497,4.6969,8549.0,595.684,3914.0,4.9228,6.55997,15.569
0.17,3565.78,-4124.99,8182.98,-3.03158,-1.43347,3.52,4212.18,3700.94,7829.73,1.23656,0.261668,0.955025,-220.073,9701.67,-937.999,2.21142,2.73235,2.69071,-1468.08,-9660.44,-320.069,0.393632,-2.4382,0.435032,-1417.44,9403.01,-1468.86,-3.24341,26.5812,-20.4962,-1584.77,-9779.02,-1358.31,-4.12781,-11.6607,4.6832,8559.26,595.741,3908.92,5.55488,6.36396,15.9822
0.171,3543.57,-4137.37,8172.24,-2.92586,-1.32825,3.50276,4196.52,3711.49,7847.89,1.25529,0.287732,1.0862,-216.79,9727.67,-945.156,2.20935,2.68682,2.68066,-1471.43,-9673.95,-305.004,0.371208,-2.50394,0.366333,-1419.18,9400.84,-1460.82,-3.37354,26.7141,-20.6347,-1582.94,-9801.57,-1362.92,-4.09766,-12.0718,4.66949,8569.52,595.798,3903.84,6.18697,6.16796,16.3954
0.172,3521.36,-4149.74,8161.5,-2.82014,-1.22303,3.48551,4180.85,3722.04,7866.05,1.27402,0.313796,1.21737,-213.507,9753.66,-952.314,2.20728,2.64129,2.6706,-1474.79,-9687.46,-289.939,0.348784,-2.56967,0.297634,-1420.92,9398.67,-1452.79,-3.50366,26.847,-20.7731,-1581.11,-9824.12,-1367.52,-4.06752,-12.4828,4.65579,8579.78,595.855,3898.76,6.81905,5.97195,16.8086
0.173,3499.15,-4162.12,8150.77,-2.71442,-1.11781,3.46827,4165.19,3732.59,7884.21,1.29275,0.33986,1.34854,-210.224,9779.66,-959.471,2.20521,2.59576,2.66055,-1478.14,-9700.97,-274.874,0.32636,-2.6354,0.228935,-1422.66,9396.5,-1444.75,-3.63379,26.9799,-20.9115,-1579.27,-9846.66,-1372.13,-4.03737,-12.8938,4.64209,8590.04,595.913,3893.67,7.45114,5.77595,17.2218
0.174,3494.37,-4157.35,8137.06,-2.59073,-1.04334,3.41508,4170.33,3739.73,7894.81,1.21061,0.390761,1.31438,-197.876,9765.61,-963.603,2.20168,2.55658,2.6386,-1479.99,-9699.5,-246.493,0.377331,-2.72196,0.185299,-1425.56,9389.19,-1439.48,-3.72292,27.0586,-21.0165,-1554.17,-9845.4,-1376.84,-4.12534,-13.2014,4.62998,8582.19,594.962,3908.82,8.10595,5.59751,17.4984
0.175,3498.29,-4144.0,8121.87,-2.45806,-0.984235,3.34391,4185.86,3745.15,7901.63,1.07803,0.45408,1.19756,-180.996,9731.53,-966.222,2.19741,2.52058,2.6107,-1481.09,-9690.54,-211.453,0.464999,-2.81893,0.154196,-1429.02,9379.33,-1435.6,-3.79155,27.1102,-21.1049,-1517.42,-9832.23,-1381.6,-4.27237,-13.4571,4.61867,8565.28,593.506,3934.07,8.77212,5.42786,17.7068
0.176,3502.22,-4130.65,8106.68,-2.32538,-0.925133,3.27275,4201.4,3750.58,7908.45,0.94545,0.517398,1.08074,-164.116,9697.45,-968.84,2.19314,2.48459,2.5828,-1482.19,-9681.58,-176.413,0.552667,-2.91591,0.123092,-1432.49,9369.46,-1431.71,-3.86019,27.1617,-21.1933,-1480.67,-9819.06,-1386.37,-4.4194,-13.7129,4.60736,8548.37,592.051,3959.33,9.4383,5.2582,17.9153
0.177,3506.15,-4117.31,8091.48,-2.1927,-0.866031,3.20159,4216.93,3756.01,7915.27,0.812872,0.580717,0.963913,-147.235,9663.37,-971.459,2.18887,2.44859,2.5549,-1483.28,-9672.63,-141.372,0.640336,-3.01288,0.0919883,-1435.96,9359.59,-1427.83,-3.92882,27.2133,-21.2816,-1443.93,-9805.89,-1391.13,-4.56643,-13.9687,4.59605,8531.46,590.596,3984.59,10.1045,5.08855,18.1237
0.178,3511.69,-4107.46,8079.55,-2.06766,-0.819213,3.13797,4223.9,3758.25,7912.81,0.712026,0.646204,0.883557,-128.824,9641.48,-971.325,2.19255,2.39047,2.53806,-1481.15,-9664.37,-117.374,0.683231,-3.11008,0.0350965,-1436.82,9353.79,-1424.68,-3.99954,27.2445,-21.3638,-1407.13,-9790.55,-1400.41,-4.67758,-14.2145,4.58162,8513.28,595.095,4005.76,10.7429,4.94453,18.3259
0.179,3522.87,-4109.85,8079.01,-1.96932,-0.815389,3.10076,4200.9,3749.3,7877.82,0.722242,0.719279,0.930837,-105.055,9662.25,-961.558,2.22404,2.25491,2.55998,-1467.71,-9658.58,-132.022,0.569419,-3.20809,-0.112053,-1428.54,9362.25,-1424.08,-4.07752,27.2043,-21.4242,-1370.16,-9767.66,-1425.47,-4.66315,-14.4253,4.55626,8490.63,620.432,4012.66,11.2844,4.89024,18.5063
0.18,3534.05,-4112.23,8078.47,-1.87098,-0.811564,3.06355,4177.9,3740.36,7842.83,0.732459,0.792354,0.978117,-81.2863,9683.02,-951.79,2.25552,2.11935,2.58189,-1454.26,-9652.78,-146.67,0.455608,-3.3061,-0.259203,-1420.27,9370.7,-1423.48,-4.15551,27.1642,-21.4847,-1333.19,-9744.77,-1450.53,-4.64872,-14.636,4.5309,8467.98,645.769,4019.55,11.8258,4.83595,18.6867
0.181,3545.22,-4114.62,8077.93,-1.77264,-0.80774,3.02633,4154.9,3731.42,7807.84,0.742675,0.865428,1.0254,-57.5173,9703.78,-942.022,2.28701,1.9838,2.60381,-1440.81,-9646.99,-161.317,0.341797,-3.4041,-0.406353,-1411.99,9379.16,-1422.89,-4.2335,27.124,-21.5451,-1296.23,-9721.88,-1475.6,-4.63429,-14.8468,4.50554,8445.33,671.106,4026.44,12.3673,4.78166,18.8671
0.182,3556.4,-4117.01,8077.39,-1.6743,-0.803916,2.98912,4131.9,3722.47,7772.85,0.752892,0.938503,1.07268,-33.7483,9724.55,-932.254,2.3185,1.84824,2.62572,-1427.37,-9641.2,-175.965,0.227985,-3.50211,-0.553503,-1403.72,9387.62,-1422.29,-4.31148,27.0839,-21.6056,-1259.26,-9699.0,-1500.66,-4.61987,-15.0576,4.48018,8422.68,696.443,4033.34,12.9087,4.72737,19.0476
0.183,3556.91,-4133.07,8084.24,-1.5939,-0.732149,2.93717,4130.08,3713.04,7770.78,0.804026,0.984956,1.12575,-26.6256,9735.92,-921.88,2.27112,1.77738,2.5867,-1433.89,-9671.92,-198.665,0.262305,-3.65266,-0.537863,-1408.76,9396.15,-1421.46,-4.30459,26.9608,-21.4756,-1228.17,-9703.08,-1512.79,-4.682,-15.185,4.41675,8438.37,705.609,4051.35,13.2625,4.57493,19.1396
0.184,3554.38,-4153.04,8093.21,-1.51863,-0.64097,2.88101,4134.31,3703.47,7778.11,0.866851,1.0238,1.18049,-24.2591,9744.61,-911.333,2.20122,1.72502,2.53027,-1446.11,-9713.08,-223.665,0.338949,-3.81821,-0.475712,-1417.62,9404.7,-1420.56,-4.27345,26.8141,-21.2911,-1198.77,-9714.87,-1521.23,-4.76602,-15.2887,4.34244,8465.02,710.154,4072.55,13.5627,4.39446,19.2065
0.185,3551.84,-4173.02,8102.17,-1.44336,-0.549791,2.82485,4138.54,3693.9,7785.44,0.929677,1.06265,1.23522,-21.8925,9753.29,-900.785,2.13132,1.67265,2.47383,-1458.33,-9754.23,-248.666,0.415592,-3.98377,-0.41356,-1426.47,9413.26,-1419.67,-4.24231,26.6673,-21.1067,-1169.37,-9726.67,-1529.67,-4.85003,-15.3924,4.26814,8491.68,714.7,4093.74,13.8629,4.21399,19.2733
0.186,3549.31,-4192.99,8111.14,-1.36809,-0.458612,2.76868,4142.78,3684.34,7792.77,0.992502,1.1015,1.28996,-19.5259,9761.98,-890.238,2.06141,1.62028,2.4174,-1470.55,-9795.38,-273.666,0.492236,-4.14933,-0.351408,-1435.32,9421.81,-1418.77,-4.21117,26.5206,-20.9222,-1139.96,-9738.46,-1538.1,-4.93404,-15.496,4.19383,8518.33,719.246,4114.94,14.1631,4.03351,19.3401
0.187,3542.81,-4200.4,8121.46,-1.28658,-0.379408,2.71401,4146.68,3684.71,7802.97,0.987937,1.12638,1.29348,-16.0245,9761.26,-891.178,2.01023,1.59771,2.37512,-1467.99,-9816.93,-286.504,0.521009,-4.31099,-0.305049,-1444.36,9427.64,-1408.46,-4.20271,26.3328,-20.7977,-1112.46,-9752.5,-1541.79,-4.97599,-15.6165,4.11259,8538.94,727.679,4126.67,14.409,3.84417,19.3861
0.188,3528.39,-4182.69,8134.5,-1.19258,-0.324153,2.66231,4149.91,3704.97,7818.87,0.848592,1.12332,1.19459,-10.2534,9741.72,-915.092,1.99648,1.63475,2.36115,-1435.86,-9799.26,-275.016,0.454043,-4.46486,-0.290275,-1453.78,9428.0,-1379.31,-4.23961,26.0629,-20.793,-1088.74,-9771.03,-1535.97,-4.93382,-15.7706,4.01745,8547.47,743.887,4119.47,14.5461,3.6371,19.3906
0.189,3513.97,-4164.98,8147.53,-1.09858,-0.268899,2.61061,4153.15,3725.23,7834.78,0.709246,1.12027,1.09569,-4.48221,9722.19,-939.006,1.98273,1.67178,2.34718,-1403.72,-9781.58,-263.527,0.387077,-4.61872,-0.275501,-1463.19,9428.37,-1350.17,-4.27652,25.7929,-20.7884,-1065.03,-9789.56,-1530.15,-4.89165,-15.9247,3.92232,8556.01,760.095,4112.28,14.6831,3.43003,19.395
0.19,3499.55,-4147.27,8160.57,-1.00458,-0.213645,2.55891,4156.38,3745.49,7850.69,0.5699,1.11722,0.996798,1.28894,9702.65,-962.92,1.96898,1.70881,2.33321,-1371.59,-9763.91,-252.039,0.32011,-4.77259,-0.260727,-1472.61,9428.73,-1321.02,-4.31342,25.523,-20.7837,-1041.32,-9808.09,-1524.33,-4.84948,-16.0788,3.82719,8564.54,776.304,4105.09,14.8202,3.22296,19.3994
0.191,3485.13,-4129.55,8173.6,-0.910579,-0.15839,2.50721,4159.62,3765.76,7866.59,0.430555,1.11417,0.897903,7.06009,9683.12,-986.835,1.95524,1.74584,2.31924,-1339.46,-9746.24,-240.551,0.253144,-4.92645,-0.245953,-1482.02,9429.09,-1291.87,-4.35032,25.2531,-20.7791,-1017.6,-9826.62,-1518.51,-4.80731,-16.2329,3.73206,8573.08,792.512,4097.89,14.9573,3.01589,19.4039
0.192,3475.73,-4119.35,8183.13,-0.889385,-0.0703284,2.38215,4157.8,3756.0,7873.2,0.322591,1.15681,0.809901,11.8014,9686.78,-983.26,1.9779,1.71035,2.21204,-1332.1,-9737.82,-231.642,0.332533,-4.99333,-0.255319,-1499.73,9426.54,-1299.99,-4.33116,25.1303,-20.6912,-1000.46,-9839.32,-1511.08,-4.58152,-16.3026,3.63506,8548.29,787.272,4117.22,15.1984,2.80783,19.4618
0.193,3466.95,-4110.08,8192.22,-0.877292,0.0218345,2.24792,4155.35,3742.49,7878.65,0.21855,1.20517,0.723261,16.4141,9693.34,-976.249,2.00512,1.6658,2.09319,-1327.83,-9730.56,-223.056,0.430217,-5.04933,-0.267701,-1518.48,9423.63,-1312.76,-4.30499,25.026,-20.593,-984.134,-9851.28,-1503.45,-4.33279,-16.3617,3.53783,8519.34,779.351,4139.86,15.4525,2.59966,19.5264
0.194,3458.18,-4100.81,8201.31,-0.865199,0.113997,2.1137,4152.91,3728.99,7884.09,0.114509,1.25353,0.636621,21.0267,9699.9,-969.238,2.03234,1.62125,1.97434,-1323.56,-9723.3,-214.47,0.5279,-5.10534,-0.280084,-1537.22,9420.71,-1325.53,-4.27883,24.9216,-20.4947,-967.81,-9863.24,-1495.82,-4.08405,-16.4208,3.4406,8490.39,771.431,4162.5,15.7066,2.39148,19.591
0.195,3449.4,-4091.54,8210.4,-0.853106,0.20616,1.97947,4150.46,3715.48,7889.53,0.0104675,1.30189,0.54998,25.6393,9706.46,-962.227,2.05956,1.5767,1.85548,-1319.29,-9716.04,-205.883,0.625583,-5.16134,-0.292466,-1555.97,9417.8,-1338.3,-4.25266,24.8173,-20.3965,-951.485,-9875.21,-1488.19,-3.83532,-16.4799,3.34337,8461.44,763.51,4185.14,15.9608,2.1833,19.6556
0.196,3449.4,-4084.79,8207.62,-0.790604,0.2521,1.88806,4151.06,3714.44,7891.08,-0.036162,1.40147,0.53166,30.6973,9712.88,-954.219,2.07911,1.51157,1.70759,-1317.39,-9716.58,-201.59,0.717188,-5.21602,-0.275513,-1573.51,9422.94,-1336.59,-4.30854,24.6502,-20.2394,-950.843,-9877.41,-1496.2,-3.76209,-16.4828,3.31074,8450.01,762.502,4192.45,16.1436,2.0332,19.7804
0.197,3460.36,-4081.21,8189.99,-0.665093,0.240261,1.85017,4155.47,3728.97,7887.76,-0.0110267,1.56508,0.598739,36.3121,9719.12,-944.964,2.08909,1.42073,1.5234,-1318.44,-9726.87,-202.665,0.801194,-5.26905,-0.22189,-1589.53,9438.14,-1316.78,-4.46698,24.4045,-20.009,-969.802,-9867.39,-1523.73,-3.90824,-16.4154,3.35886,8460.47,770.134,4180.58,16.2374,1.95571,19.9805
0.198,3471.33,-4077.63,8172.37,-0.539582,0.228421,1.81228,4159.88,3743.51,7884.44,0.0141085,1.7287,0.665819,41.9268,9725.36,-935.71,2.09907,1.32989,1.3392,-1319.5,-9737.16,-203.739,0.8852,-5.32208,-0.168266,-1605.56,9453.34,-1296.97,-4.62542,24.1588,-19.7785,-988.761,-9857.38,-1551.27,-4.05439,-16.3481,3.40699,8470.94,777.767,4168.71,16.3312,1.87822,20.1806
0.199,3482.29,-4074.04,8154.74,-0.414071,0.216582,1.77439,4164.29,3758.05,7881.11,0.0392437,1.89231,0.732898,47.5415,9731.59,-926.456,2.10905,1.23905,1.15501,-1320.55,-9747.44,-204.813,0.969206,-5.37511,-0.114643,-1621.58,9468.54,-1277.15,-4.78385,23.9132,-19.5481,-1007.72,-9847.37,-1578.81,-4.20054,-16.2808,3.45511,8481.4,785.399,4156.83,16.425,1.80073,20.3806
0.2,3493.25,-4070.46,8137.11,-0.288559,0.204743,1.7365,4168.7,3772.58,7877.79,0.064379,2.05593,0.799978,53.1563,9737.83,-917.202,2.11903,1.14821,0.970818,-1321.6,-9757.73,-205.888,1.05321,-5.42813,-0.06102,-1637.61,9483.74,-1257.34,-4.94229,23.6675,-19.3176,-1026.68,-9837.36,-1606.35,-4.34669,-16.2134,3.50324,8491.86,793.032,4144.96,16.5188,1.72324,20.5807
0.201,3495.28,-4073.45,8145.74,-0.274689,0.266371,1.72807,4160.24,3775.04,7884.84,0.0243305,1.99529,0.868343,35.5538,9760.19,-914.458,2.09527,1.228,0.856955,-1320.92,-9754.89,-229.253,1.12595,-5.42367,-0.0558196,-1622.99,9492.89,-1249.76,-4.77979,23.3906,-19.0328,-982.277,-9822.35,-1596.68,-4.53049,-16.1669,3.57269,8499.75,804.856,4170.22,16.6285,1.48201,20.3924
0.202,3497.3,-4076.44,8154.36,-0.260818,0.327999,1.71964,4151.78,3777.49,7891.89,-0.015718,1.93465,0.936708,17.9514,9782.54,-911.715,2.0715,1.30779,0.743091,-1320.24,-9752.05,-252.619,1.19869,-5.4192,-0.0506192,-1608.38,9502.04,-1242.17,-4.61729,23.1138,-18.748,-937.874,-9807.35,-1587.0,-4.71429,-16.1204,3.64214,8507.63,816.681,4195.48,16.7382,1.24079,20.204
0.203,3499.33,-4079.43,8162.99,-0.246947,0.389627,1.71122,4143.32,3779.95,7898.94,-0.0557665,1.87402,1.00507,0.348921,9804.89,-908.971,2.04774,1.38758,0.629228,-1319.56,-9749.21,-275.984,1.27143,-5.41473,-0.0454188,-1593.76,9511.19,-1234.59,-4.45479,22.8369,-18.4632,-893.472,-9792.34,-1577.32,-4.8981,-16.0739,3.71159,8515.51,828.505,4220.74,16.8479,0.999561,20.0156
0.204,3501.35,-4082.42,8171.61,-0.233076,0.451255,1.70279,4134.87,3782.41,7905.99,-0.0958149,1.81338,1.07344,-17.2535,9827.24,-906.228,2.02398,1.46737,0.515365,-1318.88,-9746.36,-299.35,1.34417,-5.41027,-0.0402185,-1579.14,9520.33,-1227.0,-4.29229,22.56,-18.1783,-849.069,-9777.33,-1567.64,-5.0819,-16.0273,3.78104,8523.39,840.33,4245.99,16.9576,0.758334,19.8273
0.205,3498.67,-4068.48,8175.26,-0.22143,0.499539,1.71104,4119.19,3781.42,7902.54,-0.175909,1.77503,1.12268,-17.4462,9831.52,-900.6,1.98418,1.52731,0.360129,-1312.67,-9764.37,-306.484,1.3328,-5.47658,0.00307165,-1557.6,9519.22,-1231.15,-4.23025,22.1632,-17.9569,-838.15,-9780.08,-1553.24,-5.19483,-15.9351,3.84358,8513.07,855.737,4246.7,17.0904,0.653433,19.7022
0.206,3492.22,-4041.0,8174.94,-0.211564,0.537147,1.73263,4097.73,3777.67,7890.68,-0.28804,1.7545,1.15663,-3.71112,9821.33,-892.666,1.93155,1.57136,0.171796,-1302.04,-9799.04,-300.634,1.25414,-5.59952,0.0768335,-1530.52,9509.88,-1244.68,-4.24857,21.6705,-17.7861,-854.018,-9797.01,-1535.05,-5.25106,-15.8064,3.9006,8488.17,874.011,4227.78,17.2415,0.657593,19.6277
0.207,3485.77,-4013.52,8174.61,-0.201697,0.574755,1.75422,4076.28,3773.92,7878.83,-0.40017,1.73397,1.19057,10.024,9811.15,-884.731,1.87892,1.61541,-0.0165365,-1291.41,-9833.72,-294.783,1.17548,-5.72245,0.150595,-1503.44,9500.55,-1258.21,-4.2669,21.1778,-17.6152,-869.885,-9813.95,-1516.86,-5.30729,-15.6777,3.95761,8463.28,892.284,4208.85,17.3926,0.661752,19.5532
0.208,3479.32,-3986.03,8174.29,-0.19183,0.612363,1.77582,4054.82,3770.16,7866.98,-0.512301,1.71344,1.22452,23.7591,9800.96,-876.797,1.8263,1.65947,-0.204869,-1280.78,-9868.39,-288.932,1.09683,-5.84539,0.224357,-1476.36,9491.21,-1271.75,-4.28523,20.6851,-17.4444,-885.752,-9830.89,-1498.68,-5.36352,-15.549,4.01463,8438.39,910.558,4189.92,17.5437,0.665912,19.4786
0.209,3476.54,-3959.96,8176.16,-0.180757,0.64519,1.78732,4036.21,3768.17,7857.04,-0.618593,1.70637,1.26379,36.1696,9790.29,-867.872,1.77927,1.70192,-0.384018,-1270.63,-9899.42,-282.854,1.03949,-5.94736,0.286196,-1451.26,9488.13,-1280.73,-4.28615,20.1685,-17.2461,-895.713,-9846.93,-1482.76,-5.42094,-15.394,4.05329,8420.66,925.323,4174.46,17.6935,0.651628,19.3792
0.21,3503.19,-3945.15,8195.59,-0.16003,0.639768,1.71812,4040.38,3780.22,7862.38,-0.678177,1.80695,1.3457,37.9834,9775.72,-851.03,1.77705,1.73158,-0.489697,-1264.25,-9901.27,-274.957,1.15271,-5.88158,0.252652,-1442.01,9535.08,-1253.33,-4.14786,19.4609,-16.8276,-858.416,-9855.78,-1484.98,-5.4878,-15.0284,3.94512,8460.28,912.018,4186.64,17.8327,0.489796,19.08
0.211,3529.84,-3930.33,8215.02,-0.139303,0.634346,1.64893,4044.55,3792.28,7867.73,-0.73776,1.90753,1.4276,39.7972,9761.15,-834.187,1.77484,1.76123,-0.595375,-1257.88,-9903.12,-267.06,1.26594,-5.81581,0.219107,-1432.76,9582.02,-1225.93,-4.00956,18.7533,-16.409,-821.119,-9864.63,-1487.21,-5.55466,-14.6628,3.83695,8499.91,898.713,4198.83,17.9718,0.327965,18.7808
0.212,3556.49,-3915.52,8234.45,-0.118576,0.628925,1.57973,4048.72,3804.33,7873.08,-0.797344,2.0081,1.5095,41.611,9746.58,-817.345,1.77262,1.79089,-0.701053,-1251.51,-9904.97,-259.163,1.37916,-5.75003,0.185563,-1423.52,9628.96,-1198.53,-3.87126,18.0458,-15.9904,-783.822,-9873.48,-1489.43,-5.62152,-14.2972,3.72878,8539.53,885.408,4211.02,18.111,0.166133,18.4817
0.213,3583.14,-3900.71,8253.88,-0.0978485,0.623503,1.51054,4052.88,3816.38,7878.43,-0.856928,2.10868,1.5914,43.4248,9732.01,-800.502,1.7704,1.82055,-0.806731,-1245.14,-9906.82,-251.266,1.49239,-5.68425,0.152018,-1414.27,9675.9,-1171.13,-3.73296,17.3382,-15.5719,-746.525,-9882.33,-1491.66,-5.68837,-13.9316,3.62061,8579.15,872.103,4223.21,18.2501,0.00430109,18.1825
0.214,3576.52,-3895.35,8256.53,-0.0675659,0.609079,1.42509,4069.7,3832.41,7881.3,-0.846034,2.1157,1.63949,50.9028,9732.11,-795.014,1.73842,1.87784,-0.952039,-1241.06,-9895.37,-255.314,1.46406,-5.64478,0.176685,-1414.52,9680.55,-1138.27,-3.72273,16.6295,-15.1197,-724.378,-9899.04,-1473.95,-5.859,-13.678,3.62026,8589.92,883.966,4252.42,18.1066,-0.0877901,18.1161
0.215,3553.26,-3894.71,8250.79,-0.0325056,0.590155,1.33151,4092.83,3850.43,7882.93,-0.799901,2.07594,1.67066,61.2129,9739.54,-795.202,1.69156,1.94894,-1.11716,-1238.11,-9877.27,-265.334,1.36495,-5.61846,0.230457,-1419.5,9664.04,-1102.68,-3.77653,15.9203,-14.6507,-709.805,-9919.69,-1446.28,-6.08152,-13.4804,3.67383,8586.27,908.412,4290.16,17.8218,-0.145011,18.1661
0.216,3530.01,-3894.08,8245.05,0.00255471,0.571231,1.23794,4115.96,3868.45,7884.56,-0.753768,2.03617,1.70184,71.5229,9746.97,-795.39,1.6447,2.02005,-1.28228,-1235.17,-9859.16,-275.354,1.26584,-5.59214,0.284229,-1424.49,9647.54,-1067.09,-3.83032,15.2111,-14.1817,-695.233,-9940.33,-1418.61,-6.30403,-13.2828,3.72739,8582.62,932.859,4327.89,17.537,-0.202232,18.216
0.217,3506.75,-3893.44,8239.31,0.037615,0.552306,1.14436,4139.1,3886.48,7886.2,-0.707635,1.99641,1.73302,81.833,9754.4,-795.578,1.59784,2.09115,-1.4474,-1232.23,-9841.06,-285.374,1.16673,-5.56582,0.338001,-1429.48,9631.04,-1031.5,-3.88412,14.5019,-13.7127,-680.66,-9960.97,-1390.94,-6.52654,-13.0852,3.78095,8578.96,957.305,4365.62,17.2521,-0.259453,18.266
0.218,3487.63,-3893.89,8236.43,0.056621,0.547617,1.08798,4149.94,3895.9,7887.8,-0.685909,1.98149,1.75296,91.3581,9763.94,-795.503,1.54278,2.15322,-1.62545,-1231.0,-9826.24,-295.678,1.11056,-5.5405,0.406597,-1434.16,9616.06,-1009.4,-3.89784,13.788,-13.2954,-670.49,-9975.34,-1376.6,-6.68033,-12.8742,3.83517,8570.1,979.216,4389.77,17.0212,-0.343961,18.1733
0.219,3482.95,-3898.1,8243.58,0.0194366,0.592751,1.16176,4117.78,3875.26,7889.33,-0.749605,2.05349,1.73358,98.1353,9780.89,-794.503,1.45904,2.18363,-1.84872,-1235.78,-9822.92,-306.971,1.20466,-5.51869,0.527079,-1437.77,9606.44,-1034.51,-3.77129,13.0574,-13.059,-675.731,-9967.75,-1408.92,-6.59356,-12.6161,3.89171,8543.01,992.254,4366.38,16.979,-0.523975,17.581
0.22,3478.27,-3902.31,8250.74,-0.0177477,0.637885,1.23554,4085.62,3854.61,7890.85,-0.813301,2.12549,1.71419,104.913,9797.83,-793.503,1.3753,2.21405,-2.072,-1240.56,-9819.6,-318.265,1.29876,-5.49688,0.647562,-1441.39,9596.82,-1059.62,-3.64474,12.3268,-12.8226,-680.971,-9960.15,-1441.24,-6.5068,-12.358,3.94824,8515.92,1005.29,4342.99,16.9368,-0.703989,16.9888
0.221,3473.6,-3906.52,8257.89,-0.0549321,0.683018,1.30932,4053.45,3833.97,7892.37,-0.876996,2.1975,1.6948,111.69,9814.78,-792.502,1.29155,2.24446,-2.29528,-1245.34,-9816.28,-329.558,1.39286,-5.47506,0.768044,-1445.0,9587.2,-1084.73,-3.5182,11.5961,-12.5862,-686.211,-9952.56,-1473.56,-6.42004,-12.1,4.00478,8488.84,1018.33,4319.59,16.8946,-0.884002,16.3966
0.222,3468.92,-3910.73,8265.05,-0.0921164,0.728152,1.3831,4021.29,3813.32,7893.89,-0.940692,2.2695,1.67542,118.467,9831.72,-791.502,1.20781,2.27487,-2.51855,-1250.12,-9812.96,-340.851,1.48696,-5.45325,0.888526,-1448.62,9577.58,-1109.84,-3.39165,10.8655,-12.3499,-691.451,-9944.97,-1505.88,-6.33327,-11.8419,4.06131,8461.75,1031.37,4296.2,16.8524,-1.06402,15.8043
0.223,3464.08,-3908.1,8266.87,-0.139726,0.69084,1.45712,4013.33,3807.62,7886.35,-1.00412,2.28458,1.70182,137.184,9830.5,-780.543,1.10458,2.27031,-2.74443,-1242.01,-9789.69,-349.95,1.54156,-5.38185,0.91357,-1434.49,9572.56,-1114.94,-3.19671,10.3261,-11.9423,-654.605,-9946.02,-1501.98,-6.36995,-11.6505,4.09675,8439.33,1033.98,4307.24,16.8813,-1.26393,15.4039
0.224,3459.19,-3903.52,8267.16,-0.190313,0.629972,1.53121,4012.29,3806.18,7876.22,-1.06746,2.2834,1.7413,159.311,9824.09,-766.738,0.995774,2.25575,-2.97104,-1230.22,-9760.71,-358.422,1.58488,-5.29627,0.911346,-1415.29,9568.86,-1114.33,-2.98224,9.84133,-11.4858,-605.733,-9949.55,-1487.73,-6.4419,-11.4781,4.12615,8418.25,1033.6,4328.13,16.9305,-1.46954,15.0584
0.225,3454.29,-3898.94,8267.46,-0.240901,0.569105,1.60529,4011.25,3804.75,7866.1,-1.13081,2.28222,1.78078,181.439,9817.67,-752.933,0.886971,2.2412,-3.19766,-1218.43,-9731.73,-366.893,1.62819,-5.2107,0.909121,-1396.09,9565.16,-1113.72,-2.76776,9.35654,-11.0293,-556.861,-9953.08,-1473.49,-6.51385,-11.3057,4.15556,8397.16,1033.23,4349.01,16.9797,-1.67514,14.7128
0.226,3449.4,-3894.35,8267.75,-0.291488,0.508237,1.67938,4010.21,3803.32,7855.97,-1.19415,2.28104,1.82026,203.567,9811.26,-739.129,0.778168,2.22664,-3.42428,-1206.64,-9702.75,-375.365,1.6715,-5.12512,0.906897,-1376.9,9561.46,-1113.11,-2.55329,8.87175,-10.5729,-507.99,-9956.61,-1459.24,-6.5858,-11.1334,4.18497,8376.08,1032.86,4369.89,17.0289,-1.88075,14.3673
0.227,3442.06,-3900.69,8270.58,-0.341877,0.487636,1.74569,4016.03,3796.18,7851.38,-1.23976,2.26348,1.82733,221.165,9801.29,-728.84,0.717408,2.18133,-3.66085,-1198.89,-9686.02,-373.887,1.66355,-5.01706,0.901579,-1346.35,9559.56,-1126.36,-2.40344,8.45069,-10.1238,-485.669,-9952.46,-1454.66,-6.65272,-10.9055,4.20942,8368.47,1045.81,4373.6,16.9543,-2.03581,14.0483
0.228,3429.82,-3928.86,8278.49,-0.391867,0.547569,1.79647,4035.58,3777.64,7857.88,-1.2499,2.21316,1.76958,229.703,9784.19,-725.585,0.752737,2.07452,-3.91733,-1199.19,-9693.76,-352.51,1.55306,-4.86402,0.890074,-1293.1,9561.22,-1167.34,-2.38284,8.15711,-9.68955,-516.448,-9932.93,-1469.42,-6.70959,-10.5668,4.22397,8387.8,1085.42,4342.98,16.632,-2.0898,13.7827
0.229,3417.58,-3957.04,8286.4,-0.441858,0.607502,1.84724,4055.13,3759.1,7864.37,-1.26003,2.16283,1.71182,238.242,9767.1,-722.33,0.788066,1.96772,-4.17382,-1199.5,-9701.5,-331.133,1.44258,-4.71098,0.878569,-1239.84,9562.89,-1208.31,-2.36224,7.86353,-9.25529,-547.228,-9913.39,-1484.18,-6.76645,-10.228,4.23851,8407.13,1125.04,4312.36,16.3097,-2.14378,13.5171
0.23,3405.33,-3985.22,8294.31,-0.491849,0.667434,1.89801,4074.68,3740.56,7870.86,-1.27016,2.11251,1.65407,246.78,9750.01,-719.075,0.823395,1.86091,-4.4303,-1199.81,-9709.25,-309.757,1.33209,-4.55795,0.867064,-1186.59,9564.56,-1249.29,-2.34165,7.56996,-8.82103,-578.008,-9893.86,-1498.95,-6.82332,-9.88923,4.25305,8426.46,1164.65,4281.74,15.9874,-2.19776,13.2515
0.231,3393.09,-4013.4,8302.21,-0.541839,0.727367,1.94879,4094.22,3722.02,7877.36,-1.28029,2.06218,1.59631,255.319,9732.91,-715.819,0.858724,1.7541,-4.68678,-1200.11,-9716.99,-288.38,1.22161,-4.40491,0.855558,-1133.34,9566.23,-1290.26,-2.32105,7.27638,-8.38678,-608.787,-9874.33,-1513.71,-6.88019,-9.55047,4.2676,8445.8,1204.26,4251.12,15.6652,-2.25174,12.9859
0.232,3408.09,-4014.84,8288.2,-0.506092,0.732201,1.8836,4094.98,3723.44,7865.41,-1.26109,2.12931,1.64816,236.877,9742.9,-712.111,0.915409,1.76358,-4.83765,-1207.71,-9706.75,-257.17,1.11164,-4.33291,0.881338,-1136.42,9583.36,-1293.84,-2.05978,6.86255,-8.0697,-582.467,-9862.16,-1501.84,-6.84062,-9.2637,4.28156,8456.47,1190.89,4251.1,15.2474,-2.262,12.6655
0.233,3426.5,-4012.95,8271.45,-0.459628,0.730148,1.80392,4093.38,3727.34,7851.15,-1.23823,2.21111,1.7137,215.063,9756.28,-708.347,0.974763,1.78761,-4.97532,-1216.22,-9694.27,-224.732,1.00174,-4.27104,0.911779,-1146.54,9602.44,-1292.74,-1.76843,6.4337,-7.76727,-549.01,-9850.92,-1486.65,-6.789,-8.98344,4.29545,8466.07,1170.9,4254.91,14.8177,-2.26679,12.3383
0.234,3444.91,-4011.06,8254.7,-0.413164,0.728094,1.72424,4091.79,3731.25,7836.9,-1.21536,2.29292,1.77924,193.249,9769.65,-704.582,1.03412,1.81163,-5.11298,-1224.73,-9681.79,-192.294,0.891846,-4.20918,0.94222,-1156.65,9621.51,-1291.64,-1.47708,6.00485,-7.46483,-515.552,-9839.67,-1471.46,-6.73738,-8.70317,4.30934,8475.66,1150.91,4258.72,14.388,-2.27158,12.0111
0.235,3463.31,-4009.16,8237.94,-0.3667,0.726041,1.64455,4090.2,3735.15,7822.65,-1.1925,2.37472,1.84478,171.435,9783.03,-700.818,1.09347,1.83565,-5.25065,-1233.24,-9669.3,-159.855,0.781948,-4.14731,0.972661,-1166.77,9640.58,-1290.54,-1.18572,5.576,-7.1624,-482.095,-9828.42,-1456.27,-6.68576,-8.42291,4.32323,8485.25,1130.92,4262.53,13.9583,-2.27637,11.6838
0.236,3470.03,-3997.47,8220.06,-0.331761,0.696788,1.52236,4088.43,3734.02,7820.13,-1.17262,2.36159,1.86267,152.629,9785.84,-702.41,1.10091,1.84528,-5.39548,-1224.24,-9679.09,-143.413,0.757989,-4.09837,1.04587,-1168.49,9656.78,-1291.53,-0.990286,5.15224,-6.73455,-465.017,-9829.15,-1460.43,-6.64444,-8.17387,4.32507,8491.76,1141.32,4272.27,13.5363,-2.33303,11.4209
0.237,3462.15,-3973.52,8200.77,-0.311229,0.633535,1.34702,4086.44,3726.57,7832.3,-1.15647,2.2298,1.82099,137.584,9775.44,-710.698,1.04347,1.83693,-5.54928,-1193.36,-9716.7,-146.965,0.841454,-4.0656,1.17253,-1159.71,9669.39,-1295.13,-0.914739,4.73485,-6.14992,-468.413,-9844.85,-1488.76,-6.616,-7.96386,4.31184,8494.4,1189.69,4289.43,13.1241,-2.45453,11.2385
0.238,3454.27,-3949.57,8181.48,-0.290697,0.570283,1.17168,4084.45,3719.13,7844.47,-1.14033,2.098,1.77931,122.539,9765.05,-718.987,0.986021,1.82858,-5.70307,-1162.47,-9754.31,-150.517,0.92492,-4.03282,1.29919,-1150.93,9682.01,-1298.72,-0.839192,4.31746,-5.56529,-471.809,-9860.55,-1517.1,-6.58755,-7.75385,4.29861,8497.05,1238.07,4306.59,12.7118,-2.57603,11.056
0.239,3446.39,-3925.62,8162.19,-0.270165,0.50703,0.996343,4082.47,3711.69,7856.63,-1.12418,1.9662,1.73762,107.493,9754.65,-727.275,0.928575,1.82023,-5.85686,-1131.59,-9791.92,-154.069,1.00838,-4.00005,1.42585,-1142.15,9694.63,-1302.31,-0.763645,3.90007,-4.98066,-475.205,-9876.25,-1545.44,-6.55911,-7.54384,4.28539,8499.7,1286.44,4323.75,12.2995,-2.69753,10.8735
0.24,3438.51,-3901.68,8142.9,-0.249633,0.443778,0.821005,4080.48,3704.24,7868.8,-1.10804,1.8344,1.69594,92.4484,9744.25,-735.563,0.871129,1.81188,-6.01065,-1100.71,-9829.53,-157.621,1.09185,-3.96727,1.55251,-1133.37,9707.24,-1305.91,-0.688098,3.48268,-4.39603,-478.601,-9891.95,-1573.77,-6.53066,-7.33382,4.27216,8502.34,1334.81,4340.91,11.8872,-2.81903,10.6911
0.241,3440.16,-3903.61,8167.62,-0.363126,0.416036,0.891891,4083.06,3705.28,7873.54,-1.22256,1.8411,1.65004,96.4275,9736.68,-764.923,0.785386,1.77448,-6.30734,-1116.57,-9828.17,-130.256,1.04833,-3.75498,1.607,-1090.14,9689.85,-1295.08,-0.555372,3.31238,-4.03194,-486.191,-9897.53,-1579.52,-6.35198,-7.27638,4.16224,8474.13,1309.21,4349.11,11.5625,-2.88866,10.4682
0.242,3441.82,-3905.54,8192.33,-0.476618,0.388295,0.962776,4085.63,3706.32,7878.27,-1.33708,1.84779,1.60414,100.407,9729.1,-794.283,0.699644,1.73708,-6.60403,-1132.42,-9826.82,-102.891,1.00481,-3.54268,1.66148,-1046.9,9672.46,-1284.25,-0.422647,3.14208,-3.66785,-493.78,-9903.11,-1585.26,-6.17329,-7.21893,4.05232,8445.91,1283.62,4357.31,11.2377,-2.95829,10.2453
0.243,3443.47,-3907.47,8217.05,-0.59011,0.360553,1.03366,4088.21,3707.36,7883.01,-1.4516,1.85449,1.55824,104.386,9721.53,-823.643,0.613902,1.69968,-6.90072,-1148.28,-9825.46,-75.5255,0.961284,-3.33039,1.71597,-1003.66,9655.07,-1273.42,-0.289921,2.97178,-3.30376,-501.37,-9908.7,-1591.01,-5.99461,-7.16149,3.9424,8417.7,1258.02,4365.51,10.9129,-3.02793,10.0224
0.244,3445.12,-3909.4,8241.77,-0.703602,0.332812,1.10455,4090.78,3708.4,7887.75,-1.56612,1.86118,1.51234,108.365,9713.95,-853.003,0.528159,1.66227,-7.1974,-1164.14,-9824.1,-48.1604,0.917762,-3.1181,1.77045,-960.423,9637.67,-1262.59,-0.157196,2.80148,-2.93967,-508.96,-9914.28,-1596.75,-5.81592,-7.10404,3.83248,8389.49,1232.42,4373.71,10.5881,-3.09756,9.79952
0.245,3445.95,-3918.18,8254.95,-0.838151,0.349033,1.11672,4083.46,3716.32,7893.12,-1.60226,1.84139,1.54745,108.944,9710.04,-880.486,0.482188,1.64972,-7.45408,-1165.24,-9824.15,-35.8704,0.903844,-2.96911,1.8625,-939.107,9638.93,-1261.34,-0.0429817,2.58339,-2.59282,-502.955,-9906.05,-1601.53,-5.71967,-6.87055,3.82967,8381.95,1222.71,4351.35,10.32,-3.27518,9.57755
0.246,3446.1,-3932.43,8258.9,-0.989545,0.400424,1.08193,4068.22,3729.76,7898.99,-1.57571,1.80042,1.64737,106.804,9709.05,-906.468,0.468033,1.65706,-7.67875,-1154.54,-9825.32,-35.6406,0.91361,-2.87078,1.9846,-935.329,9655.09,-1267.76,0.0564236,2.32709,-2.25977,-486.076,-9886.77,-1605.52,-5.68938,-6.49621,3.91256,8390.96,1225.71,4304.54,10.0973,-3.53921,9.3563
0.247,3446.25,-3946.69,8262.86,-1.14094,0.451816,1.04714,4052.98,3743.19,7904.86,-1.54915,1.75945,1.74728,104.664,9708.06,-932.449,0.453878,1.6644,-7.90341,-1143.83,-9826.5,-35.4108,0.923376,-2.77245,2.1067,-931.551,9671.26,-1274.18,0.155829,2.07078,-1.92672,-469.196,-9867.49,-1609.52,-5.65908,-6.12188,3.99545,8399.96,1228.7,4257.74,9.87463,-3.80323,9.13506
0.248,3446.41,-3960.95,8266.81,-1.29233,0.503208,1.01234,4037.74,3756.63,7910.74,-1.5226,1.71847,1.84719,102.524,9707.07,-958.431,0.439722,1.67174,-8.12808,-1133.12,-9827.67,-35.1809,0.933142,-2.67411,2.2288,-927.773,9687.43,-1280.6,0.255234,1.81447,-1.59367,-452.316,-9848.2,-1613.52,-5.62879,-5.74754,4.07834,8408.97,1231.7,4210.93,9.65193,-4.06726,8.91381
0.249,3445.65,-3974.31,8267.98,-1.43086,0.562906,0.966917,4026.19,3764.03,7917.51,-1.48225,1.68648,1.92869,100.198,9706.74,-980.852,0.42326,1.67283,-8.3448,-1124.09,-9828.7,-34.9151,0.937627,-2.57115,2.34212,-928.068,9699.39,-1288.53,0.370394,1.5822,-1.2578,-440.843,-9832.12,-1613.84,-5.57456,-5.37766,4.15765,8419.79,1238.42,4170.46,9.38264,-4.29153,8.71583
0.25,3437.63,-3980.52,8246.9,-1.46639,0.689058,0.836412,4044.16,3723.18,7931.51,-1.33159,1.72635,1.8628,96.384,9711.71,-974.788,0.388337,1.62401,-8.49795,-1128.41,-9828.5,-34.3608,0.899862,-2.43114,2.38515,-960.953,9677.71,-1308.49,0.611588,1.5422,-0.899356,-472.617,-9841.66,-1584.8,-5.32888,-5.04337,4.20824,8445.06,1274.87,4180.64,8.74072,-4.19776,8.70387
0.251,3429.6,-3986.73,8225.81,-1.50193,0.81521,0.705908,4062.13,3682.33,7945.5,-1.18093,1.76622,1.79692,92.5703,9716.68,-968.725,0.353415,1.5752,-8.65109,-1132.74,-9828.29,-33.8066,0.862096,-2.29113,2.42818,-993.837,9656.03,-1328.44,0.852783,1.50221,-0.540907,-504.391,-9851.21,-1555.76,-5.08321,-4.70907,4.25883,8470.34,1311.32,4190.82,8.09879,-4.104,8.69191
0.252,3421.58,-3992.94,8204.72,-1.53747,0.941362,0.575404,4080.09,3641.48,7959.5,-1.03027,1.80608,1.73103,88.7567,9721.64,-962.661,0.318492,1.52638,-8.80424,-1137.06,-9828.09,-33.2523,0.824331,-2.15112,2.47121,-1026.72,9634.35,-1348.4,1.09398,1.46222,-0.182459,-536.165,-9860.75,-1526.72,-4.83753,-4.37478,4.30943,8495.62,1347.77,4201.01,7.45687,-4.01024,8.67995
0.253,3413.55,-3999.15,8183.64,-1.57301,1.06751,0.4449,4098.06,3600.62,7973.5,-0.879605,1.84595,1.66515,84.943,9726.61,-956.598,0.28357,1.47756,-8.95738,-1141.38,-9827.89,-32.6981,0.786566,-2.01111,2.51424,-1059.61,9612.67,-1368.36,1.33517,1.42223,0.175989,-567.939,-9870.29,-1497.68,-4.59185,-4.04049,4.36002,8520.9,1384.22,4211.19,6.81495,-3.91647,8.668
0.254,3401.02,-4007.76,8174.33,-1.60886,1.12619,0.41245,4107.41,3605.28,7976.35,-0.919057,1.87211,1.58658,90.4691,9731.32,-951.945,0.22561,1.38187,-9.14739,-1157.5,-9815.82,-33.1793,0.785982,-1.8711,2.54017,-1061.9,9599.2,-1382.54,1.51993,1.43454,0.517761,-572.274,-9872.02,-1479.91,-4.47167,-3.67589,4.26985,8530.1,1377.12,4214.16,5.88158,-3.83969,8.77249
0.255,3386.23,-4017.57,8170.9,-1.64486,1.15113,0.429026,4112.44,3632.68,7973.63,-1.05357,1.89143,1.50166,100.665,9735.89,-947.997,0.156131,1.26274,-9.35583,-1179.5,-9797.8,-34.1783,0.80399,-1.73109,2.55754,-1048.9,9589.84,-1393.83,1.67648,1.47301,0.851196,-562.889,-9869.84,-1467.77,-4.41422,-3.29615,4.10929,8531.26,1348.25,4213.53,4.80248,-3.7714,8.9352
0.256,3371.44,-4027.39,8167.48,-1.68087,1.17607,0.445603,4117.47,3660.09,7970.91,-1.18807,1.91074,1.41674,110.861,9740.46,-944.049,0.0866521,1.14361,-9.56426,-1201.51,-9779.79,-35.1772,0.821997,-1.59108,2.57491,-1035.9,9580.48,-1405.13,1.83302,1.51148,1.18463,-553.504,-9867.66,-1455.64,-4.35678,-2.91641,3.94873,8532.42,1319.37,4212.9,3.72339,-3.70311,9.09791
0.257,3356.66,-4037.21,8164.05,-1.71687,1.201,0.46218,4122.5,3687.49,7968.2,-1.32258,1.93006,1.33182,121.057,9745.03,-940.101,0.0171732,1.02448,-9.7727,-1223.51,-9761.78,-36.1762,0.840005,-1.45107,2.59228,-1022.9,9571.11,-1416.42,1.98956,1.54995,1.51807,-544.118,-9865.48,-1443.5,-4.29933,-2.53667,3.78817,8533.59,1290.5,4212.27,2.64429,-3.63481,9.26062
0.258,3345.01,-4047.27,8166.52,-1.72153,1.2318,0.455693,4125.84,3708.81,7962.54,-1.41592,1.91306,1.2635,131.652,9749.05,-936.915,-0.0344196,0.93038,-9.97626,-1237.08,-9749.89,-44.0219,0.840483,-1.30617,2.62696,-1019.88,9562.37,-1419.47,2.11847,1.60392,1.83344,-531.127,-9863.29,-1430.48,-4.23122,-2.12809,3.66652,8531.85,1267.4,4206.91,1.721,-3.54454,9.42127
0.259,3344.37,-4058.18,8189.63,-1.61647,1.28309,0.368486,4123.25,3708.85,7946.62,-1.36514,1.76898,1.25329,143.642,9751.12,-936.393,-0.023411,0.923867,-10.1627,-1221.13,-9759.44,-75.8311,0.779609,-1.14418,2.72219,-1051.79,9555.77,-1393.69,2.15064,1.71217,2.08559,-505.513,-9861.06,-1414.38,-4.12579,-1.61857,3.68104,8519.97,1264.55,4184.98,1.34304,-3.37735,9.57471
0.26,3343.73,-4069.1,8212.72,-1.51141,1.33439,0.281279,4120.66,3708.89,7930.7,-1.31437,1.62491,1.24308,155.631,9753.19,-935.872,-0.0124024,0.917354,-10.3492,-1205.17,-9768.98,-107.64,0.718734,-0.982188,2.81743,-1083.7,9549.18,-1367.9,2.18281,1.82041,2.33774,-479.899,-9858.83,-1398.27,-4.02035,-1.10906,3.69556,8508.09,1261.7,4163.04,0.965071,-3.21016,9.72816
0.261,3343.09,-4080.02,8235.83,-1.40635,1.38568,0.194072,4118.06,3708.93,7914.78,-1.2636,1.48083,1.23288,167.621,9755.26,-935.35,-0.00139374,0.910842,-10.5357,-1189.22,-9778.52,-139.45,0.65786,-0.820195,2.91266,-1115.62,9542.58,-1342.12,2.21499,1.92866,2.58989,-454.285,-9856.6,-1382.17,-3.91491,-0.59955,3.71009,8496.22,1258.85,4141.11,0.587106,-3.04297,9.8816
0.262,3342.45,-4090.93,8258.93,-1.30129,1.43697,0.106865,4115.47,3708.97,7898.86,-1.21283,1.33675,1.22267,179.61,9757.33,-934.829,0.00961488,0.904329,-10.7222,-1173.26,-9788.07,-171.259,0.596985,-0.658203,3.0079,-1147.53,9535.99,-1316.33,2.24716,2.0369,2.84204,-428.671,-9854.37,-1366.07,-3.80948,-0.0900383,3.72461,8484.34,1256.0,4119.17,0.20914,-2.87578,10.035
0.263,3343.38,-4097.02,8262.37,-1.22628,1.49096,0.0051555,4118.35,3713.74,7904.26,-1.19417,1.33769,1.20132,186.255,9745.33,-937.585,-0.00457688,1.00015,-10.8992,-1170.0,-9789.05,-176.617,0.64516,-0.491535,3.08715,-1175.88,9532.74,-1325.62,2.32817,2.22034,3.1128,-446.984,-9851.72,-1355.51,-3.79747,0.342976,3.75006,8516.92,1246.48,4134.59,-0.247045,-2.87176,10.3479
0.264,3344.75,-4101.71,8260.19,-1.15985,1.54571,-0.100698,4122.79,3719.86,7915.76,-1.18468,1.38005,1.17678,191.372,9729.3,-941.278,-0.0259688,1.12521,-11.0734,-1170.36,-9787.58,-174.417,0.724493,-0.323532,3.16183,-1203.22,9530.44,-1344.92,2.42314,2.42527,3.38887,-477.848,-9848.94,-1346.54,-3.81215,0.754134,3.77863,8562.2,1235.04,4160.69,-0.725578,-2.91436,10.7062
0.265,3346.13,-4106.41,8258.01,-1.09343,1.60046,-0.206552,4127.23,3725.98,7927.25,-1.17519,1.42242,1.15224,196.489,9713.28,-944.97,-0.0473606,1.25028,-11.2476,-1170.73,-9786.11,-172.218,0.803826,-0.155528,3.23651,-1230.56,9528.15,-1364.23,2.5181,2.6302,3.66494,-508.712,-9846.17,-1337.57,-3.82683,1.16529,3.8072,8607.48,1223.61,4186.78,-1.20411,-2.95697,11.0646
0.266,3347.5,-4111.11,8255.84,-1.027,1.65521,-0.312405,4131.67,3732.1,7938.74,-1.16571,1.46479,1.12771,201.606,9697.25,-948.663,-0.0687525,1.37534,-11.4219,-1171.1,-9784.65,-170.019,0.883158,0.012476,3.31119,-1257.89,9525.85,-1383.53,2.61306,2.83513,3.94101,-539.576,-9843.4,-1328.59,-3.84151,1.57645,3.83577,8652.75,1212.18,4212.88,-1.68265,-2.99957,11.4229
0.267,3349.66,-4112.15,8251.55,-0.986359,1.70974,-0.398839,4131.26,3726.72,7952.77,-1.14286,1.47895,1.09799,196.556,9685.66,-955.012,-0.0996703,1.5412,-11.56,-1170.71,-9777.25,-165.492,0.935774,0.152481,3.40546,-1298.66,9526.79,-1392.28,2.63178,2.90528,4.14497,-566.179,-9844.26,-1329.3,-3.85866,1.95609,3.86839,8673.44,1194.97,4222.68,-2.02888,-2.98856,11.6481
0.268,3353.4,-4105.89,8243.04,-0.99728,1.76384,-0.446433,4121.14,3698.36,7971.88,-1.09331,1.4367,1.0579,171.174,9682.91,-966.677,-0.14964,1.78865,-11.6259,-1168.84,-9757.99,-156.309,0.934957,0.236487,3.53889,-1366.28,9534.21,-1379.91,2.49801,2.70585,4.20472,-584.26,-9852.41,-1349.34,-3.88072,2.27271,3.90911,8644.96,1166.22,4199.88,-2.1105,-2.87031,11.6067
0.269,3357.13,-4099.62,8234.53,-1.0082,1.81793,-0.494028,4111.02,3670.0,7990.98,-1.04375,1.39445,1.01781,145.791,9680.16,-978.341,-0.199609,2.03611,-11.6918,-1166.96,-9738.72,-147.126,0.934139,0.320493,3.67233,-1433.89,9541.62,-1367.54,2.36424,2.50642,4.26446,-602.341,-9860.55,-1369.39,-3.90278,2.58932,3.94983,8616.47,1137.48,4177.08,-2.19213,-2.75207,11.5654
0.27,3360.87,-4093.36,8226.02,-1.01912,1.87203,-0.541622,4100.9,3641.64,8010.08,-0.994201,1.3522,0.977723,120.409,9677.41,-990.006,-0.249578,2.28357,-11.7577,-1165.08,-9719.46,-137.943,0.933322,0.404499,3.80576,-1501.51,9549.03,-1355.17,2.23046,2.30699,4.3242,-620.422,-9868.69,-1389.44,-3.92485,2.90593,3.99055,8587.98,1108.73,4154.28,-2.27375,-2.63383,11.5241
0.271,3364.6,-4087.09,8217.51,-1.03004,1.92613,-0.589216,4090.78,3613.27,8029.19,-0.944647,1.30996,0.937635,95.0261,9674.66,-1001.67,-0.299548,2.53102,-11.8236,-1163.21,-9700.2,-128.761,0.932505,0.488505,3.9392,-1569.13,9556.44,-1342.8,2.09669,2.10755,4.38394,-638.504,-9876.83,-1409.49,-3.94691,3.22255,4.03126,8559.49,1079.98,4131.49,-2.35538,-2.51559,11.4828
0.272,3373.58,-4059.51,8205.9,-0.940283,2.03255,-0.643822,4084.26,3603.83,8029.5,-1.00109,1.31161,0.829536,63.6715,9686.17,-994.91,-0.291205,2.63805,-11.9104,-1177.35,-9703.54,-129.168,0.875099,0.563247,3.99309,-1576.39,9551.61,-1363.24,2.23849,2.11974,4.61006,-651.947,-9911.71,-1397.66,-3.91383,3.50862,4.05454,8570.85,1072.95,4166.9,-2.34977,-2.68151,11.1157
0.273,3383.22,-4029.27,8193.91,-0.837939,2.14552,-0.699306,4078.2,3596.74,8027.47,-1.07077,1.31876,0.712936,31.5704,9699.46,-985.847,-0.275573,2.72752,-11.9999,-1193.5,-9709.7,-130.775,0.81062,0.636831,4.03704,-1576.11,9545.26,-1387.78,2.41474,2.15837,4.85697,-664.81,-9949.94,-1381.83,-3.87386,3.79087,4.07565,8587.18,1068.62,4209.59,-2.33326,-2.88295,10.708
0.274,3392.86,-3999.03,8181.92,-0.735595,2.25848,-0.754789,4072.13,3589.66,8025.44,-1.14046,1.3259,0.596336,-0.530678,9712.75,-976.784,-0.259942,2.81699,-12.0893,-1209.65,-9715.87,-132.381,0.746142,0.710415,4.08099,-1575.84,9538.91,-1412.32,2.59099,2.197,5.10387,-677.674,-9988.16,-1366.01,-3.83388,4.07313,4.09675,8603.52,1064.3,4252.28,-2.31674,-3.08439,10.3002
0.275,3402.5,-3968.79,8169.92,-0.633252,2.37145,-0.810272,4066.06,3582.58,8023.41,-1.21015,1.33304,0.479736,-32.6318,9726.04,-967.721,-0.24431,2.90646,-12.1788,-1225.8,-9722.03,-133.988,0.681663,0.784,4.12494,-1575.56,9532.55,-1436.87,2.76725,2.23564,5.35078,-690.538,-10026.4,-1350.19,-3.79391,4.35538,4.11785,8619.85,1059.97,4294.97,-2.30023,-3.28583,9.89249
0.276,3414.9,-3957.38,8166.05,-0.568638,2.46324,-0.860186,4070.41,3598.73,8023.43,-1.28018,1.28704,0.477428,-59.1272,9738.78,-955.57,-0.25875,2.93514,-12.2555,-1241.55,-9732.05,-132.019,0.59471,0.87901,4.16642,-1581.3,9531.83,-1440.53,2.85942,2.25731,5.56165,-706.702,-10033.9,-1346.54,-3.83004,4.65979,4.10487,8635.56,1049.26,4306.0,-2.32113,-3.44298,9.55236
0.277,3430.73,-3969.53,8172.34,-0.551187,2.52857,-0.903141,4087.77,3643.93,8026.02,-1.35065,1.1746,0.617982,-78.6157,9750.82,-939.561,-0.31078,2.88783,-12.3164,-1256.77,-9746.89,-125.579,0.479666,1.0008,4.20479,-1594.58,9538.15,-1418.09,2.84651,2.25777,5.72746,-726.993,-10003.2,-1358.1,-3.96129,4.99188,4.04931,8650.46,1030.56,4277.45,-2.38878,-3.54474,9.29676
0.278,3446.57,-3981.68,8178.62,-0.533735,2.5939,-0.946095,4105.13,3689.14,8028.61,-1.42112,1.06217,0.758537,-98.1042,9762.86,-923.552,-0.36281,2.84052,-12.3773,-1272.0,-9761.73,-119.139,0.364622,1.1226,4.24317,-1607.86,9544.46,-1395.65,2.8336,2.25824,5.89328,-747.284,-9972.4,-1369.66,-4.09255,5.32396,3.99375,8665.37,1011.86,4248.91,-2.45643,-3.6465,9.04116
0.279,3462.4,-3993.83,8184.91,-0.516284,2.65923,-0.989049,4122.49,3734.34,8031.2,-1.49159,0.949731,0.899092,-117.593,9774.9,-907.543,-0.41484,2.79321,-12.4383,-1287.23,-9776.56,-112.7,0.249578,1.24439,4.28155,-1621.14,9550.78,-1373.22,2.82069,2.25871,6.05909,-767.574,-9941.63,-1381.22,-4.22381,5.65605,3.93819,8680.28,993.163,4220.36,-2.52409,-3.74827,8.78556
0.28,3478.24,-4005.98,8191.19,-0.498833,2.72455,-1.032,4139.85,3779.54,8033.79,-1.56206,0.837295,1.03965,-137.081,9786.94,-891.534,-0.46687,2.7459,-12.4992,-1302.46,-9791.4,-106.26,0.134534,1.36619,4.31993,-1634.42,9557.09,-1350.78,2.80778,2.25918,6.2249,-787.865,-9910.86,-1392.78,-4.35507,5.98814,3.88263,8695.19,974.465,4191.82,-2.59174,-3.85003,8.52996
0.281,3485.43,-4024.22,8183.4,-0.526624,2.76506,-1.04693,4137.4,3764.51,8022.04,-1.50382,0.929377,0.899873,-152.496,9788.21,-881.909,-0.586185,2.79479,-12.4714,-1304.64,-9781.48,-97.0637,0.140099,1.52115,4.38341,-1709.62,9529.77,-1372.32,2.84629,2.32502,6.26661,-785.905,-9926.5,-1368.5,-4.43645,6.2947,3.84429,8710.24,987.695,4188.32,-2.70446,-4.11976,8.30006
0.282,3492.63,-4042.47,8175.61,-0.554414,2.80556,-1.06186,4134.95,3749.47,8010.3,-1.44558,1.02146,0.760098,-167.91,9789.48,-872.283,-0.705499,2.84368,-12.4436,-1306.83,-9771.57,-87.8671,0.145664,1.67612,4.44689,-1784.83,9502.45,-1393.87,2.88481,2.39086,6.30831,-783.944,-9942.15,-1344.22,-4.51783,6.60126,3.80594,8725.3,1000.92,4184.81,-2.81718,-4.38949,8.07016
0.283,3499.83,-4060.71,8167.82,-0.582204,2.84607,-1.07679,4132.51,3734.44,7998.55,-1.38734,1.11354,0.620324,-183.325,9790.76,-862.658,-0.824814,2.89257,-12.4158,-1309.01,-9761.65,-78.6705,0.151229,1.83109,4.51038,-1860.03,9475.12,-1415.41,2.92332,2.4567,6.35001,-781.984,-9957.79,-1319.94,-4.59921,6.90783,3.76759,8740.36,1014.16,4181.31,-2.9299,-4.65922,7.84025
0.284,3507.02,-4078.95,8160.03,-0.609995,2.88657,-1.09172,4130.06,3719.41,7986.81,-1.3291,1.20562,0.480549,-198.739,9792.03,-853.032,-0.944129,2.94146,-12.388,-1311.19,-9751.73,-69.4739,0.156794,1.98606,4.57386,-1935.23,9447.8,-1436.96,2.96183,2.52255,6.39172,-780.023,-9973.44,-1295.66,-4.68059,7.21439,3.72925,8755.42,1027.39,4177.8,-3.04261,-4.92894,7.61035
0.285,3509.3,-4081.03,8158.73,-0.597133,2.86327,-1.13473,4121.51,3707.98,7964.24,-1.27904,1.21516,0.39759,-219.623,9787.99,-847.533,-0.997347,2.96794,-12.3464,-1316.33,-9747.99,-54.9785,0.204658,2.05257,4.6132,-1974.76,9413.8,-1450.94,2.87435,2.44673,6.43956,-794.479,-9966.52,-1277.12,-4.87235,7.45158,3.75887,8786.68,1024.09,4174.42,-3.07858,-5.12977,7.3167
0.286,3507.63,-4070.18,8162.63,-0.55175,2.78892,-1.2002,4108.07,3699.45,7933.02,-1.23553,1.15866,0.360083,-244.882,9779.69,-845.334,-0.997688,2.97648,-12.2936,-1323.84,-9749.21,-36.2441,0.286363,2.04832,4.63323,-1985.76,9374.45,-1458.89,2.68607,2.25758,6.49232,-822.068,-9941.56,-1263.19,-5.15241,7.63328,3.84288,8830.91,1007.56,4171.14,-3.05314,-5.27547,6.97206
0.287,3505.97,-4059.33,8166.52,-0.506368,2.71457,-1.26567,4094.64,3690.92,7901.8,-1.19202,1.10216,0.322577,-270.141,9771.4,-843.135,-0.99803,2.98502,-12.2409,-1331.36,-9750.42,-17.5097,0.368068,2.04407,4.65325,-1996.76,9335.1,-1466.83,2.49779,2.06842,6.54508,-849.657,-9916.6,-1249.25,-5.43247,7.81498,3.92688,8875.14,991.041,4167.86,-3.02771,-5.42117,6.62742
0.288,3504.31,-4048.49,8170.41,-0.460985,2.64023,-1.33114,4081.2,3682.39,7870.58,-1.14851,1.04567,0.28507,-295.399,9763.1,-840.936,-0.998371,2.99356,-12.1881,-1338.87,-9751.63,1.22475,0.449773,2.03982,4.67328,-2007.76,9295.75,-1474.78,2.3095,1.87927,6.59784,-877.246,-9891.64,-1235.32,-5.71253,7.99668,4.01089,8919.37,974.519,4164.57,-3.00227,-5.56687,6.28277
0.289,3503.0,-4038.11,8174.14,-0.408563,2.57444,-1.39211,4071.42,3676.79,7845.21,-1.10955,0.984865,0.248653,-318.475,9754.04,-839.52,-0.996007,3.00689,-12.1383,-1344.77,-9753.16,16.0283,0.515947,2.0386,4.69349,-2019.54,9260.81,-1484.28,2.14947,1.71417,6.63723,-903.962,-9869.59,-1224.48,-5.96664,8.16804,4.07206,8955.15,957.958,4159.3,-2.98526,-5.70899,5.94243
0.29,3504.53,-4031.56,8176.52,-0.299836,2.57718,-1.41712,4090.93,3694.67,7866.63,-1.10697,0.889639,0.220953,-324.086,9738.85,-844.363,-0.971999,3.05849,-12.1112,-1337.85,-9757.27,-0.615077,0.457866,2.06164,4.7152,-2037.55,9261.19,-1506.18,2.21546,1.74145,6.56963,-923.695,-9870.82,-1238.38,-6.01311,8.25665,3.95056,8923.31,941.097,4138.13,-3.03561,-5.82249,5.63652
0.291,3506.07,-4025.01,8178.92,-0.191108,2.57991,-1.44213,4110.44,3712.54,7888.05,-1.10438,0.794414,0.193254,-329.697,9723.65,-849.206,-0.947991,3.1101,-12.0841,-1330.94,-9761.38,-17.2585,0.399786,2.08469,4.7369,-2055.56,9261.57,-1528.09,2.28146,1.76873,6.50203,-943.428,-9872.05,-1252.29,-6.05958,8.34526,3.82906,8891.47,924.236,4116.96,-3.08597,-5.93599,5.33061
0.292,3507.61,-4018.47,8181.3,-0.0823806,2.58264,-1.46714,4129.95,3730.42,7909.46,-1.1018,0.699188,0.165555,-335.308,9708.46,-854.049,-0.923984,3.1617,-12.057,-1324.02,-9765.49,-33.9018,0.341706,2.10773,4.75861,-2073.57,9261.95,-1550.0,2.34745,1.79601,6.43442,-963.162,-9873.27,-1266.19,-6.10606,8.43386,3.70756,8859.63,907.375,4095.79,-3.13632,-6.04949,5.0247
0.293,3509.14,-4011.92,8183.69,0.026347,2.58538,-1.49215,4149.45,3748.29,7930.88,-1.09922,0.603962,0.137856,-340.919,9693.27,-858.892,-0.899976,3.21331,-12.03,-1317.1,-9769.6,-50.5452,0.283626,2.13077,4.78031,-2091.58,9262.33,-1571.9,2.41344,1.8233,6.36683,-982.895,-9874.5,-1280.1,-6.15253,8.52247,3.58606,8827.79,890.514,4074.61,-3.18668,-6.16299,4.71879
0.294,3517.2,-4013.05,8176.07,0.0577541,2.61943,-1.48584,4146.44,3748.77,7934.11,-1.08962,0.586243,0.0839386,-333.161,9681.17,-860.344,-0.970415,3.26426,-11.9691,-1305.91,-9776.82,-65.8862,0.224626,2.19296,4.79688,-2122.93,9270.12,-1551.37,2.40603,1.83921,6.32854,-992.204,-9874.96,-1294.91,-6.05083,8.62257,3.49352,8819.59,884.617,4065.93,-3.40683,-6.28584,4.44764
0.295,3528.52,-4018.02,8163.45,0.0505009,2.66914,-1.46386,4132.18,3740.56,7928.25,-1.07651,0.607277,0.0169123,-318.718,9670.63,-860.101,-1.08808,3.3149,-11.8912,-1292.59,-9785.6,-80.5761,0.165166,2.27472,4.81088,-2160.94,9281.62,-1509.63,2.36193,1.84945,6.30491,-996.3,-9875.04,-1310.17,-5.87506,8.72842,3.41545,8823.2,884.202,4063.48,-3.71188,-6.41337,4.19387
0.296,3539.84,-4023.0,8150.82,0.0432477,2.71886,-1.44189,4117.91,3732.35,7922.38,-1.0634,0.628311,-0.050114,-304.276,9660.1,-859.858,-1.20574,3.36553,-11.8134,-1279.27,-9794.37,-95.2659,0.105706,2.35647,4.82488,-2198.95,9293.12,-1467.88,2.31783,1.85968,6.28127,-1000.4,-9875.11,-1325.43,-5.69928,8.83427,3.33738,8826.82,883.786,4061.04,-4.01693,-6.54089,3.94009
0.297,3551.16,-4027.97,8138.2,0.0359945,2.76857,-1.41992,4103.64,3724.14,7916.52,-1.05029,0.649345,-0.11714,-289.834,9649.56,-859.615,-1.3234,3.41617,-11.7356,-1265.95,-9803.15,-109.956,0.0462465,2.43823,4.83888,-2236.97,9304.62,-1426.14,2.27372,1.86992,6.25764,-1004.49,-9875.19,-1340.69,-5.52351,8.94012,3.25931,8830.44,883.371,4058.59,-4.32198,-6.66842,3.68632
0.298,3559.58,-4027.82,8127.04,0.0365336,2.79642,-1.40897,4093.99,3720.88,7911.88,-1.03702,0.654221,-0.161142,-279.973,9645.31,-859.225,-1.41393,3.4606,-11.61,-1253.63,-9808.01,-121.182,0.00760007,2.51094,4.86352,-2268.75,9307.91,-1400.28,2.21691,1.86082,6.179,-1006.67,-9872.63,-1349.93,-5.38881,9.01982,3.20508,8834.95,873.557,4056.26,-4.58331,-6.80214,3.36865
0.299,3557.85,-4009.77,8121.06,0.0643457,2.74777,-1.43657,4100.53,3734.98,7911.54,-1.02317,0.602546,-0.124557,-286.147,9663.08,-858.321,-1.40949,3.48331,-11.3175,-1244.79,-9799.2,-120.285,0.0418004,2.55198,4.92541,-2278.72,9282.48,-1430.06,2.11559,1.78405,5.9078,-1002.15,-9860.85,-1338.1,-5.3979,9.00801,3.23429,8842.57,830.849,4054.3,-4.69161,-6.95754,2.82731
0.3,3556.11,-3991.72,8115.07,0.0921579,2.69911,-1.46417,4107.07,3749.07,7911.2,-1.00932,0.55087,-0.0879717,-292.321,9680.85,-857.418,-1.40505,3.50602,-11.025,-1235.95,-9790.39,-119.387,0.0760007,2.59302,4.98729,-2288.69,9257.04,-1459.83,2.01427,1.70727,5.63661,-997.629,-9849.08,-1326.27,-5.40699,8.99619,3.2635,8850.2,788.141,4052.35,-4.7999,-7.11294,2.28598
0.301,3554.38,-3973.67,8109.08,0.11997,2.65046,-1.49177,4113.6,3763.17,7910.86,-0.995471,0.499194,-0.0513866,-298.495,9698.62,-856.514,-1.40062,3.52873,-10.7325,-1227.11,-9781.57,-118.49,0.110201,2.63406,5.04917,-2298.67,9231.61,-1489.61,1.91295,1.6305,5.36542,-993.106,-9837.3,-1314.45,-5.41608,8.98438,3.29271,8857.83,745.432,4050.4,-4.9082,-7.26834,1.74464
0.302,3552.64,-3955.62,8103.09,0.147782,2.60181,-1.51937,4120.14,3777.26,7910.52,-0.981622,0.447519,-0.0148016,-304.669,9716.39,-855.61,-1.39618,3.55144,-10.44,-1218.27,-9772.76,-117.593,0.144401,2.6751,5.11105,-2308.64,9206.17,-1519.38,1.81163,1.55372,5.09423,-988.583,-9825.52,-1302.62,-5.42517,8.97257,3.32192,8865.46,702.724,4048.45,-5.01649,-7.42374,1.20331
0.303,3544.01,-3948.41,8113.17,0.164202,2.57577,-1.49231,4094.92,3775.12,7925.11,-0.895093,0.424096,-0.0574177,-331.969,9744.08,-847.489,-1.39254,3.4873,-10.212,-1233.32,-9767.42,-111.439,0.129013,2.69978,5.16767,-2321.12,9224.45,-1537.36,1.85757,1.5757,4.91611,-990.303,-9824.02,-1293.02,-5.37071,8.9421,3.29774,8866.31,689.831,4034.69,-5.07521,-7.5629,0.866392
0.304,3533.4,-3944.3,8127.85,0.177366,2.5562,-1.44964,4060.63,3768.34,7943.96,-0.787799,0.408745,-0.122663,-365.305,9774.62,-837.304,-1.38913,3.39836,-10.0025,-1255.18,-9763.08,-103.783,0.0994556,2.71978,5.22279,-2334.31,9255.22,-1551.97,1.94557,1.62588,4.76459,-993.808,-9825.46,-1284.05,-5.29809,8.9063,3.25831,8865.22,685.457,4017.55,-5.11976,-7.69742,0.587883
0.305,3522.79,-3940.2,8142.53,0.190531,2.53663,-1.40697,4026.33,3761.55,7962.82,-0.680504,0.393395,-0.187908,-398.64,9805.15,-827.12,-1.38572,3.30941,-9.79306,-1277.05,-9758.73,-96.1267,0.0698986,2.73978,5.2779,-2347.5,9285.99,-1566.58,2.03358,1.67606,4.61307,-997.312,-9826.89,-1275.08,-5.22547,8.8705,3.21887,8864.13,681.083,4000.42,-5.16432,-7.83194,0.309373
0.306,3512.18,-3936.09,8157.2,0.203695,2.51706,-1.3643,3992.04,3754.77,7981.68,-0.57321,0.378044,-0.253153,-431.976,9835.68,-816.936,-1.38231,3.22046,-9.58357,-1298.92,-9754.39,-88.4706,0.0403415,2.75978,5.33302,-2360.69,9316.76,-1581.18,2.12159,1.72625,4.46154,-1000.82,-9828.32,-1266.11,-5.15285,8.8347,3.17944,8863.04,676.709,3983.28,-5.20887,-7.96646,0.030864
0.307,3503.02,-3935.8,8171.77,0.222354,2.50359,-1.34679,3969.9,3748.06,7992.31,-0.473728,0.372173,-0.252386,-461.313,9855.69,-809.0,-1.39247,3.13765,-9.4282,-1314.34,-9754.22,-84.0461,-0.0164441,2.75666,5.34515,-2368.62,9331.68,-1586.21,2.15975,1.75098,4.31524,-1016.85,-9838.56,-1261.43,-5.12455,8.74235,3.14229,8858.58,679.531,3965.23,-5.24379,-7.96991,-0.0791272
0.308,3496.76,-3943.14,8186.11,0.252003,2.50232,-1.37962,3972.09,3741.51,7986.51,-0.38987,0.385262,-0.119594,-482.653,9854.64,-805.563,-1.42976,3.06711,-9.38106,-1316.85,-9762.39,-86.0844,-0.127687,2.70727,5.27132,-2366.03,9314.93,-1572.07,2.09822,1.72481,4.17938,-1057.96,-9866.41,-1265.35,-5.18491,8.5369,3.10972,8847.39,696.748,3945.33,-5.25943,-7.71121,0.147918
0.309,3490.5,-3950.48,8200.45,0.281651,2.50105,-1.41244,3974.28,3734.96,7980.7,-0.306012,0.398351,0.0131984,-503.994,9853.59,-802.125,-1.46705,2.99658,-9.33392,-1319.36,-9770.56,-88.1227,-0.23893,2.65788,5.19749,-2363.44,9298.17,-1557.94,2.03669,1.69865,4.04352,-1099.07,-9894.25,-1269.26,-5.24527,8.33144,3.07714,8836.19,713.964,3925.44,-5.27508,-7.4525,0.374963
0.31,3484.24,-3957.82,8214.79,0.3113,2.49978,-1.44527,3976.46,3728.41,7974.9,-0.222153,0.41144,0.14599,-525.334,9852.54,-798.687,-1.50434,2.92604,-9.28677,-1321.88,-9778.74,-90.1611,-0.350173,2.6085,5.12366,-2360.85,9281.42,-1543.8,1.97516,1.67248,3.90765,-1140.18,-9922.1,-1273.17,-5.30562,8.12599,3.04457,8824.99,731.18,3905.55,-5.29072,-7.19379,0.602008
0.311,3477.98,-3965.16,8229.13,0.340949,2.49851,-1.4781,3978.65,3721.86,7969.09,-0.138295,0.424529,0.278782,-546.675,9851.5,-795.25,-1.54164,2.8555,-9.23963,-1324.39,-9786.91,-92.1994,-0.461416,2.55911,5.04983,-2358.27,9264.66,-1529.67,1.91363,1.64631,3.77179,-1181.28,-9949.95,-1277.09,-5.36598,7.92053,3.01199,8813.8,748.397,3885.66,-5.30636,-6.93509,0.829053
0.312,3475.41,-3970.68,8237.69,0.386174,2.47371,-1.50644,3998.85,3727.66,7974.97,-0.200067,0.389976,0.235452,-549.645,9848.21,-798.425,-1.50426,2.81468,-9.03993,-1325.28,-9796.06,-95.9674,-0.526873,2.51065,4.91717,-2366.22,9297.49,-1528.14,1.94914,1.82796,3.65941,-1191.05,-9958.73,-1288.74,-5.37854,7.78886,2.95216,8795.15,695.567,3894.18,-5.07987,-6.50029,0.828552
0.313,3473.3,-3975.97,8245.52,0.433346,2.44596,-1.53423,4021.31,3735.0,7982.32,-0.280043,0.349468,0.170107,-550.319,9844.65,-802.427,-1.45755,2.77758,-8.82116,-1325.98,-9805.33,-99.9515,-0.586607,2.4623,4.77716,-2375.49,9336.52,-1528.19,1.99678,2.0356,3.54995,-1196.9,-9965.12,-1301.36,-5.38513,7.6664,2.88893,8775.58,633.982,3906.25,-4.8231,-6.04348,0.799607
0.314,3471.19,-3981.26,8253.35,0.480518,2.41822,-1.56202,4043.76,3742.34,7989.66,-0.360018,0.30896,0.104761,-550.992,9841.09,-806.429,-1.41085,2.74047,-8.60239,-1326.67,-9814.6,-103.936,-0.646341,2.41395,4.63715,-2384.76,9375.55,-1528.24,2.04442,2.24323,3.4405,-1202.75,-9971.52,-1313.98,-5.39171,7.54395,2.82569,8756.0,572.396,3918.32,-4.56634,-5.58668,0.770663
0.315,3469.09,-3986.55,8261.18,0.52769,2.39048,-1.5898,4066.22,3749.69,7997.0,-0.439994,0.268452,0.0394156,-551.666,9837.53,-810.431,-1.36414,2.70337,-8.38363,-1327.36,-9823.87,-107.92,-0.706075,2.3656,4.49714,-2394.03,9414.58,-1528.29,2.09206,2.45086,3.33105,-1208.6,-9977.92,-1326.6,-5.3983,7.4215,2.76245,8736.43,510.811,3930.4,-4.30957,-5.12987,0.741719
0.316,3467.14,-3989.57,8270.34,0.539425,2.34598,-1.58446,4080.23,3745.67,7988.68,-0.478705,0.227481,0.0393601,-542.168,9839.65,-807.32,-1.32641,2.66423,-8.18745,-1334.59,-9824.13,-103.222,-0.76932,2.29893,4.42054,-2412.05,9434.56,-1517.69,2.09248,2.6561,3.15056,-1228.94,-9979.3,-1331.07,-5.27797,7.30046,2.6829,8747.98,478.446,3944.29,-3.87347,-4.75161,0.725462
0.317,3465.39,-3989.74,8281.16,0.506864,2.28055,-1.53772,4083.69,3727.46,7960.79,-0.465836,0.185933,0.120917,-519.954,9848.87,-795.318,-1.29991,2.62254,-8.0195,-1349.99,-9813.12,-87.6727,-0.836953,2.20937,4.4232,-2441.02,9430.74,-1493.76,2.03388,2.85834,2.88127,-1267.37,-9974.42,-1325.33,-4.99899,7.18119,2.58296,8798.44,482.605,3960.46,-3.21319,-4.47153,0.725065
0.318,3463.64,-3989.9,8291.97,0.474304,2.21511,-1.49097,4087.15,3709.25,7932.89,-0.452967,0.144384,0.202474,-497.741,9858.09,-783.316,-1.27341,2.58085,-7.85156,-1365.39,-9802.11,-72.1231,-0.904585,2.11981,4.42586,-2469.98,9426.91,-1469.83,1.97527,3.06058,2.61197,-1305.8,-9969.54,-1319.6,-4.72001,7.06192,2.48301,8848.89,486.765,3976.63,-2.55291,-4.19145,0.724668
0.319,3461.89,-3990.07,8302.79,0.441743,2.14968,-1.44422,4090.61,3691.04,7905.0,-0.440098,0.102835,0.284031,-475.528,9867.31,-771.314,-1.2469,2.53917,-7.68361,-1380.79,-9791.1,-56.5735,-0.972218,2.03026,4.42852,-2498.94,9423.09,-1445.91,1.91667,3.26282,2.34268,-1344.23,-9964.66,-1313.87,-4.44103,6.94264,2.38306,8899.35,490.924,3992.8,-1.89263,-3.91137,0.72427
0.32,3460.14,-3990.24,8313.61,0.409182,2.08424,-1.39747,4094.06,3672.82,7877.1,-0.427229,0.0612862,0.365588,-453.314,9876.53,-759.312,-1.2204,2.49748,-7.51567,-1396.19,-9780.09,-41.0239,-1.03985,1.9407,4.43118,-2527.9,9419.27,-1421.98,1.85807,3.46506,2.07338,-1382.66,-9959.78,-1308.13,-4.16205,6.82337,2.28312,8949.81,495.084,4008.97,-1.23235,-3.63129,0.723873
0.321,3477.35,-3996.1,8296.26,0.364353,2.02554,-1.38509,4084.47,3660.03,7902.91,-0.234996,0.0333668,0.516131,-451.543,9890.04,-772.229,-1.24933,2.41721,-7.24479,-1399.86,-9771.63,-38.0015,-1.11326,1.70812,4.42842,-2527.56,9430.92,-1445.21,1.75402,3.60229,1.88033,-1408.37,-9967.29,-1311.51,-4.08058,6.67059,2.18064,8936.19,509.943,4022.69,-0.55421,-3.70544,0.971904
0.322,3494.56,-4001.95,8278.92,0.319524,1.96684,-1.37271,4074.88,3647.24,7928.72,-0.0427628,0.00544735,0.666675,-449.771,9903.55,-785.146,-1.27827,2.33694,-6.97391,-1403.53,-9763.16,-34.9791,-1.18668,1.47554,4.42566,-2527.22,9442.58,-1468.44,1.64998,3.73952,1.68728,-1434.08,-9974.81,-1314.89,-3.99912,6.5178,2.07816,8922.57,524.803,4036.41,0.123933,-3.7796,1.21994
0.323,3511.76,-4007.81,8261.57,0.274695,1.90814,-1.36033,4065.29,3634.45,7954.53,0.14947,-0.0224721,0.817218,-448.0,9917.06,-798.064,-1.3072,2.25668,-6.70303,-1407.21,-9754.7,-31.9568,-1.26009,1.24296,4.4229,-2526.89,9454.23,-1491.67,1.54594,3.87675,1.49423,-1459.78,-9982.32,-1318.27,-3.91765,6.36501,1.97568,8908.95,539.662,4050.13,0.802075,-3.85376,1.46797
0.324,3528.97,-4013.66,8244.23,0.229866,1.84943,-1.34794,4055.71,3621.66,7980.34,0.341703,-0.0503915,0.967762,-446.228,9930.57,-810.981,-1.33614,2.17641,-6.43215,-1410.88,-9746.23,-28.9344,-1.33351,1.01038,4.42014,-2526.55,9465.89,-1514.9,1.4419,4.01398,1.30118,-1485.49,-9989.83,-1321.64,-3.83618,6.21223,1.8732,8895.32,554.522,4063.85,1.48022,-3.92791,1.716
0.325,3532.55,-4016.35,8231.15,0.167463,1.80358,-1.32071,4059.32,3628.55,7991.04,0.426161,-0.0930876,0.989973,-468.608,9929.05,-807.058,-1.38851,2.1303,-6.17327,-1419.62,-9749.36,-25.9264,-1.41136,0.825286,4.3299,-2529.26,9458.01,-1515.48,1.29496,4.13911,1.03516,-1509.84,-9993.32,-1320.15,-3.73511,6.051,1.78062,8882.56,559.262,4084.57,2.40466,-4.14666,1.64416
0.326,3525.22,-4016.49,8221.49,0.091,1.76802,-1.28159,4073.5,3651.19,7989.66,0.424399,-0.147605,0.909518,-510.309,9915.51,-789.664,-1.45963,2.11152,-5.92399,-1432.43,-9761.76,-22.9299,-1.49278,0.678178,4.16967,-2534.4,9434.5,-1497.93,1.11371,4.25456,0.710774,-1533.1,-9993.59,-1314.77,-3.61836,5.88302,1.69598,8870.47,555.906,4110.91,3.52615,-4.48109,1.31643
0.327,3517.89,-4016.63,8211.83,0.0145372,1.73245,-1.24247,4087.68,3673.82,7988.28,0.422637,-0.202123,0.829063,-552.01,9901.97,-772.271,-1.53075,2.09274,-5.67471,-1445.23,-9774.15,-19.9335,-1.57419,0.531069,4.00944,-2539.55,9410.98,-1480.39,0.932456,4.37001,0.386386,-1556.37,-9993.87,-1309.39,-3.50161,5.71504,1.61134,8858.39,552.55,4137.24,4.64764,-4.81551,0.9887
0.328,3510.55,-4016.78,8202.16,-0.0619257,1.69688,-1.20335,4101.86,3696.45,7986.9,0.420876,-0.25664,0.748608,-593.711,9888.42,-754.877,-1.60187,2.07396,-5.42542,-1458.03,-9786.55,-16.937,-1.6556,0.383961,3.84922,-2544.7,9387.47,-1462.84,0.751204,4.48547,0.0619969,-1579.63,-9994.14,-1304.01,-3.38487,5.54706,1.5267,8846.3,549.194,4163.57,5.76913,-5.14994,0.66097
0.329,3503.21,-4013.79,8193.69,-0.14465,1.66329,-1.16618,4116.35,3717.81,7983.6,0.40749,-0.305024,0.686175,-629.355,9876.04,-738.462,-1.65773,2.05548,-5.18401,-1471.67,-9800.53,-15.8111,-1.74177,0.24756,3.70094,-2547.57,9366.83,-1446.49,0.569661,4.59306,-0.253876,-1603.22,-9995.04,-1299.01,-3.29379,5.37554,1.43638,8837.19,552.201,4185.09,6.89441,-5.45282,0.30702
