Time,RFoot_accel.x,RFoot_accel.y,RFoot_accel.z,RFoot_gyro.x,RFoot_gyro.y,RFoot_gyro.z,LFoot_accel.x,LFoot_accel.y,LFoot_accel.z,LFoot_gyro.x,LFoot_gyro.y,LFoot_gyro.z,RShank_accel.x,RShank_accel.y,RShank_accel.z,RShank_gyro.x,RShank_gyro.y,RShank_gyro.z,LShank_accel.x,LShank_accel.y,LShank_accel.z,LShank_gyro.x,LShank_gyro.y,LShank_gyro.z,RThigh_accel.x,RThigh_accel.y,RThigh_accel.z,RThigh_gyro.x,RThigh_gyro.y,RThigh_gyro.z,LThigh_accel.x,LThigh_accel.y,LThigh_accel.z,LThigh_gyro.x,LThigh_gyro.y,LThigh_gyro.z,Pelvis_accel.x,Pelvis_accel.y,Pelvis_accel.z,Pelvis_gyro.x,Pelvis_gyro.y,Pelvis_gyro.z
0.0,3303.74,-3738.47,8376.86,2.17462,2.2937,-0.0194575,3908.89,3537.33,8127.5,1.62389,-1.26449,-0.888146,-947.466,9750.68,-468.678,-3.32152,4.00901,-2.96625,-1302.44,-9822.59,-579.422,-1.22037,-3.21376,-2.68483,-1046.28,9596.72,-728.084,-1.78902,5.11596,-5.79147,-461.662,-9814.25,-1910.66,-4.11406,-9.33305,2.0651,8695.25,377.006,4245.34,21.8577,0.0170062,-4.73219
0.001,3332.12,-3711.31,8386.79,2.11746,2.34517,0.00260217,3923.92,3528.39,8135.61,1.55073,-1.29778,-0.91977,-948.406,9748.68,-462.462,-3.23582,4.13407,-2.90369,-1292.93,-9809.0,-600.327,-1.17352,-3.28376,-2.61537,-1071.8,9600.52,-754.747,-1.79141,5.11821,-5.91389,-472.38,-9821.97,-1883.23,-4.12448,-9.31685,2.08594,8702.87,397.707,4251.58,21.8464,0.116709,-4.63002
0.002,3360.5,-3684.15,8396.73,2.0603,2.39664,0.0246618,3938.95,3519.46,8143.72,1.47756,-1.33107,-0.951394,-949.347,9746.67,-456.247,-3.15013,4.25913,-2.84112,-1283.43,-9795.4,-621.232,-1.12668,-3.35376,-2.54592,-1097.32,9604.31,-781.41,-1.7938,5.12047,-6.03632,-483.098,-9829.7,-1855.8,-4.1349,-9.30065,2.10678,8710.49,418.408,4257.82,21.835,0.216412,-4.52785
0.003,3388.88,-3656.99,8406.66,2.00315,2.44812,0.0467214,3953.98,3510.53,8151.83,1.40439,-1.36436,-0.983018,-950.288,9744.67,-450.031,-3.06443,4.38418,-2.77856,-1273.92,-9781.81,-642.137,-1.07983,-3.42376,-2.47647,-1122.85,9608.1,-808.073,-1.7962,5.12272,-6.15874,-493.817,-9837.42,-1828.36,-4.14532,-9.28445,2.12762,8718.11,439.108,4264.06,21.8236,0.316115,-4.42567
0.004,3417.26,-3629.83,8416.6,1.94599,2.49959,0.068781,3969.01,3501.59,8159.93,1.33122,-1.39765,-1.01464,-951.229,9742.67,-443.816,-2.97873,4.50924,-2.716,-1264.41,-9768.21,-663.042,-1.03298,-3.49376,-2.40701,-1148.37,9611.89,-834.736,-1.79859,5.12497,-6.28116,-504.535,-9845.14,-1800.93,-4.15574,-9.26825,2.14846,8725.74,459.809,4270.29,21.8123,0.415817,-4.3235
0.005,3429.1,-3617.14,8418.38,1.93978,2.47041,0.0724714,3967.15,3511.92,8157.77,1.25479,-1.45661,-1.04278,-962.428,9748.11,-434.46,-2.91284,4.56762,-2.66702,-1258.2,-9767.74,-661.051,-0.986733,-3.55523,-2.35566,-1174.63,9621.24,-826.21,-1.75724,5.17881,-6.28978,-520.008,-9851.1,-1782.29,-4.15744,-9.29338,2.13808,8733.33,462.354,4273.76,21.8268,0.398617,-4.18395
0.006,3427.7,-3616.03,8413.63,1.97433,2.37671,0.0614662,3951.78,3537.64,8147.39,1.17575,-1.5361,-1.06814,-981.833,9759.5,-422.591,-2.86279,4.57266,-2.6289,-1254.64,-9777.77,-640.743,-0.940972,-3.60987,-2.31878,-1201.49,9635.02,-789.533,-1.6809,5.27392,-6.20736,-539.285,-9855.66,-1770.69,-4.15216,-9.35158,2.10273,8740.9,450.374,4275.0,21.8619,0.287894,-4.0145
0.007,3426.3,-3614.92,8408.88,2.00887,2.28301,0.0504611,3936.42,3563.37,8137.01,1.09671,-1.61558,-1.0935,-1001.24,9770.9,-410.723,-2.81275,4.5777,-2.59079,-1251.07,-9787.79,-620.434,-0.895211,-3.66452,-2.2819,-1228.35,9648.8,-752.856,-1.60456,5.36904,-6.12493,-558.562,-9860.21,-1759.09,-4.14688,-9.40978,2.06739,8748.47,438.393,4276.24,21.8971,0.177171,-3.84506
0.008,3424.91,-3613.81,8404.13,2.04342,2.18931,0.039456,3921.05,3589.1,8126.63,1.01767,-1.69507,-1.11886,-1020.64,9782.3,-398.854,-2.7627,4.58273,-2.55267,-1247.51,-9797.82,-600.126,-0.849449,-3.71916,-2.24502,-1255.21,9662.59,-716.178,-1.52821,5.46415,-6.04251,-577.838,-9864.76,-1747.48,-4.14161,-9.46798,2.03204,8756.05,426.413,4277.48,21.9323,0.0664485,-3.67561
0.009,3423.31,-3612.95,8401.21,2.07556,2.1015,0.0341974,3909.22,3613.94,8116.0,0.943423,-1.75403,-1.13477,-1038.42,9792.15,-388.948,-2.71976,4.58152,-2.52294,-1243.49,-9805.9,-581.1,-0.807459,-3.76904,-2.20732,-1278.77,9674.08,-684.784,-1.47222,5.56337,-5.96854,-592.807,-9866.86,-1737.42,-4.13945,-9.52931,1.99918,8761.57,415.182,4277.25,21.9637,-0.0360944,-3.50817
0.01,3420.16,-3614.01,8412.86,2.08853,2.06079,0.0749108,3925.74,3631.71,8103.43,0.907504,-1.64876,-1.0751,-1043.2,9789.62,-394.739,-2.73366,4.53025,-2.56031,-1235.87,-9798.38,-572.334,-0.795629,-3.78087,-2.16315,-1275.91,9667.26,-695.646,-1.57904,5.69544,-5.96228,-573.309,-9849.35,-1739.71,-4.16222,-9.61561,1.9862,8750.68,409.94,4265.28,21.9651,-0.0731979,-3.35684
0.011,3417.01,-3615.08,8424.51,2.10151,2.02008,0.115624,3942.25,3649.48,8090.86,0.871585,-1.5435,-1.01544,-1047.97,9787.1,-400.529,-2.74755,4.47899,-2.59768,-1228.25,-9790.86,-563.567,-0.783799,-3.7927,-2.11898,-1273.06,9660.43,-706.508,-1.68587,5.8275,-5.95601,-553.811,-9831.83,-1742.0,-4.18499,-9.70192,1.97322,8739.8,404.699,4253.3,21.9664,-0.110301,-3.20551
0.012,3413.86,-3616.14,8436.16,2.11448,1.97936,0.156338,3958.76,3667.25,8078.28,0.835666,-1.43823,-0.955777,-1052.74,9784.58,-406.32,-2.76145,4.42772,-2.63505,-1220.63,-9783.34,-554.8,-0.771969,-3.80453,-2.07481,-1270.2,9653.61,-717.371,-1.79269,5.95957,-5.94974,-534.314,-9814.32,-1744.28,-4.20777,-9.78823,1.96025,8728.91,399.457,4241.33,21.9677,-0.147405,-3.05418
0.013,3410.7,-3617.21,8447.8,2.12745,1.93865,0.197051,3975.27,3685.02,8065.71,0.799746,-1.33297,-0.896114,-1057.52,9782.06,-412.11,-2.77534,4.37645,-2.67242,-1213.01,-9775.82,-546.033,-0.760139,-3.81636,-2.03064,-1267.35,9646.78,-728.233,-1.89951,6.09164,-5.94347,-514.816,-9796.81,-1746.57,-4.23054,-9.87453,1.94727,8718.03,394.216,4229.35,21.9691,-0.184508,-2.90284
0.014,3396.82,-3614.57,8451.12,2.0799,1.95845,0.174789,3980.68,3679.68,8064.32,0.804047,-1.22907,-0.813989,-1050.16,9777.94,-408.383,-2.72658,4.40232,-2.67444,-1203.28,-9775.87,-554.766,-0.791946,-3.79965,-1.98812,-1269.57,9634.13,-735.508,-1.90217,6.16335,-5.96511,-497.971,-9795.76,-1749.55,-4.27518,-9.8937,1.93065,8713.64,385.792,4223.52,21.987,-0.207437,-2.72761
0.015,3377.57,-3610.08,8450.27,2.00209,2.00852,0.121039,3980.53,3662.77,8068.52,0.828457,-1.12586,-0.720631,-1036.74,9773.03,-399.896,-2.64649,4.46675,-2.65877,-1192.48,-9779.7,-572.249,-0.84557,-3.76867,-1.94643,-1274.32,9618.56,-740.99,-1.85274,6.20487,-6.00071,-482.454,-9802.93,-1752.88,-4.33074,-9.8793,1.91222,8712.5,375.779,4220.76,22.0133,-0.223278,-2.54043
0.016,3358.31,-3605.59,8449.42,1.92428,2.05858,0.0672893,3980.38,3645.87,8072.72,0.852867,-1.02264,-0.627274,-1023.32,9768.11,-391.41,-2.56639,4.53118,-2.64311,-1181.68,-9783.54,-589.732,-0.899194,-3.73769,-1.90473,-1279.08,9603.0,-746.471,-1.80332,6.2464,-6.0363,-466.936,-9810.11,-1756.21,-4.3863,-9.86491,1.89378,8711.36,365.765,4218.01,22.0396,-0.23912,-2.35325
0.017,3339.06,-3601.1,8448.57,1.84647,2.10865,0.0135395,3980.24,3628.97,8076.92,0.877277,-0.919429,-0.533917,-1009.9,9763.2,-382.923,-2.4863,4.5956,-2.62744,-1170.89,-9787.37,-607.215,-0.952819,-3.7067,-1.86303,-1283.84,9587.43,-751.953,-1.75389,6.28793,-6.0719,-451.418,-9817.28,-1759.54,-4.44186,-9.85051,1.87534,8710.23,355.751,4215.25,22.0659,-0.254961,-2.16607
0.018,3324.89,-3596.39,8443.92,1.78139,2.12559,-0.0161481,3976.7,3617.54,8076.65,0.886339,-0.823908,-0.474736,-1000.56,9760.05,-373.29,-2.40426,4.6504,-2.61619,-1163.01,-9789.09,-619.514,-0.994373,-3.67016,-1.82796,-1285.22,9577.74,-753.026,-1.73523,6.3319,-6.11313,-441.413,-9824.16,-1762.74,-4.49937,-9.83245,1.86809,8711.17,349.863,4215.06,22.1447,-0.29053,-1.98037
0.019,3328.54,-3590.91,8425.98,1.76082,2.02657,0.0383819,3961.27,3625.3,8060.73,0.841679,-0.755312,-0.535171,-1005.51,9763.06,-359.641,-2.31539,4.67148,-2.62039,-1165.36,-9783.39,-613.669,-0.993681,-3.61416,-1.8161,-1274.78,9588.63,-738.667,-1.82425,6.38442,-6.17409,-450.699,-9830.01,-1765.49,-4.56368,-9.8016,1.90001,8719.41,358.417,4223.82,22.4075,-0.395146,-1.79987
0.02,3332.18,-3585.43,8408.03,1.74025,1.92755,0.0929119,3945.85,3633.06,8044.82,0.797019,-0.686715,-0.595607,-1010.46,9766.07,-345.992,-2.22653,4.69256,-2.6246,-1167.71,-9777.7,-607.824,-0.99299,-3.55816,-1.80424,-1264.34,9599.52,-724.308,-1.91326,6.43695,-6.23506,-459.985,-9835.86,-1768.23,-4.628,-9.77074,1.93194,8727.65,366.971,4232.59,22.6703,-0.499761,-1.61938
0.021,3335.82,-3579.95,8390.09,1.71968,1.82854,0.147442,3930.43,3640.82,8028.91,0.75236,-0.618119,-0.656043,-1015.41,9769.08,-332.344,-2.13767,4.71365,-2.6288,-1170.06,-9772.01,-601.979,-0.992298,-3.50216,-1.79238,-1253.91,9610.41,-709.95,-2.00228,6.48948,-6.29602,-469.272,-9841.71,-1770.98,-4.69231,-9.73989,1.96386,8735.88,375.525,4241.36,22.9331,-0.604377,-1.43888
0.022,3339.46,-3574.47,8372.15,1.69911,1.72952,0.201972,3915.0,3648.57,8013.0,0.7077,-0.549522,-0.716479,-1020.37,9772.09,-318.695,-2.04881,4.73473,-2.633,-1172.41,-9766.31,-596.133,-0.991606,-3.44616,-1.78051,-1243.47,9621.3,-695.591,-2.09129,6.542,-6.35698,-478.558,-9847.55,-1773.73,-4.75662,-9.70904,1.99578,8744.12,384.079,4250.13,23.1959,-0.708992,-1.25839
0.023,3354.05,-3581.23,8361.53,1.63909,1.59049,0.286496,3912.29,3646.73,8012.76,0.615127,-0.476463,-0.709487,-1020.59,9785.26,-323.677,-1.97759,4.70888,-2.6492,-1161.72,-9748.49,-586.267,-0.93438,-3.37569,-1.70304,-1236.02,9621.98,-692.458,-1.99079,6.63794,-6.36534,-467.892,-9847.88,-1777.73,-4.83186,-9.61209,2.00533,8746.02,402.684,4253.82,23.479,-0.704808,-1.09971
0.024,3371.77,-3591.5,8353.0,1.56781,1.44002,0.379589,3913.2,3642.14,8016.99,0.508864,-0.402128,-0.68323,-1019.45,9801.33,-333.982,-1.91141,4.66963,-2.66883,-1147.32,-9727.19,-575.252,-0.861002,-3.30109,-1.60682,-1229.43,9619.73,-692.532,-1.83613,6.74629,-6.35867,-451.525,-9846.62,-1782.09,-4.91022,-9.49627,2.00848,8746.11,424.161,4256.07,23.768,-0.669538,-0.947273
0.025,3389.5,-3601.76,8344.47,1.49652,1.28955,0.472683,3914.11,3637.55,8021.22,0.402601,-0.327793,-0.656973,-1018.32,9817.4,-344.287,-1.84524,4.63038,-2.68845,-1132.91,-9705.9,-564.237,-0.787624,-3.22648,-1.5106,-1222.84,9617.48,-692.606,-1.68148,6.85464,-6.352,-435.158,-9845.37,-1786.45,-4.98859,-9.38044,2.01164,8746.2,445.638,4258.33,24.0569,-0.634268,-0.794834
0.026,3407.22,-3612.03,8335.94,1.42524,1.13908,0.565776,3915.02,3632.96,8025.46,0.296339,-0.253458,-0.630716,-1017.19,9833.47,-354.591,-1.77906,4.59112,-2.70808,-1118.5,-9684.61,-553.221,-0.714245,-3.15188,-1.41439,-1216.25,9615.23,-692.68,-1.52682,6.96298,-6.34534,-418.79,-9844.11,-1790.81,-5.06695,-9.26462,2.0148,8746.29,467.115,4260.58,24.3458,-0.598998,-0.642395
0.027,3418.24,-3621.33,8338.45,1.38011,1.05743,0.636573,3915.42,3626.41,8029.83,0.208646,-0.19467,-0.573282,-1018.46,9842.45,-365.826,-1.70993,4.58068,-2.74245,-1107.21,-9669.54,-547.063,-0.678974,-3.05222,-1.31762,-1208.89,9615.32,-695.236,-1.38581,7.09192,-6.3126,-413.714,-9837.47,-1794.46,-5.10767,-9.15744,1.99999,8746.28,484.594,4259.92,24.5511,-0.56676,-0.518517
0.028,3415.86,-3628.71,8363.04,1.3873,1.11343,0.662776,3914.77,3615.94,8034.49,0.158095,-0.166974,-0.453491,-1024.55,9837.25,-378.92,-1.63489,4.62785,-2.80632,-1102.15,-9666.92,-550.618,-0.719916,-2.90245,-1.21976,-1199.98,9620.1,-702.759,-1.2721,7.26203,-6.22774,-431.218,-9820.05,-1796.68,-5.07309,-9.06757,1.94925,8746.07,494.08,4253.45,24.589,-0.540586,-0.451762
0.029,3413.48,-3636.09,8387.63,1.39449,1.16942,0.688979,3914.13,3605.46,8039.15,0.107544,-0.139279,-0.333701,-1030.64,9832.05,-392.013,-1.55984,4.67503,-2.8702,-1097.1,-9664.29,-554.173,-0.760858,-2.75268,-1.1219,-1191.08,9624.89,-710.281,-1.15839,7.43215,-6.14287,-448.723,-9802.64,-1798.91,-5.03851,-8.9777,1.8985,8745.87,503.565,4246.99,24.627,-0.514412,-0.385007
0.03,3411.1,-3643.46,8412.22,1.40168,1.22542,0.715182,3913.49,3594.98,8043.81,0.056993,-0.111583,-0.21391,-1036.73,9826.85,-405.107,-1.4848,4.7222,-2.93407,-1092.04,-9661.67,-557.728,-0.8018,-2.60291,-1.02404,-1182.18,9629.67,-717.804,-1.04467,7.60227,-6.05801,-466.227,-9785.22,-1801.13,-5.00393,-8.88783,1.84776,8745.66,513.05,4240.52,24.6649,-0.488238,-0.318252
0.031,3408.72,-3650.84,8436.81,1.40887,1.28141,0.741385,3912.84,3584.51,8048.46,0.00644178,-0.0838873,-0.0941201,-1042.81,9821.66,-418.201,-1.40976,4.76937,-2.99794,-1086.98,-9659.05,-561.283,-0.842742,-2.45314,-0.926174,-1173.27,9634.45,-725.326,-0.93096,7.77238,-5.97314,-483.732,-9767.8,-1803.36,-4.96935,-8.79796,1.79702,8745.45,522.536,4234.05,24.7029,-0.462064,-0.251497
0.032,3407.78,-3646.29,8443.79,1.36512,1.2771,0.748258,3925.49,3578.67,8044.78,-0.0425831,-0.0773326,-0.0942454,-1048.49,9802.83,-418.361,-1.34722,4.86863,-3.05374,-1085.15,-9663.79,-566.162,-0.843138,-2.26782,-0.831414,-1188.07,9616.02,-729.705,-0.826802,8.0334,-6.05665,-479.355,-9769.98,-1817.45,-4.91191,-8.78376,1.80764,8732.38,539.708,4229.7,24.6185,-0.438813,-0.198329
0.033,3407.01,-3640.25,8448.57,1.315,1.26525,0.752714,3939.8,3573.41,8040.05,-0.0914172,-0.0734205,-0.10936,-1054.12,9782.3,-416.904,-1.28624,4.97439,-3.10853,-1083.73,-9669.44,-571.207,-0.838465,-2.07807,-0.737042,-1205.82,9594.69,-733.691,-0.723839,8.30577,-6.16122,-472.243,-9774.6,-1833.03,-4.8516,-8.77901,1.82594,8717.7,557.84,4225.61,24.5189,-0.415927,-0.146859
0.034,3406.25,-3634.21,8453.34,1.26488,1.25341,0.757169,3954.11,3568.15,8035.32,-0.140251,-0.0695084,-0.124475,-1059.75,9761.76,-415.446,-1.22526,5.08015,-3.16332,-1082.3,-9675.1,-576.251,-0.833792,-1.88831,-0.64267,-1223.58,9573.36,-737.676,-0.620876,8.57815,-6.26578,-465.132,-9779.23,-1848.61,-4.79129,-8.77427,1.84423,8703.03,575.973,4221.52,24.4193,-0.393042,-0.0953884
0.035,3405.49,-3628.18,8458.12,1.21476,1.24156,0.761625,3968.42,3562.89,8030.59,-0.189085,-0.0655963,-0.13959,-1065.38,9741.23,-413.989,-1.16428,5.18591,-3.21811,-1080.88,-9680.76,-581.296,-0.829119,-1.69855,-0.548298,-1241.34,9552.02,-741.662,-0.517912,8.85052,-6.37034,-458.02,-9783.86,-1864.19,-4.73099,-8.76953,1.86252,8688.35,594.106,4217.43,24.3196,-0.370156,-0.0439183
0.036,3415.81,-3623.6,8458.54,1.15219,1.22253,0.728452,3969.07,3558.87,8030.25,-0.269188,-0.0558864,-0.152068,-1072.18,9730.78,-413.595,-1.098,5.22478,-3.22241,-1081.8,-9693.42,-591.432,-0.792299,-1.55897,-0.443037,-1264.05,9545.53,-747.889,-0.449829,9.16602,-6.44543,-456.244,-9791.04,-1876.47,-4.65391,-8.69374,1.83893,8679.71,607.096,4213.53,24.2159,-0.34944,0.0378583
0.037,3440.0,-3620.84,8453.53,1.07404,1.19452,0.648241,3952.63,3556.41,8035.4,-0.388378,-0.0389292,-0.161252,-1080.47,9732.91,-414.528,-1.0251,5.18005,-3.16359,-1085.67,-9714.85,-607.932,-0.715296,-1.48212,-0.324166,-1292.95,9557.57,-756.918,-0.425345,9.53544,-6.48367,-461.136,-9801.43,-1884.62,-4.55588,-8.52916,1.76299,8678.62,613.66,4209.88,24.1071,-0.331436,0.157518
0.038,3464.19,-3618.08,8448.52,0.995898,1.16652,0.568031,3936.19,3553.94,8040.54,-0.507567,-0.021972,-0.170436,-1088.75,9735.05,-415.462,-0.952194,5.13532,-3.10478,-1089.53,-9736.28,-624.431,-0.638292,-1.40526,-0.205295,-1321.86,9569.61,-765.947,-0.400862,9.90486,-6.52191,-466.029,-9811.83,-1892.76,-4.45785,-8.36457,1.68704,8677.53,620.224,4206.23,23.9984,-0.313432,0.277177
0.039,3488.38,-3615.32,8443.51,0.917752,1.13851,0.48782,3919.75,3551.47,8045.69,-0.626756,-0.00501474,-0.17962,-1097.03,9737.18,-416.395,-0.879292,5.09059,-3.04596,-1093.39,-9757.71,-640.931,-0.561288,-1.32841,-0.0864235,-1350.77,9581.66,-774.977,-0.376378,10.2743,-6.56015,-470.921,-9822.22,-1900.91,-4.35981,-8.19999,1.6111,8676.45,626.788,4202.58,23.8896,-0.295428,0.396837
0.04,3512.57,-3612.56,8438.5,0.839606,1.1105,0.407609,3903.31,3549.01,8050.83,-0.745945,0.0119425,-0.188804,-1105.31,9739.32,-417.329,-0.80639,5.04586,-2.98715,-1097.25,-9779.14,-657.431,-0.484284,-1.25156,0.0324478,-1379.68,9593.7,-784.006,-0.351894,10.6437,-6.59839,-475.813,-9832.61,-1909.06,-4.26178,-8.0354,1.53515,8675.36,633.352,4198.93,23.7808,-0.277424,0.516496
0.041,3486.07,-3611.68,8427.03,0.796942,0.984083,0.470855,3899.32,3560.68,8046.38,-0.771581,0.0916324,-0.056451,-1096.34,9758.93,-436.633,-0.820108,4.98635,-3.00838,-1100.07,-9796.93,-656.772,-0.393013,-1.12725,0.0453267,-1399.67,9613.97,-792.025,-0.311544,10.9465,-6.51085,-498.704,-9835.06,-1907.15,-4.16543,-7.8427,1.37713,8679.57,626.705,4208.19,23.6363,-0.275999,0.63233
0.042,3459.58,-3610.81,8415.57,0.754277,0.857665,0.534101,3895.33,3572.35,8041.92,-0.797216,0.171322,0.0759017,-1087.36,9778.55,-455.937,-0.833826,4.92683,-3.02961,-1102.88,-9814.73,-656.113,-0.301741,-1.00294,0.0582057,-1419.67,9634.25,-800.044,-0.271194,11.2492,-6.42331,-521.595,-9837.51,-1905.24,-4.06908,-7.64999,1.21912,8683.79,620.059,4217.45,23.4918,-0.274574,0.748165
0.043,3433.08,-3609.93,8404.1,0.711613,0.731247,0.597346,3891.34,3584.02,8037.46,-0.822852,0.251012,0.208254,-1078.38,9798.16,-475.242,-0.847544,4.86732,-3.05085,-1105.69,-9832.52,-655.454,-0.210469,-0.878631,0.0710846,-1439.67,9654.52,-808.063,-0.230844,11.552,-6.33576,-544.486,-9839.96,-1903.33,-3.97272,-7.45729,1.0611,8688.0,613.412,4226.71,23.3473,-0.27315,0.863999
0.044,3406.59,-3609.05,8392.63,0.668949,0.60483,0.660592,3887.35,3595.69,8033.01,-0.848487,0.330702,0.340607,-1069.41,9817.77,-494.546,-0.861263,4.8078,-3.07208,-1108.5,-9850.32,-654.794,-0.119198,-0.754323,0.0839635,-1459.66,9674.79,-816.082,-0.190494,11.8547,-6.24822,-567.377,-9842.41,-1901.42,-3.87637,-7.26458,0.903083,8692.22,606.766,4235.97,23.2029,-0.271725,0.979833
0.045,3400.23,-3613.05,8391.13,0.670325,0.566565,0.744428,3892.67,3596.02,8038.62,-0.927828,0.391679,0.422045,-1060.15,9825.7,-511.214,-0.890971,4.77363,-3.07061,-1104.87,-9851.22,-650.529,-0.0829037,-0.626185,0.132234,-1470.54,9680.0,-814.747,-0.139515,12.2144,-6.19211,-575.443,-9842.84,-1888.59,-3.82503,-7.07014,0.832011,8693.18,595.835,4245.61,23.0437,-0.263382,1.12863
0.046,3409.99,-3620.95,8397.59,0.706935,0.598823,0.844738,3905.44,3587.27,8052.28,-1.05013,0.437685,0.46275,-1050.65,9824.29,-525.773,-0.933471,4.75974,-3.05098,-1096.08,-9838.59,-643.379,-0.0905923,-0.494985,0.208818,-1474.11,9673.17,-805.927,-0.0800327,12.6195,-6.16113,-571.648,-9841.64,-1867.02,-3.8097,-6.8743,0.830494,8691.55,581.477,4255.57,22.8728,-0.249503,1.30379
0.047,3419.75,-3628.85,8404.06,0.743545,0.631081,0.945047,3918.21,3578.53,8065.94,-1.17244,0.48369,0.503456,-1041.16,9822.88,-540.331,-0.975971,4.74584,-3.03135,-1087.29,-9825.97,-636.228,-0.0982809,-0.363785,0.285402,-1477.68,9666.32,-797.108,-0.0205505,13.0246,-6.13016,-567.854,-9840.44,-1845.46,-3.79436,-6.67846,0.828977,8689.91,567.12,4265.52,22.7019,-0.235624,1.47896
0.048,3429.51,-3636.74,8410.53,0.780154,0.663338,1.04536,3930.98,3569.78,8079.6,-1.29474,0.529696,0.544162,-1031.67,9821.46,-554.89,-1.01847,4.73195,-3.01172,-1078.51,-9813.35,-629.078,-0.10597,-0.232584,0.361986,-1481.25,9659.48,-788.289,0.0389317,13.4297,-6.09919,-564.059,-9839.25,-1823.89,-3.77903,-6.48262,0.82746,8688.27,552.762,4275.47,22.531,-0.221745,1.65412
0.049,3437.91,-3644.93,8415.2,0.813362,0.694624,1.11964,3943.02,3563.06,8092.3,-1.40985,0.577464,0.577096,-1023.07,9818.27,-566.603,-1.0512,4.73026,-2.99213,-1072.17,-9801.93,-623.792,-0.115005,-0.103296,0.442827,-1483.8,9653.94,-782.687,0.0791769,13.8201,-6.07108,-559.68,-9834.84,-1805.84,-3.75817,-6.28649,0.829439,8687.96,539.831,4286.33,22.3621,-0.215817,1.8219
0.05,3435.5,-3655.42,8405.55,0.81936,0.718136,0.985749,3949.26,3572.53,8097.32,-1.46738,0.639334,0.547855,-1021.61,9800.85,-555.55,-1.00572,4.82626,-2.97287,-1085.47,-9800.13,-633.421,-0.134819,0.0106972,0.557724,-1478.16,9658.74,-802.827,-0.0344728,14.0921,-6.06588,-550.62,-9804.75,-1815.94,-3.69304,-6.08801,0.859383,8698.25,538.321,4304.43,22.2094,-0.273493,1.93064
0.051,3433.1,-3665.91,8395.9,0.825358,0.741648,0.851855,3955.49,3581.99,8102.34,-1.52491,0.701203,0.518614,-1020.15,9783.43,-544.498,-0.960249,4.92227,-2.9536,-1098.77,-9798.34,-643.051,-0.154632,0.12469,0.672621,-1472.53,9663.54,-822.966,-0.148123,14.3642,-6.06068,-541.56,-9774.67,-1826.03,-3.62791,-5.88952,0.889328,8708.54,536.81,4322.53,22.0568,-0.33117,2.03937
0.052,3430.69,-3676.4,8386.25,0.831356,0.765159,0.717961,3961.73,3591.45,8107.37,-1.58245,0.763073,0.489373,-1018.69,9766.0,-533.446,-0.914775,5.01827,-2.93433,-1112.06,-9796.54,-652.681,-0.174445,0.238683,0.787518,-1466.89,9668.34,-843.105,-0.261772,14.6362,-6.05549,-532.5,-9744.59,-1836.13,-3.56278,-5.69104,0.919273,8718.83,535.299,4340.64,21.9041,-0.388847,2.1481
0.053,3428.28,-3686.89,8376.61,0.837354,0.788671,0.584067,3967.97,3600.92,8112.39,-1.63998,0.824942,0.460132,-1017.22,9748.58,-522.394,-0.869302,5.11427,-2.91507,-1125.36,-9794.74,-662.311,-0.194258,0.352676,0.902415,-1461.26,9673.15,-863.245,-0.375422,14.9083,-6.05029,-523.44,-9714.5,-1846.23,-3.49766,-5.49256,0.949218,8729.12,533.788,4358.74,21.7514,-0.446523,2.25683
0.054,3426.3,-3697.4,8372.53,0.852512,0.784555,0.512443,3955.13,3612.88,8114.72,-1.72861,0.867788,0.44892,-1041.86,9737.73,-528.313,-0.810993,5.19223,-2.93034,-1135.49,-9796.95,-663.878,-0.189039,0.463474,1.0021,-1458.3,9665.63,-865.733,-0.402039,15.0611,-6.14021,-528.664,-9702.07,-1858.64,-3.44459,-5.39044,0.981844,8720.55,535.339,4356.65,21.6258,-0.52357,2.37793
0.055,3424.53,-3707.92,8371.23,0.872248,0.766625,0.471955,3932.75,3626.1,8115.71,-1.8328,0.901123,0.446722,-1079.55,9730.17,-542.717,-0.746266,5.26116,-2.96288,-1144.04,-9801.15,-661.414,-0.171304,0.572675,1.09418,-1456.69,9651.94,-859.395,-0.38514,15.1544,-6.2777,-541.03,-9698.46,-1872.19,-3.39754,-5.33651,1.01581,8702.57,538.42,4344.47,21.5136,-0.610301,2.50521
0.056,3422.76,-3718.45,8369.94,0.891985,0.748695,0.431467,3910.37,3639.32,8116.7,-1.93699,0.934458,0.444525,-1117.24,9722.61,-557.121,-0.68154,5.33009,-2.99543,-1152.59,-9805.35,-658.95,-0.153569,0.681875,1.18626,-1455.08,9638.26,-853.058,-0.368241,15.2476,-6.41519,-553.396,-9694.85,-1885.75,-3.3505,-5.28258,1.04978,8684.58,541.502,4332.28,21.4014,-0.697033,2.63249
0.057,3420.99,-3728.97,8368.65,0.911722,0.730765,0.390978,3887.99,3652.54,8117.69,-2.04118,0.967792,0.442327,-1154.94,9715.05,-571.525,-0.616813,5.39903,-3.02797,-1161.13,-9809.55,-656.485,-0.135834,0.791076,1.27834,-1453.46,9624.58,-846.72,-0.351342,15.3409,-6.55268,-565.762,-9691.24,-1899.31,-3.30346,-5.22865,1.08375,8666.59,544.583,4320.1,21.2893,-0.783764,2.75977
0.058,3421.5,-3731.02,8369.14,0.909392,0.702687,0.377343,3870.36,3660.73,8118.45,-2.12716,1.00206,0.451472,-1182.45,9714.47,-583.632,-0.562555,5.46093,-3.04779,-1168.69,-9814.94,-653.683,-0.110898,0.882882,1.35502,-1451.85,9608.43,-842.056,-0.305738,15.4277,-6.66234,-579.74,-9689.96,-1903.96,-3.26976,-5.18217,1.10129,8654.53,547.98,4305.78,21.178,-0.879475,2.89586
0.059,3429.99,-3703.44,8375.88,0.829827,0.639091,0.45769,3869.33,3651.32,8118.39,-2.14939,1.03958,0.500311,-1174.36,9738.36,-587.698,-0.544935,5.49821,-3.02304,-1172.81,-9824.52,-649.698,-0.0607608,0.913808,1.3778,-1450.23,9583.62,-843.247,-0.159668,15.4919,-6.67461,-599.36,-9696.86,-1877.47,-3.28278,-5.16177,1.06137,8663.19,552.481,4283.99,21.07,-1.00662,3.0628
0.06,3438.48,-3675.86,8382.61,0.750262,0.575496,0.538038,3868.3,3641.91,8118.33,-2.17162,1.07711,0.54915,-1166.27,9762.25,-591.764,-0.527315,5.5355,-2.99829,-1176.92,-9834.09,-645.713,-0.0106234,0.944734,1.40059,-1448.61,9558.8,-844.438,-0.0135986,15.5561,-6.68688,-618.981,-9703.76,-1850.97,-3.2958,-5.14137,1.02144,8671.86,556.982,4262.2,20.962,-1.13376,3.22973
0.061,3446.97,-3648.28,8389.34,0.670697,0.5119,0.618386,3867.27,3632.51,8118.28,-2.19385,1.11463,0.597989,-1158.17,9786.13,-595.83,-0.509695,5.57278,-2.97354,-1181.04,-9843.66,-641.728,0.0395141,0.97566,1.42337,-1446.99,9533.99,-845.629,0.132471,15.6204,-6.69915,-638.602,-9710.66,-1824.47,-3.30881,-5.12097,0.981516,8680.53,561.483,4240.41,20.8539,-1.2609,3.39667
0.062,3455.46,-3620.7,8396.08,0.591132,0.448305,0.698733,3866.25,3623.1,8118.22,-2.21608,1.15215,0.646829,-1150.08,9810.02,-599.896,-0.492076,5.61006,-2.94879,-1185.15,-9853.23,-637.743,0.0896516,1.00659,1.44616,-1445.37,9509.18,-846.82,0.278541,15.6846,-6.71142,-658.223,-9717.56,-1797.97,-3.32183,-5.10057,0.94159,8689.19,565.984,4218.62,20.7459,-1.38804,3.56361
0.063,3457.62,-3622.32,8389.49,0.54689,0.442059,0.717766,3869.31,3618.64,8116.12,-2.24482,1.13098,0.739144,-1145.71,9802.06,-587.531,-0.413047,5.63575,-2.85499,-1195.46,-9851.92,-622.117,0.152703,1.01093,1.47641,-1461.64,9508.27,-845.361,0.369143,15.6765,-6.88165,-674.682,-9719.54,-1805.83,-3.37857,-5.14696,0.943167,8699.88,567.431,4214.15,20.6836,-1.44784,3.70865
0.064,3457.97,-3632.29,8379.09,0.51274,0.452198,0.719279,3873.55,3615.59,8113.44,-2.27542,1.09303,0.843882,-1142.41,9784.99,-570.471,-0.316472,5.65812,-2.74146,-1207.55,-9847.49,-603.165,0.219445,1.00768,1.50879,-1483.01,9514.18,-843.146,0.443897,15.6477,-7.097,-690.237,-9720.11,-1823.5,-3.44779,-5.21242,0.956602,8711.15,568.006,4214.64,20.6342,-1.48841,3.84744
0.065,3458.32,-3642.27,8368.69,0.478591,0.462337,0.720793,3877.79,3612.54,8110.75,-2.30603,1.05509,0.94862,-1139.1,9767.93,-553.411,-0.219898,5.68049,-2.62794,-1219.63,-9843.06,-584.213,0.286186,1.00443,1.54117,-1504.38,9520.09,-840.931,0.518651,15.6189,-7.31236,-705.793,-9720.68,-1841.18,-3.51702,-5.27789,0.970036,8722.42,568.581,4215.13,20.5849,-1.52897,3.98623
0.066,3458.67,-3652.24,8358.29,0.444441,0.472476,0.722306,3882.03,3609.49,8108.07,-2.33663,1.01714,1.05336,-1135.8,9750.86,-536.351,-0.123324,5.70287,-2.51441,-1231.71,-9838.64,-565.26,0.352928,1.00117,1.57355,-1525.76,9526.0,-838.716,0.593405,15.5901,-7.52772,-721.348,-9721.25,-1858.85,-3.58624,-5.34336,0.983471,8733.69,569.156,4215.61,20.5356,-1.56953,4.12502
0.067,3461.16,-3660.18,8358.78,0.441202,0.486915,0.732791,3882.47,3605.11,8103.83,-2.35078,1.00976,1.1335,-1138.88,9738.37,-523.468,-0.058466,5.67984,-2.4317,-1245.66,-9833.84,-548.887,0.398297,0.95876,1.58585,-1537.64,9534.67,-836.342,0.660829,15.5314,-7.66136,-728.735,-9719.34,-1861.52,-3.62861,-5.41591,0.971244,8739.95,566.158,4217.16,20.4486,-1.57415,4.22392
0.068,3467.94,-3664.07,8381.05,0.499783,0.509954,0.761218,3875.31,3598.08,8096.48,-2.33203,1.06351,1.16446,-1154.73,9735.03,-518.938,-0.0570408,5.56603,-2.41062,-1263.33,-9828.33,-537.673,0.400924,0.838024,1.55801,-1530.56,9548.86,-833.652,0.713594,15.4129,-7.63156,-719.786,-9712.47,-1834.17,-3.61725,-5.50262,0.907693,8736.18,556.017,4220.85,20.2862,-1.50687,4.24303
0.069,3474.73,-3667.95,8403.31,0.558365,0.532993,0.789644,3868.15,3591.04,8089.13,-2.31327,1.11725,1.19542,-1170.58,9731.69,-514.409,-0.0556155,5.45222,-2.38955,-1280.99,-9822.81,-526.458,0.403551,0.717289,1.53016,-1523.47,9563.05,-830.962,0.766359,15.2944,-7.60175,-710.836,-9705.6,-1806.83,-3.6059,-5.58934,0.844142,8732.42,545.876,4224.54,20.1237,-1.43958,4.26214
0.07,3481.51,-3671.84,8425.58,0.616946,0.556032,0.818071,3861.0,3584.01,8081.78,-2.29452,1.171,1.22638,-1186.43,9728.34,-509.879,-0.0541902,5.3384,-2.36848,-1298.66,-9817.3,-515.243,0.406177,0.596554,1.50231,-1516.38,9577.25,-828.272,0.819124,15.1759,-7.57195,-701.887,-9698.73,-1779.48,-3.59454,-5.67605,0.780591,8728.65,535.735,4228.22,19.9613,-1.3723,4.28125
0.071,3488.29,-3675.73,8447.85,0.675528,0.579071,0.846497,3853.84,3576.98,8074.43,-2.27577,1.22475,1.25734,-1202.28,9725.0,-505.35,-0.0527649,5.22459,-2.3474,-1316.33,-9811.78,-504.028,0.408804,0.475818,1.47446,-1509.3,9591.44,-825.583,0.871888,15.0575,-7.54215,-692.938,-9691.86,-1752.14,-3.58318,-5.76276,0.717039,8724.89,525.593,4231.91,19.7989,-1.30502,4.30037
0.072,3485.94,-3662.22,8452.85,0.650214,0.638534,0.92872,3851.22,3582.78,8071.54,-2.18877,1.19575,1.27896,-1209.09,9726.93,-489.364,-0.0398524,5.10812,-2.28096,-1316.39,-9810.9,-504.061,0.400501,0.430972,1.5026,-1523.28,9586.33,-818.42,0.858179,14.9427,-7.47732,-719.141,-9727.32,-1747.45,-3.64934,-5.97943,0.661533,8728.72,531.05,4224.3,19.647,-1.28537,4.35365
0.073,3482.45,-3646.54,8455.7,0.614412,0.70255,1.01767,3849.17,3590.19,8069.21,-2.09325,1.15641,1.29942,-1214.78,9729.52,-471.945,-0.025504,4.99132,-2.20885,-1314.25,-9810.6,-505.499,0.390831,0.395611,1.53774,-1539.9,9578.8,-810.698,0.836159,14.8283,-7.40811,-749.74,-9768.06,-1745.6,-3.72519,-6.21235,0.607032,8733.5,538.457,4215.28,19.4963,-1.27168,4.41121
0.074,3478.96,-3630.86,8458.54,0.578611,0.766566,1.10661,3847.12,3597.6,8066.88,-1.99773,1.11708,1.31988,-1220.47,9732.1,-454.527,-0.0111556,4.87452,-2.13674,-1312.11,-9810.3,-506.937,0.381162,0.360251,1.57288,-1556.52,9571.28,-802.976,0.81414,14.714,-7.3389,-780.338,-9808.8,-1743.75,-3.80104,-6.44526,0.552531,8738.27,545.864,4206.26,19.3457,-1.25799,4.46876
0.075,3475.46,-3615.18,8461.39,0.54281,0.830583,1.19556,3845.08,3605.01,8064.54,-1.90221,1.07774,1.34034,-1226.16,9734.69,-437.109,0.00319279,4.75772,-2.06463,-1309.97,-9810.0,-508.376,0.371492,0.324891,1.60802,-1573.13,9563.76,-795.254,0.792121,14.5997,-7.26969,-810.936,-9849.55,-1741.9,-3.87688,-6.67818,0.49803,8743.05,553.271,4197.24,19.1951,-1.2443,4.52632
0.076,3468.07,-3604.82,8457.67,0.462667,0.851297,1.2461,3845.74,3611.39,8063.25,-1.86148,1.0471,1.34468,-1223.07,9734.58,-427.621,0.0477485,4.63154,-1.99322,-1311.32,-9817.41,-514.428,0.408045,0.261023,1.58305,-1589.41,9558.17,-797.429,0.837107,14.477,-7.21172,-835.694,-9873.82,-1745.82,-3.94431,-6.86839,0.454051,8741.69,555.299,4193.61,19.1766,-1.30408,4.60201
0.077,3455.81,-3601.1,8445.75,0.327096,0.817882,1.24863,3849.79,3616.48,8063.26,-1.88925,1.02735,1.32887,-1209.02,9731.1,-428.045,0.130063,4.49364,-1.92268,-1317.02,-9834.46,-526.248,0.502377,0.161522,1.48294,-1605.27,9555.01,-811.975,0.965849,14.3441,-7.16779,-853.153,-9877.5,-1756.96,-4.00121,-7.00522,0.423223,8732.65,550.604,4196.72,19.3234,-1.4557,4.70038
0.078,3443.54,-3597.38,8433.83,0.191525,0.784468,1.25116,3853.84,3621.58,8063.28,-1.91703,1.0076,1.31305,-1194.96,9727.62,-428.47,0.212378,4.35575,-1.85214,-1322.73,-9851.51,-538.068,0.596709,0.0620201,1.38284,-1621.13,9551.84,-826.52,1.09459,14.2111,-7.12387,-870.612,-9881.18,-1768.1,-4.05812,-7.14205,0.392396,8723.61,545.908,4199.82,19.4701,-1.60732,4.79875
0.079,3431.28,-3593.67,8421.91,0.0559546,0.751053,1.25368,3857.89,3626.68,8063.29,-1.9448,0.987852,1.29724,-1180.91,9724.14,-428.894,0.294693,4.21785,-1.7816,-1328.43,-9868.56,-549.889,0.691041,-0.0374813,1.28273,-1636.98,9548.68,-841.066,1.22333,14.0782,-7.07995,-888.071,-9884.86,-1779.24,-4.11502,-7.27888,0.361569,8714.57,541.213,4202.92,19.6169,-1.75894,4.89712
0.08,3419.02,-3589.95,8409.99,-0.0796162,0.717639,1.25621,3861.94,3631.78,8063.3,-1.97257,0.968101,1.28142,-1166.86,9720.65,-429.319,0.377008,4.07995,-1.71106,-1334.14,-9885.61,-561.709,0.785372,-0.136983,1.18263,-1652.84,9545.51,-855.612,1.35208,13.9452,-7.03603,-905.531,-9888.54,-1790.38,-4.17192,-7.41572,0.330741,8705.53,536.518,4206.02,19.7636,-1.91056,4.99549
0.081,3398.85,-3588.34,8387.59,-0.132453,0.722533,1.28304,3883.94,3618.81,8076.88,-2.10499,1.02003,1.27536,-1178.01,9712.24,-430.222,0.329755,3.98903,-1.72773,-1349.52,-9886.09,-583.516,0.838038,-0.27586,1.16129,-1635.06,9541.44,-866.949,1.30797,13.9582,-6.96765,-916.205,-9883.68,-1800.42,-4.11454,-7.55698,0.258935,8701.14,530.005,4213.83,19.9423,-1.99767,5.11475
0.082,3378.69,-3586.74,8365.19,-0.185289,0.727426,1.30986,3905.95,3605.83,8090.47,-2.23741,1.07196,1.2693,-1189.17,9703.83,-431.125,0.282502,3.89812,-1.74441,-1364.9,-9886.57,-605.324,0.890704,-0.414738,1.13995,-1617.28,9537.37,-878.285,1.26387,13.9711,-6.89926,-926.879,-9878.83,-1810.45,-4.05715,-7.69824,0.187129,8696.74,523.492,4221.63,20.1209,-2.08478,5.23401
0.083,3358.53,-3585.13,8342.79,-0.238125,0.73232,1.33668,3927.95,3592.86,8104.05,-2.36983,1.12389,1.26324,-1200.32,9695.42,-432.028,0.235249,3.8072,-1.76109,-1380.28,-9887.04,-627.131,0.943369,-0.553616,1.11861,-1599.5,9533.3,-889.622,1.21977,13.9841,-6.83087,-937.553,-9873.97,-1820.49,-3.99977,-7.8395,0.115323,8692.35,516.979,4229.44,20.2995,-2.1719,5.35327
0.084,3338.37,-3583.52,8320.38,-0.290962,0.737214,1.36351,3949.96,3579.89,8117.63,-2.50225,1.17582,1.25719,-1211.48,9687.0,-432.931,0.187995,3.71628,-1.77777,-1395.66,-9887.52,-648.938,0.996035,-0.692493,1.09727,-1581.73,9529.22,-900.959,1.17567,13.997,-6.76249,-948.227,-9869.12,-1830.53,-3.94239,-7.98076,0.0435167,8687.95,510.465,4237.24,20.4781,-2.25901,5.47253
0.085,3334.0,-3577.54,8311.31,-0.262638,0.715058,1.42497,3958.75,3579.62,8122.04,-2.55828,1.23133,1.22278,-1219.86,9679.64,-425.718,0.206195,3.6431,-1.75589,-1405.82,-9890.32,-644.235,0.971821,-0.82421,1.08566,-1575.39,9526.42,-913.125,1.1742,13.9462,-6.67261,-969.251,-9871.47,-1837.52,-3.94503,-8.085,-0.0160873,8683.83,515.147,4247.52,20.6523,-2.30544,5.56199
0.086,3342.26,-3568.07,8312.91,-0.169386,0.671262,1.51416,3956.99,3589.52,8119.1,-2.55319,1.28971,1.16569,-1226.03,9673.12,-412.013,0.276758,3.58411,-1.70318,-1411.81,-9894.99,-618.322,0.886103,-0.950199,1.08182,-1578.22,9524.64,-925.956,1.20685,13.8443,-6.56555,-998.554,-9879.59,-1842.07,-3.99569,-8.15963,-0.0659297,8679.92,528.783,4259.77,20.8229,-2.31931,5.62761
0.087,3350.53,-3558.6,8314.5,-0.0761333,0.627467,1.60334,3955.22,3599.42,8116.16,-2.54811,1.34809,1.10861,-1232.2,9666.6,-398.308,0.347321,3.52512,-1.65046,-1417.8,-9899.65,-592.409,0.800386,-1.07619,1.07799,-1581.05,9522.86,-938.787,1.23949,13.7425,-6.45849,-1027.86,-9887.72,-1846.62,-4.04636,-8.23425,-0.115772,8676.01,542.42,4272.02,20.9936,-2.33319,5.69323
0.088,3358.79,-3549.13,8316.1,0.017119,0.583671,1.69252,3953.45,3609.32,8113.22,-2.54303,1.40647,1.05152,-1238.37,9660.08,-384.603,0.417883,3.46613,-1.59774,-1423.79,-9904.32,-566.497,0.714668,-1.20218,1.07415,-1583.87,9521.07,-951.617,1.27214,13.6406,-6.35143,-1057.16,-9895.84,-1851.17,-4.09702,-8.30888,-0.165614,8672.1,556.057,4284.27,21.1642,-2.34707,5.75885
0.089,3367.91,-3544.02,8320.24,0.107852,0.538746,1.7792,3950.06,3617.65,8110.48,-2.53054,1.45795,0.996863,-1241.28,9654.51,-373.084,0.480293,3.39687,-1.55108,-1427.75,-9905.13,-544.855,0.655198,-1.32703,1.06991,-1584.39,9519.4,-964.407,1.30016,13.5413,-6.27324,-1081.33,-9899.83,-1855.88,-4.1337,-8.37383,-0.19315,8667.37,569.829,4295.52,21.3241,-2.36612,5.82749
0.09,3383.85,-3573.81,8344.77,0.178428,0.484784,1.84581,3933.66,3613.5,8109.4,-2.45879,1.45417,0.961623,-1218.12,9656.59,-379.051,0.477484,3.24538,-1.55296,-1415.48,-9875.13,-557.382,0.805713,-1.44277,1.06239,-1566.45,9518.65,-976.87,1.29124,13.4628,-6.42605,-1064.45,-9870.72,-1861.82,-4.05844,-8.36142,-0.0422353,8656.1,584.687,4298.73,21.3975,-2.42647,5.92032
0.091,3399.8,-3603.61,8369.29,0.249005,0.430823,1.91243,3917.27,3609.35,8108.32,-2.38704,1.45038,0.926382,-1194.96,9658.66,-385.018,0.474674,3.09389,-1.55483,-1403.21,-9845.13,-569.909,0.956228,-1.55852,1.05488,-1548.52,9517.89,-989.334,1.28232,13.3843,-6.57886,-1047.57,-9841.62,-1867.75,-3.98318,-8.34902,0.10868,8644.83,599.544,4301.93,21.471,-2.48683,6.01315
0.092,3415.74,-3633.41,8393.81,0.319582,0.376861,1.97904,3900.87,3605.2,8107.23,-2.3153,1.4466,0.891142,-1171.8,9660.73,-390.984,0.471865,2.9424,-1.5567,-1390.94,-9815.13,-582.436,1.10674,-1.67427,1.04736,-1530.58,9517.13,-1001.8,1.27339,13.3058,-6.73167,-1030.69,-9812.51,-1873.69,-3.90793,-8.33661,0.259595,8633.56,614.402,4305.14,21.5444,-2.54719,6.10597
0.093,3431.69,-3663.21,8418.33,0.390159,0.3229,2.04565,3884.47,3601.05,8106.15,-2.24355,1.44282,0.855901,-1148.64,9662.81,-396.951,0.469056,2.79091,-1.55858,-1378.68,-9785.13,-594.964,1.25726,-1.79002,1.03985,-1512.64,9516.38,-1014.26,1.26447,13.2273,-6.88449,-1013.81,-9783.41,-1879.63,-3.83267,-8.3242,0.41051,8622.29,629.26,4308.34,21.6179,-2.60754,6.1988
0.094,3447.09,-3678.89,8427.13,0.388244,0.354865,2.03644,3879.23,3594.68,8117.43,-2.22595,1.41814,0.889633,-1121.13,9675.47,-422.95,0.476402,2.83643,-1.54165,-1362.87,-9778.1,-598.749,1.29324,-1.88224,0.988293,-1514.38,9519.02,-1011.42,1.22147,13.1302,-6.95668,-997.102,-9772.32,-1884.16,-3.76414,-8.27856,0.437263,8619.2,638.246,4302.79,21.6705,-2.65799,6.31302
0.095,3462.21,-3687.52,8428.06,0.350083,0.429794,1.98931,3879.58,3587.2,8134.9,-2.23543,1.38301,0.957852,-1091.45,9693.42,-458.966,0.488827,2.98046,-1.51533,-1345.29,-9782.54,-598.163,1.27195,-1.9627,0.914722,-1525.97,9523.36,-1000.92,1.16144,13.0236,-6.98856,-980.482,-9770.23,-1888.0,-3.69897,-8.21631,0.401935,8620.22,644.297,4292.85,21.7128,-2.70348,6.43793
0.096,3477.34,-3696.14,8428.99,0.311922,0.504723,1.94218,3879.92,3579.72,8152.36,-2.2449,1.34788,1.02607,-1061.77,9711.37,-494.982,0.501252,3.12449,-1.48901,-1327.72,-9786.99,-597.577,1.25067,-2.04316,0.841151,-1537.55,9527.71,-990.425,1.1014,12.9171,-7.02045,-963.862,-9768.15,-1891.83,-3.63381,-8.15406,0.366607,8621.23,650.348,4282.91,21.755,-2.74898,6.56284
0.097,3492.46,-3704.77,8429.92,0.273761,0.579652,1.89506,3880.26,3572.24,8169.83,-2.25438,1.31275,1.09429,-1032.08,9729.32,-530.998,0.513677,3.26852,-1.46269,-1310.14,-9791.44,-596.992,1.22938,-2.12362,0.767581,-1549.13,9532.05,-979.929,1.04137,12.8105,-7.05233,-947.242,-9766.06,-1895.67,-3.56864,-8.09181,0.331279,8622.24,656.399,4272.98,21.7972,-2.79447,6.68775
0.098,3504.51,-3708.37,8427.15,0.256842,0.636758,1.84317,3880.0,3563.76,8182.48,-2.26576,1.28073,1.16436,-1009.35,9744.48,-558.304,0.531958,3.38176,-1.45738,-1296.51,-9792.01,-595.543,1.20471,-2.18498,0.70056,-1558.8,9534.48,-972.093,0.987787,12.6813,-7.07427,-932.386,-9763.21,-1900.4,-3.51079,-8.01242,0.311172,8626.4,660.158,4264.01,21.8125,-2.81897,6.81905
0.099,3505.77,-3694.4,8411.41,0.314272,0.631486,1.77465,3877.62,3551.83,8178.28,-2.28378,1.25956,1.24091,-1010.95,9749.91,-555.128,0.570739,3.38722,-1.52558,-1296.7,-9779.05,-591.072,1.16817,-2.17952,0.656466,-1561.79,9530.2,-973.566,0.956806,12.4727,-7.06142,-923.701,-9757.69,-1908.24,-3.47852,-7.87306,0.34434,8641.55,655.896,4258.47,21.7337,-2.76997,6.97275
0.1,3507.03,-3680.42,8395.67,0.371703,0.626214,1.70613,3875.24,3539.9,8174.08,-2.30181,1.2384,1.31747,-1012.56,9755.33,-551.952,0.60952,3.39268,-1.59378,-1296.89,-9766.09,-586.601,1.13164,-2.17406,0.612371,-1564.78,9525.92,-975.04,0.925824,12.2641,-7.04856,-915.016,-9752.17,-1916.08,-3.44626,-7.7337,0.377507,8656.7,651.635,4252.93,21.6549,-2.72097,7.12644
0.101,3508.29,-3666.45,8379.93,0.429133,0.620942,1.63761,3872.87,3527.97,8169.87,-2.31984,1.21724,1.39403,-1014.16,9760.76,-548.776,0.648301,3.39814,-1.66198,-1297.07,-9753.12,-582.13,1.09511,-2.1686,0.568277,-1567.77,9521.64,-976.514,0.894842,12.0555,-7.03571,-906.332,-9746.65,-1923.92,-3.414,-7.59434,0.410675,8671.86,647.373,4247.39,21.5761,-2.67197,7.28014
0.102,3509.55,-3652.47,8364.19,0.486563,0.61567,1.56909,3870.49,3516.03,8165.67,-2.33787,1.19607,1.47058,-1015.76,9766.18,-545.6,0.687082,3.40361,-1.73018,-1297.26,-9740.16,-577.66,1.05857,-2.16314,0.524182,-1570.75,9517.36,-977.988,0.86386,11.8468,-7.02285,-897.647,-9741.13,-1931.76,-3.38174,-7.45497,0.443842,8687.01,643.112,4241.85,21.4973,-2.62298,7.43383
0.103,3492.5,-3659.69,8351.17,0.479735,0.653803,1.56972,3870.1,3511.57,8146.85,-2.35952,1.21163,1.44834,-1022.39,9755.98,-550.042,0.710771,3.48306,-1.76894,-1282.02,-9772.61,-588.444,1.06534,-2.14015,0.484015,-1557.94,9503.04,-980.831,0.896883,11.7138,-7.03708,-881.852,-9771.45,-1935.24,-3.37134,-7.36948,0.503616,8689.31,636.235,4228.22,21.44,-2.63068,7.61268
0.104,3470.21,-3672.97,8338.94,0.454548,0.704337,1.59012,3870.28,3509.24,8123.86,-2.38221,1.23769,1.39788,-1030.45,9741.31,-556.66,0.730148,3.58365,-1.79928,-1262.37,-9818.03,-603.587,1.08449,-2.11215,0.444968,-1540.62,9485.86,-984.066,0.948192,11.6025,-7.05904,-864.025,-9812.03,-1937.47,-3.36718,-7.29936,0.570991,8687.95,628.611,4212.28,21.3889,-2.65459,7.79871
0.105,3447.92,-3686.24,8326.71,0.429361,0.75487,1.61051,3870.45,3506.9,8100.87,-2.40489,1.26374,1.34741,-1038.51,9726.65,-563.279,0.749525,3.68424,-1.82961,-1242.72,-9863.46,-618.731,1.10364,-2.08415,0.405922,-1523.3,9468.68,-987.302,0.999502,11.4911,-7.081,-846.198,-9852.6,-1939.7,-3.36303,-7.22925,0.638367,8686.58,620.987,4196.34,21.3378,-2.6785,7.98475
0.106,3425.63,-3699.52,8314.47,0.404173,0.805404,1.63091,3870.63,3504.57,8077.88,-2.42758,1.28979,1.29695,-1046.58,9711.98,-569.898,0.768902,3.78483,-1.85995,-1223.07,-9908.88,-633.874,1.12278,-2.05616,0.366876,-1505.98,9451.49,-990.537,1.05081,11.3797,-7.10296,-828.371,-9893.17,-1941.94,-3.35887,-7.15914,0.705742,8685.22,613.363,4180.4,21.2867,-2.70241,8.17078
0.107,3410.78,-3710.03,8310.23,0.395963,0.85645,1.62709,3873.48,3507.85,8065.07,-2.44476,1.31671,1.2236,-1047.98,9699.87,-578.308,0.805321,3.89067,-1.88859,-1215.09,-9925.77,-639.015,1.16375,-2.02439,0.334392,-1491.66,9440.61,-987.067,1.09308,11.3509,-7.0913,-819.969,-9914.96,-1942.85,-3.30821,-7.04998,0.721924,8676.38,616.867,4170.53,21.248,-2.74808,8.30351
0.108,3410.79,-3715.02,8321.96,0.421707,0.908519,1.57485,3881.67,3522.34,8072.62,-2.4509,1.34533,1.1045,-1036.07,9692.88,-590.303,0.875827,4.00698,-1.9138,-1230.47,-9885.57,-624.151,1.24833,-1.98507,0.315032,-1483.35,9442.31,-970.187,1.11725,11.4869,-7.01241,-830.415,-9899.17,-1941.12,-3.16452,-6.8627,0.63572,8652.61,642.627,4172.82,21.2342,-2.83726,8.32963
0.109,3410.8,-3720.01,8333.69,0.44745,0.960589,1.52262,3889.85,3536.83,8080.17,-2.45705,1.37396,0.985394,-1024.16,9685.9,-602.298,0.946332,4.1233,-1.93902,-1245.85,-9845.37,-609.286,1.33292,-1.94575,0.295671,-1475.05,9444.01,-953.307,1.14142,11.623,-6.93351,-840.862,-9883.39,-1939.39,-3.02084,-6.67543,0.549515,8628.83,668.386,4175.1,21.2203,-2.92644,8.35575
0.11,3410.82,-3725.0,8345.43,0.473194,1.01266,1.47038,3898.04,3551.32,8087.72,-2.4632,1.40259,0.866289,-1012.24,9678.91,-614.293,1.01684,4.23962,-1.96424,-1261.22,-9805.17,-594.422,1.4175,-1.90644,0.27631,-1466.74,9445.72,-936.428,1.1656,11.7591,-6.85462,-851.309,-9867.61,-1937.66,-2.87715,-6.48815,0.46331,8605.05,694.146,4177.39,21.2064,-3.01562,8.38187
0.111,3410.83,-3729.99,8357.16,0.498938,1.06473,1.41814,3906.23,3565.82,8095.28,-2.46934,1.43122,0.747184,-1000.33,9671.92,-626.288,1.08734,4.35593,-1.98946,-1276.6,-9764.97,-579.558,1.50209,-1.86712,0.25695,-1458.43,9447.42,-919.548,1.18977,11.8952,-6.77572,-861.756,-9851.83,-1935.93,-2.73347,-6.30088,0.377106,8581.28,719.905,4179.67,21.1925,-3.1048,8.40799
0.112,3405.37,-3741.51,8370.87,0.621111,1.06378,1.3798,3924.46,3566.46,8097.24,-2.53756,1.44045,0.758174,-1006.1,9683.29,-626.263,1.01611,4.38598,-2.09866,-1281.37,-9751.39,-557.401,1.4647,-1.83573,0.242355,-1465.8,9457.07,-939.106,1.20237,12.0114,-6.64018,-852.781,-9876.76,-1934.65,-2.63405,-5.98699,0.171668,8572.81,707.182,4187.07,21.2054,-3.13858,8.37388
0.113,3399.22,-3753.84,8384.83,0.755337,1.0562,1.34319,3943.95,3565.36,8098.51,-2.61354,1.44727,0.785425,-1014.09,9696.96,-624.735,0.927162,4.40524,-2.21836,-1284.82,-9741.13,-534.332,1.41206,-1.80532,0.228357,-1475.12,9467.72,-963.219,1.21352,12.1252,-6.49756,-841.378,-9906.79,-1933.42,-2.54017,-5.65728,-0.0486728,8566.26,689.648,4195.11,21.2217,-3.16544,8.33224
0.114,3393.07,-3766.18,8398.79,0.889564,1.04862,1.30657,3963.44,3564.27,8099.78,-2.68952,1.45408,0.812677,-1022.07,9710.63,-623.207,0.838213,4.4245,-2.33805,-1288.26,-9730.88,-511.263,1.35942,-1.77491,0.214358,-1484.44,9478.37,-987.331,1.22467,12.2389,-6.35493,-829.975,-9936.81,-1932.19,-2.44629,-5.32757,-0.269014,8559.71,672.115,4203.15,21.2379,-3.19229,8.29061
0.115,3386.93,-3778.52,8412.75,1.02379,1.04104,1.26996,3982.93,3563.18,8101.04,-2.7655,1.46089,0.839928,-1030.06,9724.3,-621.679,0.749264,4.44376,-2.45775,-1291.7,-9720.62,-488.194,1.30678,-1.7445,0.200359,-1493.77,9489.01,-1011.44,1.23582,12.3527,-6.21231,-818.572,-9966.83,-1930.96,-2.35242,-4.99786,-0.489355,8553.16,654.581,4211.19,21.2542,-3.21914,8.24897
0.116,3377.48,-3783.68,8415.18,1.1138,1.04916,1.26501,3994.32,3562.82,8104.6,-2.81958,1.44585,0.87317,-1042.34,9727.45,-615.234,0.675344,4.50626,-2.49277,-1281.14,-9723.27,-473.396,1.2929,-1.6572,0.196899,-1494.87,9494.54,-1036.84,1.30435,12.5222,-6.08755,-807.17,-9966.59,-1927.23,-2.26322,-4.73139,-0.574629,8546.93,651.942,4225.32,21.2574,-3.26124,8.26169
0.117,3363.9,-3779.88,8403.2,1.14855,1.0769,1.29962,3995.59,3563.37,8111.03,-2.8463,1.40349,0.9139,-1060.0,9717.46,-602.641,0.620209,4.62281,-2.42195,-1253.06,-9742.04,-468.935,1.32747,-1.49878,0.206613,-1485.7,9493.67,-1063.86,1.44462,12.7616,-5.98511,-795.769,-9928.51,-1920.35,-2.17987,-4.54397,-0.491069,8541.11,667.92,4247.05,21.2444,-3.32239,8.34236
0.118,3350.31,-3776.08,8391.21,1.18329,1.10464,1.33423,3996.86,3563.92,8117.46,-2.87302,1.36114,0.954631,-1077.66,9707.47,-590.048,0.565074,4.73935,-2.35112,-1224.98,-9760.82,-464.474,1.36204,-1.34036,0.216327,-1476.53,9492.8,-1090.87,1.58489,13.0009,-5.88268,-784.368,-9890.43,-1913.47,-2.09653,-4.35655,-0.407509,8535.29,683.899,4268.78,21.2314,-3.38355,8.42303
0.119,3336.73,-3772.28,8379.22,1.21803,1.13238,1.36885,3998.12,3564.47,8123.89,-2.89974,1.31878,0.995361,-1095.31,9697.48,-577.455,0.509939,4.8559,-2.2803,-1196.9,-9779.6,-460.013,1.39661,-1.18195,0.226041,-1467.35,9491.94,-1117.88,1.72516,13.2402,-5.78025,-772.967,-9852.36,-1906.59,-2.01318,-4.16914,-0.323949,8529.47,699.877,4290.51,21.2184,-3.4447,8.5037
0.12,3323.15,-3768.47,8367.24,1.25278,1.16013,1.40346,3999.39,3565.02,8130.32,-2.92646,1.27642,1.03609,-1112.97,9687.49,-564.862,0.454804,4.97245,-2.20947,-1168.82,-9798.37,-455.552,1.43118,-1.02353,0.235755,-1458.18,9491.07,-1144.89,1.86543,13.4795,-5.67781,-761.566,-9814.28,-1899.71,-1.92984,-3.98172,-0.240389,8523.65,715.856,4312.24,21.2054,-3.50585,8.58437
0.121,3328.16,-3758.46,8364.31,1.1945,1.10987,1.40346,3989.61,3579.52,8144.69,-2.81408,1.26537,1.00127,-1112.96,9657.39,-575.732,0.436758,5.09959,-2.2638,-1192.0,-9776.57,-453.502,1.42655,-0.962803,0.28613,-1457.5,9505.09,-1139.45,1.85524,13.7646,-5.54594,-772.173,-9808.35,-1890.12,-1.85895,-3.74029,-0.202575,8536.04,734.754,4294.83,21.281,-3.62015,8.60586
0.122,3333.17,-3748.44,8361.39,1.13623,1.05962,1.40346,3979.84,3594.02,8159.06,-2.7017,1.25432,0.966453,-1112.94,9627.28,-586.603,0.418713,5.22673,-2.31813,-1215.18,-9754.77,-451.452,1.42191,-0.902074,0.336505,-1456.81,9519.12,-1134.02,1.84505,14.0497,-5.41407,-782.779,-9802.43,-1880.54,-1.78807,-3.49885,-0.164761,8548.42,753.653,4277.43,21.3567,-3.73445,8.62736
0.123,3338.18,-3738.43,8358.46,1.07795,1.00936,1.40346,3970.06,3608.52,8173.43,-2.58932,1.24327,0.931633,-1112.93,9597.17,-597.473,0.400667,5.35386,-2.37246,-1238.37,-9732.97,-449.402,1.41728,-0.841346,0.38688,-1456.12,9533.14,-1128.59,1.83487,14.3348,-5.28221,-793.385,-9796.5,-1870.95,-1.71718,-3.25742,-0.126947,8560.81,772.552,4260.02,21.4324,-3.84875,8.64885
0.124,3343.18,-3728.41,8355.54,1.01968,0.959108,1.40346,3960.29,3623.03,8187.79,-2.47694,1.23221,0.896814,-1112.91,9567.06,-608.343,0.382622,5.481,-2.42679,-1261.55,-9711.17,-447.351,1.41265,-0.780617,0.437255,-1455.44,9547.17,-1123.16,1.82468,14.6199,-5.15034,-803.991,-9790.57,-1861.36,-1.64629,-3.01598,-0.0891327,8573.2,791.45,4242.61,21.508,-3.96305,8.67034
0.125,3353.06,-3709.61,8356.47,0.945829,0.959832,1.39141,3952.88,3630.04,8192.96,-2.43928,1.24128,0.914585,-1107.95,9574.18,-612.249,0.380201,5.64695,-2.40401,-1254.43,-9712.1,-459.269,1.47167,-0.613234,0.421893,-1461.72,9555.14,-1114.4,1.75564,14.8329,-5.05491,-800.568,-9793.94,-1834.6,-1.63929,-2.79781,-0.0358609,8578.62,794.761,4226.79,21.4576,-4.04827,8.6139
0.126,3366.83,-3683.77,8360.5,0.859524,1.00134,1.36971,3947.37,3631.07,8190.77,-2.4614,1.26643,0.974429,-1099.04,9611.08,-610.583,0.39028,5.84394,-2.31956,-1223.07,-9731.19,-482.361,1.58162,-0.360527,0.353941,-1473.58,9558.27,-1102.98,1.63951,14.9881,-4.98863,-785.923,-9804.73,-1794.09,-1.68341,-2.59825,0.0297771,8578.46,785.603,4212.23,21.3064,-4.11023,8.49511
0.127,3380.6,-3657.93,8364.53,0.77322,1.04285,1.34801,3941.85,3632.09,8188.58,-2.48351,1.29158,1.03427,-1090.12,9647.97,-608.916,0.40036,6.04092,-2.23511,-1191.7,-9750.29,-505.453,1.69157,-0.107821,0.285988,-1485.44,9561.39,-1091.55,1.52338,15.1433,-4.92235,-771.277,-9815.52,-1753.59,-1.72753,-2.39869,0.095415,8578.31,776.444,4197.66,21.1551,-4.1722,8.37632
0.128,3394.37,-3632.1,8368.56,0.686915,1.08435,1.32631,3936.34,3633.12,8186.38,-2.50563,1.31673,1.09412,-1081.21,9684.87,-607.25,0.410439,6.23791,-2.15066,-1160.34,-9769.39,-528.545,1.80152,0.144886,0.218036,-1497.29,9564.52,-1080.13,1.40725,15.2985,-4.85607,-756.631,-9826.31,-1713.08,-1.77164,-2.19914,0.161053,8578.16,767.286,4183.1,21.0039,-4.23416,8.25753
0.129,3408.03,-3608.58,8371.39,0.611019,1.13299,1.31715,3929.13,3633.61,8183.8,-2.53293,1.32865,1.15524,-1077.38,9717.6,-606.874,0.422293,6.40782,-2.0727,-1132.7,-9789.17,-549.35,1.88933,0.371073,0.165187,-1509.8,9566.21,-1070.01,1.30981,15.4425,-4.7904,-743.234,-9835.68,-1675.35,-1.79857,-2.03138,0.214335,8581.28,759.37,4173.46,20.8539,-4.28914,8.15626
0.13,3420.82,-3603.63,8364.65,0.618394,1.2387,1.40828,3908.34,3629.85,8178.05,-2.60167,1.23471,1.2266,-1114.3,9716.94,-616.818,0.448343,6.36102,-2.04661,-1134.89,-9814.44,-551.864,1.80003,0.385104,0.233162,-1527.47,9556.41,-1070.34,1.36185,15.4974,-4.72962,-739.834,-9833.63,-1659.83,-1.68799,-2.11807,0.168768,8610.65,761.403,4203.15,20.7137,-4.28821,8.19512
0.131,3433.6,-3598.69,8357.92,0.625768,1.3444,1.4994,3887.56,3626.09,8172.3,-2.67042,1.14077,1.29797,-1151.22,9716.27,-626.763,0.474393,6.31422,-2.02052,-1137.08,-9839.71,-554.378,1.71073,0.399136,0.301137,-1545.14,9546.61,-1070.68,1.4139,15.5523,-4.66884,-736.434,-9831.58,-1644.3,-1.57741,-2.20476,0.123201,8640.02,763.436,4232.85,20.5735,-4.28729,8.23398
0.132,3446.39,-3593.74,8351.18,0.633143,1.45011,1.59053,3866.78,3622.33,8166.56,-2.73916,1.04684,1.36933,-1188.14,9715.61,-636.708,0.500443,6.26743,-1.99443,-1139.28,-9864.97,-556.891,1.62143,0.413167,0.369112,-1562.81,9536.8,-1071.01,1.46595,15.6072,-4.60805,-733.033,-9829.53,-1628.78,-1.46683,-2.29145,0.0776345,8669.39,765.469,4262.55,20.4333,-4.28636,8.27284
0.133,3459.18,-3588.79,8344.44,0.640517,1.55582,1.68166,3845.99,3618.57,8160.81,-2.80791,0.952897,1.44069,-1225.06,9714.95,-646.652,0.526493,6.22063,-1.96834,-1141.47,-9890.24,-559.405,1.53213,0.427199,0.437087,-1580.48,9527.0,-1071.34,1.518,15.6622,-4.54727,-729.633,-9827.48,-1613.26,-1.35626,-2.37815,0.0320678,8698.76,767.502,4292.24,20.2932,-4.28544,8.3117
0.134,3463.34,-3596.33,8340.77,0.672267,1.62458,1.65532,3844.59,3626.01,8151.27,-2.83304,0.919748,1.43457,-1223.27,9723.82,-628.315,0.586559,6.12481,-1.95859,-1139.83,-9882.35,-548.741,1.48806,0.413921,0.498496,-1581.53,9515.85,-1076.7,1.47832,15.6116,-4.53128,-735.848,-9846.96,-1625.1,-1.29645,-2.3172,-0.0546734,8699.29,776.649,4301.51,20.1293,-4.2543,8.24556
0.135,3463.21,-3610.12,8338.64,0.716204,1.67487,1.57025,3852.87,3639.05,8139.84,-2.83637,0.916994,1.38969,-1202.11,9737.46,-595.836,0.663633,6.00447,-1.95702,-1136.27,-9857.89,-531.488,1.4666,0.386989,0.556622,-1574.26,9504.01,-1084.58,1.39279,15.5083,-4.53767,-746.87,-9877.2,-1650.61,-1.26202,-2.18244,-0.162002,8685.4,789.354,4300.56,19.9535,-4.20805,8.12691
0.136,3463.07,-3623.91,8336.52,0.760141,1.72516,1.48518,3861.15,3652.09,8128.41,-2.8397,0.914241,1.34482,-1180.95,9751.09,-563.357,0.740706,5.88413,-1.95544,-1132.71,-9833.42,-514.234,1.44515,0.360057,0.614748,-1567.0,9492.17,-1092.46,1.30725,15.405,-4.54407,-757.891,-9907.45,-1676.12,-1.22759,-2.04768,-0.26933,8671.5,802.058,4299.61,19.7777,-4.1618,8.00827
0.137,3462.93,-3637.69,8334.39,0.804078,1.77546,1.40011,3869.44,3665.13,8116.98,-2.84303,0.911487,1.29995,-1159.79,9764.73,-530.878,0.81778,5.7638,-1.95387,-1129.15,-9808.96,-496.981,1.42369,0.333125,0.672874,-1559.73,9480.34,-1100.33,1.22172,15.3017,-4.55047,-768.913,-9937.69,-1701.63,-1.19316,-1.91293,-0.376659,8657.61,814.762,4298.66,19.6019,-4.11555,7.88962
0.138,3462.59,-3650.46,8332.1,0.846857,1.82318,1.33825,3875.92,3674.46,8105.03,-2.84134,0.913406,1.26516,-1147.46,9772.88,-506.716,0.840757,5.63963,-1.96651,-1133.24,-9791.87,-484.937,1.41562,0.279552,0.698254,-1557.24,9469.62,-1103.29,1.14367,15.1579,-4.56646,-775.581,-9962.99,-1722.05,-1.17768,-1.7858,-0.464449,8646.95,824.355,4300.36,19.4537,-4.05995,7.78642
0.139,3461.59,-3659.65,8329.24,0.88558,1.8619,1.35762,3876.12,3670.81,8091.25,-2.82211,0.931679,1.26564,-1166.03,9761.79,-511.666,0.674394,5.50208,-2.02895,-1164.07,-9800.61,-491.127,1.45443,0.132732,0.609022,-1571.46,9462.83,-1089.04,1.09184,14.8724,-4.61604,-767.007,-9971.02,-1724.69,-1.22852,-1.68542,-0.483857,8647.59,823.062,4311.33,19.4016,-3.97162,7.73727
0.14,3460.58,-3668.85,8326.38,0.924304,1.90062,1.37698,3876.32,3667.16,8077.47,-2.80288,0.949952,1.26612,-1184.6,9750.71,-516.615,0.508031,5.36453,-2.09138,-1194.9,-9809.34,-497.317,1.49325,-0.0140869,0.519791,-1585.68,9456.03,-1074.79,1.04001,14.5869,-4.66561,-758.434,-9979.04,-1727.32,-1.27935,-1.58503,-0.503265,8648.23,821.768,4322.3,19.3495,-3.88328,7.68811
0.141,3459.57,-3678.05,8323.52,0.963028,1.93935,1.39635,3876.52,3663.51,8063.69,-2.78364,0.968225,1.2666,-1203.17,9739.63,-521.564,0.341668,5.22698,-2.15382,-1225.73,-9818.08,-503.507,1.53206,-0.160906,0.430559,-1599.91,9449.24,-1060.54,0.988177,14.3014,-4.71519,-749.861,-9987.07,-1729.96,-1.33018,-1.48464,-0.522673,8648.87,820.475,4333.26,19.2974,-3.79495,7.63896
0.142,3458.56,-3687.24,8320.67,1.00175,1.97807,1.41572,3876.71,3659.85,8049.91,-2.76441,0.986498,1.26708,-1221.75,9728.55,-526.513,0.175304,5.08943,-2.21625,-1256.56,-9826.81,-509.697,1.57087,-0.307726,0.341327,-1614.13,9442.44,-1046.29,0.936345,14.0159,-4.76476,-741.287,-9995.09,-1732.6,-1.38102,-1.38425,-0.542081,8649.51,819.182,4344.23,19.2453,-3.70661,7.5898
0.143,3457.91,-3679.4,8320.88,1.05754,2.03993,1.47537,3883.03,3639.4,8052.45,-2.7783,0.912703,1.28503,-1212.1,9708.12,-528.295,0.242903,4.97047,-2.19559,-1260.27,-9806.05,-512.12,1.57024,-0.229604,0.41293,-1631.53,9435.26,-1028.23,0.907888,13.6094,-4.82186,-736.609,-9997.91,-1720.27,-1.37363,-1.16252,-0.650045,8659.13,804.507,4334.5,19.3178,-3.6373,7.49046
0.144,3457.37,-3666.68,8321.96,1.11821,2.1084,1.54655,3891.11,3614.14,8059.65,-2.80164,0.812602,1.30798,-1194.38,9685.0,-529.173,0.377348,4.85682,-2.15119,-1256.22,-9776.87,-513.466,1.55835,-0.0872134,0.530485,-1649.83,9427.96,-1009.09,0.886109,13.1683,-4.8811,-733.044,-9999.25,-1703.66,-1.34961,-0.906119,-0.78331,8671.33,786.009,4318.86,19.4259,-3.57341,7.37679
0.145,3456.83,-3653.97,8323.05,1.17888,2.17687,1.61772,3899.18,3588.88,8066.86,-2.82498,0.712502,1.33092,-1176.67,9661.89,-530.05,0.511792,4.74316,-2.10679,-1252.18,-9747.68,-514.813,1.54646,0.0551771,0.648041,-1668.14,9420.66,-989.942,0.86433,12.7272,-4.94035,-729.478,-10000.6,-1687.06,-1.32559,-0.649717,-0.916576,8683.52,767.51,4303.22,19.534,-3.50952,7.26311
0.146,3456.28,-3641.25,8324.13,1.23955,2.24534,1.68889,3907.25,3563.63,8074.06,-2.84833,0.612401,1.35387,-1158.96,9638.78,-530.928,0.646237,4.62951,-2.06239,-1248.13,-9718.49,-516.16,1.53457,0.197568,0.765596,-1686.45,9413.36,-970.796,0.842551,12.2861,-4.99959,-725.913,-10001.9,-1670.46,-1.30157,-0.393315,-1.04984,8695.71,749.012,4287.58,19.6421,-3.44564,7.14943
0.147,3456.55,-3631.5,8326.51,1.31766,2.29621,1.72846,3914.91,3542.63,8083.11,-2.8727,0.545903,1.33844,-1153.96,9634.15,-534.866,0.718805,4.58506,-2.07409,-1251.86,-9703.51,-519.576,1.51284,0.256843,0.840179,-1699.82,9406.37,-954.853,0.825424,11.9003,-5.03267,-735.088,-10004.9,-1652.52,-1.23602,-0.156781,-1.15814,8695.26,735.005,4274.75,19.7154,-3.42949,7.12103
0.148,3458.43,-3627.66,8331.48,1.43064,2.31188,1.70485,3921.74,3530.18,8095.85,-2.89913,0.546611,1.24626,-1174.4,9666.5,-544.926,0.667619,4.67901,-2.19798,-1271.16,-9716.94,-527.133,1.47143,0.149889,0.828815,-1703.31,9399.99,-945.313,0.817601,11.6253,-5.01341,-769.744,-10011.3,-1631.92,-1.08742,0.0400179,-1.21649,8669.53,729.979,4267.55,19.7194,-3.50884,7.2632
0.149,3460.3,-3623.82,8336.45,1.54362,2.32755,1.68124,3928.56,3517.72,8108.6,-2.92557,0.547319,1.15407,-1194.85,9698.85,-554.986,0.616434,4.77296,-2.32188,-1290.45,-9730.37,-534.69,1.43002,0.0429348,0.817452,-1706.81,9393.62,-935.774,0.809777,11.3502,-4.99415,-804.4,-10017.6,-1611.32,-0.938808,0.236817,-1.27485,8643.8,724.952,4260.34,19.7233,-3.58818,7.40537
0.15,3462.18,-3619.98,8341.42,1.6566,2.34323,1.65762,3935.39,3505.26,8121.34,-2.952,0.548027,1.06189,-1215.29,9731.19,-565.046,0.565248,4.86691,-2.44577,-1309.74,-9743.79,-542.246,1.38861,-0.0640194,0.806089,-1710.3,9387.24,-926.234,0.801953,11.0752,-4.97489,-839.056,-10024.0,-1590.72,-0.7902,0.433616,-1.33321,8618.06,719.926,4253.14,19.7272,-3.66752,7.54753
0.151,3464.06,-3616.14,8346.39,1.76959,2.3589,1.63401,3942.21,3492.81,8134.08,-2.97843,0.548735,0.969704,-1235.73,9763.54,-575.106,0.514062,4.96086,-2.56966,-1329.03,-9757.22,-549.803,1.34719,-0.170974,0.794725,-1713.79,9380.86,-916.695,0.794129,10.8002,-4.95563,-873.712,-10030.4,-1570.11,-0.641593,0.630415,-1.39156,8592.33,714.899,4245.93,19.7312,-3.74687,7.6897
0.152,3452.03,-3626.44,8348.31,1.83563,2.34006,1.65401,3939.02,3491.69,8132.72,-3.00623,0.634978,0.852334,-1232.15,9743.02,-540.625,0.527419,4.67764,-2.60306,-1330.08,-9745.71,-544.568,1.37718,-0.136826,0.84149,-1705.15,9378.96,-927.838,0.77146,10.5513,-4.98164,-890.584,-10006.6,-1547.52,-0.537567,0.656069,-1.3629,8590.26,741.969,4245.41,19.7069,-3.63168,7.67798
0.153,3438.27,-3638.51,8349.85,1.8958,2.31691,1.67945,3934.58,3491.99,8129.6,-3.0342,0.731913,0.731816,-1225.57,9715.89,-500.576,0.548843,4.34727,-2.62514,-1328.85,-9731.08,-537.735,1.41609,-0.0850403,0.89552,-1694.99,9377.61,-941.567,0.746936,10.3057,-5.01331,-905.232,-9978.98,-1524.68,-0.439114,0.66033,-1.32336,8591.16,773.05,4245.71,19.6792,-3.49219,7.64702
0.154,3424.5,-3650.58,8351.4,1.95598,2.29375,1.7049,3930.13,3492.29,8126.48,-3.06217,0.828848,0.611297,-1218.99,9688.77,-460.527,0.570267,4.01691,-2.64723,-1327.62,-9716.45,-530.902,1.455,-0.0332548,0.949551,-1684.82,9376.26,-955.296,0.722411,10.06,-5.04498,-919.88,-9951.4,-1501.83,-0.340661,0.664591,-1.28382,8592.05,804.131,4246.02,19.6514,-3.35269,7.61606
0.155,3410.73,-3662.64,8352.94,2.01615,2.2706,1.73035,3925.69,3492.59,8123.36,-3.09013,0.925783,0.490779,-1212.41,9661.64,-420.479,0.591691,3.68654,-2.66931,-1326.39,-9701.81,-524.068,1.49391,0.0185308,1.00358,-1674.66,9374.91,-969.024,0.697887,9.81441,-5.07665,-934.529,-9923.83,-1478.99,-0.242208,0.668853,-1.24428,8592.94,835.212,4246.33,19.6237,-3.21319,7.58511
0.156,3408.29,-3670.26,8351.12,2.04844,2.28698,1.76162,3923.18,3492.28,8118.09,-3.08264,0.99761,0.427371,-1203.5,9644.45,-410.037,0.633482,3.48273,-2.64683,-1322.19,-9702.66,-511.896,1.46795,-0.0160057,1.01811,-1664.39,9374.88,-979.285,0.673529,9.54057,-5.13065,-913.053,-9906.94,-1466.67,-0.260267,0.70169,-1.17939,8595.3,845.279,4244.57,19.6523,-3.13651,7.56679
0.157,3420.0,-3672.31,8345.11,2.04586,2.35278,1.80016,3923.09,3491.19,8110.12,-3.03083,1.03805,0.435351,-1191.68,9639.66,-436.603,0.700732,3.4371,-2.56866,-1314.28,-9722.87,-493.048,1.36091,-0.158445,0.983262,-1654.0,9376.5,-985.211,0.649379,9.23145,-5.21258,-846.422,-9903.43,-1467.5,-0.423965,0.770246,-1.08282,8599.49,829.077,4240.22,19.7515,-3.13833,7.56428
0.158,3431.72,-3674.36,8339.1,2.04328,2.41858,1.83871,3923.01,3490.1,8102.16,-2.97901,1.0785,0.44333,-1179.86,9634.87,-463.17,0.767982,3.39147,-2.49049,-1306.38,-9743.07,-474.201,1.25387,-0.300884,0.948414,-1643.6,9378.11,-991.138,0.62523,8.92233,-5.29452,-779.791,-9899.92,-1468.34,-0.587662,0.838803,-0.986243,8603.67,812.875,4235.88,19.8506,-3.14016,7.56176
0.159,3443.43,-3676.41,8333.09,2.0407,2.48438,1.87725,3922.92,3489.02,8094.19,-2.92719,1.11894,0.45131,-1168.04,9630.08,-489.737,0.835232,3.34584,-2.41231,-1298.47,-9763.27,-455.353,1.14683,-0.443323,0.913566,-1633.21,9379.73,-997.064,0.60108,8.61321,-5.37645,-713.16,-9896.4,-1469.17,-0.75136,0.90736,-0.889671,8607.86,796.674,4231.54,19.9498,-3.14198,7.55925
0.16,3455.15,-3678.47,8327.08,2.03813,2.55018,1.9158,3922.84,3487.93,8086.22,-2.87538,1.15938,0.459289,-1156.22,9625.29,-516.303,0.902482,3.30021,-2.33414,-1290.57,-9783.47,-436.506,1.03978,-0.585762,0.878718,-1622.81,9381.35,-1002.99,0.57693,8.30408,-5.45838,-646.529,-9892.89,-1470.0,-0.915058,0.975917,-0.793099,8612.04,780.472,4227.2,20.0489,-3.14381,7.55674
0.161,3453.63,-3677.17,8330.64,1.98242,2.56075,1.92108,3923.43,3486.84,8086.08,-2.83516,1.15119,0.501433,-1156.77,9627.25,-551.017,0.865409,3.27242,-2.38396,-1277.51,-9763.81,-416.522,1.04232,-0.461337,1.0015,-1613.06,9386.98,-1020.47,0.654338,8.14956,-5.40259,-662.894,-9901.11,-1463.67,-0.876967,0.905749,-0.764602,8632.74,822.025,4256.6,20.1271,-3.03352,7.44206
0.162,3452.11,-3675.87,8334.2,1.92672,2.57132,1.92637,3924.03,3485.76,8085.94,-2.79495,1.143,0.543576,-1157.31,9629.2,-585.73,0.828335,3.24462,-2.43377,-1264.46,-9744.15,-396.539,1.04485,-0.336913,1.12429,-1603.31,9392.61,-1037.95,0.731746,7.99504,-5.3468,-679.258,-9909.32,-1457.34,-0.838875,0.835581,-0.736106,8653.43,863.577,4286.0,20.2052,-2.92323,7.32739
0.163,3450.59,-3674.58,8337.75,1.87102,2.58189,1.93166,3924.62,3484.67,8085.8,-2.75474,1.13481,0.58572,-1157.86,9631.16,-620.444,0.791262,3.21683,-2.48359,-1251.41,-9724.48,-376.555,1.04738,-0.212488,1.24708,-1593.55,9398.24,-1055.42,0.809153,7.84052,-5.29102,-695.622,-9917.54,-1451.01,-0.800784,0.765414,-0.707609,8674.12,905.13,4315.4,20.2834,-2.81294,7.21272
0.164,3449.07,-3673.28,8341.31,1.81531,2.59247,1.93694,3925.22,3483.58,8085.66,-2.71452,1.12663,0.627864,-1158.41,9633.11,-655.157,0.754188,3.18904,-2.5334,-1238.35,-9704.82,-356.571,1.04991,-0.0880635,1.36986,-1583.8,9403.87,-1072.9,0.886561,7.686,-5.23523,-711.986,-9925.75,-1444.68,-0.762692,0.695246,-0.679112,8694.81,946.683,4344.81,20.3616,-2.70266,7.09804
0.165,3436.76,-3675.3,8349.04,1.76323,2.58997,1.88607,3925.12,3487.57,8094.29,-2.70742,1.10145,0.649672,-1161.02,9645.78,-662.927,0.684583,3.3036,-2.46655,-1226.78,-9714.0,-362.27,0.968072,-0.0930833,1.35098,-1575.96,9416.6,-1073.14,0.983992,7.54811,-5.21553,-728.341,-9912.68,-1447.04,-0.87846,0.596308,-0.621845,8671.91,965.992,4363.91,20.2902,-2.72119,6.9371
0.166,3415.8,-3679.98,8360.1,1.71403,2.57703,1.79026,3924.47,3495.61,8109.93,-2.72681,1.06268,0.655213,-1165.29,9667.01,-649.142,0.588953,3.53203,-2.30637,-1216.39,-9746.25,-388.514,0.818738,-0.201659,1.21876,-1569.64,9434.99,-1059.59,1.09744,7.42353,-5.22471,-744.688,-9882.59,-1456.34,-1.11731,0.474354,-0.541561,8614.14,967.506,4374.77,20.0992,-2.8428,6.73913
0.167,3394.84,-3684.65,8371.16,1.66484,2.56408,1.69445,3923.82,3503.65,8125.58,-2.7462,1.02391,0.660754,-1169.55,9688.23,-635.357,0.493323,3.76046,-2.14618,-1206.01,-9778.5,-414.757,0.669404,-0.310234,1.08654,-1563.32,9453.39,-1046.03,1.21089,7.29895,-5.23389,-761.035,-9852.5,-1465.65,-1.35617,0.352399,-0.461278,8556.36,969.02,4385.64,19.9082,-2.9644,6.54116
0.168,3373.89,-3689.32,8382.22,1.61564,2.55114,1.59865,3923.17,3511.69,8141.23,-2.76559,0.985141,0.666295,-1173.82,9709.46,-621.572,0.397693,3.9889,-1.986,-1195.62,-9810.74,-441.001,0.52007,-0.41881,0.954322,-1557.01,9471.78,-1032.48,1.32434,7.17437,-5.24308,-777.382,-9822.4,-1474.95,-1.59502,0.230444,-0.380994,8498.59,970.534,4396.5,19.7172,-3.086,6.34319
0.169,3356.84,-3692.44,8392.68,1.57652,2.53349,1.51249,3921.12,3520.62,8157.18,-2.77781,0.942653,0.672156,-1178.33,9727.31,-611.431,0.314015,4.19545,-1.85087,-1186.18,-9838.96,-462.991,0.409397,-0.50564,0.849585,-1550.83,9489.27,-1019.62,1.43068,7.0454,-5.24158,-789.028,-9794.36,-1482.11,-1.84408,0.12204,-0.313816,8453.04,969.152,4407.61,19.5265,-3.20594,6.15873
0.17,3371.05,-3683.09,8398.41,1.61797,2.47816,1.50352,3907.95,3536.73,8175.61,-2.73268,0.870411,0.680582,-1184.83,9718.05,-630.447,0.32596,4.2269,-1.9162,-1184.38,-9834.96,-450.947,0.608006,-0.418509,0.964713,-1545.8,9499.53,-1012.3,1.48014,6.88133,-5.15466,-763.075,-9782.78,-1472.11,-2.17482,0.12204,-0.351482,8505.31,944.599,4420.73,19.3385,-3.31256,6.08239
0.171,3385.27,-3673.74,8404.13,1.65943,2.42283,1.49456,3894.77,3552.84,8194.04,-2.68755,0.798168,0.689007,-1191.34,9708.79,-649.462,0.337905,4.25835,-1.98153,-1182.58,-9830.95,-438.904,0.806615,-0.331379,1.07984,-1540.76,9509.78,-1004.99,1.52961,6.71726,-5.06773,-737.121,-9771.19,-1462.12,-2.50556,0.12204,-0.389148,8557.58,920.045,4433.85,19.1505,-3.41918,6.00604
0.172,3399.49,-3664.39,8409.85,1.70088,2.36751,1.48559,3881.59,3568.95,8212.46,-2.64242,0.725926,0.697432,-1197.84,9699.53,-668.478,0.349849,4.2898,-2.04687,-1180.77,-9826.94,-426.86,1.00522,-0.244248,1.19497,-1535.72,9520.04,-997.672,1.57907,6.55319,-4.98081,-711.167,-9759.6,-1452.12,-2.8363,0.12204,-0.426814,8609.84,895.492,4446.97,18.9625,-3.5258,5.9297
0.173,3413.7,-3655.04,8415.58,1.74234,2.31218,1.47662,3868.41,3585.06,8230.89,-2.59729,0.653684,0.705858,-1204.35,9690.27,-687.494,0.361794,4.32125,-2.1122,-1178.97,-9822.93,-414.817,1.20383,-0.157117,1.3101,-1530.69,9530.29,-990.356,1.62854,6.38911,-4.89389,-685.213,-9748.01,-1442.12,-3.16703,0.12204,-0.46448,8662.11,870.939,4460.09,18.7745,-3.63242,5.85335
0.174,3429.17,-3647.14,8415.99,1.68856,2.27589,1.4261,3862.6,3588.62,8234.49,-2.53824,0.602691,0.734986,-1197.23,9718.0,-705.192,0.356734,4.31335,-2.07088,-1184.98,-9810.32,-419.384,1.18191,-0.125476,1.35889,-1533.07,9535.81,-987.431,1.64563,6.20047,-4.82589,-683.033,-9762.67,-1447.34,-3.20188,0.122481,-0.431616,8677.31,892.85,4461.84,18.5107,-3.65992,5.73427
0.175,3445.27,-3639.96,8413.73,1.58717,2.24913,1.35479,3860.47,3585.89,8230.68,-2.47224,0.562323,0.774464,-1183.29,9764.22,-722.233,0.343171,4.28578,-1.97623,-1194.89,-9793.41,-432.257,1.04971,-0.12158,1.37452,-1539.17,9538.96,-986.7,1.64654,5.99953,-4.76735,-692.739,-9790.43,-1460.16,-3.08877,0.123142,-0.363487,8673.96,937.993,4457.9,18.2089,-3.64786,5.59381
0.176,3461.37,-3632.79,8411.48,1.48578,2.22236,1.28349,3858.34,3583.16,8226.87,-2.40624,0.521954,0.813944,-1169.36,9810.45,-739.273,0.329608,4.25821,-1.88157,-1204.8,-9776.49,-445.131,0.917516,-0.117684,1.39014,-1545.27,9542.12,-985.969,1.64744,5.7986,-4.70881,-702.445,-9818.2,-1472.98,-2.97566,0.123804,-0.295358,8670.61,983.137,4453.97,17.9071,-3.6358,5.45335
0.177,3477.47,-3625.61,8409.22,1.38439,2.19559,1.21218,3856.22,3580.44,8223.05,-2.34024,0.481586,0.853423,-1155.42,9856.67,-756.314,0.316045,4.23064,-1.78692,-1214.72,-9759.58,-458.004,0.78532,-0.113789,1.40577,-1551.37,9545.27,-985.239,1.64835,5.59766,-4.65027,-712.151,-9845.97,-1485.8,-2.86255,0.124465,-0.22723,8667.27,1028.28,4450.04,17.6054,-3.62374,5.31289
0.178,3487.86,-3619.1,8410.16,1.27716,2.16396,1.15259,3854.68,3574.94,8217.37,-2.28815,0.441336,0.879113,-1145.71,9891.02,-759.101,0.30864,4.19982,-1.74985,-1220.96,-9748.72,-475.83,0.707711,-0.0847061,1.42667,-1556.6,9551.3,-983.202,1.65954,5.41495,-4.60338,-725.94,-9871.08,-1493.28,-2.74428,0.12898,-0.167721,8666.02,1064.81,4446.59,17.2478,-3.57543,5.24888
0.179,3478.27,-3614.89,8422.24,1.14949,2.1153,1.134,3855.22,3559.72,8205.15,-2.28473,0.401502,0.856546,-1150.81,9883.78,-712.003,0.322792,4.15762,-1.9143,-1214.37,-9759.08,-510.993,0.821154,0.032529,1.46604,-1558.77,9567.44,-976.595,1.70673,5.29604,-4.59726,-754.015,-9886.84,-1482.08,-2.60793,0.146982,-0.138384,8672.1,1071.19,4444.88,16.6952,-3.40026,5.45246
0.18,3468.67,-3610.69,8434.32,1.02182,2.06664,1.11542,3855.75,3544.51,8192.93,-2.28131,0.361668,0.833979,-1155.9,9876.55,-664.905,0.336943,4.11542,-2.07876,-1207.78,-9769.43,-546.155,0.934597,0.149764,1.50542,-1560.94,9583.57,-969.989,1.75392,5.17713,-4.59114,-782.09,-9902.61,-1470.88,-2.47159,0.164983,-0.109048,8678.19,1077.57,4443.17,16.1426,-3.22509,5.65603
0.181,3459.08,-3606.48,8446.4,0.894149,2.01798,1.09683,3856.29,3529.29,8180.71,-2.27789,0.321834,0.811412,-1160.99,9869.32,-617.807,0.351094,4.07322,-2.24321,-1201.19,-9779.79,-581.317,1.04804,0.266999,1.54479,-1563.11,9599.7,-963.382,1.80111,5.05822,-4.58502,-810.165,-9918.38,-1459.68,-2.33524,0.182985,-0.0797106,8684.27,1083.96,4441.45,15.59,-3.04992,5.85961
0.182,3449.49,-3602.27,8458.49,0.766479,1.96932,1.07824,3856.83,3514.08,8168.48,-2.27448,0.282,0.788845,-1166.08,9862.09,-570.709,0.365246,4.03102,-2.40766,-1194.6,-9790.14,-616.48,1.16148,0.384234,1.58416,-1565.28,9615.83,-956.775,1.8483,4.93931,-4.57889,-838.241,-9934.15,-1448.47,-2.19889,0.200987,-0.0503737,8690.36,1090.34,4439.73,15.0374,-2.87475,6.06318
0.183,3434.63,-3604.01,8459.27,0.76513,1.96436,1.14549,3849.81,3520.84,8165.66,-2.29526,0.298358,0.825586,-1156.65,9870.91,-559.883,0.390006,3.96695,-2.47302,-1188.54,-9788.18,-607.928,1.14314,0.407036,1.65307,-1571.26,9625.76,-962.908,1.84805,4.88597,-4.46451,-849.686,-9942.68,-1472.1,-2.24594,0.275926,-0.171968,8697.73,1082.65,4412.71,14.5966,-2.77173,5.96425
0.184,3418.26,-3607.45,8456.83,0.799873,1.97188,1.23728,3840.64,3533.88,8165.53,-2.32295,0.33077,0.879272,-1143.07,9884.33,-559.419,0.417798,3.89662,-2.51007,-1182.62,-9782.7,-586.886,1.08715,0.402856,1.73042,-1578.32,9633.91,-972.68,1.83425,4.85136,-4.3192,-856.381,-9949.15,-1505.68,-2.3454,0.367132,-0.336686,8705.46,1070.94,4378.44,14.1877,-2.68933,5.77889
0.185,3401.89,-3610.89,8454.39,0.834616,1.97939,1.32906,3831.47,3546.91,8165.4,-2.35065,0.363183,0.932959,-1129.49,9897.74,-558.956,0.44559,3.8263,-2.54712,-1176.71,-9777.22,-565.844,1.03115,0.398676,1.80776,-1585.38,9642.06,-982.453,1.82045,4.81676,-4.17389,-863.075,-9955.61,-1539.26,-2.44485,0.458339,-0.501404,8713.2,1059.23,4344.18,13.7789,-2.60693,5.59354
0.186,3385.52,-3614.33,8451.95,0.869359,1.98691,1.42084,3822.3,3559.95,8165.26,-2.37834,0.395596,0.986645,-1115.91,9911.16,-558.492,0.473382,3.75598,-2.58416,-1170.8,-9771.74,-544.802,0.975157,0.394497,1.88511,-1592.43,9650.21,-992.225,1.80665,4.78215,-4.02858,-869.769,-9962.07,-1572.84,-2.5443,0.549546,-0.666121,8720.94,1047.52,4309.92,13.3701,-2.52453,5.40818
0.187,3370.5,-3622.42,8445.96,0.860373,1.98892,1.48216,3819.66,3567.71,8163.96,-2.39714,0.441934,1.02542,-1108.83,9916.37,-553.356,0.502351,3.67608,-2.57612,-1167.53,-9769.9,-524.916,0.915916,0.425591,1.90746,-1596.16,9649.81,-1001.57,1.78419,4.76391,-3.86967,-876.959,-9967.81,-1595.89,-2.53647,0.675553,-0.816515,8735.55,1053.46,4287.2,13.0267,-2.41291,5.35276
0.188,3358.15,-3639.8,8432.89,0.76393,1.97989,1.48253,3830.05,3564.93,8160.31,-2.39814,0.516122,1.03437,-1114.74,9905.19,-538.875,0.533672,3.57705,-2.47789,-1169.53,-9775.34,-507.339,0.850183,0.527235,1.81981,-1593.21,9632.31,-1010.07,1.74443,4.77842,-3.68358,-885.141,-9972.09,-1597.89,-2.31406,0.871161,-0.938259,8763.91,1094.7,4287.59,12.8142,-2.24285,5.55723
0.189,3345.8,-3657.19,8419.82,0.667487,1.97086,1.48291,3840.44,3562.15,8156.67,-2.39914,0.59031,1.04331,-1120.66,9894.01,-524.393,0.564994,3.47801,-2.37967,-1171.54,-9780.79,-489.763,0.78445,0.628879,1.73217,-1590.26,9614.81,-1018.57,1.70467,4.79292,-3.49749,-893.323,-9976.38,-1599.89,-2.09165,1.06677,-1.06,8792.27,1135.94,4287.99,12.6018,-2.07279,5.7617
0.19,3333.46,-3674.58,8406.75,0.571044,1.96183,1.48328,3850.83,3559.37,8153.02,-2.40014,0.664499,1.05226,-1126.57,9882.83,-509.912,0.596316,3.37897,-2.28144,-1173.55,-9786.23,-472.186,0.718717,0.730523,1.64452,-1587.31,9597.31,-1027.07,1.66491,4.80742,-3.3114,-901.504,-9980.66,-1601.89,-1.86924,1.26238,-1.18175,8820.63,1177.18,4288.38,12.3893,-1.90273,5.96617
0.191,3321.11,-3691.96,8393.69,0.474601,1.9528,1.48365,3861.22,3556.59,8149.38,-2.40114,0.738687,1.06121,-1132.48,9871.65,-495.43,0.627637,3.27994,-2.18322,-1175.55,-9791.68,-454.61,0.652984,0.832166,1.55688,-1584.36,9579.81,-1035.57,1.62514,4.82192,-3.12531,-909.686,-9984.94,-1603.89,-1.64683,1.45799,-1.30349,8848.99,1218.42,4288.77,12.1769,-1.73267,6.17063
0.192,3327.69,-3679.96,8403.13,0.374447,1.90649,1.46765,3857.51,3547.36,8148.8,-2.44505,0.792446,1.04502,-1146.36,9855.37,-496.729,0.721212,3.14474,-2.32712,-1188.89,-9789.83,-448.609,0.553344,0.86226,1.56001,-1586.02,9569.11,-1032.62,1.6505,4.79656,-3.00699,-912.168,-9978.39,-1605.57,-1.56038,1.66029,-1.27848,8836.62,1222.89,4275.81,11.7882,-1.63263,6.05327
0.193,3336.63,-3664.28,8415.39,0.27383,1.85552,1.4496,3852.02,3537.33,8148.59,-2.49432,0.843651,1.0257,-1161.24,9838.46,-500.0,0.822567,3.00503,-2.50128,-1203.65,-9787.08,-444.054,0.449465,0.883409,1.57449,-1588.26,9559.27,-1028.24,1.68399,4.76621,-2.89715,-913.939,-9970.49,-1607.21,-1.49093,1.86342,-1.23512,8819.16,1222.76,4261.19,11.3775,-1.54135,5.89568
0.194,3345.57,-3648.6,8427.65,0.173213,1.80455,1.43154,3846.54,3527.29,8148.39,-2.54359,0.894856,1.00638,-1176.12,9821.54,-503.272,0.923923,2.86531,-2.67545,-1218.41,-9784.32,-439.499,0.345587,0.904559,1.58897,-1590.5,9549.42,-1023.86,1.71748,4.73585,-2.7873,-915.709,-9962.59,-1608.85,-1.42148,2.06656,-1.19177,8801.7,1222.64,4246.56,10.9669,-1.45006,5.73809
0.195,3354.51,-3632.91,8439.91,0.072596,1.75357,1.41349,3841.05,3517.26,8148.19,-2.59286,0.946061,0.987055,-1190.99,9804.63,-506.543,1.02528,2.7256,-2.84961,-1233.16,-9781.56,-434.945,0.241708,0.925709,1.60345,-1592.74,9539.57,-1019.48,1.75097,4.7055,-2.67746,-917.48,-9954.69,-1610.49,-1.35203,2.26969,-1.14841,8784.24,1222.51,4231.94,10.5562,-1.35878,5.5805
0.196,3360.09,-3622.13,8451.07,0.0215918,1.71326,1.34857,3833.93,3506.57,8151.28,-2.62874,0.95237,1.00068,-1194.44,9792.06,-510.136,1.05562,2.58127,-2.87223,-1238.46,-9778.55,-422.243,0.162138,0.99362,1.59811,-1591.77,9534.51,-1017.42,1.75668,4.69102,-2.59887,-917.086,-9950.15,-1617.72,-1.28909,2.43873,-1.2065,8781.03,1211.07,4226.88,10.1712,-1.3054,5.42378
0.197,3361.45,-3617.46,8460.85,0.032604,1.68628,1.22508,3824.75,3495.05,8158.5,-2.64788,0.902559,1.05549,-1183.61,9784.94,-514.13,0.997196,2.43118,-2.7054,-1231.95,-9775.24,-399.358,0.112955,1.11998,1.56801,-1586.79,9535.44,-1018.25,1.72766,4.69637,-2.55935,-913.985,-9949.8,-1631.94,-1.2343,2.56514,-1.39141,8795.63,1185.49,4233.79,9.81826,-1.29941,5.26814
0.198,3362.8,-3612.78,8470.64,0.0436161,1.65929,1.10159,3815.58,3483.54,8165.71,-2.66702,0.852748,1.11031,-1172.78,9777.81,-518.124,0.93877,2.28109,-2.53857,-1225.44,-9771.92,-376.472,0.0637722,1.24635,1.5379,-1581.81,9536.37,-1019.08,1.69864,4.70172,-2.51984,-910.885,-9949.46,-1646.16,-1.1795,2.69156,-1.57631,8810.23,1159.92,4240.7,9.46535,-1.29341,5.1125
0.199,3364.16,-3608.11,8480.42,0.0546283,1.63231,0.978092,3806.4,3472.02,8172.93,-2.68616,0.802937,1.16512,-1161.95,9770.68,-522.118,0.880345,2.131,-2.37174,-1218.92,-9768.61,-353.587,0.0145892,1.37271,1.5078,-1576.83,9537.3,-1019.92,1.66962,4.70708,-2.48032,-907.785,-9949.11,-1660.38,-1.1247,2.81797,-1.76122,8824.83,1134.34,4247.6,9.11244,-1.28742,4.95686
0.2,3365.52,-3603.44,8490.2,0.0656404,1.60532,0.854598,3797.22,3460.51,8180.14,-2.7053,0.753126,1.21993,-1151.11,9763.55,-526.113,0.821919,1.98091,-2.20491,-1212.41,-9765.29,-330.702,-0.0345938,1.49907,1.47769,-1571.84,9538.23,-1020.75,1.6406,4.71243,-2.4408,-904.685,-9948.77,-1674.6,-1.06991,2.94439,-1.94613,8839.42,1108.76,4254.51,8.75954,-1.28142,4.80123
0.201,3364.29,-3608.37,8493.47,0.0301245,1.60109,0.953867,3803.4,3445.29,8176.49,-2.62667,0.674699,1.16421,-1141.64,9761.33,-539.094,0.908315,1.86865,-2.22509,-1228.85,-9789.41,-353.573,-0.0098385,1.49377,1.49169,-1569.04,9544.73,-1038.25,1.5926,4.74212,-2.36712,-898.252,-9945.37,-1659.73,-1.1296,2.85203,-1.90947,8850.72,1109.14,4267.31,8.42565,-1.07303,4.7658
0.202,3363.05,-3613.29,8496.73,-0.0053915,1.59686,1.05314,3809.58,3430.08,8172.84,-2.54805,0.596272,1.10849,-1132.17,9759.12,-552.075,0.99471,1.7564,-2.24527,-1245.29,-9813.53,-376.445,0.0149168,1.48847,1.50569,-1566.24,9551.23,-1055.75,1.5446,4.77181,-2.29345,-891.819,-9941.97,-1644.86,-1.18929,2.75968,-1.87281,8862.01,1109.51,4280.11,8.09176,-0.864647,4.73038
0.203,3361.82,-3618.22,8500.0,-0.0409075,1.59263,1.15241,3815.76,3414.86,8169.19,-2.46943,0.517844,1.05277,-1122.7,9756.9,-565.056,1.08111,1.64414,-2.26544,-1261.73,-9837.65,-399.316,0.0396721,1.48317,1.51969,-1563.44,9557.73,-1073.25,1.4966,4.8015,-2.21977,-885.386,-9938.58,-1630.0,-1.24899,2.66733,-1.83615,8873.3,1109.88,4292.91,7.75788,-0.65626,4.69496
0.204,3360.58,-3623.14,8503.26,-0.0764234,1.5884,1.25167,3821.94,3399.65,8165.53,-2.3908,0.439417,0.997053,-1113.22,9754.68,-578.037,1.1675,1.53189,-2.28562,-1278.18,-9861.77,-422.187,0.0644274,1.47786,1.53369,-1560.63,9564.23,-1090.76,1.4486,4.83119,-2.1461,-878.953,-9935.18,-1615.13,-1.30868,2.57497,-1.79949,8884.59,1110.25,4305.71,7.42399,-0.447874,4.65953
0.205,3361.92,-3625.44,8491.6,-0.103565,1.55935,1.31583,3834.0,3401.19,8172.78,-2.37762,0.40775,0.965532,-1106.26,9739.91,-582.435,1.18971,1.42227,-2.26992,-1283.52,-9865.02,-431.287,0.0617481,1.49294,1.53988,-1562.42,9559.31,-1098.29,1.41251,4.83378,-2.02399,-890.453,-9930.86,-1595.27,-1.31459,2.48419,-1.69127,8871.54,1112.2,4289.95,7.09058,-0.444112,4.5552
0.206,3365.31,-3625.64,8468.0,-0.124006,1.51043,1.3519,3850.75,3416.13,8188.74,-2.4168,0.41349,0.95337,-1101.3,9715.1,-579.966,1.16056,1.31476,-2.22553,-1280.0,-9851.59,-429.369,0.0371213,1.5243,1.53984,-1567.89,9545.25,-1097.86,1.38594,4.8147,-1.86313,-916.301,-9925.8,-1571.42,-1.27746,2.39468,-1.52581,8839.02,1115.41,4251.34,6.75754,-0.604051,4.39574
0.207,3368.7,-3625.83,8444.4,-0.144448,1.46152,1.38796,3867.5,3431.08,8204.7,-2.45598,0.419231,0.941207,-1096.34,9690.29,-577.498,1.13141,1.20726,-2.18113,-1276.47,-9838.15,-427.451,0.0124945,1.55567,1.53979,-1573.35,9531.2,-1097.43,1.35938,4.79561,-1.70227,-942.149,-9920.73,-1547.56,-1.24034,2.30516,-1.36035,8806.5,1118.62,4212.73,6.42451,-0.76399,4.23627
0.208,3372.09,-3626.02,8420.79,-0.16489,1.4126,1.42402,3884.25,3446.02,8220.67,-2.49516,0.424971,0.929045,-1091.38,9665.48,-575.03,1.10226,1.09975,-2.13673,-1272.94,-9824.72,-425.534,-0.0121323,1.58704,1.53974,-1578.82,9517.15,-1097.0,1.33281,4.77653,-1.54142,-967.997,-9915.67,-1523.71,-1.20322,2.21564,-1.19489,8773.98,1121.84,4174.11,6.09147,-0.923929,4.07681
0.209,3375.85,-3625.13,8400.35,-0.184163,1.37024,1.44374,3899.66,3459.5,8233.44,-2.52753,0.432581,0.913358,-1086.88,9644.98,-571.365,1.08527,1.01065,-2.11664,-1272.92,-9813.29,-423.941,-0.0457963,1.60727,1.53672,-1583.08,9504.54,-1096.61,1.31441,4.77474,-1.39109,-992.517,-9910.46,-1503.58,-1.15554,2.10209,-1.05997,8741.89,1121.69,4143.56,5.75696,-1.05802,3.90768
0.21,3382.54,-3615.47,8405.24,-0.194087,1.38028,1.33266,3904.32,3461.28,8220.73,-2.50542,0.455143,0.86947,-1086.1,9658.89,-558.13,1.16549,1.06876,-2.29098,-1300.96,-9817.89,-424.951,-0.151758,1.5384,1.50984,-1577.76,9503.46,-1096.54,1.3613,4.9114,-1.32503,-1006.42,-9904.01,-1513.17,-1.02341,1.79624,-1.1694,8713.32,1094.64,4177.42,5.41061,-0.985376,3.66126
0.211,3389.23,-3605.81,8410.13,-0.204012,1.39032,1.22157,3908.99,3463.06,8208.02,-2.48332,0.477705,0.825583,-1085.32,9672.8,-544.894,1.24572,1.12688,-2.46533,-1328.99,-9822.49,-425.962,-0.257719,1.46953,1.48297,-1572.43,9502.38,-1096.47,1.4082,5.04806,-1.25897,-1020.33,-9897.56,-1522.77,-0.89128,1.4904,-1.27882,8684.74,1067.6,4211.29,5.06426,-0.912727,3.41483
0.212,3395.92,-3596.16,8415.01,-0.213936,1.40036,1.11049,3913.65,3464.84,8195.3,-2.46121,0.500267,0.781696,-1084.54,9686.72,-531.659,1.32595,1.18499,-2.63968,-1357.02,-9827.09,-426.972,-0.363681,1.40066,1.45609,-1567.11,9501.3,-1096.41,1.45509,5.18471,-1.19291,-1034.23,-9891.12,-1532.37,-0.759152,1.18456,-1.38825,8656.17,1040.56,4245.16,4.7179,-0.840078,3.16841
0.213,3402.61,-3586.5,8419.9,-0.223861,1.4104,0.999401,3918.31,3466.62,8182.59,-2.43911,0.522829,0.737809,-1083.76,9700.63,-518.423,1.40617,1.24311,-2.81402,-1385.05,-9831.69,-427.982,-0.469642,1.33179,1.42922,-1561.78,9500.22,-1096.34,1.50198,5.32137,-1.12685,-1048.13,-9884.67,-1541.97,-0.627025,0.878721,-1.49768,8627.59,1013.52,4279.03,4.37155,-0.767429,2.92198
0.214,3408.87,-3598.27,8415.31,-0.209573,1.42136,1.05109,3926.47,3466.51,8169.91,-2.41479,0.520358,0.706233,-1078.49,9727.93,-522.134,1.38659,1.24633,-2.79617,-1394.75,-9828.76,-421.134,-0.495396,1.26317,1.4188,-1560.74,9507.72,-1095.65,1.5103,5.52788,-0.994877,-1052.15,-9888.0,-1560.09,-0.707489,0.644075,-1.55748,8622.44,996.904,4295.28,4.33901,-0.822357,2.79002
0.215,3414.91,-3620.76,8405.97,-0.18318,1.43277,1.18416,3936.36,3465.45,8157.25,-2.38937,0.50537,0.680812,-1070.99,9761.93,-534.317,1.31711,1.22209,-2.68221,-1395.27,-9822.06,-410.356,-0.481046,1.19467,1.41659,-1561.83,9519.52,-1094.65,1.49934,5.76933,-0.829955,-1051.23,-9896.21,-1582.47,-0.894249,0.445027,-1.59246,8629.0,985.498,4302.71,4.46337,-0.941072,2.71529
0.216,3420.95,-3643.24,8396.64,-0.156787,1.44419,1.31724,3946.26,3464.38,8144.59,-2.36395,0.490382,0.655392,-1063.48,9795.93,-546.5,1.24763,1.19786,-2.56826,-1395.8,-9815.36,-399.578,-0.466695,1.12618,1.41439,-1562.93,9531.31,-1093.64,1.48837,6.01078,-0.665034,-1050.3,-9904.42,-1604.85,-1.08101,0.245979,-1.62743,8635.55,974.092,4310.15,4.58773,-1.05979,2.64055
0.217,3426.99,-3665.73,8387.3,-0.130393,1.4556,1.45031,3956.15,3463.32,8131.93,-2.33853,0.475393,0.629971,-1055.97,9829.92,-558.684,1.17815,1.17363,-2.45431,-1396.32,-9808.66,-388.801,-0.452345,1.05768,1.41219,-1564.02,9543.11,-1092.64,1.4774,6.25222,-0.500112,-1049.38,-9912.63,-1627.24,-1.26777,0.0469316,-1.66241,8642.11,962.686,4317.59,4.7121,-1.1785,2.56582
0.218,3431.83,-3682.3,8380.78,-0.11196,1.44406,1.54497,3960.44,3464.07,8124.52,-2.33174,0.453255,0.6102,-1050.23,9852.97,-567.983,1.11296,1.17832,-2.363,-1394.75,-9799.51,-378.536,-0.434036,0.983393,1.40019,-1567.17,9550.43,-1090.18,1.45776,6.48015,-0.318463,-1049.29,-9913.69,-1641.67,-1.38507,-0.125335,-1.71449,8651.04,951.395,4319.84,4.82151,-1.29254,2.45901
0.219,3432.46,-3678.17,8384.13,-0.121385,1.3522,1.50517,3945.11,3471.15,8135.44,-2.39013,0.406092,0.6102,-1050.71,9837.7,-567.188,1.06277,1.28423,-2.35099,-1385.82,-9781.79,-370.065,-0.401873,0.888833,1.35387,-1577.51,9542.13,-1082.61,1.40777,6.66074,-0.0782678,-1052.14,-9889.69,-1628.27,-1.25924,-0.203865,-1.82643,8668.28,940.506,4303.94,4.8786,-1.39021,2.23989
0.22,3433.1,-3674.04,8387.48,-0.13081,1.26033,1.46537,3929.77,3478.23,8146.37,-2.44852,0.35893,0.6102,-1051.18,9822.44,-566.394,1.01258,1.39013,-2.33898,-1376.89,-9764.08,-361.594,-0.36971,0.794273,1.30756,-1587.85,9533.82,-1075.05,1.35778,6.84134,0.161927,-1054.99,-9865.68,-1614.88,-1.13341,-0.282395,-1.93837,8685.51,929.617,4288.05,4.9357,-1.48787,2.02078
0.221,3433.74,-3669.9,8390.83,-0.140236,1.16846,1.42557,3914.44,3485.31,8157.3,-2.50692,0.311767,0.6102,-1051.66,9807.17,-565.599,0.962384,1.49604,-2.32697,-1367.97,-9746.36,-353.123,-0.337547,0.699713,1.26124,-1598.19,9525.52,-1067.48,1.30778,7.02193,0.402122,-1057.84,-9841.68,-1601.49,-1.00758,-0.360925,-2.05031,8702.75,918.728,4272.15,4.99279,-1.58553,1.80167
0.222,3434.37,-3665.77,8394.18,-0.149661,1.07659,1.38577,3899.11,3492.39,8168.22,-2.56531,0.264604,0.6102,-1052.13,9791.9,-564.804,0.912191,1.60195,-2.31496,-1359.04,-9728.65,-344.653,-0.305384,0.605154,1.21493,-1608.53,9517.21,-1059.92,1.25779,7.20252,0.642317,-1060.69,-9817.68,-1588.09,-0.881747,-0.439456,-2.16225,8719.99,907.838,4256.25,5.04988,-1.6832,1.58256
0.223,3423.56,-3654.89,8393.5,-0.269927,1.04762,1.38978,3894.17,3507.33,8159.52,-2.59694,0.302988,0.6102,-1083.84,9778.16,-574.069,0.934528,1.68251,-2.36704,-1364.25,-9731.51,-366.585,-0.359995,0.585049,1.1825,-1621.32,9503.77,-1069.85,1.27291,7.34415,0.743149,-1071.92,-9804.31,-1571.59,-0.912935,-0.544687,-2.12852,8723.92,921.256,4221.58,5.11633,-1.65213,1.50032
0.224,3409.48,-3642.07,8391.67,-0.421862,1.03662,1.40631,3892.2,3524.53,8145.21,-2.62092,0.365814,0.6102,-1124.47,9764.85,-586.207,0.977587,1.75583,-2.43743,-1373.51,-9740.27,-397.203,-0.439399,0.586218,1.15403,-1634.82,9488.87,-1084.78,1.30664,7.47464,0.804162,-1085.55,-9793.98,-1554.21,-0.988985,-0.657548,-2.05316,8724.04,941.618,4181.55,5.18545,-1.58427,1.45719
0.225,3395.39,-3629.25,8389.83,-0.573797,1.02562,1.42284,3890.23,3541.73,8130.91,-2.64491,0.42864,0.6102,-1165.11,9751.55,-598.346,1.02065,1.82915,-2.50783,-1382.77,-9749.02,-427.822,-0.518803,0.587386,1.12557,-1648.32,9473.97,-1099.72,1.34037,7.60512,0.865175,-1099.17,-9783.66,-1536.82,-1.06504,-0.770408,-1.9778,8724.17,961.98,4141.52,5.25456,-1.51642,1.41406
0.226,3381.31,-3616.43,8388.0,-0.725732,1.01463,1.43937,3888.26,3558.93,8116.6,-2.66889,0.491466,0.6102,-1205.74,9738.24,-610.484,1.0637,1.90247,-2.57822,-1392.03,-9757.77,-458.44,-0.598207,0.588555,1.0971,-1661.82,9459.07,-1114.65,1.3741,7.73561,0.926188,-1112.8,-9773.33,-1519.43,-1.14109,-0.883269,-1.90244,8724.3,982.342,4101.49,5.32368,-1.44857,1.37093
0.227,3374.81,-3612.76,8384.6,-0.807826,1.00955,1.42804,3889.32,3569.19,8103.48,-2.7148,0.547014,0.583609,-1229.38,9729.71,-615.325,1.04518,1.98447,-2.59968,-1398.25,-9767.36,-478.935,-0.661521,0.555625,1.06803,-1675.37,9443.92,-1124.88,1.4411,7.84269,0.992479,-1119.89,-9773.24,-1511.63,-1.21086,-0.981348,-1.85455,8721.55,993.371,4070.21,5.36829,-1.39829,1.33299
0.228,3383.47,-3627.39,8378.07,-0.750237,1.01631,1.36102,3896.45,3565.58,8092.74,-2.80454,0.588006,0.503836,-1219.02,9730.75,-605.569,0.903507,2.08383,-2.52327,-1398.38,-9778.64,-479.181,-0.692654,0.454498,1.03773,-1689.04,9428.25,-1125.71,1.57464,7.90294,1.06933,-1113.9,-9793.65,-1523.01,-1.26808,-1.04987,-1.8616,8713.03,985.735,4056.46,5.36389,-1.38318,1.30541
0.229,3392.14,-3642.03,8371.54,-0.692648,1.02307,1.29399,3903.58,3561.98,8082.0,-2.89428,0.628999,0.424063,-1208.66,9731.79,-595.813,0.761828,2.18318,-2.44686,-1398.52,-9789.92,-479.427,-0.723787,0.353371,1.00744,-1702.7,9412.59,-1126.54,1.70817,7.96319,1.14617,-1107.91,-9814.06,-1534.38,-1.3253,-1.11838,-1.86865,8704.51,978.098,4042.7,5.35948,-1.36807,1.27783
0.23,3400.8,-3656.67,8365.01,-0.63506,1.02983,1.22696,3910.71,3558.37,8071.27,-2.98403,0.669991,0.34429,-1198.31,9732.83,-586.058,0.62015,2.28254,-2.37046,-1398.65,-9801.19,-479.673,-0.75492,0.252245,0.977147,-1716.37,9396.93,-1127.37,1.84171,8.02343,1.22302,-1101.93,-9834.47,-1545.75,-1.38252,-1.1869,-1.8757,8696.0,970.462,4028.95,5.35507,-1.35296,1.25026
0.231,3409.46,-3671.3,8358.48,-0.577471,1.03659,1.15993,3917.83,3554.76,8060.53,-3.07377,0.710984,0.264517,-1187.95,9733.86,-576.302,0.478472,2.3819,-2.29405,-1398.79,-9812.47,-479.919,-0.786053,0.151118,0.946854,-1730.03,9381.27,-1128.2,1.97524,8.08368,1.29987,-1095.94,-9854.88,-1557.12,-1.43974,-1.25542,-1.88275,8687.48,962.826,4015.19,5.35067,-1.33785,1.22268
0.232,3434.06,-3672.48,8361.59,-0.589542,1.07515,1.11055,3919.5,3573.03,8077.29,-3.05102,0.745789,0.291721,-1186.46,9740.9,-588.474,0.640675,2.46973,-2.3126,-1381.06,-9808.04,-477.21,-0.761297,0.114995,0.873741,-1749.22,9402.41,-1103.74,1.99784,8.00847,1.4365,-1084.61,-9850.89,-1538.64,-1.51563,-1.33746,-1.84371,8691.48,955.045,4029.27,5.0444,-1.23778,1.20527
0.233,3460.66,-3671.98,8365.91,-0.610321,1.11768,1.06338,3920.47,3594.04,8097.5,-3.0142,0.779821,0.332298,-1186.07,9748.68,-603.387,0.840862,2.55612,-2.34303,-1361.1,-9801.65,-474.131,-0.729554,0.0869975,0.795275,-1769.1,9428.15,-1076.13,2.00657,7.91632,1.58061,-1072.61,-9843.85,-1516.42,-1.59385,-1.42119,-1.79889,8697.05,947.247,4046.81,4.7004,-1.1271,1.18913
0.234,3487.25,-3671.47,8370.22,-0.631099,1.16021,1.01621,3921.45,3615.05,8117.7,-2.97738,0.813853,0.372874,-1185.69,9756.46,-618.3,1.04105,2.6425,-2.37345,-1341.14,-9795.26,-471.052,-0.697812,0.059,0.716809,-1788.98,9453.89,-1048.51,2.0153,7.82417,1.72471,-1060.61,-9836.8,-1494.2,-1.67208,-1.50492,-1.75408,8702.62,939.449,4064.36,4.35639,-1.01641,1.17299
0.235,3513.85,-3670.97,8374.54,-0.651878,1.20274,0.969035,3922.43,3636.06,8137.9,-2.94056,0.847884,0.41345,-1185.31,9764.24,-633.213,1.24124,2.72889,-2.40387,-1321.17,-9788.87,-467.974,-0.666069,0.0310025,0.638344,-1808.86,9479.63,-1020.89,2.02403,7.73203,1.86882,-1048.61,-9829.76,-1471.98,-1.75031,-1.58865,-1.70927,8708.19,931.65,4081.91,4.01239,-0.905719,1.15686
0.236,3515.76,-3672.19,8381.07,-0.679881,1.2175,0.95444,3912.16,3645.61,8153.62,-2.91787,0.844413,0.433696,-1185.79,9760.52,-643.094,1.35648,2.76051,-2.40842,-1299.99,-9779.74,-466.751,-0.637416,0.00780154,0.597602,-1821.59,9498.17,-1000.48,2.02742,7.59966,1.94795,-1038.45,-9834.32,-1482.02,-1.76639,-1.60849,-1.71046,8696.64,940.246,4101.07,3.72114,-0.802308,1.10043
0.237,3486.81,-3675.56,8390.38,-0.716913,1.19757,0.98057,3887.84,3640.84,8163.73,-2.91282,0.794061,0.428531,-1187.35,9742.41,-646.688,1.36554,2.72366,-2.38063,-1277.27,-9767.19,-467.85,-0.612625,-0.00940384,0.604015,-1825.38,9507.73,-989.073,2.02413,7.41703,1.94585,-1030.59,-9853.37,-1532.39,-1.70479,-1.54845,-1.76915,8663.67,969.334,4122.24,3.49583,-0.707994,0.993651
0.238,3457.86,-3678.93,8399.69,-0.753946,1.17763,1.0067,3863.51,3636.07,8173.84,-2.90778,0.743709,0.423365,-1188.91,9724.3,-650.281,1.37459,2.68681,-2.35284,-1254.55,-9754.64,-468.948,-0.587834,-0.0266092,0.610429,-1829.17,9517.29,-977.664,2.02084,7.2344,1.94376,-1022.73,-9872.43,-1582.75,-1.64318,-1.48841,-1.82784,8630.71,998.422,4143.41,3.27051,-0.613679,0.88687
0.239,3428.91,-3682.3,8409.0,-0.790979,1.1577,1.03283,3839.19,3631.3,8183.95,-2.90273,0.693357,0.418199,-1190.48,9706.19,-653.875,1.38365,2.64996,-2.32505,-1231.83,-9742.09,-470.047,-0.563044,-0.0438146,0.616842,-1832.96,9526.85,-966.255,2.01756,7.05177,1.94167,-1014.87,-9891.49,-1633.12,-1.58158,-1.42837,-1.88653,8597.74,1027.51,4164.58,3.0452,-0.519365,0.78009
0.24,3399.96,-3685.67,8418.31,-0.828012,1.13776,1.05896,3814.86,3626.53,8194.07,-2.89769,0.643006,0.413033,-1192.04,9688.08,-657.468,1.39271,2.61311,-2.29726,-1209.11,-9729.54,-471.145,-0.538253,-0.06102,0.623255,-1836.75,9536.4,-954.846,2.01427,6.86914,1.93958,-1007.01,-9910.54,-1683.49,-1.51998,-1.36833,-1.94522,8564.78,1056.6,4185.75,2.81989,-0.425051,0.673309
0.241,3410.78,-3658.8,8413.55,-0.86667,1.18348,1.10057,3830.09,3610.49,8182.73,-2.96671,0.652887,0.526447,-1186.71,9676.77,-623.336,1.36071,2.59921,-2.28756,-1240.13,-9728.67,-475.801,-0.501922,-0.0270284,0.595258,-1850.64,9526.94,-955.904,2.04997,6.75913,1.90971,-991.54,-9913.24,-1685.17,-1.59581,-1.30083,-1.85242,8584.41,1045.76,4160.03,2.51122,-0.408089,0.684718
0.242,3421.6,-3631.92,8408.78,-0.905328,1.22919,1.14218,3845.32,3594.44,8171.4,-3.03573,0.662769,0.63986,-1181.39,9665.46,-589.203,1.32872,2.58532,-2.27787,-1271.15,-9727.81,-480.456,-0.465591,0.00696326,0.56726,-1864.53,9517.48,-956.962,2.08567,6.64912,1.87984,-976.066,-9915.92,-1686.84,-1.67164,-1.23332,-1.75962,8604.03,1034.92,4134.31,2.20255,-0.391127,0.696126
0.243,3432.42,-3605.05,8404.02,-0.943986,1.27491,1.1838,3860.54,3578.4,8160.07,-3.10475,0.67265,0.753274,-1176.06,9654.15,-555.07,1.29672,2.57142,-2.26818,-1302.17,-9726.95,-485.111,-0.42926,0.0409549,0.539263,-1878.42,9508.02,-958.019,2.12137,6.53911,1.84996,-960.592,-9918.62,-1688.52,-1.74748,-1.16581,-1.66683,8623.65,1024.08,4108.59,1.89388,-0.374166,0.707534
0.244,3443.23,-3578.17,8399.25,-0.982645,1.32062,1.22541,3875.77,3562.36,8148.74,-3.17377,0.682532,0.866687,-1170.74,9642.84,-520.937,1.26473,2.55752,-2.25849,-1333.2,-9726.09,-489.766,-0.392929,0.0749465,0.511265,-1892.31,9498.56,-959.077,2.15707,6.4291,1.82009,-945.118,-9921.3,-1690.2,-1.82331,-1.09831,-1.57403,8643.28,1013.23,4082.87,1.58521,-0.357204,0.718943
0.245,3439.9,-3564.1,8399.53,-0.936941,1.29346,1.30388,3881.82,3551.33,8144.21,-3.25642,0.727423,0.957169,-1168.01,9634.62,-508.635,1.19792,2.5421,-2.26832,-1348.76,-9725.81,-491.118,-0.384307,0.116935,0.499753,-1892.2,9501.28,-965.606,2.20421,6.31172,1.84752,-921.94,-9917.71,-1700.7,-1.81737,-0.840921,-1.5534,8650.85,1003.04,4075.06,1.40007,-0.308929,0.699612
0.246,3425.24,-3560.29,8403.83,-0.823748,1.20801,1.41184,3880.54,3544.31,8145.13,-3.34996,0.800322,1.02931,-1167.36,9628.88,-513.797,1.10327,2.52545,-2.29376,-1351.96,-9725.99,-489.828,-0.397851,0.16532,0.501428,-1880.89,9513.77,-976.511,2.26049,6.18844,1.92079,-892.599,-9909.08,-1718.24,-1.74601,-0.431632,-1.59051,8648.78,993.358,4081.6,1.31376,-0.235601,0.655691
0.247,3410.58,-3556.47,8408.14,-0.710555,1.12256,1.5198,3879.25,3537.3,8146.05,-3.44351,0.873221,1.10144,-1166.71,9623.14,-518.958,1.00861,2.5088,-2.31921,-1355.16,-9726.17,-488.538,-0.411395,0.213705,0.503103,-1869.58,9526.25,-987.417,2.31678,6.06515,1.99406,-863.258,-9900.44,-1735.79,-1.67466,-0.0223436,-1.62761,8646.71,983.678,4088.13,1.22744,-0.162274,0.61177
0.248,3395.92,-3552.66,8412.45,-0.597362,1.03711,1.62776,3877.96,3530.29,8146.97,-3.53705,0.94612,1.17358,-1166.07,9617.39,-524.12,0.913955,2.49216,-2.34466,-1358.36,-9726.35,-487.248,-0.424939,0.262091,0.504778,-1858.26,9538.74,-998.322,2.37307,5.94187,2.06732,-833.917,-9891.81,-1753.33,-1.6033,0.386945,-1.66472,8644.65,973.997,4094.66,1.14113,-0.0889473,0.567849
0.249,3383.14,-3552.29,8417.13,-0.507169,0.963462,1.72017,3878.17,3524.58,8145.75,-3.6298,1.01545,1.22352,-1165.71,9613.86,-531.517,0.832242,2.47654,-2.35321,-1359.9,-9727.24,-487.245,-0.444066,0.302343,0.501972,-1850.11,9550.07,-1011.27,2.42756,5.80714,2.12851,-806.66,-9885.56,-1771.12,-1.54142,0.792565,-1.693,8644.69,964.522,4101.22,1.0502,-0.033852,0.519456
0.25,3385.35,-3579.49,8424.75,-0.600969,0.984212,1.68822,3890.27,3529.36,8127.39,-3.71618,1.05627,1.09595,-1167.71,9628.0,-556.792,0.854065,2.46918,-2.22662,-1348.21,-9733.79,-497.543,-0.507856,0.277528,0.46332,-1867.18,9552.22,-1040.53,2.4676,5.58082,2.09301,-796.075,-9898.35,-1790.86,-1.55531,1.16884,-1.65071,8661.63,956.685,4107.97,0.922369,-0.124611,0.435286
0.251,3387.55,-3606.7,8432.36,-0.69477,1.00496,1.65628,3902.37,3534.14,8109.02,-3.80255,1.09708,0.968374,-1169.71,9642.14,-582.068,0.875887,2.46181,-2.10003,-1336.51,-9740.35,-507.84,-0.571646,0.252713,0.424667,-1884.25,9554.37,-1069.8,2.50764,5.35451,2.05751,-785.489,-9911.14,-1810.6,-1.5692,1.54511,-1.60842,8678.57,948.848,4114.72,0.794535,-0.21537,0.351117
0.252,3389.76,-3633.9,8439.98,-0.788571,1.02571,1.62433,3914.47,3538.91,8090.66,-3.88893,1.1379,0.840799,-1171.7,9656.29,-607.343,0.89771,2.45445,-1.97344,-1324.82,-9746.91,-518.138,-0.635435,0.227898,0.386015,-1901.32,9556.52,-1099.06,2.54768,5.1282,2.02202,-774.904,-9923.93,-1830.34,-1.58309,1.92138,-1.56614,8695.51,941.011,4121.47,0.666702,-0.306128,0.266947
0.253,3391.97,-3661.11,8447.6,-0.882371,1.04646,1.59238,3926.57,3543.69,8072.29,-3.9753,1.17871,0.713224,-1173.7,9670.43,-632.619,0.919532,2.44709,-1.84685,-1313.12,-9753.46,-528.435,-0.699225,0.203083,0.347363,-1918.39,9558.67,-1128.33,2.58772,4.90189,1.98652,-764.319,-9936.72,-1850.08,-1.59698,2.29766,-1.52385,8712.45,933.174,4128.21,0.538868,-0.396887,0.182778
0.254,3393.77,-3661.09,8438.61,-0.939754,1.12061,1.60354,3936.93,3535.81,8070.04,-4.08087,1.17515,0.714584,-1188.9,9669.88,-635.872,1.01024,2.45188,-1.77173,-1297.0,-9749.36,-539.828,-0.749188,0.222211,0.301568,-1929.12,9562.44,-1142.83,2.56963,4.79054,2.02525,-735.974,-9927.57,-1857.36,-1.58242,2.58332,-1.53516,8714.24,924.298,4135.17,0.516874,-0.434897,0.0899645
0.255,3395.35,-3647.47,8421.31,-0.978928,1.22146,1.63625,3946.43,3521.61,8075.83,-4.19603,1.1494,0.780412,-1210.71,9661.99,-628.115,1.13538,2.46275,-1.72235,-1278.67,-9739.94,-551.768,-0.792237,0.263311,0.252202,-1936.69,9567.02,-1149.96,2.52248,4.73669,2.1011,-698.75,-9907.44,-1858.39,-1.55364,2.82368,-1.57328,8708.47,914.903,4142.23,0.547801,-0.446533,-0.00717054
0.256,3396.94,-3633.85,8404.01,-1.0181,1.32231,1.66896,3955.92,3507.41,8081.62,-4.3112,1.12365,0.846239,-1232.52,9654.1,-620.358,1.26053,2.47361,-1.67296,-1260.33,-9730.51,-563.707,-0.835286,0.30441,0.202836,-1944.26,9571.61,-1157.08,2.47532,4.68283,2.17695,-661.525,-9887.31,-1859.43,-1.52485,3.06405,-1.61139,8702.69,905.508,4149.29,0.578727,-0.458169,-0.104306
0.257,3398.53,-3620.23,8386.71,-1.05728,1.42315,1.70167,3965.42,3493.2,8087.42,-4.42636,1.0979,0.912067,-1254.33,9646.21,-612.6,1.38567,2.48448,-1.62357,-1242.0,-9721.09,-575.647,-0.878335,0.34551,0.153471,-1951.83,9576.19,-1164.21,2.42816,4.62897,2.25279,-624.3,-9867.19,-1860.47,-1.49607,3.30441,-1.64951,8696.91,896.113,4156.35,0.609653,-0.469806,-0.201441
0.258,3399.77,-3607.91,8374.59,-1.05765,1.49818,1.73945,3969.54,3486.24,8092.1,-4.54604,1.09506,0.994042,-1274.95,9646.04,-606.67,1.45246,2.45837,-1.55954,-1226.68,-9713.18,-581.2,-0.90006,0.401208,0.114034,-1961.55,9574.5,-1174.35,2.39853,4.57304,2.30974,-595.195,-9849.25,-1859.48,-1.46038,3.56709,-1.68037,8691.1,890.028,4157.02,0.649125,-0.508492,-0.296969
0.259,3399.77,-3600.18,8380.56,-0.922253,1.48284,1.79493,3954.85,3504.61,8092.9,-4.68149,1.17242,1.13253,-1291.4,9672.89,-607.135,1.31497,2.30284,-1.44423,-1221.88,-9710.57,-564.4,-0.847151,0.507998,0.109349,-1978.8,9550.82,-1195.05,2.43022,4.50986,2.30052,-594.504,-9838.94,-1851.41,-1.40051,3.90789,-1.68585,8685.18,895.525,4135.33,0.718508,-0.641857,-0.386876
0.26,3399.77,-3592.46,8386.54,-0.786851,1.46751,1.85041,3940.17,3522.98,8093.69,-4.81694,1.24977,1.27103,-1307.85,9699.74,-607.599,1.17748,2.14731,-1.32892,-1217.08,-9707.96,-547.599,-0.794242,0.614789,0.104664,-1996.05,9527.15,-1215.75,2.46191,4.44668,2.2913,-593.813,-9828.64,-1843.33,-1.34064,4.24869,-1.69132,8679.26,901.022,4113.64,0.78789,-0.775222,-0.476782
0.261,3399.77,-3584.73,8392.51,-0.65145,1.45217,1.9059,3925.48,3541.35,8094.49,-4.95239,1.32713,1.40952,-1324.3,9726.58,-608.064,1.03999,1.99179,-1.21361,-1212.29,-9705.35,-530.798,-0.741333,0.721579,0.0999793,-2013.3,9503.47,-1236.45,2.4936,4.38349,2.28208,-593.122,-9818.34,-1835.26,-1.28078,4.58949,-1.6968,8673.33,906.519,4091.95,0.857272,-0.908587,-0.566689
0.262,3399.77,-3577.0,8398.49,-0.516048,1.43683,1.96138,3910.8,3559.72,8095.28,-5.08785,1.40449,1.54801,-1340.75,9753.43,-608.529,0.902501,1.83626,-1.0983,-1207.49,-9702.74,-513.998,-0.688424,0.82837,0.0952944,-2030.55,9479.8,-1257.15,2.52529,4.32031,2.27286,-592.432,-9808.04,-1827.18,-1.22091,4.9303,-1.70228,8667.41,912.016,4070.26,0.926654,-1.04195,-0.656595
0.263,3403.31,-3580.41,8403.45,-0.49211,1.41009,1.89029,3893.47,3576.62,8082.25,-5.20866,1.48235,1.50799,-1339.8,9740.44,-611.652,0.850158,1.79072,-1.03707,-1211.12,-9700.05,-509.419,-0.665948,0.917466,0.0725338,-2020.01,9466.63,-1269.49,2.57988,4.23337,2.20173,-578.145,-9804.27,-1828.9,-1.25932,5.30803,-1.67235,8688.49,895.919,4081.29,1.00445,-1.02183,-0.693675
0.264,3407.87,-3587.0,8408.13,-0.500019,1.38011,1.78304,3875.4,3593.1,8065.26,-5.3253,1.56036,1.41697,-1333.89,9716.05,-615.534,0.822141,1.7766,-0.991291,-1217.16,-9697.34,-508.331,-0.652166,1.00151,0.0446088,-2001.53,9456.47,-1279.45,2.64102,4.13964,2.11291,-559.974,-9802.37,-1833.42,-1.32582,5.69633,-1.6323,8717.29,873.653,4101.67,1.08464,-0.957854,-0.715662
0.265,3412.44,-3593.6,8412.81,-0.507928,1.35012,1.67579,3857.32,3609.58,8048.28,-5.44193,1.63836,1.32594,-1327.97,9691.67,-619.416,0.794125,1.76248,-0.945511,-1223.2,-9694.62,-507.244,-0.638385,1.08555,0.0166837,-1983.05,9446.31,-1289.41,2.70216,4.04592,2.02409,-541.804,-9800.46,-1837.94,-1.39231,6.08462,-1.59225,8746.09,851.387,4122.05,1.16484,-0.893878,-0.737648
0.266,3417.0,-3600.19,8417.48,-0.515836,1.32013,1.56853,3839.25,3626.06,8031.3,-5.55856,1.71637,1.23492,-1322.05,9667.29,-623.298,0.766108,1.74835,-0.899731,-1229.24,-9691.91,-506.157,-0.624603,1.16959,-0.0112414,-1964.57,9436.14,-1299.37,2.7633,3.95219,1.93526,-523.633,-9798.56,-1842.46,-1.4588,6.47292,-1.5522,8774.89,829.121,4142.43,1.24503,-0.829903,-0.759635
0.267,3420.0,-3606.87,8417.99,-0.483995,1.29481,1.45472,3834.4,3639.95,8021.48,-5.67325,1.75094,1.18975,-1313.07,9652.28,-633.311,0.755647,1.74223,-0.87684,-1230.72,-9692.93,-502.502,-0.645465,1.24596,-0.0373263,-1948.03,9437.94,-1303.49,2.76058,3.91793,1.9103,-515.046,-9794.0,-1852.17,-1.43535,6.894,-1.53762,8785.95,824.314,4149.6,1.35363,-0.787622,-0.804673
0.268,3419.91,-3613.73,8410.18,-0.372653,1.27883,1.32777,3856.03,3648.65,8025.97,-5.78404,1.69865,1.23629,-1297.98,9656.0,-655.588,0.780295,1.7521,-0.899724,-1223.07,-9701.41,-493.711,-0.735613,1.30698,-0.0597309,-1935.37,9463.68,-1295.93,2.63014,4.00258,2.01305,-525.63,-9784.13,-1872.27,-1.23202,7.38065,-1.57396,8761.55,854.425,4130.38,1.51904,-0.788732,-0.895813
0.269,3419.81,-3620.59,8402.37,-0.261311,1.26286,1.20082,3877.66,3657.36,8030.47,-5.89484,1.64636,1.28283,-1282.89,9659.73,-677.864,0.804944,1.76197,-0.922608,-1215.42,-9709.89,-484.921,-0.82576,1.36801,-0.0821355,-1922.71,9489.41,-1288.37,2.49971,4.08723,2.11581,-536.213,-9774.26,-1892.36,-1.02868,7.8673,-1.61031,8737.15,884.536,4111.16,1.68445,-0.789842,-0.986954
0.27,3419.71,-3627.45,8394.55,-0.149969,1.24688,1.07388,3899.29,3666.06,8034.96,-6.00563,1.59406,1.32938,-1267.79,9663.46,-700.141,0.829593,1.77184,-0.945493,-1207.78,-9718.37,-476.13,-0.915908,1.42903,-0.10454,-1910.06,9515.15,-1280.81,2.36927,4.17188,2.21856,-546.796,-9764.38,-1912.46,-0.825349,8.35395,-1.64666,8712.75,914.647,4091.94,1.84986,-0.790951,-1.07809
0.271,3419.62,-3634.31,8386.74,-0.0386266,1.2309,0.946933,3920.92,3674.77,8039.46,-6.11642,1.54177,1.37592,-1252.7,9667.18,-722.417,0.854242,1.78171,-0.968377,-1200.13,-9726.84,-467.339,-1.00606,1.49006,-0.126945,-1897.4,9540.88,-1273.25,2.23884,4.25653,2.32131,-557.379,-9754.51,-1932.55,-0.622013,8.8406,-1.68301,8688.35,944.758,4072.72,2.01526,-0.792061,-1.16923
0.272,3415.32,-3640.05,8382.15,-0.0723066,1.36498,1.04413,3922.51,3663.02,8058.19,-6.19743,1.55145,1.38784,-1253.3,9679.47,-698.4,0.93306,1.74575,-0.875438,-1194.87,-9727.18,-485.804,-0.970913,1.61666,-0.078542,-1906.26,9535.65,-1262.12,2.16594,4.24254,2.25249,-554.093,-9753.68,-1905.56,-0.538834,9.38482,-1.78324,8683.64,943.513,4080.6,2.05456,-0.884181,-1.21783
0.273,3410.49,-3645.65,8377.96,-0.124114,1.51781,1.16935,3921.6,3648.72,8078.7,-6.27472,1.56887,1.39543,-1255.86,9692.83,-668.596,1.01865,1.70407,-0.768021,-1189.91,-9726.5,-507.676,-0.920108,1.75146,-0.0212885,-1917.81,9526.55,-1250.56,2.10024,4.21623,2.16223,-549.074,-9753.99,-1872.68,-0.470674,9.93623,-1.89145,8681.39,938.347,4091.88,2.07808,-0.987677,-1.2611
0.274,3405.66,-3651.25,8373.76,-0.175922,1.67065,1.29456,3920.69,3634.42,8099.21,-6.35201,1.58629,1.40303,-1258.42,9706.19,-638.792,1.10424,1.66238,-0.660604,-1184.94,-9725.83,-529.547,-0.869303,1.88625,0.0359651,-1929.36,9517.45,-1238.99,2.03454,4.18991,2.07197,-544.054,-9754.29,-1839.81,-0.402514,10.4876,-1.99967,8679.14,933.182,4103.16,2.10161,-1.09117,-1.30438
0.275,3400.84,-3656.84,8369.58,-0.22773,1.82348,1.41978,3919.78,3620.11,8119.71,-6.4293,1.60372,1.41062,-1260.99,9719.55,-608.988,1.18983,1.62069,-0.553187,-1179.98,-9725.15,-551.419,-0.818499,2.02105,0.0932186,-1940.91,9508.34,-1227.43,1.96884,4.16359,1.98171,-539.034,-9754.6,-1806.93,-0.334354,11.0391,-2.10788,8676.89,928.017,4114.43,2.12514,-1.19467,-1.34765
0.276,3397.84,-3661.11,8366.22,-0.325633,1.87607,1.51513,3916.98,3594.02,8134.56,-6.41772,1.62183,1.44381,-1263.82,9723.52,-590.439,1.25056,1.59641,-0.448539,-1178.73,-9719.43,-565.936,-0.753112,2.19475,0.169138,-1960.4,9499.64,-1217.47,1.87666,4.06062,1.89293,-525.041,-9755.81,-1798.03,-0.222266,11.5648,-2.18143,8671.61,909.727,4125.62,2.09684,-1.22989,-1.39397
0.277,3397.12,-3663.72,8363.9,-0.481154,1.80337,1.57314,3911.83,3553.2,8142.32,-6.29506,1.6408,1.50898,-1266.98,9715.75,-585.961,1.28021,1.5939,-0.34735,-1182.13,-9707.42,-571.261,-0.669498,2.41709,0.26839,-1989.8,9491.43,-1209.53,1.75138,3.86185,1.80603,-499.829,-9758.17,-1819.11,-0.0552681,12.0586,-2.21164,8662.55,875.032,4136.68,2.00375,-1.17976,-1.4441
0.278,3396.41,-3666.32,8361.58,-0.636675,1.73066,1.63115,3906.68,3512.38,8150.08,-6.1724,1.65977,1.57415,-1270.14,9707.98,-581.482,1.30986,1.59138,-0.246161,-1185.52,-9695.4,-576.585,-0.585884,2.63944,0.367642,-2019.21,9483.22,-1201.59,1.6261,3.66307,1.71912,-474.618,-9760.53,-1840.2,0.11173,12.5524,-2.24185,8653.49,840.337,4147.74,1.91067,-1.12963,-1.49423
0.279,3395.69,-3668.93,8359.26,-0.792197,1.65795,1.68916,3901.53,3471.56,8157.85,-6.04975,1.67874,1.63932,-1273.3,9700.21,-577.004,1.33951,1.58886,-0.144972,-1188.92,-9683.39,-581.909,-0.502271,2.86178,0.466895,-2048.61,9475.01,-1193.65,1.50081,3.4643,1.63221,-449.406,-9762.88,-1861.28,0.278728,13.0461,-2.27205,8644.43,805.642,4158.8,1.81758,-1.0795,-1.54436
0.28,3394.98,-3671.53,8356.94,-0.947718,1.58525,1.74717,3896.38,3430.74,8165.61,-5.92709,1.69771,1.70449,-1276.46,9692.43,-572.525,1.36916,1.58635,-0.0437837,-1192.31,-9671.37,-587.233,-0.418657,3.08412,0.566147,-2078.02,9466.8,-1185.72,1.37553,3.26552,1.5453,-424.195,-9765.24,-1882.36,0.445726,13.5399,-2.30226,8635.37,770.946,4169.86,1.72449,-1.02937,-1.59449
0.281,3380.63,-3658.4,8353.8,-0.858167,1.59619,1.75222,3893.82,3410.16,8161.9,-5.72668,1.6317,1.6735,-1277.74,9692.1,-577.475,1.16389,1.67953,0.0387987,-1212.62,-9694.13,-567.656,-0.334041,3.17277,0.614053,-2047.91,9467.11,-1193.54,1.38826,3.25551,1.52207,-432.128,-9782.78,-1858.22,0.63861,13.8384,-2.25574,8640.31,791.73,4167.52,1.75031,-1.03877,-1.61612
0.282,3366.28,-3645.27,8350.67,-0.768615,1.60712,1.75726,3891.26,3389.58,8158.19,-5.52626,1.5657,1.64251,-1279.02,9691.77,-582.424,0.958628,1.77272,0.121381,-1232.93,-9716.88,-548.078,-0.249425,3.26143,0.66196,-2017.81,9467.43,-1201.37,1.401,3.24549,1.49884,-440.062,-9800.32,-1834.09,0.831495,14.1369,-2.20922,8645.25,812.514,4165.18,1.77612,-1.04817,-1.63775
0.283,3351.93,-3632.15,8347.54,-0.679063,1.61806,1.7623,3888.71,3369.0,8154.48,-5.32584,1.49969,1.61153,-1280.29,9691.44,-587.374,0.753362,1.86591,0.203964,-1253.25,-9739.63,-528.501,-0.164809,3.35008,0.709867,-1987.71,9467.74,-1209.2,1.41373,3.23547,1.47561,-447.996,-9817.87,-1809.95,1.02438,14.4354,-2.16271,8650.19,833.298,4162.83,1.80193,-1.05756,-1.65939
0.284,3337.58,-3619.02,8344.4,-0.589511,1.629,1.76734,3886.15,3348.42,8150.77,-5.12543,1.43368,1.58054,-1281.57,9691.11,-592.324,0.548096,1.9591,0.286546,-1273.56,-9762.38,-508.923,-0.0801926,3.43874,0.757773,-1957.6,9468.05,-1217.03,1.42647,3.22546,1.45238,-455.929,-9835.41,-1785.82,1.21726,14.7339,-2.11619,8655.13,854.082,4160.49,1.82775,-1.06696,-1.68102
0.285,3318.37,-3602.56,8361.63,-0.432396,1.69723,1.78328,3886.32,3325.8,8155.15,-5.02982,1.33256,1.48476,-1285.16,9700.27,-586.334,0.460049,2.03975,0.366386,-1290.82,-9795.11,-486.722,0.0181219,3.52921,0.765251,-1935.09,9469.66,-1225.87,1.4567,3.23789,1.41612,-468.355,-9849.28,-1766.18,1.30082,14.9127,-2.08528,8665.98,861.113,4176.28,1.84229,-1.15014,-1.73498
0.286,3295.27,-3583.45,8395.13,-0.221229,1.8113,1.80795,3888.67,3301.54,8166.0,-5.01806,1.20335,1.33714,-1290.6,9717.01,-571.592,0.465779,2.11038,0.444033,-1305.64,-9835.82,-462.424,0.127395,3.62115,0.740387,-1918.65,9472.3,-1235.52,1.50094,3.26829,1.36944,-484.374,-9860.2,-1750.14,1.29692,14.9957,-2.06686,8681.55,857.142,4206.57,1.84782,-1.29235,-1.81479
0.287,3272.16,-3564.34,8428.64,-0.0100619,1.92537,1.83261,3891.02,3277.27,8176.85,-5.00629,1.07415,1.18952,-1296.04,9733.75,-556.851,0.471508,2.181,0.521679,-1320.46,-9876.53,-438.125,0.236669,3.71308,0.715522,-1902.21,9474.94,-1245.16,1.54518,3.29868,1.32276,-500.394,-9871.13,-1734.09,1.29301,15.0788,-2.04845,8697.12,853.171,4236.87,1.85335,-1.43456,-1.89461
0.288,3249.06,-3545.23,8462.15,0.201105,2.03944,1.85728,3893.37,3253.01,8187.7,-4.99453,0.94494,1.0419,-1301.48,9750.5,-542.109,0.477237,2.25163,0.599325,-1335.28,-9917.24,-413.826,0.345942,3.80502,0.690658,-1885.77,9477.58,-1254.81,1.58942,3.32908,1.27608,-516.413,-9882.05,-1718.05,1.28911,15.1618,-2.03003,8712.7,849.199,4267.17,1.85889,-1.57677,-1.97442
0.289,3234.68,-3529.99,8488.45,0.387135,2.14085,1.87813,3896.33,3235.15,8198.81,-4.96515,0.815996,0.899979,-1304.36,9764.79,-530.013,0.473269,2.31315,0.682743,-1348.95,-9951.71,-390.23,0.448211,3.88371,0.665571,-1870.04,9479.15,-1260.63,1.63348,3.36998,1.2295,-531.597,-9893.75,-1700.84,1.29469,15.2398,-2.00882,8727.32,845.784,4289.74,1.86091,-1.70945,-2.0593
0.29,3290.02,-3545.63,8457.05,0.372067,2.14095,1.86845,3904.16,3268.48,8212.02,-4.79484,0.689152,0.803674,-1286.71,9759.49,-539.084,0.391724,2.30184,0.812332,-1353.44,-9936.17,-372.257,0.494441,3.85654,0.638712,-1860.06,9472.18,-1235.8,1.67616,3.49493,1.18374,-540.096,-9911.67,-1674.3,1.37612,15.2772,-1.96523,8734.41,846.81,4250.52,1.83492,-1.76591,-2.18466
0.291,3345.36,-3561.28,8425.65,0.356999,2.14105,1.85877,3911.99,3301.81,8225.24,-4.62453,0.562307,0.707369,-1269.06,9754.19,-548.154,0.310179,2.29053,0.941922,-1357.92,-9920.64,-354.284,0.540671,3.82936,0.611852,-1850.07,9465.21,-1210.97,1.71883,3.61988,1.13799,-548.595,-9929.59,-1647.76,1.45754,15.3147,-1.92165,8741.49,847.835,4211.31,1.80892,-1.82237,-2.31002
0.292,3400.7,-3576.92,8394.24,0.341931,2.14115,1.84909,3919.82,3335.14,8238.45,-4.45422,0.435463,0.611064,-1251.41,9748.89,-557.224,0.228633,2.27922,1.07151,-1362.4,-9905.11,-336.311,0.586901,3.80218,0.584993,-1840.09,9458.25,-1186.14,1.76151,3.74483,1.09223,-557.094,-9947.51,-1621.22,1.53897,15.3522,-1.87806,8748.57,848.861,4172.1,1.78292,-1.87883,-2.43539
0.293,3456.04,-3592.57,8362.84,0.326862,2.14125,1.83941,3927.65,3368.46,8251.67,-4.2839,0.308618,0.514759,-1233.76,9743.59,-566.294,0.147088,2.26791,1.2011,-1366.89,-9889.58,-318.338,0.633131,3.775,0.558133,-1830.1,9451.28,-1161.31,1.80419,3.86979,1.04648,-565.594,-9965.43,-1594.68,1.6204,15.3896,-1.83448,8755.66,849.887,4132.89,1.75693,-1.93529,-2.56075
0.294,3466.48,-3606.23,8355.29,0.285687,2.11521,1.81852,3904.04,3380.34,8250.61,-4.11218,0.191086,0.482175,-1222.78,9736.46,-573.703,0.126311,2.18993,1.22853,-1375.57,-9880.44,-310.28,0.669735,3.60738,0.531388,-1831.68,9446.08,-1145.79,1.82291,3.95361,0.984095,-566.427,-9984.57,-1578.4,1.65421,15.4158,-1.81666,8731.66,838.966,4115.67,1.79161,-1.9113,-2.64272
0.295,3454.48,-3618.89,8359.66,0.231458,2.07611,1.79204,3864.72,3381.5,8242.41,-3.93974,0.0782105,0.481451,-1215.13,9728.42,-580.28,0.135919,2.07862,1.20488,-1386.35,-9874.49,-307.18,0.701526,3.36954,0.5047,-1839.04,9441.76,-1134.92,1.82966,4.01686,0.913398,-563.427,-10004.3,-1567.25,1.66422,15.4363,-1.81174,8692.12,822.072,4109.45,1.85664,-1.84708,-2.70299
0.296,3442.47,-3631.55,8364.04,0.177229,2.03701,1.76555,3825.4,3382.66,8234.21,-3.7673,-0.0346652,0.480727,-1207.49,9720.39,-586.857,0.145526,1.9673,1.18123,-1397.13,-9868.55,-304.079,0.733317,3.1317,0.478012,-1846.4,9437.44,-1124.05,1.83641,4.08012,0.842702,-560.427,-10024.1,-1556.09,1.67423,15.4569,-1.80681,8652.58,805.178,4103.23,1.92167,-1.78286,-2.76325
0.297,3430.46,-3644.22,8368.41,0.123,1.9979,1.73906,3786.07,3383.82,8226.01,-3.59487,-0.147541,0.480002,-1199.84,9712.35,-593.435,0.155134,1.85599,1.15758,-1407.91,-9862.6,-300.978,0.765108,2.89385,0.451323,-1853.76,9433.12,-1113.18,1.84315,4.14338,0.772006,-557.427,-10043.8,-1544.94,1.68423,15.4774,-1.80189,8613.04,788.284,4097.01,1.98669,-1.71864,-2.82352
0.298,3423.22,-3654.06,8371.52,0.0883364,1.96958,1.72647,3758.54,3385.96,8224.86,-3.40797,-0.215047,0.490441,-1194.59,9705.43,-598.882,0.16503,1.75405,1.15462,-1417.94,-9861.64,-291.928,0.780833,2.69242,0.421232,-1853.92,9430.72,-1102.22,1.86719,4.16724,0.713864,-561.947,-10061.3,-1535.46,1.6936,15.4922,-1.82485,8581.28,772.331,4095.18,2.06025,-1.67318,-2.88328
0.299,3432.66,-3654.02,8370.22,0.122153,1.979,1.76251,3772.29,3391.57,8248.35,-3.17046,-0.123762,0.539952,-1197.71,9702.45,-600.372,0.175937,1.68492,1.2241,-1425.37,-9878.12,-262.054,0.74033,2.61842,0.37923,-1828.84,9435.04,-1090.96,1.9517,4.05321,0.699666,-592.789,-10071.0,-1531.83,1.70072,15.4866,-1.94541,8576.72,759.671,4108.74,2.16368,-1.69335,-2.94127
0.3,3442.1,-3653.98,8368.92,0.155969,1.98842,1.79856,3786.04,3397.18,8271.84,-2.93295,-0.0324762,0.589462,-1200.83,9699.47,-601.863,0.186844,1.61579,1.29358,-1432.8,-9894.6,-232.18,0.699826,2.54442,0.337227,-1803.77,9439.36,-1079.69,2.03622,3.93919,0.685467,-623.631,-10080.8,-1528.19,1.70785,15.4811,-2.06597,8572.17,747.011,4122.3,2.26711,-1.71352,-2.99925
0.301,3451.54,-3653.94,8367.61,0.189786,1.99783,1.8346,3799.78,3402.78,8295.34,-2.69543,0.0588093,0.638972,-1203.95,9696.49,-603.354,0.197751,1.54666,1.36306,-1440.23,-9911.08,-202.306,0.659322,2.47042,0.295225,-1778.7,9443.67,-1068.43,2.12074,3.82516,0.671269,-654.473,-10090.5,-1524.56,1.71497,15.4756,-2.18652,8567.61,734.352,4135.86,2.37054,-1.73369,-3.05724
0.302,3460.98,-3653.9,8366.31,0.223603,2.00725,1.87065,3813.53,3408.39,8318.83,-2.45792,0.150095,0.688482,-1207.07,9693.5,-604.845,0.208659,1.47754,1.43254,-1447.66,-9927.56,-172.432,0.618819,2.39642,0.253223,-1753.63,9447.99,-1057.17,2.20526,3.71113,0.657071,-685.315,-10100.2,-1520.93,1.72209,15.4701,-2.30708,8563.06,721.692,4149.41,2.47397,-1.75387,-3.11523
0.303,3447.98,-3660.92,8355.67,0.0728656,2.06026,1.8408,3818.33,3399.43,8310.96,-2.2953,0.108569,0.695878,-1214.63,9700.46,-610.669,0.269458,1.45652,1.51349,-1437.17,-9919.84,-171.085,0.603212,2.24378,0.225902,-1744.25,9460.09,-1054.74,2.27451,3.53339,0.703368,-730.771,-10101.4,-1492.52,1.75591,15.4209,-2.32469,8562.38,730.829,4155.23,2.53012,-1.77875,-3.1099
0.304,3428.58,-3669.95,8342.35,-0.130601,2.12572,1.79212,3820.57,3386.31,8294.14,-2.15407,0.029098,0.691242,-1223.46,9710.25,-617.731,0.344512,1.44924,1.59772,-1421.57,-9905.21,-177.889,0.594718,2.06867,0.202776,-1739.36,9474.41,-1054.84,2.33939,3.33745,0.766951,-780.403,-10100.3,-1457.04,1.79736,15.3594,-2.31289,8562.81,746.193,4158.84,2.57277,-1.80499,-3.08648
0.305,3409.17,-3678.98,8329.04,-0.334067,2.19119,1.74344,3822.8,3373.19,8277.31,-2.01285,-0.0503734,0.686605,-1232.28,9720.04,-624.793,0.419566,1.44196,1.68195,-1405.96,-9890.58,-184.692,0.586224,1.89356,0.17965,-1734.47,9488.74,-1054.94,2.40428,3.1415,0.830534,-830.035,-10099.1,-1421.56,1.83881,15.2978,-2.30108,8563.24,761.557,4162.45,2.61541,-1.83122,-3.06307
0.306,3389.77,-3688.02,8315.73,-0.537534,2.25666,1.69476,3825.04,3360.07,8260.49,-1.87162,-0.129845,0.681968,-1241.11,9729.84,-631.855,0.49462,1.43468,1.76617,-1390.36,-9875.95,-191.496,0.577731,1.71846,0.156523,-1729.58,9503.06,-1055.05,2.46916,2.94556,0.894116,-879.667,-10098.0,-1386.09,1.88026,15.2362,-2.28928,8563.67,776.921,4166.05,2.65805,-1.85746,-3.03965
0.307,3374.35,-3689.8,8318.51,-0.586324,2.28865,1.64381,3836.64,3345.88,8245.43,-1.7723,-0.248052,0.605544,-1247.35,9741.07,-638.435,0.53076,1.44158,1.84922,-1383.47,-9864.19,-195.729,0.571691,1.5278,0.120252,-1729.84,9508.14,-1058.07,2.51956,2.76584,0.907179,-924.168,-10098.0,-1357.64,1.92042,15.1154,-2.27689,8572.01,787.816,4172.29,2.67934,-1.92748,-3.05446
0.308,3366.9,-3677.08,8353.48,-0.32576,2.25368,1.58833,3866.96,3329.58,8233.89,-1.7568,-0.443731,0.385545,-1248.41,9755.17,-644.048,0.489072,1.47684,1.92989,-1394.02,-9858.15,-194.822,0.570558,1.30603,0.05769,-1740.41,9494.73,-1066.96,2.54096,2.61858,0.819203,-958.408,-10100.5,-1343.28,1.958,14.8764,-2.26335,8596.17,789.772,4183.79,2.65791,-2.08508,-3.14572
0.309,3359.46,-3664.37,8388.45,-0.0651969,2.21871,1.53284,3897.27,3313.28,8222.35,-1.74129,-0.63941,0.165547,-1249.47,9769.28,-649.662,0.447384,1.51209,2.01056,-1404.57,-9852.11,-193.914,0.569426,1.08427,-0.00487193,-1750.97,9481.32,-1075.85,2.56237,2.47131,0.731227,-992.647,-10103.0,-1328.92,1.99559,14.6373,-2.24981,8620.33,791.729,4195.29,2.63648,-2.24267,-3.23699
0.31,3352.02,-3651.65,8423.42,0.195367,2.18374,1.47736,3927.59,3296.98,8210.81,-1.72579,-0.835088,-0.0544521,-1250.53,9783.38,-655.276,0.405697,1.54735,2.09124,-1415.11,-9846.06,-193.007,0.568294,0.862502,-0.0674339,-1761.54,9467.91,-1084.73,2.58377,2.32405,0.643251,-1026.89,-10105.5,-1314.56,2.03317,14.3983,-2.23627,8644.49,793.685,4206.79,2.61506,-2.40027,-3.32825
0.311,3344.57,-3638.93,8458.39,0.45593,2.14877,1.42187,3957.9,3280.68,8199.27,-1.71028,-1.03077,-0.274451,-1251.59,9797.49,-660.89,0.364009,1.5826,2.17191,-1425.66,-9840.02,-192.1,0.567161,0.640737,-0.129996,-1772.1,9454.5,-1093.62,2.60517,2.17679,0.555275,-1061.12,-10108.0,-1300.19,2.07076,14.1592,-2.22273,8668.65,795.641,4218.29,2.59363,-2.55787,-3.41952
0.312,3345.3,-3624.94,8452.92,0.345413,2.04931,1.44841,3953.75,3291.71,8204.67,-1.57793,-0.975914,-0.204804,-1260.11,9781.84,-654.105,0.317655,1.58652,2.16359,-1423.81,-9826.54,-198.522,0.572339,0.521726,-0.158374,-1773.71,9464.86,-1082.72,2.57465,2.10395,0.428244,-1075.08,-10101.2,-1300.05,1.96652,13.8999,-2.17686,8690.76,800.967,4221.98,2.71289,-2.59299,-3.44727
0.313,3347.04,-3610.79,8442.4,0.188511,1.94178,1.4852,3945.28,3306.16,8212.19,-1.43098,-0.889745,-0.0989514,-1269.56,9762.48,-645.769,0.270719,1.58652,2.14414,-1420.41,-9812.14,-205.861,0.578306,0.41556,-0.182479,-1774.19,9478.2,-1069.34,2.53762,2.04041,0.29633,-1086.49,-10093.1,-1301.68,1.84456,13.6382,-2.12695,8712.62,806.714,4224.7,2.84972,-2.6128,-3.46708
0.314,3348.79,-3596.64,8431.88,0.0316096,1.83426,1.52199,3936.81,3320.61,8219.71,-1.28403,-0.803575,0.00690118,-1279.01,9743.11,-637.434,0.223782,1.58652,2.1247,-1417.01,-9797.73,-213.2,0.584273,0.309393,-0.206583,-1774.68,9491.53,-1055.97,2.5006,1.97687,0.164416,-1097.9,-10085.1,-1303.31,1.7226,13.3764,-2.07703,8734.47,812.461,4227.42,2.98656,-2.63261,-3.48689
0.315,3350.53,-3582.49,8421.36,-0.125292,1.72673,1.55878,3928.34,3335.06,8227.22,-1.13707,-0.717406,0.112754,-1288.47,9723.75,-629.098,0.176846,1.58652,2.10525,-1413.6,-9783.32,-220.539,0.59024,0.203227,-0.230688,-1775.16,9504.87,-1042.59,2.46358,1.91333,0.0325029,-1109.32,-10077.1,-1304.94,1.60063,13.1146,-2.02712,8756.33,818.208,4230.14,3.1234,-2.65243,-3.50671
0.316,3358.97,-3585.07,8420.4,-0.221544,1.69466,1.58587,3918.22,3345.26,8218.92,-1.09698,-0.707568,0.107365,-1289.63,9717.35,-625.451,0.14532,1.55523,2.0801,-1409.88,-9782.0,-230.868,0.549634,0.0629862,-0.24408,-1773.27,9523.63,-1030.17,2.43669,1.82757,-0.0732942,-1126.73,-10061.2,-1300.35,1.49741,12.7937,-1.99635,8777.26,828.522,4232.81,3.20068,-2.68886,-3.52375
0.317,3375.79,-3608.56,8431.38,-0.241982,1.7569,1.60084,3906.04,3350.15,8190.86,-1.19048,-0.793145,-0.037074,-1280.42,9727.17,-627.663,0.133057,1.48484,2.04781,-1405.77,-9797.05,-244.935,0.450812,-0.119847,-0.24408,-1768.39,9549.17,-1018.94,2.42246,1.71405,-0.146446,-1151.64,-10035.3,-1287.98,1.4176,12.3987,-1.98953,8797.04,844.545,4235.41,3.20352,-2.74606,-3.53735
0.318,3392.6,-3632.05,8442.37,-0.26242,1.81914,1.61581,3893.85,3355.04,8162.8,-1.28397,-0.878722,-0.181513,-1271.22,9736.98,-629.876,0.120794,1.41444,2.01552,-1401.65,-9812.1,-259.001,0.35199,-0.30268,-0.24408,-1763.52,9574.71,-1007.71,2.40824,1.60054,-0.219597,-1176.55,-10009.5,-1275.62,1.33779,12.0037,-1.98271,8816.82,860.569,4238.01,3.20635,-2.80326,-3.55095
0.319,3409.42,-3655.54,8453.36,-0.282859,1.88138,1.63077,3881.66,3359.93,8134.73,-1.37746,-0.964298,-0.325953,-1262.01,9746.8,-632.088,0.108532,1.34404,1.98323,-1397.54,-9827.15,-273.068,0.253168,-0.485513,-0.24408,-1758.65,9600.25,-996.476,2.39401,1.48702,-0.292749,-1201.46,-9983.68,-1263.25,1.25798,11.6087,-1.97588,8836.59,876.592,4240.61,3.20918,-2.86047,-3.56454
0.32,3426.23,-3679.03,8464.34,-0.303297,1.94363,1.64574,3869.47,3364.82,8106.67,-1.47095,-1.04988,-0.470392,-1252.81,9756.61,-634.3,0.0962689,1.27365,1.95094,-1393.43,-9842.2,-287.135,0.154346,-0.668346,-0.24408,-1753.77,9625.79,-985.244,2.37978,1.3735,-0.3659,-1226.37,-9957.85,-1250.88,1.17817,11.2137,-1.96906,8856.37,892.615,4243.21,3.21202,-2.91767,-3.57814
0.321,3408.78,-3661.8,8481.6,-0.290237,2.03991,1.59228,3878.09,3380.82,8120.12,-1.32091,-1.16067,-0.375749,-1249.77,9754.16,-630.685,0.179767,1.12648,2.01484,-1395.08,-9849.28,-306.93,0.0775023,-0.860788,-0.3599,-1749.16,9616.5,-992.327,2.36938,1.21429,-0.358885,-1238.15,-9936.16,-1237.66,1.08083,10.7197,-1.95701,8846.77,887.552,4234.68,3.16138,-2.98954,-3.48509
0.322,3391.32,-3644.57,8498.85,-0.277177,2.1362,1.53882,3886.71,3396.82,8133.56,-1.17088,-1.27146,-0.281106,-1246.73,9751.71,-627.069,0.263266,0.97932,2.07874,-1396.73,-9856.37,-326.725,0.000658164,-1.05323,-0.475719,-1744.54,9607.22,-999.409,2.35899,1.05508,-0.35187,-1249.93,-9914.46,-1224.43,0.983488,10.2256,-1.94496,8837.17,882.49,4226.15,3.11074,-3.06141,-3.39205
0.323,3373.87,-3627.33,8516.11,-0.264118,2.23249,1.48537,3895.34,3412.81,8147.01,-1.02084,-1.38226,-0.186463,-1243.69,9749.26,-623.453,0.346765,0.832156,2.14264,-1398.38,-9863.45,-346.52,-0.076186,-1.24567,-0.591539,-1739.93,9597.94,-1006.49,2.34859,0.895867,-0.344855,-1261.71,-9892.76,-1211.21,0.886147,9.73149,-1.93292,8827.57,877.427,4217.62,3.0601,-3.13328,-3.29901
0.324,3356.42,-3610.1,8533.37,-0.251058,2.32877,1.43191,3903.96,3428.81,8160.45,-0.870796,-1.49305,-0.0918205,-1240.65,9746.81,-619.837,0.430263,0.684993,2.20654,-1400.04,-9870.54,-366.315,-0.15303,-1.43812,-0.707358,-1735.31,9588.65,-1013.57,2.33819,0.736656,-0.33784,-1273.48,-9871.06,-1197.98,0.788805,9.23741,-1.92087,8817.97,872.364,4209.09,3.00945,-3.20515,-3.20596
0.325,3347.28,-3606.99,8525.8,-0.267785,2.26676,1.35465,3917.67,3437.89,8176.69,-0.795127,-1.54782,-0.0575433,-1239.76,9743.98,-610.875,0.527278,0.584709,2.24346,-1405.29,-9863.33,-373.195,-0.218298,-1.47475,-0.778392,-1735.43,9581.76,-1034.36,2.2675,0.596971,-0.284312,-1275.71,-9855.54,-1194.28,0.660657,8.70005,-1.83176,8802.08,871.929,4216.24,2.9818,-3.23088,-3.08197
0.326,3344.79,-3615.18,8498.37,-0.308343,2.07811,1.25834,3935.46,3441.43,8195.17,-0.778956,-1.55777,-0.0715585,-1240.59,9740.86,-597.637,0.635107,0.521928,2.2588,-1413.42,-9844.68,-369.742,-0.274306,-1.38674,-0.813597,-1739.33,9576.8,-1066.1,2.14856,0.472908,-0.193574,-1270.29,-9844.97,-1198.19,0.507863,8.12808,-1.68099,8781.17,875.195,4235.91,2.97254,-3.21968,-2.93322
