Time,RFoot_accel.x,RFoot_accel.y,RFoot_accel.z,RFoot_gyro.x,RFoot_gyro.y,RFoot_gyro.z,LFoot_accel.x,LFoot_accel.y,LFoot_accel.z,LFoot_gyro.x,LFoot_gyro.y,LFoot_gyro.z,RShank_accel.x,RShank_accel.y,RShank_accel.z,RShank_gyro.x,RShank_gyro.y,RShank_gyro.z,LShank_accel.x,LShank_accel.y,LShank_accel.z,LShank_gyro.x,LShank_gyro.y,LShank_gyro.z,RThigh_accel.x,RThigh_accel.y,RThigh_accel.z,RThigh_gyro.x,RThigh_gyro.y,RThigh_gyro.z,LThigh_accel.x,LThigh_accel.y,LThigh_accel.z,LThigh_gyro.x,LThigh_gyro.y,LThigh_gyro.z,Pelvis_accel.x,Pelvis_accel.y,Pelvis_accel.z,Pelvis_gyro.x,Pelvis_gyro.y,Pelvis_gyro.z
3.78,4374.31,-4531.68,8949.16,-88.8109,355.323,238.683,3941.2,2603.78,8522.23,19.0187,-12.6073,18.4422,5333.38,7703.2,-1940.52,189.466,65.2524,326.125,-552.86,-9856.08,-2730.13,-11.1514,-37.7482,21.243,-7812.07,2932.2,-276.847,-29.7567,161.103,182.684,2563.48,-10062.2,-807.416,-80.7713,-110.116,98.6719,5795.76,-2557.29,1777.74,34.6543,-2.94325,25.2019
3.781,4418.21,-4705.49,9011.3,-88.3692,354.387,239.204,4066.04,2857.13,8504.03,19.4554,-13.1547,18.944,5356.41,7826.92,-1967.79,190.591,66.5992,327.313,-672.297,-9815.24,-2822.85,-10.7279,-37.2475,21.67,-7854.84,2840.47,-301.312,-29.8393,164.164,182.631,2642.59,-10096.0,-922.418,-79.683,-112.605,99.4095,5828.3,-2612.54,1737.63,35.2104,-2.93939,24.7148
3.782,4462.11,-4879.29,9073.43,-87.9275,353.451,239.724,4190.88,3110.49,8485.84,19.8921,-13.7022,19.4458,5379.44,7950.63,-1995.06,191.716,67.946,328.501,-791.735,-9774.39,-2915.57,-10.3045,-36.7469,22.097,-7897.61,2748.73,-325.777,-29.9219,167.225,182.578,2721.71,-10129.9,-1037.42,-78.5947,-115.093,100.147,5860.84,-2667.79,1697.52,35.7664,-2.93552,24.2277
3.783,4590.04,-5035.6,9152.08,-86.9513,352.831,240.362,4411.6,3053.57,8492.34,20.3281,-14.0966,20.2278,5393.31,8079.64,-2000.1,193.121,69.3023,329.66,-903.675,-9859.9,-2835.07,-9.79,-36.119,22.8174,-7949.01,2643.05,-304.162,-29.4064,170.485,181.808,2739.7,-10164.7,-1213.28,-77.0742,-116.656,100.604,5900.94,-2672.92,1670.18,36.2346,-2.91408,23.6927
3.784,4741.98,-5186.91,9235.45,-85.8225,352.301,241.034,4659.72,2908.0,8505.89,20.7639,-14.4473,21.0899,5404.55,8210.15,-1998.79,194.607,70.6614,330.812,-1013.47,-9981.52,-2705.07,-9.24954,-35.4548,23.6216,-8002.88,2533.38,-269.381,-28.72,173.801,180.834,2740.23,-10199.9,-1406.53,-75.4304,-117.956,100.981,5943.18,-2663.71,1646.49,36.6776,-2.88761,23.1441
3.785,4893.91,-5338.22,9318.81,-84.6936,351.771,241.706,4907.84,2762.44,8519.45,21.1998,-14.798,21.952,5415.8,8340.67,-1997.48,196.092,72.0204,331.963,-1123.27,-10103.1,-2575.07,-8.70908,-34.7906,24.4258,-8056.75,2423.71,-234.601,-28.0336,177.118,179.86,2740.75,-10235.1,-1599.78,-73.7865,-119.255,101.358,5985.43,-2654.51,1622.8,37.1206,-2.86114,22.5954
3.786,5045.85,-5489.52,9402.17,-83.5647,351.241,242.377,5155.96,2616.87,8533.0,21.6356,-15.1487,22.8141,5427.05,8471.18,-1996.17,197.577,73.3795,333.114,-1233.07,-10224.7,-2445.08,-8.16863,-34.1264,25.23,-8110.62,2314.04,-199.82,-27.3473,180.435,178.886,2741.28,-10270.2,-1793.03,-72.1426,-120.554,101.735,6027.68,-2645.3,1599.1,37.5636,-2.83466,22.0468
3.787,5227.78,-5668.55,9501.77,-82.3261,350.829,243.008,5348.55,2410.3,8541.71,21.7735,-15.4392,23.3713,5439.2,8593.95,-1970.81,198.913,74.697,334.19,-1298.06,-10354.2,-2300.37,-7.792,-33.6943,25.8951,-8163.55,2229.48,-149.218,-26.792,183.54,177.686,2730.13,-10306.3,-1972.28,-70.4634,-121.605,102.121,6066.03,-2643.42,1576.38,38.0448,-2.92668,21.5469
3.788,5469.7,-5903.0,9633.81,-80.8682,350.652,243.555,5430.08,2081.73,8540.74,21.3157,-15.6094,23.3187,5453.15,8701.23,-1897.35,199.951,75.9315,335.113,-1273.41,-10499.3,-2126.25,-7.74301,-33.7266,26.2822,-8214.62,2195.16,-66.9712,-26.4991,186.225,176.033,2695.62,-10344.1,-2123.51,-68.7133,-122.16,102.526,6096.59,-2656.17,1555.6,38.6024,-3.25566,21.1448
3.789,5711.62,-6137.45,9765.85,-79.4103,350.475,244.103,5511.62,1753.15,8539.77,20.8579,-15.7797,23.2661,5467.09,8808.5,-1823.88,200.989,77.1661,336.037,-1248.77,-10644.4,-1952.12,-7.69403,-33.7588,26.6693,-8265.69,2160.83,15.2752,-26.2062,188.909,174.379,2661.11,-10381.9,-2274.75,-66.9633,-122.715,102.931,6127.15,-2668.92,1534.82,39.16,-3.58465,20.7426
3.79,5953.54,-6371.9,9897.9,-77.9524,350.297,244.651,5593.15,1424.57,8538.8,20.4,-15.9499,23.2136,5481.04,8915.78,-1750.42,202.026,78.4006,336.961,-1224.13,-10789.6,-1778.0,-7.64504,-33.791,27.0565,-8316.76,2126.5,97.5216,-25.9133,191.593,172.726,2626.6,-10419.7,-2425.98,-65.2132,-123.269,103.336,6157.71,-2681.67,1514.05,39.7176,-3.91363,20.3404
3.791,6195.46,-6606.36,10029.9,-76.4945,350.12,245.199,5674.68,1095.99,8537.83,19.9422,-16.1202,23.161,5494.99,9023.05,-1676.96,203.064,79.6351,337.884,-1199.49,-10934.7,-1603.88,-7.59606,-33.8232,27.4436,-8367.83,2092.17,179.768,-25.6204,194.277,171.073,2592.09,-10457.5,-2577.21,-63.4632,-123.824,103.741,6188.27,-2694.41,1493.27,40.2751,-4.24261,19.9382
3.792,6489.28,-6931.87,10159.4,-74.6261,350.247,245.611,5593.7,1022.79,8535.13,18.9013,-16.4201,22.4356,5513.55,9188.65,-1612.6,204.032,81.064,338.616,-1158.98,-10947.9,-1516.16,-7.76069,-34.407,27.685,-8445.72,2081.26,272.351,-26.2653,195.122,169.134,2560.51,-10441.5,-2683.36,-61.7332,-124.152,103.953,6155.78,-2695.0,1513.02,40.8428,-4.38221,19.4794
3.793,6789.59,-7268.77,10288.6,-72.7063,350.411,246.005,5492.4,981.503,8532.21,17.7875,-16.7363,21.6261,5532.68,9361.54,-1549.39,204.991,82.5173,339.323,-1116.49,-10944.5,-1439.25,-7.95202,-35.0598,27.9082,-8526.97,2073.27,366.227,-27.0274,195.738,167.16,2529.3,-10418.7,-2783.87,-60.0057,-124.452,104.14,6115.4,-2694.06,1537.84,41.4118,-4.49814,19.0136
3.794,7089.89,-7605.67,10417.8,-70.7866,350.576,246.4,5391.11,940.218,8529.29,16.6737,-17.0525,20.8166,5551.82,9534.43,-1486.17,205.951,83.9706,340.031,-1074.01,-10941.2,-1362.33,-8.14335,-35.7125,28.1314,-8608.22,2065.28,460.102,-27.7895,196.353,165.186,2498.09,-10395.8,-2884.37,-58.2782,-124.752,104.328,6075.01,-2693.13,1562.66,41.9807,-4.61406,18.5477
3.795,7390.2,-7942.56,10547.0,-68.8669,350.74,246.795,5289.81,898.933,8526.37,15.5599,-17.3687,20.0071,5570.96,9707.32,-1422.96,206.91,85.4239,340.738,-1031.52,-10937.9,-1285.42,-8.33469,-36.3653,28.3546,-8689.46,2057.3,553.978,-28.5515,196.969,163.212,2466.88,-10373.0,-2984.88,-56.5506,-125.052,104.516,6034.63,-2692.19,1587.48,42.5496,-4.72999,18.0818
3.796,7688.12,-8213.03,10696.3,-66.7774,350.943,247.488,5167.53,958.02,8514.18,14.7986,-17.6439,19.4357,5595.7,9890.19,-1383.22,208.26,87.0098,341.463,-983.579,-10924.8,-1248.63,-8.48938,-36.8375,28.5748,-8778.8,2040.33,624.492,-29.7887,196.369,161.266,2419.59,-10349.6,-3028.09,-54.9578,-125.315,104.574,6028.7,-2673.43,1615.22,43.1649,-5.02295,17.6365
3.797,7983.05,-8400.46,10870.8,-64.4759,351.193,248.555,5019.02,1142.57,8490.41,14.4777,-17.8681,19.1619,5627.45,10085.6,-1372.84,210.1,88.7614,342.211,-928.823,-10899.3,-1262.0,-8.59826,-37.0842,28.791,-8878.25,2012.14,665.804,-31.6199,194.248,159.354,2352.19,-10325.5,-2999.67,-53.5335,-125.532,104.472,6065.81,-2632.38,1646.6,43.8382,-5.5372,17.2168
3.798,8277.98,-8587.89,11045.2,-62.1744,351.444,249.622,4870.52,1327.12,8466.64,14.1569,-18.0923,18.8881,5659.21,10280.9,-1362.45,211.939,90.5131,342.958,-874.066,-10873.9,-1275.36,-8.70715,-37.3309,29.0073,-8977.7,1983.96,707.116,-33.451,192.128,157.443,2284.79,-10301.4,-2971.25,-52.1091,-125.749,104.369,6102.93,-2591.33,1677.98,44.5114,-6.05146,16.7971
3.799,8572.91,-8775.31,11219.7,-59.8729,351.694,250.688,4722.01,1511.68,8442.87,13.836,-18.3164,18.6143,5690.96,10476.3,-1352.06,213.778,92.2648,343.706,-819.31,-10848.5,-1288.73,-8.81604,-37.5776,29.2235,-9077.15,1955.77,748.428,-35.2821,190.007,155.531,2217.39,-10277.2,-2942.83,-50.6847,-125.965,104.266,6140.05,-2550.28,1709.36,45.1846,-6.56571,16.3775
3.8,8867.84,-8962.74,11394.1,-57.5713,351.944,251.755,4573.5,1696.23,8419.1,13.5152,-18.5406,18.3405,5722.72,10671.6,-1341.68,215.618,94.0165,344.454,-764.554,-10823.1,-1302.09,-8.92493,-37.8243,29.4398,-9176.6,1927.58,789.74,-37.1132,187.887,153.62,2149.99,-10253.1,-2914.41,-49.2603,-126.182,104.164,6177.17,-2509.24,1740.74,45.8578,-7.07996,15.9578
3.801,9139.61,-8981.82,11545.9,-55.4783,352.445,253.808,4531.42,1750.28,8419.99,13.7863,-18.9756,18.4143,5731.48,10884.5,-1334.53,217.187,96.6959,345.386,-760.17,-10803.5,-1339.28,-9.18724,-37.8386,29.7324,-9268.05,1880.15,816.796,-39.3755,183.316,151.793,2121.66,-10198.9,-2923.23,-47.7602,-126.279,103.999,6146.19,-2467.75,1721.63,46.4455,-7.71342,15.7261
3.802,9411.38,-9000.9,11697.6,-53.3853,352.947,255.861,4489.35,1804.33,8420.89,14.0574,-19.4107,18.4881,5740.25,11097.4,-1327.39,218.757,99.3753,346.317,-755.786,-10784.0,-1376.47,-9.44956,-37.8529,30.0249,-9359.49,1832.73,843.852,-41.6377,178.744,149.965,2093.33,-10144.7,-2932.05,-46.2601,-126.377,103.835,6115.22,-2426.26,1702.53,47.0332,-8.34689,15.4943
3.803,9683.15,-9019.98,11849.3,-51.2922,353.448,257.914,4447.27,1858.38,8421.78,14.3286,-19.8457,18.562,5749.01,11310.3,-1320.25,220.327,102.055,347.249,-751.402,-10764.5,-1413.65,-9.71188,-37.8672,30.3175,-9450.94,1785.3,870.907,-43.8999,174.173,148.138,2064.99,-10090.6,-2940.87,-44.76,-126.474,103.671,6084.24,-2384.77,1683.42,47.6209,-8.98035,15.2626
3.804,9954.92,-9039.06,12001.1,-49.1992,353.95,259.967,4405.19,1912.43,8422.68,14.5997,-20.2808,18.6358,5757.78,11523.2,-1313.1,221.896,104.734,348.181,-747.018,-10744.9,-1450.84,-9.9742,-37.8815,30.61,-9542.38,1737.88,897.963,-46.1621,169.602,146.311,2036.66,-10036.4,-2949.69,-43.26,-126.572,103.507,6053.27,-2343.28,1664.31,48.2085,-9.61381,15.0308
3.805,10229.7,-9032.31,12144.2,-47.2633,354.574,262.616,4420.23,1909.96,8417.24,14.729,-20.5765,18.7187,5729.37,11776.5,-1298.43,223.218,107.707,349.132,-749.151,-10678.9,-1519.05,-10.216,-38.1353,30.8363,-9643.93,1688.12,934.031,-48.5096,163.852,144.543,2005.17,-9970.36,-2959.67,-41.8323,-126.299,103.352,6042.8,-2298.95,1640.23,48.6898,-10.3388,14.76
3.806,10506.8,-9004.89,12280.5,-45.4532,355.298,265.741,4480.95,1862.27,8406.74,14.7448,-20.7609,18.8089,5671.22,12062.1,-1277.74,224.342,110.915,350.099,-756.499,-10575.6,-1612.1,-10.4413,-38.5809,31.0096,-9753.55,1636.5,977.308,-50.9252,157.159,142.821,1971.16,-9894.89,-2970.59,-40.4627,-125.73,103.205,6048.75,-2252.34,1612.18,49.0861,-11.1371,14.458
3.807,10784.0,-8977.47,12416.8,-43.6431,356.021,268.866,4541.68,1814.59,8396.23,14.7606,-20.9453,18.899,5613.07,12347.8,-1257.04,225.466,114.123,351.065,-763.846,-10472.3,-1705.14,-10.6666,-39.0264,31.183,-9863.17,1584.88,1020.59,-53.3409,150.465,141.1,1937.15,-9819.42,-2981.52,-39.093,-125.161,103.057,6054.7,-2205.73,1584.12,49.4823,-11.9354,14.156
3.808,11061.1,-8950.05,12553.1,-41.8331,356.745,271.991,4602.4,1766.9,8385.72,14.7764,-21.1296,18.9892,5554.92,12633.4,-1236.35,226.59,117.331,352.032,-771.194,-10369.1,-1798.18,-10.8919,-39.472,31.3563,-9972.79,1533.26,1063.86,-55.7565,143.772,139.379,1903.15,-9743.95,-2992.44,-37.7234,-124.592,102.91,6060.64,-2159.12,1556.07,49.8785,-12.7337,13.854
3.809,11341.0,-8903.75,12685.5,-40.0341,357.418,275.253,4658.29,1728.85,8374.86,14.7898,-21.3161,19.0696,5492.41,12925.6,-1214.83,227.665,120.543,353.021,-777.532,-10264.5,-1887.84,-11.1178,-39.8965,31.5762,-10078.5,1483.8,1109.45,-58.2535,136.909,137.698,1874.06,-9675.91,-3003.99,-36.3516,-123.907,102.755,6067.13,-2110.25,1530.45,50.2828,-13.5177,13.5577
3.81,11642.6,-8706.37,12786.0,-38.3243,357.691,279.62,4675.45,1767.87,8361.19,14.7837,-21.5193,19.0721,5395.04,13270.7,-1186.68,228.349,123.793,354.192,-775.792,-10150.1,-1950.41,-11.3489,-40.1532,32.169,-10152.7,1451.66,1173.47,-61.4009,128.684,136.335,1884.31,-9667.27,-3020.62,-34.9623,-122.286,102.539,6077.92,-2043.34,1524.35,50.7522,-14.1878,13.3063
3.811,11944.2,-8508.99,12886.5,-36.6144,357.965,283.986,4692.6,1806.9,8347.51,14.7776,-21.7226,19.0745,5297.67,13615.7,-1158.52,229.032,127.043,355.363,-774.053,-10035.7,-2012.98,-11.5799,-40.4098,32.7617,-10227.0,1419.52,1237.49,-64.5483,120.459,134.973,1894.57,-9658.63,-3037.24,-33.573,-120.665,102.323,6088.72,-1976.42,1518.24,51.2216,-14.8579,13.0549
3.812,12245.8,-8311.61,12987.0,-34.9046,358.238,288.352,4709.76,1845.92,8333.83,14.7715,-21.9258,19.0769,5200.3,13960.7,-1130.37,229.716,130.293,356.534,-772.314,-9921.23,-2075.55,-11.811,-40.6664,33.3545,-10301.2,1387.38,1301.52,-67.6958,112.235,133.611,1904.82,-9649.99,-3053.86,-32.1838,-119.045,102.107,6099.51,-1909.5,1512.14,51.691,-15.5279,12.8035
3.813,12547.4,-8114.23,13087.5,-33.1948,358.511,292.718,4726.92,1884.94,8320.16,14.7653,-22.1291,19.0794,5102.92,14305.7,-1102.22,230.4,133.543,357.704,-770.574,-9806.79,-2138.12,-12.0421,-40.9231,33.9472,-10375.4,1355.24,1365.54,-70.8432,104.01,132.249,1915.08,-9641.35,-3070.49,-30.7945,-117.424,101.891,6110.31,-1842.59,1506.03,52.1604,-16.198,12.5521
3.814,12821.1,-7851.88,13146.1,-32.1853,358.399,297.587,4690.86,1897.0,8348.96,15.0484,-22.2773,19.3312,4936.74,14653.6,-1073.76,230.664,136.959,358.869,-744.277,-9737.71,-2160.4,-12.2403,-41.5246,34.5776,-10449.0,1325.17,1428.76,-74.6449,95.4354,131.305,1916.86,-9598.33,-3056.77,-29.7307,-115.408,101.688,6136.85,-1766.72,1474.0,52.586,-16.7292,12.4017
3.815,13080.9,-7557.05,13183.7,-31.526,358.094,302.707,4628.19,1895.56,8398.99,15.476,-22.3981,19.7077,4736.16,15002.8,-1045.14,230.719,140.456,360.032,-705.702,-9691.32,-2162.53,-12.4222,-42.2986,35.2268,-10522.3,1296.14,1491.58,-78.7738,86.6861,130.57,1914.41,-9538.11,-3027.88,-28.8297,-113.195,101.492,6171.26,-1686.38,1429.0,52.9897,-17.1909,12.3018
3.816,13340.8,-7262.22,13221.3,-30.8667,357.788,307.827,4565.52,1894.13,8449.03,15.9036,-22.5189,20.0842,4535.57,15352.1,-1016.52,230.774,143.954,361.194,-667.127,-9644.92,-2164.67,-12.6041,-43.0726,35.8761,-10595.6,1267.1,1554.4,-82.9026,77.9369,129.835,1911.96,-9477.9,-2998.99,-27.9286,-110.981,101.296,6205.67,-1606.03,1384.0,53.3934,-17.6527,12.2019
3.817,13600.6,-6967.39,13258.9,-30.2074,357.483,312.946,4502.85,1892.69,8499.07,16.3312,-22.6397,20.4607,4334.98,15701.3,-987.897,230.828,147.452,362.357,-628.552,-9598.53,-2166.8,-12.786,-43.8466,36.5253,-10668.9,1238.07,1617.21,-87.0314,69.1877,129.1,1909.51,-9417.68,-2970.1,-27.0276,-108.768,101.1,6240.07,-1525.69,1339.0,53.7971,-18.1144,12.102
3.818,13847.2,-6692.59,13293.5,-29.6761,356.972,317.982,4455.29,1896.55,8540.5,16.7542,-22.8193,20.7988,4136.23,16034.6,-939.915,230.83,150.865,363.485,-598.008,-9561.43,-2170.47,-12.9462,-44.5737,37.2107,-10746.3,1199.67,1671.85,-91.1524,60.6208,128.561,1908.96,-9369.14,-2916.38,-26.2245,-106.62,100.854,6261.88,-1445.03,1302.75,54.2462,-18.5968,12.0364
3.819,14047.6,-6487.89,13317.4,-29.5926,355.743,322.72,4460.62,1918.95,8551.81,17.1612,-23.2049,21.0026,3943.91,16312.3,-824.168,230.645,153.98,364.494,-595.577,-9556.89,-2179.52,-13.0303,-45.1366,38.0224,-10837.8,1128.51,1697.86,-95.2459,52.6922,128.705,1915.05,-9361.46,-2775.76,-25.7644,-104.705,100.436,6239.58,-1363.29,1297.11,54.8543,-19.1518,12.0911
3.82,14248.0,-6283.19,13341.4,-29.5092,354.513,327.458,4465.95,1941.34,8563.11,17.5682,-23.5904,21.2064,3751.59,16589.9,-708.421,230.46,157.095,365.504,-593.146,-9552.34,-2188.57,-13.1143,-45.6996,38.8342,-10929.3,1057.34,1723.86,-99.3394,44.7636,128.849,1921.15,-9353.79,-2635.14,-25.3042,-102.79,100.018,6217.27,-1281.54,1291.47,55.4624,-19.7068,12.1457
3.821,14448.4,-6078.49,13365.3,-29.4257,353.283,332.196,4471.28,1963.74,8574.42,17.9752,-23.976,21.4103,3559.27,16867.5,-592.674,230.276,160.211,366.513,-590.715,-9547.79,-2197.62,-13.1984,-46.2625,39.646,-11020.9,986.182,1749.87,-103.433,36.835,128.994,1927.25,-9346.11,-2494.51,-24.844,-100.875,99.6005,6194.97,-1199.8,1285.83,56.0706,-20.2618,12.2004
3.822,14648.8,-5873.79,13389.3,-29.3422,352.054,336.934,4476.61,1986.13,8585.73,18.3822,-24.3615,21.6141,3366.95,17145.1,-476.928,230.091,163.326,367.522,-588.283,-9543.25,-2206.67,-13.2825,-46.8254,40.4578,-11112.4,915.02,1775.88,-107.526,28.9063,129.138,1933.35,-9338.43,-2353.89,-24.3838,-98.9593,99.1826,6172.66,-1118.05,1280.19,56.6787,-20.8168,12.2551
3.823,14782.1,-5704.72,13413.7,-29.2084,349.997,341.544,4463.19,1992.97,8604.1,18.6405,-24.8075,21.73,3212.26,17398.5,-357.463,229.344,165.973,368.374,-541.157,-9559.97,-2173.8,-12.9774,-47.0848,41.3913,-11157.2,819.765,1706.52,-110.253,23.1649,129.619,1953.48,-9336.63,-2122.71,-24.1547,-97.9422,98.6356,6182.32,-1015.41,1304.09,57.0605,-21.5442,12.3951
3.824,14896.3,-5545.82,13438.2,-29.0601,347.704,346.118,4444.41,1995.35,8624.48,18.8562,-25.2706,21.8207,3068.33,17644.9,-236.937,228.437,168.485,369.181,-481.261,-9582.78,-2128.94,-12.561,-47.2574,42.3595,-11188.6,717.627,1609.91,-112.588,18.0484,130.197,1977.62,-9336.51,-1865.66,-23.9916,-97.1818,98.0518,6201.12,-906.803,1336.43,57.3775,-22.3209,12.5596
3.825,15010.5,-5386.93,13462.8,-28.9119,345.41,350.691,4425.64,1997.74,8644.86,19.072,-25.7338,21.9115,2924.39,17891.4,-116.411,227.529,170.998,369.988,-421.365,-9605.58,-2084.08,-12.1447,-47.43,43.3278,-11219.9,615.49,1513.3,-114.923,12.9319,130.775,2001.76,-9336.39,-1608.61,-23.8285,-96.4213,97.468,6219.91,-798.194,1368.78,57.6946,-23.0976,12.724
3.826,15124.7,-5228.03,13487.4,-28.7637,343.117,355.265,4406.86,2000.12,8665.24,19.2878,-26.197,22.0022,2780.46,18137.8,4.1157,226.622,173.511,370.795,-361.469,-9628.38,-2039.22,-11.7283,-47.6026,44.2961,-11251.3,513.352,1416.7,-117.259,7.81533,131.353,2025.9,-9336.27,-1351.55,-23.6654,-95.6608,96.8842,6238.7,-689.585,1401.12,58.0117,-23.8743,12.8885
3.827,15218.1,-5060.25,13506.6,-28.4745,340.531,359.923,4397.36,1996.65,8671.96,19.4051,-26.6403,22.0818,2648.6,18380.8,128.329,225.547,175.837,371.596,-302.164,-9665.37,-2020.65,-11.3434,-47.7002,45.1654,-11259.5,412.578,1295.93,-118.717,4.3306,131.877,2050.93,-9343.16,-1069.51,-23.5787,-95.5557,96.1611,6264.03,-613.389,1425.72,58.2795,-24.6418,13.0042
3.828,15270.1,-4874.68,13515.4,-27.9033,337.36,364.75,4406.39,1981.47,8651.35,19.3255,-27.0439,22.1389,2540.91,18617.1,259.915,224.135,177.789,372.383,-244.041,-9730.72,-2054.68,-11.0214,-47.648,45.8368,-11221.1,314.531,1126.86,-118.423,4.10946,132.295,2077.73,-9364.09,-737.476,-23.6449,-96.7612,95.1594,6302.41,-602.02,1434.82,58.4487,-25.3908,13.0224
3.829,15322.0,-4689.12,13524.2,-27.3322,334.188,369.576,4415.41,1966.29,8630.73,19.2459,-27.4474,22.1961,2433.22,18853.4,391.501,222.724,179.742,373.17,-185.919,-9796.07,-2088.72,-10.6993,-47.5959,46.5081,-11182.8,216.484,957.784,-118.129,3.88832,132.712,2104.54,-9385.01,-405.444,-23.7111,-97.9667,94.1578,6340.8,-590.65,1443.93,58.6179,-26.1398,13.0406
3.83,15373.9,-4503.55,13532.9,-26.761,331.017,374.403,4424.44,1951.1,8610.12,19.1663,-27.851,22.2533,2325.53,19089.6,523.088,221.312,181.694,373.958,-127.796,-9861.42,-2122.75,-10.3772,-47.5437,47.1795,-11144.4,118.437,788.71,-117.835,3.66717,133.129,2131.35,-9405.94,-73.4121,-23.7773,-99.1722,93.1561,6379.18,-579.281,1453.04,58.7871,-26.8888,13.0589
3.831,15425.9,-4317.99,13541.7,-26.1899,327.845,379.23,4433.47,1935.92,8589.5,19.0867,-28.2546,22.3105,2217.84,19325.9,654.674,219.901,183.646,374.745,-69.6738,-9926.77,-2156.78,-10.0552,-47.4915,47.8508,-11106.1,20.3905,619.635,-117.541,3.44603,133.547,2158.16,-9426.87,258.62,-23.8435,-100.378,92.1545,6417.57,-567.911,1462.14,58.9563,-27.6378,13.0771
3.832,15599.8,-4212.53,13524.7,-25.6352,324.401,383.481,4459.97,1964.39,8599.43,19.3182,-28.5416,22.3487,2129.23,19535.2,745.664,218.655,185.721,375.313,-83.2913,-9959.94,-2232.84,-9.79913,-47.244,48.6042,-10939.4,38.9085,542.336,-115.333,7.50015,133.558,2188.46,-9511.31,571.703,-23.661,-103.886,91.0147,6427.48,-463.229,1483.87,59.2218,-28.3847,13.2445
3.833,15789.0,-4117.07,13504.4,-25.0826,320.922,387.659,4488.66,1998.32,8613.18,19.5886,-28.814,22.3846,2043.02,19741.0,831.58,217.431,187.811,375.854,-105.876,-9989.09,-2314.16,-9.55134,-46.9721,49.3679,-10756.8,71.997,476.51,-112.887,12.0887,133.518,2219.21,-9603.7,882.417,-23.4474,-107.681,89.8577,6433.83,-346.882,1507.17,59.4994,-29.1312,13.4306
3.834,15978.2,-4021.62,13484.2,-24.5299,317.444,391.837,4517.34,2032.26,8626.93,19.859,-29.0864,22.4205,1956.8,19946.9,917.495,216.206,189.9,376.395,-128.461,-10018.2,-2395.48,-9.30356,-46.7003,50.1316,-10574.1,105.086,410.683,-110.44,16.6772,133.478,2249.96,-9696.08,1193.13,-23.2337,-111.477,88.7007,6440.19,-230.535,1530.48,59.7769,-29.8778,13.6167
3.835,16167.4,-3926.17,13464.0,-23.9772,313.965,396.015,4546.03,2066.19,8640.68,20.1294,-29.3589,22.4564,1870.59,20152.8,1003.41,214.981,191.99,376.936,-151.046,-10047.4,-2476.8,-9.05577,-46.4284,50.8952,-10391.4,138.174,344.857,-107.994,21.2657,133.439,2280.71,-9788.47,1503.84,-23.0201,-115.273,87.5437,6446.54,-114.189,1553.78,60.0544,-30.6243,13.8028
3.836,16382.7,-3928.26,13417.5,-23.1735,310.57,399.676,4570.33,2113.1,8642.98,20.2216,-29.6668,22.4619,1789.88,20358.7,1060.69,213.797,194.046,377.133,-169.328,-10061.4,-2550.68,-8.84018,-46.1279,51.7146,-10132.0,201.619,368.569,-105.236,26.6853,133.278,2308.43,-9864.65,1735.9,-22.4002,-119.828,86.201,6464.26,-26.8269,1554.89,60.3306,-31.5014,13.8932
3.837,16630.7,-4052.28,13338.2,-22.0558,307.28,402.691,4589.14,2176.22,8630.96,20.0912,-30.0192,22.4296,1716.07,20564.8,1082.18,212.664,196.06,376.899,-182.231,-10056.5,-2615.26,-8.66483,-45.7916,52.6035,-9776.67,303.008,504.205,-102.089,33.1438,132.964,2332.39,-9920.59,1869.64,-21.2725,-125.332,84.6263,6496.19,24.3037,1528.27,60.6049,-32.5415,13.8642
3.838,16878.8,-4176.29,13258.9,-20.9382,303.99,405.707,4607.96,2239.35,8618.94,19.9608,-30.3716,22.3973,1642.26,20770.9,1103.67,211.531,198.073,376.665,-195.134,-10051.6,-2679.84,-8.48948,-45.4552,53.4924,-9421.35,404.397,639.841,-98.9426,39.6022,132.651,2356.34,-9976.52,2003.38,-20.1448,-130.836,83.0515,6528.11,75.4344,1501.64,60.8793,-33.5817,13.8351
3.839,17126.8,-4300.31,13179.6,-19.8205,300.699,408.722,4626.77,2302.48,8606.92,19.8304,-30.724,22.365,1568.44,20977.0,1125.16,210.398,200.087,376.431,-208.037,-10046.6,-2744.42,-8.31413,-45.1189,54.3813,-9066.03,505.786,775.477,-95.7958,46.0607,132.338,2380.29,-10032.5,2137.12,-19.0171,-136.341,81.4767,6560.03,126.565,1475.01,61.1537,-34.6218,13.8061
3.84,17374.8,-4424.33,13100.3,-18.7028,297.409,411.737,4645.59,2365.61,8594.91,19.7,-31.0763,22.3327,1494.63,21183.0,1146.65,209.264,202.101,376.197,-220.94,-10041.7,-2809.0,-8.13879,-44.7825,55.2703,-8710.71,607.175,911.112,-92.649,52.5191,132.025,2404.25,-10088.4,2270.85,-17.8894,-141.845,79.9019,6591.96,177.696,1448.39,61.4281,-35.662,13.7771
3.841,17714.4,-4650.02,13022.9,-16.0994,294.222,413.787,4654.36,2424.7,8564.93,19.7433,-31.5146,22.9293,1332.81,21439.4,1039.07,208.055,204.361,375.291,-208.874,-10016.0,-2827.49,-7.98134,-44.2608,56.166,-8339.77,724.603,1092.01,-90.4399,57.567,131.442,2501.12,-10193.6,2107.07,-14.982,-147.247,78.0843,6633.54,224.861,1388.43,61.6394,-36.3803,13.9951
3.842,18054.1,-4875.71,12945.4,-13.4959,291.035,415.837,4663.14,2483.8,8534.96,19.7866,-31.9528,23.5258,1170.99,21695.8,931.48,206.846,206.62,374.385,-196.808,-9990.23,-2845.99,-7.8239,-43.7392,57.0618,-7968.82,842.031,1272.9,-88.2309,62.6148,130.859,2597.99,-10298.9,1943.28,-12.0746,-152.649,76.2667,6675.12,272.026,1328.48,61.8506,-37.0987,14.2131
3.843,18393.7,-5101.4,12867.9,-10.8924,287.847,417.888,4671.91,2542.89,8504.98,19.83,-32.391,24.1224,1009.17,21952.2,823.894,205.638,208.88,373.478,-184.741,-9964.49,-2864.49,-7.66646,-43.2175,57.9575,-7597.87,959.458,1453.8,-86.0219,67.6627,130.276,2694.86,-10404.1,1779.5,-9.16718,-158.052,74.4491,6716.7,319.191,1268.53,62.0619,-37.8171,14.4312
3.844,18733.3,-5327.08,12790.4,-8.2889,284.66,419.938,4680.69,2601.99,8475.01,19.8733,-32.8293,24.7189,847.351,22208.6,716.308,204.429,211.14,372.572,-172.675,-9938.75,-2882.99,-7.50902,-42.6959,58.8533,-7226.92,1076.89,1634.69,-83.8129,72.7106,129.693,2791.74,-10509.4,1615.71,-6.25976,-163.454,72.6315,6758.28,366.357,1208.58,62.2731,-38.5354,14.6492
3.845,19056.2,-5496.49,12725.0,-4.88052,281.359,421.366,4673.71,2602.31,8474.82,20.0464,-33.1748,25.2208,666.175,22472.0,599.566,203.038,213.247,371.28,-164.583,-9914.6,-2872.31,-7.34999,-42.1683,59.7828,-6886.18,1185.37,1782.63,-82.0629,76.0954,128.851,2867.66,-10595.1,1324.8,-2.89276,-167.495,70.9013,6820.56,385.424,1147.21,62.5104,-39.068,14.7019
3.846,19365.6,-5620.86,12669.2,-0.828215,277.966,422.296,4654.14,2555.6,8498.45,20.3235,-33.4462,25.6468,469.514,22740.9,475.5,201.503,215.232,369.68,-159.672,-9891.72,-2838.29,-7.18968,-41.6359,60.7395,-6569.6,1286.69,1904.19,-80.6803,78.1499,127.802,2926.83,-10665.2,932.196,0.84189,-170.446,69.2411,6899.4,382.014,1084.7,62.7685,-39.452,14.6224
3.847,19675.1,-5745.23,12613.4,3.22409,274.573,423.226,4634.57,2508.89,8522.09,20.6005,-33.7175,26.0728,272.853,23009.8,351.434,199.968,217.217,368.08,-154.76,-9868.85,-2804.27,-7.02937,-41.1036,61.6961,-6253.02,1388.02,2025.75,-79.2976,80.2044,126.752,2986.0,-10735.4,539.589,4.57654,-173.398,67.5809,6978.24,378.603,1022.2,63.0266,-39.836,14.5428
3.848,19984.6,-5869.6,12557.6,7.27639,271.181,424.156,4615.0,2462.19,8545.72,20.8775,-33.9889,26.4988,76.192,23278.8,227.368,198.433,219.202,366.481,-149.849,-9845.97,-2770.25,-6.86906,-40.5712,62.6528,-5936.44,1489.35,2147.31,-77.915,82.2589,125.703,3045.17,-10805.5,146.983,8.3112,-176.35,65.9206,7057.09,375.193,959.697,63.2848,-40.22,14.4632
3.849,20278.8,-5962.25,12513.4,11.3055,267.706,425.01,4598.93,2410.53,8563.39,21.1111,-34.2551,26.8948,-127.374,23551.3,108.365,196.847,221.062,364.863,-148.322,-9820.79,-2734.33,-6.71237,-40.0745,63.6013,-5626.28,1593.42,2253.85,-76.6193,84.0219,124.641,3105.46,-10868.2,-257.349,11.9634,-178.936,64.2838,7131.89,369.9,894.812,63.5365,-40.5289,14.3904
3.85,20450.9,-5801.06,12562.4,15.1493,263.574,425.25,4610.89,2319.26,8533.29,20.9979,-34.4801,27.0506,-386.18,23852.3,29.8683,194.849,221.913,363.106,-173.872,-9777.17,-2683.23,-6.58463,-39.8624,64.4846,-5367.51,1719.44,2240.28,-76.0196,83.4527,123.479,3174.7,-10871.9,-755.478,14.9558,-178.6,62.8344,7174.37,349.546,810.88,63.7372,-40.2374,14.3712
3.851,20623.0,-5639.87,12611.5,18.9931,259.443,425.49,4622.84,2227.99,8503.19,20.8848,-34.7052,27.2063,-644.985,24153.2,-48.6285,192.85,222.765,361.349,-199.423,-9733.55,-2632.13,-6.45688,-39.6502,65.3679,-5108.74,1845.46,2226.71,-75.4199,82.8834,122.318,3243.94,-10875.5,-1253.61,17.9483,-178.265,61.385,7216.85,329.193,726.948,63.938,-39.9459,14.352
3.852,20795.2,-5478.68,12660.5,22.8369,255.311,425.731,4634.8,2136.72,8473.09,20.7716,-34.9302,27.362,-903.791,24454.2,-127.125,190.852,223.616,359.591,-224.974,-9689.93,-2581.03,-6.32914,-39.4381,66.2511,-4849.96,1971.48,2213.14,-74.8203,82.3142,121.157,3313.18,-10879.2,-1751.74,20.9407,-177.929,59.9355,7259.33,308.839,643.016,64.1387,-39.6544,14.3328
3.853,20967.3,-5317.49,12709.5,26.6807,251.18,425.971,4646.76,2045.45,8442.99,20.6585,-35.1552,27.5178,-1162.6,24755.2,-205.622,188.854,224.468,357.834,-250.525,-9646.31,-2529.93,-6.2014,-39.226,67.1344,-4591.19,2097.5,2199.56,-74.2206,81.7449,119.996,3382.42,-10882.8,-2249.87,23.9332,-177.593,58.4861,7301.81,288.485,559.084,64.3395,-39.3629,14.3136
3.854,21112.4,-5024.39,12782.5,29.547,246.741,425.721,4670.49,2012.23,8423.19,20.4239,-35.3134,27.5324,-1425.16,25065.1,-216.607,186.495,224.131,356.293,-292.996,-9642.88,-2473.01,-6.04168,-39.0047,68.0007,-4310.1,2212.21,2106.23,-73.6928,80.4592,118.698,3437.08,-10815.0,-2660.45,25.2249,-175.204,57.3394,7371.69,266.669,481.492,64.7024,-38.8291,14.3587
3.855,21243.9,-4665.34,12867.4,31.9245,242.15,425.227,4700.11,2008.03,8408.54,20.1287,-35.438,27.4765,-1689.61,25379.3,-193.837,183.956,223.199,354.86,-343.927,-9659.56,-2413.17,-5.86598,-38.7788,68.8585,-4017.85,2321.28,1973.02,-73.201,78.8153,117.331,3484.45,-10711.4,-3027.26,25.6663,-171.788,56.3441,7455.27,244.121,407.07,65.1465,-38.1742,14.4359
3.856,21375.5,-4306.29,12952.3,34.302,237.558,424.733,4729.72,2003.83,8393.89,19.8335,-35.5627,27.4206,-1954.06,25693.6,-171.066,181.417,222.267,353.427,-394.859,-9676.24,-2353.32,-5.69028,-38.5528,69.7164,-3725.6,2430.34,1839.81,-72.7092,77.1714,115.965,3531.81,-10607.8,-3394.08,26.1076,-168.372,55.3489,7538.85,221.574,332.649,65.5905,-37.5193,14.513
3.857,21507.1,-3947.24,13037.2,36.6795,232.967,424.238,4759.34,1999.63,8379.24,19.5383,-35.6874,27.3647,-2218.51,26007.8,-148.296,178.879,221.335,351.993,-445.79,-9692.92,-2293.48,-5.51458,-38.3269,70.5742,-3433.35,2539.4,1706.59,-72.2174,75.5274,114.599,3579.18,-10504.3,-3760.89,26.549,-164.956,54.3536,7622.43,199.026,258.227,66.0346,-36.8644,14.5902
3.858,21637.2,-3614.87,13092.5,38.5836,228.394,423.494,4783.67,1996.95,8367.15,19.2801,-35.8301,27.3398,-2491.59,26317.3,-130.892,176.248,220.088,350.595,-489.071,-9712.68,-2237.94,-5.31038,-38.1006,71.427,-3141.98,2656.62,1565.41,-71.7326,74.0157,113.117,3617.41,-10389.2,-4079.43,26.4102,-161.218,53.5202,7709.77,162.749,208.682,66.4759,-36.1428,14.6497
3.859,21762.4,-3375.9,13044.1,38.8304,223.889,421.879,4789.48,1999.61,8364.04,19.151,-36.0355,27.4237,-2794.91,26610.1,-132.273,173.298,217.735,349.316,-505.573,-9743.26,-2197.43,-5.00641,-37.8732,72.2624,-2853.69,2802.38,1396.33,-71.2722,72.9664,111.23,3623.69,-10233.7,-4229.0,24.2406,-156.352,53.2536,7810.21,78.4196,246.207,66.9077,-35.1879,14.6472
3.86,21887.5,-3136.92,12995.8,39.0773,219.384,420.263,4795.3,2002.27,8360.93,19.022,-36.2408,27.5077,-3098.23,26902.9,-133.654,170.348,215.382,348.038,-522.074,-9773.83,-2156.92,-4.70244,-37.6457,73.0978,-2565.4,2948.15,1227.25,-70.8118,71.9172,109.343,3629.96,-10078.3,-4378.58,22.0711,-151.486,52.9869,7910.66,-5.90973,283.731,67.3394,-34.2329,14.6446
3.861,22012.7,-2897.94,12947.5,39.3241,214.879,418.647,4801.12,2004.93,8357.82,18.8929,-36.4462,27.5916,-3401.55,27195.7,-135.036,167.397,213.029,346.76,-538.576,-9804.41,-2116.41,-4.39847,-37.4182,73.9332,-2277.11,3093.91,1058.17,-70.3514,70.868,107.457,3636.24,-9922.89,-4528.15,19.9015,-146.619,52.7203,8011.11,-90.239,321.256,67.7712,-33.2779,14.6421
3.862,22137.9,-2658.97,12899.2,39.571,210.374,417.031,4806.93,2007.59,8354.71,18.7638,-36.6516,27.6755,-3704.87,27488.5,-136.417,164.447,210.676,345.482,-555.077,-9834.98,-2075.9,-4.0945,-37.1908,74.7686,-1988.83,3239.68,889.087,-69.891,69.8187,105.57,3642.52,-9767.47,-4677.73,17.732,-141.753,52.4536,8111.56,-174.568,358.78,68.203,-32.3229,14.6396
3.863,22383.5,-2657.56,12776.6,39.1854,206.515,414.072,4800.6,1985.64,8346.6,18.6583,-36.907,27.5772,-4042.56,27686.4,-246.981,161.87,208.02,344.52,-585.773,-9852.19,-2027.72,-3.79212,-36.8418,75.5905,-1759.25,3439.52,761.947,-69.3046,70.0504,103.178,3622.12,-9608.78,-4707.64,14.9178,-136.965,52.6651,8189.71,-240.89,413.734,68.553,-31.5082,14.5356
3.864,22663.5,-2724.03,12632.8,38.6191,202.842,410.728,4790.79,1956.66,8337.06,18.5595,-37.1766,27.4268,-4390.09,27857.3,-388.741,159.4,205.277,343.647,-620.523,-9865.58,-1977.34,-3.49021,-36.4581,76.4085,-1546.45,3654.8,646.79,-68.6821,70.648,100.642,3594.1,-9449.15,-4703.37,11.9194,-132.199,53.0132,8261.48,-302.066,473.667,68.8798,-30.7336,14.4027
3.865,22943.5,-2790.5,12489.0,38.0528,199.169,407.385,4780.98,1927.68,8327.52,18.4606,-37.4463,27.2764,-4737.61,28028.2,-530.5,156.93,202.534,342.775,-655.274,-9878.97,-1926.96,-3.1883,-36.0744,77.2264,-1333.65,3870.09,531.633,-68.0597,71.2457,98.1058,3566.09,-9289.53,-4699.1,8.92109,-127.433,53.3613,8333.25,-363.242,533.6,69.2065,-29.959,14.2697
3.866,23223.5,-2856.98,12345.2,37.4865,195.496,404.041,4771.18,1898.7,8317.98,18.3618,-37.7159,27.126,-5085.13,28199.1,-672.26,154.46,199.792,341.903,-690.025,-9892.35,-1876.58,-2.88638,-35.6907,78.0444,-1120.85,4085.38,416.475,-67.4372,71.8433,95.5696,3538.07,-9129.91,-4694.82,5.92273,-122.667,53.7094,8405.02,-424.419,593.533,69.5332,-29.1844,14.1367
3.867,23549.9,-3002.33,12160.3,37.1905,192.246,400.153,4770.01,1868.94,8338.8,18.3557,-38.0046,26.974,-5455.45,28349.3,-824.134,152.286,196.946,340.953,-712.094,-9915.74,-1822.88,-2.51462,-35.3129,78.8469,-940.187,4308.17,326.147,-66.6539,72.8662,92.9597,3516.31,-8988.38,-4658.46,3.40008,-118.242,54.2387,8473.34,-492.715,647.123,69.8728,-28.4961,14.0534
3.868,23969.2,-3305.45,11893.3,37.435,189.841,395.177,4786.12,1837.6,8420.33,18.535,-38.3313,26.8189,-5871.38,28458.2,-996.236,150.702,193.896,339.849,-708.8,-9959.13,-1762.53,-2.00316,-34.9468,79.6185,-823.788,4545.97,285.475,-65.5488,74.7398,90.2024,3507.08,-8883.04,-4557.9,1.82886,-114.499,55.1304,8534.76,-575.25,688.029,70.2381,-27.9804,14.0696
3.869,24388.5,-3608.56,11626.3,37.6796,187.437,390.201,4802.23,1806.26,8501.86,18.7143,-38.658,26.6638,-6287.32,28567.0,-1168.34,149.118,190.846,338.744,-705.506,-10002.5,-1702.18,-1.4917,-34.5808,80.3901,-707.389,4783.77,244.803,-64.4436,76.6133,87.4451,3497.85,-8777.71,-4457.34,0.257641,-110.756,56.0222,8596.18,-657.785,728.935,70.6034,-27.4648,14.0857
3.87,24807.8,-3911.68,11359.2,37.9242,185.032,385.225,4818.34,1774.92,8583.4,18.8935,-38.9848,26.5087,-6703.25,28675.9,-1340.44,147.533,187.796,337.64,-702.212,-10045.9,-1641.83,-0.980236,-34.2148,81.1617,-590.99,5021.56,204.132,-63.3385,78.4869,84.6878,3488.61,-8672.38,-4356.78,-1.31358,-107.013,56.914,8657.6,-740.319,769.841,70.9687,-26.9491,14.1018
3.871,25227.1,-4214.8,11092.2,38.1687,182.628,380.25,4834.44,1743.58,8664.93,19.0728,-39.3115,26.3535,-7119.18,28784.8,-1512.54,145.949,184.746,336.536,-698.918,-10089.3,-1581.49,-0.468776,-33.8488,81.9333,-474.591,5259.36,163.46,-62.2333,80.3604,81.9305,3479.38,-8567.04,-4256.23,-2.8848,-103.27,57.8057,8719.01,-822.854,810.746,71.334,-26.4334,14.118
3.872,25656.0,-4511.46,10748.2,39.1681,181.17,374.238,4821.39,1553.81,8696.72,19.2774,-39.7608,25.8535,-7501.63,28830.0,-1695.89,144.669,181.896,335.308,-704.986,-10157.6,-1525.69,0.0359349,-33.7475,82.5393,-462.721,5517.24,146.929,-60.892,82.883,79.145,3495.78,-8544.74,-4156.55,-2.63741,-100.298,59.0024,8772.52,-918.802,833.612,71.5698,-25.9953,14.0741
3.873,26086.0,-4807.32,10394.7,40.2617,179.829,368.097,4804.7,1344.23,8722.29,19.485,-40.2255,25.3104,-7879.89,28867.3,-1880.64,143.427,179.07,334.064,-712.225,-10229.0,-1470.45,0.539802,-33.6793,83.1247,-463.917,5777.63,133.414,-59.5211,85.4868,76.3559,3515.38,-8532.81,-4056.98,-2.1627,-97.4224,60.2372,8825.03,-1016.43,854.223,71.7894,-25.5669,14.0228
3.874,26516.0,-5103.18,10041.1,41.3554,178.489,361.956,4788.0,1134.66,8747.87,19.6927,-40.6902,24.7672,-8258.16,28904.6,-2065.39,142.185,176.245,332.82,-719.463,-10300.3,-1415.22,1.04367,-33.6111,83.7101,-465.113,6038.02,119.9,-58.1503,88.0906,73.5669,3534.98,-8520.89,-3957.42,-1.68798,-94.5465,61.472,8877.54,-1114.05,874.834,72.0089,-25.1386,13.9715
3.875,26946.0,-5399.04,9687.52,42.4491,177.149,355.814,4771.31,925.086,8773.44,19.9004,-41.1549,24.2241,-8636.42,28941.8,-2250.15,140.943,173.419,331.577,-726.701,-10371.7,-1359.99,1.54753,-33.5429,84.2954,-466.309,6298.42,106.386,-56.7794,90.6944,70.7778,3554.58,-8508.96,-3857.85,-1.21327,-91.6706,62.7067,8930.06,-1211.67,895.445,72.2285,-24.7102,13.9202
3.876,27334.8,-5622.51,9393.45,43.9766,175.954,349.356,4760.32,819.26,8787.75,19.8655,-41.6926,23.5905,-8993.59,28991.4,-2451.36,139.932,170.976,330.06,-754.811,-10435.3,-1322.14,1.96654,-33.5834,84.9141,-474.593,6560.21,109.713,-55.4855,93.367,68.058,3620.9,-8505.03,-3779.42,-0.388782,-88.8295,63.9148,8968.86,-1306.5,887.912,72.4876,-24.262,13.9034
3.877,27672.0,-5755.48,9173.76,46.0462,174.939,342.5,4756.46,843.117,8787.98,19.5274,-42.3214,22.8437,-9324.41,29056.2,-2673.14,139.21,169.013,328.201,-809.012,-10489.0,-1306.02,2.27948,-33.7597,85.5745,-491.737,6823.74,134.091,-54.2877,96.1256,65.4247,3745.61,-8511.1,-3727.42,0.872918,-86.0317,65.0894,8990.54,-1397.82,845.199,72.796,-23.789,13.9298
3.878,28009.3,-5888.46,8954.06,48.1159,173.925,335.645,4752.61,866.973,8788.21,19.1894,-42.9503,22.097,-9655.22,29121.1,-2894.92,138.489,167.049,326.341,-863.214,-10542.8,-1289.9,2.59242,-33.9359,86.2348,-508.881,7087.28,158.469,-53.0899,98.8843,62.7915,3870.32,-8517.16,-3675.42,2.13462,-83.2339,66.264,9012.21,-1489.14,802.487,73.1044,-23.3161,13.9562
3.879,28346.5,-6021.44,8734.36,50.1856,172.91,328.79,4748.76,890.83,8788.44,18.8513,-43.5792,21.3503,-9986.04,29186.0,-3116.7,137.767,165.085,324.482,-917.415,-10596.5,-1273.78,2.90535,-34.1122,86.8951,-526.025,7350.82,182.847,-51.8921,101.643,60.1582,3995.03,-8523.22,-3623.42,3.39632,-80.4361,67.4386,9033.88,-1580.46,759.774,73.4129,-22.8431,13.9826
3.88,28683.8,-6154.42,8514.66,52.2552,171.896,321.934,4744.9,914.687,8788.67,18.5132,-44.208,20.6036,-10316.9,29250.8,-3338.48,137.045,163.122,322.623,-971.616,-10650.2,-1257.66,3.21829,-34.2884,87.5555,-543.169,7614.36,207.225,-50.6943,104.402,57.5249,4119.74,-8529.29,-3571.42,4.65802,-77.6383,68.6132,9055.55,-1671.78,717.062,73.7213,-22.3701,14.009
3.881,28917.0,-6094.3,8206.62,52.9717,170.768,314.84,4766.88,1063.71,8801.12,18.5852,-44.9007,20.3168,-10624.3,29316.3,-3612.59,137.032,161.511,321.053,-986.734,-10692.7,-1236.34,3.22561,-34.4446,88.258,-492.475,7902.91,376.19,-50.76,106.826,55.5279,4239.84,-8503.77,-3502.62,4.88173,-74.4793,69.6721,9062.74,-1695.08,656.173,73.4863,-21.5598,13.8214
3.882,29150.2,-6034.17,7898.57,53.6883,169.639,307.745,4788.86,1212.73,8813.56,18.6572,-45.5933,20.03,-10931.8,29381.8,-3886.7,137.019,159.899,319.483,-1001.85,-10735.2,-1215.02,3.23292,-34.6007,88.9606,-441.78,8191.46,545.154,-50.8256,109.251,53.5309,4359.95,-8478.25,-3433.81,5.10543,-71.3204,70.731,9069.93,-1718.37,595.285,73.2513,-20.7495,13.6339
3.883,29383.3,-5974.05,7590.53,54.4048,168.511,300.651,4810.83,1361.75,8826.0,18.7292,-46.286,19.7432,-11239.2,29447.4,-4160.82,137.007,158.288,317.913,-1016.97,-10777.7,-1193.7,3.24023,-34.7568,89.6631,-391.086,8480.02,714.119,-50.8912,111.676,51.5338,4480.06,-8452.73,-3365.01,5.32914,-68.1615,71.7899,9077.12,-1741.67,534.396,73.0162,-19.9392,13.4463
3.884,29616.5,-5913.92,7282.48,55.1213,167.383,293.556,4832.81,1510.78,8838.45,18.8013,-46.9787,19.4564,-11546.7,29512.9,-4434.93,136.994,156.677,316.343,-1032.09,-10820.1,-1172.38,3.24755,-34.9129,90.3657,-340.392,8768.57,883.083,-50.9568,114.101,49.5368,4600.17,-8427.21,-3296.21,5.55285,-65.0025,72.8488,9084.31,-1764.97,473.508,72.7812,-19.1289,13.2587
3.885,29853.3,-5862.51,6861.95,54.8362,166.866,286.012,4821.09,1603.78,8881.26,18.9286,-47.7544,19.2142,-11885.6,29526.3,-4684.12,136.612,154.967,314.75,-992.69,-10866.7,-1168.95,3.25792,-34.9369,91.0927,-205.226,9014.42,1103.47,-51.8563,115.75,47.8523,4728.73,-8393.17,-3193.66,4.75867,-61.72,73.7471,9106.96,-1781.02,441.755,72.3499,-18.3735,13.2228
3.886,30093.0,-5818.05,6351.43,53.7499,166.837,278.11,4782.41,1651.97,8948.37,19.1002,-48.5967,19.0077,-12249.7,29498.2,-4913.38,135.934,153.178,313.139,-909.681,-10916.6,-1179.84,3.27073,-34.8553,91.8393,-2.48383,9226.1,1364.99,-53.4228,116.778,46.4178,4864.07,-8352.3,-3064.1,3.15017,-58.3386,74.5168,9141.99,-1791.27,433.311,71.7615,-17.6619,13.3083
3.887,30332.7,-5773.6,5840.92,52.6636,166.809,270.207,4743.73,1700.16,9015.47,19.2717,-49.439,18.8012,-12613.8,29470.0,-5142.64,135.257,151.389,311.527,-826.671,-10966.4,-1190.73,3.28354,-34.7736,92.5859,200.259,9437.78,1626.52,-54.9894,117.806,44.9833,4999.4,-8311.44,-2934.54,1.54168,-54.9572,75.2866,9177.02,-1801.52,424.867,71.1731,-16.9504,13.3938
3.888,30572.4,-5729.14,5330.4,51.5773,166.781,262.304,4705.05,1748.35,9082.58,19.4433,-50.2812,18.5947,-12977.9,29441.9,-5371.9,134.579,149.6,309.915,-743.661,-11016.2,-1201.62,3.29635,-34.6919,93.3325,403.001,9649.46,1888.04,-56.5559,118.835,43.5488,5134.73,-8270.57,-2804.97,-0.0668063,-51.5758,76.0563,9212.05,-1811.77,416.424,70.5847,-16.2389,13.4794
3.889,30815.2,-5702.55,4826.55,50.4584,166.783,254.312,4668.13,1786.29,9147.28,19.6017,-51.1447,18.3933,-13354.9,29390.5,-5595.04,133.886,147.719,308.288,-663.77,-11064.9,-1211.45,3.34946,-34.5661,94.0717,625.034,9865.66,2139.61,-57.963,119.677,42.253,5261.54,-8234.73,-2670.21,-1.86157,-48.2398,76.7846,9243.16,-1815.54,405.859,69.9657,-15.5585,13.5717
3.89,31083.0,-5818.88,4375.96,49.0792,167.032,245.607,4645.29,1742.23,9192.69,19.6548,-52.1779,18.2329,-13835.9,29154.0,-5769.18,133.067,145.1,306.537,-608.831,-11103.8,-1212.76,3.72492,-34.0868,94.7521,1001.39,10118.0,2311.48,-58.0936,119.03,42.0668,5320.2,-8239.03,-2493.86,-5.14656,-45.267,77.1811,9242.89,-1767.46,378.331,69.1019,-15.1264,13.7192
3.891,31350.7,-5935.2,3925.38,47.6999,167.28,236.903,4622.45,1698.18,9238.1,19.708,-53.211,18.0724,-14316.9,28917.5,-5943.32,132.248,142.482,304.786,-553.891,-11142.6,-1214.08,4.10038,-33.6075,95.4324,1377.74,10370.3,2483.36,-58.2242,118.384,41.8806,5378.86,-8243.34,-2317.5,-8.43154,-42.2942,77.5777,9242.63,-1719.39,350.803,68.2382,-14.6943,13.8666
3.892,31618.5,-6051.53,3474.8,46.3207,167.529,228.199,4599.6,1654.12,9283.51,19.7611,-54.2442,17.912,-14797.9,28681.0,-6117.46,131.429,139.863,303.035,-498.952,-11181.5,-1215.39,4.47584,-33.1282,96.1127,1754.1,10622.6,2655.24,-58.3548,117.737,41.6944,5437.52,-8247.64,-2141.14,-11.7165,-39.3214,77.9742,9242.36,-1671.31,323.275,67.3745,-14.2622,14.0141
3.893,31886.2,-6167.86,3024.21,44.9414,167.778,219.494,4576.76,1610.07,9328.92,19.8142,-55.2773,17.7515,-15278.9,28444.5,-6291.6,130.61,137.245,301.284,-444.012,-11220.4,-1216.7,4.8513,-32.6489,96.793,2130.45,10875.0,2827.11,-58.4854,117.091,41.5082,5496.18,-8251.95,-1964.78,-15.0015,-36.3486,78.3708,9242.09,-1623.24,295.747,66.5107,-13.8302,14.1615
3.894,32172.4,-6268.97,2573.08,43.9525,168.119,211.067,4571.43,1512.16,9389.71,20.2269,-56.5197,17.4841,-15900.4,28095.9,-6423.23,129.93,133.839,298.752,-401.213,-11245.4,-1183.95,5.27367,-32.052,97.5117,2443.62,11104.8,2932.47,-58.7974,115.621,41.372,5479.23,-8297.65,-1731.89,-18.4739,-34.2574,78.5405,9236.15,-1539.74,256.807,65.5204,-13.4313,14.4849
3.895,32467.8,-6362.48,2121.67,43.1587,168.506,202.777,4574.84,1387.33,9458.19,20.8195,-57.8666,17.1633,-16592.2,27691.3,-6533.61,129.319,130.039,295.83,-364.483,-11263.6,-1134.16,5.7195,-31.3963,98.2494,2725.21,11323.3,3004.57,-59.2002,113.74,41.2608,5424.48,-8364.05,-1470.73,-22.0401,-32.607,78.5968,9227.36,-1438.52,212.161,64.4667,-13.049,14.8964
3.896,32763.1,-6455.99,1670.26,42.3649,168.894,194.487,4578.25,1262.49,9526.67,21.412,-59.2135,16.8424,-17284.0,27286.6,-6643.98,128.707,126.24,292.908,-327.754,-11281.7,-1084.37,6.16534,-30.7406,98.9872,3006.79,11541.8,3076.66,-59.6031,111.859,41.1496,5369.73,-8430.46,-1209.58,-25.6063,-30.9566,78.653,9218.58,-1337.31,167.514,63.413,-12.6667,15.3078
3.897,33058.5,-6549.51,1218.85,41.5711,169.281,186.198,4581.67,1137.66,9595.15,22.0045,-60.5604,16.5216,-17975.8,26882.0,-6754.35,128.096,122.44,289.985,-291.024,-11299.9,-1034.58,6.61117,-30.0849,99.7249,3288.37,11760.4,3148.76,-60.0059,109.978,41.0384,5314.98,-8496.86,-948.423,-29.1725,-29.3062,78.7093,9209.79,-1236.1,122.868,62.3593,-12.2844,15.7192
3.898,33349.5,-6589.02,747.243,40.418,169.713,177.997,4585.75,1022.7,9660.64,22.5122,-61.9402,16.1054,-18666.8,26481.4,-6848.17,127.489,118.347,286.79,-259.75,-11323.9,-974.66,7.06212,-29.4549,100.498,3565.3,12016.8,3218.87,-60.6938,108.159,41.1509,5242.69,-8578.31,-685.388,-32.4544,-28.0495,78.664,9203.46,-1130.91,79.2532,61.2588,-11.9035,16.142
3.899,33625.3,-6439.56,204.931,38.007,170.304,170.107,4592.18,942.301,9715.67,22.723,-63.4349,15.3556,-19354.7,26094.9,-6884.07,126.899,113.224,282.639,-247.569,-11368.7,-879.266,7.53101,-28.915,101.393,3825.94,12405.8,3282.02,-62.3795,106.555,42.046,5109.01,-8712.44,-415.774,-34.7414,-28.1707,78.2629,9205.74,-1011.8,39.2501,59.9942,-11.5275,16.6043
3.9,33901.0,-6290.1,-337.381,35.596,170.894,162.217,4598.61,861.899,9770.7,22.9338,-64.9297,14.6057,-20042.6,25708.4,-6919.97,126.308,108.102,278.488,-235.389,-11413.5,-783.871,7.99989,-28.3751,102.287,4086.58,12794.9,3345.16,-64.0652,104.951,42.9411,4975.33,-8846.56,-146.16,-37.0283,-28.2919,77.8619,9208.02,-892.694,-0.753041,58.7296,-11.1516,17.0666
3.901,34176.8,-6140.63,-879.693,33.185,171.484,154.327,4605.04,781.498,9825.73,23.1445,-66.4244,13.8559,-20730.5,25321.9,-6955.87,125.718,102.979,274.337,-223.209,-11458.3,-688.477,8.46877,-27.8351,103.182,4347.22,13183.9,3408.31,-65.7509,103.348,43.8362,4841.65,-8980.68,123.454,-39.3153,-28.4131,77.4609,9210.3,-773.587,-40.7562,57.465,-10.7756,17.529
3.902,34452.5,-5991.17,-1422.01,30.7741,172.074,146.437,4611.47,701.096,9880.77,23.3553,-67.9191,13.1061,-21418.4,24935.4,-6991.76,125.127,97.8568,270.187,-211.029,-11503.1,-593.082,8.93766,-27.2952,104.077,4607.86,13573.0,3471.46,-67.4366,101.744,44.7313,4707.97,-9114.8,393.068,-41.6023,-28.5342,77.0599,9212.58,-654.48,-80.7593,56.2004,-10.3997,17.9913
3.903,34708.6,-5760.57,-1905.42,28.2892,172.503,139.117,4601.85,658.493,9943.62,23.7452,-69.7415,12.4205,-22051.6,24639.2,-6894.27,123.925,91.7299,265.404,-199.504,-11574.3,-476.865,9.37888,-26.8534,105.016,4844.87,13796.5,3622.16,-68.5205,100.681,45.9687,4541.62,-9309.88,593.913,-42.3278,-29.9193,76.3903,9215.87,-538.726,-109.896,54.7981,-10.1167,18.3413
3.904,34959.0,-5506.79,-2372.01,25.7832,172.885,131.96,4587.64,626.689,10008.7,24.1863,-71.6575,11.7532,-22669.1,24368.8,-6758.66,122.547,85.3161,260.441,-188.166,-11653.0,-354.698,9.81221,-26.4396,105.967,5075.13,13972.8,3797.88,-69.4324,99.7718,47.3039,4365.94,-9522.37,775.11,-42.6071,-31.6655,75.6441,9219.45,-423.93,-135.929,53.3566,-9.86036,18.6591
3.905,35209.5,-5253.0,-2838.6,23.2772,173.268,124.803,4573.44,594.886,10073.8,24.6274,-73.5734,11.086,-23286.6,24098.4,-6623.06,121.17,78.9024,255.477,-176.827,-11731.7,-232.531,10.2455,-26.0258,106.918,5305.39,14149.0,3973.6,-70.3443,98.863,48.6391,4190.26,-9734.86,956.306,-42.8864,-33.4118,74.8978,9223.03,-309.134,-161.961,51.915,-9.60398,18.977
3.906,35459.9,-4999.22,-3305.19,20.7712,173.65,117.646,4559.23,563.082,10138.9,25.0685,-75.4894,10.4188,-23904.1,23827.9,-6487.45,119.793,72.4886,250.514,-165.489,-11810.3,-110.364,10.6789,-25.612,107.869,5535.65,14325.2,4149.32,-71.2562,97.9541,49.9744,4014.58,-9947.35,1137.5,-43.1657,-35.158,74.1515,9226.61,-194.338,-187.993,50.4734,-9.34761,19.2948
3.907,35665.7,-4741.25,-3731.52,18.11,173.778,110.849,4546.19,518.258,10194.6,25.4902,-77.4375,9.67807,-24481.4,23558.6,-6330.97,118.293,65.6933,245.325,-152.002,-11887.8,5.4307,11.1077,-25.167,108.843,5785.13,14450.7,4339.52,-71.334,97.1385,51.3728,3853.58,-10169.5,1264.6,-42.7799,-37.081,73.3339,9251.53,-53.7468,-217.912,48.9699,-9.03166,19.6791
3.908,35782.4,-4474.91,-4077.37,15.1387,173.396,104.77,4535.49,447.394,10231.6,25.873,-79.4501,8.79032,-24978.4,23291.3,-6132.73,116.549,58.1351,239.684,-134.218,-11963.0,108.48,11.5274,-24.6595,109.862,6073.07,14474.6,4558.67,-69.7438,96.5092,52.8975,3721.91,-10410.9,1283.49,-41.0641,-39.3578,72.3736,9319.15,138.434,-255.605,47.3425,-8.59656,20.1963
3.909,35899.0,-4208.57,-4423.21,12.1674,173.014,98.6917,4524.78,376.529,10268.5,26.2558,-81.4626,7.90257,-25475.3,23024.0,-5934.49,114.804,50.5768,234.043,-116.433,-12038.2,211.528,11.9472,-24.1521,110.882,6361.01,14498.6,4777.83,-68.1535,95.8798,54.4223,3590.24,-10652.3,1302.38,-39.3482,-41.6345,71.4133,9386.77,330.614,-293.297,45.715,-8.16146,20.7135
3.91,36015.6,-3942.23,-4769.05,9.19611,172.632,92.6133,4514.08,305.665,10305.5,26.6387,-83.4751,7.01481,-25972.3,22756.7,-5736.26,113.059,43.0186,228.402,-98.6487,-12113.4,314.577,12.3669,-23.6446,111.901,6648.95,14522.5,4996.98,-66.5632,95.2505,55.947,3458.58,-10893.7,1321.27,-37.6324,-43.9112,70.4529,9454.39,522.794,-330.989,44.0876,-7.72636,21.2307
3.911,36132.2,-3675.9,-5114.89,6.22479,172.25,86.5348,4503.37,234.801,10342.5,27.0215,-85.4877,6.12706,-26469.3,22489.4,-5538.02,111.315,35.4603,222.76,-80.8641,-12188.5,417.626,12.7867,-23.1372,112.921,6936.89,14546.5,5216.14,-64.9729,94.6212,57.4718,3326.91,-11135.1,1340.16,-35.9165,-46.188,69.4926,9522.01,714.975,-368.682,42.4601,-7.29126,21.7478
3.912,36199.3,-3500.43,-5491.22,2.42397,171.215,81.3948,4514.08,211.962,10387.6,27.4545,-87.6264,5.06264,-26823.3,22192.2,-5321.56,109.439,27.5565,216.946,-74.723,-12285.5,484.355,13.1034,-22.5283,113.963,7147.89,14487.6,5306.52,-61.2446,94.0123,58.3296,3281.28,-11330.4,1197.09,-33.4125,-47.744,68.6387,9606.4,880.279,-375.213,40.9129,-6.8852,22.1049
3.913,36260.2,-3336.31,-5871.37,-1.48054,170.097,76.3721,4527.46,195.127,10433.8,27.8939,-89.7809,3.97615,-27159.4,21891.2,-5102.83,107.548,19.6095,211.109,-70.0373,-12385.2,546.543,13.4072,-21.9069,115.008,7349.27,14418.4,5380.81,-57.2491,93.4058,59.1041,3246.41,-11520.0,1033.77,-30.8099,-49.2099,67.798,9692.89,1042.22,-377.849,39.3757,-6.48278,22.4419
3.914,36321.1,-3172.2,-6251.51,-5.38505,168.98,71.3494,4540.84,178.291,10480.0,28.3332,-91.9354,2.88965,-27495.6,21590.2,-4884.1,105.656,11.6626,205.273,-65.3517,-12485.0,608.731,13.711,-21.2854,116.053,7550.65,14349.2,5455.1,-53.2535,92.7994,59.8785,3211.54,-11709.6,870.446,-28.2073,-50.6759,66.9574,9779.38,1204.17,-380.484,37.8386,-6.08036,22.7789
3.915,36381.9,-3008.09,-6631.65,-9.28956,167.862,66.3267,4554.22,161.456,10526.2,28.7726,-94.0899,1.80316,-27831.7,21289.2,-4665.37,103.764,3.71558,199.436,-60.666,-12584.7,670.92,14.0149,-20.6639,117.098,7752.03,14280.0,5529.38,-49.258,92.1929,60.653,3176.66,-11899.1,707.124,-25.6047,-52.1418,66.1168,9865.87,1366.11,-383.12,36.3014,-5.67794,23.1159
3.916,36399.9,-2851.35,-6978.47,-13.2399,166.595,61.5211,4566.05,149.21,10579.9,29.1145,-96.2378,0.734532,-28111.8,21028.0,-4396.77,101.669,-4.16194,193.426,-43.7124,-12693.1,724.363,14.2947,-19.91,118.094,7880.19,14277.8,5455.82,-44.9482,92.0799,61.3067,3189.21,-12059.0,502.68,-23.1254,-52.9003,65.4029,9946.01,1508.86,-384.848,34.7806,-5.27114,23.551
3.917,36364.0,-2703.81,-7283.62,-17.2474,165.142,56.9868,4575.96,142.701,10643.0,29.3346,-98.3775,-0.311761,-28321.7,20816.6,-4065.85,99.3188,-11.9527,187.198,-11.4239,-12812.5,766.874,14.5445,-18.9908,119.03,7916.81,14359.3,5197.46,-40.2456,92.5836,61.8095,3261.04,-12181.8,246.831,-20.8,-52.7744,64.8475,10018.2,1627.62,-385.44,33.2804,-4.85889,24.1086
3.918,36328.2,-2556.27,-7588.77,-21.255,163.688,52.4526,4585.86,136.192,10706.0,29.5547,-100.517,-1.35805,-28531.6,20605.2,-3734.92,96.969,-19.7434,180.971,20.8646,-12931.9,809.386,14.7943,-18.0715,119.965,7953.43,14440.9,4939.09,-35.543,93.0873,62.3122,3332.87,-12304.6,-9.01775,-18.4747,-52.6485,64.2922,10090.4,1746.37,-386.031,31.7802,-4.44663,24.6661
3.919,36292.4,-2408.73,-7893.93,-25.2625,162.234,47.9183,4595.76,129.683,10769.0,29.7747,-102.657,-2.40435,-28741.6,20393.8,-3404.0,94.6191,-27.5341,174.743,53.153,-13051.2,851.897,15.0442,-17.1522,120.901,7990.06,14522.5,4680.72,-30.8404,93.5911,62.815,3404.7,-12427.4,-264.867,-16.1493,-52.5226,63.7368,10162.6,1865.13,-386.623,30.28,-4.03437,25.2237
3.92,36256.6,-2261.19,-8199.08,-29.2701,160.781,43.384,4605.67,123.174,10832.1,29.9948,-104.796,-3.45064,-28951.5,20182.4,-3073.07,92.2693,-35.3248,168.516,85.4415,-13170.6,894.408,15.294,-16.2329,121.836,8026.68,14604.1,4422.35,-26.1378,94.0948,63.3178,3476.53,-12550.2,-520.715,-13.824,-52.3967,63.1814,10234.8,1983.88,-387.215,28.7798,-3.62211,25.7813
3.921,36177.8,-1892.86,-8438.28,-32.79,158.489,40.3048,4614.03,104.893,10880.4,30.2334,-107.364,-4.42928,-28959.5,20060.8,-2619.1,89.3219,-42.3647,161.782,130.035,-13270.6,924.616,15.7306,-14.9708,122.776,7985.58,14655.1,3919.79,-20.3987,94.5723,63.8705,3653.86,-12575.8,-820.698,-12.4236,-50.5103,63.137,10351.7,2078.61,-402.433,27.4295,-3.19519,26.4056
3.922,36099.0,-1524.53,-8677.48,-36.3099,156.197,37.2255,4622.39,86.6118,10928.7,30.472,-109.931,-5.40792,-28967.5,19939.1,-2165.13,86.3745,-49.4046,155.049,174.628,-13370.5,954.823,16.1672,-13.7086,123.715,7944.48,14706.2,3417.22,-14.6596,95.0499,64.4232,3831.18,-12601.4,-1120.68,-11.0232,-48.6239,63.0926,10468.7,2173.34,-417.65,26.0792,-2.76826,27.0298
3.923,36020.3,-1156.2,-8916.69,-39.8298,153.905,34.1463,4630.75,68.3307,10977.1,30.7106,-112.498,-6.38657,-28975.4,19817.5,-1711.16,83.4271,-56.4446,148.315,219.221,-13470.4,985.031,16.6039,-12.4465,124.654,7903.37,14757.3,2914.66,-8.9205,95.5274,64.9759,4008.51,-12627.0,-1420.66,-9.62284,-46.7374,63.0482,10585.6,2268.07,-432.868,24.7288,-2.34134,27.6541
3.924,35941.5,-787.876,-9155.89,-43.3497,151.614,31.0671,4639.11,50.0496,11025.4,30.9491,-115.065,-7.36521,-28983.4,19695.8,-1257.19,80.4797,-63.4845,141.582,263.814,-13570.4,1015.24,17.0405,-11.1844,125.593,7862.27,14808.4,2412.1,-3.1814,96.0049,65.5286,4185.84,-12652.6,-1720.64,-8.22246,-44.851,63.0038,10702.6,2362.8,-448.086,23.3785,-1.91441,28.2784
3.925,35797.5,-222.233,-9303.0,-46.76,148.512,29.2605,4636.18,42.5168,11058.3,31.1471,-117.745,-8.37693,-28851.1,19620.1,-718.902,76.9331,-69.7137,134.708,298.699,-13682.6,1040.1,17.5377,-9.86167,126.588,7776.13,14862.0,1852.66,3.60701,94.8675,66.2552,4367.53,-12641.3,-1988.04,-7.49827,-42.2858,63.0962,10803.3,2421.36,-462.276,22.1107,-1.50262,28.916
3.926,35601.3,501.26,-9376.43,-50.0824,144.762,28.472,4624.22,43.5825,11079.0,31.3127,-120.514,-9.41511,-28606.6,19581.2,-113.153,72.9071,-75.2943,127.723,325.816,-13804.7,1060.67,18.0834,-8.49049,127.627,7653.96,14917.7,1247.72,11.2349,92.438,67.1211,4552.71,-12600.5,-2229.37,-7.31503,-39.1777,63.2982,10890.9,2450.97,-475.645,20.9089,-1.10295,29.5642
3.927,35405.2,1224.75,-9449.86,-53.4049,141.011,27.6834,4612.25,44.6482,11099.7,31.4782,-123.283,-10.4533,-28362.1,19542.4,492.595,68.8812,-80.8748,120.738,352.933,-13926.8,1081.25,18.629,-7.11931,128.666,7531.78,14973.3,642.773,18.8627,90.0086,67.987,4737.89,-12559.8,-2470.7,-7.13179,-36.0696,63.5002,10978.6,2480.59,-489.013,19.7071,-0.703271,30.2124
3.928,35209.1,1948.25,-9523.3,-56.7274,137.261,26.8949,4600.28,45.714,11120.4,31.6437,-126.053,-11.4915,-28117.6,19503.5,1098.34,64.8552,-86.4554,113.753,380.05,-14048.9,1101.82,19.1747,-5.74813,129.705,7409.61,15029.0,37.8308,26.4906,87.5791,68.8528,4923.07,-12519.0,-2712.03,-6.94855,-32.9615,63.7022,11066.2,2510.21,-502.382,18.5054,-0.303594,30.8606
3.929,35003.4,2675.85,-9595.84,-60.0987,133.281,26.3109,4590.42,47.7464,11146.7,31.81,-128.825,-12.5259,-27850.8,19474.3,1708.65,60.7503,-91.797,106.844,406.288,-14171.6,1118.85,19.7155,-4.39938,130.74,7278.02,15068.2,-570.803,33.9162,84.8293,69.6676,5104.04,-12474.9,-2938.7,-6.83997,-29.8331,63.941,11156.1,2535.17,-512.277,17.2987,0.104096,31.501
3.93,34721.3,3436.31,-9661.22,-63.8615,127.463,27.3626,4597.42,57.5122,11218.0,31.9825,-131.627,-13.5298,-27405.0,19522.9,2355.46,56.0142,-95.2265,100.545,425.493,-14298.5,1107.49,20.2173,-3.23005,131.738,7071.13,14976.1,-1208.97,39.724,79.5173,70.0738,5251.31,-12403.8,-3048.16,-7.32866,-26.5427,64.4748,11264.1,2522.94,-494.382,16.0531,0.575902,32.0791
3.931,34439.2,4196.77,-9726.6,-67.6242,121.645,28.4143,4604.41,67.278,11289.3,32.155,-134.428,-14.5337,-26959.3,19571.4,3002.27,51.2781,-98.6559,94.2463,444.697,-14425.4,1096.14,20.7191,-2.06073,132.736,6864.23,14884.1,-1847.14,45.5319,74.2052,70.4801,5398.58,-12332.7,-3157.61,-7.81736,-23.2522,65.0086,11372.0,2510.7,-476.487,14.8075,1.04771,32.6572
3.932,34157.0,4957.23,-9791.98,-71.3869,115.827,29.466,4611.41,77.0438,11360.6,32.3275,-137.229,-15.5376,-26513.6,19619.9,3649.08,46.542,-102.085,87.9473,463.902,-14552.3,1084.78,21.2209,-0.8914,133.735,6657.34,14792.0,-2485.31,51.3397,68.8931,70.8863,5545.84,-12261.7,-3267.07,-8.30606,-19.9618,65.5424,11479.9,2498.46,-458.593,13.5619,1.51951,33.2353
3.933,33874.9,5717.69,-9857.36,-75.1497,110.009,30.5177,4618.4,86.8096,11431.9,32.5,-140.03,-16.5416,-26067.9,19668.5,4295.88,41.8059,-105.515,81.6482,483.106,-14679.2,1073.42,21.7227,0.277925,134.733,6450.45,14699.9,-3123.48,57.1475,63.581,71.2925,5693.11,-12190.6,-3376.52,-8.79475,-16.6713,66.0761,11587.8,2486.23,-440.698,12.3163,1.99132,33.8134
3.934,33528.5,6439.92,-9896.23,-79.1843,102.935,32.5383,4617.29,105.348,11477.6,32.6934,-143.045,-17.5879,-25582.2,19697.7,4824.57,37.579,-107.543,75.9615,483.238,-14780.9,1015.55,22.322,1.51868,135.64,6143.25,14602.2,-3749.55,60.4428,57.2688,71.3345,5791.86,-12130.3,-3424.83,-9.46062,-13.8308,66.6476,11688.1,2412.75,-418.345,11.2767,2.47344,34.3139
3.935,33149.8,7143.04,-9921.85,-83.355,95.2324,35.0433,4612.12,128.272,11510.6,32.8971,-146.169,-18.6555,-25076.5,19717.2,5294.2,33.6067,-108.87,70.5809,473.833,-14870.1,934.43,22.97,2.79514,136.502,5785.9,14501.6,-4369.58,62.4819,50.4564,71.1945,5866.35,-12075.5,-3442.58,-10.2151,-11.2152,67.2379,11784.5,2308.66,-393.761,10.3401,2.96071,34.7754
3.936,32771.2,7846.15,-9947.46,-87.5257,87.5303,37.5484,4606.96,151.196,11543.5,33.1009,-149.292,-19.7231,-24570.8,19736.7,5763.82,29.6344,-110.198,65.2004,464.429,-14959.2,853.309,23.6181,4.07161,137.364,5428.55,14401.1,-4989.61,64.5209,43.6441,71.0544,5940.83,-12020.6,-3460.32,-10.9695,-8.59963,67.8282,11881.0,2204.57,-369.178,9.40358,3.44798,35.237
3.937,32392.6,8549.27,-9973.07,-91.6964,79.8282,40.0534,4601.79,174.12,11576.4,33.3047,-152.415,-20.7907,-24065.0,19756.2,6233.45,25.6621,-111.525,59.8199,455.024,-15048.4,772.187,24.2661,5.34807,138.225,5071.19,14300.5,-5609.65,66.56,36.8317,70.9144,6015.32,-11965.8,-3478.06,-11.724,-5.98406,68.4185,11977.4,2100.47,-344.595,8.46701,3.93525,35.6986
3.938,32034.0,9078.01,-10031.9,-95.3716,72.0757,42.2994,4596.78,202.907,11606.4,33.5185,-155.592,-21.82,-23567.4,19760.5,6636.15,21.833,-112.244,54.5135,436.641,-15131.2,690.682,24.9289,6.5589,139.068,4721.05,14204.9,-6181.59,68.0191,30.113,70.5672,6072.68,-11917.6,-3480.68,-12.4476,-3.57795,68.9854,12074.7,2001.31,-326.049,7.53352,4.42875,36.109
3.939,31745.8,8996.43,-10206.8,-97.3122,64.1465,43.6388,4592.33,252.215,11625.9,33.7674,-158.959,-22.7153,-23098.3,19711.5,6804.61,18.5046,-110.836,49.4669,386.832,-15191.7,607.836,25.6434,7.53999,139.843,4396.12,14126.8,-6585.26,67.4482,23.7222,69.4949,6070.08,-11892.7,-3430.36,-13.0636,-1.90497,69.4701,12174.9,1919.37,-328.632,6.61078,4.94402,36.3402
3.94,31457.5,8914.86,-10381.8,-99.2529,56.2172,44.9782,4587.87,301.523,11645.4,34.0164,-162.326,-23.6106,-22629.2,19662.6,6973.08,15.1763,-109.428,44.4203,337.023,-15252.2,524.991,26.3579,8.52108,140.618,4071.19,14048.6,-6988.92,66.8773,17.3313,68.4227,6067.49,-11867.8,-3380.05,-13.6795,-0.231995,69.9548,12275.1,1837.44,-331.215,5.68804,5.45929,36.5714
3.941,31169.3,8833.29,-10556.7,-101.194,48.288,46.3175,4583.42,350.831,11664.9,34.2654,-165.693,-24.5059,-22160.0,19613.7,7141.54,11.848,-108.02,39.3737,287.214,-15312.6,442.145,27.0724,9.50217,141.394,3746.26,13970.5,-7392.58,66.3064,10.9405,67.3504,6064.89,-11843.0,-3329.73,-14.2955,1.44098,70.4395,12375.3,1755.51,-333.797,4.76531,5.97456,36.8026
3.942,30881.0,8751.71,-10731.7,-103.134,40.3588,47.6569,4578.96,400.139,11684.4,34.5143,-169.06,-25.4011,-21690.9,19564.7,7310.01,8.51968,-106.612,34.327,237.405,-15373.1,359.299,27.7869,10.4833,142.169,3421.33,13892.3,-7796.25,65.7356,4.5496,66.2782,6062.29,-11818.1,-3279.42,-14.9114,3.11396,70.9242,12475.5,1673.58,-336.38,3.84257,6.48983,37.0338
3.943,30787.0,8105.54,-10931.0,-100.739,33.1846,47.7584,4581.11,468.123,11696.4,34.8923,-172.505,-26.1701,-21314.1,19438.6,7327.33,5.91574,-103.073,28.9968,203.991,-15423.8,280.57,28.4606,11.0763,143.071,3219.86,13731.5,-7894.85,64.8238,-1.30452,64.1366,6013.51,-11847.4,-3203.87,-15.1537,3.87674,71.0988,12552.0,1588.05,-337.205,2.73524,6.97238,37.0528
3.944,30748.4,7298.06,-11137.3,-97.1042,26.2262,47.5062,4585.15,541.442,11706.2,35.307,-175.972,-26.903,-20963.8,19290.4,7301.48,3.51877,-98.924,23.5856,175.261,-15471.6,203.018,29.1226,11.5586,144.01,3053.66,13547.0,-7906.29,63.8146,-7.00528,61.6894,5951.54,-11892.2,-3121.12,-15.2892,4.37947,71.1849,12621.8,1501.48,-337.526,1.57518,7.44558,37.0113
3.945,30709.8,6490.58,-11343.5,-93.4697,19.2677,47.254,4589.19,614.762,11716.0,35.7218,-179.439,-27.6359,-20613.4,19142.2,7275.62,1.1218,-94.7754,18.1744,146.531,-15519.4,125.465,29.7846,12.0408,144.949,2887.46,13362.5,-7917.73,62.8054,-12.706,59.2423,5889.56,-11937.0,-3038.36,-15.4247,4.8822,71.271,12691.6,1414.92,-337.848,0.415118,7.91878,36.9697
3.946,30671.2,5683.09,-11549.8,-89.8352,12.3092,47.0017,4593.23,688.081,11725.8,36.1366,-182.905,-28.3688,-20263.0,18994.0,7249.76,-1.27517,-90.6268,12.7632,117.801,-15567.3,47.9126,30.4467,12.523,145.889,2721.27,13178.0,-7929.17,61.7963,-18.4068,56.7951,5827.59,-11981.8,-2955.61,-15.5602,5.38493,71.357,12761.4,1328.36,-338.17,-0.744945,8.39198,36.9281
3.947,30643.6,4804.35,-11784.2,-84.3481,5.75037,46.4294,4592.51,760.893,11735.2,36.686,-186.383,-29.0013,-19936.4,18833.1,7160.29,-3.40451,-85.7922,7.29391,96.5785,-15610.3,-35.562,31.1028,12.8953,146.809,2588.55,12953.6,-7830.84,61.0871,-23.8113,54.1377,5747.78,-12033.9,-2884.67,-15.4546,5.65271,71.3091,12831.8,1232.27,-349.187,-1.90223,8.83679,36.765
3.948,30638.0,3783.09,-12074.8,-75.1558,-0.00927967,45.2168,4582.24,832.69,11743.6,37.5046,-189.882,-29.433,-19657.3,18646.7,6943.57,-4.99859,-79.5855,1.70852,90.3704,-15643.7,-130.881,31.7472,13.0478,147.694,2522.79,12649.4,-7512.98,60.9781,-28.6233,51.0598,5632.31,-12100.5,-2837.37,-14.8669,5.45061,70.9933,12903.4,1117.15,-381.596,-3.05394,9.22484,36.3587
3.949,30632.4,2761.83,-12365.4,-65.9635,-5.76893,44.0043,4571.97,904.487,11752.1,38.3231,-193.38,-29.8648,-19378.2,18460.3,6726.85,-6.59267,-73.3788,-3.87687,84.1623,-15677.2,-226.199,32.3916,13.2003,148.578,2457.04,12345.3,-7195.12,60.8691,-33.4353,47.9818,5516.85,-12167.0,-2790.06,-14.2792,5.24851,70.6774,12975.0,1002.02,-414.004,-4.20566,9.61289,35.9524
3.95,30626.8,1740.56,-12656.0,-56.7712,-11.5286,42.7917,4561.7,976.284,11760.5,39.1417,-196.879,-30.2965,-19099.1,18273.9,6510.14,-8.18675,-67.1721,-9.46226,77.9542,-15710.6,-321.518,33.0361,13.3527,149.462,2391.28,12041.1,-6877.26,60.7601,-38.2473,44.9039,5401.38,-12233.6,-2742.76,-13.6915,5.04641,70.3615,13046.5,886.898,-446.412,-5.35737,10.0009,35.5461
3.951,30621.2,719.299,-12946.6,-47.5789,-17.2882,41.5792,4551.43,1048.08,11769.0,39.9603,-200.378,-30.7283,-18820.0,18087.6,6293.42,-9.78083,-60.9654,-15.0477,71.7461,-15744.0,-416.836,33.6805,13.5052,150.346,2325.53,11736.9,-6559.4,60.651,-43.0593,41.826,5285.91,-12300.1,-2695.45,-13.1038,4.84431,70.0457,13118.1,771.773,-478.821,-6.50909,10.389,35.1399
3.952,30573.7,20.9958,-13060.2,-35.5874,-22.2259,39.3052,4519.01,1094.52,11752.2,41.0098,-203.927,-30.9961,-18620.0,17892.8,5964.29,-10.3955,-53.5628,-20.7183,48.9743,-15731.3,-542.862,34.1622,13.3313,151.107,2433.65,11450.6,-6199.47,61.8525,-46.1335,38.7878,5202.48,-12349.8,-2685.76,-11.9934,4.53785,69.494,13180.6,662.712,-519.524,-7.28742,10.5991,34.5692
3.953,30521.0,-636.938,-13151.7,-23.2461,-27.0609,36.8986,4483.83,1137.78,11732.3,42.0882,-207.482,-31.2435,-18429.8,17696.9,5621.1,-10.8878,-46.0108,-26.3996,24.1321,-15712.8,-672.727,34.6236,13.1166,151.852,2563.5,11166.5,-5834.27,63.2179,-48.9905,35.7545,5123.06,-12397.3,-2680.78,-10.8177,4.21834,68.9128,13242.0,554.408,-561.265,-8.01908,10.7871,33.978
3.954,30468.3,-1294.87,-13243.2,-10.9048,-31.8958,34.4919,4448.64,1181.05,11712.5,43.1666,-211.037,-31.4909,-18239.6,17501.0,5277.91,-11.38,-38.4587,-32.0809,-0.710172,-15694.3,-802.591,35.085,12.902,152.597,2693.35,10882.4,-5469.08,64.5832,-51.8476,32.7213,5043.63,-12444.8,-2675.79,-9.64197,3.89884,68.3317,13303.3,446.105,-603.005,-8.75074,10.975,33.3868
3.955,30415.6,-1952.8,-13334.8,1.43657,-36.7307,32.0853,4413.45,1224.31,11692.6,44.245,-214.592,-31.7382,-18049.4,17305.2,4934.72,-11.8723,-30.9066,-37.7622,-25.5524,-15675.8,-932.456,35.5464,12.6873,153.342,2823.2,10598.3,-5103.88,65.9486,-54.7046,29.6881,4964.2,-12492.4,-2670.8,-8.46625,3.57933,67.7505,13364.7,337.801,-644.746,-9.4824,11.1629,32.7955
3.956,30320.6,-2384.01,-13374.5,13.6025,-41.4857,29.3072,4388.52,1281.95,11684.7,45.4646,-218.194,-31.9409,-17926.4,17125.0,4640.58,-12.2952,-23.2577,-43.5675,-45.9949,-15643.2,-1051.11,36.0142,12.3505,154.097,2966.53,10363.1,-4785.37,67.8818,-56.5539,27.0707,4905.23,-12528.4,-2693.59,-7.25094,3.3607,67.1192,13411.0,218.936,-678.096,-10.0719,11.2939,32.1527
3.957,30172.7,-2531.79,-13349.7,25.5492,-46.1406,26.0649,4376.42,1357.56,11691.7,46.8607,-221.855,-32.0878,-17887.2,16964.4,4407.74,-12.6316,-15.4877,-49.5278,-60.9376,-15593.0,-1155.75,36.49,11.8612,154.864,3126.7,10188.9,-4525.21,70.5249,-57.1435,24.9733,4871.82,-12550.0,-2751.11,-5.98613,3.26817,66.425,13438.5,86.8674,-700.958,-10.4837,11.3539,31.4453
3.958,30024.7,-2679.57,-13324.8,37.4959,-50.7955,22.8225,4364.33,1433.16,11698.8,48.2568,-225.515,-32.2346,-17848.1,16803.9,4174.9,-12.9679,-7.71771,-55.4881,-75.8803,-15542.8,-1260.39,36.9659,11.3718,155.631,3286.88,10014.7,-4265.05,73.1679,-57.7331,22.8759,4838.4,-12571.7,-2808.63,-4.72133,3.17563,65.7308,13466.1,-45.2006,-723.82,-10.8954,11.4139,30.738
3.959,29876.8,-2827.36,-13299.9,49.4427,-55.4504,19.5802,4352.23,1508.77,11705.9,49.653,-229.175,-32.3815,-17809.0,16643.3,3942.07,-13.3043,0.0522669,-61.4483,-90.823,-15492.6,-1365.03,37.4417,10.8824,156.397,3447.05,9840.44,-4004.89,75.811,-58.3227,20.7785,4804.99,-12593.3,-2866.15,-3.45652,3.0831,65.0367,13493.6,-177.269,-746.682,-11.3072,11.4738,30.0306
3.96,29728.9,-2975.14,-13275.0,61.3894,-60.1053,16.3378,4340.13,1584.38,11712.9,51.0491,-232.836,-32.5283,-17769.8,16482.8,3709.23,-13.6407,7.82224,-67.4086,-105.766,-15442.4,-1469.67,37.9176,10.393,157.164,3607.22,9666.23,-3744.74,78.4541,-58.9123,18.681,4771.58,-12615.0,-2923.67,-2.19172,2.99056,64.3425,13521.2,-309.337,-769.545,-11.7189,11.5338,29.3233
3.961,29543.2,-2613.47,-13077.4,68.9578,-64.9111,13.4822,4314.3,1678.57,11683.2,52.6767,-236.184,-32.2189,-17734.5,16368.2,3553.03,-13.6699,15.3048,-73.5036,-102.775,-15421.1,-1567.07,38.7437,9.77157,157.97,3768.98,9579.34,-3618.69,81.2492,-57.0638,17.6181,4772.9,-12579.3,-2959.55,-1.25752,3.21395,63.5218,13549.2,-465.084,-813.226,-12.0556,11.5542,28.396
3.962,29357.4,-2251.81,-12879.7,76.5261,-69.7169,10.6267,4288.47,1772.77,11653.5,54.3043,-239.532,-31.9096,-17699.1,16253.6,3396.84,-13.6992,22.7873,-79.5987,-99.784,-15399.8,-1664.46,39.5699,9.15012,158.776,3930.74,9492.44,-3492.64,84.0443,-55.2154,16.5553,4774.23,-12543.7,-2995.42,-0.32333,3.43735,62.7011,13577.1,-620.831,-856.907,-12.3923,11.5746,27.4688
3.963,29171.7,-1890.14,-12682.1,84.0945,-74.5227,7.77108,4262.65,1866.97,11623.8,55.9319,-242.879,-31.6002,-17663.7,16139.0,3240.64,-13.7285,30.2698,-85.6937,-96.7932,-15378.5,-1761.86,40.396,8.52867,159.582,4092.5,9405.55,-3366.59,86.8395,-53.367,15.4924,4775.55,-12508.0,-3031.3,0.610864,3.66074,61.8803,13605.1,-776.578,-900.588,-12.729,11.595,26.5416
3.964,28986.0,-1528.47,-12484.5,91.6629,-79.3285,4.9155,4236.82,1961.17,11594.2,57.5595,-246.227,-31.2908,-17628.3,16024.5,3084.45,-13.7578,37.7524,-91.7887,-93.8023,-15357.2,-1859.25,41.2222,7.90722,160.388,4254.27,9318.66,-3240.54,89.6346,-51.5186,14.4295,4776.88,-12472.3,-3067.18,1.54506,3.88413,61.0596,13633.0,-932.326,-944.269,-13.0656,11.6154,25.6144
3.965,28816.6,-1032.28,-12233.1,96.2202,-84.3059,2.35351,4221.65,2020.63,11572.5,59.3266,-249.757,-30.9208,-17585.0,15940.0,2942.4,-13.5819,44.9372,-97.658,-71.5333,-15348.8,-1931.11,42.0113,7.09567,161.289,4398.64,9256.21,-3164.33,91.569,-48.7429,13.9197,4815.71,-12429.3,-3061.05,2.23439,4.11719,60.2452,13645.0,-1072.19,-998.239,-13.3781,11.5787,24.601
3.966,28660.3,-428.476,-11938.7,98.3686,-89.4206,0.0263705,4215.01,2052.29,11557.2,61.2052,-253.432,-30.5021,-17535.3,15879.7,2811.68,-13.2418,51.8839,-103.347,-33.8417,-15350.8,-1982.54,42.7708,6.13204,162.267,4529.12,9213.31,-3127.99,92.815,-45.2255,13.8523,4884.54,-12380.4,-3021.33,2.72782,4.35799,59.4359,13644.1,-1199.35,-1060.44,-13.6711,11.4962,23.5186
3.967,28504.1,175.333,-11644.3,100.517,-94.5353,-2.30077,4208.37,2083.96,11541.9,63.0838,-257.107,-30.0834,-17485.6,15819.4,2680.95,-12.9018,58.8306,-109.035,3.84991,-15352.7,-2033.98,43.5303,5.16842,163.245,4659.59,9170.42,-3091.65,94.0609,-41.7081,13.7849,4953.37,-12331.4,-2981.61,3.22126,4.59879,58.6266,13643.2,-1326.5,-1122.64,-13.9642,11.4137,22.4362
3.968,28347.8,779.142,-11349.8,102.665,-99.6501,-4.6279,4201.73,2115.62,11526.7,64.9624,-260.782,-29.6647,-17435.8,15759.0,2550.23,-12.5617,65.7773,-114.724,41.5415,-15354.7,-2085.41,44.2898,4.20479,164.222,4790.06,9127.52,-3055.31,95.3068,-38.1906,13.7175,5022.2,-12282.5,-2941.88,3.7147,4.83958,57.8172,13642.3,-1453.66,-1184.84,-14.2572,11.3313,21.3538
3.969,28199.1,1375.12,-11052.9,104.435,-104.773,-6.8859,4196.85,2148.54,11515.1,66.8562,-264.457,-29.2239,-17382.4,15699.9,2422.82,-12.1995,72.6394,-120.363,77.1246,-15354.4,-2136.78,45.0455,3.22521,165.196,4914.55,9093.63,-3035.16,96.2903,-34.5344,13.7069,5098.4,-12233.8,-2896.23,4.19862,5.04833,57.0151,13640.1,-1575.52,-1239.17,-14.5809,11.2643,20.2685
3.97,28111.0,1908.44,-10735.7,103.176,-109.965,-8.59081,4206.13,2191.43,11533.3,68.871,-268.133,-28.6054,-17298.7,15650.1,2321.86,-11.6595,78.8238,-125.604,95.8396,-15336.0,-2187.66,45.7713,2.11809,166.14,4991.15,9131.77,-3144.57,95.1743,-29.7677,14.1511,5233.6,-12186.9,-2803.15,4.60649,5.00064,56.2707,13627.6,-1655.02,-1230.47,-15.1498,11.3211,19.1609
3.971,28023.0,2441.76,-10418.5,101.916,-115.157,-10.2957,4215.4,2234.33,11551.4,70.8858,-271.808,-27.987,-17215.1,15600.3,2220.91,-11.1196,85.0083,-130.846,114.555,-15317.6,-2238.53,46.497,1.01097,167.083,5067.76,9169.9,-3253.98,94.0583,-25.0009,14.5953,5368.8,-12139.9,-2710.08,5.01436,4.95295,55.5262,13615.2,-1734.51,-1221.76,-15.7187,11.3779,18.0532
3.972,27934.9,2975.08,-10101.3,100.657,-120.349,-12.0006,4224.67,2277.23,11569.6,72.9006,-275.484,-27.3686,-17131.4,15550.6,2119.96,-10.5796,91.1927,-136.087,133.27,-15299.2,-2289.41,47.2228,-0.096147,168.027,5144.36,9208.04,-3363.39,92.9422,-20.2342,15.0394,5504.0,-12093.0,-2617.0,5.42223,4.90526,54.7818,13602.7,-1814.01,-1213.06,-16.2877,11.4346,16.9455
3.973,27846.9,3508.4,-9784.1,99.3972,-125.541,-13.7056,4233.94,2320.12,11587.7,74.9154,-279.16,-26.7502,-17047.8,15500.8,2019.0,-10.0397,97.3772,-141.328,151.985,-15280.7,-2340.29,47.9485,-1.20327,168.971,5220.96,9246.17,-3472.8,91.8262,-15.4675,15.4836,5639.19,-12046.0,-2523.92,5.8301,4.85757,54.0373,13590.2,-1893.5,-1204.36,-16.8566,11.4914,15.8379
3.974,27786.8,3744.37,-9450.11,96.3823,-130.354,-15.3048,4229.09,2358.3,11604.4,76.9673,-282.838,-25.9869,-16960.7,15484.8,1895.9,-9.39557,102.979,-146.301,203.801,-15306.3,-2364.11,48.5836,-2.31946,170.048,5258.99,9241.34,-3677.73,89.2012,-9.55154,15.9801,5783.25,-12013.8,-2393.09,6.4658,4.52446,53.2949,13565.9,-1972.3,-1174.64,-17.5946,11.3626,14.7561
3.975,27740.8,3831.66,-9107.72,92.4897,-134.977,-16.8512,4217.18,2394.1,11620.3,79.0378,-286.517,-25.1511,-16872.1,15485.7,1761.73,-8.69936,108.29,-151.139,272.168,-15353.8,-2374.41,49.1733,-3.44019,171.192,5277.72,9215.01,-3930.41,85.8218,-3.06096,16.5029,5931.73,-11988.8,-2243.37,7.2154,4.04864,52.5534,13535.7,-2050.74,-1134.4,-18.4171,11.141,13.6874
3.976,27694.8,3918.94,-8765.33,88.597,-139.6,-18.3976,4205.27,2429.91,11636.2,81.1083,-290.196,-24.3154,-16783.4,15486.6,1627.56,-8.00315,113.601,-155.977,340.536,-15401.3,-2384.71,49.7629,-4.56092,172.337,5296.46,9188.69,-4183.08,82.4424,3.42962,17.0256,6080.21,-11963.9,-2093.66,7.965,3.57282,51.812,13505.5,-2129.18,-1094.16,-19.2396,10.9194,12.6187
3.977,27648.7,4006.23,-8422.94,84.7044,-144.223,-19.944,4193.36,2465.72,11652.2,83.1788,-293.875,-23.4796,-16694.7,15487.5,1493.39,-7.30693,118.911,-160.816,408.903,-15448.8,-2395.01,50.3526,-5.68165,173.481,5315.2,9162.37,-4435.76,79.063,9.9202,17.5484,6228.69,-11939.0,-1943.95,8.71461,3.097,51.0705,13475.3,-2207.62,-1053.93,-20.0622,10.6978,11.5499
3.978,27607.3,3990.84,-8091.76,80.9499,-148.56,-21.5193,4183.35,2504.98,11674.1,85.2503,-297.585,-22.5882,-16609.6,15484.2,1349.5,-6.55285,123.941,-165.572,484.043,-15495.2,-2390.87,51.0279,-6.81028,174.662,5319.69,9124.79,-4714.94,74.9158,16.8561,17.852,6383.36,-11920.0,-1782.39,9.52056,2.45232,50.2923,13446.0,-2276.28,-1031.76,-20.6956,10.4168,10.5239
3.979,27581.8,3616.09,-7799.77,77.6788,-151.893,-23.1959,4180.0,2556.34,11716.9,87.3254,-301.405,-21.5021,-16537.1,15465.7,1171.57,-5.59623,127.987,-170.044,582.886,-15537.4,-2336.2,52.0029,-7.96655,175.971,5274.32,9047.83,-5086.83,68.081,25.3509,17.3887,6559.72,-11921.8,-1579.36,10.5237,1.21664,49.3854,13419.9,-2310.7,-1072.82,-20.6675,9.92799,9.64753
3.98,27556.3,3241.34,-7507.79,74.4077,-155.226,-24.8726,4176.66,2607.69,11759.7,89.4004,-305.225,-20.416,-16464.7,15447.2,993.647,-4.63961,132.033,-174.516,681.729,-15579.6,-2281.52,52.9779,-9.12282,177.281,5228.95,8970.87,-5458.72,61.2463,33.8456,16.9253,6736.07,-11923.6,-1376.34,11.5269,-0.0190506,48.4786,13393.8,-2345.12,-1113.88,-20.6393,9.43912,8.77115
3.981,27530.8,2866.59,-7215.8,71.1366,-158.56,-26.5492,4173.32,2659.04,11802.5,91.4755,-309.045,-19.3299,-16392.2,15428.8,815.722,-3.68299,136.079,-178.988,780.573,-15621.8,-2226.84,53.9529,-10.2791,178.59,5183.58,8893.91,-5830.61,54.4116,42.3403,16.4619,6912.42,-11925.3,-1173.31,12.53,-1.25474,47.5717,13367.6,-2379.54,-1154.94,-20.6112,8.95026,7.89477
3.982,27505.3,2491.84,-6923.82,67.8655,-161.893,-28.2258,4169.98,2710.4,11845.3,93.5506,-312.866,-18.2438,-16319.8,15410.3,637.797,-2.72637,140.126,-183.46,879.416,-15664.0,-2172.17,54.9278,-11.4354,179.899,5138.21,8816.95,-6202.51,47.5768,50.835,15.9986,7088.78,-11927.1,-970.29,13.5332,-2.49042,46.6648,13341.5,-2413.96,-1196.0,-20.583,8.4614,7.01838
3.983,27378.1,1958.74,-6678.84,67.1213,-164.835,-29.6007,4166.83,2728.31,11889.6,95.7351,-316.596,-17.1369,-16129.8,15374.6,553.101,-1.49933,142.52,-187.382,968.319,-15730.7,-2105.13,55.6222,-12.7381,181.15,5008.54,8759.47,-6500.18,39.8087,60.5208,15.1631,7252.24,-11933.9,-739.864,14.3969,-4.37012,45.5933,13334.4,-2428.21,-1247.29,-19.4365,8.16178,6.32794
3.984,27221.8,1380.39,-6447.28,67.0992,-167.664,-30.8893,4163.75,2736.67,11934.4,97.9508,-320.301,-16.0241,-15906.2,15333.9,495.042,-0.195021,144.442,-191.147,1054.38,-15804.4,-2034.56,56.2363,-14.0828,182.384,4854.8,8707.57,-6776.65,31.7739,70.547,14.2212,7412.02,-11942.2,-501.609,15.2208,-6.43382,44.4748,13332.6,-2436.69,-1301.5,-17.9704,7.91623,5.69061
3.985,27065.4,802.05,-6215.73,67.0771,-170.493,-32.1779,4160.66,2745.02,11979.2,100.167,-324.006,-14.9112,-15682.6,15293.2,436.983,1.10929,146.363,-194.912,1140.44,-15878.1,-1963.99,56.8505,-15.4274,183.618,4701.05,8655.66,-7053.12,23.7392,80.5731,13.2794,7571.81,-11950.4,-263.354,16.0446,-8.49752,43.3562,13330.9,-2445.17,-1355.72,-16.5044,7.67069,5.05328
3.986,26909.1,223.706,-5984.18,67.0549,-173.323,-33.4666,4157.57,2753.38,12023.9,102.382,-327.711,-13.7984,-15459.0,15252.6,378.924,2.41359,148.285,-198.677,1226.5,-15951.8,-1893.42,57.4646,-16.7721,184.851,4547.3,8603.75,-7329.59,15.7044,90.5993,12.3376,7731.59,-11958.7,-25.0994,16.8685,-10.5612,42.2377,13329.2,-2453.66,-1409.93,-15.0383,7.42514,4.41596
3.987,26575.2,-487.543,-5584.06,69.1138,-176.761,-35.443,4160.0,2753.84,12027.8,104.61,-331.109,-12.6017,-15036.6,15211.7,246.527,4.468,149.2,-201.731,1328.6,-16037.0,-1834.56,58.0645,-18.0269,186.159,4388.13,8520.33,-7577.03,7.94469,100.997,11.0901,7890.05,-11963.1,201.859,17.616,-12.8264,41.0897,13331.8,-2468.04,-1431.11,-13.3674,7.49574,3.88323
3.988,25886.0,-1464.6,-4846.77,75.3347,-181.417,-38.7952,4173.46,2738.51,11949.8,106.86,-333.894,-11.2375,-14216.8,15170.6,-34.548,8.02262,148.101,-203.366,1462.77,-16145.4,-1799.12,58.6356,-19.1021,187.613,4218.1,8373.87,-7766.4,0.735132,112.137,9.23162,8045.89,-11959.9,406.226,18.2107,-15.4945,39.8827,13342.9,-2494.21,-1386.24,-11.2866,8.19861,3.5597
3.989,25196.8,-2441.66,-4109.49,81.5556,-186.073,-42.1474,4186.92,2723.18,11871.8,109.111,-336.679,-9.87325,-13396.9,15129.5,-315.623,11.5772,147.002,-205.0,1596.94,-16253.7,-1763.68,59.2068,-20.1772,189.068,4048.07,8227.41,-7955.77,-6.47443,123.278,7.37308,8201.72,-11956.7,610.593,18.8054,-18.1627,38.6758,13354.0,-2520.37,-1341.36,-9.20582,8.90149,3.23617
3.99,24507.6,-3418.72,-3372.21,87.7765,-190.729,-45.4996,4200.39,2707.85,11793.8,111.362,-339.464,-8.50901,-12577.1,15088.4,-596.697,15.1319,145.902,-206.634,1731.11,-16362.1,-1728.25,59.778,-21.2524,190.522,3878.05,8080.96,-8145.14,-13.684,134.418,5.51455,8357.55,-11953.4,814.96,19.4001,-20.8308,37.4688,13365.1,-2546.54,-1296.48,-7.12506,9.60437,2.91264
3.991,23818.4,-4395.78,-2634.93,93.9974,-195.385,-48.8518,4213.85,2692.52,11715.9,113.612,-342.248,-7.14477,-11757.3,15047.3,-877.772,18.6865,144.803,-208.269,1865.29,-16470.4,-1692.81,60.3491,-22.3276,191.977,3708.02,7934.5,-8334.51,-20.8935,145.559,3.65602,8513.39,-11950.2,1019.33,19.9947,-23.4989,36.2619,13376.3,-2572.71,-1251.6,-5.04429,10.3072,2.58911
3.992,21526.5,-5199.99,-157.562,97.2192,-213.642,-56.9568,4248.98,2663.09,11844.7,115.75,-346.36,-5.39029,-9854.01,14727.9,-2550.82,26.1494,136.815,-206.689,1962.8,-16572.4,-1576.57,60.9006,-23.1205,193.718,3414.19,7632.09,-8257.41,-28.2328,154.172,0.425938,8684.83,-11948.3,1171.36,20.8621,-26.783,34.9416,13494.3,-2679.06,-877.376,-3.86981,13.1501,2.44526
3.993,19034.2,-5982.6,2537.32,100.066,-233.599,-65.656,4286.81,2631.9,11999.5,117.874,-350.637,-3.58703,-7815.3,14373.6,-4397.86,34.1008,127.966,-204.708,2055.74,-16673.6,-1450.22,61.4496,-23.8781,195.494,3104.87,7310.18,-8147.0,-35.5883,162.469,-2.97559,8858.22,-11946.6,1316.85,21.7635,-30.144,33.6072,13625.6,-2795.43,-461.979,-2.80862,16.2604,2.32387
3.994,16541.9,-6765.21,5232.2,102.913,-253.555,-74.3551,4324.65,2600.71,12154.2,119.997,-354.915,-1.78377,-5776.6,14019.4,-6244.9,42.0522,119.117,-202.727,2148.67,-16774.8,-1323.88,61.9986,-24.6357,197.271,2795.56,6988.27,-8036.6,-42.9438,170.767,-6.37711,9031.61,-11944.9,1462.34,22.6649,-33.5051,32.2728,13757.0,-2911.8,-46.5827,-1.74742,19.3707,2.20249
3.995,14049.6,-7547.81,7927.08,105.76,-273.512,-83.0542,4362.49,2569.51,12309.0,122.121,-359.192,0.0194942,-3737.89,13665.2,-8091.94,50.0036,110.268,-200.746,2241.6,-16876.0,-1197.54,62.5476,-25.3933,199.048,2486.25,6666.37,-7926.19,-50.2993,179.064,-9.77864,9205.0,-11943.1,1607.83,23.5663,-36.8661,30.9384,13888.3,-3028.18,368.814,-0.68623,22.481,2.0811
3.996,8861.45,-9206.27,12815.2,95.4021,-309.838,-108.948,4366.92,2521.05,12508.3,124.415,-363.913,1.41444,-864.599,12890.8,-10654.7,53.8334,99.1168,-201.39,2406.48,-17008.3,-999.843,63.1243,-26.5125,200.827,2043.92,6463.29,-7349.78,-56.5292,182.778,-13.3429,9367.5,-11951.6,1704.64,24.5981,-40.7696,29.5216,14098.2,-3126.37,718.734,-1.84256,26.1541,2.1956
3.997,303.377,-11959.5,20444.9,68.5383,-366.624,-156.335,4329.61,2451.0,12763.4,126.92,-369.189,2.29899,3051.94,11591.1,-14112.2,52.5112,85.0891,-205.317,2661.27,-17179.5,-712.954,63.7354,-28.0836,202.608,1435.34,6408.76,-6190.85,-61.3523,180.764,-17.1107,9516.41,-11972.7,1740.6,25.7927,-45.3511,28.0018,14406.1,-3201.84,986.81,-5.77079,30.5308,2.60498
3.998,-8254.69,-14712.8,28074.6,41.6746,-423.41,-203.723,4292.29,2380.95,13018.5,129.426,-374.465,3.18354,6968.47,10291.5,-17569.7,51.1889,71.0613,-209.243,2916.07,-17350.8,-426.065,64.3466,-29.6548,204.389,826.75,6354.22,-5031.91,-66.1755,178.75,-20.8785,9665.31,-11993.9,1776.57,26.9874,-49.9326,26.4821,14714.1,-3277.31,1254.89,-9.69903,34.9074,3.01435
3.999,-16812.8,-17466.1,35704.4,14.8108,-480.196,-251.11,4254.98,2310.9,13273.6,131.932,-379.741,4.06809,10885.0,8991.84,-21027.2,49.8666,57.0336,-213.17,3170.86,-17522.0,-139.176,64.9578,-31.226,206.17,218.162,6299.68,-3872.98,-70.9986,176.736,-24.6462,9814.22,-12015.0,1812.53,28.1821,-54.5141,24.9623,15022.0,-3352.78,1522.96,-13.6273,39.2841,3.42373
4.0,-25370.8,-20219.4,43334.1,-12.053,-536.983,-298.498,4217.66,2240.84,13528.7,134.437,-385.017,4.95264,14801.5,7692.19,-24484.7,48.5443,43.0058,-217.096,3425.66,-17693.3,147.713,65.569,-32.7972,207.952,-390.425,6245.15,-2714.05,-75.8216,174.722,-28.414,9963.13,-12036.2,1848.5,29.3768,-59.0956,23.4426,15329.9,-3428.25,1791.04,-17.5555,43.6607,3.8331
4.001,-35850.1,-24793.5,44055.1,-9.35849,-531.427,-369.14,4086.56,2156.88,13822.6,137.197,-392.059,5.66185,21775.9,7784.9,-24794.2,29.3591,35.5969,-216.553,3794.71,-17952.4,530.916,67.0595,-34.4362,209.85,-1439.52,5982.57,-2201.48,-72.8101,171.668,-36.1806,10083.2,-12039.1,1770.08,29.7664,-64.634,21.8111,15531.1,-3033.7,1832.4,-25.9107,45.9336,5.59334
4.002,-46329.3,-29367.7,44776.2,-6.66402,-525.872,-439.782,3955.46,2072.91,14116.5,139.957,-399.1,6.37107,28750.2,7877.6,-25103.8,10.174,28.188,-216.01,4163.76,-18211.5,914.12,68.55,-36.0753,211.748,-2488.62,5720.0,-1688.9,-69.7985,168.614,-43.9472,10203.3,-12042.0,1691.66,30.1561,-70.1725,20.1796,15732.3,-2639.16,1873.77,-34.2659,48.2064,7.35357
4.003,-56808.6,-33941.8,45497.3,-3.96955,-520.317,-510.424,3824.36,1988.95,14410.4,142.717,-406.141,7.08028,35724.5,7970.3,-25413.3,-9.01123,20.7791,-215.467,4532.81,-18470.6,1297.32,70.0406,-37.7144,213.647,-3537.71,5457.42,-1176.33,-66.787,165.561,-51.7138,10323.4,-12045.0,1613.24,30.5458,-75.7109,18.5481,15933.6,-2244.62,1915.14,-42.6211,50.4792,9.11381
4.004,-67287.9,-38515.9,46218.4,-1.27508,-514.762,-581.066,3693.26,1904.98,14704.3,145.476,-413.183,7.78949,42698.8,8063.0,-25722.8,-28.1964,13.3702,-214.924,4901.87,-18729.7,1680.53,71.5311,-39.3535,215.545,-4586.81,5194.85,-663.754,-63.7754,162.507,-59.4804,10443.4,-12047.9,1534.82,30.9355,-81.2493,16.9166,16134.8,-1850.08,1956.51,-50.9763,52.7521,10.874
4.005,-68439.7,-35504.5,39746.7,20.4101,-470.808,-571.413,3521.95,1774.27,14952.6,147.357,-420.927,8.33746,48977.6,9621.04,-22731.7,-39.7823,3.03599,-200.802,5245.26,-19075.7,1910.19,73.1624,-41.7664,217.35,-5685.85,5378.24,-199.73,-58.8919,161.729,-69.2419,10602.0,-12086.1,1448.16,30.281,-86.3844,15.3404,16177.8,-1264.22,2529.96,-56.8447,52.7232,13.2579
4.006,-62129.7,-26424.7,27520.7,57.2879,-396.135,-497.524,3318.46,1606.17,15164.5,148.535,-429.234,8.75643,54699.9,12351.4,-17100.1,-45.2887,-9.63851,-175.817,5568.13,-19491.3,2017.02,74.9062,-44.7984,219.079,-6824.86,5918.42,225.453,-52.5109,162.771,-80.5993,10791.3,-12152.3,1354.9,28.7911,-91.1968,13.8086,16094.3,-525.316,3529.07,-60.7235,50.8529,16.1407
4.007,-55819.6,-17344.8,15294.7,94.1657,-321.462,-423.635,3114.97,1438.06,15376.3,149.712,-437.541,9.1754,60422.2,15081.7,-11468.5,-50.795,-22.313,-150.832,5891.0,-19906.9,2123.85,76.6501,-47.8305,220.808,-7963.86,6458.6,650.636,-46.1298,163.814,-91.9567,10980.7,-12218.6,1261.65,27.3013,-96.0092,12.2767,16010.7,213.593,4528.19,-64.6024,48.9827,19.0236
4.008,-49509.6,-8264.94,3068.67,131.044,-246.79,-349.746,2911.48,1269.96,15588.2,150.89,-445.849,9.59436,66144.4,17812.0,-5836.9,-56.3014,-34.9875,-125.847,6213.88,-20322.5,2230.68,78.394,-50.8625,222.538,-9102.87,6998.77,1075.82,-39.7488,164.856,-103.314,11170.0,-12284.9,1168.4,25.8115,-100.822,10.7449,15927.2,952.502,5527.31,-68.4812,47.1124,21.9064
4.009,-42168.9,-6.52881,-7071.04,163.323,-177.109,-273.949,2710.92,1142.52,15786.9,151.831,-454.255,10.027,70321.6,20135.2,-433.581,-61.3452,-42.722,-104.458,6517.64,-20743.8,2290.91,80.0841,-53.9994,224.216,-10184.2,7706.1,1536.32,-33.8591,166.292,-113.662,11369.7,-12368.4,1080.04,24.2751,-105.449,9.22212,15830.5,1664.29,6505.76,-71.8444,44.9049,24.7715
4.01,-26583.6,1680.21,-520.543,158.811,-147.368,-182.892,2533.77,1340.41,15880.4,150.886,-463.456,10.5692,62137.6,19200.9,3143.39,-62.6877,-10.9361,-111.843,6668.5,-21210.2,1978.27,81.3442,-57.9749,225.485,-10804.2,9750.67,2279.32,-31.8998,170.868,-115.936,11651.9,-12589.9,1030.82,22.3661,-108.592,7.77234,15628.7,2159.11,7318.9,-71.0818,39.9994,27.4948
4.011,-10998.2,3366.95,6029.96,154.3,-117.626,-91.8347,2356.63,1538.3,15973.9,149.94,-472.657,11.1113,53953.6,18266.6,6720.36,-64.0303,20.8499,-119.228,6819.37,-21676.6,1665.63,82.6042,-61.9505,226.754,-11424.2,11795.2,3022.32,-29.9406,175.444,-118.209,11934.2,-12811.4,981.594,20.4571,-111.735,6.32255,15426.9,2653.94,8132.04,-70.3193,35.0939,30.2181
4.012,4587.18,5053.69,12580.5,149.789,-87.8843,-0.777411,2179.49,1736.19,16067.4,148.995,-481.858,11.6535,45769.6,17332.3,10297.3,-65.3728,52.6358,-126.612,6970.24,-22143.0,1352.99,83.8643,-65.926,228.022,-12044.2,13839.8,3765.33,-27.9814,180.02,-120.482,12216.4,-13032.8,932.373,18.548,-114.878,4.87277,15225.1,3148.76,8945.18,-69.5568,30.1883,32.9414
4.013,20172.6,6740.42,19131.0,145.278,-58.1427,90.2798,2002.34,1934.08,16160.9,148.049,-491.059,12.1956,37585.6,16398.0,13874.3,-66.7154,84.4217,-133.997,7121.1,-22609.3,1040.34,85.1244,-69.9015,229.291,-12664.1,15884.4,4508.33,-26.0222,184.596,-122.756,12498.6,-13254.3,883.151,16.639,-118.021,3.42298,15023.3,3643.58,9758.33,-68.7943,25.2828,35.6648
4.014,31959.9,5540.33,22431.9,144.832,-53.1383,108.121,1858.37,2364.9,16127.7,148.344,-500.421,13.8196,26866.6,16614.9,13374.8,-65.7849,126.065,-140.768,7264.3,-22919.4,735.108,85.3706,-73.4132,230.703,-12428.1,18069.0,5183.69,-28.6682,185.52,-119.899,12792.7,-13544.1,889.634,16.05,-120.17,1.64119,14809.8,3946.79,9817.35,-68.7263,21.0048,38.1861
4.015,41848.3,2896.82,24108.0,146.417,-60.5023,89.3546,1730.99,2912.19,16031.2,149.259,-509.864,15.9845,14880.1,17407.3,10837.1,-63.718,172.637,-147.232,7403.67,-23151.2,433.574,85.1098,-76.693,232.186,-11764.0,20323.7,5825.22,-33.6169,184.618,-114.476,13092.8,-13868.0,923.969,16.1209,-121.821,-0.306612,14590.5,4154.18,9499.32,-69.0054,17.0406,40.6065
4.016,51736.6,253.312,25784.1,148.003,-67.8663,70.5881,1603.61,3459.47,15934.7,150.174,-519.307,18.1494,2893.56,18199.8,8299.43,-61.651,219.209,-153.696,7543.03,-23383.0,132.039,84.849,-79.9728,233.668,-11100.0,22578.4,6466.75,-38.5657,183.717,-109.053,13392.8,-14191.9,958.303,16.1919,-123.473,-2.25441,14371.1,4361.58,9181.28,-69.2846,13.0764,43.0269
4.017,61625.0,-2390.2,27460.2,149.589,-75.2304,51.8215,1476.22,4006.76,15838.3,151.089,-528.75,20.3143,-9092.95,18992.2,5761.74,-59.5841,265.781,-160.16,7682.4,-23614.8,-169.495,84.5882,-83.2525,235.151,-10435.9,24833.0,7108.29,-43.5144,182.815,-103.631,13692.9,-14515.9,992.638,16.2628,-125.125,-4.20221,14151.8,4568.97,8863.25,-69.5638,9.11214,45.4473
4.018,68775.3,-3479.35,27885.5,149.747,-87.066,30.6044,1341.63,4540.42,15745.2,152.07,-538.237,22.7934,-18964.2,19705.2,3994.86,-55.3695,304.128,-165.152,7868.98,-23816.2,-434.777,84.1383,-86.4369,236.605,-9515.92,26883.7,7578.25,-49.8878,180.376,-98.4715,13974.0,-14825.1,1021.93,16.9529,-126.516,-6.20906,13925.9,4756.9,8486.17,-70.0357,5.70047,47.7361
4.019,66342.3,871.723,23933.0,144.908,-114.552,0.810592,1181.81,5026.35,15664.3,153.28,-547.88,26.3721,-21432.2,20140.1,4925.85,-43.6382,313.684,-164.992,8220.81,-23911.2,-573.174,83.0263,-89.2875,237.959,-7700.19,28220.2,7447.72,-61.2478,172.56,-94.2349,14189.1,-15082.7,1033.56,19.81,-126.993,-8.42255,13676.9,4876.66,7902.43,-71.1822,4.22271,49.5647
4.02,63909.3,5222.8,19980.5,140.069,-142.039,-28.9833,1021.99,5512.29,15583.4,154.491,-557.523,29.9508,-23900.1,20575.1,5856.84,-31.9069,323.24,-164.833,8572.65,-24006.1,-711.57,81.9144,-92.1381,239.312,-5884.46,29556.7,7317.19,-72.6078,164.744,-89.9983,14404.1,-15340.4,1045.2,22.6671,-127.469,-10.636,13427.9,4996.42,7318.69,-72.3286,2.74495,51.3932
4.021,61476.3,9573.88,16028.0,135.229,-169.525,-58.7771,862.168,5998.23,15502.5,155.702,-567.166,33.5295,-26368.0,21010.0,6787.83,-20.1756,332.797,-164.673,8924.48,-24101.1,-849.966,80.8025,-94.9887,240.666,-4068.73,30893.1,7186.66,-83.9678,156.928,-85.7617,14619.1,-15598.0,1056.83,25.5242,-127.946,-12.8495,13179.0,5116.18,6734.95,-73.4751,1.2672,53.2217
4.022,59043.4,13925.0,12075.6,130.39,-197.011,-88.5709,702.348,6484.17,15421.5,156.912,-576.809,37.1081,-28836.0,21445.0,7718.83,-8.44431,342.353,-164.513,9276.31,-24196.1,-988.363,79.6905,-97.8393,242.019,-2253.0,32229.6,7056.12,-95.3278,149.112,-81.5251,14834.2,-15855.7,1068.46,28.3813,-128.422,-15.063,12930.0,5235.95,6151.21,-74.6215,-0.21056,55.0503
4.023,50549.7,17489.4,8445.93,111.725,-221.054,-84.3913,547.243,6728.7,15505.7,158.367,-586.879,40.5446,-27400.5,22630.4,9929.32,-6.68263,317.647,-163.064,9780.89,-24228.2,-1025.7,78.9787,-101.585,242.557,-549.993,32721.4,6847.17,-102.271,145.599,-77.1583,14944.0,-15978.6,1129.35,31.7667,-128.036,-17.4321,12596.1,5326.01,5957.63,-74.2199,-0.381994,55.8752
4.024,40324.5,20829.0,4908.56,89.1089,-244.114,-70.5049,393.486,6904.25,15637.0,159.891,-597.071,43.9405,-24849.8,24030.2,12505.4,-7.76942,283.153,-161.247,10329.1,-24242.3,-1034.17,78.3811,-105.587,242.861,1120.81,32971.9,6615.82,-107.953,143.316,-72.7542,15023.9,-16063.0,1204.31,35.3031,-127.402,-19.8456,12237.9,5407.6,5875.52,-73.3761,-0.180193,56.4134
4.025,30099.2,24168.6,1371.18,66.4931,-267.173,-56.6185,239.729,7079.81,15768.3,161.416,-607.262,47.3363,-22299.1,25430.1,15081.5,-8.85621,248.658,-159.429,10877.3,-24256.5,-1042.64,77.7836,-109.589,243.166,2791.62,33222.3,6384.47,-113.634,141.032,-68.3501,15103.7,-16147.4,1279.27,38.8394,-126.769,-22.2591,11879.7,5489.18,5793.41,-72.5322,0.0216085,56.9516
4.026,19873.9,27508.3,-2166.19,43.8772,-290.233,-42.7321,85.9717,7255.37,15899.6,162.94,-617.454,50.7321,-19748.4,26829.9,17657.5,-9.94299,214.163,-157.611,11425.5,-24270.6,-1051.11,77.186,-113.591,243.47,4462.42,33472.7,6153.11,-119.316,138.749,-63.946,15183.6,-16231.8,1354.23,42.3758,-126.135,-24.6726,11521.5,5570.76,5711.3,-71.6883,0.22341,57.4897
4.027,11848.2,28271.3,-4978.32,24.5623,-306.93,-32.2577,-49.7634,7327.13,16067.8,164.273,-627.866,53.9545,-18131.1,27990.1,19146.4,-11.1202,182.845,-157.979,11908.1,-24304.4,-1015.15,76.7226,-118.177,243.519,5867.27,33177.6,6221.18,-120.948,137.174,-58.5511,15211.6,-16281.9,1466.58,45.4322,-125.127,-27.0693,11128.6,5639.06,5775.44,-69.9472,0.00632809,57.6628
4.028,8221.51,23880.9,-6339.95,11.8493,-310.9,-28.6075,-149.454,7191.3,16309.6,165.221,-638.722,56.8298,-18380.6,28670.9,18460.8,-12.4783,157.883,-162.718,12259.4,-24377.4,-890.352,76.5273,-123.93,243.055,6740.19,31791.4,6888.09,-114.48,137.016,-51.1745,15136.2,-16263.6,1653.72,47.5288,-123.369,-29.4321,10666.1,5680.79,6132.06,-66.4116,-1.04852,57.1058
4.029,4594.82,19490.5,-7701.58,-0.863701,-314.871,-24.9573,-249.145,7055.47,16551.4,166.17,-649.578,59.7051,-18630.1,29351.7,17775.3,-13.8363,132.92,-167.457,12610.7,-24450.4,-765.552,76.3321,-129.684,242.592,7613.12,30405.1,7554.99,-108.013,136.857,-43.7979,15060.7,-16245.3,1840.86,49.6254,-121.611,-31.795,10203.7,5722.52,6488.68,-62.876,-2.10337,56.5488
4.03,968.126,15100.2,-9063.22,-13.5767,-318.841,-21.3071,-348.836,6919.65,16793.3,167.118,-660.434,62.5805,-18879.6,30032.5,17089.8,-15.1944,107.957,-172.195,12961.9,-24523.5,-640.752,76.1368,-135.437,242.128,8486.04,29018.9,8221.9,-101.545,136.699,-36.4213,14985.3,-16226.9,2027.99,51.722,-119.854,-34.1578,9741.29,5764.25,6845.3,-59.3404,-3.15822,55.9917
4.031,-2658.57,10709.8,-10424.8,-26.2897,-322.812,-17.6569,-448.526,6783.82,17035.1,168.066,-671.29,65.4558,-19129.1,30713.3,16404.2,-16.5524,82.9941,-176.934,13313.2,-24596.5,-515.952,75.9416,-141.19,241.665,9358.97,27632.6,8888.81,-95.0781,136.54,-29.0446,14909.9,-16208.6,2215.13,53.8186,-118.096,-36.5206,9278.86,5805.98,7201.92,-55.8048,-4.21306,55.4347
4.032,490.708,7421.78,-7404.8,-24.3185,-322.429,-17.0063,-425.116,6884.75,17075.7,166.318,-681.643,68.2849,-19551.9,29395.2,15011.1,-17.6688,70.6755,-184.426,13630.4,-24782.4,-682.534,75.0397,-146.785,240.09,9608.8,25506.9,9211.57,-82.1994,133.934,-23.5606,14722.6,-16123.9,2373.96,53.9687,-114.765,-38.4525,8862.49,5664.25,7293.26,-51.8305,-6.74899,54.1494
4.033,4486.98,4271.54,-3837.04,-20.5118,-321.502,-16.7306,-386.319,7015.28,17091.1,164.232,-691.933,71.1082,-19996.4,27827.3,13529.6,-18.755,59.9375,-192.262,13943.4,-24982.4,-885.54,74.0496,-152.359,238.377,9780.73,23288.7,9491.31,-68.5192,131.021,-18.3131,14521.3,-16030.9,2529.25,53.8755,-111.238,-40.3304,8451.89,5499.58,7351.43,-47.8014,-9.47005,52.773
4.034,8483.26,1121.29,-269.289,-16.7052,-320.574,-16.455,-347.521,7145.81,17106.6,162.145,-702.224,73.9315,-20440.9,26259.4,12048.1,-19.8412,49.1994,-200.097,14256.4,-25182.4,-1088.55,73.0595,-157.934,236.663,9952.67,21070.5,9771.06,-54.8391,128.108,-13.0656,14320.0,-15937.9,2684.53,53.7823,-107.71,-42.2083,8041.28,5334.91,7409.61,-43.7723,-12.1911,51.3966
4.035,12479.5,-2028.96,3298.47,-12.8985,-319.647,-16.1794,-308.724,7276.34,17122.1,160.059,-712.514,76.7548,-20885.4,24691.5,10566.5,-20.9274,38.4614,-207.933,14569.4,-25382.4,-1291.55,72.0693,-163.508,234.95,10124.6,18852.3,10050.8,-41.159,125.196,-7.81809,14118.7,-15844.9,2839.82,53.6892,-104.183,-44.0863,7630.67,5170.24,7467.78,-39.7432,-14.9122,50.0202
4.036,15907.4,-4520.73,6848.11,-3.75926,-314.444,-17.7676,-165.497,7596.66,16918.6,158.025,-722.313,80.2371,-20204.3,22784.1,8888.24,-21.5877,29.0094,-213.242,14854.5,-25476.8,-1541.56,70.9659,-167.519,233.199,10054.4,16725.1,9917.35,-26.7669,122.027,-3.77294,14000.4,-15760.8,2862.2,53.4378,-99.8942,-46.0134,7319.5,4884.47,7348.8,-35.9931,-16.6987,48.3877
4.037,18624.9,-6189.41,10375.1,12.0456,-303.895,-21.6858,108.265,8154.2,16441.5,156.056,-731.498,84.5432,-18116.3,20452.5,6964.02,-21.7156,21.165,-215.391,15104.9,-25439.4,-1850.33,69.7209,-169.574,231.403,9681.67,14711.6,9267.39,-11.4848,118.538,-1.23073,13985.9,-15687.6,2718.45,52.9888,-94.6535,-48.0019,7132.63,4447.33,7008.35,-32.5916,-17.3172,46.4351
4.038,21342.4,-7858.09,13902.1,27.8505,-293.347,-25.604,382.027,8711.75,15964.4,154.086,-740.683,88.8494,-16028.2,18120.9,5039.81,-21.8436,13.3205,-217.541,15355.3,-25402.0,-2159.09,68.4759,-171.63,229.606,9308.9,12698.0,8617.44,3.79722,115.049,1.31148,13971.3,-15614.5,2574.7,52.5397,-89.4129,-49.9905,6945.76,4010.19,6667.91,-29.1902,-17.9357,44.4825
4.039,24059.8,-9526.77,17429.1,43.6554,-282.799,-29.5222,655.789,9269.3,15487.3,152.117,-749.868,93.1555,-13940.2,15789.4,3115.6,-21.9715,5.47613,-219.691,15605.7,-25364.6,-2467.86,67.231,-173.685,227.81,8936.12,10684.5,7967.48,19.0793,111.561,3.8537,13956.7,-15541.3,2430.95,52.0907,-84.1722,-51.9791,6758.88,3573.05,6327.47,-25.7887,-18.5541,42.5298
4.04,26777.3,-11195.4,20956.1,59.4603,-272.251,-33.4404,929.552,9826.84,15010.2,150.147,-759.053,97.4616,-11852.2,13457.8,1191.39,-22.0994,-2.36829,-221.841,15856.0,-25327.2,-2776.62,65.986,-175.74,226.013,8563.34,8670.97,7317.53,34.3613,108.072,6.39591,13942.1,-15468.1,2287.21,51.6416,-78.9316,-53.9677,6572.01,3135.91,5987.03,-22.3872,-19.1726,40.5772
4.041,25077.9,-12816.5,22168.0,73.4416,-249.124,-42.6942,1822.55,10018.1,13728.1,155.262,-773.625,106.48,-9151.78,11732.3,-1260.56,-20.8675,-5.44373,-216.124,16168.7,-24775.4,-2913.63,66.4465,-168.039,225.945,7877.89,7395.85,6310.7,47.9976,104.075,7.18606,13803.1,-15345.7,1669.01,55.149,-70.5282,-55.5316,6643.36,2703.17,5828.98,-20.4972,-17.2177,38.782
4.042,23378.6,-14437.6,23379.9,87.4229,-225.997,-51.948,2715.54,10209.4,12446.0,160.376,-788.197,115.498,-6451.37,10006.8,-3712.51,-19.6357,-8.51917,-210.406,16481.4,-24223.6,-3050.64,66.907,-160.338,225.876,7192.44,6120.72,5303.88,61.6339,100.078,7.97621,13664.1,-15223.2,1050.81,58.6564,-62.1247,-57.0955,6714.71,2270.43,5670.93,-18.6072,-15.2627,36.9868
4.043,21679.2,-16058.7,24591.8,101.404,-202.87,-61.2018,3608.54,10400.6,11163.9,165.491,-802.769,124.516,-3750.96,8281.33,-6164.45,-18.4038,-11.5946,-204.689,16794.0,-23671.8,-3187.65,67.3676,-152.637,225.808,6506.99,4845.6,4297.05,75.2702,96.0814,8.76637,13525.1,-15100.7,432.611,62.1638,-53.7213,-58.6595,6786.05,1837.69,5512.87,-16.7172,-13.3078,35.1916
4.044,19979.9,-17679.8,25803.6,115.386,-179.743,-70.4556,4501.53,10591.9,9881.83,170.605,-817.341,133.534,-1050.54,6555.85,-8616.4,-17.172,-14.67,-198.971,17106.7,-23120.0,-3324.66,67.8281,-144.936,225.739,5821.54,3570.47,3290.23,88.9065,92.0846,9.55652,13386.1,-14978.2,-185.588,65.6712,-45.3179,-60.2234,6857.4,1404.95,5354.82,-14.8273,-11.3529,33.3964
4.045,18130.5,-17347.1,24957.1,119.353,-158.358,-74.5178,5814.64,10145.6,8751.43,177.735,-833.187,142.314,1175.07,5075.27,-10790.5,-11.9192,-13.2542,-191.929,17183.1,-22457.5,-3401.98,69.5297,-131.28,227.17,4947.22,2653.8,2208.55,100.946,89.5332,9.12108,13029.8,-14781.3,-805.429,70.7242,-36.0724,-61.1837,6983.5,1074.36,5339.46,-13.3588,-9.42392,31.8324
4.046,16161.1,-15451.3,22463.8,115.31,-138.364,-74.4267,7463.84,9189.33,7742.39,186.475,-850.053,150.902,3020.84,3790.6,-12742.3,-3.4496,-8.24543,-183.826,17070.5,-21706.5,-3431.56,72.2242,-112.861,229.799,3921.81,2023.9,1067.01,111.708,88.138,7.70517,12499.5,-14524.8,-1426.58,77.0139,-26.1532,-61.6611,7153.4,825.471,5438.25,-12.2275,-7.51572,30.4534
4.047,14191.7,-13555.5,19970.6,111.266,-118.371,-74.3357,9113.04,8233.05,6733.34,195.216,-866.919,159.49,4866.61,2505.94,-14694.0,5.02,-3.23663,-175.723,16957.9,-20955.4,-3461.14,74.9187,-94.4419,232.428,2896.41,1394.0,-74.5362,122.469,86.7428,6.28925,11969.3,-14268.2,-2047.74,83.3035,-16.234,-62.1385,7323.3,576.585,5537.05,-11.0963,-5.60753,29.0744
4.048,12222.3,-11659.8,17477.4,107.223,-98.3779,-74.2446,10762.2,7276.78,5724.29,203.957,-883.785,168.079,6712.38,1221.27,-16645.8,13.4896,1.77217,-167.62,16845.3,-20204.4,-3490.72,77.6131,-76.0227,235.057,1871.0,764.101,-1216.08,133.231,85.3476,4.87334,11439.1,-14011.7,-2668.9,89.5932,-6.31485,-62.6158,7493.2,327.7,5635.84,-9.965,-3.69933,27.6953
4.049,10395.6,-9704.92,15089.0,103.253,-80.5434,-74.0908,12549.8,6311.29,4981.27,211.993,-898.017,174.712,8392.3,72.2091,-18317.2,21.6808,6.90236,-159.612,16633.2,-19478.0,-3519.71,80.1559,-58.0411,237.872,819.704,208.719,-2307.1,143.31,84.3671,3.15325,10889.3,-13727.0,-3216.32,95.4217,3.11679,-63.0754,7657.86,86.9473,5739.33,-8.81072,-1.93581,26.3715
4.05,9710.33,-7277.6,13539.7,99.8779,-79.979,-73.4352,15444.0,5272.09,6366.47,214.386,-891.183,165.708,8745.41,7.99943,-17745.4,27.6451,13.0036,-152.367,15625.2,-18949.3,-3543.97,81.4849,-43.5604,242.177,-438.708,249.492,-2993.89,147.928,86.7048,-1.00025,10182.9,-13216.7,-3173.9,97.561,8.64816,-63.3927,7780.55,-88.7456,5880.42,-7.47231,-1.32975,25.4895
4.051,9025.05,-4850.27,11990.5,96.5024,-79.4145,-72.7796,18338.3,4232.89,7751.67,216.78,-884.349,156.705,9098.53,-56.2102,-17173.6,33.6094,19.1049,-145.121,14617.2,-18420.6,-3568.23,82.814,-29.0798,246.483,-1697.12,290.265,-3680.68,152.546,89.0425,-5.15375,9476.52,-12706.4,-3131.48,99.7004,14.1795,-63.71,7903.25,-264.439,6021.51,-6.13389,-0.723681,24.6074
4.052,8339.77,-2422.95,10441.2,93.1269,-78.8501,-72.1239,21232.5,3193.68,9136.87,219.173,-877.516,147.701,9451.64,-120.42,-16601.7,39.5736,25.2062,-137.876,13609.2,-17891.9,-3592.49,84.143,-14.5991,250.788,-2955.53,331.037,-4367.47,157.164,91.3801,-9.30725,8770.16,-12196.2,-3089.06,101.84,19.7109,-64.0272,8025.95,-440.132,6162.6,-4.79548,-0.117615,23.7254
4.053,7654.5,4.37702,8891.98,89.7514,-78.2856,-71.4683,24126.7,2154.48,10522.1,221.567,-870.682,138.697,9804.75,-184.63,-16029.9,45.5379,31.3074,-130.63,12601.2,-17363.3,-3616.75,85.4721,-0.118427,255.093,-4213.94,371.81,-5054.27,161.782,93.7178,-13.4608,8063.79,-11685.9,-3046.64,103.979,25.2423,-64.3445,8148.65,-615.824,6303.69,-3.45706,0.488452,22.8434
4.054,7950.72,-183.828,7350.07,94.2607,-76.2312,-75.2177,26925.7,2592.33,12204.2,222.438,-849.797,124.352,8865.61,390.085,-14397.2,44.0867,36.2934,-128.074,11428.3,-17276.8,-3742.27,86.0061,7.82708,257.021,-5367.93,846.352,-5348.34,161.194,97.4825,-17.8325,7461.96,-11234.8,-2814.02,102.188,26.3935,-66.0368,8259.79,-798.77,6338.87,-2.15453,0.699385,22.326
4.055,8737.69,-1679.8,5811.84,102.712,-73.4319,-81.1697,29677.1,3768.72,14034.9,222.548,-821.888,107.337,7280.34,1284.26,-12234.0,38.9276,40.7217,-127.861,10172.8,-17411.6,-3918.42,86.1427,12.505,257.759,-6469.7,1537.78,-5446.05,158.003,101.961,-22.3133,6912.4,-10813.3,-2486.29,98.4312,25.3546,-68.4167,8365.16,-985.342,6321.09,-0.869945,0.712751,21.9909
4.056,9524.67,-3175.77,4273.61,111.164,-70.6325,-87.1216,32428.5,4945.1,15865.5,222.659,-793.979,90.3214,5695.06,2178.44,-10070.8,33.7686,45.1499,-127.649,8917.42,-17546.3,-4094.56,86.2792,17.1829,258.498,-7571.47,2229.2,-5543.76,154.812,106.439,-26.7941,6362.84,-10391.8,-2158.56,94.6746,24.3157,-70.7965,8470.53,-1171.91,6303.31,0.414642,0.726117,21.6557
4.057,10311.6,-4671.74,2735.37,119.616,-67.8332,-93.0735,35179.9,6121.48,17696.2,222.769,-766.07,73.3061,4109.79,3072.61,-7907.57,28.6096,49.5782,-127.437,7662.0,-17681.0,-4270.71,86.4158,21.8609,259.237,-8673.24,2920.63,-5641.48,151.622,110.917,-31.275,5813.27,-9970.27,-1830.83,90.9179,23.2768,-73.1764,8575.9,-1358.49,6285.53,1.69923,0.739483,21.3206
4.058,11133.5,-5986.46,1619.33,126.934,-64.7827,-96.0084,37269.7,7780.9,19191.8,221.795,-739.63,60.2846,2314.14,4003.62,-5922.74,23.9011,54.0404,-128.715,6374.23,-17923.3,-4494.05,86.1476,25.4284,259.575,-9727.84,3586.07,-5639.23,147.231,114.893,-35.5493,5319.17,-9628.1,-1619.22,86.4354,21.8094,-76.0734,8690.25,-1547.72,6245.38,3.02429,0.844043,21.0301
4.059,12077.7,-6666.84,1980.96,130.285,-60.8536,-88.3839,37043.9,11130.9,19515.1,217.028,-718.333,61.2411,-217.858,5063.54,-4562.24,20.7696,58.6216,-135.211,4973.29,-18542.0,-4882.6,84.4625,25.1098,258.514,-10617.3,4160.56,-5287.14,138.641,117.114,-39.1007,5019.17,-9563.62,-1814.06,79.4122,18.842,-80.7804,8836.0,-1746.25,6126.97,4.491,1.26778,20.8956
4.06,13021.8,-7347.22,2342.58,133.637,-56.9245,-80.7594,36818.0,14481.0,19838.3,212.261,-697.036,62.1976,-2749.85,6123.45,-3201.74,17.638,63.2028,-141.707,3572.34,-19160.8,-5271.14,82.7774,24.7911,257.453,-11506.8,4735.05,-4935.04,130.052,119.334,-42.6521,4719.17,-9499.13,-2008.9,72.3889,15.8746,-85.4874,8981.75,-1944.78,6008.57,5.95772,1.69152,20.7611
4.061,13965.9,-8027.6,2704.21,136.988,-52.9954,-73.135,36592.2,17831.0,20161.5,207.493,-675.739,63.1541,-5281.85,7183.37,-1841.24,14.5064,67.784,-148.202,2171.4,-19779.5,-5659.68,81.0923,24.4724,256.392,-12396.3,5309.54,-4582.95,121.462,121.555,-46.2035,4419.17,-9434.65,-2203.73,65.3656,12.9073,-90.1944,9127.51,-2143.32,5890.16,7.42444,2.11525,20.6266
4.062,14910.0,-8707.98,3065.84,140.339,-49.0663,-65.5105,36366.4,21181.1,20484.7,202.726,-654.442,64.1107,-7813.84,8243.28,-480.741,11.3749,72.3652,-154.698,770.453,-20398.3,-6048.22,79.4072,24.1537,255.331,-13285.7,5884.02,-4230.85,112.873,123.775,-49.755,4119.18,-9370.17,-2398.57,58.3424,9.93994,-94.9014,9273.26,-2341.85,5771.75,8.89115,2.53899,20.4921
4.063,15652.7,-8838.72,3904.92,143.885,-43.215,-55.1335,35063.7,23857.7,20163.9,190.006,-640.689,76.4992,-9491.38,9299.11,99.2447,12.1274,75.1707,-160.593,40.7201,-20854.8,-7005.77,76.1804,27.3477,256.576,-13913.1,6028.94,-3845.56,104.253,121.811,-53.0123,3959.09,-9474.0,-3001.68,50.7376,9.23129,-99.9847,9397.13,-2566.2,5667.69,9.83692,3.28697,20.5724
4.064,16337.7,-8812.42,4880.42,147.488,-36.8144,-43.9701,33453.2,26342.0,19658.9,175.014,-629.091,92.154,-10924.8,10353.8,456.225,13.9898,77.4688,-166.316,-497.238,-21265.1,-8125.9,72.5131,31.5454,258.481,-14465.7,6051.13,-3450.79,95.626,118.653,-56.1857,3838.99,-9625.93,-3721.43,42.9667,9.16798,-105.176,9514.74,-2797.93,5567.74,10.6338,4.1276,20.7141
4.065,17022.7,-8786.12,5855.92,151.09,-30.4138,-32.8068,31842.7,28826.3,19154.0,160.022,-617.494,107.809,-12358.2,11408.4,813.206,15.8521,79.7669,-172.04,-1035.2,-21675.3,-9246.03,68.8458,35.743,260.386,-15018.2,6073.32,-3056.02,86.9986,115.494,-59.359,3718.88,-9777.86,-4441.19,35.1959,9.10467,-110.367,9632.35,-3029.65,5467.78,11.4308,4.96823,20.8559
4.066,17707.8,-8759.82,6831.42,154.692,-24.0133,-21.6434,30232.3,31310.6,18649.1,145.029,-605.897,123.464,-13791.6,12463.1,1170.19,17.7145,82.065,-177.763,-1573.15,-22085.5,-10366.2,65.1786,39.9407,262.291,-15570.8,6095.5,-2661.25,78.3711,112.335,-62.5324,3598.78,-9929.79,-5160.94,27.425,9.04136,-115.557,9749.97,-3261.38,5367.82,12.2277,5.80886,20.9976
4.067,18029.6,-8470.89,7762.1,155.208,-18.6458,-14.0991,28642.0,32910.2,18036.1,127.281,-594.352,138.568,-14451.6,13468.0,1487.79,18.8763,81.756,-181.124,-1513.84,-22536.3,-11481.0,60.8324,44.7927,263.142,-16126.4,5915.11,-2458.15,71.0331,108.854,-65.6584,3520.66,-10132.2,-5829.66,19.5718,9.85781,-120.559,9862.98,-3492.62,5269.68,12.4364,6.86645,21.1901
4.068,17625.0,-7656.69,8603.14,149.549,-15.3446,-13.7929,27091.9,32740.3,17206.7,104.019,-582.911,152.572,-13564.7,14373.6,1726.62,18.6373,76.2326,-179.758,-259.989,-23068.3,-12585.2,55.1283,50.9533,261.883,-16688.0,5329.54,-2638.4,66.2741,104.728,-68.6899,3526.53,-10435.4,-6396.29,11.5542,12.4338,-125.184,9966.81,-3722.91,5175.18,11.4687,8.35798,21.4844
4.069,17220.4,-6842.5,9444.18,143.89,-12.0435,-13.4866,25541.9,32570.4,16377.2,80.7575,-571.47,166.577,-12677.8,15279.1,1965.45,18.3982,70.7092,-178.391,993.864,-23600.4,-13689.4,49.4242,57.1139,260.624,-17249.6,4743.98,-2818.66,61.5151,100.602,-71.7213,3532.4,-10738.7,-6962.92,3.53662,15.0097,-129.808,10070.6,-3953.2,5080.68,10.501,9.84951,21.7787
4.07,16815.8,-6028.31,10285.2,138.231,-8.74227,-13.1804,23991.9,32400.5,15547.8,57.4959,-560.03,180.581,-11790.9,16184.7,2204.28,18.1592,65.1859,-177.025,2247.72,-24132.4,-14793.7,43.7202,63.2746,259.365,-17811.3,4158.42,-2998.91,56.7561,96.4769,-74.7527,3538.27,-11041.9,-7529.55,-4.48098,17.5857,-134.432,10174.5,-4183.49,4986.18,9.53326,11.341,22.073
4.071,16411.1,-5214.12,11126.3,132.572,-5.44109,-12.8742,22441.8,32230.7,14718.4,34.2343,-548.589,194.585,-10904.0,17090.2,2443.11,17.9201,59.6625,-175.659,3501.57,-24664.4,-15897.9,38.0161,69.4352,258.106,-18372.9,3572.85,-3179.16,51.9971,92.3513,-77.7842,3544.13,-11345.2,-8096.18,-12.4986,20.1617,-139.056,10278.3,-4413.78,4891.69,8.56554,12.8326,22.3673
4.072,15124.8,-3045.3,11460.7,124.559,-3.7107,-15.4411,20956.4,31267.1,14236.9,12.8104,-539.729,203.311,-9253.56,17287.3,2757.56,15.6163,48.1402,-170.64,5170.7,-24995.6,-16607.4,34.9543,74.8126,254.662,-19109.8,3073.03,-3557.87,49.9304,89.3145,-80.4012,3607.5,-11788.5,-8187.93,-18.9174,22.987,-143.231,10438.9,-4607.08,4849.29,7.14943,14.8916,22.6617
4.073,13728.2,-707.146,11731.8,116.253,-2.17666,-18.367,19479.0,30204.4,13798.9,-8.38392,-531.191,211.376,-7507.69,17395.9,3081.46,13.0544,35.868,-165.164,6891.74,-25301.6,-17267.5,32.2227,80.0921,250.946,-19868.7,2583.93,-3961.38,48.2002,86.4138,-82.9664,3678.05,-12249.4,-8220.32,-25.1364,25.8435,-147.349,10606.7,-4795.75,4813.42,5.67727,17.0215,22.9561
4.074,12331.6,1631.01,12002.9,107.946,-0.642627,-21.293,18001.6,29141.7,13360.9,-29.5782,-522.653,219.441,-5761.83,17504.4,3405.37,10.4925,23.5958,-159.688,8612.77,-25607.6,-17927.7,29.4912,85.3716,247.23,-20627.5,2094.82,-4364.89,46.4701,83.5131,-85.5317,3748.61,-12710.2,-8252.7,-31.3554,28.7,-151.467,10774.5,-4984.43,4777.54,4.20511,19.1515,23.2506
4.075,10935.0,3969.16,12273.9,99.6396,0.891411,-24.2189,16524.2,28078.9,12922.8,-50.7725,-514.115,227.507,-4015.96,17612.9,3729.27,7.93066,11.3236,-154.212,10333.8,-25913.6,-18587.8,26.7596,90.6511,243.514,-21386.4,1605.72,-4768.4,44.7399,80.6124,-88.0969,3819.16,-13171.1,-8285.09,-37.5745,31.5566,-155.585,10942.2,-5173.11,4741.67,2.73296,21.2814,23.545
4.076,9631.6,5625.37,12375.6,91.0633,2.4527,-26.1496,15135.0,27128.3,13299.8,-67.7949,-508.612,234.037,-2737.91,17460.9,3861.7,5.84111,0.0701063,-149.368,11714.8,-26061.6,-18960.8,26.5943,96.3093,239.065,-22069.8,1391.95,-4991.61,43.0453,76.4551,-90.2912,3870.66,-13723.4,-8062.41,-41.1752,33.9656,-159.724,11092.8,-5324.71,4733.45,1.36676,23.3281,23.8749
4.077,8444.58,6429.16,12265.4,82.15,4.04807,-26.8361,13856.1,26317.7,14695.5,-79.6025,-506.901,238.648,-2044.64,16983.0,3754.8,4.34198,-9.91012,-145.314,12670.7,-26012.2,-18974.9,29.6366,102.441,233.7,-22658.9,1522.35,-4989.45,41.3952,70.7269,-92.0217,3898.35,-14390.1,-7520.91,-41.503,35.8153,-163.887,11221.9,-5429.99,4759.81,0.133014,25.2707,24.249
4.078,7257.56,7232.94,12155.2,73.2366,5.64343,-27.5225,12577.2,25507.1,16091.2,-91.41,-505.191,243.258,-1351.36,16505.2,3647.9,2.84285,-19.8903,-141.26,13626.6,-25962.7,-18989.1,32.679,108.572,228.335,-23248.0,1652.75,-4987.29,39.7451,64.9988,-93.7523,3926.05,-15056.7,-6979.4,-41.8309,37.665,-168.051,11351.1,-5535.26,4786.17,-1.10073,27.2133,24.623
4.079,6070.55,8036.73,12045.0,64.3233,7.2388,-28.209,11298.3,24696.6,17486.9,-103.218,-503.481,247.869,-658.081,16027.3,3541.0,1.34373,-29.8706,-137.206,14582.4,-25913.2,-19003.2,35.7214,114.704,222.97,-23837.1,1783.15,-4985.14,38.0949,59.2706,-95.4828,3953.74,-15723.4,-6437.9,-42.1587,39.5147,-172.214,11480.2,-5640.54,4812.52,-2.33448,29.1559,24.9971
4.08,4883.53,8840.52,11934.8,55.41,8.83416,-28.8955,10019.4,23886.0,18882.7,-115.025,-501.771,252.48,35.1963,15549.5,3434.1,-0.1554,-39.8508,-133.152,15538.3,-25863.7,-19017.3,38.7637,120.836,217.605,-24426.2,1913.55,-4982.98,36.4448,53.5425,-97.2134,3981.43,-16390.1,-5896.39,-42.4866,41.3644,-176.378,11609.3,-5745.81,4838.88,-3.56822,31.0985,25.3712
4.081,4808.52,7677.38,11621.6,48.4711,9.70801,-27.7421,10171.2,23068.3,19815.7,-121.023,-500.954,255.292,-225.101,15251.9,3020.95,-0.535559,-43.3585,-130.561,15227.8,-25307.2,-18587.3,45.1093,128.775,212.318,-24266.0,2479.36,-4537.33,35.4426,43.3385,-98.3474,3756.66,-17051.0,-5023.87,-37.5244,39.1662,-180.254,11799.0,-5673.5,4873.28,-4.48698,32.8718,25.805
4.082,4733.51,6514.24,11308.5,41.5321,10.5818,-26.5886,10323.0,22250.6,20748.8,-127.02,-500.136,258.103,-485.399,14954.4,2607.8,-0.915717,-46.8663,-127.969,14917.4,-24750.8,-18157.2,51.4549,136.715,207.031,-24105.7,3045.17,-4091.68,34.4405,33.1346,-99.4814,3531.89,-17711.9,-4151.35,-32.5623,36.968,-184.129,11988.6,-5601.19,4907.68,-5.40574,34.6451,26.2388
4.083,4658.51,5351.1,10995.4,34.5932,11.4557,-25.4352,10474.8,21433.0,21681.9,-133.017,-499.318,260.915,-745.696,14656.8,2194.65,-1.29588,-50.374,-125.378,14606.9,-24194.3,-17727.2,57.8005,144.655,201.744,-23945.5,3610.99,-3646.03,33.4383,22.9307,-100.615,3307.11,-18372.8,-3278.82,-27.6001,34.7698,-188.005,12178.3,-5528.88,4942.08,-6.3245,36.4183,26.6726
4.084,4583.5,4187.96,10682.3,27.6543,12.3295,-24.2817,10626.6,20615.3,22615.0,-139.015,-498.501,263.727,-1005.99,14359.2,1781.5,-1.67603,-53.8818,-122.787,14296.4,-23637.8,-17297.1,64.1461,152.595,196.457,-23785.2,4176.8,-3200.38,32.4362,12.7267,-101.749,3082.34,-19033.7,-2406.3,-22.6379,32.5716,-191.88,12367.9,-5456.57,4976.48,-7.24326,38.1916,27.1065
4.085,4927.96,2885.29,10283.7,23.3758,12.238,-22.1305,11423.4,19994.3,22710.2,-144.843,-492.209,266.585,-1231.7,14200.0,1481.9,-2.79597,-55.981,-120.329,13598.6,-22993.8,-16362.0,70.4552,159.953,192.193,-23226.8,4801.56,-2797.32,31.4348,2.78117,-102.673,2664.61,-19595.1,-1583.98,-16.6703,28.6196,-195.531,12533.6,-5296.7,5008.54,-7.8209,39.73,27.5015
4.086,5607.99,1470.98,9816.68,21.2256,11.3743,-19.1811,12736.1,19530.7,22135.2,-150.537,-481.537,269.481,-1429.73,14151.6,1273.14,-4.50772,-56.9534,-117.978,12591.0,-22279.8,-15023.0,76.735,166.845,188.746,-22349.8,5473.48,-2428.34,30.4339,-6.9577,-103.428,2092.51,-20076.9,-801.824,-9.89823,23.2646,-199.002,12680.1,-5066.78,5038.73,-8.12564,41.0806,27.8656
4.087,6288.03,56.6782,9349.65,19.0755,10.5105,-16.2317,14048.9,19067.1,21560.1,-156.231,-470.865,272.377,-1627.76,14103.1,1064.38,-6.21948,-57.9259,-115.626,11583.3,-21565.7,-13683.9,83.0148,173.738,185.3,-21472.8,6145.4,-2059.35,29.433,-16.6966,-104.183,1520.4,-20558.8,-19.6666,-3.12619,17.9095,-202.472,12826.6,-4836.86,5068.91,-8.43038,42.4311,28.2296
4.088,6968.06,-1357.63,8882.63,16.9254,9.64674,-13.2822,15361.6,18603.4,20985.1,-161.925,-460.193,275.273,-1825.79,14054.7,855.621,-7.93123,-58.8983,-113.274,10575.7,-20851.7,-12344.9,89.2946,180.63,181.853,-20595.9,6817.32,-1690.36,28.4321,-26.4354,-104.939,948.3,-21040.6,762.491,3.64585,12.5545,-205.943,12973.1,-4606.94,5099.1,-8.73512,43.7816,28.5936
4.089,7617.29,-2686.08,8459.88,14.9316,8.72311,-10.385,16640.9,18086.4,20564.4,-168.163,-448.24,277.107,-1988.55,13992.4,662.668,-9.76012,-60.0439,-111.034,9515.01,-20162.6,-11006.5,95.3073,187.213,178.722,-19693.9,7466.27,-1353.66,27.2516,-35.5142,-105.786,363.392,-21514.5,1480.05,10.101,7.26517,-209.351,13110.4,-4368.09,5132.51,-8.99207,45.0427,28.9738
4.09,8020.03,-3327.75,8391.34,14.1888,7.32065,-7.90551,17652.3,17142.4,21379.2,-178.763,-426.038,270.454,-1869.1,13820.0,596.17,-12.5261,-62.5748,-109.68,8029.56,-19673.7,-9674.32,99.1828,191.322,178.113,-18592.2,7931.53,-1275.25,24.6345,-39.3122,-107.369,-323.962,-21924.7,1680.84,14.0206,2.501,-212.262,13174.5,-4057.86,5191.71,-8.86677,45.5875,29.4828
4.091,8422.78,-3969.43,8322.8,13.446,5.91818,-5.42602,18663.8,16198.4,22194.0,-189.363,-403.836,263.802,-1749.64,13647.7,529.672,-15.292,-65.1058,-108.326,6544.1,-19184.8,-8342.08,103.058,195.432,177.505,-17490.6,8396.79,-1196.85,22.0173,-43.1102,-108.951,-1011.32,-22335.0,1881.63,17.9402,-2.26316,-215.172,13238.6,-3747.63,5250.91,-8.74146,46.1323,29.9919
4.092,8825.53,-4611.1,8254.26,12.7032,4.51572,-2.94654,19675.2,15254.4,23008.7,-199.962,-381.634,257.149,-1630.19,13475.3,463.173,-18.0579,-67.6367,-106.972,5058.65,-18695.8,-7009.85,106.934,199.541,176.897,-16388.9,8862.05,-1118.44,19.4001,-46.9082,-110.534,-1698.67,-22745.3,2082.42,21.8599,-7.02732,-218.083,13302.7,-3437.39,5310.11,-8.61615,46.6771,30.5009
4.093,9228.27,-5252.77,8185.72,11.9603,3.11325,-0.467058,20686.6,14310.3,23823.5,-210.562,-359.432,250.496,-1510.74,13302.9,396.675,-20.8238,-70.1676,-105.618,3573.19,-18206.9,-5677.62,110.809,203.65,176.288,-15287.2,9327.32,-1040.03,16.783,-50.7062,-112.117,-2386.03,-23155.6,2283.2,25.7795,-11.7915,-220.993,13366.8,-3127.16,5369.31,-8.49084,47.222,31.01
4.094,9211.43,-5097.7,8336.54,10.4406,2.12945,0.559385,21457.4,13210.6,24488.5,-216.38,-334.155,239.488,-1434.41,13020.9,258.658,-22.579,-73.3771,-104.774,2060.61,-17779.3,-4597.27,109.049,203.877,175.241,-14238.9,9797.67,-1046.15,14.6132,-51.1344,-113.858,-2930.85,-23418.0,2082.59,27.6533,-14.2052,-222.098,13399.2,-2828.29,5425.2,-7.93961,47.368,31.599
4.095,8984.79,-4544.24,8597.03,8.53228,1.35497,0.859309,22107.7,12032.9,25078.6,-219.808,-307.34,226.304,-1379.64,12684.0,84.8825,-23.8288,-76.9258,-104.184,534.474,-17382.4,-3642.85,104.471,202.163,173.975,-13217.2,10270.6,-1094.54,12.6671,-49.8777,-115.677,-3404.41,-23606.6,1681.29,28.5043,-15.4436,-222.3,13415.8,-2535.1,5479.43,-7.17543,47.3145,32.228
4.096,8758.15,-3990.79,8857.53,6.62399,0.580497,1.15923,22758.1,10855.3,25668.6,-223.236,-280.524,213.12,-1324.87,12347.1,-88.8934,-25.0786,-80.4745,-103.595,-991.666,-16985.4,-2688.44,99.8926,200.449,172.709,-12195.6,10743.5,-1142.93,10.7211,-48.621,-117.496,-3877.97,-23795.2,1279.98,29.3553,-16.6821,-222.502,13432.3,-2241.9,5533.66,-6.41124,47.2611,32.8569
4.097,8531.51,-3437.34,9118.02,4.71571,-0.193977,1.45916,23408.5,9677.65,26258.7,-226.663,-253.709,199.935,-1270.09,12010.3,-262.669,-26.3283,-84.0232,-103.006,-2517.81,-16588.5,-1734.02,95.3143,198.735,171.443,-11173.9,11216.4,-1191.32,8.77499,-47.3643,-119.316,-4351.52,-23983.7,878.671,30.2062,-17.9205,-222.704,13448.9,-1948.71,5587.89,-5.64706,47.2076,33.4859
4.098,8227.05,-2799.04,9357.78,2.54421,-0.752948,1.57225,24047.7,8594.8,26770.2,-227.005,-225.676,187.199,-1237.6,11703.4,-437.173,-27.2891,-87.3341,-102.304,-3942.7,-16163.0,-846.302,89.4433,195.505,169.702,-10203.3,11665.8,-1215.1,7.34484,-45.9887,-121.037,-4735.35,-24127.9,391.017,31.1005,-17.9629,-222.125,13467.1,-1682.64,5630.96,-4.70313,47.0659,34.0776
4.099,7650.22,-1863.82,9524.96,-0.54856,-0.557654,1.03143,24647.9,7843.75,27006.7,-216.545,-193.381,176.029,-1283.06,11501.9,-614.226,-27.2382,-89.8129,-101.208,-5013.2,-15637.4,-192.016,79.0474,186.972,166.295,-9411.28,12033.1,-1152.75,7.72042,-44.1969,-122.416,-4805.09,-24116.8,-398.849,32.1462,-13.819,-218.814,13490.9,-1511.52,5634.95,-3.13012,46.6149,34.5385
4.1,7073.4,-928.589,9692.14,-3.64133,-0.362361,0.490616,25248.1,7092.7,27243.1,-206.084,-161.086,164.86,-1328.52,11300.3,-791.278,-27.1873,-92.2917,-100.111,-6083.7,-15111.8,462.27,68.6515,178.438,162.889,-8619.25,12400.3,-1090.4,8.09599,-42.4051,-123.795,-4874.84,-24105.7,-1188.72,33.192,-9.67513,-215.502,13514.7,-1340.4,5638.94,-1.5571,46.164,34.9995
4.101,6496.57,6.63936,9859.31,-6.7341,-0.167067,-0.0501999,25848.3,6341.65,27479.6,-195.624,-128.791,153.691,-1373.99,11098.7,-968.33,-27.1364,-94.7705,-99.015,-7154.2,-14586.2,1116.56,58.2556,169.904,159.483,-7827.22,12767.6,-1028.05,8.47157,-40.6134,-125.174,-4944.59,-24094.5,-1978.58,34.2378,-5.53124,-212.19,13538.5,-1169.28,5642.94,0.0159162,45.7131,35.4605
4.102,5919.74,941.867,10026.5,-9.82687,0.0282259,-0.591016,26448.6,5590.6,27716.0,-185.164,-96.4963,142.522,-1419.45,10897.2,-1145.38,-27.0855,-97.2493,-97.9186,-8224.71,-14060.6,1770.84,47.8597,161.37,156.077,-7035.19,13134.9,-965.699,8.84715,-38.8216,-126.553,-5014.34,-24083.4,-2768.45,35.2835,-1.38735,-208.878,13562.4,-998.165,5646.93,1.58893,45.2622,35.9214
4.103,5584.8,1216.08,9952.86,-12.431,0.379445,-0.328644,26177.8,4864.3,28649.8,-170.063,-65.4035,130.381,-1415.14,10830.8,-1209.4,-27.0392,-99.0319,-96.0372,-8663.36,-13595.4,2074.7,38.9208,151.081,151.853,-6402.4,13392.0,-912.174,11.0139,-38.6844,-127.167,-4849.87,-24014.9,-3586.82,37.1244,5.98788,-202.598,13586.4,-926.327,5635.39,3.15669,44.5719,36.1456
4.104,5318.97,1301.44,9810.42,-14.8955,0.775215,0.16321,25658.2,4145.08,29782.8,-153.635,-34.6541,117.962,-1396.61,10803.1,-1241.12,-26.9943,-100.616,-93.9315,-8921.48,-13147.4,2278.43,30.3981,140.29,147.394,-5815.1,13617.7,-861.17,13.6924,-39.0199,-127.564,-4618.49,-23930.0,-4413.34,39.1925,14.2864,-195.471,13610.4,-882.855,5619.4,4.72294,43.8132,36.3022
4.105,5053.13,1386.79,9667.99,-17.3599,1.17098,0.655064,25138.6,3425.86,30915.8,-137.208,-3.90474,105.543,-1378.08,10775.4,-1272.84,-26.9493,-102.199,-91.8258,-9179.6,-12699.3,2482.16,21.8755,129.499,142.936,-5227.81,13843.4,-810.166,16.3709,-39.3555,-127.961,-4387.1,-23845.1,-5239.85,41.2606,22.5848,-188.343,13634.4,-839.383,5603.4,6.28919,43.0545,36.4587
4.106,4787.3,1472.14,9525.56,-19.8244,1.56675,1.14692,24619.0,2706.64,32048.9,-120.781,26.8446,93.1236,-1359.54,10747.7,-1304.56,-26.9043,-103.783,-89.72,-9437.73,-12251.3,2685.89,13.3529,118.709,138.478,-4640.51,14069.1,-759.162,19.0494,-39.691,-128.357,-4155.72,-23760.2,-6066.37,43.3287,30.8833,-181.215,13658.4,-795.911,5587.41,7.85544,42.2959,36.6152
4.107,4671.02,1255.03,9348.35,-21.6294,1.73895,1.69424,23696.2,2170.81,32723.4,-102.62,54.5737,81.8241,-1320.27,10714.0,-1319.01,-26.859,-105.185,-87.6073,-9441.66,-11933.8,2795.62,6.04139,107.957,133.988,-4175.58,14233.3,-751.296,22.1623,-40.6985,-128.489,-3877.85,-23649.5,-6716.86,45.0551,39.2466,-173.01,13684.2,-799.666,5561.23,9.31327,41.5207,36.6418
4.108,4853.84,433.006,9101.58,-22.1156,1.46398,2.35251,21966.8,2001.77,32481.0,-80.9915,76.2624,72.7636,-1239.52,10668.4,-1298.94,-26.8131,-106.226,-85.4806,-8937.19,-11877.1,2717.31,1.15219,97.2836,129.437,-3955.37,14274.6,-829.704,26.144,-43.0497,-128.093,-3507.01,-23486.9,-7015.29,46.0981,47.7397,-162.651,13713.3,-897.871,5514.66,10.5542,40.7127,36.4083
4.109,5036.66,-389.023,8854.82,-22.6017,1.18902,3.01077,20237.5,1832.73,32238.6,-59.3632,97.9511,63.703,-1158.77,10622.8,-1278.86,-26.7671,-107.267,-83.3539,-8432.73,-11820.4,2639.01,-3.73701,86.6103,124.885,-3735.17,14315.9,-908.113,30.1256,-45.401,-127.697,-3136.18,-23324.4,-7313.71,47.1411,56.2327,-152.292,13742.3,-996.077,5468.09,11.7952,39.9048,36.1748
4.11,5219.48,-1211.05,8608.06,-23.0878,0.91406,3.66904,18508.2,1663.69,31996.2,-37.7349,119.64,54.6424,-1078.01,10577.2,-1258.78,-26.7211,-108.307,-81.2272,-7928.27,-11763.7,2560.71,-8.62621,75.9369,120.334,-3514.96,14357.2,-986.522,34.1072,-47.7522,-127.3,-2765.35,-23161.9,-7612.14,48.1841,64.7258,-141.933,13771.4,-1094.28,5421.51,13.0362,39.0968,35.9413
4.111,5402.31,-2033.08,8361.3,-23.574,0.639098,4.3273,16778.8,1494.66,31753.8,-16.1065,141.328,45.5818,-997.262,10531.5,-1238.7,-26.6752,-109.348,-79.1005,-7423.81,-11707.0,2482.41,-13.5154,65.2635,115.783,-3294.76,14398.5,-1064.93,38.0889,-50.1035,-126.904,-2394.51,-22999.4,-7910.57,49.2271,73.2188,-131.574,13800.5,-1192.49,5374.94,14.2771,38.2888,35.7079
4.112,5605.11,-2647.92,8234.49,-22.9931,-0.11037,4.98287,15690.6,1599.38,30818.7,1.21469,158.688,39.874,-879.976,10445.1,-1258.87,-26.1883,-109.231,-77.6544,-6226.13,-11754.9,2419.16,-15.6093,53.4783,109.864,-3404.16,14297.3,-1281.29,41.3491,-52.9249,-125.844,-2035.86,-22999.9,-7619.05,49.1084,78.2918,-121.272,13764.9,-1309.63,5329.49,14.9085,37.1829,34.97
4.113,5810.41,-3236.85,8122.67,-22.2788,-0.919152,5.63809,14682.4,1738.32,29797.0,17.9975,175.507,34.5853,-758.122,10353.6,-1284.08,-25.6464,-108.969,-76.2934,-4941.8,-11815.8,2357.79,-17.3539,41.5541,103.775,-3554.77,14178.4,-1514.89,44.5192,-55.805,-124.701,-1678.73,-23020.7,-7253.78,48.8444,82.9373,-110.977,13721.1,-1429.14,5284.18,15.4637,36.0397,34.169
4.114,6015.7,-3825.79,8010.85,-21.5646,-1.72793,6.29332,13674.3,1877.26,28775.4,34.7804,192.326,29.2965,-636.269,10262.1,-1309.28,-25.1044,-108.707,-74.9324,-3657.47,-11876.8,2296.42,-19.0984,29.6299,97.6854,-3705.37,14059.4,-1748.49,47.6892,-58.6851,-123.558,-1321.6,-23041.6,-6888.52,48.5805,87.5829,-100.682,13677.3,-1548.65,5238.87,16.0189,34.8966,33.3681
4.115,6221.0,-4414.72,7899.04,-20.8503,-2.53672,6.94854,12666.1,2016.2,27753.7,51.5633,209.145,24.0078,-514.416,10170.6,-1334.49,-24.5625,-108.446,-73.5713,-2373.14,-11937.7,2235.04,-20.8429,17.7057,91.5961,-3855.98,13940.5,-1982.09,50.8593,-61.5652,-122.416,-964.466,-23062.4,-6523.25,48.3165,92.2284,-90.3872,13633.6,-1668.16,5193.55,16.5741,33.7535,32.5671
