Time,RFoot_accel.x,RFoot_accel.y,RFoot_accel.z,RFoot_gyro.x,RFoot_gyro.y,RFoot_gyro.z,LFoot_accel.x,LFoot_accel.y,LFoot_accel.z,LFoot_gyro.x,LFoot_gyro.y,LFoot_gyro.z,RShank_accel.x,RShank_accel.y,RShank_accel.z,RShank_gyro.x,RShank_gyro.y,RShank_gyro.z,LShank_accel.x,LShank_accel.y,LShank_accel.z,LShank_gyro.x,LShank_gyro.y,LShank_gyro.z,RThigh_accel.x,RThigh_accel.y,RThigh_accel.z,RThigh_gyro.x,RThigh_gyro.y,RThigh_gyro.z,LThigh_accel.x,LThigh_accel.y,LThigh_accel.z,LThigh_gyro.x,LThigh_gyro.y,LThigh_gyro.z,Pelvis_accel.x,Pelvis_accel.y,Pelvis_accel.z,Pelvis_gyro.x,Pelvis_gyro.y,Pelvis_gyro.z
3.49,3622.98,-4604.53,7289.25,-78.6699,317.752,202.505,4538.7,2535.74,8120.25,-12.0591,5.29011,12.3551,5412.41,3490.14,-1079.93,137.896,-19.8407,276.8,529.996,-9302.35,-2589.38,-9.2268,-31.6807,28.6806,-9114.81,3039.74,-2301.11,28.8405,59.8525,152.709,-17.3805,-9518.52,1788.25,-96.1955,-49.7019,102.77,4323.32,-1674.46,2477.66,50.3352,19.2973,62.4387
3.491,3577.29,-4520.95,7369.87,-77.7356,318.455,204.511,4540.38,2524.43,8142.07,-12.2392,5.53189,12.5784,5401.83,3640.74,-1089.33,139.496,-16.4136,278.182,555.667,-9386.79,-2570.73,-9.18337,-30.193,28.9313,-8850.32,2884.97,-2234.71,23.5441,67.943,157.017,-555.793,-10005.9,2096.5,-93.5743,-57.445,100.017,4308.47,-1750.58,2469.78,50.7439,19.0894,61.9445
3.492,3531.61,-4437.37,7450.5,-76.8013,319.159,206.517,4542.06,2513.13,8163.88,-12.4193,5.77368,12.8018,5391.24,3791.34,-1098.72,141.095,-12.9864,279.564,581.338,-9471.23,-2552.07,-9.13994,-28.7053,29.1821,-8585.83,2730.19,-2168.31,18.2478,76.0336,161.324,-1094.21,-10493.3,2404.74,-90.953,-65.1881,97.2643,4293.62,-1826.71,2461.9,51.1526,18.8815,61.4502
3.493,3485.93,-4353.79,7531.12,-75.867,319.862,208.523,4543.74,2501.82,8185.69,-12.5993,6.01546,13.0251,5380.65,3941.94,-1108.12,142.695,-9.55925,280.946,607.01,-9555.67,-2533.41,-9.09651,-27.2177,29.4328,-8321.33,2575.42,-2101.91,12.9514,84.1241,165.631,-1632.62,-10980.7,2712.99,-88.3318,-72.9312,94.5116,4278.77,-1902.83,2454.02,51.5613,18.6736,60.9559
3.494,3458.17,-4269.67,7634.24,-75.5715,320.087,210.517,4541.16,2459.71,8196.88,-12.6551,6.2576,13.2907,5357.94,4097.44,-1105.26,144.196,-6.46707,282.536,617.324,-9635.94,-2486.48,-9.02087,-25.7655,29.7174,-8197.37,2324.02,-2070.42,9.80957,93.5377,169.266,-1966.3,-11395.9,2635.66,-85.882,-78.1649,91.7254,4306.7,-1966.16,2465.47,51.8629,18.4971,60.548
3.495,3439.37,-4185.28,7748.61,-75.5954,320.073,212.504,4536.44,2402.2,8202.76,-12.6488,6.49992,13.5774,5329.16,4255.4,-1096.28,145.647,-3.54238,284.23,619.959,-9714.13,-2425.41,-8.92913,-24.331,30.019,-8143.67,2024.32,-2056.4,7.74508,103.613,172.563,-2197.62,-11775.0,2365.55,-83.5179,-82.1438,88.9224,4356.02,-2023.1,2486.57,52.1108,18.3364,60.1832
3.496,3420.57,-4100.89,7862.98,-75.6193,320.059,214.491,4531.72,2344.69,8208.64,-12.6424,6.74224,13.8641,5300.38,4413.37,-1087.3,147.099,-0.617697,285.925,622.595,-9792.33,-2364.35,-8.83738,-22.8965,30.3205,-8089.97,1724.61,-2042.37,5.68058,113.688,175.861,-2428.93,-12154.1,2095.43,-81.1539,-86.1226,86.1194,4405.34,-2080.04,2507.67,52.3588,18.1756,59.8184
3.497,3401.77,-4016.5,7977.35,-75.6431,320.045,216.478,4527.01,2287.17,8214.53,-12.6361,6.98456,14.1508,5271.6,4571.33,-1078.32,148.551,2.30699,287.619,625.231,-9870.52,-2303.28,-8.74564,-21.462,30.6221,-8036.27,1424.91,-2028.34,3.61608,123.763,179.159,-2660.25,-12533.2,1825.32,-78.7898,-90.1015,83.3164,4454.67,-2136.97,2528.78,52.6068,18.0149,59.4537
3.498,3396.59,-3934.39,8088.35,-75.7175,320.012,218.329,4526.85,2222.06,8226.96,-12.6176,7.21164,14.3769,5239.65,4730.16,-1061.49,149.919,5.01475,289.266,623.513,-9948.8,-2238.75,-8.65743,-20.0674,30.9201,-7986.0,1116.93,-1989.03,2.84644,133.503,181.73,-2824.69,-12839.6,1503.55,-76.6786,-93.325,80.7566,4508.45,-2201.39,2541.46,52.8793,17.8835,59.0791
3.499,3439.05,-3860.26,8187.58,-75.9683,319.915,219.705,4542.66,2130.36,8262.31,-12.5567,7.38539,14.3908,5196.62,4892.06,-1017.19,150.998,6.96328,290.745,606.556,-10027.4,-2162.06,-8.58155,-18.8128,31.2058,-7947.71,779.988,-1861.24,6.60877,142.069,181.76,-2755.1,-12892.0,1001.01,-75.4521,-93.9045,79.048,4577.85,-2291.97,2524.65,53.2378,17.8549,58.6701
3.5,3481.51,-3786.13,8286.81,-76.2191,319.818,221.08,4558.46,2038.66,8297.67,-12.4958,7.55914,14.4048,5153.59,5053.96,-972.893,152.076,8.91181,292.225,589.599,-10105.9,-2085.38,-8.50567,-17.5582,31.4914,-7909.41,443.049,-1733.45,10.3711,150.635,181.79,-2685.51,-12944.4,498.474,-74.2256,-94.4841,77.3393,4647.25,-2382.55,2507.84,53.5963,17.8263,58.2612
3.501,3523.98,-3712.0,8386.04,-76.4699,319.721,222.456,4574.27,1946.95,8333.02,-12.4349,7.73289,14.4187,5110.55,5215.86,-928.596,153.155,10.8603,293.704,572.642,-10184.5,-2008.7,-8.42979,-16.3036,31.7771,-7871.12,106.11,-1605.66,14.1334,159.201,181.82,-2615.92,-12996.8,-4.06636,-72.999,-95.0636,75.6307,4716.65,-2473.14,2491.03,53.9548,17.7977,57.8522
3.502,3566.44,-3637.88,8485.27,-76.7207,319.623,223.832,4590.08,1855.25,8368.38,-12.374,7.90664,14.4327,5067.52,5377.76,-884.299,154.233,12.8089,295.184,555.685,-10263.0,-1932.01,-8.35391,-15.0489,32.0628,-7832.83,-230.829,-1477.86,17.8957,167.767,181.849,-2546.32,-13049.2,-506.607,-71.7725,-95.6432,73.922,4786.05,-2563.72,2474.22,54.3133,17.7691,57.4433
3.503,3639.38,-3593.84,8490.48,-77.0502,319.752,225.388,4596.36,1784.68,8412.73,-12.1902,7.98307,14.3008,5002.45,5561.69,-833.081,155.027,14.0453,296.644,500.627,-10318.0,-1868.58,-8.25404,-14.0608,32.3725,-7685.44,-404.905,-1275.0,24.2981,171.107,179.811,-2215.04,-12856.2,-881.91,-70.8835,-94.9042,74.2223,4853.46,-2590.12,2442.05,54.6355,17.7031,56.8333
3.504,3721.02,-3558.4,8468.84,-77.4021,319.944,226.995,4599.93,1720.15,8459.65,-11.9713,8.03169,14.1273,4931.08,5751.92,-779.885,155.739,15.0783,298.099,434.683,-10366.2,-1808.94,-8.14732,-13.1488,32.689,-7506.89,-532.45,-1050.69,31.4548,172.953,177.181,-1808.99,-12593.0,-1220.86,-70.0909,-93.7885,75.0966,4920.3,-2598.18,2405.49,54.9475,17.6265,56.1659
3.505,3802.67,-3522.97,8447.19,-77.7541,320.137,228.602,4603.49,1655.62,8506.57,-11.7523,8.08031,13.9537,4859.72,5942.15,-726.689,156.451,16.1113,299.553,368.738,-10414.5,-1749.29,-8.0406,-12.2368,33.0055,-7328.33,-659.995,-826.371,38.6115,174.799,174.551,-1402.95,-12329.8,-1559.81,-69.2983,-92.6728,75.9708,4987.15,-2606.24,2368.94,55.2594,17.5498,55.4986
3.506,3884.31,-3487.53,8425.55,-78.1061,320.329,230.21,4607.05,1591.09,8553.49,-11.5334,8.12893,13.7802,4788.35,6132.38,-673.493,157.163,17.1442,301.008,302.794,-10462.7,-1689.64,-7.93388,-11.3247,33.322,-7149.78,-787.539,-602.057,45.7682,176.646,171.921,-996.898,-12066.6,-1898.76,-68.5058,-91.5571,76.8451,5053.99,-2614.29,2332.38,55.5713,17.4732,54.8312
3.507,3997.42,-3446.04,8438.21,-78.4355,320.54,231.806,4605.2,1538.43,8589.14,-11.2964,8.14812,13.623,4724.99,6320.38,-615.027,157.888,18.0566,302.462,231.41,-10506.6,-1623.98,-7.83378,-10.6447,33.6486,-6949.55,-865.276,-383.524,52.7299,175.357,168.855,-553.215,-11786.6,-2181.44,-68.1977,-90.3566,78.133,5124.02,-2612.0,2303.94,55.7625,17.2377,54.2354
3.508,4173.44,-3392.43,8519.5,-78.72,320.788,233.381,4592.53,1509.48,8602.26,-11.0232,8.10843,13.4984,4677.62,6503.91,-546.018,158.637,18.7279,303.913,149.146,-10541.6,-1546.27,-7.74693,-10.4285,33.9954,-6705.96,-843.396,-176.554,59.3015,167.799,164.918,-34.2637,-11472.9,-2351.57,-68.8586,-88.9866,80.2483,5200.42,-2588.98,2291.74,55.7122,16.6845,53.7828
3.509,4349.47,-3338.83,8600.78,-79.0045,321.035,234.955,4579.86,1480.54,8615.38,-10.75,8.06874,13.3738,4630.25,6687.45,-477.009,159.387,19.3992,305.364,66.881,-10576.7,-1468.57,-7.66007,-10.2123,34.3421,-6462.38,-821.516,30.4163,65.8731,160.24,160.981,484.688,-11159.2,-2521.7,-69.5195,-87.6166,82.3635,5276.81,-2565.96,2279.54,55.6619,16.1313,53.3303
3.51,4525.5,-3285.22,8682.07,-79.289,321.283,236.53,4567.19,1451.59,8628.5,-10.4768,8.02905,13.2492,4582.88,6870.98,-408.001,160.136,20.0704,306.815,-15.3836,-10611.7,-1390.86,-7.57322,-9.99615,34.6888,-6218.79,-799.636,237.387,72.4447,152.682,157.043,1003.64,-10845.6,-2691.83,-70.1805,-86.2466,84.4788,5353.21,-2542.95,2267.34,55.6115,15.5781,52.8777
3.511,4701.52,-3231.61,8763.35,-79.5734,321.531,238.104,4554.52,1422.65,8641.62,-10.2037,7.98936,13.1246,4535.52,7054.52,-338.992,160.886,20.7417,308.266,-97.6481,-10646.8,-1313.16,-7.48636,-9.77998,35.0356,-5975.21,-777.756,444.357,79.0163,145.124,153.106,1522.59,-10531.9,-2861.96,-70.8414,-84.8766,86.594,5429.6,-2519.93,2255.14,55.5612,15.0249,52.4252
3.512,4830.74,-3242.87,8875.33,-81.1136,321.734,239.444,4547.1,1428.35,8639.1,-9.8105,7.91793,13.1202,4504.81,7208.66,-352.901,161.133,21.6477,310.401,-213.02,-10654.2,-1307.27,-7.52704,-9.89285,35.1578,-5743.07,-662.894,434.361,82.1145,132.35,148.638,1974.12,-10400.8,-2930.35,-73.3971,-83.1482,88.3387,5491.58,-2521.1,2280.02,55.8014,14.5016,51.8554
3.513,4954.11,-3262.24,8991.15,-82.8107,321.933,240.755,4540.33,1438.38,8634.61,-9.40232,7.84254,13.1308,4476.17,7359.13,-377.175,161.318,22.5831,312.622,-332.53,-10658.1,-1310.37,-7.58366,-10.0468,35.2519,-5512.35,-536.409,397.244,84.7784,118.924,144.103,2417.23,-10292.5,-2986.01,-76.1897,-81.375,90.037,5551.76,-2525.3,2309.54,56.0779,13.9819,51.271
3.514,5077.48,-3281.61,9106.97,-84.5078,322.131,242.066,4533.56,1448.41,8630.13,-8.99415,7.76715,13.1414,4447.54,7509.6,-401.448,161.503,23.5185,314.842,-452.041,-10662.1,-1313.46,-7.64029,-10.2008,35.346,-5281.64,-409.924,360.127,87.4424,105.497,139.568,2860.34,-10184.2,-3041.68,-78.9823,-79.6019,91.7354,5611.94,-2529.49,2339.06,56.3544,13.4623,50.6867
3.515,5200.84,-3300.98,9222.79,-86.2049,322.329,243.377,4526.79,1458.44,8625.65,-8.58598,7.69176,13.1521,4418.91,7660.07,-425.722,161.688,24.4539,317.063,-571.551,-10666.0,-1316.56,-7.69691,-10.3548,35.4402,-5050.92,-283.44,323.011,90.1063,92.0714,135.033,3303.44,-10075.9,-3097.35,-81.7748,-77.8287,93.4337,5672.12,-2533.68,2368.58,56.6309,12.9427,50.1023
3.516,5324.89,-3295.1,9299.81,-87.5727,322.526,244.557,4524.07,1472.39,8621.35,-8.13263,7.62216,13.2107,4402.42,7739.45,-460.052,162.009,25.4776,319.412,-653.942,-10648.7,-1294.97,-7.7189,-10.6602,35.5815,-4846.35,-74.7667,177.67,90.2839,79.1534,130.727,3661.04,-10039.6,-3133.93,-84.752,-76.0823,94.4484,5737.58,-2525.77,2373.67,56.7989,12.472,49.5471
3.517,5449.79,-3257.65,9328.33,-88.5288,322.72,245.574,4526.42,1491.22,8617.28,-7.6228,7.55981,13.3295,4401.08,7729.99,-506.953,162.501,26.6117,321.921,-689.932,-10604.8,-1242.53,-7.69759,-11.1549,35.7817,-4674.45,236.641,-102.952,87.3534,66.8705,126.705,3911.73,-10093.5,-3146.65,-87.9598,-74.3695,94.6087,5809.64,-2502.73,2348.21,56.8313,12.0625,49.0283
3.518,5574.7,-3220.2,9356.84,-89.4849,322.914,246.591,4528.77,1510.05,8613.21,-7.11297,7.49746,13.4483,4399.75,7720.52,-553.854,162.993,27.7457,324.431,-725.922,-10560.9,-1190.09,-7.67629,-11.6495,35.982,-4502.56,548.049,-383.574,84.4229,54.5877,122.683,4162.43,-10147.4,-3159.37,-91.1677,-72.6568,94.769,5881.71,-2479.68,2322.74,56.8637,11.653,48.5096
3.519,5699.6,-3182.75,9385.36,-90.441,323.109,247.608,4531.13,1528.88,8609.14,-6.60314,7.43512,13.5671,4398.42,7711.06,-600.754,163.485,28.8798,326.94,-761.912,-10517.0,-1137.66,-7.65499,-12.1442,36.1823,-4330.66,859.457,-664.195,81.4924,42.3048,118.662,4413.13,-10201.3,-3172.1,-94.3756,-70.944,94.9292,5953.77,-2456.64,2297.28,56.896,11.2435,47.9908
3.52,5824.5,-3145.3,9413.87,-91.3971,323.303,248.625,4533.48,1547.72,8605.07,-6.09331,7.37277,13.6859,4397.09,7701.6,-647.655,163.976,30.0139,329.449,-797.902,-10473.1,-1085.22,-7.63368,-12.6388,36.3826,-4158.76,1170.87,-944.817,78.5619,30.022,114.64,4663.83,-10255.1,-3184.82,-97.5834,-69.2312,95.0895,6025.84,-2433.6,2271.82,56.9284,10.834,47.4721
3.521,5961.2,-3112.2,9410.83,-92.392,323.841,249.809,4554.7,1557.15,8597.71,-5.52147,7.41866,13.8105,4388.06,7651.72,-700.596,164.776,31.4151,331.755,-804.591,-10470.7,-1122.01,-7.81837,-13.1297,36.393,-4169.27,1610.91,-1211.6,70.0209,23.3143,113.319,4772.13,-10272.8,-3065.37,-98.9893,-68.6614,94.6519,6053.42,-2403.4,2201.16,57.2972,10.2475,46.9454
3.522,6097.9,-3079.09,9407.79,-93.3869,324.379,250.994,4575.92,1566.58,8590.35,-4.94962,7.46455,13.935,4379.02,7601.84,-753.538,165.576,32.8163,334.06,-811.279,-10468.4,-1158.81,-8.00306,-13.6207,36.4034,-4179.79,2050.95,-1478.38,61.4799,16.6067,111.999,4880.43,-10290.4,-2945.93,-100.395,-68.0915,94.2142,6080.99,-2373.19,2130.49,57.666,9.66106,46.4188
3.523,6234.59,-3045.98,9404.75,-94.3819,324.917,252.179,4597.14,1576.02,8583.0,-4.37778,7.51044,14.0596,4369.99,7551.96,-806.479,166.375,34.2175,336.365,-817.968,-10466.1,-1195.6,-8.18774,-14.1116,36.4139,-4190.3,2490.99,-1745.16,52.939,9.89904,110.678,4988.73,-10308.0,-2826.49,-101.801,-67.5217,93.7766,6108.57,-2342.99,2059.83,58.0347,9.07459,45.8922
3.524,6371.29,-3012.88,9401.71,-95.3768,325.455,253.363,4618.36,1585.45,8575.65,-3.80593,7.55633,14.1842,4360.95,7502.09,-859.421,167.175,35.6186,338.67,-824.657,-10463.7,-1232.4,-8.37243,-14.6025,36.4243,-4200.81,2931.04,-2011.95,44.398,3.1914,109.357,5097.04,-10325.6,-2707.04,-103.207,-66.9519,93.3389,6136.15,-2312.78,1989.17,58.4035,8.48812,45.3656
3.525,6508.89,-3061.59,9456.21,-96.107,326.099,254.308,4633.49,1588.68,8565.74,-3.27481,7.57531,14.2765,4381.82,7475.58,-940.134,168.114,37.3547,340.604,-853.123,-10444.4,-1266.61,-8.43534,-15.1679,36.5042,-4366.98,3251.17,-2279.74,35.015,0.419868,109.312,5107.6,-10284.3,-2546.0,-103.283,-67.191,92.9995,6185.5,-2277.2,1940.41,58.5027,7.88119,44.8386
3.526,6647.21,-3175.75,9556.74,-96.6254,326.828,255.061,4643.75,1586.96,8553.8,-2.77625,7.57276,14.3431,4426.61,7467.76,-1043.06,169.165,39.3587,342.24,-899.012,-10411.4,-1298.75,-8.40083,-15.793,36.6397,-4657.66,3475.38,-2548.35,24.9585,0.797224,110.287,5039.97,-10195.7,-2351.68,-102.294,-68.0772,92.7388,6252.27,-2237.32,1909.17,58.3861,7.25787,44.3113
3.527,6785.54,-3289.91,9657.28,-97.1439,327.557,255.814,4654.01,1585.24,8541.86,-2.2777,7.57022,14.4097,4471.4,7459.94,-1145.99,170.216,41.3626,343.876,-944.901,-10378.4,-1330.89,-8.36632,-16.418,36.7752,-4948.34,3699.59,-2816.96,14.902,1.17458,111.262,4972.34,-10107.2,-2157.36,-101.305,-68.9634,92.4781,6319.04,-2197.44,1877.93,58.2696,6.63456,43.7839
3.528,6923.86,-3404.07,9757.81,-97.6623,328.286,256.567,4664.28,1583.52,8529.92,-1.77915,7.56767,14.4762,4516.18,7452.13,-1248.92,171.266,43.3666,345.512,-990.79,-10345.5,-1363.03,-8.33181,-17.043,36.9107,-5239.02,3923.79,-3085.57,4.8455,1.55194,112.237,4904.71,-10018.7,-1963.04,-100.317,-69.8497,92.2174,6385.81,-2157.56,1846.69,58.153,6.01124,43.2566
3.529,7065.02,-3517.22,9851.95,-98.0855,329.028,257.339,4672.87,1582.07,8519.86,-1.29452,7.57171,14.5506,4558.74,7451.26,-1346.3,172.297,45.3484,347.08,-1031.18,-10318.4,-1396.61,-8.29958,-17.6503,37.0268,-5538.64,4111.44,-3352.67,-4.80413,2.68137,113.231,4819.84,-9926.46,-1789.19,-99.0266,-70.8111,91.9849,6454.31,-2118.58,1814.95,58.0445,5.38929,42.7173
3.53,7228.85,-3622.21,9895.01,-97.747,329.872,258.264,4668.1,1582.8,8524.85,-0.921284,7.62847,14.6874,4583.39,7505.99,-1399.24,173.171,47.153,348.102,-1027.6,-10338.4,-1441.73,-8.28558,-18.1156,36.9878,-5909.81,4006.57,-3607.65,-11.1986,9.82739,114.371,4597.06,-9804.25,-1779.06,-95.324,-72.3737,91.9774,6536.63,-2086.72,1779.22,57.9998,4.77825,42.0824
3.531,7392.68,-3727.2,9938.06,-97.4086,330.716,259.189,4663.32,1583.53,8529.84,-0.548043,7.68523,14.8243,4608.04,7560.71,-1452.18,174.044,48.9576,349.124,-1024.01,-10358.5,-1486.85,-8.27158,-18.5809,36.9487,-6280.97,3901.7,-3862.63,-17.5931,16.9734,115.511,4374.29,-9682.04,-1768.93,-91.6214,-73.9364,91.97,6618.95,-2054.86,1743.49,57.9551,4.1672,41.4476
3.532,7556.51,-3832.19,9981.11,-97.0701,331.56,260.114,4658.55,1584.26,8534.83,-0.174802,7.74198,14.9611,4632.69,7615.44,-1505.12,174.917,50.7622,350.146,-1020.43,-10378.5,-1531.98,-8.25758,-19.0463,36.9097,-6652.14,3796.83,-4117.61,-23.9876,24.1194,116.651,4151.52,-9559.83,-1758.8,-87.9188,-75.499,91.9625,6701.26,-2023.01,1707.76,57.9104,3.55616,40.8127
3.533,7720.34,-3937.18,10024.2,-96.7316,332.404,261.039,4653.78,1585.0,8539.82,0.198438,7.79874,15.098,4657.34,7670.17,-1558.06,175.79,52.5667,351.167,-1016.85,-10398.5,-1577.1,-8.24358,-19.5116,36.8707,-7023.3,3691.96,-4372.59,-30.3821,31.2654,117.791,3928.74,-9437.62,-1748.67,-84.2162,-77.0616,91.9551,6783.58,-1991.15,1672.03,57.8657,2.94512,40.1778
3.534,7847.42,-4048.34,10104.0,-95.8858,333.104,261.986,4646.18,1610.67,8531.71,0.411719,7.82484,15.2537,4686.43,7816.9,-1571.4,176.713,54.3853,352.103,-1027.35,-10403.9,-1645.95,-8.26377,-20.0846,36.8946,-7335.07,3481.22,-4530.94,-33.884,40.957,118.013,3633.37,-9328.14,-1828.58,-79.7324,-78.5973,92.0908,6802.22,-1936.02,1631.18,57.6691,2.46119,39.4953
3.535,7956.13,-4162.59,10202.3,-94.7864,333.732,262.943,4637.16,1648.82,8517.03,0.54502,7.83562,15.4187,4717.74,8009.63,-1564.94,177.66,56.2109,352.995,-1044.9,-10401.9,-1726.68,-8.30104,-20.7114,36.9498,-7617.14,3217.55,-4640.99,-35.9396,51.9213,117.776,3301.7,-9225.02,-1953.51,-74.858,-80.1195,92.2979,6789.01,-1869.25,1587.78,57.3964,2.04081,38.789
3.536,8064.85,-4276.84,10300.6,-93.687,334.36,263.901,4628.14,1686.97,8502.36,0.678321,7.8464,15.5838,4749.05,8202.35,-1558.49,178.607,58.0366,353.887,-1062.46,-10399.9,-1807.4,-8.33832,-21.3382,37.0051,-7899.2,2953.87,-4751.04,-37.9953,62.8856,117.539,2970.04,-9121.91,-2078.44,-69.9836,-81.6418,92.5051,6775.81,-1802.48,1544.38,57.1238,1.62044,38.0827
3.537,8173.56,-4391.09,10398.9,-92.5876,334.989,264.859,4619.12,1725.12,8487.69,0.811621,7.85717,15.7489,4780.37,8395.08,-1552.03,179.555,59.8622,354.779,-1080.01,-10397.9,-1888.13,-8.3756,-21.965,37.0604,-8181.27,2690.2,-4861.08,-40.0509,73.8499,117.302,2638.37,-9018.79,-2203.37,-65.1092,-83.164,92.7123,6762.61,-1735.72,1500.98,56.8512,1.20007,37.3764
3.538,8282.84,-4513.14,10493.6,-91.611,335.561,265.662,4610.81,1770.38,8478.03,0.913384,7.86358,15.9559,4812.82,8589.1,-1563.19,180.488,61.6885,355.673,-1096.31,-10380.1,-1954.66,-8.37446,-22.562,37.113,-8428.14,2434.29,-4921.44,-41.6594,84.8298,116.709,2292.95,-8906.03,-2343.56,-60.4331,-84.6295,93.036,6759.73,-1673.33,1460.66,56.5988,0.83247,36.6881
3.539,8394.15,-4662.52,10576.2,-91.0642,335.938,265.928,4604.95,1840.53,8485.89,0.904764,7.85472,16.3098,4849.26,8787.61,-1635.99,181.374,63.5173,356.57,-1108.25,-10307.4,-1971.54,-8.2389,-23.0546,37.1563,-8551.8,2205.6,-4807.91,-41.7032,95.8645,114.869,1899.42,-8759.51,-2537.15,-56.4508,-85.8965,93.7676,6792.98,-1626.3,1431.13,56.4175,0.649568,36.0628
3.54,8505.45,-4811.9,10658.7,-90.5174,336.314,266.194,4599.09,1910.68,8493.75,0.896144,7.84586,16.6637,4885.71,8986.12,-1708.79,182.261,65.3461,357.468,-1120.19,-10234.6,-1988.42,-8.10333,-23.5473,37.1996,-8675.47,1976.91,-4694.38,-41.7469,106.899,113.03,1505.88,-8612.99,-2730.74,-52.4685,-87.1636,94.4992,6826.23,-1579.26,1401.61,56.2361,0.466667,35.4374
3.541,8616.75,-4961.29,10741.2,-89.9706,336.691,266.46,4593.23,1980.83,8501.61,0.887523,7.837,17.0177,4922.15,9184.64,-1781.59,183.147,67.1749,358.365,-1132.12,-10161.8,-2005.31,-7.96777,-24.0399,37.2429,-8799.13,1748.22,-4580.85,-41.7906,117.934,111.191,1112.35,-8466.46,-2924.33,-48.4862,-88.4306,95.2308,6859.48,-1532.23,1372.08,56.0548,0.283765,34.8121
3.542,8728.06,-5110.67,10823.8,-89.4238,337.068,266.726,4587.37,2050.98,8509.47,0.878903,7.82814,17.3716,4958.6,9383.15,-1854.39,184.033,69.0037,359.263,-1144.06,-10089.1,-2022.19,-7.8322,-24.5325,37.2861,-8922.8,1519.52,-4467.32,-41.8344,128.969,109.352,718.812,-8319.94,-3117.92,-44.5039,-89.6977,95.9624,6892.73,-1485.19,1342.55,55.8735,0.100864,34.1867
3.543,8860.97,-5289.33,10983.7,-88.5381,337.558,266.923,4565.19,2088.71,8520.88,0.906971,7.77299,17.6708,5014.32,9613.48,-1851.0,184.899,71.0441,360.254,-1082.32,-10082.2,-2028.76,-7.77223,-24.8224,37.5676,-8887.41,1426.59,-4211.92,-41.9901,137.552,106.94,444.448,-8179.22,-3239.42,-42.6483,-90.87,97.0797,6911.44,-1443.58,1346.17,55.7771,-0.230245,33.539
3.544,9000.06,-5476.35,11165.8,-87.5556,338.079,267.099,4538.35,2117.18,8533.31,0.94552,7.70462,17.9544,5075.56,9852.91,-1825.83,185.759,73.1449,361.273,-999.524,-10094.1,-2032.38,-7.73386,-25.0545,37.9171,-8806.58,1372.45,-3915.98,-42.1778,145.435,104.366,204.132,-8040.17,-3340.32,-41.4002,-92.0152,98.3071,6926.0,-1403.52,1359.25,55.7051,-0.603699,32.8849
3.545,9139.15,-5663.38,11347.9,-86.5731,338.601,267.276,4511.51,2145.65,8545.74,0.98407,7.63626,18.238,5136.79,10092.3,-1800.66,186.618,75.2457,362.292,-916.73,-10106.0,-2036.01,-7.69549,-25.2865,38.2666,-8725.75,1318.3,-3620.04,-42.3655,153.318,101.791,-36.1828,-7901.11,-3441.22,-40.1522,-93.1604,99.5345,6940.55,-1363.46,1372.33,55.6331,-0.977153,32.2308
3.546,9278.23,-5850.4,11530.0,-85.5906,339.122,267.453,4484.67,2174.11,8558.17,1.02262,7.56789,18.5216,5198.02,10331.8,-1775.5,187.478,77.3465,363.31,-833.936,-10118.0,-2039.63,-7.65712,-25.5186,38.6161,-8644.92,1264.16,-3324.11,-42.5531,161.201,99.2159,-276.498,-7762.05,-3542.12,-38.9042,-94.3056,100.762,6955.1,-1323.4,1385.41,55.5611,-1.35061,31.5767
3.547,9449.44,-6068.27,11638.2,-84.4099,339.78,267.57,4462.97,2191.01,8571.08,1.06254,7.54564,18.825,5275.03,10577.6,-1759.34,188.177,79.7266,364.34,-756.267,-10118.7,-2050.75,-7.63384,-25.6554,38.8993,-8528.57,1255.23,-3021.52,-43.1398,167.293,96.7124,-506.444,-7650.5,-3615.81,-38.5902,-95.3864,101.877,6949.52,-1290.2,1399.04,55.4128,-1.68979,30.8684
3.548,9684.86,-6347.83,11598.6,-82.8329,340.71,267.569,4451.53,2184.76,8584.96,1.10522,7.61562,19.1679,5383.6,10836.4,-1761.19,188.554,82.6653,365.39,-688.847,-10097.0,-2076.87,-7.64076,-25.6017,39.05,-8341.19,1336.74,-2705.66,-44.5245,169.803,94.3518,-715.651,-7593.98,-3635.05,-40.1443,-96.3387,102.766,6903.64,-1270.74,1413.76,55.1121,-1.96042,30.0514
3.549,9920.29,-6627.38,11559.1,-81.2559,341.64,267.569,4440.1,2178.52,8598.84,1.14789,7.6856,19.5109,5492.16,11095.2,-1763.04,188.932,85.604,366.44,-621.427,-10075.3,-2102.99,-7.64767,-25.5481,39.2006,-8153.81,1418.25,-2389.8,-45.9093,172.312,91.9911,-924.858,-7537.45,-3654.29,-41.6983,-97.2909,103.655,6857.76,-1251.28,1428.49,54.8113,-2.23105,29.2345
3.55,10155.7,-6906.94,11519.5,-79.6789,342.571,267.568,4428.67,2172.27,8612.72,1.19057,7.75558,19.8539,5600.73,11354.0,-1764.89,189.309,88.5427,367.49,-554.007,-10053.6,-2129.11,-7.65458,-25.4944,39.3513,-7966.44,1499.76,-2073.93,-47.294,174.822,89.6304,-1134.07,-7480.93,-3673.53,-43.2524,-98.2432,104.545,6811.88,-1231.82,1443.22,54.5105,-2.50167,28.4175
3.551,10391.1,-7186.49,11480.0,-78.1019,343.501,267.567,4417.23,2166.02,8626.6,1.23324,7.82556,20.1968,5709.29,11612.8,-1766.75,189.686,91.4814,368.539,-486.587,-10031.9,-2155.23,-7.6615,-25.4408,39.502,-7779.06,1581.27,-1758.07,-48.6787,177.332,87.2698,-1343.27,-7424.4,-3692.77,-44.8065,-99.1954,105.434,6766.01,-1212.36,1457.94,54.2098,-2.7723,27.6005
3.552,10597.8,-7319.21,11587.1,-75.8715,344.027,268.385,4420.17,2142.28,8618.09,1.15116,7.92164,20.6366,5760.2,11871.5,-1848.31,190.883,94.5589,369.569,-477.379,-10013.9,-2191.82,-7.6065,-25.4384,39.7345,-7644.03,1698.0,-1523.52,-51.2422,174.628,85.9231,-1397.44,-7501.22,-3635.63,-47.2334,-99.3816,106.347,6757.09,-1198.87,1493.85,54.0804,-3.32287,26.856
3.553,10800.8,-7433.57,11712.6,-73.5595,344.503,269.306,4424.89,2116.34,8606.79,1.05347,8.02098,21.0884,5803.9,12130.3,-1939.84,192.182,97.6538,370.597,-475.448,-9996.36,-2229.71,-7.54376,-25.4424,39.9773,-7515.54,1819.12,-1299.13,-53.953,171.274,84.7033,-1432.23,-7594.7,-3568.95,-49.7695,-99.472,107.264,6752.8,-1186.12,1532.42,53.9724,-3.90842,26.1205
3.554,11003.9,-7547.93,11838.0,-71.2475,344.979,270.226,4429.62,2090.4,8595.48,0.955792,8.12032,21.5403,5847.6,12389.0,-2031.37,193.482,100.749,371.624,-473.517,-9978.82,-2267.6,-7.48102,-25.4464,40.22,-7387.05,1940.25,-1074.75,-56.6639,167.919,83.4834,-1467.02,-7688.19,-3502.26,-52.3055,-99.5624,108.18,6748.51,-1173.37,1570.98,53.8645,-4.49398,25.385
3.555,11206.9,-7662.29,11963.5,-68.9355,345.455,271.147,4434.35,2064.46,8584.18,0.858109,8.21966,21.9922,5891.31,12647.7,-2122.9,194.781,103.844,372.652,-471.585,-9961.28,-2305.49,-7.41828,-25.4503,40.4628,-7258.56,2061.37,-850.369,-59.3747,164.564,82.2635,-1501.81,-7781.67,-3435.57,-54.8416,-99.6529,109.096,6744.22,-1160.62,1609.54,53.7565,-5.07953,24.6495
3.556,11415.8,-7711.54,12044.6,-66.5685,345.972,272.397,4458.2,2045.04,8574.04,0.754199,8.20679,22.3817,5896.38,12897.8,-2184.59,195.892,106.946,373.678,-506.014,-9946.74,-2304.48,-7.37651,-25.5655,40.644,-7194.82,2175.75,-711.796,-62.3069,159.479,81.6786,-1508.83,-7894.97,-3338.73,-57.2465,-99.4471,109.812,6727.18,-1151.54,1624.92,53.5088,-5.69823,23.918
3.557,11631.9,-7679.42,12070.4,-64.1328,346.539,274.06,4505.94,2033.76,8565.34,0.642504,8.05363,22.6934,5853.19,13137.1,-2208.97,196.768,110.058,374.702,-585.893,-9935.93,-2254.86,-7.36097,-25.8196,40.7481,-7212.02,2281.7,-680.486,-65.5159,152.233,81.8874,-1481.13,-8033.03,-3204.21,-59.4876,-98.871,110.276,6694.21,-1147.05,1611.34,53.0864,-6.35837,23.1914
3.558,11848.0,-7647.29,12096.1,-61.697,347.106,275.723,4553.68,2022.48,8556.65,0.530809,7.90047,23.0051,5809.99,13376.3,-2233.35,197.644,113.171,375.726,-665.771,-9925.12,-2205.23,-7.34543,-26.0738,40.8523,-7229.21,2387.64,-649.175,-68.725,144.986,82.0962,-1453.43,-8171.09,-3069.68,-61.7286,-98.2949,110.74,6661.24,-1142.56,1597.75,52.664,-7.0185,22.4649
3.559,12064.1,-7615.17,12121.9,-59.2613,347.673,277.385,4601.42,2011.2,8547.95,0.419114,7.74732,23.3168,5766.79,13615.6,-2257.74,198.52,116.283,376.75,-745.65,-9914.31,-2155.6,-7.3299,-26.3279,40.9565,-7246.41,2493.59,-617.865,-71.934,137.739,82.305,-1425.73,-8309.15,-2935.15,-63.9697,-97.7188,111.204,6628.27,-1138.08,1584.17,52.2416,-7.67863,21.7384
3.56,12280.2,-7583.04,12147.6,-56.8255,348.24,279.048,4649.16,1999.93,8539.26,0.307419,7.59416,23.6285,5723.59,13854.8,-2282.12,199.397,119.395,377.774,-825.528,-9903.51,-2105.98,-7.31436,-26.5821,41.0606,-7263.61,2599.53,-586.555,-75.143,130.493,82.5138,-1398.04,-8447.21,-2800.62,-66.2107,-97.1428,111.668,6595.3,-1133.59,1570.58,51.8191,-8.33877,21.0119
3.561,12563.9,-7717.45,12169.7,-55.22,348.691,280.43,4670.07,1961.4,8560.88,0.297793,7.45049,23.8546,5620.94,14106.1,-2343.74,199.829,123.287,378.206,-854.416,-9876.82,-2006.46,-7.21233,-26.7141,41.5727,-7405.53,2651.43,-759.71,-77.9335,121.74,83.9423,-1337.86,-8605.86,-2598.69,-67.5559,-96.7898,112.064,6603.78,-1101.89,1547.18,51.5671,-8.87581,20.48
3.562,12847.5,-7851.85,12191.8,-53.6144,349.142,281.811,4690.98,1922.88,8582.49,0.288167,7.30682,24.0807,5518.28,14357.4,-2405.36,200.261,127.179,378.637,-883.303,-9850.13,-1906.94,-7.1103,-26.846,42.0848,-7547.46,2703.33,-932.865,-80.724,112.988,85.3707,-1277.68,-8764.5,-2396.76,-68.901,-96.4369,112.461,6612.26,-1070.19,1523.77,51.3151,-9.41286,19.9482
3.563,13131.2,-7986.25,12213.9,-52.0089,349.593,283.193,4711.88,1884.35,8604.11,0.278542,7.16315,24.3069,5415.63,14608.7,-2466.98,200.693,131.071,379.068,-912.191,-9823.44,-1807.42,-7.00827,-26.978,42.5969,-7689.38,2755.23,-1106.02,-83.5146,104.235,86.7992,-1217.51,-8923.14,-2194.83,-70.2461,-96.0839,112.858,6620.73,-1038.49,1500.36,51.063,-9.9499,19.4164
3.564,13414.9,-8120.66,12235.9,-50.4033,350.044,284.574,4732.79,1845.83,8625.73,0.268916,7.01948,24.533,5312.97,14860.0,-2528.6,201.125,134.963,379.499,-941.079,-9796.75,-1707.91,-6.90624,-27.11,43.109,-7831.3,2807.13,-1279.17,-86.3051,95.4826,88.2277,-1157.33,-9081.79,-1992.89,-71.5912,-95.731,113.254,6629.21,-1006.8,1476.96,50.811,-10.4869,18.8846
3.565,13701.3,-8216.03,12282.8,-48.1499,349.855,286.275,4736.43,1760.08,8652.43,0.300658,6.89401,24.6223,5201.04,15132.9,-2565.14,201.761,138.658,379.8,-941.018,-9795.95,-1610.26,-6.91074,-27.4424,43.5128,-8024.23,2841.52,-1458.96,-88.9482,86.4804,90.1817,-1088.72,-9260.32,-1739.61,-72.1968,-95.7563,113.371,6634.82,-973.094,1469.38,50.5381,-11.1153,18.3154
3.566,13990.0,-8280.19,12349.5,-45.3783,349.155,288.232,4726.25,1636.56,8683.2,0.365496,6.7831,24.6023,5081.68,15423.1,-2581.61,202.559,142.195,379.998,-917.797,-9815.85,-1514.11,-7.00045,-27.9351,43.8299,-8257.96,2861.88,-1644.04,-91.4733,77.2783,92.5561,-1013.36,-9454.77,-1445.25,-72.2109,-96.0844,113.264,6638.12,-937.791,1474.48,50.2484,-11.8168,17.7165
3.567,14278.7,-8344.35,12416.3,-42.6067,348.455,290.188,4716.08,1513.03,8713.97,0.430333,6.67219,24.5822,4962.32,15713.3,-2598.09,203.358,145.732,380.196,-894.577,-9835.75,-1417.96,-7.09016,-28.4278,44.1471,-8491.69,2882.25,-1829.13,-93.9985,68.0763,94.9305,-938.008,-9649.23,-1150.88,-72.2249,-96.4124,113.157,6641.42,-902.489,1479.57,49.9588,-12.5183,17.1175
3.568,14567.4,-8408.51,12483.0,-39.8351,347.754,292.144,4705.9,1389.51,8744.74,0.495171,6.56127,24.5622,4842.96,16003.5,-2614.56,204.157,149.269,380.394,-871.357,-9855.65,-1321.81,-7.17987,-28.9205,44.4642,-8725.43,2902.62,-2014.21,-96.5236,58.8743,97.3049,-862.652,-9843.68,-856.518,-72.2389,-96.7404,113.05,6644.73,-867.186,1484.67,49.6692,-13.2198,16.5185
3.569,14854.3,-8458.52,12537.9,-37.0757,347.042,294.176,4695.65,1271.63,8773.66,0.562031,6.42378,24.5018,4719.86,16296.7,-2630.19,204.945,152.762,380.612,-851.072,-9880.42,-1233.35,-7.2896,-29.4048,44.7908,-8960.98,2921.78,-2185.01,-99.0999,49.6587,99.7722,-782.198,-10034.3,-567.443,-72.1329,-97.2297,112.901,6646.54,-829.483,1489.56,49.3828,-13.9118,15.9377
3.57,15127.0,-8395.35,12497.8,-34.4144,346.237,296.805,4684.83,1198.93,8787.85,0.645077,6.0736,24.119,4566.75,16613.7,-2639.08,205.651,155.897,380.993,-854.269,-9944.15,-1206.48,-7.5595,-29.821,45.193,-9211.15,2931.23,-2241.5,-102.086,40.3345,102.982,-660.958,-10194.6,-320.681,-71.0677,-99.0096,112.421,6636.44,-772.584,1492.83,49.1222,-14.5276,15.5023
3.571,15399.7,-8332.18,12457.8,-31.753,345.431,299.435,4674.01,1126.23,8802.03,0.728122,5.72342,23.7362,4413.65,16930.7,-2647.97,206.357,159.032,381.374,-857.466,-10007.9,-1179.62,-7.8294,-30.2373,45.5952,-9461.32,2940.69,-2297.99,-105.071,31.0104,106.191,-539.717,-10354.9,-73.9192,-70.0024,-100.79,111.941,6626.34,-715.685,1496.1,48.8617,-15.1434,15.0669
3.572,15672.4,-8269.01,12417.7,-29.0917,344.625,302.065,4663.19,1053.53,8816.21,0.811168,5.37325,23.3534,4260.54,17247.7,-2656.85,207.063,162.168,381.755,-860.663,-10071.6,-1152.75,-8.0993,-30.6535,45.9974,-9711.48,2950.14,-2354.48,-108.057,21.6862,109.401,-418.477,-10515.3,172.843,-68.9371,-102.569,111.46,6616.25,-658.786,1499.37,48.6011,-15.7592,14.6315
3.573,15945.1,-8205.84,12377.7,-26.4304,343.819,304.694,4652.37,980.836,8830.39,0.894213,5.02307,22.9705,4107.44,17564.7,-2665.74,207.769,165.303,382.136,-863.861,-10135.3,-1125.88,-8.3692,-31.0698,46.3996,-9961.65,2959.6,-2410.97,-111.042,12.3621,112.611,-297.236,-10675.6,419.605,-67.8719,-104.349,110.98,6606.15,-601.887,1502.64,48.3406,-16.3751,14.196
3.574,16205.1,-8217.83,12336.3,-24.0371,342.74,307.265,4649.21,964.51,8843.95,1.12311,4.60185,22.5615,3972.05,17892.5,-2618.76,208.161,168.145,382.286,-855.209,-10190.0,-1094.21,-8.43298,-31.4063,46.9333,-10155.7,2934.27,-2398.54,-114.865,3.42546,115.832,-173.956,-10777.3,665.898,-66.6563,-107.12,110.622,6612.61,-553.321,1529.47,48.1073,-17.036,13.7274
3.575,16458.7,-8267.38,12294.3,-21.778,341.524,309.807,4649.89,976.371,8857.18,1.42492,4.1451,22.1393,3845.52,18225.7,-2543.85,208.397,170.839,382.319,-840.633,-10240.1,-1060.15,-8.39371,-31.7029,47.5328,-10321.8,2891.55,-2351.65,-119.105,-5.3174,119.06,-49.6566,-10849.7,911.956,-65.3657,-110.385,110.325,6627.36,-508.923,1568.08,47.8876,-17.7196,13.2421
3.576,16712.3,-8316.94,12252.3,-19.5188,340.308,312.35,4650.56,988.232,8870.41,1.72674,3.68834,21.7171,3719.0,18558.9,-2468.94,208.632,173.533,382.353,-826.057,-10290.1,-1026.09,-8.35444,-31.9995,48.1322,-10487.8,2848.83,-2304.75,-123.346,-14.0603,122.288,74.6432,-10922.2,1158.01,-64.0751,-113.651,110.028,6642.11,-464.524,1606.69,47.668,-18.4032,12.7568
3.577,16965.8,-8366.5,12210.2,-17.2596,339.092,314.892,4651.24,1000.09,8883.65,2.02855,3.23159,21.2949,3592.47,18892.1,-2394.02,208.867,176.227,382.386,-811.482,-10340.2,-992.026,-8.31517,-32.2961,48.7316,-10653.9,2806.1,-2257.86,-127.587,-22.8031,125.515,198.943,-10994.6,1404.07,-62.7844,-116.917,109.732,6656.86,-420.125,1645.3,47.4483,-19.0867,12.2715
3.578,17220.9,-8403.77,12181.7,-14.8181,337.638,317.451,4650.12,1010.01,8899.74,2.27765,2.7278,20.8291,3469.67,19219.4,-2323.89,209.014,179.038,382.353,-787.06,-10387.7,-962.328,-8.27488,-32.5476,49.3507,-10796.6,2756.53,-2176.65,-132.08,-31.2641,128.553,319.865,-11055.2,1618.67,-61.5032,-120.355,109.528,6674.17,-380.709,1673.33,47.2316,-19.7802,11.8241
3.579,17481.2,-8398.05,12200.3,-11.7384,335.352,320.069,4642.71,1013.15,8925.85,2.34222,2.05934,20.2106,3359.92,19525.8,-2270.46,208.849,182.258,382.084,-728.18,-10426.0,-947.902,-8.23103,-32.6413,50.0385,-10857.7,2682.96,-1975.3,-137.457,-38.7387,130.927,428.964,-11074.3,1723.17,-60.2548,-124.398,109.65,6700.43,-358.731,1664.32,47.0253,-20.5086,11.5098
3.58,17741.6,-8392.34,12218.9,-8.65868,333.065,322.688,4635.3,1016.28,8951.96,2.4068,1.39088,19.5921,3250.17,19832.1,-2217.04,208.685,185.478,381.815,-669.299,-10464.3,-933.477,-8.18718,-32.735,50.7262,-10918.9,2609.4,-1773.95,-142.835,-46.2133,133.301,538.062,-11093.4,1827.67,-59.0063,-128.442,109.773,6726.7,-336.752,1655.31,46.819,-21.2369,11.1955
3.581,18001.9,-8386.62,12237.5,-5.57897,330.779,325.306,4627.89,1019.41,8978.07,2.47138,0.722415,18.9736,3140.42,20138.5,-2163.61,208.521,188.698,381.547,-610.419,-10502.6,-919.051,-8.14333,-32.8287,51.4139,-10980.0,2535.83,-1572.61,-148.212,-53.6879,135.674,647.161,-11112.4,1932.17,-57.7579,-132.485,109.896,6752.96,-314.774,1646.3,46.6126,-21.9652,10.8812
3.582,18262.2,-8380.9,12256.1,-2.49926,328.493,327.925,4620.49,1022.55,9004.18,2.53595,0.0539545,18.3551,3030.67,20444.9,-2110.19,208.356,191.918,381.278,-551.538,-10540.9,-904.626,-8.09948,-32.9224,52.1017,-11041.2,2462.27,-1371.26,-153.589,-61.1624,138.048,756.26,-11131.5,2036.67,-56.5095,-136.528,110.018,6779.23,-292.796,1637.28,46.4063,-22.6935,10.5668
3.583,18523.9,-8321.73,12234.2,0.178891,325.69,330.945,4602.76,1075.05,9018.78,2.76585,-0.64882,17.885,2884.02,20816.4,-2085.39,208.149,194.953,381.153,-501.054,-10581.8,-949.075,-8.12413,-32.8704,52.779,-10997.9,2384.17,-1103.3,-158.839,-67.3473,139.838,944.753,-11156.3,2040.35,-55.2987,-140.482,109.981,6762.16,-249.009,1663.51,46.1284,-23.4856,10.3914
3.584,18786.1,-8247.29,12200.7,2.74231,322.74,334.08,4582.09,1141.67,9030.1,3.04299,-1.3614,17.4573,2726.82,21206.6,-2068.77,207.929,197.935,381.069,-452.969,-10623.3,-1010.35,-8.16835,-32.7769,53.4534,-10924.8,2304.77,-816.305,-164.052,-73.1636,141.462,1155.93,-11182.8,2015.22,-54.0987,-144.41,109.898,6732.72,-198.99,1699.79,45.83,-24.296,10.2556
3.585,19048.3,-8172.85,12167.2,5.30573,319.79,337.216,4561.42,1208.28,9041.41,3.32012,-2.07398,17.0296,2569.62,21596.7,-2052.16,207.71,200.917,380.985,-404.884,-10664.8,-1071.62,-8.21258,-32.6833,54.1277,-10851.7,2225.37,-529.311,-169.266,-78.9799,143.086,1367.11,-11209.3,1990.1,-52.8987,-148.338,109.816,6703.28,-148.971,1736.08,45.5316,-25.1063,10.1198
3.586,19310.5,-8098.41,12133.7,7.86915,316.841,340.351,4540.74,1274.9,9052.72,3.59726,-2.78655,16.602,2412.42,21986.8,-2035.54,207.49,203.9,380.9,-356.798,-10706.3,-1132.89,-8.2568,-32.5898,54.8021,-10778.6,2145.98,-242.317,-174.479,-84.7963,144.71,1578.28,-11235.7,1964.97,-51.6987,-152.267,109.733,6673.83,-98.9526,1772.37,45.2333,-25.9166,9.98396
3.587,19606.2,-8042.26,12077.9,10.3976,313.911,343.43,4522.6,1327.01,9056.2,3.89222,-3.4529,16.2219,2238.39,22346.4,-2018.39,207.031,206.862,380.687,-304.695,-10740.7,-1198.56,-8.2576,-32.4702,55.5205,-10657.1,2057.15,42.2917,-178.908,-89.8554,146.032,1802.18,-11259.0,1896.52,-50.5352,-155.81,109.815,6656.17,-61.55,1801.75,44.984,-26.7904,9.86187
3.588,19969.1,-8022.67,11977.4,12.8563,311.021,346.396,4509.53,1350.13,9044.01,4.22282,-4.0268,15.9371,2030.7,22644.8,-2000.19,206.094,209.785,380.214,-244.557,-10760.6,-1273.02,-8.17157,-32.2985,56.3269,-10439.0,1949.44,322.13,-181.768,-93.4002,146.754,2051.54,-11275.9,1741.42,-49.445,-158.582,110.226,6662.06,-49.3795,1817.32,44.833,-27.7913,9.76718
3.589,20331.9,-8003.08,11876.9,15.3149,308.132,349.362,4496.45,1373.25,9031.81,4.55343,-4.60069,15.6523,1823.0,22943.1,-1981.99,205.157,212.707,379.742,-184.418,-10780.5,-1347.48,-8.08553,-32.1269,57.1334,-10220.8,1841.74,601.969,-184.629,-96.9449,147.475,2300.89,-11292.9,1586.31,-48.3548,-161.354,110.637,6667.95,-37.2091,1832.89,44.6819,-28.7921,9.6725
3.59,20694.8,-7983.49,11776.4,17.7736,305.243,352.328,4483.37,1396.37,9019.62,4.88404,-5.17459,15.3675,1615.3,23241.5,-1963.78,204.22,215.63,379.269,-124.28,-10800.4,-1421.95,-7.99949,-31.9552,57.9398,-10002.6,1734.04,881.808,-187.489,-100.49,148.196,2550.24,-11309.8,1431.2,-47.2645,-164.127,111.048,6673.85,-25.0386,1848.46,44.5309,-29.7929,9.57782
3.591,21057.7,-7963.9,11675.8,20.2322,302.353,355.294,4470.29,1419.49,9007.43,5.21465,-5.74848,15.0827,1407.6,23539.9,-1945.58,203.283,218.552,378.796,-64.1412,-10820.3,-1496.41,-7.91345,-31.7836,58.7463,-9784.47,1626.33,1161.65,-190.349,-104.034,148.917,2799.59,-11326.7,1276.1,-46.1743,-166.899,111.459,6679.74,-12.8681,1864.03,44.3798,-30.7938,9.48314
3.592,21510.9,-8011.0,11506.6,23.7456,300.026,358.017,4467.37,1472.26,9033.42,5.69562,-6.43023,15.0085,1128.61,23832.7,-1912.5,201.489,221.251,377.66,-33.5174,-10842.3,-1561.15,-7.90794,-31.6409,59.6692,-9503.18,1449.87,1358.92,-190.144,-103.819,148.486,3070.62,-11352.9,1180.23,-44.9727,-169.222,111.509,6668.68,-7.17305,1901.9,44.0404,-32.0174,9.49096
3.593,21975.4,-8066.44,11328.8,27.3908,297.769,360.71,4465.71,1528.73,9064.18,6.19539,-7.12546,14.9607,840.698,24124.8,-1877.57,199.588,223.922,376.44,-6.58307,-10864.6,-1624.68,-7.9125,-31.5018,60.6067,-9214.0,1264.82,1545.87,-189.556,-103.133,147.91,3344.36,-11380.2,1091.77,-43.7571,-171.489,111.514,6655.51,-2.28736,1942.55,43.6774,-33.2689,9.51159
3.594,22439.9,-8121.88,11150.9,31.0361,295.511,363.402,4464.05,1585.2,9094.94,6.69515,-7.82069,14.9129,552.789,24417.0,-1842.63,197.687,226.592,375.22,20.3513,-10886.9,-1688.2,-7.91707,-31.3628,61.5442,-8924.83,1079.77,1732.82,-188.968,-102.447,147.334,3618.1,-11407.6,1003.31,-42.5415,-173.756,111.519,6642.34,2.59832,1983.2,43.3145,-34.5204,9.53221
3.595,22904.4,-8177.32,10973.1,34.6813,293.254,366.095,4462.4,1641.67,9125.71,7.19492,-8.51593,14.8651,264.879,24709.1,-1807.69,195.786,229.263,374.0,47.2857,-10909.3,-1751.72,-7.92163,-31.2237,62.4817,-8635.65,894.712,1919.76,-188.38,-101.761,146.758,3891.84,-11434.9,914.846,-41.326,-176.023,111.523,6629.16,7.484,2023.86,42.9515,-35.7719,9.55284
3.596,23380.4,-8269.03,10804.7,39.0195,290.764,368.887,4450.72,1680.8,9141.47,7.90993,-9.26288,14.8615,-64.132,24988.3,-1818.04,193.845,231.51,372.557,70.7038,-10922.4,-1819.13,-7.97357,-31.1452,63.4598,-8334.21,715.246,2044.07,-186.294,-98.5909,145.689,4141.52,-11477.9,823.684,-39.8221,-178.338,111.296,6577.54,9.67268,2057.14,42.5496,-37.108,9.5614
3.597,23870.9,-8406.07,10648.2,44.2238,287.982,371.803,4426.52,1698.26,9138.5,8.89401,-10.0745,14.9131,-444.52,25251.4,-1884.99,191.854,233.228,370.834,89.7265,-10924.0,-1891.39,-8.08475,-31.1423,64.4889,-8017.46,542.763,2090.08,-182.336,-92.3167,144.002,4361.13,-11540.4,729.148,-37.9579,-180.714,110.779,6477.85,8.49012,2081.21,42.099,-38.5497,9.55487
3.598,24361.4,-8543.11,10491.6,49.4281,285.2,374.719,4402.33,1715.72,9135.52,9.87808,-10.8861,14.9647,-824.908,25514.4,-1951.95,189.863,234.946,369.112,108.749,-10925.7,-1963.64,-8.19592,-31.1393,65.5179,-7700.71,370.281,2136.08,-178.378,-86.0424,142.315,4580.74,-11602.9,634.611,-36.0937,-183.089,110.261,6378.15,7.30756,2105.29,41.6484,-39.9914,9.54835
3.599,24851.9,-8680.15,10335.1,54.6324,282.418,377.635,4378.13,1733.18,9132.54,10.8622,-11.6977,15.0163,-1205.3,25777.5,-2018.9,187.872,236.664,367.389,127.772,-10927.4,-2035.9,-8.30709,-31.1364,66.547,-7383.96,197.798,2182.09,-174.42,-79.7681,140.629,4800.34,-11665.5,540.075,-34.2295,-185.464,109.744,6278.46,6.12499,2129.36,41.1978,-41.4331,9.54182
3.6,25342.4,-8817.19,10178.5,59.8367,279.637,380.551,4353.93,1750.64,9129.57,11.8462,-12.5093,15.0679,-1585.68,26040.5,-2085.85,185.881,238.381,365.667,146.795,-10929.0,-2108.16,-8.41826,-31.1335,67.576,-7067.21,25.3154,2228.09,-170.462,-73.4939,138.942,5019.95,-11728.0,445.538,-32.3653,-187.84,109.226,6178.77,4.94243,2153.44,40.7472,-42.8747,9.53529
3.601,25779.5,-8826.97,9944.17,65.4202,277.574,383.163,4186.85,1758.5,9114.75,12.8081,-13.0852,15.8359,-2015.14,26245.7,-2143.92,182.687,239.055,363.576,214.017,-10933.8,-2285.76,-9.56789,-32.3737,68.4004,-6729.55,-72.7594,2225.6,-163.768,-62.0704,136.568,5195.99,-11754.7,291.163,-29.6226,-189.646,108.116,6143.98,-4.1078,2152.73,40.3968,-44.2001,9.63733
3.602,26216.5,-8836.75,9709.85,71.0037,275.511,385.774,4019.76,1766.36,9099.92,13.77,-13.6612,16.6039,-2444.6,26450.9,-2201.98,179.494,239.729,361.486,281.24,-10938.6,-2463.37,-10.7175,-33.614,69.2248,-6391.9,-170.834,2223.12,-157.074,-50.6469,134.195,5372.03,-11781.3,136.787,-26.8798,-191.452,107.006,6109.18,-13.158,2152.01,40.0465,-45.5254,9.73938
3.603,26653.6,-8846.53,9475.52,76.5872,273.448,388.386,3852.68,1774.23,9085.1,14.7319,-14.2371,17.3718,-2874.06,26656.1,-2260.05,176.3,240.403,359.395,348.463,-10943.4,-2640.98,-11.8671,-34.8543,70.0492,-6054.24,-268.909,2220.63,-150.379,-39.2234,131.821,5548.06,-11808.0,-17.5888,-24.1371,-193.258,105.895,6074.38,-22.2083,2151.3,39.6961,-46.8507,9.84142
3.604,27090.7,-8856.31,9241.19,82.1707,271.385,390.997,3685.6,1782.09,9070.29,15.6938,-14.813,18.1398,-3303.52,26861.3,-2318.12,173.107,241.077,357.304,415.686,-10948.2,-2818.58,-13.0168,-36.0945,70.8736,-5716.58,-366.984,2218.14,-143.685,-27.7998,129.448,5724.1,-11834.7,-171.964,-21.3943,-195.064,104.785,6039.59,-31.2585,2150.59,39.3458,-48.1761,9.94346
3.605,27518.8,-8783.21,8955.13,87.6561,269.455,393.055,3613.91,2237.92,8991.55,14.7171,-15.0237,18.7471,-3808.98,27055.4,-2365.93,169.373,241.095,355.147,398.503,-10904.0,-3136.33,-14.0538,-37.851,71.427,-5348.42,-406.425,2204.56,-136.3,-14.6642,126.698,5849.52,-11878.5,-415.256,-17.8202,-195.291,103.184,6009.07,-25.6124,2150.92,38.8996,-49.4198,9.99318
3.606,27939.7,-8643.8,8627.66,93.063,267.632,394.671,3618.52,3052.11,8861.69,12.1896,-14.9421,19.2259,-4375.22,27240.5,-2405.54,165.206,240.589,352.936,313.797,-10820.7,-3566.18,-15.0007,-40.0205,71.7638,-4955.85,-398.958,2182.13,-128.364,-0.158975,123.647,5934.44,-11936.0,-729.681,-13.5811,-194.255,101.19,5981.98,-8.20913,2152.08,38.3767,-50.5982,10.001
3.607,28360.6,-8504.4,8300.19,98.47,265.808,396.287,3623.14,3866.3,8731.83,9.66216,-14.8605,19.7047,-4941.47,27425.7,-2445.16,161.04,240.082,350.725,229.09,-10737.4,-3996.03,-15.9476,-42.1899,72.1005,-4563.28,-391.492,2159.69,-120.428,14.3463,120.596,6019.37,-11993.5,-1044.11,-9.34196,-193.22,99.1969,5954.89,9.1941,2153.24,37.8538,-51.7766,10.0089
3.608,28781.6,-8364.99,7972.73,103.877,263.984,397.902,3627.76,4680.5,8601.97,7.13466,-14.7788,20.1834,-5507.71,27610.8,-2484.77,156.873,239.575,348.513,144.383,-10654.2,-4425.88,-16.8945,-44.3594,72.4372,-4170.7,-384.025,2137.25,-112.491,28.8516,117.546,6104.29,-12051.1,-1358.53,-5.10281,-192.184,97.2035,5927.8,26.5973,2154.4,37.3309,-52.955,10.0167
3.609,29191.6,-8223.8,7646.26,109.18,262.156,399.381,3647.33,5420.99,8493.54,5.08733,-14.8223,20.9985,-6076.17,27781.0,-2525.39,152.74,238.938,346.263,51.9073,-10566.3,-4806.72,-17.4756,-46.0824,72.8746,-3765.59,-358.455,2126.48,-104.646,43.259,114.413,6181.12,-12106.6,-1689.99,-0.828704,-190.792,95.2013,5901.83,39.5004,2151.87,36.8074,-54.111,10.0414
3.61,29514.2,-8068.28,7327.77,113.651,260.286,399.769,3786.48,5571.83,8556.5,6.88124,-15.8667,24.5037,-6662.28,27831.5,-2574.07,148.872,237.259,343.696,-102.724,-10442.2,-4795.44,-15.1304,-44.2337,74.1172,-3260.17,-188.056,2209.09,-97.5253,56.884,110.63,6193.18,-12146.4,-2157.74,3.72512,-186.557,93.1287,5884.87,16.4018,2119.76,36.2794,-55.0881,10.2
3.611,29836.8,-7912.77,7009.28,118.122,258.416,400.157,3925.63,5722.67,8619.45,8.67515,-16.9111,28.009,-7248.39,27882.1,-2622.74,145.004,235.581,341.129,-257.355,-10318.1,-4784.16,-12.7851,-42.3851,75.3599,-2754.74,-17.6571,2291.7,-90.4051,70.509,106.847,6205.23,-12186.1,-2625.48,8.27893,-182.321,91.0561,5867.9,-6.69683,2087.65,35.7513,-56.0652,10.3587
3.612,30159.4,-7757.26,6690.8,122.593,256.547,400.545,4064.78,5873.51,8682.41,10.4691,-17.9555,31.5142,-7834.5,27932.6,-2671.41,141.136,233.902,338.562,-411.986,-10194.0,-4772.88,-10.4399,-40.5364,76.6025,-2249.32,152.742,2374.31,-83.2849,84.134,103.064,6217.29,-12225.9,-3093.23,12.8328,-178.085,88.9835,5850.94,-29.7954,2055.53,35.2232,-57.0423,10.5174
3.613,30482.0,-7601.74,6372.31,127.064,254.677,400.933,4203.94,6024.36,8745.37,12.263,-18.9999,35.0194,-8420.61,27983.1,-2720.09,137.269,232.223,335.995,-566.617,-10069.8,-4761.6,-8.0947,-38.6877,77.8451,-1743.89,323.141,2456.92,-76.1647,97.7589,99.2807,6229.35,-12265.6,-3560.97,17.3866,-173.85,86.9109,5833.97,-52.894,2023.42,34.6951,-58.0194,10.6761
3.614,30742.6,-7439.73,6050.99,131.263,252.691,400.598,4456.15,5140.89,8781.1,13.3977,-19.8867,36.2467,-8959.74,28004.7,-2768.18,133.779,230.137,333.424,-481.826,-10188.9,-4379.53,-5.86609,-36.5187,79.6171,-1148.96,628.912,2621.83,-71.4327,108.886,95.2484,6172.42,-12299.9,-3999.05,20.8995,-168.84,84.7081,5831.81,-59.0096,1989.95,34.1305,-58.7833,10.7298
3.615,30972.1,-7274.48,5728.26,135.324,250.646,399.9,4764.9,3740.26,8803.22,14.2028,-20.6948,36.335,-9475.38,28011.7,-2815.97,130.478,227.847,330.85,-277.325,-10429.5,-3812.07,-3.69579,-34.1894,81.6539,-509.268,1002.37,2827.89,-67.8949,118.765,91.0914,6080.99,-12331.5,-4422.3,23.8919,-163.445,82.4402,5837.06,-56.6338,1955.8,33.5476,-59.4406,10.7311
3.616,31201.7,-7109.22,5405.53,139.386,248.601,399.202,5073.64,2339.63,8825.34,15.0078,-21.5028,36.4233,-9991.02,28018.7,-2863.77,127.178,225.557,328.275,-72.8241,-10670.1,-3244.6,-1.52548,-31.8601,83.6906,130.421,1375.83,3033.96,-64.3571,128.643,86.9344,5989.57,-12363.2,-4845.55,26.8843,-158.049,80.1724,5842.3,-54.2579,1921.65,32.9647,-60.098,10.7323
3.617,31431.3,-6943.96,5082.8,143.447,246.556,398.504,5382.39,939.008,8847.46,15.8129,-22.3108,36.5116,-10506.7,28025.7,-2911.57,123.877,223.267,325.701,131.677,-10910.7,-2677.14,0.644828,-29.5308,85.7274,770.111,1749.28,3240.02,-60.8193,138.522,82.7775,5898.15,-12394.8,-5268.8,29.8768,-152.653,77.9045,5847.54,-51.882,1887.5,32.3818,-60.7553,10.7336
3.618,31643.8,-6770.35,4768.37,147.221,244.446,397.501,5638.69,-245.151,8877.59,15.8846,-23.048,35.841,-10994.4,28035.5,-2945.66,120.723,220.926,323.057,287.57,-11130.0,-2167.45,2.4684,-27.6729,87.522,1409.6,2158.34,3449.92,-58.0123,147.476,78.7202,5798.04,-12383.2,-5644.04,32.4448,-147.485,75.7283,5859.14,-50.8443,1849.01,31.8863,-61.2988,10.7393
3.619,31796.7,-6567.51,4482.99,149.988,242.112,395.431,5711.43,-671.673,8935.77,13.3895,-23.5369,32.5146,-11384.5,28055.1,-2931.79,118.08,218.407,320.164,273.335,-11274.2,-1859.97,3.0784,-27.4646,88.4688,2048.38,2692.01,3673.28,-57.7635,153.193,75.0117,5667.55,-12220.5,-5851.25,33.5274,-143.113,73.8727,5892.94,-54.4902,1795.36,31.6968,-61.4439,10.7606
3.62,31949.6,-6364.66,4197.61,152.756,239.777,393.361,5784.17,-1098.2,8993.94,10.8943,-24.0258,29.1882,-11774.6,28074.7,-2917.92,115.438,215.889,317.272,259.101,-11418.5,-1552.49,3.68839,-27.2563,89.4157,2687.16,3225.69,3896.63,-57.5146,158.911,71.3032,5537.06,-12057.9,-6058.46,34.61,-138.74,72.0172,5926.74,-58.1361,1741.7,31.5074,-61.5891,10.7819
3.621,32102.5,-6161.82,3912.23,155.523,237.442,391.291,5856.91,-1524.72,9052.11,8.39915,-24.5147,25.8618,-12164.7,28094.3,-2904.05,112.795,213.37,314.38,244.866,-11562.8,-1245.01,4.29839,-27.048,90.3626,3325.95,3759.36,4119.98,-57.2658,164.629,67.5948,5406.57,-11895.2,-6265.67,35.6926,-134.368,70.1616,5960.55,-61.782,1688.05,31.3179,-61.7342,10.8033
3.622,32255.4,-5958.98,3626.85,158.29,235.107,389.221,5929.66,-1951.24,9110.29,5.90399,-25.0036,22.5353,-12554.8,28113.8,-2890.17,110.153,210.852,311.487,230.632,-11707.0,-937.531,4.90838,-26.8397,91.3095,3964.73,4293.03,4343.34,-57.017,170.347,63.8863,5276.07,-11732.5,-6472.88,36.7752,-129.996,68.3061,5994.35,-65.4279,1634.4,31.1284,-61.8793,10.8246
3.623,32380.5,-5684.91,3302.0,159.567,232.741,385.678,5762.01,-1418.5,9100.53,5.27983,-25.7765,21.002,-12878.9,28149.9,-2873.08,108.306,208.175,308.327,136.585,-11612.3,-859.606,4.71603,-26.9526,92.3481,4347.94,4927.47,4568.31,-58.1262,171.937,59.6345,5202.38,-11550.5,-6583.96,37.1936,-125.765,67.0823,6063.74,-88.7248,1586.04,31.0241,-61.4817,10.7044
3.624,32497.6,-5390.49,2965.89,160.418,230.365,381.714,5525.69,-611.689,9071.37,5.19023,-26.6305,19.9811,-13184.1,28190.6,-2855.06,106.686,205.453,305.09,19.7347,-11449.4,-847.267,4.29443,-27.1573,93.4128,4658.14,5590.71,4793.73,-59.6235,172.347,55.2274,5144.92,-11362.9,-6667.56,37.4222,-121.576,66.039,6143.31,-117.636,1539.2,30.944,-60.929,10.5437
3.625,32614.7,-5096.07,2629.77,161.269,227.989,377.749,5289.37,195.125,9042.2,5.10063,-27.4845,18.9601,-13489.4,28231.4,-2837.04,105.067,202.73,301.854,-97.1155,-11286.4,-834.928,3.87284,-27.3619,94.4776,4968.34,6253.95,5019.16,-61.1208,172.758,50.8202,5087.46,-11175.4,-6751.17,37.6508,-117.386,64.9958,6222.87,-146.548,1492.35,30.864,-60.3763,10.383
3.626,32731.9,-4801.65,2293.65,162.12,225.614,373.785,5053.05,1001.94,9013.04,5.01103,-28.3386,17.9391,-13794.6,28272.2,-2819.03,103.447,200.008,298.617,-213.966,-11123.4,-822.589,3.45124,-27.5666,95.5424,5278.54,6917.19,5244.58,-62.6181,173.168,46.4131,5030.0,-10987.8,-6834.77,37.8794,-113.196,63.9525,6302.43,-175.459,1445.51,30.784,-59.8236,10.2223
3.627,32844.2,-4441.32,1953.54,162.065,223.14,369.497,4841.75,1615.88,9014.47,5.47665,-29.2707,17.524,-14102.1,28298.6,-2845.38,102.22,197.406,295.425,-296.613,-11004.5,-847.297,3.16672,-27.699,96.67,5523.13,7667.63,5390.83,-64.5341,172.745,42.1077,5008.88,-10799.2,-6889.1,38.1023,-108.472,63.2565,6390.42,-202.09,1396.75,30.7366,-59.1962,10.0914
3.628,32947.0,-3949.19,1605.43,160.199,220.47,364.561,4680.51,1844.07,9077.09,7.05268,-30.3589,18.3204,-14414.1,28296.5,-2960.48,101.776,195.045,292.321,-310.854,-10973.6,-946.097,3.15635,-27.6868,97.9235,5636.47,8592.46,5378.7,-67.2878,170.656,38.0057,5060.46,-10608.5,-6884.86,38.3135,-102.678,63.2551,6495.25,-224.158,1344.17,30.7545,-58.4194,10.02
3.629,33049.7,-3457.06,1257.33,158.332,217.8,359.624,4519.28,2072.26,9139.71,8.62872,-31.4471,19.1169,-14726.1,28294.3,-3075.58,101.333,192.683,289.218,-325.095,-10942.8,-1044.9,3.14597,-27.6747,99.177,5749.82,9517.29,5366.58,-70.0414,168.566,33.9037,5112.03,-10417.8,-6880.62,38.5248,-96.8837,63.2536,6600.08,-246.227,1291.6,30.7724,-57.6427,9.9486
3.63,33152.5,-2964.93,909.226,156.466,215.13,354.688,4358.04,2300.45,9202.33,10.2048,-32.5353,19.9134,-15038.1,28292.2,-3190.69,100.89,190.321,286.115,-339.337,-10912.0,-1143.7,3.1356,-27.6625,100.431,5863.17,10442.1,5354.46,-72.7951,166.477,29.8017,5163.6,-10227.0,-6876.38,38.7361,-91.0896,63.2522,6704.92,-268.296,1239.02,30.7903,-56.8659,9.8772
3.631,33255.2,-2472.81,561.123,154.6,212.46,349.751,4196.8,2528.64,9264.96,11.7808,-33.6235,20.7098,-15350.0,28290.0,-3305.79,100.446,187.96,283.012,-353.578,-10881.2,-1242.5,3.12523,-27.6503,101.684,5976.51,11366.9,5342.33,-75.5487,164.387,25.6996,5215.18,-10036.3,-6872.15,38.9473,-85.2955,63.2508,6809.75,-290.365,1186.44,30.8082,-56.0891,9.8058
3.632,33357.1,-1947.09,273.202,150.117,209.827,343.473,4164.59,2194.51,9342.55,12.8708,-34.8578,20.8494,-15727.4,28283.3,-3522.07,101.228,185.824,279.773,-318.211,-10939.5,-1275.57,3.36512,-27.805,102.808,6527.09,12025.6,5144.79,-76.7935,162.859,25.3928,5361.15,-9814.03,-6800.37,38.2056,-77.412,64.2094,6938.51,-341.787,1128.42,30.6849,-54.8606,9.73722
3.633,33458.9,-1417.17,-7.19492,145.307,207.199,337.027,4148.5,1790.08,9422.01,13.9,-36.1105,20.9068,-16113.0,28276.0,-3750.99,102.162,183.717,276.517,-276.642,-11008.9,-1300.43,3.63629,-27.9805,103.915,7132.32,12651.0,4924.06,-77.8497,161.402,25.5604,5518.91,-9587.83,-6720.14,37.3448,-69.2673,65.288,7070.25,-396.879,1069.73,30.5439,-53.5757,9.66899
3.634,33560.7,-887.251,-287.592,140.497,204.572,330.581,4132.42,1385.66,9501.48,14.9292,-37.3631,20.9642,-16498.6,28268.7,-3979.91,103.097,181.61,273.261,-235.074,-11078.4,-1325.29,3.90745,-28.156,105.023,7737.55,13276.4,4703.34,-78.9058,159.944,25.728,5676.67,-9361.63,-6639.92,36.484,-61.1226,66.3667,7202.0,-451.971,1011.03,30.4029,-52.2908,9.60076
3.635,33662.5,-357.333,-567.99,135.687,201.944,324.134,4116.34,981.24,9580.94,15.9584,-38.6158,21.0216,-16884.2,28261.4,-4208.84,104.031,179.503,270.006,-193.505,-11147.8,-1350.14,4.17862,-28.3315,106.13,8342.78,13901.8,4482.61,-79.962,158.487,25.8956,5834.44,-9135.44,-6559.69,35.6231,-52.9779,67.4453,7333.75,-507.063,952.339,30.2619,-51.0059,9.53253
3.636,33764.8,-0.300623,-859.991,130.37,199.342,316.841,4138.2,728.063,9642.95,16.4515,-39.8493,20.6315,-17321.6,28153.7,-4517.48,105.069,177.539,266.9,-170.925,-11190.3,-1379.68,4.47568,-28.5067,107.232,9114.26,14338.3,4248.44,-78.6453,155.831,26.7041,5999.51,-8944.2,-6354.02,33.4457,-44.5982,68.5814,7466.33,-564.636,895.669,29.9602,-49.6271,9.41951
3.637,33867.8,140.626,-1166.5,124.419,196.774,308.488,4207.49,663.94,9683.14,16.2744,-41.059,19.6821,-17823.9,27920.5,-4925.75,106.236,175.754,263.983,-172.082,-11199.2,-1415.08,4.80509,-28.6813,108.326,10093.5,14538.8,3997.46,-74.3624,151.677,28.3138,6173.71,-8796.67,-5991.54,29.6224,-35.9248,69.7895,7599.94,-625.309,841.53,29.4575,-48.1308,9.25048
3.638,33970.7,281.553,-1473.0,118.468,194.206,300.135,4276.78,599.818,9723.33,16.0974,-42.2687,18.7326,-18326.2,27687.3,-5334.03,107.403,173.969,261.065,-173.238,-11208.1,-1450.47,5.13451,-28.856,109.421,11072.8,14739.2,3746.47,-70.0795,147.523,29.9235,6347.91,-8649.13,-5629.05,25.7992,-27.2514,70.9975,7733.56,-685.983,787.39,28.9547,-46.6346,9.08145
3.639,34073.6,422.48,-1779.51,112.517,191.637,291.782,4346.07,535.696,9763.52,15.9203,-43.4784,17.7832,-18828.5,27454.1,-5742.31,108.571,172.184,258.148,-174.394,-11217.1,-1485.86,5.46392,-29.0306,110.515,12052.1,14939.7,3495.49,-65.7966,143.37,31.5331,6522.11,-8501.6,-5266.56,21.976,-18.578,72.2055,7867.17,-746.656,733.251,28.452,-45.1383,8.91242
3.64,34176.6,563.407,-2086.01,106.566,189.069,283.429,4415.36,471.574,9803.71,15.7432,-44.6881,16.8338,-19330.7,27220.9,-6150.59,109.738,170.4,255.231,-175.55,-11226.0,-1521.25,5.79334,-29.2053,111.609,13031.4,15140.1,3244.51,-61.5137,139.216,33.1428,6696.31,-8354.07,-4904.08,18.1527,-9.90458,73.4135,8000.79,-807.33,679.111,27.9493,-43.642,8.7434
3.641,34266.7,321.146,-2433.74,102.142,186.606,273.959,4426.15,735.247,9838.72,15.8845,-46.0798,16.3922,-19815.5,26848.7,-6400.23,110.244,167.386,251.588,-140.632,-11262.4,-1549.16,6.31755,-29.418,112.855,13695.7,15263.1,2877.61,-52.4077,134.738,35.1277,6911.0,-8283.9,-4315.05,12.3752,-4.17509,74.3019,8154.79,-830.942,644.377,27.0648,-41.9229,8.74268
3.642,34356.8,78.885,-2781.46,97.7183,184.142,264.488,4436.95,998.92,9873.73,16.0258,-47.4714,15.9506,-20300.3,26476.6,-6649.86,110.75,164.372,247.946,-105.713,-11298.9,-1577.07,6.84176,-29.6307,114.1,14359.9,15386.1,2510.71,-43.3017,130.259,37.1126,7125.7,-8213.73,-3726.03,6.59778,1.55439,75.1903,8308.8,-854.554,609.642,26.1803,-40.2038,8.74195
3.643,34446.8,-163.376,-3129.19,93.2945,181.679,255.018,4447.74,1262.59,9908.74,16.167,-48.863,15.509,-20785.1,26104.5,-6899.5,111.256,161.358,244.303,-70.7939,-11335.4,-1604.97,7.36597,-29.8434,115.346,15024.1,15509.1,2143.81,-34.1957,125.781,39.0975,7340.4,-8143.56,-3137.0,0.820316,7.28388,76.0787,8462.8,-878.166,574.907,25.2958,-38.4847,8.74123
3.644,34536.9,-405.637,-3476.91,88.8708,179.216,245.547,4458.53,1526.27,9943.74,16.3083,-50.2546,15.0674,-21269.9,25732.4,-7149.13,111.763,158.344,240.661,-35.8751,-11371.9,-1632.88,7.89018,-30.0561,116.591,15688.4,15632.0,1776.9,-25.0897,121.303,41.0825,7555.1,-8073.39,-2547.97,-4.95715,13.0134,76.9671,8616.81,-901.778,540.173,24.4113,-36.7656,8.74051
3.645,34625.3,-678.539,-3828.47,85.738,176.869,235.773,4439.03,1717.01,9964.94,16.5563,-51.7418,15.0311,-21717.1,25382.8,-7287.78,111.843,154.001,236.454,15.8856,-11426.4,-1668.87,8.31829,-30.3027,117.844,16096.7,15758.3,1507.8,-15.4122,118.201,43.3928,7746.81,-8013.24,-1939.07,-10.2694,15.8353,77.6398,8757.82,-904.051,497.897,23.4125,-34.8797,8.78784
3.646,34712.2,-975.955,-4183.09,83.6379,174.615,225.757,4395.29,1849.41,9975.08,16.8896,-53.3055,15.319,-22134.3,25051.2,-7337.63,111.583,148.596,231.797,81.1199,-11495.4,-1711.32,8.66952,-30.5764,119.103,16300.3,15887.3,1316.93,-5.27764,116.2,45.9636,7920.14,-7961.11,-1314.26,-15.2095,16.3312,78.1399,8888.45,-889.253,449.588,22.3223,-32.8603,8.8736
3.647,34799.2,-1273.37,-4537.72,81.5379,172.362,215.74,4351.55,1981.8,9985.21,17.2228,-54.8692,15.6069,-22551.5,24719.6,-7387.48,111.323,143.191,227.139,146.354,-11564.4,-1753.78,9.02075,-30.8501,120.362,16504.0,16016.2,1126.07,4.85696,114.2,48.5343,8093.48,-7908.98,-689.445,-20.1495,16.8271,78.6401,9019.07,-874.455,401.279,21.2321,-30.841,8.95937
3.648,34886.2,-1570.79,-4892.34,79.4378,170.108,205.724,4307.8,2114.2,9995.35,17.5561,-56.4329,15.8948,-22968.7,24388.0,-7437.34,111.063,137.786,222.481,211.588,-11633.4,-1796.23,9.37198,-31.1238,121.621,16707.6,16145.1,935.2,14.9916,112.199,51.105,8266.81,-7856.84,-64.6334,-25.0896,17.323,79.1402,9149.69,-859.657,352.97,20.1419,-28.8216,9.04514
3.649,34972.1,-1852.47,-5249.83,77.4616,167.914,195.696,4265.52,2237.25,10010.4,17.8959,-58.0263,16.1918,-23375.1,24074.0,-7478.4,110.752,132.369,217.75,271.704,-11698.1,-1838.24,9.71226,-31.3412,122.901,16886.3,16273.1,757.619,24.5427,110.469,53.6438,8429.75,-7817.82,536.919,-29.6691,17.3972,79.5763,9283.16,-841.435,309.354,18.9844,-26.8025,9.12653
3.65,35049.3,-2008.29,-5630.24,76.4757,166.2,185.581,4234.86,2285.52,10064.9,18.2876,-59.8576,16.5614,-23695.4,23900.7,-7449.16,110.037,126.854,212.43,290.868,-11728.3,-1876.64,9.96492,-31.1085,124.342,16866.0,16393.8,686.331,29.4256,110.904,55.9264,8509.61,-7883.69,952.397,-31.3644,14.0974,79.5002,9439.47,-795.819,303.284,17.2884,-24.7847,9.17288
3.651,35126.5,-2164.12,-6010.65,75.4897,164.486,175.466,4204.21,2333.8,10119.4,18.6792,-61.6888,16.931,-24015.7,23727.4,-7419.92,109.321,121.34,207.11,310.033,-11758.6,-1915.05,10.2176,-30.8757,125.784,16845.7,16514.4,615.042,34.3086,111.338,58.209,8589.47,-7949.56,1367.88,-33.0597,10.7977,79.424,9595.78,-750.204,297.215,15.5925,-22.767,9.21922
3.652,35203.8,-2319.94,-6391.06,74.5038,162.772,165.35,4173.56,2382.07,10173.8,19.0709,-63.52,17.3006,-24336.0,23554.1,-7390.68,108.606,115.826,201.79,329.197,-11788.9,-1953.46,10.4703,-30.643,127.226,16825.4,16635.0,543.753,39.1915,111.773,60.4917,8669.33,-8015.42,1783.35,-34.755,7.49794,79.3478,9752.09,-704.588,291.145,13.8966,-20.7492,9.26557
3.653,35281.0,-2475.76,-6771.48,73.5179,161.058,155.235,4142.9,2430.34,10228.3,19.4625,-65.3513,17.6702,-24656.3,23380.8,-7361.44,107.89,110.311,196.47,348.362,-11819.2,-1991.87,10.7229,-30.4102,128.668,16805.1,16755.6,472.464,44.0745,112.208,62.7743,8749.19,-8081.29,2198.83,-36.4503,4.19819,79.2716,9908.4,-658.972,285.076,12.2006,-18.7315,9.31191
3.654,35325.1,-2522.29,-7097.94,72.5589,159.652,145.129,4116.51,2353.8,10291.1,19.8223,-67.2857,17.826,-24984.7,23245.9,-7360.24,107.19,105.211,191.102,371.972,-11866.0,-1974.76,11.1271,-29.8186,130.184,16677.1,17070.8,422.221,44.8796,113.444,65.5704,8752.17,-8188.44,2411.81,-36.27,0.249286,78.9257,10067.0,-577.902,330.159,10.2497,-16.9265,9.49646
3.655,35352.6,-2514.16,-7397.42,71.6134,158.399,135.026,4092.25,2214.85,10358.1,20.1661,-69.2717,17.8749,-25317.0,23130.2,-7373.06,106.498,100.316,185.709,397.804,-11921.2,-1929.88,11.607,-29.0477,131.737,16495.3,17483.2,382.5,43.6459,115.081,68.6232,8716.73,-8316.22,2523.54,-35.152,-4.0242,78.4448,10226.7,-479.106,400.818,8.17117,-15.2279,9.75011
3.656,35380.1,-2506.03,-7696.91,70.6679,157.147,124.924,4067.99,2075.9,10425.0,20.5099,-71.2577,17.9238,-25649.4,23014.5,-7385.89,105.806,95.4223,180.316,423.636,-11976.4,-1885.01,12.0869,-28.2767,133.29,16313.4,17895.6,342.78,42.4122,116.718,71.676,8681.28,-8444.01,2635.27,-34.034,-8.29768,77.964,10386.4,-380.309,471.477,6.09269,-13.5293,10.0038
3.657,35407.6,-2497.9,-7996.4,69.7224,155.895,114.822,4043.73,1936.95,10492.0,20.8537,-73.2438,17.9727,-25981.8,22898.8,-7398.72,105.113,90.5282,174.924,449.468,-12031.6,-1840.14,12.5668,-27.5057,134.844,16131.6,18308.0,303.059,41.1784,118.356,74.7288,8645.84,-8571.79,2747.0,-32.9159,-12.5712,77.4831,10546.1,-281.513,542.136,4.01422,-11.8308,10.2574
3.658,35428.1,-2468.64,-8259.49,68.7418,154.606,104.853,4027.26,1792.66,10549.8,21.0915,-75.268,17.9431,-26301.4,22778.0,-7374.21,104.269,85.8014,169.575,480.268,-12088.4,-1779.01,13.0569,-26.6487,136.374,15892.8,18682.2,241.35,39.5336,120.39,78.0215,8587.44,-8701.52,2805.96,-31.7357,-16.6711,76.9036,10705.5,-178.356,615.948,1.9027,-10.3144,10.5319
3.659,35423.9,-2365.42,-8395.21,67.6384,153.191,95.3486,4038.04,1629.65,10575.1,20.9585,-77.4261,17.6385,-26576.6,22639.2,-7219.02,102.893,81.6604,164.38,528.454,-12150.9,-1660.98,13.583,-25.4907,137.827,15454.6,18922.7,102.68,36.4503,123.814,82.1538,8448.69,-8838.07,2680.22,-30.3377,-20.1635,75.9788,10863.7,-59.9385,700.791,-0.324432,-9.43546,10.8796
3.66,35419.8,-2262.19,-8530.92,66.535,151.776,85.8446,4048.83,1466.65,10600.5,20.8256,-79.5842,17.3339,-26851.8,22500.5,-7063.84,101.517,77.5195,159.184,576.641,-12213.4,-1542.95,14.1091,-24.3326,139.279,15016.5,19163.3,-35.9909,33.3669,127.238,86.286,8309.94,-8974.62,2554.47,-28.9397,-23.656,75.0541,11021.8,58.4789,785.634,-2.55157,-8.55656,11.2273
3.661,35415.6,-2158.96,-8666.64,65.4317,150.361,76.3406,4059.61,1303.64,10625.8,20.6926,-81.7424,17.0294,-27127.0,22361.7,-6908.66,100.142,73.3785,153.988,624.828,-12275.9,-1424.91,14.6353,-23.1745,140.731,14578.4,19403.8,-174.661,30.2835,130.662,90.4182,8171.19,-9111.16,2428.73,-27.5417,-27.1484,74.1293,11180.0,176.896,870.477,-4.7787,-7.67767,11.575
3.662,35411.5,-2055.74,-8802.36,64.3283,148.945,66.8367,4070.39,1140.64,10651.2,20.5596,-83.9005,16.7248,-27402.2,22223.0,-6753.47,98.7656,69.2375,148.793,673.015,-12338.4,-1306.88,15.1614,-22.0165,142.183,14140.2,19644.4,-313.332,27.2001,134.086,94.5505,8032.44,-9247.71,2302.99,-26.1437,-30.6409,73.2045,11338.1,295.314,955.321,-7.00584,-6.79877,11.9227
3.663,35471.2,-1696.8,-8972.21,62.7275,146.883,58.8022,4084.15,1037.43,10691.9,20.3487,-86.0901,16.0302,-27705.7,22092.8,-6444.51,96.3076,64.1085,142.94,702.346,-12385.3,-1164.87,15.8009,-20.6954,143.636,13554.8,19603.4,-626.887,26.0516,139.474,97.4139,7797.96,-9399.39,2040.82,-26.0793,-32.8326,72.0454,11475.1,443.544,1006.91,-8.92462,-6.33317,12.4866
3.664,35549.1,-1264.79,-9151.82,60.9846,144.637,51.1875,4098.77,951.308,10736.9,20.1155,-88.2887,15.2242,-28017.4,21965.0,-6091.6,93.5404,58.6974,136.9,726.29,-12427.8,-1016.0,16.4729,-19.3277,145.089,12927.2,19482.0,-990.409,25.4559,145.422,99.9149,7536.14,-9555.41,1739.68,-26.396,-34.6526,70.8193,11606.1,600.293,1049.0,-10.7553,-5.98566,13.1122
3.665,35627.0,-832.792,-9331.42,59.2416,142.39,43.5728,4113.38,865.185,10781.9,19.8823,-90.4873,14.4182,-28329.1,21837.3,-5738.69,90.7732,53.2862,130.86,750.233,-12470.3,-867.132,17.1448,-17.9601,146.542,12299.7,19360.6,-1353.93,24.8603,151.37,102.416,7274.31,-9711.42,1438.53,-26.7127,-36.4726,69.5932,11737.0,757.042,1091.09,-12.586,-5.63815,13.7378
3.666,35704.8,-400.79,-9511.03,57.4987,140.143,35.9581,4128.0,779.062,10826.9,19.6491,-92.6859,13.6122,-28640.7,21709.6,-5385.78,88.0061,47.875,124.819,774.177,-12512.9,-718.264,17.8168,-16.5924,147.995,11672.2,19239.2,-1717.45,24.2646,157.318,104.917,7012.49,-9867.44,1137.38,-27.0295,-38.2927,68.3671,11867.9,913.791,1133.18,-14.4167,-5.29063,14.3634
3.667,35820.3,211.558,-9728.57,54.683,137.823,29.0268,4146.78,724.361,10884.1,19.3915,-94.9761,12.8073,-28964.1,21616.5,-4938.12,84.7313,41.6499,118.454,790.183,-12564.7,-566.01,18.4739,-15.1771,149.491,11020.2,19066.6,-2148.97,23.9227,163.414,106.281,6754.23,-10031.7,800.388,-27.678,-39.2967,67.0002,11984.1,1063.37,1166.43,-16.1378,-5.14302,15.0499
3.668,36010.9,1184.6,-10022.0,49.7217,135.356,23.4623,4173.93,732.503,10965.7,19.0851,-97.4494,12.0044,-29310.9,21592.6,-4300.94,80.4413,33.7969,111.437,790.315,-12635.4,-406.983,19.1012,-13.6666,151.072,10319.4,18791.7,-2716.48,24.0884,169.806,105.373,6503.1,-10212.6,391.697,-28.9903,-38.6688,65.3517,12070.7,1198.62,1181.99,-17.6398,-5.39519,15.8581
3.669,36201.5,2157.64,-10315.4,44.7605,132.888,17.8978,4201.07,740.646,11047.3,18.7787,-99.9227,11.2016,-29657.8,21568.8,-3663.76,76.1513,25.9439,104.421,790.448,-12706.0,-247.956,19.7285,-12.156,152.653,9618.54,18516.8,-3283.99,24.2541,176.197,104.464,6251.96,-10393.5,-16.9941,-30.3027,-38.041,63.7032,12157.3,1333.86,1197.55,-19.1418,-5.64736,16.6663
3.67,36392.0,3130.68,-10608.8,39.7992,130.421,12.3333,4228.21,748.788,11128.9,18.4723,-102.396,10.3987,-30004.6,21545.0,-3026.59,71.8613,18.091,97.4041,790.58,-12776.6,-88.9294,20.3558,-10.6455,154.235,8917.71,18241.9,-3851.49,24.4198,182.589,103.555,6000.83,-10574.4,-425.685,-31.615,-37.4131,62.0547,12243.9,1469.11,1213.11,-20.6438,-5.89954,17.4745
3.671,36582.6,4103.73,-10902.2,34.8379,127.954,6.76876,4255.35,756.93,11210.4,18.1659,-104.869,9.59586,-30351.5,21521.2,-2389.41,67.5713,10.238,90.3876,790.713,-12847.2,70.0973,20.9831,-9.13497,155.816,8216.88,17967.0,-4419.0,24.5855,188.98,102.646,5749.69,-10755.3,-834.376,-32.9273,-36.7852,60.4062,12330.5,1604.35,1228.67,-22.1458,-6.15171,18.2827
3.672,36700.9,5083.59,-11093.3,26.8879,124.504,2.10183,4228.52,666.994,11331.8,17.8489,-107.713,8.78412,-30563.8,21620.2,-1674.77,61.9644,0.923907,83.5913,820.993,-12928.8,165.6,21.717,-7.40543,157.382,7561.89,17931.5,-4938.66,22.5689,191.248,100.15,5583.5,-10952.6,-1231.19,-33.9067,-34.1041,58.5759,12384.6,1729.4,1232.96,-23.1465,-6.86068,19.1645
3.673,36810.0,6064.3,-11271.6,18.5642,120.931,-2.4529,4194.95,564.797,11458.1,17.5305,-110.603,7.97126,-30759.4,21734.5,-950.45,56.1929,-8.57282,76.8226,855.041,-13011.7,253.161,22.4642,-5.64851,158.946,6912.64,17926.0,-5452.34,20.2796,193.0,97.4549,5427.91,-11151.9,-1626.53,-34.8445,-31.1663,56.723,12434.7,1853.18,1235.85,-24.0844,-7.62676,20.0555
3.674,36919.2,7045.02,-11449.9,10.2406,117.357,-7.00762,4161.37,462.6,11584.4,17.2122,-113.493,7.1584,-30955.0,21848.9,-226.13,50.4215,-18.0696,70.0538,889.089,-13094.6,340.723,23.2114,-3.89159,160.51,6263.39,17920.6,-5966.02,17.9902,194.752,94.7601,5272.33,-11351.3,-2021.86,-35.7823,-28.2286,54.87,12484.7,1976.95,1238.74,-25.0223,-8.39283,20.9465
3.675,37028.4,8025.73,-11628.2,1.91698,113.784,-11.5624,4127.8,360.404,11710.8,16.8938,-116.383,6.34554,-31150.6,21963.2,498.191,44.65,-27.5663,63.285,923.137,-13177.5,428.285,23.9586,-2.13467,162.074,5614.13,17915.1,-6479.71,15.7009,196.505,92.0652,5116.75,-11550.6,-2417.19,-36.7201,-25.2908,53.0171,12534.8,2100.73,1241.63,-25.9603,-9.1589,21.8374
3.676,37021.4,8773.27,-11802.6,-6.17845,109.62,-16.1429,4081.84,233.139,11819.2,16.5755,-119.518,5.32172,-31237.3,22002.0,1214.45,39.0855,-37.795,56.9768,943.193,-13289.6,496.979,24.7012,-0.332774,163.615,5003.92,17954.6,-6811.54,12.7031,194.721,89.5889,5012.63,-11741.1,-2747.42,-37.1562,-21.9438,51.2732,12585.3,2194.21,1217.21,-26.7198,-9.96282,22.7417
3.677,36869.2,9229.35,-11972.2,-13.9886,104.715,-20.7556,4020.39,74.538,11905.3,16.2572,-122.962,4.03419,-31188.0,21946.5,1920.64,33.7798,-48.9387,51.2443,945.759,-13438.2,542.087,25.438,1.52533,165.127,4442.52,18050.5,-6916.08,8.81974,188.518,87.3858,4972.83,-11920.6,-2996.28,-36.9652,-18.0853,49.6656,12636.5,2249.84,1158.67,-27.2562,-10.814,23.6627
3.678,36717.0,9685.42,-12141.7,-21.7988,99.8099,-25.3684,3958.94,-84.0626,11991.3,15.9388,-126.405,2.74667,-31138.6,21890.9,2626.82,28.474,-60.0824,45.5117,948.326,-13586.8,587.196,26.1747,3.38343,166.64,3881.12,18146.3,-7020.62,4.93639,182.315,85.1827,4933.03,-12100.0,-3245.14,-36.7741,-14.2268,48.058,12687.7,2305.46,1100.13,-27.7926,-11.6652,24.5837
3.679,36564.8,10141.5,-12311.3,-29.6089,94.9051,-29.9811,3897.49,-242.663,12077.4,15.6205,-129.848,1.45914,-31089.3,21835.4,3333.01,23.1682,-71.226,39.7791,950.892,-13735.4,632.304,26.9115,5.24154,168.152,3319.72,18242.2,-7125.15,1.05304,176.112,82.9797,4893.23,-12279.4,-3493.99,-36.5831,-10.3684,46.4504,12738.9,2361.09,1041.6,-28.329,-12.5165,25.5047
3.68,36412.6,10597.6,-12480.8,-37.4191,90.0002,-34.5939,3836.05,-401.264,12163.5,15.3021,-133.291,0.171619,-31040.0,21779.8,4039.2,17.8625,-82.3697,34.0466,953.459,-13884.0,677.413,27.6483,7.09964,169.664,2758.32,18338.1,-7229.69,-2.83031,169.909,80.7766,4853.43,-12458.8,-3742.85,-36.392,-6.50986,44.8428,12790.1,2416.71,983.056,-28.8655,-13.3677,26.4257
3.681,36046.3,10397.5,-12620.1,-41.8514,84.0877,-39.1818,3843.68,-382.623,12289.7,15.325,-137.209,-1.06293,-30821.3,21439.3,4294.6,13.4913,-91.808,28.6085,909.464,-14052.4,676.57,28.2596,8.58295,171.176,2336.11,18047.2,-6826.44,-5.09036,156.237,78.1392,4991.86,-12565.5,-3775.38,-35.2514,-2.92652,43.903,12813.4,2434.53,939.199,-29.3772,-14.2667,27.1883
3.682,35680.1,10197.4,-12759.4,-46.2838,78.1751,-43.7696,3851.32,-363.981,12415.8,15.3479,-141.127,-2.29748,-30602.7,21098.7,4550.01,9.12019,-101.246,23.1704,865.469,-14220.8,675.726,28.8709,10.0663,172.689,1913.9,17756.3,-6423.19,-7.35042,142.565,75.5018,5130.29,-12672.1,-3807.91,-34.1109,0.656826,42.9632,12836.8,2452.34,895.342,-29.889,-15.1657,27.9509
3.683,35313.8,9997.29,-12898.7,-50.7161,72.2625,-48.3575,3858.96,-345.34,12541.9,15.3707,-145.044,-3.53203,-30384.0,20758.1,4805.41,4.74905,-110.685,17.7323,821.474,-14389.3,674.883,29.4822,11.5496,174.201,1491.69,17465.5,-6019.95,-9.61047,128.893,72.8644,5268.73,-12778.8,-3840.45,-32.9703,4.24017,42.0234,12860.1,2470.16,851.484,-30.4007,-16.0647,28.7135
3.684,34947.6,9797.19,-13038.0,-55.1485,66.3499,-52.9454,3866.6,-326.699,12668.1,15.3936,-148.962,-4.76658,-30165.4,20417.5,5060.82,0.377904,-120.123,12.2942,777.48,-14557.7,674.039,30.0935,13.0329,175.713,1069.48,17174.6,-5616.7,-11.8705,115.221,70.227,5407.16,-12885.4,-3872.98,-31.8297,7.82352,41.0836,12883.4,2487.98,807.627,-30.9124,-16.9637,29.476
3.685,34511.4,9338.73,-13136.3,-57.4969,60.2848,-57.6653,3852.31,-312.505,12791.3,15.7428,-153.149,-5.80065,-29843.5,20080.0,5081.93,-3.22644,-127.299,6.72721,716.45,-14760.9,665.044,30.6063,14.1748,177.156,726.665,16621.4,-4994.64,-11.3114,99.9179,66.4046,5587.8,-12944.8,-3841.49,-30.541,10.861,40.5233,12885.5,2472.73,741.887,-31.2611,-17.7926,30.1973
3.686,34019.4,8673.57,-13201.7,-58.1781,54.0975,-62.4909,3820.47,-301.87,12912.3,16.3531,-157.552,-6.67432,-29439.1,19745.0,4915.61,-6.21735,-132.666,1.05707,641.793,-14992.1,649.527,31.0403,15.0436,178.543,447.367,15858.3,-4197.52,-8.497,83.3105,61.6341,5802.2,-12966.3,-3758.78,-29.1339,13.4619,40.2664,12870.4,2431.03,658.641,-31.4794,-18.5653,30.8855
3.687,33527.4,8008.41,-13267.1,-58.8592,47.9103,-67.3165,3788.63,-291.235,13033.2,16.9634,-161.955,-7.54799,-29034.6,19410.0,4749.29,-9.20826,-138.033,-4.61306,567.135,-15223.2,634.01,31.4743,15.9125,179.93,168.069,15095.3,-3400.4,-5.68257,66.7031,56.8636,6016.6,-12987.7,-3676.07,-27.7268,16.0627,40.0096,12855.4,2389.32,575.395,-31.6977,-19.338,31.5737
3.688,33035.4,7343.25,-13332.5,-59.5404,41.7231,-72.1421,3756.79,-280.601,13154.1,17.5737,-166.358,-8.42167,-28630.2,19075.0,4582.97,-12.1992,-143.399,-10.2832,492.478,-15454.3,618.492,31.9083,16.7813,181.317,-111.23,14332.2,-2603.28,-2.86815,50.0958,52.0931,6231.0,-13009.2,-3593.36,-26.3197,18.6636,39.7528,12840.4,2347.62,492.149,-31.9159,-20.1108,32.2619
3.689,32547.0,6674.47,-13383.1,-59.807,35.579,-77.0071,3728.06,-264.148,13269.6,18.1874,-170.795,-9.27951,-28200.1,18756.0,4407.03,-15.1113,-148.288,-15.9686,418.787,-15687.9,596.881,32.3279,17.5468,182.684,-388.23,13566.2,-1835.8,0.424123,33.8801,47.131,6447.74,-13027.1,-3506.06,-24.9161,21.1658,39.561,12827.4,2295.58,404.46,-32.1201,-20.8165,32.9231
3.69,32087.9,5976.73,-13316.0,-56.7565,29.7799,-82.1879,3724.12,-201.153,13341.3,18.8284,-175.513,-10.0107,-27564.1,18565.1,4154.13,-17.3929,-149.358,-21.7763,352.832,-15941.5,526.511,32.6326,17.4861,183.896,-646.853,12777.1,-1305.48,7.53913,20.798,40.6357,6683.23,-13016.2,-3382.02,-23.5414,22.879,39.8897,12830.1,2160.8,281.227,-32.2119,-20.9858,33.3689
3.691,31628.8,5278.98,-13248.8,-53.706,23.9809,-87.3687,3720.19,-138.158,13413.1,19.4694,-180.23,-10.7419,-26928.1,18374.1,3901.24,-19.6746,-150.427,-27.5839,286.877,-16195.1,456.141,32.9372,17.4254,185.107,-905.475,11987.9,-775.152,14.6541,7.71591,34.1405,6918.71,-13005.2,-3257.98,-22.1666,24.5922,40.2185,12832.7,2026.03,157.994,-32.3037,-21.1551,33.8146
3.692,31169.7,4581.24,-13181.7,-50.6555,18.1819,-92.5494,3716.26,-75.1634,13484.9,20.1103,-184.947,-11.4731,-26292.1,18183.2,3648.34,-21.9562,-151.496,-33.3915,220.922,-16448.7,385.771,33.2418,17.3647,186.318,-1164.1,11198.7,-244.828,21.7691,-5.36619,27.6452,7154.2,-12994.2,-3133.95,-20.7919,26.3054,40.5472,12835.4,1891.25,34.7606,-32.3955,-21.3244,34.2604
3.693,30710.7,3883.5,-13114.5,-47.605,12.3829,-97.7302,3712.32,-12.1685,13556.6,20.7513,-189.665,-12.2042,-25656.2,17992.2,3395.45,-24.2379,-152.565,-39.1992,154.967,-16702.3,315.401,33.5465,17.3039,187.53,-1422.72,10409.6,285.496,28.8841,-18.4483,21.15,7389.68,-12983.3,-3009.91,-19.4171,28.0186,40.876,12838.1,1756.48,-88.4726,-32.4872,-21.4937,34.7061
3.694,30320.0,3374.46,-12963.0,-43.2966,7.00503,-102.639,3692.02,102.987,13612.9,21.5731,-194.527,-12.6857,-25021.2,17837.6,3153.6,-25.9043,-151.718,-44.8267,95.755,-16927.1,241.723,33.7329,16.9664,188.81,-1714.75,9797.62,381.291,36.5323,-26.6686,14.9585,7587.07,-12993.1,-2911.27,-18.316,29.4134,41.4328,12848.4,1590.83,-213.265,-32.7262,-21.4141,34.886
3.695,29963.5,2959.76,-12769.3,-38.3591,1.83773,-107.411,3663.53,244.222,13661.5,22.4852,-199.463,-13.0424,-24386.8,17701.2,2917.28,-27.2631,-149.914,-50.3641,39.9153,-17137.4,166.393,33.8604,16.4904,190.125,-2023.48,9274.27,259.821,44.4471,-32.4579,8.91882,7765.41,-13013.2,-2825.34,-17.3517,30.6491,42.1037,12862.5,1409.74,-338.837,-33.0386,-21.2099,34.933
3.696,29607.0,2545.07,-12575.5,-33.4217,-3.32958,-112.183,3635.03,385.457,13710.1,23.3973,-204.398,-13.399,-23752.4,17564.7,2680.95,-28.622,-148.109,-55.9015,-15.9244,-17347.7,91.0616,33.9878,16.0144,191.44,-2332.21,8750.92,138.351,52.3618,-38.2473,2.87917,7943.75,-13033.4,-2739.4,-16.3873,31.8848,42.7746,12876.6,1228.66,-464.409,-33.3511,-21.0057,34.9799
3.697,29250.5,2130.38,-12381.8,-28.4842,-8.49689,-116.955,3606.54,526.693,13758.6,24.3094,-209.333,-13.7557,-23118.0,17428.3,2444.63,-29.9808,-146.304,-61.4389,-71.7642,-17557.9,15.7307,34.1152,15.5384,192.754,-2640.94,8227.58,16.8808,60.2766,-44.0366,-3.16048,8122.09,-13053.6,-2653.47,-15.423,33.1205,43.4454,12890.7,1047.57,-589.981,-33.6636,-20.8015,35.0269
3.698,28921.0,1776.39,-12170.9,-23.5649,-13.4774,-121.508,3575.18,664.102,13803.0,25.2729,-214.332,-14.0448,-22517.1,17296.9,2230.6,-31.2005,-144.276,-66.8648,-113.375,-17763.9,-62.1893,34.2205,15.0067,194.029,-2983.57,7754.01,-160.753,67.8075,-48.473,-8.75209,8268.69,-13078.3,-2580.54,-14.537,34.2897,44.0621,12917.9,863.918,-706.025,-33.9481,-20.5436,35.0225
3.699,28685.8,1634.87,-11900.0,-18.7088,-17.8039,-125.296,3533.77,788.122,13832.9,26.4162,-219.552,-14.0979,-22033.4,17183.3,2094.62,-31.933,-141.466,-71.9003,-105.182,-17954.5,-149.171,34.2488,14.2796,195.161,-3444.84,7454.67,-534.962,73.995,-48.1743,-12.7756,8304.22,-13119.1,-2553.15,-13.9252,35.226,44.4888,12991.1,671.277,-788.719,-34.135,-20.0974,34.8379
3.7,28450.5,1493.35,-11629.1,-13.8528,-22.1304,-129.083,3492.36,912.141,13862.7,27.5595,-224.772,-14.151,-21549.8,17069.8,1958.63,-32.6655,-138.656,-76.9358,-96.9898,-18145.2,-236.153,34.277,13.5526,196.292,-3906.11,7155.33,-909.172,80.1826,-47.8755,-16.7991,8339.76,-13159.9,-2525.75,-13.3133,36.1622,44.9155,13064.3,478.637,-871.413,-34.3218,-19.6512,34.6534
3.701,28215.3,1351.83,-11358.2,-8.99672,-26.457,-132.871,3450.95,1036.16,13892.6,28.7028,-229.993,-14.2041,-21066.1,16956.2,1822.64,-33.398,-135.846,-81.9713,-88.7974,-18335.9,-323.134,34.3052,12.8255,197.424,-4367.39,6855.99,-1283.38,86.3701,-47.5767,-20.8226,8375.29,-13200.7,-2498.36,-12.7014,37.0985,45.3422,13137.4,285.996,-954.107,-34.5086,-19.205,34.4689
3.702,27980.1,1210.31,-11087.3,-4.14067,-30.7835,-136.658,3409.54,1160.18,13922.5,29.8461,-235.213,-14.2571,-20582.5,16842.7,1686.65,-34.1305,-133.036,-87.0067,-80.605,-18526.5,-410.116,34.3334,12.0985,198.556,-4828.66,6556.65,-1657.59,92.5577,-47.2779,-24.8461,8410.82,-13241.5,-2470.96,-12.0896,38.0347,45.7689,13210.6,93.3553,-1036.8,-34.6955,-18.7588,34.2844
3.703,27827.6,1136.2,-10782.4,-0.828302,-34.2825,-139.751,3403.16,1199.13,13981.4,31.2126,-240.75,-14.003,-20209.1,16750.4,1575.82,-34.2102,-129.241,-91.1899,-40.0064,-18679.9,-502.741,34.509,11.0327,199.599,-5294.33,6328.4,-2090.42,95.5407,-44.3988,-27.2887,8341.49,-13299.6,-2446.88,-11.3947,38.8114,45.8239,13313.1,-128.101,-1106.11,-34.7321,-18.2926,33.7764
3.704,27698.7,1081.34,-10467.7,2.04302,-37.545,-142.646,3406.8,1213.78,14048.6,32.6428,-246.378,-13.6612,-19867.2,16664.3,1472.19,-34.1035,-125.164,-95.1295,9.85121,-18822.6,-596.978,34.7267,9.87007,200.617,-5761.26,6120.46,-2540.0,97.608,-40.7824,-29.2796,8242.2,-13362.5,-2423.75,-10.6761,39.5424,45.7727,13423.9,-357.79,-1171.6,-34.7258,-17.8208,33.176
3.705,27569.9,1026.49,-10153.1,4.91433,-40.8075,-145.54,3410.44,1228.43,14115.9,34.0731,-252.006,-13.3193,-19525.2,16578.1,1368.56,-33.9968,-121.088,-99.0691,59.7088,-18965.3,-691.216,34.9444,8.70745,201.635,-6228.19,5912.52,-2989.58,99.6754,-37.166,-31.2706,8142.91,-13425.5,-2400.61,-9.95757,40.2734,45.7214,13534.7,-587.479,-1237.08,-34.7196,-17.349,32.5755
3.706,27441.1,971.63,-9838.4,7.78565,-44.07,-148.435,3414.09,1243.08,14183.1,35.5033,-257.634,-12.9774,-19183.3,16491.9,1264.92,-33.8901,-117.011,-103.009,109.566,-19108.1,-785.453,35.1621,7.54483,202.653,-6695.12,5704.58,-3439.16,101.743,-33.5496,-33.2615,8043.62,-13488.5,-2377.48,-9.23899,41.0044,45.6702,13645.5,-817.168,-1302.57,-34.7133,-16.8771,31.9751
3.707,27319.6,935.436,-9546.65,10.224,-47.0885,-150.974,3402.57,1270.12,14227.6,36.937,-263.342,-12.7963,-18845.5,16381.0,1192.28,-33.5583,-112.69,-106.712,151.707,-19225.4,-877.476,35.3712,6.39633,203.676,-7130.5,5553.02,-3869.86,102.42,-29.0479,-34.5443,7919.31,-13556.0,-2333.99,-8.46747,41.5047,45.4279,13753.8,-1037.39,-1370.47,-34.6014,-16.3809,31.27
3.708,27213.0,936.563,-9300.73,11.7965,-49.619,-152.802,3360.75,1321.95,14226.6,38.3774,-269.208,-12.9368,-18515.9,16220.5,1181.63,-32.7766,-107.879,-109.944,178.414,-19291.8,-965.07,35.5633,5.27604,204.706,-7502.77,5514.21,-4262.79,100.319,-22.7755,-34.411,7744.94,-13632.5,-2249.78,-7.59007,41.5435,44.8033,13857.0,-1238.67,-1443.19,-34.2785,-15.8359,30.3555
3.709,27106.4,937.691,-9054.8,13.369,-52.1495,-154.63,3318.92,1373.78,14225.5,39.8179,-275.075,-13.0773,-18186.3,16060.0,1170.97,-31.9949,-103.068,-113.175,205.122,-19358.3,-1052.66,35.7554,4.15576,205.736,-7875.04,5475.41,-4655.72,98.2168,-16.5032,-34.2777,7570.57,-13709.0,-2165.58,-6.71267,41.5823,44.1788,13960.2,-1439.96,-1515.92,-33.9555,-15.2909,29.4411
3.71,26999.7,938.818,-8808.87,14.9415,-54.68,-156.458,3277.09,1425.62,14224.5,41.2583,-280.942,-13.2178,-17856.7,15899.4,1160.32,-31.2132,-98.2564,-116.406,231.829,-19424.7,-1140.26,35.9475,3.03548,206.766,-8247.31,5436.61,-5048.65,96.1149,-10.2308,-34.1444,7396.2,-13785.5,-2081.37,-5.83527,41.6211,43.5543,14063.4,-1641.24,-1588.65,-33.6326,-14.7459,28.5266
3.711,26893.1,939.946,-8562.94,16.514,-57.2106,-158.286,3235.27,1477.45,14223.5,42.6987,-286.808,-13.3582,-17527.1,15738.9,1149.66,-30.4314,-93.4453,-119.637,258.536,-19491.1,-1227.85,36.1396,1.9152,207.796,-8619.58,5397.81,-5441.58,94.0131,-3.95846,-34.0111,7221.83,-13862.0,-1997.17,-4.95787,41.6598,42.9297,14166.6,-1842.52,-1661.38,-33.3096,-14.2009,27.6122
3.712,26797.2,862.018,-8605.97,18.4801,-59.8091,-159.686,3217.21,1538.78,14254.7,44.6339,-292.827,-12.8538,-17094.2,15588.6,1165.59,-29.1809,-88.3104,-122.357,304.825,-19507.1,-1272.9,36.3704,0.511913,209.092,-8871.8,5489.55,-5646.39,88.8764,3.70108,-32.0865,7062.27,-13946.6,-1780.58,-3.67148,40.2443,41.9608,14282.4,-2016.47,-1681.21,-32.7989,-13.3603,26.5422
3.713,26702.7,774.207,-8685.11,20.4954,-62.4161,-161.033,3202.11,1601.29,14289.9,46.6309,-298.865,-12.2687,-16648.5,15439.6,1184.84,-27.8719,-83.1351,-125.013,353.562,-19516.8,-1312.64,36.606,-0.926746,210.421,-9109.01,5597.62,-5827.68,83.3605,11.534,-29.938,6904.55,-14032.2,-1547.44,-2.33396,38.647,40.9489,14399.9,-2187.0,-1694.43,-32.2647,-12.4828,25.4529
3.714,26608.1,686.397,-8764.25,22.5107,-65.0231,-162.38,3187.02,1663.81,14325.1,48.6279,-304.903,-11.6837,-16202.7,15290.6,1204.09,-26.5628,-77.9597,-127.669,402.299,-19526.4,-1352.37,36.8416,-2.36541,211.75,-9346.22,5705.69,-6008.97,77.8445,19.367,-27.7895,6746.84,-14117.9,-1314.31,-0.996445,37.0497,39.937,14517.3,-2357.53,-1707.65,-31.7306,-11.6053,24.3636
3.715,26513.6,598.587,-8843.4,24.526,-67.6302,-163.726,3171.93,1726.32,14360.3,50.6249,-310.941,-11.0986,-15757.0,15141.6,1223.34,-25.2537,-72.7844,-130.324,451.036,-19536.1,-1392.1,37.0773,-3.80407,213.079,-9583.44,5813.75,-6190.26,72.3285,27.1999,-25.641,6589.12,-14203.5,-1081.17,0.34107,35.4524,38.9251,14634.7,-2528.07,-1720.87,-31.1964,-10.7278,23.2742
3.716,26397.2,293.313,-9136.94,29.2836,-71.4237,-165.784,3162.77,1749.37,14393.1,52.6967,-316.833,-10.5603,-15170.7,15011.1,1139.83,-23.6207,-66.7524,-132.497,521.529,-19542.3,-1405.55,37.2791,-5.34318,214.399,-9762.27,5868.44,-6139.23,65.4836,33.826,-23.3086,6470.25,-14267.2,-806.644,2.08233,32.9733,37.7474,14768.2,-2698.15,-1668.86,-30.7132,-9.46764,22.1527
3.717,26253.6,-283.789,-9698.49,37.469,-76.7002,-168.728,3161.02,1723.09,14422.9,54.8621,-322.541,-10.0806,-14409.0,14903.5,927.898,-21.5827,-59.6496,-134.067,619.216,-19544.1,-1386.13,37.4389,-7.00786,215.707,-9868.13,5856.41,-5797.77,56.9775,38.9434,-20.7463,6399.92,-14303.5,-480.373,4.32826,29.3918,36.3623,14921.5,-2867.66,-1535.33,-30.2939,-7.72915,20.9911
3.718,26109.9,-860.892,-10260.0,45.6544,-81.9768,-171.673,3159.28,1696.8,14452.7,57.0275,-328.25,-9.60084,-13647.2,14796.0,715.962,-19.5447,-52.5469,-135.636,716.904,-19545.9,-1366.71,37.5986,-8.67254,217.015,-9973.98,5844.38,-5456.32,48.4714,44.0609,-18.1839,6329.6,-14339.9,-154.101,6.57419,25.8103,34.9772,15074.9,-3037.18,-1401.8,-29.8746,-5.99067,19.8294
3.719,25966.3,-1437.99,-10821.6,53.8398,-87.2534,-174.618,3157.53,1670.51,14482.5,59.1929,-333.958,-9.12108,-12885.4,14688.5,504.026,-17.5067,-45.4441,-137.206,814.592,-19547.7,-1347.29,37.7583,-10.3372,218.322,-10079.8,5832.35,-5114.86,39.9654,49.1784,-15.6216,6259.27,-14376.2,172.171,8.82012,22.2288,33.5921,15228.3,-3206.69,-1268.27,-29.4552,-4.25218,18.6678
3.72,25822.7,-2015.1,-11383.1,62.0252,-92.5299,-177.563,3155.79,1644.23,14512.3,61.3583,-339.667,-8.64133,-12123.6,14581.0,292.089,-15.4687,-38.3413,-138.775,912.28,-19549.5,-1327.87,37.9181,-12.0019,219.63,-10185.7,5820.32,-4773.41,31.4593,54.2959,-13.0593,6188.94,-14412.5,498.442,11.0661,18.6472,32.207,15381.7,-3376.2,-1134.74,-29.0359,-2.5137,17.5061
3.721,23662.8,-2663.57,-10065.3,71.3206,-122.862,-186.722,3116.41,1667.58,14491.9,63.3335,-345.698,-8.11798,-10858.3,14189.7,-706.568,-10.3723,-30.0101,-140.065,1031.84,-19553.6,-1339.91,38.0935,-13.7788,220.989,-10136.1,5809.69,-4053.09,23.431,50.408,-11.7094,6228.75,-14399.0,832.21,14.2932,13.2927,30.4215,15699.1,-3596.66,-859.212,-29.3126,0.970539,16.4827
3.722,21502.9,-3312.04,-8747.5,80.6159,-153.193,-195.881,3077.03,1690.94,14471.6,65.3087,-351.73,-7.59464,-9593.01,13798.4,-1705.22,-5.27592,-21.679,-141.355,1151.39,-19557.6,-1351.95,38.269,-15.5558,222.348,-10086.5,5799.06,-3332.77,15.4026,46.5201,-10.3594,6268.56,-14385.5,1165.98,17.5203,7.93817,28.6361,16016.5,-3817.12,-583.688,-29.5894,4.45477,15.4593
3.723,19343.0,-3960.5,-7429.68,89.9113,-183.525,-205.04,3037.65,1714.29,14451.2,67.2839,-357.761,-7.07129,-8327.71,13407.1,-2703.88,-0.179548,-13.3478,-142.646,1270.95,-19561.7,-1363.99,38.4444,-17.3327,223.707,-10036.8,5788.42,-2612.45,7.37431,42.6322,-9.00951,6308.37,-14372.0,1499.74,20.7474,2.58363,26.8507,16333.8,-4037.58,-308.164,-29.8661,7.93901,14.4358
3.724,17183.1,-4608.97,-6111.87,99.2066,-213.856,-214.199,2998.27,1737.65,14430.9,69.2591,-363.793,-6.54794,-7062.41,13015.8,-3702.54,4.91683,-5.01663,-143.936,1390.51,-19565.7,-1376.03,38.6199,-19.1096,225.067,-9987.23,5777.79,-1892.13,-0.654021,38.7443,-7.65959,6348.18,-14358.5,1833.51,23.9745,-2.77091,25.0652,16651.2,-4258.04,-32.6397,-30.1428,11.4232,13.4124
3.725,12898.2,-5782.66,-2443.12,106.209,-254.083,-237.421,2958.41,1761.35,14473.5,72.2042,-370.063,-5.52808,-5226.26,12350.0,-5539.08,12.243,0.402598,-147.85,1499.81,-19578.4,-1353.91,38.8728,-20.9018,226.769,-9834.99,5693.88,-1257.08,-6.39084,29.5597,-8.22619,6453.4,-14313.2,2079.03,27.221,-8.49503,23.1851,17059.0,-4411.13,204.255,-31.2853,15.452,12.6658
3.726,6913.38,-7376.51,3106.39,111.376,-302.226,-271.893,2918.18,1785.33,14566.6,75.9252,-376.524,-4.111,-2933.44,11464.6,-8045.92,21.3531,3.49227,-153.864,1600.92,-19598.0,-1304.47,39.1878,-22.7061,228.745,-9600.64,5551.35,-690.262,-10.2945,16.1378,-10.326,6610.95,-14242.4,2253.94,30.483,-14.5148,21.2293,17539.1,-4510.33,410.245,-33.1203,19.9162,12.1409
3.727,928.521,-8970.36,8655.9,116.543,-350.37,-306.366,2877.95,1809.31,14659.6,79.6463,-382.984,-2.69393,-640.611,10579.3,-10552.8,30.4631,6.58195,-159.878,1702.02,-19617.5,-1255.03,39.5027,-24.5104,230.721,-9366.29,5408.82,-123.44,-14.1981,2.71586,-12.4258,6768.5,-14171.5,2428.85,33.745,-20.5346,19.2734,18019.2,-4609.52,616.235,-34.9553,24.3805,11.6159
3.728,-5056.34,-10564.2,14205.4,121.711,-398.513,-340.839,2837.73,1833.29,14752.7,83.3673,-389.445,-1.27685,1652.22,9693.92,-13059.6,39.5732,9.67163,-165.892,1803.12,-19637.1,-1205.59,39.8177,-26.3148,232.698,-9131.94,5266.28,443.382,-18.1017,-10.7061,-14.5257,6926.05,-14100.7,2603.77,37.007,-26.5544,17.3176,18499.3,-4708.72,822.225,-36.7903,28.8448,11.0909
3.729,-10913.7,-12127.5,19161.4,127.93,-442.373,-375.803,2799.37,1844.63,14885.5,86.8206,-395.939,0.0712329,4018.72,8849.41,-15316.8,47.9071,11.5008,-172.495,1928.32,-19673.1,-1137.47,40.2311,-28.0136,234.676,-8876.85,5147.78,893.367,-20.9688,-23.8296,-17.0452,7094.93,-14023.2,2737.15,40.1199,-32.4779,15.3815,18967.7,-4766.61,1036.47,-38.7805,33.0759,10.6962
3.73,-15750.6,-13446.1,19369.2,142.562,-451.966,-414.707,2776.02,1754.86,15336.9,88.1319,-402.698,0.867355,6974.66,8331.76,-15576.3,50.032,3.24608,-183.816,2246.21,-19840.5,-919.965,41.432,-28.8685,236.675,-8455.87,5221.48,408.658,-15.5439,-34.5661,-22.9229,7354.4,-13892.3,2538.32,42.0395,-37.6306,13.6035,19342.5,-4494.11,1316.77,-42.0117,35.4417,11.3436
3.731,-20587.5,-14764.6,19577.0,157.195,-461.56,-453.61,2752.68,1665.09,15788.3,89.4431,-409.458,1.66348,9930.59,7814.12,-15835.9,52.1569,-5.00866,-195.137,2564.1,-20007.9,-702.457,42.633,-29.7234,238.673,-8034.9,5295.19,-76.0516,-10.1191,-45.3026,-28.8005,7613.87,-13761.5,2339.49,43.9592,-42.7833,11.8255,19717.3,-4221.61,1597.07,-45.2428,37.8076,11.991
3.732,-25424.4,-16083.2,19784.8,171.827,-471.154,-492.513,2729.33,1575.32,16239.7,90.7543,-416.217,2.4596,12886.5,7296.47,-16095.5,54.2818,-13.2634,-206.458,2881.99,-20175.3,-484.95,43.8339,-30.5782,240.671,-7613.92,5368.9,-560.761,-4.69422,-56.0391,-34.6781,7873.35,-13630.7,2140.66,45.8788,-47.9361,10.0475,20092.2,-3949.11,1877.37,-48.474,40.1734,12.6385
3.733,-30261.3,-17401.8,19992.6,186.459,-480.747,-531.417,2705.98,1485.55,16691.0,92.0656,-422.976,3.25572,15842.5,6778.83,-16355.0,56.4066,-21.5181,-217.779,3199.88,-20342.8,-267.442,45.0349,-31.4331,242.669,-7192.94,5442.6,-1045.47,0.730634,-66.7756,-40.5557,8132.82,-13499.8,1941.82,47.7984,-53.0888,8.26946,20467.0,-3676.61,2157.67,-51.7052,42.5392,13.2859
3.734,-29870.0,-15711.6,18385.6,194.426,-463.131,-530.59,2634.88,1468.35,16781.4,93.378,-427.992,3.57803,18917.1,7595.01,-15548.5,49.3319,-24.8724,-220.973,3609.33,-20627.5,-124.511,46.9441,-32.2203,244.56,-6719.38,6035.8,-1575.98,8.28667,-70.2754,-46.3539,8427.23,-13385.2,1578.87,47.7737,-56.332,6.71317,20634.7,-3285.17,2667.92,-54.0441,42.4606,14.6928
3.735,-26864.7,-12517.2,15871.0,199.06,-431.91,-509.897,2539.91,1487.43,16691.2,94.691,-432.137,3.66344,22051.1,9078.1,-14209.0,37.6574,-25.7765,-220.105,4064.56,-20970.8,-18.8682,49.2074,-32.9736,246.396,-6219.52,6888.75,-2129.39,16.9083,-70.1569,-52.1124,8739.11,-13278.7,1133.86,46.7768,-58.6205,5.26774,20698.9,-2834.26,3293.13,-55.9369,41.1599,16.4793
3.736,-23859.4,-9322.74,13356.5,203.694,-400.688,-489.205,2444.94,1506.51,16601.0,96.004,-436.282,3.74885,25185.1,10561.2,-12869.4,25.983,-26.6806,-219.236,4519.79,-21314.2,86.7746,51.4707,-33.727,248.233,-5719.67,7741.7,-2682.8,25.5299,-70.0383,-57.8708,9050.99,-13172.3,688.857,45.7799,-60.909,3.82231,20763.1,-2383.36,3918.35,-57.8298,39.8591,18.2659
3.737,-20854.1,-6128.29,10842.0,208.327,-369.467,-468.512,2349.97,1525.59,16510.8,97.3169,-440.426,3.83426,28319.0,12044.3,-11529.9,14.3085,-27.5846,-218.367,4975.02,-21657.6,192.417,53.7341,-34.4804,250.07,-5219.82,8594.64,-3236.21,34.1516,-69.9198,-63.6292,9362.87,-13065.8,243.849,44.7829,-63.1975,2.37687,20827.3,-1932.45,4543.57,-59.7226,38.5583,20.0525
3.738,-16434.0,-2767.13,9647.02,208.76,-337.229,-440.408,2254.39,1522.43,16468.6,98.4425,-445.697,4.28875,30851.4,13918.7,-9507.98,1.35385,-25.4346,-215.664,5321.73,-21997.8,230.283,55.9486,-35.1999,251.777,-4699.9,9559.26,-3650.71,41.0863,-68.098,-68.3766,9689.35,-12988.2,-163.529,43.1814,-64.8319,0.969086,20826.1,-1510.18,5138.88,-61.1786,36.6212,21.8118
3.739,-7062.16,1177.49,13070.6,194.49,-301.437,-386.363,2156.65,1441.44,16594.4,98.912,-454.906,6.03501,31278.0,17162.6,-5097.88,-16.0811,-12.595,-206.54,5288.6,-22326.8,30.9309,57.9924,-35.8012,253.029,-4109.71,10914.7,-3579.03,42.117,-60.3151,-69.5854,10066.9,-13011.7,-439.197,39.4638,-64.1771,-0.306944,20596.0,-1188.09,5629.5,-61.1057,32.457,23.4759
3.74,2309.64,5122.12,16494.3,180.22,-265.644,-332.318,2058.92,1360.44,16720.2,99.3816,-464.116,7.78128,31704.6,20406.5,-687.788,-33.5161,0.244512,-197.415,5255.46,-22655.8,-168.422,60.0363,-36.4025,254.282,-3519.52,12270.2,-3507.35,43.1477,-52.5321,-70.7941,10444.5,-13035.3,-714.865,35.7462,-63.5224,-1.58297,20365.9,-866.005,6120.12,-61.0328,28.2928,25.1399
3.741,11681.5,9066.74,19917.9,165.95,-229.851,-278.273,1961.18,1279.45,16845.9,99.8511,-473.326,9.52754,32131.2,23650.4,3722.31,-50.951,13.0841,-188.291,5222.33,-22984.8,-367.774,62.0801,-37.0038,255.535,-2929.33,13625.6,-3435.67,44.1784,-44.7492,-72.0029,10822.1,-13058.8,-990.533,32.0286,-62.8676,-2.859,20135.9,-543.921,6610.74,-60.9599,24.1286,26.804
3.742,21053.3,13011.4,23341.5,151.68,-194.058,-224.228,1863.44,1198.46,16971.7,100.321,-482.535,11.2738,32557.7,26894.3,8132.41,-68.386,25.9236,-179.167,5189.2,-23313.8,-567.127,64.1239,-37.6051,256.787,-2339.15,14981.1,-3363.99,45.209,-36.9662,-73.2116,11199.6,-13082.3,-1266.2,28.3109,-62.2128,-4.13503,19905.8,-221.836,7101.36,-60.887,19.9644,28.468
3.743,28398.9,14069.5,25936.0,139.21,-173.389,-194.46,1774.17,1217.85,16928.3,104.298,-491.208,12.1547,28887.4,28351.4,9776.65,-84.1022,46.1367,-174.084,4986.99,-23545.1,-690.086,64.8655,-38.0732,258.412,-1416.27,16125.8,-3065.23,39.3662,-28.4844,-71.347,11586.9,-13209.6,-1182.44,24.7404,-61.4523,-5.54585,19545.9,-12.5056,7169.39,-60.8263,15.6692,29.8793
3.744,35165.6,14302.9,28293.5,127.254,-157.041,-171.628,1687.3,1265.91,16836.5,109.277,-499.728,12.7883,24046.5,29298.0,10630.7,-99.3273,68.4566,-170.155,4736.47,-23748.4,-791.22,65.2352,-38.5032,260.143,-398.331,17210.2,-2701.6,31.5594,-19.8029,-68.6043,11977.0,-13366.5,-995.975,21.212,-60.6616,-6.99517,19149.0,164.609,7116.7,-60.769,11.3365,31.2184
3.745,41932.4,14536.3,30651.1,115.298,-140.694,-148.796,1600.44,1313.98,16744.8,114.257,-508.248,13.422,19205.6,30244.6,11484.7,-114.552,90.7765,-166.227,4485.95,-23951.7,-892.353,65.6048,-38.9332,261.874,619.604,18294.7,-2337.96,23.7526,-11.1215,-65.8616,12367.1,-13523.5,-809.514,17.6835,-59.8709,-8.44449,18752.2,341.724,7064.0,-60.7116,7.00391,32.5574
3.746,48699.1,14769.8,33008.7,103.343,-124.346,-125.964,1513.58,1362.04,16653.0,119.236,-516.767,14.0556,14364.7,31191.2,12338.7,-129.778,113.096,-162.298,4235.42,-24155.0,-993.486,65.9744,-39.3632,263.605,1637.54,19379.1,-1974.32,15.9459,-2.44001,-63.1189,12757.2,-13680.4,-623.054,14.155,-59.0802,-9.89382,18355.3,518.838,7011.3,-60.6543,2.67128,33.8965
3.747,52158.2,14545.6,34045.1,93.2166,-115.684,-108.878,1455.22,1435.6,16594.3,124.314,-525.878,15.5002,9884.68,31207.9,12679.6,-135.929,132.357,-158.687,4125.8,-24333.3,-1051.94,66.0405,-40.5743,265.392,2777.24,20350.0,-1749.16,7.06225,6.54573,-60.3301,13090.8,-13877.8,-351.513,11.5868,-58.6072,-11.4393,17969.5,675.37,6859.14,-60.8964,-0.726387,35.2123
3.748,49001.8,13406.4,32439.2,86.7496,-122.393,-103.284,1453.86,1560.15,16601.6,129.589,-536.172,18.5666,6126.26,29364.9,11994.4,-123.932,145.501,-155.709,4297.95,-24461.3,-1025.05,65.4998,-43.3474,267.291,4160.48,21093.9,-1800.96,-3.97519,16.14,-57.449,13311.4,-14156.0,90.1868,10.939,-58.7697,-13.1771,17606.0,790.734,6508.06,-61.7372,-2.25414,36.4819
3.749,45845.5,12267.1,30833.3,80.2826,-129.102,-97.6906,1452.5,1684.7,16609.0,134.864,-546.465,21.633,2367.85,27521.8,11309.2,-111.935,158.645,-152.731,4470.11,-24589.4,-998.163,64.9591,-46.1205,269.19,5543.72,21837.8,-1852.76,-15.0126,25.7343,-54.5678,13531.9,-14434.3,531.887,10.2913,-58.9323,-14.9149,17242.5,906.098,6156.99,-62.5781,-3.78189,37.7515
3.75,42689.1,11127.8,29227.4,73.8156,-135.811,-92.097,1451.14,1809.26,16616.3,140.139,-556.758,24.6994,-1390.57,25678.8,10624.0,-99.9375,171.788,-149.753,4642.27,-24717.4,-971.272,64.4184,-48.8936,271.089,6926.96,22581.6,-1904.56,-26.0501,35.3286,-51.6867,13752.5,-14712.5,973.587,9.64362,-59.0948,-16.6527,16878.9,1021.46,5805.91,-63.4189,-5.30964,39.021
3.751,39532.8,9988.59,27621.5,67.3486,-142.521,-86.5033,1449.79,1933.81,16623.6,145.414,-567.052,27.7659,-5148.98,23835.8,9938.86,-87.9405,184.932,-146.774,4814.42,-24845.5,-944.382,63.8776,-51.6667,272.987,8310.2,23325.5,-1956.36,-37.0875,44.9228,-48.8056,13973.1,-14990.7,1415.29,8.9959,-59.2573,-18.3905,16515.4,1136.83,5454.84,-64.2597,-6.83739,40.2906
3.752,31666.1,8476.54,23778.9,60.1676,-156.906,-74.7715,1422.07,2133.35,16711.5,150.79,-576.956,30.2378,-5034.35,22513.6,11088.0,-75.4629,177.571,-145.33,5125.0,-24906.9,-896.802,62.9536,-56.4531,274.647,9637.55,23942.7,-1770.79,-46.5255,58.4169,-47.4756,13965.6,-15215.9,1709.26,10.3574,-60.2594,-20.1869,16214.7,1241.84,5419.56,-65.0906,-6.84377,41.1197
3.753,23210.7,6917.9,19656.9,52.8973,-172.25,-62.2725,1391.06,2342.26,16809.4,156.178,-586.811,32.6354,-4435.59,21256.6,12466.3,-62.9251,167.647,-144.077,5452.89,-24960.1,-846.637,61.9817,-61.491,276.277,10957.9,24544.1,-1555.55,-55.7636,72.3985,-46.3396,13929.6,-15434.4,1984.76,11.9701,-61.3664,-21.9906,15921.9,1345.56,5423.75,-65.9202,-6.65998,41.8938
3.754,14755.3,5359.25,15534.8,45.6271,-187.595,-49.7734,1360.04,2551.17,16907.3,161.567,-596.667,35.0329,-3836.83,19999.5,13844.7,-50.3874,157.724,-142.824,5780.77,-25013.2,-796.471,61.0098,-66.529,277.907,12278.3,25145.4,-1340.32,-65.0017,86.38,-45.2036,13893.6,-15652.9,2260.27,13.5827,-62.4734,-23.7944,15629.0,1449.28,5427.95,-66.7498,-6.47619,42.6679
3.755,6299.86,3800.6,11412.7,38.3568,-202.94,-37.2744,1329.03,2760.08,17005.3,166.955,-606.522,37.4305,-3238.08,18742.5,15223.1,-37.8497,147.8,-141.571,6108.66,-25066.3,-746.305,60.0379,-71.5669,279.537,13598.7,25746.8,-1125.08,-74.2398,100.362,-44.0675,13857.6,-15871.4,2535.77,15.1954,-63.5803,-25.5981,15336.2,1553.0,5432.14,-67.5794,-6.2924,43.442
3.756,29.9718,1963.51,7505.23,32.8164,-215.585,-24.1713,1278.41,3110.72,17187.5,171.4,-616.751,39.9102,-2418.91,18424.4,15660.6,-29.4939,136.753,-142.18,6446.06,-25183.1,-674.555,58.9268,-77.5958,280.764,14650.0,26317.3,-352.376,-81.9766,112.602,-43.7927,13780.3,-16045.7,3026.7,17.5678,-67.126,-27.1892,15028.3,1666.76,5577.38,-67.7639,-6.76516,43.9354
3.757,-3507.99,-221.637,3866.08,29.4381,-224.857,-10.3131,1203.28,3638.52,17475.2,174.666,-627.446,42.4923,-1324.24,19280.1,14922.1,-26.3655,124.302,-145.117,6795.34,-25379.4,-575.825,57.6419,-84.8632,281.487,15365.2,26849.4,1117.16,-87.8369,122.666,-44.5945,13651.6,-16165.0,3786.9,20.8898,-73.72,-28.5144,14701.6,1793.06,5898.91,-67.142,-8.05861,44.0779
3.758,-7045.96,-2406.79,226.931,26.0599,-234.129,3.54511,1128.14,4166.31,17762.9,177.932,-638.14,45.0744,-229.568,20135.7,14183.6,-23.2372,111.851,-148.054,7144.62,-25575.6,-477.095,56.357,-92.1307,282.21,16080.3,27381.5,2586.7,-93.6972,132.73,-45.3962,13522.9,-16284.2,4547.1,24.2118,-80.314,-29.8397,14374.8,1919.37,6220.44,-66.5201,-9.35206,44.2204
3.759,-10583.9,-4591.93,-3412.22,22.6817,-243.4,17.4033,1053.01,4694.1,18050.6,181.198,-648.835,47.6565,865.104,20991.4,13445.1,-20.1088,99.3992,-150.991,7493.91,-25771.9,-378.365,55.072,-99.3982,282.934,16795.5,27913.5,4056.24,-99.5574,142.794,-46.1979,13394.1,-16403.4,5307.31,27.5339,-86.908,-31.1649,14048.1,2045.67,6541.98,-65.8982,-10.6455,44.3629
3.76,-14121.9,-6777.08,-7051.37,19.3035,-252.672,31.2615,977.873,5221.9,18338.3,184.464,-659.53,50.2387,1959.78,21847.0,12706.6,-16.9804,86.9479,-153.928,7843.19,-25968.2,-279.634,53.7871,-106.666,283.657,17510.7,28445.6,5525.78,-105.418,152.858,-46.9996,13265.4,-16522.6,6067.51,30.8559,-93.502,-32.4902,13721.4,2171.97,6863.51,-65.2763,-11.939,44.5054
3.761,-9705.52,-8135.07,-7447.48,23.6662,-255.081,40.6462,516.695,5322.06,18408.2,187.055,-670.614,53.1046,918.939,22312.3,9867.45,-14.9323,88.5099,-157.175,8246.22,-26374.8,-73.6002,53.4271,-115.527,282.595,17003.8,28451.2,7340.91,-105.894,149.759,-49.7029,13055.3,-16766.0,7290.53,37.4728,-107.154,-33.9675,13362.1,2267.35,6858.82,-63.4055,-14.5396,44.0214
3.762,-5289.15,-9493.06,-7843.6,28.029,-257.491,50.0309,55.517,5422.22,18478.1,189.646,-681.699,55.9706,-121.898,22777.6,7028.29,-12.8843,90.072,-160.421,8649.24,-26781.5,132.434,53.0671,-124.388,281.532,16497.0,28456.9,9156.04,-106.37,146.66,-52.4063,12845.2,-17009.4,8513.54,44.0896,-120.806,-35.4447,13002.9,2362.74,6854.12,-61.5347,-17.1403,43.5374
3.763,-872.773,-10851.1,-8239.72,32.3917,-259.9,59.4156,-405.661,5522.39,18548.0,192.236,-692.784,58.8366,-1162.73,23242.8,4189.13,-10.8362,91.634,-163.668,9052.27,-27188.1,338.468,52.7071,-133.249,280.47,15990.2,28462.6,10971.2,-106.846,143.561,-55.1096,12635.1,-17252.7,9736.56,50.7065,-134.459,-36.922,12643.7,2458.12,6849.43,-59.6639,-19.741,43.0534
3.764,3543.6,-12209.0,-8635.84,36.7544,-262.309,68.8002,-866.84,5622.55,18617.9,194.827,-703.869,61.7026,-2203.57,23708.1,1349.97,-8.78815,93.196,-166.914,9455.29,-27594.8,544.503,52.3471,-142.11,279.408,15483.4,28468.3,12786.3,-107.321,140.461,-57.8129,12424.9,-17496.1,10959.6,57.3234,-148.111,-38.3992,12284.5,2553.5,6844.74,-57.7931,-22.3416,42.5694
3.765,8668.27,-12890.1,-7390.21,45.3116,-262.56,72.2671,-1367.08,5614.22,18624.4,195.427,-715.39,64.3652,-3519.86,23171.0,-1093.72,-6.90532,98.6562,-169.754,9891.61,-27918.4,724.578,52.4248,-151.155,277.969,14496.6,27890.6,13618.7,-106.019,134.726,-59.8541,12189.3,-17767.1,11527.9,63.1775,-160.266,-40.2503,11902.0,2548.89,6625.84,-55.7947,-24.1002,41.7287
3.766,14359.6,-13029.6,-4831.18,57.2244,-261.082,70.9996,-1898.58,5519.09,18580.1,194.435,-727.261,66.8652,-5056.5,21832.1,-3221.03,-5.15467,107.235,-172.267,10354.6,-28175.6,883.887,52.8527,-160.347,276.23,13125.9,26846.3,13664.9,-103.293,126.88,-61.3655,11933.3,-18060.2,11572.4,68.4216,-171.223,-42.4003,11501.0,2464.28,6235.59,-53.6941,-25.1851,40.6028
3.767,20050.9,-13169.0,-2272.15,69.1372,-259.605,69.7321,-2430.08,5423.96,18535.8,193.443,-739.132,69.3651,-6593.14,20493.2,-5348.34,-3.40402,115.814,-174.78,10817.5,-28432.8,1043.2,53.2806,-169.539,274.491,11755.1,25802.0,13711.1,-100.567,119.035,-62.8769,11677.3,-18353.3,11616.9,73.6656,-182.18,-44.5504,11099.9,2379.68,5845.33,-51.5935,-26.2701,39.4769
3.768,25742.2,-13308.5,286.88,81.0499,-258.128,68.4646,-2961.58,5328.83,18491.5,192.451,-751.002,71.8651,-8129.79,19154.3,-7475.65,-1.65338,124.392,-177.293,11280.5,-28689.9,1202.51,53.7085,-178.731,272.752,10384.3,24757.7,13757.4,-97.8417,111.19,-64.3884,11421.3,-18646.3,11661.4,78.9097,-193.137,-46.7005,10698.9,2295.07,5455.07,-49.4929,-27.355,38.3509
3.769,30890.0,-13570.3,2892.1,94.0849,-255.284,66.0173,-3458.44,5281.55,18443.7,191.342,-762.984,74.4068,-9549.28,17748.8,-9445.46,0.187305,132.726,-179.663,11762.2,-28920.3,1349.48,54.0943,-187.942,270.984,8970.02,23593.2,13648.7,-94.5263,103.823,-65.5096,11176.5,-18913.8,11574.1,83.6005,-202.944,-48.8473,10299.7,2199.87,5086.35,-47.4346,-28.1709,37.2015
3.77,31690.0,-14810.3,5866.86,116.097,-241.507,54.1319,-3678.17,5617.14,18368.3,189.301,-775.855,77.2818,-10031.6,15811.0,-10155.2,2.74828,139.1,-180.884,12393.8,-28935.9,1397.78,54.1438,-197.308,268.983,7207.12,21467.8,12301.4,-86.4928,100.281,-63.509,11021.2,-18975.8,10431.9,83.8658,-203.55,-50.9683,9915.71,2019.91,4889.86,-45.7149,-26.8355,35.8646
3.771,32490.1,-16050.3,8841.62,138.109,-227.731,42.2465,-3897.91,5952.73,18292.9,187.26,-788.725,80.1569,-10513.9,13873.3,-10865.0,5.30925,145.473,-182.106,13025.4,-28951.5,1446.09,54.1932,-206.673,266.983,5444.22,19342.5,10954.1,-78.4593,96.7384,-61.5085,10865.9,-19037.7,9289.85,84.131,-204.155,-53.0892,9531.71,1839.95,4693.38,-43.9952,-25.5,34.5277
3.772,33290.1,-17290.3,11816.4,160.121,-213.954,30.3611,-4117.65,6288.33,18217.5,185.219,-801.596,83.0319,-10996.2,11935.5,-11574.8,7.87022,151.847,-183.327,13657.0,-28967.0,1494.39,54.2427,-216.039,264.983,3681.32,17217.1,9606.77,-70.4259,93.196,-59.5079,10710.6,-19099.7,8147.75,84.3963,-204.761,-55.2102,9147.71,1659.99,4496.9,-42.2754,-24.1645,33.1908
3.773,34090.2,-18530.3,14791.1,182.133,-200.178,18.4756,-4337.39,6623.92,18142.2,183.179,-814.466,85.907,-11478.5,9997.7,-12284.6,10.4312,158.221,-184.549,14288.7,-28982.6,1542.7,54.2921,-225.404,262.983,1918.42,15091.7,8259.44,-62.3924,89.6536,-57.5073,10555.3,-19161.7,7005.65,84.6615,-205.367,-57.3312,8763.71,1480.03,4300.42,-40.5557,-22.8291,31.854
3.774,32692.4,-18294.5,16341.6,193.615,-178.93,9.15092,-3977.47,7167.2,17521.7,183.15,-829.652,91.4258,-11165.3,8521.08,-12792.7,12.7207,160.373,-183.311,14904.0,-28758.9,1419.2,54.0557,-230.764,261.187,394.988,13109.4,6814.72,-49.1126,88.5335,-54.0727,10433.7,-18952.8,6121.76,84.0124,-201.536,-58.7603,8502.9,1278.42,4272.91,-39.2283,-20.8658,30.6707
3.775,30195.8,-17320.7,17179.8,199.831,-153.948,1.10654,-3327.72,7814.33,16628.8,184.127,-845.995,98.2666,-10454.4,7275.05,-13200.1,14.8745,160.414,-180.844,15511.1,-28415.5,1209.82,53.6764,-234.122,259.493,-1008.72,11198.5,5321.3,-33.2096,88.6244,-49.9209,10328.9,-18608.3,5366.99,82.9062,-195.487,-59.8436,8303.68,1066.0,4329.89,-38.0972,-18.5887,29.5642
3.776,27699.3,-16346.8,18018.0,206.047,-128.965,-6.93783,-2677.97,8461.46,15735.8,185.104,-862.338,105.107,-9743.41,6029.02,-13607.5,17.0283,160.455,-178.376,16118.3,-28072.0,1000.43,53.2971,-237.48,257.799,-2412.42,9287.73,3827.89,-17.3066,88.7153,-45.7692,10224.1,-18263.8,4612.21,81.7999,-189.439,-60.9269,8104.46,853.565,4386.87,-36.966,-16.3115,28.4577
3.777,25202.7,-15373.0,18856.3,212.263,-103.982,-14.9822,-2028.22,9108.59,14842.9,186.081,-878.681,111.948,-9032.47,4783.0,-14014.8,19.1821,160.496,-175.908,16725.4,-27728.6,791.038,52.9177,-240.837,256.105,-3816.12,7376.91,2334.47,-1.40363,88.8062,-41.6175,10119.3,-17919.3,3857.43,80.6937,-183.39,-62.0101,7905.25,641.136,4443.85,-35.8349,-14.0344,27.3513
3.778,22772.1,-13371.3,19544.0,213.799,-81.4205,-21.2843,-1270.51,9574.79,13588.9,188.901,-896.729,120.597,-8265.1,3779.6,-14290.2,21.597,158.779,-172.611,17234.9,-27311.2,571.011,52.8203,-241.361,254.728,-5046.22,5648.43,951.591,14.9659,89.1009,-37.9633,9960.18,-17555.6,3208.42,79.9664,-176.805,-62.9549,7748.21,419.211,4484.35,-34.7102,-11.7807,26.3396
3.779,20572.9,-7771.61,19704.6,198.955,-67.3324,-21.4883,-134.936,9407.74,11071.0,198.173,-920.745,135.573,-7300.24,3625.4,-14103.7,24.9257,150.911,-166.41,17402.4,-26634.5,313.749,53.7097,-231.967,254.463,-5668.7,4558.11,-44.3921,32.9686,90.1087,-36.0507,9610.76,-17124.6,2929.56,80.5657,-168.343,-63.4149,7738.76,164.053,4467.14,-33.6083,-9.6092,25.6598
3.78,18373.7,-2171.95,19865.3,184.11,-53.2444,-21.6924,1000.64,9240.68,8553.15,207.445,-944.76,150.55,-6335.39,3471.2,-13917.2,28.2544,143.043,-160.209,17569.9,-25957.9,56.4869,54.599,-222.573,254.197,-6291.18,3467.79,-1040.38,50.9713,91.1166,-34.138,9261.33,-16693.7,2650.71,81.165,-159.881,-63.8749,7729.31,-91.1056,4449.94,-32.5063,-7.4377,24.98
3.781,16174.5,3427.72,20026.0,169.266,-39.1563,-21.8964,2136.22,9073.63,6035.29,216.717,-968.775,165.527,-5370.53,3317.0,-13730.7,31.5831,135.174,-154.007,17737.5,-25281.3,-200.775,55.4884,-213.179,253.931,-6913.66,2377.47,-2036.36,68.9739,92.1244,-32.2254,8911.91,-16262.7,2371.85,81.7643,-151.418,-64.3349,7719.87,-346.264,4432.74,-31.4044,-5.2662,24.3002
3.782,13975.2,9027.38,20186.7,154.421,-25.0683,-22.1005,3271.79,8906.58,3517.43,225.99,-992.791,180.503,-4405.67,3162.8,-13544.2,34.9118,127.306,-147.806,17905.0,-24604.7,-458.037,56.3777,-203.785,253.666,-7536.14,1287.15,-3032.34,86.9766,93.1323,-30.3128,8562.49,-15831.8,2093.0,82.3636,-142.956,-64.7949,7710.42,-601.422,4415.54,-30.3025,-3.0947,23.6204
3.783,13045.4,12501.1,19289.6,141.086,-19.9827,-27.3051,6073.53,7447.26,4850.56,239.759,-995.179,178.465,-4076.94,3724.79,-11896.2,34.7391,114.762,-143.537,17469.2,-23757.8,-633.575,56.3981,-190.416,255.794,-7863.74,1008.35,-3395.07,101.031,93.5119,-29.8253,7884.43,-15480.3,1650.08,83.4546,-132.922,-65.5208,7729.89,-814.774,4412.09,-29.2065,-1.31873,23.0472
3.784,12478.3,15367.5,18090.2,128.181,-17.4692,-33.9385,9351.32,5618.73,7283.96,254.813,-991.388,171.565,-3929.95,4491.4,-9830.61,33.566,100.883,-139.82,16860.9,-22862.3,-785.763,56.1701,-175.912,258.606,-8107.08,961.406,-3576.86,113.958,93.7119,-29.745,7112.47,-15151.7,1160.29,84.6862,-122.439,-66.3225,7757.61,-1016.18,4412.56,-28.1123,0.34424,22.5045
3.785,11911.2,18233.8,16890.8,115.276,-14.9558,-40.5719,12629.1,3790.19,9717.37,269.867,-987.597,164.665,-3782.97,5258.01,-7765.05,32.3929,87.004,-136.103,16252.6,-21966.8,-937.951,55.9422,-161.408,261.417,-8350.43,914.464,-3758.65,126.885,93.912,-29.6647,6340.52,-14823.0,670.498,85.9177,-111.955,-67.1243,7785.34,-1217.59,4413.04,-27.018,2.00721,21.9618
3.786,11344.0,21100.1,15691.4,102.371,-12.4423,-47.2053,15906.9,1961.66,12150.8,284.921,-983.806,157.765,-3635.98,6024.62,-5699.5,31.2198,73.1249,-132.386,15644.3,-21071.3,-1090.14,55.7143,-146.904,264.229,-8593.78,867.523,-3940.45,139.812,94.112,-29.5844,5568.56,-14494.3,180.707,87.1493,-101.472,-67.926,7813.07,-1418.99,4413.52,-25.9238,3.67017,21.4191
3.787,10934.7,22585.3,14524.4,89.4633,-10.6623,-52.5722,19488.3,270.525,14308.0,296.592,-970.907,145.511,-3765.29,6811.84,-3364.44,26.9724,60.3133,-131.175,15094.7,-20219.3,-1348.01,55.7612,-132.698,267.171,-8813.32,1048.97,-3900.54,149.761,93.9173,-29.5752,4770.56,-14165.2,-323.323,87.9151,-91.1234,-69.0425,7844.0,-1599.76,4414.0,-25.0511,5.13084,20.8298
3.788,10841.0,21308.2,13422.1,76.5485,-10.349,-55.4063,23677.1,-1145.81,15912.8,301.499,-939.79,122.548,-4447.19,7640.28,-490.386,16.5765,49.6367,-134.975,14662.6,-19454.3,-1817.25,56.3578,-119.089,270.371,-8985.25,1687.18,-3417.25,153.754,92.9329,-29.708,3920.47,-13835.5,-855.828,87.7495,-81.0438,-70.7885,7881.36,-1739.25,4414.5,-24.6213,6.18692,20.1474
3.789,10747.3,20031.1,12319.9,63.6337,-10.0357,-58.2403,27865.9,-2562.14,17517.6,306.405,-908.673,99.5858,-5129.09,8468.72,2383.67,6.18054,38.9602,-138.775,14230.5,-18689.3,-2286.5,56.9543,-105.479,273.572,-9157.18,2325.39,-2933.96,157.747,91.9486,-29.8407,3070.38,-13505.8,-1388.33,87.5839,-70.9641,-72.5344,7918.71,-1878.74,4415.0,-24.1915,7.243,19.4651
3.79,10653.5,18754.1,11217.7,50.7189,-9.72235,-61.0743,32054.7,-3978.48,19122.4,311.311,-877.556,76.6234,-5810.99,9297.16,5257.72,-4.21541,28.2837,-142.575,13798.4,-17924.3,-2755.74,57.5509,-91.8702,276.772,-9329.11,2963.6,-2450.67,161.74,90.9642,-29.9735,2220.3,-13176.0,-1920.84,87.4184,-60.8845,-74.2804,7956.07,-2018.22,4415.5,-23.7618,8.29908,18.7827
3.791,10559.8,17477.0,10115.5,37.8041,-9.40905,-63.9084,36243.6,-5394.81,20727.2,316.217,-846.439,53.6609,-6492.89,10125.6,8131.77,-14.6114,17.6072,-146.374,13366.3,-17159.3,-3224.98,58.1475,-78.2611,279.973,-9501.04,3601.81,-1967.38,165.733,89.9799,-30.1063,1370.21,-12846.3,-2453.34,87.2528,-50.8049,-76.0264,7993.42,-2157.71,4416.0,-23.332,9.35516,18.1004
3.792,10812.8,15204.1,9881.91,29.8624,-8.18416,-54.6646,37971.3,-3231.66,21223.8,306.144,-814.637,43.0138,-6937.19,11120.4,9779.14,-20.6208,9.78108,-150.995,12686.3,-16972.8,-3901.19,58.7428,-69.6903,278.299,-9715.4,4307.45,-1205.98,161.757,86.7795,-29.9835,724.141,-12538.8,-2770.72,85.8412,-44.3904,-79.0307,8051.27,-2235.29,4429.35,-23.3024,10.6102,17.3359
3.793,11109.1,12806.7,9756.92,22.5423,-6.84531,-43.911,39391.5,-621.065,21581.8,294.199,-782.748,33.906,-7351.79,12136.0,11273.2,-26.0819,2.31127,-155.719,11975.4,-16858.7,-4603.26,59.338,-61.7492,276.015,-9935.06,5021.52,-409.809,156.785,83.3021,-29.8286,103.577,-12234.1,-3061.2,84.2738,-38.4339,-82.1924,8111.68,-2305.13,4444.3,-23.3229,11.8902,16.5612
3.794,11405.4,10409.3,9631.93,15.2222,-5.50647,-33.1574,40811.7,1989.52,21939.8,282.255,-750.86,24.7983,-7766.38,13151.6,12767.2,-31.5431,-5.15853,-160.443,11264.5,-16744.6,-5305.34,59.9331,-53.8082,273.731,-10154.7,5735.59,386.359,151.813,79.8247,-29.6738,-516.988,-11929.3,-3351.69,82.7064,-32.4774,-85.354,8172.1,-2374.97,4459.26,-23.3433,13.1701,15.7865
3.795,11701.8,8011.89,9506.94,7.9021,-4.16763,-22.4039,42231.9,4600.11,22297.8,270.31,-718.972,15.6905,-8180.98,14167.2,14261.2,-37.0042,-12.6283,-165.166,10553.6,-16630.4,-6007.42,60.5283,-45.8672,271.448,-10374.4,6449.65,1182.53,146.841,76.3473,-29.519,-1137.55,-11624.6,-3642.17,81.1391,-26.521,-88.5157,8232.51,-2444.81,4474.21,-23.3638,14.4501,15.0118
3.796,11993.3,5572.34,9407.11,3.85331,-3.1957,-12.5048,42113.7,8798.11,22334.4,253.859,-695.398,20.1091,-8328.89,15000.3,14818.4,-37.7777,-19.5059,-167.741,9620.9,-16761.1,-6791.05,59.5538,-39.5959,267.544,-10594.4,6911.35,1927.76,139.84,71.6034,-29.9028,-1621.14,-11361.6,-3781.75,78.9416,-22.9154,-92.1922,8319.48,-2503.29,4473.59,-23.1159,16.0757,14.2909
3.797,12279.0,3080.12,9338.72,3.89365,-2.68241,-3.67397,40072.6,14980.4,21969.1,231.777,-682.218,41.4356,-8143.44,15605.3,14204.5,-32.6918,-25.6433,-167.628,8410.85,-17197.7,-7676.63,56.6174,-35.4118,261.614,-10815.0,7057.58,2609.32,130.305,65.2765,-30.9599,-1933.51,-11150.6,-3732.69,75.9565,-22.2485,-96.5122,8439.67,-2547.57,4453.5,-22.5326,18.1333,13.6373
3.798,12564.6,587.896,9270.34,3.934,-2.16911,5.15689,38031.5,21162.6,21603.8,209.695,-669.038,62.7621,-7958.0,16210.3,13590.6,-27.6058,-31.7807,-167.516,7200.8,-17634.4,-8562.22,53.681,-31.2276,255.684,-11035.5,7203.82,3290.89,120.769,58.9495,-32.0171,-2245.88,-10939.7,-3683.63,72.9714,-21.5815,-100.832,8559.85,-2591.85,4433.41,-21.9494,20.191,12.9837
3.799,12850.3,-1904.33,9201.95,3.97435,-1.65582,13.9878,35990.4,27344.9,21238.5,187.612,-655.858,84.0886,-7772.55,16815.3,12976.7,-22.5198,-37.918,-167.403,5990.74,-18071.0,-9447.8,50.7446,-27.0435,249.754,-11256.1,7350.05,3972.45,111.233,52.6225,-33.0742,-2558.25,-10728.7,-3634.57,69.9863,-20.9146,-105.152,8680.04,-2636.13,4413.31,-21.3661,22.2486,12.3301
3.8,13135.9,-4396.55,9133.57,4.0147,-1.14253,22.8186,33949.3,33527.1,20873.2,165.53,-642.678,105.415,-7587.1,17420.3,12362.8,-17.4338,-44.0554,-167.291,4780.69,-18507.7,-10333.4,47.8083,-22.8594,243.824,-11476.6,7496.29,4654.02,101.697,46.2955,-34.1313,-2870.62,-10517.8,-3585.51,67.0011,-20.2477,-109.472,8800.22,-2680.42,4393.22,-20.7828,24.3063,11.6765
3.801,12765.7,-5414.77,8890.54,5.47071,-1.1936,22.4797,31696.9,35740.8,20427.3,144.385,-629.759,125.942,-7249.11,17301.1,10661.1,-11.6293,-48.9478,-162.826,4082.52,-18586.1,-10936.7,44.6857,-17.4522,240.952,-11868.4,7102.21,4697.88,94.6644,40.388,-37.3394,-2905.21,-10446.3,-3477.84,62.4572,-23.2452,-113.721,8937.04,-2722.97,4412.2,-19.9897,26.0627,11.5006
3.802,12395.6,-6432.99,8647.51,6.92672,-1.24467,22.1408,29444.4,37954.5,19981.5,123.239,-616.84,146.469,-6911.11,17181.9,8959.48,-5.82467,-53.8403,-158.361,3384.34,-18664.5,-11540.0,41.5632,-12.045,238.079,-12260.1,6708.13,4741.74,87.632,34.4804,-40.5476,-2939.79,-10374.8,-3370.17,57.9133,-26.2428,-117.97,9073.85,-2765.52,4431.17,-19.1966,27.8191,11.3247
3.803,12025.4,-7451.2,8404.48,8.38274,-1.29574,21.8018,27191.9,40168.2,19535.6,102.094,-603.921,166.996,-6573.11,17062.8,7257.82,-0.0200848,-58.7328,-153.896,2686.16,-18742.9,-12143.3,38.4407,-6.63782,235.206,-12651.9,6314.06,4785.6,80.5997,28.5729,-43.7557,-2974.38,-10303.4,-3262.5,53.3694,-29.2403,-122.219,9210.67,-2808.08,4450.15,-18.4035,29.5755,11.1489
3.804,11655.2,-8469.42,8161.45,9.83875,-1.34681,21.4629,24939.5,42381.9,19089.8,80.9483,-591.002,187.523,-6235.11,16943.6,5556.16,5.7845,-63.6252,-149.432,1987.99,-18821.3,-12746.7,35.3182,-1.23064,232.333,-13043.7,5919.98,4829.46,73.5673,22.6653,-46.9639,-3008.96,-10231.9,-3154.84,48.8255,-32.2379,-126.468,9347.48,-2850.63,4469.13,-17.6104,31.3319,10.973
3.805,11153.0,-8531.03,8057.01,9.55835,-0.530881,19.8039,23279.5,42161.5,18727.3,54.613,-576.364,200.321,-5860.63,16599.8,3947.51,10.0514,-68.0771,-145.339,2020.99,-18839.7,-13307.6,32.3151,4.16787,231.293,-13521.5,5567.41,4482.11,69.0337,18.9962,-50.8575,-2986.12,-10282.7,-3200.89,43.8504,-35.5544,-130.245,9493.18,-2896.14,4539.3,-16.9936,32.6099,11.0293
3.806,10545.2,-7827.35,8063.45,7.88882,0.978639,17.0888,22093.4,39993.8,18431.5,24.1257,-560.352,206.936,-5456.98,16076.4,2413.28,13.0882,-72.1764,-141.545,2638.95,-18810.0,-13834.7,29.4077,9.55944,231.72,-14068.1,5248.04,3821.79,66.4992,17.1177,-55.2997,-2917.32,-10431.2,-3369.91,38.5304,-39.126,-133.644,9646.0,-2944.02,4650.43,-16.5179,33.5052,11.2714
3.807,9937.45,-7123.68,8069.89,6.21929,2.48816,14.3737,20907.3,37826.1,18135.8,-6.36154,-544.34,213.551,-5053.32,15552.9,879.04,16.125,-76.2757,-137.75,3256.9,-18780.3,-14361.8,26.5002,14.951,232.147,-14614.7,4928.67,3161.47,63.9647,15.2392,-59.7418,-2848.53,-10579.7,-3538.94,33.2105,-42.6976,-137.044,9798.81,-2991.89,4761.57,-16.0422,34.4005,11.5134
3.808,9329.66,-6420.01,8076.33,4.54976,3.99768,11.6586,19721.3,35658.4,17840.0,-36.8488,-528.328,220.166,-4649.66,15029.5,-655.197,19.1618,-80.3751,-133.956,3874.85,-18750.7,-14888.9,23.5928,20.3426,232.573,-15161.4,4609.3,2501.15,61.4302,13.3607,-64.1839,-2779.74,-10728.2,-3707.97,27.8905,-46.2693,-140.443,9951.63,-3039.76,4872.7,-15.5666,35.2957,11.7555
3.809,8751.17,-5663.58,8106.94,2.71604,5.51591,9.01993,18602.8,33430.5,17570.8,-66.2232,-512.957,226.503,-4248.3,14527.1,-2088.84,21.8275,-84.6392,-130.305,4537.52,-18771.6,-15378.3,20.8798,25.6506,232.664,-15713.8,4360.36,1841.52,59.0269,11.5666,-68.5798,-2716.02,-10904.5,-3893.57,22.6555,-49.6146,-143.76,10097.3,-3087.62,4977.9,-15.1538,36.1282,12.0263
3.81,8407.09,-4485.15,8330.91,-0.431249,7.1038,6.99212,18025.3,30721.3,17514.1,-86.6941,-502.722,230.618,-3865.28,14192.5,-2717.77,21.5242,-90.2214,-127.804,5557.89,-19197.5,-15565.7,19.7224,30.2904,230.059,-16312.7,4674.83,1187.39,57.6738,10.448,-72.6068,-2692.87,-11302.8,-4211.74,18.1006,-51.1497,-146.42,10185.6,-3135.31,5035.69,-15.2446,36.4589,12.5267
3.811,8063.01,-3306.71,8554.88,-3.57853,8.6917,4.96431,17447.9,28012.2,17457.4,-107.165,-492.486,234.732,-3482.26,13857.9,-3346.69,21.2209,-95.8037,-125.302,6578.26,-19623.4,-15753.1,18.565,34.9302,227.455,-16911.5,4989.3,533.252,56.3206,9.32943,-76.6337,-2669.73,-11701.1,-4529.91,13.5457,-52.6847,-149.08,10273.9,-3183.0,5093.47,-15.3354,36.7895,13.0272
3.812,7718.93,-2128.27,8778.86,-6.72582,10.2796,2.93651,16870.4,25303.0,17400.7,-127.636,-482.251,238.846,-3099.24,13523.3,-3975.62,20.9176,-101.386,-122.801,7598.64,-20049.3,-15940.6,17.4077,39.57,224.851,-17510.4,5303.77,-120.882,54.9674,8.21084,-80.6606,-2646.58,-12099.4,-4848.08,8.99085,-54.2198,-151.74,10362.3,-3230.69,5151.26,-15.4261,37.1201,13.5277
3.813,7374.85,-949.837,9002.83,-9.8731,11.8675,0.9087,16292.9,22593.8,17344.0,-148.107,-472.015,242.96,-2716.22,13188.7,-4604.54,20.6143,-106.968,-120.3,8619.01,-20475.3,-16128.0,16.2503,44.2097,222.246,-18109.3,5618.25,-775.016,53.6142,7.09226,-84.6876,-2623.44,-12497.7,-5166.25,4.43596,-55.7549,-154.4,10450.6,-3278.38,5209.04,-15.5169,37.4508,14.0282
3.814,7049.82,-336.157,8997.38,-12.5352,13.0778,0.775966,15623.7,20683.4,18742.5,-158.228,-466.539,247.954,-2509.74,12986.0,-4745.98,17.1944,-113.411,-118.5,9235.54,-20712.2,-15923.2,17.6654,48.839,218.363,-18420.7,5951.75,-1258.41,51.3031,4.54471,-88.1482,-2682.28,-13023.9,-5455.89,1.69419,-55.4158,-157.243,10512.4,-3286.11,5223.34,-15.9834,37.7241,14.5958
3.815,6734.33,-4.8559,8877.21,-14.9547,14.0994,1.59077,14908.6,19172.4,20868.6,-163.173,-463.443,253.387,-2391.54,12849.4,-4643.67,12.2162,-120.284,-117.051,9650.17,-20854.7,-15522.4,20.3668,53.463,213.841,-18588.4,6294.76,-1656.44,48.513,1.28267,-91.3257,-2782.1,-13614.1,-5731.25,-0.141017,-54.1398,-160.178,10561.1,-3273.85,5215.91,-16.6377,37.9687,15.197
3.816,6418.84,326.445,8757.05,-17.3741,15.121,2.40557,14193.6,17661.3,22994.8,-168.118,-460.347,258.821,-2273.34,12712.7,-4541.36,7.23804,-127.157,-115.602,10064.8,-20997.3,-15121.5,23.0681,58.0871,209.318,-18756.2,6637.78,-2054.47,45.7229,-1.97936,-94.5033,-2881.93,-14204.3,-6006.62,-1.97622,-52.8637,-163.114,10609.7,-3261.59,5208.47,-17.2921,38.2134,15.7982
3.817,6103.35,657.747,8636.88,-19.7936,16.1426,3.22037,13478.5,16150.3,25120.9,-173.064,-457.251,264.254,-2155.13,12576.0,-4439.05,2.25985,-134.031,-114.153,10479.4,-21139.8,-14720.7,25.7695,62.7111,204.796,-18923.9,6980.79,-2452.5,42.9328,-5.2414,-97.6808,-2981.75,-14794.6,-6281.98,-3.81143,-51.5876,-166.049,10658.3,-3249.34,5201.04,-17.9464,38.4581,16.3994
3.818,5846.64,703.811,8506.87,-21.8615,16.9952,3.99489,13012.8,14699.9,26694.6,-177.783,-451.435,268.127,-2070.65,12448.8,-4283.89,-3.07138,-140.195,-112.788,10633.3,-21201.6,-14171.7,28.7728,67.1513,200.186,-19018.4,7278.39,-2778.38,40.2676,-8.66111,-100.743,-3101.44,-15381.8,-6487.62,-4.92164,-50.047,-169.029,10704.7,-3214.5,5190.41,-18.5502,38.7142,17.0276
3.819,5795.65,-248.456,8342.39,-22.699,17.2567,4.62841,13419.9,13461.6,26334.8,-181.711,-436.104,266.536,-2104.19,12354.8,-3943.74,-9.63821,-143.877,-111.718,9874.7,-20980.8,-13104.2,32.8328,70.9485,195.268,-18857.0,7417.03,-2851.74,38.0394,-12.6327,-103.402,-3290.67,-15958.7,-6449.21,-3.49434,-47.5803,-172.166,10743.0,-3100.66,5168.61,-18.9772,39.0104,17.7502
3.82,5744.67,-1200.72,8177.9,-23.5365,17.5181,5.26193,13827.0,12223.3,25975.1,-185.639,-420.773,264.945,-2137.73,12260.8,-3603.6,-16.205,-147.559,-110.648,9116.1,-20760.1,-12036.7,36.8928,74.7457,190.351,-18695.5,7555.67,-2925.11,35.8111,-16.6043,-106.061,-3479.89,-16535.7,-6410.8,-2.06704,-45.1137,-175.304,10781.4,-2986.81,5146.81,-19.4043,39.3066,18.4727
3.821,5693.68,-2152.99,8013.42,-24.374,17.7795,5.89545,14234.1,10985.0,25615.3,-189.567,-405.441,263.354,-2171.27,12166.8,-3263.45,-22.7719,-151.242,-109.577,8357.5,-20539.4,-10969.2,40.9529,78.5429,185.433,-18534.0,7694.32,-2998.47,33.5829,-20.5759,-108.721,-3669.12,-17112.6,-6372.39,-0.639744,-42.6471,-178.441,10819.8,-2872.97,5125.01,-19.8313,39.6028,19.1952
3.822,5642.7,-3105.25,7848.94,-25.2115,18.041,6.52897,14641.2,9746.72,25255.5,-193.495,-390.11,261.764,-2204.8,12072.8,-2923.3,-29.3387,-154.924,-108.507,7598.89,-20318.6,-9901.74,45.0129,82.3401,180.516,-18372.5,7832.96,-3071.83,31.3547,-24.5475,-111.38,-3858.35,-17689.5,-6333.98,0.787554,-40.1805,-181.578,10858.2,-2759.12,5103.22,-20.2583,39.899,19.9178
3.823,5849.78,-3849.71,7792.38,-24.849,18.1755,6.03354,15913.9,8692.13,25107.8,-198.643,-363.063,256.516,-2106.36,11849.2,-2664.02,-33.0639,-157.614,-107.201,6370.08,-20004.1,-8116.23,51.7851,85.7927,177.165,-18057.7,7833.22,-3083.9,31.2671,-26.8517,-114.101,-3963.07,-18126.5,-6067.55,3.67847,-39.1401,-183.94,10921.0,-2677.93,5109.5,-20.2787,40.2612,20.528
3.824,6130.59,-4534.8,7766.65,-24.1436,18.2737,5.21556,17434.0,7690.03,25020.7,-204.139,-332.669,250.223,-1970.21,11588.5,-2427.83,-35.9772,-160.021,-105.827,5006.91,-19662.9,-6125.57,59.3323,89.1468,174.262,-17699.1,7793.95,-3078.45,31.7912,-28.6796,-116.839,-4043.66,-18523.4,-5735.97,6.98756,-38.5073,-186.079,10990.9,-2606.07,5123.81,-20.183,40.6424,21.1062
