Time,RFoot_accel.x,RFoot_accel.y,RFoot_accel.z,RFoot_gyro.x,RFoot_gyro.y,RFoot_gyro.z,LFoot_accel.x,LFoot_accel.y,LFoot_accel.z,LFoot_gyro.x,LFoot_gyro.y,LFoot_gyro.z,RShank_accel.x,RShank_accel.y,RShank_accel.z,RShank_gyro.x,RShank_gyro.y,RShank_gyro.z,LShank_accel.x,LShank_accel.y,LShank_accel.z,LShank_gyro.x,LShank_gyro.y,LShank_gyro.z,RThigh_accel.x,RThigh_accel.y,RThigh_accel.z,RThigh_gyro.x,RThigh_gyro.y,RThigh_gyro.z,LThigh_accel.x,LThigh_accel.y,LThigh_accel.z,LThigh_gyro.x,LThigh_gyro.y,LThigh_gyro.z,Pelvis_accel.x,Pelvis_accel.y,Pelvis_accel.z,Pelvis_gyro.x,Pelvis_gyro.y,Pelvis_gyro.z
3.35,5343.34,-4566.44,8560.43,-41.9384,401.285,191.808,4128.4,3373.66,8528.0,3.37656,-10.2214,18.9778,5360.62,7229.74,-1001.83,135.013,-11.1881,309.199,757.178,-9714.42,-3156.68,-11.5036,-39.5419,33.4419,-8936.54,2415.87,-3305.78,48.1273,23.5482,153.281,4173.23,-7674.37,-1741.45,-95.0938,-61.7771,105.628,2752.46,-1969.44,2981.7,34.7996,-5.25565,51.3217
3.351,5172.35,-4535.68,8535.73,-42.7064,400.779,193.815,4226.44,3224.23,8580.76,2.09971,-10.6555,19.0262,5358.82,7328.48,-1038.62,136.29,-9.10598,311.026,772.8,-9691.64,-3159.71,-11.3249,-38.7796,33.7439,-8896.75,2349.93,-3385.09,45.2695,25.4912,153.996,4262.9,-7716.45,-1639.4,-95.4388,-61.8212,104.877,2832.38,-2074.19,2970.94,35.657,-5.24803,51.2288
3.352,5020.69,-4544.18,8496.83,-43.1351,399.759,195.876,4268.68,3144.39,8592.94,1.05802,-10.7697,19.2656,5415.4,7392.3,-1098.02,137.545,-6.60692,312.99,742.24,-9685.81,-3096.96,-11.1799,-38.0835,34.1609,-8712.83,2331.01,-3329.98,43.3524,29.5279,154.336,4261.43,-7804.82,-1636.61,-95.8554,-62.179,104.32,2913.88,-2177.41,2956.87,36.6116,-5.335,50.9015
3.353,4871.43,-4557.59,8456.15,-43.5215,398.676,197.944,4303.95,3073.25,8600.06,0.0457273,-10.8438,19.5289,5479.27,7451.76,-1160.25,138.797,-4.05574,314.97,705.906,-9682.09,-3025.97,-11.039,-37.3958,34.5924,-8510.88,2317.96,-3258.08,41.5529,33.8262,154.629,4248.56,-7898.97,-1646.24,-96.2809,-62.5759,103.786,2995.59,-2280.43,2942.38,37.5783,-5.4338,50.5449
3.354,4722.18,-4571.0,8415.47,-43.9078,397.592,200.012,4339.21,3002.1,8607.17,-0.966569,-10.9179,19.7922,5543.15,7511.22,-1222.49,140.049,-1.50455,316.951,669.572,-9678.37,-2954.99,-10.8981,-36.708,35.0239,-8308.94,2304.92,-3186.17,39.7533,38.1246,154.923,4235.7,-7993.12,-1655.86,-96.7064,-62.9729,103.253,3077.3,-2383.45,2927.9,38.5451,-5.5326,50.1884
3.355,4572.93,-4584.41,8374.79,-44.2942,396.508,202.08,4374.48,2930.96,8614.28,-1.97887,-10.9921,20.0555,5607.03,7570.67,-1284.72,141.302,1.04663,318.932,633.238,-9674.65,-2884.01,-10.7573,-36.0203,35.4554,-8107.0,2291.88,-3114.27,37.9537,42.4229,155.217,4222.83,-8087.28,-1665.49,-97.1319,-63.3699,102.72,3159.0,-2486.48,2913.41,39.5118,-5.6314,49.8318
3.356,4475.7,-4607.43,8362.64,-44.6885,395.301,203.998,4418.66,2873.96,8628.91,-2.96069,-11.0813,20.1899,5685.37,7620.03,-1344.86,142.501,3.66333,320.889,585.833,-9698.71,-2823.1,-10.6472,-35.3716,35.8946,-7898.97,2302.2,-2994.6,35.8212,47.1134,155.827,4212.25,-8177.39,-1706.77,-97.5571,-63.827,102.213,3255.36,-2577.73,2892.1,40.5357,-5.73697,49.5504
3.357,4443.49,-4642.45,8386.14,-45.0928,393.94,205.729,4473.99,2834.64,8652.94,-3.90441,-11.1895,20.1631,5781.81,7656.77,-1402.38,143.633,6.36195,322.817,524.591,-9757.47,-2774.77,-10.5756,-34.7718,36.3434,-7683.33,2341.73,-2815.23,33.2724,52.294,156.834,4204.51,-8262.46,-1787.61,-97.9819,-64.3592,101.739,3370.04,-2654.27,2862.27,41.631,-5.851,49.3631
3.358,4411.29,-4677.48,8409.64,-45.4971,392.579,207.461,4529.31,2795.32,8676.97,-4.84814,-11.2977,20.1363,5878.24,7693.5,-1459.91,144.765,9.06056,324.745,463.349,-9816.24,-2726.45,-10.5039,-34.1721,36.7922,-7467.69,2381.27,-2635.86,30.7237,57.4746,157.841,4196.78,-8347.53,-1868.45,-98.4067,-64.8915,101.264,3484.72,-2730.8,2832.43,42.7264,-5.96503,49.1757
3.359,4379.08,-4712.51,8433.15,-45.9014,391.218,209.192,4584.63,2756.0,8700.99,-5.79186,-11.4058,20.1094,5974.67,7730.24,-1517.44,145.897,11.7592,326.673,402.106,-9875.01,-2678.12,-10.4323,-33.5723,37.241,-7252.05,2420.8,-2456.49,28.1749,62.6553,158.847,4189.05,-8432.6,-1949.29,-98.8315,-65.4237,100.789,3599.4,-2807.34,2802.6,43.8217,-6.07906,48.9883
3.36,4346.87,-4747.53,8456.65,-46.3057,389.857,210.924,4639.96,2716.69,8725.02,-6.73559,-11.514,20.0826,6071.1,7766.97,-1574.96,147.028,14.4578,328.601,340.864,-9933.78,-2629.79,-10.3607,-32.9725,37.6898,-7036.41,2460.33,-2277.13,25.6261,67.8359,159.854,4181.32,-8517.67,-2030.13,-99.2562,-65.956,100.315,3714.08,-2883.87,2772.76,44.917,-6.19309,48.801
3.361,4404.67,-4787.84,8478.12,-46.9923,387.998,212.371,4621.22,2602.41,8702.99,-6.95789,-11.465,19.8547,6127.61,7828.17,-1647.22,148.573,17.4303,330.182,293.953,-9967.19,-2526.92,-10.2093,-32.4965,38.1713,-6913.12,2465.53,-2122.93,21.9079,74.0013,161.685,4104.44,-8634.85,-2147.01,-99.8678,-66.3707,99.8282,3876.54,-2952.48,2737.91,45.7764,-6.22249,48.5817
3.362,4462.46,-4828.14,8499.59,-47.6789,386.14,213.818,4602.48,2488.14,8680.96,-7.18019,-11.4159,19.6268,6184.12,7889.36,-1719.48,150.118,20.4028,331.764,247.043,-10000.6,-2424.04,-10.058,-32.0204,38.6529,-6789.83,2470.73,-1968.74,18.1896,80.1667,163.516,4027.57,-8752.04,-2263.88,-100.479,-66.7853,99.3417,4039.0,-3021.08,2703.07,46.6358,-6.25189,48.3625
3.363,4520.25,-4868.44,8521.07,-48.3655,384.281,215.266,4583.75,2373.86,8658.93,-7.40249,-11.3669,19.3989,6240.63,7950.55,-1791.74,151.663,23.3754,333.345,200.132,-10034.0,-2321.17,-9.90662,-31.5444,39.1344,-6666.54,2475.93,-1814.55,14.4714,86.3322,165.347,3950.7,-8869.22,-2380.75,-101.091,-67.2,98.8551,4201.46,-3089.69,2668.22,47.4951,-6.28128,48.1433
3.364,4578.04,-4908.74,8542.54,-49.0521,382.423,216.713,4565.01,2259.59,8636.91,-7.62479,-11.3179,19.171,6297.14,8011.75,-1864.0,153.208,26.3479,334.927,153.222,-10067.4,-2218.29,-9.75527,-31.0684,39.6159,-6543.25,2481.13,-1660.36,10.7532,92.4976,167.178,3873.83,-8986.41,-2497.62,-101.702,-67.6147,98.3686,4363.91,-3158.29,2633.38,48.3545,-6.31068,47.924
3.365,4651.14,-4956.04,8555.85,-49.4471,380.641,218.016,4586.16,2185.18,8611.5,-7.83869,-11.1982,18.8645,6330.69,8073.32,-1935.27,154.883,29.4803,336.298,110.378,-10121.5,-2135.86,-9.64624,-30.6021,39.9795,-6451.44,2446.45,-1503.65,7.16559,99.1805,168.799,3786.43,-9139.19,-2600.27,-102.216,-67.8273,97.8705,4525.2,-3207.98,2606.25,49.1711,-6.37079,47.5875
3.366,4736.49,-5008.93,8562.63,-49.6088,378.919,219.202,4639.23,2142.67,8583.39,-8.04589,-11.0221,18.4949,6345.86,8135.19,-2005.75,156.662,32.7405,337.502,70.7888,-10192.1,-2069.77,-9.57107,-30.1438,40.2488,-6384.81,2379.88,-1344.93,3.68253,106.277,170.254,3690.62,-9320.45,-2691.54,-102.652,-67.8782,97.3631,4685.54,-3242.56,2585.29,49.9535,-6.45547,47.1571
3.367,4821.84,-5061.82,8569.41,-49.7704,377.198,220.389,4692.3,2100.16,8555.28,-8.25308,-10.8459,18.1254,6361.04,8197.06,-2076.23,158.44,36.0007,338.706,31.1993,-10262.7,-2003.69,-9.4959,-29.6854,40.518,-6318.19,2313.3,-1186.21,0.199477,113.374,171.708,3594.8,-9501.71,-2782.8,-103.087,-67.9292,96.8557,4845.88,-3277.13,2564.34,50.7358,-6.54016,46.7267
3.368,4907.19,-5114.72,8576.19,-49.9321,375.476,221.575,4745.37,2057.65,8527.18,-8.46027,-10.6697,17.7559,6376.21,8258.94,-2146.71,160.219,39.261,339.91,-8.39028,-10333.4,-1937.6,-9.42073,-29.227,40.7872,-6251.56,2246.73,-1027.49,-3.28358,120.471,173.163,3498.99,-9682.97,-2874.07,-103.523,-67.9801,96.3483,5006.22,-3311.7,2543.38,51.5181,-6.62484,46.2963
3.369,4998.94,-5176.88,8586.19,-50.0738,373.763,222.741,4793.5,2012.45,8509.79,-8.66451,-10.4901,17.3859,6390.47,8326.42,-2214.92,161.951,42.556,341.074,-49.8637,-10400.8,-1869.76,-9.36205,-28.802,41.0621,-6184.47,2181.32,-867.817,-6.68255,127.535,174.488,3400.13,-9862.75,-2963.79,-103.929,-68.0023,95.8299,5161.91,-3343.89,2522.6,52.2801,-6.71799,45.8647
3.37,5141.89,-5313.2,8621.97,-50.0558,372.109,223.741,4802.16,1945.71,8578.21,-8.84505,-10.2831,17.0122,6397.37,8438.75,-2265.03,163.312,46.1291,341.918,-106.408,-10442.7,-1787.85,-9.43528,-28.6437,41.382,-6113.67,2125.3,-700.513,-9.40886,134.336,174.781,3276.97,-10030.7,-3041.16,-104.099,-67.7942,95.2232,5280.47,-3357.01,2503.17,52.8787,-6.87887,45.424
3.371,5284.83,-5449.52,8657.74,-50.0378,370.456,224.742,4810.82,1878.97,8646.62,-9.02559,-10.0761,16.6385,6404.27,8551.09,-2315.14,164.673,49.7023,342.762,-162.952,-10484.6,-1705.95,-9.50851,-28.4853,41.7018,-6042.87,2069.27,-533.209,-12.1352,141.138,175.074,3153.8,-10198.7,-3118.53,-104.27,-67.5861,94.6166,5399.03,-3370.14,2483.75,53.4774,-7.03976,44.9833
3.372,5427.78,-5585.85,8693.52,-50.0197,368.803,225.742,4819.48,1812.23,8715.03,-9.20613,-9.86912,16.2648,6411.17,8663.43,-2365.25,166.033,53.2754,343.606,-219.496,-10526.5,-1624.05,-9.58174,-28.327,42.0217,-5972.07,2013.25,-365.904,-14.8615,147.939,175.366,3030.63,-10366.7,-3195.89,-104.44,-67.378,94.0099,5517.59,-3383.27,2464.33,54.076,-7.20064,44.5426
3.373,5570.72,-5722.17,8729.3,-50.0017,367.149,226.742,4828.14,1745.49,8783.44,-9.38667,-9.66212,15.8911,6418.08,8775.76,-2415.36,167.394,56.8486,344.45,-276.041,-10568.5,-1542.14,-9.65497,-28.1687,42.3416,-5901.27,1957.22,-198.6,-17.5878,154.741,175.659,2907.47,-10534.6,-3273.26,-104.61,-67.1699,93.4032,5636.15,-3396.39,2444.91,54.6747,-7.36152,44.102
3.374,5738.4,-5869.33,8781.65,-49.6297,365.49,227.816,4851.08,1749.74,8817.62,-9.40305,-9.70034,15.4628,6381.01,8935.07,-2448.91,168.576,60.3827,345.23,-322.09,-10625.9,-1499.88,-9.75585,-28.1139,42.6389,-5818.31,1921.18,-75.7139,-19.3606,160.655,175.235,2761.68,-10717.0,-3339.11,-104.234,-66.8622,92.8207,5757.77,-3401.58,2406.92,55.2742,-7.51103,43.6531
3.375,5918.44,-6021.92,8842.29,-49.0807,363.827,228.926,4881.17,1789.49,8834.67,-9.33735,-9.86117,15.0072,6321.97,9117.85,-2474.18,169.667,63.8974,345.978,-362.891,-10691.2,-1477.44,-9.87055,-28.111,42.9248,-5729.29,1895.13,24.9637,-20.6567,166.127,174.454,2604.57,-10906.5,-3399.21,-103.584,-66.5046,92.2501,5880.92,-3402.79,2359.65,55.874,-7.65484,43.2002
3.376,6098.48,-6174.51,8902.92,-48.5316,362.165,230.036,4911.27,1829.23,8851.73,-9.27165,-10.022,14.5517,6262.92,9300.64,-2499.45,170.758,67.412,346.726,-403.693,-10756.4,-1455.0,-9.98526,-28.108,43.2107,-5640.26,1869.07,125.641,-21.9528,171.598,173.673,2447.47,-11096.1,-3459.3,-102.934,-66.147,91.6796,6004.07,-3404.0,2312.38,56.4738,-7.79866,42.7474
3.377,6278.52,-6327.1,8963.56,-47.9826,360.503,231.146,4941.36,1868.98,8868.79,-9.20596,-10.1828,14.0961,6203.87,9483.42,-2524.72,171.85,70.9267,347.474,-444.494,-10821.7,-1432.56,-10.1,-28.1051,43.4967,-5551.24,1843.02,226.319,-23.2489,177.069,172.891,2290.37,-11285.6,-3519.4,-102.284,-65.7895,91.1091,6127.21,-3405.22,2265.11,57.0737,-7.94248,42.2945
3.378,6454.77,-6472.49,9036.04,-47.3403,358.868,232.278,4957.38,1897.78,8887.83,-9.09663,-10.3907,13.7135,6136.35,9663.82,-2541.56,172.945,74.344,348.227,-494.305,-10876.5,-1412.18,-10.2174,-28.1977,43.7672,-5457.44,1825.57,316.2,-24.2671,182.134,171.924,2131.03,-11459.4,-3563.97,-101.468,-65.4302,90.5586,6245.39,-3403.25,2218.93,57.6614,-8.12339,41.8312
3.379,6617.75,-6592.69,9149.97,-46.3717,357.333,233.486,4924.15,1888.28,8913.8,-8.83464,-10.763,13.5866,6039.17,9835.86,-2528.89,174.052,77.4207,348.999,-575.648,-10895.1,-1399.0,-10.3445,-28.6248,43.9837,-5346.96,1838.24,368.296,-24.3126,185.775,170.306,1963.85,-11578.0,-3554.23,-100.072,-65.0649,90.0782,6346.14,-3390.14,2176.54,58.2067,-8.43413,41.3315
3.38,6780.73,-6712.89,9263.89,-45.403,355.797,234.694,4890.93,1878.78,8939.78,-8.57264,-11.1353,13.4596,5941.98,10007.9,-2516.23,175.159,80.4974,349.77,-656.991,-10913.7,-1385.82,-10.4715,-29.052,44.2002,-5236.47,1850.91,420.391,-24.3582,189.416,168.688,1796.67,-11696.6,-3544.49,-98.6757,-64.6997,89.5979,6446.9,-3377.04,2134.15,58.752,-8.74487,40.8318
3.381,6943.71,-6833.09,9377.82,-44.4343,354.261,235.902,4857.7,1869.29,8965.76,-8.31064,-11.5076,13.3327,5844.79,10179.9,-2503.56,176.266,83.574,350.541,-738.333,-10932.3,-1372.65,-10.5986,-29.4791,44.4167,-5125.98,1863.58,472.486,-24.4038,193.057,167.07,1629.49,-11815.3,-3534.75,-97.2797,-64.3344,89.1175,6547.66,-3363.93,2091.76,59.2972,-9.05562,40.3321
3.382,7106.69,-6953.29,9491.74,-43.4657,352.725,237.11,4824.48,1859.79,8991.74,-8.04864,-11.8799,13.2057,5747.61,10352.0,-2490.9,177.373,86.6507,351.313,-819.676,-10950.9,-1359.47,-10.7257,-29.9063,44.6332,-5015.5,1876.24,524.582,-24.4494,196.699,165.452,1462.31,-11933.9,-3525.01,-95.8836,-63.9691,88.6372,6648.41,-3350.82,2049.37,59.8425,-9.36636,39.8325
3.383,7286.1,-7031.96,9632.3,-42.4704,351.18,238.411,4813.78,1838.59,9006.9,-7.70934,-12.2016,12.9309,5652.95,10524.9,-2519.9,178.623,89.4351,352.121,-884.941,-10975.9,-1361.9,-10.7727,-30.7149,44.8852,-4930.1,1898.25,551.823,-23.9809,199.001,163.428,1313.1,-11989.8,-3451.6,-93.8783,-64.0375,88.3069,6759.06,-3290.57,2009.66,60.3341,-9.58688,39.278
3.384,7470.19,-7098.76,9780.47,-41.4676,349.633,239.738,4809.53,1814.04,9018.97,-7.34795,-12.5089,12.6138,5559.01,10698.0,-2560.82,179.912,92.1359,352.94,-945.612,-11002.7,-1368.8,-10.797,-31.6325,45.1475,-4851.88,1922.93,571.962,-23.3656,200.921,161.289,1169.03,-12027.7,-3360.0,-91.699,-64.2297,88.0194,6872.54,-3216.85,1970.72,60.8104,-9.78163,38.7079
3.385,7654.28,-7165.56,9928.64,-40.4647,348.085,241.066,4805.27,1789.5,9031.04,-6.98657,-12.8162,12.2967,5465.08,10871.1,-2601.73,181.202,94.8367,353.759,-1006.28,-11029.5,-1375.69,-10.8212,-32.5502,45.4097,-4773.65,1947.61,592.102,-22.7503,202.841,159.15,1024.95,-12065.6,-3268.41,-89.5196,-64.4219,87.732,6986.02,-3143.13,1931.77,61.2866,-9.97638,38.1379
3.386,7838.38,-7232.35,10076.8,-39.4618,346.537,242.394,4801.01,1764.95,9043.1,-6.62518,-13.1234,11.9796,5371.14,11044.3,-2642.65,182.492,97.5375,354.578,-1066.95,-11056.3,-1382.59,-10.8454,-33.4678,45.672,-4695.43,1972.29,612.242,-22.135,204.761,157.012,880.882,-12103.5,-3176.81,-87.3402,-64.6142,87.4445,7099.5,-3069.41,1892.83,61.7628,-10.1711,37.5678
3.387,8039.28,-7301.2,10222.6,-38.6125,345.047,243.751,4799.42,1754.28,9058.96,-6.21389,-13.5227,11.704,5275.07,11229.5,-2673.71,183.711,100.111,355.39,-1117.68,-11083.5,-1378.56,-10.8688,-34.3958,45.9276,-4652.19,2010.51,620.209,-21.4926,206.172,154.761,729.654,-12101.9,-3080.4,-85.0005,-65.1161,87.2646,7217.37,-2991.13,1848.06,62.2376,-10.3206,37.0368
3.388,8273.81,-7374.13,10363.7,-38.0702,343.674,245.169,4803.16,1771.35,9082.41,-5.70278,-14.106,11.5112,5174.72,11439.1,-2685.09,184.789,102.43,356.19,-1148.52,-11111.3,-1352.7,-10.8904,-35.3446,46.1699,-4678.91,2075.85,603.831,-20.7961,206.566,152.287,564.116,-12021.6,-2974.37,-82.3399,-66.2375,87.2999,7344.03,-2903.74,1791.63,62.7094,-10.3793,36.5839
3.389,8508.35,-7447.05,10504.8,-37.5279,342.3,246.587,4806.89,1788.42,9105.85,-5.19168,-14.6894,11.3184,5074.37,11648.6,-2696.46,185.868,104.748,356.99,-1179.35,-11139.1,-1326.84,-10.912,-36.2934,46.4123,-4705.63,2141.18,587.453,-20.0996,206.959,149.812,398.578,-11941.3,-2868.33,-79.6793,-67.359,87.3352,7470.68,-2816.34,1735.21,63.1812,-10.4381,36.131
3.39,8742.88,-7519.98,10645.9,-36.9856,340.927,248.005,4810.63,1805.49,9129.29,-4.68057,-15.2727,11.1257,4974.03,11858.1,-2707.83,186.946,107.067,357.789,-1210.19,-11166.9,-1300.98,-10.9336,-37.2422,46.6546,-4732.36,2206.51,571.075,-19.4031,207.353,147.338,233.04,-11861.0,-2762.3,-77.0188,-68.4804,87.3704,7597.34,-2728.95,1678.78,63.653,-10.4969,35.6781
3.391,8977.41,-7592.91,10787.0,-36.4433,339.553,249.422,4814.36,1822.56,9152.74,-4.16946,-15.856,10.9329,4873.68,12067.7,-2719.2,188.025,109.386,358.589,-1241.03,-11194.7,-1275.12,-10.9552,-38.191,46.8969,-4759.08,2271.85,554.697,-18.7066,207.746,144.864,67.5019,-11780.6,-2656.27,-74.3582,-69.6018,87.4057,7723.99,-2641.55,1622.35,64.1249,-10.5557,35.2252
3.392,9216.6,-7726.3,10943.5,-35.9854,338.507,250.72,4789.44,1773.89,9155.21,-3.69769,-16.5385,10.7823,4806.68,12297.2,-2703.58,189.05,111.383,359.261,-1252.61,-11212.5,-1261.24,-11.0669,-39.0599,47.1473,-4864.09,2381.87,444.709,-18.2175,206.946,142.292,-71.2155,-11604.2,-2566.88,-71.508,-71.6037,87.8984,7830.66,-2542.95,1574.88,64.415,-10.6079,34.6997
3.393,9456.37,-7867.24,11101.9,-35.538,337.502,252.003,4760.94,1717.0,9155.06,-3.23083,-17.2334,10.6371,4743.84,12529.3,-2684.58,190.069,113.34,359.918,-1261.78,-11229.2,-1248.86,-11.1899,-39.9188,47.3988,-4978.89,2497.48,323.02,-17.7543,205.995,139.707,-206.58,-11415.7,-2479.57,-68.6341,-73.7156,88.4482,7934.82,-2442.95,1528.53,64.6823,-10.6593,34.1651
3.394,9696.14,-8008.19,11260.4,-35.0907,336.496,253.286,4732.44,1660.1,9154.91,-2.76397,-17.9283,10.4918,4681.0,12761.3,-2665.58,191.088,115.297,360.574,-1270.96,-11245.8,-1236.48,-11.3129,-40.7778,47.6502,-5093.69,2613.08,201.331,-17.2911,205.045,137.123,-341.945,-11227.2,-2392.26,-65.7603,-75.8275,88.9981,8038.99,-2342.94,1482.17,64.9497,-10.7106,33.6306
3.395,9935.91,-8149.13,11418.8,-34.6433,335.491,254.569,4703.93,1603.21,9154.76,-2.29711,-18.6233,10.3465,4618.17,12993.3,-2646.59,192.108,117.254,361.23,-1280.13,-11262.4,-1224.1,-11.4359,-41.6367,47.9016,-5208.48,2728.69,79.6421,-16.828,204.095,134.538,-477.31,-11038.8,-2304.95,-62.8864,-77.9394,89.548,8143.15,-2242.94,1435.82,65.2171,-10.762,33.096
3.396,10198.7,-8294.64,11557.0,-33.9132,334.48,256.046,4688.46,1576.47,9169.36,-1.67111,-19.3657,10.0922,4544.66,13231.7,-2644.15,193.155,119.253,361.856,-1278.48,-11277.9,-1232.81,-11.5565,-42.5107,48.1138,-5347.66,2840.78,-59.1906,-16.5226,202.631,131.914,-632.798,-10841.5,-2219.0,-60.2642,-80.4406,90.3464,8226.24,-2148.08,1391.27,65.5249,-10.8943,32.5821
3.397,10490.4,-8445.83,11669.8,-32.8296,333.461,257.763,4689.26,1587.42,9202.41,-0.846203,-20.1675,9.70173,4457.83,13477.9,-2662.41,194.236,121.306,362.445,-1263.28,-11291.9,-1267.87,-11.6743,-43.4036,48.2769,-5517.32,2948.46,-219.453,-16.4146,200.524,129.24,-813.441,-10633.1,-2134.72,-57.9567,-83.4285,91.4557,8282.98,-2059.66,1348.96,65.8832,-11.1276,32.0941
3.398,10782.0,-8597.03,11782.7,-31.746,332.442,259.481,4690.06,1598.37,9235.46,-0.021294,-20.9693,9.31122,4370.99,13724.2,-2680.67,195.318,123.359,363.034,-1248.09,-11305.9,-1302.93,-11.792,-44.2965,48.4399,-5686.98,3056.15,-379.715,-16.3065,198.418,126.565,-994.084,-10424.8,-2050.45,-55.6492,-86.4164,92.5649,8339.72,-1971.24,1306.66,66.2414,-11.361,31.6061
3.399,11073.6,-8748.23,11895.5,-30.6624,331.424,261.198,4690.86,1609.32,9268.51,0.803615,-21.7712,8.92071,4284.16,13970.4,-2698.92,196.4,125.411,363.623,-1232.89,-11319.9,-1337.98,-11.9098,-45.1894,48.603,-5856.64,3163.83,-539.977,-16.1985,196.311,123.891,-1174.73,-10216.4,-1966.18,-53.3417,-89.4043,93.6741,8396.46,-1882.83,1264.36,66.5997,-11.5944,31.1181
3.4,11365.2,-8899.43,12008.4,-29.5788,330.405,262.916,4691.66,1620.28,9301.56,1.62852,-22.573,8.5302,4197.32,14216.6,-2717.18,197.482,127.464,364.211,-1217.7,-11333.9,-1373.04,-12.0275,-46.0823,48.7661,-6026.29,3271.51,-700.239,-16.0904,194.205,121.217,-1355.37,-10008.1,-1881.91,-51.0343,-92.3922,94.7834,8453.21,-1794.41,1222.05,66.958,-11.8278,30.6301
3.401,11634.2,-9008.76,12119.0,-27.4304,329.329,265.09,4653.14,1693.71,9289.33,1.97656,-23.3533,8.47634,4129.93,14472.0,-2773.26,198.583,129.183,364.92,-1181.28,-11347.9,-1411.9,-12.4288,-47.0501,48.8531,-6242.64,3355.72,-832.893,-16.6999,191.12,118.628,-1466.85,-9837.05,-1795.67,-49.8431,-96.0121,96.1664,8467.83,-1724.84,1209.19,67.2879,-12.2033,30.2262
3.402,11903.2,-9118.09,12229.6,-25.282,328.252,267.264,4614.62,1767.14,9277.1,2.32459,-24.1336,8.42249,4062.54,14727.4,-2829.33,199.684,130.902,365.628,-1144.85,-11361.9,-1450.76,-12.8301,-48.018,48.9401,-6458.99,3439.93,-965.546,-17.3093,188.036,116.039,-1578.33,-9666.05,-1709.43,-48.652,-99.632,97.5494,8482.45,-1655.28,1196.32,67.6178,-12.5788,29.8222
3.403,12172.2,-9227.42,12340.2,-23.1336,327.176,269.438,4576.1,1840.57,9264.88,2.67262,-24.914,8.36863,3995.15,14982.8,-2885.4,200.784,132.62,366.336,-1108.43,-11376.0,-1489.62,-13.2314,-48.9858,49.027,-6675.34,3524.14,-1098.2,-17.9187,184.951,113.451,-1689.81,-9495.04,-1623.18,-47.4608,-103.252,98.9325,8497.08,-1585.71,1183.46,67.9476,-12.9542,29.4183
3.404,12441.2,-9336.75,12450.7,-20.9851,326.1,271.612,4537.58,1914.0,9252.65,3.02065,-25.6943,8.31477,3927.76,15238.2,-2941.48,201.885,134.339,367.044,-1072.01,-11390.0,-1528.49,-13.6327,-49.9537,49.114,-6891.69,3608.35,-1230.85,-18.5281,181.867,110.862,-1801.29,-9324.04,-1536.94,-46.2697,-106.872,100.316,8511.7,-1516.15,1170.59,68.2775,-13.3297,29.0143
3.405,12700.1,-9474.68,12498.5,-18.739,325.125,273.678,4492.71,1968.48,9274.65,4.21702,-26.5282,8.61835,3858.79,15511.3,-3001.61,202.969,136.03,367.716,-1036.1,-11382.2,-1602.66,-14.0117,-50.9683,49.1765,-7102.66,3706.6,-1317.57,-20.1152,178.044,108.493,-1864.27,-9220.73,-1459.85,-45.5665,-110.428,101.807,8521.5,-1444.94,1161.61,68.5465,-13.7315,28.5737
3.406,12950.9,-9635.49,12495.9,-16.4148,324.232,275.659,4442.75,2007.79,9324.05,6.09205,-27.4049,9.20789,3788.55,15798.5,-3065.0,204.04,137.697,368.358,-1000.59,-11356.8,-1705.07,-14.3729,-52.0204,49.2192,-7309.33,3816.1,-1367.55,-22.4844,173.63,106.3,-1888.45,-9171.58,-1390.1,-45.2537,-113.932,103.386,8527.46,-1372.41,1155.73,68.7667,-14.1543,28.1037
3.407,13201.7,-9796.31,12493.4,-14.0906,323.338,277.639,4392.79,2047.11,9373.44,7.96709,-28.2816,9.79742,3718.31,16085.8,-3128.39,205.112,139.365,369.0,-965.076,-11331.5,-1807.49,-14.7342,-53.0725,49.262,-7516.0,3925.6,-1417.52,-24.8536,169.216,104.107,-1912.63,-9122.42,-1320.34,-44.9409,-117.437,104.964,8533.41,-1299.89,1149.84,68.9869,-14.5771,27.6338
3.408,13452.5,-9957.12,12490.8,-11.7664,322.445,279.62,4342.82,2086.43,9422.83,9.84213,-29.1583,10.387,3648.07,16373.0,-3191.77,206.183,141.033,369.643,-929.566,-11306.2,-1909.91,-15.0954,-54.1246,49.3048,-7722.68,4035.09,-1467.49,-27.2228,164.802,101.913,-1936.81,-9073.27,-1250.58,-44.6281,-120.941,106.543,8539.36,-1227.36,1143.96,69.207,-14.9999,27.1638
3.409,13697.1,-10103.6,12490.7,-9.50794,321.469,281.606,4293.88,2127.82,9459.53,11.5272,-29.9887,10.9376,3579.53,16662.4,-3255.83,207.228,142.718,370.247,-898.427,-11277.5,-2014.67,-15.4634,-55.1777,49.3343,-7924.72,4151.21,-1495.39,-29.8898,160.192,99.8366,-1956.24,-9033.75,-1187.11,-44.3633,-124.399,108.067,8540.34,-1151.03,1140.95,69.3991,-15.4384,26.7043
3.41,13891.4,-10135.3,12510.6,-7.77566,319.831,283.638,4253.09,2185.75,9394.62,11.6925,-30.4485,11.1767,3524.55,16969.2,-3325.23,208.067,144.543,370.549,-902.263,-11221.7,-2138.17,-15.8858,-56.2388,49.2577,-8089.71,4320.28,-1346.68,-34.9399,154.014,98.6925,-1937.61,-9071.26,-1173.95,-44.4821,-127.481,109.155,8501.5,-1044.3,1160.87,69.3662,-16.0028,26.3286
3.411,14085.8,-10167.0,12530.4,-6.04338,318.193,285.671,4212.3,2243.68,9329.72,11.8578,-30.9084,11.4159,3469.56,17276.0,-3394.63,208.906,146.368,370.851,-906.099,-11166.0,-2261.67,-16.3082,-57.3,49.181,-8254.71,4489.36,-1197.98,-39.99,147.837,97.5484,-1918.98,-9108.77,-1160.78,-44.601,-130.563,110.243,8462.67,-937.564,1180.8,69.3334,-16.5672,25.9529
3.412,14280.1,-10198.7,12550.2,-4.3111,316.555,287.703,4171.52,2301.61,9264.82,12.023,-31.3682,11.6551,3414.58,17582.8,-3464.02,209.745,148.193,371.153,-909.935,-11110.3,-2385.18,-16.7306,-58.3611,49.1044,-8419.7,4658.43,-1049.27,-45.04,141.66,96.4044,-1900.36,-9146.28,-1147.62,-44.7198,-133.644,111.331,8423.83,-830.829,1200.72,69.3005,-17.1316,25.5773
3.413,14474.5,-10230.4,12570.0,-2.57882,314.918,289.736,4130.73,2359.54,9199.91,12.1883,-31.828,11.8943,3359.59,17889.6,-3533.42,210.584,150.018,371.455,-913.771,-11054.5,-2508.68,-17.1529,-59.4222,49.0277,-8584.69,4827.51,-900.57,-50.0901,135.482,95.2603,-1881.73,-9183.79,-1134.45,-44.8387,-136.726,112.419,8385.0,-724.094,1220.64,69.2677,-17.696,25.2016
3.414,14616.4,-10171.1,12551.4,-1.46596,312.856,291.756,4190.06,2561.2,9129.31,12.3792,-32.4746,12.3485,3285.09,18199.0,-3591.73,211.386,151.965,371.66,-997.592,-11013.0,-2645.94,-17.0594,-60.49,49.1325,-8715.58,4976.37,-683.242,-57.255,128.449,95.4699,-1810.58,-9295.94,-1134.46,-44.7088,-139.179,113.146,8333.02,-635.858,1206.89,69.1758,-18.3051,24.9171
3.415,14732.0,-10066.5,12513.7,-0.662806,310.584,293.769,4299.46,2834.72,9055.86,12.5828,-33.2146,12.9102,3200.82,18509.9,-3644.48,212.17,153.973,371.817,-1121.41,-10978.7,-2790.09,-16.708,-61.5611,49.3279,-8829.42,5115.12,-431.603,-65.4773,120.989,96.3563,-1713.16,-9445.42,-1141.06,-44.4547,-141.318,113.692,8274.46,-556.871,1176.31,69.0543,-18.9367,24.6783
3.416,14847.7,-9961.79,12475.9,0.140347,308.311,295.783,4408.86,3108.24,8982.41,12.7864,-33.9546,13.472,3116.55,18820.7,-3697.24,212.953,155.981,371.975,-1245.22,-10944.3,-2934.24,-16.3565,-62.6322,49.5233,-8943.25,5253.88,-179.964,-73.6995,113.528,97.2428,-1615.75,-9594.89,-1147.66,-44.2005,-143.457,114.238,8215.9,-477.884,1145.72,68.9328,-19.5682,24.4395
3.417,14963.4,-9857.12,12438.2,0.9435,306.038,297.796,4518.26,3381.76,8908.96,12.99,-34.6946,14.0337,3032.29,19131.5,-3749.99,213.737,157.989,372.132,-1369.03,-10909.9,-3078.38,-16.005,-63.7033,49.7187,-9057.09,5392.63,71.6751,-81.9218,106.067,98.1293,-1518.33,-9744.37,-1154.25,-43.9464,-145.595,114.785,8157.34,-398.897,1115.14,68.8113,-20.1997,24.2007
3.418,15105.9,-9779.82,12388.0,1.65057,303.761,299.699,4631.61,3591.03,8850.87,13.3451,-35.4551,14.6919,2948.75,19434.6,-3797.64,214.449,160.176,372.231,-1469.57,-10891.5,-3172.11,-15.5551,-64.6165,49.9794,-9160.22,5509.03,318.93,-90.3765,98.5635,99.3392,-1412.33,-9902.57,-1168.89,-43.467,-147.578,115.195,8097.93,-315.85,1087.81,68.7197,-20.8068,23.931
3.419,15342.6,-9798.32,12294.5,2.02133,301.47,301.216,4758.82,3575.42,8846.54,14.2302,-36.2876,15.6877,2867.75,19710.4,-3827.4,214.91,162.987,372.126,-1488.66,-10928.9,-3089.37,-14.7607,-64.9769,50.4685,-9225.91,5547.18,550.839,-99.6446,90.9113,101.681,-1276.27,-10091.4,-1211.64,-42.1992,-149.012,115.128,8035.54,-218.59,1071.89,68.7329,-21.3284,23.5529
3.42,15579.2,-9816.81,12201.0,2.39209,299.18,302.733,4886.03,3559.81,8842.2,15.1154,-37.1201,16.6835,2786.75,19986.2,-3857.16,215.372,165.799,372.02,-1507.75,-10966.4,-3006.62,-13.9662,-65.3373,50.9576,-9291.6,5585.33,782.748,-108.913,83.2591,104.023,-1140.22,-10280.1,-1254.4,-40.9315,-150.447,115.062,7973.15,-121.331,1055.96,68.746,-21.8499,23.1749
3.421,15815.8,-9835.3,12107.4,2.76285,296.889,304.25,5013.24,3544.19,8837.86,16.0006,-37.9526,17.6792,2705.76,20262.1,-3886.93,215.833,168.611,371.915,-1526.84,-11003.8,-2923.88,-13.1718,-65.6978,51.4467,-9357.29,5623.48,1014.66,-118.181,75.6068,106.365,-1004.17,-10468.9,-1297.16,-39.6638,-151.881,114.995,7910.76,-24.0715,1040.03,68.7592,-22.3714,22.7968
3.422,16052.4,-9853.8,12013.9,3.13362,294.598,305.767,5140.45,3528.58,8833.52,16.8857,-38.7851,18.675,2624.76,20537.9,-3916.69,216.295,171.423,371.809,-1545.92,-11041.2,-2841.14,-12.3774,-66.0582,51.9358,-9422.98,5661.62,1246.57,-127.449,67.9546,108.707,-868.123,-10657.7,-1339.92,-38.3961,-153.315,114.928,7848.36,73.1878,1024.1,68.7723,-22.893,22.4187
3.423,16327.7,-9886.3,11978.8,3.74167,291.582,307.299,5181.5,3268.65,8852.18,17.341,-39.6482,18.9684,2510.88,20754.7,-3956.82,216.824,174.316,371.491,-1478.5,-11120.2,-2715.65,-11.7017,-66.4649,52.553,-9478.36,5600.21,1432.75,-135.425,61.0286,111.324,-712.252,-10835.6,-1403.44,-36.6092,-154.539,114.344,7832.69,173.205,1004.5,68.7766,-23.4201,22.1257
3.424,16613.9,-9922.82,11960.4,4.41752,288.359,308.837,5197.93,2938.92,8877.4,17.6735,-40.52,19.061,2387.61,20954.6,-3999.91,217.374,177.233,371.113,-1386.37,-11211.1,-2577.95,-11.0601,-66.885,53.2067,-9530.79,5510.35,1605.87,-143.032,54.3101,114.019,-550.719,-11010.3,-1472.89,-34.674,-155.702,113.611,7830.36,274.009,983.85,68.7782,-23.9489,21.8571
3.425,16900.2,-9959.33,11942.0,5.09338,285.135,310.374,5214.36,2609.18,8902.63,18.006,-41.3918,19.1537,2264.33,21154.6,-4043.0,217.923,180.149,370.735,-1294.23,-11302.1,-2440.25,-10.4184,-67.305,53.8604,-9583.23,5420.49,1778.99,-150.639,47.5915,116.714,-389.185,-11185.1,-1542.34,-32.7388,-156.865,112.879,7828.03,374.814,963.197,68.7799,-24.4776,21.5884
3.426,17186.4,-9995.84,11923.6,5.76923,281.912,311.911,5230.79,2279.45,8927.85,18.3385,-42.2636,19.2463,2141.06,21354.5,-4086.1,218.472,183.066,370.357,-1202.1,-11393.0,-2302.55,-9.77673,-67.725,54.5141,-9635.67,5330.63,1952.11,-158.246,40.873,119.409,-227.651,-11359.8,-1611.79,-30.8036,-158.028,112.146,7825.7,475.618,942.544,68.7816,-25.0064,21.3197
3.427,17449.1,-9995.63,11876.3,6.45988,278.68,313.52,5230.99,2017.25,8959.75,18.574,-43.182,19.2242,1997.47,21553.7,-4115.85,218.861,185.769,369.904,-1119.05,-11455.9,-2196.65,-9.31137,-68.1942,55.1339,-9664.04,5229.62,2117.78,-164.783,34.6806,122.063,-60.8954,-11521.8,-1667.16,-28.8783,-159.235,111.225,7814.67,558.153,926.708,68.7708,-25.5066,21.0447
3.428,17664.5,-9921.97,11771.4,7.18013,275.433,315.272,5198.71,1890.11,9005.01,18.6155,-44.1937,18.9725,1813.26,21751.5,-4118.92,218.93,188.045,369.301,-1054.17,-11462.7,-2154.34,-9.19864,-68.7617,55.6858,-9644.28,5106.3,2268.57,-169.18,29.5405,124.632,116.304,-11658.3,-1694.37,-26.973,-160.531,109.925,7786.24,604.149,920.503,68.7351,-25.9495,20.7572
3.429,17879.9,-9848.32,11666.4,7.90038,272.185,317.025,5166.44,1762.97,9050.28,18.6569,-45.2054,18.7208,1629.06,21949.3,-4121.99,218.999,190.322,368.698,-989.297,-11469.5,-2112.04,-9.0859,-69.3291,56.2378,-9624.53,4982.98,2419.36,-173.577,24.4004,127.201,293.504,-11794.8,-1721.58,-25.0676,-161.826,108.625,7757.8,650.144,914.299,68.6994,-26.3925,20.4697
3.43,18095.3,-9774.66,11561.4,8.62064,268.938,318.778,5134.16,1635.83,9095.54,18.6984,-46.2171,18.4691,1444.85,22147.1,-4125.06,219.067,192.598,368.095,-924.421,-11476.3,-2069.73,-8.97316,-69.8965,56.7897,-9604.77,4859.66,2570.14,-177.974,19.2603,129.771,470.703,-11931.2,-1748.79,-23.1622,-163.121,107.326,7729.37,696.14,908.095,68.6637,-26.8355,20.1822
3.431,18310.7,-9701.0,11456.4,9.34089,265.691,320.531,5101.88,1508.69,9140.8,18.7398,-47.2288,18.2174,1260.65,22344.9,-4128.12,219.136,194.874,367.491,-859.544,-11483.2,-2027.42,-8.86043,-70.464,57.3416,-9585.01,4736.34,2720.93,-182.371,14.1203,132.34,647.903,-12067.7,-1776.01,-21.2569,-164.417,106.026,7700.94,742.135,901.891,68.628,-27.2785,19.8946
3.432,18583.4,-9511.52,11391.1,9.8948,262.074,322.65,5053.3,1627.22,9128.67,18.9915,-48.1589,18.1027,986.927,22544.0,-4067.56,218.217,196.4,366.554,-843.149,-11462.3,-2053.96,-8.73083,-71.1772,57.8393,-9493.85,4636.75,2798.82,-183.882,11.114,134.588,782.304,-12156.6,-1779.72,-19.9584,-166.091,104.553,7713.66,771.459,917.98,68.469,-27.7764,19.5028
3.433,18863.2,-9307.56,11330.8,10.4279,258.41,324.815,5002.68,1776.46,9109.38,19.2695,-49.0788,18.0051,702.019,22743.3,-3999.05,217.174,197.833,365.575,-832.813,-11437.9,-2089.1,-8.59912,-71.9087,58.3301,-9393.75,4540.12,2867.6,-185.032,8.37441,136.795,911.356,-12239.6,-1780.49,-18.7358,-167.814,103.058,7731.52,798.699,936.856,68.2947,-28.2812,19.098
3.434,19143.0,-9103.6,11270.5,10.961,254.747,326.981,4952.06,1925.7,9090.08,19.5475,-49.9986,17.9076,417.112,22942.6,-3930.54,216.131,199.265,364.596,-822.478,-11413.6,-2124.25,-8.46741,-72.6402,58.821,-9293.66,4443.5,2936.38,-186.182,5.63485,139.002,1040.41,-12322.6,-1781.27,-17.5132,-169.536,101.564,7749.39,825.939,955.732,68.1203,-28.786,18.6931
3.435,19422.8,-8899.63,11210.2,11.4942,251.084,329.146,4901.44,2074.93,9070.78,19.8255,-50.9185,17.8101,132.205,23141.9,-3862.02,215.088,200.697,363.616,-812.143,-11389.2,-2159.39,-8.33571,-73.3717,59.3118,-9193.57,4346.88,3005.16,-187.332,2.89528,141.21,1169.46,-12405.6,-1782.05,-16.2905,-171.259,100.069,7767.26,853.179,974.608,67.9459,-29.2908,18.2883
3.436,19696.0,-8655.51,11138.7,11.6743,247.409,331.311,4855.23,2187.72,9069.12,20.5232,-51.9737,17.8684,-177.468,23338.4,-3783.63,213.661,201.615,362.471,-791.959,-11378.9,-2179.85,-8.12657,-73.9622,59.9058,-9067.71,4246.01,3007.51,-186.925,1.88029,142.988,1273.85,-12458.1,-1749.36,-15.3907,-173.139,98.5748,7787.01,869.372,981.277,67.7515,-29.7409,17.9818
3.437,19960.9,-8361.19,11053.2,11.4131,243.719,333.475,4814.54,2254.93,9089.5,21.7453,-53.1982,18.1217,-518.098,23531.5,-3692.89,211.753,201.888,361.117,-759.465,-11386.3,-2181.96,-7.82063,-74.3764,60.6287,-8909.65,4139.84,2926.81,-184.573,3.02101,144.229,1347.41,-12472.3,-1674.84,-14.8943,-175.216,97.0823,7809.13,871.758,972.689,67.5322,-30.1225,17.7982
3.438,20225.8,-8066.87,10967.8,11.152,240.029,335.64,4773.85,2322.14,9109.88,22.9674,-54.4226,18.3749,-858.728,23724.6,-3602.15,209.845,202.162,359.763,-726.971,-11393.7,-2184.07,-7.5147,-74.7907,61.3516,-8751.58,4033.67,2846.12,-182.221,4.16173,145.47,1420.98,-12486.6,-1600.32,-14.3979,-177.294,95.5898,7831.24,874.143,964.101,67.3128,-30.5041,17.6146
3.439,20490.7,-7772.55,10882.3,10.8909,236.339,337.804,4733.16,2389.36,9130.26,24.1896,-55.6471,18.6281,-1199.36,23917.7,-3511.41,207.936,202.436,358.409,-694.477,-11401.0,-2186.18,-7.20876,-75.2049,62.0746,-8593.52,3927.5,2765.42,-179.868,5.30244,146.712,1494.54,-12500.8,-1525.81,-13.9015,-179.372,94.0973,7853.35,876.529,955.512,67.0935,-30.8857,17.431
3.44,20755.6,-7478.23,10796.9,10.6298,232.65,339.969,4692.47,2456.57,9150.64,25.4117,-56.8715,18.8814,-1539.99,24110.7,-3420.67,206.028,202.71,357.056,-661.984,-11408.4,-2188.29,-6.90282,-75.6191,62.7975,-8435.45,3821.33,2684.73,-177.516,6.44316,147.953,1568.11,-12515.1,-1451.29,-13.405,-181.449,92.6048,7875.47,878.915,946.924,66.8741,-31.2673,17.2474
3.441,21116.0,-7312.56,10692.5,10.6546,229.001,342.023,4703.86,2383.48,9150.27,26.9602,-58.0548,18.9336,-1920.79,24323.9,-3340.5,203.659,201.666,355.475,-618.672,-11431.2,-2167.03,-6.85634,-76.0302,63.5441,-8197.26,3751.18,2580.25,-172.751,11.4225,147.826,1597.09,-12490.4,-1329.6,-13.3846,-183.696,91.205,7863.88,870.301,963.563,66.6748,-31.9209,16.9408
3.442,21476.5,-7146.9,10588.2,10.6794,225.352,344.077,4715.26,2310.4,9149.89,28.5087,-59.238,18.9858,-2301.59,24537.0,-3260.33,201.291,200.622,353.895,-575.36,-11454.0,-2145.76,-6.80986,-76.4412,64.2906,-7959.06,3681.03,2475.78,-167.985,16.4018,147.699,1626.07,-12465.7,-1207.91,-13.3641,-185.943,89.8052,7852.29,861.687,980.203,66.4754,-32.5744,16.6342
3.443,21836.9,-6981.23,10483.9,10.7043,221.703,346.131,4726.65,2237.31,9149.52,30.0571,-60.4212,19.038,-2682.38,24750.2,-3180.16,198.922,199.578,352.314,-532.048,-11476.8,-2124.5,-6.76338,-76.8522,65.0372,-7720.86,3610.88,2371.3,-163.22,21.3812,147.572,1655.06,-12441.0,-1086.21,-13.3436,-188.19,88.4054,7840.7,853.073,996.842,66.2761,-33.228,16.3276
3.444,22197.3,-6815.57,10379.6,10.7291,218.054,348.185,4738.04,2164.23,9149.15,31.6056,-61.6044,19.0902,-3063.18,24963.3,-3099.99,196.553,198.534,350.734,-488.736,-11499.7,-2103.24,-6.7169,-77.2633,65.7838,-7482.67,3540.72,2266.83,-158.455,26.3605,147.446,1684.04,-12416.3,-964.523,-13.3232,-190.437,87.0056,7829.11,844.459,1013.48,66.0768,-33.8815,16.021
3.445,22516.9,-6698.84,10281.0,10.9649,214.505,349.859,4751.79,2095.39,9142.96,32.9325,-62.8601,19.1334,-3473.88,25163.4,-3039.0,193.969,197.094,349.087,-442.67,-11496.6,-2104.33,-6.78009,-77.7775,66.5748,-7207.83,3518.35,2240.35,-153.047,32.4091,146.765,1702.47,-12389.7,-852.634,-13.2849,-192.708,85.8338,7817.18,816.629,1019.14,65.7908,-34.2917,15.692
3.446,22803.7,-6621.27,10187.0,11.3694,211.037,351.229,4767.44,2029.95,9132.11,34.0822,-64.1739,19.1696,-3908.51,25353.0,-2993.36,191.213,195.337,347.387,-394.401,-11472.7,-2123.31,-6.93102,-78.3743,67.4013,-6903.69,3534.2,2276.28,-147.126,39.3131,145.641,1712.47,-12361.5,-748.587,-13.2325,-195.0,84.8445,7804.99,773.426,1016.01,65.4355,-34.5071,15.3451
3.447,23090.5,-6543.69,10093.0,11.7739,207.569,352.599,4783.08,1964.52,9121.27,35.2318,-65.4876,19.2058,-4343.13,25542.6,-2947.72,188.458,193.581,345.687,-346.132,-11448.9,-2142.29,-7.08195,-78.9711,68.2278,-6599.56,3550.04,2312.21,-141.204,46.2171,144.518,1722.46,-12333.4,-644.541,-13.1801,-197.291,83.8552,7792.79,730.223,1012.89,65.0801,-34.7225,14.9982
3.448,23377.3,-6466.11,9998.97,12.1783,204.101,353.969,4798.72,1899.08,9110.42,36.3815,-66.8013,19.2419,-4777.75,25732.2,-2902.08,185.702,191.825,343.987,-297.863,-11425.1,-2161.26,-7.23288,-79.5679,69.0543,-6295.42,3565.89,2348.14,-135.283,53.1211,143.394,1732.46,-12305.2,-540.495,-13.1277,-199.582,82.8659,7780.6,687.02,1009.76,64.7248,-34.9379,14.6513
3.449,23669.1,-6396.82,9900.91,12.7484,200.637,355.305,4808.28,1853.53,9094.84,37.5675,-68.0915,19.285,-5212.48,25913.8,-2860.79,182.921,190.0,342.316,-251.774,-11401.4,-2182.96,-7.37375,-80.1412,69.8947,-5990.58,3581.61,2398.17,-129.375,60.0208,142.206,1746.97,-12277.9,-437.644,-13.0202,-201.858,81.8981,7770.79,643.153,1004.49,64.3735,-35.1456,14.3199
3.45,24000.6,-6393.8,9770.5,14.643,197.2,356.361,4769.08,1967.14,9041.3,39.0442,-69.1933,19.3837,-5648.03,26032.3,-2854.29,179.932,187.63,340.872,-223.129,-11378.7,-2226.42,-7.43416,-80.5267,70.8462,-5680.17,3596.37,2560.99,-123.582,66.8859,140.499,1797.66,-12257.8,-344.359,-12.4721,-204.007,81.1032,7780.01,593.975,982.067,64.0549,-35.2916,14.1128
3.451,24332.1,-6390.79,9640.08,16.5376,193.764,357.418,4729.89,2080.74,8987.76,40.521,-70.2951,19.4824,-6083.58,26150.7,-2847.8,176.944,185.26,339.428,-194.483,-11356.0,-2269.88,-7.49457,-80.9123,71.7976,-5369.77,3611.13,2723.81,-117.789,73.751,138.793,1848.34,-12237.8,-251.073,-11.9239,-206.155,80.3082,7789.24,544.797,959.64,63.7363,-35.4376,13.9057
3.452,24663.7,-6387.77,9509.66,18.4322,190.327,358.474,4690.7,2194.34,8934.22,41.9978,-71.397,19.5811,-6519.13,26269.1,-2841.31,173.956,182.89,337.984,-165.838,-11333.4,-2313.33,-7.55497,-81.2978,72.7491,-5059.36,3625.89,2886.63,-111.996,80.6161,137.086,1899.02,-12217.7,-157.788,-11.3758,-208.304,79.5133,7798.47,495.619,937.213,63.4176,-35.5835,13.6986
3.453,24995.2,-6384.76,9379.24,20.3268,186.891,359.531,4651.51,2307.95,8880.68,43.4745,-72.4988,19.6798,-6954.68,26387.5,-2834.81,170.967,180.52,336.54,-137.192,-11310.7,-2356.79,-7.61538,-81.6833,73.7006,-4748.95,3640.65,3049.45,-106.203,87.4812,135.379,1949.71,-12197.7,-64.5027,-10.8277,-210.453,78.7183,7807.69,446.44,914.786,63.099,-35.7295,13.4914
3.454,25278.2,-6389.81,9220.82,22.4722,184.02,360.202,4636.53,2357.63,8877.16,45.0096,-73.583,19.7686,-7347.25,26461.3,-2847.22,168.279,177.836,335.071,-117.385,-11305.8,-2346.15,-7.47141,-81.8574,74.7645,-4424.85,3695.04,3115.66,-101.106,94.0485,133.521,2049.81,-12166.6,-50.9897,-9.85845,-212.248,78.0436,7821.95,397.379,885.675,62.8521,-35.7934,13.2707
3.455,25537.1,-6398.9,9048.4,24.7431,181.432,360.68,4633.64,2375.36,8898.65,46.5737,-74.6583,19.8525,-7718.33,26512.9,-2869.09,165.74,174.993,333.589,-101.997,-11309.7,-2308.46,-7.22524,-81.9259,75.8846,-4093.9,3769.25,3133.57,-96.3581,100.467,131.587,2174.62,-12130.0,-77.3627,-8.6787,-213.865,77.429,7838.72,348.375,853.221,62.6412,-35.8163,13.0431
3.456,25795.9,-6407.98,8875.98,27.0139,178.845,361.159,4630.76,2393.08,8920.13,48.1378,-75.7336,19.9363,-8089.4,26564.4,-2890.95,163.201,172.151,332.107,-86.6081,-11313.6,-2270.77,-6.97908,-81.9944,77.0046,-3762.94,3843.45,3151.48,-91.6099,106.885,129.652,2299.42,-12093.4,-103.736,-7.49896,-215.483,76.8144,7855.49,299.372,820.768,62.4303,-35.8391,12.8155
3.457,26054.7,-6417.07,8703.56,29.2848,176.257,361.637,4627.88,2410.8,8941.62,49.702,-76.809,20.0202,-8460.48,26616.0,-2912.81,160.662,169.308,330.625,-71.2197,-11317.6,-2233.09,-6.73291,-82.0628,78.1247,-3431.99,3917.65,3169.39,-86.8616,113.304,127.718,2424.23,-12056.7,-130.109,-6.31921,-217.101,76.1998,7872.26,250.368,788.314,62.2194,-35.862,12.5879
3.458,26326.9,-6428.13,8520.84,31.6122,173.818,361.866,4634.63,2416.74,8959.78,51.15,-77.9056,20.0625,-8839.05,26661.5,-2939.93,158.294,166.392,329.107,-48.6014,-11324.1,-2184.49,-6.44368,-82.0827,79.2459,-3107.87,4001.84,3204.63,-82.4425,119.502,125.623,2564.29,-12015.5,-190.531,-4.92174,-218.484,75.5974,7882.51,196.365,758.487,61.999,-35.7762,12.3876
3.459,26645.9,-6446.08,8302.07,34.1376,171.902,361.22,4675.13,2381.46,8966.29,52.1916,-79.0771,19.9591,-9243.85,26685.7,-2985.44,156.521,163.216,327.459,-0.678378,-11339.8,-2097.71,-6.00373,-81.9326,80.3709,-2807.67,4120.97,3300.49,-79.1751,124.93,122.969,2757.7,-11958.2,-370.123,-2.7622,-219.046,75.0378,7869.93,124.861,737.854,61.745,-35.3103,12.2831
3.46,26964.9,-6464.04,8083.3,36.663,169.985,360.575,4715.62,2346.17,8972.81,53.2332,-80.2486,19.8558,-9648.65,26710.0,-3030.95,154.748,160.04,325.812,47.2446,-11355.5,-2010.92,-5.56378,-81.7825,81.4958,-2507.47,4240.1,3396.36,-75.9078,130.358,120.315,2951.11,-11900.9,-549.715,-0.602666,-219.607,74.4782,7857.36,53.3581,717.221,61.4909,-34.8444,12.1787
3.461,27283.9,-6482.0,7864.53,39.1884,168.068,359.929,4756.11,2310.88,8979.33,54.2748,-81.4201,19.7525,-10053.5,26734.3,-3076.46,152.975,156.865,324.164,95.1676,-11371.2,-1924.14,-5.12382,-81.6323,82.6208,-2207.26,4359.23,3492.23,-72.6404,135.785,117.661,3144.52,-11843.6,-729.308,1.55687,-220.169,73.9186,7844.78,-18.1452,696.588,61.2369,-34.3785,12.0742
3.462,27602.8,-6499.96,7645.75,41.7138,166.152,359.283,4796.6,2275.59,8985.84,55.3163,-82.5915,19.6491,-10458.3,26758.5,-3121.96,151.202,153.689,322.516,143.091,-11386.9,-1837.36,-4.68387,-81.4822,83.7457,-1907.06,4478.36,3588.1,-69.373,141.213,115.007,3337.93,-11786.3,-908.9,3.71641,-220.731,73.359,7832.21,-89.6485,675.955,60.9829,-33.9125,11.9697
3.463,27938.8,-6467.3,7430.35,43.468,164.961,357.699,4811.2,2198.55,8985.44,55.8488,-83.9467,19.4206,-10807.9,26747.8,-3177.27,149.825,150.5,320.571,199.138,-11389.8,-1777.45,-4.24012,-81.0642,84.7386,-1606.36,4658.98,3784.09,-67.3457,144.636,111.837,3550.06,-11746.0,-1164.01,6.39048,-220.152,72.7041,7894.84,-140.358,622.278,60.9472,-32.9554,11.7312
3.464,28279.6,-6420.17,7215.91,45.0018,163.978,355.847,4818.4,2109.57,8983.05,56.2357,-85.3543,19.1564,-11141.8,26727.1,-3235.37,148.562,147.307,318.542,257.506,-11389.1,-1725.21,-3.79528,-80.5697,85.6938,-1305.52,4857.17,4008.67,-65.6727,147.487,108.519,3767.55,-11710.5,-1440.7,9.21156,-219.246,72.0221,7978.97,-185.127,559.159,60.9738,-31.8578,11.4544
3.465,28620.5,-6373.04,7001.47,46.5357,162.995,353.994,4825.6,2020.59,8980.66,56.6227,-86.7619,18.8921,-11475.6,26706.3,-3293.47,147.298,144.114,316.512,315.874,-11388.4,-1672.97,-3.35045,-80.0752,86.6489,-1004.69,5055.36,4233.26,-63.9996,150.337,105.201,3985.03,-11674.9,-1717.38,12.0326,-218.341,71.34,8063.1,-229.895,496.04,61.0004,-30.7603,11.1776
3.466,28961.3,-6325.92,6787.02,48.0695,162.012,352.142,4832.8,1931.61,8978.28,57.0096,-88.1695,18.6278,-11809.5,26685.6,-3351.57,146.035,140.921,314.482,374.242,-11387.7,-1620.73,-2.90561,-79.5807,87.6041,-703.849,5253.54,4457.85,-62.3266,153.188,101.884,4202.51,-11639.4,-1994.07,14.8537,-217.436,70.6579,8147.22,-274.664,432.922,61.027,-29.6627,10.9009
3.467,29282.3,-6262.23,6589.05,49.2875,161.217,349.809,4844.44,1900.35,8964.44,57.2583,-89.6373,18.3163,-12124.5,26672.1,-3405.52,144.924,137.781,312.322,416.578,-11379.3,-1572.34,-2.40592,-78.9962,88.6101,-464.192,5467.45,4672.36,-61.1547,154.423,98.1987,4422.37,-11593.0,-2280.65,17.5459,-215.922,69.9263,8233.78,-331.069,374.976,61.0841,-28.4685,10.6227
3.468,29563.8,-6165.42,6424.0,49.8738,160.798,346.516,4864.95,1984.51,8927.71,57.2305,-91.2254,17.9104,-12401.9,26672.8,-3451.17,144.119,134.747,309.902,426.851,-11355.6,-1531.65,-1.79652,-78.232,89.7177,-346.897,5712.78,4866.72,-60.985,152.427,93.7797,4646.99,-11524.7,-2587.02,19.9803,-213.192,69.0957,8325.19,-410.747,327.377,61.2025,-27.0808,10.3419
3.469,29845.2,-6068.6,6258.96,50.4601,160.379,343.222,4885.46,2068.67,8890.97,57.2028,-92.8135,17.5045,-12679.3,26673.6,-3496.83,143.314,131.713,307.481,437.123,-11331.9,-1490.95,-1.18712,-77.4678,90.8253,-229.602,5958.12,5061.07,-60.8154,150.431,89.3606,4871.6,-11456.4,-2893.38,22.4147,-210.462,68.265,8416.6,-490.425,279.778,61.3208,-25.6932,10.0611
3.47,30126.6,-5971.79,6093.91,51.0463,159.96,339.928,4905.97,2152.83,8854.24,57.175,-94.4016,17.0985,-12956.6,26674.4,-3542.49,142.509,128.679,305.061,447.395,-11308.2,-1450.25,-0.577724,-76.7036,91.9329,-112.307,6203.46,5255.43,-60.6457,148.436,84.9415,5096.21,-11388.0,-3199.75,24.8491,-207.732,67.4344,8508.01,-570.103,232.179,61.4392,-24.3055,9.78032
3.471,30408.0,-5874.98,5928.87,51.6326,159.541,336.634,4926.48,2236.99,8817.5,57.1472,-95.9897,16.6926,-13234.0,26675.2,-3588.14,141.705,125.645,302.641,457.667,-11284.6,-1409.55,0.0316746,-75.9394,93.0405,4.98852,6448.79,5449.79,-60.476,146.44,80.5224,5320.82,-11319.7,-3506.12,27.2835,-205.002,66.6037,8599.42,-649.781,184.58,61.5575,-22.9179,9.49951
3.472,30667.2,-5724.59,5628.81,51.0225,159.497,332.633,4936.32,2321.93,8853.83,57.7091,-97.7791,16.6397,-13493.8,26719.2,-3695.6,141.364,122.876,300.099,485.957,-11269.0,-1435.03,0.638196,-75.0733,94.3577,-87.6082,6765.55,5519.47,-60.8892,140.128,75.0136,5547.74,-11197.2,-3761.99,28.3759,-200.345,65.9228,8689.92,-709.075,175.036,61.968,-21.3954,9.26565
3.473,30923.5,-5567.51,5311.87,50.2628,159.5,328.544,4944.82,2406.96,8899.29,58.3448,-99.5935,16.6309,-13751.3,26768.6,-3810.78,141.081,120.141,297.542,516.499,-11254.5,-1468.78,1.24436,-74.1945,95.701,-206.441,7091.24,5573.56,-61.3752,133.277,69.3687,5774.94,-11068.0,-4011.55,29.3007,-195.449,65.2605,8780.3,-765.82,170.25,62.4151,-19.856,9.03767
3.474,31179.9,-5410.43,4994.94,49.5031,159.503,324.456,4953.33,2492.0,8944.75,58.9804,-101.408,16.6221,-14008.8,26818.0,-3925.96,140.798,117.406,294.986,547.04,-11239.9,-1502.52,1.85052,-73.3157,97.0444,-325.275,7416.93,5627.65,-61.8612,126.425,63.7237,6002.15,-10938.7,-4261.11,30.2254,-190.552,64.5982,8870.69,-822.565,165.463,62.8621,-18.3167,8.80969
3.475,31436.3,-5253.35,4678.01,48.7433,159.506,320.367,4961.83,2577.03,8990.2,59.6161,-103.223,16.6133,-14266.4,26867.5,-4041.14,140.515,114.67,292.429,577.582,-11225.4,-1536.27,2.45668,-72.4368,98.3877,-444.108,7742.62,5681.74,-62.3473,119.574,58.0787,6229.35,-10809.4,-4510.67,31.1502,-185.655,63.9359,8961.07,-879.31,160.677,63.3091,-16.7773,8.5817
3.476,31689.4,-5122.76,4386.4,47.1503,159.777,315.79,4970.88,2646.85,9050.11,59.6501,-104.948,16.4945,-14520.0,26903.4,-4187.78,140.162,112.256,289.918,605.876,-11231.2,-1577.7,3.19118,-71.4697,99.7117,-473.867,8042.92,5611.79,-62.3404,112.729,53.7321,6445.33,-10656.4,-4699.25,30.9966,-179.837,63.5048,9061.51,-929.74,157.58,63.6061,-15.2035,8.31736
3.477,31938.5,-5025.3,4126.44,44.5156,160.384,310.604,4980.62,2697.63,9128.06,58.9322,-106.562,16.2381,-14768.7,26922.5,-4373.75,139.721,110.243,287.464,631.359,-11262.5,-1628.72,4.08611,-70.3922,101.011,-392.283,8311.48,5386.78,-61.7174,105.891,51.0085,6647.27,-10473.6,-4811.6,29.4953,-172.867,63.3627,9174.52,-972.278,156.596,63.7157,-13.5866,8.00757
3.478,32187.6,-4927.84,3866.49,41.8809,160.99,305.419,4990.36,2748.42,9206.02,58.2143,-108.177,15.9817,-15017.5,26941.6,-4559.71,139.28,108.23,285.011,656.843,-11293.8,-1679.74,4.98104,-69.3147,102.311,-310.699,8580.05,5161.77,-61.0944,99.0536,48.2849,6849.21,-10290.8,-4923.96,27.994,-165.898,63.2206,9287.54,-1014.82,155.612,63.8253,-11.9697,7.69778
3.479,32436.7,-4830.38,3606.53,39.2462,161.597,300.233,5000.1,2799.21,9283.98,57.4963,-109.791,15.7253,-15266.2,26960.7,-4745.68,138.839,106.217,282.557,682.327,-11325.0,-1730.77,5.87596,-68.2372,103.611,-229.115,8848.61,4936.76,-60.4714,92.216,45.5613,7051.16,-10108.1,-5036.32,26.4927,-158.928,63.0784,9400.55,-1057.35,154.629,63.9349,-10.3528,7.38799
3.48,32685.8,-4732.92,3346.58,36.6115,162.204,295.048,5009.84,2850.0,9361.94,56.7784,-111.406,15.4689,-15514.9,26979.8,-4931.64,138.398,104.204,280.104,707.81,-11356.3,-1781.79,6.77089,-67.1597,104.91,-147.531,9117.18,4711.75,-59.8484,85.3785,42.8377,7253.1,-9925.28,-5148.67,24.9914,-151.959,62.9363,9513.56,-1099.89,153.645,64.0445,-8.73587,7.0782
3.481,32937.5,-4719.23,2976.97,34.3318,163.238,288.974,5016.0,2768.8,9389.33,57.1215,-113.083,15.6675,-15841.9,26914.3,-5099.9,138.542,101.969,277.577,717.571,-11424.2,-1759.33,7.60737,-66.0384,106.161,313.382,9095.65,4560.56,-56.5618,78.1335,42.4144,7417.86,-9713.01,-5101.4,21.1091,-144.009,63.2565,9656.86,-1125.35,205.311,63.9744,-7.09957,6.6195
3.482,33189.2,-4705.55,2607.37,32.0521,164.272,282.9,5022.16,2687.61,9416.72,57.4646,-114.76,15.8662,-16168.8,26848.7,-5268.16,138.687,99.7341,275.05,727.331,-11492.0,-1736.87,8.44385,-64.9171,107.411,774.295,9074.12,4409.37,-53.2753,70.8884,41.9911,7582.63,-9500.75,-5054.13,17.2269,-136.059,63.5766,9800.16,-1150.8,256.976,63.9042,-5.46328,6.1608
3.483,33440.8,-4691.86,2237.76,29.7724,165.305,276.826,5028.32,2606.41,9444.11,57.8078,-116.437,16.0648,-16495.8,26783.1,-5436.41,138.832,97.4988,272.523,737.092,-11559.9,-1714.4,9.28033,-63.7958,108.662,1235.21,9052.59,4258.19,-49.9887,63.6434,41.5679,7747.39,-9288.48,-5006.86,13.3447,-128.11,63.8968,9943.46,-1176.26,308.642,63.8341,-3.82698,5.70211
3.484,33692.5,-4678.17,1868.16,27.4927,166.339,270.753,5034.48,2525.21,9471.51,58.1509,-118.114,16.2635,-16822.8,26717.6,-5604.67,138.977,95.2636,269.995,746.852,-11627.8,-1691.94,10.1168,-62.6745,109.912,1696.12,9031.06,4107.0,-46.7021,56.3983,41.1446,7912.16,-9076.22,-4959.58,9.4625,-120.16,64.217,10086.8,-1201.71,360.308,63.7639,-2.19069,5.24341
3.485,33963.3,-4624.0,1535.78,25.3564,167.424,264.667,5018.36,2433.0,9477.84,58.1728,-119.949,16.1372,-17186.6,26613.8,-5742.96,138.871,92.7012,267.191,743.323,-11688.9,-1665.85,10.8177,-61.6678,111.125,2178.43,9020.63,3896.63,-42.5753,49.3104,41.8381,8046.61,-8920.33,-4819.22,4.91064,-112.611,64.6334,10210.8,-1180.46,408.576,63.5796,-0.867396,4.91999
3.486,34249.4,-4537.43,1233.17,23.3347,168.549,258.572,4984.43,2331.97,9467.31,57.9377,-121.911,15.7509,-17579.9,26479.4,-5857.26,138.566,89.8771,264.165,729.161,-11744.6,-1636.86,11.4102,-60.7528,112.308,2677.87,9019.08,3638.92,-37.7762,42.348,43.425,8156.8,-8809.55,-4604.37,-0.176938,-105.382,65.127,10319.5,-1121.85,454.126,63.3038,0.205492,4.70481
3.487,34535.5,-4450.87,930.571,21.3131,169.674,252.477,4950.49,2230.94,9456.79,57.7026,-123.873,15.3646,-17973.1,26344.9,-5971.57,138.261,87.0529,261.139,715.0,-11800.3,-1607.87,12.0028,-59.8378,113.492,3177.3,9017.52,3381.21,-32.9772,35.3857,45.0118,8267.0,-8698.76,-4389.52,-5.26451,-98.1531,65.6205,10428.2,-1063.24,499.676,63.0281,1.27838,4.48963
3.488,34821.6,-4364.3,627.969,19.2914,170.799,246.382,4916.56,2129.91,9446.27,57.4675,-125.836,14.9784,-18366.4,26210.5,-6085.88,137.955,84.2288,258.113,700.838,-11855.9,-1578.87,12.5953,-58.9229,114.675,3676.74,9015.97,3123.49,-28.1782,28.4234,46.5987,8377.19,-8587.98,-4174.67,-10.3521,-90.9241,66.1141,10536.8,-1004.62,545.225,62.7523,2.35127,4.27445
3.489,35096.1,-4263.93,313.155,17.1716,171.943,240.264,4889.51,2050.62,9438.26,57.2655,-127.766,14.6287,-18767.0,26073.2,-6183.56,137.557,81.2924,255.037,681.268,-11912.0,-1545.7,13.1838,-58.0252,115.855,4155.48,9012.88,2862.13,-23.229,21.7794,48.3838,8477.41,-8490.47,-3944.62,-15.3584,-83.958,66.5999,10642.1,-954.317,588.525,62.4504,3.38443,4.08178
3.49,35277.2,-4053.11,-99.3551,14.2663,173.241,233.965,4917.56,2145.17,9450.31,57.3276,-129.438,14.5719,-19226.0,25912.0,-6148.27,136.409,77.4577,251.559,618.435,-11970.6,-1479.15,13.7411,-57.2664,117.011,4468.73,8997.59,2571.56,-17.0785,17.6823,51.7546,8497.84,-8499.16,-3592.94,-19.7145,-79.0948,67.0244,10720.2,-970.461,613.82,61.9383,4.09983,4.06921
3.491,35458.3,-3842.29,-511.865,11.361,174.539,227.666,4945.61,2239.73,9462.37,57.3898,-131.111,14.5151,-19684.9,25750.9,-6112.97,135.261,73.6231,248.08,555.601,-12029.3,-1412.59,14.2983,-56.5075,118.168,4781.97,8982.3,2280.99,-10.9279,13.5852,55.1255,8518.27,-8507.85,-3241.26,-24.0706,-74.2316,67.4489,10798.3,-986.605,639.116,61.4262,4.81522,4.05664
3.492,35639.4,-3631.47,-924.375,8.45573,175.837,221.367,4973.66,2334.29,9474.43,57.452,-132.784,14.4584,-20143.8,25589.8,-6077.68,134.113,69.7885,244.602,492.767,-12087.9,-1346.03,14.8555,-55.7487,119.324,5095.22,8967.01,1990.42,-4.7773,9.48816,58.4963,8538.7,-8516.54,-2889.59,-28.4267,-69.3684,67.8734,10876.5,-1002.75,664.412,60.9142,5.53062,4.04408
3.493,35820.5,-3420.65,-1336.88,5.55044,177.135,215.068,5001.72,2428.84,9486.48,57.5142,-134.457,14.4016,-20602.8,25428.7,-6042.39,132.965,65.9538,241.123,429.934,-12146.6,-1279.47,15.4127,-54.9899,120.481,5408.46,8951.72,1699.85,1.37328,5.3911,61.8672,8559.13,-8525.23,-2537.91,-32.7828,-64.5052,68.2978,10954.6,-1018.89,689.707,60.4021,6.24601,4.03151
3.494,35942.8,-3176.56,-1815.06,2.32048,178.557,208.694,4990.1,2494.81,9517.52,57.2732,-136.332,14.5268,-21055.2,25212.1,-5893.66,131.21,61.3157,237.123,431.733,-12192.4,-1202.53,15.9727,-54.3258,121.594,5618.91,8984.51,1469.79,7.93107,3.1124,64.967,8512.58,-8583.23,-2183.96,-35.5812,-61.6667,68.6533,11020.5,-972.181,688.702,59.6348,6.82453,4.07983
3.495,36035.7,-2915.85,-2326.08,-1.07182,180.04,202.282,4958.64,2546.49,9558.04,56.8804,-138.308,14.7429,-21504.4,24967.7,-5688.22,129.153,56.2757,232.861,465.849,-12231.9,-1120.4,16.534,-53.7092,122.687,5777.97,9041.36,1269.97,14.6925,1.7429,67.9314,8432.54,-8665.87,-1828.87,-37.6007,-59.8406,68.9742,11080.2,-894.04,674.545,58.7399,7.3346,4.15859
3.496,36128.6,-2655.13,-2837.1,-4.46412,181.524,195.869,4927.19,2598.16,9598.57,56.4877,-140.283,14.9591,-21953.6,24723.3,-5482.78,127.096,51.2358,228.599,499.965,-12271.3,-1038.26,17.0953,-53.0925,123.78,5937.02,9098.2,1070.16,21.4539,0.3734,70.8958,8352.51,-8748.52,-1473.78,-39.6202,-58.0145,69.2951,11140.0,-815.9,660.389,57.8451,7.84468,4.23735
3.497,36221.5,-2394.42,-3348.11,-7.85641,183.008,189.457,4895.74,2649.84,9639.1,56.095,-142.259,15.1753,-22402.8,24478.9,-5277.34,125.039,46.1959,224.338,534.081,-12310.8,-956.131,17.6567,-52.4758,124.872,6096.08,9155.04,870.344,28.2153,-0.996102,73.8601,8272.47,-8831.16,-1118.69,-41.6397,-56.1884,69.6161,11199.7,-737.759,646.232,56.9502,8.35475,4.31611
3.498,36284.0,-2120.2,-3833.02,-11.2157,184.295,183.101,4860.85,2694.16,9679.21,55.7065,-144.281,15.3024,-22849.8,24226.5,-5051.0,122.916,41.0741,219.959,580.894,-12355.5,-876.76,18.2299,-51.823,125.987,6238.24,9233.29,691.847,35.0044,-1.90065,76.444,8180.56,-8935.07,-793.183,-43.1471,-54.8547,69.8357,11265.0,-656.73,647.333,56.0329,8.7681,4.44307
3.499,36240.1,-1798.72,-4226.55,-14.4593,184.895,176.941,4813.96,2712.73,9717.87,55.333,-146.465,15.1182,-23289.0,23945.8,-4751.47,120.56,35.6657,215.169,672.147,-12418.8,-807.057,18.8447,-51.0434,127.18,6321.25,9386.47,587.958,41.8903,-1.17787,77.696,8047.1,-9113.39,-571.222,-42.8618,-55.2443,69.7011,11349.9,-565.588,701.832,55.0374,8.84289,4.73872
3.5,36196.1,-1477.24,-4620.07,-17.7029,185.494,170.781,4767.06,2731.3,9756.54,54.9595,-148.649,14.9339,-23728.2,23665.0,-4451.94,118.205,30.2573,210.379,763.4,-12482.0,-737.354,19.4595,-50.2639,128.373,6404.27,9539.66,484.069,48.7763,-0.455081,78.948,7913.64,-9291.71,-349.26,-42.5765,-55.634,69.5664,11434.7,-474.445,756.332,54.0419,8.91768,5.03437
3.501,36152.2,-1155.76,-5013.6,-20.9466,186.093,164.621,4720.17,2749.88,9795.2,54.5859,-150.834,14.7496,-24167.4,23384.3,-4152.41,115.85,24.8489,205.59,854.654,-12545.3,-667.651,20.0743,-49.4843,129.566,6487.29,9692.85,380.181,55.6622,0.267705,80.2,7780.19,-9470.03,-127.298,-42.2913,-56.0237,69.4318,11519.6,-383.303,810.831,53.0463,8.99248,5.33003
3.502,36108.2,-834.279,-5407.13,-24.1902,186.692,158.46,4673.27,2768.45,9833.86,54.2124,-153.018,14.5654,-24606.6,23103.6,-3852.88,113.495,19.4405,200.8,945.907,-12608.5,-597.949,20.6891,-48.7047,130.759,6570.3,9846.04,276.292,62.5482,0.99049,81.452,7646.73,-9648.34,94.6638,-42.006,-56.4134,69.2971,11604.4,-292.161,865.331,52.0508,9.06727,5.62568
3.503,35899.5,-521.557,-5686.96,-26.7356,186.083,152.877,4677.92,2695.9,9882.55,54.2182,-155.365,14.3233,-24929.3,22834.7,-3495.81,110.767,14.0919,195.806,1012.04,-12671.9,-552.524,21.2513,-47.3476,131.915,6701.63,10125.9,24.3872,68.3357,2.26688,80.5073,7476.75,-9856.64,175.668,-40.8504,-57.3422,68.9321,11638.6,-177.005,876.456,51.042,8.71993,6.14805
3.504,35643.6,-211.338,-5934.3,-29.0814,185.129,147.459,4697.29,2597.32,9934.09,54.3323,-157.759,14.0648,-25218.7,22569.1,-3122.3,107.932,8.76032,190.753,1071.0,-12735.2,-514.035,21.7984,-45.8255,133.06,6846.76,10441.9,-269.808,73.8094,3.70144,78.9351,7296.34,-10073.5,216.399,-39.4461,-58.4251,68.5011,11658.3,-54.9873,875.19,50.0295,8.25199,6.73521
3.505,35387.8,98.882,-6181.65,-31.4273,184.175,142.04,4716.67,2498.73,9985.64,54.4465,-160.153,13.8062,-25508.1,22303.6,-2748.79,105.097,3.42875,185.701,1129.95,-12798.5,-475.547,22.3455,-44.3033,134.205,6991.89,10758.0,-564.002,79.283,5.136,77.3628,7115.92,-10290.4,257.13,-38.0419,-59.508,68.0702,11677.9,67.0302,873.923,49.0169,7.78404,7.32236
3.506,35131.9,409.101,-6429.0,-33.7732,183.221,136.622,4736.04,2400.15,10037.2,54.5606,-162.547,13.5476,-25797.5,22038.1,-2375.28,102.262,-1.90283,180.648,1188.91,-12861.8,-437.059,22.8927,-42.7812,135.35,7137.02,11074.0,-858.197,84.7567,6.57056,75.7906,6935.51,-10507.2,297.861,-36.6376,-60.591,67.6393,11697.6,189.048,872.656,48.0043,7.31609,7.90952
3.507,34860.5,790.56,-6665.41,-35.8239,181.583,131.547,4774.56,2295.18,10085.1,54.5004,-164.924,13.2621,-26049.3,21784.2,-1972.43,99.2623,-7.11515,175.559,1232.07,-12922.4,-388.834,23.5234,-41.1252,136.539,7286.49,11404.0,-1175.71,89.4474,7.84812,73.4585,6760.31,-10721.2,287.923,-35.1686,-61.4824,67.1693,11699.8,302.537,871.077,46.9011,6.81057,8.55866
3.508,34557.8,1314.5,-6879.95,-37.2844,178.58,127.157,4851.37,2177.43,10125.7,54.0915,-167.267,12.9227,-26225.9,21553.8,-1510.89,95.934,-12.089,170.396,1243.64,-12977.4,-321.135,24.3212,-39.2013,137.816,7444.64,11762.1,-1539.86,92.5724,8.81168,69.6069,6595.57,-10929.4,176.647,-33.57,-61.991,66.6214,11667.2,398.969,868.875,45.6167,6.22989,9.33177
3.509,34255.2,1838.43,-7094.5,-38.7448,175.576,122.767,4928.18,2059.69,10166.3,53.6826,-169.61,12.5832,-26402.6,21323.3,-1049.36,92.6056,-17.0628,165.234,1255.22,-13032.4,-253.436,25.119,-37.2775,139.094,7602.79,12120.1,-1904.01,95.6973,9.77524,65.7553,6430.83,-11137.5,65.3706,-31.9714,-62.4995,66.0734,11634.6,495.402,866.673,44.3323,5.64921,10.1049
3.51,33952.6,2362.37,-7309.04,-40.2052,172.572,118.378,5004.99,1941.94,10207.0,53.2736,-171.953,12.2438,-26579.2,21092.8,-587.816,89.2773,-22.0366,160.071,1266.79,-13087.4,-185.738,25.9168,-35.3537,140.371,7760.94,12478.1,-2268.16,98.8222,10.7388,61.9037,6266.09,-11345.7,-45.9054,-30.3728,-63.0081,65.5254,11602.0,591.835,864.471,43.0479,5.06853,10.878
3.511,33649.9,2886.31,-7523.58,-41.6656,169.568,113.988,5081.8,1824.19,10247.6,52.8647,-174.296,11.9043,-26755.8,20862.4,-126.278,85.9489,-27.0104,154.909,1278.36,-13142.4,-118.039,26.7147,-33.4299,141.648,7919.09,12836.1,-2632.31,101.947,11.7024,58.0521,6101.34,-11553.8,-157.181,-28.7742,-63.5167,64.9774,11569.4,688.267,862.269,41.7635,4.48784,11.6511
3.512,33456.8,3586.93,-7835.7,-43.8396,165.382,110.829,5124.33,1721.26,10310.6,52.7632,-176.84,11.3819,-26862.8,20740.0,302.539,82.0087,-31.6467,149.519,1292.74,-13208.1,-18.4964,27.2558,-31.6559,143.052,7922.72,13183.4,-3011.55,104.243,10.8901,54.0382,6015.49,-11723.9,-322.936,-27.4237,-62.9687,64.3411,11538.6,754.502,827.557,40.5712,4.06376,12.2449
3.513,33277.3,4309.64,-8160.02,-46.1028,161.047,107.823,5162.58,1620.17,10376.4,52.7002,-179.409,10.8365,-26961.0,20631.1,727.266,77.992,-36.2408,144.101,1307.47,-13275.2,85.0266,27.7649,-29.9006,144.473,7907.03,13529.4,-3392.68,106.435,9.85576,50.004,5939.49,-11889.3,-495.501,-26.1042,-62.2886,63.6937,11508.1,816.963,788.781,39.3903,3.65924,12.8162
3.514,33097.9,5032.35,-8484.34,-48.3661,156.713,104.817,5200.83,1519.09,10442.2,52.6372,-181.977,10.2911,-27059.2,20522.2,1151.99,73.9753,-40.8349,138.683,1322.2,-13342.2,188.549,28.2739,-28.1454,145.894,7891.34,13875.4,-3773.81,108.627,8.82148,45.9698,5863.5,-12054.6,-668.065,-24.7847,-61.6085,63.0462,11477.5,879.423,750.006,38.2095,3.25473,13.3876
3.515,32918.4,5755.06,-8808.66,-50.6293,152.378,101.811,5239.08,1418.0,10508.0,52.5741,-184.546,9.74578,-27157.5,20413.3,1576.72,69.9586,-45.429,133.265,1336.93,-13409.3,292.072,28.7829,-26.3901,147.315,7875.66,14221.4,-4154.94,110.819,7.78719,41.9356,5787.5,-12220.0,-840.629,-23.4651,-60.9284,62.3988,11447.0,941.884,711.23,37.0287,2.85021,13.959
3.516,32870.0,6354.9,-9167.45,-53.3112,147.954,98.603,5274.06,1346.88,10566.9,52.3305,-187.141,9.11979,-27194.6,20305.4,2002.09,66.0708,-49.9485,127.623,1357.82,-13497.9,400.16,29.1866,-24.7948,148.709,7798.35,14541.7,-4606.04,112.373,5.98716,38.402,5745.76,-12359.3,-1000.33,-22.1908,-59.7908,61.7596,11421.2,1022.89,664.35,35.7891,2.42694,14.5901
3.517,32985.4,6801.15,-9569.31,-56.5167,143.416,95.1417,5304.97,1313.21,10616.9,51.861,-189.77,8.393,-27155.4,20198.8,2428.27,62.3441,-54.3747,121.699,1386.39,-13613.3,513.952,29.4585,-23.3993,150.071,7644.0,14829.7,-5144.59,113.131,3.22994,35.4941,5746.84,-12466.1,-1143.96,-20.9728,-58.0812,61.1307,11401.2,1127.07,607.34,34.476,1.98021,15.2959
3.518,33100.9,7247.4,-9971.17,-59.7221,138.879,91.6805,5335.87,1279.54,10667.0,51.3916,-192.399,7.66621,-27116.1,20092.2,2854.44,58.6174,-58.801,115.776,1414.97,-13728.8,627.744,29.7304,-22.0038,151.433,7489.66,15117.8,-5683.15,113.889,0.472734,32.5862,5747.92,-12572.8,-1287.59,-19.7548,-56.3715,60.5018,11381.2,1231.26,550.33,33.163,1.53348,16.0018
3.519,33216.3,7693.65,-10373.0,-62.9276,134.342,88.2192,5366.78,1245.87,10717.1,50.9221,-195.028,6.93943,-27076.9,19985.6,3280.62,54.8907,-63.2273,109.852,1443.54,-13844.2,741.537,30.0023,-20.6083,152.795,7335.32,15405.9,-6221.71,114.648,-2.28448,29.6783,5748.99,-12679.6,-1431.22,-18.5369,-54.6619,59.8729,11361.3,1335.44,493.32,31.8499,1.08676,16.7076
3.52,33331.7,8139.9,-10774.9,-66.133,129.804,84.758,5397.68,1212.2,10767.2,50.4527,-197.657,6.21264,-27037.7,19879.0,3706.79,51.164,-67.6535,103.929,1472.11,-13959.6,855.329,30.2742,-19.2129,154.157,7180.98,15693.9,-6760.27,115.406,-5.04169,26.7704,5750.07,-12786.4,-1574.85,-17.3189,-52.9523,59.244,11341.3,1439.63,436.309,30.5368,0.640033,17.4135
3.521,33578.5,8172.3,-11247.9,-67.1614,125.58,79.9206,5386.83,1195.7,10734.5,50.6347,-199.887,5.43241,-26808.8,19671.1,4029.0,47.3732,-71.496,97.579,1509.34,-14061.1,942.422,30.6703,-18.0381,155.517,6897.08,15868.7,-7238.54,113.284,-9.24527,26.1342,5847.05,-12810.8,-1678.65,-16.0605,-50.9024,58.8156,11286.2,1510.44,448.335,29.7495,-0.0719679,17.9408
3.522,33825.3,8204.69,-11721.0,-68.1898,121.356,75.0833,5375.97,1179.2,10701.8,50.8168,-202.117,4.65217,-26579.9,19463.2,4351.21,43.5824,-75.3385,91.2291,1546.56,-14162.5,1029.52,31.0663,-16.8633,156.878,6613.18,16043.4,-7716.82,111.162,-13.4488,25.4981,5944.02,-12835.2,-1782.44,-14.8021,-48.8525,58.3872,11231.1,1581.24,460.361,28.9622,-0.783969,18.4681
3.523,34072.1,8237.08,-12194.1,-69.2182,117.131,70.246,5365.11,1162.69,10669.2,50.9988,-204.347,3.87194,-26351.0,19255.3,4673.42,39.7916,-79.1809,84.8791,1583.78,-14264.0,1116.61,31.4624,-15.6884,158.239,6329.29,16218.2,-8195.1,109.04,-17.6524,24.8619,6041.0,-12859.6,-1886.24,-13.5437,-46.8026,57.9588,11176.0,1652.05,472.387,28.1749,-1.49597,18.9955
3.524,34318.9,8269.47,-12667.1,-70.2466,112.907,65.4087,5354.26,1146.19,10636.5,51.1809,-206.576,3.09171,-26122.1,19047.4,4995.63,36.0008,-83.0234,78.5292,1621.0,-14365.4,1203.7,31.8584,-14.5136,159.6,6045.39,16393.0,-8673.37,106.918,-21.856,24.2258,6137.97,-12884.0,-1990.03,-12.2853,-44.7527,57.5305,11121.0,1722.86,484.413,27.3876,-2.20797,19.5228
3.525,34487.4,8098.23,-13104.1,-68.926,108.708,60.2312,5340.84,1160.18,10639.0,51.167,-209.033,2.36863,-25884.2,18771.2,5245.31,32.412,-85.64,72.1032,1645.24,-14479.9,1229.89,32.342,-13.3967,160.873,5759.0,16488.0,-9073.53,103.014,-26.416,24.794,6269.42,-12878.0,-2064.72,-11.1149,-42.7944,57.2738,11077.9,1764.45,467.496,26.6939,-2.66295,20.0516
3.526,34593.3,7764.09,-13512.2,-65.7262,104.53,54.7815,5325.37,1198.57,10669.7,50.9964,-211.67,1.69129,-25639.1,18440.3,5436.96,28.9848,-87.2758,65.6165,1659.1,-14604.8,1207.35,32.8956,-12.3261,162.076,5470.62,16519.3,-9411.2,97.6841,-31.2612,26.3258,6428.46,-12847.7,-2116.11,-10.0149,-40.9092,57.1544,11044.4,1782.67,427.425,26.0751,-2.9123,20.5815
3.527,34699.2,7429.94,-13920.3,-62.5264,100.351,49.3318,5309.91,1236.96,10700.4,50.8257,-214.307,1.01394,-25393.9,18109.5,5628.6,25.5576,-88.9116,59.1297,1672.96,-14729.7,1184.81,33.4492,-11.2554,163.279,5182.24,16550.6,-9748.87,92.3545,-36.1065,27.8575,6587.49,-12817.5,-2167.51,-8.91484,-39.0241,57.0351,11011.0,1800.89,387.354,25.4564,-3.16166,21.1114
3.528,34805.1,7095.8,-14328.5,-59.3266,96.1728,43.882,5294.45,1275.34,10731.2,50.6551,-216.944,0.336595,-25148.8,17778.6,5820.25,22.1305,-90.5473,52.643,1686.82,-14854.5,1162.27,34.0028,-10.1848,164.482,4893.87,16581.9,-10086.5,87.025,-40.9517,29.3893,6746.52,-12787.2,-2218.9,-7.81481,-37.139,56.9157,10977.5,1819.1,347.284,24.8376,-3.41102,21.6413
3.529,34868.3,6764.07,-14710.6,-55.7864,91.8742,38.4364,5283.2,1314.53,10765.0,50.5008,-219.586,-0.338759,-24893.8,17450.9,5990.34,18.7899,-91.9008,46.1345,1700.42,-14976.6,1139.34,34.5398,-9.10684,165.695,4625.73,16591.0,-10390.5,81.6318,-45.7225,30.9529,6906.27,-12753.2,-2265.86,-6.76363,-35.2621,56.7962,10945.4,1832.47,300.765,24.1898,-3.65792,22.1775
3.53,34590.4,6451.7,-14885.1,-49.5224,86.6145,33.0231,5305.73,1360.17,10824.3,50.4773,-222.27,-0.998182,-24560.1,17148.6,5987.94,16.142,-90.9952,39.4526,1711.86,-15076.3,1113.31,34.9436,-7.9702,166.984,4519.57,16421.7,-10425.1,75.73,-49.8979,32.7713,7071.72,-12689.0,-2277.25,-6.10321,-33.451,56.6758,10923.8,1807.07,202.663,23.3092,-3.88516,22.7638
3.531,34312.6,6139.32,-15059.6,-43.2585,81.3549,27.6098,5328.26,1405.81,10883.6,50.4538,-224.954,-1.6576,-24226.4,16846.4,5985.54,13.494,-90.0896,32.7707,1723.3,-15176.0,1087.28,35.3475,-6.83357,168.272,4413.41,16252.5,-10459.7,69.8281,-54.0734,34.5897,7237.17,-12624.8,-2288.64,-5.44279,-31.64,56.5553,10902.3,1781.66,104.561,22.4286,-4.11241,23.3501
3.532,34034.7,5826.94,-15234.1,-36.9946,76.0953,22.1965,5350.8,1451.45,10942.9,50.4303,-227.639,-2.31703,-23892.6,16544.1,5983.13,10.8461,-89.184,26.0887,1734.74,-15275.7,1061.24,35.7514,-5.69693,169.561,4307.25,16083.3,-10494.3,63.9263,-58.2489,36.4081,7402.62,-12560.6,-2300.04,-4.78238,-29.829,56.4348,10880.7,1756.25,6.45974,21.548,-4.33966,23.9365
3.533,33756.8,5514.56,-15408.6,-30.7307,70.8357,16.7832,5373.33,1497.09,11002.2,50.4068,-230.323,-2.97645,-23558.9,16241.8,5980.73,8.19821,-88.2784,19.4068,1746.19,-15375.4,1035.21,36.1553,-4.56029,170.85,4201.09,15914.1,-10528.9,58.0245,-62.4244,38.2265,7568.06,-12496.4,-2311.43,-4.12196,-28.0179,56.3143,10859.2,1730.84,-91.642,20.6673,-4.5669,24.5228
3.534,33271.0,5347.83,-15488.6,-24.1897,65.2093,11.2973,5366.37,1525.87,11075.7,50.4505,-233.226,-3.42155,-23267.2,16041.0,5857.89,6.25354,-85.7341,12.7876,1788.41,-15476.6,982.87,36.6934,-3.53996,172.092,4270.72,15715.5,-10297.2,53.8473,-65.6616,39.085,7724.35,-12435.7,-2313.55,-3.85088,-26.1169,56.2264,10875.2,1697.85,-138.916,19.6863,-4.66841,24.7411
3.535,32681.3,5253.93,-15521.5,-17.5103,59.3995,5.77517,5344.68,1546.21,11156.5,50.5278,-236.239,-3.75949,-22996.5,15890.9,5674.83,4.6605,-82.3705,6.1998,1846.02,-15578.7,917.381,37.2988,-2.57778,173.311,4428.25,15502.3,-9932.36,50.5325,-68.4297,39.4636,7876.04,-12376.8,-2311.04,-3.77446,-24.1709,56.1546,10909.9,1661.08,-160.776,18.6551,-4.70704,24.7754
3.536,32091.6,5160.03,-15554.3,-10.8308,53.5897,0.253016,5322.98,1566.56,11237.2,50.6051,-239.252,-4.09742,-22725.9,15740.9,5491.77,3.06746,-79.0068,-0.388006,1903.63,-15680.7,851.891,37.9041,-1.6156,174.53,4585.77,15289.0,-9567.49,47.2177,-71.1978,39.8422,8027.74,-12317.9,-2308.52,-3.69804,-22.225,56.0829,10944.7,1624.31,-182.636,17.6238,-4.74566,24.8096
3.537,31501.8,5066.13,-15587.1,-4.15131,47.7799,-5.26914,5301.29,1586.91,11317.9,50.6824,-242.265,-4.43536,-22455.2,15590.8,5308.71,1.47442,-75.6432,-6.97581,1961.24,-15782.8,786.401,38.5094,-0.653428,175.749,4743.29,15075.8,-9202.62,43.9029,-73.9659,40.2207,8179.44,-12259.0,-2306.01,-3.62162,-20.279,56.0111,10979.5,1587.53,-204.497,16.5926,-4.78429,24.8439
3.538,30939.0,4970.51,-15587.7,2.26461,41.9546,-11.0145,5267.93,1613.32,11384.4,50.7719,-245.42,-4.76909,-22199.6,15466.9,5128.54,-0.0341263,-72.035,-13.578,2018.06,-15872.1,713.372,39.0714,0.221343,176.949,4929.69,14860.3,-8812.89,41.2817,-76.2681,40.3515,8313.93,-12205.3,-2300.27,-3.58115,-18.3083,55.8999,11017.3,1538.41,-213.818,15.5482,-4.86851,24.9018
3.539,30470.2,4868.87,-15475.5,7.75809,36.0748,-17.5411,5193.76,1660.97,11401.4,50.9044,-249.072,-5.0881,-21996.9,15434.9,4958.47,-1.24693,-67.5711,-20.2306,2072.1,-15916.9,613.954,39.4819,0.790196,178.082,5217.13,14636.9,-8336.18,41.088,-76.9392,39.6152,8388.21,-12169.6,-2283.25,-3.66651,-16.2512,55.6506,11065.8,1446.04,-179.251,14.4581,-5.11227,25.0422
3.54,30001.5,4767.23,-15363.2,13.2516,30.1951,-24.0677,5119.58,1708.63,11418.4,51.0369,-252.723,-5.40711,-21794.1,15402.8,4788.41,-2.45974,-63.1073,-26.8832,2126.14,-15961.7,514.537,39.8923,1.35905,179.215,5504.57,14413.5,-7859.46,40.8943,-77.6103,38.8788,8462.49,-12134.0,-2266.23,-3.75187,-14.1941,55.4012,11114.2,1353.68,-144.685,13.368,-5.35603,25.1827
3.541,29532.7,4665.59,-15250.9,18.745,24.3154,-30.5943,5045.41,1756.28,11435.4,51.1694,-256.375,-5.72612,-21591.4,15370.7,4618.35,-3.67255,-58.6434,-33.5357,2180.18,-16006.5,415.119,40.3028,1.9279,180.348,5792.0,14190.2,-7382.75,40.7005,-78.2814,38.1424,8536.76,-12098.3,-2249.22,-3.83724,-12.137,55.1518,11162.6,1261.32,-110.118,12.278,-5.59979,25.3231
3.542,29064.0,4563.95,-15138.6,24.2385,18.4356,-37.1209,4971.24,1803.93,11452.4,51.3019,-260.027,-6.04513,-21388.6,15338.7,4448.28,-4.88536,-54.1795,-40.1883,2234.23,-16051.3,315.701,40.7132,2.49675,181.482,6079.44,13966.8,-6906.04,40.5068,-78.9525,37.4061,8611.04,-12062.7,-2232.2,-3.9226,-10.0799,54.9025,11211.0,1168.95,-75.5515,11.1879,-5.84356,25.4635
3.543,28790.0,4600.45,-14907.5,28.3446,12.67,-43.4563,4908.1,1906.95,11442.7,51.6746,-263.738,-6.08623,-21254.6,15423.5,4347.88,-6.20249,-50.0639,-46.6969,2250.02,-16049.6,203.907,41.2034,2.79602,182.686,6386.06,13774.7,-6491.44,41.5885,-77.6525,36.3187,8666.26,-12044.6,-2159.77,-3.82274,-8.26406,54.5025,11206.9,1064.97,-61.9022,10.3867,-6.16248,25.4497
3.544,28571.7,4676.41,-14642.3,32.0543,6.93704,-49.7372,4848.11,2025.8,11425.5,52.116,-267.466,-6.04793,-21140.2,15541.8,4267.39,-7.54943,-46.0478,-53.1645,2254.87,-16034.7,88.5758,41.7164,3.01825,183.911,6698.15,13591.5,-6094.59,43.0347,-75.7894,35.1311,8716.04,-12031.5,-2071.52,-3.66996,-6.51716,54.0595,11187.8,957.655,-54.2294,9.66817,-6.50288,25.3917
3.545,28353.4,4752.38,-14377.2,35.764,1.20406,-56.018,4788.12,2144.65,11408.2,52.5574,-271.195,-6.00963,-21025.8,15660.0,4186.89,-8.89637,-42.0317,-59.632,2259.73,-16019.8,-26.7552,42.2294,3.24049,185.136,7010.24,13408.4,-5697.74,44.4808,-73.9262,33.9435,8765.82,-12018.5,-1983.26,-3.51719,-4.77027,53.6166,11168.7,850.344,-46.5565,8.9496,-6.84329,25.3338
3.546,28135.1,4828.34,-14112.0,39.4737,-4.52893,-62.2988,4728.13,2263.49,11390.9,52.9988,-274.923,-5.97133,-20911.5,15778.3,4106.39,-10.2433,-38.0156,-66.0996,2264.59,-16004.9,-142.086,42.7424,3.46272,186.36,7322.33,13225.2,-5300.89,45.927,-72.0631,32.7559,8815.59,-12005.4,-1895.01,-3.36441,-3.02337,53.1736,11149.6,743.033,-38.8836,8.23103,-7.18369,25.2758
3.547,27974.0,4939.06,-13800.4,42.255,-10.2363,-67.9281,4676.92,2373.44,11376.5,53.5148,-278.718,-5.77865,-20798.9,15872.2,4046.3,-11.4439,-34.2315,-72.2426,2262.31,-16001.5,-245.693,43.2187,3.54378,187.545,7600.34,13013.9,-4933.97,47.2646,-69.4511,31.5716,8844.42,-11995.0,-1794.18,-3.07951,-1.51396,52.632,11154.7,628.813,-59.6427,7.83543,-7.42981,25.1407
3.548,27927.5,5119.29,-13396.0,43.1798,-15.8925,-72.2541,4643.26,2465.6,11367.7,54.1801,-282.646,-5.27721,-20690.2,15917.3,4027.01,-12.3516,-30.9115,-77.7366,2245.76,-16021.3,-325.853,43.6218,3.3425,188.648,7810.2,12746.3,-4626.9,48.3851,-65.3416,30.3939,8831.35,-11989.9,-1668.21,-2.53039,-0.47953,51.893,11208.5,500.773,-137.266,8.08575,-7.48739,24.8514
3.549,27880.9,5299.52,-12991.6,44.1046,-21.5486,-76.5802,4609.6,2557.75,11358.9,54.8454,-286.573,-4.77577,-20581.4,15962.4,4007.73,-13.2594,-27.5915,-83.2306,2229.22,-16041.0,-406.013,44.0248,3.14122,189.751,8020.05,12478.6,-4319.83,49.5056,-61.232,29.2162,8818.27,-11984.8,-1542.24,-1.98126,0.554904,51.1541,11262.3,372.733,-214.889,8.33607,-7.54497,24.562
3.55,27834.3,5479.75,-12587.2,45.0294,-27.2048,-80.9063,4575.94,2649.91,11350.1,55.5107,-290.501,-4.27433,-20472.6,16007.5,3988.44,-14.1672,-24.2715,-88.7246,2212.67,-16060.8,-486.173,44.4279,2.93994,190.854,8229.9,12211.0,-4012.77,50.6261,-57.1225,28.0386,8805.19,-11979.8,-1416.27,-1.43213,1.58934,50.4152,11316.1,244.693,-292.512,8.58639,-7.60254,24.2727
3.551,27787.8,5659.98,-12182.7,45.9541,-32.8609,-85.2323,4542.28,2742.06,11341.3,56.176,-294.429,-3.77289,-20363.9,16052.6,3969.15,-15.075,-20.9515,-94.2186,2196.12,-16080.6,-566.333,44.8309,2.73866,191.957,8439.75,11943.4,-3705.7,51.7466,-53.0129,26.8609,8792.12,-11974.7,-1290.31,-0.883002,2.62377,49.6763,11369.9,116.653,-370.135,8.83671,-7.66012,23.9833
3.552,27875.8,5767.75,-11889.3,44.095,-36.6987,-88.5206,4510.72,2819.49,11369.0,57.0645,-298.308,-3.15589,-20278.2,16082.7,3935.37,-15.0452,-17.1869,-99.0767,2265.21,-16075.7,-662.763,45.1143,2.1983,193.319,8587.17,11698.6,-3559.53,50.6936,-46.0172,26.6689,8746.44,-11965.4,-1127.79,0.0610553,2.65207,48.6173,11408.0,-10.4403,-472.884,9.67256,-7.43408,23.4267
3.553,27980.7,5866.46,-11609.7,41.8878,-40.3092,-91.6791,4479.42,2895.08,11401.2,57.9808,-302.182,-2.52444,-20195.3,16110.8,3899.76,-14.8982,-13.3667,-103.855,2345.01,-16067.8,-761.226,45.3826,1.61555,194.714,8726.79,11456.7,-3433.48,49.3688,-38.6607,26.6002,8696.7,-11955.5,-960.701,1.05448,2.55461,47.5183,11444.1,-137.415,-578.774,10.5816,-7.1726,22.8367
3.554,28085.6,5965.18,-11330.1,39.6806,-43.9197,-94.8376,4448.12,2970.66,11433.5,58.8972,-306.056,-1.89299,-20112.5,16139.0,3864.16,-14.7512,-9.54658,-108.634,2424.8,-16059.9,-859.689,45.651,1.0328,196.109,8866.4,11214.8,-3307.43,48.0441,-31.3042,26.5315,8646.95,-11945.6,-793.614,2.0479,2.45714,46.4193,11480.2,-264.39,-684.664,11.4906,-6.91111,22.2467
3.555,28190.5,6063.89,-11050.5,37.4734,-47.5301,-97.9961,4416.82,3046.25,11465.7,59.8136,-309.93,-1.26154,-20029.7,16167.1,3828.56,-14.6042,-5.72643,-113.413,2504.59,-16052.0,-958.152,45.9193,0.450051,197.503,9006.01,10973.0,-3181.38,46.7194,-23.9477,26.4627,8597.2,-11935.8,-626.528,3.04133,2.35967,45.3203,11516.2,-391.365,-790.554,12.3997,-6.64963,21.6567
3.556,28360.0,6034.15,-10907.5,34.8245,-50.6472,-101.047,4395.75,3108.74,11490.0,60.7594,-314.008,-0.549611,-19778.1,16169.3,3770.02,-13.9289,-1.85685,-118.091,2594.82,-16050.9,-1037.42,46.2634,-0.114954,198.941,9056.49,10708.6,-3134.27,44.4535,-14.8062,26.8482,8545.97,-11922.3,-461.202,4.11175,1.81529,44.1266,11559.9,-532.845,-842.595,13.4678,-6.1797,20.9793
3.557,28610.2,5843.84,-10935.4,31.6233,-53.1476,-103.962,4387.45,3154.87,11504.3,61.7421,-318.343,0.262927,-19315.6,16138.9,3682.79,-12.5932,2.07452,-122.642,2698.1,-16058.2,-1092.68,46.7022,-0.657779,200.433,8995.56,10416.1,-3185.84,41.0113,-3.43338,27.8015,8492.88,-11904.4,-298.079,5.27842,0.712269,42.8144,11613.0,-692.459,-827.325,14.7349,-5.44921,20.1927
3.558,28860.4,5653.53,-10963.2,28.4222,-55.648,-106.877,4379.16,3201.0,11518.6,62.7248,-322.677,1.07547,-18853.1,16108.4,3595.57,-11.2575,6.00589,-127.194,2801.37,-16065.6,-1147.94,47.141,-1.2006,201.925,8934.63,10123.5,-3237.4,37.5691,7.93945,28.7548,8439.79,-11886.4,-134.956,6.4451,-0.390755,41.5023,11666.0,-852.072,-812.054,16.0019,-4.71873,19.4061
3.559,29110.6,5463.22,-10991.0,25.221,-58.1484,-109.793,4370.86,3247.13,11532.9,63.7075,-327.012,1.888,-18390.6,16078.0,3508.35,-9.92183,9.93726,-131.745,2904.65,-16072.9,-1203.21,47.5798,-1.74343,203.417,8873.69,9831.03,-3288.96,34.1269,19.3123,29.7081,8386.71,-11868.5,28.1673,7.61177,-1.49378,40.1902,11719.1,-1011.69,-796.784,17.269,-3.98824,18.6195
3.56,29360.8,5272.91,-11018.9,22.0198,-60.6487,-112.708,4362.57,3293.26,11547.1,64.6902,-331.346,2.70054,-17928.1,16047.6,3421.13,-8.58613,13.8686,-136.297,3007.92,-16080.2,-1258.47,48.0186,-2.28625,204.908,8812.76,9538.52,-3340.53,30.6847,30.6851,30.6614,8333.62,-11850.5,191.29,8.77844,-2.5968,38.878,11772.2,-1171.3,-781.513,18.536,-3.25776,17.8329
3.561,29776.6,4690.56,-13165.2,29.3754,-68.8042,-118.535,4303.91,3328.03,11554.6,65.7921,-336.167,3.53984,-16792.4,15935.2,2871.7,-4.69269,23.0104,-138.246,3144.24,-16087.1,-1327.88,48.4424,-3.0091,206.394,8482.19,9087.83,-3277.17,25.5041,43.5188,31.6291,8354.19,-11822.3,366.514,10.2383,-4.48278,37.4019,11897.7,-1294.42,-546.968,18.5845,-1.44246,17.1319
3.562,30192.4,4108.22,-15311.6,36.731,-76.9596,-124.362,4245.25,3362.79,11562.0,66.8941,-340.988,4.37914,-15656.6,15822.7,2322.27,-0.799251,32.1522,-140.195,3280.56,-16094.0,-1397.28,48.8663,-3.73195,207.879,8151.63,8637.14,-3213.82,20.3235,56.3525,32.5969,8374.76,-11794.0,541.737,11.6982,-6.36876,35.9258,12023.1,-1417.54,-312.423,18.6329,0.372835,16.4308
3.563,30608.2,3525.88,-17457.9,44.0866,-85.115,-130.188,4186.6,3397.55,11569.4,67.996,-345.81,5.21844,-14520.8,15710.3,1772.85,3.09419,41.294,-142.144,3416.88,-16100.9,-1466.69,49.2901,-4.4548,209.364,7821.06,8186.45,-3150.47,15.1428,69.1862,33.5646,8395.33,-11765.7,716.961,13.1581,-8.25474,34.4497,12148.6,-1540.66,-77.8778,18.6814,2.18813,15.7298
3.564,31024.0,2943.53,-19604.3,51.4422,-93.2705,-136.015,4127.94,3432.31,11576.9,69.098,-350.631,6.05774,-13385.1,15597.9,1223.42,6.98763,50.4358,-144.093,3553.2,-16107.8,-1536.1,49.7139,-5.17765,210.849,7490.5,7735.76,-3087.11,9.96223,82.02,34.5324,8415.9,-11737.5,892.184,14.6179,-10.1407,32.9735,12274.1,-1663.78,156.667,18.7298,4.00343,15.0287
3.565,29687.6,2139.11,-20330.6,70.0872,-122.93,-153.334,4072.34,3454.19,11643.0,70.3963,-355.634,6.94552,-11599.5,15332.4,-231.709,9.98319,63.5598,-146.662,3629.55,-16141.7,-1541.47,50.1356,-5.96889,212.45,7099.51,7336.42,-2949.75,3.84025,92.7716,34.6832,8448.71,-11704.8,1013.49,16.1022,-12.6469,31.3221,12540.6,-1796.19,576.749,17.0939,7.0931,14.58
3.566,26949.6,1157.01,-19921.0,97.7637,-169.793,-179.848,4019.18,3465.76,11756.1,71.8516,-360.783,7.87209,-9294.07,14944.5,-2411.4,12.2604,79.8694,-149.725,3657.93,-16197.3,-1495.62,50.5556,-6.81484,214.141,6660.19,6978.17,-2753.17,-3.03482,101.858,34.1803,8491.3,-11668.6,1091.67,17.6061,-15.6492,29.5305,12919.9,-1936.04,1145.26,14.1105,11.2023,14.333
3.567,24211.6,174.92,-19511.3,125.44,-216.657,-206.361,3966.02,3477.32,11869.2,73.3069,-365.933,8.79865,-6988.63,14556.6,-4591.08,14.5377,96.179,-152.789,3686.31,-16252.8,-1449.77,50.9756,-7.66079,215.833,6220.87,6619.91,-2556.59,-9.90989,110.944,33.6775,8533.9,-11632.4,1169.85,19.1099,-18.6515,27.7389,13299.2,-2075.88,1713.77,11.127,15.3114,14.0861
3.568,21473.6,-807.174,-19101.7,153.117,-263.52,-232.875,3912.86,3488.89,11982.2,74.7622,-371.082,9.72522,-4683.19,14168.7,-6770.77,16.8149,112.489,-155.852,3714.69,-16308.3,-1403.91,51.3956,-8.50674,217.525,5781.55,6261.66,-2360.02,-16.785,120.03,33.1747,8576.5,-11596.2,1248.02,20.6137,-21.6538,25.9473,13678.5,-2215.73,2282.28,8.14362,19.4206,13.8392
3.569,18015.4,-1727.51,-17759.6,178.124,-313.42,-262.891,3859.66,3491.93,12109.0,76.2307,-376.321,10.6303,-2337.03,13700.0,-8824.78,18.6038,126.735,-160.462,3764.55,-16365.0,-1335.77,51.8407,-9.34326,219.228,5337.26,5906.79,-2203.42,-23.4121,128.668,32.2757,8620.85,-11557.7,1312.23,22.0929,-24.8267,24.1501,14079.7,-2329.62,2810.93,4.71395,23.4397,13.6927
3.57,8795.37,-2153.79,-8957.76,181.781,-387.612,-320.936,3806.16,3426.75,12345.7,77.8044,-382.273,11.364,334.927,12584.4,-9873.42,16.4852,124.478,-177.443,3986.26,-16430.6,-1089.32,52.4861,-10.1044,221.015,4853.18,5579.0,-2366.64,-28.0559,133.725,28.2069,8679.29,-11500.8,1264.72,23.375,-29.3647,22.3083,14656.0,-2235.88,3020.68,-2.28566,26.7382,14.3502
3.571,-424.64,-2580.06,-155.952,185.439,-461.805,-378.98,3752.67,3361.57,12582.3,79.3781,-388.225,12.0977,3006.88,11468.9,-10922.1,14.3667,122.221,-194.425,4207.96,-16496.1,-842.863,53.1316,-10.8656,222.803,4369.1,5251.21,-2529.87,-32.6996,138.782,24.1382,8737.73,-11443.9,1217.21,24.657,-33.9027,20.4665,15232.4,-2142.14,3230.43,-9.28528,30.0367,15.0077
3.572,-9644.65,-3006.34,8645.86,189.096,-535.997,-437.025,3699.17,3296.39,12819.0,80.9518,-394.176,12.8313,5678.84,10353.4,-11970.7,12.2482,119.964,-211.406,4429.67,-16561.7,-596.408,53.7771,-11.6267,224.59,3885.02,4923.42,-2693.1,-37.3433,143.839,20.0694,8796.17,-11387.0,1169.7,25.9391,-38.4406,18.6247,15808.7,-2048.39,3440.17,-16.2849,33.3351,15.6651
3.573,-18864.7,-3432.62,17447.7,192.753,-610.19,-495.069,3645.68,3231.21,13055.6,82.5256,-400.128,13.565,8350.79,9237.87,-13019.3,10.1297,117.706,-228.388,4651.38,-16627.3,-349.953,54.4226,-12.3878,226.378,3400.94,4595.63,-2856.33,-41.9871,148.896,16.0006,8854.61,-11330.1,1122.19,27.2211,-42.9786,16.783,16385.1,-1954.65,3649.92,-23.2845,36.6336,16.3226
3.574,-22547.2,-3276.23,17125.1,188.568,-625.904,-535.275,3565.91,3126.81,13335.0,83.2806,-406.762,13.9798,10212.5,10465.4,-11393.7,6.20142,100.485,-237.032,4963.4,-16792.2,-15.6971,55.7712,-13.326,228.286,2894.4,4386.05,-3146.35,-41.0717,153.584,7.31688,8954.88,-11251.4,993.589,27.7459,-47.7348,15.0108,16702.9,-1414.05,4295.85,-27.8459,36.6066,18.266
3.575,-23461.0,-2828.5,12240.4,180.462,-612.38,-566.562,3473.01,3002.8,13635.7,83.6264,-413.737,14.2351,11669.0,12864.4,-8431.03,1.36835,75.7811,-241.507,5320.57,-17006.8,362.459,57.4714,-14.3527,230.254,2376.64,4235.59,-3499.76,-37.3766,158.088,-3.67436,9076.05,-11161.8,824.437,27.892,-52.6002,13.2734,16891.4,-650.022,5159.86,-31.1882,34.9168,20.8523
3.576,-24374.9,-2380.77,7355.66,172.356,-598.856,-597.848,3380.12,2878.79,13936.3,83.9722,-420.712,14.4904,13125.5,15263.4,-5468.31,-3.46473,51.0773,-245.982,5677.75,-17221.4,740.615,59.1716,-15.3794,232.222,1858.89,4085.12,-3853.18,-33.6816,162.592,-14.6656,9197.23,-11072.1,655.285,28.0381,-57.4655,11.536,17080.0,114.006,6023.88,-34.5304,33.2271,23.4386
3.577,-25288.7,-1933.04,2470.93,164.25,-585.332,-629.135,3287.22,2754.78,14237.0,84.318,-427.688,14.7457,14582.1,17662.4,-2505.59,-8.2978,26.3736,-250.458,6034.92,-17436.0,1118.77,60.8718,-16.4061,234.19,1341.13,3934.66,-4206.6,-29.9866,167.096,-25.6568,9318.41,-10982.5,486.132,28.1842,-62.3309,9.79858,17268.6,878.033,6887.89,-37.8727,31.5373,26.0249
3.578,-23210.6,-289.251,-118.721,156.449,-563.293,-637.377,3186.13,2656.13,14515.7,84.2086,-434.94,14.9188,15178.4,20379.2,403.922,-14.4388,10.7009,-256.309,6398.07,-17685.7,1388.61,62.6982,-17.6858,236.125,842.27,4117.79,-4498.38,-25.201,171.632,-36.7854,9459.15,-10916.1,303.645,28.0097,-66.841,8.13629,17392.6,1556.11,7702.88,-40.5917,29.3465,28.5867
3.579,-10660.6,5540.73,5324.38,149.716,-511.45,-564.966,3056.39,2646.23,14717.4,82.5062,-443.164,14.8043,12764.0,24208.5,3127.19,-25.1575,26.6372,-266.979,6782.15,-18058.0,1279.34,64.9664,-19.8512,237.944,409.572,5468.51,-4574.42,-16.5981,176.285,-48.3947,9668.37,-10931.3,74.4876,26.7134,-70.1082,6.73685,17290.9,1933.35,8346.28,-41.1293,25.4019,31.0627
3.58,1889.38,11370.7,10767.5,142.982,-459.608,-492.555,2926.65,2636.34,14919.0,80.8039,-451.388,14.6897,10349.6,28037.9,5850.47,-35.8762,42.5734,-277.649,7166.23,-18430.4,1170.07,67.2345,-22.0166,239.763,-23.1269,6819.22,-4650.46,-7.99529,180.937,-60.004,9877.6,-10946.5,-154.67,25.4171,-73.3753,5.33741,17189.2,2310.6,8989.68,-41.6668,21.4572,33.5387
3.581,14439.4,17200.7,16210.6,136.249,-407.765,-420.144,2796.9,2626.45,15120.6,79.1015,-459.612,14.5752,7935.21,31867.2,8573.74,-46.5949,58.5097,-288.319,7550.3,-18802.7,1060.8,69.5027,-24.1819,241.583,-455.826,8169.94,-4726.51,0.607553,185.589,-71.6132,10086.8,-10961.8,-383.828,24.1208,-76.6425,3.93797,17087.5,2687.85,9633.07,-42.2044,17.5126,36.0148
3.582,26989.3,23030.7,21653.7,129.515,-355.922,-347.733,2667.16,2616.56,15322.3,77.3991,-467.836,14.4607,5520.82,35696.6,11297.0,-57.3136,74.4459,-298.988,7934.38,-19175.1,951.529,71.7709,-26.3473,243.402,-888.524,9520.66,-4802.55,9.21039,190.242,-83.2225,10296.0,-10977.0,-612.985,22.8245,-79.9096,2.53853,16985.8,3065.09,10276.5,-42.7419,13.568,38.4908
3.583,39338.6,23712.2,26765.8,121.568,-319.608,-291.381,2543.27,2762.73,15326.5,76.4507,-476.191,14.7426,1655.7,38793.2,12443.8,-69.4253,97.5694,-301.684,7990.44,-19527.9,567.414,73.1322,-28.1676,244.819,-696.344,11902.8,-4799.28,11.6936,194.534,-86.2318,10593.1,-11123.9,-716.009,20.9333,-81.95,0.980665,16956.3,3359.52,10261.5,-46.7734,10.8898,41.0504
3.584,51630.6,22922.8,31783.3,113.273,-287.731,-239.617,2421.06,2953.5,15274.4,75.7178,-484.583,15.1378,-2623.9,41680.4,13140.1,-81.935,122.746,-302.102,7952.79,-19875.0,104.772,74.2343,-29.8893,246.121,-325.628,14579.7,-4773.35,12.4283,198.723,-86.7841,10915.2,-11308.5,-782.996,18.8722,-83.6399,-0.62246,16947.4,3630.3,10058.5,-51.8031,8.57348,43.6339
3.585,63922.5,22133.4,36800.9,104.978,-255.854,-187.854,2298.85,3144.26,15222.2,74.9848,-492.976,15.533,-6903.51,44567.7,13836.4,-94.4447,147.923,-302.52,7915.13,-20222.2,-357.87,75.3365,-31.611,247.423,45.0884,17256.6,-4747.42,13.1631,202.912,-87.3363,11237.3,-11493.2,-849.982,16.811,-85.3298,-2.22558,16938.4,3901.07,9855.45,-56.8328,6.25714,46.2173
3.586,76214.5,21344.0,41818.5,96.6829,-223.977,-136.09,2176.65,3335.03,15170.0,74.2518,-501.368,15.9282,-11183.1,47455.0,14532.8,-106.954,173.1,-302.938,7877.48,-20569.4,-820.512,76.4386,-33.3327,248.725,415.805,19933.5,-4721.48,13.8978,207.101,-87.8886,11559.5,-11677.8,-916.968,14.7499,-87.0196,-3.82871,16929.5,4171.84,9652.41,-61.8626,3.94079,48.8008
3.587,83721.5,19334.9,44859.5,92.8597,-202.803,-107.309,2041.34,3532.28,15094.5,74.3272,-509.765,16.6246,-13134.9,48743.0,15107.5,-115.311,187.329,-297.226,7810.64,-20858.7,-1193.49,77.1204,-35.4651,250.019,1116.91,22549.6,-4594.21,10.1264,210.477,-86.2491,11895.6,-11900.2,-909.647,13.134,-88.5633,-5.42077,16855.0,4480.39,9344.42,-66.2815,2.53715,51.295
3.588,81658.7,14886.1,43947.7,97.98,-203.032,-124.492,1879.83,3742.52,14972.4,76.0194,-518.172,17.9236,-10431.1,46832.5,15439.0,-115.361,179.662,-279.253,7685.45,-21032.1,-1387.15,76.9615,-38.4191,251.298,2478.79,25044.2,-4264.26,-2.65745,212.224,-80.2261,12259.9,-12198.3,-753.712,12.4089,-89.8146,-6.99072,16649.4,4864.49,8826.5,-69.4788,2.95893,53.6105
3.589,79595.9,10437.4,43035.9,103.1,-203.262,-141.675,1718.32,3952.75,14850.3,77.7115,-526.579,19.2226,-7727.28,44922.0,15770.4,-115.411,171.994,-261.28,7560.25,-21205.5,-1580.8,76.8025,-41.373,252.578,3840.68,27538.7,-3934.31,-15.4413,213.971,-74.203,12624.1,-12496.4,-597.777,11.6837,-91.0659,-8.56066,16443.7,5248.59,8308.58,-72.6762,3.38071,55.926
3.59,77533.1,5988.71,42124.1,108.221,-203.491,-158.858,1556.81,4162.99,14728.1,79.4037,-534.986,20.5216,-5023.47,43011.5,16101.9,-115.46,164.327,-243.307,7435.06,-21378.9,-1774.45,76.6436,-44.327,253.857,5202.56,30033.3,-3604.36,-28.2251,215.718,-68.18,12988.3,-12794.5,-441.841,10.9586,-92.3172,-10.1306,16238.1,5632.69,7790.66,-75.8735,3.80249,58.2416
3.591,75470.2,1539.99,41212.2,113.341,-203.721,-176.041,1395.3,4373.22,14606.0,81.0959,-543.393,21.8206,-2319.65,41101.0,16433.3,-115.51,156.66,-225.334,7309.86,-21552.4,-1968.11,76.4847,-47.2809,255.136,6564.45,32527.9,-3274.4,-41.0089,217.465,-62.157,13352.6,-13092.5,-285.906,10.2334,-93.5686,-11.7005,16032.4,6016.79,7272.75,-79.0708,4.22428,60.5571
3.592,62308.7,497.576,36145.8,103.698,-216.623,-180.824,1191.71,4556.42,14638.5,82.6383,-552.593,23.4325,457.472,38352.8,16405.5,-108.946,133.866,-213.803,7418.86,-21698.5,-1897.91,76.2061,-53.0205,255.958,7938.82,33596.6,-1478.89,-60.3273,211.448,-61.8141,13630.6,-13350.5,-208.426,12.2795,-93.8412,-13.413,15534.5,6140.23,7376.98,-78.5509,4.38344,61.5469
3.593,47759.9,-119.044,30560.1,92.2104,-231.108,-184.056,982.872,4736.25,14690.3,84.1621,-561.893,25.0836,3243.75,35500.0,16332.7,-101.556,109.182,-203.078,7557.13,-21841.2,-1794.73,75.9126,-59.1083,256.724,9314.76,34486.9,499.817,-80.4625,204.46,-62.1812,13897.9,-13603.5,-140.752,14.6721,-93.9916,-15.1433,15000.0,6231.08,7558.99,-77.5664,4.50978,62.371
3.594,33211.0,-735.665,24974.3,80.7225,-245.594,-187.289,774.031,4916.08,14742.0,85.6858,-571.193,26.7346,6030.04,32647.2,16259.9,-94.1654,84.4974,-192.352,7695.4,-21983.9,-1691.55,75.6191,-65.196,257.489,10690.7,35377.3,2478.52,-100.598,197.472,-62.5484,14165.2,-13856.5,-73.0785,17.0646,-94.142,-16.8736,14465.5,6321.94,7741.0,-76.5818,4.63612,63.1951
3.595,18662.2,-1352.29,19388.6,69.2346,-260.08,-190.522,565.19,5095.91,14793.8,87.2096,-580.493,28.3857,8816.32,29794.4,16187.1,-86.7749,59.813,-181.627,7833.67,-22126.6,-1588.37,75.3256,-71.2838,258.255,12066.6,36267.7,4457.23,-120.733,190.485,-62.9155,14432.5,-14109.5,-5.4049,19.4571,-94.2924,-18.6039,13931.0,6412.79,7923.01,-75.5973,4.76246,64.0191
3.596,7008.16,-1921.57,14297.3,58.1599,-271.004,-182.379,389.778,5330.58,14924.5,88.7522,-590.136,29.8283,9973.44,27589.9,15276.2,-80.6724,42.6657,-177.399,8130.4,-22252.3,-1533.94,74.8695,-77.9202,258.865,12829.5,36820.5,6555.41,-136.834,180.23,-64.4577,14591.8,-14298.7,-78.1629,22.532,-93.4282,-20.3658,13346.7,6441.68,8083.46,-73.9078,3.76981,64.2316
3.597,-1027.37,-2431.69,9824.08,47.6017,-277.476,-160.016,256.153,5633.83,15153.8,90.3185,-600.211,31.0102,9094.1,26195.7,13317.8,-76.1797,34.9398,-181.293,8625.22,-22356.8,-1540.45,74.21,-85.2424,259.281,12826.0,36951.3,8802.91,-147.893,165.892,-67.4687,14616.2,-14408.2,-326.46,26.4599,-91.2958,-22.1671,12699.9,6393.12,8216.96,-71.3372,1.37842,63.6797
3.598,-9062.9,-2941.81,5350.86,37.0436,-283.948,-137.653,122.527,5937.07,15383.0,91.8847,-610.285,32.1921,8214.75,24801.6,11359.3,-71.6871,27.2139,-185.187,9120.05,-22461.2,-1546.95,73.5505,-92.5647,259.696,12822.5,37082.2,11050.4,-158.951,151.553,-70.4797,14640.6,-14517.7,-574.758,30.3878,-89.1634,-23.9685,12053.2,6344.55,8350.46,-68.7666,-1.01297,63.1277
3.599,-17098.4,-3451.93,877.649,26.4855,-290.42,-115.29,-11.0988,6240.31,15612.3,93.451,-620.359,33.3741,7335.41,23407.4,9400.82,-67.1944,19.488,-189.081,9614.87,-22565.7,-1553.46,72.891,-99.8869,260.112,12819.1,37213.0,13297.9,-170.01,137.215,-73.4908,14664.9,-14627.2,-823.055,34.3157,-87.031,-25.7699,11406.5,6295.99,8483.96,-66.1959,-3.40436,62.5758
3.6,-25134.0,-3962.04,-3595.56,15.9273,-296.892,-92.9272,-144.725,6543.56,15841.6,95.0172,-630.434,34.556,6456.07,22013.3,7442.34,-62.7018,11.7621,-192.975,10109.7,-22670.1,-1559.96,72.2315,-107.209,260.528,12815.6,37343.8,15545.4,-181.068,122.877,-76.5018,14689.3,-14736.7,-1071.35,38.2436,-84.8986,-27.5712,10759.7,6247.42,8617.46,-63.6253,-5.79575,62.0238
3.601,-21279.6,-6513.56,-3468.19,24.5418,-296.014,-73.5021,-32.6895,6762.93,15840.8,100.193,-640.675,36.4281,4541.41,20972.5,5617.25,-56.9202,21.7311,-201.404,10587.0,-22908.3,-1694.35,72.0544,-112.234,260.017,11055.2,36262.7,15115.3,-180.327,116.771,-74.396,14556.0,-14724.6,-1224.84,40.9153,-80.2047,-29.5848,10086.8,5888.3,8119.36,-61.0613,-6.87212,59.4797
3.602,-17425.2,-9065.07,-3340.81,33.1563,-295.136,-54.0769,79.3454,6982.31,15839.9,105.368,-650.916,38.3001,2626.75,19931.8,3792.16,-51.1387,31.7,-209.834,11064.3,-23146.4,-1828.73,71.8772,-117.259,259.505,9294.75,35181.5,14685.2,-179.586,110.666,-72.2902,14422.6,-14712.5,-1378.33,43.587,-75.5108,-31.5984,9413.81,5529.18,7621.26,-58.4974,-7.9485,56.9355
3.603,-13570.9,-11616.6,-3213.43,41.7707,-294.258,-34.6517,191.38,7201.68,15839.1,110.543,-661.158,40.1721,712.092,18891.0,1967.08,-45.3572,41.6689,-218.263,11541.7,-23384.6,-1963.12,71.7001,-122.283,258.993,7534.33,34100.3,14255.1,-178.845,104.56,-70.1844,14289.2,-14700.4,-1531.82,46.2587,-70.8169,-33.612,8740.85,5170.06,7123.16,-55.9334,-9.02487,54.3913
3.604,-9716.48,-14168.1,-3086.05,50.3852,-293.38,-15.2265,303.415,7421.05,15838.3,115.719,-671.399,42.0442,-1202.57,17850.3,141.986,-39.5756,51.6379,-226.692,12019.0,-23622.7,-2097.51,71.5229,-127.308,258.482,5773.92,33019.1,13825.0,-178.104,98.4545,-68.0786,14155.9,-14688.2,-1685.31,48.9304,-66.123,-35.6256,8067.89,4810.95,6625.06,-53.3695,-10.1013,51.8471
3.605,-3526.67,-16756.2,-1576.36,69.846,-286.449,-5.31307,651.753,7441.92,15721.7,121.52,-682.265,44.846,-2637.32,16758.9,-1860.81,-34.0943,64.5676,-231.96,12313.9,-23839.0,-2269.28,71.4583,-130.69,257.489,3809.75,30897.9,12813.1,-169.969,98.443,-63.2033,14013.1,-14656.7,-1725.96,49.474,-60.4181,-37.6571,7582.9,4506.42,6256.85,-51.5128,-10.1797,49.1069
3.606,4531.5,-19373.5,1039.17,97.984,-274.676,-3.00897,1189.13,7303.98,15512.6,127.821,-693.631,48.3917,-3688.15,15627.2,-4005.76,-28.8531,79.866,-234.699,12463.0,-24037.9,-2470.96,71.4837,-132.757,256.112,1682.59,27944.7,11335.7,-155.919,103.307,-56.1122,13862.9,-14609.6,-1676.34,48.3152,-53.9045,-39.7029,7248.29,4245.58,5992.54,-50.222,-9.45976,46.2099
3.607,12589.7,-21990.8,3654.7,126.122,-262.904,-0.704879,1726.51,7166.05,15303.5,134.123,-704.996,51.9374,-4738.98,14495.4,-6150.72,-23.6119,95.1645,-237.438,12612.0,-24236.8,-2672.65,71.509,-134.824,254.734,-444.582,24991.5,9858.25,-141.869,108.171,-49.0212,13712.6,-14562.4,-1626.72,47.1564,-47.3909,-41.7487,6913.68,3984.74,5728.23,-48.9313,-8.73984,43.3128
3.608,20647.8,-24608.1,6270.24,154.26,-251.131,1.59922,2263.89,7028.11,15094.4,140.424,-716.362,55.4831,-5789.81,13363.6,-8295.68,-18.3706,110.463,-240.177,12761.0,-24435.6,-2874.33,71.5344,-136.892,253.357,-2571.75,22038.3,8380.83,-127.819,113.035,-41.9302,13562.3,-14515.3,-1577.11,45.9976,-40.8773,-43.7944,6579.06,3723.9,5463.93,-47.6405,-8.01992,40.4158
3.609,28141.0,-26943.2,8693.37,181.456,-238.066,3.18353,2908.11,6901.78,14843.0,146.746,-728.272,59.4774,-6740.32,12239.4,-10437.0,-13.5855,125.102,-242.099,12888.7,-24606.0,-3082.65,71.505,-138.442,252.047,-4569.38,19057.5,6904.63,-112.692,118.067,-34.9938,13407.5,-14459.7,-1510.48,44.4941,-34.482,-45.7805,6299.15,3477.51,5246.87,-46.1558,-7.39631,37.6699
3.61,31113.9,-27020.4,9577.31,201.113,-214.667,-0.990433,4407.01,6868.34,14253.1,153.232,-744.541,67.061,-6888.28,11176.1,-12548.9,-12.4486,134.471,-237.484,12845.4,-24548.2,-3344.03,71.0369,-135.852,251.281,-5530.68,15856.4,5438.22,-88.9494,124.45,-29.2942,13215.8,-14335.9,-1307.74,40.233,-29.0332,-47.2892,6456.86,3346.74,5407.81,-43.1203,-7.5432,36.1334
3.611,34086.8,-27097.7,10461.3,220.771,-191.267,-5.16439,5905.91,6834.9,13663.1,159.717,-760.81,74.6446,-7036.25,10112.7,-14660.8,-11.3118,143.839,-232.869,12802.1,-24490.4,-3605.41,70.5687,-133.263,250.514,-6491.98,12655.3,3971.81,-65.2072,130.833,-23.5946,13024.2,-14212.1,-1105.0,35.9718,-23.5844,-48.7979,6614.56,3215.97,5568.76,-40.0848,-7.69009,34.597
3.612,37059.7,-27174.9,11345.2,240.428,-167.867,-9.33835,7404.81,6801.47,13073.1,166.202,-777.079,82.2282,-7184.21,9049.38,-16772.7,-10.1749,153.208,-228.254,12758.9,-24432.6,-3866.8,70.1006,-130.674,249.748,-7453.28,9454.12,2505.41,-41.465,137.216,-17.895,12832.6,-14088.3,-902.264,31.7107,-18.1355,-50.3066,6772.26,3085.2,5729.7,-37.0493,-7.83698,33.0605
3.613,40032.6,-27252.2,12229.1,260.086,-144.467,-13.5123,8903.72,6768.03,12483.2,172.688,-793.348,89.8118,-7332.18,7986.04,-18884.6,-9.03805,162.576,-223.639,12715.6,-24374.9,-4128.18,69.6325,-128.084,248.982,-8414.58,6252.99,1039.0,-17.7229,143.599,-12.1954,12641.0,-13964.6,-699.527,27.4496,-12.6867,-51.8152,6929.97,2954.43,5890.64,-34.0138,-7.98386,31.524
3.614,39322.8,-24495.8,12687.4,268.785,-127.542,-16.5681,10725.9,6773.61,11635.7,181.361,-807.242,98.507,-7268.4,7175.75,-19734.3,-6.89883,161.807,-216.106,12534.2,-24085.9,-4399.75,69.7187,-120.532,249.01,-9104.97,4188.17,-335.957,6.82229,149.792,-8.14369,12438.6,-13908.2,-781.092,25.6276,-7.53845,-53.3504,7149.93,2705.17,5873.39,-30.67,-7.61402,30.4979
3.615,36771.6,-20322.6,12932.7,272.003,-113.854,-19.0647,12709.7,6798.7,10659.5,191.128,-819.948,107.758,-7098.76,6491.99,-19952.9,-4.25844,155.968,-207.114,12283.7,-23681.3,-4676.41,70.0822,-110.498,249.436,-9659.91,2691.52,-1665.19,31.769,155.89,-4.91585,12230.8,-13885.5,-1004.81,25.0253,-2.54044,-54.8989,7401.02,2396.67,5767.05,-27.1721,-6.98582,29.727
3.616,34220.3,-16149.4,13178.1,275.222,-100.167,-21.5614,14693.5,6823.8,9683.25,200.896,-832.655,117.009,-6929.12,5808.22,-20171.5,-1.61804,150.13,-198.122,12033.3,-23276.8,-4953.07,70.4456,-100.464,249.861,-10214.9,1194.86,-2994.42,56.7157,161.987,-1.688,12023.0,-13862.8,-1228.52,24.423,2.45757,-56.4474,7652.11,2088.17,5660.71,-23.6742,-6.35762,28.9561
3.617,31669.1,-11976.2,13423.5,278.441,-86.4791,-24.058,16677.3,6848.89,8707.02,210.663,-845.361,126.26,-6759.48,5124.46,-20390.1,1.02235,144.292,-189.13,11782.8,-22872.2,-5229.73,70.809,-90.4302,250.287,-10769.8,-301.797,-4323.65,81.6624,168.085,1.53984,11815.2,-13840.2,-1452.24,23.8207,7.45557,-57.9958,7903.2,1779.67,5554.37,-20.1763,-5.72942,28.1852
3.618,28920.5,-8160.58,13465.1,280.29,-74.0157,-27.9261,18678.9,6887.1,8046.11,219.912,-852.671,133.25,-6745.9,4458.14,-20187.4,3.76819,136.857,-181.802,11446.2,-22475.3,-5433.77,71.1681,-80.1044,251.179,-11287.5,-1504.06,-5555.55,104.971,174.336,3.94993,11552.2,-13797.9,-1609.68,24.8668,11.9723,-59.3583,8144.52,1472.33,5466.02,-16.8601,-4.93176,27.5444
3.619,25480.9,-5596.52,12793.8,277.343,-65.8372,-36.5939,20743.1,6971.21,8488.77,227.348,-841.09,132.323,-7278.54,3852.85,-18510.0,6.88308,123.832,-180.299,10808.1,-22105.2,-5383.63,71.5117,-68.7572,253.705,-11675.1,-1675.96,-6446.78,122.545,181.124,3.49788,11096.1,-13687.1,-1535.13,31.6825,14.8045,-60.0696,8351.67,1169.05,5440.64,-14.1799,-3.54099,27.3586
3.62,22041.2,-3032.45,12122.4,274.397,-57.6587,-45.2617,22807.3,7055.31,8931.43,234.783,-829.509,131.396,-7811.19,3247.57,-16832.7,9.99797,110.808,-178.796,10170.0,-21735.0,-5333.49,71.8554,-57.41,256.231,-12062.6,-1847.85,-7338.01,140.12,187.912,3.04583,10640.0,-13576.3,-1460.58,38.4982,17.6367,-60.7809,8558.81,865.762,5415.26,-11.4998,-2.15023,27.1727
3.621,18601.6,-468.38,11451.1,271.45,-49.4802,-53.9295,24871.5,7139.42,9374.1,242.219,-817.928,130.469,-8343.83,2642.29,-15155.3,13.1129,97.7835,-177.293,9531.82,-21364.9,-5283.36,72.199,-46.0628,258.758,-12450.1,-2019.75,-8229.24,157.694,194.7,2.59379,10183.9,-13465.4,-1386.03,45.3138,20.469,-61.4923,8765.96,562.475,5389.88,-8.81962,-0.759472,26.9869
3.622,15162.0,2095.69,10779.8,268.503,-41.3017,-62.5974,26935.7,7223.53,9816.76,249.654,-806.347,129.542,-8876.47,2037.01,-13478.0,16.2278,84.759,-175.791,8893.69,-20994.7,-5233.22,72.5427,-34.7156,261.284,-12837.6,-2191.64,-9120.47,175.269,201.489,2.14174,9727.85,-13354.6,-1311.49,52.1295,23.3012,-62.2036,8973.1,259.189,5364.5,-6.13945,0.631289,26.8011
3.623,13229.9,3731.26,10739.1,253.861,-33.5851,-66.0882,28744.2,8346.11,10910.2,250.273,-781.3,124.839,-9627.86,2136.51,-10951.3,13.876,75.5775,-181.377,8138.06,-20696.3,-5472.68,72.1624,-24.3616,265.023,-13297.0,-1794.65,-9336.33,184.285,205.151,0.24548,9232.11,-13134.0,-832.544,60.0476,21.9297,-62.3618,9174.7,-65.9988,5402.08,-4.53173,1.99143,26.856
3.624,11728.5,5101.56,10878.7,235.877,-26.0006,-68.0999,30479.7,9765.4,12189.7,248.944,-752.406,119.056,-10441.7,2437.37,-8181.92,9.96243,67.494,-188.988,7348.85,-20418.4,-5794.87,71.5754,-14.2913,269.109,-13776.9,-1235.12,-9359.22,190.856,207.919,-2.06341,8725.05,-12882.1,-238.06,68.2808,19.3572,-62.3621,9374.72,-397.444,5457.64,-3.23041,3.34283,26.9797
3.625,10227.2,6471.86,11018.2,217.892,-18.4161,-70.1115,32215.3,11184.7,13469.1,247.616,-723.513,113.274,-11255.6,2738.23,-5412.55,6.04883,59.4104,-196.599,6559.65,-20140.5,-6117.07,70.9883,-4.22107,273.196,-14256.7,-675.583,-9382.12,197.427,210.688,-4.3723,8217.98,-12630.1,356.425,76.5139,16.7846,-62.3623,9574.73,-728.888,5513.21,-1.9291,4.69422,27.1034
3.626,8725.82,7842.15,11157.7,199.908,-10.8316,-72.1232,33950.8,12604.0,14748.5,246.287,-694.619,107.492,-12069.5,3039.09,-2643.18,2.13523,51.3269,-204.211,5770.44,-19862.6,-6439.27,70.4012,5.84919,277.282,-14736.6,-116.05,-9405.01,203.998,213.457,-6.6812,7710.92,-12378.1,950.91,84.747,14.2121,-62.3625,9774.75,-1060.33,5568.78,-0.627782,6.04562,27.2271
3.627,8038.15,9220.12,11348.1,181.623,-4.39269,-70.9654,35046.8,14426.9,15885.5,242.012,-668.598,104.88,-12679.8,3706.03,36.6806,-3.42282,45.1802,-211.041,4926.17,-19728.7,-6771.87,68.9944,14.2484,280.37,-15254.4,473.171,-9144.5,206.674,213.121,-8.85595,7202.75,-12140.5,1494.37,90.868,10.6454,-62.6717,9973.53,-1405.73,5635.04,0.115492,7.38684,27.4175
3.628,8977.87,10613.4,11640.2,162.736,-0.245023,-63.4686,34863.9,17057.1,16737.8,231.842,-648.324,108.609,-12883.0,5105.13,2537.51,-12.2698,42.9074,-216.309,3971.76,-19882.8,-7125.28,65.9483,19.3055,281.465,-15848.0,1121.77,-8317.17,201.562,206.576,-10.7624,6692.38,-11931.7,1935.79,92.7646,5.09055,-63.5992,10169.8,-1779.03,5722.7,-0.257313,8.70772,27.7413
3.629,9917.59,12006.8,11932.3,143.848,3.90264,-55.9719,34680.9,19687.2,17590.0,221.673,-628.049,112.339,-13086.2,6504.22,5038.35,-21.1167,40.6346,-221.576,3017.35,-20036.9,-7478.68,62.9021,24.3626,282.559,-16441.6,1770.36,-7489.84,196.45,200.032,-12.6689,6182.02,-11722.8,2377.21,94.6612,-0.464314,-64.5266,10366.2,-2152.32,5810.35,-0.630119,10.0286,28.0652
3.63,10857.3,13400.1,12224.5,124.961,8.0503,-48.4751,34498.0,22317.4,18442.2,211.504,-607.775,116.068,-13289.3,7903.32,7539.18,-29.9637,38.3617,-226.844,2062.93,-20191.1,-7832.09,59.856,29.4198,283.653,-17035.2,2418.96,-6662.5,191.338,193.487,-14.5754,5671.65,-11513.9,2818.63,96.5579,-6.01918,-65.454,10562.5,-2525.62,5898.01,-1.00292,11.3495,28.389
3.631,11797.0,14793.4,12516.6,106.074,12.198,-40.9783,34315.1,24947.6,19294.5,201.334,-587.5,119.798,-13492.5,9302.41,10040.0,-38.8106,36.0889,-232.111,1108.52,-20345.2,-8185.5,56.8099,34.4769,284.747,-17628.8,3067.56,-5835.17,186.226,186.942,-16.4819,5161.28,-11305.0,3260.05,98.4545,-11.574,-66.3814,10758.8,-2898.92,5985.67,-1.37573,12.6704,28.7128
3.632,12749.4,14150.1,11928.2,97.5744,12.2311,-37.1262,33224.7,26071.0,19491.3,187.888,-577.424,129.527,-12558.5,10787.2,11193.9,-43.7294,29.2678,-228.702,669.791,-20716.5,-8763.32,52.7711,36.3836,282.999,-18227.0,3152.59,-4763.04,175.048,174.568,-17.3912,4714.46,-11379.9,2946.15,94.8388,-15.1721,-70.1829,10949.2,-3145.53,6121.03,-2.6703,13.5641,29.3093
3.633,13703.3,13252.2,11229.8,90.3736,11.7499,-33.7297,32020.8,27006.1,19606.3,174.033,-568.622,140.005,-11482.5,12282.6,12179.5,-48.1572,21.8782,-224.208,295.519,-21114.9,-9369.18,48.6083,37.8965,280.895,-18825.8,3167.17,-3660.3,163.112,161.465,-18.1759,4275.57,-11490.3,2537.83,90.5341,-18.5255,-74.3437,11138.8,-3376.31,6262.35,-4.08009,14.4044,29.9398
3.634,14657.2,12354.4,10531.4,83.1728,11.2687,-30.3332,30817.0,27941.1,19721.3,160.178,-559.82,150.484,-10406.4,13778.1,13165.0,-52.585,14.4886,-219.714,-78.7532,-21513.3,-9975.05,44.4455,39.4094,278.791,-19424.6,3181.76,-2557.57,151.176,148.362,-18.9606,3836.69,-11600.7,2129.5,86.2295,-21.8789,-78.5045,11328.4,-3607.09,6403.68,-5.48988,15.2447,30.5703
3.635,15611.1,11456.5,9832.95,75.972,10.7875,-26.9367,29613.1,28876.2,19836.3,146.323,-551.018,160.962,-9330.32,15273.5,14150.6,-57.0128,7.09894,-215.221,-453.025,-21911.7,-10580.9,40.2827,40.9223,276.687,-20023.4,3196.34,-1454.83,139.24,135.26,-19.7453,3397.81,-11711.1,1721.18,81.9248,-25.2324,-82.6653,11518.0,-3837.87,6545.0,-6.89967,16.0851,31.2008
3.636,15824.3,10019.3,9401.59,70.1291,10.6045,-23.3321,28303.4,28793.6,19857.0,131.205,-543.07,170.625,-8255.42,16130.5,14458.3,-59.0761,-2.92846,-209.852,-437.576,-22244.6,-11102.2,36.6886,42.5088,274.42,-20606.2,2888.67,-562.379,127.849,122.846,-20.8023,3002.93,-11906.1,971.891,76.358,-25.5872,-87.4111,11687.2,-4002.2,6615.79,-8.46263,16.8591,31.9168
3.637,15111.8,7907.88,9304.04,65.9833,10.794,-19.4675,26861.2,27438.9,19759.9,114.509,-536.189,179.267,-7182.01,16189.4,13918.6,-58.1838,-16.2531,-203.39,65.0252,-22495.6,-11517.9,33.8052,44.1873,271.949,-21169.0,2178.18,67.2243,117.14,111.293,-22.1994,2663.06,-12206.7,-203.617,69.2138,-22.1938,-92.8881,11830.7,-4083.46,6598.4,-10.2171,17.5502,32.7397
3.638,14399.2,5796.49,9206.49,61.8376,10.9835,-15.6028,25419.1,26084.2,19662.9,97.813,-529.308,187.91,-6108.6,16248.3,13378.9,-57.2914,-29.5777,-196.929,567.626,-22746.6,-11933.6,30.9218,45.8657,269.478,-21731.8,1467.69,696.827,106.43,99.7406,-23.5966,2323.19,-12507.3,-1379.12,62.0695,-18.8003,-98.3651,11974.2,-4164.73,6581.01,-11.9715,18.2414,33.5626
3.639,13686.6,3685.1,9108.94,57.6918,11.1731,-11.7382,23976.9,24729.5,19565.8,81.1169,-522.427,196.553,-5035.18,16307.1,12839.3,-56.3991,-42.9023,-190.467,1070.23,-22997.6,-12349.2,28.0384,47.5442,267.008,-22294.5,757.195,1326.43,95.7213,88.1879,-24.9938,1983.32,-12807.9,-2554.63,54.9252,-15.4069,-103.842,12117.7,-4245.99,6563.62,-13.7259,18.9325,34.3854
3.64,12974.0,1573.71,9011.39,53.5461,11.3626,-7.87354,22534.8,23374.8,19468.8,64.4209,-515.546,205.195,-3961.77,16366.0,12299.6,-55.5067,-56.2269,-184.005,1572.83,-23248.6,-12764.9,25.1551,49.2227,264.537,-22857.3,46.7032,1956.03,85.0122,76.6353,-26.3909,1643.45,-13108.5,-3730.14,47.7809,-12.0135,-109.319,12261.2,-4327.26,6546.23,-15.4804,19.6236,35.2083
3.641,12038.6,236.322,9199.11,49.1098,12.8607,-7.72255,21139.7,21519.5,19522.6,54.9594,-508.956,207.898,-4272.62,15573.0,10459.1,-50.0901,-63.3911,-181.088,2588.9,-23445.0,-12718.9,24.806,49.4096,260.961,-23382.0,-541.923,2099.76,76.3113,67.6177,-28.9542,1371.88,-13493.8,-4792.75,40.7632,-3.15261,-114.245,12321.2,-4380.97,6512.82,-16.6153,20.7212,35.9897
3.642,11103.1,-1101.06,9386.82,44.6736,14.3588,-7.57157,19744.7,19664.2,19576.4,45.4979,-502.366,210.601,-4583.48,14780.0,8618.54,-44.6735,-70.5554,-178.172,3604.97,-23641.4,-12672.9,24.4569,49.5965,257.386,-23906.8,-1130.55,2243.49,67.6105,58.6001,-31.5175,1100.31,-13879.0,-5855.36,33.7455,5.70824,-119.171,12381.2,-4434.69,6479.41,-17.7503,21.8187,36.7712
3.643,10167.7,-2438.45,9574.54,40.2373,15.8569,-7.42058,18349.6,17808.9,19630.3,36.0365,-495.776,213.303,-4894.33,13987.0,6778.0,-39.257,-77.7196,-175.255,4621.03,-23837.8,-12626.8,24.1077,49.7834,253.81,-24431.5,-1719.18,2387.22,58.9096,49.5825,-34.0808,828.745,-14264.2,-6917.97,26.7278,14.5691,-124.097,12441.1,-4488.41,6445.99,-18.8852,22.9163,37.5526
3.644,9232.22,-3775.83,9762.26,35.801,17.3549,-7.26959,16954.5,15953.6,19684.1,26.575,-489.186,216.006,-5205.18,13194.0,4937.46,-33.8404,-84.8839,-172.338,5637.1,-24034.3,-12580.8,23.7586,49.9703,250.234,-24956.2,-2307.8,2530.95,50.2087,40.5649,-36.6441,557.176,-14649.5,-7980.58,19.7101,23.4299,-129.023,12501.1,-4542.12,6412.58,-20.0202,24.0138,38.334
3.645,8372.83,-4134.15,9779.08,31.915,19.0036,-8.62314,16043.6,14472.0,19622.5,23.0181,-481.587,217.479,-5341.88,12758.9,3389.11,-29.3265,-89.03,-169.635,6461.04,-24089.5,-12168.5,25.5193,48.858,246.929,-25347.9,-2410.1,2510.36,43.2922,31.6068,-39.3518,299.805,-15052.8,-8603.94,13.7006,32.1172,-133.479,12530.6,-4550.55,6371.96,-20.839,24.9238,38.9975
3.646,7574.28,-3709.22,9659.17,28.4692,20.7727,-11.1803,15520.1,13289.5,19468.4,24.1847,-473.181,217.969,-5339.25,12610.2,2074.53,-25.5347,-90.7617,-167.103,7131.26,-24031.7,-11463.1,28.9678,46.7064,243.84,-25633.2,-2123.33,2358.3,37.8031,22.6964,-42.1751,53.7909,-15470.5,-8875.9,8.49751,40.6656,-137.56,12535.6,-4522.75,6325.57,-21.4048,25.6839,39.5665
3.647,6775.72,-3284.28,9539.26,25.0234,22.5418,-13.7375,14996.5,12107.0,19314.4,25.3513,-464.775,218.459,-5336.63,12461.5,759.948,-21.743,-92.4933,-164.571,7801.49,-23973.9,-10757.7,32.4163,44.5548,240.752,-25918.5,-1836.57,2206.25,32.3139,13.786,-44.9983,-192.223,-15888.3,-9147.86,3.29445,49.2139,-141.64,12540.6,-4494.96,6279.19,-21.9706,26.4439,40.1355
3.648,5977.17,-2859.34,9419.35,21.5776,24.311,-16.2947,14472.9,10924.4,19160.3,26.518,-456.369,218.949,-5334.0,12312.8,-554.635,-17.9512,-94.225,-162.039,8471.71,-23916.1,-10052.3,35.8648,42.4032,237.663,-26203.7,-1549.8,2054.2,26.8248,4.87555,-47.8215,-438.236,-16306.0,-9419.82,-1.9086,57.7623,-145.721,12545.6,-4467.16,6232.81,-22.5364,27.204,40.7045
3.649,5250.74,-2384.36,9304.58,18.1748,25.9668,-18.4802,14042.4,9850.64,19026.3,27.5281,-447.741,219.477,-5261.15,12211.4,-1736.67,-14.6652,-95.8593,-159.399,9060.42,-23841.9,-9304.95,39.789,40.4743,234.698,-26422.7,-1216.68,1898.71,21.7219,-3.84256,-50.8341,-694.184,-16728.3,-9590.61,-6.75675,65.6443,-149.695,12548.1,-4430.24,6188.22,-23.0802,27.9727,41.2473
3.65,5101.32,-1508.99,9230.87,15.1164,26.7159,-17.6928,14355.9,9647.16,19052.8,27.2858,-437.342,220.307,-4626.48,12488.4,-1858.36,-15.4255,-96.715,-155.886,8996.95,-23635.9,-8222.16,47.5194,40.3274,232.717,-26111.6,-512.692,1715.72,19.7081,-11.0221,-55.3616,-1029.6,-17186.5,-8952.12,-8.76564,68.1949,-152.819,12530.2,-4320.41,6158.05,-23.4475,28.8109,41.5808
3.651,4951.9,-633.632,9157.16,12.0579,27.465,-16.9053,14669.5,9443.69,19079.3,27.0435,-426.943,221.137,-3991.82,12765.4,-1980.04,-16.1857,-97.5708,-152.373,8933.48,-23429.9,-7139.36,55.2497,40.1805,230.737,-25800.4,191.294,1532.74,17.6943,-18.2016,-59.8891,-1365.02,-17644.6,-8313.62,-10.7745,70.7456,-155.942,12512.3,-4210.58,6127.87,-23.8148,29.649,41.9142
3.652,4802.48,241.731,9083.45,8.9995,28.2141,-16.1178,14983.1,9240.21,19105.7,26.8013,-416.544,221.968,-3357.15,13042.4,-2101.72,-16.946,-98.4265,-148.86,8870.01,-23223.9,-6056.56,62.9801,40.0336,228.757,-25489.2,895.279,1349.76,15.6805,-25.3811,-64.4166,-1700.44,-18102.8,-7675.12,-12.7834,73.2963,-159.066,12494.5,-4100.75,6097.69,-24.1822,30.4872,42.2476
3.653,4653.06,1117.09,9009.74,5.94107,28.9632,-15.3303,15296.7,9036.73,19132.2,26.559,-406.145,222.798,-2722.49,13319.3,-2223.41,-17.7062,-99.2822,-145.347,8806.54,-23018.0,-4973.77,70.7104,39.8866,226.777,-25178.1,1599.26,1166.78,13.6667,-32.5606,-68.9441,-2035.86,-18561.0,-7036.62,-14.7923,75.847,-162.189,12476.6,-3990.91,6067.51,-24.5495,31.3253,42.5811
3.654,4898.42,1200.32,8922.87,4.51002,29.1901,-13.6446,15834.5,9101.28,19318.0,23.1099,-392.764,221.399,-2187.38,13420.7,-1935.76,-20.2823,-100.425,-141.985,8364.16,-22701.7,-4073.31,77.7089,43.557,225.295,-24610.5,2326.26,1155.98,12.8714,-37.0864,-74.8578,-2428.75,-18915.0,-6197.1,-14.3281,73.3639,-164.744,12480.1,-3859.56,6048.36,-24.6519,32.0169,42.9275
3.655,5341.17,887.475,8829.41,3.89266,29.1559,-11.5097,16484.4,9299.84,19583.4,18.0574,-377.892,218.886,-1702.05,13434.3,-1443.45,-23.7663,-101.712,-138.697,7732.31,-22330.3,-3264.03,84.3414,49.136,224.064,-23914.8,3064.77,1231.28,12.6852,-40.2854,-81.4646,-2850.37,-19217.0,-5257.06,-12.6273,68.3641,-167.015,12494.2,-3717.45,6034.73,-24.622,32.6352,43.2803
3.656,5783.91,574.632,8735.95,3.2753,29.1217,-9.37489,17134.4,9498.4,19848.9,13.0048,-363.02,216.372,-1216.73,13447.9,-951.143,-27.2503,-102.999,-135.409,7100.46,-21958.9,-2454.75,90.9739,54.715,222.832,-23219.1,3803.28,1306.58,12.499,-43.4845,-88.0714,-3271.99,-19518.9,-4317.02,-10.9266,63.3642,-169.286,12508.3,-3575.34,6021.1,-24.592,33.2535,43.6332
3.657,6226.66,261.788,8642.5,2.65793,29.0874,-7.24003,17784.3,9696.96,20114.4,7.95229,-348.148,213.859,-731.4,13461.5,-458.835,-30.7342,-104.286,-132.121,6468.62,-21587.5,-1645.46,97.6064,60.294,221.6,-22523.4,4541.78,1381.88,12.3129,-46.6835,-94.6782,-3693.62,-19820.8,-3376.98,-9.2258,58.3643,-171.556,12522.5,-3433.23,6007.46,-24.562,33.8717,43.9861
3.658,6612.79,-96.6254,8583.56,2.02407,28.9934,-5.64714,18432.0,9833.85,20445.6,4.29574,-331.876,210.307,-339.874,13404.6,-1.33318,-33.9366,-105.691,-129.101,5771.08,-21186.9,-972.612,102.476,66.3924,220.376,-21826.5,5236.29,1469.54,12.2135,-48.7551,-101.41,-4113.5,-20082.2,-2487.56,-6.87411,52.2702,-173.64,12545.7,-3288.17,5998.42,-24.436,34.4384,44.3575
3.659,6800.73,-614.532,8645.45,1.33248,28.6901,-5.95116,19072.0,9754.92,21007.1,5.52509,-310.703,203.122,-276.654,13101.1,334.342,-36.153,-107.505,-127.02,4843.62,-20684.0,-777.269,101.177,74.3084,219.176,-21125.4,5776.8,1600.49,12.418,-46.8809,-108.579,-4527.31,-20201.9,-1775.31,-2.24414,42.3468,-175.069,12601.1,-3132.77,6005.44,-23.974,34.8242,44.794
3.66,6988.68,-1132.44,8707.34,0.640891,28.3868,-6.25517,19711.9,9675.99,21568.6,6.75444,-289.53,195.937,-213.433,12797.6,670.017,-38.3695,-109.32,-124.939,3916.16,-20181.0,-581.927,99.8779,82.2244,217.977,-20424.4,6317.32,1731.45,12.6225,-45.0067,-115.748,-4941.12,-20321.7,-1063.06,2.38582,32.4234,-176.498,12656.4,-2977.38,6012.47,-23.5119,35.2099,45.2304
3.661,7176.63,-1650.34,8769.23,-0.0507004,28.0835,-6.55918,20351.8,9597.05,22130.1,7.98379,-268.357,188.751,-150.212,12494.1,1005.69,-40.586,-111.135,-122.858,2988.7,-19678.1,-386.585,98.5788,90.1404,216.778,-19723.4,6857.83,1862.4,12.827,-43.1325,-122.917,-5354.93,-20441.4,-350.807,7.01579,22.4999,-177.927,12711.7,-2821.98,6019.49,-23.0499,35.5957,45.6669
3.662,7364.57,-2168.25,8831.12,-0.742292,27.7801,-6.86319,20991.7,9518.12,22691.6,9.21315,-247.184,181.566,-86.9917,12190.7,1341.37,-42.8024,-112.949,-120.777,2061.24,-19175.2,-191.242,97.2796,98.0565,215.579,-19022.3,7398.34,1993.35,13.0315,-41.2583,-130.086,-5768.73,-20561.1,361.446,11.6457,12.5765,-179.356,12767.0,-2666.58,6026.51,-22.5878,35.9815,46.1033
3.663,7183.47,-2000.01,8899.88,-1.65615,27.3784,-7.01795,21480.5,9117.1,23413.3,13.0031,-224.426,172.925,-209.322,11800.2,1363.26,-42.3738,-114.4,-119.006,1039.27,-18674.6,86.7493,91.6718,101.486,213.887,-18452.9,7794.26,2120.23,13.8104,-38.1774,-136.74,-6048.06,-20552.3,599.075,16.4309,3.08831,-179.875,12813.6,-2527.2,6053.88,-21.8475,36.1042,46.4408
3.664,6896.92,-1635.73,8970.61,-2.63351,26.9486,-7.13006,21926.1,8624.04,24180.7,17.5247,-201.215,163.868,-384.666,11384.8,1295.51,-41.1894,-115.746,-117.322,-9.69932,-18174.6,388.355,84.8331,103.635,212.055,-17921.0,8148.86,2245.96,14.7534,-34.7516,-143.248,-6288.97,-20506.8,701.099,21.2603,-6.27545,-180.134,12857.7,-2392.4,6087.06,-21.0276,36.1516,46.7499
3.665,6610.38,-1271.45,9041.34,-3.61087,26.5188,-7.24217,22371.7,8130.99,24948.1,22.0463,-178.004,154.811,-560.011,10969.5,1227.75,-40.005,-117.093,-115.639,-1058.67,-17674.6,689.961,77.9944,105.783,210.223,-17389.1,8503.47,2371.68,15.6964,-31.3259,-149.755,-6529.88,-20461.2,803.122,26.0897,-15.6392,-180.393,12901.8,-2257.6,6120.24,-20.2077,36.199,47.0591
3.666,6323.83,-907.17,9112.07,-4.58823,26.089,-7.35428,22817.3,7637.94,25715.6,26.5679,-154.793,145.755,-735.355,10554.1,1160.0,-38.8206,-118.439,-113.956,-2107.64,-17174.7,991.567,71.1556,107.931,208.391,-16857.2,8858.07,2497.41,16.6394,-27.9001,-156.263,-6770.79,-20415.7,905.146,30.9192,-25.003,-180.652,12945.9,-2122.79,6153.42,-19.3878,36.2464,47.3683
3.667,6029.82,-600.758,9161.54,-5.59033,25.6264,-7.07383,23285.2,7283.16,26364.1,29.8805,-130.258,137.374,-878.536,10206.6,1060.49,-37.1347,-119.55,-112.211,-3064.37,-16758.8,1318.95,64.739,107.481,206.362,-16355.3,9136.96,2590.02,18.1617,-25.3533,-162.417,-6898.36,-20340.8,821.112,35.1253,-33.0454,-180.063,12972.6,-2009.34,6192.53,-18.5316,36.1903,47.6252
3.668,5720.88,-410.083,9168.5,-6.64191,25.0985,-6.00825,23797.9,7204.91,26774.9,30.7751,-103.074,130.345,-957.391,9994.79,897.477,-34.4461,-120.189,-110.34,-3836.64,-16511.4,1697.88,59.1665,101.833,203.937,-15913.2,9264.4,2616.4,20.8427,-24.5643,-167.863,-6799.23,-20207.2,364.965,38.0848,-38.445,-177.776,12964.5,-1938.58,6243.51,-17.6027,35.9274,47.7775
3.669,5411.95,-219.408,9175.46,-7.69348,24.5705,-4.94267,24310.5,7126.67,27185.8,31.6697,-75.8902,123.317,-1036.25,9782.98,734.465,-31.7574,-120.829,-108.468,-4608.9,-16263.9,2076.8,53.5941,96.1859,201.513,-15471.1,9391.84,2642.78,23.5237,-23.7753,-173.31,-6700.11,-20073.6,-91.1828,41.0444,-43.8446,-175.49,12956.5,-1867.82,6294.48,-16.6738,35.6644,47.9299
3.67,5103.01,-28.7326,9182.42,-8.74506,24.0425,-3.87709,24823.1,7048.42,27596.6,32.5643,-48.7061,116.288,-1115.1,9571.18,571.452,-29.0687,-121.468,-106.597,-5381.17,-16016.4,2455.73,48.0216,90.5385,199.088,-15029.0,9519.29,2669.16,26.2046,-22.9863,-178.756,-6600.99,-19940.1,-547.33,44.0039,-49.2442,-173.203,12948.4,-1797.07,6345.46,-15.7449,35.4015,48.0822
3.671,4794.07,161.942,9189.38,-9.79663,23.5145,-2.81152,25335.8,6970.17,28007.4,33.4588,-21.5221,109.259,-1193.95,9359.37,408.439,-26.3801,-122.107,-104.726,-6153.44,-15768.9,2834.66,42.4491,84.8911,196.664,-14587.0,9646.73,2695.54,28.8856,-22.1972,-184.203,-6501.87,-19806.5,-1003.48,46.9634,-54.6438,-170.916,12940.3,-1726.31,6396.44,-14.816,35.1385,48.2346
3.672,4726.99,-117.882,9141.87,-10.5281,23.0214,-2.12369,24930.1,7207.85,28290.5,45.2727,1.12974,104.959,-1063.51,9314.42,337.973,-24.0774,-121.859,-102.901,-6217.07,-15743.6,2543.66,38.9741,77.233,192.72,-14155.4,9892.47,2617.97,32.9334,-24.4268,-187.737,-6253.49,-19606.9,-1606.54,48.8324,-56.4001,-165.594,12899.9,-1743.23,6409.46,-14.0079,34.8534,48.121
3.673,4690.15,-456.52,9087.54,-11.2196,22.5326,-1.48308,24409.6,7485.02,28557.6,58.4514,23.215,100.999,-906.91,9290.32,279.075,-21.823,-121.5,-101.082,-6192.12,-15746.0,2168.93,35.7614,69.3234,188.587,-13725.1,10153.0,2527.41,37.1522,-27.0337,-191.032,-5986.45,-19399.2,-2227.96,50.565,-57.701,-159.892,12855.4,-1771.1,6417.74,-13.2148,34.5656,47.9742
3.674,4653.3,-795.157,9033.22,-11.9111,22.0437,-0.842467,23889.2,7762.18,28824.7,71.6301,45.3003,97.0389,-750.308,9266.22,220.177,-19.5686,-121.142,-99.2628,-6167.17,-15748.5,1794.19,32.5486,61.4139,184.454,-13294.8,10413.5,2436.85,41.3709,-29.6405,-194.328,-5719.41,-19191.4,-2849.38,52.2977,-59.0019,-154.19,12810.9,-1798.98,6426.02,-12.4218,34.2777,47.8273
3.675,4616.46,-1133.79,8978.89,-12.6027,21.5549,-0.201857,23368.7,8039.35,29091.7,84.8088,67.3856,93.0791,-593.706,9242.12,161.28,-17.3142,-120.783,-97.4435,-6142.22,-15750.9,1419.45,29.3358,53.5044,180.32,-12864.5,10674.1,2346.29,45.5896,-32.2474,-197.623,-5452.38,-18983.6,-3470.81,54.0303,-60.3028,-148.488,12766.4,-1826.86,6434.29,-11.6288,33.9898,47.6805
3.676,4653.7,-1414.06,8944.69,-13.2811,21.0427,0.101505,22060.6,8314.88,29115.1,96.2054,84.2903,90.9688,-381.771,9263.58,144.028,-15.4933,-119.746,-95.642,-5676.26,-15688.1,830.916,26.1609,46.035,175.124,-12462.7,11046.0,2219.99,49.5769,-35.5633,-199.411,-5170.7,-18891.6,-3977.04,55.233,-60.0543,-142.072,12717.9,-1855.87,6433.9,-11.1405,33.601,47.4153
3.677,4783.56,-1621.37,8935.64,-13.9434,20.5011,-0.0166922,19768.1,8588.38,28833.8,105.374,94.7191,91.1703,-100.673,9341.98,178.835,-14.2145,-117.861,-93.8629,-4659.04,-15543.5,-24.864,23.0334,39.1158,168.599,-12096.7,11557.2,2049.01,53.2748,-39.7655,-199.315,-4870.72,-18944.4,-4339.27,55.773,-57.8689,-134.764,12664.3,-1886.3,6422.66,-11.0332,33.086,47.0021
3.678,4913.42,-1828.68,8926.58,-14.6056,19.9596,-0.13489,17475.5,8861.87,28552.6,114.543,105.148,91.3718,180.426,9420.39,213.642,-12.9356,-115.976,-92.0838,-3641.82,-15399.0,-880.644,19.9059,32.1967,162.074,-11730.6,12068.4,1878.03,56.9728,-43.9677,-199.219,-4570.74,-18997.1,-4701.51,56.3131,-55.6836,-127.456,12610.7,-1916.74,6411.43,-10.9259,32.5709,46.589
3.679,5043.29,-2035.99,8917.53,-15.2679,19.418,-0.253087,15183.0,9135.37,28271.3,123.713,115.577,91.5733,461.524,9498.8,248.449,-11.6567,-114.091,-90.3047,-2624.6,-15254.4,-1736.42,16.7784,25.2775,155.549,-11364.5,12579.6,1707.05,60.6708,-48.1699,-199.123,-4270.76,-19049.9,-5063.75,56.8532,-53.4982,-120.148,12557.1,-1947.18,6400.2,-10.8185,32.0559,46.1758
3.68,5173.15,-2243.3,8908.48,-15.9301,18.8765,-0.371285,12890.4,9408.86,27990.0,132.882,126.005,91.7747,742.623,9577.2,283.256,-10.3778,-112.206,-88.5255,-1607.37,-15109.9,-2592.2,13.651,18.3583,149.025,-10998.4,13090.8,1536.07,64.3687,-52.3721,-199.027,-3970.78,-19102.7,-5425.99,57.3932,-51.3128,-112.84,12503.6,-1977.61,6388.96,-10.7112,31.5409,45.7626
3.681,5235.67,-1940.28,8954.87,-16.7397,18.2557,0.0581957,11085.5,9819.49,27210.2,126.432,133.872,93.2598,980.619,9651.73,269.864,-9.92759,-109.239,-86.8342,-57.8279,-14738.6,-3160.06,12.1062,13.5016,140.092,-10785.8,13675.8,1315.56,65.7147,-55.7301,-195.406,-3693.84,-19306.8,-5412.91,56.631,-47.8158,-105.141,12430.2,-1990.34,6363.86,-10.9805,31.074,45.1077
3.682,5298.19,-1637.26,9001.26,-17.5493,17.635,0.487676,9280.57,10230.1,26430.3,119.982,141.738,94.7448,1218.62,9726.25,256.471,-9.47739,-106.271,-85.1428,1491.72,-14367.3,-3727.91,10.5615,8.64493,131.159,-10573.1,14260.8,1095.04,67.0608,-59.0882,-191.786,-3416.91,-19511.0,-5399.83,55.8688,-44.3187,-97.4415,12356.7,-2003.07,6338.77,-11.2497,30.6072,44.4528
3.683,5360.71,-1334.24,9047.65,-18.3589,17.0142,0.917157,7475.66,10640.7,25650.5,113.532,149.605,96.2298,1456.61,9800.78,243.079,-9.0272,-103.304,-83.4515,3041.27,-13996.0,-4295.76,9.01671,3.78823,122.226,-10360.5,14845.7,874.528,68.4068,-62.4462,-188.165,-3139.98,-19715.1,-5386.75,55.1065,-40.8216,-89.7424,12283.3,-2015.8,6313.67,-11.519,30.1403,43.7979
3.684,5423.23,-1031.22,9094.04,-19.1685,16.3934,1.34664,5670.75,11051.4,24870.6,107.083,157.471,97.7148,1694.61,9875.3,229.687,-8.577,-100.337,-81.7601,4590.81,-13624.7,-4863.61,7.47196,-1.06847,113.294,-10147.8,15430.7,654.013,69.7528,-65.8042,-184.545,-2863.04,-19919.3,-5373.67,54.3443,-37.3246,-82.0433,12209.9,-2028.53,6288.58,-11.7882,29.6734,43.143
3.685,5437.24,-736.383,9123.96,-19.9251,15.7601,2.26558,4569.88,11451.2,24205.4,99.4665,165.989,98.0341,1856.72,9910.19,153.507,-8.43863,-97.3238,-80.2711,5989.66,-13237.2,-5275.34,6.32426,-4.96062,103.88,-9981.25,15899.5,437.638,69.9494,-68.1899,-179.576,-2660.61,-20218.0,-5155.7,54.1944,-34.2522,-75.6001,12126.3,-2037.96,6249.8,-12.1004,29.2091,42.3665
