Time,RFoot_accel.x,RFoot_accel.y,RFoot_accel.z,RFoot_gyro.x,RFoot_gyro.y,RFoot_gyro.z,LFoot_accel.x,LFoot_accel.y,LFoot_accel.z,LFoot_gyro.x,LFoot_gyro.y,LFoot_gyro.z,RShank_accel.x,RShank_accel.y,RShank_accel.z,RShank_gyro.x,RShank_gyro.y,RShank_gyro.z,LShank_accel.x,LShank_accel.y,LShank_accel.z,LShank_gyro.x,LShank_gyro.y,LShank_gyro.z,RThigh_accel.x,RThigh_accel.y,RThigh_accel.z,RThigh_gyro.x,RThigh_gyro.y,RThigh_gyro.z,LThigh_accel.x,LThigh_accel.y,LThigh_accel.z,LThigh_gyro.x,LThigh_gyro.y,LThigh_gyro.z,Pelvis_accel.x,Pelvis_accel.y,Pelvis_accel.z,Pelvis_gyro.x,Pelvis_gyro.y,Pelvis_gyro.z
4.15,11165.2,-9625.37,11117.7,-88.3264,305.818,270.09,4650.59,2160.5,8379.47,-3.92338,-1.66783,12.7148,5190.81,12002.8,-3614.55,189.356,74.0374,340.728,-745.332,-10092.2,-1667.78,-7.48449,-22.2326,47.8495,-4927.67,3510.02,-2357.03,-42.0718,131.345,93.5154,-364.995,-8924.48,630.755,-80.7,-106.599,82.7261,7952.85,-1909.25,1885.39,47.403,-6.77063,7.07241
4.151,11325.7,-9849.21,11201.4,-87.3541,306.245,270.492,4657.45,2126.89,8377.57,-3.84389,-1.81225,12.6499,5235.65,12251.6,-3663.36,191.186,77.8586,341.587,-773.045,-10088.7,-1672.0,-7.44347,-22.6574,47.9055,-4772.42,3522.98,-2311.41,-43.2954,137.32,92.2218,-553.816,-8922.17,791.462,-83.2318,-111.115,82.0306,7931.14,-1834.13,1870.23,47.6033,-7.26626,6.51341
4.152,11501.9,-10013.0,11250.8,-85.7166,306.72,271.363,4659.51,2100.3,8387.72,-3.62924,-2.08189,12.6477,5230.36,12493.0,-3663.07,193.076,81.5058,342.429,-819.487,-10060.8,-1658.39,-7.43471,-23.3398,48.1131,-4626.05,3542.79,-2204.75,-43.4568,140.641,90.7063,-609.173,-8882.46,325.474,-80.2175,-111.638,82.9122,7888.23,-1828.93,1887.89,47.8468,-7.75809,6.01677
4.153,11680.1,-10169.3,11296.0,-83.9959,307.2,272.292,4660.97,2074.59,8399.38,-3.3977,-2.36719,12.6535,5218.81,12733.4,-3656.66,194.973,85.1313,343.268,-868.269,-10029.8,-1642.56,-7.42997,-24.0545,48.3397,-4480.78,3563.46,-2090.48,-43.4854,143.63,89.1631,-647.848,-8838.08,-218.851,-76.5099,-111.661,83.9911,7842.66,-1832.46,1909.64,48.0958,-8.24944,5.52793
4.154,11858.3,-10325.7,11341.2,-82.2753,307.68,273.221,4662.43,2048.88,8411.04,-3.16616,-2.65248,12.6592,5207.27,12973.8,-3650.24,196.87,88.7568,344.107,-917.052,-9998.79,-1626.72,-7.42524,-24.7692,48.5662,-4335.52,3584.12,-1976.2,-43.514,146.619,87.6199,-686.522,-8793.7,-763.176,-72.8024,-111.685,85.0699,7797.1,-1836.0,1931.4,48.3447,-8.7408,5.03908
4.155,12036.5,-10482.0,11386.3,-80.5546,308.16,274.15,4663.89,2023.16,8422.71,-2.93462,-2.93778,12.6649,5195.72,13214.3,-3643.82,198.767,92.3822,344.946,-965.835,-9967.81,-1610.89,-7.42051,-25.4839,48.7927,-4190.26,3604.79,-1861.92,-43.5426,149.608,86.0767,-725.196,-8749.32,-1307.5,-69.0948,-111.708,86.1488,7751.54,-1839.53,1953.16,48.5936,-9.23215,4.55023
4.156,12245.5,-10603.6,11424.6,-78.7529,308.635,275.454,4666.67,2019.49,8436.37,-2.80795,-3.20065,12.6433,5166.61,13480.2,-3633.17,200.511,95.979,345.623,-993.988,-9946.85,-1589.39,-7.43835,-26.2755,49.034,-4079.91,3639.66,-1732.0,-43.7261,150.859,84.7827,-770.041,-8792.31,-1647.0,-65.532,-111.543,87.1252,7722.19,-1840.78,1967.91,48.8707,-9.78373,4.08742
4.157,12493.2,-10682.0,11454.4,-76.8496,309.103,277.226,4671.1,2043.37,8452.53,-2.81236,-3.43549,12.5874,5115.55,13778.2,-3617.24,202.063,99.5399,346.098,-996.352,-9938.45,-1560.83,-7.48443,-27.1632,49.2937,-4013.2,3692.28,-1582.53,-44.1033,149.938,83.8003,-822.599,-8944.53,-1730.47,-62.1501,-111.144,87.9734,7713.12,-1839.15,1973.9,49.183,-10.4106,3.65716
4.158,12740.8,-10760.3,11484.1,-74.9464,309.572,278.997,4675.54,2067.25,8468.69,-2.81677,-3.67034,12.5316,5064.49,14076.1,-3601.31,203.615,103.101,346.572,-998.716,-9930.04,-1532.26,-7.5305,-28.0509,49.5533,-3946.49,3744.9,-1433.07,-44.4805,149.016,82.8179,-875.158,-9096.75,-1813.93,-58.7682,-110.745,88.8217,7704.04,-1837.53,1979.89,49.4953,-11.0375,3.2269
4.159,12988.4,-10838.7,11513.9,-73.0431,310.04,280.768,4679.97,2091.13,8484.85,-2.82119,-3.90518,12.4757,5013.42,14374.0,-3585.38,205.167,106.662,347.046,-1001.08,-9921.63,-1503.69,-7.57657,-28.9387,49.8129,-3879.79,3797.53,-1283.6,-44.8577,148.094,81.8355,-927.717,-9248.97,-1897.4,-55.3862,-110.345,89.6699,7694.97,-1835.9,1985.88,49.8076,-11.6643,2.79665
4.16,13236.0,-10917.0,11543.7,-71.1399,310.508,282.54,4684.4,2115.01,8501.01,-2.8256,-4.14002,12.4199,4962.36,14672.0,-3569.45,206.719,110.222,347.52,-1003.44,-9913.22,-1475.12,-7.62264,-29.8264,50.0726,-3813.08,3850.15,-1134.14,-45.2348,147.173,80.8532,-980.275,-9401.19,-1980.86,-52.0043,-109.946,90.5182,7685.9,-1834.28,1991.88,50.1198,-12.2912,2.36639
4.161,13536.8,-10886.9,11540.2,-69.2599,310.53,285.113,4656.65,2125.59,8497.01,-2.59987,-4.29978,12.2332,4877.06,15025.9,-3499.85,207.66,114.214,347.6,-924.692,-9940.66,-1453.68,-7.6512,-30.3933,50.3705,-3855.85,3926.86,-936.84,-47.0768,143.497,80.9404,-1029.48,-9495.86,-1795.42,-52.2059,-110.919,90.3098,7651.84,-1773.3,1988.27,50.3654,-13.0094,1.93859
4.162,13837.5,-10856.8,11536.8,-67.38,310.551,287.685,4628.91,2136.17,8493.0,-2.37415,-4.45954,12.0466,4791.75,15379.8,-3430.26,208.602,118.205,347.679,-845.939,-9968.1,-1432.23,-7.67975,-30.9602,50.6685,-3898.61,4003.56,-739.543,-48.9188,139.821,81.0277,-1078.69,-9590.53,-1609.98,-52.4074,-111.892,90.1015,7617.77,-1712.32,1984.67,50.611,-13.7275,1.51079
4.163,14138.3,-10826.8,11533.3,-65.5,310.573,290.258,4601.16,2146.76,8489.0,-2.14842,-4.6193,11.86,4706.44,15733.7,-3360.66,209.544,122.196,347.759,-767.186,-9995.54,-1410.78,-7.7083,-31.5271,50.9664,-3941.38,4080.27,-542.247,-50.7608,136.146,81.1149,-1127.9,-9685.2,-1424.53,-52.609,-112.865,89.8931,7583.71,-1651.35,1981.06,50.8566,-14.4457,1.08299
4.164,14439.1,-10796.7,11529.9,-63.62,310.594,292.831,4573.42,2157.34,8485.0,-1.92269,-4.77906,11.6733,4621.13,16087.7,-3291.06,210.485,126.187,347.839,-688.434,-10023.0,-1389.33,-7.73685,-32.094,51.2644,-3984.15,4156.98,-344.951,-52.6028,132.47,81.2022,-1177.1,-9779.87,-1239.09,-52.8105,-113.838,89.6848,7549.64,-1590.37,1977.46,51.1022,-15.1639,0.655194
4.165,14721.8,-10714.2,11484.2,-61.428,310.177,295.901,4550.05,2147.78,8498.08,-1.7387,-5.03525,11.4662,4530.35,16442.1,-3239.18,211.279,130.668,347.84,-607.295,-10051.2,-1389.39,-7.73054,-32.4548,51.6352,-4065.19,4222.73,-106.529,-55.48,128.411,81.5237,-1188.59,-9818.42,-1109.55,-53.3166,-115.125,89.5944,7528.08,-1539.79,1990.73,51.2465,-15.7501,0.245345
4.166,14990.2,-10589.8,11404.8,-58.9864,309.409,299.37,4530.19,2122.1,8524.83,-1.58809,-5.36859,11.2428,4435.19,16797.1,-3201.47,211.954,135.541,347.78,-524.249,-10080.0,-1406.66,-7.69633,-32.6508,52.0644,-4176.87,4279.71,164.793,-59.1854,124.046,82.0327,-1169.9,-9812.07,-1024.74,-54.0664,-116.665,89.5983,7516.52,-1497.53,2017.5,51.3097,-16.2308,-0.150145
4.167,15258.6,-10465.4,11325.3,-56.5447,308.641,302.839,4510.33,2096.42,8551.57,-1.43747,-5.70192,11.0194,4340.04,17152.0,-3163.77,212.629,140.414,347.719,-441.202,-10108.8,-1423.92,-7.66212,-32.8467,52.4937,-4288.55,4336.69,436.116,-62.8908,119.681,82.5416,-1151.21,-9805.73,-939.933,-54.8162,-118.204,89.6022,7504.96,-1455.27,2044.28,51.3729,-16.7115,-0.545634
4.168,15526.9,-10341.0,11245.8,-54.1031,307.873,306.307,4490.47,2070.74,8578.32,-1.28686,-6.03526,10.7959,4244.88,17506.9,-3126.06,213.304,145.287,347.659,-358.155,-10137.6,-1441.18,-7.62791,-33.0427,52.9229,-4400.22,4393.67,707.438,-66.5961,115.316,83.0505,-1132.53,-9799.38,-855.124,-55.566,-119.743,89.6062,7493.4,-1413.01,2071.05,51.4361,-17.1922,-0.941124
4.169,15801.4,-10219.2,11157.9,-51.5614,307.011,309.847,4476.08,2043.79,8606.22,-1.05211,-6.4033,10.5937,4150.33,17860.5,-3092.96,213.986,150.29,347.583,-281.307,-10168.0,-1457.3,-7.59716,-33.2101,53.3528,-4514.23,4443.64,985.302,-70.3826,110.991,83.5335,-1101.87,-9799.07,-776.117,-56.2435,-121.304,89.6471,7484.05,-1370.9,2091.41,51.4855,-17.6812,-1.32384
4.17,16124.4,-10118.9,11002.3,-48.2198,305.402,313.956,4505.5,2006.7,8643.35,-0.144271,-7.04897,10.5612,4060.65,18202.6,-3096.65,214.721,156.338,347.379,-254.041,-10211.4,-1464.19,-7.59409,-33.1494,53.7882,-4646.84,4437.54,1315.5,-74.8179,106.979,83.809,-975.441,-9847.11,-743.528,-56.3421,-123.031,89.984,7492.3,-1330.02,2060.48,51.4243,-18.2368,-1.60433
4.171,16447.4,-10018.5,10846.6,-44.8781,303.793,318.064,4534.92,1969.61,8680.48,0.763571,-7.69465,10.5287,3970.97,18544.8,-3100.34,215.456,162.386,347.176,-226.775,-10254.8,-1471.08,-7.59102,-33.0886,54.2236,-4779.46,4431.45,1645.69,-79.2532,102.968,84.0845,-849.014,-9895.15,-710.939,-56.4407,-124.758,90.3209,7500.56,-1289.14,2029.54,51.3631,-18.7924,-1.88483
4.172,16770.4,-9918.21,10691.0,-41.5364,302.184,322.172,4564.34,1932.52,8717.61,1.67141,-8.34032,10.4962,3881.28,18887.0,-3104.03,216.191,168.434,346.973,-199.51,-10298.3,-1477.98,-7.58794,-33.0278,54.659,-4912.08,4425.35,1975.88,-83.6886,98.9573,84.36,-722.587,-9943.18,-678.35,-56.5394,-126.484,90.6578,7508.82,-1248.27,1998.61,51.3019,-19.3481,-2.16532
4.173,17093.4,-9817.87,10535.3,-38.1947,300.575,326.28,4593.75,1895.43,8754.74,2.57925,-8.98599,10.4636,3791.6,19229.2,-3107.73,216.925,174.482,346.769,-172.244,-10341.7,-1484.87,-7.58487,-32.9671,55.0944,-5044.7,4419.25,2306.08,-88.1239,94.9462,84.6355,-596.16,-9991.22,-645.76,-56.638,-128.211,90.9947,7517.07,-1207.39,1967.67,51.2407,-19.9037,-2.44582
4.174,17359.0,-9785.37,10420.0,-34.3829,298.229,330.123,4588.56,1870.79,8827.01,4.38538,-9.76576,10.4316,3686.03,19525.0,-3064.61,217.352,180.554,346.376,-169.989,-10389.7,-1545.44,-8.17184,-33.0864,55.5921,-5150.54,4373.76,2640.31,-92.5335,90.8001,84.586,-408.699,-10090.5,-633.712,-56.218,-129.86,91.2001,7528.34,-1135.65,1941.07,51.2272,-20.266,-2.65378
4.175,17595.8,-9786.79,10324.8,-30.3359,295.513,333.832,4566.06,1852.37,8916.85,6.64064,-10.6126,10.3998,3572.51,19797.7,-2998.08,217.624,186.637,345.889,-180.24,-10440.0,-1632.84,-9.05383,-33.2959,56.121,-5242.98,4308.56,2976.56,-96.9304,86.5865,84.3741,-190.719,-10215.4,-631.933,-55.5386,-131.47,91.3397,7541.11,-1048.48,1916.64,51.2375,-20.5318,-2.82548
4.176,17832.6,-9788.21,10229.6,-26.289,292.798,337.542,4543.56,1833.95,9006.69,8.8959,-11.4594,10.368,3459.0,20070.4,-2931.56,217.896,192.72,345.401,-190.491,-10490.3,-1720.24,-9.93583,-33.5053,56.6499,-5335.43,4243.37,3312.82,-101.327,82.3728,84.1621,27.2604,-10340.3,-630.154,-54.8592,-133.08,91.4792,7553.87,-961.32,1892.2,51.2478,-20.7975,-2.99718
4.177,18069.4,-9789.63,10134.4,-22.242,290.082,341.251,4521.07,1815.54,9096.53,11.1512,-12.3062,10.3362,3345.48,20343.1,-2865.04,218.169,198.804,344.913,-200.742,-10540.6,-1807.64,-10.8178,-33.7148,57.1788,-5427.87,4178.18,3649.07,-105.724,78.1592,83.9502,245.24,-10465.2,-628.376,-54.1798,-134.689,91.6188,7566.64,-874.156,1867.77,51.2581,-21.0632,-3.16887
4.178,18261.2,-9750.06,10081.5,-18.2461,286.901,344.976,4493.52,1843.96,9143.62,12.6844,-12.9011,10.3464,3216.11,20600.7,-2780.03,218.309,204.643,344.477,-214.903,-10573.1,-1949.42,-11.8564,-34.2547,57.6564,-5501.27,4106.51,3937.14,-109.929,74.0052,83.7286,472.736,-10583.3,-630.908,-53.3526,-136.242,91.7377,7570.63,-796.768,1848.99,51.2551,-21.3805,-3.32578
4.179,18295.3,-9567.03,10176.7,-14.4289,282.092,348.756,4448.33,2036.31,9041.09,11.6903,-12.6144,10.5036,3031.25,20805.4,-2630.33,217.989,209.626,344.219,-242.75,-10543.3,-2281.54,-13.4432,-35.9511,57.9543,-5508.03,4012.2,4056.53,-113.465,70.06,83.4733,733.539,-10677.7,-648.529,-52.0079,-137.595,91.7842,7543.86,-753.6,1849.99,51.2057,-21.8781,-3.4309
4.18,18329.3,-9384.0,10271.8,-10.6116,277.283,352.536,4403.13,2228.66,8938.56,10.6962,-12.3276,10.6609,2846.38,21010.0,-2480.64,217.669,214.61,343.962,-270.596,-10513.5,-2613.66,-15.0299,-37.6475,58.2523,-5514.78,3917.88,4175.93,-117.0,66.1147,83.218,994.342,-10772.1,-666.15,-50.6632,-138.948,91.8307,7517.09,-710.431,1851.0,51.1563,-22.3757,-3.53603
4.181,18363.4,-9200.96,10367.0,-6.79437,272.474,356.316,4357.94,2421.0,8836.03,9.70219,-12.0409,10.8181,2661.52,21214.7,-2330.95,217.348,219.593,343.705,-298.443,-10483.6,-2945.77,-16.6167,-39.3439,58.5502,-5521.53,3823.57,4295.33,-120.536,62.1695,82.9628,1255.15,-10866.4,-683.771,-49.3185,-140.301,91.8773,7490.33,-667.263,1852.01,51.1069,-22.8733,-3.64115
4.182,18397.5,-9017.93,10462.2,-2.97712,267.665,360.096,4312.74,2613.35,8733.5,8.70813,-11.7541,10.9754,2476.65,21419.4,-2181.25,217.028,224.577,343.448,-326.29,-10453.8,-3277.89,-18.2035,-41.0403,58.8481,-5528.29,3729.25,4414.72,-124.071,58.2242,82.7075,1515.95,-10960.8,-701.392,-47.9738,-141.654,91.9238,7463.56,-624.094,1853.01,51.0575,-23.3709,-3.74628
4.183,18338.2,-8663.04,10533.0,-0.13138,262.428,363.879,4238.72,3068.92,8669.01,8.18301,-11.5548,12.7883,2279.49,21614.6,-1956.13,215.908,228.401,343.583,-438.528,-10373.1,-3590.06,-18.6797,-42.8237,58.9668,-5498.46,3614.73,4369.82,-124.958,55.4459,82.4104,1758.62,-11012.4,-750.041,-46.1609,-142.523,91.7844,7440.34,-608.629,1882.75,51.005,-24.0936,-3.75884
4.184,18252.2,-8259.05,10596.9,2.43679,257.07,367.663,4156.45,3599.69,8615.38,7.79188,-11.3806,15.0742,2078.81,21807.2,-1709.45,214.561,231.894,343.83,-574.879,-10277.8,-3896.54,-18.8387,-44.6321,59.0342,-5458.18,3494.43,4277.98,-125.088,53.001,82.1014,1996.11,-11051.7,-807.556,-44.2143,-143.255,91.5918,7418.13,-601.078,1920.7,50.9515,-24.8805,-3.74496
4.185,18166.2,-7855.06,10660.8,5.00496,251.711,371.447,4074.19,4130.47,8561.75,7.40074,-11.2063,17.3601,1878.14,21999.8,-1462.77,213.213,235.386,344.078,-711.23,-10182.6,-4203.02,-18.9977,-46.4404,59.1016,-5417.9,3374.13,4186.13,-125.218,50.556,81.7924,2233.6,-11091.0,-865.071,-42.2676,-143.987,91.3992,7395.91,-593.528,1958.65,50.8981,-25.6675,-3.73108
4.186,18080.2,-7451.07,10724.7,7.57313,246.353,375.23,3991.93,4661.24,8508.13,7.0096,-11.032,19.6461,1677.46,22192.4,-1216.09,211.865,238.879,344.325,-847.581,-10087.3,-4509.5,-19.1567,-48.2488,59.1689,-5377.62,3253.83,4094.29,-125.348,48.1111,81.4835,2471.1,-11130.3,-922.586,-40.321,-144.718,91.2066,7373.7,-585.977,1996.6,50.8446,-26.4545,-3.7172
4.187,18058.8,-7104.42,10760.4,9.9661,241.178,378.818,3944.21,5027.67,8458.59,6.80917,-11.044,21.7633,1478.42,22375.6,-960.219,210.233,241.829,344.452,-926.707,-10030.3,-4678.46,-18.692,-49.3047,59.3781,-5343.76,3140.23,3966.71,-124.251,46.3219,81.1954,2700.67,-11165.6,-1012.6,-38.3585,-145.164,90.9142,7346.1,-572.627,2028.5,50.765,-27.3017,-3.6966
4.188,18166.6,-6872.45,10739.5,12.0087,236.37,382.014,3965.56,5065.41,8417.24,6.99015,-11.4287,23.543,1282.66,22540.0,-685.95,208.03,243.693,344.34,-891.385,-10049.9,-4572.39,-16.9798,-48.8558,59.8706,-5322.75,3040.04,3767.64,-120.702,45.8441,80.9494,2914.41,-11192.7,-1167.6,-36.3644,-145.036,90.4219,7307.71,-547.68,2048.28,50.6329,-28.2695,-3.66256
4.189,18274.5,-6640.49,10718.7,14.0512,231.562,385.21,3986.91,5103.16,8375.89,7.17112,-11.8133,25.3228,1086.91,22704.4,-411.681,205.827,245.558,344.228,-856.063,-10069.5,-4466.32,-15.2675,-48.4069,60.3632,-5301.73,2939.84,3568.57,-117.153,45.3663,80.7033,3128.14,-11219.7,-1322.6,-34.3702,-144.908,89.9297,7269.33,-522.732,2068.07,50.5008,-29.2372,-3.62852
4.19,18382.4,-6408.52,10697.8,16.0938,226.753,388.406,4008.27,5140.9,8334.54,7.3521,-12.198,27.1025,891.146,22868.8,-137.412,203.624,247.422,344.116,-820.741,-10089.0,-4360.25,-13.5553,-47.958,60.8558,-5280.72,2839.64,3369.5,-113.603,44.8886,80.4572,3341.88,-11246.8,-1477.6,-32.3761,-144.781,89.4374,7230.94,-497.785,2087.86,50.3688,-30.205,-3.59448
4.191,18490.2,-6176.56,10676.9,18.1363,221.945,391.602,4029.62,5178.64,8293.19,7.53307,-12.5826,28.8823,695.386,23033.2,136.857,201.421,249.286,344.004,-785.419,-10108.6,-4254.17,-11.8431,-47.5091,61.3483,-5259.7,2739.45,3170.44,-110.054,44.4108,80.2112,3555.61,-11273.9,-1632.6,-30.382,-144.653,88.9452,7192.56,-472.837,2107.64,50.2367,-31.1727,-3.56043
4.192,18777.4,-6132.78,10631.5,20.6566,217.356,394.492,4155.49,4583.28,8332.09,8.451,-12.9215,29.7544,516.086,23160.6,326.531,199.089,249.703,343.298,-599.124,-10253.8,-3952.17,-10.232,-46.5583,62.2382,-5175.62,2655.95,2932.05,-104.672,46.1969,79.7038,3679.07,-11302.3,-1820.41,-28.7191,-144.119,87.8728,7157.61,-442.268,2082.42,50.1046,-32.1061,-3.49837
4.193,19087.0,-6112.52,10583.1,23.2365,212.795,397.344,4294.43,3908.77,8381.02,9.46104,-13.2547,30.5131,338.842,23283.3,505.631,196.741,249.939,342.518,-393.957,-10414.7,-3625.67,-8.63353,-45.5447,63.1778,-5083.66,2574.55,2688.74,-99.0599,48.266,79.1638,3791.23,-11331.0,-2012.31,-27.0975,-143.535,86.7278,7123.08,-410.997,2051.57,49.9725,-33.0352,-3.43281
4.194,19396.6,-6092.27,10534.6,25.8165,208.234,400.196,4433.37,3234.27,8429.95,10.4711,-13.588,31.2718,161.599,23406.1,684.73,194.392,250.176,341.738,-188.791,-10575.6,-3299.17,-7.03507,-44.5311,64.1174,-4991.69,2493.14,2445.44,-93.4483,50.3351,78.6238,3903.4,-11359.6,-2204.22,-25.476,-142.95,85.5828,7088.55,-379.725,2020.73,49.8404,-33.9643,-3.36725
4.195,19706.1,-6072.01,10486.1,28.3965,203.673,403.048,4572.31,2559.77,8478.88,11.4811,-13.9212,32.0305,-15.6447,23528.9,863.83,192.044,250.412,340.957,16.3759,-10736.6,-2972.67,-5.43662,-43.5176,65.057,-4899.73,2411.73,2202.13,-87.8366,52.4042,78.0838,4015.57,-11388.2,-2396.12,-23.8545,-142.366,84.4379,7054.03,-348.453,1989.88,49.7083,-34.8935,-3.30169
4.196,20048.5,-6109.01,10411.0,31.4105,199.368,405.659,4737.37,1987.63,8490.26,11.5206,-14.2085,31.7775,-243.223,23672.4,970.944,189.626,250.028,339.86,104.382,-10837.5,-2691.87,-4.39272,-42.8141,65.8819,-4782.22,2379.73,2015.21,-82.3578,55.3175,77.3504,4083.49,-11401.5,-2556.91,-22.7331,-141.85,83.0482,7027.56,-327.372,1953.31,49.5697,-35.7239,-3.28085
4.197,20431.7,-6217.57,10302.7,34.9671,195.385,407.967,4935.07,1543.46,8454.71,10.347,-14.4385,30.2601,-533.719,23841.9,988.078,187.123,248.869,338.366,45.9386,-10863.5,-2468.2,-4.04204,-42.4982,66.5634,-4632.78,2409.49,1898.75,-77.0451,59.286,76.3752,4096.13,-11395.5,-2678.81,-22.2367,-141.42,81.3527,7011.18,-319.029,1909.59,49.423,-36.431,-3.31593
4.198,20814.9,-6326.13,10194.4,38.5237,191.401,410.276,5132.78,1099.29,8419.16,9.17332,-14.6685,28.7426,-824.215,24011.3,1005.21,184.62,247.71,336.872,-12.505,-10889.5,-2244.53,-3.69135,-42.1822,67.2449,-4483.34,2439.25,1782.29,-71.7323,63.2545,75.4,4108.76,-11389.6,-2800.7,-21.7402,-140.99,79.6572,6994.79,-310.686,1865.86,49.2763,-37.1381,-3.35101
4.199,21198.2,-6434.69,10086.0,42.0802,187.418,412.585,5330.49,655.114,8383.61,7.99966,-14.8985,27.2252,-1114.71,24180.8,1022.35,182.116,246.55,335.378,-70.9487,-10915.5,-2020.86,-3.34067,-41.8663,67.9264,-4333.9,2469.02,1665.84,-66.4195,67.223,74.4248,4121.39,-11383.6,-2922.59,-21.2438,-140.56,77.9617,6978.41,-302.343,1822.14,49.1295,-37.8451,-3.38609
4.2,21581.4,-6543.25,9977.66,45.6368,183.434,414.893,5528.2,210.942,8348.06,6.82599,-15.1285,25.7077,-1405.21,24350.3,1039.48,179.613,245.391,333.885,-129.392,-10941.5,-1797.18,-2.98998,-41.5503,68.6079,-4184.46,2498.78,1549.38,-61.1068,71.1915,73.4496,4134.02,-11377.7,-3044.49,-20.7474,-140.13,76.2662,6962.02,-294.0,1778.42,48.9828,-38.5522,-3.42117
4.201,21949.1,-6608.53,9821.08,49.4534,180.055,415.78,5567.06,544.203,8305.08,6.05319,-15.5773,24.7354,-1778.02,24483.1,892.631,176.981,243.361,331.681,-355.719,-10824.1,-1685.23,-3.29982,-41.6307,69.328,-4035.9,2653.33,1572.2,-58.5662,75.5332,72.1145,4101.98,-11326.6,-3108.95,-20.972,-139.636,74.1267,6950.49,-314.458,1756.45,49.0451,-39.1765,-3.40811
4.202,22316.8,-6673.82,9664.51,53.2699,176.676,416.667,5605.93,877.465,8262.1,5.28039,-16.0261,23.7631,-2150.83,24616.0,745.782,174.349,241.33,329.477,-582.045,-10706.7,-1573.28,-3.60966,-41.711,70.0481,-3887.34,2807.89,1595.03,-56.0255,79.8749,70.7794,4069.95,-11275.5,-3173.42,-21.1965,-139.142,71.9873,6938.96,-334.917,1734.47,49.1074,-39.8008,-3.39504
4.203,22684.4,-6739.1,9507.94,57.0864,173.298,417.553,5644.79,1210.73,8219.12,4.50758,-16.475,22.7908,-2523.65,24748.8,598.934,171.717,239.3,327.274,-808.372,-10589.4,-1461.33,-3.91949,-41.7914,70.7682,-3738.78,2962.45,1617.85,-53.4849,84.2165,69.4443,4037.91,-11224.4,-3237.88,-21.421,-138.648,69.8478,6927.42,-355.376,1712.49,49.1698,-40.4251,-3.38198
4.204,23052.1,-6804.39,9351.37,60.903,169.919,418.44,5683.65,1543.99,8176.14,3.73478,-16.9238,21.8186,-2896.46,24881.7,452.085,169.086,237.269,325.07,-1034.7,-10472.0,-1349.38,-4.22933,-41.8717,71.4883,-3590.23,3117.01,1640.67,-50.9443,88.5582,68.1092,4005.87,-11173.3,-3302.34,-21.6455,-138.154,67.7083,6915.89,-375.835,1690.52,49.2321,-41.0494,-3.36892
4.205,23342.6,-6886.58,9191.91,64.8407,166.875,418.529,5643.1,1832.85,8162.31,3.56294,-17.2961,21.5982,-3256.19,25005.6,266.533,166.671,234.832,322.851,-1137.47,-10434.9,-1268.08,-4.4161,-42.0582,72.2299,-3433.9,3327.3,1692.11,-49.7396,92.6324,66.8726,3948.27,-11117.5,-3375.72,-21.4153,-137.32,65.5729,6907.12,-394.686,1661.75,49.4371,-41.5352,-3.26396
4.206,23571.3,-6982.29,9030.13,68.8755,164.1,417.98,5539.0,2086.18,8171.81,3.87188,-17.6073,21.9795,-3605.45,25122.2,50.0175,164.431,232.071,320.619,-1141.4,-10462.0,-1211.29,-4.50442,-42.3296,72.9887,-3271.37,3582.18,1766.43,-49.6038,96.4927,65.7149,3870.2,-11058.0,-3456.23,-20.8212,-136.214,63.4408,6900.55,-412.251,1627.54,49.7562,-41.9101,-3.08549
4.207,23800.0,-7078.0,8868.36,72.9102,161.325,417.432,5434.91,2339.52,8181.31,4.18082,-17.9185,22.3607,-3954.71,25238.9,-166.498,162.191,229.309,318.388,-1145.33,-10489.2,-1154.5,-4.59274,-42.6009,73.7476,-3108.84,3837.07,1840.76,-49.4679,100.353,64.5572,3792.14,-10998.6,-3536.74,-20.2272,-135.108,61.3088,6893.98,-429.815,1593.33,50.0754,-42.2851,-2.90702
4.208,24028.7,-7173.71,8706.58,76.945,158.55,416.883,5330.81,2592.86,8190.8,4.48975,-18.2296,22.742,-4303.97,25355.6,-383.013,159.951,226.547,316.156,-1149.26,-10516.3,-1097.72,-4.68106,-42.8723,74.5064,-2946.31,4091.95,1915.08,-49.3321,104.213,63.3995,3714.07,-10939.1,-3617.24,-19.6331,-134.002,59.1767,6887.41,-447.38,1559.12,50.3945,-42.66,-2.72855
4.209,24240.6,-7279.85,8540.96,80.9893,155.853,416.165,5230.41,2797.09,8209.29,4.85402,-18.567,23.1118,-4645.26,25464.7,-605.853,157.762,223.712,313.934,-1141.96,-10546.1,-1046.88,-4.76455,-43.1166,75.2499,-2781.63,4358.11,1987.19,-49.3541,107.959,62.2555,3633.37,-10878.7,-3701.35,-18.853,-132.741,57.1227,6886.89,-467.888,1522.21,50.7241,-42.984,-2.55403
4.21,24318.2,-7469.37,8344.55,85.1094,153.78,414.099,5159.51,2608.54,8299.7,5.66094,-19.114,23.3908,-4922.78,25513.8,-879.283,155.99,220.285,311.782,-1044.81,-10597.0,-1043.67,-4.80941,-43.144,75.8711,-2599.68,4714.49,2041.6,-50.6392,110.793,61.2213,3531.54,-10811.1,-3814.25,-16.5845,-130.25,55.6935,6934.78,-511.94,1463.67,51.1369,-42.9008,-2.41112
4.211,24395.7,-7658.89,8148.14,89.2296,151.708,412.034,5088.61,2419.99,8390.11,6.46787,-19.6611,23.6698,-5200.31,25562.8,-1152.71,154.218,216.858,309.631,-947.663,-10647.9,-1040.45,-4.85428,-43.1715,76.4923,-2417.74,5070.86,2096.0,-51.9243,113.626,60.1871,3429.71,-10743.5,-3927.15,-14.3161,-127.758,54.2642,6982.66,-555.993,1405.13,51.5497,-42.8176,-2.26822
4.212,24473.2,-7848.41,7951.74,93.3498,149.635,409.968,5017.72,2231.43,8480.52,7.27479,-20.2081,23.9488,-5477.83,25611.8,-1426.14,152.446,213.432,307.48,-850.513,-10698.8,-1037.24,-4.89915,-43.199,77.1135,-2235.79,5427.24,2150.41,-53.2093,116.46,59.1529,3327.88,-10676.0,-4040.05,-12.0476,-125.266,52.835,7030.55,-600.046,1346.59,51.9625,-42.7344,-2.12532
4.213,24550.7,-8037.93,7755.33,97.47,147.563,407.902,4946.82,2042.88,8570.93,8.08171,-20.7551,24.2277,-5755.35,25660.8,-1699.57,150.674,210.005,305.329,-753.362,-10749.7,-1034.02,-4.94402,-43.2265,77.7347,-2053.84,5783.62,2204.81,-54.4944,119.294,58.1187,3226.06,-10608.4,-4152.95,-9.77915,-122.775,51.4058,7078.43,-644.098,1288.05,52.3753,-42.6512,-1.98242
4.214,24588.3,-8276.32,7537.4,101.799,145.865,404.669,4905.11,1843.18,8633.19,8.51214,-21.3573,23.8544,-5938.38,25678.2,-2012.87,149.261,206.447,303.402,-667.509,-10737.9,-1027.86,-4.85084,-42.8402,78.3106,-1881.46,6168.52,2305.15,-56.7575,121.291,57.0653,3130.0,-10524.7,-4245.62,-6.92726,-119.145,50.5842,7121.87,-685.583,1240.91,52.708,-42.3865,-1.81596
4.215,24605.9,-8539.13,7308.71,106.233,144.355,400.852,4878.0,1637.91,8681.36,8.75433,-21.987,23.1548,-6074.16,25679.9,-2346.11,148.029,202.822,301.587,-587.304,-10694.6,-1020.23,-4.68864,-42.247,78.864,-1713.86,6567.68,2428.45,-59.5096,122.871,56.0024,3036.84,-10432.8,-4328.18,-3.78365,-114.947,50.0664,7163.07,-725.784,1199.47,53.0005,-42.031,-1.63773
4.216,24623.5,-8801.95,7080.03,110.666,142.844,397.035,4850.89,1432.65,8729.53,8.99651,-22.6168,22.4553,-6209.93,25681.6,-2679.35,146.796,199.198,299.773,-507.099,-10651.3,-1012.6,-4.52643,-41.6538,79.4174,-1546.27,6966.84,2551.75,-62.2617,124.45,54.9394,2943.67,-10340.9,-4410.74,-0.640047,-110.749,49.5486,7204.27,-765.985,1158.03,53.2931,-41.6755,-1.4595
4.217,24641.1,-9064.77,6851.34,115.1,141.333,393.219,4823.77,1227.38,8777.7,9.2387,-23.2465,21.7557,-6345.71,25683.3,-3012.59,145.564,195.573,297.958,-426.893,-10608.0,-1004.97,-4.36423,-41.0606,79.9708,-1378.67,7366.0,2675.06,-65.0138,126.03,53.8765,2850.51,-10249.0,-4493.29,2.50356,-106.55,49.0308,7245.48,-806.186,1116.59,53.5857,-41.32,-1.28127
4.218,24652.9,-9313.39,6623.62,119.502,139.923,389.089,4797.51,1073.12,8818.05,9.42013,-23.9256,21.0362,-6478.2,25677.0,-3359.86,144.492,192.14,296.194,-354.267,-10564.3,-997.412,-4.14964,-40.438,80.5016,-1228.67,7773.22,2806.21,-68.0089,127.13,52.7383,2756.69,-10155.6,-4564.65,5.53445,-102.09,48.7033,7293.4,-850.531,1069.41,53.864,-40.922,-1.10393
4.219,24644.4,-9512.31,6399.28,123.795,138.864,383.867,4774.24,1097.36,8831.02,9.38894,-24.7775,20.2468,-6599.16,25643.0,-3756.26,143.981,189.376,294.605,-308.166,-10519.2,-990.117,-3.7517,-39.7124,80.9534,-1140.29,8208.63,2964.84,-71.8546,126.549,51.3371,2660.59,-10056.8,-4596.78,8.17084,-96.714,49.0421,7364.87,-909.385,1002.18,54.0924,-40.3753,-0.929715
4.22,24635.9,-9711.24,6174.94,128.088,137.805,378.645,4750.96,1121.59,8843.99,9.35774,-25.6294,19.4575,-6720.12,25608.9,-4152.66,143.47,186.612,293.016,-262.065,-10474.2,-982.822,-3.35376,-38.9869,81.4053,-1051.92,8644.03,3123.47,-75.7002,125.969,49.9358,2564.5,-9958.05,-4628.92,10.8072,-91.3376,49.3809,7436.33,-968.238,934.95,54.3208,-39.8286,-0.755498
4.221,24627.4,-9910.16,5950.59,132.38,136.746,373.422,4727.68,1145.83,8856.96,9.32654,-26.4813,18.6681,-6841.08,25574.9,-4549.06,142.96,183.848,291.427,-215.965,-10429.1,-975.527,-2.95582,-38.2614,81.8571,-963.536,9079.44,3282.1,-79.5459,125.389,48.5346,2468.4,-9859.27,-4661.05,13.4436,-85.9612,49.7197,7507.79,-1027.09,867.717,54.5493,-39.2819,-0.58128
4.222,24618.9,-10109.1,5726.25,136.673,135.687,368.2,4704.4,1170.07,8869.93,9.29535,-27.3332,17.8787,-6962.04,25540.8,-4945.45,142.449,181.085,289.839,-169.864,-10384.0,-968.232,-2.55788,-37.5358,82.309,-875.157,9514.84,3440.73,-83.3915,124.808,47.1334,2372.3,-9760.49,-4693.19,16.08,-80.5849,50.0584,7579.26,-1085.95,800.485,54.7777,-38.7352,-0.407063
4.223,24614.6,-10110.0,5550.37,139.964,134.64,362.286,4692.65,1261.39,8893.47,9.56538,-28.4164,17.3431,-7079.26,25468.7,-5319.7,142.17,178.75,288.509,-179.349,-10422.2,-960.02,-2.23482,-36.8553,82.9617,-811.131,9982.34,3546.29,-86.7376,122.986,46.0667,2311.86,-9660.53,-4659.09,17.4234,-75.3468,50.8135,7670.91,-1147.15,757.27,54.9472,-37.9012,-0.353693
4.224,24611.4,-10054.2,5388.32,142.969,133.597,356.174,4684.2,1371.89,8920.03,9.92147,-29.5657,16.8801,-7195.4,25385.8,-5687.63,141.956,176.537,287.253,-204.716,-10484.2,-951.545,-1.93315,-36.1877,83.6719,-754.062,10459.0,3636.7,-89.941,120.809,45.0956,2261.61,-9560.24,-4606.07,18.3975,-70.1483,51.6875,7768.33,-1209.04,720.916,55.0999,-36.9852,-0.334852
4.225,24608.2,-9998.52,5226.28,145.973,132.554,350.063,4675.75,1482.38,8946.59,10.2776,-30.715,16.417,-7311.55,25302.8,-6055.55,141.743,174.325,285.997,-230.083,-10546.1,-943.07,-1.63149,-35.52,84.3821,-696.993,10935.7,3727.1,-93.1444,118.631,44.1246,2211.36,-9459.94,-4553.05,19.3715,-64.9497,52.5615,7865.75,-1270.92,684.563,55.2526,-36.0691,-0.31601
4.226,24605.0,-9942.8,5064.24,148.978,131.511,343.951,4667.3,1592.87,8973.16,10.6336,-31.8643,15.9539,-7427.7,25219.9,-6423.47,141.529,172.112,284.741,-255.45,-10608.1,-934.595,-1.32982,-34.8524,85.0923,-639.925,11412.3,3817.5,-96.3477,116.454,43.1535,2161.1,-9359.64,-4500.03,20.3455,-59.7512,53.4355,7963.17,-1332.8,648.21,55.4052,-35.1531,-0.297168
4.227,24603.4,-9757.13,4894.86,150.929,130.456,337.706,4679.3,1676.98,8999.1,11.1573,-33.0183,15.5684,-7570.27,25098.8,-6762.95,141.37,170.002,283.54,-278.016,-10678.7,-929.871,-0.986298,-34.1635,85.8176,-496.574,11825.7,3882.7,-98.9146,114.346,42.4285,2135.29,-9265.49,-4424.12,20.8243,-55.0042,54.4065,8063.23,-1385.4,626.191,55.5328,-34.2355,-0.281302
4.228,24605.1,-9311.55,4710.82,150.773,129.377,331.193,4732.21,1708.3,9023.82,12.016,-34.1815,15.338,-7765.69,24901.4,-7045.54,141.318,168.096,282.451,-294.983,-10766.4,-932.65,-0.559053,-33.4321,86.5733,-180.658,12112.3,3897.5,-100.208,112.377,42.1954,2158.35,-9183.62,-4302.44,20.3128,-51.1602,55.5715,8168.58,-1419.44,632.843,55.6101,-33.3147,-0.271388
4.229,24606.8,-8865.97,4526.78,150.617,128.298,324.681,4785.11,1739.62,9048.54,12.8748,-35.3447,15.1076,-7961.11,24704.1,-7328.13,141.266,166.191,281.361,-311.95,-10854.2,-935.428,-0.131809,-32.7007,87.329,135.257,12399.0,3912.29,-101.502,110.408,41.9624,2181.4,-9101.75,-4180.76,19.8012,-47.3162,56.7365,8273.94,-1453.47,639.495,55.6874,-32.394,-0.261474
4.23,24608.5,-8420.39,4342.74,150.461,127.219,318.168,4838.02,1770.94,9073.26,13.7335,-36.5079,14.8772,-8156.53,24506.7,-7610.71,141.215,164.285,280.272,-328.917,-10941.9,-938.206,0.295436,-31.9692,88.0847,451.172,12685.6,3927.08,-102.796,108.439,41.7294,2204.46,-9019.87,-4059.08,19.2896,-43.4723,57.9016,8379.3,-1487.51,646.146,55.7648,-31.4732,-0.25156
4.231,24610.2,-7974.81,4158.7,150.305,126.14,311.655,4890.93,1802.26,9097.98,14.5923,-37.6711,14.6468,-8351.95,24309.4,-7893.3,141.163,162.38,279.182,-345.884,-11029.7,-940.984,0.722681,-31.2378,88.8404,767.088,12972.2,3941.88,-104.09,106.47,41.4963,2227.52,-8938.0,-3937.4,18.7781,-39.6283,59.0666,8484.65,-1521.54,652.798,55.8421,-30.5525,-0.241646
4.232,24625.4,-7358.46,3995.12,146.684,125.235,304.456,4928.56,1724.31,9136.17,15.2781,-38.8274,14.3627,-8695.03,24107.0,-8071.94,141.228,159.964,277.593,-398.961,-11059.0,-966.199,0.878291,-30.6645,89.7522,1292.49,13073.0,4055.68,-104.198,104.21,41.4982,2295.02,-8913.0,-3812.89,17.7949,-37.0975,60.0968,8606.09,-1553.4,653.783,55.7804,-29.6279,-0.127651
4.233,24642.2,-6720.75,3834.11,142.63,124.352,297.17,4964.29,1632.71,9176.06,15.9423,-39.9829,14.0718,-9056.57,23904.0,-8237.59,141.307,157.484,275.94,-456.551,-11081.0,-994.217,0.999947,-30.111,90.6835,1844.08,13150.6,4181.85,-104.157,101.913,41.5294,2368.07,-8895.12,-3688.03,16.7527,-34.7309,61.1102,8729.54,-1584.99,654.06,55.7013,-28.7029,-0.000644406
4.234,24659.1,-6083.05,3673.09,138.576,123.469,289.885,5000.01,1541.1,9215.94,16.6065,-41.1384,13.7809,-9418.11,23701.0,-8403.24,141.386,155.004,274.288,-514.142,-11103.0,-1022.24,1.1216,-29.5575,91.6148,2395.68,13228.2,4308.03,-104.117,99.6165,41.5606,2441.13,-8877.23,-3563.17,15.7106,-32.3643,62.1236,8852.99,-1616.58,654.337,55.6221,-27.7778,0.126362
4.235,24676.0,-5445.35,3512.07,134.521,122.586,282.599,5035.73,1449.49,9255.82,17.2708,-42.2938,13.4901,-9779.64,23498.0,-8568.89,141.465,152.524,272.636,-571.732,-11125.0,-1050.25,1.24326,-29.004,92.5462,2947.27,13305.8,4434.21,-104.077,97.3199,41.5918,2514.18,-8859.34,-3438.31,14.6684,-29.9976,63.1369,8976.43,-1648.16,654.615,55.543,-26.8527,0.253368
4.236,24708.9,-4858.67,3354.57,128.979,121.745,275.108,5035.91,1399.79,9281.02,17.8718,-43.4116,13.1264,-10189.5,23296.1,-8682.7,141.504,149.301,270.666,-627.08,-11151.6,-1071.0,1.27985,-28.6764,93.2075,3497.79,13360.6,4515.23,-103.489,95.2716,41.7641,2604.36,-8855.97,-3302.88,13.6555,-28.1074,64.0015,9078.35,-1679.41,666.256,55.4002,-25.9562,0.405325
4.237,24761.9,-4335.78,3201.45,121.576,120.958,267.361,4991.67,1402.45,9287.88,18.3939,-44.4824,12.6718,-10659.8,23095.4,-8731.7,141.493,145.15,268.301,-679.624,-11184.0,-1082.65,1.2101,-28.6314,93.5315,4046.97,13387.2,4539.81,-102.217,93.5335,42.1128,2715.94,-8870.73,-3154.23,12.6792,-26.8126,64.68,9153.34,-1710.21,692.101,55.1779,-25.0952,0.588472
4.238,24814.9,-3812.88,3048.33,114.173,120.171,259.613,4947.43,1405.12,9294.74,18.916,-45.5531,12.2172,-11130.2,22894.8,-8780.7,141.482,140.999,265.936,-732.167,-11216.4,-1094.3,1.14035,-28.5864,93.8554,4596.16,13413.7,4564.38,-100.945,91.7954,42.4615,2827.52,-8885.49,-3005.58,11.703,-25.5178,65.3585,9228.34,-1741.02,717.947,54.9555,-24.2343,0.771618
4.239,24867.8,-3289.99,2895.21,106.771,119.385,251.865,4903.19,1407.79,9301.6,19.4381,-46.6238,11.7626,-11600.5,22694.1,-8829.7,141.47,136.847,263.57,-784.711,-11248.7,-1105.95,1.0706,-28.5414,94.1794,5145.34,13440.2,4588.96,-99.6724,90.0573,42.8102,2939.09,-8900.25,-2856.93,10.7267,-24.2231,66.037,9303.33,-1771.83,743.793,54.7331,-23.3734,0.954764
4.24,24920.8,-2767.09,2742.09,99.3678,118.598,244.117,4858.95,1410.45,9308.46,19.9602,-47.6946,11.3079,-12070.8,22493.5,-8878.71,141.459,132.696,261.205,-837.255,-11281.1,-1117.6,1.00085,-28.4963,94.5033,5694.53,13466.8,4613.54,-98.4002,88.3191,43.1589,3050.67,-8915.01,-2708.28,9.75038,-22.9283,66.7156,9378.33,-1802.64,769.638,54.5107,-22.5124,1.13791
4.241,24953.5,-2361.01,2632.07,90.5219,117.664,236.729,4781.37,1478.81,9289.6,20.8399,-49.0016,11.0065,-12598.9,22396.4,-8665.17,140.259,126.534,258.208,-818.077,-11332.6,-1118.25,1.15223,-28.5879,95.253,6129.07,13400.8,4604.58,-94.6598,87.1141,43.8423,3122.96,-8954.27,-2545.84,8.67013,-22.2435,67.0722,9452.79,-1797.68,775.865,54.0976,-21.7749,1.31281
4.242,24986.1,-1954.93,2522.04,81.676,116.73,229.342,4703.79,1547.16,9270.74,21.7196,-50.3086,10.7052,-13127.0,22299.3,-8451.63,139.058,120.371,255.211,-798.898,-11384.1,-1118.9,1.3036,-28.6794,96.0026,6563.62,13334.9,4595.63,-90.9193,85.9091,44.5256,3195.24,-8993.52,-2383.4,7.58988,-21.5586,67.4288,9527.24,-1792.73,782.091,53.6844,-21.0373,1.48772
4.243,25018.7,-1548.86,2412.01,72.8301,115.796,221.954,4626.21,1615.52,9251.88,22.5993,-51.6156,10.4038,-13655.1,22202.2,-8238.09,137.857,114.209,252.214,-779.72,-11435.6,-1119.55,1.45497,-28.7709,96.7522,6998.16,13269.0,4586.67,-87.1789,84.7041,45.209,3267.53,-9032.78,-2220.95,6.50964,-20.8738,67.7854,9601.7,-1787.78,788.317,53.2712,-20.2997,1.66262
4.244,25051.3,-1142.78,2301.99,63.9843,114.863,214.566,4548.64,1683.87,9233.02,23.4789,-52.9226,10.1024,-14183.2,22105.1,-8024.55,136.657,108.047,249.217,-760.542,-11487.0,-1120.2,1.60634,-28.8624,97.5019,7432.71,13203.1,4577.71,-83.4385,83.499,45.8923,3339.81,-9072.04,-2058.51,5.42939,-20.1889,68.1421,9676.16,-1782.82,794.544,52.858,-19.5621,1.83752
4.245,25033.1,-736.794,2241.7,54.8116,113.681,207.511,4506.17,1746.45,9221.35,24.1118,-54.2552,9.87837,-14691.6,22057.0,-7696.58,134.94,100.896,246.192,-760.113,-11492.1,-1143.17,1.84843,-28.9501,98.137,7785.51,13072.9,4431.45,-78.1582,82.2113,46.7543,3365.17,-9126.05,-1901.27,4.20604,-19.7766,68.2493,9748.1,-1763.11,808.506,52.4562,-18.8724,2.06699
4.246,24974.3,-330.885,2221.21,45.3776,112.301,200.723,4491.81,1804.42,9215.42,24.5473,-55.6081,9.71626,-15184.1,22047.9,-7277.07,132.811,92.9548,243.146,-774.683,-11460.0,-1183.99,2.16309,-29.0347,98.6806,8072.92,12891.4,4175.33,-71.6461,80.8574,47.7592,3352.98,-9191.86,-1748.2,2.86821,-19.5823,68.157,9818.04,-1731.58,828.658,52.0635,-18.2209,2.34009
4.247,24915.5,75.0241,2200.72,35.9436,110.921,193.935,4477.44,1862.39,9209.49,24.9828,-56.9611,9.55415,-15676.6,22038.9,-6857.55,130.681,85.0136,240.1,-789.253,-11428.0,-1224.81,2.47775,-29.1194,99.2242,8360.33,12709.9,3919.21,-65.134,79.5036,48.7641,3340.78,-9257.68,-1595.12,1.53038,-19.388,68.0646,9887.97,-1700.06,848.809,51.6708,-17.5694,2.6132
4.248,24856.7,480.933,2180.23,26.5095,109.541,187.147,4463.07,1920.35,9203.56,25.4182,-58.314,9.39204,-16169.1,22029.9,-6438.04,128.552,77.0723,237.054,-803.823,-11395.9,-1265.64,2.79241,-29.204,99.7678,8647.73,12528.5,3663.09,-58.6219,78.1497,49.7689,3328.59,-9323.49,-1442.04,0.192551,-19.1937,67.9723,9957.91,-1668.53,868.961,51.278,-16.9179,2.88631
4.249,24792.1,896.635,2163.86,17.1056,108.119,180.511,4455.51,1977.83,9199.54,25.8824,-59.6592,9.25953,-16644.1,22021.9,-6000.87,126.328,69.0196,234.023,-813.979,-11365.4,-1301.11,3.11392,-29.2069,100.324,8914.4,12343.5,3403.95,-51.8878,76.8625,50.6679,3312.22,-9387.88,-1291.19,-1.1366,-19.0778,67.8477,10028.4,-1634.83,890.24,50.8632,-16.2692,3.16002
4.25,24681.4,1390.68,2180.49,7.94234,106.362,175.087,4502.41,2031.38,9210.78,26.5761,-60.942,9.36385,-16978.9,22021.9,-5422.48,123.352,60.0751,231.118,-788.818,-11347.3,-1293.76,3.49021,-28.5563,100.978,9015.16,12130.8,3120.58,-43.3782,76.1086,50.7192,3262.33,-9440.79,-1158.16,-2.3963,-19.5894,67.4644,10103.3,-1583.67,920.54,50.2717,-15.6426,3.43854
4.251,24570.8,1884.72,2197.11,-1.22092,104.605,169.663,4549.3,2084.93,9222.01,27.2697,-62.2247,9.46816,-17313.7,22021.9,-4844.09,120.376,51.1306,228.213,-763.656,-11329.2,-1286.42,3.86649,-27.9056,101.632,9115.92,11918.2,2837.22,-34.8686,75.3547,50.7706,3212.45,-9493.71,-1025.12,-3.656,-20.101,67.0812,10178.3,-1532.52,950.84,49.6802,-15.016,3.71706
4.252,24460.1,2378.76,2213.74,-10.3842,102.848,164.239,4596.2,2138.47,9233.25,27.9634,-63.5075,9.57248,-17648.5,22021.9,-4265.71,117.4,42.1861,225.308,-738.495,-11311.1,-1279.07,4.24278,-27.255,102.286,9216.68,11705.5,2553.85,-26.359,74.6008,50.8219,3162.57,-9546.63,-892.09,-4.91571,-20.6126,66.698,10253.2,-1481.37,981.141,49.0887,-14.3894,3.99558
4.253,24349.5,2872.81,2230.36,-19.5475,101.091,158.815,4643.1,2192.02,9244.48,28.6571,-64.7903,9.6768,-17983.2,22021.9,-3687.32,114.423,33.2417,222.403,-713.334,-11293.0,-1271.73,4.61906,-26.6043,102.941,9317.44,11492.8,2270.48,-17.8494,73.8469,50.8733,3112.69,-9599.55,-759.055,-6.17541,-21.1242,66.3148,10328.1,-1430.21,1011.44,48.4972,-13.7628,4.2741
4.254,24317.1,3393.46,2122.32,-28.4217,99.8464,153.965,4684.32,2194.42,9253.98,28.8006,-66.1201,9.51698,-18241.9,22007.9,-3077.78,110.953,24.0778,219.55,-682.567,-11308.4,-1267.66,4.99704,-26.0406,103.561,9240.14,11435.2,1887.93,-9.05075,73.6314,50.7883,3048.56,-9628.78,-659.466,-7.40558,-22.1067,65.8346,10389.1,-1371.28,1042.18,47.6083,-13.1062,4.56752
4.255,24324.0,3927.42,1951.95,-37.1514,98.858,149.402,4722.72,2171.25,9262.6,28.669,-67.4735,9.2251,-18462.5,21986.9,-2452.67,107.235,14.8042,216.724,-648.996,-11340.7,-1265.23,5.37586,-25.5203,104.165,9073.82,11455.0,1455.79,-0.107595,73.6851,50.6352,2977.3,-9646.16,-576.599,-8.62099,-23.3245,65.3061,10443.1,-1308.47,1073.14,46.5707,-12.4347,4.86839
4.256,24330.9,4461.38,1781.58,-45.8811,97.8696,144.838,4761.11,2148.08,9271.23,28.5375,-68.8269,8.93321,-18683.1,21966.0,-1827.56,103.516,5.53056,213.897,-615.426,-11372.9,-1262.8,5.75468,-25.0,104.769,8907.49,11474.9,1023.64,8.83556,73.7388,50.4821,2906.04,-9663.54,-493.733,-9.8364,-24.5424,64.7776,10497.1,-1245.65,1104.1,45.5331,-11.7631,5.16925
4.257,24337.7,4995.34,1611.21,-54.6107,96.8812,140.275,4799.51,2124.9,9279.85,28.4059,-70.1803,8.64133,-18903.8,21945.0,-1202.45,99.7982,-3.74304,211.07,-581.856,-11405.1,-1260.37,6.1335,-24.4797,105.374,8741.17,11494.8,591.497,17.7787,73.7925,50.3289,2834.78,-9680.92,-410.866,-11.0518,-25.7602,64.249,10551.0,-1182.83,1135.06,44.4955,-11.0916,5.47012
4.258,24411.0,5453.87,1418.41,-62.951,96.1423,135.787,4830.05,2110.85,9291.62,28.2163,-71.5274,8.36581,-19090.5,21916.5,-573.757,95.9605,-12.8298,208.056,-556.978,-11431.3,-1254.27,6.53513,-23.9328,106.018,8558.43,11537.6,161.087,25.7782,73.8339,50.1398,2761.08,-9696.21,-351.387,-12.1915,-27.0113,63.68,10608.5,-1120.18,1163.97,43.4157,-10.4466,5.80974
4.259,24716.9,5648.4,1147.1,-69.9282,96.2764,131.562,4833.11,2128.69,9314.4,27.8236,-72.8527,8.14759,-19158.5,21861.2,67.4595,91.7044,-21.2629,204.385,-562.521,-11436.4,-1235.36,7.01659,-23.2925,106.803,8318.25,11660.8,-263.249,30.4748,73.8326,49.8247,2678.83,-9704.16,-373.762,-13.0662,-28.3786,62.9693,10678.3,-1058.13,1185.72,42.1879,-9.89453,6.28503
4.26,25022.7,5842.92,875.797,-76.9054,96.4106,127.338,4836.17,2146.53,9337.18,27.4308,-74.1779,7.92937,-19226.5,21806.0,708.676,87.4482,-29.6959,200.714,-568.063,-11441.4,-1216.45,7.49805,-22.6523,107.588,8078.06,11784.0,-687.586,35.1714,73.8314,49.5096,2596.59,-9712.12,-396.137,-13.9409,-29.7459,62.2586,10748.0,-996.084,1207.47,40.9602,-9.34245,6.76033
4.261,25328.5,6037.45,604.491,-83.8825,96.5448,123.113,4839.23,2164.38,9359.96,27.0381,-75.5031,7.71115,-19294.5,21750.7,1349.89,83.1921,-38.129,197.043,-573.606,-11446.5,-1197.54,7.97952,-22.012,108.372,7837.88,11907.3,-1111.92,39.8679,73.8301,49.1945,2514.34,-9720.07,-418.511,-14.8156,-31.1132,61.5479,10817.8,-934.036,1229.22,39.7324,-8.79037,7.23562
4.262,25634.4,6231.98,333.185,-90.8597,96.679,118.888,4842.3,2182.22,9382.74,26.6454,-76.8283,7.49293,-19362.5,21695.5,1991.11,78.936,-46.562,193.373,-579.149,-11451.6,-1178.63,8.46098,-21.3718,109.157,7597.69,12030.5,-1536.26,44.5645,73.8288,48.8795,2432.1,-9728.02,-440.886,-15.6903,-32.4805,60.8372,10887.5,-871.988,1250.96,38.5047,-8.23829,7.71091
4.263,26090.7,6186.69,22.4684,-94.6425,97.1681,114.75,4813.59,2156.91,9408.42,26.3942,-78.2492,7.39682,-19296.7,21619.2,2500.95,74.6608,-53.7245,189.274,-557.727,-11448.1,-1180.4,9.08158,-20.465,109.966,7467.01,12229.4,-2044.82,46.5659,73.7563,48.7422,2344.64,-9752.84,-547.164,-16.2944,-33.5576,60.1535,10941.4,-807.729,1265.91,37.3487,-7.79934,8.15001
4.264,26590.0,6072.89,-299.508,-97.5125,97.7587,110.636,4775.81,2119.28,9434.93,26.1836,-79.6974,7.3356,-19192.7,21536.8,2973.25,70.3801,-60.524,185.054,-528.602,-11442.1,-1188.08,9.74194,-19.4821,110.782,7367.63,12449.9,-2577.45,47.7971,73.6634,48.6558,2255.7,-9782.48,-677.415,-16.8211,-34.5518,59.4775,10990.8,-742.837,1278.91,36.2132,-7.39271,8.57877
4.265,27089.3,5959.09,-621.485,-100.383,98.3493,106.523,4738.02,2081.64,9461.44,25.9729,-81.1456,7.27438,-19088.7,21454.4,3445.56,66.0995,-67.3235,180.833,-499.476,-11436.1,-1195.76,10.4023,-18.4993,111.597,7268.24,12670.4,-3110.07,49.0284,73.5704,48.5694,2166.75,-9812.11,-807.665,-17.3478,-35.546,58.8015,11040.2,-677.946,1291.92,35.0778,-6.98608,9.00754
4.266,27588.6,5845.29,-943.462,-103.253,98.9399,102.409,4700.24,2044.0,9487.95,25.7623,-82.5938,7.21316,-18984.6,21372.1,3917.86,61.8189,-74.1229,176.612,-470.35,-11430.1,-1203.44,11.0627,-17.5164,112.413,7168.85,12891.0,-3642.7,50.2597,73.4775,48.483,2077.81,-9841.75,-937.915,-17.8745,-36.5401,58.1255,11089.5,-613.054,1304.92,33.9423,-6.57945,9.4363
4.267,28116.6,5715.75,-1329.91,-105.08,99.8068,98.3194,4666.8,1999.18,9515.42,25.5939,-84.0758,7.06099,-18875.7,21229.0,4291.09,57.5737,-80.448,172.218,-446.395,-11442.1,-1195.57,11.6469,-16.5999,113.161,7124.01,13096.4,-4191.5,50.6939,73.2441,48.5366,1999.54,-9870.99,-1095.0,-18.327,-37.2986,57.4832,11134.2,-542.691,1317.71,32.7744,-6.16932,9.815
4.268,28702.0,5554.72,-1845.28,-104.822,101.226,94.2777,4642.08,1939.99,9544.81,25.5102,-85.6253,6.72694,-18757.1,20964.7,4466.18,53.3997,-85.8244,167.478,-432.781,-11490.2,-1156.62,12.0788,-15.8162,113.774,7188.24,13271.5,-4772.66,49.5341,72.7295,48.8703,1942.62,-9899.42,-1305.76,-18.6312,-37.5856,56.9079,11169.5,-461.383,1330.06,31.5417,-5.75217,10.0936
4.269,29287.4,5393.69,-2360.66,-104.564,102.646,90.2359,4617.35,1880.8,9574.2,25.4264,-87.1747,6.39289,-18638.4,20700.3,4641.26,49.2256,-91.2008,162.737,-419.168,-11538.3,-1117.67,12.5108,-15.0325,114.387,7252.47,13446.6,-5353.81,48.3743,72.215,49.204,1885.69,-9927.86,-1516.52,-18.9354,-37.8726,56.3327,11204.9,-380.076,1342.42,30.3089,-5.33503,10.3722
4.27,29872.8,5232.66,-2876.04,-104.306,104.066,86.1941,4592.62,1821.62,9603.58,25.3427,-88.7242,6.05884,-18519.8,20435.9,4816.35,45.0515,-96.5771,157.996,-405.554,-11586.4,-1078.72,12.9427,-14.2488,115.0,7316.7,13621.7,-5934.97,47.2145,71.7005,49.5377,1828.77,-9956.3,-1727.29,-19.2395,-38.1596,55.7575,11240.2,-298.768,1354.77,29.0762,-4.91788,10.6508
4.271,30458.2,5071.63,-3391.42,-104.048,105.485,82.1524,4567.89,1762.43,9632.97,25.2589,-90.2737,5.72479,-18401.2,20171.6,4991.43,40.8774,-101.953,153.255,-391.94,-11634.5,-1039.77,13.3747,-13.4651,115.613,7380.94,13796.8,-6516.13,46.0547,71.186,49.8713,1771.85,-9984.74,-1938.05,-19.5437,-38.4466,55.1822,11275.6,-217.461,1367.12,27.8435,-4.50074,10.9293
4.272,30892.5,4950.43,-3973.56,-100.232,107.324,77.7079,4602.98,1764.41,9674.91,25.0613,-92.0184,5.18943,-18387.8,19776.7,4993.79,36.6487,-105.473,148.087,-440.519,-11669.7,-974.052,13.7802,-12.5563,116.195,7592.94,14005.0,-6964.89,43.1159,70.1932,49.9185,1772.78,-10014.2,-2139.93,-19.648,-37.9264,54.717,11308.8,-135.184,1367.12,26.6455,-4.10114,11.1564
4.273,31307.9,4834.2,-4564.06,-95.9703,109.215,73.2132,4645.56,1774.03,9718.42,24.8495,-93.7876,4.6289,-18387.6,19365.5,4974.56,32.4132,-108.761,142.866,-496.871,-11703.3,-904.985,14.1825,-11.6318,116.774,7823.41,14217.3,-7397.1,39.9548,69.1405,49.9298,1780.95,-10043.7,-2340.7,-19.7273,-37.3054,54.2656,11341.8,-52.7858,1365.57,25.4519,-3.70373,11.377
4.274,31723.4,4717.98,-5154.55,-91.7087,111.106,68.7184,4688.13,1783.66,9761.92,24.6377,-95.5567,4.06837,-18387.3,18954.2,4955.33,28.1776,-112.049,137.645,-553.224,-11736.9,-835.919,14.5847,-10.7073,117.352,8053.88,14429.6,-7829.32,36.7936,68.0879,49.9412,1789.11,-10073.3,-2541.47,-19.8066,-36.6843,53.8141,11374.7,29.6122,1364.02,24.2582,-3.30632,11.5976
4.275,32138.8,4601.75,-5745.05,-87.4472,112.996,64.2236,4730.7,1793.29,9805.43,24.4259,-97.3258,3.50785,-18387.1,18543.0,4936.1,23.9421,-115.337,132.424,-609.576,-11770.5,-766.853,14.987,-9.78284,117.931,8284.35,14641.9,-8261.53,33.6324,67.0352,49.9525,1797.28,-10102.8,-2742.24,-19.886,-36.0632,53.3627,11407.7,112.01,1362.47,23.0646,-2.90891,11.8182
4.276,32386.2,4502.94,-6288.29,-81.9286,114.718,59.2359,4758.74,1806.32,9851.13,24.1921,-99.1753,3.02656,-18387.5,18120.9,4908.12,19.6693,-117.946,127.033,-661.236,-11824.0,-734.113,15.3682,-9.12128,118.53,8504.7,14844.3,-8545.7,30.3001,65.36,50.5146,1825.61,-10135.9,-2937.49,-19.8712,-35.0848,53.0446,11436.4,200.669,1348.43,21.8371,-2.54677,12.0089
4.277,32423.6,4425.9,-6772.48,-74.8388,116.228,53.632,4768.61,1823.59,9899.6,23.931,-101.125,2.64434,-18388.7,17685.3,4869.2,15.35,-119.707,121.429,-707.029,-11902.4,-746.782,15.7233,-8.78834,119.156,8712.39,15034.2,-8644.84,26.754,62.9067,51.7651,1879.14,-10173.2,-3125.84,-19.7388,-33.6596,52.8932,11459.8,297.154,1318.77,20.5672,-2.22871,12.1622
4.278,32461.1,4348.85,-7256.66,-67.7489,117.738,48.0282,4778.49,1840.87,9948.06,23.6698,-103.075,2.26211,-18389.8,17249.6,4830.27,11.0306,-121.468,115.824,-752.823,-11980.8,-759.45,16.0784,-8.4554,119.781,8920.09,15224.2,-8743.97,23.2078,60.4533,53.0156,1932.67,-10210.5,-3314.19,-19.6065,-32.2344,52.7418,11483.3,393.639,1289.12,19.2973,-1.91065,12.3155
4.279,32498.5,4271.81,-7740.84,-60.659,119.248,42.4243,4788.36,1858.15,9996.52,23.4087,-105.025,1.87989,-18391.0,16813.9,4791.35,6.71124,-123.228,110.22,-798.616,-12059.3,-772.119,16.4335,-8.12247,120.406,9127.79,15414.1,-8843.1,19.6616,57.9999,54.2662,1986.2,-10247.8,-3502.55,-19.4741,-30.8092,52.5904,11506.7,490.124,1259.46,18.0274,-1.59259,12.4688
4.28,32535.9,4194.77,-8225.03,-53.5691,120.758,36.8204,4798.23,1875.43,10045.0,23.1475,-106.975,1.49766,-18392.2,16378.3,4752.42,2.39187,-124.989,104.616,-844.409,-12137.7,-784.788,16.7885,-7.78953,121.032,9335.48,15604.1,-8942.24,16.1154,55.5465,55.5167,2039.73,-10285.2,-3690.9,-19.3417,-29.384,52.439,11530.1,586.609,1229.8,16.7575,-1.27453,12.6221
4.281,32174.6,4201.81,-8611.98,-45.9718,120.499,30.214,4807.85,1868.01,10075.5,23.4381,-109.032,1.30807,-18404.0,16062.6,4678.74,-0.928769,-125.793,98.632,-871.146,-12237.3,-787.215,17.0909,-7.44882,121.611,9543.65,15652.5,-8647.39,13.4624,51.3735,56.5104,2119.88,-10320.6,-3799.77,-19.2422,-27.3471,52.6004,11537.9,676.872,1181.61,15.5144,-0.798269,12.6191
4.282,31813.2,4208.86,-8998.93,-38.3744,120.241,23.6076,4817.47,1860.59,10106.0,23.7287,-111.088,1.11848,-18415.9,15746.9,4605.06,-4.24941,-126.598,92.6481,-897.882,-12337.0,-789.643,17.3932,-7.10811,122.19,9751.82,15700.8,-8352.54,10.8094,47.2005,57.5041,2200.03,-10356.0,-3908.63,-19.1426,-25.3103,52.7619,11545.7,767.136,1133.42,14.2714,-0.322008,12.616
4.283,31451.9,4215.91,-9385.89,-30.7771,119.982,17.0011,4827.08,1853.18,10136.5,24.0193,-113.144,0.928895,-18427.7,15431.3,4531.38,-7.57005,-127.402,86.6642,-924.618,-12436.7,-792.07,17.6956,-6.76741,122.769,9959.99,15749.2,-8057.7,8.15641,43.0275,58.4978,2280.17,-10391.4,-4017.49,-19.0431,-23.2734,52.9233,11553.5,857.4,1085.23,13.0283,0.154253,12.613
4.284,31090.5,4222.96,-9772.84,-23.1797,119.723,10.3947,4836.7,1845.76,10167.0,24.31,-115.2,0.739306,-18439.6,15115.6,4457.69,-10.8907,-128.207,80.6803,-951.354,-12536.4,-794.498,17.9979,-6.4267,123.348,10168.2,15797.6,-7762.85,5.5034,38.8546,59.4915,2360.32,-10426.8,-4126.36,-18.9435,-21.2365,53.0848,11561.3,947.663,1037.03,11.7853,0.630514,12.6099
4.285,30574.0,4315.56,-10066.9,-16.3146,118.399,3.18162,4826.24,1813.86,10199.0,24.5279,-117.277,0.518416,-18423.6,14893.4,4281.24,-13.3978,-128.346,74.2762,-984.081,-12630.4,-808.744,18.3712,-5.98641,123.902,10351.0,15739.7,-7285.6,4.01447,34.1621,59.7843,2448.72,-10467.5,-4200.22,-18.8789,-19.0886,53.4223,11578.1,1031.09,995.024,10.5716,1.07484,12.6107
4.286,29933.4,4476.6,-10286.8,-10.0352,116.223,-4.51676,4799.7,1762.36,10232.2,24.6878,-119.371,0.272486,-18385.2,14745.9,4022.57,-15.254,-127.954,67.5361,-1021.6,-12719.8,-832.445,18.8011,-5.46645,124.436,10513.7,15596.9,-6662.43,3.45682,29.0539,59.5164,2543.72,-10512.5,-4246.09,-18.8422,-16.8518,53.9006,11602.2,1109.04,957.959,9.38133,1.49361,12.6145
4.287,29292.8,4637.64,-10506.6,-3.75585,114.047,-12.2152,4773.17,1710.86,10265.4,24.8477,-121.465,0.0265567,-18346.9,14598.4,3763.89,-17.1103,-127.561,60.796,-1059.12,-12809.2,-856.146,19.231,-4.94649,124.97,10676.3,15454.0,-6039.25,2.89916,23.9458,59.2485,2638.73,-10557.6,-4291.96,-18.8055,-14.6151,54.3789,11626.3,1186.99,920.893,8.1911,1.91238,12.6184
4.288,28652.2,4798.68,-10726.4,2.52352,111.871,-19.9135,4746.63,1659.36,10298.5,25.0075,-123.558,-0.219373,-18308.6,14451.0,3505.22,-18.9665,-127.169,54.0558,-1096.64,-12898.6,-879.847,19.6609,-4.42653,125.503,10839.0,15311.1,-5416.08,2.3415,18.8377,58.9807,2733.73,-10602.6,-4337.83,-18.7687,-12.3783,54.8572,11650.4,1264.94,883.828,7.00086,2.33114,12.6222
4.289,28013.5,4963.5,-10927.7,8.56337,109.513,-27.7361,4720.46,1615.82,10331.4,25.1888,-125.674,-0.475043,-18256.4,14326.0,3252.79,-20.74,-126.723,47.2967,-1129.92,-12987.6,-901.155,20.0708,-3.94358,126.043,10996.6,15160.6,-4792.08,2.09476,13.8382,58.5915,2826.55,-10646.6,-4378.36,-18.7193,-10.1729,55.3477,11673.2,1338.99,845.967,5.81992,2.72116,12.6228
4.29,27390.8,5158.57,-10980.9,12.6871,105.699,-36.5521,4697.16,1635.97,10362.1,25.5416,-127.961,-0.808639,-18093.8,14381.4,3050.25,-21.8518,-125.848,40.3862,-1129.32,-13073.1,-903.316,20.32,-3.75669,126.627,11114.2,14949.0,-4161.42,4.33537,9.7082,57.2317,2901.83,-10682.9,-4376.22,-18.5685,-8.21802,55.936,11685.6,1381.84,801.744,4.71323,2.88117,12.5971
4.291,26768.0,5353.64,-11034.0,16.8108,101.886,-45.3681,4673.85,1656.13,10392.8,25.8945,-130.249,-1.14223,-17931.2,14436.7,2847.72,-22.9636,-124.974,33.4757,-1128.72,-13158.6,-905.477,20.5692,-3.5698,127.212,11231.8,14737.3,-3530.76,6.57598,5.57818,55.872,2977.11,-10719.1,-4374.07,-18.4177,-6.26317,56.5243,11698.0,1424.69,757.52,3.60654,3.04117,12.5715
4.292,26145.2,5548.7,-11087.2,20.9346,98.0725,-54.184,4650.55,1676.28,10423.5,26.2473,-132.536,-1.47583,-17768.6,14492.1,2645.18,-24.0754,-124.099,26.5651,-1128.12,-13244.1,-907.638,20.8184,-3.38291,127.796,11349.4,14525.7,-2900.1,8.8166,1.44817,54.5122,3052.39,-10755.4,-4371.93,-18.2669,-4.30832,57.1126,11710.4,1467.54,713.297,2.49985,3.20118,12.5459
4.293,25522.5,5743.77,-11140.4,25.0583,94.2591,-63.0,4627.25,1696.44,10454.2,26.6001,-134.823,-1.80943,-17606.0,14547.4,2442.65,-25.1871,-123.224,19.6546,-1127.52,-13329.5,-909.8,21.0675,-3.19602,128.381,11467.0,14314.1,-2269.44,11.0572,-2.68185,53.1525,3127.68,-10791.6,-4369.79,-18.1161,-2.35348,57.7009,11722.9,1510.39,669.073,1.39316,3.36118,12.5202
4.294,25024.3,5871.7,-11188.9,27.2642,89.9623,-72.229,4629.52,1713.5,10477.3,27.1441,-137.238,-2.06922,-17438.1,14625.4,2278.83,-25.8941,-121.961,13.0287,-1152.8,-13409.9,-919.736,21.3643,-3.08078,128.819,11496.1,14109.2,-1786.4,14.2133,-5.19935,51.4805,3181.85,-10840.5,-4332.26,-17.8837,-0.479291,58.3786,11723.0,1527.55,620.552,0.552749,3.4004,12.3775
4.295,24588.4,5966.05,-11235.1,28.5112,85.4239,-81.6646,4644.57,1729.02,10496.5,27.7837,-139.717,-2.29212,-17267.6,14714.7,2134.38,-26.3987,-120.503,6.5453,-1191.02,-13487.7,-933.559,21.6848,-3.00138,129.184,11480.9,13907.7,-1377.18,17.8271,-6.91058,49.6523,3225.47,-10895.7,-4277.03,-17.6105,1.35457,59.101,11717.0,1531.87,569.883,-0.15453,3.37922,12.1761
4.296,24152.5,6060.4,-11281.3,29.7581,80.8854,-91.1001,4659.63,1744.54,10515.7,28.4233,-142.196,-2.51502,-17097.1,14804.0,1989.92,-26.9032,-119.045,0.0618597,-1229.23,-13565.6,-947.383,22.0052,-2.92198,129.549,11465.8,13706.2,-967.955,21.4409,-8.62182,47.8241,3269.09,-10951.0,-4221.81,-17.3373,3.18842,59.8233,11711.1,1536.18,519.214,-0.861809,3.35804,11.9747
4.297,23716.5,6154.75,-11327.4,31.0051,76.347,-100.536,4674.68,1760.05,10534.9,29.0629,-144.674,-2.73792,-16926.5,14893.4,1845.46,-27.4078,-117.587,-6.42159,-1267.45,-13643.4,-961.206,22.3257,-2.84257,129.914,11450.7,13504.7,-558.731,25.0547,-10.3331,45.9959,3312.7,-11006.2,-4166.59,-17.0641,5.02228,60.5457,11705.1,1540.5,468.545,-1.56909,3.33686,11.7733
4.298,23330.4,6207.76,-11331.6,31.927,71.6914,-109.777,4692.37,1769.4,10552.3,29.6939,-147.129,-2.92437,-16746.1,14967.6,1691.63,-27.852,-116.039,-12.7763,-1303.98,-13715.4,-978.169,22.6367,-2.83736,130.295,11398.0,13321.6,-211.989,28.7155,-11.4448,44.3934,3344.78,-11061.5,-4110.68,-16.7356,6.75874,61.2291,11697.0,1533.89,412.002,-2.21924,3.29608,11.5581
4.299,23118.6,6116.08,-11188.6,31.711,66.626,-118.337,4719.27,1757.16,10563.5,30.295,-149.497,-2.98327,-16531.1,14989.4,1504.98,-28.085,-114.178,-18.6807,-1334.58,-13767.3,-1006.12,22.9142,-3.09181,130.732,11213.8,13203.0,-83.9313,32.5405,-10.4583,43.5807,3336.43,-11116.8,-4052.38,-16.2132,8.15429,61.776,11681.4,1489.08,334.901,-2.66946,3.1867,11.2944
4.3,22906.8,6024.41,-11045.6,31.495,61.5605,-126.898,4746.18,1744.91,10574.7,30.8961,-151.866,-3.04216,-16316.0,15011.1,1318.33,-28.318,-112.317,-24.585,-1365.18,-13819.1,-1034.07,23.1917,-3.34626,131.168,11029.6,13084.3,44.1267,36.3654,-9.47172,42.7681,3328.09,-11172.2,-3994.09,-15.6909,9.54984,62.323,11665.8,1444.26,257.801,-3.11968,3.07732,11.0307
4.301,22695.0,5932.73,-10902.6,31.2791,56.4951,-135.459,4773.08,1732.67,10585.9,31.4973,-154.234,-3.10106,-16101.0,15032.9,1131.68,-28.551,-110.457,-30.4894,-1395.77,-13870.9,-1062.02,23.4692,-3.60072,131.605,10845.4,12965.7,172.185,40.1904,-8.4852,41.9554,3319.75,-11227.6,-3935.79,-15.1686,10.9454,62.8699,11650.2,1399.45,180.7,-3.56989,2.96794,10.7671
4.302,22483.2,5841.05,-10759.6,31.0631,51.4297,-144.019,4799.98,1720.42,10597.0,32.0984,-156.603,-3.15995,-15885.9,15054.6,945.036,-28.784,-108.596,-36.3938,-1426.37,-13922.7,-1089.97,23.7467,-3.85517,132.042,10661.2,12847.1,300.242,44.0154,-7.49867,41.1427,3311.4,-11283.0,-3877.5,-14.6462,12.3409,63.4169,11634.6,1354.63,103.6,-4.02011,2.85856,10.5034
4.303,22358.8,5527.45,-10578.1,31.1945,46.6728,-151.422,4813.68,1752.32,10605.5,32.6207,-159.071,-3.17304,-15630.8,15018.8,811.185,-28.9623,-106.046,-41.823,-1408.71,-13980.5,-1081.91,23.7816,-4.3354,132.466,10367.5,12761.8,325.59,47.0431,-5.06097,41.1752,3286.92,-11341.6,-3817.99,-13.7457,13.2937,63.7914,11625.6,1294.15,15.7196,-4.42706,2.82443,10.1325
4.304,22259.3,5150.45,-10385.6,31.4251,42.0041,-158.493,4823.61,1796.84,10613.1,33.1205,-161.569,-3.17304,-15364.3,14966.5,692.42,-29.125,-103.299,-47.1164,-1377.26,-14040.0,-1063.56,23.7472,-4.88014,132.886,10042.5,12686.1,321.591,49.8431,-2.20864,41.4492,3257.82,-11401.2,-3758.14,-12.7372,14.12,64.1166,11618.4,1229.2,-75.2407,-4.82164,2.8118,9.73106
4.305,22159.8,4773.44,-10193.2,31.6557,37.3354,-165.564,4833.54,1841.35,10620.7,33.6203,-164.066,-3.17304,-15097.8,14914.2,573.654,-29.2877,-100.552,-52.4099,-1345.81,-14099.5,-1045.2,23.7128,-5.42487,133.306,9717.52,12610.4,317.592,52.643,0.643678,41.7233,3228.72,-11460.8,-3698.29,-11.7286,14.9463,64.4419,11611.2,1164.25,-166.201,-5.21623,2.79918,9.32958
4.306,22060.4,4396.43,-10000.7,31.8863,32.6666,-172.636,4843.47,1885.86,10628.3,34.12,-166.563,-3.17304,-14831.3,14861.9,454.888,-29.4504,-97.8055,-57.7034,-1314.36,-14159.0,-1026.85,23.6784,-5.96961,133.727,9392.53,12534.6,313.593,55.443,3.496,41.9973,3199.62,-11520.4,-3638.44,-10.72,15.7725,64.7672,11603.9,1099.3,-257.161,-5.61082,2.78655,8.92811
4.307,22013.9,4000.76,-9807.85,32.1453,28.4375,-178.865,4852.09,1936.55,10630.2,34.7079,-169.043,-3.12606,-14556.4,14780.6,362.328,-29.5916,-94.7433,-62.9082,-1284.73,-14203.1,-1022.5,23.7502,-6.56121,134.128,9049.35,12463.5,276.002,57.9339,6.47147,42.5083,3160.21,-11575.2,-3572.36,-9.60528,16.4937,64.9661,11599.2,1026.67,-342.875,-5.91244,2.81976,8.46247
4.308,22073.6,3567.77,-9614.23,32.4614,25.0876,-183.409,4858.08,1999.6,10620.8,35.4718,-171.489,-2.98512,-14264.5,14641.2,322.181,-29.6899,-91.0502,-67.9359,-1258.74,-14216.4,-1046.14,24.0341,-7.24652,134.493,8669.77,12401.5,171.226,59.8068,9.69322,43.4932,3100.18,-11620.4,-3493.83,-8.27815,17.0046,64.9126,11599.5,938.682,-418.094,-6.02813,2.94465,7.8685
4.309,22133.2,3134.78,-9420.6,32.7774,21.7377,-187.954,4864.07,2062.64,10611.4,36.2357,-173.936,-2.84418,-13972.6,14501.9,282.034,-29.7881,-87.357,-72.9636,-1232.76,-14229.8,-1069.79,24.318,-7.93183,134.858,8290.2,12339.6,66.4505,61.6797,12.915,44.4782,3040.15,-11665.6,-3415.29,-6.95103,17.5155,64.859,11599.8,850.692,-493.314,-6.14382,3.06953,7.27453
4.31,22192.9,2701.79,-9226.98,33.0935,18.3877,-192.498,4870.06,2125.69,10602.0,36.9996,-176.382,-2.70324,-13680.7,14362.6,241.887,-29.8864,-83.6639,-77.9913,-1206.77,-14243.1,-1093.44,24.602,-8.61714,135.223,7910.62,12277.6,-38.3251,63.5527,16.1367,45.4632,2980.11,-11710.8,-3336.76,-5.62391,18.0264,64.8054,11600.1,762.701,-568.533,-6.25951,3.19442,6.68056
4.311,22252.5,2268.8,-9033.36,33.4095,15.0378,-197.043,4876.06,2188.73,10592.6,37.7636,-178.828,-2.5623,-13388.8,14223.2,201.74,-29.9846,-79.9707,-83.0189,-1180.78,-14256.4,-1117.08,24.8859,-9.30245,135.588,7531.05,12215.6,-143.101,65.4256,19.3585,46.4481,2920.08,-11756.0,-3258.23,-4.29679,18.5373,64.7518,11600.4,674.711,-643.753,-6.3752,3.3193,6.08659
4.312,22343.2,2002.17,-8716.25,34.3435,11.9948,-199.69,4867.27,2205.8,10582.0,38.6546,-181.198,-2.22148,-13084.6,14091.0,244.719,-30.0619,-74.7234,-87.6338,-1134.76,-14246.4,-1167.79,25.1254,-9.80095,136.134,7122.54,12157.8,-212.352,66.645,22.3692,47.2993,2894.8,-11786.3,-3154.56,-3.09942,18.6104,64.5906,11608.1,547.05,-722.645,-5.88003,3.6849,5.40053
4.313,22437.8,1756.33,-8383.69,35.3547,8.99011,-202.1,4856.63,2217.11,10571.3,39.5614,-183.558,-1.85566,-12778.9,13959.6,298.089,-30.1365,-69.2817,-92.197,-1086.25,-14233.4,-1221.88,25.3594,-10.2761,136.702,6710.43,12100.5,-277.162,67.7826,25.3535,48.1338,2873.87,-11814.8,-3047.74,-1.91826,18.6287,64.4159,11616.8,414.431,-801.996,-5.30851,4.08058,4.70297
4.314,22532.4,1510.49,-8051.14,36.3659,5.98544,-204.51,4845.99,2228.43,10560.5,40.4683,-185.919,-1.48985,-12473.1,13828.2,351.46,-30.2111,-63.84,-96.7602,-1037.73,-14220.5,-1275.97,25.5934,-10.7512,137.271,6298.31,12043.2,-341.972,68.9203,28.3378,48.9682,2852.93,-11843.4,-2940.93,-0.737107,18.6471,64.2413,11625.4,281.812,-881.348,-4.73699,4.47625,4.0054
4.315,22627.0,1264.65,-7718.58,37.3771,2.98078,-206.919,4835.35,2239.74,10549.8,41.3752,-188.279,-1.12404,-12167.4,13696.8,404.83,-30.2857,-58.3984,-101.323,-989.214,-14207.5,-1330.07,25.8274,-11.2264,137.839,5886.19,11985.9,-406.782,70.058,31.3221,49.8027,2832.0,-11871.9,-2834.11,0.444048,18.6655,64.0666,11634.1,149.193,-960.699,-4.16547,4.87193,3.30784
4.316,22678.5,1034.88,-7399.46,38.5323,0.106648,-208.558,4829.23,2247.03,10547.7,42.2975,-190.676,-0.748595,-11847.2,13591.0,479.413,-30.183,-52.3011,-105.555,-958.967,-14192.0,-1377.01,26.0502,-11.6833,138.475,5494.61,11915.7,-442.906,70.8715,33.5052,50.4108,2818.61,-11882.7,-2722.01,1.43132,18.4869,63.8059,11652.5,12.3207,-1030.52,-3.46683,5.27415,2.6584
4.317,22676.1,825.215,-7097.13,39.8674,-2.60431,-209.232,4828.76,2249.26,10556.3,43.239,-193.12,-0.361109,-11508.9,13517.2,580.514,-29.8587,-45.3843,-109.371,-951.556,-14173.4,-1415.01,26.2591,-12.1174,139.196,5128.7,11829.3,-443.172,71.2798,34.687,50.736,2814.66,-11871.4,-2603.28,2.17624,18.0621,63.4377,11682.9,-129.869,-1088.42,-2.60932,5.68453,2.06912
4.318,22673.6,615.547,-6794.8,41.2026,-5.31526,-209.907,4828.29,2251.5,10565.0,44.1805,-195.564,0.0263769,-11170.5,13443.3,681.614,-29.5343,-38.4674,-113.187,-944.145,-14154.7,-1453.02,26.4679,-12.5516,139.917,4762.8,11742.9,-443.437,71.6881,35.8687,51.0613,2810.71,-11860.1,-2484.55,2.92116,17.6372,63.0695,11713.4,-272.058,-1146.32,-1.7518,6.09492,1.47983
4.319,22671.2,405.879,-6492.47,42.5377,-8.02622,-210.581,4827.82,2253.74,10573.7,45.122,-198.007,0.413863,-10832.2,13369.4,782.714,-29.21,-31.5506,-117.004,-936.734,-14136.0,-1491.02,26.6768,-12.9858,140.638,4396.89,11656.5,-443.703,72.0964,37.0504,51.3865,2806.75,-11848.8,-2365.83,3.66609,17.2124,62.7012,11743.9,-414.247,-1204.22,-0.894281,6.5053,0.890551
4.32,22668.8,196.211,-6190.15,43.8728,-10.7372,-211.255,4827.35,2255.97,10582.3,46.0635,-200.451,0.801349,-10493.9,13295.6,883.815,-28.8857,-24.6338,-120.82,-929.323,-14117.3,-1529.03,26.8856,-13.4199,141.359,4030.98,11570.2,-443.969,72.5047,38.2322,51.7117,2802.8,-11837.5,-2247.1,4.41101,16.7875,62.333,11774.4,-556.437,-1262.11,-0.0367632,6.91569,0.301269
4.321,22578.1,61.9788,-5940.04,45.5021,-13.0458,-209.938,4820.2,2265.44,10555.8,47.1311,-202.914,1.14066,-10242.4,13246.8,984.612,-28.6789,-17.8924,-124.329,-908.464,-14111.6,-1535.34,27.1573,-14.015,141.989,3665.76,11487.6,-418.041,71.9394,37.1339,51.1466,2802.17,-11790.8,-2107.9,4.95063,15.8091,61.7963,11787.7,-670.733,-1235.63,0.669793,7.221,-0.241203
4.322,22487.5,-72.2539,-5689.94,47.1314,-15.3545,-208.621,4813.06,2274.9,10529.3,48.1987,-205.377,1.47997,-9990.99,13198.0,1085.41,-28.4722,-11.1511,-127.838,-887.605,-14105.8,-1541.66,27.4289,-14.6101,142.619,3300.54,11405.1,-392.113,71.3742,36.0357,50.5815,2801.54,-11744.0,-1968.69,5.49025,14.8307,61.2596,11801.0,-785.03,-1209.15,1.37635,7.52632,-0.783675
4.323,22396.8,-206.487,-5439.84,48.7606,-17.6631,-207.303,4805.91,2284.36,10502.7,49.2663,-207.841,1.81929,-9739.55,13149.3,1186.21,-28.2654,-4.40967,-131.347,-866.746,-14100.1,-1547.98,27.7006,-15.2052,143.249,2935.32,11322.6,-366.185,70.8089,34.9375,50.0164,2800.91,-11697.2,-1829.48,6.02987,13.8523,60.7229,11814.3,-899.326,-1182.66,2.08291,7.83164,-1.32615
4.324,22306.2,-340.719,-5189.74,50.3899,-19.9718,-205.986,4798.77,2293.83,10476.2,50.3339,-210.304,2.1586,-9488.12,13100.5,1287.0,-28.0587,2.33172,-134.856,-845.887,-14094.3,-1554.29,27.9723,-15.8004,143.878,2570.1,11240.1,-340.258,70.2436,33.8393,49.4513,2800.28,-11650.4,-1690.28,6.56949,12.8738,60.1861,11827.6,-1013.62,-1156.18,2.78946,8.13696,-1.86862
4.325,22154.2,-505.744,-4929.48,51.7941,-22.39,-204.258,4806.68,2304.1,10445.7,51.4587,-212.585,2.57338,-9272.37,13064.3,1396.4,-27.9954,8.95959,-138.391,-822.663,-14096.0,-1571.16,28.2135,-16.4832,144.579,2229.18,11120.8,-326.472,69.0609,31.7073,48.5676,2823.73,-11609.4,-1535.0,6.94465,11.6154,59.556,11846.0,-1126.73,-1152.3,3.3637,8.34456,-2.37018
4.326,21953.2,-695.401,-4661.1,53.0183,-24.896,-202.201,4826.65,2315.03,10412.0,52.6293,-214.722,3.04854,-9085.19,13038.1,1512.66,-28.047,15.4967,-141.945,-797.548,-14103.8,-1596.48,28.4304,-17.2363,145.335,1907.69,10972.2,-322.4,67.3842,28.7483,47.429,2866.45,-11572.8,-1366.88,7.18824,10.1329,58.8512,11868.4,-1238.87,-1166.5,3.83209,8.47399,-2.83902
4.327,21752.2,-885.059,-4392.72,54.2424,-27.4019,-200.144,4846.61,2325.95,10378.4,53.7998,-216.858,3.5237,-8898.0,13012.0,1628.93,-28.0985,22.0337,-145.5,-772.434,-14111.5,-1621.8,28.6473,-17.9894,146.092,1586.21,10823.6,-318.328,65.7075,25.7892,46.2904,2909.17,-11536.2,-1198.75,7.43184,8.65041,58.1464,11890.9,-1351.02,-1180.71,4.30048,8.60342,-3.30786
4.328,21551.1,-1074.72,-4124.33,55.4666,-29.9079,-198.087,4866.58,2336.87,10344.7,54.9704,-218.995,3.99886,-8710.82,12985.9,1745.2,-28.15,28.5708,-149.055,-747.319,-14119.3,-1647.12,28.8642,-18.7425,146.849,1264.72,10675.0,-314.255,64.0309,22.8302,45.1517,2951.89,-11499.7,-1030.62,7.67543,7.16793,57.4415,11913.4,-1463.17,-1194.91,4.76886,8.73285,-3.7767
4.329,21342.2,-1252.87,-3863.61,56.5967,-32.4407,-195.856,4889.04,2349.6,10317.6,56.1667,-221.096,4.49869,-8534.38,12969.8,1853.41,-28.1929,34.9932,-152.582,-723.171,-14124.3,-1670.03,29.0761,-19.5021,147.632,945.318,10515.2,-314.795,62.2301,19.8663,43.9088,2997.27,-11462.4,-866.368,7.94063,5.61982,56.7387,11939.0,-1574.38,-1210.92,5.22222,8.84247,-4.23327
4.33,21070.5,-1338.98,-3664.19,56.9738,-35.1885,-192.23,4931.42,2376.76,10343.2,57.5685,-222.921,5.19597,-8443.97,13033.7,1897.2,-28.1662,40.4985,-155.89,-706.754,-14107.8,-1673.67,29.2485,-20.3139,148.631,642.56,10265.9,-352.23,59.437,16.8629,41.8315,3063.91,-11419.5,-733.126,8.37872,3.54669,56.0519,11990.7,-1678.08,-1241.33,5.55529,8.79361,-4.59169
4.331,20798.8,-1425.09,-3464.76,57.3509,-37.9363,-188.604,4973.79,2403.92,10368.7,58.9703,-224.745,5.89325,-8353.56,13097.7,1940.99,-28.1396,46.0039,-159.197,-690.338,-14091.2,-1677.3,29.421,-21.1258,149.629,339.802,10016.6,-389.664,56.6438,13.8596,39.7542,3130.55,-11376.5,-599.884,8.8168,1.47357,55.365,12042.3,-1781.79,-1271.74,5.88837,8.74475,-4.95012
4.332,20527.2,-1511.2,-3265.34,57.7281,-40.6842,-184.978,5016.17,2431.08,10394.3,60.3722,-226.57,6.59052,-8263.15,13161.7,1984.78,-28.113,51.5092,-162.505,-673.921,-14074.7,-1680.94,29.5934,-21.9376,150.627,37.0446,9767.26,-427.099,53.8506,10.8562,37.6769,3197.19,-11333.5,-466.643,9.25489,-0.599563,54.6782,12093.9,-1885.49,-1302.15,6.22144,8.69589,-5.30854
4.333,20255.5,-1597.31,-3065.91,58.1052,-43.432,-181.352,5058.55,2458.24,10419.8,61.774,-228.395,7.2878,-8172.73,13225.6,2028.56,-28.0864,57.0145,-165.812,-657.505,-14058.1,-1684.58,29.7658,-22.7494,151.626,-265.713,9517.96,-464.533,51.0575,7.85288,35.5997,3263.83,-11290.6,-333.401,9.69297,-2.67269,53.9914,12145.5,-1989.19,-1332.56,6.55451,8.64703,-5.66696
4.334,20079.2,-1688.59,-3037.22,59.8322,-46.64,-177.917,5077.11,2474.95,10440.8,63.278,-230.376,7.98711,-7976.18,13334.4,1922.06,-27.1382,61.3683,-168.391,-624.356,-14067.6,-1677.12,29.9917,-23.4878,152.62,-548.208,9279.0,-508.651,47.0022,5.94712,33.1867,3358.38,-11264.7,-192.2,10.2196,-4.93148,53.2678,12195.8,-2059.43,-1285.58,7.07554,8.58628,-5.90717
4.335,19950.6,-1782.46,-3093.89,62.234,-50.0782,-174.578,5083.76,2486.43,10459.6,64.8331,-232.437,8.68743,-7726.55,13465.4,1740.4,-25.7294,65.1464,-170.607,-582.84,-14090.1,-1664.12,30.2443,-24.1895,153.613,-820.571,9045.21,-556.111,42.316,4.59015,30.6059,3466.88,-11247.2,-47.0184,10.7904,-7.2831,52.5258,12245.5,-2112.95,-1199.9,7.69055,8.5196,-6.08828
4.336,19822.1,-1876.33,-3150.57,64.6359,-53.5164,-171.239,5090.41,2497.91,10478.3,66.3881,-234.498,9.38776,-7476.92,13596.5,1558.74,-24.3205,68.9244,-172.822,-541.325,-14112.5,-1651.12,30.497,-24.8913,154.605,-1092.93,8811.42,-603.571,37.6297,3.23318,28.0251,3575.38,-11229.8,98.1629,11.3613,-9.63471,51.7839,12295.2,-2166.46,-1114.22,8.30555,8.45292,-6.26939
4.337,19693.5,-1970.2,-3207.24,67.0377,-56.9546,-167.9,5097.06,2509.4,10497.0,67.9432,-236.558,10.0881,-7227.29,13727.6,1377.09,-22.9116,72.7025,-175.037,-499.809,-14135.0,-1638.12,30.7496,-25.593,155.597,-1365.3,8577.63,-651.031,32.9434,1.87622,25.4443,3683.88,-11212.4,243.344,11.9321,-11.9863,51.0419,12344.9,-2219.97,-1028.54,8.92056,8.38623,-6.4505
4.338,19428.9,-2186.0,-3215.87,68.8813,-61.7729,-165.388,5101.29,2517.06,10520.1,69.5062,-238.762,10.7762,-6831.86,13857.5,1009.19,-20.8208,76.1077,-176.789,-452.607,-14163.4,-1615.52,30.9991,-26.2852,156.625,-1633.19,8341.7,-700.712,27.7509,1.36031,22.8041,3787.51,-11200.9,382.773,12.5154,-14.373,50.2708,12404.0,-2277.84,-869.407,9.59277,8.33516,-6.5674
4.339,18688.2,-2828.6,-3056.37,68.7706,-71.4214,-165.772,5097.07,2511.35,10558.6,71.0966,-241.464,11.4218,-5926.17,13983.1,-10.571,-16.3434,78.2082,-176.923,-385.504,-14212.4,-1559.3,31.2376,-26.9438,157.775,-1885.46,8098.27,-758.165,20.7864,3.7881,19.9558,3874.1,-11210.1,502.069,13.1425,-16.8824,49.3978,12495.9,-2350.97,-453.186,10.4652,8.33873,-6.45954
4.34,17947.4,-3471.19,-2896.87,68.66,-81.07,-166.156,5092.85,2505.64,10597.0,72.6871,-244.167,12.0673,-5020.47,14108.8,-1030.33,-11.8659,80.3086,-177.057,-318.402,-14261.5,-1503.07,31.4761,-27.6024,158.926,-2137.72,7854.83,-815.618,13.8219,6.2159,17.1076,3960.69,-11219.4,621.364,13.7696,-19.3918,48.5247,12587.8,-2424.09,-36.9649,11.3377,8.3423,-6.35167
4.341,17206.7,-4113.78,-2737.37,68.5493,-90.7186,-166.539,5088.63,2499.93,10635.4,74.2776,-246.869,12.7128,-4114.78,14234.5,-2050.09,-7.38845,82.4091,-177.19,-251.299,-14310.5,-1446.85,31.7146,-28.261,160.076,-2389.98,7611.4,-873.072,6.85736,8.6437,14.2594,4047.28,-11228.6,740.66,14.3967,-21.9012,47.6517,12679.7,-2497.21,379.256,12.2101,8.34588,-6.24381
4.342,16466.0,-4756.37,-2577.87,68.4387,-100.367,-166.923,5084.41,2494.22,10673.8,75.868,-249.572,13.3583,-3209.08,14360.1,-3069.84,-2.911,84.5096,-177.324,-184.196,-14359.5,-1390.63,31.9532,-28.9197,161.227,-2642.25,7367.96,-930.525,-0.107148,11.0715,11.4112,4133.87,-11237.8,859.956,15.0237,-24.4106,46.7787,12771.7,-2570.33,795.477,13.0826,8.34945,-6.13595
4.343,13198.6,-5814.85,398.236,59.7012,-143.914,-179.89,5059.95,2467.57,10772.6,77.5444,-252.739,13.9652,-1380.97,14052.6,-5454.72,4.07746,80.8161,-176.581,-94.0217,-14423.2,-1301.6,32.234,-29.4932,162.491,-2876.27,7098.63,-912.562,-8.08735,15.8648,8.10577,4271.35,-11235.4,928.248,15.7203,-27.0489,45.7275,13012.0,-2688.94,1218.75,12.8732,8.56968,-5.77894
4.344,9209.27,-6992.16,4179.09,48.4989,-197.146,-196.452,5029.71,2434.93,10888.6,79.2452,-256.037,14.5611,710.693,13621.2,-8229.63,11.7834,75.4672,-175.587,2.74477,-14491.1,-1203.19,32.527,-30.0423,163.786,-3105.09,6821.91,-873.052,-16.3578,21.3339,4.66977,4423.36,-11229.6,981.968,16.4368,-29.724,44.6255,13294.8,-2820.55,1644.04,12.3548,8.85181,-5.35075
4.345,5219.98,-8169.47,7959.94,37.2967,-250.378,-213.014,4999.47,2402.3,11004.6,80.946,-259.336,15.157,2802.35,13189.9,-11004.5,19.4892,70.1183,-174.594,99.5113,-14559.0,-1104.79,32.8199,-30.5915,165.082,-3333.9,6545.18,-833.542,-24.6282,26.8031,1.23376,4575.38,-11223.8,1035.69,17.1533,-32.399,43.5234,13577.7,-2952.17,2069.32,11.8363,9.13395,-4.92255
4.346,1230.68,-9346.78,11740.8,26.0944,-303.611,-229.576,4969.23,2369.66,11120.6,82.6469,-262.635,15.7528,4894.02,12758.6,-13779.4,27.1951,64.7693,-173.6,196.278,-14626.9,-1006.38,33.1128,-31.1406,166.378,-3562.72,6268.46,-794.032,-32.8986,32.2722,-2.20224,4727.4,-11218.0,1089.41,17.8697,-35.0741,42.4214,13860.5,-3083.78,2494.61,11.3179,9.41608,-4.49436
4.347,-4542.17,-11636.7,15923.6,19.2031,-346.938,-260.852,4937.59,2325.05,11254.3,84.2874,-266.177,16.3275,7464.79,12115.9,-16519.9,31.6954,58.7219,-175.071,309.294,-14708.8,-858.749,33.5778,-31.5357,167.717,-3780.95,6010.09,-853.254,-39.3461,38.825,-5.99772,4870.83,-11208.2,1080.79,18.5143,-37.9288,41.2088,14130.8,-3153.96,2586.4,9.34579,10.8981,-3.95396
4.348,-13882.1,-16151.9,20910.4,20.9336,-370.457,-321.554,4903.16,2256.5,11423.2,85.8072,-270.204,16.8596,10993.8,11050.5,-19191.6,29.7846,51.2773,-181.472,454.809,-14818.5,-612.652,34.3868,-31.6229,169.141,-3978.02,5788.43,-1109.94,-42.1479,47.545,-10.5122,4997.09,-11190.3,947.476,19.015,-41.1428,39.7752,14376.2,-3101.29,2011.2,4.46645,14.7797,-3.18913
4.349,-23222.1,-20667.0,25897.1,22.6641,-393.975,-382.257,4868.73,2187.95,11592.2,87.327,-274.232,17.3918,14522.8,9985.08,-21863.2,27.8737,43.8328,-187.873,600.325,-14928.2,-366.554,35.1958,-31.71,170.566,-4175.08,5566.78,-1366.63,-44.9497,56.2651,-15.0266,5123.36,-11172.3,814.167,19.5157,-44.3568,38.3416,14621.6,-3048.62,1436.0,-0.412899,18.6614,-2.4243
4.35,-32562.0,-25182.2,30883.9,24.3947,-417.493,-442.959,4834.29,2119.4,11761.2,88.8468,-278.259,17.924,18051.8,8919.67,-24534.9,25.9629,36.3883,-194.273,745.84,-15037.9,-120.457,36.0048,-31.7971,171.99,-4372.15,5345.12,-1623.31,-47.7516,64.9852,-19.541,5249.62,-11154.4,680.857,20.0165,-47.5708,36.9081,14867.0,-2995.94,860.805,-5.29225,22.5431,-1.65946
4.351,-41902.0,-29697.3,35870.6,26.1252,-441.012,-503.662,4799.86,2050.85,11930.1,90.3667,-282.286,18.4562,21580.7,7854.26,-27206.5,24.052,28.9437,-200.674,891.356,-15147.7,125.64,36.8138,-31.8842,173.414,-4569.22,5123.47,-1880.0,-50.5534,73.7053,-24.0555,5375.88,-11136.4,547.548,20.5172,-50.7848,35.4745,15112.4,-2943.27,285.607,-10.1716,26.4247,-0.894632
4.352,-45611.1,-30418.2,31034.9,57.6108,-432.114,-513.121,4753.41,1940.11,12066.5,90.472,-287.133,18.6337,26222.1,7960.76,-26241.7,13.3437,22.513,-198.772,1124.84,-15355.9,330.785,38.2319,-32.1178,174.716,-5045.51,5127.87,-2323.01,-45.3622,83.6188,-30.5674,5505.34,-11094.8,371.331,19.7336,-53.7516,34.3255,15094.7,-2521.65,162.797,-13.8915,33.0354,0.690773
4.353,-48616.3,-30664.9,24971.3,92.8157,-419.165,-516.175,4705.47,1824.11,12198.9,90.4006,-292.081,18.7669,31002.6,8213.75,-24822.4,1.53568,16.2091,-195.833,1369.32,-15576.4,530.811,39.7261,-32.3697,176.002,-5556.71,5160.52,-2789.31,-39.172,93.6814,-37.3291,5635.2,-11050.1,189.75,18.7895,-56.6875,33.212,15044.0,-2053.9,96.5354,-17.4665,39.9872,2.37875
4.354,-51621.6,-30911.5,18907.7,128.021,-406.215,-519.229,4657.52,1708.1,12331.2,90.3292,-297.03,18.9001,35783.1,8466.74,-23403.1,-10.2723,9.90512,-192.893,1613.8,-15797.0,730.837,41.2202,-32.6216,177.288,-6067.9,5193.18,-3255.62,-32.9817,103.744,-44.0908,5765.05,-11005.5,8.16972,17.8454,-59.6234,32.0986,14993.4,-1586.16,30.2739,-21.0415,46.9389,4.06672
4.355,-54626.8,-31158.1,12844.1,163.225,-393.266,-522.284,4609.57,1592.09,12463.5,90.2578,-301.979,19.0333,40563.5,8719.73,-21983.8,-22.0803,3.60117,-189.954,1858.27,-16017.5,930.863,42.7144,-32.8735,178.574,-6579.1,5225.84,-3721.92,-26.7914,113.807,-50.8525,5894.9,-10960.9,-173.411,16.9013,-62.5594,30.9852,14942.7,-1118.42,-35.9875,-24.6165,53.8907,5.7547
4.356,-51504.4,-28716.9,8610.08,184.531,-366.562,-485.97,4564.88,1552.81,12559.1,89.7322,-307.107,18.9804,43859.5,9876.41,-17664.7,-32.2972,-2.93362,-182.708,2067.61,-16271.0,994.728,44.1911,-33.3292,179.789,-7173.78,5735.19,-3749.11,-20.3561,122.354,-57.1352,6039.85,-10943.2,-338.376,15.3901,-64.7737,29.9969,14890.8,-623.812,428.254,-26.564,58.255,7.74675
4.357,-40722.5,-22916.1,6663.07,188.463,-322.665,-400.448,4524.26,1609.42,12608.6,88.6389,-312.458,18.6947,45299.9,12162.7,-9721.12,-40.5251,-9.75694,-170.081,2233.02,-16565.8,888.389,45.646,-34.0398,180.917,-7872.82,6840.4,-3227.39,-13.6144,129.006,-62.8193,6203.66,-10959.2,-482.573,13.1698,-66.0862,29.1651,14837.1,-95.6259,1555.62,-26.4772,59.385,10.1189
4.358,-29940.5,-17115.3,4716.06,192.395,-278.767,-314.926,4483.64,1666.04,12658.1,87.5457,-317.81,18.409,46740.4,14449.0,-1777.5,-48.7529,-16.5803,-157.453,2398.44,-16860.6,782.051,47.1009,-34.7503,182.044,-8571.85,7945.61,-2705.68,-6.87277,135.658,-68.5034,6367.48,-10975.1,-626.769,10.9496,-67.3986,28.3333,14783.4,432.56,2682.99,-26.3905,60.515,12.491
4.359,-19158.6,-11314.4,2769.05,196.326,-234.87,-229.403,4443.02,1722.65,12707.7,86.4524,-323.162,18.1232,48180.8,16735.3,6166.12,-56.9808,-23.4036,-144.826,2563.85,-17155.4,675.713,48.5557,-35.4609,183.171,-9270.88,9050.83,-2183.97,-0.131102,142.311,-74.1875,6531.29,-10991.1,-770.966,8.72937,-68.711,27.5015,14729.8,960.747,3810.36,-26.3037,61.645,14.8632
4.36,-8376.6,-5513.6,822.039,200.258,-190.973,-143.881,4402.4,1779.27,12757.2,85.3592,-328.514,17.8375,49621.2,19021.6,14109.7,-65.2087,-30.2269,-132.198,2729.26,-17450.1,569.375,50.0106,-36.1714,184.299,-9969.92,10156.0,-1662.26,6.61057,148.963,-79.8716,6695.1,-11007.1,-915.162,6.50914,-70.0235,26.6697,14676.1,1488.93,4937.73,-26.2169,62.7749,17.2353
4.361,4050.49,-2872.82,4716.43,196.132,-174.87,-105.297,4354.02,2017.96,12703.9,85.6089,-333.985,18.5312,41091.4,19152.0,13206.4,-69.8923,7.84998,-136.806,2676.83,-17650.1,306.487,50.5006,-36.6288,185.535,-10195.1,11804.1,-358.319,5.80729,146.989,-78.6445,6877.12,-11189.1,-949.444,4.70065,-69.5367,25.8193,14760.1,1770.24,5800.32,-27.3434,58.0191,19.7333
4.362,16477.6,-232.026,8610.81,192.006,-158.766,-66.7132,4305.64,2256.65,12650.6,85.8587,-339.455,19.2248,32561.6,19282.5,12303.0,-74.5759,45.9269,-141.413,2624.39,-17850.0,43.6,50.9907,-37.0862,186.772,-10420.3,13452.2,945.626,5.00402,145.015,-77.4174,7059.14,-11371.1,-983.727,2.89217,-69.0498,24.9688,14844.1,2051.54,6662.91,-28.4699,53.2634,22.2314
4.363,28904.7,2408.76,12505.2,187.879,-142.663,-28.1294,4257.26,2495.33,12597.2,86.1084,-344.926,19.9184,24031.8,19412.9,11399.6,-79.2594,84.0038,-146.021,2571.95,-18050.0,-219.287,51.4807,-37.5437,188.008,-10645.5,15100.3,2249.57,4.20074,143.041,-76.1902,7241.16,-11553.0,-1018.01,1.08369,-68.563,24.1184,14928.2,2332.85,7525.5,-29.5963,48.5076,24.7295
4.364,41331.8,5049.55,16399.6,183.753,-126.56,10.4545,4208.88,2734.02,12543.9,86.3582,-350.397,20.612,15502.0,19543.4,10496.2,-83.943,122.081,-150.628,2519.51,-18249.9,-482.175,51.9708,-38.0011,189.244,-10870.6,16748.4,3553.51,3.39747,141.067,-74.9631,7423.18,-11735.0,-1052.29,-0.72479,-68.0762,23.2679,15012.2,2614.15,8388.08,-30.7228,43.7518,27.2275
4.365,49597.5,6226.04,18335.7,179.742,-127.392,18.0852,4148.53,2944.58,12492.3,87.5284,-355.922,21.7916,7402.61,19786.3,9062.48,-81.7135,157.155,-155.054,2461.16,-18369.7,-687.127,51.9268,-38.2534,190.492,-10598.3,18221.4,4644.63,-1.0542,134.325,-71.8204,7606.43,-11974.7,-980.766,-1.4478,-66.9341,22.451,15034.3,2849.56,8806.19,-32.4544,38.5641,29.7826
4.366,54534.0,6231.09,18705.1,175.822,-141.772,0.953301,4078.6,3132.63,12442.0,89.4351,-361.49,23.3601,-352.395,20119.2,7204.46,-73.9535,189.828,-159.335,2398.08,-18425.4,-845.731,51.4557,-38.3416,191.749,-9927.81,19554.4,5565.5,-8.42458,123.769,-67.1452,7790.68,-12260.6,-824.596,-1.30244,-65.2676,21.6609,15006.9,3048.26,8868.72,-34.6701,33.0308,32.3833
4.367,59470.6,6236.14,19074.6,171.901,-156.152,-16.1786,4008.67,3320.68,12391.7,91.3417,-367.058,24.9285,-8107.4,20452.1,5346.44,-66.1936,222.501,-163.615,2335.0,-18481.1,-1004.34,50.9845,-38.4299,193.005,-9257.37,20887.4,6486.36,-15.795,113.213,-62.47,7974.93,-12546.5,-668.427,-1.15707,-63.6011,20.8707,14979.5,3246.95,8931.24,-36.8858,27.4975,34.984
4.368,64407.2,6241.19,19444.1,167.981,-170.532,-33.3104,3938.74,3508.74,12341.4,93.2483,-372.626,26.497,-15862.4,20785.0,3488.42,-58.4336,255.173,-167.896,2271.92,-18536.7,-1162.94,50.5134,-38.5181,194.262,-8586.92,22220.3,7407.22,-23.1653,102.657,-57.7949,8159.17,-12832.3,-512.257,-1.01171,-61.9347,20.0806,14952.1,3445.65,8993.77,-39.1015,21.9643,37.5847
4.369,68106.8,6364.09,19398.8,163.368,-185.685,-48.2915,3869.63,3681.27,12304.1,95.2191,-378.212,28.064,-22743.1,21129.0,2014.06,-50.4282,284.007,-171.757,2228.88,-18585.6,-1298.83,50.0231,-38.6379,195.501,-7827.0,23480.0,8237.27,-30.8682,91.9216,-53.2272,8345.83,-13123.1,-352.531,-0.592165,-60.2111,19.253,14901.9,3640.59,8991.11,-41.2709,16.7559,40.151
4.37,61910.5,7429.88,16035.2,153.205,-207.024,-46.0664,3807.06,3729.62,12370.2,97.7028,-383.949,29.62,-22628.8,21561.6,3608.98,-40.4599,282.122,-172.259,2346.15,-18580.1,-1252.97,49.3801,-39.0104,196.599,-6351.23,24153.4,8340.88,-41.2305,79.7573,-49.5197,8551.81,-13453.0,-164.36,2.02082,-58.03,18.126,14670.0,3805.5,8466.95,-43.0699,14.147,42.4414
4.371,55714.3,8495.67,12671.7,143.042,-228.364,-43.8413,3744.5,3777.98,12436.4,100.187,-389.687,31.176,-22514.6,21994.3,5203.89,-30.4915,280.238,-172.762,2463.43,-18574.6,-1207.11,48.737,-39.3828,197.697,-4875.47,24826.7,8444.5,-51.5929,67.5929,-45.8123,8757.78,-13782.9,23.8101,4.6338,-55.8489,16.9989,14438.2,3970.41,7942.79,-44.8688,11.5381,44.7319
4.372,49518.0,9561.46,9308.12,132.879,-249.703,-41.6161,3681.93,3826.34,12502.5,102.67,-395.424,32.7319,-22400.3,22427.0,6798.81,-20.5232,278.353,-173.265,2580.7,-18569.1,-1161.26,48.094,-39.7553,198.796,-3399.71,25500.0,8548.11,-61.9553,55.4286,-42.1048,8963.75,-14112.8,211.981,7.24678,-53.6679,15.8719,14206.3,4135.33,7418.64,-46.6678,8.92925,47.0223
4.373,43321.7,10627.3,5944.57,122.716,-271.042,-39.391,3619.36,3874.69,12568.6,105.154,-401.161,34.2879,-22286.1,22859.6,8393.73,-10.5548,276.469,-173.767,2697.97,-18563.6,-1115.4,47.451,-40.1277,199.894,-1923.95,26173.4,8651.72,-72.3177,43.2643,-38.3974,9169.72,-14442.7,400.151,9.85976,-51.4868,14.7448,13974.4,4300.24,6894.48,-48.4667,6.32036,49.3128
4.374,35998.2,10136.9,3301.05,112.547,-284.185,-32.2827,3562.17,3845.48,12659.6,106.89,-407.26,35.6966,-21113.3,23785.2,9451.55,-5.2248,260.26,-175.059,2863.85,-18588.3,-990.925,46.9385,-41.4692,200.906,-428.674,26285.2,8376.03,-78.4708,35.1952,-35.6393,9307.08,-14690.2,653.713,13.1091,-49.6752,13.4192,13675.6,4446.45,6484.46,-49.3628,5.6482,50.8884
4.375,28111.0,8868.44,1017.54,102.376,-293.23,-22.7328,3507.66,3777.49,12763.1,108.251,-413.541,37.0316,-19411.2,24957.3,10240.8,-2.21399,236.889,-176.745,3054.04,-18628.2,-827.136,46.4912,-43.2952,201.875,1076.36,26116.4,7910.69,-82.5194,29.1739,-33.356,9410.13,-14896.7,939.971,16.6766,-48.0485,11.9943,13343.4,4583.32,6131.51,-49.8075,5.9444,52.1065
4.376,20223.9,7599.99,-1265.98,92.2039,-302.274,-13.1829,3453.16,3709.5,12866.5,109.613,-419.822,38.3665,-17709.1,26129.4,11030.1,0.796814,213.518,-178.431,3244.23,-18668.1,-663.347,46.044,-45.1212,202.844,2581.39,25947.5,7445.35,-86.5679,23.1526,-31.0727,9513.19,-15103.1,1226.23,20.2441,-46.4217,10.5694,13011.1,4720.18,5778.55,-50.2522,6.2406,53.3247
4.377,12336.8,6331.55,-3549.49,82.0322,-311.319,-3.63296,3398.65,3641.51,12970.0,110.975,-426.102,39.7015,-16007.0,27301.4,11819.4,3.80762,190.147,-180.117,3434.42,-18708.0,-499.558,45.5968,-46.9472,203.813,4086.42,25778.7,6980.02,-90.6165,17.1312,-28.7893,9616.25,-15309.5,1512.49,23.8116,-44.7949,9.14449,12678.9,4857.05,5425.6,-50.6969,6.5368,54.5429
4.378,6024.28,5133.45,-5103.65,72.6037,-318.235,4.76037,3345.77,3579.06,13056.1,112.025,-432.474,40.9852,-14714.0,28245.0,12235.2,5.96144,167.654,-182.446,3616.27,-18772.4,-330.615,45.2314,-49.0769,204.665,5417.4,25442.6,6579.29,-92.4478,12.3936,-26.4212,9706.97,-15479.6,1790.76,27.3406,-43.448,7.71757,12342.8,4974.78,5176.71,-50.5928,6.76072,55.5333
4.379,5222.7,4181.56,-4105.06,65.7762,-317.705,9.10566,3298.57,3536.04,13081.5,111.985,-439.164,42.0891,-14853.3,28388.9,11343.8,5.11581,148.234,-187.028,3768.92,-18922.6,-143.633,45.1526,-52.2697,205.108,6139.19,24521.2,6404.69,-86.5186,12.1489,-23.7562,9754.53,-15522.7,2041.09,30.7348,-43.0804,6.28353,11993.2,5025.54,5292.06,-48.5678,6.73168,55.7263
4.38,4421.13,3229.68,-3106.47,58.9487,-317.175,13.4509,3251.37,3493.02,13107.0,111.944,-445.854,43.1931,-14992.5,28532.7,10452.4,4.27017,128.814,-191.61,3921.58,-19072.9,43.3495,45.0738,-55.4624,205.552,6860.99,23599.8,6230.08,-80.5894,11.9043,-21.0912,9802.09,-15565.8,2291.42,34.129,-42.7128,4.8495,11643.6,5076.3,5407.41,-46.5429,6.70264,55.9193
4.381,3619.56,2277.79,-2107.88,52.1213,-316.645,17.7962,3204.17,3450.0,13132.4,111.904,-452.544,44.297,-15131.7,28676.5,9561.07,3.42454,109.395,-196.193,4074.24,-19223.2,230.332,44.995,-58.6552,205.995,7582.79,22678.4,6055.48,-74.6602,11.6597,-18.4261,9849.65,-15608.8,2541.75,37.5232,-42.3451,3.41546,11294.0,5127.07,5522.76,-44.5179,6.6736,56.1123
4.382,2817.99,1325.9,-1109.3,45.2938,-316.116,22.1415,3156.97,3406.98,13157.9,111.864,-459.235,45.401,-15270.9,28820.3,8669.7,2.57891,89.975,-200.775,4226.9,-19373.5,417.314,44.9162,-61.848,206.439,8304.58,21757.0,5880.88,-68.731,11.415,-15.7611,9897.21,-15651.9,2792.08,40.9174,-41.9775,1.98143,10944.4,5177.83,5638.1,-42.4929,6.64456,56.3054
4.383,5674.82,79.0552,1910.61,58.4696,-311.209,22.5274,3096.83,3446.89,13122.5,111.268,-466.303,46.4566,-15032.7,27611.6,7503.22,0.190416,74.7954,-204.993,4327.93,-19569.4,545.822,44.8418,-65.6214,206.482,8403.42,20667.7,5882.94,-59.5738,12.1307,-13.7123,9875.86,-15655.0,2970.37,43.4975,-42.2199,0.812837,10670.0,5098.82,5830.08,-40.5867,5.49132,55.8774
4.384,9576.91,-1252.07,5508.04,77.3606,-305.052,21.7821,3032.99,3510.5,13069.8,110.513,-473.48,47.4984,-14686.7,26016.3,6258.13,-2.63889,60.8273,-209.106,4414.21,-19778.5,657.623,44.7686,-69.5607,206.412,8324.27,19530.3,5935.46,-49.4943,13.1207,-11.8395,9834.82,-15646.6,3128.07,45.8449,-42.6364,-0.279915,10417.0,4982.73,6043.95,-38.7145,4.01688,55.2719
4.385,13479.0,-2583.19,9105.47,96.2515,-298.894,21.0368,2969.15,3574.11,13017.1,109.758,-480.657,48.5401,-14340.6,24421.1,5013.03,-5.4682,46.8592,-213.22,4500.49,-19987.5,769.424,44.6954,-73.5,206.341,8245.11,18392.9,5987.99,-39.4148,14.1107,-9.96674,9793.79,-15638.3,3285.78,48.1924,-43.053,-1.37267,10164.0,4866.64,6257.82,-36.8423,2.54245,54.6665
4.386,17381.1,-3914.32,12702.9,115.143,-292.737,20.2915,2905.31,3637.71,12964.4,109.004,-487.834,49.5819,-13994.5,22825.8,3767.94,-8.2975,32.891,-217.334,4586.77,-20196.5,881.225,44.6222,-77.4393,206.27,8165.96,17255.5,6040.52,-29.3352,15.1008,-8.09397,9752.75,-15630.0,3443.48,50.5398,-43.4696,-2.46542,9910.99,4750.56,6471.69,-34.9701,1.06801,54.0611
4.387,20517.6,-6359.66,15819.9,135.858,-280.865,14.4433,2851.86,3717.18,12926.9,108.301,-495.033,50.4839,-13272.8,21043.3,2170.5,-10.3076,21.958,-220.171,4679.99,-20365.8,969.533,44.4411,-81.4971,206.2,8013.61,16100.0,5948.35,-19.2178,15.9676,-6.70529,9701.04,-15593.5,3549.25,52.3343,-43.8417,-3.41897,9702.97,4576.84,6604.54,-33.6602,-0.401767,53.351
4.388,22123.0,-11033.4,17976.2,160.221,-257.561,-1.6104,2819.19,3828.35,12919.8,107.701,-502.278,51.1061,-11799.8,18886.3,-131.644,-10.6792,17.0951,-220.456,4787.08,-20455.3,1010.86,44.0443,-85.7917,206.131,7714.88,14908.3,5566.79,-9.02452,16.5881,-6.28481,9627.98,-15500.8,3551.13,53.0228,-44.1249,-4.09413,9584.88,4287.86,6575.35,-33.475,-1.86223,52.4314
4.389,23728.4,-15707.2,20132.4,184.584,-234.258,-17.6641,2786.52,3939.53,12912.7,107.102,-509.523,51.7283,-10326.7,16729.2,-2433.79,-11.0508,12.2322,-220.74,4894.18,-20544.8,1052.18,43.6475,-90.0864,206.063,7416.15,13716.6,5185.24,1.16877,17.2086,-5.86434,9554.93,-15408.2,3553.01,53.7114,-44.4081,-4.76929,9466.79,3998.88,6546.15,-33.2897,-3.32269,51.5118
4.39,25333.7,-20381.0,22288.7,208.947,-210.955,-33.7179,2753.85,4050.71,12905.6,106.503,-516.768,52.3505,-8853.66,14572.2,-4735.93,-11.4225,7.36933,-221.025,5001.27,-20634.3,1093.5,43.2507,-94.3811,205.994,7117.42,12524.9,4803.68,11.3621,17.8291,-5.44386,9481.88,-15315.5,3554.89,54.3999,-44.6913,-5.44445,9348.71,3709.91,6516.96,-33.1044,-4.78315,50.5923
4.391,26939.1,-25054.7,24444.9,233.31,-187.651,-49.7716,2721.18,4161.89,12898.5,105.904,-524.013,52.9728,-7380.61,12415.1,-7038.08,-11.7941,2.50644,-221.309,5108.36,-20723.8,1134.82,42.854,-98.6758,205.925,6818.68,11333.1,4422.12,21.5554,18.4496,-5.02338,9408.82,-15222.9,3556.77,55.0885,-44.9746,-6.11961,9230.62,3420.93,6487.77,-32.9192,-6.24361,49.6727
4.392,25966.9,-22377.0,23101.1,223.556,-163.444,-56.728,2735.59,4271.64,12972.8,105.946,-531.349,53.3979,-5673.17,10915.2,-8865.75,-10.1652,3.39965,-216.112,5287.94,-20680.8,1191.75,42.481,-103.316,205.945,6434.3,10323.0,3353.72,32.4024,20.4009,-5.35763,9356.25,-15094.7,3644.95,56.0351,-46.4518,-6.60273,9171.28,3119.44,6414.0,-32.7338,-7.0293,48.7921
4.393,24672.5,-18780.4,21319.7,209.536,-139.124,-62.5472,2755.88,4381.22,13057.4,106.069,-538.697,53.7983,-3936.42,9497.49,-10634.1,-8.28616,5.01238,-210.229,5476.58,-20621.2,1250.63,42.111,-107.999,205.975,6039.22,9335.66,2199.47,43.3311,22.5184,-5.78623,9306.24,-14962.2,3743.91,57.0139,-48.0782,-7.06186,9119.29,2816.39,6334.66,-32.5483,-7.73064,47.9163
4.394,23378.0,-15183.8,19538.4,195.516,-114.803,-68.3664,2776.18,4490.8,13141.9,106.192,-546.045,54.1988,-2199.68,8079.74,-12402.5,-6.40715,6.6251,-204.346,5665.22,-20561.6,1309.51,41.741,-112.682,206.006,5644.13,8348.29,1045.22,54.2599,24.636,-6.21482,9256.24,-14829.6,3842.87,57.9928,-49.7047,-7.52098,9067.29,2513.34,6255.33,-32.3629,-8.43198,47.0405
4.395,22083.6,-11587.2,17757.0,181.497,-90.4828,-74.1855,2796.47,4600.37,13226.4,106.315,-553.393,54.5992,-462.934,6661.99,-14170.8,-4.52814,8.23783,-198.463,5853.86,-20502.0,1368.39,41.371,-117.365,206.037,5249.04,7360.91,-109.028,65.1886,26.7535,-6.64342,9206.23,-14697.0,3941.83,58.9716,-51.3311,-7.98011,9015.3,2210.29,6175.99,-32.1775,-9.13332,46.1647
4.396,20365.7,-6745.63,16705.7,168.646,-76.6613,-74.7202,2838.44,4641.37,13337.9,106.736,-560.676,55.0183,975.276,5788.12,-14992.6,-2.40693,8.68725,-190.255,6104.26,-20425.9,1456.93,41.1971,-122.019,206.03,4738.13,6576.6,-1271.65,76.2745,30.0735,-7.63301,9152.13,-14541.0,4125.59,60.0761,-53.7991,-8.30549,8990.81,1920.9,6108.18,-31.9095,-9.43458,45.3941
4.397,18118.5,-347.924,16566.7,157.256,-75.9631,-68.6493,2907.5,4596.65,13483.0,107.53,-567.877,55.4606,2040.32,5594.12,-14631.0,0.0170157,7.68256,-179.142,6431.86,-20329.4,1582.55,41.2682,-126.635,205.978,4082.44,6046.12,-2444.74,87.557,34.8963,-9.32386,9092.92,-14355.8,4415.34,61.3376,-57.3191,-8.46369,9000.7,1648.57,6054.77,-31.5383,-9.23575,44.7549
4.398,15871.4,6049.78,16427.7,145.867,-75.265,-62.5783,2976.55,4551.92,13628.2,108.323,-575.078,55.903,3105.36,5400.11,-14269.5,2.44097,6.67786,-168.028,6759.47,-20232.8,1708.17,41.3393,-131.251,205.925,3426.74,5515.65,-3617.83,98.8394,39.7192,-11.0147,9033.72,-14170.5,4705.1,62.5991,-60.8391,-8.62188,9010.6,1376.23,6001.36,-31.1671,-9.03691,44.1158
4.399,13624.2,12447.5,16288.8,134.477,-74.5669,-56.5074,3045.61,4507.2,13773.3,109.117,-582.279,56.3453,4170.41,5206.1,-13907.9,4.86491,5.67316,-156.914,7087.08,-20136.3,1833.79,41.4104,-135.867,205.872,2771.05,4985.18,-4790.92,110.122,44.542,-12.7056,8974.51,-13985.3,4994.86,63.8607,-64.359,-8.78008,9020.49,1103.9,5947.95,-30.7959,-8.83807,43.4767
4.4,11377.0,18845.2,16149.8,123.087,-73.8688,-50.4364,3114.66,4462.47,13918.5,109.91,-589.479,56.7876,5235.45,5012.1,-13546.3,7.28886,4.66847,-145.801,7414.68,-20039.7,1959.41,41.4815,-140.482,205.819,2115.36,4454.7,-5964.01,121.404,49.3649,-14.3964,8915.31,-13800.1,5284.61,65.1222,-67.879,-8.93828,9030.39,831.572,5894.54,-30.4247,-8.63923,42.8376
4.401,10731.3,15880.0,13911.5,133.282,-68.8802,-55.8494,3253.8,4338.6,13839.2,111.545,-597.689,57.4451,4781.9,5216.49,-11594.5,2.46854,4.66601,-141.565,7871.04,-19975.2,1980.39,42.029,-142.765,205.477,1267.23,4561.67,-6434.86,128.379,56.3248,-16.8938,8734.33,-13672.5,5303.2,65.504,-72.2307,-9.56489,9068.35,665.742,6007.35,-29.6081,-9.04016,42.1108
4.402,10085.6,12914.8,11673.3,143.478,-63.8917,-61.2624,3392.94,4214.73,13760.0,113.18,-605.898,58.1025,4328.35,5420.89,-9642.59,-2.35177,4.66355,-137.329,8327.39,-19910.7,2001.36,42.5766,-145.048,205.134,419.107,4668.64,-6905.72,135.355,63.2848,-19.3912,8553.35,-13544.9,5321.79,65.8859,-76.5824,-10.1915,9106.3,499.912,6120.16,-28.7915,-9.44109,41.384
4.403,9439.95,9949.59,9434.96,153.673,-58.9032,-66.6754,3532.09,4090.85,13680.7,114.815,-614.107,58.76,3874.81,5625.28,-7690.72,-7.17209,4.66108,-133.093,8783.74,-19846.2,2022.34,43.1242,-147.33,204.791,-429.018,4775.6,-7376.57,142.33,70.2447,-21.8885,8372.38,-13417.3,5340.38,66.2678,-80.9341,-10.8181,9144.26,334.081,6232.97,-27.9749,-9.84202,40.6572
4.404,8794.25,6984.39,7196.67,163.869,-53.9146,-72.0884,3671.23,3966.98,13601.5,116.45,-622.317,59.4174,3421.26,5829.68,-5738.85,-11.9924,4.65862,-128.857,9240.09,-19781.8,2043.32,43.6718,-149.613,204.448,-1277.14,4882.57,-7847.43,149.305,77.2047,-24.3859,8191.4,-13289.7,5358.96,66.6497,-85.2858,-11.4447,9182.22,168.251,6345.79,-27.1584,-10.2429,39.9303
4.405,8730.04,3685.39,6087.75,166.243,-48.8964,-72.6804,4060.06,3895.24,13190.4,121.403,-632.949,61.4867,2510.91,6211.63,-4148.07,-15.2168,7.62452,-129.899,9561.78,-19712.1,1919.7,44.3367,-149.123,204.225,-2051.5,5188.05,-7928.84,152.259,83.8166,-26.6918,7986.43,-13162.2,5107.26,66.0409,-88.1392,-12.3825,9225.81,3.38456,6448.21,-26.0263,-10.8327,39.2941
4.406,9131.02,119.354,5882.32,162.361,-43.8545,-69.4157,4648.65,3865.21,12513.8,129.009,-645.521,64.6854,1235.12,6735.62,-2846.15,-17.1645,12.9651,-135.164,9775.73,-19638.4,1680.41,45.0956,-146.415,204.096,-2766.85,5652.34,-7698.71,151.995,90.1501,-28.8445,7762.26,-13034.8,4639.31,64.6396,-89.7938,-13.5692,9273.89,-160.71,6542.33,-24.642,-11.5735,38.7303
4.407,9532.0,-3446.68,5676.89,158.478,-38.8126,-66.151,5237.23,3835.18,11837.2,136.616,-658.093,67.8841,-40.672,7259.61,-1544.24,-19.1121,18.3057,-140.429,9989.68,-19564.6,1441.12,45.8545,-143.707,203.968,-3482.2,6116.63,-7468.58,151.732,96.4837,-30.9972,7538.09,-12907.4,4171.37,63.2383,-91.4485,-14.756,9321.97,-324.805,6636.44,-23.2576,-12.3144,38.1665
4.408,9932.97,-7012.72,5471.46,154.596,-33.7707,-62.8863,5825.82,3805.16,11160.6,144.223,-670.664,71.0829,-1316.46,7783.6,-242.32,-21.0598,23.6463,-145.694,10203.6,-19490.8,1201.83,46.6133,-140.999,203.839,-4197.55,6580.92,-7238.45,151.468,102.817,-33.1499,7313.93,-12780.0,3703.43,61.837,-93.1031,-15.9427,9370.05,-488.9,6730.56,-21.8732,-13.0552,37.6027
4.409,10439.5,-10213.9,5342.24,151.124,-28.6948,-58.601,6465.39,3759.0,10431.6,151.845,-683.483,74.6609,-2555.07,8330.77,968.683,-22.5609,28.7638,-151.02,10362.0,-19409.6,952.321,47.4517,-137.481,203.83,-4885.99,7043.45,-6968.45,150.508,108.742,-35.2009,7083.11,-12655.5,3220.49,60.3227,-94.4601,-17.1994,9415.43,-655.039,6799.69,-20.447,-13.7096,37.0293
4.41,11790.1,-10496.7,5822.72,150.938,-23.3468,-46.1516,7512.88,3583.87,9283.61,159.587,-698.282,81.2737,-3496.15,9063.34,1452.38,-20.4901,32.0971,-156.835,10075.3,-19268.6,621.088,48.9268,-127.483,204.77,-5359.12,7491.85,-6379.53,143.977,111.397,-36.4377,6799.14,-12554.4,2617.63,57.9045,-93.4358,-19.0159,9439.21,-837.536,6668.91,-18.6854,-13.6724,36.3782
4.411,13140.8,-10779.5,6303.2,150.751,-17.9987,-33.7022,8560.37,3408.73,8135.6,167.329,-713.081,87.8864,-4437.24,9795.92,1936.08,-18.4193,35.4303,-162.65,9788.72,-19127.6,289.856,50.4018,-117.484,205.71,-5832.26,7940.26,-5790.61,137.445,114.051,-37.6746,6515.17,-12453.3,2014.76,55.4864,-92.4115,-20.8325,9462.99,-1020.03,6538.14,-16.9239,-13.6351,35.7271
4.412,14491.5,-11062.3,6783.68,150.565,-12.6507,-21.2528,9607.86,3233.59,6987.6,175.071,-727.88,94.4992,-5378.33,10528.5,2419.78,-16.3484,38.7636,-168.465,9502.1,-18986.6,-41.377,51.8768,-107.486,206.651,-6305.39,8388.66,-5201.69,130.913,116.706,-38.9115,6231.19,-12352.3,1411.9,53.0682,-91.3872,-22.649,9486.77,-1202.53,6407.36,-15.1624,-13.5979,35.0761
4.413,15842.2,-11345.0,7264.15,150.378,-7.30265,-8.8034,10655.4,3058.45,5839.59,182.813,-742.68,101.112,-6319.41,11261.1,2903.47,-14.2776,42.0968,-174.281,9215.48,-18845.6,-372.61,53.3518,-97.4873,207.591,-6778.53,8837.07,-4612.76,124.381,119.361,-40.1484,5947.22,-12251.2,809.037,50.65,-90.3629,-24.4655,9510.55,-1385.03,6276.59,-13.4009,-13.5606,34.425
4.414,16339.2,-10693.8,7751.87,146.022,-4.39885,-1.79363,12358.0,3082.26,5905.96,189.549,-745.731,101.188,-6644.23,11867.6,2989.88,-12.1514,41.7632,-176.328,8719.8,-18667.5,-665.49,53.7444,-86.9602,209.921,-7143.58,8993.7,-4144.66,116.13,119.762,-41.488,5664.28,-12102.1,284.077,48.4599,-87.9773,-26.485,9546.58,-1551.5,6207.22,-11.7606,-13.0069,34.0232
4.415,16409.5,-9575.61,8243.19,139.58,-2.71716,2.49633,14388.3,3205.54,6579.52,195.783,-742.909,97.9961,-6660.92,12411.1,2877.65,-9.99741,39.596,-176.491,8119.59,-18471.0,-939.195,53.5959,-76.1686,212.947,-7454.58,9004.46,-3736.96,107.018,119.036,-42.8789,5381.86,-11928.8,-201.931,46.3839,-84.9112,-28.606,9588.74,-1709.96,6168.56,-10.1809,-12.1949,33.746
4.416,16479.8,-8457.39,8734.52,133.139,-1.03547,6.78629,16418.5,3328.82,7253.08,202.017,-740.087,94.8041,-6677.6,12954.6,2765.41,-7.84348,37.4289,-176.654,7519.38,-18274.5,-1212.9,53.4474,-65.3771,215.972,-7765.59,9015.21,-3329.26,97.9066,118.309,-44.2699,5099.45,-11755.6,-687.939,44.3078,-81.845,-30.7269,9630.89,-1868.42,6129.89,-8.60121,-11.3828,33.4689
4.417,16550.0,-7339.18,9225.85,126.697,0.646223,11.0762,18448.8,3452.11,7926.64,208.251,-737.266,91.6121,-6694.29,13498.2,2653.18,-5.68954,35.2618,-176.817,6919.17,-18078.0,-1486.61,53.2989,-54.5856,218.997,-8076.6,9025.96,-2921.56,88.795,117.583,-45.6608,4817.03,-11582.3,-1173.95,42.2318,-78.7788,-32.8479,9673.04,-2026.88,6091.23,-7.02154,-10.5708,33.1917
4.418,16370.6,-5968.17,9659.3,120.261,2.12413,14.0129,20460.9,3627.95,8670.79,214.264,-730.714,87.5212,-6568.65,13925.4,2515.22,-3.79318,31.7752,-176.15,6353.12,-17884.6,-1759.22,53.0778,-44.6276,221.99,-8388.07,8932.01,-2596.35,80.1891,116.821,-47.3219,4522.12,-11412.1,-1610.58,40.287,-75.698,-35.1897,9701.99,-2188.81,6069.54,-5.642,-9.80303,32.9391
4.419,15317.3,-3712.35,9890.17,113.843,2.8888,12.2132,22409.4,3987.74,9661.99,219.506,-711.111,80.2841,-5944.86,13945.7,2287.25,-2.79836,23.6703,-172.58,5906.6,-17702.1,-2027.99,52.6028,-37.5869,224.87,-8701.14,8471.61,-2559.85,73.3528,115.935,-49.9283,4183.51,-11252.7,-1874.42,38.8018,-72.5656,-38.3046,9684.7,-2362.87,6107.26,-4.96293,-9.19001,32.7726
4.42,14264.0,-1456.54,10121.0,107.425,3.65347,10.4134,24358.0,4347.54,10653.2,224.749,-691.508,73.047,-5321.07,13966.0,2059.27,-1.80354,15.5655,-169.01,5460.08,-17519.7,-2296.77,52.1277,-30.5463,227.751,-9014.21,8011.2,-2523.35,66.5164,115.048,-52.5348,3844.89,-11093.3,-2138.26,37.3166,-69.4332,-41.4195,9667.42,-2536.92,6144.98,-4.28386,-8.57699,32.606
4.421,13210.7,799.271,10351.9,101.007,4.41814,8.61363,26306.6,4707.33,11644.4,229.991,-671.905,65.81,-4697.29,13986.3,1831.3,-0.808726,7.46065,-165.44,5013.57,-17337.2,-2565.55,51.6527,-23.5056,230.631,-9327.29,7550.8,-2486.84,59.6801,114.161,-55.1413,3506.28,-10933.9,-2402.1,35.8313,-66.3008,-44.5344,9650.14,-2710.98,6182.71,-3.60479,-7.96398,32.4395
4.422,12157.3,3055.08,10582.8,94.5886,5.18281,6.81387,28255.1,5067.13,12635.6,235.234,-652.302,58.5729,-4073.5,14006.6,1603.32,0.186091,-0.6442,-161.869,4567.05,-17154.7,-2834.33,51.1776,-16.465,233.511,-9640.36,7090.39,-2450.34,52.8438,113.275,-57.7478,3167.67,-10774.5,-2665.94,34.3461,-63.1684,-47.6493,9632.85,-2885.03,6220.43,-2.92573,-7.35096,32.273
4.423,11113.6,4353.63,10659.1,86.4406,5.87997,3.64324,28741.4,5805.21,13468.8,229.917,-630.612,54.7831,-3642.74,13843.2,1559.68,-0.525171,-10.0563,-158.728,4285.89,-17248.1,-3113.66,51.0031,-12.9562,233.825,-10064.8,6590.57,-2642.9,49.3843,113.765,-60.6933,2852.17,-10708.5,-2835.16,33.2482,-60.7996,-51.492,9634.38,-3002.29,6210.24,-2.81958,-6.43661,32.0626
4.424,10072.5,5378.66,10691.4,77.7985,6.55784,0.0809445,28809.9,6651.38,14256.9,221.583,-608.325,51.9781,-3267.14,13627.3,1568.7,-1.72388,-19.8419,-155.709,4051.98,-17420.2,-3396.0,50.9144,-10.4566,233.406,-10521.1,6079.49,-2900.89,46.8895,114.649,-63.7357,2543.27,-10669.2,-2977.35,32.261,-58.649,-55.5426,9641.28,-3103.32,6186.35,-2.87713,-5.43616,31.8398
4.425,9031.5,6403.69,10723.6,69.1564,7.2357,-3.48135,28878.4,7497.55,15044.9,213.249,-586.039,49.1732,-2891.53,13411.4,1577.72,-2.9226,-29.6275,-152.69,3818.06,-17592.3,-3678.35,50.8257,-7.95694,232.986,-10977.3,5568.4,-3158.89,44.3948,115.533,-66.7781,2234.38,-10629.9,-3119.55,31.2738,-56.4984,-59.5932,9648.18,-3204.34,6162.47,-2.93467,-4.43571,31.6169
4.426,7990.46,7428.73,10755.8,60.5142,7.91357,-7.04365,28946.9,8343.71,15833.0,204.916,-563.753,46.3682,-2515.93,13195.5,1586.74,-4.12131,-39.4131,-149.671,3584.14,-17764.4,-3960.69,50.7371,-5.45729,232.567,-11433.6,5057.32,-3416.89,41.9,116.417,-69.8206,1925.48,-10590.6,-3261.74,30.2866,-54.3478,-63.6439,9655.08,-3305.37,6138.59,-2.99222,-3.43527,31.394
4.427,7126.94,8017.61,10729.0,52.7527,9.10155,-8.97837,28549.7,9594.89,16510.1,194.98,-544.778,46.3431,-2263.27,13060.5,1602.27,-5.83102,-47.7476,-146.981,3324.53,-17958.6,-4320.39,50.3477,-3.77226,231.62,-11902.4,4647.37,-3638.17,40.1619,117.332,-72.7736,1667.27,-10569.9,-3410.0,29.2802,-52.7316,-67.8304,9671.09,-3392.84,6113.41,-3.00322,-2.30692,31.144
4.428,6618.43,7734.18,10584.2,46.7525,11.3098,-7.65791,27221.1,11656.1,16965.4,181.841,-532.426,51.8777,-2256.48,13087.2,1630.82,-8.56271,-53.1798,-144.947,3013.55,-18196.8,-4834.79,49.3567,-3.71643,229.617,-12396.3,4439.7,-3786.03,39.937,118.31,-75.5479,1510.42,-10586.3,-3570.39,28.2353,-52.1843,-72.2886,9705.34,-3453.22,6085.66,-2.92115,-0.922772,30.8396
4.429,6109.92,7450.76,10439.4,40.7523,13.518,-6.33744,25892.6,13717.3,17420.7,168.702,-520.073,57.4123,-2249.7,13113.8,1659.36,-11.2944,-58.6121,-142.914,2702.56,-18435.0,-5349.19,48.3658,-3.6606,227.613,-12890.2,4232.03,-3933.89,39.7121,119.287,-78.3222,1353.58,-10602.6,-3730.78,27.1903,-51.637,-76.7469,9739.59,-3513.6,6057.9,-2.83908,0.461373,30.5352
4.43,5601.41,7167.33,10294.6,34.7522,15.7262,-5.01698,24564.0,15778.5,17876.0,155.562,-507.721,62.9468,-2242.92,13140.5,1687.9,-14.0261,-64.0444,-140.881,2391.57,-18673.2,-5863.59,47.3749,-3.60477,225.61,-13384.1,4024.36,-4081.74,39.4873,120.265,-81.0965,1196.73,-10619.0,-3891.18,26.1454,-51.0897,-81.2052,9773.83,-3573.98,6030.14,-2.75701,1.84552,30.2308
4.431,5092.9,6883.91,10149.8,28.752,17.9344,-3.69652,23235.4,17839.7,18331.2,142.423,-495.369,68.4814,-2236.13,13167.2,1716.45,-16.7578,-69.4767,-138.847,2080.58,-18911.4,-6377.99,46.384,-3.54894,223.607,-13878.0,3816.69,-4229.6,39.2624,121.242,-83.8707,1039.89,-10635.4,-4051.57,25.1005,-50.5424,-85.6635,9808.08,-3634.36,6002.39,-2.67494,3.22966,29.9264
4.432,5273.95,5610.36,9920.71,24.924,18.7746,-1.33987,22040.7,19003.0,18102.5,130.906,-490.146,78.9912,-2183.4,13257.7,1655.44,-19.4573,-72.0855,-136.882,1984.94,-19017.4,-6925.36,45.6483,-2.48964,221.933,-14255.5,3957.58,-4107.52,38.1537,119.622,-86.2856,1010.83,-10720.9,-4065.17,23.5725,-51.4016,-90.4279,9861.89,-3616.25,5988.33,-2.3061,4.8,29.6808
4.433,5541.19,4213.05,9681.1,21.3675,19.4438,1.14631,20862.7,20054.0,17788.3,119.592,-485.813,90.1229,-2124.93,13356.2,1583.24,-22.1529,-74.3414,-134.925,1916.23,-19106.8,-7476.86,44.9445,-1.30491,220.301,-14618.3,4142.03,-3951.7,36.9345,117.677,-88.6555,997.745,-10815.0,-4060.42,21.9842,-52.4366,-95.2307,9918.16,-3588.32,5975.98,-1.90142,6.39362,29.4425
4.434,5808.43,2815.74,9441.48,17.811,20.1129,3.63249,19684.7,21105.0,17474.1,108.278,-481.481,101.255,-2066.45,13454.8,1511.04,-24.8484,-76.5974,-132.968,1847.51,-19196.2,-8028.35,44.2408,-0.120177,218.668,-14981.2,4326.49,-3795.88,35.7154,115.731,-91.0254,984.661,-10909.0,-4055.67,20.3959,-53.4716,-100.033,9974.42,-3560.4,5963.63,-1.49673,7.98723,29.2042
4.435,6075.67,1418.43,9201.86,14.2545,20.7821,6.11867,18506.7,22156.0,17159.9,96.9646,-477.149,112.386,-2007.98,13553.3,1438.83,-27.544,-78.8533,-131.011,1778.79,-19285.7,-8579.84,43.537,1.06456,217.035,-15344.1,4510.94,-3640.06,34.4962,113.786,-93.3953,971.577,-11003.1,-4050.92,18.8075,-54.5066,-104.836,10030.7,-3532.48,5951.29,-1.09205,9.58085,28.966
4.436,6342.92,-98.9697,8879.55,12.3841,21.2153,7.79768,17544.3,22548.1,16730.3,84.091,-472.914,122.599,-1870.62,13539.0,1231.39,-29.5165,-80.7387,-128.964,1920.24,-19375.4,-9144.28,42.8963,3.59049,215.774,-15619.4,4762.78,-3438.48,32.5047,110.638,-95.6056,991.425,-11188.1,-4055.62,17.0426,-55.7181,-109.176,10066.5,-3486.91,5942.11,-0.731335,10.9797,28.9067
4.437,6610.17,-1766.48,8453.88,12.6214,21.3536,8.46772,16851.4,22116.3,16156.3,69.2679,-468.799,131.664,-1634.64,13383.6,854.907,-30.5852,-82.1609,-126.803,2324.39,-19465.7,-9724.9,42.3346,7.79294,214.975,-15785.2,5098.84,-3179.68,29.5477,105.985,-97.6163,1052.44,-11486.6,-4072.15,15.0568,-57.1502,-112.936,10076.8,-3419.29,5936.91,-0.425583,12.135,29.071
4.438,6877.43,-3433.99,8028.2,12.8586,21.4919,9.13777,16158.5,21684.6,15582.3,54.4447,-464.685,140.729,-1398.66,13228.2,478.42,-31.654,-83.5832,-124.642,2728.54,-19555.9,-10305.5,41.7728,11.9954,214.176,-15950.9,5434.9,-2920.88,26.5907,101.333,-99.627,1113.45,-11785.2,-4088.68,13.0711,-58.5823,-116.697,10087.1,-3351.66,5931.7,-0.11983,13.2904,29.2354
4.439,7144.68,-5101.5,7602.53,13.0958,21.6301,9.80781,15465.6,21252.9,15008.4,39.6216,-460.57,149.794,-1162.68,13072.8,101.933,-32.7228,-85.0055,-122.481,3132.69,-19646.1,-10886.1,41.211,16.1978,213.378,-16116.7,5770.96,-2662.07,23.6337,96.6804,-101.638,1174.46,-12083.7,-4105.21,11.0854,-60.0144,-120.457,10097.3,-3284.04,5926.49,0.185922,14.4457,29.3998
4.44,7411.94,-6769.01,7176.85,13.333,21.7684,10.4779,14772.7,20821.2,14434.4,24.7984,-456.456,158.859,-926.699,12917.4,-274.554,-33.7916,-86.4277,-120.32,3536.84,-19736.3,-11466.8,40.6492,20.4003,212.579,-16282.5,6107.02,-2403.27,20.6767,92.0279,-103.648,1235.48,-12382.3,-4121.73,9.09965,-61.4465,-124.218,10107.6,-3216.42,5921.28,0.491674,15.6011,29.5641
4.441,7409.79,-7063.19,7323.86,13.5337,21.5366,8.48125,14270.5,20069.3,14196.2,11.6404,-452.421,164.276,-752.812,12423.7,-753.487,-32.4345,-86.617,-119.083,4100.29,-19817.0,-11840.4,39.8615,25.3771,211.029,-16213.6,6446.15,-2201.5,17.6549,87.2273,-105.163,1308.87,-12725.6,-4234.02,7.55013,-61.5648,-127.623,10137.6,-3162.22,5902.97,0.864101,16.4681,29.8475
4.442,7407.65,-7357.37,7470.88,13.7345,21.3048,6.48464,13768.3,19317.5,13957.9,-1.51772,-448.386,169.693,-578.924,11930.0,-1232.42,-31.0774,-86.8062,-117.846,4663.75,-19897.7,-12214.1,39.0738,30.3539,209.478,-16144.7,6785.29,-1999.72,14.6331,82.4267,-106.677,1382.26,-13069.0,-4346.31,6.0006,-61.683,-131.027,10167.5,-3108.02,5884.66,1.23653,17.3351,30.1308
4.443,7405.51,-7651.55,7617.89,13.9352,21.073,4.48803,13266.0,18565.6,13719.7,-14.6758,-444.351,175.11,-405.037,11436.3,-1711.35,-29.7203,-86.9954,-116.608,5227.21,-19978.4,-12587.7,38.2861,35.3308,207.928,-16075.8,7124.42,-1797.94,11.6113,77.6261,-108.192,1455.65,-13412.4,-4458.6,4.45108,-61.8013,-134.431,10197.4,-3053.83,5866.34,1.60896,18.2022,30.4142
4.444,7403.36,-7945.73,7764.9,14.1359,20.8412,2.49142,12763.8,17813.8,13481.4,-27.8339,-440.316,180.527,-231.15,10942.6,-2190.28,-28.3632,-87.1847,-115.371,5790.66,-20059.1,-12961.3,37.4983,40.3076,206.377,-16006.9,7463.56,-1596.17,8.58957,72.8255,-109.706,1529.04,-13755.7,-4570.89,2.90155,-61.9195,-137.836,10227.4,-2999.63,5848.03,1.98138,19.0692,30.6976
4.445,7266.63,-7380.06,7946.98,13.6938,20.8632,0.747839,12346.3,17095.0,13436.7,-37.1524,-437.337,184.72,-102.136,10499.3,-2456.79,-26.8575,-86.6743,-114.57,6254.36,-20082.8,-12931.2,37.1364,43.1628,203.971,-15880.5,7751.96,-1404.82,6.4963,68.5622,-111.044,1551.16,-14162.4,-4655.48,2.90906,-60.9407,-140.789,10268.4,-2936.11,5820.02,2.33611,19.777,31.1188
4.446,7022.22,-6126.5,8157.12,12.7375,21.0884,-0.793321,11996.8,16402.7,13546.9,-43.3992,-435.203,187.934,-9.01928,10096.4,-2553.35,-25.2331,-85.6044,-114.118,6638.25,-20060.9,-12578.1,37.1151,44.3207,200.88,-15708.2,7999.79,-1221.81,5.14583,64.7288,-112.24,1532.27,-14619.7,-4717.91,4.16218,-59.0842,-143.381,10318.3,-2865.14,5784.25,2.67667,20.3576,31.6504
4.447,6777.81,-4872.94,8367.26,11.7812,21.3135,-2.33448,11647.2,15710.3,13657.1,-49.6461,-433.069,191.149,84.0971,9693.46,-2649.92,-23.6086,-84.5344,-113.665,7022.14,-20039.0,-12224.9,37.0937,45.4785,197.789,-15535.8,8247.61,-1038.8,3.79537,60.8954,-113.437,1513.38,-15077.0,-4780.34,5.41531,-57.2278,-145.972,10368.3,-2794.17,5748.48,3.01722,20.9381,32.182
4.448,6533.4,-3619.39,8577.4,10.8249,21.5387,-3.87564,11297.7,15018.0,13767.3,-55.893,-430.935,194.364,177.213,9290.54,-2746.48,-21.9841,-83.4645,-113.213,7406.03,-20017.1,-11871.7,37.0724,46.6364,194.697,-15363.5,8495.43,-855.784,2.4449,57.0619,-114.633,1494.48,-15534.3,-4842.77,6.66843,-55.3713,-148.564,10418.2,-2723.2,5712.72,3.35778,21.5187,32.7136
4.449,6270.87,-2399.37,8769.47,9.88357,21.7547,-5.11585,10985.3,14358.5,13912.5,-61.4464,-428.782,197.58,272.817,8929.71,-2807.08,-20.5024,-82.4218,-112.673,7752.95,-19953.3,-11484.1,37.254,47.5025,191.598,-15180.8,8739.43,-667.503,1.36238,53.22,-115.822,1468.24,-15976.5,-4877.85,8.13611,-53.3773,-151.082,10466.2,-2652.73,5673.08,3.70426,22.1084,33.2425
4.45,5863.35,-1447.68,8817.01,9.0617,21.8976,-3.94851,10969.8,13961.9,14337.6,-61.4523,-426.48,200.806,388.316,8905.66,-2579.94,-20.1626,-81.5971,-111.43,7804.13,-19554.2,-10821.1,39.0586,46.0344,188.438,-14915.5,8952.83,-437.065,2.42347,49.31,-116.956,1383.15,-16298.3,-4694.11,11.3202,-50.283,-153.01,10499.4,-2586.31,5602.54,4.09812,22.7712,33.7508
4.451,5455.82,-495.995,8864.55,8.23983,22.0404,-2.78116,10954.3,13565.2,14762.6,-61.4582,-424.179,204.032,503.816,8881.6,-2352.81,-19.8227,-80.7724,-110.188,7855.3,-19155.2,-10158.0,40.8632,44.5663,185.278,-14650.1,9166.24,-206.627,3.48455,45.4001,-118.09,1298.06,-16620.2,-4510.36,14.5043,-47.1888,-154.938,10532.6,-2519.88,5531.99,4.49197,23.434,34.259
4.452,5048.3,455.692,8912.09,7.41795,22.1832,-1.61381,10938.8,13168.6,15187.7,-61.4641,-421.877,207.257,619.316,8857.55,-2125.67,-19.4829,-79.9478,-108.946,7906.48,-18756.1,-9494.87,42.6678,43.0982,182.117,-14384.8,9379.64,23.8116,4.54563,41.4901,-119.224,1212.97,-16942.0,-4326.62,17.6884,-44.0945,-156.865,10565.8,-2453.46,5461.44,4.88582,24.0968,34.7672
4.453,4640.78,1407.38,8959.63,6.59608,22.3261,-0.446461,10923.3,12772.0,15612.7,-61.4699,-419.576,210.483,734.816,8833.49,-1898.53,-19.1431,-79.1231,-107.704,7957.66,-18357.1,-8831.78,44.4725,41.6301,178.957,-14119.4,9593.04,254.25,5.60671,37.5801,-120.359,1127.88,-17263.8,-4142.88,20.8724,-41.0003,-158.793,10599.0,-2387.03,5390.89,5.27967,24.7596,35.2754
4.454,4438.63,1432.78,8897.09,5.98214,22.2782,0.664489,11190.7,12425.8,15928.5,-61.0307,-413.919,212.007,771.276,8882.39,-1745.87,-18.9625,-78.794,-105.752,7672.95,-17983.7,-8383.3,47.3266,42.0108,176.337,-13869.1,9789.92,478.467,7.68502,32.9714,-120.951,974.094,-17489.3,-3850.56,24.4808,-38.2359,-159.938,10669.7,-2322.62,5366.84,5.64645,25.3846,35.7451
4.455,4339.16,995.032,8779.49,5.47217,22.135,1.74724,11599.4,12104.8,16189.6,-60.3689,-406.585,212.68,768.217,8967.75,-1630.44,-18.8615,-78.7126,-103.446,7220.3,-17623.1,-8042.12,50.7056,43.3158,173.988,-13626.2,9978.54,699.573,10.2719,28.0133,-121.272,785.963,-17666.7,-3503.96,28.3013,-35.6366,-160.692,10759.1,-2259.21,5366.04,5.9997,25.9908,36.1955
4.456,4239.7,557.286,8661.9,4.9622,21.9918,2.82999,12008.2,11783.8,16450.8,-59.7071,-399.25,213.352,765.158,9053.12,-1515.01,-18.7605,-78.6313,-101.14,6767.64,-17262.4,-7700.94,54.0845,44.6208,171.639,-13383.3,10167.2,920.679,12.8589,23.0552,-121.593,597.832,-17844.1,-3157.36,32.1219,-33.0372,-161.445,10848.5,-2195.79,5365.24,6.35295,26.597,36.6459
4.457,4140.24,119.539,8544.31,4.45223,21.8486,3.91274,12417.0,11462.8,16711.9,-59.0454,-391.916,214.025,762.099,9138.49,-1399.58,-18.6596,-78.5499,-98.8343,6314.99,-16901.8,-7359.77,57.4635,45.9259,169.29,-13140.4,10355.8,1141.79,15.4458,18.0971,-121.915,409.701,-18021.5,-2810.76,35.9424,-30.4379,-162.199,10937.9,-2132.38,5364.44,6.7062,27.2032,37.0963
4.458,4127.52,-385.138,8437.36,3.97956,21.7052,4.67968,12907.2,11136.3,16853.0,-58.7789,-383.46,214.071,716.926,9211.02,-1322.35,-18.5085,-78.3664,-96.6064,5762.48,-16561.7,-6934.09,60.6605,47.7308,166.946,-12905.6,10532.3,1328.78,18.0987,13.0143,-121.923,216.051,-18170.2,-2468.04,39.5087,-28.2205,-162.627,11021.1,-2054.91,5369.88,7.02484,27.7409,37.4733
4.459,4418.39,-1124.07,8367.67,3.63743,21.5609,4.34128,13682.1,10790.9,16574.2,-59.8959,-371.079,211.929,524.353,9238.64,-1378.84,-18.1822,-77.8256,-94.6514,4860.51,-16293.4,-6212.67,63.2204,51.2856,164.623,-12699.3,10666.4,1396.37,20.9823,7.49527,-120.838,3.08199,-18218.3,-2138.88,42.1851,-27.3402,-161.914,11082.9,-1928.23,5397.16,7.22236,28.0388,37.5937
4.46,4709.27,-1863.01,8297.97,3.29529,21.4166,4.00288,14457.1,10445.4,16295.4,-61.0129,-358.697,209.786,331.78,9266.26,-1435.32,-17.8559,-77.2847,-92.6965,3958.53,-16025.1,-5491.25,65.7804,54.8403,162.299,-12493.0,10800.6,1463.96,23.866,1.97624,-119.753,-209.887,-18266.4,-1809.73,44.8615,-26.4599,-161.202,11144.6,-1801.55,5424.44,7.41988,28.3367,37.714
4.461,5000.15,-2601.95,8228.27,2.95316,21.2723,3.66448,15232.0,10099.9,16016.5,-62.1299,-346.316,207.644,139.206,9293.88,-1491.81,-17.5296,-76.7438,-90.7415,3056.55,-15756.8,-4769.83,68.3404,58.3951,159.975,-12286.7,10934.7,1531.56,26.7497,-3.54279,-118.668,-422.856,-18314.5,-1480.57,47.5379,-25.5795,-160.49,11206.3,-1674.86,5451.72,7.61741,28.6346,37.8343
4.462,5291.02,-3340.88,8158.57,2.61103,21.128,3.32607,16007.0,9754.49,15737.7,-63.2469,-333.934,205.501,-53.3671,9321.5,-1548.3,-17.2033,-76.2029,-88.7866,2154.57,-15488.4,-4048.41,70.9003,61.9498,157.652,-12080.4,11068.9,1599.15,29.6333,-9.06183,-117.582,-635.825,-18362.7,-1151.42,50.2144,-24.6992,-159.777,11268.1,-1548.18,5479.0,7.81493,28.9325,37.9547
4.463,5482.09,-3534.25,8180.29,2.32565,21.0175,2.55157,16669.2,9346.59,15848.3,-65.1182,-316.591,201.517,-119.461,9335.69,-1578.57,-16.9481,-75.3201,-87.223,1205.06,-15272.6,-3314.6,73.6948,64.8868,155.983,-11878.2,11170.3,1553.22,32.0759,-14.0965,-115.432,-894.792,-18348.1,-956.813,51.8045,-24.5589,-158.173,11308.3,-1410.46,5477.94,8.04815,29.0372,38.2226
4.464,5644.63,-3571.74,8228.12,2.0565,20.9167,1.65246,17299.2,8920.84,16070.2,-67.2051,-297.829,197.006,-149.418,9346.04,-1601.34,-16.7133,-74.3397,-85.7711,241.976,-15071.9,-2577.26,76.5563,67.6473,154.502,-11677.2,11262.4,1474.85,34.3926,-18.9929,-112.976,-1166.9,-18315.6,-800.652,53.0842,-24.6301,-156.313,11342.2,-1269.59,5468.78,8.29157,29.0866,38.5327
4.465,5807.18,-3609.23,8275.96,1.78735,20.8159,0.753349,17929.2,8495.09,16292.1,-69.292,-279.067,192.495,-179.374,9356.39,-1624.11,-16.4784,-73.3593,-84.3193,-721.112,-14871.1,-1839.91,79.4178,70.4077,153.021,-11476.3,11354.4,1396.49,36.7092,-23.8892,-110.521,-1439.01,-18283.1,-644.491,54.3639,-24.7012,-154.453,11376.2,-1128.71,5459.62,8.53499,29.1361,38.8428
4.466,5969.72,-3646.72,8323.8,1.51819,20.7151,-0.14576,18559.1,8069.35,16514.0,-71.3789,-260.306,187.985,-209.331,9366.74,-1646.89,-16.2436,-72.3788,-82.8674,-1684.2,-14670.3,-1102.57,82.2793,73.1682,151.539,-11275.3,11446.5,1318.12,39.0258,-28.7855,-108.066,-1711.12,-18250.6,-488.331,55.6436,-24.7724,-152.594,11410.2,-987.836,5450.46,8.77841,29.1856,39.1529
4.467,6031.38,-3525.32,8381.24,1.16861,20.5117,-0.81545,19122.6,7501.16,16724.7,-72.5201,-240.032,182.432,-158.808,9366.55,-1651.9,-15.8648,-71.4148,-81.441,-2582.11,-14473.0,-491.207,82.8614,74.6994,150.043,-11061.2,11504.3,1213.16,41.0476,-33.2289,-105.449,-1946.09,-18206.9,-419.9,56.5375,-24.8345,-150.398,11422.1,-843.392,5434.99,9.07071,29.2108,39.3304
4.468,5891.26,-3086.14,8457.89,0.658169,20.1032,-1.0263,19552.8,6648.08,16913.0,-71.7699,-216.735,174.795,52.6753,9345.3,-1621.38,-15.1981,-70.4839,-80.0653,-3349.68,-14282.6,-131.82,78.8847,73.7721,148.516,-10820.8,11493.5,1054.98,42.4796,-36.7663,-102.507,-2106.77,-18140.8,-526.926,56.6596,-24.8785,-147.531,11389.6,-691.81,5406.91,9.46076,29.1876,39.2427
4.469,5751.15,-2646.96,8534.54,0.147727,19.6947,-1.23716,19983.1,5795.0,17101.4,-71.0197,-193.439,167.159,264.159,9324.04,-1590.86,-14.5315,-69.5529,-78.6896,-4117.24,-14092.3,227.566,74.908,72.8448,146.989,-10580.4,11482.8,896.809,43.9116,-40.3037,-99.5651,-2267.46,-18074.7,-633.953,56.7817,-24.9224,-144.663,11357.2,-540.228,5378.84,9.85081,29.1643,39.155
4.47,5611.03,-2207.79,8611.19,-0.362714,19.2862,-1.44801,20413.3,4941.92,17289.7,-70.2695,-170.142,159.522,475.642,9302.79,-1560.34,-13.8648,-68.6219,-77.314,-4884.8,-13901.9,586.953,70.9313,71.9174,145.462,-10340.1,11472.0,738.636,45.3436,-43.8411,-96.6232,-2428.14,-18008.6,-740.98,56.9038,-24.9664,-141.796,11324.7,-388.647,5350.76,10.2409,29.1411,39.0674
4.471,5470.92,-1768.61,8687.84,-0.873155,18.8777,-1.65886,20843.6,4088.85,17478.0,-69.5193,-146.845,151.885,687.125,9281.53,-1529.82,-13.1982,-67.691,-75.9383,-5652.37,-13711.6,946.339,66.9546,70.9901,143.936,-10099.7,11461.2,580.462,46.7756,-47.3786,-93.6813,-2588.82,-17942.5,-848.007,57.0259,-25.0104,-138.928,11292.3,-237.065,5322.69,10.6309,29.1178,38.9797
4.472,5316.52,-1499.27,8751.74,-1.59568,18.3528,-1.20223,21076.4,3749.72,17736.7,-57.3533,-124.033,146.597,856.254,9283.76,-1451.96,-12.2988,-66.6839,-74.7948,-6341.24,-13334.0,1063.04,60.2177,67.5301,142.503,-9838.37,11369.5,428.865,47.552,-49.8571,-91.1109,-2644.94,-17863.5,-1061.0,56.5537,-24.6728,-135.333,11254.8,-149.475,5309.62,11.0091,28.8727,38.7099
4.473,5160.33,-1251.16,8814.05,-2.34472,17.8134,-0.662168,21284.5,3474.84,18004.1,-43.7603,-101.281,141.603,1020.09,9288.93,-1368.19,-11.3704,-65.6673,-73.6802,-7020.28,-12933.1,1149.41,53.1358,63.7535,141.081,-9574.42,11267.5,278.091,48.2465,-52.2033,-88.5869,-2688.0,-17783.0,-1287.23,56.0072,-24.2874,-131.647,11216.7,-69.8836,5298.44,11.3857,28.5999,38.4173
4.474,5004.14,-1003.06,8876.36,-3.09376,17.274,-0.122104,21492.6,3199.96,18271.6,-30.1674,-78.5297,136.608,1183.92,9294.09,-1284.42,-10.442,-64.6508,-72.5657,-7699.32,-12532.1,1235.78,46.0539,59.9769,139.66,-9310.46,11165.6,127.316,48.941,-54.5494,-86.063,-2731.05,-17702.4,-1513.47,55.4606,-23.9021,-127.961,11178.5,9.70768,5287.25,11.7624,28.3271,38.1247
4.475,4847.95,-754.948,8938.67,-3.8428,16.7345,0.41796,21700.7,2925.08,18539.0,-16.5745,-55.7782,131.614,1347.76,9299.26,-1200.65,-9.51364,-63.6342,-71.4511,-8378.36,-12131.2,1322.14,38.972,56.2002,138.239,-9046.51,11063.7,-23.459,49.6355,-56.8956,-83.539,-2774.1,-17621.9,-1739.7,54.9141,-23.5167,-124.275,11140.4,89.2989,5276.07,12.1391,28.0543,37.8321
4.476,4746.13,-658.588,8964.67,-4.60356,16.2732,1.02999,21532.9,2383.41,18883.9,-5.67275,-35.4151,125.975,1452.75,9341.13,-1114.54,-8.69492,-62.5366,-70.3926,-8783.71,-11765.5,1303.83,32.2499,52.0508,136.892,-8792.44,10950.0,-145.123,50.0887,-58.9601,-81.4412,-2771.47,-17567.0,-1977.36,54.0516,-22.6457,-120.637,11116.4,166.885,5269.14,12.4337,27.7268,37.5165
4.477,4712.29,-751.914,8945.26,-5.37898,15.9094,1.73196,20895.0,1508.25,19325.6,1.86493,-18.0373,119.53,1484.19,9428.89,-1025.52,-8.01331,-61.3378,-69.4041,-8846.93,-11443.8,1154.68,25.9775,47.4355,135.639,-8550.73,10821.3,-230.399,50.2401,-60.6725,-79.8762,-2711.75,-17544.1,-2229.3,52.7943,-21.1675,-117.059,11110.0,241.964,5267.53,12.6257,27.331,37.172
4.478,4678.45,-845.24,8925.85,-6.1544,15.5456,2.43394,20257.1,633.092,19767.3,9.40262,-0.659595,113.085,1515.62,9516.66,-936.502,-7.33169,-60.1389,-68.4156,-8910.15,-11122.1,1005.53,19.7052,42.8201,134.386,-8309.03,10692.7,-315.676,50.3915,-62.385,-78.3111,-2652.03,-17521.2,-2481.25,51.5369,-19.6894,-113.482,11103.7,317.043,5265.92,12.8178,26.9352,36.8276
4.479,4644.61,-938.565,8906.45,-6.92981,15.1818,3.13591,19619.2,-242.068,20209.0,16.9403,16.7181,106.64,1547.06,9604.42,-847.481,-6.65007,-58.94,-67.4271,-8973.38,-10800.5,856.384,13.4328,38.2047,133.134,-8067.32,10564.1,-400.952,50.5429,-64.0974,-76.746,-2592.3,-17498.3,-2733.19,50.2795,-18.2112,-109.904,11097.3,392.123,5264.3,13.0098,26.5393,36.4831
4.48,4610.77,-1031.89,8887.04,-7.70523,14.818,3.83789,18981.4,-1117.23,20650.7,24.478,34.0959,100.195,1578.49,9692.19,-758.461,-5.96845,-57.7412,-66.4386,-9036.6,-10478.8,707.233,7.16047,33.5894,131.881,-7825.61,10435.5,-486.228,50.6944,-65.8099,-75.181,-2532.58,-17475.4,-2985.13,49.0221,-16.733,-106.326,11090.9,467.202,5262.69,13.2019,26.1435,36.1387
4.481,4685.94,-1159.72,8889.59,-8.69328,14.3804,3.88531,17652.5,-143.278,20146.0,31.5443,48.3339,97.5258,1539.0,9815.37,-766.122,-5.43497,-56.686,-65.3807,-8603.84,-10478.3,358.484,3.73007,29.5845,129.448,-7596.46,10297.9,-508.75,50.4675,-67.4193,-74.9392,-2419.1,-17423.6,-3165.73,47.6694,-14.9345,-102.71,11028.6,496.785,5230.54,13.2372,25.7411,35.1847
4.482,4761.11,-1287.55,8892.13,-9.68133,13.9428,3.93273,16323.5,830.671,19641.2,38.6106,62.572,94.8565,1499.51,9938.54,-773.782,-4.90149,-55.6308,-64.3227,-8171.09,-10477.9,9.73576,0.299673,25.5797,127.016,-7367.3,10160.3,-531.272,50.2405,-69.0287,-74.6975,-2305.61,-17371.7,-3346.32,46.3167,-13.1359,-99.0927,10966.2,526.368,5198.39,13.2724,25.3386,34.2308
4.483,4836.27,-1415.38,8894.68,-10.6694,13.5052,3.98015,14994.6,1804.62,19136.5,45.6769,76.8101,92.1871,1460.01,10061.7,-781.443,-4.36801,-54.5756,-63.2647,-7738.33,-10477.5,-339.013,-3.13072,21.5749,124.583,-7138.15,10022.6,-553.795,50.0136,-70.638,-74.4558,-2192.13,-17319.9,-3526.92,44.9641,-11.3374,-95.4758,10903.9,555.951,5166.23,13.3077,24.9361,33.2768
4.484,4911.44,-1543.21,8897.23,-11.6574,13.0676,4.02757,13665.7,2778.57,18631.8,52.7433,91.0482,89.5178,1420.52,10184.9,-789.104,-3.83452,-53.5204,-62.2067,-7305.58,-10477.0,-687.762,-6.56112,17.5701,122.15,-6908.99,9885.04,-576.317,49.7867,-72.2474,-74.2141,-2078.65,-17268.0,-3707.52,43.6114,-9.53879,-91.8589,10841.5,585.535,5134.08,13.343,24.5337,32.3229
