Time,RFoot_accel.x,RFoot_accel.y,RFoot_accel.z,RFoot_gyro.x,RFoot_gyro.y,RFoot_gyro.z,LFoot_accel.x,LFoot_accel.y,LFoot_accel.z,LFoot_gyro.x,LFoot_gyro.y,LFoot_gyro.z,RShank_accel.x,RShank_accel.y,RShank_accel.z,RShank_gyro.x,RShank_gyro.y,RShank_gyro.z,LShank_accel.x,LShank_accel.y,LShank_accel.z,LShank_gyro.x,LShank_gyro.y,LShank_gyro.z,RThigh_accel.x,RThigh_accel.y,RThigh_accel.z,RThigh_gyro.x,RThigh_gyro.y,RThigh_gyro.z,LThigh_accel.x,LThigh_accel.y,LThigh_accel.z,LThigh_gyro.x,LThigh_gyro.y,LThigh_gyro.z,Pelvis_accel.x,Pelvis_accel.y,Pelvis_accel.z,Pelvis_gyro.x,Pelvis_gyro.y,Pelvis_gyro.z
3.99,4238.43,-6321.84,5358.45,-82.5801,298.046,209.184,4199.71,3900.24,7684.55,9.16823,10.3153,12.9859,4085.04,3417.78,-1852.19,129.795,-11.9665,248.455,196.242,-9113.19,-3220.91,-4.58691,-42.1772,34.0812,-7099.92,4932.76,-182.349,50.8135,36.699,147.957,1171.05,-7086.59,-3018.15,-81.9039,-30.7644,103.111,4627.86,-787.338,2230.64,21.1431,5.50353,35.201
3.991,4442.99,-6235.92,5507.41,-79.5319,300.001,209.436,4135.87,3918.25,7713.14,8.15477,10.6159,13.5713,4101.21,3499.47,-1788.97,130.929,-10.8856,249.429,302.278,-9123.48,-3223.27,-4.51696,-42.7288,33.8899,-7232.23,4811.7,-195.919,49.6252,36.8712,147.847,1136.42,-7203.88,-2905.12,-82.6859,-30.5399,103.075,4611.74,-882.618,2208.79,21.8103,5.86435,35.1072
3.992,4558.79,-6108.57,5676.39,-77.4484,301.879,209.499,4067.2,3929.26,7767.34,7.40745,10.6912,14.3038,4088.89,3553.67,-1800.86,131.981,-9.45057,250.425,387.718,-9104.09,-3185.21,-4.44123,-42.9244,33.8964,-7349.67,4692.9,-220.749,48.3297,37.1484,147.823,1133.04,-7344.22,-2755.48,-83.4893,-30.5636,102.769,4610.5,-959.3,2186.74,22.3994,6.09813,34.9565
3.993,4663.48,-5976.04,5847.88,-75.4855,303.748,209.538,3997.94,3939.38,7824.74,6.6934,10.7383,15.0547,4073.01,3604.42,-1822.13,133.023,-7.97133,251.424,470.584,-9081.0,-3142.1,-4.36478,-43.0754,33.9276,-7465.25,4574.38,-246.987,47.0208,37.4388,147.81,1133.57,-7487.44,-2601.27,-84.2953,-30.6183,102.429,4611.12,-1033.66,2164.67,22.9787,6.31602,34.7987
3.994,4768.18,-5843.51,6019.37,-73.5227,305.617,209.578,3928.67,3949.51,7882.14,5.97934,10.7854,15.8056,4057.13,3655.18,-1843.4,134.065,-6.49208,252.423,553.449,-9057.91,-3099.0,-4.28833,-43.2265,33.9588,-7580.83,4455.87,-273.225,45.7118,37.7291,147.796,1134.1,-7630.66,-2447.06,-85.1014,-30.6731,102.089,4611.74,-1108.02,2142.6,23.558,6.53391,34.6408
3.995,4872.88,-5710.98,6190.86,-71.5598,307.486,209.618,3859.41,3959.64,7939.54,5.26529,10.8325,16.5565,4041.25,3705.93,-1864.67,135.106,-5.01284,253.423,636.315,-9034.81,-3055.89,-4.21188,-43.3776,33.9901,-7696.41,4337.35,-299.462,44.4029,38.0195,147.783,1134.63,-7773.88,-2292.84,-85.9074,-30.7278,101.749,4612.35,-1182.38,2120.53,24.1373,6.7518,34.483
3.996,4941.51,-5555.98,6357.13,-69.7116,309.254,209.706,3812.04,3907.78,7987.86,4.64513,10.8275,17.1511,4042.91,3778.11,-1893.86,136.151,-3.33933,254.583,700.164,-9013.62,-3007.79,-4.06835,-43.338,34.07,-7806.4,4237.01,-340.108,42.9503,38.314,147.844,1146.24,-7934.43,-2138.19,-86.6165,-31.0015,101.29,4621.32,-1262.07,2116.0,24.7372,6.93639,34.3041
3.997,4965.05,-5372.89,6516.87,-68.0068,310.895,209.856,3792.04,3778.44,8024.83,4.14236,10.7573,17.5503,4066.5,3877.06,-1932.93,137.199,-1.423,255.945,740.243,-8994.82,-2953.46,-3.84096,-43.0602,34.2107,-7909.42,4159.39,-398.762,41.3181,38.6138,147.998,1171.71,-8116.64,-1982.99,-87.2044,-31.5488,100.683,4640.73,-1348.43,2133.39,25.3629,7.07936,34.0989
3.998,4988.6,-5189.81,6676.6,-66.3019,312.537,210.005,3772.05,3649.1,8061.8,3.63959,10.6871,17.9495,4090.09,3976.01,-1972.01,138.247,0.493332,257.307,780.321,-8976.01,-2899.12,-3.61357,-42.7824,34.3515,-8012.44,4081.76,-457.417,39.686,38.9136,148.152,1197.18,-8298.85,-1827.78,-87.7922,-32.0961,100.076,4660.14,-1434.78,2150.79,25.9886,7.22232,33.8937
3.999,5012.14,-5006.73,6836.34,-64.5971,314.178,210.155,3752.06,3519.76,8098.77,3.13682,10.6168,18.3487,4113.68,4074.97,-2011.08,139.296,2.40966,258.67,820.4,-8957.21,-2844.79,-3.38618,-42.5046,34.4923,-8115.46,4004.14,-516.072,38.0538,39.2133,148.306,1222.64,-8481.07,-1672.58,-88.3801,-32.6435,99.4693,4679.54,-1521.14,2168.19,26.6143,7.36529,33.6885
4.0,5035.68,-4823.65,6996.08,-62.8923,315.82,210.304,3732.06,3390.42,8135.74,2.63405,10.5466,18.7479,4137.26,4173.92,-2050.16,140.344,4.32599,260.032,860.479,-8938.41,-2790.46,-3.15879,-42.2268,34.633,-8218.47,3926.52,-574.727,36.4216,39.5131,148.46,1248.11,-8663.28,-1517.38,-88.968,-33.1908,98.8622,4698.95,-1607.5,2185.58,27.24,7.50825,33.4833
4.001,4946.49,-4708.29,7142.38,-62.354,317.024,210.641,3803.28,3263.89,8162.53,2.19822,10.4053,18.891,4093.4,4281.93,-2059.11,141.617,6.39907,261.863,867.492,-9008.89,-2675.58,-3.11238,-41.7522,35.221,-8326.87,3848.91,-656.791,34.106,39.8899,149.107,1302.99,-8866.54,-1394.69,-89.173,-34.4007,98.0976,4751.92,-1662.8,2192.5,27.9666,7.62737,33.3104
4.002,4857.29,-4592.94,7288.68,-61.8157,318.227,210.979,3874.49,3137.36,8189.32,1.7624,10.264,19.0342,4049.53,4389.94,-2068.06,142.891,8.47215,263.694,874.505,-9079.38,-2560.71,-3.06597,-41.2777,35.8089,-8435.26,3771.3,-738.856,31.7903,40.2667,149.754,1357.86,-9069.81,-1272.0,-89.378,-35.6107,97.333,4804.89,-1718.1,2199.42,28.6933,7.74649,33.1375
4.003,4768.1,-4477.58,7434.98,-61.2775,319.431,211.316,3945.7,3010.84,8216.11,1.32658,10.1227,19.1774,4005.67,4497.95,-2077.02,144.164,10.5452,265.525,881.519,-9149.87,-2445.83,-3.01957,-40.8031,36.3968,-8543.66,3693.7,-820.92,29.4747,40.6436,150.401,1412.73,-9273.07,-1149.32,-89.583,-36.8207,96.5684,4857.86,-1773.4,2206.34,29.42,7.86561,32.9646
4.004,4678.9,-4362.23,7581.28,-60.7392,320.635,211.654,4016.91,2884.31,8242.9,0.890753,9.9814,19.3206,3961.8,4605.96,-2085.97,145.438,12.6183,267.356,888.532,-9220.36,-2330.95,-2.97316,-40.3286,36.9847,-8652.05,3616.09,-902.984,27.1591,41.0204,151.049,1467.61,-9476.34,-1026.63,-89.788,-38.0306,95.8037,4910.83,-1828.7,2213.26,30.1467,7.98474,32.7916
4.005,4599.73,-4272.96,7703.89,-60.7261,321.534,211.924,4093.61,2783.51,8277.78,0.400453,9.79118,19.3539,3942.49,4718.26,-2066.62,146.784,14.0944,269.354,856.025,-9302.0,-2234.58,-2.98992,-39.845,37.3977,-8736.68,3528.85,-1008.58,24.7859,41.9874,151.876,1534.87,-9671.79,-946.683,-89.7897,-39.4903,94.9824,4973.37,-1871.41,2224.51,30.7774,8.08274,32.5802
4.006,4528.56,-4204.55,7807.53,-61.1331,322.19,212.139,4174.69,2703.27,8319.12,-0.133429,9.56184,19.2992,3942.82,4834.01,-2024.64,148.187,15.0929,271.487,791.902,-9392.55,-2153.02,-3.05723,-39.3544,37.6706,-8802.3,3433.89,-1132.99,22.3668,43.4265,152.849,1612.03,-9860.98,-900.923,-89.6287,-41.1498,94.1157,5043.57,-1904.04,2239.23,31.3313,8.16385,32.3378
4.007,4457.4,-4136.15,7911.18,-61.5401,322.846,212.355,4255.77,2623.04,8360.47,-0.667311,9.33249,19.2446,3943.15,4949.75,-1982.65,149.59,16.0914,273.62,727.778,-9483.1,-2071.46,-3.12453,-38.8637,37.9435,-8867.91,3338.94,-1257.4,19.9476,44.8656,153.821,1689.2,-10050.2,-855.162,-89.4676,-42.8092,93.2489,5113.76,-1936.68,2253.96,31.8852,8.24496,32.0955
4.008,4386.24,-4067.75,8014.82,-61.9471,323.502,212.571,4336.85,2542.81,8401.82,-1.20119,9.10314,19.1899,3943.49,5065.5,-1940.67,150.994,17.09,275.753,663.655,-9573.66,-1989.89,-3.19183,-38.3731,38.2164,-8933.53,3243.99,-1381.81,17.5284,46.3046,154.793,1766.36,-10239.4,-809.402,-89.3066,-44.4687,92.3822,5183.96,-1969.32,2268.68,32.439,8.32607,31.8531
4.009,4312.47,-3993.82,8109.85,-62.4128,324.173,212.793,4414.57,2469.82,8439.46,-1.71659,8.86439,19.1093,3940.7,5180.46,-1896.01,152.336,18.0075,277.851,603.729,-9668.09,-1910.84,-3.25737,-37.8518,38.5094,-8993.03,3148.52,-1503.75,15.3017,47.9202,155.664,1844.82,-10425.3,-769.968,-89.1318,-46.1424,91.5118,5253.93,-2004.71,2281.98,32.9759,8.38902,31.5855
4.01,4217.83,-3875.68,8135.91,-63.3482,324.97,213.065,4465.46,2454.81,8447.52,-2.08411,8.55047,18.8212,3913.03,5289.14,-1830.0,153.187,18.2769,279.671,577.383,-9793.57,-1851.88,-3.30881,-37.0855,38.9629,-9003.64,3048.9,-1605.86,14.6144,50.9474,155.723,1933.62,-10584.9,-781.149,-88.8464,-47.9306,90.6126,5322.13,-2062.18,2283.92,33.3769,8.3067,31.1159
4.011,4123.19,-3757.53,8161.98,-64.2837,325.768,213.338,4516.35,2439.8,8455.57,-2.45164,8.23655,18.5331,3885.35,5397.82,-1763.98,154.039,18.5463,281.49,551.038,-9919.05,-1792.92,-3.36026,-36.3193,39.4164,-9014.25,2949.28,-1707.97,13.9271,53.9746,155.783,2022.41,-10744.6,-792.329,-88.561,-49.7187,89.7134,5390.32,-2119.66,2285.85,33.7779,8.22438,30.6462
4.012,4028.55,-3639.39,8188.04,-65.2191,326.565,213.611,4567.24,2424.79,8463.63,-2.81916,7.92263,18.245,3857.67,5506.5,-1697.97,154.891,18.8158,283.31,524.692,-10044.5,-1733.96,-3.4117,-35.5531,39.8699,-9024.86,2849.66,-1810.09,13.2398,57.0018,155.842,2111.2,-10904.3,-803.51,-88.2756,-51.5068,88.8141,5458.52,-2177.13,2287.79,34.1789,8.14206,30.1765
4.013,3933.92,-3521.25,8214.1,-66.1545,327.362,213.883,4618.13,2409.78,8471.68,-3.18669,7.60871,17.9569,3829.99,5615.18,-1631.96,155.742,19.0852,285.13,498.347,-10170.0,-1675.0,-3.46314,-34.7869,40.3234,-9035.47,2750.04,-1912.2,12.5525,60.029,155.902,2200.0,-11063.9,-814.69,-87.9902,-53.295,87.9149,5526.71,-2234.6,2289.73,34.5799,8.05974,29.7068
4.014,3914.83,-3435.14,8270.47,-67.531,327.897,214.293,4668.38,2372.98,8485.89,-3.2982,7.19586,17.7684,3790.92,5767.88,-1596.05,156.612,19.1334,286.79,473.54,-10279.4,-1637.92,-3.56176,-34.0274,40.6537,-9006.12,2678.09,-1940.36,13.2905,63.3186,155.376,2276.74,-11200.2,-837.156,-87.6234,-55.0733,87.1492,5602.31,-2282.13,2287.28,34.9976,7.85087,29.3126
4.015,3933.51,-3365.05,8341.99,-69.128,328.3,214.771,4718.32,2325.29,8503.19,-3.28171,6.73353,17.6298,3746.16,5942.59,-1575.19,157.492,19.071,288.37,449.502,-10380.7,-1611.79,-3.68399,-33.2713,40.9225,-8956.78,2619.98,-1931.56,14.7412,66.7395,154.556,2347.46,-11324.8,-865.266,-87.2158,-56.8467,86.4501,5681.62,-2324.68,2282.64,35.4235,7.57873,28.9561
4.016,3952.2,-3294.96,8413.52,-70.725,328.703,215.249,4768.26,2277.59,8520.48,-3.26522,6.27121,17.4911,3701.39,6117.3,-1554.34,158.372,19.0086,289.95,425.465,-10482.1,-1585.65,-3.80621,-32.5152,41.1912,-8907.45,2561.87,-1922.75,16.1919,70.1604,153.736,2418.17,-11449.4,-893.375,-86.8082,-58.6201,85.7511,5760.92,-2367.23,2278.0,35.8495,7.30659,28.5996
4.017,3970.89,-3224.87,8485.04,-72.322,329.106,215.728,4818.2,2229.9,8537.77,-3.24873,5.80889,17.3525,3656.62,6292.01,-1533.48,159.252,18.9462,291.531,401.427,-10583.4,-1559.51,-3.92843,-31.7591,41.46,-8858.11,2503.76,-1913.94,17.6425,73.5813,152.917,2488.89,-11574.0,-921.484,-86.4006,-60.3935,85.0521,5840.23,-2409.78,2273.36,36.2754,7.03445,28.2432
4.018,4008.44,-3181.2,8542.98,-73.9146,329.554,216.19,4859.77,2180.46,8554.15,-3.27046,5.37651,17.1407,3635.42,6466.39,-1517.52,160.132,18.9256,293.067,379.646,-10670.8,-1530.67,-4.05038,-30.9795,41.7214,-8800.38,2457.15,-1893.71,19.1124,76.7863,152.04,2560.89,-11682.9,-950.41,-85.9146,-62.157,84.4467,5923.62,-2449.48,2268.24,36.7193,6.76111,27.8641
4.019,4112.0,-3230.02,8553.39,-75.492,330.157,216.597,4872.05,2124.9,8567.34,-3.42598,5.04892,16.6732,3696.67,6639.59,-1518.72,161.017,19.0513,294.452,365.762,-10709.4,-1492.35,-4.17137,-30.1178,41.9571,-8713.24,2450.79,-1833.5,20.6494,79.2359,150.964,2637.38,-11736.6,-982.199,-85.1542,-63.8855,84.169,6021.35,-2479.15,2261.44,37.2257,6.48358,27.4062
4.02,4215.57,-3278.83,8563.8,-77.0694,330.76,217.005,4884.33,2069.34,8580.53,-3.58149,4.72134,16.2056,3757.93,6812.79,-1519.92,161.902,19.1771,295.837,351.878,-10748.0,-1454.03,-4.29237,-29.2561,42.1928,-8626.11,2444.44,-1773.28,22.1865,81.6855,149.887,2713.87,-11790.3,-1013.99,-84.3938,-65.614,83.8913,6119.08,-2508.82,2254.63,37.7322,6.20606,26.9483
4.021,4319.13,-3327.65,8574.21,-78.6467,331.363,217.412,4896.62,2013.78,8593.72,-3.73701,4.39376,15.738,3819.19,6985.99,-1521.12,162.787,19.3028,297.222,337.993,-10786.6,-1415.72,-4.41336,-28.3944,42.4285,-8538.97,2438.08,-1713.07,23.7235,84.135,148.81,2790.36,-11844.0,-1045.78,-83.6334,-67.3426,83.6135,6216.81,-2538.49,2247.83,38.2387,5.92853,26.4904
4.022,4422.7,-3376.46,8584.62,-80.2241,331.966,217.819,4908.9,1958.22,8606.91,-3.89253,4.06618,15.2704,3880.44,7159.19,-1522.31,163.672,19.4286,298.606,324.109,-10825.2,-1377.4,-4.53435,-27.5327,42.6642,-8451.84,2431.73,-1652.85,25.2605,86.5846,147.734,2866.85,-11897.7,-1077.56,-82.873,-69.0711,83.3358,6314.54,-2568.17,2241.02,38.7452,5.65101,26.0325
4.023,4566.11,-3363.08,8644.45,-81.4858,332.263,218.221,4905.98,1906.97,8592.58,-4.1017,3.78603,14.6847,3952.17,7320.47,-1534.71,164.448,19.8482,300.098,290.746,-10859.6,-1400.69,-4.74608,-26.6688,43.0279,-8363.04,2448.92,-1591.16,25.6026,88.0844,146.567,2946.72,-11874.1,-1081.97,-81.8146,-70.9515,83.1871,6404.27,-2566.51,2225.21,39.1447,5.3022,25.5478
4.024,4720.9,-3331.94,8718.4,-82.6572,332.472,218.622,4898.7,1856.94,8570.38,-4.32619,3.51944,14.0652,4026.88,7478.34,-1550.31,165.193,20.3517,301.62,251.818,-10892.8,-1441.58,-4.98374,-25.8044,43.4283,-8273.77,2472.83,-1529.05,25.6034,89.3128,145.374,3027.55,-11828.4,-1078.56,-80.6709,-72.8752,83.0752,6491.72,-2555.9,2206.82,39.5137,4.93302,25.0555
4.025,4875.69,-3300.79,8792.35,-83.8287,332.681,219.022,4891.43,1806.92,8548.18,-4.55069,3.25285,13.4457,4101.59,7636.21,-1565.91,165.938,20.8553,303.143,212.891,-10926.1,-1482.47,-5.2214,-24.9399,43.8286,-8184.5,2496.74,-1466.94,25.6041,90.5411,144.181,3108.38,-11782.7,-1075.15,-79.5273,-74.799,82.9633,6579.17,-2545.28,2188.43,39.8827,4.56384,24.5632
4.026,5030.49,-3269.64,8866.3,-85.0002,332.891,219.423,4884.16,1756.9,8525.99,-4.77519,2.98627,12.8262,4176.31,7794.08,-1581.51,166.682,21.3588,304.665,173.963,-10959.3,-1523.36,-5.45905,-24.0754,44.229,-8095.23,2520.66,-1404.83,25.6048,91.7695,142.988,3189.21,-11736.9,-1071.73,-78.3837,-76.7228,82.8513,6666.62,-2534.67,2170.04,40.2517,4.19466,24.0709
4.027,5173.46,-3260.87,8930.96,-86.1877,333.093,219.837,4870.77,1725.28,8517.43,-4.94527,2.61232,12.3274,4240.28,7944.18,-1600.95,167.371,21.9787,306.35,145.119,-10982.2,-1549.71,-5.67257,-23.2959,44.5451,-7999.86,2556.16,-1342.81,25.106,92.8252,141.783,3252.62,-11663.5,-1063.38,-77.1022,-78.7527,82.7915,6746.91,-2530.33,2146.61,40.6219,3.9107,23.5451
4.028,5292.81,-3296.83,8977.04,-87.4074,333.28,220.275,4845.13,1730.44,8536.14,-5.0065,2.02368,12.07,4282.78,8078.72,-1628.05,167.949,22.8313,308.36,136.445,-10984.4,-1546.97,-5.83782,-22.6864,44.6927,-7892.29,2614.85,-1280.96,23.6081,93.5355,140.556,3281.19,-11534.5,-1045.15,-75.545,-80.9949,82.8358,6812.87,-2538.53,2113.07,40.9946,3.79719,22.9525
4.029,5412.15,-3332.8,9023.13,-88.6271,333.467,220.714,4819.5,1735.6,8554.85,-5.06774,1.43504,11.8126,4325.28,8213.26,-1655.16,168.526,23.6838,310.37,127.771,-10986.6,-1544.23,-6.00307,-22.0769,44.8403,-7784.72,2673.53,-1219.11,22.1103,94.2459,139.33,3309.77,-11405.6,-1026.92,-73.9878,-83.2372,82.88,6878.83,-2546.73,2079.54,41.3672,3.68368,22.3598
4.03,5531.49,-3368.76,9069.21,-89.8468,333.655,221.153,4793.86,1740.77,8573.56,-5.12898,0.846395,11.5551,4367.77,8347.8,-1682.26,169.103,24.5364,312.38,119.097,-10988.8,-1541.49,-6.16832,-21.4675,44.988,-7677.15,2732.21,-1157.26,20.6124,94.9562,138.103,3338.35,-11276.7,-1008.69,-72.4306,-85.4794,82.9243,6944.8,-2554.93,2046.01,41.7399,3.57017,21.7672
4.031,5650.83,-3404.73,9115.29,-91.0665,333.842,221.592,4768.23,1745.93,8592.26,-5.19021,0.257752,11.2977,4410.27,8482.35,-1709.37,169.681,25.3889,314.39,110.422,-10991.0,-1538.75,-6.33357,-20.858,45.1356,-7569.58,2790.89,-1095.41,19.1145,95.6665,136.876,3366.92,-11147.7,-990.454,-70.8734,-87.7217,82.9686,7010.76,-2563.13,2012.47,42.1125,3.45666,21.1745
4.032,5739.09,-3498.45,9181.08,-91.8745,333.763,221.894,4779.87,1809.93,8593.69,-5.00417,-0.0906769,11.6425,4452.69,8544.58,-1751.72,170.409,26.5324,316.45,133.756,-10985.1,-1535.08,-6.49126,-20.4055,45.4369,-7454.22,2875.57,-1056.51,16.3631,96.3204,135.934,3289.31,-10957.3,-1013.4,-69.0106,-89.8913,83.5359,7099.53,-2545.48,1983.4,42.4704,3.26512,20.6789
4.033,5823.47,-3599.38,9249.33,-92.631,333.65,222.179,4796.17,1881.28,8592.95,-4.78722,-0.409078,12.0625,4495.09,8597.77,-1795.98,171.156,27.7123,318.516,161.091,-10978.3,-1531.29,-6.64801,-19.9726,45.7575,-7337.89,2963.5,-1020.48,13.455,96.9673,135.027,3198.43,-10759.1,-1041.49,-67.1096,-92.0519,84.1686,7191.15,-2524.6,1954.89,42.8264,3.06382,20.1955
4.034,5907.85,-3700.32,9317.58,-93.3875,333.537,222.463,4812.47,1952.63,8592.21,-4.57026,-0.72748,12.4826,4537.5,8650.97,-1840.24,171.903,28.8922,320.583,188.426,-10971.5,-1527.5,-6.80476,-19.5397,46.0781,-7221.56,3051.43,-984.449,10.5469,97.6141,134.121,3107.55,-10560.9,-1069.58,-65.2086,-94.2125,84.8014,7282.77,-2503.72,1926.38,43.1824,2.86252,19.7121
4.035,5992.23,-3801.25,9385.84,-94.144,333.425,222.748,4828.77,2023.98,8591.48,-4.35331,-1.04588,12.9026,4579.9,8704.16,-1884.49,172.65,30.0721,322.649,215.762,-10964.7,-1523.71,-6.96152,-19.1069,46.3987,-7105.23,3139.36,-948.419,7.63874,98.2609,133.214,3016.66,-10362.8,-1097.66,-63.3075,-96.3731,85.4341,7374.39,-2482.84,1897.87,43.5383,2.66123,19.2287
4.036,6061.92,-3924.34,9464.82,-94.6296,333.151,223.045,4830.63,2060.33,8609.06,-4.25185,-1.36125,13.0239,4628.39,8744.77,-1924.02,173.628,31.4838,324.607,216.263,-10943.1,-1534.87,-7.09674,-18.7805,46.648,-7008.12,3220.62,-929.893,4.19131,98.9913,132.492,2906.94,-10177.5,-1133.92,-61.6013,-98.4862,86.2296,7442.21,-2451.84,1880.39,43.8023,2.41396,18.7432
4.037,6113.26,-4075.11,9557.2,-94.7766,332.675,223.359,4814.44,2052.93,8649.55,-4.29478,-1.67284,12.7717,4684.48,8769.65,-1957.62,174.893,33.1855,326.428,183.222,-10903.1,-1564.72,-7.20505,-18.5873,46.8081,-6935.02,3293.53,-933.247,0.0697426,99.8261,131.999,2773.67,-10008.4,-1180.39,-60.1387,-100.54,87.2286,7480.27,-2408.19,1876.68,43.9514,2.10922,18.2552
4.038,6164.6,-4225.88,9649.59,-94.9236,332.199,223.672,4798.26,2045.54,8690.04,-4.33771,-1.98443,12.5195,4740.57,8794.53,-1991.22,176.158,34.8872,328.249,150.181,-10863.1,-1594.56,-7.31336,-18.394,46.9682,-6861.93,3366.45,-936.601,-4.05182,100.661,131.507,2640.41,-9839.23,-1226.86,-58.676,-102.594,88.2276,7518.34,-2364.53,1872.98,44.1004,1.80448,17.7672
4.039,6215.94,-4376.66,9741.97,-95.0706,331.723,223.986,4782.08,2038.14,8730.53,-4.38063,-2.29602,12.2672,4796.66,8819.41,-2024.82,177.423,36.5888,330.071,117.14,-10823.1,-1624.4,-7.42168,-18.2008,47.1284,-6788.83,3439.37,-939.954,-8.17339,101.496,131.014,2507.14,-9670.09,-1273.32,-57.2134,-104.647,89.2266,7556.41,-2320.88,1869.27,44.2494,1.49975,17.2792
4.04,6267.28,-4527.43,9834.36,-95.2177,331.247,224.299,4765.89,2030.75,8771.02,-4.42356,-2.6076,12.015,4852.75,8844.29,-2058.42,178.689,38.2905,331.892,84.0994,-10783.1,-1654.25,-7.52999,-18.0076,47.2885,-6715.74,3512.29,-943.308,-12.295,102.33,130.522,2373.87,-9500.95,-1319.79,-55.7507,-106.701,90.2256,7594.47,-2277.22,1865.57,44.3985,1.19501,16.7912
4.041,6341.88,-4652.59,9941.96,-94.8227,330.708,224.467,4739.97,2027.24,8742.28,-4.30368,-2.93593,11.9098,4872.46,8882.98,-2089.73,179.696,40.084,333.485,4.7965,-10745.9,-1706.76,-7.43886,-18.3374,47.4907,-6725.87,3528.81,-1066.56,-16.7305,104.33,130.483,2214.52,-9357.73,-1185.14,-56.4866,-109.988,90.8239,7628.49,-2236.52,1869.49,44.6627,0.864718,16.3473
4.042,6416.47,-4777.74,10049.6,-94.4278,330.169,224.636,4714.05,2023.73,8713.54,-4.1838,-3.26426,11.8045,4892.16,8921.68,-2121.04,180.704,41.8774,335.077,-74.5064,-10708.7,-1759.28,-7.34772,-18.6673,47.693,-6735.99,3545.34,-1189.82,-21.1661,106.33,130.444,2055.17,-9214.5,-1050.49,-57.2225,-113.276,91.4223,7662.51,-2195.81,1873.42,44.9269,0.534427,15.9035
4.043,6491.07,-4902.9,10157.2,-94.0328,329.63,224.804,4688.12,2020.21,8684.81,-4.06391,-3.59259,11.6993,4911.87,8960.37,-2152.34,181.712,43.6709,336.67,-153.809,-10671.4,-1811.79,-7.25659,-18.9971,47.8952,-6746.12,3561.86,-1313.08,-25.6016,108.33,130.405,1895.82,-9071.27,-915.84,-57.9584,-116.563,92.0206,7696.52,-2155.11,1877.35,45.1911,0.204136,15.4596
4.044,6565.66,-5028.06,10264.8,-93.6378,329.092,224.972,4662.2,2016.7,8656.07,-3.94403,-3.92091,11.5941,4931.57,8999.07,-2183.65,182.72,45.4643,338.262,-233.112,-10634.2,-1864.31,-7.16545,-19.327,48.0974,-6756.24,3578.39,-1436.33,-30.0372,110.33,130.366,1736.47,-8928.04,-781.189,-58.6944,-119.851,92.6189,7730.54,-2114.41,1881.27,45.4554,-0.126156,15.0158
4.045,6671.22,-5143.14,10387.0,-92.9891,328.473,225.386,4658.67,2027.94,8618.12,-3.86869,-4.07015,11.6161,4949.58,9100.51,-2198.66,183.737,47.0257,339.68,-310.648,-10592.6,-1889.37,-7.07392,-19.8287,48.337,-6790.0,3554.81,-1582.85,-33.6946,113.43,130.309,1592.92,-8807.68,-843.003,-58.4631,-122.159,93.4785,7768.69,-2065.19,1864.28,45.7487,-0.420345,14.5984
4.046,6801.53,-5250.15,10520.9,-92.1373,327.792,225.998,4673.05,2050.98,8572.8,-3.82898,-4.07611,11.74,4966.23,9252.14,-2200.63,184.762,48.4015,340.958,-386.769,-10547.4,-1892.46,-6.98206,-20.468,48.6064,-6842.67,3499.16,-1747.99,-36.7295,117.409,130.239,1462.02,-8705.61,-1061.99,-57.4582,-123.684,94.5472,7810.14,-2009.16,1830.55,46.0652,-0.685654,14.2021
4.047,6931.85,-5357.16,10654.9,-91.2855,327.11,226.609,4687.44,2074.03,8527.48,-3.78927,-4.08207,11.8639,4982.87,9403.78,-2202.61,185.787,49.7773,342.236,-462.891,-10502.2,-1895.55,-6.8902,-21.1073,48.8758,-6895.34,3443.5,-1913.12,-39.7643,121.388,130.168,1331.11,-8603.54,-1280.97,-56.4533,-125.21,95.6158,7851.59,-1953.13,1796.82,46.3818,-0.950962,13.8058
4.048,7062.17,-5464.17,10788.8,-90.4337,326.429,227.22,4701.82,2097.07,8482.16,-3.74957,-4.08803,11.9878,4999.52,9555.42,-2204.58,186.812,51.1531,343.514,-539.012,-10457.0,-1898.64,-6.79834,-21.7466,49.1453,-6948.01,3387.84,-2078.25,-42.7992,125.367,130.098,1200.21,-8501.46,-1499.96,-55.4483,-126.735,96.6845,7893.04,-1897.1,1763.09,46.6984,-1.21627,13.4095
4.049,7191.11,-5562.94,10928.5,-89.6207,325.748,227.823,4717.68,2124.87,8444.89,-3.6825,-4.10245,12.1412,5010.13,9713.17,-2204.21,187.819,52.4963,344.763,-610.495,-10413.0,-1898.56,-6.71089,-22.403,49.4128,-7003.38,3327.9,-2236.44,-45.4944,129.534,129.897,1071.13,-8410.79,-1714.09,-54.3526,-128.107,97.7785,7934.7,-1839.65,1731.38,47.0203,-1.47604,13.0115
4.05,7308.99,-5595.78,11114.2,-89.119,325.066,228.36,4745.4,2190.73,8472.07,-3.39654,-4.18449,12.5308,4972.42,9919.86,-2185.07,188.683,53.5791,345.773,-644.87,-10379.0,-1873.09,-6.65872,-23.1971,49.6652,-7080.38,3233.7,-2339.09,-45.4725,135.205,128.653,956.625,-8411.32,-1889.35,-52.5299,-128.254,99.0754,7978.07,-1770.79,1715.83,47.3852,-1.69151,12.6001
4.051,7426.87,-5628.62,11299.9,-88.6173,324.385,228.896,4773.11,2256.6,8499.26,-3.11057,-4.26653,12.9204,4934.71,10126.6,-2165.93,189.546,54.662,346.783,-679.246,-10345.0,-1847.62,-6.60655,-23.9911,49.9176,-7157.38,3139.51,-2441.73,-45.4506,140.875,127.409,842.122,-8411.84,-2064.61,-50.7073,-128.402,100.372,8021.43,-1701.93,1700.28,47.7501,-1.90698,12.1887
4.052,7544.75,-5661.46,11485.6,-88.1155,323.704,229.432,4800.83,2322.47,8526.44,-2.82461,-4.34856,13.31,4897.0,10333.2,-2146.78,190.409,55.7448,347.793,-713.621,-10311.0,-1822.15,-6.55439,-24.7852,50.17,-7234.38,3045.31,-2544.38,-45.4287,146.546,126.165,727.62,-8412.37,-2239.87,-48.8846,-128.549,101.669,8064.8,-1633.07,1684.73,48.1149,-2.12246,11.7773
4.053,7662.63,-5694.3,11671.4,-87.6138,323.023,229.969,4828.54,2388.34,8553.62,-2.53865,-4.4306,13.6996,4859.29,10539.9,-2127.64,191.272,56.8276,348.803,-747.996,-10277.1,-1796.68,-6.50222,-25.5792,50.4224,-7311.38,2951.11,-2647.03,-45.4069,152.216,124.921,613.118,-8412.89,-2415.13,-47.062,-128.696,102.966,8108.16,-1564.21,1669.18,48.4798,-2.33793,11.3659
4.054,7819.89,-5706.34,11826.9,-87.384,322.655,230.656,4824.58,2379.11,8564.05,-2.2701,-4.54911,13.93,4775.6,10788.4,-2109.11,192.208,57.6034,349.891,-734.11,-10260.8,-1777.79,-6.56911,-26.3529,50.6138,-7379.95,2897.85,-2678.44,-43.7911,157.469,122.901,477.951,-8427.23,-2459.2,-46.4343,-129.132,103.871,8118.94,-1509.21,1643.53,48.7354,-2.57939,11.0284
4.055,7996.82,-5707.99,11967.3,-87.2903,322.445,231.418,4804.78,2332.34,8566.1,-2.01024,-4.68584,14.0809,4668.94,11057.9,-2090.88,193.181,58.2257,351.016,-696.092,-10253.5,-1762.19,-6.69552,-27.1163,50.7748,-7444.3,2865.07,-2674.23,-41.3784,162.514,120.492,332.451,-8448.48,-2437.67,-46.4042,-129.712,104.579,8113.43,-1461.15,1612.83,48.9364,-2.83385,10.728
4.056,8173.76,-5709.64,12107.7,-87.1965,322.234,232.18,4784.98,2285.57,8568.15,-1.75038,-4.82258,14.2317,4562.27,11327.3,-2072.65,194.154,58.848,352.142,-658.075,-10246.2,-1746.59,-6.82192,-27.8798,50.9358,-7508.65,2832.29,-2670.02,-38.9656,167.559,118.084,186.952,-8469.73,-2416.15,-46.374,-130.292,105.287,8107.91,-1413.09,1582.13,49.1374,-3.08831,10.4275
4.057,8350.7,-5711.28,12248.2,-87.1027,322.023,232.943,4765.18,2238.8,8570.2,-1.49053,-4.95932,14.3825,4455.6,11596.7,-2054.42,195.127,59.4703,353.268,-620.057,-10238.9,-1730.99,-6.94833,-28.6433,51.0968,-7573.0,2799.5,-2665.81,-36.5529,172.604,115.675,41.4526,-8490.97,-2394.62,-46.3439,-130.871,105.995,8102.4,-1365.03,1551.43,49.3383,-3.34277,10.127
4.058,8545.99,-5734.42,12398.9,-87.0848,321.901,233.658,4745.84,2190.67,8570.77,-1.28127,-5.09027,14.4826,4368.03,11863.6,-2027.12,196.08,60.012,354.418,-588.289,-10235.5,-1718.81,-7.01634,-29.4261,51.2656,-7625.23,2785.99,-2634.46,-34.0989,176.75,113.271,-95.4325,-8515.63,-2363.54,-46.5807,-131.463,106.616,8098.81,-1320.63,1526.35,49.4925,-3.57061,9.84462
4.059,8805.51,-5832.78,12585.9,-87.332,322.09,234.211,4728.1,2137.77,8566.17,-1.24908,-5.20101,14.4052,4347.34,12121.5,-1968.04,196.962,60.2717,355.653,-578.393,-10246.0,-1718.61,-6.87994,-30.2763,51.4617,-7635.1,2839.95,-2508.11,-31.5002,177.75,110.88,-202.167,-8552.19,-2298.99,-47.7521,-132.096,106.934,8101.97,-1289.03,1520.95,49.4831,-3.70527,9.62573
4.06,9065.02,-5931.14,12772.8,-87.5792,322.279,234.764,4710.36,2084.88,8561.57,-1.2169,-5.31175,14.3279,4326.64,12379.4,-1908.96,197.843,60.5314,356.889,-568.497,-10256.5,-1718.41,-6.74354,-31.1266,51.6578,-7644.96,2893.91,-2381.75,-28.9016,178.75,108.49,-308.902,-8588.75,-2234.44,-48.9235,-132.729,107.252,8105.13,-1257.44,1515.55,49.4738,-3.83992,9.40684
4.061,9324.54,-6029.5,12959.8,-87.8265,322.468,235.318,4692.62,2031.98,8556.97,-1.18472,-5.42249,14.2506,4305.94,12637.4,-1849.89,198.725,60.791,358.124,-558.601,-10267.0,-1718.21,-6.60714,-31.9769,51.8539,-7654.82,2947.87,-2255.39,-26.303,179.751,106.099,-415.637,-8625.32,-2169.89,-50.0949,-133.362,107.571,8108.29,-1225.85,1510.16,49.4644,-3.97458,9.18795
4.062,9584.05,-6127.86,13146.7,-88.0737,322.657,235.871,4674.88,1979.08,8552.36,-1.15253,-5.53323,14.1733,4285.24,12895.3,-1790.81,199.606,61.0507,359.359,-548.705,-10277.4,-1718.01,-6.47075,-32.8272,52.05,-7664.68,3001.83,-2129.04,-23.7043,180.751,103.708,-522.372,-8661.89,-2105.33,-51.2662,-133.995,107.889,8111.45,-1194.25,1504.76,49.455,-4.10924,8.96906
4.063,9885.04,-6349.94,13237.9,-88.012,322.923,236.311,4686.12,1994.57,8548.15,-1.1375,-5.64397,13.9993,4294.51,13168.5,-1754.58,200.451,61.3923,360.513,-565.876,-10275.3,-1745.34,-6.24107,-33.5889,52.3435,-7662.94,3072.89,-2005.73,-22.3414,177.572,101.756,-580.67,-8725.57,-2063.86,-52.2811,-134.649,108.243,8131.73,-1144.8,1512.25,49.5868,-4.42866,8.76776
4.064,10197.9,-6607.38,13301.8,-87.8621,323.212,236.719,4705.65,2029.6,8544.04,-1.12736,-5.75471,13.7978,4312.34,13446.0,-1724.87,201.286,61.7572,361.643,-590.781,-10269.4,-1780.54,-5.98474,-34.3254,52.665,-7657.9,3148.82,-1883.29,-21.3316,173.199,99.9281,-625.128,-8797.0,-2028.99,-53.2512,-135.309,108.607,8156.89,-1090.24,1523.44,49.7588,-4.80088,8.5715
4.065,10510.7,-6864.81,13365.7,-87.7121,323.5,237.127,4725.18,2064.63,8539.94,-1.11723,-5.86545,13.5962,4330.17,13723.5,-1695.16,202.12,62.1222,362.773,-615.686,-10263.6,-1815.73,-5.72842,-35.0619,52.9864,-7652.86,3224.76,-1760.85,-20.3217,168.825,98.1006,-669.587,-8868.44,-1994.11,-54.2214,-135.97,108.971,8182.06,-1035.69,1534.62,49.9309,-5.1731,8.37523
4.066,10823.6,-7122.25,13429.5,-87.5621,323.788,237.535,4744.7,2099.66,8535.83,-1.10709,-5.97619,13.3946,4348.0,14001.0,-1665.45,202.955,62.4871,363.903,-640.591,-10257.8,-1850.93,-5.47209,-35.7983,53.3078,-7647.81,3300.7,-1638.42,-19.3119,164.452,96.2731,-714.046,-8939.87,-1959.23,-55.1915,-136.63,109.335,8207.23,-981.131,1545.8,50.103,-5.54531,8.17896
4.067,11132.5,-7349.27,13477.6,-87.0152,324.051,238.134,4763.68,2134.0,8530.56,-1.07911,-6.08326,13.2333,4358.39,14280.8,-1627.99,203.788,62.7459,364.973,-663.252,-10256.3,-1886.78,-5.22961,-36.5055,53.6217,-7656.9,3373.1,-1544.42,-19.0293,158.77,94.5532,-734.814,-9024.1,-1931.4,-55.79,-137.274,109.617,8217.41,-919.814,1550.06,50.1749,-5.94424,7.9473
4.068,11433.5,-7515.43,13494.1,-85.6743,324.261,239.117,4781.56,2166.96,8522.96,-1.01541,-6.18296,13.1524,4353.91,14565.2,-1575.04,204.619,62.7923,365.923,-681.427,-10263.4,-1923.92,-5.01483,-37.1539,53.9206,-7694.23,3438.45,-1507.29,-20.2012,150.472,93.0484,-708.201,-9133.93,-1917.66,-55.6452,-137.886,109.734,8197.62,-844.979,1540.49,50.0465,-6.39658,7.64485
4.069,11734.6,-7681.6,13510.5,-84.3334,324.472,240.1,4799.44,2199.92,8515.37,-0.951713,-6.28267,13.0715,4349.42,14849.7,-1522.08,205.45,62.8386,366.874,-699.602,-10270.5,-1961.06,-4.80005,-37.8023,54.2195,-7731.57,3503.79,-1470.16,-21.3731,142.174,91.5437,-681.588,-9243.75,-1903.91,-55.5005,-138.497,109.851,8177.82,-770.144,1530.92,49.9181,-6.84893,7.34241
4.07,12035.6,-7847.77,13527.0,-82.9925,324.682,241.083,4817.32,2232.87,8507.77,-0.888017,-6.38238,12.9907,4344.93,15134.2,-1469.12,206.28,62.885,367.824,-717.777,-10277.6,-1998.2,-4.58527,-38.4508,54.5184,-7768.9,3569.13,-1433.03,-22.5451,133.875,90.039,-654.975,-9353.58,-1890.17,-55.3557,-139.109,109.968,8158.03,-695.309,1521.35,49.7897,-7.30127,7.03997
4.071,12336.6,-8013.94,13543.4,-81.6516,324.893,242.066,4835.2,2265.83,8500.18,-0.82432,-6.48209,12.9098,4340.44,15418.7,-1416.16,207.111,62.9314,368.774,-735.952,-10284.7,-2035.34,-4.3705,-39.0992,54.8173,-7806.24,3634.47,-1395.91,-23.717,125.577,88.5342,-628.362,-9463.41,-1876.43,-55.211,-139.721,110.085,8138.24,-620.474,1511.78,49.6613,-7.75361,6.73752
4.072,12522.1,-7955.8,13533.1,-79.6501,324.579,244.265,4827.68,2264.2,8492.03,-0.758018,-6.54698,12.9311,4273.26,15687.7,-1394.69,207.819,62.9321,369.674,-724.717,-10287.7,-2033.64,-4.21712,-39.7186,55.2377,-7899.91,3714.02,-1335.09,-26.8874,115.308,87.4363,-523.236,-9586.2,-1899.61,-54.1192,-140.365,110.025,8099.96,-593.507,1520.32,49.5516,-8.12439,6.61489
4.073,12693.2,-7869.62,13519.4,-77.566,324.201,246.616,4816.98,2258.25,8483.82,-0.691391,-6.60752,12.9651,4198.25,15954.8,-1377.15,208.512,62.9271,370.568,-709.805,-10290.1,-2027.07,-4.07142,-40.3344,55.6733,-8000.62,3795.35,-1271.32,-30.3076,104.791,86.3893,-408.297,-9710.6,-1927.41,-52.909,-141.013,109.942,8059.37,-572.524,1531.12,49.4442,-8.48497,6.51473
4.074,12864.2,-7783.44,13505.8,-75.4819,323.822,248.967,4806.29,2252.29,8475.61,-0.624764,-6.66806,12.9992,4123.23,16222.0,-1359.6,209.204,62.9221,371.461,-694.892,-10292.6,-2020.51,-3.92572,-40.9502,56.1089,-8101.34,3876.67,-1207.54,-33.7278,94.2754,85.3423,-293.358,-9835.0,-1955.21,-51.6988,-141.661,109.859,8018.78,-551.541,1541.92,49.3368,-8.84555,6.41458
4.075,13035.3,-7697.26,13492.1,-73.3978,323.443,251.317,4795.59,2246.34,8467.4,-0.558137,-6.7286,13.0333,4048.22,16489.1,-1342.06,209.897,62.9171,372.355,-679.98,-10295.0,-2013.95,-3.78002,-41.566,56.5445,-8202.05,3958.0,-1143.76,-37.1479,83.7593,84.2953,-178.419,-9959.41,-1983.02,-50.4886,-142.31,109.777,7978.2,-530.558,1552.72,49.2294,-9.20613,6.31442
4.076,13220.3,-7605.45,13471.8,-71.6417,322.843,253.659,4783.69,2248.33,8465.51,-0.484209,-6.83578,12.9958,3978.71,16760.4,-1348.46,210.352,63.2808,373.153,-654.564,-10307.9,-2014.47,-3.67342,-42.1239,56.9679,-8329.66,4033.04,-1052.92,-41.6221,72.6557,83.6342,-28.5812,-10084.2,-2007.17,-48.907,-143.114,109.508,7974.13,-498.063,1528.51,49.1266,-9.53327,6.24436
4.077,13422.7,-7506.6,13443.2,-70.2954,321.965,255.99,4770.29,2260.24,8471.53,-0.401154,-7.00127,12.8688,3916.08,17036.9,-1384.8,210.51,64.1053,373.83,-616.016,-10333.8,-2023.85,-3.61569,-42.6093,57.376,-8490.88,4100.21,-928.23,-47.4138,60.8177,83.4557,164.879,-10209.6,-2026.78,-46.8611,-144.115,109.007,8015.73,-451.178,1460.54,49.0294,-9.81861,6.21192
4.078,13625.1,-7407.76,13414.6,-68.9492,321.087,258.321,4756.88,2272.16,8477.54,-0.318099,-7.16675,12.7419,3853.46,17313.4,-1421.13,210.668,64.9298,374.508,-577.469,-10359.7,-2033.22,-3.55797,-43.0947,57.784,-8652.1,4167.39,-803.543,-53.2055,48.9798,83.2771,358.34,-10335.0,-2046.38,-44.8152,-145.115,108.506,8057.32,-404.293,1392.56,48.9323,-10.104,6.17947
4.079,13827.5,-7308.91,13386.0,-67.603,320.209,260.652,4743.48,2284.08,8483.56,-0.235044,-7.33223,12.615,3790.83,17589.9,-1457.46,210.827,65.7543,375.186,-538.921,-10385.6,-2042.6,-3.50024,-43.5802,58.1921,-8813.33,4234.57,-678.857,-58.9972,37.1418,83.0985,551.8,-10460.3,-2065.98,-42.7693,-146.116,108.006,8098.92,-357.409,1324.59,48.8352,-10.3893,6.14703
4.08,14029.9,-7210.07,13357.4,-66.2568,319.331,262.983,4730.07,2296.0,8489.58,-0.15199,-7.49772,12.488,3728.2,17866.4,-1493.79,210.985,66.5788,375.864,-500.374,-10411.5,-2051.97,-3.44251,-44.0656,58.6002,-8974.55,4301.75,-554.17,-64.7889,25.3038,82.9199,745.261,-10585.7,-2085.59,-40.7233,-147.116,107.505,8140.51,-310.523,1256.61,48.738,-10.6746,6.11459
4.081,14233.8,-7159.34,13463.4,-65.7827,317.28,265.013,4727.48,2276.15,8525.38,0.346742,-7.82835,12.4417,3684.7,18156.9,-1520.23,211.72,68.1947,376.222,-460.419,-10457.1,-2082.2,-3.41969,-44.4458,59.1827,-9218.87,4256.99,-444.886,-72.5313,13.7711,83.5343,931.829,-10637.7,-2125.68,-37.9108,-147.957,106.7,8174.2,-257.39,1294.56,48.5661,-10.9522,6.17406
4.082,14437.6,-7108.61,13569.5,-65.3088,315.229,267.044,4724.89,2256.31,8561.18,0.845473,-8.15898,12.3953,3641.19,18447.3,-1546.67,212.454,69.8105,376.58,-420.464,-10502.8,-2112.43,-3.39687,-44.826,59.7653,-9463.19,4212.24,-335.602,-80.2738,2.23836,84.1488,1118.4,-10689.8,-2165.76,-35.0982,-148.798,105.894,8207.89,-204.256,1332.51,48.3942,-11.2297,6.23352
4.083,14641.5,-7057.89,13675.6,-64.8348,313.178,269.075,4722.29,2236.47,8596.98,1.3442,-8.48961,12.349,3597.69,18737.8,-1573.11,213.189,71.4264,376.938,-380.509,-10548.4,-2142.66,-3.37404,-45.2063,60.3478,-9707.51,4167.48,-226.318,-88.0163,-9.29437,84.7632,1304.96,-10741.9,-2205.85,-32.2856,-149.639,105.089,8241.58,-151.122,1370.46,48.2224,-11.5072,6.29299
4.084,14845.3,-7007.16,13781.6,-64.3607,311.127,271.105,4719.7,2216.63,8632.78,1.84294,-8.82024,12.3027,3554.18,19028.3,-1599.55,213.924,73.0423,377.295,-340.554,-10594.1,-2172.89,-3.35122,-45.5865,60.9303,-9951.83,4122.72,-117.034,-95.7588,-20.8271,85.3776,1491.53,-10793.9,-2245.94,-29.473,-150.48,104.284,8275.27,-97.9887,1408.42,48.0505,-11.7847,6.35245
4.085,15091.9,-7084.4,13790.5,-63.8007,309.196,272.802,4671.6,2176.81,8694.12,2.80925,-9.20162,12.4112,3474.29,19291.6,-1629.56,214.671,74.7888,377.507,-307.216,-10625.7,-2236.87,-3.85993,-46.2668,61.5624,-10176.0,4026.6,-43.6975,-104.055,-30.7639,86.1531,1639.73,-10828.3,-2294.92,-26.7145,-151.056,103.396,8271.52,-60.6694,1427.88,47.8528,-12.2163,6.50847
4.086,15372.5,-7264.0,13721.7,-63.1717,307.361,274.232,4587.1,2120.99,8775.89,4.14963,-9.6236,12.6437,3365.29,19533.1,-1662.42,215.429,76.6399,377.602,-279.171,-10646.1,-2327.86,-4.79388,-47.1872,62.2341,-10384.2,3889.38,0.881391,-112.795,-39.4241,87.0576,1757.23,-10848.5,-2351.01,-23.9992,-151.421,102.442,8237.81,-36.0016,1432.57,47.6346,-12.7712,6.74173
4.087,15653.2,-7443.61,13652.9,-62.5428,305.525,275.661,4502.6,2065.18,8857.67,5.49,-10.0456,12.8762,3256.28,19774.5,-1695.27,216.186,78.4909,377.697,-251.126,-10666.5,-2418.84,-5.72782,-48.1075,62.9057,-10592.3,3752.16,45.4603,-121.535,-48.0842,87.962,1874.74,-10868.7,-2407.1,-21.2839,-151.786,101.488,8204.09,-11.3338,1437.25,47.4164,-13.326,6.975
4.088,15933.9,-7623.21,13584.1,-61.9138,303.69,277.09,4418.1,2009.36,8939.44,6.83038,-10.4676,13.1087,3147.28,20016.0,-1728.13,216.944,80.342,377.793,-223.081,-10686.9,-2509.83,-6.66177,-49.0279,63.5774,-10800.4,3614.94,90.0392,-130.275,-56.7444,88.8664,1992.24,-10888.9,-2463.19,-18.5687,-152.151,100.534,8170.38,13.3339,1441.93,47.1982,-13.8809,7.20826
4.089,16221.8,-7814.57,13514.7,-61.1515,301.842,278.522,4327.36,1991.92,9006.47,8.01102,-10.8466,13.3874,3038.43,20254.1,-1758.97,217.636,82.2076,377.838,-199.524,-10701.3,-2624.95,-7.65609,-50.1031,64.1915,-10998.6,3477.04,141.566,-138.821,-64.8717,89.8199,2106.56,-10907.5,-2519.38,-15.9708,-152.379,99.5505,8138.16,40.3493,1447.54,46.9966,-14.4488,7.40226
4.09,16568.0,-8099.91,13440.6,-59.3223,299.889,279.966,4186.69,2281.47,8955.56,7.91381,-10.8824,14.0361,2930.84,20464.7,-1773.67,217.8,84.1896,377.485,-211.872,-10667.7,-2933.17,-9.13342,-52.4172,64.3454,-11117.0,3333.72,248.679,-145.82,-68.7363,91.1661,2195.35,-10912.9,-2576.33,-14.3127,-151.515,98.3337,8117.89,86.1454,1460.55,46.9276,-15.1209,7.2822
4.091,16914.2,-8385.25,13366.4,-57.4931,297.936,281.411,4046.02,2571.01,8904.66,7.8166,-10.9183,14.6847,2823.26,20675.3,-1788.37,217.965,86.1717,377.132,-224.219,-10634.1,-3241.4,-10.6107,-54.7313,64.4993,-11235.3,3190.39,355.792,-152.818,-72.6009,92.5123,2284.15,-10918.2,-2633.29,-12.6545,-150.651,97.1169,8097.61,131.942,1473.56,46.8586,-15.7929,7.16213
4.092,17260.4,-8670.58,13292.2,-55.6639,295.983,282.855,3905.34,2860.55,8853.75,7.71939,-10.9541,15.3334,2715.67,20886.0,-1803.08,218.129,88.1537,376.779,-236.566,-10600.5,-3549.62,-12.0881,-57.0454,64.6532,-11353.7,3047.07,462.905,-159.817,-76.4654,93.8585,2372.94,-10923.6,-2690.24,-10.9964,-149.787,95.9001,8077.34,177.738,1486.57,46.7896,-16.465,7.04207
4.093,17606.6,-8955.92,13218.0,-53.8347,294.03,284.299,3764.67,3150.1,8802.84,7.62218,-10.9899,15.9821,2608.08,21096.6,-1817.78,218.294,90.1358,376.427,-248.914,-10566.9,-3857.84,-13.5654,-59.3596,64.8071,-11472.0,2903.75,570.018,-166.816,-80.33,95.2047,2461.74,-10929.0,-2747.19,-9.33824,-148.923,94.6833,8057.06,223.534,1499.58,46.7207,-17.1371,6.92201
4.094,17968.2,-9122.29,13159.0,-51.1228,291.914,286.238,3725.88,3584.72,8694.54,7.44668,-10.946,17.3279,2459.59,21326.2,-1848.9,218.187,92.1113,375.902,-292.572,-10525.6,-4098.18,-13.5364,-60.8751,64.9277,-11512.2,2762.99,722.313,-171.005,-80.8665,96.8089,2520.37,-10953.2,-2778.92,-8.66741,-147.65,93.4449,8052.14,259.943,1513.36,46.6349,-17.9004,6.97802
4.095,18337.6,-9229.16,13107.4,-47.9697,289.718,288.424,3738.04,4091.88,8557.55,7.23204,-10.8623,19.0222,2290.65,21565.2,-1888.24,217.944,94.0835,375.291,-351.886,-10480.5,-4304.56,-12.7543,-61.9914,65.0316,-11513.3,2623.5,897.198,-173.789,-79.739,98.5421,2563.9,-10986.9,-2798.03,-8.49025,-146.172,92.1955,8054.88,291.658,1527.51,46.5407,-18.7093,7.12207
4.096,18707.0,-9336.03,13055.9,-44.8165,287.521,290.61,3750.2,4599.05,8420.55,7.0174,-10.7786,20.7166,2121.71,21804.3,-1927.57,217.701,96.0557,374.681,-411.2,-10435.3,-4510.95,-11.9722,-63.1076,65.1356,-11514.4,2484.02,1072.08,-176.573,-78.6115,100.275,2607.44,-11020.5,-2817.15,-8.31308,-144.695,90.9462,8057.63,323.373,1541.67,46.4465,-19.5182,7.26612
4.097,19076.3,-9442.9,13004.4,-41.6633,285.324,292.796,3762.36,5106.21,8283.56,6.80276,-10.6949,22.4109,1952.77,22043.3,-1966.9,217.458,98.028,374.07,-470.514,-10390.2,-4717.34,-11.1901,-64.2239,65.2395,-11515.5,2344.54,1246.97,-179.357,-77.484,102.008,2650.98,-11054.2,-2836.26,-8.13592,-143.217,89.6968,8060.38,355.089,1555.82,46.3523,-20.3272,7.41018
4.098,19450.4,-9496.58,12943.0,-38.5119,283.116,295.072,3812.08,5416.42,8188.48,6.98323,-10.7786,24.032,1753.33,22280.8,-2007.56,217.066,99.9326,373.383,-501.737,-10376.3,-4820.62,-10.0936,-64.8444,65.5048,-11476.6,2196.84,1421.75,-181.027,-75.3978,103.616,2677.13,-11087.4,-2832.67,-8.23267,-141.892,88.4096,8060.52,379.251,1566.11,46.2748,-21.1122,7.56502
4.099,19841.1,-9364.07,12847.2,-35.3666,280.867,297.66,3993.29,5037.29,8240.1,8.54659,-11.4481,25.3968,1447.14,22512.6,-2052.85,216.15,101.6,372.426,-434.639,-10471.8,-4563.02,-7.89704,-63.7298,66.3344,-11298.0,2020.36,1596.15,-178.8,-69.9561,104.783,2642.38,-11119.1,-2749.62,-9.28811,-141.103,86.9897,8051.57,376.98,1562.86,46.2559,-21.8134,7.75763
4.1,20231.7,-9231.56,12751.3,-32.2214,278.617,300.249,4174.49,4658.16,8291.73,10.11,-12.1176,26.7616,1140.95,22744.4,-2098.13,215.233,103.268,371.469,-367.541,-10567.3,-4305.42,-5.70047,-62.6151,67.164,-11119.3,1843.88,1770.55,-176.573,-64.5145,105.949,2607.64,-11150.9,-2666.56,-10.3436,-140.314,85.5697,8042.62,374.708,1559.61,46.2371,-22.5147,7.95023
4.101,20622.4,-9099.05,12655.5,-29.0761,276.368,302.838,4355.7,4279.03,8343.35,11.6733,-12.7871,28.1263,834.765,22976.3,-2143.42,214.317,104.936,370.512,-300.443,-10662.8,-4047.82,-3.5039,-61.5005,67.9936,-10940.7,1667.41,1944.96,-174.346,-59.0728,107.116,2572.9,-11182.6,-2583.5,-11.399,-139.525,84.1498,8033.66,372.437,1556.37,46.2182,-23.216,8.14284
4.102,21013.1,-8966.54,12559.7,-25.9308,274.118,305.426,4536.9,3899.9,8394.97,13.2367,-13.4566,29.4911,528.577,23208.1,-2188.7,213.401,106.604,369.555,-233.345,-10758.2,-3790.22,-1.30732,-60.3858,68.8232,-10762.0,1490.93,2119.36,-172.119,-53.6311,108.283,2538.16,-11214.3,-2500.44,-12.4545,-138.736,82.7299,8024.71,370.165,1553.12,46.1994,-23.9173,8.33544
4.103,21386.1,-8719.47,12510.6,-23.4567,272.062,308.056,4759.28,3254.11,8461.74,13.2961,-14.1487,29.1505,158.701,23414.8,-2216.46,211.932,107.782,368.503,-171.376,-10874.0,-3476.38,-0.0490605,-59.7099,69.7632,-10474.0,1315.69,2259.05,-166.366,-46.0768,108.429,2492.24,-11280.2,-2431.99,-13.6364,-139.278,81.3032,8013.49,378.351,1549.01,46.0715,-24.6743,8.60117
4.104,21754.1,-8439.67,12475.0,-21.1744,270.061,310.698,4993.43,2532.13,8532.84,12.9258,-14.8473,28.3226,-229.371,23614.4,-2239.22,210.306,108.821,367.423,-110.871,-10995.5,-3146.47,0.941114,-59.1592,70.7348,-10154.8,1140.81,2388.82,-159.606,-37.9189,108.285,2443.13,-11355.9,-2367.71,-14.8545,-140.199,79.8746,8001.62,389.524,1544.65,45.9125,-25.4473,8.88778
4.105,22122.2,-8159.87,12439.3,-18.8921,268.06,313.34,5227.57,1810.15,8603.93,12.5555,-15.5458,27.4946,-617.444,23814.0,-2261.97,208.68,109.859,366.343,-50.3669,-11117.1,-2816.56,1.93129,-58.6086,71.7064,-9835.52,965.929,2518.6,-152.845,-29.761,108.14,2394.02,-11431.6,-2303.44,-16.0725,-141.12,78.4459,7989.75,400.698,1540.3,45.7535,-26.2202,9.1744
4.106,22490.2,-7880.06,12403.6,-16.6098,266.059,315.982,5461.72,1088.16,8675.03,12.1852,-16.2444,26.6667,-1005.52,24013.6,-2284.72,207.053,110.898,365.264,10.1375,-11238.6,-2486.66,2.92146,-58.058,72.6779,-9516.28,791.047,2648.37,-146.085,-21.603,107.995,2344.91,-11507.2,-2239.17,-17.2906,-142.042,77.0173,7977.88,411.872,1535.94,45.5945,-26.9932,9.46102
4.107,22862.6,-7608.25,12329.7,-14.8519,264.244,318.376,5631.55,626.54,8720.76,11.6606,-16.9519,25.7866,-1405.88,24192.7,-2293.48,205.283,111.56,364.105,2.1246,-11308.7,-2224.55,3.54677,-57.6676,73.6179,-9165.04,641.263,2765.21,-138.575,-13.2935,107.392,2298.8,-11588.8,-2167.53,-18.0151,-143.511,75.4665,7957.25,412.148,1539.61,45.5531,-27.7898,9.71366
4.108,23243.9,-7352.43,12179.2,-14.1425,262.802,320.274,5672.77,685.634,8715.75,10.8274,-17.6775,24.8019,-1830.81,24330.9,-2274.25,203.224,111.471,362.788,-142.923,-11276.0,-2098.03,3.44234,-57.5977,74.4948,-8749.78,541.67,2856.16,-129.567,-4.68072,105.872,2258.69,-11682.4,-2081.16,-17.7525,-146.077,73.6714,7919.1,390.628,1559.33,45.7467,-28.6335,9.89834
4.109,23625.1,-7096.61,12028.6,-13.4332,261.359,322.172,5713.99,744.728,8710.75,9.99423,-18.403,23.8172,-2255.74,24469.1,-2255.01,201.165,111.381,361.472,-287.971,-11243.3,-1971.52,3.33792,-57.5277,75.3717,-8334.52,442.077,2947.12,-120.558,3.93203,104.352,2218.58,-11775.9,-1994.79,-17.4899,-148.642,71.8763,7880.95,369.109,1579.05,45.9404,-29.4773,10.083
4.11,24006.4,-6840.79,11878.1,-12.7239,259.917,324.071,5755.21,803.822,8705.75,9.16103,-19.1286,22.8325,-2680.68,24607.3,-2235.78,199.107,111.292,360.155,-433.018,-11210.6,-1845.01,3.23349,-57.4578,76.2486,-7919.26,342.484,3038.08,-111.55,12.5448,102.832,2178.48,-11869.4,-1908.42,-17.2273,-151.208,70.0812,7842.8,347.59,1598.77,46.134,-30.321,10.2677
4.111,24387.6,-6584.97,11727.6,-12.0145,258.475,325.969,5796.42,862.916,8700.74,8.32784,-19.8542,21.8478,-3105.61,24745.5,-2216.55,197.048,111.203,358.839,-578.066,-11177.9,-1718.5,3.12907,-57.3878,77.1255,-7504.0,242.892,3129.03,-102.542,21.1575,101.312,2138.37,-11963.0,-1822.05,-16.9646,-153.773,68.2861,7804.66,326.07,1618.49,46.3277,-31.1648,10.4524
4.112,24774.9,-6558.62,11526.9,-11.3633,257.462,327.1,5693.25,1222.44,8677.52,8.65124,-20.6051,21.7114,-3489.26,24838.0,-2184.33,195.092,110.378,357.177,-674.95,-11139.5,-1663.62,2.91871,-57.6061,78.0761,-7073.79,308.003,3214.09,-94.1726,28.4312,98.9455,2114.96,-12070.3,-1818.69,-14.1427,-156.233,66.5076,7786.27,302.413,1659.77,46.4383,-32.0109,10.5733
4.113,25163.0,-6560.96,11319.9,-10.7194,256.503,328.135,5572.02,1619.52,8652.02,9.11922,-21.3593,21.681,-3867.74,24924.8,-2150.5,193.149,109.461,355.473,-765.813,-11100.3,-1617.69,2.69511,-57.8604,79.036,-6641.71,393.702,3298.42,-85.8831,35.5376,96.4734,2093.63,-12179.3,-1825.7,-11.0009,-158.68,64.7313,7770.35,278.487,1703.74,46.5386,-32.8574,10.6863
4.114,25551.1,-6563.3,11112.9,-10.0755,255.544,329.17,5450.79,2016.6,8626.52,9.58719,-22.1134,21.6506,-4246.22,25011.5,-2116.66,191.207,108.545,353.769,-856.677,-11061.1,-1571.77,2.47151,-58.1147,79.9958,-6209.63,479.401,3382.75,-77.5936,42.6439,94.0014,2072.3,-12288.3,-1832.71,-7.85902,-161.126,62.9549,7754.43,254.562,1747.71,46.6388,-33.7038,10.7992
4.115,25939.2,-6565.64,10905.9,-9.43153,254.585,330.205,5329.56,2413.68,8601.02,10.0552,-22.8675,21.6202,-4624.71,25098.3,-2082.83,189.264,107.628,352.064,-947.54,-11021.9,-1525.84,2.24791,-58.369,80.9557,-5777.55,565.099,3467.07,-69.3041,49.7502,91.5294,2050.98,-12397.3,-1839.72,-4.71718,-163.573,61.1786,7738.52,230.637,1791.68,46.7391,-34.5503,10.9122
4.116,26303.9,-6618.92,10678.3,-8.43545,253.611,330.995,5225.47,2640.91,8611.54,10.9441,-23.709,21.7667,-4966.85,25183.7,-2092.96,187.614,106.782,350.113,-951.124,-11020.8,-1492.45,2.15428,-58.594,81.841,-5350.64,702.31,3555.91,-62.2034,55.7356,88.8906,2062.12,-12450.2,-1909.08,-0.609914,-165.126,59.7852,7728.6,200.042,1802.2,46.9228,-35.4028,11.0303
4.117,26639.3,-6735.87,10424.8,-6.99918,252.617,331.478,5142.8,2655.85,8667.08,12.3592,-24.6595,22.1343,-5263.57,25267.4,-2158.06,186.329,106.025,347.854,-845.607,-11067.2,-1474.71,2.22312,-58.7824,82.633,-4930.21,903.911,3650.4,-56.5885,60.3198,86.0433,2113.85,-12433.2,-2056.39,4.70413,-165.562,58.8706,7726.19,161.109,1770.89,47.2108,-36.2629,11.155
4.118,26974.7,-6852.83,10171.4,-5.56291,251.624,331.96,5060.13,2670.79,8722.62,13.7743,-25.6101,22.502,-5560.29,25351.1,-2223.16,185.045,105.267,345.594,-740.09,-11113.7,-1456.98,2.29197,-58.9708,83.425,-4509.76,1105.51,3744.88,-50.9736,64.904,83.1961,2165.58,-12416.1,-2203.69,10.0182,-165.998,57.956,7723.79,122.176,1739.58,47.4988,-37.1229,11.2796
4.119,27310.2,-6969.79,9917.93,-4.12664,250.631,332.443,4977.46,2685.73,8778.15,15.1894,-26.5607,22.8696,-5857.02,25434.9,-2288.27,183.761,104.509,343.335,-634.573,-11160.1,-1439.24,2.36081,-59.1592,84.217,-4089.32,1307.11,3839.37,-45.3587,69.4883,80.3488,2217.31,-12399.0,-2350.99,15.3322,-166.434,57.0414,7721.38,83.2429,1708.26,47.7867,-37.983,11.4043
4.12,27645.6,-7086.74,9664.48,-2.69038,249.637,332.925,4894.79,2700.66,8833.69,16.6045,-27.5112,23.2373,-6153.74,25518.6,-2353.37,182.476,103.752,341.075,-529.055,-11206.6,-1421.5,2.42966,-59.3475,85.009,-3668.88,1508.71,3933.85,-39.7439,74.0725,77.5015,2269.04,-12381.9,-2498.3,20.6462,-166.869,56.1268,7718.97,44.3099,1676.95,48.0747,-38.8431,11.5289
4.121,27955.1,-7145.89,9465.83,-0.789312,248.427,332.553,4869.77,2453.84,8892.09,17.3236,-28.5296,23.0748,-6444.64,25603.6,-2477.36,181.837,103.475,338.275,-449.904,-11237.0,-1404.13,2.41216,-59.0379,85.6444,-3245.38,1847.06,4059.2,-37.1935,75.5888,75.1435,2330.07,-12316.3,-2768.92,25.7543,-164.065,55.9362,7701.92,-17.4765,1662.53,48.297,-39.6048,11.5296
4.122,28264.7,-7205.05,9267.18,1.11175,247.217,332.181,4844.74,2207.02,8950.48,18.0428,-29.548,22.9122,-6735.54,25688.6,-2601.36,181.197,103.198,335.475,-370.753,-11267.4,-1386.76,2.39467,-58.7283,86.2798,-2821.87,2185.42,4184.55,-34.6432,77.1052,72.7856,2391.1,-12250.6,-3039.54,30.8624,-161.26,55.7456,7684.87,-79.2628,1648.11,48.5193,-40.3664,11.5303
4.123,28574.2,-7264.2,9068.53,3.01282,246.007,331.809,4819.72,1960.2,9008.87,18.7619,-30.5664,22.7497,-7026.45,25773.6,-2725.35,180.557,102.921,332.675,-291.601,-11297.8,-1369.38,2.37717,-58.4188,86.9153,-2398.36,2523.77,4309.9,-32.0929,78.6215,70.4277,2452.12,-12185.0,-3310.16,35.9705,-158.455,55.555,7667.82,-141.049,1633.69,48.7416,-41.1281,11.5309
4.124,28883.7,-7323.35,8869.87,4.91388,244.797,331.437,4794.7,1713.37,9067.27,19.4811,-31.5847,22.5872,-7317.35,25858.6,-2849.34,179.917,102.644,329.875,-212.45,-11328.2,-1352.01,2.35967,-58.1092,87.5507,-1974.85,2862.12,4435.24,-29.5426,80.1379,68.0697,2513.15,-12119.3,-3580.78,41.0786,-155.65,55.3644,7650.77,-202.836,1619.27,48.9639,-41.8898,11.5316
4.125,29158.9,-7268.32,8645.0,6.43699,243.462,330.578,4784.28,1551.16,9103.47,20.0692,-32.6614,22.1342,-7615.41,25961.6,-2954.3,179.413,102.57,327.02,-162.18,-11345.3,-1321.53,2.48377,-57.6147,88.22,-1558.81,3198.65,4571.77,-28.4059,80.3034,65.795,2602.84,-12018.6,-3800.56,44.4922,-151.306,55.6388,7674.35,-246.342,1583.72,49.155,-42.3134,11.5024
4.126,29406.7,-7121.93,8399.16,7.65772,242.029,329.33,4785.56,1456.64,9121.93,20.5525,-33.7848,21.4488,-7919.2,26079.0,-3044.02,179.019,102.657,324.119,-135.014,-11351.6,-1280.56,2.72113,-56.9723,88.9165,-1148.74,3533.72,4717.24,-28.4002,79.3883,63.5868,2715.44,-11889.7,-3979.68,46.5503,-145.732,56.2852,7730.44,-275.224,1531.26,49.3212,-42.4666,11.4492
4.127,29654.4,-6975.55,8153.32,8.87845,240.596,328.083,4786.83,1362.11,9140.38,21.0358,-34.9082,20.7634,-8222.99,26196.5,-3133.74,178.624,102.745,321.218,-107.849,-11357.9,-1239.58,2.95849,-56.3299,89.6129,-738.68,3868.79,4862.7,-28.3946,78.4732,61.3786,2828.04,-11760.8,-4158.8,48.6084,-140.157,56.9317,7786.52,-304.106,1478.81,49.4873,-42.6199,11.3961
4.128,29902.2,-6829.17,7907.47,10.0992,239.163,326.835,4788.1,1267.59,9158.84,21.5191,-36.0316,20.0781,-8526.78,26313.9,-3223.46,178.23,102.832,318.318,-80.6835,-11364.2,-1198.61,3.19586,-55.6875,90.3093,-328.616,4203.86,5008.17,-28.3889,77.5581,59.1705,2940.65,-11631.9,-4337.92,50.6665,-134.583,57.5781,7842.6,-332.988,1426.36,49.6534,-42.7731,11.3429
4.129,30141.1,-6665.21,7653.52,11.1912,237.74,325.546,4791.16,1184.25,9177.8,22.0709,-37.1958,19.3872,-8832.29,26439.5,-3309.05,177.864,102.935,315.42,-55.123,-11371.9,-1150.48,3.44661,-55.0477,91.0223,75.9568,4545.54,5130.37,-28.5201,76.6662,56.8483,3054.52,-11491.0,-4501.81,52.3038,-128.905,58.2577,7894.64,-366.128,1372.58,49.8164,-42.9287,11.3075
4.13,30310.1,-6360.65,7334.64,11.2531,236.405,323.932,4808.42,1190.38,9200.75,23.1712,-38.6873,18.6529,-9151.58,26630.1,-3361.54,177.725,103.163,312.54,-42.4023,-11389.8,-1045.03,3.8045,-54.4292,91.8676,436.602,4940.13,5066.42,-29.7472,75.9597,53.6146,3178.48,-11254.1,-4543.92,50.5742,-122.407,59.2027,7914.31,-433.328,1308.19,49.9549,-43.1038,11.4133
4.131,30479.0,-6056.09,7015.77,11.3151,235.069,322.318,4825.69,1196.51,9223.7,24.2715,-40.1787,17.9185,-9470.87,26820.7,-3414.03,177.587,103.391,309.661,-29.6816,-11407.8,-939.588,4.16239,-53.8107,92.7129,797.248,5334.72,5002.48,-30.9742,75.2532,50.3809,3302.44,-11017.2,-4586.02,48.8447,-115.909,60.1477,7933.98,-500.528,1243.8,50.0933,-43.2788,11.5192
4.132,30647.9,-5751.54,6696.89,11.3771,233.733,320.703,4842.96,1202.64,9246.64,25.3718,-41.6701,17.1842,-9790.15,27011.3,-3466.52,177.449,103.619,306.781,-16.9609,-11425.8,-834.143,4.52028,-53.1922,93.5581,1157.89,5729.31,4938.53,-32.2012,74.5467,47.1472,3426.4,-10780.3,-4628.12,47.1151,-109.411,61.0926,7953.65,-567.728,1179.41,50.2317,-43.4539,11.625
4.133,30816.8,-5446.98,6378.02,11.4391,232.398,319.089,4860.23,1208.77,9269.59,26.4721,-43.1615,16.4498,-10109.4,27201.9,-3519.02,177.311,103.847,303.902,-4.24023,-11443.8,-728.697,4.87817,-52.5737,94.4034,1518.54,6123.9,4874.59,-33.4282,73.8402,43.9134,3550.36,-10543.4,-4670.23,45.3856,-102.912,62.0376,7973.32,-634.928,1115.02,50.3701,-43.6289,11.7309
4.134,31025.5,-5175.79,6057.18,10.6076,231.162,317.005,4884.49,1212.95,9292.68,27.515,-44.6903,15.7888,-10429.7,27411.4,-3592.05,177.437,104.063,301.075,-21.8104,-11494.4,-655.475,5.01516,-52.1843,95.2682,1736.49,6591.17,4831.87,-34.3207,73.6533,39.5348,3709.96,-10383.8,-4648.91,42.4288,-96.6389,63.0008,8023.53,-666.39,1074.84,50.4982,-43.2958,11.7034
4.135,31254.1,-4921.29,5735.36,9.32947,229.975,314.686,4912.23,1216.14,9315.83,28.5293,-46.2377,15.1645,-10750.5,27630.3,-3675.36,177.694,104.274,298.273,-54.526,-11561.3,-598.365,5.04169,-51.9095,96.1429,1883.1,7094.78,4799.78,-35.0461,73.7264,34.5838,3887.38,-10262.8,-4595.87,38.8583,-90.4778,63.9732,8089.02,-679.982,1046.77,50.6211,-42.7086,11.6092
4.136,31482.7,-4666.79,5413.54,8.05131,228.789,312.366,4939.98,1219.33,9338.98,29.5435,-47.7852,14.5401,-11071.3,27849.3,-3758.67,177.951,104.485,295.472,-87.2416,-11628.3,-541.255,5.06822,-51.6346,97.0175,2029.71,7598.39,4767.68,-35.7714,73.7994,29.6328,4064.79,-10141.8,-4542.84,35.2879,-84.3167,64.9456,8154.51,-693.574,1018.7,50.7441,-42.1214,11.515
4.137,31711.3,-4412.29,5091.72,6.77315,227.603,310.047,4967.72,1222.52,9362.13,30.5578,-49.3327,13.9158,-11392.1,28068.2,-3841.97,178.209,104.696,292.67,-119.957,-11695.2,-484.145,5.09476,-51.3598,97.8921,2176.32,8102.0,4735.58,-36.4967,73.8724,24.6818,4242.21,-10020.8,-4489.81,31.7174,-78.1556,65.918,8219.99,-707.167,990.635,50.867,-41.5342,11.4208
4.138,31948.3,-4196.09,4761.33,5.30416,226.399,307.509,4990.18,1230.44,9379.77,31.4956,-50.8703,13.3178,-11718.1,28278.8,-3922.91,178.496,104.845,289.903,-150.82,-11755.8,-444.947,5.08847,-51.0957,98.7581,2275.82,8656.53,4742.39,-37.3874,73.4441,19.3016,4417.54,-9908.26,-4405.41,28.1393,-72.3135,66.8441,8286.25,-730.208,957.576,50.9759,-40.9194,11.3433
4.139,32215.0,-4113.96,4400.94,3.16725,225.131,304.208,4994.1,1254.9,9378.12,32.1659,-52.3734,12.8121,-12062.6,28460.0,-3995.55,178.887,104.775,287.256,-175.199,-11794.3,-468.441,4.96731,-50.8691,99.5939,2210.45,9389.26,4885.38,-38.8569,71.2612,12.4191,4585.54,-9825.16,-4211.26,24.5341,-67.5879,67.6081,8355.19,-786.322,907.047,51.0357,-40.2079,11.3244
4.14,32481.8,-4031.84,4040.55,1.03035,223.863,300.907,4998.03,1279.37,9376.48,32.8362,-53.8765,12.3065,-12407.0,28641.2,-4068.19,179.277,104.705,284.609,-199.577,-11832.8,-491.936,4.84616,-50.6426,100.43,2145.07,10122.0,5028.36,-40.3264,69.0783,5.53663,4753.54,-9742.05,-4017.11,20.9289,-62.8623,68.3721,8424.13,-842.435,856.518,51.0956,-39.4964,11.3054
4.141,32748.5,-3949.71,3680.16,-1.10655,222.596,297.605,5001.95,1303.84,9374.83,33.5066,-55.3796,11.8008,-12751.5,28822.3,-4140.83,179.668,104.634,281.961,-223.956,-11871.3,-515.43,4.725,-50.416,101.266,2079.69,10854.7,5171.34,-41.7959,66.8953,-1.34583,4921.54,-9658.95,-3822.96,17.3237,-58.1368,69.1362,8493.07,-898.548,805.989,51.1554,-38.7848,11.2864
4.142,33015.2,-3867.59,3319.77,-3.24345,221.328,294.304,5005.88,1328.3,9373.18,34.1769,-56.8827,11.2952,-13095.9,29003.5,-4213.47,180.059,104.564,279.314,-248.335,-11909.8,-538.924,4.60385,-50.1894,102.101,2014.31,11587.4,5314.33,-43.2654,64.7124,-8.2283,5089.54,-9575.85,-3628.81,13.7185,-53.4112,69.9002,8562.01,-954.661,755.46,51.2152,-38.0733,11.2675
4.143,33326.6,-3854.82,2914.76,-5.2348,219.856,290.583,4972.59,1408.94,9382.57,34.9951,-58.5225,10.8886,-13504.1,29111.9,-4253.05,180.19,104.393,276.678,-233.287,-11911.1,-564.847,4.63268,-49.9505,102.981,2237.95,12471.1,5348.3,-45.1686,61.6766,-12.7231,5265.6,-9499.94,-3359.79,11.2116,-49.5718,70.6329,8622.66,-986.063,713.094,51.1133,-37.2891,11.1667
4.144,33650.7,-3861.86,2496.99,-7.18456,218.327,286.742,4928.67,1505.64,9395.11,35.8555,-60.2013,10.5103,-13930.5,29199.5,-4283.18,180.246,104.194,274.045,-206.976,-11901.7,-591.464,4.70437,-49.7082,103.873,2544.18,13397.9,5351.12,-47.1958,58.3971,-16.5358,5443.96,-9426.1,-3069.39,9.01845,-45.9855,71.3568,8680.93,-1010.41,673.06,50.9651,-36.4841,11.0426
4.145,33974.9,-3868.91,2079.23,-9.13431,216.797,282.9,4884.76,1602.33,9407.65,36.7159,-61.8801,10.1319,-14357.0,29287.0,-4313.31,180.303,103.994,271.413,-180.664,-11892.4,-618.081,4.77606,-49.4658,104.765,2850.41,14324.6,5353.94,-49.223,55.1176,-20.3484,5622.32,-9352.25,-2778.98,6.82529,-42.3992,72.0806,8739.2,-1034.75,633.026,50.817,-35.679,10.9185
4.146,34299.0,-3875.95,1661.46,-11.0841,215.268,279.059,4840.84,1699.03,9420.19,37.5763,-63.559,9.75361,-14783.4,29374.6,-4343.44,180.359,103.794,268.78,-154.352,-11883.1,-644.697,4.84776,-49.2234,105.657,3156.64,15251.4,5356.77,-51.2501,51.8381,-24.1611,5800.68,-9278.41,-2488.58,4.63214,-38.813,72.8044,8797.47,-1059.09,592.992,50.6688,-34.874,10.7944
4.147,34589.3,-3854.17,1241.15,-12.9896,213.68,275.135,4792.34,1770.58,9443.33,38.4901,-65.2877,9.41121,-15222.9,29405.3,-4358.67,180.196,103.367,266.006,-105.691,-11881.3,-678.409,4.97739,-48.8322,106.56,3656.14,16029.4,5363.0,-52.8106,48.4887,-26.1235,5925.91,-9223.59,-2186.16,2.80848,-35.7929,73.381,8881.88,-1089.73,536.931,50.4618,-33.9919,10.6731
4.148,34811.6,-3774.72,815.753,-14.8065,211.977,271.044,4734.67,1791.83,9487.67,39.5107,-67.1161,9.14065,-15688.6,29322.1,-4344.11,179.592,102.487,262.951,-12.3324,-11894.5,-726.312,5.2229,-48.1432,107.484,4542.17,16509.8,5376.07,-53.4375,44.9996,-24.3855,5944.87,-9206.82,-1859.74,1.72382,-33.9051,73.663,9018.55,-1132.97,448.814,50.137,-32.9559,10.5575
4.149,35034.0,-3695.28,390.356,-16.6234,210.274,266.953,4677.0,1813.09,9532.01,40.5313,-68.9446,8.8701,-16154.3,29239.0,-4329.55,178.989,101.607,259.896,81.0265,-11907.8,-774.214,5.46841,-47.4542,108.408,5428.2,16990.2,5389.14,-54.0645,41.5105,-22.6475,5963.83,-9190.05,-1533.32,0.639149,-32.0172,73.9451,9155.23,-1176.2,360.698,49.8122,-31.9198,10.4418
4.15,35256.3,-3615.83,-35.041,-18.4404,208.571,262.862,4619.33,1834.35,9576.35,41.5519,-70.7731,8.59954,-16620.0,29155.9,-4314.99,178.386,100.727,256.841,174.385,-11921.0,-822.117,5.71393,-46.7652,109.332,6314.23,17470.5,5402.21,-54.6915,38.0215,-20.9095,5982.79,-9173.28,-1206.89,-0.445518,-30.1294,74.2271,9291.9,-1219.44,272.581,49.4874,-30.8838,10.3261
4.151,35478.7,-3536.39,-460.438,-20.2573,206.868,258.771,4561.66,1855.6,9620.69,42.5725,-72.6015,8.32898,-17085.7,29072.8,-4300.43,177.783,99.8468,253.786,267.744,-11934.3,-870.02,5.95944,-46.0762,110.256,7200.27,17950.9,5415.28,-55.3185,34.5324,-19.1714,6001.75,-9156.51,-880.468,-1.53018,-28.2416,74.5092,9428.57,-1262.67,184.464,49.1626,-29.8477,10.2105
4.152,35595.8,-3326.51,-894.917,-22.281,204.635,254.455,4551.21,1858.75,9658.48,43.1232,-74.4276,7.95067,-17542.3,28831.6,-4207.8,176.587,97.9656,249.929,350.797,-11914.3,-939.478,6.32416,-45.15,111.313,8222.98,17903.6,5404.96,-52.7829,31.6276,-14.0523,6039.56,-9129.85,-571.125,-2.39149,-27.9164,74.7052,9521.22,-1236.37,127.796,48.5875,-28.8376,10.0603
4.153,35699.7,-3100.32,-1330.53,-24.3304,202.336,250.111,4546.67,1859.63,9695.45,43.6152,-76.2533,7.5589,-17997.8,28570.7,-4105.41,175.316,95.9593,245.972,432.561,-11890.2,-1011.63,6.70378,-44.1942,112.386,9262.77,17790.4,5391.71,-49.8521,28.7959,-8.51043,6079.74,-9101.95,-263.918,-3.22487,-27.7865,74.8904,9608.36,-1201.38,75.0591,47.9811,-27.8307,9.9057
4.154,35803.7,-2874.13,-1766.14,-26.3799,200.036,245.767,4542.12,1860.51,9732.42,44.1071,-78.079,7.16712,-18453.4,28309.7,-4003.02,174.046,93.953,242.014,514.325,-11866.1,-1083.79,7.0834,-43.2383,113.46,10302.6,17677.1,5378.46,-46.9212,25.9642,-2.9686,6119.91,-9074.06,43.2901,-4.05825,-27.6567,75.0755,9695.5,-1166.38,22.322,47.3748,-26.8239,9.75115
4.155,35907.6,-2647.94,-2201.76,-28.4293,197.737,241.423,4537.57,1861.39,9769.4,44.599,-79.9047,6.77534,-18908.9,28048.8,-3900.64,172.776,91.9467,238.057,596.089,-11842.0,-1155.94,7.46302,-42.2824,114.533,11342.4,17563.9,5365.21,-43.9904,23.1325,2.57323,6160.08,-9046.16,350.498,-4.89163,-27.5268,75.2607,9782.64,-1131.39,-30.415,46.7684,-25.817,9.59659
4.156,35947.6,-2357.75,-2616.14,-30.6173,195.047,237.174,4547.01,1891.85,9810.08,45.0476,-81.7768,6.45293,-19357.4,27759.6,-3754.0,171.287,89.5504,233.683,649.31,-11833.2,-1200.59,8.00612,-41.234,115.625,12190.6,17329.8,5259.74,-39.2045,21.9353,8.50762,6163.08,-9023.88,592.923,-5.86798,-27.9654,75.1916,9886.93,-1103.86,-61.508,46.0929,-24.6273,9.58128
4.157,35907.5,-1987.56,-3003.98,-32.9784,191.87,233.043,4573.91,1959.27,9855.41,45.4418,-83.7068,6.21725,-19797.2,27435.0,-3552.04,169.527,86.6667,228.787,666.853,-11843.5,-1210.87,8.75356,-40.0697,116.738,12799.3,16944.7,5038.97,-32.1,22.7813,14.9327,6119.61,-9008.62,754.369,-7.02303,-29.1147,74.8044,10012.7,-1085.68,-65.546,45.331,-23.2091,9.74004
4.158,35867.4,-1617.37,-3391.82,-35.3394,188.692,228.913,4600.81,2026.69,9900.73,45.836,-85.6367,5.98156,-20237.1,27110.5,-3350.09,167.767,83.7829,223.891,684.395,-11853.9,-1221.14,9.50099,-38.9054,117.852,13408.0,16559.6,4818.21,-24.9955,23.6274,21.3578,6076.14,-8993.37,915.815,-8.17808,-30.2641,74.4173,10138.4,-1067.5,-69.584,44.5691,-21.7909,9.89879
4.159,35827.3,-1247.18,-3779.66,-37.7005,185.514,224.782,4627.72,2094.12,9946.06,46.2303,-87.5667,5.74587,-20676.9,26785.9,-3148.13,166.007,80.8992,218.996,701.938,-11864.2,-1231.42,10.2484,-37.7411,118.966,14016.7,16174.5,4597.45,-17.8909,24.4734,27.7828,6032.67,-8978.11,1077.26,-9.33313,-31.4134,74.0302,10264.1,-1049.31,-73.6219,43.8071,-20.3726,10.0575
4.16,35787.3,-876.986,-4167.5,-40.0616,182.336,220.651,4654.62,2161.54,9991.38,46.6245,-89.4967,5.51018,-21116.7,26461.3,-2946.18,164.247,78.0154,214.1,719.481,-11874.6,-1241.69,10.9959,-36.5769,120.079,14625.4,15789.4,4376.68,-10.7864,25.3195,34.2079,5989.19,-8962.85,1238.71,-10.4882,-32.5627,73.643,10389.9,-1031.13,-77.6599,43.0452,-18.9544,10.2163
4.161,35665.7,-517.881,-4545.13,-42.7272,178.412,216.671,4673.24,2183.54,10024.7,46.4623,-91.4862,5.37399,-21489.6,26148.7,-2647.33,161.967,74.5646,208.639,711.788,-11901.2,-1210.1,11.8115,-35.3762,121.144,14526.6,15570.6,3975.04,-2.54457,29.7422,39.672,5962.63,-9009.17,1268.17,-12.1262,-34.4261,73.1079,10506.5,-937.161,-50.7226,41.8233,-17.672,10.4671
4.162,35544.1,-158.776,-4922.75,-45.3928,174.487,212.691,4691.85,2205.54,10057.9,46.3002,-93.4756,5.23781,-21862.5,25836.1,-2348.49,159.688,71.1137,203.178,704.096,-11927.9,-1178.51,12.627,-34.1756,122.208,14427.8,15351.8,3573.39,5.69723,34.165,45.1361,5936.06,-9055.48,1297.62,-13.7642,-36.2895,72.5727,10623.2,-843.194,-23.7853,40.6013,-16.3895,10.7179
4.163,35422.6,200.33,-5300.37,-48.0584,170.562,208.711,4710.47,2227.53,10091.2,46.138,-95.4651,5.10163,-22235.3,25523.5,-2049.64,157.409,67.6629,197.717,696.404,-11954.5,-1146.92,13.4426,-32.975,123.272,14329.0,15132.9,3171.74,13.939,38.5878,50.6002,5909.5,-9101.8,1327.08,-15.4022,-38.1529,72.0376,10739.9,-749.226,3.15198,39.3794,-15.1071,10.9686
4.164,35301.0,559.435,-5678.0,-50.724,166.637,204.731,4729.09,2249.53,10124.5,45.9758,-97.4545,4.96545,-22608.2,25210.9,-1750.8,155.13,64.212,192.256,688.711,-11981.2,-1115.33,14.2582,-31.7743,124.336,14230.2,14914.1,2770.1,22.1808,43.0105,56.0643,5882.94,-9148.11,1356.54,-17.0402,-40.0163,71.5025,10856.5,-655.258,30.0893,38.1575,-13.8246,11.2194
4.165,35148.9,861.432,-5981.81,-52.8719,162.064,200.823,4721.72,2240.62,10158.3,45.7682,-99.6307,4.72734,-22926.7,24915.8,-1389.76,152.263,60.7007,186.596,690.133,-12024.0,-1073.01,15.1658,-30.5376,125.5,13990.3,14838.3,2360.28,29.9465,47.5189,60.6933,5828.95,-9230.57,1302.17,-18.6502,-41.7181,70.6771,10956.9,-560.779,82.867,36.7387,-12.6862,11.6203
4.166,34972.4,1117.74,-6226.58,-54.6058,156.972,196.974,4693.56,2206.99,10192.5,45.5241,-101.956,4.40769,-23201.7,24634.8,-978.951,148.926,57.141,180.775,698.847,-12079.7,-1022.13,16.1471,-29.2721,126.744,13637.5,14876.9,1943.92,37.3314,52.0958,64.6541,5753.02,-9341.95,1180.75,-20.2378,-43.2905,69.6195,11044.3,-465.889,156.317,35.1624,-11.663,12.1413
4.167,34795.9,1374.06,-6471.34,-56.3396,151.879,193.125,4665.39,2173.35,10226.7,45.28,-104.282,4.08805,-23476.6,24353.8,-568.147,145.589,53.5812,174.954,707.56,-12135.4,-971.242,17.1284,-28.0065,127.988,13284.6,14915.5,1527.57,44.7162,56.6727,68.615,5677.09,-9453.33,1059.32,-21.8253,-44.863,68.5619,11131.6,-371.0,229.767,33.5861,-10.6398,12.6623
4.168,34619.4,1630.37,-6716.11,-58.0734,146.787,189.276,4637.23,2139.72,10260.9,45.0359,-106.608,3.7684,-23751.6,24072.8,-157.343,142.252,50.0215,169.134,716.274,-12191.1,-920.356,18.1097,-26.7409,129.232,12931.8,14954.2,1111.21,52.101,61.2496,72.5758,5601.16,-9564.71,937.895,-23.4129,-46.4354,67.5044,11219.0,-276.111,303.217,32.0099,-9.61662,13.1833
4.169,34441.8,1894.21,-6947.09,-59.5558,141.515,185.514,4609.01,2105.78,10294.0,44.8165,-108.947,3.44327,-24020.5,23793.1,266.338,138.799,46.3796,163.289,726.473,-12248.0,-869.212,19.07,-25.4704,130.466,12587.3,14988.5,676.81,59.2647,65.6316,76.3343,5522.97,-9684.14,810.299,-24.9465,-47.9301,66.432,11305.5,-182.909,375.824,30.4653,-8.65326,13.7147
4.17,34255.2,2218.27,-7067.75,-59.0275,134.808,182.453,4580.39,2069.37,10318.1,44.7941,-111.398,3.07429,-24241.2,23523.3,793.039,134.419,42.0802,157.255,748.559,-12314.6,-816.009,19.8631,-24.1602,131.613,12310.1,14988.7,98.0516,64.659,68.4546,78.4741,5426.62,-9867.93,633.344,-26.0482,-48.8032,65.2414,11384.9,-103.204,441.684,29.1742,-8.16863,14.3291
4.171,34068.6,2542.34,-7188.42,-58.4992,128.101,179.391,4551.77,2032.96,10342.1,44.7716,-113.848,2.70532,-24462.0,23253.6,1319.74,130.038,37.7809,151.22,770.645,-12381.1,-762.805,20.6562,-22.8499,132.76,12032.9,14988.9,-480.707,70.0534,71.2776,80.6139,5330.28,-10051.7,456.388,-27.1498,-49.6762,64.0508,11464.3,-23.498,507.544,27.8832,-7.684,14.9435
4.172,33882.0,2866.4,-7309.08,-57.9708,121.393,176.33,4523.15,1996.55,10366.2,44.7492,-116.299,2.33634,-24682.7,22983.8,1846.44,125.658,33.4815,145.185,792.731,-12447.7,-709.602,21.4493,-21.5397,133.908,11755.7,14989.1,-1059.47,75.4477,74.1007,82.7537,5233.93,-10235.5,279.433,-28.2514,-50.5493,62.8602,11543.7,56.2077,573.404,26.5921,-7.19937,15.5579
4.173,33695.4,3190.47,-7429.75,-57.4425,114.686,173.269,4494.53,1960.14,10390.2,44.7268,-118.75,1.96736,-24903.4,22714.1,2373.14,121.277,29.1822,139.151,814.817,-12514.3,-656.399,22.2423,-20.2294,135.055,11478.5,14989.3,-1638.22,80.8421,76.9237,84.8934,5137.59,-10419.3,102.478,-29.3531,-51.4223,61.6696,11623.1,135.913,639.264,25.3011,-6.71475,16.1723
4.174,33547.1,3845.93,-7632.14,-57.0233,107.594,171.664,4494.15,1922.45,10412.9,44.9399,-121.157,1.6027,-25086.9,22509.9,2978.06,116.33,24.5356,132.922,786.774,-12581.7,-605.873,23.0072,-18.8624,136.221,11215.0,15020.8,-2404.32,84.9859,78.8922,85.529,5072.69,-10584.3,-101.208,-30.0,-51.2936,60.4672,11691.6,218.6,691.518,24.0245,-6.5347,16.9221
4.175,33417.9,4667.1,-7875.39,-56.6585,100.309,170.788,4507.88,1884.11,10434.9,45.2708,-123.543,1.24018,-25251.8,22338.4,3622.08,111.098,19.7153,126.595,733.668,-12649.6,-556.686,23.7579,-17.467,137.395,10958.2,15068.0,-3264.1,88.5045,80.4334,85.4125,5023.52,-10739.9,-318.258,-30.4196,-50.6641,59.259,11754.5,302.778,736.967,22.7551,-6.50694,17.7396
4.176,33288.8,5488.26,-8118.64,-56.2938,93.0246,169.911,4521.61,1845.77,10456.9,45.6017,-125.93,0.877666,-25416.6,22167.0,4266.11,105.866,14.8951,120.268,680.561,-12717.5,-507.5,24.5086,-16.0716,138.569,10701.5,15115.2,-4123.87,92.0231,81.9747,85.296,4974.35,-10895.4,-535.308,-30.8392,-50.0346,58.0508,11817.5,386.955,782.417,21.4858,-6.47918,18.5571
4.177,33159.6,6309.43,-8361.9,-55.9291,85.7399,169.035,4535.34,1807.44,10478.9,45.9326,-128.316,0.515151,-25581.5,21995.6,4910.13,100.635,10.0749,113.941,627.454,-12785.4,-458.313,25.2594,-14.6763,139.743,10444.7,15162.5,-4983.64,95.5417,83.5159,85.1795,4925.18,-11051.0,-752.358,-31.2588,-49.4051,56.8427,11880.5,471.132,827.867,20.2164,-6.45142,19.3745
4.178,33064.9,7163.9,-8607.83,-55.8907,78.5058,168.317,4552.25,1757.21,10508.7,46.2264,-130.774,0.100102,-25709.8,21855.6,5550.15,95.2866,5.33961,107.62,583.215,-12857.9,-395.77,25.9984,-13.287,140.936,10171.7,15182.0,-5861.46,98.1434,84.7209,84.435,4885.84,-11199.2,-971.296,-31.4827,-48.5966,55.6923,11933.5,546.711,872.384,18.8301,-6.49099,20.1474
4.179,33090.5,8134.94,-8863.15,-56.994,71.4485,168.153,4580.28,1665.34,10565.5,46.3907,-133.482,-0.498815,-25710.3,21825.5,6176.13,89.5301,0.901765,101.318,570.012,-12946.0,-286.481,26.6965,-11.9192,142.196,9841.67,15104.5,-6802.42,97.5359,84.749,81.4922,4880.92,-11321.7,-1196.84,-31.0218,-47.1621,54.7443,11951.6,592.195,913.637,17.0344,-6.76619,20.764
4.18,33116.1,9105.99,-9118.47,-58.0974,64.3911,167.99,4608.31,1573.48,10622.3,46.5549,-136.191,-1.09773,-25710.8,21795.4,6802.11,83.7736,-3.53608,95.0158,556.809,-13034.1,-177.191,27.3946,-10.5514,143.455,9511.63,15027.1,-7743.39,96.9285,84.777,78.5495,4875.99,-11444.3,-1422.39,-30.5608,-45.7275,53.7962,11969.7,637.679,954.89,15.2387,-7.04139,21.3806
4.181,33141.7,10077.0,-9373.78,-59.2008,57.3338,167.826,4636.35,1481.61,10679.1,46.7191,-138.9,-1.69665,-25711.3,21765.3,7428.09,78.0171,-7.97392,88.7137,543.607,-13122.3,-67.9017,28.0928,-9.1836,144.715,9181.58,14949.7,-8684.36,96.321,84.805,75.6068,4871.06,-11566.8,-1647.94,-30.0999,-44.2929,52.8482,11987.8,683.163,996.143,13.443,-7.3166,21.9972
4.182,33167.4,11048.1,-9629.1,-60.3042,50.2765,167.663,4664.38,1389.75,10735.9,46.8834,-141.609,-2.29557,-25711.8,21735.2,8054.07,72.2606,-12.4118,82.4116,530.404,-13210.4,41.3877,28.7909,-7.8158,145.975,8851.54,14872.2,-9625.33,95.7135,84.833,72.664,4866.14,-11689.3,-1873.49,-29.6389,-42.8583,51.9002,12005.9,728.646,1037.4,11.6473,-7.5918,22.6138
4.183,33263.1,11575.4,-9948.94,-61.0209,43.7511,166.071,4700.65,1335.07,10784.5,46.9174,-144.505,-3.08236,-25545.7,21604.5,8492.26,66.922,-16.1311,76.3888,512.134,-13297.4,149.671,29.332,-6.83382,147.126,8491.37,15031.8,-10568.8,91.9176,84.218,69.6867,4879.89,-11757.7,-2056.28,-28.952,-40.7892,51.197,12043.9,757.31,1068.76,9.76703,-8.03168,23.19
4.184,33378.8,11975.9,-10287.2,-61.6271,37.3777,164.072,4739.26,1291.01,10830.7,46.9142,-147.454,-3.92283,-25332.1,21445.0,8876.79,61.7027,-19.6452,70.4458,492.415,-13384.1,257.667,29.8283,-5.96208,148.246,8122.58,15259.0,-11513.0,87.2107,83.4193,66.6995,4898.97,-11810.7,-2226.85,-28.2005,-38.5389,50.5638,12087.7,781.169,1097.31,7.86263,-8.51863,23.7548
4.185,33494.5,12376.4,-10625.5,-62.2333,31.0043,162.072,4777.88,1246.96,10877.0,46.911,-150.403,-4.7633,-25118.5,21285.5,9261.33,56.4834,-23.1592,64.5029,472.697,-13470.8,365.663,30.3245,-5.09033,149.365,7753.79,15486.3,-12457.1,82.5038,82.6206,63.7123,4918.06,-11863.7,-2397.42,-27.449,-36.2886,49.9305,12131.4,805.027,1125.85,5.95824,-9.00556,24.3195
4.186,33610.2,12776.9,-10963.8,-62.8395,24.6309,160.073,4816.49,1202.9,10923.2,46.9078,-153.352,-5.60377,-24904.9,21126.0,9645.86,51.2641,-26.6733,58.5599,452.979,-13557.5,473.659,30.8208,-4.21858,150.485,7385.01,15713.6,-13401.3,77.7969,81.8219,60.7251,4937.14,-11916.7,-2568.0,-26.6976,-34.0383,49.2973,12175.2,828.885,1154.39,4.05385,-9.4925,24.8842
4.187,33713.4,12893.2,-11301.4,-62.4685,18.4562,157.326,4845.88,1175.57,10975.3,47.0647,-156.296,-6.38692,-24666.5,20883.0,9919.05,46.4292,-29.3736,52.6512,444.205,-13663.9,539.549,31.3987,-3.40842,151.568,7018.46,15943.8,-14131.5,72.2462,80.1174,58.1315,4974.83,-11953.0,-2717.62,-25.8943,-31.7558,48.8645,12185.0,864.813,1179.75,2.18257,-10.0974,25.4276
4.188,33791.5,12441.1,-11637.8,-60.1429,12.6789,153.085,4856.8,1181.67,11038.9,47.5418,-159.229,-7.05541,-24378.6,20472.9,9969.54,42.3628,-30.4464,46.811,457.32,-13809.6,521.226,32.1399,-2.72141,152.575,6656.41,16179.9,-14433.7,65.008,76.6014,56.3251,5049.71,-11956.0,-2825.33,-24.9876,-29.4088,48.8326,12126.9,924.879,1198.74,0.377538,-10.9382,25.9282
4.189,33869.6,11989.0,-11974.1,-57.8173,6.90157,148.843,4867.73,1187.78,11102.5,48.0189,-162.163,-7.7239,-24090.7,20062.8,10020.0,38.2964,-31.5191,40.9708,470.435,-13955.3,502.902,32.8811,-2.03441,153.582,6294.35,16416.1,-14736.0,57.7698,73.0853,54.5187,5124.59,-11958.9,-2933.05,-24.0808,-27.0618,48.8006,12068.8,984.945,1217.72,-1.4275,-11.779,26.4289
4.19,33947.8,11537.0,-12310.5,-55.4918,1.12428,144.602,4878.66,1193.88,11166.1,48.4959,-165.096,-8.39239,-23802.8,19652.7,10070.5,34.23,-32.5919,35.1307,483.55,-14101.0,484.579,33.6222,-1.3474,154.589,5932.29,16652.2,-15038.3,50.5316,69.5693,52.7122,5199.47,-11961.9,-3040.77,-23.1741,-24.7148,48.7687,12010.7,1045.01,1236.71,-3.23253,-12.6198,26.9296
4.191,34025.9,11084.9,-12646.8,-53.1662,-4.65302,140.361,4889.59,1199.98,11229.7,48.973,-168.029,-9.06087,-23514.9,19242.6,10121.0,30.1637,-33.6647,29.2905,496.664,-14246.7,466.255,34.3634,-0.6604,155.596,5570.23,16888.3,-15340.5,43.2934,66.0532,50.9058,5274.35,-11964.8,-3148.48,-22.2673,-22.3678,48.7368,11952.6,1105.08,1255.7,-5.03757,-13.4606,27.4303
4.192,33948.7,10341.6,-12894.8,-46.3443,-10.0631,135.21,4865.77,1165.29,11266.1,49.419,-170.962,-9.60272,-23279.2,18826.7,9882.78,27.255,-31.6848,23.0783,467.123,-14363.4,476.884,35.0104,0.00230766,156.559,5408.15,16797.6,-14842.7,37.4855,59.786,49.1772,5337.56,-11912.9,-3204.37,-21.7682,-20.0441,49.0996,11900.1,1166.29,1200.34,-6.59907,-14.4604,27.6917
4.193,33852.0,9562.01,-13131.7,-38.9603,-15.4273,129.946,4837.6,1125.5,11299.0,49.8611,-173.895,-10.1287,-23050.1,18410.0,9608.48,24.4911,-29.3233,16.8195,432.249,-14476.4,491.132,35.6456,0.661978,157.516,5271.06,16666.0,-14244.9,31.8563,53.1749,47.4583,5399.31,-11854.2,-3253.78,-21.3201,-17.7233,49.5118,11848.3,1227.64,1135.69,-8.13013,-15.4801,27.9232
4.194,33755.3,8782.39,-13368.6,-31.5763,-20.7916,124.682,4809.44,1085.7,11332.0,50.3032,-176.828,-10.6547,-22820.9,17993.3,9334.17,21.7272,-26.9618,10.5608,397.375,-14589.5,505.38,36.2808,1.32165,158.473,5133.98,16534.5,-13647.1,26.2272,46.5638,45.7394,5461.05,-11795.4,-3303.19,-20.8719,-15.4026,49.924,11796.5,1289.0,1071.03,-9.66118,-16.4997,28.1547
4.195,33658.6,8002.76,-13605.5,-24.1923,-26.1558,119.418,4781.28,1045.91,11365.0,50.7453,-179.761,-11.1808,-22591.8,17576.6,9059.86,18.9633,-24.6003,4.30207,362.501,-14702.6,519.628,36.916,1.98132,159.43,4996.89,16402.9,-13049.3,20.5981,39.9526,44.0205,5522.8,-11736.7,-3352.6,-20.4238,-13.0818,50.3362,11744.7,1350.35,1006.38,-11.1922,-17.5194,28.3862
4.196,33492.6,7376.05,-13799.6,-15.9444,-31.3402,113.687,4755.0,1031.89,11382.1,51.0905,-182.802,-11.8005,-22370.2,17253.3,8745.04,16.709,-21.2056,-2.2211,346.682,-14821.2,527.977,37.4581,2.60083,160.367,5030.51,16095.8,-12177.6,17.1174,32.7861,41.3213,5606.2,-11693.9,-3391.47,-20.1005,-10.7544,50.8624,11697.7,1408.25,946.857,-12.5166,-18.5135,28.4844
4.197,33239.8,6940.5,-13940.2,-6.61636,-36.2998,107.371,4731.07,1050.09,11379.5,51.3146,-185.979,-12.5376,-22158.0,17046.7,8379.6,15.0916,-16.5194,-9.07481,354.681,-14946.8,528.953,37.884,3.17015,161.281,5277.51,15569.3,-10963.6,16.3221,24.9252,37.3968,5716.66,-11671.1,-3417.15,-19.9332,-8.41876,51.5311,11656.9,1461.83,893.74,-13.5826,-19.4758,28.4162
4.198,32986.9,6504.94,-14080.8,2.71163,-41.2594,101.055,4707.14,1068.29,11376.8,51.5387,-189.157,-13.2746,-21945.8,16840.2,8014.15,13.4742,-11.8332,-15.9285,362.681,-15072.4,529.928,38.3099,3.73946,162.196,5524.51,15042.8,-9749.62,15.5269,17.0643,33.4722,5827.12,-11648.2,-3442.83,-19.766,-6.08309,52.1998,11616.1,1515.4,840.623,-14.6486,-20.4382,28.348
4.199,32734.1,6069.39,-14221.3,12.0396,-46.219,94.7396,4683.21,1086.49,11374.1,51.7628,-192.334,-14.0116,-21733.6,16633.6,7648.71,11.8568,-7.14703,-22.7822,370.681,-15197.9,530.903,38.7358,4.30878,163.11,5771.51,14516.3,-8535.61,14.7317,9.20348,29.5477,5937.58,-11625.4,-3468.51,-19.5987,-3.74741,52.8686,11575.3,1568.98,787.506,-15.7146,-21.4005,28.2798
4.2,32481.3,5633.84,-14361.9,21.3676,-51.1786,88.4239,4659.29,1104.69,11371.5,51.9869,-195.511,-14.7486,-21521.4,16427.1,7283.26,10.2394,-2.46084,-29.6359,378.68,-15323.5,531.879,39.1616,4.87809,164.024,6018.51,13989.8,-7321.6,13.9365,1.34262,25.6231,6048.04,-11602.5,-3494.19,-19.4315,-1.41174,53.5373,11534.5,1622.56,734.389,-16.7805,-22.3628,28.2116
4.201,32226.4,5620.42,-14289.4,29.4646,-55.6897,81.3844,4632.2,1222.35,11382.8,52.2519,-198.89,-15.1082,-21344.7,16419.3,7008.31,8.78657,2.78162,-36.904,433.537,-15346.3,443.37,39.6842,5.26978,164.83,6370.88,13579.5,-6400.26,17.5624,-2.9359,21.258,6097.46,-11603.2,-3462.24,-18.9441,0.643498,53.9445,11499.9,1637.46,639.713,-17.0261,-23.25,28.119
4.202,31971.5,5607.0,-14216.9,37.5616,-60.2007,74.3448,4605.11,1340.01,11394.2,52.5169,-202.27,-15.4678,-21168.0,16411.4,6733.36,7.33379,8.02408,-44.1721,488.394,-15369.1,354.862,40.2069,5.66147,165.637,6723.26,13169.3,-5478.92,21.1883,-7.21442,16.893,6146.89,-11603.8,-3430.29,-18.4568,2.69874,54.3518,11465.3,1652.36,545.037,-17.2717,-24.1372,28.0263
4.203,31716.6,5593.58,-14144.4,45.6585,-64.7117,67.3053,4578.03,1457.66,11405.5,52.782,-205.649,-15.8273,-20991.2,16403.6,6458.41,5.88101,13.2665,-51.4402,543.251,-15391.8,266.353,40.7295,6.05315,166.443,7075.63,12759.0,-4557.58,24.8142,-11.4929,12.5279,6196.31,-11604.5,-3398.34,-17.9695,4.75397,54.7591,11430.7,1667.26,450.361,-17.5172,-25.0244,27.9337
4.204,31461.6,5580.16,-14072.0,53.7555,-69.2228,60.2658,4550.94,1575.32,11416.8,53.047,-209.029,-16.1869,-20814.5,16395.7,6183.46,4.42823,18.509,-58.7082,598.108,-15414.6,177.844,41.2521,6.44484,167.25,7428.01,12348.8,-3636.24,28.4401,-15.7715,8.16278,6245.74,-11605.1,-3366.4,-17.4822,6.80921,55.1663,11396.1,1682.16,355.685,-17.7628,-25.9117,27.8411
4.205,31283.6,5699.77,-13939.1,59.9265,-73.3205,53.2053,4528.84,1706.12,11431.4,53.5895,-212.445,-16.3177,-20665.4,16430.9,5970.58,3.04039,23.5584,-65.8663,605.837,-15455.7,94.0492,41.7506,6.57916,167.978,7696.69,12058.3,-3064.24,33.2319,-16.9672,5.0423,6297.43,-11602.3,-3320.11,-16.8423,8.57493,55.4735,11389.5,1700.51,229.885,-17.6234,-26.8468,27.8467
4.206,31167.1,5925.79,-13757.9,64.5567,-77.0876,46.1282,4510.74,1847.43,11448.5,54.3539,-215.892,-16.2655,-20538.2,16500.6,5807.36,1.70449,28.4532,-72.9365,575.862,-15511.5,14.0245,42.2297,6.50757,168.644,7898.43,11863.7,-2771.71,38.9564,-15.6968,2.91749,6350.93,-11596.8,-3262.35,-16.0804,10.109,55.7007,11405.3,1721.63,79.1868,-17.176,-27.8204,27.9309
4.207,31050.7,6151.81,-13576.7,69.1869,-80.8547,39.0511,4492.63,1988.75,11465.6,55.1183,-219.338,-16.2133,-20411.1,16570.2,5644.13,0.368599,33.3481,-80.0066,545.886,-15567.3,-66.0001,42.7089,6.43599,169.31,8100.16,11669.0,-2479.17,44.681,-14.4263,0.792677,6404.44,-11591.2,-3204.59,-15.3185,11.6432,55.9279,11421.1,1742.75,-71.5114,-16.7286,-28.794,28.0151
4.208,30934.2,6377.83,-13395.6,73.8171,-84.6218,31.974,4474.52,2130.06,11482.7,55.8827,-222.784,-16.1611,-20284.0,16639.8,5480.91,-0.967296,38.243,-87.0767,515.911,-15623.1,-146.025,43.1881,6.36441,169.976,8301.9,11474.4,-2186.64,50.4055,-13.1559,-1.33213,6457.94,-11585.6,-3146.83,-14.5566,13.1773,56.1551,11436.9,1763.86,-222.21,-16.2812,-29.7675,28.0992
4.209,30820.6,6604.26,-13197.4,78.0015,-88.341,24.9892,4457.1,2259.02,11500.9,56.6948,-226.226,-16.0714,-20160.4,16706.4,5323.87,-2.24252,43.1021,-94.0777,493.245,-15676.2,-233.95,43.6744,6.28839,170.65,8474.76,11290.7,-1918.67,56.0348,-11.5156,-3.13732,6508.03,-11581.5,-3086.12,-13.7538,14.6334,56.3464,11451.3,1779.83,-381.857,-15.7584,-30.7012,28.1962
4.21,30729.8,6834.0,-12863.3,78.6195,-91.677,18.7432,4445.18,2289.15,11528.3,57.8879,-229.631,-15.6821,-20065.0,16748.6,5216.24,-3.03236,47.6751,-100.525,529.045,-15708.0,-385.078,44.2179,6.17688,171.389,8416.63,11194.9,-1847.2,60.9028,-6.91625,-2.3855,6530.83,-11589.3,-3001.79,-12.6247,15.4657,56.2497,11454.8,1754.62,-613.101,-14.6322,-31.3159,28.3952
4.211,30639.0,7063.74,-12529.1,79.2375,-95.013,12.4972,4433.25,2319.29,11555.7,59.081,-233.037,-15.2927,-19969.6,16790.7,5108.61,-3.8222,52.248,-106.973,564.845,-15739.7,-536.207,44.7615,6.06537,172.128,8358.49,11099.1,-1775.73,65.7707,-2.31691,-1.63368,6553.63,-11597.0,-2917.47,-11.4956,16.298,56.1529,11458.3,1729.4,-844.344,-13.5061,-31.9306,28.5943
4.212,30548.3,7293.49,-12195.0,79.8556,-98.3491,6.25124,4421.33,2349.42,11583.1,60.2741,-236.443,-14.9034,-19874.3,16832.9,5000.99,-4.61203,56.821,-113.421,600.645,-15771.5,-687.336,45.305,5.95386,172.867,8300.36,11003.3,-1704.26,70.6387,2.28242,-0.881859,6576.43,-11604.7,-2833.15,-10.3665,17.1303,56.0562,11461.8,1704.18,-1075.59,-12.3799,-32.5453,28.7934
4.213,30457.5,7523.23,-11860.9,80.4736,-101.685,0.00523632,4409.4,2379.56,11610.5,61.4672,-239.849,-14.514,-19778.9,16875.1,4893.36,-5.40187,61.3939,-119.868,636.445,-15803.2,-838.464,45.8485,5.84236,173.606,8242.23,10907.5,-1632.79,75.5066,6.88176,-0.13004,6599.23,-11612.4,-2748.82,-9.23741,17.9626,55.9595,11465.4,1678.96,-1306.83,-11.2537,-33.16,28.9924
4.214,30374.2,7656.23,-11495.8,79.675,-104.93,-5.29209,4369.66,2391.57,11622.7,62.4397,-243.655,-14.089,-19640.2,16903.2,4774.62,-5.86792,65.8264,-125.753,678.206,-15807.0,-974.058,46.2749,5.61979,174.43,8126.55,10875.1,-1666.75,78.0573,12.0799,1.47414,6600.18,-11621.6,-2687.03,-7.99835,18.5428,55.7309,11497.0,1625.66,-1543.52,-9.87396,-32.9175,29.0221
4.215,30294.5,7740.85,-11115.2,78.1682,-108.129,-10.1151,4316.0,2394.51,11627.4,63.3019,-247.661,-13.6462,-19479.8,16924.3,4650.34,-6.17206,70.1887,-131.357,722.949,-15796.6,-1101.88,46.6426,5.34169,175.296,7982.09,10874.3,-1753.42,79.4495,17.5775,3.5045,6590.21,-11631.5,-2636.49,-6.70432,18.997,55.4362,11542.8,1558.32,-1782.94,-8.36743,-32.2465,28.9672
4.216,30214.9,7825.47,-10734.6,76.6613,-111.328,-14.9381,4262.35,2397.45,11632.0,64.164,-251.667,-13.2033,-19319.4,16945.4,4526.05,-6.47621,74.551,-136.961,767.692,-15786.3,-1229.71,47.0103,5.0636,176.162,7837.64,10873.5,-1840.1,80.8416,23.075,5.53486,6580.23,-11641.4,-2585.96,-5.4103,19.4512,55.1415,11588.5,1490.97,-2022.36,-6.86089,-31.5755,28.9122
4.217,30135.3,7910.09,-10354.0,75.1545,-114.527,-19.7611,4208.69,2400.4,11636.7,65.0262,-255.673,-12.7605,-19159.1,16966.4,4401.76,-6.78036,78.9133,-142.565,812.434,-15776.0,-1357.54,47.3781,4.7855,177.029,7693.18,10872.8,-1926.77,82.2337,28.5726,7.56522,6570.26,-11651.4,-2535.43,-4.11627,19.9054,54.8469,11634.3,1423.63,-2261.78,-5.35436,-30.9045,28.8572
4.218,30063.8,7920.85,-10016.1,74.198,-117.775,-24.4111,4164.42,2431.35,11638.0,65.9224,-259.618,-12.3103,-18947.4,16989.9,4270.03,-6.79138,83.1874,-148.044,841.9,-15764.8,-1479.73,47.7971,4.43846,177.928,7543.18,10892.1,-2030.49,83.016,34.0399,9.6924,6546.92,-11663.3,-2486.13,-2.90979,20.259,54.4569,11697.1,1336.76,-2487.01,-3.75344,-29.9217,28.7322
4.219,30020.7,7673.07,-9827.13,75.1681,-121.193,-28.456,4152.96,2560.33,11627.5,66.9379,-263.347,-11.834,-18555.9,17021.5,4112.28,-5.77648,87.1529,-153.084,817.899,-15750.5,-1582.2,48.3958,3.85008,178.942,7373.76,10982.0,-2193.84,81.6637,39.4012,12.1585,6476.82,-11682.3,-2441.18,-2.00974,20.2604,53.7336,11819.7,1181.58,-2662.57,-1.82215,-27.8476,28.3622
4.22,29977.7,7425.29,-9638.2,76.1382,-124.611,-32.5009,4141.5,2689.31,11617.0,67.9534,-267.077,-11.3577,-18164.5,17053.2,3954.53,-4.76157,91.1184,-158.124,793.898,-15736.2,-1684.68,48.9944,3.2617,179.955,7204.35,11071.9,-2357.19,80.3115,44.7625,14.6245,6406.72,-11701.3,-2396.22,-1.10968,20.2618,53.0103,11942.3,1026.4,-2838.13,0.10914,-25.7736,27.9922
4.221,29934.7,7177.51,-9449.28,77.1083,-128.03,-36.5458,4130.04,2818.29,11606.5,68.9689,-270.806,-10.8814,-17773.1,17084.8,3796.77,-3.74666,95.084,-163.164,769.897,-15721.9,-1787.16,49.5931,2.67332,180.969,7034.94,11161.8,-2520.55,78.9593,50.1238,17.0906,6336.61,-11720.2,-2351.27,-0.209629,20.2633,52.287,12064.9,871.216,-3013.68,2.04043,-23.6995,27.6222
4.222,29891.7,6929.73,-9260.35,78.0784,-131.448,-40.5906,4118.59,2947.27,11595.9,69.9844,-274.535,-10.4051,-17381.6,17116.5,3639.02,-2.73175,99.0495,-168.203,745.895,-15707.6,-1889.63,50.1917,2.08494,181.983,6865.52,11251.7,-2683.9,77.607,55.4851,19.5566,6266.51,-11739.2,-2306.31,0.690424,20.2647,51.5637,12187.5,716.034,-3189.24,3.97172,-21.6254,27.2521
4.223,29759.0,6072.02,-9414.16,83.9943,-137.872,-46.9819,4125.76,3024.81,11634.2,71.4644,-278.568,-9.18958,-16560.3,17095.7,3098.08,1.69416,103.427,-171.668,766.199,-15729.5,-1960.62,50.6818,1.48999,183.188,6694.91,11265.0,-2797.48,73.6094,60.9947,21.592,6241.04,-11739.4,-2245.89,1.56862,20.2037,50.8928,12362.0,519.878,-3132.61,5.50498,-18.5738,26.6283
4.224,29600.8,5040.05,-9665.88,91.3233,-145.155,-54.0435,4138.26,3087.65,11686.3,73.0771,-282.687,-7.7628,-15616.2,17060.0,2447.66,7.09464,107.923,-174.682,799.161,-15761.8,-2022.61,51.141,0.893173,184.447,6523.94,11256.4,-2896.85,68.856,66.5468,23.5043,6228.33,-11734.2,-2181.05,2.44057,20.1249,50.2368,12551.3,312.014,-3009.63,6.92452,-15.243,25.932
4.225,29442.6,4008.07,-9917.61,98.6523,-152.438,-61.1051,4150.77,3150.49,11738.4,74.6899,-286.806,-6.33603,-14672.0,17024.3,1797.24,12.4951,112.419,-177.697,832.123,-15794.1,-2084.59,51.6001,0.296353,185.707,6352.98,11247.9,-2996.21,64.1025,72.0989,25.4166,6215.61,-11729.0,-2116.22,3.31251,20.0461,49.5809,12740.6,104.151,-2886.65,8.34406,-11.9122,25.2357
4.226,29284.3,2976.1,-10169.3,105.981,-159.722,-68.1667,4163.27,3213.33,11790.5,76.3026,-290.926,-4.90926,-13727.9,16988.6,1146.82,17.8956,116.915,-180.711,865.086,-15826.4,-2146.58,52.0592,-0.300467,186.967,6182.01,11239.3,-3095.58,59.3491,77.651,27.3289,6202.9,-11723.8,-2051.38,4.18446,19.9673,48.9249,12929.9,-103.712,-2763.67,9.76359,-8.58138,24.5394
4.227,28139.7,1854.04,-9267.98,108.826,-177.85,-80.1177,4173.36,3236.35,11848.1,77.9518,-294.955,-3.55091,-12342.0,16762.2,-137.93,25.5372,118.498,-183.185,908.284,-15855.8,-2166.27,52.6074,-0.863305,188.224,6005.6,11215.4,-3119.65,52.86,83.0638,28.81,6200.94,-11718.4,-1970.48,5.05291,19.5722,48.1583,13174.2,-331.063,-2561.62,10.0752,-4.55435,23.745
4.228,25022.4,551.817,-6060.47,102.704,-217.667,-101.848,4178.63,3179.75,11916.7,79.674,-298.804,-2.32942,-10072.4,16154.2,-2691.34,37.6611,114.256,-184.579,971.955,-15879.6,-2101.36,53.3334,-1.35818,189.479,5818.28,11161.1,-2993.15,42.8997,88.198,29.4286,6220.48,-11712.7,-1857.44,5.91435,18.5445,47.1705,13528.4,-597.387,-2201.41,8.17082,0.865097,22.7542
4.229,21905.0,-750.41,-2852.95,96.5808,-257.485,-123.578,4183.89,3123.15,11985.2,81.3962,-302.654,-1.10793,-7802.9,15546.3,-5244.76,49.785,110.013,-185.972,1035.63,-15903.4,-2036.44,54.0595,-1.85306,190.734,5630.96,11106.7,-2866.65,32.9394,93.3322,30.0473,6240.02,-11706.9,-1744.4,6.77579,17.5169,46.1826,13882.7,-863.711,-1841.2,6.26647,6.28455,21.7634
4.23,18787.6,-2052.64,354.563,90.458,-297.303,-145.308,4189.16,3066.55,12053.7,83.1184,-306.504,0.113556,-5533.36,14938.3,-7798.17,61.9089,105.771,-187.366,1099.3,-15927.2,-1971.53,54.7855,-2.34793,191.989,5443.64,11052.3,-2740.14,22.9791,98.4665,30.666,6259.56,-11701.2,-1631.37,7.63724,16.4892,45.1948,14236.9,-1130.04,-1480.99,4.36211,11.704,20.7726
4.231,15670.3,-3354.86,3562.08,84.3352,-337.12,-167.037,4194.43,3009.95,12122.3,84.8405,-310.353,1.33505,-3263.82,14330.4,-10351.6,74.0328,101.529,-188.76,1162.97,-15951.0,-1906.61,55.5116,-2.84281,193.243,5256.32,10997.9,-2613.64,13.0188,103.601,31.2847,6279.11,-11695.4,-1518.33,8.49868,15.4616,44.2069,14591.2,-1396.36,-1120.78,2.45776,17.1234,19.7818
4.232,7493.39,-5538.33,9508.26,83.7265,-387.505,-219.467,4230.65,3005.13,12358.8,87.0308,-313.842,2.39005,242.542,12940.7,-11772.3,76.4181,84.7701,-200.555,1308.62,-16080.3,-1682.68,56.4694,-3.53162,194.624,5009.83,10898.9,-2752.77,2.38934,110.108,29.9401,6327.83,-11674.9,-1506.07,9.30802,12.7772,43.257,15206.9,-1584.65,-1054.03,-4.14223,23.2796,19.1206
4.233,-1315.92,-7831.95,15796.8,83.8072,-439.211,-275.733,4270.74,3006.79,12616.3,89.2797,-317.287,3.42424,3903.51,11453.4,-13051.4,77.5861,66.4468,-213.649,1464.53,-16222.9,-1438.88,57.4562,-4.24467,196.02,4755.95,10794.3,-2925.1,-8.32381,116.786,28.3502,6380.2,-11652.7,-1506.41,10.1109,9.88567,42.3118,15855.3,-1763.2,-1023.97,-11.3292,29.5278,18.5005
4.234,-10125.2,-10125.6,22085.3,83.8878,-490.916,-332.0,4310.82,3008.46,12873.8,91.5285,-320.731,4.45843,7564.48,9966.0,-14330.5,78.754,48.1236,-226.744,1620.43,-16365.4,-1195.08,58.443,-4.95773,197.416,4502.06,10689.7,-3097.43,-19.037,123.464,26.7602,6432.57,-11630.4,-1506.75,10.9137,6.99416,41.3666,16503.8,-1941.74,-993.913,-18.5161,35.776,17.8804
4.235,-18934.5,-12419.2,28373.8,83.9684,-542.622,-388.267,4350.91,3010.12,13131.4,93.7773,-324.175,5.49262,11225.5,8478.63,-15609.6,79.922,29.8004,-239.839,1776.33,-16507.9,-951.275,59.4298,-5.67078,198.813,4248.18,10585.2,-3269.77,-29.7501,130.143,25.1702,6484.94,-11608.1,-1507.09,11.7165,4.10265,40.4214,17152.2,-2120.28,-963.852,-25.7031,42.0242,17.2603
4.236,-26417.5,-14638.8,30451.8,101.331,-563.526,-439.232,4360.85,2938.64,13353.3,95.5363,-328.003,6.47264,16004.0,8040.24,-16926.6,73.7626,19.2669,-245.591,1981.02,-16687.5,-675.284,60.8193,-6.0837,200.236,3804.31,10320.9,-3583.3,-35.8997,137.258,20.7636,6553.91,-11590.9,-1548.51,11.9995,0.619083,39.3813,17619.5,-2031.43,-837.492,-32.3833,46.1902,17.5133
4.237,-32242.5,-16766.0,27266.7,140.298,-545.928,-483.57,4333.1,2775.74,13530.7,96.6829,-332.311,7.38496,22179.5,8913.09,-18291.0,58.4442,18.4707,-242.163,2246.7,-16913.6,-359.056,62.7123,-6.12146,201.694,3122.97,9856.97,-4073.32,-36.3448,144.92,12.836,6643.62,-11580.3,-1641.28,11.6328,-3.60455,38.2228,17860.5,-1608.35,-590.758,-38.4301,47.7536,18.8577
4.238,-38067.5,-18893.1,24081.7,179.264,-528.331,-527.909,4305.34,2612.85,13708.1,97.8296,-336.618,8.29728,28355.1,9785.94,-19655.4,43.1259,17.6744,-238.736,2512.37,-17139.6,-42.8284,64.6053,-6.15922,203.151,2441.64,9393.07,-4563.35,-36.7898,152.582,4.90837,6733.33,-11569.6,-1734.04,11.2661,-7.82818,37.0643,18101.5,-1185.27,-344.024,-44.477,49.3169,20.2022
4.239,-43892.5,-21020.3,20896.6,218.23,-510.733,-572.247,4277.59,2449.95,13885.6,98.9762,-340.925,9.20959,34530.6,10658.8,-21019.8,27.8075,16.8782,-235.309,2778.04,-17365.6,273.399,66.4983,-6.19698,204.609,1760.3,8929.16,-5053.37,-37.2349,160.244,-3.01923,6823.05,-11558.9,-1826.81,10.8994,-12.0518,35.9058,18342.4,-762.184,-97.2903,-50.5238,50.8802,21.5466
4.24,-49717.5,-23147.4,17711.5,257.196,-493.135,-616.585,4249.84,2287.05,14063.0,100.123,-345.233,10.1219,40706.2,11531.6,-22384.3,12.4891,16.082,-231.882,3043.72,-17591.6,589.627,68.3913,-6.23474,206.067,1078.96,8465.26,-5543.4,-37.68,167.906,-10.9468,6912.76,-11548.2,-1919.57,10.5327,-16.2754,34.7472,18583.4,-339.102,149.444,-56.5706,52.4435,22.891
4.241,-43488.2,-18871.3,14062.4,265.745,-446.572,-567.224,4169.93,2166.59,14152.3,98.7833,-351.202,10.2735,43844.1,14613.3,-16921.3,-1.42646,35.8107,-220.202,3368.26,-17923.0,623.114,70.5148,-7.55173,207.009,150.225,8906.48,-6051.64,-31.3272,176.272,-23.3366,7119.53,-11598.4,-2046.51,8.92248,-19.3093,33.8833,18376.5,168.972,1278.35,-55.7289,49.2906,24.8981
4.242,-37258.8,-14595.2,10413.4,274.295,-400.009,-517.862,4090.02,2046.12,14241.7,97.4437,-357.172,10.4251,46982.1,17695.0,-11458.3,-15.342,55.5394,-208.523,3692.8,-18254.4,656.601,72.6382,-8.86872,207.952,-778.515,9347.71,-6559.89,-24.9745,184.638,-35.7264,7326.31,-11648.6,-2173.46,7.31222,-22.3432,33.0194,18169.6,677.046,2407.25,-54.8872,46.1376,26.9052
4.243,-31029.4,-10319.1,6764.32,282.845,-353.446,-468.5,4010.11,1925.65,14331.0,96.1042,-363.141,10.5767,50120.1,20776.7,-5995.28,-29.2575,75.2681,-196.844,4017.33,-18585.9,690.089,74.7617,-10.1857,208.895,-1707.25,9788.93,-7068.13,-18.6217,193.004,-48.1161,7533.08,-11698.7,-2300.4,5.70196,-25.3771,32.1555,17962.7,1185.12,3536.15,-54.0455,42.9846,28.9122
4.244,-24800.1,-6042.96,3115.26,291.394,-306.882,-419.139,3930.19,1805.18,14420.4,94.7646,-369.111,10.7283,53258.0,23858.4,-532.291,-43.173,94.9968,-185.164,4341.88,-18917.3,723.576,76.8851,-11.5027,209.837,-2635.99,10230.2,-7576.38,-12.269,201.37,-60.5059,7739.85,-11748.9,-2427.35,4.0917,-28.411,31.2915,17755.9,1693.19,4665.05,-53.2038,39.8317,30.9193
4.245,-15149.7,-1304.02,4478.2,288.61,-266.909,-359.715,3817.1,1847.7,14427.3,94.4606,-375.244,11.0725,50843.1,25690.9,2689.91,-60.2808,120.747,-178.195,4493.07,-19230.7,579.989,78.7034,-13.0893,210.733,-3333.89,11356.6,-7563.02,-8.30792,209.01,-68.7275,8014.14,-11857.9,-2492.54,2.28475,-30.4146,30.4426,17637.6,1948.93,5278.62,-54.0498,36.9685,32.5752
4.246,-2762.6,3805.18,9850.74,276.759,-232.208,-292.242,3677.45,2020.6,14368.2,94.9849,-381.509,11.571,43985.9,26524.1,4119.48,-79.9425,151.314,-174.995,4505.6,-19529.6,294.742,80.2775,-14.8916,211.59,-3847.12,13031.3,-7132.39,-6.26019,216.069,-73.6147,8342.42,-12013.8,-2508.34,0.320447,-31.5942,29.6056,17590.4,2002.79,5479.94,-56.246,34.337,33.9503
4.247,9624.53,8914.38,15223.3,264.908,-197.507,-224.768,3537.8,2193.5,14309.1,95.5092,-387.773,12.0694,37128.6,27357.2,5549.06,-99.6041,181.881,-171.794,4518.12,-19828.5,9.49457,81.8515,-16.6939,212.448,-4360.34,14706.0,-6701.76,-4.21246,223.127,-78.5018,8670.71,-12169.7,-2524.14,-1.64386,-32.7737,28.7686,17543.1,2056.66,5681.25,-58.4421,31.7055,35.3254
4.248,22011.7,14023.6,20595.8,253.057,-162.805,-157.295,3398.15,2366.4,14250.0,96.0335,-394.038,12.5679,30271.4,28190.4,6978.63,-119.266,212.448,-168.594,4530.65,-20127.5,-275.752,83.4256,-18.4962,213.306,-4873.57,16380.7,-6271.13,-2.16474,230.186,-83.3889,8998.99,-12325.7,-2539.93,-3.60816,-33.9532,27.9317,17495.8,2110.52,5882.56,-60.6382,29.0741,36.7005
4.249,33890.0,18577.6,25600.4,240.571,-131.355,-96.9957,3263.48,2543.55,14197.4,96.8137,-400.332,13.2158,23256.9,28719.6,8124.02,-135.166,242.035,-165.836,4526.39,-20405.4,-556.818,84.8485,-20.3578,214.224,-5324.75,18036.8,-5762.19,-1.35195,236.553,-87.3982,9330.83,-12493.5,-2540.68,-5.39826,-35.0199,27.0755,17439.4,2169.34,6029.97,-62.9828,26.5427,38.0764
4.25,41698.4,18689.8,27661.7,223.005,-125.912,-94.0905,3168.68,2754.69,14196.5,99.6412,-406.855,15.0596,14984.6,26817.6,6995.96,-120.98,263.78,-166.62,4387.82,-20515.0,-804.431,85.0612,-22.6942,215.631,-5279.53,19543.7,-4626.81,-10.4187,237.389,-84.385,9691.02,-12756.0,-2421.01,-5.79473,-35.1845,26.0661,17310.8,2267.72,5746.21,-66.5146,24.8114,39.4593
4.251,49506.8,18802.1,29723.0,205.439,-120.469,-91.1854,3073.88,2965.83,14195.7,102.469,-413.379,16.9033,6712.36,24915.7,5867.9,-106.793,285.525,-167.404,4249.25,-20624.6,-1052.04,85.2739,-25.0305,217.038,-5234.31,21050.7,-3491.43,-19.4854,238.226,-81.3718,10051.2,-13018.6,-2301.34,-6.19119,-35.3491,25.0567,17182.2,2366.1,5462.46,-70.0465,23.0801,40.8422
4.252,57315.3,18914.3,31784.3,187.873,-115.026,-88.2802,2979.08,3176.97,14194.8,105.296,-419.902,18.7471,-1559.9,23013.7,4739.84,-92.6067,307.27,-168.188,4110.68,-20734.2,-1299.66,85.4867,-27.3669,218.445,-5189.09,22557.6,-2356.05,-28.5521,239.062,-78.3585,10411.4,-13281.1,-2181.67,-6.58766,-35.5136,24.0474,17053.5,2464.48,5178.7,-73.5784,21.3488,42.2251
4.253,65123.7,19026.6,33845.5,170.307,-109.584,-85.3751,2884.28,3388.11,14193.9,108.124,-426.426,20.5909,-9832.16,21111.7,3611.78,-78.4201,329.016,-168.972,3972.11,-20843.9,-1547.27,85.6994,-29.7033,219.851,-5143.87,24064.5,-1220.67,-37.6188,239.899,-75.3453,10771.6,-13543.6,-2062.0,-6.98413,-35.6782,23.038,16924.9,2562.86,4894.94,-77.1103,19.6175,43.608
4.254,65084.1,18845.9,32871.1,159.063,-119.629,-90.9543,2753.68,3624.95,14199.0,110.453,-433.295,22.9883,-13608.2,19498.0,5056.23,-64.7767,331.646,-169.222,4027.71,-20925.2,-1683.28,85.5843,-32.6206,221.252,-4726.81,24926.1,-164.107,-52.8739,239.384,-71.1918,11132.6,-13813.1,-1927.87,-5.48289,-35.1492,21.8969,16612.6,2641.16,4784.32,-78.5221,18.4676,44.7146
4.255,61120.6,18518.7,30378.9,150.98,-137.419,-100.776,2605.18,3874.64,14207.1,112.534,-440.338,25.6625,-15136.2,18028.3,7786.94,-51.4049,324.719,-169.206,4180.39,-20992.4,-1763.5,85.3052,-35.8284,222.649,-4123.82,25465.1,853.044,-71.2233,238.194,-66.4681,11494.0,-14086.0,-1786.51,-3.03281,-34.2734,20.6901,16208.6,2709.42,4760.26,-78.8738,17.6084,45.6832
4.256,57157.0,18191.6,27886.6,142.897,-155.21,-110.597,2456.68,4124.33,14215.2,114.614,-447.381,28.3368,-16664.2,16558.7,10517.6,-38.0331,317.793,-169.19,4333.06,-21059.6,-1843.71,85.0261,-39.0363,224.047,-3520.84,26004.0,1870.2,-89.5727,237.003,-61.7444,11855.3,-14358.9,-1645.15,-0.58272,-33.3976,19.4832,15804.5,2777.67,4736.2,-79.2256,16.7491,46.6517
4.257,53193.5,17864.4,25394.4,134.814,-173.0,-120.419,2308.18,4374.03,14223.2,116.694,-454.423,31.011,-18192.2,15089.0,13248.4,-24.6614,310.866,-169.174,4485.74,-21126.8,-1923.93,84.747,-42.2441,225.444,-2917.85,26542.9,2887.35,-107.922,235.813,-57.0207,12216.7,-14631.8,-1503.79,1.86737,-32.5218,18.2764,15400.5,2845.93,4712.14,-79.5773,15.8899,47.6203
4.258,47726.0,17403.3,22552.9,125.51,-191.312,-126.842,2157.8,4643.77,14246.7,118.662,-461.639,33.8174,-18795.8,14242.2,15703.1,-14.3712,299.064,-169.368,4700.56,-21185.0,-1987.95,84.5053,-45.6658,226.803,-2228.64,26941.9,3813.66,-125.087,235.3,-52.2898,12533.6,-14874.3,-1343.28,4.78189,-31.7797,16.9744,15002.3,2903.55,4734.92,-79.7503,15.1118,48.4027
4.259,36994.8,16473.5,18489.4,111.931,-211.454,-121.372,2000.8,4983.67,14324.2,120.232,-469.459,37.0865,-16164.1,15575.6,17192.2,-14.8665,270.197,-170.302,5132.88,-21211.6,-1995.3,84.3946,-49.8357,228.026,-1237.62,26850.8,4422.02,-138.106,237.16,-47.5335,12694.8,-15010.1,-1115.74,9.32193,-31.5055,15.3393,14624.8,2923.93,4921.64,-79.2973,14.6175,48.5338
4.26,26263.5,15543.8,14425.8,98.3529,-231.595,-115.902,1843.8,5323.58,14401.7,121.803,-477.279,40.3555,-13532.4,16909.1,18681.2,-15.3619,241.331,-171.235,5565.19,-21238.2,-2002.65,84.284,-54.0056,229.249,-246.608,26759.7,5030.38,-151.125,239.02,-42.7772,12856.0,-15145.9,-888.195,13.862,-31.2313,13.7042,14247.3,2944.3,5108.36,-78.8443,14.1232,48.6649
4.261,15532.3,14614.0,10362.2,84.7744,-251.737,-110.433,1686.8,5663.49,14479.2,123.374,-485.098,43.6246,-10900.7,18242.5,20170.2,-15.8573,212.465,-172.168,5997.51,-21264.8,-2010.0,84.1733,-58.1756,230.473,744.407,26668.6,5638.75,-164.144,240.88,-38.021,13017.2,-15281.7,-660.652,18.402,-30.9571,12.0691,13869.8,2964.68,5295.08,-78.3914,13.6288,48.7959
4.262,4801.07,13684.2,6298.66,71.1958,-271.878,-104.963,1529.79,6003.39,14556.7,124.945,-492.918,46.8936,-8268.95,19575.9,21659.3,-16.3526,183.598,-173.102,6429.82,-21291.4,-2017.35,84.0627,-62.3455,231.696,1735.42,26577.5,6247.11,-177.163,242.739,-33.2647,13178.4,-15417.4,-433.11,22.9421,-30.6829,10.4341,13492.3,2985.06,5481.81,-77.9384,13.1345,48.927
4.263,-1328.01,12068.5,3089.84,61.4625,-280.825,-96.7594,1375.83,6255.8,14549.5,126.099,-501.394,50.4337,-7252.15,20997.6,20908.1,-19.8744,160.393,-174.428,6856.76,-21390.4,-2056.45,84.2243,-66.3403,232.842,2520.25,26006.1,7372.75,-179.673,242.09,-27.8672,13263.2,-15404.4,-367.754,27.3678,-29.8203,8.66401,13104.0,2997.9,5714.95,-76.9744,11.0048,48.5538
4.264,-6142.2,10256.8,125.234,52.8278,-286.573,-87.7749,1222.73,6483.21,14518.2,127.135,-510.058,54.0511,-6696.76,22444.5,19516.8,-24.261,138.805,-175.867,7282.16,-21510.2,-2104.63,84.4638,-70.2851,233.967,3246.17,25297.3,8646.18,-179.181,240.725,-22.2865,13326.0,-15348.7,-348.737,31.7608,-28.7896,6.8554,12712.5,3008.58,5961.36,-75.8644,8.4077,48.0365
4.265,-10956.4,8445.05,-2839.37,44.1931,-292.321,-78.7904,1069.63,6710.62,14486.9,128.17,-518.721,57.6685,-6141.37,23891.4,18125.4,-28.6475,117.217,-177.306,7707.56,-21629.9,-2152.81,84.7032,-74.2299,235.092,3972.09,24588.6,9919.61,-178.689,239.359,-16.7057,13388.9,-15293.1,-329.72,36.1539,-27.7589,5.0468,12321.1,3019.26,6207.76,-74.7545,5.81065,47.5192
4.266,-15770.6,6633.32,-5803.98,35.5584,-298.07,-69.8059,916.526,6938.02,14455.6,129.206,-527.384,61.286,-5585.98,25338.3,16734.1,-33.034,95.629,-178.745,8132.96,-21749.6,-2200.99,84.9427,-78.1747,236.216,4698.01,23879.9,11193.0,-178.197,237.994,-11.125,13451.8,-15237.5,-310.703,40.5469,-26.7282,3.23819,11929.6,3029.94,6454.17,-73.6445,3.2136,47.0019
4.267,-17319.2,4806.48,-7224.26,31.8689,-301.075,-60.2931,787.515,7141.83,14468.7,129.17,-536.305,64.9292,-5712.64,25929.9,15149.7,-36.0346,79.5502,-181.545,8491.7,-21905.4,-2240.05,85.1483,-81.9194,237.01,5183.54,22942.1,12361.0,-174.939,234.685,-6.01965,13490.5,-15150.9,-332.184,44.2591,-25.5542,1.43097,11533.2,3017.7,6595.36,-72.2728,0.639055,46.3221
4.268,-12336.6,2949.41,-5555.87,38.0698,-298.595,-49.7237,706.68,7298.45,14570.8,126.989,-545.74,68.6239,-7203.41,24810.9,13178.8,-36.2631,74.4898,-187.069,8717.14,-22133.1,-2260.91,85.2861,-85.2641,237.141,5188.31,21546.1,13318.0,-166.152,227.491,-1.86501,13481.0,-15002.3,-434.661,46.6098,-24.0936,-0.373483,11127.0,2959.59,6526.11,-70.3777,-1.89046,45.3175
4.269,-7353.99,1092.35,-3887.49,44.2707,-296.115,-39.1544,625.846,7455.06,14672.8,124.808,-555.174,72.3185,-8694.17,23691.9,11208.0,-36.4917,69.4293,-192.592,8942.57,-22360.9,-2281.76,85.4239,-88.6087,237.273,5193.08,20150.2,14274.9,-157.365,220.297,2.28964,13471.5,-14853.8,-537.138,48.9604,-22.633,-2.17793,10720.8,2901.47,6456.86,-68.4826,-4.41997,44.3129
4.27,-2371.41,-764.712,-2219.11,50.4716,-293.635,-28.5851,545.012,7611.68,14774.9,122.627,-564.609,76.0132,-10184.9,22572.8,9237.16,-36.7202,64.3688,-198.115,9168.01,-22588.7,-2302.61,85.5618,-91.9534,237.404,5197.84,18754.2,15231.9,-148.577,213.103,6.44428,13461.9,-14705.2,-639.616,51.311,-21.1724,-3.98238,10314.5,2843.36,6387.61,-66.5875,-6.94949,43.3083
4.271,2611.18,-2621.78,-550.728,56.6725,-291.155,-18.0157,464.178,7768.29,14877.0,120.447,-574.044,79.7079,-11675.7,21453.8,7266.33,-36.9488,59.3083,-203.639,9393.44,-22816.5,-2323.46,85.6996,-95.298,237.535,5202.61,17358.3,16188.9,-139.79,205.909,10.5989,13452.4,-14556.6,-742.093,53.6616,-19.7118,-5.78684,9908.3,2785.25,6318.36,-64.6925,-9.479,42.3037
4.272,9765.73,-6022.25,3198.18,79.9714,-277.481,-16.2609,355.063,7743.28,15001.4,117.669,-583.3,82.1621,-12398.4,19529.2,4431.97,-31.1633,63.7135,-208.698,9596.12,-22980.8,-2172.36,86.0528,-98.84,237.115,4801.18,15510.8,15832.0,-126.283,197.032,10.687,13473.4,-14379.3,-779.581,54.2638,-17.0531,-7.20812,9607.26,2614.21,6186.64,-63.5608,-10.0388,41.0403
4.273,17191.8,-9615.66,7207.16,105.408,-262.407,-15.6078,242.412,7695.57,15128.7,114.817,-592.534,84.4613,-13025.1,17503.9,1489.67,-24.6261,69.3019,-213.699,9795.95,-23137.1,-1999.78,86.4329,-102.407,236.625,4348.98,13607.0,15310.9,-112.186,187.945,10.2668,13498.2,-14198.5,-808.947,54.6475,-14.2446,-8.5815,9319.36,2429.04,6047.12,-62.5245,-10.3524,39.7446
4.274,24617.8,-13209.1,11216.1,130.844,-247.334,-14.9548,129.762,7647.86,15256.0,111.966,-601.768,86.7604,-13651.9,15478.7,-1452.62,-18.089,74.8903,-218.7,9995.78,-23293.5,-1827.19,86.813,-105.973,236.136,3896.77,11703.1,14789.8,-98.0884,178.858,9.84655,13522.9,-14017.6,-838.312,55.0311,-11.4361,-9.95489,9031.46,2243.88,5907.59,-61.4882,-10.666,38.4489
4.275,32043.9,-16802.5,15225.1,156.28,-232.261,-14.3017,17.1112,7600.14,15383.2,109.114,-611.002,89.0596,-14278.6,13453.4,-4394.92,-11.5518,80.4787,-223.701,10195.6,-23449.9,-1654.6,87.1931,-109.54,235.646,3444.57,9799.2,14268.7,-83.9912,169.771,9.42632,13547.7,-13836.8,-867.677,55.4148,-8.62766,-11.3283,8743.56,2058.72,5768.07,-60.452,-10.9795,37.1532
4.276,36921.3,-19671.5,17750.7,176.231,-212.956,-16.8927,-68.8065,7577.6,15464.5,106.51,-620.375,91.1769,-13990.5,11749.0,-7032.72,-5.79694,85.5897,-225.785,10448.8,-23546.4,-1484.28,87.3414,-113.632,234.894,2915.31,8036.12,13270.2,-68.6488,160.736,7.71723,13560.9,-13706.3,-775.737,54.8574,-5.4502,-12.575,8537.12,1889.25,5702.33,-59.4438,-10.904,35.9613
4.277,38613.0,-21635.0,18422.1,189.327,-188.361,-23.5388,-121.308,7586.54,15488.4,104.217,-629.921,93.067,-12559.1,10445.6,-9289.89,-1.02004,90.1038,-224.221,10768.6,-23568.3,-1316.79,87.2002,-118.381,233.813,2289.72,6449.04,11674.9,-51.7499,151.764,4.39705,13559.5,-13638.7,-532.165,53.1237,-1.8115,-13.6635,8432.51,1739.38,5728.83,-58.4707,-10.3422,34.8992
4.278,40304.7,-23598.5,19093.5,202.422,-163.767,-30.1849,-173.81,7595.47,15512.2,101.923,-639.468,94.957,-11127.6,9142.3,-11547.1,3.75686,94.6178,-222.657,11088.5,-23590.1,-1149.3,87.0589,-123.129,232.732,1664.14,4861.97,10079.6,-34.851,142.792,1.07687,13558.2,-13571.2,-288.594,51.39,1.82721,-14.752,8327.9,1589.52,5755.33,-57.4976,-9.7804,33.8371
4.279,41996.4,-25562.0,19764.9,215.517,-139.172,-36.831,-226.312,7604.4,15536.1,99.6299,-649.014,96.847,-9696.08,7838.97,-13804.2,8.53376,99.1319,-221.094,11408.3,-23612.0,-981.816,86.9176,-127.878,231.651,1038.55,3274.9,8484.31,-17.9521,133.82,-2.24332,13556.8,-13503.7,-45.0221,49.6564,5.46591,-15.8405,8223.29,1439.66,5781.83,-56.5245,-9.21858,32.7749
4.28,43688.1,-27525.6,20436.2,228.613,-114.578,-43.4771,-278.813,7613.33,15559.9,97.3365,-658.561,98.7371,-8264.59,6535.64,-16061.4,13.3107,103.646,-219.53,11728.2,-23633.8,-814.329,86.7763,-132.626,230.57,412.971,1687.83,6889.01,-1.05315,124.848,-5.5635,13555.5,-13436.2,198.55,47.9227,9.10461,-16.929,8118.68,1289.8,5808.33,-55.5514,-8.65676,31.7128
4.281,39469.4,-23604.7,19276.4,224.695,-103.104,-42.2253,-14.4808,7675.06,14978.2,99.5012,-668.614,101.763,-6640.49,6371.81,-16617.4,18.2224,97.9105,-211.832,11921.7,-23404.4,-971.83,85.8234,-136.739,229.188,-431.777,979.783,5096.81,16.1273,118.565,-8.68119,13444.9,-13302.4,508.531,45.4847,11.8716,-17.7402,8122.28,1110.04,5832.64,-53.7078,-7.98531,31.0221
4.282,35250.6,-19683.9,18116.6,220.777,-91.631,-40.9736,249.852,7736.79,14396.5,101.666,-678.667,104.789,-5016.39,6207.99,-17173.5,23.1341,92.1749,-204.133,12115.2,-23175.1,-1129.33,84.8705,-140.851,227.805,-1276.52,271.739,3304.61,33.3077,112.282,-11.7989,13334.3,-13168.7,818.513,43.0467,14.6386,-18.5514,8125.88,930.289,5856.94,-51.8643,-7.31386,30.3314
4.283,31031.8,-15763.0,16956.8,216.859,-80.1577,-39.7218,514.184,7798.52,13814.8,103.831,-688.721,107.815,-3392.3,6044.16,-17729.5,28.0458,86.4394,-196.435,12308.7,-22945.7,-1286.83,83.9176,-144.963,226.422,-2121.27,-436.305,1512.41,50.4881,105.999,-14.9166,13223.7,-13035.0,1128.5,40.6087,17.4057,-19.3626,8129.48,750.537,5881.25,-50.0207,-6.64242,29.6406
4.284,26813.1,-11842.2,15797.0,212.941,-68.6844,-38.4701,778.517,7860.25,13233.0,105.995,-698.774,110.841,-1768.2,5880.34,-18285.6,32.9575,80.7038,-188.736,12502.2,-22716.3,-1444.33,82.9647,-149.075,225.039,-2966.02,-1144.35,-279.795,67.6686,99.7158,-18.0343,13113.2,-12901.2,1438.48,38.1707,20.1727,-20.1738,8133.07,570.784,5905.56,-48.1772,-5.97097,28.9499
4.285,22659.6,-8851.96,14376.8,211.274,-60.4761,-39.9192,1326.28,7851.52,12609.0,109.468,-708.458,114.495,-1017.93,5897.62,-17839.4,33.802,73.2945,-183.533,12543.0,-22383.4,-1676.67,82.2009,-150.359,224.184,-3803.2,-1492.19,-1709.98,83.3517,96.7614,-22.1391,12911.3,-12805.1,1812.75,37.2958,21.0473,-21.1862,8137.77,378.962,5932.75,-46.3966,-5.46533,28.4279
4.286,18558.4,-6606.17,12748.2,211.409,-54.8798,-43.5291,2100.79,7786.44,11951.2,113.987,-717.847,118.65,-966.721,6059.78,-16591.3,31.3928,64.5463,-180.327,12461.7,-21967.6,-1968.89,81.5884,-149.38,223.751,-4634.33,-1551.87,-2850.56,97.837,96.4699,-27.0335,12636.4,-12739.1,2238.44,37.6712,20.4079,-22.3594,8143.35,177.484,5962.24,-44.6663,-5.09234,28.0408
4.287,14457.2,-4360.39,11119.7,211.544,-49.2836,-47.139,2875.3,7721.35,11293.3,118.506,-727.235,122.806,-915.513,6221.94,-15343.3,28.9836,55.798,-177.12,12380.4,-21551.8,-2261.11,80.976,-148.401,223.319,-5465.46,-1611.55,-3991.14,112.322,96.1784,-31.9279,12361.5,-12673.1,2664.14,38.0467,19.7685,-23.5327,8148.93,-23.9943,5991.74,-42.9361,-4.71935,27.6538
4.288,10356.0,-2114.61,9491.12,211.679,-43.6874,-50.7489,3649.8,7656.27,10635.4,123.025,-736.624,126.962,-864.305,6384.1,-14095.2,26.5744,47.0498,-173.914,12299.0,-21136.0,-2553.33,80.3635,-147.422,222.886,-6296.58,-1671.23,-5131.72,126.808,95.8869,-36.8224,12086.6,-12607.0,3089.83,38.4222,19.1292,-24.7059,8154.51,-225.472,6021.23,-41.2059,-4.34636,27.2668
4.289,6706.33,-148.174,7970.26,210.842,-37.9478,-54.3064,4517.25,7610.57,9966.45,127.533,-746.566,131.662,-940.198,6600.41,-12775.2,23.7678,39.0106,-171.35,12209.4,-20719.5,-2834.4,79.8325,-145.632,222.619,-7110.32,-1654.38,-6170.39,140.44,96.0219,-41.6714,11776.3,-12547.6,3510.55,39.2335,18.0611,-25.9456,8156.89,-426.11,6056.62,-39.495,-4.0425,26.8972
4.29,6668.65,-416.56,7311.03,202.223,-31.0617,-57.4453,6128.26,7719.94,9208.43,131.95,-760.938,140.724,-2032.9,7249.9,-10879.1,17.7824,36.6432,-173.926,12053.8,-20297.6,-3026.29,79.9538,-137.358,223.683,-7784.97,-1025.29,-6393.87,147.245,99.5688,-46.1571,11182.6,-12540.7,3891.37,43.5312,13.5634,-27.7163,8133.63,-620.024,6139.17,-37.9385,-4.29165,26.6669
4.291,6630.97,-684.946,6651.79,193.604,-24.1755,-60.5841,7739.26,7829.31,8450.4,136.367,-775.31,149.785,-3125.6,7899.39,-8983.11,11.7969,34.2759,-176.503,11898.1,-19875.7,-3218.19,80.0751,-129.084,224.747,-8459.61,-396.192,-6617.34,154.051,103.116,-50.6429,10588.8,-12533.9,4272.2,47.8288,9.06575,-29.487,8110.37,-813.939,6221.71,-36.382,-4.5408,26.4366
4.292,6593.29,-953.332,5992.55,184.985,-17.2894,-63.7229,9350.26,7938.68,7692.37,140.785,-789.682,158.847,-4218.3,8548.87,-7087.06,5.81142,31.9086,-179.079,11742.4,-19453.7,-3410.09,80.1963,-120.811,225.811,-9134.26,232.902,-6840.82,160.856,106.663,-55.1286,9995.14,-12527.1,4653.03,52.1264,4.56808,-31.2577,8087.11,-1007.85,6304.26,-34.8255,-4.78995,26.2063
4.293,6555.62,-1221.72,5333.32,176.367,-10.4033,-66.8617,10961.3,8048.06,6934.34,145.202,-804.054,167.908,-5311.0,9198.36,-5191.02,-0.174047,29.5412,-181.656,11586.8,-19031.8,-3601.99,80.3176,-112.537,226.875,-9808.9,861.997,-7064.29,167.662,110.209,-59.6144,9401.43,-12520.3,5033.86,56.4241,0.0704022,-33.0284,8063.85,-1201.77,6386.81,-33.2691,-5.0391,25.976
4.294,7937.94,-719.17,5716.93,165.662,-5.77124,-62.1259,12572.2,8184.67,6749.85,146.613,-812.828,175.568,-6430.63,10018.2,-3207.59,-4.81941,29.5434,-185.094,11394.4,-18693.7,-3893.93,80.5514,-99.8077,228.682,-10448.1,1692.95,-6897.47,168.471,112.277,-62.204,8683.19,-12423.3,5121.06,60.1678,-4.41006,-34.8903,8041.2,-1409.01,6429.77,-31.6625,-5.28648,25.7474
4.295,10030.3,168.844,6621.97,153.915,-2.26626,-53.4528,14183.1,8334.91,6852.12,146.52,-818.803,182.526,-7563.72,10923.3,-1180.47,-8.79472,30.7303,-188.964,11183.5,-18397.5,-4235.9,80.8415,-84.8504,230.861,-11069.5,2624.84,-6535.49,166.283,113.605,-63.8456,7902.68,-12281.2,5061.45,63.6345,-8.88193,-36.7979,8018.86,-1622.91,6452.94,-30.0308,-5.53298,25.5196
4.296,12122.6,1056.86,7527.01,142.168,1.23872,-44.7797,15794.1,8485.15,6954.4,146.428,-824.778,189.485,-8696.8,11828.4,846.649,-12.77,31.9173,-192.834,10972.7,-18101.3,-4577.87,81.1317,-69.8932,233.04,-11690.9,3556.73,-6173.51,164.094,114.933,-65.4871,7122.17,-12139.2,5001.84,67.1012,-13.3538,-38.7054,7996.52,-1836.82,6476.11,-28.3992,-5.77947,25.2918
4.297,14214.9,1944.87,8432.04,130.421,4.7437,-36.1067,17405.0,8635.39,7056.67,146.335,-830.753,196.443,-9829.89,12733.5,2873.77,-16.7453,33.1042,-196.704,10761.9,-17805.1,-4919.84,81.4218,-54.9359,235.219,-12312.3,4488.62,-5811.53,161.905,116.261,-67.1287,6341.66,-11997.1,4942.23,70.5678,-17.8257,-40.613,7974.18,-2050.72,6499.28,-26.7675,-6.02597,25.0639
4.298,15967.2,2735.34,9208.83,120.004,7.53699,-27.9409,19105.5,8794.52,7412.75,146.67,-831.92,199.987,-10662.7,13619.3,4639.44,-19.97,34.0091,-199.654,10515.3,-17554.4,-5249.81,81.7035,-40.041,237.328,-12951.0,5317.14,-5373.18,158.597,116.023,-68.2406,5576.59,-11849.3,4761.46,72.9747,-21.5138,-42.816,7965.94,-2269.95,6506.04,-25.2156,-6.11535,24.858
4.299,16529.6,3184.39,9536.72,114.242,7.83935,-21.5509,21119.3,8984.79,8657.18,148.5,-816.26,191.581,-10444.6,14437.8,5490.01,-20.5675,33.927,-199.384,10143.2,-17463.0,-5537.77,81.9558,-25.3642,239.193,-13650.2,5783.88,-4667.49,151.367,110.306,-67.4985,4865.55,-11681.1,4156.61,71.6721,-22.4591,-46.0532,8007.03,-2507.83,6455.41,-23.9429,-5.65487,24.7288
4.3,17091.9,3633.44,9864.62,108.479,8.14171,-15.1609,23133.1,9175.05,9901.6,150.329,-800.601,183.174,-10226.5,15256.3,6340.58,-21.165,33.8448,-199.114,9771.23,-17371.6,-5825.73,82.2082,-10.6875,241.057,-14349.4,6250.63,-3961.81,144.138,104.589,-66.7563,4154.52,-11513.0,3551.76,70.3695,-23.4043,-49.2905,8048.12,-2745.72,6404.78,-22.6701,-5.19439,24.5995
4.301,17654.2,4082.49,10192.5,102.717,8.44407,-8.77088,25146.9,9365.31,11146.0,152.159,-784.941,174.767,-10008.4,16074.8,7191.15,-21.7625,33.7626,-198.845,9399.21,-17280.2,-6113.7,82.4605,3.98931,242.921,-15048.7,6717.37,-3256.12,136.909,98.8711,-66.0142,3443.49,-11344.8,2946.92,69.0669,-24.3495,-52.5277,8089.22,-2983.6,6354.14,-21.3973,-4.73391,24.4703
4.302,18216.5,4531.53,10520.4,96.9542,8.74642,-2.38087,27160.7,9555.58,12390.4,153.989,-769.282,166.36,-9790.24,16893.3,8041.72,-22.36,33.6804,-198.575,9027.2,-17188.7,-6401.66,82.7128,18.6661,244.785,-15747.9,7184.12,-2550.44,129.68,93.1538,-65.2721,2732.45,-11176.7,2342.07,67.7644,-25.2948,-55.7649,8130.31,-3221.48,6303.51,-20.1246,-4.27343,24.341
4.303,17356.3,4698.39,10614.4,90.4296,8.72477,-0.458195,28487.7,10304.6,13152.4,151.92,-745.855,157.256,-8567.96,17371.7,8083.95,-21.4935,28.4197,-194.352,8518.66,-17290.9,-6550.71,82.9102,29.5299,244.932,-16437.5,7225.71,-2079.57,123.799,84.8996,-64.4906,2222.14,-11071.8,1484.74,63.6897,-22.9842,-59.8866,8247.18,-3475.17,6232.91,-19.7703,-3.22525,24.2759
4.304,16089.6,4784.62,10641.7,83.6872,8.61055,0.188094,29618.4,11213.2,13776.6,148.737,-720.208,147.952,-7058.77,17752.9,7895.23,-20.2086,21.6793,-189.0,7971.12,-17448.4,-6660.08,83.0918,39.3043,244.588,-17124.3,7145.83,-1675.79,118.304,75.9207,-63.6977,1769.18,-10985.0,555.276,58.823,-19.7434,-64.261,8385.7,-3733.39,6156.62,-19.6786,-2.00917,24.229
4.305,14822.9,4870.84,10668.9,76.9448,8.49633,0.834383,30749.1,12121.8,14400.7,145.554,-694.562,138.648,-5549.58,18134.1,7706.51,-18.9238,14.939,-183.648,7423.57,-17605.8,-6769.45,83.2735,49.0787,244.243,-17811.1,7065.96,-1272.01,112.808,66.9418,-62.9049,1316.21,-10898.2,-374.189,53.9563,-16.5025,-68.6354,8524.23,-3991.61,6080.32,-19.5868,-0.793081,24.1821
4.306,13556.2,4957.07,10696.1,70.2024,8.38211,1.48067,31879.9,13030.4,15024.9,142.372,-668.915,129.345,-4040.39,18515.3,7517.79,-17.639,8.19864,-178.295,6876.03,-17763.3,-6878.82,83.4551,58.8531,243.899,-18498.0,6986.08,-868.234,107.313,57.9628,-62.1121,863.25,-10811.4,-1303.65,49.0897,-13.2617,-73.0098,8662.75,-4249.82,6004.03,-19.495,0.423004,24.1353
4.307,12337.4,4973.28,10680.6,63.1346,8.77476,1.41773,32524.4,14199.7,15639.1,137.998,-645.615,123.122,-2815.67,18573.8,7167.23,-16.3208,0.210475,-173.054,6196.85,-17949.0,-7079.46,82.8402,66.6776,243.468,-19141.9,6847.72,-564.525,102.424,49.8518,-61.7023,484.471,-10743.3,-2165.11,43.8452,-9.40275,-77.5374,8810.82,-4478.13,5940.8,-19.5128,1.78356,24.0914
4.308,11214.1,4849.45,10579.6,55.416,10.1812,-0.0636542,32196.7,15890.2,16233.5,131.243,-627.007,123.062,-2159.92,17986.6,6492.99,-14.936,-10.2733,-168.033,5254.41,-18191.0,-7462.67,80.632,70.6024,242.864,-19699.9,6592.4,-460.954,98.7463,43.4765,-62.0588,254.061,-10712.5,-2890.57,37.8452,-4.30744,-82.3715,8978.0,-4646.62,5903.7,-19.7496,3.43306,24.0536
4.309,10090.9,4725.62,10478.5,47.6973,11.5876,-1.54504,31869.0,17580.7,16828.0,124.488,-608.399,123.003,-1504.16,17399.4,5818.76,-13.5511,-20.7571,-163.013,4311.97,-18433.0,-7845.87,78.4239,74.5273,242.259,-20258.0,6337.08,-357.384,95.0691,37.1012,-62.4152,23.6507,-10681.8,-3616.02,31.8451,0.787869,-87.2057,9145.18,-4815.11,5866.6,-19.9865,5.08256,24.0158
4.31,8967.68,4601.79,10377.5,39.9787,12.994,-3.02643,31541.3,19271.2,17422.4,117.732,-589.791,122.943,-848.396,16812.3,5144.52,-12.1663,-31.241,-157.992,3369.52,-18675.1,-8229.07,76.2157,78.4521,241.655,-20816.0,6081.76,-253.813,91.3919,30.7259,-62.7716,-206.76,-10651.1,-4341.48,25.8451,5.88318,-92.0398,9312.35,-4983.6,5829.5,-20.2233,6.73207,23.9781
4.311,7844.46,4477.97,10276.5,32.2601,14.4004,-4.50782,31213.6,20961.7,18016.8,110.977,-571.183,122.883,-192.637,16225.1,4470.28,-10.7815,-41.7248,-152.972,2427.08,-18917.1,-8612.27,74.0076,82.3769,241.05,-21374.1,5826.44,-150.242,87.7147,24.3505,-63.128,-437.17,-10620.3,-5066.93,19.8451,10.9785,-96.8739,9479.53,-5152.09,5792.4,-20.4602,8.38157,23.9403
4.312,7371.76,4047.89,10193.8,26.919,15.7392,-4.24502,30226.6,21951.5,18012.0,100.938,-559.309,130.046,-509.558,15650.3,3881.18,-11.0764,-51.6983,-149.513,1599.87,-19015.5,-8990.74,70.4292,82.6545,241.867,-21622.3,5794.05,-245.838,82.9629,20.4917,-63.3163,-569.649,-10788.1,-5249.48,13.6708,14.5032,-101.919,9585.96,-5209.77,5780.16,-20.5267,9.95432,24.043
4.313,6980.38,3579.54,10113.4,21.875,17.0695,-3.76419,29157.2,22853.7,17932.3,90.4873,-548.278,138.111,-948.064,15077.1,3302.71,-11.5814,-61.6081,-146.25,787.072,-19095.9,-9368.61,66.6796,82.4762,242.861,-21831.8,5789.53,-366.329,78.0767,16.9473,-63.4836,-689.887,-10980.7,-5364.17,7.47478,17.8316,-106.989,9684.79,-5253.61,5771.02,-20.572,11.5175,24.1634
4.314,6589.0,3111.19,10033.0,16.8311,18.3999,-3.28337,28087.8,23755.9,17852.6,80.0371,-537.246,146.177,-1386.57,14503.9,2724.25,-12.0864,-71.5179,-142.987,-25.7309,-19176.3,-9746.48,62.93,82.298,243.856,-22041.3,5785.0,-486.82,73.1905,13.403,-63.6508,-810.126,-11173.4,-5478.85,1.27875,21.1599,-112.06,9783.63,-5297.44,5761.88,-20.6173,13.0807,24.2837
4.315,6197.62,2642.84,9952.56,11.7871,19.7302,-2.80255,27018.4,24658.1,17772.9,69.587,-526.215,154.242,-1825.08,13930.7,2145.78,-12.5913,-81.4277,-139.723,-838.533,-19256.8,-10124.4,59.1804,82.1197,244.85,-22250.9,5780.48,-607.311,68.3043,9.85868,-63.8181,-930.364,-11366.0,-5593.54,-4.91728,24.4883,-117.131,9882.46,-5341.28,5752.74,-20.6625,14.6438,24.404
4.316,6001.75,2016.84,9794.8,8.06085,20.7116,-1.80635,25756.3,25142.9,17331.8,56.8551,-516.026,162.947,-2324.4,13550.0,1583.77,-13.4984,-89.781,-137.17,-1154.35,-19351.2,-10432.1,55.4582,81.1744,245.642,-22219.7,5842.19,-725.923,62.7938,6.31493,-64.2575,-1019.86,-11691.4,-5520.16,-9.98827,26.495,-122.373,9974.16,-5346.82,5740.4,-20.7331,16.0387,24.6003
4.317,6050.26,1193.78,9540.38,5.98165,21.2569,-0.165944,24253.4,25106.1,16438.8,41.2713,-506.891,172.451,-2899.75,13409.8,1042.32,-14.9081,-96.1887,-135.504,-848.919,-19463.2,-10652.3,51.7703,79.2704,246.183,-21887.8,5986.7,-842.185,56.5029,2.77188,-65.0372,-1070.92,-12182.7,-5211.69,-13.653,26.8496,-127.828,10057.0,-5304.5,5724.04,-20.8353,17.2234,24.8915
4.318,6098.77,370.716,9285.96,3.90246,21.8022,1.47446,22750.5,25069.2,15545.9,25.6874,-497.755,181.955,-3475.1,13269.5,500.879,-16.3178,-102.596,-133.837,-543.493,-19575.2,-10872.4,48.0823,77.3663,246.723,-21555.9,6131.21,-958.447,50.212,-0.771162,-65.8168,-1121.98,-12674.1,-4903.22,-17.3176,27.2042,-133.283,10139.8,-5262.18,5707.69,-20.9375,18.408,25.1827
4.319,6147.29,-452.344,9031.54,1.82326,22.3475,3.11487,21247.6,25032.3,14653.0,10.1036,-488.62,191.46,-4050.44,13129.3,-40.5657,-17.7275,-109.004,-132.171,-238.067,-19687.2,-11092.6,44.3944,75.4622,247.263,-21224.0,6275.73,-1074.71,43.921,-4.31421,-66.5965,-1173.04,-13165.4,-4594.75,-20.9823,27.5588,-138.737,10222.5,-5219.86,5691.34,-21.0397,19.5926,25.4739
4.32,6195.8,-1275.4,8777.12,-0.255937,22.8928,4.75528,19744.7,24995.4,13760.0,-5.48026,-479.485,200.964,-4625.79,12989.1,-582.011,-19.1372,-115.412,-130.505,67.3587,-19799.2,-11312.7,40.7065,73.5582,247.803,-20892.0,6420.24,-1190.97,37.6301,-7.85725,-67.3761,-1224.11,-13656.8,-4286.28,-24.647,27.9134,-144.192,10305.3,-5177.54,5674.99,-21.1419,20.7773,25.7651
4.321,6238.64,-2079.36,8550.56,0.205979,22.8394,4.71197,18158.9,24593.5,14521.7,-20.7197,-473.396,205.739,-4492.08,12947.5,-946.905,-22.8206,-118.535,-129.041,1180.67,-19935.7,-11699.5,38.7824,74.1419,246.286,-20303.6,6414.09,-1335.61,32.5658,-12.4383,-69.874,-1325.19,-14316.1,-3816.64,-24.2535,26.2465,-149.138,10350.7,-5099.03,5655.9,-21.1891,21.687,26.1414
4.322,6281.48,-2883.31,8324.0,0.667896,22.7859,4.66865,16573.1,24191.5,15283.4,-35.9591,-467.307,210.515,-4358.38,12905.8,-1311.8,-26.5039,-121.658,-127.577,2293.97,-20072.2,-12086.2,36.8584,74.7256,244.768,-19715.2,6407.95,-1480.24,27.5016,-17.0193,-72.3718,-1426.28,-14975.5,-3346.99,-23.86,24.5796,-154.084,10396.0,-5020.52,5636.81,-21.2363,22.5967,26.5178
4.323,6324.32,-3687.27,8097.45,1.12981,22.7324,4.62534,14987.3,23789.6,16045.1,-51.1985,-461.218,215.291,-4224.67,12864.2,-1676.69,-30.1873,-124.781,-126.113,3407.28,-20208.8,-12473.0,34.9344,75.3093,243.25,-19126.7,6401.81,-1624.88,22.4373,-21.6003,-74.8697,-1527.36,-15634.8,-2877.35,-23.4665,22.9126,-159.03,10441.3,-4942.01,5617.73,-21.2835,23.5064,26.8941
4.324,6367.16,-4491.22,7870.89,1.59173,22.6789,4.58203,13401.5,23387.7,16806.8,-66.4379,-455.129,220.066,-4090.96,12822.6,-2041.59,-33.8706,-127.904,-124.649,4520.59,-20345.3,-12859.8,33.0104,75.893,241.733,-18538.3,6395.67,-1769.51,17.3731,-26.1813,-77.3675,-1628.44,-16294.2,-2407.7,-23.073,21.2457,-163.976,10486.6,-4863.51,5598.64,-21.3307,24.416,27.2704
4.325,6332.67,-4983.11,7801.06,1.90547,22.8149,3.37786,12454.1,22705.8,17151.7,-76.7566,-449.849,223.106,-3708.88,12613.4,-2266.35,-37.6957,-131.472,-123.043,5393.8,-20425.4,-13182.9,33.0378,79.353,239.197,-17904.3,6398.62,-1899.56,14.4633,-30.1563,-80.7556,-1811.16,-16887.6,-2044.19,-20.4481,19.1464,-168.186,10511.3,-4758.36,5586.86,-21.2579,25.0735,27.6265
