Time,RFoot_accel.x,RFoot_accel.y,RFoot_accel.z,RFoot_gyro.x,RFoot_gyro.y,RFoot_gyro.z,LFoot_accel.x,LFoot_accel.y,LFoot_accel.z,LFoot_gyro.x,LFoot_gyro.y,LFoot_gyro.z,RShank_accel.x,RShank_accel.y,RShank_accel.z,RShank_gyro.x,RShank_gyro.y,RShank_gyro.z,LShank_accel.x,LShank_accel.y,LShank_accel.z,LShank_gyro.x,LShank_gyro.y,LShank_gyro.z,RThigh_accel.x,RThigh_accel.y,RThigh_accel.z,RThigh_gyro.x,RThigh_gyro.y,RThigh_gyro.z,LThigh_accel.x,LThigh_accel.y,LThigh_accel.z,LThigh_gyro.x,LThigh_gyro.y,LThigh_gyro.z,Pelvis_accel.x,Pelvis_accel.y,Pelvis_accel.z,Pelvis_gyro.x,Pelvis_gyro.y,Pelvis_gyro.z
3.94,4888.48,-4900.98,8719.1,-95.7421,386.864,148.197,4275.62,1742.78,8906.39,-2.10353,-12.2789,11.6346,5334.91,7501.11,-652.692,135.638,-75.4736,326.958,545.841,-10530.2,-1656.66,-0.801444,-22.2831,35.4446,-8290.86,3515.84,-1647.83,25.7959,54.5893,146.239,3242.54,-11257.0,-421.333,-84.6808,-83.3878,94.3512,5259.04,-3044.75,2828.46,30.7233,15.6011,54.4641
3.941,4985.24,-4948.27,8768.98,-95.5447,386.37,150.437,4277.37,1742.65,8923.82,-1.81877,-12.7665,11.4516,5367.73,7484.17,-699.391,137.468,-73.2382,328.786,547.524,-10540.8,-1674.51,-0.784721,-21.3363,35.7652,-8181.12,3439.08,-1564.54,24.1651,59.0245,146.096,3318.43,-11323.8,-484.855,-84.2326,-85.3706,94.2872,5366.23,-3111.01,2846.92,31.4182,15.3735,53.7017
3.942,5082.01,-4995.57,8818.85,-95.3472,385.877,152.677,4279.12,1742.52,8941.26,-1.53401,-13.2541,11.2687,5400.56,7467.23,-746.09,139.299,-71.0029,330.613,549.207,-10551.3,-1692.36,-0.767999,-20.3894,36.0858,-8071.38,3362.31,-1481.24,22.5344,63.4597,145.952,3394.33,-11390.6,-548.376,-83.7843,-87.3533,94.2231,5473.42,-3177.27,2865.39,32.113,15.146,52.9392
3.943,5172.49,-5040.72,8876.43,-95.2072,385.274,154.589,4296.29,1743.1,8956.87,-1.16711,-13.8417,11.1164,5461.72,7452.43,-808.022,141.158,-68.1614,332.133,506.004,-10558.0,-1679.8,-0.659505,-19.6282,36.3605,-7994.69,3296.71,-1375.92,20.5447,68.5032,146.089,3452.55,-11402.9,-593.99,-82.6694,-89.381,94.1818,5555.74,-3208.64,2846.39,32.8573,14.9271,52.0213
3.944,5261.18,-5085.25,8936.21,-95.0837,384.641,156.408,4317.87,1743.88,8971.96,-0.776738,-14.4578,10.973,5530.97,7438.24,-874.305,143.026,-65.1467,333.565,449.976,-10563.5,-1658.55,-0.524791,-18.92,36.6221,-7927.44,3234.29,-1264.31,18.4524,73.7206,146.307,3505.73,-11399.5,-634.486,-81.3639,-91.4215,94.147,5630.95,-3230.06,2816.68,33.6156,14.7108,51.0589
3.945,5349.86,-5129.79,8995.99,-94.9601,384.008,158.227,4339.45,1744.66,8987.05,-0.386367,-15.074,10.8295,5600.22,7424.04,-940.588,144.894,-62.132,334.996,393.948,-10569.1,-1637.3,-0.390077,-18.2119,36.8837,-7860.19,3171.88,-1152.7,16.3602,78.938,146.525,3558.91,-11396.2,-674.983,-80.0585,-93.462,94.1123,5706.17,-3251.47,2786.98,34.3739,14.4944,50.0965
3.946,5438.55,-5174.33,9055.77,-94.8365,383.375,160.046,4361.03,1745.44,9002.14,0.00400364,-15.6901,10.6861,5669.47,7409.85,-1006.87,146.762,-59.1173,336.428,337.92,-10574.7,-1616.04,-0.255363,-17.5037,37.1453,-7792.94,3109.46,-1041.09,14.2679,84.1554,146.743,3612.08,-11392.8,-715.48,-78.753,-95.5025,94.0775,5781.38,-3272.88,2757.27,35.1323,14.2781,49.1342
3.947,5514.16,-5211.07,9116.22,-94.7068,382.676,161.784,4378.74,1737.5,9007.51,0.405694,-16.3123,10.5413,5734.4,7424.43,-1067.12,148.584,-56.0229,337.725,274.573,-10585.4,-1593.65,-0.193148,-16.9743,37.4186,-7716.09,3041.14,-943.628,12.0248,89.4977,147.202,3647.21,-11369.7,-766.623,-77.1999,-97.5504,94.0644,5884.97,-3290.94,2722.86,35.789,14.1388,48.1518
3.948,5563.63,-5232.23,9178.04,-94.565,381.847,163.361,4388.7,1712.13,8993.43,0.830022,-16.9468,10.3939,5790.66,7496.55,-1115.31,150.315,-52.7689,338.755,196.586,-10606.5,-1568.95,-0.275931,-16.8024,37.7154,-7620.07,2961.01,-874.471,9.48001,95.0897,148.144,3646.23,-11307.1,-839.058,-75.1514,-99.613,94.0947,6045.31,-3302.29,2679.03,36.2426,14.1536,47.1293
3.949,5613.1,-5253.4,9239.85,-94.4232,381.018,164.938,4398.66,1686.75,8979.36,1.25435,-17.5812,10.2464,5846.93,7568.66,-1163.5,152.045,-49.515,339.784,118.599,-10627.6,-1544.26,-0.358713,-16.6306,38.0121,-7524.04,2880.88,-805.313,6.93519,100.682,149.085,3645.26,-11244.4,-911.494,-73.103,-101.676,94.125,6205.64,-3313.65,2635.2,36.6961,14.1685,46.1069
3.95,5662.57,-5274.56,9301.67,-94.2814,380.188,166.515,4408.63,1661.37,8965.29,1.67868,-18.2156,10.099,5903.19,7640.77,-1211.69,153.776,-46.2611,340.814,40.6117,-10648.7,-1519.57,-0.441496,-16.4587,38.3088,-7428.02,2800.75,-736.155,4.39038,106.274,150.026,3644.28,-11181.8,-983.93,-71.0545,-103.738,94.1553,6365.98,-3325.01,2591.37,37.1496,14.1833,45.0844
3.951,5712.04,-5295.72,9363.48,-94.1396,379.359,168.092,4418.59,1635.99,8951.22,2.10301,-18.85,9.95161,5959.46,7712.89,-1259.88,155.507,-43.0071,341.843,-37.3752,-10669.8,-1494.87,-0.524279,-16.2869,38.6055,-7331.99,2720.61,-666.997,1.84557,111.866,150.968,3643.31,-11119.2,-1056.36,-69.006,-105.801,94.1856,6526.32,-3336.37,2547.54,37.6032,14.1981,44.062
3.952,5775.69,-5288.34,9425.22,-94.2625,378.249,169.713,4401.96,1657.73,8942.28,2.49939,-19.3771,9.74336,5997.12,7791.6,-1259.26,157.228,-39.7736,342.598,-99.7891,-10685.5,-1515.94,-0.823143,-16.5778,38.8341,-7250.62,2578.19,-629.592,-0.299129,117.715,151.885,3608.07,-11012.9,-1186.46,-66.5043,-107.429,94.2143,6643.65,-3305.33,2536.21,38.2242,14.0808,42.9352
3.953,5841.12,-5277.39,9486.95,-94.4186,377.105,171.34,4382.02,1685.35,8933.98,2.89229,-19.8907,9.52751,6032.46,7871.13,-1252.54,158.948,-36.5426,343.319,-160.256,-10700.5,-1542.73,-1.14902,-16.9265,39.0542,-7171.08,2427.98,-596.156,-2.39382,123.597,152.798,3568.54,-10901.2,-1323.75,-63.9459,-109.003,94.2429,6755.59,-3269.0,2528.94,38.8662,13.9469,41.7955
3.954,5906.55,-5266.44,9548.67,-94.5746,375.96,172.967,4362.07,1712.97,8925.68,3.28519,-20.4044,9.31166,6067.81,7950.66,-1245.83,160.668,-33.3117,344.04,-220.724,-10715.5,-1569.52,-1.47489,-17.2753,39.2742,-7091.54,2277.77,-562.719,-4.48851,129.479,153.712,3529.01,-10789.5,-1461.05,-61.3875,-110.578,94.2715,6867.54,-3232.67,2521.67,39.5082,13.813,40.6558
3.955,5971.98,-5255.49,9610.4,-94.7306,374.816,174.594,4342.12,1740.6,8917.38,3.67808,-20.918,9.09581,6103.15,8030.2,-1239.11,162.388,-30.0807,344.761,-281.191,-10730.6,-1596.31,-1.80077,-17.6241,39.4943,-7011.99,2127.57,-529.283,-6.5832,135.361,154.625,3489.49,-10677.8,-1598.35,-58.8291,-112.152,94.3,6979.48,-3196.34,2514.41,40.1501,13.6792,39.516
3.956,6040.66,-5252.34,9676.11,-95.0381,373.631,176.196,4296.99,1791.64,8947.4,4.47933,-21.3922,9.33507,6122.83,8144.15,-1229.9,163.991,-26.9376,345.46,-318.953,-10727.9,-1668.36,-2.36082,-18.3529,39.6721,-6939.55,1985.32,-507.024,-8.10061,141.082,155.279,3426.39,-10552.4,-1771.59,-56.4787,-113.132,94.3384,7042.18,-3166.17,2489.01,40.8028,13.4975,38.4498
3.957,6113.41,-5258.94,9746.78,-95.5347,372.397,177.767,4220.39,1871.96,9025.33,5.79102,-21.8169,10.1432,6122.92,8301.11,-1217.58,165.447,-23.9042,346.132,-328.332,-10703.0,-1796.98,-3.21361,-19.5568,39.7972,-6875.98,1853.03,-498.737,-8.89644,146.601,155.608,3333.82,-10409.7,-1989.74,-54.3883,-113.371,94.3889,7043.3,-3143.7,2440.96,41.4689,13.256,37.4756
3.958,6186.16,-5265.53,9817.46,-96.0314,371.162,179.338,4143.79,1952.27,9103.27,7.1027,-22.2417,10.9514,6123.02,8458.07,-1205.27,166.902,-20.8709,346.804,-337.712,-10678.1,-1925.6,-4.06639,-20.7608,39.9222,-6812.42,1720.74,-490.449,-9.69227,152.12,155.937,3241.25,-10267.0,-2207.9,-52.2979,-113.609,94.4395,7044.42,-3121.23,2392.9,42.1351,13.0146,36.5013
3.959,6258.91,-5272.13,9888.13,-96.5281,369.927,180.909,4067.19,2032.59,9181.2,8.41439,-22.6665,11.7596,6123.12,8615.04,-1192.95,168.358,-17.8376,347.476,-347.092,-10653.2,-2054.23,-4.91918,-21.9647,40.0472,-6748.85,1588.46,-482.162,-10.4881,157.639,156.265,3148.69,-10124.3,-2426.06,-50.2075,-113.847,94.4901,7045.54,-3098.76,2344.84,42.8012,12.7732,35.5271
3.96,6331.67,-5278.73,9958.81,-97.0248,368.692,182.48,3990.6,2112.91,9259.13,9.72608,-23.0913,12.5677,6123.22,8772.0,-1180.63,169.814,-14.8043,348.148,-356.472,-10628.4,-2182.85,-5.77196,-23.1687,40.1723,-6685.28,1456.17,-473.875,-11.2839,163.158,156.594,3056.12,-9981.61,-2644.22,-48.1171,-114.086,94.5406,7046.66,-3076.29,2296.78,43.4673,12.5317,34.5528
3.961,6443.23,-5326.13,10082.9,-97.3689,367.449,184.025,3907.44,2331.3,9115.28,8.5979,-22.6641,13.2683,6102.33,8984.53,-1176.05,171.166,-12.1271,348.686,-389.287,-10530.5,-2468.65,-6.99605,-25.6099,39.8954,-6611.07,1368.37,-454.107,-11.5742,167.535,156.11,2950.07,-9854.21,-2884.75,-47.1411,-112.721,94.5634,7079.23,-3031.44,2271.7,44.0821,12.3461,33.5825
3.962,6554.79,-5373.53,10207.1,-97.7131,366.207,185.57,3824.29,2549.7,8971.43,7.46972,-22.237,13.9689,6081.44,9197.05,-1171.48,172.518,-9.44998,349.224,-422.103,-10432.6,-2754.44,-8.22013,-28.051,39.6185,-6536.87,1280.58,-434.339,-11.8645,171.913,155.626,2844.02,-9726.81,-3125.27,-46.1651,-111.357,94.5863,7111.8,-2986.58,2246.61,44.6968,12.1605,32.6121
3.963,6666.35,-5420.94,10331.2,-98.0573,364.964,187.114,3741.14,2768.09,8827.58,6.34155,-21.8099,14.6695,6060.55,9409.58,-1166.91,173.87,-6.7728,349.762,-454.918,-10334.8,-3040.24,-9.44421,-30.4922,39.3417,-6462.66,1192.79,-414.572,-12.1549,176.29,155.142,2737.97,-9599.41,-3365.8,-45.1891,-109.992,94.6091,7144.38,-2941.72,2221.53,45.3116,11.9748,31.6418
3.964,6777.91,-5468.34,10455.3,-98.4015,363.721,188.659,3657.98,2986.49,8683.73,5.21337,-21.3827,15.3701,6039.66,9622.11,-1162.33,175.223,-4.09563,350.299,-487.733,-10236.9,-3326.04,-10.6683,-32.9334,39.0648,-6388.45,1104.99,-394.804,-12.4452,180.668,154.657,2631.92,-9472.0,-3606.33,-44.2131,-108.628,94.6319,7176.95,-2896.86,2196.45,45.9264,11.7892,30.6714
3.965,6905.18,-5534.24,10563.5,-98.7068,362.479,190.24,3622.94,3290.25,8559.91,4.38595,-21.2708,16.3524,6017.06,9832.29,-1165.97,176.722,-1.37156,350.926,-583.744,-10130.8,-3565.72,-10.8408,-34.6181,38.7656,-6307.59,1054.54,-373.744,-13.3129,183.77,153.617,2489.97,-9329.46,-3824.8,-43.8296,-106.526,94.7581,7189.32,-2848.08,2165.24,46.5317,11.6065,29.7509
3.966,7045.02,-5614.94,10659.0,-98.981,361.239,191.849,3626.38,3662.29,8452.12,3.79913,-21.411,17.5602,5993.09,10040.6,-1176.19,178.339,1.39002,351.624,-730.313,-10018.1,-3768.52,-10.1721,-35.6977,38.4485,-6221.39,1033.97,-351.651,-14.6426,185.852,152.131,2319.28,-9174.81,-4025.62,-43.9202,-103.834,94.9669,7185.54,-2796.17,2129.13,47.1293,11.4261,28.8704
3.967,7184.86,-5695.65,10754.4,-99.2552,359.999,193.458,3629.83,4034.33,8344.32,3.21231,-21.5513,18.768,5969.11,10248.9,-1186.4,179.956,4.15161,352.322,-876.881,-9905.34,-3971.32,-9.50338,-36.7773,38.1314,-6135.2,1013.4,-329.557,-15.9724,187.933,150.645,2148.6,-9020.15,-4226.45,-44.0107,-101.141,95.1758,7181.75,-2744.25,2093.02,47.7269,11.2457,27.9898
3.968,7324.69,-5776.35,10849.8,-99.5294,358.758,195.067,3633.27,4406.38,8236.53,2.62549,-21.6915,19.9758,5945.14,10457.2,-1196.61,181.573,6.91319,353.02,-1023.45,-9792.62,-4174.12,-8.83465,-37.8568,37.8143,-6049.01,992.823,-307.464,-17.3021,190.015,149.159,1977.92,-8865.5,-4427.28,-44.1013,-98.4494,95.3847,7177.96,-2692.33,2056.91,48.3245,11.0652,27.1093
3.969,7469.49,-5862.7,10944.5,-99.7985,357.536,196.681,3662.77,4716.3,8139.7,2.20866,-21.8526,21.1956,5921.82,10661.6,-1206.15,183.22,9.67498,353.716,-1151.95,-9697.23,-4332.56,-8.05076,-38.6755,37.6051,-5974.85,975.628,-287.415,-18.7146,191.867,147.646,1802.49,-8714.95,-4621.97,-44.3059,-95.7023,95.6247,7181.08,-2638.31,2023.9,48.8695,10.844,26.2279
3.97,7653.91,-5994.27,11032.9,-100.027,356.462,198.335,3900.66,4529.27,8130.66,3.15168,-22.1807,22.5111,5903.72,10835.0,-1210.24,185.11,12.4384,354.395,-1135.93,-9740.47,-4136.19,-6.34547,-37.4073,38.2588,-5996.97,985.457,-283.723,-20.7893,191.882,145.916,1589.1,-8597.26,-4767.57,-45.4235,-92.516,96.1138,7239.45,-2567.49,2015.72,48.9937,10.296,25.3405
3.971,7838.34,-6125.85,11121.3,-100.256,355.387,199.989,4138.56,4342.24,8121.62,4.09471,-22.5089,23.8266,5885.61,11008.4,-1214.32,187.0,15.2018,355.075,-1119.92,-9783.72,-3939.82,-4.64018,-36.1391,38.9124,-6019.09,995.286,-280.031,-22.8641,191.898,144.186,1375.7,-8479.56,-4913.17,-46.5411,-89.3296,96.603,7297.81,-2496.68,2007.54,49.1178,9.74806,24.4531
3.972,8022.76,-6257.42,11209.7,-100.485,354.313,201.643,4376.45,4155.21,8112.58,5.03774,-22.8371,25.1421,5867.51,11181.8,-1218.41,188.89,17.9653,355.754,-1103.9,-9826.97,-3743.44,-2.93489,-34.8709,39.566,-6041.21,1005.12,-276.339,-24.9388,191.914,142.456,1162.3,-8361.87,-5058.78,-47.6587,-86.1432,97.0921,7356.18,-2425.87,1999.36,49.242,9.20009,23.5657
3.973,8207.19,-6388.99,11298.1,-100.714,353.238,203.297,4614.35,3968.19,8103.53,5.98076,-23.1652,26.4576,5849.41,11355.2,-1222.5,190.78,20.7287,356.433,-1087.88,-9870.21,-3547.07,-1.2296,-33.6027,40.2197,-6063.32,1014.95,-272.647,-27.0136,191.929,140.725,948.897,-8244.18,-5204.38,-48.7763,-82.9569,97.5813,7414.54,-2355.05,1991.17,49.3661,8.65211,22.6783
3.974,8409.79,-6560.69,11418.7,-100.503,352.232,204.907,4849.52,3538.02,8109.33,6.04491,-23.2134,26.8785,5828.12,11527.4,-1242.3,192.573,23.6244,357.033,-999.717,-9941.06,-3301.64,-0.159846,-32.9733,40.8167,-6118.84,1039.76,-337.792,-29.3399,191.59,138.874,767.336,-8212.32,-5281.64,-50.1029,-80.0575,97.9015,7421.9,-2320.34,1960.48,49.7554,8.30255,21.755
3.975,8621.47,-6752.46,11555.3,-100.073,351.261,206.495,5083.32,2986.3,8122.54,5.66963,-23.1217,26.8523,5805.23,11699.0,-1269.95,194.316,26.5862,357.594,-875.485,-10025.7,-3031.67,0.592145,-32.6633,41.3855,-6191.06,1072.08,-437.354,-31.7921,191.074,136.963,601.695,-8223.38,-5324.74,-51.5339,-77.3015,98.1372,7403.76,-2303.68,1918.53,50.2774,8.05218,20.8138
3.976,8833.16,-6944.22,11691.9,-99.6421,350.29,208.082,5317.13,2434.57,8135.75,5.29434,-23.03,26.826,5782.34,11870.6,-1297.6,196.06,29.5481,358.154,-751.252,-10110.4,-2761.71,1.34414,-32.3533,41.9543,-6263.28,1104.39,-536.916,-34.2443,190.557,135.051,436.054,-8234.44,-5367.84,-52.965,-74.5456,98.3729,7385.62,-2287.02,1876.57,50.7993,7.80182,19.8726
3.977,9044.84,-7135.99,11828.5,-99.2117,349.319,209.67,5550.94,1882.84,8148.97,4.91906,-22.9382,26.7997,5759.45,12042.2,-1325.25,197.803,32.5099,358.715,-627.019,-10195.0,-2491.75,2.09613,-32.0433,42.523,-6335.5,1136.71,-636.479,-36.6964,190.041,133.14,270.413,-8245.5,-5410.93,-54.396,-71.7897,98.6086,7367.48,-2270.36,1834.62,51.3213,7.55145,18.9313
3.978,9266.95,-7349.13,11955.7,-98.5597,348.342,211.263,5730.08,1425.94,8153.63,4.38374,-22.8415,26.5628,5740.57,12226.2,-1356.58,199.513,35.5396,359.254,-539.334,-10239.8,-2250.01,2.63658,-31.8904,43.0148,-6427.46,1164.03,-730.156,-38.9826,189.294,131.163,123.358,-8265.17,-5438.14,-55.6761,-69.3222,98.7935,7349.46,-2234.59,1803.08,51.8057,7.24762,18.0671
3.979,9525.52,-7637.1,12050.0,-97.1324,347.344,212.872,5717.91,1300.93,8128.38,3.28831,-22.7275,25.5886,5735.67,12453.7,-1400.75,201.106,38.8065,359.715,-579.566,-10145.0,-2107.05,2.43665,-32.2873,43.2371,-6588.52,1173.88,-803.236,-40.6878,187.742,128.955,41.35,-8314.99,-5409.72,-56.4281,-67.8643,98.8009,7331.9,-2131.95,1807.97,52.159,6.75667,17.4724
3.98,9784.1,-7925.06,12144.3,-95.7051,346.347,214.482,5705.74,1175.93,8103.13,2.19288,-22.6135,24.6145,5730.78,12681.3,-1444.93,202.699,42.0735,360.176,-619.798,-10050.3,-1964.09,2.23673,-32.6842,43.4593,-6749.58,1183.73,-876.315,-42.3931,186.19,126.747,-40.6577,-8364.8,-5381.31,-57.1801,-66.4063,98.8083,7314.33,-2029.31,1812.86,52.5123,6.26572,16.8778
3.981,10042.7,-8213.03,12238.5,-94.2778,345.35,216.092,5693.56,1050.92,8077.88,1.09745,-22.4995,23.6404,5725.89,12908.8,-1489.1,204.293,45.3405,360.638,-660.03,-9955.53,-1821.14,2.0368,-33.081,43.6816,-6910.65,1193.58,-949.395,-44.0983,184.637,124.539,-122.665,-8414.61,-5352.89,-57.9321,-64.9484,98.8156,7296.77,-1926.68,1817.76,52.8656,5.77477,16.2831
3.982,10301.2,-8500.99,12332.8,-92.8505,344.353,217.702,5681.39,925.916,8052.63,0.00202199,-22.3855,22.6662,5721.0,13136.3,-1533.28,205.886,48.6074,361.099,-700.263,-9860.78,-1678.18,1.83688,-33.4779,43.9039,-7071.71,1203.43,-1022.47,-45.8035,183.085,122.331,-204.673,-8464.42,-5324.48,-58.6841,-63.4905,98.823,7279.2,-1824.04,1822.65,53.2189,5.28382,15.6884
3.983,10542.0,-8696.67,12435.5,-90.3171,343.04,219.792,5566.41,1110.99,8015.63,-0.618258,-22.291,22.0714,5707.93,13386.8,-1573.57,207.859,51.6526,361.404,-793.494,-9765.28,-1659.74,1.47461,-34.0204,44.27,-7207.25,1235.77,-1009.36,-47.0894,180.267,120.138,-239.962,-8563.6,-5223.76,-58.6215,-63.1405,98.4399,7257.6,-1745.58,1823.85,53.4934,4.58561,15.2718
3.984,10777.6,-8865.97,12540.6,-87.4676,341.637,222.019,5422.05,1384.65,7975.27,-1.10278,-22.2019,21.5849,5692.52,13643.9,-1612.76,209.941,54.6344,361.665,-901.868,-9669.57,-1676.87,1.06596,-34.6044,44.6772,-7335.5,1274.54,-971.63,-48.2555,177.087,117.951,-261.903,-8676.89,-5102.38,-58.3262,-63.1071,97.9452,7234.85,-1674.02,1824.0,53.7453,3.82818,14.9061
3.985,11013.3,-9035.27,12645.6,-84.6182,340.234,224.246,5277.7,1658.32,7934.92,-1.5873,-22.1129,21.0984,5677.11,13901.0,-1651.94,212.024,57.6163,361.926,-1010.24,-9573.87,-1694.0,0.657307,-35.1885,45.0845,-7463.76,1313.3,-933.896,-49.4215,173.908,115.763,-283.844,-8790.17,-4981.01,-58.0309,-63.0737,97.4505,7212.1,-1602.47,1824.14,53.9973,3.07075,14.5404
3.986,11248.9,-9204.57,12750.7,-81.7687,338.832,226.473,5133.35,1931.98,7894.56,-2.07183,-22.0239,20.6119,5661.7,14158.1,-1691.13,214.106,60.5981,362.187,-1118.62,-9478.16,-1711.13,0.248656,-35.7726,45.4917,-7592.01,1352.06,-896.161,-50.5876,170.728,113.575,-305.786,-8903.46,-4859.63,-57.7357,-63.0403,96.9558,7189.36,-1530.92,1824.29,54.2492,2.31332,14.1747
3.987,11465.2,-9338.97,12826.9,-78.7522,337.409,228.769,5014.2,2162.44,7866.92,-2.25315,-21.9756,20.4439,5640.42,14422.5,-1720.31,216.063,63.5658,362.468,-1192.16,-9421.42,-1743.53,-0.011261,-36.3204,45.8607,-7728.59,1415.08,-844.649,-52.0235,166.875,111.634,-299.848,-9002.92,-4718.04,-57.1174,-63.2495,96.3728,7163.34,-1458.9,1816.49,54.537,1.50822,13.7466
3.988,11642.7,-9403.54,12845.1,-75.4016,335.948,231.205,4945.45,2306.49,7864.72,-1.82808,-22.0088,20.9128,5607.38,14701.3,-1729.48,217.771,66.5054,362.79,-1196.05,-9442.64,-1806.45,0.0262895,-36.7957,46.1532,-7881.86,1526.59,-765.58,-53.9992,161.675,110.185,-238.154,-9074.73,-4536.02,-55.8531,-63.9439,95.6131,7130.78,-1385.96,1792.8,54.8965,0.607786,13.1937
3.989,11820.2,-9468.12,12863.4,-72.051,334.487,233.641,4876.71,2450.54,7862.51,-1.403,-22.042,21.3817,5574.35,14980.1,-1738.66,219.479,69.4449,363.112,-1199.94,-9463.85,-1869.37,0.0638401,-37.2709,46.4457,-8035.12,1638.1,-686.511,-55.975,156.475,108.736,-176.46,-9146.54,-4354.0,-54.5888,-64.6383,94.8533,7098.22,-1313.03,1769.12,55.2561,-0.292652,12.6409
3.99,11997.7,-9532.69,12881.7,-68.7004,333.026,236.076,4807.97,2594.59,7860.3,-0.97793,-22.0752,21.8507,5541.32,15259.0,-1747.83,221.187,72.3845,363.433,-1203.83,-9485.06,-1932.3,0.101391,-37.7462,46.7383,-8188.38,1749.61,-607.442,-57.9507,151.275,107.287,-114.766,-9218.36,-4171.98,-53.3246,-65.3328,94.0936,7065.67,-1240.09,1745.44,55.6156,-1.19309,12.088
3.991,12175.2,-9597.27,12899.9,-65.3498,331.565,238.512,4739.22,2738.64,7858.1,-0.552856,-22.1083,22.3196,5508.28,15537.8,-1757.01,222.895,75.324,363.755,-1207.72,-9506.27,-1995.22,0.138941,-38.2215,47.0308,-8341.64,1861.11,-528.373,-59.9265,146.076,105.838,-53.0718,-9290.17,-3989.96,-52.0603,-66.0272,93.3339,7033.11,-1167.15,1721.75,55.9752,-2.09353,11.5351
3.992,12326.3,-9656.37,12931.9,-61.8553,329.629,240.892,4749.22,2665.91,7896.01,-0.235504,-22.1049,22.7361,5501.3,15827.8,-1751.94,223.931,78.6931,364.042,-1151.67,-9487.58,-2001.14,0.156999,-38.3997,47.4397,-8416.45,1992.4,-395.31,-63.4721,139.277,104.849,-25.204,-9357.11,-3807.7,-49.8875,-66.6933,92.5176,6989.74,-1113.03,1728.34,55.98,-2.93497,11.2385
3.993,12474.2,-9714.79,12965.5,-58.3428,327.633,243.264,4769.05,2566.08,7938.95,0.0683827,-22.0968,23.1459,5497.57,16119.2,-1745.09,224.883,82.1158,364.325,-1088.13,-9463.91,-1999.93,0.17262,-38.5407,47.8631,-8481.46,2126.16,-255.498,-67.2141,132.279,103.917,-1.56456,-9423.44,-3625.41,-47.6011,-67.3559,91.6943,6945.03,-1061.26,1738.7,55.9404,-3.76903,10.9739
3.994,12622.0,-9773.21,12999.2,-54.8304,325.637,245.636,4788.88,2466.25,7981.88,0.37227,-22.0888,23.5558,5493.84,16410.6,-1738.24,225.836,85.5386,364.608,-1024.6,-9440.24,-1998.72,0.188241,-38.6817,48.2865,-8546.46,2259.91,-115.687,-70.956,125.281,102.986,22.0749,-9489.77,-3443.12,-45.3148,-68.0184,90.8709,6900.32,-1009.48,1749.07,55.9009,-4.60309,10.7093
3.995,12769.9,-9831.63,13032.9,-51.318,323.641,248.009,4808.72,2366.42,8024.81,0.676156,-22.0808,23.9657,5490.11,16702.1,-1731.39,226.788,88.9613,364.891,-961.059,-9416.56,-1997.51,0.203862,-38.8227,48.7099,-8611.46,2393.67,24.1252,-74.6979,118.283,102.054,45.7144,-9556.1,-3260.83,-43.0284,-68.681,90.0475,6855.6,-957.712,1759.44,55.8614,-5.43715,10.4448
3.996,12903.7,-9809.81,13080.7,-48.0217,321.288,250.65,4828.19,2276.05,8062.09,0.914275,-22.0897,24.2453,5481.2,17012.0,-1742.19,227.865,92.5615,365.081,-897.822,-9378.69,-2003.76,0.232695,-38.9002,49.2246,-8685.63,2522.96,184.954,-79.0891,110.442,101.672,84.427,-9612.31,-3077.87,-40.6566,-69.2592,89.3189,6808.16,-927.997,1748.08,55.8987,-6.32973,10.1505
3.997,13020.1,-9687.69,13146.4,-44.9956,318.487,253.626,4847.22,2197.48,8092.31,1.07018,-22.1198,24.362,5465.82,17345.1,-1775.07,229.097,96.3833,365.155,-834.96,-9323.08,-2019.35,0.278042,-38.8986,49.8535,-8771.25,2646.67,372.053,-84.2918,101.548,101.977,141.981,-9655.87,-2894.05,-38.1779,-69.7322,88.7088,6757.32,-925.852,1709.54,56.032,-7.29544,9.81916
3.998,13136.5,-9565.57,13212.0,-41.9695,315.687,256.603,4866.24,2118.92,8122.53,1.22609,-22.15,24.4787,5450.44,17678.2,-1807.95,230.33,100.205,365.228,-772.099,-9267.47,-2034.94,0.323389,-38.8969,50.4825,-8856.87,2770.38,559.152,-89.4945,92.6531,102.283,199.535,-9699.43,-2710.24,-35.6992,-70.2052,88.0987,6706.48,-923.707,1671.01,56.1654,-8.26116,9.48782
3.999,13252.9,-9443.45,13277.7,-38.9434,312.887,259.58,4885.27,2040.35,8152.75,1.382,-22.1801,24.5954,5435.06,18011.3,-1840.82,231.562,104.027,365.302,-709.238,-9211.85,-2050.53,0.368736,-38.8952,51.1114,-8942.5,2894.09,746.252,-94.6972,83.7586,102.588,257.089,-9743.0,-2526.43,-33.2206,-70.6781,87.4885,6655.64,-921.562,1632.48,56.2988,-9.22688,9.15647
4.0,13369.2,-9321.33,13343.3,-35.9173,310.086,262.556,4904.3,1961.79,8182.97,1.5379,-22.2102,24.7121,5419.68,18344.4,-1873.7,232.794,107.849,365.375,-646.377,-9156.24,-2066.12,0.414083,-38.8935,51.7403,-9028.12,3017.8,933.351,-99.8999,74.864,102.893,314.644,-9786.56,-2342.61,-30.7419,-71.1511,86.8784,6604.8,-919.417,1593.94,56.4321,-10.1926,8.82512
4.001,13532.3,-9127.16,13364.6,-34.3642,306.935,265.585,4884.56,1928.06,8216.08,1.83517,-22.4624,24.695,5328.21,18679.0,-1890.58,233.714,112.028,365.636,-624.438,-9191.11,-2051.19,0.648115,-38.6376,52.239,-9104.49,3058.08,1233.12,-105.26,64.8485,103.806,378.605,-9813.82,-2098.76,-28.8231,-72.0573,86.1745,6621.75,-817.114,1587.34,56.3094,-10.8908,8.58485
4.002,13695.3,-8932.98,13386.0,-32.8111,303.783,268.614,4864.82,1894.33,8249.19,2.13244,-22.7145,24.6779,5236.73,19013.7,-1907.45,234.634,116.207,365.897,-602.498,-9225.98,-2036.26,0.882146,-38.3818,52.7377,-9180.87,3098.36,1532.89,-110.62,54.833,104.718,442.567,-9841.07,-1854.9,-26.9042,-72.9635,85.4705,6638.69,-714.811,1580.74,56.1866,-11.589,8.34457
4.003,13858.3,-8738.81,13407.3,-31.258,300.632,271.643,4845.08,1860.6,8282.29,2.42971,-22.9666,24.6608,5145.25,19348.4,-1924.33,235.553,120.386,366.157,-580.559,-9260.85,-2021.34,1.11618,-38.1259,53.2365,-9257.24,3138.64,1832.66,-115.979,44.8174,105.631,506.529,-9868.33,-1611.04,-24.9854,-73.8696,84.7666,6655.64,-612.509,1574.14,56.0639,-12.2872,8.1043
4.004,14021.4,-8544.64,13428.6,-29.7049,297.48,274.671,4825.34,1826.88,8315.4,2.72698,-23.2187,24.6437,5053.78,19683.0,-1941.21,236.473,124.564,366.418,-558.62,-9295.73,-2006.41,1.35021,-37.87,53.7352,-9333.61,3178.92,2132.43,-121.339,34.8019,106.543,570.491,-9895.59,-1367.18,-23.0665,-74.7758,84.0627,6672.59,-510.206,1567.54,55.9412,-12.9854,7.86402
4.005,14215.1,-8441.41,13446.4,-28.481,294.118,277.471,4816.1,1808.52,8332.38,3.10957,-23.5368,24.5897,4951.23,19968.3,-1918.34,237.116,128.551,366.556,-563.129,-9365.85,-1977.35,1.50275,-37.7498,54.2672,-9399.17,3178.68,2386.96,-125.911,25.0174,107.659,639.534,-9928.8,-1102.08,-21.7027,-76.4766,83.3939,6681.36,-446.158,1559.61,55.8548,-13.7557,7.78259
4.006,14433.5,-8410.93,13461.3,-27.5204,290.587,280.087,4815.26,1802.46,8336.45,3.56041,-23.9076,24.5063,4839.82,20214.0,-1863.68,237.54,132.384,366.598,-588.795,-9464.18,-1936.99,1.5901,-37.7382,54.8258,-9456.08,3146.01,2605.29,-129.852,15.4177,108.938,712.641,-9966.79,-819.99,-20.783,-78.8132,82.7534,6683.58,-412.714,1550.62,55.7976,-14.5837,7.82823
4.007,14651.9,-8380.45,13476.3,-26.5598,287.056,282.704,4814.42,1796.39,8340.52,4.01126,-24.2784,24.4229,4728.41,20459.8,-1809.01,237.963,136.217,366.639,-614.462,-9562.51,-1896.62,1.67745,-37.7266,55.3844,-9512.98,3113.35,2823.62,-133.793,5.81798,110.217,785.748,-10004.8,-537.895,-19.8632,-81.1497,82.1128,6685.81,-379.27,1541.64,55.7403,-15.4117,7.87387
4.008,14870.2,-8349.97,13491.3,-25.5993,283.526,285.32,4813.58,1790.33,8344.6,4.4621,-24.6492,24.3395,4617.0,20705.5,-1754.34,238.386,140.05,366.681,-640.128,-9660.84,-1856.26,1.7648,-37.715,55.9431,-9569.89,3080.68,3041.95,-137.734,-3.78172,111.495,858.855,-10042.8,-255.8,-18.9434,-83.4862,81.4723,6688.03,-345.826,1532.65,55.6831,-16.2396,7.91952
4.009,15092.1,-8331.98,13506.2,-24.5844,279.939,287.89,4817.49,1786.63,8348.51,4.92494,-25.0254,24.2663,4504.08,20947.2,-1700.37,238.768,143.817,366.692,-667.268,-9758.94,-1821.59,1.83555,-37.7387,56.4975,-9616.53,3044.53,3248.88,-141.516,-13.1454,112.793,932.707,-10077.3,25.7674,-18.1699,-86.0058,80.8276,6690.58,-310.45,1523.1,55.6198,-17.0573,7.94053
4.01,15342.0,-8413.92,13520.8,-23.1351,275.902,290.092,4859.41,1801.84,8351.13,5.48364,-25.4448,24.2752,4379.15,21156.3,-1651.97,238.82,147.059,366.466,-706.203,-9855.19,-1832.43,1.77353,-38.0447,57.0179,-9580.98,2980.54,3364.54,-144.023,-20.621,114.241,1012.52,-10083.7,303.112,-18.5664,-89.99,80.1494,6695.73,-259.61,1509.0,55.5081,-17.792,7.76449
4.011,15591.8,-8495.87,13535.3,-21.6858,271.866,292.293,4901.33,1817.05,8353.75,6.04234,-25.8643,24.2842,4254.22,21365.4,-1603.58,238.873,150.302,366.24,-745.137,-9951.44,-1843.28,1.71151,-38.3507,57.5383,-9545.43,2916.55,3480.2,-146.53,-28.0967,115.689,1092.33,-10090.2,580.457,-18.9629,-93.9742,79.4713,6700.88,-208.77,1494.89,55.3964,-18.5267,7.58846
4.012,15841.7,-8577.82,13549.9,-20.2365,267.829,294.494,4943.26,1832.26,8356.37,6.60104,-26.2837,24.2931,4129.28,21574.5,-1555.18,238.925,153.544,366.014,-784.071,-10047.7,-1854.12,1.64949,-38.6568,58.0588,-9509.89,2852.56,3595.86,-149.037,-35.5723,117.137,1172.15,-10096.7,857.802,-19.3594,-97.9583,78.7932,6706.04,-157.931,1480.79,55.2847,-19.2615,7.41242
4.013,16091.6,-8659.76,13564.5,-18.7872,263.793,296.695,4985.18,1847.47,8358.99,7.15974,-26.7031,24.3021,4004.35,21783.6,-1506.78,238.977,156.787,365.787,-823.005,-10143.9,-1864.97,1.58748,-38.9628,58.5792,-9474.34,2788.56,3711.52,-151.544,-43.0479,118.585,1251.96,-10103.2,1135.15,-19.7559,-101.943,78.1151,6711.19,-107.091,1466.69,55.173,-19.9962,7.23639
4.014,16365.5,-8713.05,13538.1,-16.9506,259.733,299.034,4975.13,1878.45,8399.88,7.86208,-27.2504,24.3899,3839.34,22000.1,-1481.75,238.617,159.604,365.335,-846.05,-10212.7,-1863.38,1.49101,-39.2003,59.1057,-9402.16,2751.62,3738.41,-153.762,-48.3829,119.916,1309.3,-10093.8,1336.87,-20.4155,-106.534,77.5464,6738.81,-60.5619,1465.66,54.8964,-20.8846,7.11937
4.015,16651.5,-8752.0,13491.2,-14.9205,255.662,301.441,4939.1,1917.33,8459.9,8.63624,-27.8616,24.517,3654.3,22220.3,-1468.41,238.05,162.208,364.77,-861.15,-10267.7,-1855.57,1.37731,-39.4036,59.6353,-9311.64,2728.2,3720.9,-155.836,-52.6476,121.188,1355.4,-10076.6,1500.79,-21.2067,-111.428,77.0325,6777.67,-16.1883,1471.16,54.5375,-21.8499,7.03186
4.016,16937.4,-8790.96,13444.3,-12.8903,251.59,303.848,4903.06,1956.2,8519.93,9.41041,-28.4727,24.6442,3469.26,22440.5,-1455.06,237.484,164.813,364.205,-876.25,-10322.8,-1847.77,1.26362,-39.6069,60.1649,-9221.13,2704.78,3703.4,-157.91,-56.9123,122.46,1401.5,-10059.3,1664.71,-21.9979,-116.323,76.5186,6816.53,28.1853,1476.66,54.1786,-22.8152,6.94436
4.017,17223.3,-8829.92,13397.4,-10.8602,247.519,306.254,4867.02,1995.08,8579.95,10.1846,-29.0839,24.7713,3284.21,22660.7,-1441.71,236.917,167.417,363.64,-891.35,-10377.8,-1839.96,1.14993,-39.8102,60.6945,-9130.63,2681.36,3685.9,-159.984,-61.177,123.732,1447.6,-10042.1,1828.63,-22.7891,-121.217,76.0047,6855.39,72.5589,1482.16,53.8197,-23.7805,6.85685
4.018,17500.5,-8839.95,13351.6,-8.65244,243.478,308.789,4835.8,2025.02,8633.16,10.9256,-29.7069,24.8728,3079.39,22887.9,-1442.7,236.152,169.91,362.989,-897.867,-10430.9,-1842.19,1.06693,-39.9749,61.211,-9018.86,2660.38,3642.75,-161.791,-64.5965,124.869,1491.54,-10033.3,1957.31,-23.528,-126.004,75.5026,6893.12,115.776,1484.25,53.5114,-24.721,6.79931
4.019,17747.4,-8748.77,13309.9,-5.82314,239.545,311.768,4821.41,2023.72,8662.52,11.5508,-30.3715,24.8845,2805.35,23139.5,-1493.89,234.692,172.01,362.039,-874.343,-10477.3,-1879.53,1.09137,-40.0043,61.6813,-8832.67,2647.96,3509.82,-162.667,-65.0578,125.529,1527.9,-10053.9,1962.65,-24.0841,-130.415,75.0417,6926.88,154.944,1474.37,53.3804,-25.5748,6.84663
4.02,17994.3,-8657.59,13268.3,-2.99385,235.612,314.748,4807.02,2022.42,8691.88,12.176,-31.0361,24.8961,2531.31,23391.0,-1545.07,233.232,174.111,361.089,-850.819,-10523.7,-1916.87,1.11581,-40.0337,62.1517,-8646.5,2635.53,3376.9,-163.543,-65.5191,126.189,1564.26,-10074.6,1967.99,-24.6401,-134.825,74.5808,6960.64,194.111,1464.49,53.2493,-26.4286,6.89395
4.021,18241.3,-8566.41,13226.6,-0.164555,231.678,317.727,4792.64,2021.13,8721.24,12.8011,-31.7007,24.9078,2257.28,23642.6,-1596.26,231.771,176.212,360.138,-827.295,-10570.0,-1954.21,1.14025,-40.0632,62.622,-8460.31,2623.1,3243.98,-164.419,-65.9804,126.849,1600.62,-10095.2,1973.32,-25.1962,-139.236,74.1198,6994.4,233.279,1454.6,53.1183,-27.2823,6.94127
4.022,18488.2,-8475.23,13184.9,2.66474,227.745,320.707,4778.25,2019.83,8750.6,13.4263,-32.3652,24.9194,1983.24,23894.2,-1647.44,230.311,178.312,359.188,-803.77,-10616.4,-1991.55,1.1647,-40.0926,63.0924,-8274.13,2610.67,3111.06,-165.295,-66.4417,127.509,1636.98,-10115.9,1978.66,-25.7523,-143.646,73.6589,7028.15,272.447,1444.72,52.9873,-28.1361,6.98858
4.023,18793.2,-8230.33,13196.0,5.51513,224.029,324.19,4761.53,2073.29,8742.44,13.5135,-32.9958,25.0706,1620.51,24183.0,-1685.92,228.468,179.8,358.15,-754.634,-10627.0,-2024.53,1.17714,-40.0531,63.5777,-8026.21,2551.58,2913.17,-164.037,-63.6541,127.077,1594.28,-10186.7,1866.24,-26.2378,-147.05,73.1637,7058.34,299.917,1433.49,52.7926,-28.7973,6.96504
4.024,19114.8,-7941.51,13222.1,8.37155,220.374,327.817,4744.14,2142.4,8723.56,13.4469,-33.6167,25.2616,1232.43,24482.5,-1720.76,226.515,181.112,357.085,-698.179,-10627.4,-2056.27,1.18617,-39.9938,64.0673,-7760.64,2479.17,2696.72,-162.17,-59.9382,126.333,1528.98,-10271.8,1720.18,-26.7031,-150.167,72.6587,7087.5,324.044,1421.86,52.5797,-29.4034,6.92125
4.025,19436.5,-7652.69,13248.2,11.228,216.719,331.444,4726.75,2211.51,8704.67,13.3804,-34.2375,25.4526,844.362,24782.0,-1755.61,224.562,182.424,356.021,-641.725,-10627.8,-2088.0,1.19519,-39.9346,64.5568,-7495.07,2406.76,2480.26,-160.303,-56.2222,125.588,1463.69,-10356.9,1574.11,-27.1684,-153.283,72.1537,7116.66,348.172,1410.23,52.3669,-30.0095,6.87745
4.026,19758.1,-7363.87,13274.3,14.0844,213.065,335.071,4709.36,2280.62,8685.79,13.3138,-34.8583,25.6436,456.29,25081.5,-1790.45,222.609,183.737,354.957,-585.27,-10628.2,-2119.74,1.20421,-39.8754,65.0464,-7229.5,2334.35,2263.8,-158.436,-52.5063,124.844,1398.39,-10441.9,1428.05,-27.6336,-156.4,71.6488,7145.82,372.299,1398.61,52.154,-30.6156,6.83366
4.027,20097.7,-7080.98,13303.1,16.6285,209.649,338.632,4703.24,2346.71,8666.38,13.3825,-35.4422,25.983,46.5053,25373.7,-1805.68,220.413,184.532,353.931,-542.165,-10622.1,-2137.94,1.23154,-39.7027,65.5438,-6960.98,2273.86,2077.12,-155.852,-48.1493,123.796,1342.86,-10526.3,1254.24,-27.8726,-158.993,71.1289,7157.75,391.964,1384.7,51.9326,-31.2534,6.82958
4.028,20473.1,-6809.99,13336.9,18.5478,206.712,342.063,4719.67,2406.76,8645.94,13.7218,-35.9519,26.619,-406.707,25651.3,-1781.7,217.73,184.291,352.981,-525.76,-10603.0,-2129.06,1.29549,-39.3033,66.0571,-6686.56,2237.19,1950.0,-151.832,-42.5104,122.14,1306.86,-10609.3,1024.94,-27.6591,-160.538,70.5795,7135.19,402.704,1366.24,51.694,-31.9545,6.90493
4.029,20848.5,-6538.99,13370.8,20.4672,203.775,345.493,4736.09,2466.8,8625.5,14.0611,-36.4616,27.255,-859.918,25928.8,-1757.71,215.048,184.051,352.032,-509.354,-10583.8,-2120.18,1.35943,-38.9039,66.5704,-6412.14,2200.53,1822.87,-147.812,-36.8714,120.485,1270.86,-10692.3,795.645,-27.4455,-162.084,70.0301,7112.64,413.445,1347.78,51.4554,-32.6556,6.98027
4.03,21223.9,-6267.99,13404.7,22.3866,200.839,348.924,4752.52,2526.85,8605.05,14.4003,-36.9714,27.891,-1313.13,26206.4,-1733.73,212.366,183.811,351.082,-492.949,-10564.7,-2111.3,1.42337,-38.5044,67.0836,-6137.73,2163.87,1695.75,-143.792,-31.2325,118.829,1234.86,-10775.3,566.349,-27.2319,-163.63,69.4806,7090.08,424.185,1329.32,51.2168,-33.3568,7.05562
4.031,21599.3,-5996.99,13438.6,24.306,197.902,352.354,4768.95,2586.9,8584.61,14.7396,-37.4811,28.527,-1766.34,26484.0,-1709.74,209.684,183.571,350.132,-476.543,-10545.5,-2102.43,1.48731,-38.105,67.5969,-5863.31,2127.21,1568.62,-139.773,-25.5935,117.173,1198.85,-10858.3,337.052,-27.0183,-165.176,68.9312,7067.53,434.925,1310.85,50.9782,-34.0579,7.13097
4.032,21980.0,-5907.31,13366.4,25.6834,195.985,354.5,4794.73,2495.04,8608.76,14.9202,-38.0976,28.694,-2200.51,26642.1,-1641.83,206.341,181.909,349.293,-488.604,-10534.6,-2074.19,1.61837,-37.5724,68.1364,-5561.46,2158.7,1485.75,-135.242,-19.9795,115.338,1161.45,-10959.2,88.361,-25.8375,-165.594,68.1211,7035.96,418.089,1307.65,50.9504,-34.6928,7.13673
4.033,22361.3,-5840.3,13281.0,26.9932,194.196,356.485,4821.68,2384.2,8638.49,15.081,-38.7273,28.8025,-2632.3,26785.2,-1568.43,202.914,180.069,348.467,-504.223,-10524.7,-2043.53,1.75783,-37.0232,68.6793,-5256.18,2198.71,1408.42,-130.647,-14.3687,113.48,1123.88,-11062.4,-162.754,-24.5357,-165.872,67.2785,7003.27,397.806,1306.36,50.9489,-35.3195,7.1338
4.034,22742.6,-5773.29,13195.6,28.3029,192.406,358.47,4848.63,2273.36,8668.21,15.2417,-39.3571,28.911,-3064.08,26928.3,-1495.03,199.488,178.23,347.641,-519.841,-10514.8,-2012.87,1.89728,-36.474,69.2221,-4950.9,2238.72,1331.09,-126.053,-8.75784,111.622,1086.3,-11165.6,-413.87,-23.2339,-166.15,66.4358,6970.57,377.523,1305.07,50.9475,-35.9461,7.13086
4.035,23123.9,-5706.27,13110.2,29.6126,190.617,360.456,4875.58,2162.52,8697.94,15.4025,-39.9869,29.0194,-3495.87,27071.4,-1421.63,196.062,176.391,346.815,-535.46,-10504.9,-1982.21,2.03673,-35.9248,69.765,-4645.63,2278.73,1253.75,-121.458,-3.147,109.764,1048.72,-11268.8,-664.985,-21.9321,-166.428,65.5932,6937.88,357.24,1303.78,50.946,-36.5727,7.12793
4.036,23498.1,-5745.35,12986.3,31.2958,189.42,361.84,4891.22,2078.78,8709.19,15.283,-40.5168,28.9609,-3893.67,27154.9,-1371.21,192.717,174.072,345.97,-552.245,-10497.5,-1929.58,2.15542,-35.4756,70.2958,-4375.75,2350.44,1183.93,-117.072,2.27636,107.985,1027.73,-11354.6,-924.097,-20.1566,-166.427,64.8052,6931.89,340.725,1322.64,50.9318,-37.1602,7.11971
4.037,23863.4,-5917.05,12814.2,33.4457,188.963,362.472,4892.7,2028.89,8697.35,14.8132,-40.9218,28.6937,-4249.0,27163.8,-1349.5,189.475,171.155,345.102,-570.487,-10493.2,-1849.5,2.24816,-35.1512,70.8115,-4150.14,2461.76,1123.51,-112.945,7.46536,106.306,1027.47,-11418.7,-1193.21,-17.7889,-166.078,64.0857,6959.29,328.92,1366.67,50.9018,-37.6988,7.10487
4.038,24228.6,-6088.74,12642.1,35.5956,188.507,363.104,4894.19,1979.0,8685.52,14.3434,-41.3269,28.4265,-4604.32,27172.6,-1327.79,186.233,168.237,344.234,-588.73,-10488.8,-1769.42,2.3409,-34.8268,71.3272,-3924.53,2573.07,1063.08,-108.819,12.6544,104.626,1027.22,-11482.7,-1462.31,-15.4212,-165.729,63.3662,6986.69,317.115,1410.7,50.8718,-38.2375,7.09004
4.039,24593.9,-6260.43,12470.0,37.7454,188.05,363.736,4895.68,1929.12,8673.68,13.8736,-41.732,28.1593,-4959.65,27181.5,-1306.08,182.99,165.32,343.366,-606.972,-10484.4,-1689.34,2.43364,-34.5024,71.8429,-3698.91,2684.39,1002.66,-104.693,17.8434,102.946,1026.96,-11546.8,-1731.42,-13.0534,-165.379,62.6467,7014.09,305.31,1454.74,50.8418,-38.7761,7.0752
4.04,24959.1,-6432.13,12298.0,39.8953,187.593,364.368,4897.16,1879.23,8661.84,13.4038,-42.1371,27.8922,-5314.97,27190.3,-1284.38,179.748,162.402,342.497,-625.215,-10480.1,-1609.26,2.52638,-34.178,72.3586,-3473.3,2795.71,942.232,-100.567,23.0324,101.267,1026.7,-11610.8,-2000.53,-10.6857,-165.03,61.9271,7041.49,293.504,1498.77,50.8117,-39.3148,7.06037
4.041,25295.9,-6665.56,12060.1,42.9063,187.927,363.813,4916.07,1846.7,8618.26,13.5266,-42.5174,27.8587,-5615.36,27109.4,-1399.56,177.559,159.478,341.329,-638.567,-10477.1,-1532.93,2.67258,-33.8402,72.8754,-3265.11,2948.58,986.291,-96.9324,27.883,100.169,1047.57,-11580.9,-2226.7,-7.37422,-164.232,61.4044,7040.59,250.222,1478.74,50.682,-39.9058,7.13658
4.042,25632.7,-6899.0,11822.3,45.9172,188.26,363.258,4934.98,1814.17,8574.68,13.6494,-42.8977,27.8252,-5915.75,27028.5,-1514.74,175.369,156.553,340.161,-651.92,-10474.2,-1456.6,2.81877,-33.5024,73.3921,-3056.91,3101.44,1030.35,-93.2981,32.7336,99.0713,1068.44,-11551.0,-2452.88,-4.06272,-163.435,60.8817,7039.69,206.939,1458.7,50.5523,-40.4967,7.21279
4.043,25969.4,-7132.44,11584.5,48.9281,188.594,362.703,4953.9,1781.64,8531.09,13.7721,-43.2781,27.7917,-6216.15,26947.6,-1629.93,173.18,153.628,338.993,-665.273,-10471.3,-1380.27,2.96497,-33.1645,73.9089,-2848.72,3254.31,1074.41,-89.6639,37.5843,97.9736,1089.32,-11521.1,-2679.05,-0.75122,-162.637,60.359,7038.79,163.656,1438.67,50.4225,-41.0877,7.289
4.044,26306.2,-7365.88,11346.7,51.939,188.928,362.147,4972.81,1749.11,8487.51,13.8949,-43.6584,27.7583,-6516.54,26866.7,-1745.11,170.99,150.703,337.825,-678.626,-10468.3,-1303.94,3.11117,-32.8267,74.4256,-2640.53,3407.17,1118.47,-86.0297,42.4349,96.876,1110.19,-11491.1,-2905.23,2.56028,-161.84,59.8363,7037.9,120.373,1418.63,50.2928,-41.6787,7.36522
4.045,26629.2,-7506.81,11114.4,54.6553,189.737,360.72,4994.49,1693.86,8470.2,13.5979,-44.0684,27.5029,-6783.27,26747.3,-1887.34,169.335,148.09,336.398,-697.885,-10471.2,-1245.04,3.24428,-32.5628,74.89,-2429.84,3569.6,1203.3,-83.1192,46.3467,95.8172,1151.72,-11427.7,-3090.66,5.93776,-160.917,59.3676,7051.54,77.7297,1389.54,50.259,-42.1079,7.39753
4.046,26941.1,-7573.74,10886.6,57.1359,190.927,358.596,5018.39,1620.42,8473.9,12.9652,-44.5021,27.07,-7023.08,26597.0,-2051.2,168.108,145.725,334.762,-721.868,-10478.6,-1200.09,3.36692,-32.3581,75.3124,-2217.15,3739.69,1320.75,-80.7875,49.5076,94.7896,1209.78,-11337.4,-3243.5,9.36802,-159.896,58.9421,7076.8,35.5985,1353.2,50.3021,-42.4075,7.39471
4.047,27253.1,-7640.66,10658.8,59.6165,192.117,356.472,5042.3,1546.98,8477.6,12.3324,-44.9359,26.6371,-7262.89,26446.8,-2215.06,166.881,143.36,333.126,-745.851,-10486.1,-1155.14,3.48956,-32.1533,75.7348,-2004.46,3909.77,1438.2,-78.4559,52.6684,93.7619,1267.84,-11247.1,-3396.34,12.7983,-158.874,58.5166,7102.07,-6.53279,1316.86,50.3451,-42.7072,7.3919
4.048,27565.0,-7707.59,10431.0,62.0971,193.307,354.347,5066.2,1473.54,8481.3,11.6996,-45.3696,26.2042,-7502.71,26296.6,-2378.92,165.653,140.995,331.491,-769.833,-10493.5,-1110.19,3.6122,-31.9486,76.1572,-1791.77,4079.85,1555.65,-76.1243,55.8292,92.7343,1325.9,-11156.9,-3549.18,16.2285,-157.852,58.0911,7127.34,-48.664,1280.52,50.3882,-43.0069,7.38908
4.049,27866.1,-7746.21,10202.8,64.44,194.491,352.108,5085.03,1407.62,8482.91,11.1485,-45.8095,25.7945,-7736.99,26148.1,-2546.59,164.508,138.685,329.803,-794.348,-10499.9,-1065.88,3.72763,-31.7426,76.5934,-1580.84,4256.65,1676.75,-73.9985,58.8551,91.6072,1395.4,-11052.6,-3707.08,19.715,-156.682,57.7815,7153.36,-91.3529,1241.16,50.4434,-43.2645,7.36659
4.05,28080.6,-7558.35,9971.37,65.6816,195.625,348.952,5063.3,1401.89,8467.83,11.2505,-46.2991,25.5708,-7927.1,26012.8,-2744.71,164.018,136.817,327.701,-823.111,-10497.9,-1026.63,3.78528,-31.5272,77.1397,-1383.94,4487.11,1827.08,-73.5191,60.8008,89.6842,1556.51,-10835.9,-3905.52,23.6511,-154.329,58.3988,7185.42,-138.502,1177.56,50.5966,-43.1853,7.18672
4.051,28295.0,-7370.5,9739.98,66.9232,196.758,345.796,5041.57,1396.16,8452.75,11.3524,-46.7887,25.347,-8117.2,25877.5,-2942.83,163.527,134.949,325.598,-851.873,-10495.8,-987.378,3.84294,-31.3118,77.6861,-1187.05,4717.57,1977.4,-73.0398,62.7465,87.7611,1717.61,-10619.2,-4103.97,27.5873,-151.975,59.016,7217.47,-185.652,1113.97,50.7498,-43.1062,7.00685
4.052,28509.4,-7182.65,9508.59,68.1649,197.892,342.64,5019.83,1390.42,8437.66,11.4544,-47.2783,25.1233,-8307.31,25742.1,-3140.96,163.037,133.08,323.496,-880.636,-10493.7,-948.129,3.90059,-31.0964,78.2324,-990.15,4948.03,2127.72,-72.5604,64.6922,85.8381,1878.72,-10402.5,-4302.41,31.5234,-149.622,59.6333,7249.52,-232.802,1050.38,50.903,-43.027,6.82697
4.053,28723.8,-6994.79,9277.2,69.4065,199.026,339.484,4998.1,1384.69,8422.58,11.5563,-47.7679,24.8996,-8497.41,25606.8,-3339.08,162.547,131.212,321.393,-909.399,-10491.6,-908.88,3.95825,-30.8809,78.7788,-793.253,5178.49,2278.05,-72.0811,66.638,83.915,2039.83,-10185.9,-4500.86,35.4596,-147.268,60.2506,7281.58,-279.951,986.783,51.0562,-42.9479,6.6471
4.054,28824.1,-6660.01,9032.33,69.157,200.041,335.832,4998.23,1379.36,8444.97,11.587,-48.2477,24.448,-8694.51,25502.7,-3544.45,162.234,129.518,319.126,-921.937,-10486.4,-894.433,3.99855,-30.6758,79.3088,-664.499,5501.19,2502.16,-72.452,67.6538,80.9294,2194.28,-10028.5,-4662.16,38.7997,-143.829,60.9976,7293.3,-326.837,961.475,51.2454,-42.8565,6.53121
4.055,28867.4,-6251.75,8780.73,68.1621,200.998,331.933,5009.29,1374.22,8486.08,11.582,-48.7226,23.8825,-8895.1,25414.3,-3753.44,162.008,127.911,316.777,-926.362,-10479.5,-892.387,4.03018,-30.4758,79.8305,-569.816,5870.02,2763.17,-73.248,68.2047,77.4126,2345.4,-9900.79,-4804.88,41.8418,-139.848,61.8095,7294.84,-373.591,955.309,51.4526,-42.7591,6.4473
4.056,28910.6,-5843.5,8529.12,67.1671,201.955,328.033,5020.35,1369.09,8527.2,11.5769,-49.1976,23.3169,-9095.7,25325.8,-3962.43,161.783,126.304,314.427,-930.787,-10472.7,-890.341,4.06181,-30.2758,80.3522,-475.133,6238.84,3024.18,-74.0441,68.7555,73.8957,2496.52,-9773.09,-4947.61,44.8839,-135.866,62.6214,7296.39,-420.345,949.144,51.6599,-42.6617,6.3634
4.057,28953.9,-5435.25,8277.52,66.1722,202.911,324.134,5031.41,1363.95,8568.32,11.5719,-49.6725,22.7514,-9296.29,25237.3,-4171.42,161.558,124.697,312.078,-935.212,-10465.8,-888.295,4.09344,-30.0758,80.874,-380.45,6607.66,3285.19,-74.8401,69.3064,70.3788,2647.64,-9645.39,-5090.34,47.926,-131.884,63.4333,7297.94,-467.099,942.979,51.8671,-42.5643,6.27949
4.058,28979.2,-5036.0,8025.56,64.6189,203.844,319.973,5038.12,1350.82,8606.31,11.6453,-50.165,22.2227,-9503.67,25168.5,-4373.06,161.337,123.021,309.794,-938.408,-10463.5,-882.654,4.18677,-29.9356,81.3952,-300.582,7024.98,3559.71,-75.9574,69.3802,66.4811,2796.34,-9515.14,-5216.54,50.2999,-127.56,64.2354,7317.01,-510.181,940.431,52.0244,-42.416,6.20435
4.059,28941.5,-4668.25,7772.38,61.1115,204.694,314.894,5029.59,1309.7,8633.32,11.9933,-50.7188,21.8231,-9734.8,25168.5,-4548.97,161.131,121.103,307.742,-937.302,-10477.4,-864.431,4.49606,-30.0044,81.9145,-272.568,7611.99,3881.52,-78.199,67.7846,61.2503,2936.57,-9375.99,-5284.87,50.335,-122.038,65.0034,7397.42,-540.41,950.543,52.0069,-42.0897,6.15987
4.06,28903.8,-4300.51,7519.19,57.6042,205.545,309.816,5021.06,1268.58,8660.34,12.3413,-51.2726,21.4234,-9965.92,25168.5,-4724.88,160.924,119.186,305.689,-936.196,-10491.3,-846.208,4.80535,-30.0733,82.4339,-244.553,8199.01,4203.32,-80.4405,66.1889,56.0195,3076.8,-9236.85,-5353.19,50.3701,-116.515,65.7713,7477.83,-570.64,960.655,51.9895,-41.7635,6.11539
4.061,28866.2,-3932.76,7266.01,54.0968,206.395,304.738,5012.54,1227.46,8687.36,12.6892,-51.8264,21.0238,-10197.0,25168.6,-4900.79,160.718,117.268,303.636,-935.09,-10505.2,-827.985,5.11464,-30.1421,82.9532,-216.538,8786.03,4525.13,-82.6821,64.5932,50.7887,3217.03,-9097.7,-5421.52,50.4053,-110.992,66.5393,7558.24,-600.869,970.768,51.972,-41.4373,6.07091
4.062,28828.5,-3565.02,7012.83,50.5894,207.245,299.659,5004.01,1186.35,8714.38,13.0372,-52.3801,20.6242,-10428.2,25168.6,-5076.7,160.512,115.351,301.584,-933.984,-10519.1,-809.762,5.42393,-30.211,83.4726,-188.523,9373.05,4846.93,-84.9236,62.9976,45.5579,3357.25,-8958.55,-5489.85,50.4404,-105.469,67.3073,7638.66,-631.099,980.88,51.9545,-41.111,6.02643
4.063,28799.7,-3326.19,6765.71,46.3406,207.654,293.747,4995.63,1180.35,8714.73,12.9438,-52.8888,20.2274,-10721.7,25136.9,-5208.62,160.295,112.705,299.583,-947.374,-10532.5,-836.824,5.64173,-30.4366,84.025,-23.0467,9984.4,5045.55,-86.4206,61.4092,41.1954,3526.55,-8811.85,-5478.25,49.0746,-99.0092,68.3576,7685.52,-640.233,973.937,51.7001,-40.7209,5.90241
4.064,28773.3,-3124.19,6520.32,41.8799,207.936,287.597,4987.29,1184.39,8707.46,12.7243,-53.3846,19.8315,-11033.1,25096.2,-5327.97,160.076,109.852,297.598,-964.904,-10545.8,-876.824,5.83338,-30.707,84.5868,181.705,10602.7,5208.96,-87.7048,59.8228,37.081,3704.15,-8662.98,-5443.8,47.3085,-92.2817,69.4887,7722.79,-643.341,962.12,51.3779,-40.3126,5.75566
4.065,28747.0,-2922.19,6274.94,37.4193,208.219,281.447,4978.96,1188.44,8700.2,12.5047,-53.8804,19.4356,-11344.4,25055.5,-5447.32,159.858,106.999,295.612,-982.435,-10559.0,-916.825,6.02504,-30.9774,85.1487,386.456,11221.0,5372.38,-88.989,58.2365,32.9666,3881.74,-8514.11,-5409.35,45.5424,-85.5541,70.6197,7760.06,-646.448,950.304,51.0558,-39.9042,5.60892
4.066,28720.7,-2720.2,6029.55,32.9586,208.501,275.297,4970.62,1192.48,8692.93,12.2852,-54.3762,19.0396,-11655.8,25014.8,-5566.67,159.639,104.146,293.627,-999.966,-10572.3,-956.825,6.21669,-31.2478,85.7105,591.208,11839.3,5535.8,-90.2732,56.6502,28.8521,4059.34,-8365.24,-5374.91,43.7764,-78.8266,71.7507,7797.34,-649.556,938.488,50.7336,-39.4959,5.46217
4.067,28688.3,-2561.64,5779.21,28.444,208.59,268.987,4957.46,1231.11,8698.34,12.1375,-54.9489,18.6983,-11986.3,24951.0,-5673.31,159.381,100.832,291.567,-1004.55,-10582.8,-992.564,6.41162,-31.487,86.3046,944.719,12356.3,5734.53,-90.9542,54.9109,25.7008,4237.71,-8237.37,-5283.32,41.4123,-72.2052,72.8095,7846.08,-650.463,915.572,50.4699,-39.0023,5.37863
4.068,28643.8,-2489.97,5518.94,23.8216,208.293,262.359,4934.67,1338.93,8729.1,12.1336,-55.6754,18.4661,-12355.0,24841.2,-5754.52,159.048,96.5984,289.357,-983.241,-10587.8,-1019.78,6.61311,-31.6635,86.9632,1595.75,12670.8,6003.89,-90.4286,52.8654,24.4756,4417.6,-8151.51,-5077.44,37.8524,-65.796,73.7239,7917.77,-646.97,870.459,50.3231,-38.338,5.42152
4.069,28599.2,-2418.29,5258.68,19.1991,207.995,255.731,4911.88,1446.74,8759.86,12.1296,-56.4019,18.2339,-12723.8,24731.4,-5835.74,158.714,92.3644,287.148,-961.931,-10592.8,-1046.99,6.81459,-31.8401,87.6218,2246.78,12985.2,6273.24,-89.9031,50.82,23.2504,4597.49,-8065.65,-4871.57,34.2925,-59.3868,74.6382,7989.45,-643.477,825.345,50.1762,-37.6738,5.46441
4.07,28554.7,-2346.62,4998.42,14.5766,207.697,249.103,4889.09,1554.55,8790.62,12.1256,-57.1284,18.0017,-13092.6,24621.5,-5916.96,158.381,88.1305,284.938,-940.622,-10597.8,-1074.2,7.01608,-32.0166,88.2804,2897.81,13299.7,6542.6,-89.3775,48.7746,22.0252,4777.39,-7979.79,-4665.69,30.7326,-52.9776,75.5526,8061.14,-639.984,780.231,50.0294,-37.0096,5.5073
4.071,28510.2,-2274.95,4738.16,9.95413,207.4,242.475,4866.3,1662.37,8821.38,12.1216,-57.8549,17.7695,-13461.4,24511.7,-5998.17,158.047,83.8966,282.729,-919.313,-10602.8,-1101.42,7.21756,-32.1932,88.939,3548.84,13614.1,6811.95,-88.852,46.7292,20.8,4957.28,-7893.93,-4459.82,27.1727,-46.5683,76.4669,8132.83,-636.491,735.117,49.8825,-36.3454,5.55019
4.072,28510.0,-2246.75,4457.84,5.5513,206.896,235.324,4829.63,1705.0,8856.78,12.2124,-58.645,17.6351,-13827.7,24410.2,-5995.39,157.544,78.3795,280.281,-803.398,-10627.1,-1123.86,7.70396,-32.14,89.777,4433.49,13562.8,6946.85,-85.3013,43.8938,22.354,5110.94,-7847.28,-4198.28,23.1594,-41.6079,76.9773,8222.96,-669.079,691.767,49.4936,-35.4767,5.55793
4.073,28515.4,-2224.0,4175.01,1.17593,206.366,228.109,4791.22,1739.49,8892.77,12.315,-59.4432,17.5129,-14193.6,24309.7,-5982.11,157.02,72.702,277.804,-675.657,-10653.8,-1145.72,8.22597,-32.058,90.6374,5347.35,13465.7,7064.94,-81.3726,40.9596,24.2553,5261.32,-7805.52,-3929.78,19.0895,-36.8286,77.4372,8315.41,-706.178,648.638,49.0745,-34.5825,5.56128
4.074,28520.8,-2201.24,3892.18,-3.19944,205.837,220.893,4752.82,1773.98,8928.75,12.4176,-60.2413,17.3907,-14559.6,24209.3,-5968.84,156.496,67.0245,275.327,-547.916,-10680.5,-1167.57,8.74798,-31.9761,91.4978,6261.21,13368.7,7183.03,-77.4438,38.0254,26.1567,5411.71,-7763.77,-3661.28,15.0196,-32.0493,77.897,8407.85,-743.277,605.509,48.6554,-33.6884,5.56463
4.075,28526.2,-2178.48,3609.36,-7.57482,205.307,213.677,4714.41,1808.47,8964.73,12.5202,-61.0395,17.2685,-14925.6,24108.8,-5955.56,155.972,61.3471,272.85,-420.176,-10707.3,-1189.42,9.26999,-31.8941,92.3583,7175.07,13271.6,7301.12,-73.515,35.0912,28.058,5562.09,-7722.01,-3392.78,10.9497,-27.27,78.3569,8500.29,-780.375,562.38,48.2363,-32.7942,5.56797
4.076,28529.3,-2145.24,3338.66,-11.7233,204.703,206.403,4694.13,1817.56,8999.8,12.6483,-62.0041,17.0473,-15263.8,24024.8,-5880.97,155.292,55.1962,270.209,-318.996,-10741.8,-1203.51,9.75628,-31.6111,93.2643,7988.92,13006.8,7339.82,-67.9698,32.0901,30.7742,5691.16,-7696.06,-3101.16,7.44121,-23.2344,78.7556,8572.47,-783.473,523.536,47.7677,-31.7812,5.68888
4.077,28529.7,-2098.89,3083.12,-15.5881,204.006,199.056,4696.49,1794.91,9033.72,12.8084,-63.177,16.7023,-15567.3,23961.5,-5729.75,154.416,48.4537,267.363,-251.017,-10786.2,-1207.89,10.1979,-31.0766,94.2271,8677.77,12532.4,7279.29,-60.4039,29.0052,34.509,5793.58,-7689.86,-2780.64,4.63445,-20.1284,79.0778,8619.3,-744.07,490.048,47.2374,-30.6197,5.95674
4.078,28530.0,-2052.54,2827.59,-19.4529,203.308,191.709,4698.85,1772.26,9067.64,12.9684,-64.3498,16.3573,-15870.7,23898.2,-5578.53,153.54,41.7112,264.517,-183.038,-10830.5,-1212.28,10.6396,-30.5422,95.19,9366.61,12058.0,7218.75,-52.838,25.9204,38.2438,5896.01,-7683.66,-2460.11,1.82769,-17.0225,79.4,8666.14,-704.666,456.559,46.7071,-29.4582,6.22461
4.079,28530.3,-2006.19,2572.06,-23.3177,202.61,184.361,4701.21,1749.61,9101.56,13.1285,-65.5227,16.0124,-16174.2,23834.9,-5427.31,152.664,34.9687,261.671,-115.059,-10874.9,-1216.66,11.0812,-30.0077,96.1529,10055.5,11583.5,7158.22,-45.2721,22.8355,41.9786,5998.43,-7677.46,-2139.58,-0.979073,-13.9165,79.7223,8712.97,-665.263,423.071,46.1767,-28.2967,6.49247
4.08,28530.6,-1959.84,2316.52,-27.1825,201.913,177.014,4703.58,1726.97,9135.48,13.2886,-66.6955,15.6674,-16477.6,23771.6,-5276.09,151.788,28.2262,258.825,-47.0805,-10919.2,-1221.04,11.5229,-29.4733,97.1158,10744.3,11109.1,7097.68,-37.7062,19.7507,45.7133,6100.86,-7671.26,-1819.05,-3.78583,-10.8105,80.0445,8759.81,-625.859,389.583,45.6464,-27.1352,6.76033
4.081,28491.6,-1804.77,2080.29,-31.0182,200.782,169.77,4731.69,1676.26,9192.59,13.293,-67.8393,15.3682,-16677.9,23731.9,-5001.82,150.227,21.3528,255.551,-8.85807,-10973.5,-1206.6,12.0653,-28.6502,98.1379,10894.0,10578.8,6842.83,-26.5835,17.7085,49.1172,6086.69,-7794.28,-1445.86,-5.95697,-10.1518,80.0197,8867.63,-571.403,404.96,44.732,-25.911,6.95311
4.082,28452.6,-1649.7,1844.05,-34.8539,199.651,162.525,4759.8,1625.55,9249.71,13.2974,-68.983,15.069,-16878.2,23692.2,-4727.55,148.665,14.4795,252.278,29.3644,-11027.8,-1192.16,12.6078,-27.8272,99.1601,11043.7,10048.5,6587.97,-15.4608,15.6663,52.5211,6072.52,-7917.3,-1072.67,-8.12811,-9.49302,79.9949,8975.45,-516.947,420.337,43.8176,-24.6868,7.14588
4.083,28413.5,-1494.64,1607.82,-38.6895,198.521,155.28,4787.91,1574.84,9306.82,13.3017,-70.1268,14.7699,-17078.5,23652.5,-4453.28,147.104,7.6061,249.005,67.5868,-11082.0,-1177.72,13.1502,-27.0041,100.182,11193.4,9518.25,6333.12,-4.33802,13.6242,55.925,6058.35,-8040.32,-699.473,-10.2993,-8.83429,79.9701,9083.27,-462.491,435.714,42.9032,-23.4625,7.33866
4.084,28374.5,-1339.57,1371.58,-42.5252,197.39,148.035,4816.02,1524.14,9363.94,13.3061,-71.2705,14.4707,-17278.8,23612.8,-4179.02,145.543,0.73273,245.732,105.809,-11136.3,-1163.28,13.6926,-26.181,101.204,11343.1,8987.96,6078.26,6.78473,11.582,59.3288,6044.18,-8163.34,-326.279,-12.4704,-8.17556,79.9453,9191.1,-408.035,451.091,41.9888,-22.2383,7.53144
4.085,28355.8,-1155.51,1193.37,-46.0401,196.008,141.3,4827.34,1480.77,9430.22,13.4051,-72.5708,14.1272,-17410.6,23546.7,-3867.82,143.67,-5.69896,242.387,140.306,-11190.9,-1121.08,14.2709,-25.3739,102.258,11304.3,8623.21,5733.68,18.6833,10.5629,61.8657,6020.25,-8283.72,-21.596,-14.0694,-8.54652,79.8158,9301.45,-350.337,471.92,41.0018,-21.0639,7.79139
4.086,28353.2,-948.259,1061.57,-49.2985,194.425,134.974,4825.24,1443.27,9503.84,13.5798,-73.9962,13.7482,-17487.7,23459.3,-3527.07,141.547,-11.7773,238.984,171.821,-11245.8,-1056.68,14.8778,-24.5796,103.337,11114.6,8390.89,5317.33,31.2026,10.3623,63.709,5988.51,-8401.99,228.279,-15.2108,-9.74122,79.6025,9413.82,-290.045,497.11,39.9568,-19.9292,8.10509
4.087,28350.6,-741.009,929.776,-52.5568,192.842,128.647,4823.13,1405.77,9577.46,13.7546,-75.4216,13.3692,-17564.9,23371.9,-3186.33,139.425,-17.8557,235.581,203.336,-11300.7,-992.276,15.4847,-23.7853,104.416,10925.0,8158.56,4900.98,43.7219,10.1617,65.5523,5956.76,-8520.25,478.154,-16.3521,-10.9359,79.3893,9526.2,-229.753,522.3,38.9118,-18.7945,8.41878
4.088,28348.0,-533.759,797.98,-55.8152,191.259,122.32,4821.03,1368.27,9651.08,13.9293,-76.8471,12.9902,-17642.0,23284.5,-2845.58,137.302,-23.934,232.178,234.852,-11355.6,-927.873,16.0916,-22.991,105.495,10735.3,7926.23,4484.62,56.2412,9.96115,67.3956,5925.02,-8638.52,728.028,-17.4935,-12.1306,79.176,9638.57,-169.46,547.49,37.8667,-17.6598,8.73247
4.089,28341.5,-334.438,661.961,-58.955,189.631,116.074,4813.9,1330.61,9720.54,14.1089,-78.2843,12.5763,-17704.1,23185.7,-2497.01,135.154,-29.895,228.771,269.079,-11412.9,-861.646,16.694,-22.1783,106.589,10537.3,7759.43,4050.71,68.4311,9.86972,69.0901,5883.72,-8760.91,961.891,-18.5412,-13.4334,78.9236,9746.73,-109.965,573.77,36.7969,-16.5308,9.07529
4.09,28303.1,-198.547,492.153,-61.146,187.636,110.476,4766.6,1291.74,9756.71,14.3284,-79.8156,11.8835,-17646.6,22995.8,-2085.79,132.804,-34.9175,225.336,325.004,-11489.1,-780.835,17.2598,-21.2184,107.808,10271.8,8116.84,3476.34,77.9861,10.6515,69.5945,5766.0,-8916.35,1067.66,-18.8397,-15.6004,78.3582,9821.12,-56.8453,608.77,35.5291,-15.4474,9.65103
4.091,28264.8,-62.6553,322.344,-63.3371,185.642,104.879,4719.31,1252.86,9792.88,14.5478,-81.347,11.1906,-17589.1,22805.9,-1674.58,130.453,-39.94,221.901,380.929,-11565.4,-700.023,17.8257,-20.2584,109.027,10006.3,8474.24,2901.98,87.5411,11.4334,70.0988,5648.28,-9071.78,1173.42,-19.1382,-17.7674,77.7928,9895.51,-3.72544,643.77,34.2613,-14.364,10.2268
4.092,28226.5,73.2361,152.536,-65.5282,183.647,99.2812,4672.01,1213.98,9829.05,14.7672,-82.8783,10.4978,-17531.6,22615.9,-1263.36,128.102,-44.9624,218.466,436.854,-11641.6,-619.212,18.3915,-19.2985,110.246,9740.83,8831.64,2327.61,97.0961,12.2152,70.6031,5530.56,-9227.22,1279.19,-19.4367,-19.9345,77.2274,9969.91,49.3944,678.769,32.9934,-13.2806,10.8025
4.093,28188.2,209.128,-17.272,-67.7193,181.652,93.6836,4624.72,1175.1,9865.22,14.9866,-84.4097,9.80494,-17474.0,22426.0,-852.148,125.752,-49.9849,215.031,492.778,-11717.9,-538.401,18.9574,-18.3385,111.465,9475.35,9189.05,1753.24,106.651,12.997,71.1075,5412.84,-9382.65,1384.95,-19.7352,-22.1015,76.662,10044.3,102.514,713.769,31.7256,-12.1972,11.3783
4.094,28195.9,373.192,-211.025,-68.3398,179.52,89.3169,4586.29,1091.75,9888.96,15.2418,-86.1509,9.09356,-17400.4,22204.3,-396.473,122.984,-54.2978,211.268,529.3,-11807.4,-482.806,19.5341,-17.3504,112.593,9229.71,9652.44,1111.24,113.601,13.8852,71.2005,5294.17,-9553.34,1378.47,-19.8539,-24.2366,75.8499,10118.0,154.741,772.983,30.5434,-11.2755,11.9232
4.095,28226.8,551.342,-416.751,-68.175,177.318,85.5658,4552.29,986.152,9906.49,15.5148,-87.9971,8.37292,-17318.6,21966.7,81.4336,120.007,-58.256,207.341,556.121,-11903.5,-439.819,20.1162,-16.3481,113.677,8993.99,10168.8,435.43,119.247,14.8265,71.088,5175.01,-9731.65,1315.87,-19.8827,-26.3556,74.9143,10191.4,206.52,844.305,29.4042,-10.4346,12.4527
4.096,28257.6,729.493,-622.477,-68.0102,175.117,81.8147,4518.29,880.557,9924.01,15.7879,-89.8433,7.65228,-17236.9,21729.1,559.34,117.03,-62.2142,203.415,582.941,-11999.6,-396.832,20.6983,-15.3459,114.76,8758.27,10685.2,-240.383,124.894,15.7679,70.9755,5055.85,-9909.96,1253.27,-19.9116,-28.4747,73.9787,10264.8,258.3,915.627,28.2649,-9.59382,12.9823
4.097,28288.4,907.643,-828.203,-67.8454,172.915,78.0636,4484.29,774.963,9941.54,16.0609,-91.6895,6.93163,-17155.2,21491.5,1037.25,114.053,-66.1724,199.488,609.761,-12095.7,-353.845,21.2804,-14.3436,115.843,8522.54,11201.6,-916.196,130.541,16.7093,70.8629,4936.7,-10088.3,1190.67,-19.9404,-30.5938,73.0432,10338.2,310.08,986.949,27.1256,-8.75299,13.5118
4.098,28325.7,1137.02,-1039.94,-67.5182,170.553,74.8361,4466.64,682.419,9961.28,16.3148,-93.5412,6.19083,-17088.6,21277.7,1524.5,110.906,-69.8708,195.456,624.488,-12180.0,-299.421,21.8029,-13.264,116.929,8287.57,11683.0,-1617.3,135.416,17.7532,70.5557,4803.98,-10263.9,1106.42,-19.9771,-32.51,72.0815,10415.0,363.213,1048.91,25.9404,-7.98553,14.0255
4.099,28385.7,1545.7,-1272.73,-66.6227,167.627,73.4413,4506.21,635.554,9988.78,16.5012,-95.4121,5.37948,-17075.4,21147.2,2044.46,107.168,-72.6602,191.055,596.89,-12223.2,-204.966,22.1166,-11.9137,118.026,8055.18,12041.9,-2406.91,137.593,19.1557,69.5671,4623.77,-10430.0,946.395,-20.0416,-33.7163,71.0283,10503.8,421.084,1078.09,24.5943,-7.4749,14.4838
4.1,28445.7,1954.38,-1505.52,-65.7271,164.7,72.0466,4545.78,588.689,10016.3,16.6877,-97.283,4.56813,-17062.1,21016.7,2564.42,103.43,-75.4496,186.654,569.291,-12266.4,-110.511,22.4303,-10.5634,119.123,7822.8,12400.8,-3196.52,139.77,20.5583,68.5785,4443.57,-10596.1,786.369,-20.1061,-34.9227,69.9751,10592.7,478.954,1107.27,23.2482,-6.96426,14.9422
4.101,28505.6,2363.06,-1738.31,-64.8316,161.774,70.6518,4585.36,541.824,10043.8,16.8741,-99.1539,3.75678,-17048.8,20886.2,3084.38,99.6917,-78.239,182.252,541.692,-12309.5,-16.0558,22.7439,-9.21313,120.22,7590.41,12759.7,-3986.13,141.946,21.9609,67.5899,4263.36,-10762.2,626.343,-20.1706,-36.129,68.922,10681.5,536.825,1136.45,21.9021,-6.45363,15.4005
4.102,28565.6,2771.74,-1971.09,-63.9361,158.848,69.257,4624.93,494.959,10071.3,17.0606,-101.025,2.94542,-17035.5,20755.7,3604.34,95.9534,-81.0284,177.851,514.093,-12352.7,78.3993,23.0576,-7.86285,121.317,7358.03,13118.7,-4775.74,144.123,23.3634,66.6012,4083.16,-10928.3,466.317,-20.2351,-37.3354,67.8688,10770.3,594.695,1165.63,20.556,-5.94299,15.8588
4.103,28697.3,3284.31,-2299.94,-63.43,155.847,68.9031,4674.79,499.483,10095.4,16.9673,-102.886,2.00702,-17045.0,20702.2,4130.87,91.5245,-82.7927,173.053,513.824,-12382.0,157.814,23.4617,-6.36073,122.457,7096.23,13399.8,-5725.69,143.168,24.9964,64.8804,3952.06,-11096.5,275.196,-20.3981,-38.0349,66.8475,10844.0,650.082,1203.93,19.195,-5.51587,16.5509
4.104,28849.5,3826.57,-2656.24,-63.0351,152.825,68.8465,4727.59,518.688,10118.5,16.7942,-104.743,1.03232,-17060.9,20670.8,4659.27,86.8982,-84.2641,168.142,521.364,-12407.2,232.931,23.8915,-4.81523,123.609,6826.03,13658.6,-6721.45,141.317,26.6953,62.9504,3835.0,-11265.4,75.1904,-20.5893,-38.5895,65.8352,10913.5,704.76,1244.83,17.8297,-5.11261,17.3098
4.105,29001.6,4368.82,-3012.54,-62.6403,149.803,68.7899,4780.4,537.894,10141.7,16.621,-106.601,0.0576234,-17076.9,20639.4,5187.68,82.2718,-85.7355,163.23,528.904,-12432.5,308.048,24.3214,-3.26972,124.761,6555.83,13917.5,-7717.2,139.467,28.3942,61.0204,3717.94,-11434.3,-124.815,-20.7804,-39.1442,64.823,10982.9,759.437,1285.73,16.4644,-4.70935,18.0687
4.106,29153.8,4911.08,-3368.84,-62.2455,146.781,68.7333,4833.2,557.1,10164.8,16.4478,-108.459,-0.917077,-17092.8,20608.0,5716.08,77.6455,-87.207,158.319,536.444,-12457.7,383.165,24.7513,-1.72422,125.913,6285.63,14176.3,-8712.96,137.617,30.093,59.0904,3600.87,-11603.2,-324.821,-20.9715,-39.6989,63.8108,11052.4,814.114,1326.64,15.0992,-4.30609,18.8276
4.107,29298.8,5420.46,-3738.12,-61.8839,143.624,68.761,4871.99,551.934,10197.2,16.2897,-110.405,-1.85521,-17099.3,20572.0,6195.27,72.9803,-88.0802,153.355,554.521,-12504.0,472.046,25.3189,-0.164726,127.08,6006.75,14453.3,-9730.42,133.862,31.9496,57.1395,3514.67,-11746.6,-536.883,-20.9181,-39.8758,62.7559,11116.5,867.146,1367.88,13.7251,-4.01806,19.5384
4.108,29429.4,5864.1,-4133.36,-61.5886,140.2,68.9575,4882.76,498.026,10248.0,16.1617,-112.526,-2.72023,-17086.9,20526.8,6576.05,68.2372,-87.757,148.287,593.671,-12592.3,588.456,26.1618,1.42275,128.275,5710.49,14766.3,-10791.3,126.297,34.1217,55.1467,3490.18,-11839.2,-773.057,-20.3753,-39.2971,61.6158,11170.1,916.886,1409.79,12.3335,-3.96051,20.1528
4.109,29560.1,6307.75,-4528.61,-61.2934,136.775,69.1539,4893.53,444.118,10298.9,16.0338,-114.647,-3.58524,-17074.6,20481.6,6956.82,63.494,-87.4338,143.218,632.822,-12680.7,704.866,27.0047,3.01022,129.471,5414.23,15079.4,-11852.1,118.732,36.2938,53.1539,3465.69,-11931.8,-1009.23,-19.8326,-38.7185,60.4757,11223.7,966.626,1451.71,10.9419,-3.90296,20.7673
4.11,29690.8,6751.39,-4923.85,-60.9981,133.351,69.3504,4904.29,390.21,10349.7,15.9058,-116.769,-4.45025,-17062.2,20436.4,7337.59,58.7509,-87.1106,138.15,671.972,-12769.0,821.275,27.8477,4.59769,130.667,5117.97,15392.4,-12913.0,111.166,38.4658,51.1611,3441.21,-12024.4,-1245.41,-19.2898,-38.1398,59.3356,11277.3,1016.37,1493.63,9.55033,-3.84541,21.3818
4.111,29821.5,7195.04,-5319.1,-60.7029,129.926,69.5468,4915.06,336.301,10400.5,15.7779,-118.89,-5.31526,-17049.8,20391.2,7718.36,54.0078,-86.7875,133.082,711.123,-12857.4,937.685,28.6906,6.18517,131.863,4821.71,15705.4,-13973.9,103.601,40.6379,49.1683,3416.72,-12117.0,-1481.58,-18.747,-37.5611,58.1956,11330.8,1066.11,1535.54,8.15872,-3.78786,21.9963
4.112,29942.0,7432.13,-5848.19,-59.982,126.522,69.9044,4926.78,266.976,10434.0,15.6172,-121.177,-6.60218,-17104.2,20247.4,7813.67,50.2451,-84.6954,127.851,682.547,-12908.2,958.685,29.357,7.77468,132.738,4524.22,16082.9,-14673.8,93.294,42.3167,48.7609,3377.88,-12118.5,-1663.03,-17.7046,-36.3535,57.6862,11339.4,1097.9,1527.41,6.86026,-3.72447,22.4479
4.113,30061.3,7643.41,-6394.01,-59.208,123.119,70.2821,4938.63,195.723,10465.2,15.4525,-123.485,-7.94184,-17166.9,20091.4,7873.3,46.605,-82.3821,122.599,645.505,-12954.3,967.76,30.0014,9.36445,133.573,4226.57,16468.4,-15328.6,82.6441,43.9339,48.5518,3337.25,-12108.8,-1837.64,-16.5997,-35.0673,57.2558,11342.4,1127.46,1513.02,5.57345,-3.66035,22.8791
4.114,30180.5,7854.69,-6939.84,-58.4339,119.717,70.6598,4950.47,124.471,10496.5,15.2877,-125.793,-9.2815,-17229.7,19935.4,7932.93,42.9649,-80.0689,117.348,608.464,-13000.4,976.834,30.6457,10.9542,134.408,3928.93,16854.0,-15983.4,71.9943,45.5511,48.3426,3296.61,-12099.0,-2012.24,-15.4948,-33.781,56.8253,11345.4,1157.01,1498.62,4.28663,-3.59623,23.3104
4.115,30299.8,8065.97,-7485.67,-57.6599,116.315,71.0375,4962.31,53.2185,10527.7,15.1229,-128.1,-10.6212,-17292.4,19779.3,7992.56,39.3248,-77.7557,112.097,571.422,-13046.5,985.908,31.29,12.544,135.243,3631.28,17239.5,-16638.2,61.3444,47.1683,48.1334,3255.98,-12089.2,-2186.85,-14.3899,-32.4948,56.3949,11348.4,1186.56,1484.23,2.99981,-3.53211,23.7417
4.116,30406.8,8085.99,-8005.31,-55.7349,112.738,71.0683,4970.45,23.0879,10576.0,15.1072,-130.656,-11.9032,-17383.5,19559.7,7972.15,36.1813,-74.7018,106.579,517.573,-13126.7,973.904,31.8622,13.9456,136.113,3442.06,17540.9,-16978.9,50.6626,48.1882,48.6671,3239.21,-12056.5,-2353.7,-13.2036,-30.8807,56.0656,11362.1,1221.0,1463.08,1.73216,-3.51025,24.0581
4.117,30498.6,7866.94,-8492.24,-52.3713,108.943,70.6653,4973.95,44.3597,10645.6,15.2778,-133.523,-13.1131,-17510.0,19260.5,7851.68,33.6583,-70.722,100.729,442.714,-13249.3,935.552,32.3443,15.1121,137.028,3388.37,17737.3,-16927.0,39.9408,48.4614,50.1296,3252.28,-11995.3,-2510.86,-11.9154,-28.8568,55.8629,11389.3,1261.53,1433.49,0.488454,-3.54123,24.2311
4.118,30590.3,7647.89,-8979.17,-49.0077,105.148,70.2623,4977.45,65.6314,10715.2,15.4483,-136.39,-14.323,-17636.6,18961.4,7731.21,31.1354,-66.7423,94.8793,367.856,-13371.9,897.2,32.8263,16.2786,137.943,3334.68,17933.7,-16875.1,29.219,48.7347,51.592,3265.34,-11934.1,-2668.01,-10.6273,-26.8329,55.6602,11416.6,1302.07,1403.89,-0.755249,-3.57221,24.4041
4.119,30682.1,7428.84,-9466.09,-45.644,101.353,69.8594,4980.96,86.9032,10784.7,15.6189,-139.257,-15.5329,-17763.1,18662.2,7610.74,28.6125,-62.7626,89.0292,292.997,-13494.5,858.849,33.3083,17.445,138.857,3280.99,18130.1,-16823.2,18.4972,49.0079,53.0545,3278.41,-11872.8,-2825.16,-9.3391,-24.8091,55.4575,11443.8,1342.6,1374.3,-1.99895,-3.60319,24.5771
4.12,30773.8,7209.79,-9953.02,-42.2804,97.5586,69.4564,4984.46,108.175,10854.3,15.7894,-142.124,-16.7428,-17889.7,18363.1,7490.26,26.0896,-58.7829,83.1791,218.138,-13617.1,820.497,33.7904,18.6115,139.772,3227.3,18326.4,-16771.3,7.77545,49.2811,54.5169,3291.47,-11811.6,-2982.31,-8.05095,-22.7852,55.2548,11471.0,1383.14,1344.7,-3.24266,-3.63417,24.75
4.121,30742.8,7008.95,-10305.6,-36.4373,92.9033,67.799,4973.85,187.61,10905.8,15.888,-144.789,-17.7717,-17955.7,18105.9,7378.68,23.9554,-54.3444,76.571,163.69,-13700.8,771.567,34.1838,19.3786,140.665,3518.32,18139.6,-15886.7,-1.0583,47.5658,55.1593,3394.01,-11714.5,-3059.49,-7.26486,-20.2798,55.7866,11493.1,1402.58,1284.88,-4.4623,-3.67259,24.9733
4.122,30711.8,6808.11,-10658.2,-30.5942,88.2479,66.1416,4963.23,267.045,10957.3,15.9865,-147.454,-18.8005,-18021.8,17848.8,7267.09,21.8213,-49.906,69.9629,109.242,-13784.5,722.636,34.5773,20.1457,141.559,3809.33,17952.7,-15002.1,-9.89205,45.8504,55.8016,3496.55,-11617.5,-3136.66,-6.47876,-17.7745,56.3184,11515.2,1422.03,1225.06,-5.68195,-3.71102,25.1965
4.123,30680.8,6607.27,-11010.8,-24.7512,83.5925,64.4842,4952.62,346.48,11008.7,16.0851,-150.119,-19.8294,-18087.8,17591.6,7155.51,19.6871,-45.4676,63.3548,54.7939,-13868.2,673.706,34.9708,20.9127,142.452,4100.35,17765.8,-14117.5,-18.7258,44.135,56.4439,3599.09,-11520.4,-3213.84,-5.69267,-15.2691,56.8502,11537.3,1441.47,1165.24,-6.90159,-3.74944,25.4198
4.124,30649.7,6406.42,-11363.4,-18.9081,78.9372,62.8267,4942.0,425.914,11060.2,16.1836,-152.783,-20.8582,-18153.8,17334.5,7043.92,17.5529,-41.0291,56.7467,0.345752,-13951.8,624.776,35.3643,21.6798,143.346,4391.37,17578.9,-13232.9,-27.5595,42.4196,57.0862,3701.62,-11423.3,-3291.01,-4.90657,-12.7638,57.382,11559.4,1460.92,1105.42,-8.12124,-3.78786,25.643
4.125,30491.4,6341.63,-11626.6,-13.2893,73.574,60.7826,4919.87,519.104,11079.8,16.3958,-155.614,-21.7097,-18178.2,17122.4,6933.0,15.4684,-36.9718,49.8279,-36.9689,-14026.9,537.558,35.6878,22.257,144.072,4887.0,17262.1,-12104.3,-34.3361,40.0468,56.5038,3796.84,-11356.9,-3322.21,-4.48035,-10.2554,58.0638,11562.0,1461.65,1068.68,-9.1286,-3.7819,25.8094
4.126,30231.3,6385.67,-11818.4,-7.8501,67.6446,58.4292,4888.51,623.298,11073.7,16.6988,-158.577,-22.4193,-18169.2,16946.4,6822.61,13.4237,-33.2193,42.6604,-60.5769,-14095.0,419.709,35.9553,22.6822,144.664,5546.33,16841.5,-10780.5,-39.4668,37.1479,54.9415,3886.21,-11315.0,-3316.63,-4.34201,-7.7446,58.8658,11549.0,1447.42,1050.39,-9.96614,-3.74044,25.9302
4.127,29971.1,6429.72,-12010.3,-2.41086,61.7152,56.0757,4857.16,727.491,11067.7,17.0019,-161.54,-23.1289,-18160.1,16770.4,6712.22,11.3789,-29.4668,35.4929,-84.1849,-14163.2,301.861,36.2228,23.1074,145.256,6205.66,16420.8,-9456.73,-44.5975,34.2491,53.3793,3975.57,-11273.1,-3311.05,-4.20368,-5.23381,59.6677,11536.0,1433.19,1032.11,-10.8037,-3.69897,26.051
4.128,29710.9,6473.76,-12202.1,3.02838,55.7859,53.7223,4825.81,831.685,11061.7,17.305,-164.503,-23.8385,-18151.1,16594.3,6601.83,9.33418,-25.7143,28.3253,-107.793,-14231.3,184.012,36.4904,23.5326,145.848,6864.99,16000.2,-8132.95,-49.7283,31.3503,51.817,4064.94,-11231.2,-3305.47,-4.06535,-2.72302,60.4697,11522.9,1418.95,1013.83,-11.6412,-3.6575,26.1718
4.129,29437.6,6539.62,-12367.4,8.1451,49.745,51.235,4793.46,941.006,11053.9,17.6455,-167.501,-24.5028,-18132.7,16426.6,6486.36,7.30732,-22.0156,21.162,-132.765,-14291.9,68.1766,36.7547,23.9323,146.447,7537.75,15585.7,-6834.53,-54.2726,28.5547,50.148,4156.86,-11191.4,-3299.7,-3.944,-0.243952,61.2733,11508.9,1399.74,993.987,-12.471,-3.61765,26.2729
4.13,29058.6,6780.01,-12320.5,10.6816,42.812,47.6774,4753.11,1091.34,11031.6,18.2858,-170.782,-24.8043,-18038.8,16325.7,6330.2,5.42367,-18.7476,14.0324,-168.652,-14292.4,-31.5515,36.9932,24.1282,147.1,8317.95,15220.6,-5738.97,-54.1262,26.5858,47.6246,4269.25,-11168.3,-3292.44,-3.95844,1.9814,62.0899,11487.1,1340.65,961.683,-13.2384,-3.59073,26.2157
4.131,28679.6,7020.4,-12273.6,13.2181,35.8791,44.1198,4712.75,1241.68,11009.3,18.926,-174.062,-25.1057,-17945.0,16224.8,6174.04,3.54002,-15.4796,6.90276,-204.538,-14292.8,-131.28,37.2317,24.3242,147.754,9098.15,14855.6,-4643.42,-53.9797,24.6168,45.1012,4381.63,-11145.1,-3285.17,-3.97288,4.20675,62.9065,11465.3,1281.56,929.379,-14.0058,-3.56382,26.1585
4.132,28300.6,7260.79,-12226.8,15.7547,28.9461,40.5621,4672.4,1392.02,10987.0,19.5663,-177.342,-25.4072,-17851.1,16123.8,6017.88,1.65637,-12.2116,-0.226879,-240.425,-14293.3,-231.008,37.4703,24.5201,148.408,9878.34,14490.5,-3547.86,-53.8332,22.6479,42.5778,4494.01,-11122.0,-3277.91,-3.98733,6.4321,63.7231,11443.5,1222.47,897.074,-14.7732,-3.5369,26.1013
4.133,27921.6,7501.18,-12179.9,18.2912,22.0132,37.0045,4632.05,1542.35,10964.6,20.2065,-180.623,-25.7086,-17757.3,16022.9,5861.73,-0.227276,-8.94354,-7.35652,-276.312,-14293.7,-330.736,37.7088,24.716,149.062,10658.5,14125.5,-2452.3,-53.6867,20.679,40.0544,4606.4,-11098.9,-3270.65,-4.00177,8.65745,64.5397,11421.6,1163.39,864.77,-15.5406,-3.50998,26.0441
4.134,27496.8,7614.43,-12064.6,19.2027,14.95,32.4032,4658.28,1633.9,10977.5,21.0404,-183.625,-25.7722,-17631.5,15938.8,5665.17,-1.89702,-5.66834,-14.1036,-302.249,-14301.4,-432.282,38.0336,24.8816,149.634,11248.9,13855.3,-1724.59,-50.3985,20.0192,38.3169,4671.83,-11101.7,-3258.67,-3.75371,10.6097,65.0564,11401.8,1094.29,794.708,-16.2126,-3.48935,25.8284
4.135,27049.0,7664.1,-11915.0,19.3018,7.82165,27.28,4717.81,1696.06,11008.0,21.971,-186.487,-25.7167,-17489.9,15863.2,5448.42,-3.45982,-2.38956,-20.6593,-323.212,-14312.7,-534.737,38.4016,25.0321,150.165,11744.3,13632.7,-1180.79,-45.5396,20.0141,36.9725,4713.79,-11117.4,-3244.32,-3.3744,12.4254,65.4231,11382.9,1020.2,705.766,-16.8369,-3.47186,25.5333
4.136,26601.3,7713.78,-11765.5,19.4009,0.693331,22.1568,4777.34,1758.22,11038.5,22.9016,-189.349,-25.6613,-17348.2,15787.5,5231.67,-5.02261,0.88923,-27.215,-344.175,-14324.0,-637.192,38.7697,25.1826,150.697,12239.7,13410.1,-636.998,-40.6806,20.0089,35.628,4755.75,-11133.1,-3229.98,-2.99509,14.2411,65.7899,11364.0,946.099,616.824,-17.4612,-3.45437,25.2383
4.137,26153.5,7763.45,-11616.0,19.4999,-6.43499,17.0336,4836.87,1820.37,11069.0,23.8322,-192.212,-25.6059,-17206.5,15711.9,5014.92,-6.5854,4.16802,-33.7708,-365.137,-14335.4,-739.647,39.1377,25.3331,151.228,12735.1,13187.4,-93.2031,-35.8217,20.0038,34.2836,4797.72,-11148.9,-3215.63,-2.61578,16.0567,66.1566,11345.1,872.002,527.883,-18.0855,-3.43688,24.9433
4.138,25728.6,7746.58,-11460.9,19.3911,-13.4463,11.7633,4880.59,1859.3,11087.5,24.788,-195.161,-25.5514,-17053.2,15633.5,4796.99,-8.04254,7.58841,-40.1567,-387.048,-14358.2,-829.659,39.5493,25.4547,151.771,13118.3,12968.8,357.072,-30.686,20.2178,33.2773,4821.74,-11162.0,-3199.23,-2.19225,17.7705,66.434,11330.8,788.915,438.878,-18.6474,-3.38601,24.6316
4.139,25383.7,7496.79,-11286.4,18.5544,-20.048,5.97833,4868.96,1816.91,11064.2,25.8321,-198.414,-25.5002,-16859.3,15545.6,4574.93,-9.12988,11.5044,-45.9482,-412.274,-14421.3,-876.119,40.1135,25.4752,152.356,13108.6,12764.2,480.028,-24.5818,21.1987,33.4547,4783.0,-11166.4,-3175.64,-1.61397,19.1277,66.3985,11332.5,674.361,349.654,-18.9912,-3.21831,24.2615
4.14,25038.7,7247.01,-11111.9,17.7177,-26.6498,0.193312,4857.33,1774.53,11040.8,26.8762,-201.667,-25.4491,-16665.5,15457.6,4352.87,-10.2172,15.4204,-51.7397,-437.5,-14484.4,-922.58,40.6778,25.4956,152.94,13098.9,12559.5,602.985,-18.4776,22.1796,33.6321,4744.26,-11170.7,-3152.04,-1.03568,20.4849,66.363,11334.1,559.806,260.43,-19.335,-3.05062,23.8915
4.141,24693.7,6997.23,-10937.4,16.881,-33.2515,-5.5917,4845.71,1732.15,11017.4,27.9202,-204.92,-25.3979,-16471.6,15369.7,4130.81,-11.3046,19.3365,-57.5313,-462.727,-14547.4,-969.041,41.242,25.5161,153.525,13089.1,12354.9,725.941,-12.3733,23.1606,33.8095,4705.52,-11175.1,-3128.44,-0.457396,21.8421,66.3275,11335.7,445.252,171.206,-19.6788,-2.88293,23.5215
4.142,24348.7,6747.44,-10762.9,16.0443,-39.8533,-11.3767,4834.08,1689.77,10994.0,28.9643,-208.173,-25.3468,-16277.7,15281.7,3908.75,-12.3919,23.2525,-63.3228,-487.953,-14610.5,-1015.5,41.8063,25.5365,154.109,13079.4,12150.2,848.897,-6.26913,24.1415,33.9869,4666.78,-11179.4,-3104.85,0.120889,23.1993,66.2919,11337.4,330.698,81.982,-20.0225,-2.71523,23.1515
4.143,24080.9,6406.53,-10506.5,16.6164,-45.4935,-16.3136,4829.76,1651.37,10983.6,30.1179,-211.316,-25.4081,-16077.4,15175.2,3723.89,-13.2961,27.4494,-68.5409,-475.463,-14608.8,-1068.51,42.2415,25.1605,154.683,12777.3,11976.6,752.682,-1.02008,25.2464,35.1068,4622.1,-11207.2,-3094.06,0.681389,24.0318,66.1037,11356.9,220.423,-21.8808,-20.1562,-2.55095,22.7638
4.144,23835.1,6039.59,-10226.6,17.591,-50.8591,-21.0082,4827.52,1614.12,10976.9,31.3029,-214.428,-25.5014,-15875.4,15063.4,3549.66,-14.148,31.7265,-73.5952,-452.198,-14588.5,-1123.4,42.6399,24.6713,155.254,12391.5,11811.9,593.847,3.98465,26.3867,36.496,4575.71,-11241.7,-3086.93,1.23681,24.7143,65.8717,11381.6,111.372,-129.926,-20.2298,-2.38764,22.3711
4.145,23589.3,5672.64,-9946.8,18.5656,-56.2246,-25.7027,4825.28,1576.87,10970.2,32.4878,-217.54,-25.5948,-15673.4,14951.6,3375.43,-14.9999,36.0037,-78.6495,-428.933,-14568.2,-1178.28,43.0383,24.1821,155.824,12005.8,11647.2,435.012,8.98938,27.5271,37.8852,4529.33,-11276.3,-3079.8,1.79223,25.3968,65.6398,11406.3,2.3204,-237.972,-20.3034,-2.22433,21.9783
4.146,23343.5,5305.69,-9666.97,19.5402,-61.5902,-30.3973,4823.04,1539.62,10963.5,33.6727,-220.652,-25.6882,-15471.4,14839.7,3201.21,-15.8518,40.2809,-83.7038,-405.667,-14548.0,-1233.17,43.4368,23.6929,156.395,11620.0,11482.5,276.177,13.9941,28.6674,39.2744,4482.94,-11310.8,-3072.67,2.34765,26.0794,65.4079,11431.0,-106.731,-346.017,-20.377,-2.06102,21.5856
4.147,23192.1,4941.19,-9371.88,21.1376,-66.5139,-34.7674,4802.71,1537.95,10938.3,34.6811,-223.716,-25.7463,-15273.8,14735.1,3065.81,-16.7061,44.4589,-88.6056,-387.719,-14536.4,-1270.32,43.8864,23.1177,157.031,11180.3,11323.9,60.0272,18.6055,29.8284,40.8007,4419.83,-11344.1,-3049.52,2.80732,26.5326,65.0382,11464.5,-215.198,-440.566,-20.3558,-1.88682,21.138
4.148,23229.6,4581.57,-9046.3,23.9808,-70.554,-38.4885,4746.2,1607.47,10876.2,35.3363,-226.684,-25.734,-15085.2,14644.9,3008.06,-17.5651,48.4387,-93.2026,-380.406,-14542.1,-1272.02,44.4385,22.3705,157.797,10632.7,11177.8,-270.752,22.4302,31.0308,42.6012,4323.27,-11374.8,-2994.34,3.07549,26.5274,64.3931,11515.8,-322.497,-508.122,-20.1451,-1.69084,20.5805
4.149,23267.1,4221.95,-8720.72,26.824,-74.594,-42.2097,4689.69,1676.98,10814.0,35.9916,-229.652,-25.7217,-14896.6,14554.8,2950.32,-18.4241,52.4185,-97.7995,-373.093,-14547.8,-1273.72,44.9907,21.6233,158.564,10085.0,11031.7,-601.53,26.2549,32.2332,44.4018,4226.71,-11405.5,-2939.16,3.34366,26.5221,63.748,11567.0,-429.796,-575.678,-19.9344,-1.49486,20.023
4.15,23304.6,3862.33,-8395.15,29.6671,-78.6341,-45.9309,4633.18,1746.49,10751.9,36.6468,-232.62,-25.7094,-14708.0,14464.6,2892.58,-19.283,56.3983,-102.396,-365.779,-14553.4,-1275.42,45.5428,20.8761,159.331,9537.34,10885.5,-932.309,30.0796,33.4356,46.2023,4130.15,-11436.3,-2883.98,3.61184,26.5169,63.1028,11618.2,-537.095,-643.234,-19.7237,-1.29888,19.4655
4.151,23342.0,3502.72,-8069.57,32.5103,-82.6742,-49.6521,4576.68,1816.0,10689.7,37.3021,-235.588,-25.6971,-14519.3,14374.4,2834.83,-20.142,60.3781,-106.993,-358.466,-14559.1,-1277.12,46.095,20.1289,160.098,8989.69,10739.4,-1263.09,33.9043,34.638,48.0028,4033.59,-11467.0,-2828.8,3.88001,26.5117,62.4577,11669.4,-644.393,-710.79,-19.513,-1.1029,18.908
4.152,23418.8,3382.95,-7770.55,35.3225,-86.0358,-52.3587,4582.23,1924.16,10717.6,38.0485,-238.826,-25.4423,-14390.8,14352.4,2836.62,-21.3563,63.6552,-111.036,-373.102,-14557.0,-1268.38,46.8641,19.2625,160.718,8419.08,10614.0,-1658.5,36.9845,36.2722,49.5823,3953.21,-11461.4,-2767.01,4.44336,26.1221,61.7173,11716.8,-770.072,-785.185,-19.1389,-0.843295,18.383
4.153,23500.5,3293.17,-7474.86,38.1309,-89.3126,-54.9384,4595.55,2037.15,10756.7,38.8063,-242.098,-25.1572,-14269.8,14339.0,2845.85,-22.615,66.8444,-115.009,-390.481,-14553.8,-1258.33,47.6604,18.3812,161.319,7845.6,10491.1,-2061.99,39.9717,37.9603,51.1342,3874.85,-11451.2,-2704.4,5.0436,25.6845,60.965,11763.7,-898.049,-860.435,-18.7445,-0.575735,17.862
4.154,23582.2,3203.38,-7179.16,40.9393,-92.5894,-57.5181,4608.86,2150.14,10795.8,39.5641,-245.37,-24.8722,-14148.8,14325.6,2855.08,-23.8736,70.0337,-118.982,-407.86,-14550.6,-1248.29,48.4567,17.4999,161.921,7272.12,10368.3,-2465.47,42.9589,39.6485,52.686,3796.48,-11441.1,-2641.79,5.64385,25.2469,60.2128,11810.7,-1026.03,-935.685,-18.35,-0.308175,17.3411
4.155,23663.9,3113.6,-6883.47,43.7477,-95.8663,-60.0978,4622.18,2263.13,10834.9,40.3219,-248.642,-24.5871,-14027.8,14312.1,2864.31,-25.1323,73.2229,-122.955,-425.24,-14547.5,-1238.25,49.2529,16.6186,162.523,6698.65,10245.4,-2868.96,45.946,41.3367,54.2379,3718.12,-11431.0,-2579.18,6.24409,24.8093,59.4605,11857.6,-1154.0,-1010.93,-17.9555,-0.0406149,16.8201
4.156,23742.9,3027.54,-6592.62,46.4612,-98.6252,-62.2692,4651.78,2378.84,10827.8,41.2594,-251.727,-24.1271,-13936.1,14312.7,2870.28,-26.4594,75.9063,-126.827,-408.043,-14552.3,-1268.89,49.8774,15.6216,163.195,6153.66,10105.9,-3228.73,48.5019,43.0984,55.4891,3660.73,-11412.6,-2516.96,6.94922,24.1769,58.6807,11900.5,-1286.49,-1081.98,-17.5585,0.201973,16.2505
4.157,23818.3,2946.13,-6307.84,49.0563,-100.737,-63.9303,4701.75,2497.94,10763.1,42.4215,-254.579,-23.4486,-13881.0,14330.9,2872.18,-27.872,77.9572,-130.573,-347.626,-14567.1,-1350.4,50.2871,14.48,163.954,5644.28,9945.49,-3533.86,50.5188,44.9521,56.3647,3629.56,-11384.0,-2455.23,7.78546,23.3008,57.8666,11938.4,-1424.62,-1147.75,-17.1585,0.413347,15.6202
4.158,23893.8,2864.72,-6023.06,51.6513,-102.848,-65.5913,4751.71,2617.04,10698.3,43.5835,-257.43,-22.7701,-13825.9,14349.0,2874.08,-29.2846,80.0082,-134.319,-287.209,-14581.9,-1431.9,50.6967,13.3383,164.714,5134.89,9785.08,-3838.98,52.5356,46.8058,57.2402,3598.38,-11355.3,-2393.49,8.62169,22.4247,57.0526,11976.2,-1562.75,-1213.53,-16.7584,0.624721,14.9898
4.159,23969.3,2783.31,-5738.28,54.2463,-104.96,-67.2524,4801.68,2736.14,10633.6,44.7455,-260.282,-22.0915,-13770.8,14367.2,2875.98,-30.6972,82.0592,-138.065,-226.792,-14596.7,-1513.41,51.1064,12.1967,165.474,4625.51,9624.66,-4144.1,54.5524,48.6595,58.1158,3567.21,-11326.7,-2331.76,9.45792,21.5486,56.2385,12014.1,-1700.88,-1279.31,-16.3584,0.836094,14.3595
4.16,24044.8,2701.9,-5453.5,56.8413,-107.071,-68.9134,4851.65,2855.25,10568.9,45.9076,-263.133,-21.413,-13715.7,14385.3,2877.88,-32.1098,84.1102,-141.811,-166.375,-14611.5,-1594.92,51.5161,11.055,166.234,4116.13,9464.25,-4449.23,56.5692,50.5132,58.9913,3536.03,-11298.1,-2270.02,10.2942,20.6725,55.4244,12052.0,-1839.01,-1345.09,-15.9583,1.04747,13.7291
4.161,23988.8,2549.2,-5195.54,58.6486,-108.674,-70.5089,4836.32,2824.7,10593.9,47.2245,-266.466,-20.3831,-13704.0,14420.7,2878.43,-33.6718,84.9918,-145.379,-131.8,-14584.3,-1687.75,52.1968,10.4649,166.949,3721.13,9292.44,-4631.99,57.4347,51.7123,58.7884,3530.94,-11300.8,-2190.81,11.0473,19.5451,54.6414,12133.7,-1952.08,-1407.46,-15.3278,1.34227,13.1412
4.162,23932.8,2396.5,-4937.59,60.456,-110.277,-72.1044,4821.0,2794.15,10618.9,48.5415,-269.799,-19.3533,-13692.3,14456.1,2878.97,-35.2338,85.8734,-148.947,-97.2257,-14557.1,-1780.58,52.8775,9.8748,167.665,3326.13,9120.63,-4814.76,58.3002,52.9113,58.5855,3525.84,-11303.6,-2111.59,11.8005,18.4177,53.8584,12215.5,-2065.15,-1469.82,-14.6972,1.63708,12.5532
4.163,23876.9,2243.79,-4679.64,62.2633,-111.88,-73.6999,4805.67,2763.6,10643.9,49.8585,-273.132,-18.3235,-13680.5,14491.5,2879.52,-36.7958,86.755,-152.516,-62.6513,-14529.9,-1873.41,53.5582,9.28469,168.38,2931.13,8948.82,-4997.52,59.1656,54.1103,58.3826,3520.74,-11306.4,-2032.37,12.5536,17.2903,53.0754,12297.3,-2178.22,-1532.19,-14.0667,1.93189,11.9653
4.164,23820.9,2091.09,-4421.68,64.0706,-113.483,-75.2954,4790.35,2733.05,10668.9,51.1754,-276.465,-17.2936,-13668.8,14527.0,2880.06,-38.3578,87.6366,-156.084,-28.0768,-14502.7,-1966.24,54.2389,8.69458,169.096,2536.13,8777.01,-5180.29,60.0311,55.3093,58.1798,3515.65,-11309.2,-1953.15,13.3068,16.1628,52.2925,12379.1,-2291.28,-1594.55,-13.4361,2.22669,11.3774
4.165,23719.3,1938.64,-4161.05,65.2247,-114.48,-76.8664,4762.26,2690.35,10620.4,52.4561,-280.484,-16.5319,-13659.7,14599.6,2865.39,-40.1523,87.9139,-159.469,9.50289,-14513.7,-2003.81,54.844,8.26927,169.884,2206.48,8624.18,-5294.45,60.3129,56.0366,57.3442,3555.22,-11292.8,-1847.86,13.9602,14.9381,51.5049,12459.3,-2391.68,-1642.92,-12.6669,2.54488,10.8813
4.166,23581.1,1786.39,-3898.28,65.856,-114.993,-78.4179,4723.97,2637.92,10513.2,53.7076,-285.053,-15.9847,-13652.5,14702.2,2838.54,-42.1328,87.7077,-162.707,49.4867,-14555.4,-1997.18,55.3887,7.9758,170.731,1929.1,8486.54,-5353.72,60.1277,56.3865,56.0025,3630.53,-11261.2,-1721.72,14.5337,13.6355,50.7138,12538.2,-2481.95,-1680.1,-11.7867,2.88176,10.4588
4.167,23443.0,1634.13,-3635.51,66.4874,-115.507,-79.9694,4685.68,2585.5,10406.0,54.9592,-289.622,-15.4374,-13645.3,14804.7,2811.69,-44.1133,87.5014,-165.945,89.4705,-14597.0,-1990.55,55.9334,7.68233,171.578,1651.72,8348.9,-5412.99,59.9426,56.7365,54.6607,3705.84,-11229.5,-1595.57,15.1073,12.3329,49.9226,12617.1,-2572.21,-1717.28,-10.9065,3.21864,10.0362
4.168,23304.9,1481.88,-3372.74,67.1188,-116.02,-81.5208,4647.39,2533.08,10298.9,56.2107,-294.191,-14.8902,-13638.2,14907.2,2784.84,-46.0939,87.2952,-169.183,129.454,-14638.6,-1983.92,56.4781,7.38886,172.425,1374.34,8211.27,-5472.26,59.7574,57.0864,53.319,3781.14,-11197.8,-1469.43,15.6808,11.0303,49.1315,12696.0,-2662.47,-1754.46,-10.0264,3.55552,9.61369
4.169,23170.2,1335.65,-3102.88,67.6839,-116.525,-83.0082,4616.5,2488.69,10197.2,57.5709,-298.322,-14.3478,-13629.0,15006.1,2756.51,-48.0515,87.0003,-172.411,169.586,-14676.2,-1971.78,57.0148,7.03456,173.274,1099.22,8076.47,-5518.33,59.3936,57.4554,51.8503,3854.41,-11168.3,-1341.05,16.2415,9.68974,48.3277,12770.5,-2750.28,-1789.71,-9.13924,3.93203,9.20117
4.17,23063.6,1237.64,-2776.31,67.7192,-116.967,-83.9829,4644.83,2508.56,10139.8,59.8001,-298.949,-13.8441,-13603.4,15075.9,2716.35,-49.8263,85.9952,-175.563,210.9,-14682.0,-1915.52,57.4876,6.19366,174.138,842.199,7964.4,-5458.78,57.6013,57.9772,49.3651,3911.38,-11155.9,-1194.81,16.6994,8.04557,47.4233,12809.6,-2818.44,-1809.62,-8.19665,4.62554,8.86883
4.171,22957.0,1139.62,-2449.75,67.7545,-117.409,-84.9575,4673.16,2528.42,10082.4,62.0293,-299.577,-13.3404,-13577.9,15145.8,2676.19,-51.6012,84.9901,-178.715,252.214,-14687.7,-1859.26,57.9603,5.35276,175.003,585.174,7852.34,-5399.23,55.8089,58.4991,46.8799,3968.34,-11143.5,-1048.56,17.1572,6.40141,46.519,12848.7,-2886.6,-1829.53,-7.25406,5.31906,8.53649
4.172,22850.4,1041.6,-2123.18,67.7898,-117.851,-85.9322,4701.49,2548.29,10025.0,64.2585,-300.204,-12.8367,-13552.3,15215.6,2636.03,-53.376,83.9849,-181.866,293.529,-14693.5,-1803.0,58.433,4.51186,175.868,328.149,7740.28,-5339.68,54.0165,59.0209,44.3947,4025.3,-11131.1,-902.32,17.6151,4.75725,45.6146,12887.8,-2954.76,-1849.44,-6.31147,6.01257,8.20414
4.173,22743.9,943.583,-1796.62,67.8251,-118.293,-86.9068,4729.83,2568.15,9967.63,66.4877,-300.831,-12.333,-13526.8,15285.5,2595.86,-55.1509,82.9798,-185.018,334.843,-14699.2,-1746.74,58.9058,3.67096,176.732,71.1247,7628.21,-5280.14,52.2241,59.5428,41.9094,4082.26,-11118.7,-756.075,18.0729,3.11309,44.7102,12926.8,-3022.92,-1869.35,-5.36888,6.70608,7.8718
4.174,22666.0,809.786,-1534.66,66.5917,-118.12,-87.6706,4810.24,2611.4,10041.9,67.951,-303.611,-10.731,-13390.9,15335.4,2388.69,-56.275,81.5264,-187.822,368.421,-14710.1,-1716.93,59.4182,2.82808,177.75,-161.445,7582.66,-5295.99,48.3987,62.2597,38.8944,4163.03,-11116.5,-620.467,18.5891,1.15713,43.8321,12961.8,-3099.76,-1879.53,-4.59415,7.58335,7.56773
4.175,22602.4,658.099,-1305.01,64.724,-117.641,-88.3289,4916.69,2666.33,10181.9,69.0313,-307.467,-8.57979,-13199.9,15375.4,2098.0,-57.0739,79.8488,-190.451,398.13,-14723.4,-1700.35,59.9506,1.98422,178.845,-381.788,7570.36,-5349.54,43.5568,66.0742,35.6145,4255.7,-11119.5,-490.176,19.1344,-0.954722,42.9672,12994.7,-3180.95,-1884.86,-3.90335,8.55249,7.27779
4.176,22538.9,506.412,-1075.36,62.8563,-117.162,-88.9873,5023.14,2721.26,10321.9,70.1116,-311.323,-6.42863,-13008.9,15415.4,1807.32,-57.8727,78.1712,-193.081,427.84,-14736.8,-1683.76,60.4829,1.14035,179.94,-602.131,7558.06,-5403.09,38.7149,69.8887,32.3346,4348.38,-11122.5,-359.885,19.6797,-3.06658,42.1024,13027.7,-3262.14,-1890.18,-3.21255,9.52162,6.98784
4.177,22475.4,354.725,-845.703,60.9886,-116.682,-89.6456,5129.6,2776.2,10462.0,71.1919,-315.179,-4.27747,-12817.9,15455.3,1516.64,-58.6715,76.4936,-195.711,457.549,-14750.2,-1667.17,61.0153,0.296479,181.034,-822.474,7545.76,-5456.64,33.873,73.7031,29.0547,4441.05,-11125.5,-229.595,20.2251,-5.17843,41.2375,13060.6,-3343.33,-1895.5,-2.52175,10.4908,6.6979
4.178,22421.8,109.98,-640.201,59.0585,-115.888,-90.5627,5202.73,2827.51,10590.1,72.4395,-318.982,-2.4051,-12605.9,15466.9,1199.11,-59.1465,74.8287,-198.234,492.755,-14777.6,-1644.33,61.5229,-0.52803,182.128,-1044.05,7569.84,-5511.18,28.4277,78.5549,25.8396,4531.25,-11126.5,-93.0054,20.8054,-7.38261,40.3465,13087.4,-3416.53,-1892.81,-1.90842,11.4341,6.39891
4.179,22403.3,-460.468,-519.229,56.9102,-113.991,-92.3852,5159.26,2866.14,10676.7,74.2721,-322.601,-1.50853,-12320.4,15379.0,787.605,-58.4882,73.2085,-200.389,547.197,-14853.9,-1599.59,61.9441,-1.28478,183.218,-1269.96,7721.26,-5569.2,20.8706,87.0371,22.8514,4612.78,-11120.5,65.6282,21.508,-9.90991,39.3644,13093.0,-3461.76,-1862.1,-1.56624,12.2874,6.06823
4.18,22384.8,-1030.92,-398.256,54.7619,-112.095,-94.2077,5115.78,2904.77,10763.3,76.1047,-326.221,-0.611961,-12034.8,15291.2,376.102,-57.8298,71.5882,-202.543,601.639,-14930.2,-1554.85,62.3653,-2.04153,184.308,-1495.87,7872.68,-5627.23,13.3135,95.5193,19.8632,4694.32,-11114.6,224.262,22.2106,-12.4372,38.3822,13098.6,-3507.0,-1831.39,-1.22405,13.1407,5.73755
4.181,22366.3,-1601.36,-277.283,52.6136,-110.198,-96.0303,5072.3,2943.4,10850.0,77.9374,-329.84,0.284609,-11749.2,15203.3,-35.4019,-57.1715,69.968,-204.697,656.081,-15006.5,-1510.11,62.7865,-2.79828,185.398,-1721.78,8024.1,-5685.25,5.75633,104.001,16.8751,4775.85,-11108.6,382.895,22.9132,-14.9645,37.4001,13104.1,-3552.23,-1800.68,-0.881872,13.9939,5.40687
4.182,22347.7,-2171.81,-156.311,50.4653,-108.301,-97.8528,5028.83,2982.02,10936.6,79.77,-333.459,1.18118,-11463.7,15115.4,-446.905,-56.5131,68.3477,-206.852,710.523,-15082.8,-1465.37,63.2077,-3.55502,186.489,-1947.68,8175.51,-5743.28,-1.8008,112.484,13.8869,4857.39,-11102.6,541.529,23.6158,-17.4918,36.418,13109.7,-3597.47,-1769.97,-0.539691,14.8472,5.07619
4.183,22061.6,-2874.94,293.58,50.8244,-107.451,-101.481,4997.73,2893.95,11000.9,81.7863,-337.712,2.29299,-10939.9,14928.9,-943.284,-54.0967,66.0799,-208.409,813.295,-15170.9,-1344.93,63.4956,-4.4804,187.658,-2216.03,8278.85,-5487.4,-9.8166,122.253,11.4961,4931.23,-11144.7,691.196,24.3752,-20.4027,35.4668,13099.1,-3600.94,-1640.94,-0.0193458,15.6748,4.77763
4.184,21699.0,-3615.98,837.446,51.9,-106.9,-105.624,4970.18,2769.68,11058.8,83.855,-342.146,3.46629,-10348.1,14714.3,-1463.91,-51.1779,63.627,-209.795,929.877,-15262.4,-1202.86,63.7453,-5.45395,188.849,-2496.51,8368.46,-5141.83,-17.9634,132.391,9.27601,5002.87,-11200.5,838.302,25.1507,-23.4232,34.5245,13083.9,-3592.49,-1483.81,0.551903,16.4951,4.48823
4.185,21336.4,-4357.02,1381.31,52.9755,-106.348,-109.768,4942.62,2645.41,11116.7,85.9237,-346.58,4.63959,-9756.34,14499.6,-1984.54,-48.2591,61.1741,-211.181,1046.46,-15353.9,-1060.79,63.995,-6.4275,190.041,-2776.98,8458.06,-4796.26,-26.1103,142.528,7.05592,5074.5,-11256.2,985.408,25.9263,-26.4436,33.5823,13068.7,-3584.04,-1326.69,1.12315,17.3154,4.19884
4.186,20973.8,-5098.06,1925.18,54.051,-105.797,-113.911,4915.07,2521.14,11174.6,87.9924,-351.014,5.81289,-9164.54,14284.9,-2505.17,-45.3404,58.7213,-212.567,1163.04,-15445.4,-918.725,64.2447,-7.40105,191.232,-3057.46,8547.67,-4450.7,-34.2571,152.666,4.83583,5146.14,-11312.0,1132.51,26.7018,-29.4641,32.64,13053.5,-3575.59,-1169.56,1.6944,18.1357,3.90945
4.187,20039.6,-5734.05,2950.48,55.5443,-109.061,-117.946,4863.7,2412.89,11239.5,90.0632,-355.565,6.69836,-8326.95,14043.0,-3429.91,-40.1704,54.0156,-212.262,1280.11,-15547.7,-782.199,64.5533,-8.6303,192.368,-3346.31,8560.77,-3954.94,-42.6475,161.027,2.46882,5236.58,-11361.2,1281.98,27.5086,-32.6256,31.685,13063.2,-3562.0,-871.414,2.0751,19.0686,3.65378
4.188,17962.0,-6159.93,4938.66,57.8729,-119.957,-121.762,4764.69,2336.68,11318.5,92.1385,-360.349,7.00815,-6997.76,13746.8,-5162.88,-30.4981,44.8044,-208.572,1398.16,-15671.9,-656.761,64.9799,-10.371,193.39,-3651.92,8420.87,-3158.79,-51.525,165.835,-0.192031,5364.61,-11397.2,1436.18,28.3779,-36.0692,30.7045,13122.7,-3538.14,-291.216,2.07471,20.2267,3.46554
4.189,15884.5,-6585.81,6926.83,60.2015,-130.853,-125.579,4665.68,2260.47,11397.5,94.2137,-365.133,7.31793,-5668.57,13450.5,-6895.85,-20.8259,35.5932,-204.882,1516.21,-15796.0,-531.322,65.4065,-12.1116,194.412,-3957.52,8280.97,-2362.65,-60.4024,170.643,-2.85288,5492.63,-11433.1,1590.38,29.2472,-39.5128,29.724,13182.2,-3514.27,288.982,2.07432,21.3848,3.2773
4.19,13807.0,-7011.69,8915.01,62.53,-141.748,-129.395,4566.67,2184.26,11476.4,96.289,-369.918,7.62772,-4339.37,13154.2,-8628.81,-11.1536,26.382,-201.191,1634.26,-15920.2,-405.883,65.8331,-13.8523,195.434,-4263.13,8141.07,-1566.5,-69.2798,175.451,-5.51373,5620.66,-11469.1,1744.58,30.1165,-42.9564,28.7435,13241.7,-3490.41,869.18,2.07393,22.5429,3.08906
4.191,11729.4,-7437.57,10903.2,64.8586,-152.644,-133.212,4467.66,2108.05,11555.4,98.3643,-374.702,7.93751,-3010.18,12857.9,-10361.8,-1.48129,17.1708,-197.501,1752.31,-16044.3,-280.445,66.2597,-15.5929,196.457,-4568.73,8001.17,-770.36,-78.1573,180.259,-8.17457,5748.69,-11505.1,1898.78,30.9858,-46.3999,27.7631,13301.2,-3466.55,1449.38,2.07354,23.701,2.90082
4.192,4978.33,-9971.56,16531.3,44.6027,-202.58,-167.37,4379.1,2092.74,11757.1,101.033,-380.521,8.66746,-172.684,12059.9,-15179.7,2.92104,1.6993,-196.891,1820.39,-16124.3,-177.109,66.4795,-17.9725,197.418,-4835.09,7740.62,499.037,-87.023,174.294,-12.2228,5881.1,-11538.8,1981.73,31.9449,-50.1741,26.7612,13578.6,-3451.08,1583.08,-0.935391,26.7342,2.92497
4.193,-2356.93,-12769.1,22614.4,21.5237,-257.397,-205.322,4291.83,2085.05,11974.0,103.776,-386.47,9.44993,2853.35,11199.1,-20383.2,6.66462,-14.5548,-196.666,1882.22,-16198.7,-76.5366,66.6734,-20.432,198.371,-5096.54,7464.98,1827.59,-95.8873,166.983,-16.4445,6014.05,-11572.2,2055.78,32.9152,-53.9896,25.7568,13883.3,-3436.66,1660.97,-4.32039,30.0018,2.97566
4.194,-9692.2,-15566.6,28697.5,-1.55535,-312.214,-243.273,4204.57,2077.35,12191.0,106.519,-392.418,10.2324,5879.39,10338.4,-25586.8,10.4082,-30.8088,-196.441,1944.05,-16273.1,24.0361,66.8673,-22.8915,199.324,-5357.99,7189.35,3156.14,-104.752,159.671,-20.6661,6147.01,-11605.5,2129.82,33.8855,-57.8051,24.7523,14188.0,-3422.25,1738.86,-7.70538,33.2694,3.02636
4.195,-17027.5,-18364.1,34780.6,-24.6344,-367.03,-281.225,4117.31,2069.65,12408.0,109.262,-398.367,11.0149,8905.42,9477.6,-30790.3,14.1518,-47.0629,-196.216,2005.88,-16347.5,124.609,67.0612,-25.351,200.278,-5619.44,6913.72,4484.7,-113.616,152.36,-24.8878,6279.96,-11638.9,2203.87,34.8558,-61.6206,23.7478,14492.6,-3407.83,1816.75,-11.0904,36.537,3.07705
4.196,-27242.1,-24046.2,41024.0,-55.5322,-405.76,-352.575,4023.26,2026.99,12650.8,112.318,-404.742,11.7032,14095.0,7835.62,-38477.2,5.91216,-41.5078,-197.033,2086.94,-16449.6,289.851,67.6384,-27.7443,201.261,-5943.48,6537.37,5666.67,-119.443,142.402,-31.6144,6416.43,-11662.8,2190.52,35.6355,-65.6785,22.7448,14810.3,-3230.87,1615.52,-16.7035,41.0607,3.89796
4.197,-41055.8,-33334.2,47467.6,-96.2036,-424.383,-465.675,3920.71,1940.63,12926.1,115.765,-411.651,12.2739,21989.0,5217.11,-49268.3,-17.3065,-8.69124,-199.154,2192.05,-16586.1,535.931,68.6948,-30.055,202.283,-6345.76,6035.12,6665.42,-121.474,129.135,-41.4722,6557.29,-11674.9,2067.93,36.1771,-70.0396,21.7434,15144.2,-2850.72,1065.39,-25.1017,47.1547,5.68163
4.198,-54869.6,-42622.2,53911.3,-136.875,-443.006,-578.775,3818.15,1854.26,13201.3,119.211,-418.56,12.8447,29883.0,2598.6,-60059.4,-40.5251,24.1253,-201.274,2297.16,-16722.7,782.01,69.7512,-32.3658,203.304,-6748.05,5532.87,7664.17,-123.504,115.869,-51.33,6698.15,-11687.0,1945.33,36.7186,-74.4006,20.7421,15478.1,-2470.57,515.268,-33.4998,53.2486,7.4653
4.199,-68683.4,-51910.1,60355.0,-177.546,-461.629,-691.875,3715.6,1767.9,13476.5,122.658,-425.469,13.4154,37777.0,-19.904,-70850.5,-63.7438,56.9419,-203.395,2402.27,-16859.3,1028.09,70.8076,-34.6765,204.326,-7150.33,5030.62,8662.92,-125.535,102.603,-61.1879,6839.01,-11699.1,1822.74,37.2602,-78.7617,19.7407,15812.0,-2090.43,-34.8583,-41.898,59.3425,9.24898
4.2,-82497.2,-61198.1,66798.7,-218.218,-480.252,-804.975,3613.05,1681.54,13751.7,126.105,-432.378,13.9861,45671.0,-2638.41,-81641.6,-86.9624,89.7585,-205.515,2507.38,-16995.8,1274.17,71.864,-36.9872,205.347,-7552.62,4528.37,9661.67,-127.565,89.3366,-71.0457,6979.87,-11711.2,1700.15,37.8017,-83.1227,18.7394,16145.9,-1710.28,-584.985,-50.2962,65.4365,11.0327
4.201,-80279.8,-51155.4,47279.4,-140.163,-397.247,-753.501,3509.86,1348.57,13981.1,127.585,-440.451,13.9629,58744.4,342.475,-59672.2,-77.4871,-11.263,-169.336,2803.99,-17312.1,1658.52,74.0049,-40.1855,206.278,-8645.12,4615.4,9870.63,-117.017,78.5003,-85.6945,7115.36,-11719.8,1519.67,36.7899,-87.1203,17.9942,16119.2,-809.865,310.574,-55.0827,68.6395,14.8346
4.202,-78062.5,-41112.7,27760.2,-62.1083,-314.241,-702.026,3406.66,1015.61,14210.4,129.064,-448.524,13.9398,71817.7,3323.36,-37702.9,-68.0118,-112.285,-133.157,3100.59,-17628.4,2042.87,76.1457,-43.3837,207.209,-9737.61,4702.43,10079.6,-106.468,67.6639,-100.343,7250.85,-11728.5,1339.19,35.778,-91.1179,17.2491,16092.6,90.5495,1206.13,-59.8692,71.8425,18.6365
4.203,-75845.2,-31069.9,8240.9,15.9464,-231.236,-650.552,3303.47,682.639,14439.8,130.544,-456.597,13.9167,84891.0,6304.25,-15733.6,-58.5366,-213.306,-96.9776,3397.2,-17944.7,2427.22,78.2865,-46.582,208.14,-10830.1,4789.46,10288.5,-95.9194,56.8275,-114.992,7386.33,-11737.1,1158.71,34.7662,-95.1155,16.504,16065.9,990.964,2101.69,-64.6556,75.0455,22.4384
4.204,-73627.9,-21027.2,-11278.4,94.0011,-148.23,-599.078,3200.27,349.673,14669.1,132.024,-464.67,13.8935,97964.4,9285.14,6235.79,-49.0613,-314.328,-60.7984,3693.81,-18260.9,2811.57,80.4274,-49.7802,209.072,-11922.6,4876.49,10497.5,-85.3708,45.9912,-129.641,7521.82,-11745.8,978.228,33.7543,-99.1131,15.7588,16039.3,1891.38,2997.25,-69.4421,78.2486,26.2403
4.205,-62106.2,-13405.9,-15933.4,139.812,-93.3748,-506.83,3103.17,319.973,14808.1,130.495,-473.209,13.5954,97353.2,9950.94,16048.0,-47.4826,-332.292,-52.1579,3995.74,-18643.5,2919.77,82.3953,-54.235,209.774,-13270.2,5792.24,10465.7,-71.5908,38.3039,-139.013,7681.35,-11804.7,843.334,31.522,-102.74,15.2348,15933.2,2678.49,4197.39,-71.2658,76.7717,30.0156
4.206,-43141.2,-7721.62,-8697.18,159.828,-61.0387,-381.963,3010.94,532.886,14874.8,126.56,-482.122,13.0772,85794.4,8764.67,16134.6,-52.2212,-283.812,-65.5484,4301.92,-19079.0,2807.05,84.2248,-59.695,210.293,-14821.7,7370.98,10241.3,-55.2257,33.1358,-144.165,7860.1,-11903.8,744.909,28.3133,-106.07,14.8876,15763.6,3374.97,5641.19,-70.7192,71.5508,33.7696
4.207,-24176.2,-2037.38,-1460.93,179.845,-28.7027,-257.096,2918.72,745.799,14941.5,122.624,-491.035,12.559,74235.6,7578.4,16221.2,-56.9598,-235.332,-78.9389,4608.11,-19514.5,2694.34,86.0544,-65.155,210.813,-16373.3,8949.71,10016.9,-38.8607,27.9678,-149.317,8038.86,-12003.0,646.483,25.1047,-109.401,14.5405,15594.0,4071.45,7085.0,-70.1727,66.33,37.5237
4.208,-5211.17,3646.85,5775.32,199.861,3.63336,-132.229,2826.49,958.712,15008.2,118.689,-499.948,12.0408,62676.9,6392.13,16307.8,-61.6985,-186.852,-92.3293,4914.29,-19950.0,2581.63,87.8839,-70.615,211.332,-17924.9,10528.4,9792.44,-22.4956,22.7997,-154.468,8217.61,-12102.2,548.058,21.896,-112.731,14.1933,15424.4,4767.92,8528.8,-69.6261,61.1092,41.2777
4.209,12987.6,8267.92,12321.0,218.082,31.3228,-22.1174,2733.06,1218.1,15035.1,115.173,-508.815,11.6633,50424.9,5650.81,15945.5,-66.5876,-133.844,-105.629,5197.01,-20373.6,2437.73,89.5721,-76.0507,211.827,-19349.8,12154.0,9581.38,-6.94683,18.1213,-158.009,8406.57,-12216.8,445.092,18.7182,-115.908,13.8074,15265.3,5433.17,9806.57,-69.4292,55.7085,44.9722
4.21,25056.3,4383.58,13342.5,221.938,21.8397,-30.0466,2629.94,1849.27,14743.5,115.016,-517.317,12.4116,32627.3,8469.11,11991.8,-72.6809,-44.6119,-118.202,5292.05,-20701.5,2044.38,90.1293,-81.2919,212.123,-19760.9,14154.6,9477.07,2.07186,17.3603,-148.662,8677.14,-12455.0,305.802,15.787,-117.855,13.1116,15190.1,5848.56,9756.06,-72.0291,48.8696,48.1909
4.211,37125.0,499.241,14364.0,225.795,12.3565,-37.9758,2526.81,2480.44,14452.0,114.859,-525.818,13.1598,14829.7,11287.4,8038.15,-78.7742,44.6196,-130.774,5387.09,-21029.3,1651.04,90.6865,-86.5332,212.419,-20172.0,16155.1,9372.77,11.0906,16.5992,-139.315,8947.71,-12693.2,166.511,12.8558,-119.802,12.4159,15114.8,6263.96,9705.55,-74.629,42.0307,51.4097
4.212,49193.7,-3385.1,15385.5,229.652,2.87332,-45.905,2423.69,3111.62,14160.4,114.702,-534.32,13.9081,-2967.94,14105.7,4084.47,-84.8675,133.851,-143.347,5482.13,-21357.2,1257.69,91.2437,-91.7745,212.715,-20583.1,18155.6,9268.47,20.1092,15.8381,-129.968,9218.28,-12931.5,27.2204,9.92458,-121.749,11.7201,15039.6,6679.35,9655.05,-77.2289,35.1917,54.6284
4.213,61262.4,-7269.44,16407.0,233.509,-6.60985,-53.8342,2320.57,3742.79,13868.9,114.544,-542.822,14.6564,-20765.5,16924.0,130.795,-90.9608,223.083,-155.92,5577.17,-21685.1,864.348,91.801,-97.0157,213.011,-20994.2,20156.2,9164.17,29.1279,15.077,-120.62,9488.85,-13169.7,-112.07,6.99339,-123.696,11.0244,14964.4,7094.75,9604.54,-79.8288,28.3528,57.8471
4.214,67264.6,-6993.84,15098.4,243.409,-31.9259,-84.1939,2121.62,4148.11,13764.2,115.409,-551.329,15.9157,-29383.8,18760.8,-291.886,-82.8691,277.603,-163.672,5644.43,-21873.1,585.681,91.7001,-102.576,213.39,-19875.8,21702.8,8879.43,29.6081,17.4167,-109.38,9797.92,-13482.6,-179.934,5.91337,-124.619,10.0814,14786.7,7427.28,9057.55,-83.3135,24.4078,60.6364
4.215,70233.6,-4638.27,12624.6,256.331,-65.1585,-125.769,1874.76,4440.5,13753.0,116.783,-559.838,17.4305,-33412.5,20106.7,1050.93,-67.6849,314.767,-169.014,5697.78,-21991.3,364.352,91.2702,-108.296,213.811,-17992.7,23022.4,8504.47,25.8191,21.3067,-97.1935,10126.2,-13832.7,-212.085,5.75893,-125.031,9.01487,14557.9,7718.38,8262.33,-87.2407,21.9098,63.211
4.216,73202.6,-2282.7,10150.9,269.252,-98.391,-167.344,1627.89,4732.89,13741.8,118.158,-568.346,18.9453,-37441.1,21452.6,2393.75,-52.5006,351.931,-174.356,5751.14,-22109.4,143.024,90.8403,-114.016,214.231,-16109.6,24342.0,8129.51,22.03,25.1967,-85.0068,10454.6,-14182.9,-244.235,5.6045,-125.443,7.94831,14329.1,8009.49,7467.1,-91.1678,19.4118,65.7856
4.217,76171.6,72.872,7677.1,282.174,-131.624,-208.918,1381.03,5025.29,13730.6,119.533,-576.855,20.4601,-41469.7,22798.6,3736.57,-37.3164,389.095,-179.699,5804.5,-22227.6,-78.304,90.4104,-119.735,214.652,-14226.5,25661.6,7754.55,18.241,29.0867,-72.82,10782.9,-14533.0,-276.386,5.45007,-125.854,6.88175,14100.3,8300.59,6671.88,-95.095,16.9138,68.3602
4.218,76461.9,3343.0,5061.9,284.805,-164.016,-235.992,1158.2,5257.96,13777.1,121.167,-585.397,21.8669,-43548.8,24221.2,5925.39,-24.7957,409.985,-184.521,5889.96,-22342.2,-248.14,89.9646,-125.86,214.981,-12096.1,26848.6,7357.57,13.6103,34.3905,-61.2702,11081.3,-14853.9,-275.736,5.83457,-126.074,5.78255,13822.7,8569.2,6017.23,-97.9977,14.9169,70.6612
4.219,67376.4,9814.09,1951.62,251.419,-193.467,-212.31,1019.53,5281.59,14025.7,123.709,-594.054,22.8958,-38804.3,25912.4,11075.2,-21.5973,373.915,-187.525,6087.79,-22444.7,-237.755,89.4631,-133.401,214.991,-9100.21,27571.7,6883.53,6.03384,44.6427,-51.9497,11275.0,-15072.2,-160.285,8.10535,-125.622,4.56912,13374.3,8759.07,5854.62,-97.3151,14.6736,72.0043
4.22,58290.9,16285.2,-1158.66,218.032,-222.917,-188.628,880.852,5305.22,14274.3,126.25,-602.711,23.9247,-34059.8,27603.5,16225.1,-18.3989,337.845,-190.528,6285.61,-22547.2,-227.369,88.9616,-140.943,215.001,-6104.28,28294.7,6409.49,-1.54262,54.8949,-42.6293,11468.7,-15290.5,-44.8335,10.3761,-125.17,3.35569,12925.9,8948.94,5692.0,-96.6325,14.4303,73.3474
4.221,49205.5,22756.3,-4268.94,184.645,-252.368,-164.946,742.177,5328.85,14523.0,128.792,-611.367,24.9536,-29315.3,29294.7,21374.9,-15.2005,301.775,-193.531,6483.44,-22649.6,-216.983,88.4601,-148.484,215.011,-3108.35,29017.7,5935.45,-9.11907,65.1471,-33.3088,11662.4,-15508.9,70.6178,12.6469,-124.719,2.14227,12477.5,9138.81,5529.39,-95.9499,14.187,74.6905
4.222,40120.0,29227.4,-7379.22,151.259,-281.819,-141.264,603.502,5352.49,14771.6,131.333,-620.024,25.9825,-24570.8,30985.9,26524.8,-12.0021,265.705,-196.535,6681.27,-22752.1,-206.598,87.9587,-156.025,215.021,-112.418,29740.7,5461.41,-16.6955,75.3993,-23.9883,11856.1,-15727.2,186.069,14.9177,-124.267,0.928838,12029.1,9328.67,5366.77,-95.2673,13.9437,76.0336
4.223,32306.6,30415.7,-8015.14,122.835,-297.836,-106.145,662.817,5373.88,14861.1,133.583,-628.345,27.3697,-23226.1,32765.2,27494.3,-10.8905,232.759,-198.651,7075.13,-22812.8,-145.569,87.3987,-164.402,214.585,2295.69,29705.5,5980.44,-19.7925,83.0851,-16.1678,11927.7,-15843.1,315.571,16.7912,-123.205,-0.540068,11575.2,9327.3,5479.44,-92.2095,13.5871,76.203
4.224,24856.6,30094.6,-7944.11,95.8289,-310.015,-67.7569,778.701,5394.64,14905.1,135.749,-636.569,28.8594,-22852.7,34569.8,27269.5,-10.3751,200.705,-200.513,7525.01,-22861.5,-70.0696,86.822,-173.019,214.02,4535.85,29453.7,6783.21,-21.6095,90.0377,-8.77586,11964.4,-15929.8,449.087,18.5511,-121.97,-2.08197,11119.6,9271.28,5670.75,-88.4731,13.1981,76.037
4.225,17406.6,29773.6,-7873.08,68.823,-322.194,-29.3693,894.584,5415.39,14949.1,137.915,-644.794,30.349,-22479.3,36374.4,27044.6,-9.85969,168.651,-202.375,7974.88,-22910.3,5.42927,86.2452,-181.635,213.456,6776.01,29201.8,7585.98,-23.4266,96.9903,-1.3839,12001.1,-16016.5,582.603,20.3111,-120.735,-3.62387,10664.0,9215.26,5862.07,-84.7367,12.8091,75.8711
4.226,9956.56,29452.5,-7802.05,41.817,-334.373,9.01835,1010.47,5436.15,14993.1,140.081,-653.019,31.8386,-22105.9,38178.9,26819.8,-9.34429,136.598,-204.237,8424.75,-22959.1,80.9281,85.6685,-190.252,212.891,9016.16,28950.0,8388.74,-25.2437,103.943,6.00806,12037.7,-16103.2,716.12,22.071,-119.5,-5.16577,10208.4,9159.24,6053.38,-81.0003,12.4201,75.7051
4.227,5304.22,26855.9,-6642.42,21.6081,-343.723,37.4051,1180.59,5559.45,15058.8,141.797,-661.079,33.5481,-21707.2,38954.3,25912.3,-9.21852,108.355,-208.143,8924.85,-23029.7,87.1034,85.105,-198.139,212.053,10926.5,28374.7,9295.7,-23.3865,107.304,12.4087,12064.9,-16131.1,840.63,22.9141,-118.066,-6.77654,9775.83,8959.52,6223.61,-77.4542,11.5032,75.0109
4.228,6247.2,19708.0,-3305.61,14.9931,-347.415,45.7901,1459.18,5887.82,15167.6,142.614,-668.813,35.6973,-21257.7,37671.1,23639.6,-9.87203,87.7337,-216.135,9525.39,-23144.2,-45.3685,84.5678,-204.57,210.665,12177.2,27152.6,10411.1,-14.1807,103.48,16.8267,12073.0,-16041.4,947.13,21.9233,-116.235,-8.52505,9389.21,8472.39,6351.66,-74.2886,9.53051,73.2603
4.229,7190.17,12560.2,31.1963,8.37816,-351.108,54.1751,1737.77,6216.2,15276.5,143.43,-676.546,37.8466,-20808.3,36387.9,21366.9,-10.5255,67.1126,-224.128,10125.9,-23258.6,-177.84,84.0306,-211.0,209.278,13427.8,25930.4,11526.4,-4.97486,99.6564,21.2447,12081.1,-15951.7,1053.63,20.9324,-114.404,-10.2736,9002.58,7985.25,6479.72,-71.123,7.55786,71.5097
4.23,8133.15,5412.35,3368.01,1.76319,-354.8,62.5601,2016.36,6544.58,15385.3,144.247,-684.279,39.9959,-20358.9,35104.7,19094.2,-11.179,46.4916,-232.12,10726.5,-23373.0,-310.312,83.4933,-217.43,207.89,14678.5,24708.3,12641.8,4.23095,95.8329,25.6627,12089.2,-15862.0,1160.13,19.9416,-112.573,-12.0221,8615.96,7498.12,6607.77,-67.9574,5.58521,69.759
4.231,9076.12,-1735.49,6704.81,-4.85178,-358.493,70.9451,2294.95,6872.96,15494.2,145.064,-692.013,42.1452,-19909.4,33821.5,16821.5,-11.8325,25.8705,-240.113,11327.0,-23487.5,-442.784,82.9561,-223.861,206.502,15929.2,23486.2,13757.1,13.4368,92.0093,30.0807,12097.2,-15772.3,1266.63,18.9508,-110.742,-13.7706,8229.34,7010.98,6735.82,-64.7918,3.61256,68.0084
4.232,10815.2,-7189.34,9515.44,7.96579,-354.073,68.2672,2988.83,7212.21,15017.0,147.121,-703.204,46.4119,-17050.3,30724.3,13770.5,-10.841,14.639,-246.873,11877.0,-23468.1,-871.923,82.836,-225.518,204.682,16684.1,22004.6,13613.8,28.2376,81.1621,32.379,12220.0,-15661.9,1159.52,18.695,-107.603,-15.5235,7929.65,6393.99,6655.24,-62.2545,1.34869,65.1521
4.233,12653.7,-12431.4,12260.3,23.2124,-348.638,64.2064,3734.62,7552.82,14466.6,149.334,-714.827,50.9433,-13889.8,27400.5,10622.3,-9.64385,4.58134,-253.479,12420.7,-23431.9,-1338.14,82.7681,-226.578,202.808,17377.1,20490.5,13313.3,43.7378,69.437,34.4124,12357.1,-15549.0,1025.72,18.5311,-104.301,-17.2771,7640.82,5760.76,6548.58,-59.7957,-0.951593,62.1575
4.234,14492.2,-17673.5,15005.1,38.459,-343.204,60.1457,4480.41,7893.43,13916.1,151.547,-726.45,55.4747,-10729.4,24076.6,7474.05,-8.44669,-5.47636,-260.085,12964.4,-23395.7,-1804.37,82.7001,-227.639,200.934,18070.1,18976.5,13012.7,59.2381,57.7118,36.4457,12494.2,-15436.1,891.907,18.3672,-100.999,-19.0306,7352.0,5127.53,6441.92,-57.3369,-3.25187,59.163
4.235,16330.8,-22915.6,17750.0,53.7057,-337.77,56.0849,5226.2,8234.05,13365.7,153.759,-738.073,60.0062,-7569.02,20752.8,4325.82,-7.24953,-15.5341,-266.691,13508.1,-23359.6,-2270.59,82.6321,-228.699,199.06,18763.2,17462.4,12712.1,74.7383,45.9867,38.4791,12631.3,-15323.2,758.099,18.2033,-97.6973,-20.7841,7063.17,4494.3,6335.25,-54.8781,-5.55215,56.1684
4.236,16263.1,-25994.6,19435.2,72.8366,-327.75,51.3462,6324.18,8212.16,12346.0,156.857,-751.705,65.6594,-4355.21,17680.0,1431.13,-7.05874,-19.724,-269.368,13934.5,-23141.5,-2807.55,83.0849,-225.703,197.489,19023.5,15958.5,11797.9,88.4165,34.6914,40.2599,12723.1,-15198.0,483.634,20.3098,-93.5601,-22.3299,6841.78,3932.94,6147.75,-53.2185,-7.04977,53.2055
4.237,13812.7,-26369.7,19795.7,96.823,-311.999,45.7603,7862.4,7737.15,10739.9,161.061,-767.85,72.7149,-1074.63,14921.0,-1146.65,-8.12592,-16.5791,-267.134,14214.2,-22696.0,-3432.94,84.1887,-217.635,196.297,18743.1,14467.4,10116.8,99.817,23.9334,41.7252,12758.3,-15057.6,33.3487,25.2544,-88.379,-23.6159,6704.69,3461.4,5859.19,-52.5579,-7.54408,50.2821
4.238,11362.3,-26744.8,20156.3,120.809,-296.247,40.1743,9400.61,7262.14,9133.77,165.265,-783.994,79.7703,2205.94,12162.1,-3724.43,-9.1931,-13.4343,-264.9,14494.0,-22250.5,-4058.33,85.2925,-209.568,195.105,18462.8,12976.2,8435.72,111.218,13.1755,43.1905,12793.5,-14917.2,-416.937,30.1989,-83.1979,-24.902,6567.6,2989.87,5570.63,-51.8974,-8.03839,47.3587
4.239,8911.86,-27119.9,20516.9,144.796,-280.495,34.5883,10938.8,6787.13,7527.64,169.469,-800.139,86.8258,5486.51,9403.13,-6302.21,-10.2603,-10.2895,-262.666,14773.7,-21805.0,-4683.73,86.3963,-201.501,193.913,18182.4,11485.1,6754.61,122.618,2.41758,44.6558,12828.7,-14776.7,-867.222,35.1435,-78.0168,-26.1881,6430.5,2518.33,5282.07,-51.2369,-8.5327,44.4353
4.24,6461.45,-27495.0,20877.4,168.782,-264.744,29.0023,12477.0,6312.11,5921.5,173.672,-816.284,93.8813,8767.08,6644.18,-8879.99,-11.3275,-7.14463,-260.432,15053.4,-21359.5,-5309.12,87.5001,-193.433,192.721,17902.0,9993.93,5073.5,134.019,-8.34035,46.121,12863.9,-14636.3,-1317.51,40.088,-72.8356,-27.4741,6293.41,2046.79,4993.51,-50.5764,-9.02701,41.5119
4.241,4287.74,-25037.6,20346.2,187.842,-246.551,23.472,14251.7,5639.45,4616.42,178.842,-822.232,96.8349,11676.5,4772.47,-11501.5,-5.94755,12.0882,-247.038,14785.0,-20686.9,-5516.79,89.6602,-177.165,194.307,16492.9,8857.58,3019.48,140.026,-9.55445,46.1788,12574.4,-14243.6,-1413.44,46.3021,-68.5098,-27.5915,6315.94,1795.16,5057.67,-50.42,-8.28813,39.0173
4.242,2114.03,-22580.3,19815.0,206.902,-228.358,17.9416,16026.3,4966.78,3311.34,184.012,-828.18,99.7885,14586.0,2900.75,-14123.0,-0.567649,31.321,-233.645,14516.6,-20014.4,-5724.46,91.8202,-160.896,195.893,15083.8,7721.23,965.46,146.034,-10.7685,46.2365,12284.9,-13851.0,-1509.36,52.5162,-64.1839,-27.7089,6338.48,1543.53,5121.83,-50.2637,-7.54926,36.5227
4.243,-59.6743,-20123.0,19283.8,225.962,-210.164,12.4113,17801.0,4294.11,2006.26,189.182,-834.128,102.742,17495.4,1029.04,-16744.5,4.81225,50.5538,-220.252,14248.2,-19341.9,-5932.14,93.9803,-144.628,197.478,13674.8,6584.88,-1088.56,152.041,-11.9826,46.2943,11995.4,-13458.3,-1605.29,58.7302,-59.8581,-27.8263,6361.01,1291.91,5185.98,-50.1074,-6.81038,34.028
4.244,-2233.38,-17665.7,18752.6,245.021,-191.971,6.88094,19575.6,3621.45,701.185,194.352,-840.076,105.696,20404.9,-842.677,-19366.0,10.1922,69.7866,-206.859,13979.8,-18669.3,-6139.81,96.1404,-128.359,199.064,12265.7,5448.53,-3142.58,158.049,-13.1967,46.352,11706.0,-13065.7,-1701.22,64.9443,-55.5322,-27.9437,6383.54,1040.28,5250.14,-49.951,-6.07151,31.5334
4.245,-2310.91,-13826.1,17507.7,248.271,-174.677,0.589187,21437.6,3959.45,1323.01,201.933,-830.496,101.011,22268.4,-2067.7,-20168.2,15.9542,87.2237,-190.683,13330.8,-18098.5,-6211.04,97.7296,-113.182,202.174,10547.8,4621.31,-4932.75,162.687,-8.0661,44.9048,11293.6,-12648.6,-1539.74,69.1228,-52.6406,-28.1497,6458.89,827.429,5430.85,-49.2805,-5.56596,29.5174
4.246,-711.498,-8880.59,15691.9,238.874,-158.102,-6.31169,23369.5,5105.98,3486.36,211.443,-808.494,90.2169,23295.1,-2775.36,-19515.0,22.0219,103.224,-172.281,12377.3,-17609.1,-6173.11,98.8621,-98.8784,206.503,8582.71,4041.39,-6511.84,166.23,2.14032,42.2536,10782.9,-12211.9,-1172.32,71.6729,-50.8962,-28.4266,6576.5,645.607,5704.8,-48.1985,-5.24708,27.8841
4.247,887.914,-3935.12,13876.0,229.476,-141.527,-13.2126,25301.4,6252.52,5649.72,220.953,-786.492,79.4224,24321.9,-3483.03,-18861.8,28.0896,119.225,-153.88,11423.8,-17119.7,-6135.18,99.9946,-84.5745,210.833,6617.64,3461.47,-8090.92,169.773,12.3467,39.6024,10272.2,-11775.3,-804.901,74.223,-49.1519,-28.7035,6694.1,463.785,5978.75,-47.1166,-4.92819,26.2509
4.248,2487.33,1010.34,12060.1,220.078,-124.952,-20.1134,27233.3,7399.05,7813.07,230.463,-764.49,68.6279,25348.6,-4190.69,-18208.7,34.1573,135.225,-135.478,10470.3,-16630.2,-6097.26,101.127,-70.2706,215.162,4652.57,2881.55,-9670.01,173.316,22.5531,36.9512,9761.5,-11338.6,-437.483,76.7731,-47.4076,-28.9803,6811.71,281.963,6252.7,-46.0346,-4.60931,24.6176
4.249,4265.61,5996.41,10502.5,209.703,-109.928,-27.2732,29014.3,8831.09,9833.93,238.483,-742.358,58.933,25831.7,-4662.51,-17407.4,39.4128,150.409,-118.166,9458.9,-16182.1,-6102.62,101.88,-56.5113,219.487,2700.18,2351.71,-11118.8,176.408,33.231,33.9833,9252.15,-10915.3,-103.953,78.9364,-45.7365,-29.4669,6933.56,93.4892,6501.91,-44.844,-4.35498,23.0603
4.25,7474.86,11307.3,11010.4,191.509,-107.316,-36.5042,29587.8,12547.1,10714.9,234.587,-719.196,58.0353,21965.4,-3247.6,-15421.5,38.1699,159.062,-109.575,7984.15,-16064.1,-6454.28,99.5914,-47.1094,223.781,849.285,2222.59,-11525.6,175.889,47.6803,28.4816,8753.54,-10598.8,-41.5214,78.0052,-44.6515,-31.631,7089.34,-148.195,6553.2,-42.784,-4.61706,22.1106
4.251,10684.1,16618.1,11518.3,173.315,-104.703,-45.7351,30161.3,16263.2,11595.9,230.69,-696.034,57.1376,18099.1,-1832.68,-13435.6,36.927,167.715,-100.984,6509.41,-15946.2,-6805.94,97.3032,-37.7075,228.074,-1001.61,2093.46,-11932.4,175.37,62.1296,22.9799,8254.93,-10282.4,20.9105,77.074,-43.5664,-33.7952,7245.13,-389.879,6604.48,-40.724,-4.87914,21.1608
4.252,13893.4,21929.0,12026.2,155.121,-102.091,-54.9661,30734.8,19979.2,12476.8,226.794,-672.872,56.2399,14232.8,-417.772,-11449.7,35.6842,176.369,-92.3933,5034.66,-15828.2,-7157.61,95.0151,-28.3056,232.368,-2852.51,1964.33,-12339.2,174.852,76.5789,17.4782,7756.31,-9965.88,83.3424,76.1427,-42.4814,-35.9593,7400.92,-631.564,6655.77,-38.664,-5.14123,20.2111
4.253,17102.6,27239.8,12534.1,136.927,-99.4781,-64.1971,31308.4,23695.2,13357.8,222.898,-649.709,55.3422,10366.4,997.142,-9463.83,34.4413,185.022,-83.8023,3559.91,-15710.2,-7509.27,92.727,-18.9036,236.661,-4703.4,1835.2,-12745.9,174.333,91.0282,11.9765,7257.7,-9649.4,145.774,75.2115,-41.3963,-38.1234,7556.71,-873.248,6707.05,-36.604,-5.40331,19.2613
4.254,19462.6,28031.8,12658.1,129.329,-94.4303,-72.2025,30939.7,27147.5,13373.5,207.749,-632.122,64.4702,5411.53,2206.27,-7945.73,30.923,191.338,-86.2103,2270.01,-15860.7,-8187.45,88.3621,-10.5963,239.326,-6209.01,1869.57,-12573.0,169.247,102.765,5.0587,6904.82,-9431.41,-207.398,72.8191,-38.6055,-41.3648,7697.67,-1179.34,6652.05,-34.5725,-5.12174,18.4551
4.255,21397.9,26564.3,12590.1,127.029,-88.165,-79.5951,30100.0,30468.0,12956.7,186.974,-617.323,78.611,-87.6879,3312.5,-6661.52,26.2669,196.486,-94.1179,1072.52,-16145.4,-9028.89,82.9589,-2.83635,241.176,-7541.96,1985.69,-12110.1,161.877,113.146,-2.56714,6624.81,-9262.68,-768.372,69.6962,-34.9618,-45.1448,7831.23,-1517.62,6543.9,-32.5552,-4.56833,17.7207
4.256,23333.3,25096.8,12522.2,124.729,-81.8997,-86.9877,29260.3,33788.5,12539.9,166.199,-602.523,92.7519,-5586.9,4418.73,-5377.31,21.6109,201.634,-102.025,-124.962,-16430.0,-9870.33,77.5558,4.92364,243.027,-8874.92,2101.8,-11647.3,154.508,123.526,-10.193,6344.79,-9093.94,-1329.35,66.5733,-31.3181,-48.9247,7964.79,-1855.91,6435.75,-30.538,-4.01492,16.9862
4.257,25268.6,23629.3,12454.2,122.43,-75.6344,-94.3804,28420.6,37109.0,12123.0,145.424,-587.724,106.893,-11086.1,5524.95,-4093.09,16.9548,206.782,-109.933,-1322.45,-16714.7,-10711.8,72.1526,12.6836,244.877,-10207.9,2217.92,-11184.4,147.138,133.907,-17.8188,6064.77,-8925.21,-1890.32,63.4504,-27.6744,-52.7047,8098.34,-2194.2,6327.6,-28.5207,-3.46152,16.2518
4.258,26619.0,21342.8,12325.5,120.434,-69.0076,-98.3259,27645.2,39289.1,11713.2,123.469,-573.06,121.734,-16063.3,6675.74,-2809.96,13.8155,209.577,-118.191,-2190.12,-17046.1,-11541.2,67.0748,20.95,246.25,-11418.7,2351.18,-10667.3,138.678,142.616,-25.2355,5822.98,-8779.05,-2488.47,59.9167,-23.3872,-56.5967,8240.87,-2545.95,6229.4,-27.0812,-2.59263,15.5699
4.259,25921.8,16189.6,11984.3,119.501,-61.1158,-90.2066,27095.2,37478.0,11327.7,97.3831,-558.873,139.027,-19213.1,7982.45,-1530.59,15.9847,204.139,-127.673,-1903.45,-17541.0,-12328.5,63.1359,30.9886,245.952,-12202.1,2544.46,-9960.02,126.402,145.475,-31.92,5714.95,-8711.89,-3216.71,54.9454,-16.8473,-60.8806,8414.77,-2944.78,6166.02,-27.6637,-0.61956,15.0721
4.26,25224.6,11036.4,11643.0,118.568,-53.2239,-82.0874,26545.3,35666.9,10942.2,71.2974,-544.685,156.32,-22363.0,9289.17,-251.218,18.1539,198.7,-137.155,-1616.79,-18036.0,-13115.8,59.197,41.0272,245.654,-12985.4,2737.74,-9252.74,114.126,148.335,-38.6046,5606.92,-8644.74,-3944.96,49.9741,-10.3075,-65.1645,8588.68,-3343.61,6102.63,-28.2461,1.35351,14.5743
4.261,24527.4,5883.29,11301.8,117.635,-45.332,-73.9681,25995.3,33855.8,10556.7,45.2117,-530.497,173.613,-25512.8,10595.9,1028.15,20.3231,193.262,-146.638,-1330.12,-18530.9,-13903.0,55.2582,51.0658,245.356,-13768.8,2931.02,-8545.47,101.85,151.195,-45.2891,5498.89,-8577.59,-4673.21,45.0028,-3.76768,-69.4484,8762.59,-3742.44,6039.25,-28.8286,3.32658,14.0765
4.262,23830.2,730.13,10960.6,116.702,-37.4402,-65.8488,25445.3,32044.7,10171.3,19.126,-516.309,190.907,-28662.7,11902.6,2307.52,22.4923,187.824,-156.12,-1043.46,-19025.9,-14690.3,51.3193,61.1044,245.058,-14552.2,3124.3,-7838.2,89.5738,154.054,-51.9736,5390.87,-8510.44,-5401.45,40.0314,2.77215,-73.7323,8936.5,-4141.27,5975.87,-29.4111,5.29965,13.5787
4.263,22531.4,-3627.97,10537.0,116.672,-32.0268,-56.0238,24363.2,29102.1,10684.1,-1.77401,-503.914,201.799,-28352.4,13096.8,3597.56,23.7404,169.607,-161.373,-172.166,-19593.3,-15066.4,49.6508,71.6748,244.68,-15145.7,3150.49,-7173.53,77.2644,151.576,-56.4604,5351.31,-8570.58,-5849.28,34.4127,9.55495,-78.0736,9177.28,-4426.7,6026.18,-31.5115,7.8195,13.2343
4.264,21060.7,-7758.9,10090.0,116.901,-27.3217,-45.7115,23129.0,25836.2,11453.6,-21.1925,-492.031,210.862,-27053.6,14258.8,4890.66,24.7253,147.739,-165.417,866.159,-20181.5,-15325.0,48.6309,82.3971,244.279,-15685.0,3128.93,-6521.04,64.9453,147.573,-60.3193,5331.31,-8667.1,-6216.99,28.6089,16.4072,-82.4314,9437.16,-4679.73,6108.98,-34.0456,10.4956,12.9338
4.265,19590.0,-11889.8,9642.97,117.129,-22.6165,-35.3992,21894.9,22570.4,12223.2,-40.6109,-480.147,219.926,-25754.8,15420.9,6183.75,25.7102,125.872,-169.461,1904.48,-20769.7,-15583.5,47.6111,93.1195,243.878,-16224.3,3107.38,-5868.55,52.6263,143.569,-64.1781,5311.31,-8763.62,-6584.69,22.8051,23.2594,-86.7891,9697.03,-4932.76,6191.78,-36.5797,13.1716,12.6332
4.266,18119.3,-16020.8,9195.94,117.357,-17.9113,-25.087,20660.7,19304.5,12992.7,-60.0294,-468.264,228.989,-24455.9,16582.9,7476.84,26.6951,104.004,-173.505,2942.81,-21357.9,-15842.1,46.5913,103.842,243.477,-16763.6,3085.82,-5216.06,40.3072,139.566,-68.037,5291.31,-8860.14,-6952.4,17.0014,30.1116,-91.1469,9956.91,-5185.8,6274.59,-39.1138,15.8477,12.3327
4.267,16788.7,-19001.1,8736.04,116.953,-14.4184,-17.5438,19526.9,16436.8,13776.2,-74.3562,-458.96,236.944,-22651.6,17545.2,8301.67,26.8973,80.964,-175.6,3831.29,-21846.5,-15916.7,45.9828,113.012,242.855,-17292.3,3002.38,-4685.44,29.5254,134.778,-71.2508,5284.54,-9045.47,-7196.21,11.4266,36.3275,-95.6365,10226.3,-5358.26,6359.86,-41.5456,18.4268,12.1875
4.268,15738.4,-19680.4,8250.41,115.282,-13.3501,-15.5389,18593.8,14365.2,14587.7,-78.4998,-454.816,242.682,-19836.2,18107.7,8190.0,25.5339,55.5801,-173.798,4420.07,-22136.0,-15623.3,46.1971,119.079,241.791,-17799.7,2795.15,-4398.56,21.818,128.424,-73.1745,5304.23,-9408.43,-7192.25,6.30979,41.2707,-100.39,10514.7,-5369.59,6450.08,-43.7729,20.8118,12.353
4.269,14688.2,-20359.7,7764.78,113.611,-12.2818,-13.5341,17660.8,12293.7,15399.3,-82.6434,-450.672,248.419,-17020.8,18670.3,8078.32,24.1706,30.1961,-171.996,5008.85,-22425.6,-15330.0,46.4114,125.145,240.728,-18307.1,2587.93,-4111.68,14.1106,122.069,-75.0981,5323.92,-9771.38,-7188.28,1.19299,46.2138,-105.143,10803.1,-5380.92,6540.31,-46.0002,23.1968,12.5186
4.27,13637.9,-21039.0,7279.16,111.941,-11.2135,-11.5292,16727.7,10222.2,16210.8,-86.787,-446.528,254.156,-14205.4,19232.9,7966.65,22.8072,4.81221,-170.193,5597.63,-22715.1,-15036.6,46.6257,131.212,239.665,-18814.5,2380.7,-3824.8,6.40314,115.715,-77.0218,5343.61,-10134.3,-7184.31,-3.92381,51.157,-109.897,11091.5,-5392.25,6630.53,-48.2274,25.5819,12.6841
4.271,12587.6,-21718.3,6793.53,110.27,-10.1452,-9.52439,15794.6,8150.62,17022.4,-90.9306,-442.384,259.893,-11390.0,19795.4,7854.97,21.4439,-20.5717,-168.391,6186.41,-23004.6,-14743.2,46.84,137.278,238.601,-19321.9,2173.48,-3537.92,-1.30429,109.36,-78.9454,5363.29,-10497.3,-7180.34,-9.04061,56.1001,-114.65,11380.0,-5403.58,6720.75,-50.4547,27.9669,12.8496
4.272,12107.7,-18365.6,7088.0,107.619,-8.71328,-7.6811,15525.2,7308.92,16897.7,-88.1273,-440.663,264.519,-9811.17,19332.8,7135.82,19.6856,-37.2297,-167.936,6138.44,-22950.4,-14010.2,48.0181,138.061,236.591,-19700.3,1975.19,-3485.94,-3.97174,104.466,-81.1557,5253.76,-11006.1,-7075.84,-12.4128,59.2902,-119.689,11633.9,-5279.76,6810.25,-51.3219,29.5422,13.479
4.273,11699.2,-14509.0,7479.99,104.846,-7.23593,-5.85801,15338.7,6620.96,16656.1,-84.4558,-439.245,269.006,-8386.97,18742.1,6340.73,17.8779,-52.7969,-167.649,6010.88,-22853.2,-13222.1,49.3166,138.182,234.463,-20062.6,1778.01,-3463.32,-6.00919,99.7539,-83.4017,5128.07,-11533.1,-6958.78,-15.5668,62.261,-124.764,11883.4,-5139.06,6899.65,-52.0191,31.0162,14.1664
4.274,11290.6,-10652.3,7871.98,102.072,-5.75857,-4.03491,15152.2,5932.99,16414.5,-80.7842,-437.827,273.493,-6962.77,18151.4,5545.64,16.0703,-68.3641,-167.362,5883.32,-22756.1,-12434.1,50.6151,138.304,232.335,-20424.8,1580.84,-3440.7,-8.04664,95.0421,-85.6478,5002.38,-12060.1,-6841.71,-18.7209,65.2319,-129.838,12133.0,-4998.35,6989.06,-52.7163,32.4903,14.8538
4.275,10882.0,-6795.66,8263.97,99.2982,-4.28121,-2.21181,14965.8,5245.02,16172.8,-77.1126,-436.409,277.98,-5538.56,17560.7,4750.55,14.2626,-83.9313,-167.075,5755.76,-22658.9,-11646.1,51.9136,138.426,230.206,-20787.1,1383.67,-3418.08,-10.0841,90.3304,-87.8938,4876.68,-12587.0,-6724.65,-21.875,68.2028,-134.913,12382.6,-4857.64,7078.46,-53.4134,33.9643,15.5412
