Time,RFoot_accel.x,RFoot_accel.y,RFoot_accel.z,RFoot_gyro.x,RFoot_gyro.y,RFoot_gyro.z,LFoot_accel.x,LFoot_accel.y,LFoot_accel.z,LFoot_gyro.x,LFoot_gyro.y,LFoot_gyro.z,RShank_accel.x,RShank_accel.y,RShank_accel.z,RShank_gyro.x,RShank_gyro.y,RShank_gyro.z,LShank_accel.x,LShank_accel.y,LShank_accel.z,LShank_gyro.x,LShank_gyro.y,LShank_gyro.z,RThigh_accel.x,RThigh_accel.y,RThigh_accel.z,RThigh_gyro.x,RThigh_gyro.y,RThigh_gyro.z,LThigh_accel.x,LThigh_accel.y,LThigh_accel.z,LThigh_gyro.x,LThigh_gyro.y,LThigh_gyro.z,Pelvis_accel.x,Pelvis_accel.y,Pelvis_accel.z,Pelvis_gyro.x,Pelvis_gyro.y,Pelvis_gyro.z
3.04,6119.43,-4985.84,9937.72,-82.7488,398.163,123.297,4275.89,1212.95,9801.55,-32.7236,-4.60835,58.6595,1969.0,9648.81,-1615.26,16.9942,3.90692,367.45,681.81,-10666.7,-1563.13,30.8428,-61.6342,55.1516,-5883.54,4892.62,-4808.68,-53.03,62.5563,110.593,-2041.11,-8965.42,-513.8,-99.8905,-95.0601,94.5046,5014.41,141.53,147.163,12.1728,-4.99279,20.5502
3.041,6195.61,-5059.24,10073.5,-82.2653,398.293,124.703,4200.5,1075.66,9942.79,-30.29,-5.98,58.5904,1960.54,9808.8,-1654.55,17.4773,6.49211,369.088,723.317,-10726.9,-1608.35,30.945,-61.477,55.849,-5999.56,4845.62,-4756.14,-53.4092,63.971,110.936,-2135.39,-8974.33,-397.564,-100.687,-98.3111,97.2575,5151.98,95.6129,160.06,13.2119,-4.84794,19.2798
3.042,6271.79,-5132.63,10209.3,-81.7818,398.422,126.108,4125.12,938.372,10084.0,-27.8563,-7.35164,58.5214,1952.08,9968.79,-1693.84,17.9604,9.0773,370.727,764.825,-10787.1,-1653.56,31.0473,-61.3198,56.5464,-6115.59,4798.63,-4703.6,-53.7884,65.3857,111.278,-2229.66,-8983.24,-281.328,-101.483,-101.562,100.01,5289.56,49.696,172.957,14.251,-4.70308,18.0094
3.043,6347.96,-5206.03,10345.1,-81.2983,398.552,127.513,4049.74,801.084,10225.3,-25.4227,-8.72328,58.4524,1943.62,10128.8,-1733.13,18.4435,11.6625,372.366,806.332,-10847.3,-1698.78,31.1495,-61.1626,57.2437,-6231.61,4751.63,-4651.06,-54.1675,66.8004,111.62,-2323.93,-8992.15,-165.092,-102.279,-104.813,102.763,5427.13,3.77907,185.854,15.2901,-4.55823,16.739
3.044,6424.14,-5279.43,10480.9,-80.8149,398.682,128.918,3974.35,663.796,10366.5,-22.989,-10.0949,58.3833,1935.16,10288.8,-1772.42,18.9266,14.2477,374.004,847.839,-10907.6,-1744.0,31.2518,-61.0054,57.9411,-6347.63,4704.63,-4598.52,-54.5467,68.2152,111.963,-2418.2,-9001.05,-48.8566,-103.075,-108.064,105.516,5564.7,-42.1378,198.751,16.3292,-4.41337,15.4686
3.045,6532.07,-5315.86,10621.3,-80.438,398.789,130.387,3827.06,577.518,10492.8,-19.6612,-11.6382,58.4139,1928.14,10439.8,-1793.5,19.3435,16.8668,375.684,890.585,-10981.5,-1855.73,31.149,-61.2741,58.5653,-6452.28,4654.71,-4539.69,-54.7406,69.4923,112.17,-2443.42,-9056.73,-94.3611,-103.672,-111.553,107.967,5715.85,-78.5926,210.616,17.0479,-4.46077,14.3403
3.046,6665.39,-5322.74,10765.4,-80.1466,398.879,131.907,3622.24,532.049,10607.1,-15.6181,-13.3188,58.5241,1922.29,10583.6,-1800.0,19.7075,19.5132,377.395,934.321,-11066.4,-2020.68,30.8823,-61.8835,59.131,-6547.82,4602.44,-4475.82,-54.7862,70.6595,112.268,-2413.4,-9149.82,-269.258,-104.109,-115.233,110.177,5877.88,-107.478,221.656,17.5101,-4.66197,13.3258
3.047,6798.72,-5329.61,10909.4,-79.8551,398.969,133.427,3417.43,486.58,10721.4,-11.5749,-14.9994,58.6343,1916.43,10727.4,-1806.5,20.0714,22.1595,379.107,978.057,-11151.4,-2185.63,30.6157,-62.4929,59.6967,-6643.36,4550.18,-4411.95,-54.8318,71.8266,112.367,-2383.38,-9242.9,-444.154,-104.547,-118.913,112.386,6039.9,-136.363,232.696,17.9724,-4.86317,12.3113
3.048,6932.05,-5336.48,11053.5,-79.5637,399.059,134.947,3212.61,441.111,10835.7,-7.53176,-16.6799,58.7444,1910.58,10871.2,-1813.0,20.4353,24.8059,380.819,1021.79,-11236.3,-2350.58,30.349,-63.1022,60.2624,-6738.9,4497.91,-4348.09,-54.8775,72.9937,112.466,-2353.35,-9335.99,-619.051,-104.984,-122.592,114.596,6201.92,-165.248,243.736,18.4347,-5.06437,11.2968
3.049,7063.46,-5345.61,11203.4,-79.3045,399.135,136.483,3024.28,451.077,10922.3,-3.75326,-18.3946,58.9036,1905.31,11015.2,-1820.94,20.779,27.4817,382.526,1058.74,-11316.0,-2527.33,30.0599,-63.8486,60.8023,-6829.25,4442.97,-4285.72,-54.8528,74.1497,112.545,-2327.22,-9433.02,-776.557,-105.25,-126.112,116.847,6361.16,-195.432,250.869,18.834,-5.23771,10.3197
3.05,7179.55,-5372.76,11399.9,-79.3038,399.1,138.143,2967.83,904.524,10787.4,-2.09202,-20.3818,59.4545,1904.72,11161.3,-1840.4,20.9608,30.3932,384.195,1041.38,-11353.9,-2798.56,29.5916,-65.6913,61.1355,-6878.17,4366.61,-4235.3,-54.2662,75.2168,112.469,-2332.16,-9561.56,-794.937,-104.135,-128.358,119.438,6498.14,-236.009,226.739,18.7296,-5.18816,9.6413
3.051,7295.65,-5399.91,11596.4,-79.303,399.064,139.804,2911.38,1357.97,10652.5,-0.430778,-22.369,60.0055,1904.12,11307.3,-1859.86,21.1425,33.3048,385.864,1024.01,-11391.8,-3069.79,29.1234,-67.534,61.4687,-6927.09,4290.25,-4184.89,-53.6795,76.2839,112.394,-2337.11,-9690.11,-813.316,-103.021,-130.603,122.029,6635.13,-276.586,202.61,18.6251,-5.13861,8.96295
3.052,7411.74,-5427.06,11792.9,-79.3022,399.029,141.464,2854.93,1811.42,10517.6,1.23046,-24.3562,60.5564,1903.53,11453.4,-1879.32,21.3243,36.2163,387.533,1006.65,-11429.7,-3341.02,28.6552,-69.3766,61.8019,-6976.0,4213.9,-4134.48,-53.0928,77.351,112.318,-2342.05,-9818.65,-831.696,-101.907,-132.848,124.619,6772.12,-317.163,178.481,18.5207,-5.08906,8.2846
3.053,7527.83,-5454.21,11989.4,-79.3014,398.994,143.124,2798.48,2264.87,10382.7,2.8917,-26.3434,61.1073,1902.93,11599.4,-1898.78,21.5061,39.1279,389.202,989.282,-11467.6,-3612.24,28.1869,-71.2193,62.1352,-7024.92,4137.54,-4084.06,-52.5062,78.4181,112.242,-2347.0,-9947.2,-850.076,-100.793,-135.093,127.21,6909.11,-357.74,154.351,18.4163,-5.03951,7.60625
3.054,7680.29,-5447.93,12134.3,-79.5295,399.242,144.927,2896.61,2841.93,10237.0,2.4243,-27.8961,62.2424,1884.08,11761.0,-1909.08,21.5296,42.0834,390.818,922.426,-11506.1,-3826.96,27.9583,-72.8443,62.4768,-7081.23,4067.7,-4007.37,-51.6503,79.1678,112.081,-2278.89,-10111.3,-1036.08,-99.8745,-136.365,129.121,7073.71,-397.162,124.285,18.5331,-4.58794,6.72503
3.055,7850.94,-5424.93,12253.3,-79.8719,399.631,146.8,3072.05,3480.79,10085.9,0.892579,-29.2315,63.6695,1856.1,11930.3,-1914.8,21.4741,45.061,392.407,830.825,-11545.0,-4013.42,27.8495,-74.3603,62.8227,-7141.23,4001.13,-3917.54,-50.6598,79.7589,111.877,-2174.26,-10293.2,-1305.89,-99.0543,-137.151,130.693,7252.13,-436.006,91.2497,18.7604,-3.93534,5.74237
3.056,8021.59,-5401.93,12372.3,-80.2143,400.021,148.673,3247.48,4119.66,9934.77,-0.639145,-30.5669,65.0965,1828.12,12099.7,-1920.52,21.4185,48.0385,393.997,739.224,-11584.0,-4199.87,27.7407,-75.8764,63.1685,-7201.23,3934.56,-3827.71,-49.6694,80.35,111.673,-2069.62,-10475.1,-1575.7,-98.2341,-137.936,132.265,7430.54,-474.85,58.2145,18.9878,-3.28275,4.75971
3.057,8192.24,-5378.94,12491.3,-80.5567,400.41,150.546,3422.91,4758.53,9783.67,-2.17087,-31.9023,66.5236,1800.14,12269.1,-1926.24,21.3629,51.0161,395.586,647.622,-11622.9,-4386.33,27.6319,-77.3924,63.5144,-7261.24,3867.98,-3737.88,-48.6789,80.9411,111.469,-1964.99,-10657.0,-1845.52,-97.4139,-138.722,133.837,7608.96,-513.695,25.1794,19.2151,-2.63016,3.77705
3.058,8357.91,-5383.36,12610.1,-80.8742,400.791,152.51,3617.36,5256.26,9663.96,-3.89506,-33.2964,67.9173,1767.22,12442.8,-1917.66,21.271,53.9239,397.143,562.119,-11680.4,-4536.36,27.6393,-78.5371,63.9673,-7318.16,3801.51,-3638.72,-47.5865,81.4055,111.173,-1856.58,-10817.6,-2067.86,-96.31,-139.308,135.472,7782.89,-547.875,-8.1713,19.4607,-1.92893,2.86969
3.059,8506.19,-5483.76,12728.3,-81.1047,401.139,154.791,3878.39,5260.01,9654.17,-6.29291,-34.8957,69.194,1717.01,12632.1,-1859.04,21.0522,56.5876,398.589,497.958,-11803.1,-4558.9,28.0536,-78.382,64.7951,-7364.32,3735.4,-3506.95,-46.1376,81.426,110.554,-1734.97,-10903.7,-2124.05,-94.2133,-139.199,137.329,7941.15,-565.733,-42.6263,19.77,-1.05751,2.22583
3.06,8654.47,-5584.15,12846.5,-81.3351,401.488,157.071,4139.42,5263.77,9644.37,-8.69075,-36.495,70.4707,1666.8,12821.4,-1800.41,20.8333,59.2513,400.034,433.797,-11925.8,-4581.43,28.4678,-78.2268,65.6229,-7410.49,3669.29,-3375.18,-44.6886,81.4465,109.936,-1613.35,-10989.8,-2180.25,-92.1165,-139.09,139.185,8099.4,-583.59,-77.0812,20.0793,-0.186094,1.58197
3.061,8802.75,-5684.55,12964.6,-81.5655,401.837,159.352,4400.44,5267.52,9634.57,-11.0886,-38.0943,71.7475,1616.59,13010.6,-1741.79,20.6144,61.915,401.479,369.636,-12048.6,-4603.96,28.8821,-78.0716,66.4507,-7456.65,3603.18,-3243.4,-43.2396,81.467,109.317,-1491.74,-11075.9,-2236.44,-90.0198,-138.981,141.042,8257.66,-601.448,-111.536,20.3886,0.685326,0.938114
3.062,8951.03,-5784.94,13082.8,-81.796,402.185,161.633,4661.47,5271.28,9624.78,-13.4864,-39.6936,73.0242,1566.38,13199.9,-1683.17,20.3956,64.5787,402.925,305.475,-12171.3,-4626.5,29.2964,-77.9165,67.2785,-7502.81,3537.07,-3111.63,-41.7906,81.4876,108.699,-1370.12,-11162.0,-2292.63,-87.923,-138.872,142.898,8415.91,-619.305,-145.991,20.698,1.55675,0.294257
3.063,9110.21,-5891.37,13208.3,-81.8364,402.839,163.859,4842.89,4924.01,9598.82,-14.8856,-41.1715,73.713,1510.37,13400.9,-1620.4,20.14,67.1387,404.586,264.728,-12352.1,-4504.67,30.0453,-77.2791,68.0673,-7558.06,3499.68,-3006.1,-40.5101,80.7775,107.825,-1228.56,-11282.9,-2355.33,-85.8334,-138.915,144.168,8556.06,-626.334,-171.857,20.8154,2.06105,-0.159272
3.064,9272.49,-5999.52,13336.0,-81.8224,403.58,166.069,5001.56,4476.45,9568.24,-15.9995,-42.6148,74.2338,1452.69,13605.2,-1556.45,19.8739,69.6692,406.308,230.671,-12549.6,-4341.6,30.8899,-76.5039,68.8451,-7615.92,3470.49,-2908.06,-39.2778,79.8587,106.877,-1081.31,-11413.9,-2419.89,-83.7459,-139.003,145.27,8691.04,-630.269,-195.268,20.878,2.46047,-0.558422
3.065,9434.78,-6107.66,13463.6,-81.8085,404.321,168.279,5160.23,4028.89,9537.67,-17.1134,-44.0581,74.7546,1395.02,13809.6,-1492.49,19.6079,72.1996,408.031,196.614,-12747.1,-4178.52,31.7345,-75.7288,69.6228,-7673.77,3441.3,-2810.03,-38.0455,78.9398,105.93,-934.057,-11544.8,-2484.45,-81.6584,-139.09,146.372,8826.03,-634.204,-218.68,20.9407,2.85989,-0.957571
3.066,9597.07,-6215.81,13591.3,-81.7945,405.062,170.489,5318.9,3581.32,9507.09,-18.2272,-45.5014,75.2754,1337.35,14013.9,-1428.54,19.3418,74.7301,409.754,162.556,-12944.5,-4015.45,32.5791,-74.9536,70.4006,-7731.63,3412.11,-2711.99,-36.8131,78.021,104.983,-786.803,-11675.8,-2549.01,-79.5708,-139.177,147.473,8961.0,-638.139,-242.091,21.0033,3.25931,-1.35672
3.067,9752.93,-6310.09,13733.6,-82.0007,405.819,172.743,5455.57,3171.45,9487.11,-19.0596,-46.9299,75.6759,1287.81,14227.9,-1373.59,19.2496,77.1306,411.545,141.847,-13131.0,-3829.43,33.5467,-74.1888,71.1049,-7789.83,3357.97,-2609.04,-35.6021,76.7295,104.027,-636.73,-11831.8,-2613.15,-77.552,-139.381,148.29,9078.72,-644.117,-272.796,20.9635,3.51674,-1.76554
3.068,9895.92,-6376.66,13905.4,-82.6471,406.611,175.088,5548.22,2836.97,9488.32,-19.329,-48.3288,75.8359,1254.54,14461.2,-1336.66,19.5049,79.2712,413.475,147.835,-13295.6,-3597.5,34.7603,-73.4445,71.6624,-7848.74,3253.89,-2496.24,-34.4337,74.6926,103.055,-481.019,-12038.0,-2676.45,-75.6704,-139.816,148.536,9161.9,-654.179,-318.087,20.7186,3.49021,-2.19368
3.069,10038.9,-6443.23,14077.3,-83.2934,407.403,177.433,5640.88,2502.48,9489.53,-19.5984,-49.7276,75.9959,1221.27,14694.5,-1299.73,19.7602,81.4117,415.405,153.823,-13460.2,-3365.58,35.9739,-72.7002,72.2199,-7907.64,3149.82,-2383.44,-33.2654,72.6558,102.082,-325.308,-12244.2,-2739.75,-73.7888,-140.251,148.781,9245.08,-664.241,-363.378,20.4738,3.46368,-2.62183
3.07,10181.9,-6509.79,14249.1,-83.9398,408.195,179.778,5733.53,2167.99,9490.74,-19.8677,-51.1265,76.1559,1188.0,14927.8,-1262.8,20.0154,83.5523,417.334,159.811,-13624.8,-3133.65,37.1874,-71.9559,72.7774,-7966.55,3045.74,-2270.64,-32.097,70.6189,101.109,-169.597,-12450.3,-2803.05,-71.9072,-140.686,149.027,9328.26,-674.303,-408.669,20.229,3.43715,-3.04997
3.071,10324.9,-6576.36,14420.9,-84.5862,408.986,182.122,5826.18,1833.5,9491.95,-20.1371,-52.5254,76.3158,1154.74,15161.1,-1225.87,20.2707,85.6929,419.264,165.799,-13789.4,-2901.72,38.401,-71.2116,73.3348,-8025.45,2941.67,-2157.84,-30.9286,68.5821,100.137,-13.8857,-12656.5,-2866.36,-70.0256,-141.121,149.273,9411.44,-684.365,-453.961,19.9842,3.41062,-3.47812
3.072,10398.6,-6598.33,14645.5,-85.5479,409.147,184.808,5811.89,1630.47,9480.79,-19.9567,-53.9009,76.3028,1121.77,15435.4,-1252.19,20.5096,87.4771,421.317,204.553,-13860.5,-2653.44,39.4528,-70.4585,73.676,-8079.04,2874.51,-2073.12,-29.8405,66.034,99.1656,100.996,-12691.9,-2864.74,-68.6354,-140.531,149.06,9541.65,-684.205,-520.161,19.4426,3.50997,-3.40691
3.073,10463.6,-6614.72,14876.8,-86.5489,409.23,187.537,5784.24,1443.86,9468.08,-19.7201,-55.2736,76.268,1088.85,15714.7,-1286.41,20.7464,89.2167,423.385,247.403,-13919.9,-2403.12,40.4843,-69.7043,73.9902,-8131.96,2811.97,-1991.91,-28.7624,63.422,98.1946,210.773,-12705.9,-2855.01,-67.3066,-139.813,148.79,9677.74,-682.767,-588.976,18.8639,3.62505,-3.27327
3.074,10528.7,-6631.11,15108.1,-87.5499,409.312,190.266,5756.58,1257.26,9455.37,-19.4835,-56.6463,76.2333,1055.93,15994.1,-1320.63,20.9832,90.9563,425.454,290.253,-13979.3,-2152.8,41.5159,-68.9501,74.3044,-8184.89,2749.43,-1910.7,-27.6843,60.8101,97.2236,320.551,-12719.9,-2845.27,-65.9778,-139.096,148.52,9813.82,-681.329,-657.79,18.2852,3.74013,-3.13964
3.075,10593.7,-6647.5,15339.3,-88.5509,409.394,192.995,5728.93,1070.65,9442.66,-19.2469,-58.019,76.1986,1023.0,16273.4,-1354.85,21.22,92.6959,427.522,333.103,-14038.7,-1902.48,42.5474,-68.1959,74.6186,-8237.81,2686.89,-1829.5,-26.6062,58.1981,96.2526,430.328,-12734.0,-2835.54,-64.649,-138.378,148.25,9949.91,-679.892,-726.605,17.7066,3.85522,-3.00601
3.076,10656.4,-6618.53,15551.9,-89.9687,409.246,195.956,5697.76,945.083,9431.86,-19.1291,-59.4067,76.1163,978.187,16542.0,-1386.25,21.0479,94.1547,429.357,387.322,-14067.2,-1663.86,43.3914,-67.5077,74.8253,-8304.92,2634.01,-1766.71,-25.6164,55.5297,95.2703,499.252,-12676.3,-2807.99,-62.9594,-137.482,147.918,10051.6,-706.985,-757.178,17.1749,3.91531,-3.04541
3.077,10716.2,-6532.85,15741.1,-91.9076,408.811,199.207,5662.21,895.812,9423.45,-19.1598,-60.8133,75.9745,918.504,16797.0,-1414.11,20.3646,95.2625,430.901,455.753,-14057.0,-1439.87,44.0012,-66.9019,74.8979,-8389.76,2593.21,-1726.96,-24.7371,52.7908,94.2742,517.107,-12529.1,-2758.17,-60.8187,-136.363,147.509,10110.4,-769.744,-739.948,16.702,3.90667,-3.30109
3.078,10776.0,-6447.17,15930.3,-93.8464,408.376,202.459,5626.66,846.542,9415.04,-19.1904,-62.2199,75.8327,858.822,17052.0,-1441.98,19.6813,96.3703,432.445,524.184,-14046.9,-1215.89,44.6109,-66.2962,74.9705,-8474.61,2552.41,-1687.2,-23.8578,50.0519,93.278,534.962,-12381.9,-2708.35,-58.6781,-135.245,147.099,10169.2,-832.502,-722.719,16.2291,3.89804,-3.55677
3.079,10835.8,-6361.5,16119.5,-95.7852,407.941,205.711,5591.11,797.271,9406.62,-19.2211,-63.6264,75.6909,799.139,17306.9,-1469.85,18.998,97.4781,433.989,592.615,-14036.7,-991.902,45.2206,-65.6905,75.0431,-8559.45,2511.6,-1647.45,-22.9784,47.313,92.2818,552.818,-12234.6,-2658.53,-56.5374,-134.126,146.69,10228.0,-895.26,-705.489,15.7562,3.8894,-3.81245
3.08,10895.5,-6275.82,16308.7,-97.7241,407.505,208.962,5555.56,748.001,9398.21,-19.2517,-65.033,75.5491,739.456,17561.9,-1497.72,18.3147,98.586,435.533,661.046,-14026.5,-767.916,45.8303,-65.0848,75.1156,-8644.3,2470.8,-1607.69,-22.0991,44.5742,91.2856,570.673,-12087.4,-2608.71,-54.3967,-133.008,146.28,10286.8,-958.019,-688.26,15.2834,3.88076,-4.06813
3.081,11004.4,-5965.96,16377.8,-101.076,406.293,212.683,5440.67,677.098,9435.57,-19.6074,-66.2323,74.7991,603.225,17870.5,-1418.86,16.86,98.5587,436.113,803.008,-13950.3,-616.933,46.2194,-64.5154,75.046,-8728.47,2409.64,-1490.86,-21.15,42.4894,90.2741,594.813,-12259.5,-2847.26,-53.4757,-130.846,144.978,10308.8,-993.332,-701.882,15.091,3.65398,-4.33342
3.082,11113.3,-5656.1,16446.8,-104.428,405.08,216.403,5325.78,606.195,9472.94,-19.963,-67.4315,74.049,466.994,18179.1,-1340.0,15.4054,98.5314,436.693,944.97,-13874.0,-465.949,46.6085,-63.946,74.9763,-8812.65,2348.48,-1374.04,-20.2008,40.4047,89.2626,618.953,-12431.6,-3085.8,-52.5547,-128.684,143.676,10330.7,-1028.64,-715.505,14.8986,3.42721,-4.59871
3.083,11222.2,-5346.24,16515.9,-107.78,403.867,220.124,5210.9,535.293,9510.3,-20.3187,-68.6308,73.299,330.763,18487.7,-1261.14,13.9507,98.5042,437.272,1086.93,-13797.8,-314.966,46.9976,-63.3765,74.9066,-8896.83,2287.31,-1257.21,-19.2517,38.32,88.2511,643.093,-12603.7,-3324.35,-51.6337,-126.522,142.373,10352.7,-1063.96,-729.128,14.7062,3.20043,-4.86401
3.084,11331.1,-5036.38,16585.0,-111.133,402.654,223.845,5096.01,464.39,9547.67,-20.6743,-69.83,72.5489,194.532,18796.3,-1182.28,12.4961,98.4769,437.852,1228.89,-13721.6,-163.982,47.3867,-62.8071,74.837,-8981.0,2226.15,-1140.38,-18.3025,36.2353,87.2396,667.233,-12775.8,-3562.9,-50.7127,-124.36,141.071,10374.7,-1099.27,-742.75,14.5138,2.97366,-5.1293
3.085,11425.2,-4660.3,16654.2,-115.581,400.829,227.786,4958.67,374.291,9608.6,-20.7336,-71.0163,71.79,-21.2083,19094.2,-1107.26,11.1837,97.7907,437.635,1373.82,-13609.2,-45.3551,47.7595,-62.1949,74.775,-9016.17,2189.14,-1063.84,-16.9843,34.6556,86.1703,695.433,-12853.2,-3704.34,-50.0614,-121.943,139.494,10399.2,-1114.77,-754.92,14.4999,2.86182,-5.33909
3.086,11507.5,-4231.26,16723.5,-120.906,398.513,231.905,4803.38,268.835,9688.39,-20.5557,-72.1921,71.0241,-300.556,19383.6,-1035.32,9.9851,96.5774,436.781,1521.11,-13467.9,47.3873,48.1194,-61.5484,74.7192,-9012.11,2171.46,-1019.54,-15.3707,33.4798,85.0547,726.88,-12854.9,-3768.09,-49.6258,-119.323,137.697,10425.7,-1114.41,-765.926,14.629,2.84194,-5.50448
3.087,11589.9,-3802.21,16792.8,-126.232,396.196,236.023,4648.09,163.378,9768.18,-20.3779,-73.368,70.2582,-579.903,19672.9,-963.378,8.78651,95.364,435.927,1668.41,-13326.7,140.13,48.4792,-60.9019,74.6635,-9008.06,2153.77,-975.232,-13.7571,32.304,83.9391,758.327,-12856.6,-3831.85,-49.1902,-116.702,135.901,10452.2,-1114.06,-776.932,14.758,2.82205,-5.66987
3.088,11672.2,-3373.17,16862.1,-131.557,393.88,240.142,4492.8,57.9223,9847.96,-20.2,-74.5438,69.4922,-859.251,19962.3,-891.436,7.58791,94.1507,435.073,1815.71,-13185.4,232.872,48.839,-60.2553,74.6077,-9004.01,2136.09,-930.928,-12.1436,31.1282,82.8235,789.774,-12858.3,-3895.61,-48.7546,-114.082,134.104,10478.6,-1113.71,-787.938,14.887,2.80216,-5.83526
3.089,11767.5,-2950.2,16938.0,-137.048,391.426,244.18,4340.35,-49.0928,9931.93,-19.9665,-75.7548,68.7072,-1142.62,20246.8,-822.13,6.49967,92.8257,434.104,1955.88,-13040.0,318.268,49.1644,-59.5778,74.5699,-9003.73,2120.16,-906.149,-10.4911,29.9569,81.6853,820.365,-12858.7,-3952.53,-48.3058,-111.295,132.29,10498.6,-1114.41,-800.707,14.9508,2.81333,-5.98102
3.09,11966.2,-2575.89,17067.3,-143.863,387.866,247.573,4210.68,-168.579,10049.3,-19.2882,-77.2473,67.769,-1458.21,20492.8,-773.925,6.2942,90.6081,432.214,2039.05,-12862.2,344.891,49.2139,-58.6515,74.6763,-9033.7,2118.26,-1037.56,-8.52718,28.8211,80.3665,844.104,-12848.6,-3954.8,-47.7514,-107.177,130.342,10466.3,-1123.52,-827.569,14.4931,3.07295,-5.96976
3.091,12164.9,-2201.58,17196.6,-150.678,384.306,250.967,4081.01,-288.065,10166.7,-18.6098,-78.7397,66.8309,-1773.8,20738.7,-725.719,6.08874,88.3905,430.324,2122.23,-12684.3,371.515,49.2635,-57.7253,74.7828,-9063.66,2116.36,-1168.98,-6.56327,27.6853,79.0477,867.842,-12838.5,-3957.07,-47.1969,-103.06,128.395,10434.1,-1132.63,-854.432,14.0353,3.33257,-5.95851
3.092,12363.6,-1827.27,17325.9,-157.494,380.746,254.361,3951.34,-407.551,10284.1,-17.9314,-80.2321,65.8928,-2089.39,20984.7,-677.514,5.88328,86.1729,428.433,2205.41,-12506.5,398.138,49.313,-56.799,74.8892,-9093.62,2114.47,-1300.39,-4.59936,26.5496,77.7289,891.58,-12828.4,-3959.33,-46.6425,-98.9422,126.447,10401.8,-1141.74,-881.295,13.5776,3.59219,-5.94725
3.093,12562.3,-1452.96,17455.3,-164.309,377.186,257.754,3821.67,-527.037,10401.4,-17.253,-81.7246,64.9547,-2404.98,21230.6,-629.308,5.67782,83.9553,426.543,2288.59,-12328.6,424.762,49.3626,-55.8728,74.9956,-9123.58,2112.57,-1431.81,-2.63546,25.4138,76.4101,915.319,-12818.4,-3961.6,-46.088,-94.8247,124.499,10369.6,-1150.85,-908.158,13.1199,3.85181,-5.93599
3.094,12839.8,-1319.33,17411.5,-170.527,373.089,260.767,3749.21,-654.543,10452.8,-16.4196,-83.3897,64.2184,-2727.07,21490.0,-608.499,4.93856,81.6405,424.026,2340.29,-12171.1,447.704,49.3096,-54.7097,75.1747,-9130.56,2118.09,-1488.1,-1.08813,23.777,74.9336,906.273,-12848.9,-3807.85,-45.949,-91.054,122.334,10359.4,-1165.91,-953.427,12.3489,3.91382,-5.66195
3.095,13156.7,-1306.03,17281.2,-176.446,368.724,263.59,3705.36,-786.06,10471.1,-15.5087,-85.1412,63.5831,-3052.42,21756.2,-601.388,3.9324,79.2772,421.196,2376.27,-12023.7,468.806,49.2054,-53.4282,75.3901,-9126.05,2127.33,-1506.82,0.250918,21.8897,73.3783,880.835,-12899.7,-3576.09,-46.0177,-87.4568,120.061,10360.2,-1183.94,-1007.9,11.4214,3.87703,-5.25651
3.096,13473.7,-1292.74,17150.9,-182.365,364.358,266.412,3661.51,-917.577,10489.4,-14.5979,-86.8927,62.9478,-3377.77,22022.4,-594.276,2.92624,76.9139,418.366,2412.24,-11876.3,489.907,49.1012,-52.1467,75.6055,-9121.55,2136.56,-1525.54,1.58996,20.0023,71.8229,855.396,-12950.5,-3344.33,-46.0864,-83.8596,117.788,10361.0,-1201.97,-1062.37,10.4938,3.84025,-4.85107
3.097,13790.6,-1279.45,17020.6,-188.284,359.992,269.235,3617.66,-1049.09,10507.7,-13.687,-88.6442,62.3124,-3703.11,22288.6,-587.165,1.92008,74.5506,415.536,2448.21,-11729.0,511.009,48.997,-50.8652,75.8209,-9117.04,2145.8,-1544.26,2.92901,18.115,70.2676,829.958,-13001.3,-3112.57,-46.1551,-80.2623,115.514,10361.8,-1220.01,-1116.84,9.56627,3.80346,-4.44563
3.098,14091.2,-1291.21,16900.4,-193.72,355.321,271.85,3595.78,-1133.45,10518.0,-12.9128,-90.3914,61.6773,-4029.89,22555.1,-564.948,0.492606,72.1105,412.411,2481.05,-11609.6,534.071,48.9203,-49.5569,76.1362,-9106.75,2162.34,-1534.81,4.15092,16.257,68.7096,819.639,-13034.4,-2891.94,-46.1404,-76.7322,113.382,10352.0,-1229.85,-1158.46,8.68448,3.61272,-4.03834
3.099,14334.7,-1390.65,16815.4,-197.469,349.582,273.743,3650.79,-1052.77,10500.5,-12.6167,-92.1234,61.0429,-4361.69,22822.9,-489.858,-2.40946,69.4016,408.255,2502.9,-11588.4,563.995,48.9397,-48.1545,76.8013,-9076.22,2204.49,-1426.78,4.96285,14.5017,67.1421,862.237,-13005.3,-2710.27,-45.8341,-73.4368,111.744,10305.1,-1211.02,-1155.08,7.96281,2.88312,-3.62454
3.1,14578.1,-1490.1,16730.5,-201.218,343.844,275.635,3705.79,-972.08,10483.0,-12.3205,-93.8555,60.4085,-4693.48,23090.7,-414.768,-5.31152,66.6927,404.098,2524.76,-11567.2,593.919,48.9592,-46.7522,77.4664,-9045.68,2246.64,-1318.76,5.77478,12.7464,65.5746,904.835,-12976.3,-2528.6,-45.5278,-70.1415,110.107,10258.3,-1192.2,-1151.7,7.24114,2.15353,-3.21074
3.101,14821.5,-1589.55,16645.6,-204.967,338.105,277.528,3760.8,-891.393,10465.5,-12.0244,-95.5876,59.7741,-5025.28,23358.6,-339.678,-8.21358,63.9838,399.942,2546.62,-11546.0,623.842,48.9786,-45.3498,78.1315,-9015.15,2288.78,-1210.73,6.58672,10.9911,64.0071,947.433,-12947.2,-2346.93,-45.2215,-66.8461,108.469,10211.4,-1173.37,-1148.32,6.51948,1.42394,-2.79694
3.102,15064.9,-1689.0,16560.6,-208.716,332.366,279.42,3815.81,-810.706,10448.0,-11.7282,-97.3196,59.1397,-5357.08,23626.4,-264.588,-11.1156,61.2749,395.785,2568.48,-11524.8,653.766,48.998,-43.9474,78.7966,-8984.62,2330.93,-1102.7,7.39865,9.23581,62.4396,990.031,-12918.2,-2165.26,-44.9151,-63.5507,106.831,10164.5,-1154.55,-1144.93,5.79781,0.694345,-2.38314
3.103,15304.5,-1606.96,16541.1,-211.687,325.21,280.597,3907.84,-742.974,10411.5,-12.155,-99.0394,58.2918,-5710.99,23926.9,-168.783,-12.951,58.0489,391.182,2567.48,-11569.4,701.948,49.3076,-42.5105,79.6205,-8956.57,2368.41,-1057.91,8.72717,8.17622,60.9975,1032.61,-12902.9,-2029.07,-43.3048,-60.7344,105.991,10118.5,-1185.13,-1161.03,5.13602,-0.3474,-1.80653
3.104,15542.9,-1473.08,16540.2,-214.436,317.649,281.57,4010.44,-678.944,10369.5,-12.7884,-100.756,57.383,-6071.22,24236.8,-67.0583,-14.4816,54.6752,386.452,2559.94,-11632.7,755.346,49.7,-41.0636,80.4898,-8929.22,2404.57,-1031.18,10.2033,7.31541,59.5913,1075.19,-12891.6,-1905.87,-41.3218,-58.0549,105.379,10072.9,-1229.84,-1182.7,4.49134,-1.47833,-1.18341
3.105,15781.3,-1339.19,16539.3,-217.185,310.088,282.543,4113.05,-614.913,10327.6,-13.4217,-102.472,56.4742,-6431.45,24546.7,34.6662,-16.0122,51.3014,381.721,2552.41,-11696.1,808.745,50.0924,-39.6167,81.3591,-8901.87,2440.73,-1004.45,11.6794,6.45459,58.1851,1117.76,-12880.3,-1782.67,-39.3388,-55.3755,104.766,10027.3,-1274.54,-1204.36,3.84666,-2.60926,-0.560296
3.106,16019.7,-1205.31,16538.4,-219.934,302.527,283.515,4215.65,-550.882,10285.7,-14.055,-104.188,55.5654,-6791.69,24856.6,136.391,-17.5428,47.9277,376.991,2544.88,-11759.5,862.143,50.4848,-38.1698,82.2284,-8874.52,2476.89,-977.723,13.1555,5.59378,56.7788,1160.34,-12868.9,-1659.48,-37.3559,-52.696,104.154,9981.62,-1319.24,-1226.03,3.20198,-3.74019,0.0628229
3.107,16314.8,-1126.11,16515.6,-222.074,294.716,284.05,4302.39,-497.15,10252.5,-14.8255,-105.817,54.7116,-7159.29,25166.1,213.425,-18.4481,44.4513,372.634,2539.23,-11843.0,927.841,50.8774,-36.6675,83.1313,-8802.8,2496.28,-939.842,15.0962,4.73794,55.6414,1199.23,-12846.7,-1506.34,-35.6019,-50.2873,103.738,9943.75,-1349.85,-1255.31,2.62845,-4.82706,0.693841
3.108,16723.4,-1156.3,16448.9,-222.995,286.402,283.708,4357.4,-464.012,10236.8,-15.8703,-107.27,53.9678,-7541.62,25475.0,241.08,-18.1029,40.7696,369.026,2537.33,-11967.0,1018.14,51.2703,-35.0541,84.1017,-8642.37,2482.1,-879.657,17.9661,3.89205,55.0417,1230.76,-12802.4,-1293.31,-34.3059,-48.4203,103.715,9921.4,-1352.26,-1299.84,2.1972,-5.82581,1.34066
3.109,17132.0,-1186.49,16382.2,-223.915,278.088,283.366,4412.4,-430.874,10221.0,-16.9151,-108.724,53.2241,-7923.95,25784.0,268.735,-17.7577,37.088,365.418,2535.44,-12090.9,1108.44,51.6633,-33.4407,85.0721,-8481.92,2467.93,-819.471,20.836,3.04617,54.442,1262.28,-12758.2,-1080.29,-33.0098,-46.5532,103.691,9899.06,-1354.67,-1344.36,1.76595,-6.82456,1.98748
3.11,17540.5,-1216.67,16315.6,-224.836,269.773,283.024,4467.41,-397.737,10205.3,-17.96,-110.178,52.4804,-8306.28,26092.9,296.39,-17.4125,33.4064,361.809,2533.54,-12214.9,1198.74,52.0563,-31.8273,86.0425,-8321.49,2453.76,-759.286,23.706,2.20029,53.8423,1293.81,-12714.0,-867.261,-31.7138,-44.6862,103.668,9876.71,-1357.08,-1388.89,1.3347,-7.8233,2.63429
3.111,17949.1,-1246.86,16248.9,-225.757,261.459,282.682,4522.41,-364.599,10189.6,-19.0048,-111.632,51.7367,-8688.62,26401.8,324.045,-17.0673,29.7248,358.201,2531.64,-12338.8,1289.04,52.4492,-30.214,87.0128,-8161.05,2439.59,-699.1,26.5759,1.3544,53.2426,1325.33,-12669.8,-654.237,-30.4178,-42.8191,103.644,9854.36,-1359.49,-1433.42,0.903445,-8.82205,3.28111
3.112,18649.7,-1969.73,16114.6,-223.009,255.085,280.339,4579.44,-471.791,10239.7,-19.6224,-113.33,50.5101,-9101.83,26659.6,153.774,-17.2828,26.9787,355.388,2535.91,-12446.3,1377.23,52.879,-28.6636,88.0625,-7958.83,2397.67,-719.598,30.277,0.349671,52.4385,1363.17,-12599.1,-432.603,-29.2092,-40.8794,104.653,9849.22,-1378.31,-1485.92,0.563943,-9.78645,3.96986
3.113,19386.8,-2779.19,15971.9,-219.802,248.954,277.746,4636.72,-596.525,10298.0,-20.1866,-115.059,49.2233,-9518.89,26911.1,-41.2381,-17.5683,24.3496,352.675,2540.94,-12551.8,1465.15,53.3135,-27.121,89.122,-7751.39,2352.27,-750.182,34.0819,-0.674917,51.6089,1401.79,-12525.1,-209.893,-28.0115,-38.9305,105.792,9846.23,-1399.17,-1539.42,0.235908,-10.7466,4.66385
3.114,20123.8,-3588.64,15829.1,-216.595,242.823,275.153,4694.0,-721.258,10356.3,-20.7508,-116.787,47.9364,-9935.96,27162.6,-236.25,-17.8539,21.7205,349.962,2545.97,-12657.2,1553.08,53.7479,-25.5785,90.1816,-7543.95,2306.88,-780.765,37.8869,-1.6995,50.7792,1440.41,-12451.1,12.8172,-26.8138,-36.9816,106.93,9843.24,-1420.03,-1592.92,-0.0921261,-11.7067,5.35784
3.115,20860.9,-4398.1,15686.4,-213.388,236.691,272.56,4751.27,-845.992,10414.6,-21.315,-118.516,46.6495,-10353.0,27414.0,-431.262,-18.1394,19.0914,347.249,2551.0,-12762.7,1641.0,54.1824,-24.036,91.2411,-7336.52,2261.48,-811.348,41.6919,-2.72409,49.9496,1479.03,-12377.1,235.527,-25.6162,-35.0327,108.069,9840.25,-1440.9,-1646.43,-0.42016,-12.6668,6.05183
3.116,21673.4,-5190.86,15581.9,-207.979,232.469,269.593,4778.54,-981.101,10456.0,-21.6615,-120.275,45.4391,-10783.3,27640.0,-724.571,-19.4811,17.3655,344.352,2563.58,-12840.6,1717.64,54.5692,-22.6221,92.228,-7097.21,2195.53,-824.921,45.7342,-3.96432,49.0635,1504.11,-12298.1,434.732,-24.9624,-33.5312,109.258,9828.33,-1451.24,-1672.77,-0.700122,-13.6372,6.65
3.117,22580.2,-5962.76,15525.2,-199.818,230.635,266.16,4768.3,-1129.18,10476.1,-21.736,-122.071,44.3242,-11229.9,27834.2,-1140.75,-22.1429,16.7687,341.225,2585.59,-12884.1,1780.16,54.8965,-21.369,93.124,-6818.07,2103.88,-817.231,50.0733,-5.47409,48.1068,1512.26,-12212.8,604.554,-24.9885,-32.5888,110.51,9805.25,-1448.42,-1665.16,-0.919994,-14.6205,7.12838
3.118,23487.1,-6734.66,15468.6,-191.658,228.8,262.726,4758.06,-1277.25,10496.3,-21.8104,-123.867,43.2093,-11676.6,28028.5,-1556.93,-24.8046,16.1719,338.098,2607.6,-12927.6,1842.67,55.2238,-20.1159,94.02,-6538.93,2012.22,-809.54,54.4123,-6.98387,47.1501,1520.41,-12127.5,774.377,-25.0146,-31.6465,111.762,9782.17,-1445.6,-1657.55,-1.13986,-15.6038,7.60677
3.119,24393.9,-7506.56,15411.9,-183.497,226.965,259.292,4747.82,-1425.33,10516.5,-21.8849,-125.663,42.0945,-12123.3,28222.7,-1973.11,-27.4664,15.5751,334.971,2629.61,-12971.1,1905.19,55.5511,-18.8628,94.9159,-6259.79,1920.57,-801.85,58.7514,-8.49364,46.1934,1528.56,-12042.1,944.199,-25.0407,-30.7041,113.014,9759.08,-1442.78,-1649.94,-1.35974,-16.587,8.08515
3.12,25300.7,-8278.46,15355.2,-175.336,225.131,255.858,4737.58,-1573.41,10536.7,-21.9593,-127.459,40.9796,-12570.0,28416.9,-2389.29,-30.1282,14.9783,331.844,2651.62,-13014.6,1967.71,55.8784,-17.6097,95.812,-5980.65,1828.91,-794.159,63.0904,-10.0034,45.2367,1536.71,-11956.8,1114.02,-25.0668,-29.7618,114.266,9736.0,-1439.96,-1642.33,-1.57961,-17.5703,8.56354
3.121,26390.5,-8431.65,15465.2,-164.374,226.097,251.988,4614.22,-1629.65,10564.6,-21.4389,-129.392,39.6989,-13184.8,28463.9,-2719.65,-35.4241,15.5671,327.236,2715.76,-13023.2,2005.79,56.0582,-16.887,96.4211,-5761.34,1933.22,-780.042,67.1385,-11.2822,44.3195,1501.45,-11922.0,1237.32,-25.395,-29.4345,115.525,9713.64,-1466.08,-1642.43,-1.63052,-18.4333,8.98811
3.122,27480.3,-8584.84,15575.2,-153.411,227.063,248.118,4490.85,-1685.9,10592.5,-20.9184,-131.324,38.4181,-13799.6,28510.9,-3050.01,-40.72,16.1559,322.628,2779.89,-13031.8,2043.87,56.238,-16.1643,97.0302,-5542.02,2037.53,-765.926,71.1867,-12.5611,43.4023,1466.2,-11887.1,1360.62,-25.7231,-29.1072,116.784,9691.28,-1492.21,-1642.53,-1.68143,-19.2963,9.41268
3.123,28570.1,-8738.03,15685.1,-142.449,228.029,244.248,4367.49,-1742.15,10620.4,-20.3979,-133.256,37.1373,-14414.4,28558.0,-3380.37,-46.016,16.7447,318.021,2844.02,-13040.4,2081.95,56.4177,-15.4417,97.6394,-5322.7,2141.84,-751.809,75.2348,-13.8399,42.4851,1430.94,-11852.3,1483.93,-26.0513,-28.7799,118.044,9668.92,-1518.33,-1642.63,-1.73235,-20.1592,9.83725
3.124,29660.0,-8891.22,15795.1,-131.486,228.995,240.378,4244.12,-1798.39,10648.3,-19.8774,-135.188,35.8566,-15029.2,28605.0,-3710.73,-51.3119,17.3335,313.413,2908.16,-13049.1,2120.03,56.5975,-14.719,98.2485,-5103.38,2246.15,-737.692,79.283,-15.1187,41.5679,1395.69,-11817.4,1607.23,-26.3795,-28.4526,119.303,9646.56,-1544.46,-1642.73,-1.78326,-21.0222,10.2618
3.125,30698.9,-8672.45,15675.1,-121.771,231.056,236.26,4161.09,-1811.17,10672.9,-19.3988,-137.296,34.82,-15773.8,28644.2,-3902.34,-56.3596,17.8007,309.041,2955.0,-13054.1,2131.14,56.8285,-14.1809,98.8962,-4899.29,2377.22,-780.341,82.5102,-15.6863,40.6091,1370.53,-11788.2,1775.99,-26.6907,-28.4052,120.509,9592.66,-1568.17,-1624.1,-2.06817,-22.1272,10.6729
3.126,31697.1,-8156.1,15371.2,-113.052,233.993,231.943,4110.33,-1789.17,10694.7,-18.9538,-139.543,33.9789,-16622.4,28677.2,-3982.96,-61.2086,18.1708,304.858,2988.0,-13056.3,2120.67,57.1004,-13.7905,99.5748,-4707.37,2529.69,-868.403,85.0806,-15.685,39.6171,1353.45,-11763.6,1981.13,-26.9883,-28.5816,121.674,9513.52,-1589.94,-1590.49,-2.54029,-23.4258,11.0732
3.127,32695.4,-7639.76,15067.2,-104.334,236.93,227.626,4059.57,-1767.17,10716.6,-18.5087,-141.79,33.1377,-17470.9,28710.2,-4063.57,-66.0577,18.5409,300.675,3021.01,-13058.5,2110.2,57.3724,-13.4002,100.253,-4515.46,2682.17,-956.465,87.6511,-15.6836,38.6251,1336.36,-11739.0,2186.27,-27.2858,-28.758,122.839,9434.38,-1611.71,-1556.88,-3.0124,-24.7244,11.4735
3.128,33693.6,-7123.42,14763.3,-95.6151,239.866,223.309,4008.81,-1745.18,10738.5,-18.0637,-144.037,32.2965,-18319.5,28743.1,-4144.19,-70.9068,18.911,296.492,3054.01,-13060.6,2099.73,57.6443,-13.0098,100.932,-4323.54,2834.64,-1044.53,90.2215,-15.6822,37.633,1319.28,-11714.4,2391.41,-27.5834,-28.9344,124.004,9355.24,-1633.48,-1523.27,-3.48451,-26.023,11.8738
3.129,34642.3,-6596.49,14418.2,-87.2966,242.799,218.947,3965.26,-1715.74,10750.5,-17.6461,-146.254,31.443,-19193.7,28773.1,-4204.14,-75.2721,19.2074,292.511,3082.36,-13062.1,2086.97,57.9033,-12.5987,101.613,-4130.34,3003.61,-1112.59,92.7555,-15.4653,36.6681,1300.49,-11687.2,2585.12,-27.8806,-29.1709,125.125,9274.83,-1654.51,-1493.86,-3.9442,-27.2863,12.2608
3.13,35194.1,-5984.96,13744.1,-82.1783,245.7,214.231,3979.37,-1626.76,10683.6,-17.4482,-148.237,30.4906,-20272.7,28778.7,-4098.77,-75.7674,18.9148,290.146,3073.48,-13057.9,2055.92,58.0588,-12.0214,102.315,-3926.85,3304.54,-1020.68,94.9974,-13.5241,35.9194,1268.03,-11639.6,2687.5,-28.1742,-29.8881,125.895,9184.35,-1669.6,-1498.04,-4.30449,-28.2665,12.5408
3.131,35745.8,-5373.43,13070.0,-77.0599,248.601,209.515,3993.48,-1537.78,10616.8,-17.2503,-150.22,29.5382,-21351.8,28784.3,-3993.41,-76.2626,18.6222,287.78,3064.59,-13053.8,2024.87,58.2144,-11.4442,103.017,-3723.37,3605.48,-928.764,97.2393,-11.583,35.1708,1235.57,-11592.1,2789.87,-28.4679,-30.6054,126.666,9093.86,-1684.7,-1502.22,-4.66478,-29.2468,12.8209
3.132,36297.6,-4761.9,12395.8,-71.9416,251.502,204.799,4007.59,-1448.8,10549.9,-17.0525,-152.203,28.5858,-22430.8,28789.9,-3888.05,-76.7579,18.3296,285.415,3055.7,-13049.6,1993.81,58.3699,-10.8669,103.719,-3519.88,3906.42,-836.851,99.4813,-9.64185,34.4221,1203.11,-11544.5,2892.24,-28.7616,-31.3226,127.436,9003.37,-1699.79,-1506.39,-5.02507,-30.2271,13.1009
3.133,36849.4,-4150.37,11721.7,-66.8232,254.403,200.082,4021.71,-1359.82,10483.0,-16.8546,-154.186,27.6334,-23509.8,28795.5,-3782.68,-77.2532,18.0369,283.049,3046.82,-13045.4,1962.76,58.5254,-10.2897,104.421,-3316.39,4207.36,-744.937,101.723,-7.7007,33.6735,1170.65,-11497.0,2994.62,-29.0552,-32.0399,128.206,8912.89,-1714.88,-1510.57,-5.38536,-31.2074,13.381
3.134,37107.5,-3670.57,10952.1,-63.3945,256.0,195.178,4072.39,-1271.53,10428.0,-16.8879,-156.248,26.707,-24680.1,28681.1,-3672.86,-74.1151,17.3358,281.841,3053.19,-13035.7,1930.61,58.6926,-9.54632,105.192,-3096.82,4622.58,-608.111,103.575,-3.65149,33.4183,1133.52,-11476.8,3086.69,-29.1738,-33.0182,128.822,8817.0,-1714.87,-1579.34,-5.47927,-31.3764,13.61
3.135,37218.8,-3256.63,10134.9,-60.8106,256.945,190.18,4141.35,-1183.58,10379.0,-17.0368,-158.349,25.7936,-25895.9,28506.8,-3560.8,-69.1604,16.4304,281.211,3067.19,-13023.1,1897.92,58.8657,-8.7199,105.997,-2869.2,5094.94,-448.831,105.232,1.45175,33.4099,1094.05,-11470.4,3173.62,-29.2048,-34.1272,129.36,8718.42,-1707.32,-1680.4,-5.44,-31.1398,13.8134
3.136,37330.0,-2842.69,9317.56,-58.2267,257.891,185.181,4210.31,-1095.63,10330.0,-17.1857,-160.451,24.8802,-27111.7,28332.4,-3448.74,-64.2056,15.5251,280.582,3081.19,-13010.6,1865.22,59.0388,-7.89347,106.802,-2641.58,5567.3,-289.55,106.889,6.55499,33.4014,1054.59,-11464.0,3260.54,-29.2359,-35.2362,129.898,8619.84,-1699.77,-1781.46,-5.40073,-30.9032,14.0169
3.137,37441.3,-2428.75,8500.27,-55.6428,258.836,180.183,4279.28,-1007.68,10280.9,-17.3346,-162.552,23.9668,-28327.5,28158.1,-3336.69,-59.2508,14.6197,279.953,3095.2,-12998.1,1832.52,59.2119,-7.06704,107.607,-2413.97,6039.66,-130.269,108.545,11.6582,33.393,1015.13,-11457.5,3347.47,-29.2669,-36.3451,130.436,8521.26,-1692.21,-1882.53,-5.36146,-30.6665,14.2203
3.138,37504.9,-2031.78,7682.6,-53.5236,258.883,175.16,4351.62,-942.57,10250.5,-17.5031,-164.587,23.0262,-29487.9,27957.0,-3228.17,-53.5514,13.305,279.867,3125.12,-12984.3,1794.15,59.4334,-6.21867,108.467,-2185.81,6534.83,50.0059,109.595,17.796,33.7386,997.215,-11446.7,3434.35,-29.2578,-37.6089,130.926,8430.35,-1692.08,-1985.48,-5.2192,-30.1973,14.4264
3.139,37401.9,-1694.21,6863.61,-53.0309,255.786,170.049,4435.79,-957.401,10285.3,-17.74,-166.388,21.9901,-30454.4,27662.2,-3132.03,-45.2459,10.5575,281.685,3210.78,-12966.3,1735.93,59.8242,-5.29348,109.518,-1955.8,7109.87,303.76,108.517,27.5544,35.3233,1054.73,-11420.4,3521.06,-29.108,-39.4146,131.247,8366.31,-1717.91,-2095.05,-4.71652,-28.9137,14.6419
3.14,37298.8,-1356.64,6044.61,-52.5382,252.689,164.939,4519.96,-972.231,10320.0,-17.977,-168.19,20.9541,-31420.8,27367.4,-3035.88,-36.9403,7.81008,283.503,3296.44,-12948.2,1677.71,60.2149,-4.36829,110.569,-1725.78,7684.91,557.514,107.439,37.3128,36.9081,1112.24,-11394.2,3607.77,-28.9583,-41.2203,131.569,8302.27,-1743.74,-2204.61,-4.21384,-27.6302,14.8574
3.141,37195.7,-1019.07,5225.62,-52.0455,249.591,159.828,4604.13,-987.061,10354.8,-18.2139,-169.991,19.9181,-32387.3,27072.6,-2939.74,-28.6348,5.06264,285.32,3382.1,-12930.1,1619.48,60.6057,-3.4431,111.62,-1495.76,8259.95,811.268,106.361,47.0712,38.4928,1169.76,-11367.9,3694.48,-28.8085,-43.0259,131.891,8238.22,-1769.58,-2314.18,-3.71115,-26.3467,15.0729
3.142,37092.7,-681.499,4406.63,-51.5528,246.494,154.718,4688.3,-1001.89,10389.5,-18.4509,-171.792,18.882,-33353.8,26777.8,-2843.6,-20.3292,2.31519,287.138,3467.76,-12912.1,1561.26,60.9965,-2.5179,112.671,-1265.75,8834.99,1065.02,105.283,56.8296,40.0775,1227.27,-11341.7,3781.19,-28.6588,-44.8316,132.213,8174.18,-1795.41,-2423.74,-3.20847,-25.0632,15.2884
3.143,36977.3,-375.107,3560.84,-52.3394,241.979,149.663,4706.13,-992.392,10449.3,-18.9513,-173.916,18.0174,-33948.9,26277.1,-2892.81,-12.6842,-1.99506,288.773,3568.16,-12892.0,1470.6,61.5234,-1.42745,113.88,-1032.96,9437.33,1396.03,101.031,70.0592,44.2188,1350.43,-11342.9,3887.53,-28.5795,-47.2062,132.235,8167.95,-1834.69,-2449.28,-2.28506,-23.8062,15.3126
3.144,36858.3,-77.6229,2707.39,-53.4916,237.057,144.624,4705.0,-975.941,10516.2,-19.5271,-176.133,17.2018,-34437.9,25717.5,-2983.56,-5.22783,-6.75183,290.355,3672.78,-12871.3,1370.67,62.0892,-0.289784,115.134,-799.392,10047.5,1749.11,95.8716,84.2806,49.0905,1492.36,-11351.9,3999.47,-28.5204,-49.7434,132.173,8178.23,-1877.8,-2450.81,-1.24143,-22.5569,15.2821
3.145,36739.3,219.861,1853.94,-54.6437,232.136,139.585,4703.88,-959.491,10583.1,-20.1028,-178.349,16.3862,-34926.9,25157.9,-3074.3,2.22851,-11.5086,291.938,3777.4,-12850.7,1270.74,62.655,0.847885,116.387,-565.819,10657.6,2102.19,90.7124,98.502,53.9623,1634.28,-11361.0,4111.41,-28.4613,-52.2805,132.11,8188.52,-1920.92,-2452.34,-0.197812,-21.3075,15.2516
3.146,36620.4,517.346,1000.5,-55.7959,227.215,134.547,4702.75,-943.041,10650.0,-20.6786,-180.565,15.5705,-35415.9,24598.3,-3165.04,9.68485,-16.2654,293.52,3882.02,-12830.0,1170.81,63.2208,1.98555,117.641,-332.246,11267.7,2455.27,85.5532,112.723,58.834,1776.2,-11370.1,4223.36,-28.4022,-54.8176,132.047,8198.81,-1964.04,-2453.86,0.845809,-20.0581,15.2211
3.147,36591.0,801.745,150.233,-57.4039,221.91,129.307,4673.79,-894.896,10733.6,-21.1219,-182.856,14.7709,-35787.9,23917.0,-3352.67,16.1108,-21.0169,293.857,3986.55,-12824.2,1050.8,63.7863,3.12344,118.99,-99.2516,11861.2,2789.76,80.065,127.301,64.8441,1947.49,-11413.6,4286.13,-28.3912,-57.432,131.766,8223.86,-1982.46,-2424.47,1.95074,-19.1768,15.0708
3.148,36740.8,1059.98,-693.669,-59.9234,215.837,123.667,4589.15,-783.365,10850.6,-21.3006,-185.296,14.0034,-35926.2,22992.1,-3734.07,20.476,-25.758,291.704,4090.89,-12848.1,890.614,64.3513,4.26175,120.531,132.585,12421.2,3087.05,73.919,142.593,73.1309,2177.5,-11526.2,4250.57,-28.4766,-60.2007,131.047,8278.41,-1951.5,-2333.24,3.1783,-19.0316,14.6809
3.149,36890.5,1318.21,-1537.57,-62.443,209.765,118.027,4504.51,-671.833,10967.6,-21.4793,-187.737,13.2359,-36064.4,22067.3,-4115.47,24.8412,-30.499,289.551,4195.23,-12872.0,730.43,64.9163,5.40006,122.072,364.422,12981.2,3384.33,67.7729,157.884,81.4176,2407.52,-11638.8,4215.02,-28.562,-62.9694,130.328,8332.96,-1920.53,-2242.01,4.40585,-18.8863,14.291
3.15,37040.3,1576.44,-2381.47,-64.9626,203.692,112.386,4419.87,-560.301,11084.5,-21.658,-190.177,12.4683,-36202.6,21142.5,-4496.88,29.2064,-35.2401,287.398,4299.57,-12896.0,570.246,65.4813,6.53837,123.612,596.259,13541.2,3681.62,61.6269,173.176,89.7044,2637.53,-11751.4,4179.46,-28.6473,-65.7381,129.609,8387.51,-1889.56,-2150.78,5.63341,-18.741,13.901
3.151,37190.0,1834.67,-3225.38,-67.4821,197.62,106.746,4335.24,-448.769,11201.5,-21.8367,-192.618,11.7008,-36340.9,20217.6,-4878.28,33.5716,-39.9811,285.245,4403.91,-12919.9,410.063,66.0463,7.67669,125.153,828.096,14101.2,3978.91,55.4808,188.467,97.9912,2867.55,-11864.0,4143.9,-28.7327,-68.5068,128.889,8442.07,-1858.6,-2059.56,6.86097,-18.5958,13.5111
3.152,37473.5,2169.76,-3992.38,-70.8792,191.767,100.744,4297.52,-302.645,11260.1,-21.9739,-195.309,11.2475,-36422.9,19200.4,-5226.93,35.932,-43.7535,280.175,4469.69,-12991.5,218.552,66.5402,8.52872,126.976,1270.46,14501.2,4088.34,52.1047,200.905,107.525,3133.51,-11958.1,4111.54,-29.19,-70.8063,127.795,8474.14,-1759.33,-1950.66,7.52337,-19.4483,13.1592
3.153,37773.6,2514.47,-4749.78,-74.3859,185.941,94.6974,4265.66,-152.196,11311.3,-22.1059,-198.033,10.8335,-36497.9,18171.6,-5571.49,38.0418,-47.4049,274.741,4530.66,-13069.0,23.1247,67.0251,9.34497,128.835,1739.13,14881.3,4174.29,49.0748,212.986,117.214,3403.97,-12049.9,4079.57,-29.6939,-73.0471,126.653,8503.4,-1651.51,-1839.56,8.11514,-20.4255,12.8121
3.154,38073.8,2859.17,-5507.18,-77.8926,180.116,88.6506,4233.8,-1.74767,11362.5,-22.2378,-200.756,10.4194,-36572.9,17142.9,-5916.04,40.1516,-51.0562,269.307,4591.62,-13146.6,-172.302,67.5101,10.1612,130.694,2207.81,15261.3,4260.24,46.0449,225.067,126.903,3674.42,-12141.7,4047.61,-30.1977,-75.2879,125.512,8532.67,-1543.7,-1728.46,8.7069,-21.4026,12.465
3.155,38374.0,3203.87,-6264.57,-81.3993,174.291,82.6038,4201.95,148.701,11413.8,-22.3698,-203.479,10.0054,-36647.9,16114.1,-6260.6,42.2614,-54.7075,263.872,4652.59,-13224.2,-367.729,67.9951,10.9775,132.552,2676.49,15641.4,4346.19,43.0149,237.148,136.593,3944.88,-12233.5,4015.65,-30.7016,-77.5288,124.37,8561.93,-1435.89,-1617.35,9.29867,-22.3798,12.1178
3.156,38707.8,3476.42,-6955.78,-85.2612,168.686,76.6191,4165.16,308.752,11434.8,-22.6075,-206.384,9.82707,-36806.1,15127.9,-6513.06,43.915,-57.8366,257.682,4677.35,-13281.9,-560.167,68.4057,11.6875,134.527,3285.03,15966.7,4424.66,40.5589,246.263,145.927,4234.0,-12347.2,3982.82,-31.1963,-79.523,123.021,8601.03,-1322.28,-1510.93,9.27589,-23.4447,11.8498
3.157,39083.7,3658.75,-7564.24,-89.5669,163.356,70.7121,4122.2,480.807,11418.2,-22.9774,-209.518,9.94335,-37068.5,14194.8,-6650.4,44.9985,-60.313,250.546,4656.86,-13314.8,-748.869,68.7236,12.2647,136.646,4068.41,16223.6,4493.8,38.8201,251.671,154.818,4546.45,-12488.1,3948.89,-31.6795,-81.2089,121.41,8652.43,-1201.43,-1410.37,8.48492,-24.6192,11.6807
3.158,39459.6,3841.09,-8172.7,-93.8727,158.026,64.805,4079.24,652.861,11401.6,-23.3474,-212.651,10.0596,-37330.8,13261.8,-6787.73,46.082,-62.7894,243.41,4636.37,-13347.7,-937.57,69.0415,12.8419,138.765,4851.79,16480.5,4562.93,37.0814,257.079,163.709,4858.9,-12629.0,3914.97,-32.1627,-82.8948,119.8,8703.83,-1080.57,-1309.8,7.69395,-25.7936,11.5115
3.159,39835.4,4023.43,-8781.17,-98.1784,152.697,58.898,4036.28,824.916,11385.0,-23.7173,-215.784,10.1759,-37593.2,12328.7,-6925.07,47.1655,-65.2658,236.274,4615.87,-13380.6,-1126.27,69.3593,13.4191,140.884,5635.17,16737.4,4632.06,35.3427,262.487,172.6,5171.35,-12769.9,3881.05,-32.646,-84.5807,118.19,8755.23,-959.716,-1209.23,6.90299,-26.9681,11.3424
3.16,40211.3,4205.77,-9389.63,-102.484,147.367,52.991,3993.32,996.97,11368.4,-24.0872,-218.917,10.2922,-37855.5,11395.6,-7062.41,48.249,-67.7422,229.138,4595.38,-13413.5,-1314.97,69.6772,13.9963,143.004,6418.56,16994.3,4701.2,33.6039,267.895,181.49,5483.8,-12910.8,3847.13,-33.1292,-86.2666,116.58,8806.64,-838.86,-1108.66,6.11202,-28.1426,11.1732
3.161,40577.1,4404.6,-9718.79,-106.408,142.461,47.6094,3995.73,1154.19,11346.9,-24.0005,-222.054,10.8298,-38255.6,10714.2,-6954.72,49.6295,-69.7006,221.276,4525.29,-13458.6,-1479.87,69.8322,14.5084,145.311,7460.09,17394.2,5018.24,28.8459,267.428,188.526,5745.41,-13097.8,3843.07,-33.1407,-87.0994,114.638,8866.56,-754.745,-1000.36,4.32736,-28.7174,11.152
3.162,40943.0,4603.43,-10047.9,-110.331,137.554,42.2279,3998.14,1311.41,11325.5,-23.9139,-225.191,11.3674,-38655.7,10032.8,-6847.04,51.01,-71.659,213.414,4455.21,-13503.7,-1644.77,69.9873,15.0205,147.619,8501.63,17794.2,5335.28,24.0878,266.962,195.563,6007.03,-13284.8,3839.01,-33.1521,-87.9321,112.696,8926.49,-670.63,-892.051,2.54269,-29.2923,11.1308
3.163,41308.8,4802.26,-10377.1,-114.255,132.648,36.8464,4000.55,1468.63,11304.1,-23.8272,-228.328,11.905,-39055.8,9351.33,-6739.36,52.3906,-73.6175,205.552,4385.12,-13548.7,-1809.66,70.1423,15.5326,149.926,9543.16,18194.1,5652.32,19.3297,266.495,202.599,6268.64,-13471.8,3834.95,-33.1636,-88.7649,110.753,8986.41,-586.515,-783.746,0.758031,-29.8671,11.1096
3.164,41674.6,5001.1,-10706.2,-118.178,127.742,31.4648,4002.97,1625.85,11282.7,-23.7405,-231.465,12.4426,-39455.9,8669.9,-6631.68,53.7711,-75.5759,197.69,4315.03,-13593.8,-1974.56,70.2974,16.0447,152.233,10584.7,18594.1,5969.36,14.5717,266.029,209.635,6530.26,-13658.8,3830.89,-33.1751,-89.5976,108.811,9046.33,-502.4,-675.44,-1.02663,-30.442,11.0884
3.165,41977.5,5264.24,-10923.9,-122.114,122.848,26.3756,4037.73,1766.31,11265.8,-23.623,-234.645,12.9177,-39949.8,8074.49,-6393.88,55.5823,-77.3202,189.652,4253.58,-13627.7,-2102.05,70.4224,16.5546,154.557,11629.3,19000.6,6307.83,8.01084,263.895,215.152,6772.52,-13821.6,3843.76,-32.8184,-90.1401,106.778,9086.51,-442.567,-605.127,-2.66075,-30.4693,11.0971
3.166,42230.1,5578.82,-11052.3,-126.059,117.966,21.5203,4098.39,1893.38,11252.7,-23.4808,-237.859,13.3427,-40518.9,7547.9,-6051.98,57.7379,-78.893,181.473,4199.03,-13652.7,-2199.62,70.5232,17.0627,156.895,12676.5,19412.3,6663.44,0.00777673,260.426,219.453,6999.3,-13964.9,3870.17,-32.1671,-90.4503,104.673,9110.88,-402.158,-565.207,-4.17443,-30.0586,11.1298
3.167,42482.7,5893.4,-11180.6,-130.004,113.083,16.665,4159.05,2020.45,11239.6,-23.3386,-241.072,13.7677,-41087.9,7021.31,-5710.09,59.8935,-80.4659,173.294,4144.48,-13677.7,-2297.19,70.6241,17.5709,159.232,13723.6,19824.0,7019.05,-7.99529,256.958,223.754,7226.08,-14108.3,3896.58,-31.5158,-90.7605,102.567,9135.26,-361.75,-525.288,-5.68811,-29.6478,11.1625
3.168,42735.3,6207.99,-11309.0,-133.95,108.2,11.8097,4219.7,2147.52,11226.5,-23.1964,-244.286,14.1928,-41657.0,6494.72,-5368.19,62.0491,-82.0388,165.115,4089.93,-13702.7,-2394.76,70.725,18.079,161.569,14770.7,20235.7,7374.67,-15.9983,253.49,228.055,7452.86,-14251.7,3922.99,-30.8645,-91.0707,100.461,9159.63,-321.342,-485.368,-7.2018,-29.2371,11.1951
3.169,42972.3,6559.56,-11444.7,-137.804,103.386,7.1128,4279.26,2259.76,11214.9,-23.048,-247.515,14.5901,-42204.7,5985.08,-5003.61,64.2259,-83.7121,156.931,4041.65,-13722.6,-2483.36,70.8185,18.5732,163.907,15799.9,20590.8,7674.5,-23.9268,249.903,231.707,7678.97,-14388.8,3952.95,-30.1835,-91.3596,98.2978,9182.35,-284.003,-453.015,-8.60155,-28.7373,11.1993
3.17,43084.2,7207.02,-11638.6,-140.933,99.1134,3.68378,4330.04,2253.39,11215.8,-22.8493,-250.872,14.7656,-42581.5,5611.02,-4457.58,66.5714,-86.1893,148.702,4043.53,-13701.4,-2500.16,70.8526,18.9558,166.243,16685.4,20493.9,7528.14,-31.2588,245.365,230.164,7899.76,-14475.9,4011.32,-29.2651,-91.4779,95.6721,9191.82,-271.221,-481.197,-9.08994,-27.5249,10.9755
3.171,43196.2,7854.48,-11832.5,-144.061,94.8412,0.254755,4380.82,2247.01,11216.7,-22.6507,-254.23,14.9411,-42958.3,5236.96,-3911.54,68.9168,-88.6664,140.473,4045.41,-13680.2,-2516.97,70.8867,19.3385,168.579,17570.8,20397.0,7381.78,-38.5908,240.827,228.622,8120.54,-14563.0,4069.69,-28.3466,-91.5962,93.0464,9201.29,-258.438,-509.379,-9.57833,-26.3125,10.7516
3.172,43308.1,8501.94,-12026.5,-147.19,90.569,-3.17427,4431.6,2240.64,11217.6,-22.452,-257.587,15.1166,-43335.1,4862.91,-3365.51,71.2623,-91.1436,132.244,4047.28,-13659.1,-2533.77,70.9208,19.7212,170.915,18456.3,20300.1,7235.42,-45.9228,236.289,227.079,8341.33,-14650.1,4128.05,-27.4282,-91.7146,90.4207,9210.77,-245.656,-537.561,-10.0667,-25.1,10.5278
3.173,43420.0,9149.39,-12220.4,-150.318,86.2968,-6.60329,4482.38,2234.27,11218.5,-22.2534,-260.944,15.2921,-43711.9,4488.85,-2819.48,73.6078,-93.6208,124.015,4049.16,-13637.9,-2550.58,70.9549,20.1038,173.252,19341.7,20203.2,7089.05,-53.2548,231.751,225.536,8562.12,-14737.2,4186.42,-26.5097,-91.8329,87.795,9220.24,-232.873,-565.742,-10.5551,-23.8876,10.304
3.174,43513.9,9657.76,-12404.8,-153.12,82.1223,-9.61053,4509.92,2177.95,11224.5,-21.9446,-264.344,15.6309,-43778.4,4220.1,-2333.09,75.1831,-96.6209,115.574,4084.89,-13632.8,-2524.69,70.9942,20.4649,175.701,20102.6,19798.8,6894.51,-59.1841,223.974,219.25,8763.73,-14802.9,4181.18,-25.5994,-91.875,85.1519,9220.61,-229.417,-632.63,-10.2205,-22.4472,9.92117
3.175,43598.7,10096.6,-12584.5,-155.758,77.9967,-12.4069,4525.84,2096.66,11233.1,-21.5807,-267.766,16.0514,-43689.7,4004.01,-1876.53,76.3733,-99.8825,107.028,4137.54,-13635.8,-2477.46,71.036,20.8152,178.208,20801.1,19240.8,6675.87,-64.4122,214.578,210.593,8955.75,-14857.9,4144.15,-24.6932,-91.879,82.4999,9216.43,-230.624,-718.87,-9.47428,-20.8928,9.4589
3.176,43683.5,10535.4,-12764.2,-158.397,73.871,-15.2032,4541.77,2015.37,11241.7,-21.2168,-271.188,16.4719,-43601.1,3787.92,-1419.97,77.5635,-103.144,98.4812,4190.19,-13638.7,-2430.23,71.0778,21.1655,180.715,21499.6,18682.7,6457.23,-69.6402,205.182,201.936,9147.78,-14913.0,4107.11,-23.7869,-91.8829,79.848,9212.25,-231.831,-805.11,-8.7281,-19.3385,8.99663
3.177,43768.3,10974.2,-12943.9,-161.035,69.7454,-17.9996,4557.69,1934.08,11250.3,-20.853,-274.61,16.8924,-43512.4,3571.83,-963.411,78.7538,-106.406,89.9347,4242.85,-13641.6,-2383.0,71.1197,21.5158,183.221,22198.1,18124.6,6238.59,-74.8683,195.786,193.279,9339.81,-14968.0,4070.07,-22.8807,-91.8869,77.1961,9208.07,-233.038,-891.35,-7.98192,-17.7841,8.53436
3.178,43840.7,11321.1,-13131.3,-162.965,65.7138,-20.8488,4564.96,1864.66,11277.9,-20.5466,-278.146,17.3199,-43375.4,3388.2,-558.536,79.5717,-109.383,81.2324,4293.75,-13656.6,-2331.51,71.2188,21.8216,185.744,22890.7,17607.8,6144.21,-80.6839,183.562,183.725,9529.91,-15007.6,4020.49,-21.8822,-91.7993,74.4992,9198.86,-219.124,-982.794,-7.01409,-16.3017,8.05072
3.179,43869.7,11346.5,-13345.6,-162.415,62.0115,-23.8829,4541.96,1836.83,11372.1,-20.4417,-282.081,17.7718,-43069.2,3318.2,-334.558,79.0869,-111.366,71.9842,4338.49,-13714.0,-2265.09,71.5186,21.9717,188.321,23562.5,17235.3,6484.72,-88.5559,161.439,171.029,9713.29,-14993.4,3926.99,-20.5611,-91.3911,71.6451,9172.03,-152.288,-1092.45,-5.27049,-15.0711,7.49229
3.18,43898.8,11371.9,-13559.9,-161.865,58.3091,-26.917,4518.96,1808.99,11466.3,-20.3367,-286.016,18.2236,-42762.9,3248.19,-110.58,78.6021,-113.348,62.7361,4383.24,-13771.4,-2198.67,71.8184,22.1218,190.898,24234.2,16862.8,6825.23,-96.4279,139.317,158.334,9896.67,-14979.1,3833.5,-19.2399,-90.9828,68.7909,9145.2,-85.4518,-1202.11,-3.52688,-13.8405,6.93386
3.181,43927.8,11397.2,-13774.3,-161.315,54.6068,-29.9512,4495.95,1781.15,11560.5,-20.2317,-289.951,18.6755,-42456.7,3178.18,113.398,78.1173,-115.331,53.4879,4427.99,-13828.7,-2132.26,72.1182,22.2719,193.476,24906.0,16490.2,7165.74,-104.3,117.194,145.638,10080.1,-14964.9,3740.0,-17.9187,-90.5746,65.9368,9118.37,-18.6156,-1311.77,-1.78327,-12.6099,6.37544
3.182,43956.8,11422.6,-13988.6,-160.765,50.9045,-32.9853,4472.95,1753.32,11654.6,-20.1267,-293.886,19.1274,-42150.5,3108.17,337.376,77.6325,-117.313,44.2398,4472.74,-13886.1,-2065.84,72.4179,22.422,196.053,25577.8,16117.7,7506.25,-112.172,95.0715,132.942,10263.4,-14950.7,3646.51,-16.5975,-90.1663,63.0827,9091.54,48.2207,-1421.43,-0.0396672,-11.3793,5.81701
3.183,43979.9,11330.2,-14236.2,-157.439,47.8402,-36.6172,4480.23,1712.0,11730.2,-20.1933,-298.121,19.6177,-41807.2,3159.6,479.272,76.5186,-117.903,35.261,4504.2,-14003.8,-2024.93,72.8235,22.354,198.56,25988.0,15922.3,8010.29,-123.048,63.1164,120.245,10412.3,-14880.8,3570.84,-15.341,-89.6745,60.3326,9066.37,157.552,-1538.76,1.65625,-10.7548,5.41083
3.184,44001.2,11204.1,-14493.4,-153.32,44.9582,-40.42,4496.17,1666.84,11800.4,-20.3089,-302.44,20.119,-41453.4,3245.71,597.716,75.225,-118.095,26.3592,4531.86,-14138.7,-1991.31,73.2594,22.2236,201.046,26323.4,15777.4,8561.05,-134.782,28.352,107.547,10551.4,-14795.0,3500.26,-14.1029,-89.1587,57.6121,9041.67,279.024,-1658.29,3.33854,-10.3036,5.04816
3.185,44022.5,11078.1,-14750.6,-149.201,42.0762,-44.2228,4512.1,1621.68,11870.6,-20.4245,-306.76,20.6203,-41099.5,3331.83,716.159,73.9314,-118.286,17.4575,4559.52,-14273.7,-1957.69,73.6952,22.0932,203.533,26658.9,15632.5,9111.81,-146.517,-6.41235,94.8485,10690.4,-14709.2,3429.67,-12.8649,-88.6429,54.8917,9016.97,400.497,-1777.82,5.02084,-9.85236,4.68548
3.186,44043.8,10952.0,-15007.8,-145.082,39.1942,-48.0256,4528.04,1576.51,11940.8,-20.5401,-311.08,21.1216,-40745.7,3417.95,834.603,72.6377,-118.478,8.55566,4587.18,-14408.7,-1924.07,74.131,21.9628,206.019,26994.4,15487.7,9662.58,-158.251,-41.1767,82.1504,10829.5,-14623.5,3359.09,-11.6268,-88.1272,52.1713,8992.27,521.969,-1897.35,6.70313,-9.40111,4.32281
3.187,43989.7,10833.8,-15265.1,-140.149,36.384,-52.0462,4533.24,1541.44,12010.5,-20.7949,-315.633,21.619,-40411.0,3513.82,945.427,71.2499,-118.193,-0.0457508,4614.93,-14556.8,-1893.55,74.6507,21.7356,208.448,27090.4,15193.7,10220.4,-166.599,-76.5276,69.9287,10938.7,-14506.8,3287.76,-10.4897,-87.5561,49.6886,8966.17,637.403,-2021.15,8.22959,-9.09742,3.98516
3.188,43784.8,10731.3,-15522.4,-133.586,33.7174,-56.5025,4516.95,1526.57,12079.3,-21.3279,-320.654,22.1086,-40114.6,3629.2,1041.01,69.6735,-116.957,-8.04641,4642.88,-14731.2,-1869.26,75.3381,21.3148,210.76,26707.4,14601.7,10792.2,-168.174,-113.051,58.6597,10988.3,-14328.3,3214.92,-9.55442,-86.8745,47.6816,8937.26,740.759,-2153.51,9.44439,-9.08884,3.69757
3.189,43579.8,10628.8,-15779.8,-127.024,31.0509,-60.9589,4500.67,1511.7,12148.0,-21.861,-325.675,22.5981,-39818.1,3744.59,1136.6,68.0972,-115.721,-16.0471,4670.82,-14905.6,-1844.97,76.0254,20.8939,213.072,26324.4,14009.6,11364.0,-169.75,-149.575,47.3908,11037.9,-14149.9,3142.08,-8.61917,-86.1929,45.6745,8908.35,844.115,-2285.87,10.6592,-9.08026,3.40998
3.19,43374.9,10526.3,-16037.1,-120.462,28.3844,-65.4152,4484.38,1496.82,12216.8,-22.3941,-330.696,23.0877,-39521.7,3859.97,1232.19,66.5209,-114.484,-24.0477,4698.77,-15080.0,-1820.68,76.7128,20.4731,215.384,25941.4,13417.5,11935.8,-171.325,-186.099,36.1218,11087.5,-13971.4,3069.24,-7.68393,-85.5113,43.6675,8879.44,947.471,-2418.22,11.874,-9.07168,3.12238
3.191,43169.9,10423.8,-16294.5,-113.899,25.7178,-69.8716,4468.09,1481.95,12285.5,-22.9272,-335.717,23.5772,-39225.2,3975.35,1327.77,64.9446,-113.248,-32.0484,4726.72,-15254.5,-1796.38,77.4002,20.0522,217.696,25558.4,12825.5,12507.6,-172.901,-222.623,24.8529,11137.0,-13793.0,2996.4,-6.74868,-84.8297,41.6604,8850.53,1050.83,-2550.58,13.0888,-9.06311,2.83479
3.192,42775.9,10433.5,-16332.6,-106.753,22.6045,-74.785,4415.24,1486.83,12346.8,-23.4528,-340.849,24.0374,-38949.4,4076.15,1410.88,63.1374,-111.104,-39.5705,4768.22,-15428.3,-1788.9,78.0251,19.1793,219.78,24844.4,11802.0,12855.1,-155.46,-247.548,14.979,11171.3,-13622.0,2883.31,-6.76163,-83.4477,40.218,8875.51,1120.33,-2650.87,14.138,-9.11984,2.57527
3.193,42358.1,10457.3,-16343.3,-99.5332,19.4354,-79.7555,4357.82,1494.17,12407.3,-23.9775,-345.995,24.4939,-38676.2,4175.12,1492.42,61.3014,-108.848,-47.0328,4811.42,-15602.2,-1783.52,78.6422,18.2499,221.836,24089.1,10724.7,13174.5,-135.641,-271.024,5.27961,11203.6,-13451.9,2765.18,-6.8931,-81.9782,38.8461,8907.23,1185.61,-2747.15,15.1666,-9.18473,2.31926
3.194,41940.4,10481.0,-16354.1,-92.3136,16.2663,-84.726,4300.4,1501.52,12467.7,-24.5022,-351.142,24.9504,-38402.9,4274.09,1573.97,59.4655,-106.591,-54.4951,4854.62,-15776.0,-1778.14,79.2593,17.3205,223.893,23333.8,9647.36,13493.9,-115.823,-294.499,-4.41981,11235.9,-13281.8,2647.05,-7.02458,-80.5087,37.4743,8938.94,1250.88,-2843.43,16.1951,-9.24963,2.06325
3.195,41522.7,10504.8,-16364.8,-85.0941,13.0972,-89.6966,4242.99,1508.86,12528.1,-25.0269,-356.288,25.407,-38129.7,4373.06,1655.51,57.6295,-104.334,-61.9574,4897.82,-15949.8,-1772.76,79.8764,16.3911,225.949,22578.5,8570.02,13813.3,-96.0046,-317.975,-14.1192,11268.2,-13111.8,2528.92,-7.15606,-79.0392,36.1024,8970.66,1316.16,-2939.71,17.2236,-9.31453,1.80723
3.196,41030.1,10547.7,-16276.2,-78.0181,9.5122,-94.7098,4175.81,1528.36,12619.0,-25.4199,-361.622,25.9994,-37829.2,4479.66,1767.42,55.9344,-101.907,-69.239,4947.15,-16117.3,-1776.37,80.4415,15.2135,227.803,21730.0,7626.27,13739.4,-73.8226,-335.32,-21.149,11285.3,-13006.4,2481.76,-6.87437,-77.247,34.8614,9002.44,1373.13,-3025.58,18.2024,-9.52015,1.45764
3.197,40444.0,10614.6,-16063.5,-71.1215,5.40744,-99.7763,4096.43,1563.07,12747.9,-25.6483,-367.189,26.7618,-37494.8,4595.78,1917.27,54.4155,-99.2674,-76.2948,5004.14,-16276.9,-1791.2,80.9416,13.7257,229.403,20764.9,6849.5,13173.8,-48.686,-345.002,-24.8416,11283.6,-12981.8,2523.32,-6.07621,-75.0514,33.7837,9034.31,1419.74,-3098.43,19.1188,-9.9017,0.991056
3.198,39857.8,10681.6,-15850.7,-64.2249,1.30269,-104.843,4017.06,1597.77,12876.9,-25.8766,-372.757,27.5241,-37160.3,4711.9,2067.12,52.8966,-96.6279,-83.3506,5061.14,-16436.6,-1806.03,81.4417,12.2379,231.004,19799.8,6072.73,12608.2,-23.5493,-354.684,-28.5342,11281.8,-12957.1,2564.87,-5.27805,-72.8559,32.7061,9066.18,1466.35,-3171.29,20.0353,-10.2832,0.524477
3.199,39271.7,10748.5,-15638.0,-57.3283,-2.80206,-109.909,3937.68,1632.48,13005.8,-26.105,-378.325,28.2865,-36825.9,4828.02,2216.97,51.3776,-93.9885,-90.4063,5118.13,-16596.2,-1820.86,81.9417,10.7501,232.605,18834.7,5295.96,12042.6,1.58733,-364.366,-32.2268,11280.0,-12932.5,2606.42,-4.47989,-70.6603,31.6284,9098.05,1512.95,-3244.14,20.9517,-10.6648,0.0578971
3.2,38685.5,10815.4,-15425.2,-50.4317,-6.90681,-114.976,3858.31,1667.18,13134.8,-26.3333,-383.892,29.0488,-36491.4,4944.15,2366.82,49.8587,-91.349,-97.4621,5175.12,-16755.8,-1835.7,82.4418,9.26236,234.206,17869.6,4519.2,11477.0,26.724,-374.048,-35.9194,11278.3,-12907.9,2647.97,-3.68173,-68.4648,30.5508,9129.92,1559.56,-3317.0,21.8682,-11.0463,-0.408682
3.201,38272.9,10626.3,-15163.2,-43.934,-10.9243,-120.597,3714.06,1681.85,13247.2,-25.7321,-389.337,30.1775,-35959.5,5158.8,2535.56,48.4663,-88.5201,-104.301,5306.16,-16880.2,-1950.22,82.5777,7.34328,235.445,16937.0,4241.01,11031.5,44.1935,-384.825,-32.0811,11286.4,-12893.7,2807.89,-2.30956,-66.4489,30.0234,9165.34,1554.65,-3372.84,22.425,-11.5641,-0.954131
3.202,37860.4,10437.2,-14901.3,-37.4364,-14.9418,-126.219,3569.8,1696.52,13359.7,-25.1309,-394.781,31.3063,-35427.5,5373.45,2704.3,47.0738,-85.6913,-111.14,5437.2,-17004.6,-2064.75,82.7136,5.42421,236.684,16004.4,3962.82,10585.9,61.6629,-395.601,-28.2428,11294.5,-12879.5,2967.82,-0.937395,-64.433,29.4961,9200.76,1549.73,-3428.69,22.9817,-12.0818,-1.49958
3.203,37447.8,10248.2,-14639.3,-30.9388,-18.9594,-131.84,3425.55,1711.19,13472.1,-24.5296,-400.225,32.435,-34895.5,5588.1,2873.04,45.6814,-82.8624,-117.979,5568.23,-17129.0,-2179.28,82.8495,3.50514,237.924,15071.8,3684.64,10140.4,79.1324,-406.377,-24.4045,11302.6,-12865.3,3127.75,0.434773,-62.4171,28.9687,9236.18,1544.82,-3484.53,23.5384,-12.5996,-2.04503
3.204,37035.2,10059.1,-14377.4,-24.4412,-22.9769,-137.461,3281.3,1725.86,13584.6,-23.9284,-405.669,33.5637,-34363.5,5802.75,3041.79,44.289,-80.0336,-124.818,5699.27,-17253.3,-2293.81,82.9854,1.58606,239.163,14139.1,3406.45,9694.93,96.6019,-417.154,-20.5663,11310.7,-12851.1,3287.68,1.80694,-60.4013,28.4414,9271.6,1539.9,-3540.38,24.0952,-13.1173,-2.59048
3.205,36673.4,9696.95,-14216.6,-14.6325,-26.0057,-143.633,3120.0,1778.93,13663.3,-22.7192,-410.905,34.5298,-33631.6,6122.38,3197.49,42.638,-76.6402,-131.075,5873.17,-17340.8,-2407.42,82.917,-0.6863,240.27,13118.3,3404.89,9702.53,105.342,-435.969,-15.0918,11341.4,-12882.7,3475.89,3.31137,-58.6953,27.9636,9308.93,1508.73,-3584.25,24.1206,-13.6436,-3.03982
3.206,36352.2,9196.4,-14136.7,-2.17501,-28.2435,-150.244,2945.06,1862.72,13715.2,-21.0235,-415.975,35.3658,-32739.8,6525.99,3342.77,40.7802,-72.7953,-136.866,6081.35,-17398.7,-2520.3,82.6854,-3.2413,241.271,12026.8,3624.64,10072.6,107.097,-461.214,-8.3084,11390.2,-12951.0,3686.72,4.92162,-57.2373,27.5255,9347.8,1456.55,-3618.55,23.721,-14.1768,-3.41227
3.207,36031.0,8695.85,-14056.9,10.2825,-30.4814,-156.855,2770.13,1946.5,13767.0,-19.3278,-421.044,36.2018,-31847.9,6929.6,3488.04,38.9225,-68.9503,-142.657,6289.54,-17456.6,-2633.17,82.4537,-5.7963,242.272,10935.3,3844.39,10442.7,108.853,-486.459,-1.52501,11439.0,-13019.3,3897.56,6.53187,-55.7793,27.0875,9386.67,1404.37,-3652.85,23.3214,-14.71,-3.78472
3.208,35709.8,8195.3,-13977.1,22.74,-32.7192,-163.467,2595.2,2030.29,13818.8,-17.6321,-426.114,37.0378,-30956.0,7333.2,3633.31,37.0647,-65.1054,-148.448,6497.72,-17514.5,-2746.04,82.222,-8.3513,243.273,9843.81,4064.14,10812.8,110.609,-511.704,5.25839,11487.8,-13087.7,4108.4,8.14211,-54.3213,26.6494,9425.53,1352.19,-3687.14,22.9218,-15.2431,-4.15717
3.209,35385.1,7638.96,-14012.9,36.2786,-35.2243,-170.423,2411.98,2116.72,13887.7,-15.9132,-431.254,37.946,-29961.2,7769.05,3790.09,34.7637,-60.347,-154.254,6707.83,-17565.5,-2859.04,81.9591,-10.9241,244.286,8751.84,4221.48,11102.7,112.004,-536.382,11.1298,11539.1,-13162.9,4323.97,9.8085,-53.0052,26.1935,9470.08,1290.06,-3706.88,22.3618,-15.8587,-4.54796
3.21,35032.5,6636.26,-14974.3,58.4653,-39.8671,-180.139,2162.5,2224.37,14092.7,-14.0082,-436.965,39.4317,-28142.4,8462.75,4038.86,28.9168,-48.2809,-160.179,6933.39,-17560.6,-2973.02,81.4464,-13.6389,245.39,7656.0,3879.49,10751.0,110.51,-556.516,9.70571,11610.2,-13293.2,4577.46,11.924,-52.8238,25.5952,9560.05,1148.35,-3610.16,20.518,-17.1331,-5.08549
3.211,34680.0,5633.57,-15935.6,80.6521,-44.5098,-189.855,1913.03,2332.02,14297.6,-12.1032,-442.675,40.9175,-26323.6,9156.46,4287.63,23.0698,-36.2148,-166.104,7158.94,-17555.7,-3087.0,80.9337,-16.3537,246.495,6560.15,3537.5,10399.3,109.016,-576.65,8.28159,11681.2,-13423.5,4830.94,14.0395,-52.6424,24.9968,9650.02,1006.64,-3513.45,18.6743,-18.4076,-5.62302
3.212,34327.4,4630.87,-16897.0,102.839,-49.1526,-199.572,1663.55,2439.67,14502.6,-10.1983,-448.385,42.4032,-24504.8,9850.16,4536.4,17.2229,-24.1487,-172.029,7384.49,-17550.9,-3200.98,80.4209,-19.0685,247.6,5464.31,3195.51,10047.6,107.521,-596.784,6.85747,11752.2,-13553.8,5084.42,16.1551,-52.461,24.3985,9739.99,864.925,-3416.73,16.8306,-19.6821,-6.16055
3.213,33974.8,3628.18,-17858.4,125.026,-53.7954,-209.288,1414.07,2547.32,14707.6,-8.29329,-454.095,43.8889,-22686.1,10543.9,4785.17,11.376,-12.0827,-177.954,7610.04,-17546.0,-3314.96,79.9082,-21.7833,248.704,4368.47,2853.52,9695.86,106.027,-616.918,5.43335,11823.3,-13684.1,5337.91,18.2706,-52.2796,23.8002,9829.96,723.212,-3320.01,14.9869,-20.9565,-6.69808
3.214,31667.5,3081.89,-16372.0,129.085,-91.5884,-226.115,1194.32,2606.0,14964.7,-6.04627,-460.515,45.4764,-19742.3,12068.6,6038.37,-4.05475,4.73998,-181.688,7825.16,-17592.5,-3348.43,79.5355,-24.5149,249.938,3222.24,2345.95,8937.92,99.1562,-620.109,-0.133656,11931.4,-13856.4,5454.46,20.4916,-53.2148,22.7056,10009.7,541.475,-2791.74,10.0629,-24.5725,-6.85996
3.215,28382.8,2763.81,-13661.7,124.08,-145.957,-246.498,989.426,2640.2,15247.8,-3.62822,-467.29,47.1147,-16236.2,14008.9,7793.78,-24.2774,23.9409,-184.327,8035.07,-17664.8,-3341.66,79.2329,-27.2548,251.237,2050.82,1755.59,7976.87,89.597,-614.828,-7.77211,12058.0,-14049.7,5502.56,22.7655,-54.7083,21.3629,10234.4,339.725,-2047.68,3.5986,-29.3592,-6.83401
3.216,25098.2,2445.73,-10951.4,119.075,-200.325,-266.88,784.533,2674.39,15530.9,-1.21017,-474.064,48.7531,-12730.0,15949.2,9549.19,-44.5,43.1419,-186.967,8244.98,-17737.0,-3334.88,78.9303,-29.9948,252.535,879.398,1165.22,7015.81,80.0377,-609.548,-15.4106,12184.6,-14243.1,5550.65,25.0393,-56.2018,20.0202,10459.1,137.974,-1303.62,-2.86565,-34.1458,-6.80806
3.217,21813.5,2127.65,-8241.15,114.07,-254.693,-287.263,579.641,2708.59,15814.0,1.20788,-480.839,50.3915,-9223.85,17889.5,11304.6,-64.7226,62.3428,-189.606,8454.89,-17809.2,-3328.1,78.6277,-32.7347,253.834,-292.023,574.858,6054.76,70.4784,-604.267,-23.049,12311.2,-14436.4,5598.74,27.3131,-57.6953,18.6775,10683.8,-63.7759,-559.559,-9.32991,-38.9325,-6.78212
3.218,17175.7,2611.42,-4519.21,106.483,-318.76,-304.774,385.475,2703.01,16145.8,3.73558,-488.197,51.8604,-5629.3,20134.4,13659.9,-83.2053,76.3718,-192.226,8676.51,-17912.3,-3292.2,78.5297,-35.3292,255.206,-1481.79,151.309,5154.98,58.3468,-592.988,-30.0928,12443.9,-14636.2,5530.55,29.3342,-58.9683,17.1356,10934.9,-230.201,299.642,-16.0805,-44.2919,-6.36144
3.219,7802.17,5901.7,2743.55,89.8578,-416.774,-312.235,228.853,2558.25,16647.8,6.64704,-497.597,52.7361,-1725.44,23445.4,18114.6,-95.598,72.299,-194.782,8939.12,-18123.0,-3154.37,79.1479,-37.4145,256.833,-2735.77,311.619,4469.65,37.2118,-560.714,-35.0556,12597.9,-14858.7,5055.35,30.4706,-59.4695,14.8962,11278.4,-272.989,1561.84,-23.8332,-51.6559,-4.55922
3.22,-1571.39,9191.98,10006.3,73.2326,-514.788,-319.697,72.2307,2413.49,17149.8,9.55851,-506.998,53.6118,2178.43,26756.5,22569.3,-107.991,68.2262,-197.337,9201.73,-18333.7,-3016.54,79.7661,-39.4999,258.46,-3989.75,471.929,3784.33,16.0768,-528.439,-40.0183,12752.0,-15081.2,4580.16,31.6069,-59.9707,12.6569,11621.9,-315.777,2824.05,-31.586,-59.0199,-2.75699
3.221,-10945.0,12482.3,17269.1,56.6074,-612.802,-327.158,-84.3913,2268.73,17651.8,12.47,-516.398,54.4875,6082.29,30067.5,27024.1,-120.384,64.1534,-199.892,9464.34,-18544.4,-2878.71,80.3843,-41.5852,260.087,-5243.73,632.239,3099.01,-5.05818,-496.164,-44.981,12906.0,-15303.7,4104.96,32.7433,-60.4718,10.4175,11965.4,-358.565,4086.25,-39.3387,-66.3839,-0.954766
3.222,-20318.5,15772.5,24531.8,39.9822,-710.815,-334.619,-241.013,2123.97,18153.8,15.3814,-525.798,55.3632,9986.16,33378.5,31478.8,-132.776,60.0805,-202.447,9726.95,-18755.0,-2740.87,81.0025,-43.6706,261.714,-6497.71,792.548,2413.69,-26.1932,-463.89,-49.9437,13060.1,-15526.2,3629.76,33.8797,-60.973,8.17819,12308.9,-401.353,5348.45,-47.0915,-73.7478,0.847459
3.223,-21396.1,19256.5,21855.7,47.3508,-718.562,-301.669,-289.697,1849.14,18445.9,18.1623,-536.646,55.3575,10964.7,34838.4,32409.0,-135.481,51.2907,-213.575,10250.8,-19173.8,-2558.62,81.848,-44.6813,262.787,-7555.67,930.043,2053.99,-39.9375,-423.597,-54.2091,13187.8,-15754.7,3009.9,34.2358,-57.6397,5.14219,12549.2,-278.073,6404.46,-48.8634,-77.1482,2.05416
3.224,-20103.5,22795.7,16339.9,61.5748,-700.517,-257.174,-307.542,1537.15,18678.2,20.9058,-547.908,55.1,11107.5,35769.3,32332.1,-135.418,41.1531,-227.152,10849.3,-19651.9,-2363.68,82.7584,-45.3849,263.701,-8557.62,1061.02,1787.34,-51.5702,-381.014,-58.2752,13308.0,-15984.9,2348.7,34.369,-53.2108,1.87857,12759.9,-107.344,7401.56,-48.9266,-79.4162,3.09072
3.225,-18810.8,26335.0,10824.0,75.7988,-682.473,-212.678,-325.386,1225.16,18910.4,23.6493,-559.17,54.8425,11250.3,36700.2,32255.2,-135.354,31.0155,-240.73,11447.9,-20130.0,-2168.74,83.6688,-46.0885,264.616,-9559.57,1191.99,1520.68,-63.2029,-338.431,-62.3414,13428.2,-16215.0,1687.5,34.5022,-48.7819,-1.38504,12970.7,63.3856,8398.66,-48.9897,-81.6842,4.12728
3.226,-17518.2,29874.3,5308.17,90.0227,-664.428,-168.183,-343.231,913.173,19142.7,26.3928,-570.432,54.585,11393.1,37631.2,32178.4,-135.291,20.8779,-254.307,12046.4,-20608.2,-1973.79,84.5792,-46.7921,265.53,-10561.5,1322.97,1254.02,-74.8356,-295.848,-66.4076,13548.4,-16445.2,1026.31,34.6354,-44.353,-4.64866,13181.5,234.115,9395.76,-49.0528,-83.9521,5.16383
3.227,-11062.0,30193.8,2077.78,83.9604,-635.706,-130.817,-351.208,674.289,19290.6,28.4878,-581.532,54.1582,10161.5,37667.2,30286.2,-132.359,21.7709,-269.254,12747.6,-21134.7,-1872.05,85.0508,-48.0628,265.869,-11257.8,1363.85,999.731,-81.2093,-253.393,-72.8227,13645.6,-16737.0,460.766,35.2319,-37.992,-8.33272,13355.4,433.185,10253.7,-46.5659,-83.4527,5.86767
3.228,5721.24,24073.9,3418.29,37.3257,-585.63,-107.71,-339.45,581.615,19269.8,29.2858,-592.307,53.3928,6181.08,35913.5,24763.5,-123.69,44.7252,-286.942,13654.1,-21757.8,-1956.71,84.6446,-50.4677,265.058,-11342.7,1224.54,770.165,-77.0652,-211.194,-83.9355,13696.5,-17151.9,86.5406,36.7547,-27.7669,-12.8577,13455.8,688.939,10833.5,-38.9788,-77.4183,5.90606
3.229,22504.4,17954.1,4758.81,-9.30897,-535.553,-84.602,-327.692,488.941,19249.1,30.0838,-603.083,52.6274,2200.64,34159.9,19240.7,-115.021,67.6794,-304.629,14560.6,-22381.0,-2041.36,84.2383,-52.8726,264.247,-11427.6,1085.22,540.599,-72.9212,-168.996,-95.0484,13747.5,-17566.9,-287.685,38.2776,-17.5418,-17.3826,13556.1,944.693,11413.2,-31.3916,-71.384,5.94445
3.23,39287.7,11834.2,6099.32,-55.9437,-485.476,-61.4944,-315.935,396.267,19228.3,30.8819,-613.859,51.8619,-1779.79,32406.2,13718.0,-106.352,90.6337,-322.316,15467.1,-23004.1,-2126.02,83.8321,-55.2775,263.435,-11512.5,945.913,311.033,-68.7771,-126.797,-106.161,13798.4,-17981.8,-661.911,39.8004,-7.31674,-21.9075,13656.4,1200.45,11992.9,-23.8045,-65.3497,5.98284
3.231,56070.9,5714.33,7439.83,-102.578,-435.399,-38.3868,-304.177,303.593,19207.6,31.6799,-624.634,51.0965,-5760.23,30652.5,8195.21,-97.6834,113.588,-340.003,16373.6,-23627.3,-2210.67,83.4259,-57.6824,262.624,-11597.4,806.602,81.4671,-64.633,-84.599,-117.274,13849.4,-18396.8,-1036.14,41.3233,2.90834,-26.4325,13756.7,1456.2,12572.7,-16.2174,-59.3153,6.02123
3.232,64572.3,-520.309,15220.4,-88.4917,-383.582,-41.521,-546.891,727.761,19182.8,32.0237,-634.022,51.9722,-9198.92,28607.3,3231.06,-73.5701,142.646,-343.675,17227.9,-24178.6,-2622.15,82.7083,-64.165,260.768,-10558.4,2065.15,18.0933,-57.3269,-39.1007,-123.667,13745.5,-18862.0,-1120.02,45.9066,16.4553,-31.1893,13814.4,1919.46,12442.9,-7.70204,-49.8583,6.60885
3.233,72038.6,-6769.29,23806.0,-66.8148,-331.548,-47.9354,-821.413,1216.53,19157.6,32.3108,-643.237,53.053,-12569.9,26525.7,-1663.27,-47.5263,172.467,-345.596,18075.6,-24720.9,-3074.48,81.9517,-71.1573,258.782,-9378.96,3498.43,-24.5065,-49.6257,6.80998,-129.469,13622.3,-19333.6,-1167.6,50.8724,30.4175,-35.9751,13866.8,2408.66,12224.4,0.92934,-39.9735,7.26511
3.234,79504.8,-13018.3,32391.7,-45.1379,-279.514,-54.3499,-1095.93,1705.31,19132.4,32.5979,-652.452,54.1339,-15940.9,24444.1,-6557.59,-21.4825,202.289,-347.517,18923.4,-25263.3,-3526.81,81.1952,-78.1496,256.796,-8199.49,4931.72,-67.1063,-41.9244,52.7207,-135.271,13499.1,-19805.2,-1215.19,55.8383,44.3797,-40.7608,13919.1,2897.86,12006.0,9.56072,-30.0887,7.92138
3.235,86971.1,-19267.3,40977.3,-23.461,-227.479,-60.7643,-1370.46,2194.08,19107.1,32.885,-661.667,55.2147,-19311.8,22362.5,-11451.9,4.56124,232.11,-349.438,19771.1,-25805.7,-3979.15,80.4386,-85.1418,254.809,-7020.02,6365.0,-109.706,-34.2231,98.6314,-141.074,13375.8,-20276.8,-1262.78,60.8041,58.3419,-45.5466,13971.5,3387.06,11787.5,18.1921,-20.2039,8.57764
3.236,88564.9,-25577.3,48415.0,28.881,-185.778,-67.7554,-1653.33,2880.71,19024.0,33.6117,-670.787,57.456,-21229.7,20665.2,-14615.6,28.1443,252.708,-347.522,20529.0,-26286.5,-4396.1,80.4722,-92.3819,252.375,-5435.74,8545.08,256.82,-19.7507,136.363,-137.538,13152.4,-20627.9,-1197.01,66.9313,72.4019,-49.7449,14050.2,3921.84,10893.0,26.0763,-10.0342,10.0689
3.237,82818.1,-31963.7,54417.9,119.554,-156.992,-75.4675,-1946.63,3814.68,18868.6,34.8879,-679.791,61.1478,-21331.1,19448.3,-15616.0,48.6514,261.777,-340.811,21174.6,-26690.4,-4768.83,81.4934,-99.9315,249.379,-3345.45,11658.6,1134.75,3.18545,163.871,-122.331,12803.8,-20828.7,-989.536,74.5102,86.5843,-53.2087,14161.7,4513.62,9153.39,33.0267,0.491709,12.6039
3.238,77071.4,-38350.1,60420.8,210.227,-128.207,-83.1796,-2239.93,4748.64,18713.2,36.164,-688.795,64.8396,-21432.5,18231.3,-16616.3,69.1586,270.847,-334.099,21820.3,-27094.4,-5141.56,82.5146,-107.481,246.384,-1255.15,14772.2,2012.69,26.1216,191.379,-107.124,12455.1,-21029.4,-782.068,82.089,100.767,-56.6726,14273.3,5105.39,7413.8,39.977,11.0176,15.1389
3.239,71324.6,-44736.4,66423.6,300.901,-99.4214,-90.8917,-2533.23,5682.61,18557.9,37.4402,-697.799,68.5314,-21533.9,17014.4,-17616.7,89.6657,279.916,-327.387,22465.9,-27498.3,-5514.29,83.5359,-115.031,243.388,835.146,17885.8,2890.62,49.0578,218.887,-91.9167,12106.5,-21230.1,-574.6,89.6678,114.949,-60.1365,14384.8,5697.17,5674.21,46.9274,21.5435,17.674
3.24,65577.9,-51122.8,72426.5,391.574,-70.6359,-98.6038,-2826.53,6616.57,18402.5,38.7164,-706.802,72.2232,-21635.3,15797.5,-18617.1,110.173,288.985,-320.676,23111.6,-27902.3,-5887.02,84.5571,-122.58,240.393,2925.44,20999.4,3768.56,71.994,246.395,-76.7095,11757.8,-21430.8,-367.131,97.2467,129.131,-63.6004,14496.4,6288.94,3934.63,53.8777,32.0694,20.209
3.241,54286.9,-44851.9,60206.8,401.784,-46.6794,-89.8789,-2791.03,7431.64,18025.8,41.0857,-717.024,75.5414,-20285.4,17130.4,-14804.4,107.533,278.324,-319.713,23566.4,-27952.2,-6184.03,84.8825,-124.745,238.149,5100.51,22892.6,3524.77,111.532,246.068,-53.6572,11203.3,-21293.9,3.98269,104.041,137.908,-65.5177,14508.8,6806.2,2452.37,60.7974,39.2403,23.0814
3.242,42995.9,-38580.9,47987.2,411.994,-22.7229,-81.154,-2755.52,8246.7,17649.1,43.455,-727.246,78.8596,-18935.5,18463.3,-10991.7,104.893,267.663,-318.75,24021.2,-28002.0,-6481.04,85.2079,-126.91,235.906,7275.58,24785.8,3280.97,151.07,245.741,-30.605,10648.8,-21157.1,375.097,110.835,146.685,-67.435,14521.3,7323.46,970.108,67.717,46.4112,25.9538
3.243,31704.8,-32310.0,35767.5,422.204,1.23367,-72.4291,-2720.02,9061.77,17272.5,45.8243,-737.468,82.1778,-17585.7,19796.3,-7178.95,102.253,257.002,-317.787,24476.0,-28051.9,-6778.05,85.5333,-129.074,233.662,9450.65,26679.0,3037.18,190.608,245.413,-7.55272,10094.3,-21020.3,746.21,117.63,155.462,-69.3524,14533.7,7840.71,-512.15,74.6367,53.5821,28.8262
3.244,20413.8,-26039.1,23547.8,432.414,25.1902,-63.7042,-2684.52,9876.83,16895.8,48.1936,-747.69,85.496,-16235.8,21129.2,-3366.23,99.6134,246.341,-316.824,24930.9,-28101.8,-7075.06,85.8587,-131.239,231.418,11625.7,28572.3,2793.39,230.147,245.086,15.4995,9539.79,-20883.4,1117.32,124.424,164.24,-71.2697,14546.2,8357.97,-1994.41,81.5563,60.753,31.6985
3.245,10449.8,-18175.1,15723.2,429.094,26.4596,-61.5125,-2466.37,10234.5,16468.1,49.7381,-758.083,86.8036,-14809.4,22988.3,26.6435,103.638,224.155,-313.126,25308.7,-27806.1,-7230.14,86.9616,-129.822,230.787,13326.8,29374.8,2070.84,267.294,235.601,28.4871,8910.23,-20592.0,1524.06,129.185,167.753,-72.4806,14701.1,8371.97,-2535.55,83.2189,59.6551,33.9216
3.246,1547.33,-9036.71,11414.6,414.95,9.57919,-64.5472,-2102.12,10226.3,15999.5,50.6228,-768.612,86.5027,-13321.7,25268.4,3083.65,112.995,192.747,-307.24,25624.9,-27234.1,-7271.66,88.6866,-125.54,231.447,14648.7,29304.9,965.277,302.528,218.79,33.4229,8220.63,-20177.0,1959.28,132.319,167.056,-73.1264,14969.9,7983.36,-2323.8,80.6759,51.9422,35.6252
3.247,-7355.13,101.677,7106.0,400.806,-7.30116,-67.5819,-1737.86,10218.1,15530.9,51.5075,-779.142,86.2018,-11834.0,27548.6,6140.66,122.352,161.34,-301.353,25941.2,-26662.0,-7313.18,90.4116,-121.259,232.107,15970.5,29235.0,-140.283,337.763,201.979,38.3588,7531.02,-19761.9,2394.51,135.454,166.359,-73.7721,15238.8,7594.76,-2112.04,78.133,44.2293,37.3288
3.248,-16257.6,9240.06,2797.39,386.663,-24.1815,-70.6166,-1373.61,10209.9,15062.3,52.3922,-789.671,85.9009,-10346.4,29828.7,9197.67,131.709,129.932,-295.467,26257.4,-26090.0,-7354.7,92.1365,-116.977,232.766,17292.4,29165.1,-1245.84,372.997,185.168,43.2946,6841.42,-19346.9,2829.74,138.588,165.661,-74.4179,15507.7,7206.15,-1900.29,75.59,36.5164,39.0324
3.249,-24324.3,17398.5,-1325.28,370.047,-43.2953,-74.4176,-942.782,10087.9,14603.9,53.256,-800.01,85.0696,-8929.36,31816.5,11742.7,140.327,99.6926,-288.515,26533.1,-25495.7,-7333.87,93.6988,-112.766,233.504,18430.0,28996.6,-2439.27,404.275,167.973,45.7435,6162.87,-18915.0,3286.0,141.339,163.93,-74.9182,15769.4,6783.21,-1707.24,71.9847,27.9602,40.8668
3.25,-25704.6,17717.1,-3960.48,333.659,-80.2767,-84.3484,20.6352,9055.83,14226.3,53.9527,-808.825,79.9959,-8077.66,31466.1,10191.5,143.027,78.7927,-273.034,26484.6,-24724.2,-6814.19,93.9593,-109.121,234.865,18093.4,28039.5,-4335.69,403.899,147.702,28.2971,5572.73,-18348.9,3910.52,141.024,153.925,-74.2549,15974.1,6085.57,-1663.82,59.881,12.6581,43.7472
3.251,-27085.0,18035.7,-6595.69,297.271,-117.258,-94.2792,984.052,8023.75,13848.6,54.6493,-817.64,74.9222,-7225.95,31115.6,8640.32,145.728,57.8929,-257.554,26436.1,-23952.6,-6294.5,94.2199,-105.477,236.226,17756.8,27082.4,-6232.1,403.522,127.432,10.8508,4982.59,-17782.7,4535.04,140.709,143.92,-73.5916,16178.7,5387.93,-1620.39,47.7774,-2.64391,46.6276
3.252,-28465.4,18354.4,-9230.89,260.883,-154.24,-104.21,1947.47,6991.67,13471.0,55.3459,-826.455,69.8485,-6374.25,30765.2,7089.15,148.429,36.9931,-242.073,26387.6,-23181.0,-5774.82,94.4804,-101.833,237.588,17420.2,26125.3,-8128.51,403.146,107.161,-6.5956,4392.46,-17216.6,5159.57,140.393,133.915,-72.9283,16383.4,4690.29,-1576.97,35.6737,-17.946,49.508
3.253,-29845.7,18673.0,-11866.1,224.495,-191.221,-114.141,2910.89,5959.59,13093.4,56.0426,-835.269,64.7748,-5522.54,30414.8,5537.98,151.13,16.0932,-226.593,26339.1,-22409.4,-5255.14,94.741,-98.1881,238.949,17083.6,25168.1,-10024.9,402.77,86.8908,-24.042,3802.32,-16650.5,5784.09,140.078,123.909,-72.265,16588.1,3992.65,-1533.55,23.5701,-33.248,52.3885
3.254,-25950.0,16760.2,-11695.8,202.32,-205.638,-119.787,4078.32,4862.33,12966.1,61.4366,-841.72,58.145,-5195.16,28220.4,2478.7,136.378,15.5432,-217.001,26151.1,-21628.9,-4677.34,96.5518,-96.3523,238.122,15582.4,24679.2,-11337.2,375.82,70.7362,-39.3539,3318.6,-16114.0,6196.26,138.408,110.366,-71.0307,16579.2,3286.31,-1831.13,16.0448,-44.7424,53.6229
3.255,-19416.2,13731.7,-10122.7,187.253,-208.774,-123.292,5347.77,3732.49,12963.9,69.1794,-846.988,50.7372,-5129.95,25104.1,-1334.63,112.9,25.1679,-210.355,25893.3,-20843.8,-4070.48,99.1378,-95.4208,236.202,13499.0,24424.5,-12357.4,335.583,56.6396,-53.5986,2888.1,-15592.4,6502.25,136.06,95.0524,-69.5108,16463.5,2575.62,-2299.23,10.8088,-54.3329,54.0343
3.256,-12882.4,10703.3,-8549.57,172.185,-211.909,-126.796,6617.22,2602.64,12961.7,76.9221,-852.256,43.3294,-5064.73,21987.7,-5147.96,89.421,34.7927,-203.708,25635.5,-20058.8,-3463.62,101.724,-94.4893,234.281,11415.5,24169.7,-13377.6,295.346,42.5429,-67.8433,2457.6,-15070.8,6808.25,133.712,79.7392,-67.991,16347.8,1864.92,-2767.32,5.57274,-63.9234,54.4458
3.257,-6348.59,7674.8,-6976.48,157.117,-215.044,-130.301,7886.66,1472.79,12959.6,84.6649,-857.525,35.9215,-4999.51,18871.4,-8961.3,65.9425,44.4175,-197.061,25377.7,-19273.7,-2856.77,104.31,-93.5577,232.361,9332.09,23914.9,-14397.9,255.109,28.4463,-82.0881,2027.09,-14549.1,7114.24,131.364,64.4261,-66.4711,16232.1,1154.23,-3235.42,0.336681,-73.5139,54.8572
3.258,241.841,5037.46,-4795.38,150.996,-208.889,-133.321,9178.9,679.094,13267.6,93.8335,-861.917,30.0495,-4989.6,15687.4,-12264.9,40.0127,56.6057,-194.307,25046.1,-18433.4,-2415.56,105.99,-93.1448,230.37,7055.83,23614.1,-15305.9,213.628,17.4425,-93.2858,1594.63,-14064.8,7317.62,128.637,49.0393,-64.9545,16124.1,443.509,-3629.88,-2.80259,-81.0534,54.9403
3.259,7030.47,3769.13,-486.255,176.186,-170.22,-134.649,10550.9,1061.9,14661.4,107.992,-863.247,29.5527,-5173.26,12266.8,-13784.4,5.50303,77.7659,-205.179,24456.0,-17399.9,-2554.11,104.502,-94.547,228.135,4104.73,23152.4,-15821.2,167.792,17.2637,-93.8193,1155.32,-13711.1,7161.81,124.586,33.3948,-63.4493,16043.0,-267.283,-3766.61,1.39687,-81.4142,53.8743
3.26,13819.1,2500.79,3822.87,201.377,-131.55,-135.977,11922.9,1444.71,16055.2,122.151,-864.576,29.0559,-5356.92,8846.12,-15304.0,-29.0066,98.9262,-216.05,23865.9,-16366.4,-2692.67,103.014,-95.9491,225.901,1153.63,22690.6,-16336.5,121.957,17.0849,-94.3528,716.0,-13357.3,7006.01,120.535,17.7504,-61.9441,15961.9,-978.074,-3903.34,5.59634,-81.775,52.8082
3.261,20607.7,1232.45,8131.99,226.568,-92.8802,-137.305,13294.9,1827.52,17449.1,136.31,-865.906,28.559,-5540.58,5425.45,-16823.5,-63.5162,120.086,-226.922,23275.8,-15332.9,-2831.23,101.527,-97.3513,223.666,-1797.47,22228.8,-16851.8,76.1209,16.9061,-94.8863,276.683,-13003.6,6850.2,116.483,2.10595,-60.4389,15880.8,-1688.86,-4040.08,9.7958,-82.1358,51.7422
3.262,27396.4,-35.893,12441.1,251.759,-54.2105,-138.633,14666.9,2210.33,18842.9,150.469,-867.235,28.0622,-5724.23,2004.78,-18343.0,-98.0259,141.247,-237.794,22685.7,-14299.4,-2969.78,100.039,-98.7534,221.431,-4748.58,21767.1,-17367.1,30.2852,16.7273,-95.4198,-162.633,-12649.8,6694.4,112.432,-13.5385,-58.9337,15799.8,-2399.66,-4176.81,13.9953,-82.4967,50.6762
3.263,30066.2,-359.069,13639.6,257.535,-31.9446,-137.133,16376.8,4145.23,18695.3,162.814,-860.027,36.5195,-6176.93,157.333,-16932.8,-116.203,153.877,-248.301,21955.1,-13323.5,-3392.63,96.87,-100.991,221.301,-7691.75,20308.9,-17597.9,-5.23396,26.4612,-94.9433,-714.79,-12417.2,6383.0,107.191,-27.0323,-58.1715,15909.4,-3140.41,-3965.23,20.3149,-79.2576,49.9164
3.264,31559.3,-412.198,13949.2,257.765,-14.3655,-134.823,18183.4,6523.57,18107.2,174.641,-850.379,47.5352,-6706.48,-1240.63,-14685.5,-129.714,164.071,-258.705,21184.3,-12364.2,-3896.69,93.221,-103.468,221.772,-10632.7,18566.1,-17747.4,-37.8055,39.0274,-94.1781,-1299.19,-12219.1,6027.15,101.61,-39.9117,-57.6215,16073.6,-3889.72,-3654.14,27.2404,-74.9901,49.2442
3.265,33052.3,-465.327,14258.9,257.995,3.21357,-132.514,19989.9,8901.92,17519.1,186.468,-840.731,58.5508,-7236.04,-2638.59,-12438.2,-143.225,174.265,-269.108,20413.5,-11404.8,-4400.76,89.5721,-105.944,222.243,-13573.6,16823.3,-17896.9,-70.377,51.5936,-93.413,-1883.58,-12021.0,5671.29,96.0297,-52.791,-57.0715,16237.8,-4639.04,-3343.04,34.1658,-70.7225,48.572
3.266,34545.4,-518.456,14568.6,258.225,20.7926,-130.205,21796.4,11280.3,16931.1,198.295,-831.083,69.5664,-7765.6,-4036.55,-10190.9,-156.736,184.459,-279.511,19642.8,-10445.5,-4904.83,85.9232,-108.42,222.714,-16514.5,15080.5,-18046.4,-102.949,64.1598,-92.6478,-2467.98,-11822.9,5315.44,90.4489,-65.6704,-56.5215,16402.0,-5388.35,-3031.95,41.0912,-66.4549,47.8997
3.267,34498.5,-658.827,14335.5,251.109,34.0479,-126.302,23617.7,13935.2,16385.1,201.404,-816.993,80.7761,-8327.15,-4777.95,-7483.38,-159.354,186.507,-282.915,18774.9,-9683.75,-5714.24,81.042,-106.35,224.478,-19266.4,13173.8,-18062.6,-130.037,77.5264,-93.3343,-3084.29,-11665.3,4849.07,84.9244,-76.6915,-56.5226,16558.5,-6137.34,-2565.11,46.5784,-62.436,47.7774
3.268,31371.7,-973.68,13016.7,229.299,38.6555,-119.213,25468.4,17143.4,15923.3,187.076,-794.018,92.374,-8952.67,-4206.24,-3855.26,-140.189,172.262,-272.318,17712.7,-9317.24,-7134.34,73.6964,-95.1877,228.828,-21640.6,10939.1,-17812.3,-146.158,92.4937,-96.9241,-3764.45,-11588.8,4161.65,79.5121,-83.996,-57.6259,16699.3,-6885.69,-1786.79,49.1892,-58.9145,48.7547
3.269,28244.8,-1288.53,11697.9,207.489,43.263,-112.123,27319.1,20351.6,15461.5,172.748,-771.044,103.972,-9578.2,-3634.54,-227.152,-121.023,158.018,-261.721,16650.5,-8950.73,-8554.44,66.3507,-84.0249,233.179,-24014.7,8704.37,-17562.0,-162.279,107.461,-100.514,-4444.6,-11512.3,3474.23,74.0998,-91.3005,-58.7292,16840.2,-7634.03,-1008.47,51.7999,-55.3929,49.7321
3.27,25118.0,-1603.39,10379.1,185.679,47.8706,-105.033,29169.8,23559.8,14999.7,158.421,-748.07,115.57,-10203.7,-3062.83,3400.96,-101.857,143.774,-251.125,15588.3,-8584.22,-9974.54,59.005,-72.8622,237.529,-26388.8,6469.67,-17311.6,-178.401,122.428,-104.104,-5124.75,-11435.8,2786.82,68.6875,-98.605,-59.8326,16981.1,-8382.38,-230.148,54.4107,-51.8713,50.7095
3.271,21991.2,-1918.24,9060.29,163.869,52.4782,-97.9428,31020.5,26767.9,14537.9,144.093,-725.095,127.168,-10829.2,-2491.12,7029.07,-82.6917,129.53,-240.528,14526.2,-8217.71,-11394.6,51.6594,-61.6994,241.88,-28762.9,4234.97,-17061.3,-194.522,137.396,-107.693,-5804.9,-11359.3,2099.4,63.2752,-105.91,-60.9359,17122.0,-9130.72,548.172,57.0215,-48.3498,51.6868
3.272,19431.5,-3273.76,10672.4,156.764,45.3864,-89.5114,32830.7,29251.1,15272.1,107.22,-695.003,132.219,-11337.2,-2016.88,8594.16,-59.1675,103.418,-219.773,12937.5,-8338.42,-13254.9,39.4628,-37.584,248.986,-30084.3,2572.19,-16193.7,-189.816,150.218,-110.348,-6432.78,-11422.1,1372.55,59.275,-107.741,-63.5268,17150.5,-9589.78,1297.87,58.1614,-46.3807,53.0478
3.273,16942.7,-4759.35,12650.9,151.498,36.8321,-80.9124,34635.9,31643.7,16155.8,67.5296,-664.021,136.452,-11830.5,-1554.82,9901.38,-35.0984,75.8219,-197.749,11283.1,-8520.04,-15170.2,26.6599,-11.8495,256.438,-31274.1,980.909,-15248.9,-182.507,162.773,-112.885,-7054.11,-11502.3,640.77,55.4512,-108.889,-66.3036,17165.0,-10012.7,2043.99,59.1174,-44.6057,54.4567
3.274,14453.9,-6244.96,14629.4,146.231,28.2778,-72.3133,36441.1,34036.3,17039.5,27.8388,-633.039,140.686,-12323.8,-1092.76,11208.6,-11.0294,48.2261,-175.724,9628.6,-8701.66,-17085.5,13.8569,13.885,263.889,-32463.9,-610.376,-14304.2,-175.198,175.328,-115.422,-7675.45,-11582.5,-91.0095,51.6275,-110.037,-69.0804,17179.5,-10435.6,2790.11,60.0735,-42.8308,55.8656
3.275,11965.0,-7730.56,16608.0,140.964,19.7236,-63.7143,38246.2,36428.9,17923.2,-11.8519,-602.057,144.919,-12817.0,-630.702,12515.8,13.0397,20.6304,-153.699,7974.15,-8883.28,-19000.8,1.05402,39.6195,271.341,-33653.7,-2201.66,-13359.4,-167.889,187.882,-117.96,-8296.79,-11662.8,-822.789,47.8037,-111.185,-71.8573,17193.9,-10858.5,3536.23,61.0295,-41.0558,57.2745
3.276,10586.5,-8391.5,17261.5,136.783,12.8504,-55.1936,39807.2,37415.3,18799.5,-53.3549,-570.179,148.088,-13044.8,-470.274,12599.4,33.8035,-2.51893,-136.289,6112.92,-9436.45,-20316.9,-9.19686,64.3539,277.094,-34353.4,-3432.61,-12282.4,-149.536,197.744,-118.771,-8824.61,-11794.9,-1471.75,44.4583,-110.507,-75.2983,17128.8,-11056.5,4201.03,62.92,-39.5241,58.754
3.277,10595.9,-8021.61,16258.7,133.96,8.07861,-46.7709,41063.0,36644.1,19666.6,-97.1234,-537.182,149.927,-12940.8,-686.885,11153.5,50.4357,-20.1102,-124.646,3993.22,-10454.1,-20884.1,-16.2577,87.8384,280.727,-34440.4,-4213.15,-11040.0,-117.378,204.239,-117.423,-9235.54,-11991.9,-2017.18,41.7107,-107.547,-79.5696,16964.2,-10973.4,4764.17,65.9785,-38.2965,60.3218
3.278,10605.3,-7651.72,15256.0,131.137,3.30681,-38.3482,42318.8,35872.8,20533.8,-140.892,-504.185,151.766,-12836.8,-903.495,9707.54,67.068,-37.7015,-113.003,1873.52,-11471.7,-21451.3,-23.3185,111.323,284.359,-34527.4,-4993.68,-9797.62,-85.2193,210.735,-116.076,-9646.47,-12188.9,-2562.62,38.9631,-104.587,-83.8409,16799.6,-10890.4,5327.31,69.0369,-37.0689,61.8896
3.279,10614.6,-7281.83,14253.3,128.314,-1.46498,-29.9256,43574.6,35101.6,21400.9,-184.66,-471.187,153.605,-12732.8,-1120.11,8261.61,83.7003,-55.2928,-101.359,-246.172,-12489.3,-22018.5,-30.3794,134.807,287.991,-34614.5,-5774.21,-8555.25,-53.0608,217.23,-114.729,-10057.4,-12385.8,-3108.05,36.2155,-101.627,-88.1121,16635.0,-10807.3,5890.46,72.0954,-35.8413,63.4575
3.28,10624.0,-6911.94,13250.6,125.49,-6.23678,-21.5029,44830.3,34330.4,22268.0,-228.429,-438.19,155.444,-12628.8,-1336.72,6815.68,100.333,-72.884,-89.7164,-2365.87,-13506.9,-22585.7,-37.4402,158.292,291.623,-34701.5,-6554.74,-7312.89,-20.9024,223.725,-113.382,-10468.3,-12582.8,-3653.49,33.4679,-98.6672,-92.3834,16470.4,-10724.2,6453.6,75.1539,-34.6137,65.0253
3.281,10581.6,-5030.63,12455.0,122.127,-7.70081,-14.3309,44142.3,30101.2,23402.2,-254.432,-406.801,157.78,-12721.5,-1319.4,5131.1,105.228,-66.7877,-88.0458,-4448.43,-15009.4,-21553.4,-35.2573,166.36,289.406,-33961.9,-6460.31,-6727.72,5.36129,217.848,-111.336,-10629.3,-12873.8,-4008.43,30.4876,-94.2035,-98.3113,16133.8,-10327.9,6518.87,78.3174,-31.7249,66.0212
3.282,10539.1,-3149.32,11659.5,118.764,-9.16483,-7.15902,43454.3,25872.0,24536.4,-280.435,-375.412,160.116,-12814.3,-1302.08,3446.52,110.123,-60.6913,-86.3753,-6530.99,-16511.9,-20521.2,-33.0744,174.428,287.189,-33222.3,-6365.87,-6142.56,31.625,211.972,-109.29,-10790.3,-13164.8,-4363.37,27.5073,-89.7399,-104.239,15797.2,-9931.52,6584.13,81.4809,-28.8362,67.0172
3.283,10496.6,-1268.01,10864.0,115.401,-10.6289,0.0129048,42766.2,21642.8,25670.6,-306.438,-344.023,162.452,-12907.0,-1284.77,1761.94,115.018,-54.5949,-84.7047,-8613.55,-18014.4,-19489.0,-30.8915,182.495,284.972,-32482.7,-6271.43,-5557.39,57.8887,206.095,-107.245,-10951.3,-13455.8,-4718.31,24.527,-85.2762,-110.167,15460.7,-9535.18,6649.39,84.6443,-25.9475,68.0132
3.284,10454.2,613.301,10068.5,112.038,-12.0929,7.18483,42078.2,17413.6,26804.8,-332.44,-312.634,164.789,-12999.7,-1267.45,77.3603,119.913,-48.4986,-83.0342,-10696.1,-19516.9,-18456.8,-28.7086,190.563,282.755,-31743.0,-6176.99,-4972.23,84.1524,200.219,-105.199,-11112.3,-13746.7,-5073.25,21.5467,-80.8125,-116.095,15124.1,-9138.84,6714.65,87.8078,-23.0587,69.0092
3.285,10168.7,2029.31,9469.48,107.943,-11.5458,11.9869,40691.5,13518.5,28291.3,-342.606,-284.428,163.77,-13133.8,-1108.8,-686.738,117.042,-38.144,-84.0651,-12379.0,-20715.9,-17053.7,-23.0345,190.718,279.846,-30622.4,-5542.14,-4622.79,99.9696,191.494,-103.2,-11151.5,-14135.4,-5315.05,18.3044,-76.608,-122.909,14843.0,-8639.2,6574.38,88.9321,-19.1008,70.4113
3.286,9688.7,3073.09,9027.73,103.262,-9.38981,14.8932,38745.8,9890.65,30059.7,-340.102,-258.769,160.067,-13301.1,-837.085,-714.452,107.958,-24.3828,-87.2573,-13742.0,-21672.2,-15353.9,-14.5676,184.542,276.383,-29196.9,-4474.95,-4461.92,107.43,180.492,-101.239,-11093.2,-14602.2,-5466.34,14.8527,-72.611,-130.431,14606.3,-8056.92,6269.69,88.4249,-14.2874,72.1383
3.287,9208.74,4116.86,8585.99,98.5813,-7.23383,17.7994,36800.2,6262.84,31828.0,-337.598,-233.11,156.365,-13468.4,-565.369,-742.165,98.8746,-10.6216,-90.4494,-15105.1,-22628.5,-13654.2,-6.10073,178.366,272.92,-27771.4,-3407.76,-4301.05,114.89,169.489,-99.2775,-11034.9,-15069.0,-5617.63,11.4009,-68.6139,-137.953,14369.6,-7474.64,5965.0,87.9177,-9.47412,73.8654
3.288,8728.78,5160.63,8144.24,93.9007,-5.07784,20.7057,34854.6,2635.03,33596.3,-335.095,-207.451,152.662,-13635.6,-293.653,-769.879,89.7908,3.13957,-93.6415,-16468.2,-23584.8,-11954.4,2.36618,172.189,269.456,-26346.0,-2340.56,-4140.18,122.35,158.486,-97.3162,-10976.7,-15535.8,-5768.92,7.94915,-64.6168,-145.476,14132.9,-6892.35,5660.3,87.4105,-4.66079,75.5924
3.289,8277.12,6113.65,7768.35,89.1189,-2.80089,23.061,32931.3,-624.92,35211.5,-330.595,-182.592,148.314,-13748.1,26.436,-711.448,81.1039,15.3982,-96.7709,-17687.5,-24463.5,-10264.6,10.945,165.521,266.018,-24869.8,-1279.42,-4013.55,128.103,147.729,-95.4893,-10905.6,-16024.2,-5892.34,4.63441,-60.8296,-153.122,13911.7,-6320.48,5338.46,86.5935,0.0306115,77.4041
3.29,8051.79,6340.63,7919.33,83.5282,0.443787,21.0086,31186.7,-942.044,35602.0,-310.134,-164.14,138.798,-13422.5,733.503,36.1397,75.5918,15.6368,-99.3976,-17756.7,-24721.2,-8654.38,20.4195,154.914,262.779,-22988.0,-266.676,-4160.9,120.194,138.932,-94.7381,-10731.9,-16685.7,-5792.81,2.41589,-58.721,-161.759,13814.2,-5831.87,4879.47,83.2971,3.74666,79.8928
3.291,7826.46,6567.61,8070.3,77.9375,3.68846,18.9562,29442.1,-1259.17,35992.6,-289.673,-145.688,129.282,-13096.8,1440.57,783.727,70.0797,15.8753,-102.024,-17826.0,-24979.0,-7044.16,29.894,144.307,259.54,-21106.2,746.069,-4308.26,112.285,130.136,-93.987,-10558.2,-17347.3,-5693.29,0.197368,-56.6125,-170.397,13716.6,-5343.27,4420.47,80.0008,7.46271,82.3815
3.292,7601.14,6794.58,8221.27,72.3469,6.93314,16.9038,27697.5,-1576.29,36383.1,-269.212,-127.236,119.767,-12771.1,2147.64,1531.31,64.5677,16.1138,-104.651,-17895.2,-25236.7,-5433.95,39.3685,133.7,256.301,-19224.4,1758.81,-4455.61,104.376,121.339,-93.2359,-10384.5,-18008.8,-5593.76,-2.02115,-54.5039,-179.034,13619.1,-4854.66,3961.47,76.7045,11.1788,84.8702
3.293,7375.81,7021.56,8372.25,66.7562,10.1778,14.8515,25952.9,-1893.42,36773.6,-248.751,-108.783,110.251,-12445.5,2854.7,2278.9,59.0556,16.3523,-107.278,-17964.4,-25494.5,-3823.73,48.843,123.094,253.061,-17342.6,2771.56,-4602.96,96.4676,112.543,-92.4847,-10210.8,-18670.3,-5494.23,-4.23968,-52.3953,-187.672,13521.6,-4366.05,3502.48,73.4082,14.8948,87.359
3.294,7299.28,6943.18,8596.51,61.3232,13.2577,12.0956,24469.1,-1511.87,36518.2,-230.391,-91.7808,100.52,-12162.8,3758.81,2669.68,59.9509,10.1061,-106.324,-17076.4,-25596.4,-2489.59,56.401,111.311,246.719,-15527.8,3450.87,-4862.16,83.5377,104.42,-92.1865,-10054.5,-19379.8,-5241.23,-4.35416,-52.1287,-196.0,13405.5,-4075.71,3076.77,71.9453,16.8388,88.5864
3.295,7297.15,6712.13,8857.42,55.9689,16.2553,8.98798,23115.8,-780.98,35939.9,-213.081,-75.5031,90.6815,-11901.7,4761.44,2882.05,64.0498,0.617579,-103.58,-15709.7,-25620.4,-1293.47,63.0006,98.9413,238.824,-13746.5,3963.47,-5177.29,68.0971,96.6342,-92.1148,-9906.95,-20113.3,-4911.5,-3.41662,-52.7831,-204.173,13280.2,-3884.5,2667.72,71.3992,17.8968,89.1832
3.296,7295.03,6481.07,9118.33,50.6147,19.2528,5.88035,21762.5,-50.0926,35361.6,-195.772,-59.2255,80.843,-11640.6,5764.07,3094.41,68.1487,-8.87099,-100.836,-14343.0,-25644.3,-97.361,69.6003,86.5714,230.93,-11965.1,4476.06,-5492.42,52.6566,88.8484,-92.0432,-9759.38,-20846.7,-4581.76,-2.47908,-53.4375,-212.346,13154.9,-3693.29,2258.66,70.8531,18.9548,89.7799
3.297,7292.9,6250.01,9379.24,45.2605,22.2504,2.77273,20409.2,680.795,34783.3,-178.462,-42.9479,71.0045,-11379.4,6766.7,3306.78,72.2476,-18.3596,-98.0923,-12976.4,-25668.3,1098.75,76.1999,74.2014,223.035,-10183.8,4988.66,-5807.55,37.2161,81.0626,-91.9715,-9611.82,-21580.2,-4252.03,-1.54153,-54.0918,-220.519,13029.6,-3502.08,1849.6,70.307,20.0128,90.3767
3.298,7377.41,5973.76,9604.08,40.3228,25.3752,-0.110363,19121.8,1125.33,34241.0,-160.936,-26.859,61.7255,-11170.0,7715.86,3396.16,75.7896,-26.8986,-94.8121,-11404.4,-25648.5,2167.85,81.9641,61.8079,213.201,-8544.08,5412.7,-6099.7,22.3057,73.2669,-92.0359,-9480.35,-22300.6,-3925.87,0.135557,-55.3308,-228.158,12923.4,-3303.79,1540.66,70.3004,20.2988,90.7484
3.299,7765.18,5539.31,9702.67,36.8433,28.9456,-2.20762,18065.1,567.616,33825.1,-142.652,-11.431,54.4046,-11141.7,8477.87,3055.09,77.3824,-32.1146,-89.6553,-9114.26,-25475.1,2792.43,84.8041,49.3316,196.576,-7399.81,5526.8,-6311.43,9.25076,65.4365,-92.5766,-9405.24,-22975.4,-3612.23,4.40108,-58.616,-233.928,12884.2,-3080.7,1582.11,72.1822,17.883,90.3324
3.3,8152.95,5104.87,9801.26,33.3637,32.516,-4.30487,17008.3,9.9048,33409.1,-124.368,3.99703,47.0838,-11113.3,9239.88,2714.01,78.9753,-37.3305,-84.4985,-6824.07,-25301.6,3417.0,87.6441,36.8554,179.951,-6255.54,5640.89,-6523.15,-3.80414,57.6061,-93.1174,-9330.14,-23650.2,-3298.59,8.6666,-61.9011,-239.697,12844.9,-2857.61,1623.56,74.0639,15.4672,89.9163
3.301,8540.72,4670.42,9899.85,29.8842,36.0864,-6.40212,15951.6,-547.806,32993.1,-106.084,19.4251,39.7629,-11085.0,10001.9,2372.94,80.5681,-42.5464,-79.3416,-4533.88,-25128.2,4041.57,90.4841,24.3792,163.327,-5111.27,5754.99,-6734.88,-16.859,49.7757,-93.6581,-9255.03,-24325.0,-2984.96,12.9321,-65.1863,-245.467,12805.7,-2634.52,1665.01,75.9457,13.0514,89.5003
3.302,8928.49,4235.97,9998.44,26.4046,39.6568,-8.49937,14894.9,-1105.52,32577.1,-87.7998,34.8531,32.4421,-11056.6,10763.9,2031.86,82.161,-47.7623,-74.1848,-2243.69,-24954.8,4666.14,93.3242,11.903,146.702,-3967.0,5869.09,-6946.61,-29.9139,41.9453,-94.1989,-9179.92,-24999.9,-2671.32,17.1976,-68.4714,-251.236,12766.4,-2411.43,1706.46,77.8275,10.6355,89.0843
3.303,8752.39,3370.01,10140.1,24.0881,40.1441,-9.63739,13656.7,-1812.07,32204.6,-66.0505,47.4659,26.2098,-10780.0,11530.7,1530.76,80.4372,-46.4445,-69.834,286.911,-24195.1,4478.41,89.7598,2.88083,128.634,-3549.02,5758.11,-6934.83,-34.5313,33.8017,-96.2444,-9205.56,-25515.5,-2460.46,22.765,-72.6637,-254.109,12896.4,-2185.59,1917.46,78.5112,6.6207,88.7772
3.304,8415.17,2380.76,10294.0,22.1039,39.7506,-10.5013,12366.7,-2561.16,31844.5,-43.3111,59.2745,20.2885,-10432.5,12298.9,983.943,77.7658,-43.2599,-65.7135,2886.2,-23267.9,4058.58,84.3655,-5.1544,110.153,-3338.55,5582.81,-6859.2,-36.7381,25.5686,-98.7198,-9259.99,-25985.6,-2278.96,28.7044,-77.1152,-256.155,13074.7,-1958.97,2176.9,78.8525,2.14899,88.5013
3.305,8077.96,1391.51,10447.9,20.1197,39.3571,-11.3653,11076.7,-3310.24,31484.3,-20.5717,71.083,14.3672,-10085.0,13067.1,437.122,75.0944,-40.0753,-61.593,5485.49,-22340.7,3638.76,78.9713,-13.1896,91.6719,-3128.08,5407.52,-6783.56,-38.9448,17.3355,-101.195,-9314.41,-26455.7,-2097.46,34.6437,-81.5666,-258.201,13253.0,-1732.35,2436.35,79.1938,-2.32273,88.2253
3.306,7740.75,402.264,10601.8,18.1355,38.9635,-12.2292,9786.69,-4059.33,31124.2,2.16769,82.8915,8.44592,-9737.43,13835.3,-109.699,72.423,-36.8906,-57.4724,8084.79,-21413.5,3218.93,73.5771,-21.2249,73.191,-2917.62,5232.23,-6707.92,-41.1515,9.10243,-103.671,-9368.84,-26925.8,-1915.96,40.5831,-86.0181,-260.246,13431.3,-1505.72,2695.79,79.5351,-6.79444,87.9494
3.307,7191.05,-631.619,10615.4,17.0631,38.0993,-12.4224,8469.07,-4372.98,30594.9,23.8887,92.9715,3.17065,-9234.58,14591.5,-611.003,70.5489,-33.821,-52.9118,10417.9,-20283.8,2505.62,66.8499,-26.9625,56.7506,-2952.15,5102.28,-6631.0,-39.9549,1.12162,-106.834,-9497.91,-27299.9,-1762.84,46.4597,-90.3769,-260.759,13647.3,-1310.29,2903.84,79.5364,-10.7679,87.4622
3.308,6216.37,-1754.77,10348.4,17.8144,36.2937,-11.2742,7096.22,-3815.76,29727.4,43.5729,99.5945,-0.812583,-8421.11,15323.6,-1021.27,70.2695,-30.9814,-47.4709,12218.8,-18749.2,1205.34,57.4567,-28.105,44.391,-3476.68,5062.99,-6551.5,-31.9519,-6.35462,-111.373,-9776.27,-27482.0,-1666.51,52.2108,-94.5504,-258.205,13938.8,-1177.23,3009.1,78.8576,-13.7447,86.5524
3.309,5241.7,-2877.92,10081.4,18.5657,34.488,-10.1259,5723.38,-3258.54,28859.8,63.2572,106.217,-4.79582,-7607.63,16055.8,-1431.54,69.9901,-28.1417,-42.03,14019.7,-17214.6,-94.9407,48.0636,-29.2475,32.0315,-4001.21,5023.71,-6472.0,-23.9488,-13.8309,-115.911,-10054.6,-27664.1,-1570.17,57.962,-98.7238,-255.652,14230.3,-1044.16,3114.36,78.1788,-16.7216,85.6426
3.31,4267.02,-4001.07,9814.36,19.317,32.6824,-8.97769,4350.53,-2701.33,27992.2,82.9414,112.84,-8.77905,-6794.15,16788.0,-1841.81,69.7107,-25.3021,-36.5891,15820.6,-15680.0,-1395.22,38.6704,-30.39,19.672,-4525.74,4984.42,-6392.5,-15.9458,-21.3071,-120.45,-10333.0,-27846.2,-1473.83,63.7131,-102.897,-253.098,14521.9,-911.102,3219.63,77.5,-19.6985,84.7328
3.311,3292.35,-5124.22,9547.36,20.0682,30.8767,-7.82944,2977.69,-2144.11,27124.6,102.626,119.463,-12.7623,-5980.67,17520.1,-2252.08,69.4313,-22.4624,-31.1482,17621.4,-14145.4,-2695.5,29.2772,-31.5325,7.31244,-5050.27,4945.13,-6313.0,-7.94275,-28.7833,-124.989,-10611.4,-28028.2,-1377.49,69.4642,-107.071,-250.545,14813.4,-778.04,3324.89,76.8212,-22.6754,83.823
3.312,3050.46,-5542.87,9416.41,21.9106,29.5408,-6.23134,2093.89,-829.297,26142.7,113.857,123.515,-15.1231,-5095.64,17700.0,-2733.94,64.5403,-19.7467,-27.5195,18482.1,-12698.3,-3884.37,19.3098,-27.9159,1.94114,-5785.51,5353.48,-6345.99,2.90597,-33.4548,-129.999,-11022.7,-28024.0,-1349.06,73.9384,-109.973,-244.104,15209.7,-686.377,3272.89,75.6795,-22.4825,82.6515
3.313,2900.18,-5873.46,9302.46,23.8893,28.2636,-4.57701,1271.23,580.214,25146.5,124.032,127.244,-17.281,-4201.65,17810.8,-3224.74,59.0728,-17.0466,-24.1173,19225.1,-11262.1,-5059.32,9.27052,-23.7044,-2.55664,-6547.08,5817.78,-6393.03,14.1104,-37.7756,-135.068,-11450.6,-27996.5,-1329.13,78.253,-112.717,-237.177,15619.1,-599.889,3201.24,74.4798,-21.8934,81.4474
3.314,2749.9,-6204.05,9188.51,25.868,26.9864,-2.92268,448.566,1989.72,24150.4,134.207,130.974,-19.439,-3307.67,17921.6,-3715.55,53.6054,-14.3464,-20.7151,19968.2,-9826.02,-6234.27,-0.768741,-19.4929,-7.05441,-7308.65,6282.07,-6440.07,25.3148,-42.0965,-140.137,-11878.6,-27969.0,-1309.19,82.5677,-115.461,-230.25,16028.6,-513.401,3129.58,73.2802,-21.3043,80.2433
3.315,2599.61,-6534.64,9074.56,27.8468,25.7093,-1.26835,-374.098,3399.24,23154.2,144.382,134.704,-21.597,-2413.69,18032.4,-4206.36,48.138,-11.6462,-17.313,20711.3,-8389.89,-7409.22,-10.808,-15.2814,-11.5522,-8070.22,6746.37,-6487.11,36.5193,-46.4173,-145.207,-12306.5,-27941.6,-1289.25,86.8823,-118.204,-223.324,16438.0,-426.913,3057.92,72.0806,-20.7151,79.0392
3.316,2713.43,-6380.1,9071.06,28.9344,24.5433,0.00666762,-912.042,4691.07,22237.2,150.116,138.017,-23.2893,-1634.01,17903.4,-4564.2,39.8241,-9.2181,-16.8467,21000.2,-7271.86,-8266.8,-19.1822,-11.3156,-14.8865,-8768.36,7443.78,-6554.73,46.0392,-48.6896,-149.61,-12724.5,-27813.8,-1303.33,90.4823,-119.796,-214.989,16809.6,-293.397,2909.53,70.8427,-19.0134,77.8178
3.317,3157.36,-5619.15,9205.63,28.9081,23.5165,0.807554,-1094.09,5835.82,21419.2,150.298,140.808,-24.3997,-997.209,17474.7,-4755.84,27.9521,-7.1301,-20.0504,20721.5,-6551.46,-8727.68,-25.475,-7.65684,-16.7665,-9387.22,8432.56,-6648.05,53.4534,-48.4013,-153.182,-13130.1,-27560.6,-1359.95,93.1892,-119.946,-204.894,17133.9,-101.097,2665.23,69.557,-15.921,76.5749
3.318,3601.3,-4858.19,9340.19,28.8818,22.4897,1.60844,-1276.13,6980.56,20601.3,150.479,143.6,-25.5101,-360.406,17045.9,-4947.48,16.0802,-5.0421,-23.2541,20442.8,-5831.06,-9188.56,-31.7679,-3.9981,-18.6465,-10006.1,9421.35,-6741.38,60.8677,-48.113,-156.754,-13535.6,-27307.5,-1416.57,95.8961,-120.097,-194.8,17458.1,91.2024,2420.92,68.2713,-12.8285,75.332
3.319,4045.24,-4097.24,9474.76,28.8555,21.4629,2.40933,-1458.18,8125.31,19783.3,150.661,146.392,-26.6205,276.398,16617.2,-5139.12,4.20821,-2.9541,-26.4578,20164.2,-5110.66,-9649.44,-38.0607,-0.33935,-20.5265,-10624.9,10410.1,-6834.7,68.282,-47.8247,-160.326,-13941.1,-27054.3,-1473.19,98.603,-120.248,-184.705,17782.4,283.502,2176.61,66.9855,-9.73601,74.0891
3.32,4489.18,-3336.28,9609.33,28.8292,20.4361,3.21021,-1640.22,9270.05,18965.3,150.843,149.184,-27.7309,913.201,16188.4,-5330.76,-7.66375,-0.8661,-29.6615,19885.5,-4390.26,-10110.3,-44.3536,3.3194,-22.4065,-11243.8,11398.9,-6928.03,75.6962,-47.5364,-163.898,-14346.7,-26801.2,-1529.81,101.31,-120.399,-174.61,18106.7,475.802,1932.3,65.6998,-6.64353,72.8461
3.321,4649.47,-2550.57,9693.42,27.041,19.6402,2.74619,-1536.86,9818.75,18393.8,145.091,151.799,-27.7017,1107.65,15738.7,-4816.96,-16.1548,-1.38777,-37.0228,18995.3,-4259.22,-10246.4,-45.6024,4.57465,-24.884,-11609.6,12661.1,-7060.9,77.9158,-43.3766,-164.555,-14626.8,-26408.8,-1596.68,102.691,-117.437,-164.543,18192.1,589.403,1688.68,63.5783,-2.97643,71.2116
3.322,4809.77,-1764.86,9777.52,25.2527,18.8443,2.28217,-1433.49,10367.5,17822.4,139.34,154.414,-27.6724,1302.09,15289.0,-4303.17,-24.6458,-1.90944,-44.3841,18105.2,-4128.18,-10382.6,-46.8513,5.82991,-27.3614,-11975.3,13923.3,-7193.78,80.1353,-39.2168,-165.213,-14907.0,-26016.5,-1663.56,104.073,-114.475,-154.475,18277.5,703.003,1445.05,61.4568,0.690682,69.5771
3.323,4970.06,-979.155,9861.61,23.4645,18.0483,1.81815,-1330.13,10916.2,17250.9,133.589,157.029,-27.6432,1496.54,14839.3,-3789.37,-33.1368,-2.43111,-51.7454,17215.0,-3997.13,-10518.7,-48.1002,7.08517,-29.8389,-12341.1,15185.5,-7326.65,82.3548,-35.057,-165.87,-15187.2,-25624.1,-1730.43,105.454,-111.513,-144.408,18362.9,816.603,1201.42,59.3353,4.35779,67.9426
3.324,5130.36,-193.445,9945.71,21.6763,17.2524,1.35413,-1226.76,11464.9,16679.5,127.837,159.644,-27.6139,1690.99,14389.6,-3275.58,-41.6278,-2.95277,-59.1068,16324.9,-3866.09,-10654.8,-49.3491,8.34043,-32.3163,-12706.9,16447.7,-7459.52,84.5743,-30.8971,-166.528,-15467.3,-25231.8,-1797.31,106.835,-108.552,-134.34,18448.3,930.204,957.796,57.2138,8.0249,66.308
3.325,5353.98,225.014,9935.58,19.8154,17.097,0.242354,-1163.14,11769.4,16223.7,120.632,162.407,-27.4012,1568.61,14103.6,-2687.93,-45.4771,-4.95336,-65.0679,15430.6,-3902.34,-10616.0,-48.9174,9.17064,-35.3006,-12901.4,17624.5,-7640.26,85.8229,-25.4034,-165.703,-15627.8,-24782.6,-1846.98,107.618,-104.187,-125.971,18511.1,1076.82,768.895,55.4918,11.1458,64.1642
3.326,5628.26,349.673,9850.07,17.8962,17.454,-1.38763,-1131.3,11878.6,15860.4,112.263,165.289,-27.0417,1192.77,13948.6,-2041.2,-45.6131,-8.13708,-69.9088,14533.2,-4072.42,-10437.4,-47.1412,9.66081,-38.6905,-12958.8,18733.0,-7859.3,86.2947,-18.8425,-163.694,-15692.6,-24287.9,-1882.89,107.921,-98.7012,-118.96,18555.8,1249.84,623.776,54.0895,13.8296,61.6131
3.327,5902.54,474.332,9764.56,15.9771,17.8109,-3.0176,-1099.46,11987.7,15497.1,103.894,168.171,-26.6823,816.935,13793.6,-1394.47,-45.7491,-11.3208,-74.7497,13635.7,-4242.5,-10258.7,-45.365,10.151,-42.0803,-13016.2,19841.6,-8078.34,86.7664,-12.2816,-161.684,-15757.3,-23793.3,-1918.79,108.224,-93.2151,-111.949,18600.4,1422.86,478.657,52.6871,16.5135,59.0619
3.328,6176.82,598.991,9679.04,14.0579,18.1679,-4.64758,-1067.63,12096.9,15133.7,95.5249,171.053,-26.3228,441.098,13638.6,-747.747,-45.8851,-14.5045,-79.5906,12738.3,-4412.58,-10080.0,-43.5888,10.6412,-45.4701,-13073.7,20950.1,-8297.38,87.2382,-5.72066,-159.674,-15822.1,-23298.6,-1954.7,108.528,-87.729,-104.938,18645.1,1595.88,333.538,51.2848,19.1973,56.5107
3.329,6394.96,686.766,9606.4,12.2036,18.4964,-6.21106,-1047.09,12184.1,14783.5,87.0896,173.914,-25.9829,39.4415,13489.7,-151.009,-45.6219,-17.7172,-84.0562,11850.4,-4577.03,-9895.08,-41.7708,11.3181,-48.8855,-13099.7,22004.8,-8507.29,87.7989,0.849211,-157.501,-15861.6,-22797.4,-1982.43,108.71,-82.2171,-98.3283,18674.7,1767.67,198.392,49.9889,21.7148,53.9242
3.33,6163.96,479.465,9636.68,10.868,18.5971,-7.24255,-1116.96,12095.8,14537.4,78.1229,176.607,-25.7999,-568.771,13389.6,45.802,-42.1655,-21.1614,-85.5194,11038.5,-4696.38,-9660.04,-39.6186,13.4889,-52.5052,-12874.7,22629.7,-8644.18,89.0707,7.49077,-154.023,-15699.1,-22243.6,-1944.77,107.917,-76.499,-94.9258,18583.8,1929.65,143.03,49.5448,22.9018,51.0554
3.331,5932.95,272.164,9666.96,9.53236,18.6977,-8.27404,-1186.82,12007.5,14291.3,69.1562,179.3,-25.6168,-1176.98,13289.4,242.613,-38.709,-24.6056,-86.9826,10226.7,-4815.73,-9424.99,-37.4664,15.6598,-56.1249,-12649.7,23254.5,-8781.08,90.3426,14.1323,-150.545,-15536.7,-21689.8,-1907.1,107.125,-70.7808,-91.5233,18492.8,2091.63,87.6683,49.1007,24.0888,48.1867
3.332,5701.95,64.8638,9697.25,8.19673,18.7983,-9.30554,-1256.69,11919.1,14045.3,60.1896,181.993,-25.4337,-1785.2,13189.2,439.425,-35.2526,-28.0498,-88.4458,9414.85,-4935.07,-9189.95,-35.3143,17.8307,-59.7446,-12424.7,23879.3,-8917.97,91.6144,20.7739,-147.067,-15374.2,-21136.0,-1869.44,106.333,-65.0627,-88.1208,18401.9,2253.6,32.3064,48.6566,25.2757,45.3179
3.333,5470.95,-142.437,9727.53,6.86109,18.899,-10.337,-1326.56,11830.8,13799.2,51.2229,184.686,-25.2507,-2393.41,13089.0,636.236,-31.7961,-31.494,-89.909,8603.01,-5054.42,-8954.9,-33.1621,20.0015,-63.3642,-12199.7,24504.1,-9054.86,92.8863,27.4154,-143.588,-15211.8,-20582.2,-1831.78,105.541,-59.3446,-84.7184,18311.0,2415.58,-23.0555,48.2125,26.4627,42.4491
3.334,5073.48,-453.693,9741.95,5.87874,18.276,-10.679,-1367.94,11650.7,13609.1,42.8909,187.405,-25.2986,-2896.24,12974.4,563.564,-28.685,-33.6102,-89.8608,8005.19,-5119.35,-8602.03,-31.9482,22.3061,-67.2289,-11797.2,24733.2,-9023.88,94.0438,32.4722,-139.835,-14986.7,-20038.8,-1733.17,103.897,-54.9751,-83.4417,18097.9,2595.22,-56.9002,47.7001,27.5387,39.4361
3.335,4592.77,-816.927,9748.43,5.07303,17.2912,-10.6761,-1395.09,11424.7,13446.9,34.8763,190.138,-25.4619,-3346.39,12852.5,356.15,-25.7465,-35.0624,-89.0568,7514.38,-5157.06,-8190.26,-31.2036,24.6775,-71.2162,-11306.1,24764.4,-8908.96,95.1442,36.7365,-135.944,-14730.3,-19500.6,-1604.09,101.827,-51.2801,-83.228,17823.8,2783.69,-79.9864,47.1537,28.5592,36.3509
3.336,4112.05,-1180.16,9754.92,4.26732,16.3064,-10.6733,-1422.24,11198.7,13284.7,26.8617,192.871,-25.6253,-3796.53,12730.7,148.737,-22.808,-36.5146,-88.2528,7023.57,-5194.77,-7778.49,-30.4589,27.0489,-75.2034,-10814.9,24795.7,-8794.04,96.2446,41.0009,-132.054,-14473.9,-18962.4,-1475.0,99.7572,-47.5851,-83.0143,17549.7,2972.16,-103.073,46.6073,29.5797,33.2658
3.337,3631.34,-1543.4,9761.41,3.46161,15.3216,-10.6704,-1449.39,10972.7,13122.5,18.847,195.605,-25.7887,-4246.68,12608.8,-58.6771,-19.8695,-37.9669,-87.4488,6532.76,-5232.48,-7366.71,-29.7143,29.4203,-79.1906,-10323.7,24826.9,-8679.13,97.345,45.2652,-128.163,-14217.5,-18424.2,-1345.92,97.6872,-43.89,-82.8006,17275.6,3160.64,-126.159,46.0609,30.6002,30.1807
3.338,3228.02,-1913.31,9760.72,2.86078,14.3075,-10.5683,-1458.8,10723.7,12967.6,11.2461,198.345,-26.0723,-4617.66,12497.3,-280.771,-17.1168,-38.9283,-86.3353,6099.05,-5230.96,-6984.3,-29.5527,31.931,-83.1764,-9792.16,24743.4,-8532.74,98.1264,48.9322,-124.354,-13959.9,-17902.8,-1213.25,95.3915,-40.812,-83.0127,16970.3,3330.76,-133.728,45.3858,31.7561,27.144
3.339,3095.53,-2306.62,9734.96,2.97705,13.1908,-10.1185,-1406.14,10394.5,12838.3,5.09299,201.112,-26.7768,-4711.54,12421.9,-554.245,-15.0141,-38.1719,-84.1381,5865.19,-5092.15,-6704.67,-31.4321,34.9291,-87.1572,-9119.11,24258.7,-8276.19,97.7913,50.5082,-120.829,-13698.2,-17439.7,-1068.02,92.3058,-39.8938,-84.715,16556.1,3436.67,-86.9881,44.2601,33.3862,24.2767
3.34,2963.04,-2699.93,9709.2,3.09331,12.0741,-9.66875,-1353.48,10065.2,12709.0,-1.06009,203.878,-27.4812,-4805.42,12346.4,-827.718,-12.9115,-37.4156,-81.9409,5631.34,-4953.33,-6425.05,-33.3115,37.9272,-91.138,-8446.05,23773.9,-8019.65,97.4562,52.0842,-117.305,-13436.4,-16976.7,-922.78,89.22,-38.9756,-86.4173,16142.0,3542.58,-40.2483,43.1345,35.0164,21.4094
3.341,2830.55,-3093.24,9683.43,3.20958,10.9574,-9.21898,-1300.81,9735.89,12579.7,-7.21316,206.645,-28.1857,-4899.3,12271.0,-1101.19,-10.8088,-36.6592,-79.7437,5397.49,-4814.52,-6145.42,-35.1909,40.9253,-95.1189,-7773.0,23289.2,-7763.1,97.1211,53.6602,-113.781,-13174.6,-16513.6,-777.544,86.1343,-38.0574,-88.1195,15727.8,3648.49,6.49149,42.0089,36.6465,18.5421
3.342,2698.06,-3486.55,9657.67,3.32585,9.84072,-8.7692,-1248.15,9406.61,12450.4,-13.3662,209.411,-28.8902,-4993.19,12195.6,-1374.67,-8.7062,-35.9029,-77.5465,5163.64,-4675.7,-5865.79,-37.0702,43.9233,-99.0997,-7099.94,22804.5,-7506.56,96.786,55.2362,-110.256,-12912.9,-16050.6,-632.307,83.0485,-37.1392,-89.8218,15313.6,3754.4,53.2313,40.8833,38.2766,15.6748
3.343,2741.43,-3659.49,9624.48,3.74657,8.95118,-8.35694,-1169.03,9009.38,12348.9,-17.5746,212.163,-29.9778,-4822.05,12137.3,-1510.85,-7.21646,-34.85,-74.8629,5086.32,-4479.52,-5525.31,-39.2538,45.6457,-102.737,-6428.0,22062.6,-7278.12,96.1002,55.7998,-107.741,-12715.2,-15652.3,-518.979,79.683,-37.9424,-92.2211,14881.0,3855.85,142.603,39.3428,39.7547,13.2739
3.344,2835.05,-3769.46,9589.17,4.25427,8.12654,-7.95539,-1082.35,8592.73,12255.4,-21.2274,214.91,-31.175,-4575.2,12084.0,-1607.81,-5.90184,-33.7124,-72.0403,5053.72,-4266.95,-5167.45,-41.5243,47.0035,-106.276,-5756.37,21247.3,-7057.71,95.3141,56.0742,-105.513,-12536.0,-15272.5,-414.767,76.2375,-39.2375,-94.8196,14443.1,3956.03,244.155,37.6838,41.1894,11.0062
3.345,2928.67,-3879.43,9553.86,4.76197,7.30189,-7.55384,-995.67,8176.08,12161.9,-24.8802,217.657,-32.3722,-4328.35,12030.6,-1704.77,-4.58722,-32.5748,-69.2178,5021.11,-4054.38,-4809.59,-43.7948,48.3613,-109.815,-5084.74,20432.0,-6837.31,94.528,56.3485,-103.286,-12356.7,-14892.7,-310.554,72.7921,-40.5325,-97.4181,14005.3,4056.21,345.707,36.0248,42.6242,8.73853
3.346,3022.29,-3989.4,9518.55,5.26967,6.47725,-7.15229,-908.989,7759.44,12068.4,-28.533,220.403,-33.5694,-4081.5,11977.3,-1801.72,-3.27259,-31.4371,-66.3952,4988.51,-3841.8,-4451.73,-46.0653,49.7191,-113.354,-4413.12,19616.7,-6616.9,93.7419,56.6228,-101.058,-12177.4,-14512.8,-206.342,69.3466,-41.8276,-100.017,13567.4,4156.38,447.259,34.3657,44.0589,6.47086
3.347,3157.74,-3974.58,9487.86,5.60643,5.73935,-6.95389,-819.791,7324.75,11982.1,-31.2607,223.145,-34.9528,-3779.62,11881.6,-1834.36,-2.27703,-30.5888,-63.8252,4975.09,-3654.91,-4117.59,-48.3545,50.4978,-116.776,-3790.5,18784.2,-6422.81,93.2767,56.9032,-99.4134,-12022.0,-14166.6,-120.098,65.965,-43.4797,-102.765,13142.4,4249.88,526.645,32.6562,45.2627,4.41778
3.348,3376.83,-3710.17,9466.4,5.60127,5.17495,-7.1618,-725.561,6853.99,11910.4,-32.138,225.875,-36.7086,-3367.68,11701.0,-1738.37,-1.91958,-30.319,-61.7604,5000.04,-3519.37,-3830.89,-50.6808,50.1182,-119.965,-3265.91,17917.3,-6281.35,93.4533,57.1955,-98.9345,-11914.6,-13887.6,-69.7889,62.7111,-45.8458,-105.813,12742.9,4330.02,561.698,30.8455,46.0049,2.79389
3.349,3595.93,-3445.76,9444.94,5.59612,4.61055,-7.36972,-631.331,6383.23,11838.6,-33.0153,228.605,-38.4644,-2955.74,11520.5,-1642.37,-1.56213,-30.0493,-59.6955,5024.98,-3383.84,-3544.18,-53.0072,49.7386,-123.155,-2741.33,17050.4,-6139.89,93.63,57.4878,-98.4555,-11807.1,-13608.6,-19.4801,59.4571,-48.212,-108.861,12343.4,4410.16,596.751,29.0349,46.7471,1.17
3.35,3815.02,-3181.36,9423.48,5.59097,4.04615,-7.57763,-537.101,5912.46,11766.9,-33.8927,231.335,-40.2202,-2543.8,11339.9,-1546.37,-1.20468,-29.7795,-57.6307,5049.92,-3248.3,-3257.48,-55.3335,49.3591,-126.344,-2216.74,16183.5,-5998.43,93.8066,57.78,-97.9766,-11699.6,-13329.6,30.8287,56.2032,-50.5781,-111.909,11943.9,4490.3,631.804,27.2242,47.4892,-0.453893
3.351,4034.12,-2916.95,9402.02,5.58582,3.48175,-7.78554,-442.871,5441.7,11695.2,-34.77,234.066,-41.9761,-2131.86,11159.4,-1450.37,-0.847224,-29.5098,-55.5658,5074.87,-3112.77,-2970.77,-57.6599,48.9795,-129.533,-1692.15,15316.5,-5856.97,93.9832,58.0723,-97.4976,-11592.1,-13050.6,81.1374,52.9492,-52.9442,-114.958,11544.4,4570.44,666.857,25.4136,48.2314,-2.07778
3.352,4229.56,-2663.2,9389.4,5.22829,3.35375,-8.22457,-341.15,5014.61,11612.2,-33.5218,236.611,-44.076,-1831.66,10890.8,-1421.83,-1.10137,-29.8909,-54.4896,5104.23,-3037.1,-2730.2,-59.3328,48.0025,-131.949,-1323.46,14548.9,-5724.76,95.1335,58.9001,-98.3155,-11512.1,-12800.2,72.3413,50.0137,-55.205,-118.151,11278.5,4546.5,605.849,24.2025,48.8092,-3.50286
3.353,4422.05,-2410.78,9377.88,4.82671,3.2803,-8.69248,-238.493,4592.99,11527.8,-32.0079,239.133,-46.2189,-1545.44,10611.2,-1401.72,-1.43197,-30.3533,-53.5369,5134.15,-2968.91,-2495.4,-60.924,46.9509,-134.268,-974.258,13793.6,-5593.7,96.4054,59.7948,-99.2955,-11435.6,-12553.4,56.157,47.1179,-57.4527,-121.362,11029.3,4509.56,532.835,23.0664,49.3665,-4.90308
3.354,4614.54,-2158.36,9366.36,4.42513,3.20685,-9.1604,-135.835,4171.37,11443.4,-30.494,241.655,-48.3619,-1259.21,10331.7,-1381.61,-1.76256,-30.8158,-52.5842,5164.07,-2900.73,-2260.6,-62.5152,45.8993,-136.586,-625.056,13038.3,-5462.65,97.6774,60.6895,-100.275,-11359.1,-12306.6,39.9727,44.2222,-59.7004,-124.574,10780.0,4472.62,459.82,21.9303,49.9238,-6.3033
3.355,4807.02,-1905.94,9354.84,4.02355,3.1334,-9.62832,-33.1776,3749.74,11359.0,-28.9801,244.178,-50.5048,-972.978,10052.1,-1361.5,-2.09316,-31.2783,-51.6315,5193.99,-2832.54,-2025.79,-64.1064,44.8477,-138.905,-275.853,12283.1,-5331.59,98.9493,61.5842,-101.255,-11282.6,-12059.8,23.7885,41.3264,-61.948,-127.785,10530.8,4435.67,386.805,20.7942,50.481,-7.70352
3.356,4874.79,-1734.13,9345.9,3.49506,3.06305,-10.0505,79.4817,3385.21,11290.8,-26.7209,246.777,-52.6772,-769.642,9789.41,-1355.25,-2.71338,-31.4109,-50.9931,5175.93,-2825.7,-1830.25,-65.3552,43.5894,-141.074,0.223152,11589.4,-5192.62,100.105,62.5544,-102.58,-11194.2,-11828.2,-17.5501,38.5677,-63.822,-130.969,10318.0,4364.87,320.769,20.1971,50.82,-9.24637
3.357,4786.66,-1663.08,9340.18,2.80793,2.99656,-10.4156,204.643,3092.04,11242.9,-23.5302,249.472,-54.8864,-669.923,9547.8,-1366.34,-3.69564,-31.1312,-50.7474,5097.9,-2895.55,-1683.79,-66.1759,42.0725,-143.056,184.892,10972.9,-5043.76,101.116,63.619,-104.336,-11091.1,-11615.4,-90.3317,35.9804,-65.2289,-134.118,10150.6,4251.74,263.456,20.2736,50.8862,-10.9675
3.358,4698.53,-1592.03,9334.46,2.12079,2.93006,-10.7808,329.804,2798.88,11194.9,-20.3396,252.168,-57.0957,-570.203,9306.2,-1377.42,-4.67789,-30.8515,-50.5017,5019.86,-2965.4,-1537.33,-66.9966,40.5556,-145.037,369.56,10356.3,-4894.9,102.127,64.6837,-106.092,-10987.9,-11402.6,-163.113,33.3931,-66.6357,-137.268,9983.26,4138.61,206.143,20.35,50.9524,-12.6887
3.359,4610.4,-1520.97,9328.74,1.43366,2.86357,-11.1459,454.966,2505.71,11147.0,-17.1489,254.863,-59.3049,-470.483,9064.59,-1388.5,-5.66015,-30.5718,-50.256,4941.83,-3035.25,-1390.87,-67.8174,39.0388,-147.019,554.229,9739.74,-4746.04,103.139,65.7483,-107.847,-10884.8,-11189.9,-235.895,30.8058,-68.0426,-140.417,9815.9,4025.48,148.83,20.4265,51.0186,-14.4098
3.36,4522.26,-1449.92,9323.02,0.746522,2.79708,-11.511,580.127,2212.54,11099.0,-13.9582,257.558,-61.5142,-370.763,8822.99,-1399.58,-6.6424,-30.2921,-50.0103,4863.8,-3105.09,-1244.41,-68.6381,37.5219,-149.0,738.898,9123.18,-4597.19,104.15,66.813,-109.603,-10781.6,-10977.1,-308.676,28.2185,-69.4495,-143.567,9648.53,3912.36,91.5163,20.503,51.0848,-16.1309
3.361,4352.45,-1581.19,9299.91,0.591191,2.39283,-11.422,751.406,2029.13,11067.2,-9.90708,260.625,-63.9061,-401.632,8660.44,-1388.37,-6.98552,-28.9005,-49.5253,4656.07,-3115.07,-1150.56,-68.8945,35.6462,-151.002,784.588,8687.51,-4471.23,103.782,67.2788,-111.696,-10682.4,-10784.8,-391.264,26.2708,-69.786,-146.271,9379.67,3815.34,30.4178,20.4893,51.42,-17.4523
3.362,4182.64,-1712.47,9276.79,0.435859,1.98858,-11.3329,922.685,1845.72,11035.4,-5.85595,263.692,-66.2981,-432.5,8497.89,-1377.17,-7.32864,-27.5088,-49.0403,4448.35,-3125.04,-1056.7,-69.151,33.7704,-153.003,830.278,8251.84,-4345.28,103.415,67.7446,-113.789,-10583.1,-10592.4,-473.851,24.3231,-70.1225,-148.976,9110.81,3718.33,-30.6807,20.4757,51.7552,-18.7737
3.363,4012.83,-1843.74,9253.68,0.280527,1.58432,-11.2439,1093.96,1662.3,11003.5,-1.80481,266.758,-68.69,-463.368,8335.34,-1365.96,-7.67176,-26.1172,-48.5553,4240.63,-3135.01,-962.851,-69.4074,31.8946,-155.004,875.968,7816.18,-4219.33,103.047,68.2104,-115.882,-10483.9,-10400.1,-556.438,22.3754,-70.4591,-151.681,8841.95,3621.32,-91.7793,20.462,52.0904,-20.0951
3.364,3843.02,-1975.02,9230.57,0.125196,1.18007,-11.1549,1265.24,1478.89,10971.7,2.24632,269.825,-71.082,-494.236,8172.79,-1354.75,-8.01487,-24.7256,-48.0703,4032.9,-3144.98,-868.998,-69.6639,30.0188,-157.006,921.658,7380.51,-4093.37,102.68,68.6762,-117.975,-10384.7,-10207.7,-639.025,20.4277,-70.7956,-154.386,8573.09,3524.31,-152.878,20.4483,52.4256,-21.4164
3.365,3760.05,-2133.67,9206.15,0.39645,0.811472,-10.9825,1453.04,1354.68,10931.9,6.56171,272.897,-73.4895,-529.804,8006.72,-1360.67,-7.8772,-23.2923,-47.3748,3804.02,-3177.31,-784.976,-69.8818,27.8576,-159.347,923.545,7032.98,-3980.86,101.636,68.6817,-120.031,-10269.6,-10034.1,-706.75,18.7819,-70.6595,-156.913,8314.68,3429.82,-175.59,19.3525,52.5551,-22.3436
3.366,3746.54,-2314.22,9180.7,1.00897,0.471391,-10.7433,1654.04,1277.83,10885.7,11.0885,275.974,-75.9095,-569.132,7837.82,-1380.3,-7.35491,-21.8258,-46.511,3558.21,-3227.54,-708.82,-70.0689,25.4679,-161.959,890.388,6755.95,-3879.1,100.052,68.3189,-122.058,-10141.9,-9875.56,-762.585,17.3776,-70.1452,-159.298,8064.64,3337.36,-167.594,17.3911,52.52,-22.9553
3.367,3733.03,-2494.77,9155.24,1.62149,0.131311,-10.5041,1855.05,1200.97,10839.6,15.6153,279.051,-78.3295,-608.459,7668.93,-1399.92,-6.83261,-20.3592,-45.6472,3312.4,-3277.77,-632.663,-70.256,23.0783,-164.572,857.231,6478.93,-3777.34,98.4677,67.9561,-124.085,-10014.3,-9716.98,-818.42,15.9733,-69.631,-161.683,7814.6,3244.89,-159.597,15.4297,52.4849,-23.5671
3.368,3719.53,-2675.33,9129.79,2.23402,-0.20877,-10.2649,2056.05,1124.12,10793.4,20.1421,282.128,-80.7495,-647.786,7500.04,-1419.54,-6.31031,-18.8927,-44.7834,3066.59,-3328.0,-556.507,-70.4431,20.6887,-167.184,824.074,6201.9,-3675.57,96.8834,67.5934,-126.112,-9886.6,-9558.41,-874.254,14.569,-69.1167,-164.068,7564.56,3152.42,-151.601,13.4683,52.4498,-24.1789
3.369,3713.59,-2837.65,9102.6,2.82915,-0.505446,-10.0701,2254.1,1053.91,10744.8,24.6284,285.222,-83.1478,-686.124,7346.26,-1446.2,-5.78471,-17.4518,-43.9328,2818.2,-3378.94,-480.922,-70.7323,18.2657,-169.811,787.454,5933.69,-3577.67,95.2257,67.1384,-128.123,-9760.44,-9401.39,-929.414,13.2097,-68.5428,-166.429,7338.24,3060.78,-137.408,11.4852,52.2242,-24.8496
3.37,3768.18,-2854.1,9061.51,3.28519,-0.454895,-10.2312,2428.52,1036.83,10677.0,28.7903,288.447,-85.3733,-716.544,7313.37,-1529.17,-5.23267,-16.2162,-43.1887,2549.15,-3435.61,-409.907,-71.838,15.5759,-172.55,723.12,5736.07,-3510.65,92.9818,65.9458,-130.001,-9646.45,-9256.8,-979.175,12.2104,-67.4918,-168.604,7301.63,2975.73,-73.6456,9.32863,50.4736,-25.9919
3.371,3822.77,-2870.56,9020.42,3.74122,-0.404343,-10.3922,2602.94,1019.75,10609.2,32.9523,291.672,-87.5987,-746.964,7280.48,-1612.13,-4.68063,-14.9806,-42.4446,2280.1,-3492.28,-338.892,-72.9437,12.8862,-175.289,658.787,5538.44,-3443.62,90.738,64.7533,-131.879,-9532.46,-9112.2,-1028.94,11.2111,-66.4407,-170.779,7265.01,2890.68,-9.88301,7.17203,48.7231,-27.1342
3.372,3877.37,-2887.02,8979.34,4.19726,-0.353791,-10.5532,2777.36,1002.67,10541.4,37.1143,294.898,-89.8242,-777.383,7247.59,-1695.09,-4.12858,-13.745,-41.7004,2011.05,-3548.95,-267.877,-74.0494,10.1964,-178.029,594.454,5340.81,-3376.6,88.4941,63.5607,-133.757,-9418.47,-8967.61,-1078.7,10.2119,-65.3897,-172.954,7228.4,2805.64,53.8796,5.01542,46.9726,-28.2765
3.373,3931.96,-2903.47,8938.25,4.6533,-0.303239,-10.7143,2951.78,985.585,10473.6,41.2763,298.123,-92.0497,-807.803,7214.71,-1778.05,-3.57654,-12.5094,-40.9563,1742.0,-3605.62,-196.862,-75.1551,7.50662,-180.768,530.121,5143.18,-3309.58,86.2502,62.3681,-135.635,-9304.48,-8823.02,-1128.46,9.21262,-64.3386,-175.129,7191.79,2720.59,117.642,2.85882,45.2221,-29.4188
