Time,RFoot_accel.x,RFoot_accel.y,RFoot_accel.z,RFoot_gyro.x,RFoot_gyro.y,RFoot_gyro.z,LFoot_accel.x,LFoot_accel.y,LFoot_accel.z,LFoot_gyro.x,LFoot_gyro.y,LFoot_gyro.z,RShank_accel.x,RShank_accel.y,RShank_accel.z,RShank_gyro.x,RShank_gyro.y,RShank_gyro.z,LShank_accel.x,LShank_accel.y,LShank_accel.z,LShank_gyro.x,LShank_gyro.y,LShank_gyro.z,RThigh_accel.x,RThigh_accel.y,RThigh_accel.z,RThigh_gyro.x,RThigh_gyro.y,RThigh_gyro.z,LThigh_accel.x,LThigh_accel.y,LThigh_accel.z,LThigh_gyro.x,LThigh_gyro.y,LThigh_gyro.z,Pelvis_accel.x,Pelvis_accel.y,Pelvis_accel.z,Pelvis_gyro.x,Pelvis_gyro.y,Pelvis_gyro.z
2.71,5469.7,-970.266,9243.85,-6.86949,-68.5556,-49.6049,3692.91,1652.48,6858.9,18.975,338.761,-76.5515,-3238.01,11742.7,-520.874,-11.6043,-94.4988,-24.4846,3910.24,-5610.9,-450.664,-88.1559,-10.7229,-270.443,-948.779,10690.1,-32.841,137.564,46.3532,-94.3608,-6076.36,-5715.17,-2656.17,49.5312,49.589,-150.284,5179.73,1394.72,1411.47,-14.5555,11.4757,-27.556
2.711,5529.32,-682.368,9240.48,-8.49132,-69.6194,-48.9518,3818.8,1678.28,6940.8,17.8419,338.798,-76.9602,-3204.17,11585.2,-337.507,-11.4673,-93.4284,-24.4948,3905.56,-5674.87,-459.723,-89.1417,-9.30734,-272.12,-898.207,10612.3,-72.2018,139.06,43.6366,-95.3999,-6088.98,-5587.32,-2786.71,49.3559,52.9506,-150.616,5167.36,1383.31,1371.41,-15.7417,11.0508,-26.4863
2.712,5502.66,-490.042,9252.15,-10.2814,-70.7929,-48.2285,3955.37,1610.92,6975.33,16.7212,338.834,-77.5672,-3159.24,11366.3,-104.846,-10.6336,-93.8439,-24.6339,3837.48,-5732.14,-466.774,-89.8235,-8.45604,-273.895,-806.498,10531.2,-93.9441,138.494,39.8467,-96.5485,-6117.41,-5520.07,-2789.0,49.1156,55.569,-150.997,5168.05,1407.22,1326.61,-16.9444,10.989,-25.5029
2.713,5465.22,-309.664,9265.7,-12.0924,-71.9801,-47.4966,4093.28,1531.92,7003.95,15.602,338.87,-78.1991,-3112.92,11139.8,133.978,-9.71278,-94.4451,-24.7892,3761.47,-5788.58,-473.573,-90.4672,-7.67527,-275.683,-709.647,10449.7,-113.484,137.671,35.9226,-97.7109,-6147.82,-5460.4,-2775.25,48.8673,58.0946,-151.384,5170.38,1435.53,1281.21,-18.1492,10.9725,-24.5303
2.714,5427.77,-129.285,9279.25,-13.9035,-73.1674,-46.7646,4231.18,1452.91,7032.57,14.4829,338.905,-78.8309,-3066.61,10913.3,372.801,-8.79199,-95.0463,-24.9444,3685.45,-5845.02,-480.372,-91.111,-6.8945,-277.471,-612.797,10368.2,-133.024,136.848,31.9984,-98.8733,-6178.23,-5400.72,-2761.5,48.6189,60.6201,-151.772,5172.71,1463.85,1235.82,-19.3539,10.956,-23.5578
2.715,5390.32,51.0943,9292.8,-15.7146,-74.3546,-46.0326,4369.09,1373.9,7061.19,13.3637,338.941,-79.4627,-3020.3,10686.8,611.624,-7.8712,-95.6476,-25.0997,3609.44,-5901.45,-487.172,-91.7548,-6.11373,-279.259,-515.946,10286.7,-152.564,136.025,28.0743,-100.036,-6208.63,-5341.05,-2747.76,48.3706,63.1457,-152.159,5175.03,1492.17,1190.42,-20.5586,10.9396,-22.5852
2.716,5347.39,123.647,9279.48,-17.4225,-75.5666,-45.4066,4501.68,1203.87,7110.74,12.9032,339.161,-80.1809,-2974.3,10483.1,734.824,-6.59115,-96.1122,-25.4141,3545.21,-5964.56,-426.614,-92.5363,-5.49051,-280.848,-423.895,10228.5,-142.902,134.909,23.4434,-101.118,-6230.21,-5276.98,-2719.22,48.3174,65.3209,-152.402,5185.56,1545.03,1166.96,-21.6526,10.6086,-21.5518
2.717,5297.6,61.416,9232.58,-19.0016,-76.8097,-44.9128,4627.62,920.054,7186.48,13.2662,339.612,-81.007,-2928.71,10308.0,713.495,-4.86203,-96.4061,-25.9273,3495.7,-6035.99,-281.86,-93.4902,-5.06422,-282.188,-337.844,10199.4,-96.7365,133.427,17.9288,-102.101,-6240.75,-5207.4,-2672.19,48.5083,67.0583,-152.464,5206.35,1628.57,1170.91,-22.6082,9.88452,-20.4422
2.718,5247.8,-0.814682,9185.68,-20.5807,-78.0527,-44.4191,4753.57,636.239,7262.21,13.6292,340.063,-81.833,-2883.12,10132.9,692.166,-3.13292,-96.6999,-26.4405,3446.19,-6107.43,-137.106,-94.444,-4.63793,-283.528,-251.794,10170.2,-50.571,131.946,12.4143,-103.083,-6251.3,-5137.82,-2625.15,48.6991,68.7957,-152.525,5227.13,1712.12,1174.86,-23.5637,9.16045,-19.3327
2.719,5198.01,-63.0454,9138.78,-22.1598,-79.2958,-43.9254,4879.51,352.424,7337.95,13.9921,340.514,-82.6591,-2837.53,9957.77,670.837,-1.4038,-96.9938,-26.9538,3396.68,-6178.86,7.64875,-95.3979,-4.21164,-284.868,-165.743,10141.1,-4.40545,130.464,6.89978,-104.066,-6261.84,-5068.25,-2578.12,48.8899,70.533,-152.587,5247.92,1795.66,1178.81,-24.5192,8.43637,-18.2232
2.72,5148.21,-125.276,9091.88,-23.7389,-80.5388,-43.4317,5005.45,68.6091,7413.68,14.3551,340.965,-83.4852,-2791.93,9782.66,649.508,0.325322,-97.2876,-27.467,3347.17,-6250.3,152.403,-96.3517,-3.78535,-286.209,-79.6925,10112.0,41.7601,128.982,1.38524,-105.049,-6272.38,-4998.67,-2531.09,49.0808,72.2704,-152.648,5268.71,1879.2,1182.76,-25.4748,7.7123,-17.1136
2.721,5131.27,-295.385,9098.36,-24.2868,-81.477,-43.2137,5093.85,-4.90522,7544.39,16.2192,341.459,-83.9924,-2732.6,9689.96,476.7,1.91236,-96.3473,-28.358,3336.85,-6383.74,368.562,-96.7551,-3.34521,-287.652,-25.548,10032.3,96.6403,127.227,-5.73122,-105.7,-6295.13,-4958.79,-2578.42,49.319,73.7523,-152.544,5294.87,1837.63,1164.07,-26.2816,7.14213,-16.1642
2.722,5114.32,-465.494,9104.84,-24.8346,-82.4153,-42.9958,5182.24,-78.4195,7675.09,18.0834,341.953,-84.4997,-2673.27,9597.27,303.891,3.4994,-95.4069,-29.249,3326.52,-6517.18,584.721,-97.1583,-2.90507,-289.095,28.5964,9952.56,151.521,125.473,-12.8477,-106.352,-6317.88,-4918.91,-2625.74,49.5573,75.2343,-152.441,5321.03,1796.05,1145.37,-27.0884,6.57195,-15.2147
2.723,5097.38,-635.602,9111.33,-25.3825,-83.3535,-42.7778,5270.64,-151.934,7805.8,19.9475,342.447,-85.0069,-2613.94,9504.58,131.083,5.08644,-94.4666,-30.1399,3316.2,-6650.62,800.879,-97.5616,-2.46494,-290.538,82.7408,9872.84,206.401,123.718,-19.9642,-107.003,-6340.63,-4879.02,-2673.06,49.7956,76.7162,-152.337,5347.19,1754.47,1126.68,-27.8952,6.00178,-14.2653
2.724,5080.43,-805.711,9117.81,-25.9304,-84.2918,-42.5599,5359.04,-225.448,7936.5,21.8116,342.941,-85.5142,-2554.61,9411.89,-41.7259,6.67348,-93.5262,-31.0309,3305.87,-6784.06,1017.04,-97.965,-2.0248,-291.981,136.885,9793.12,261.281,121.964,-27.0806,-107.654,-6363.38,-4839.14,-2720.39,50.0338,78.1982,-152.233,5373.35,1712.9,1107.98,-28.702,5.43161,-13.3158
2.725,5090.18,-960.924,9108.75,-25.8455,-85.0354,-42.3781,5482.49,-190.416,8034.56,23.4382,343.55,-86.0962,-2465.34,9401.16,-177.678,7.6238,-92.0192,-31.8928,3278.36,-6897.36,1111.55,-98.4741,-1.56862,-293.459,187.477,9683.13,293.707,121.71,-34.039,-108.049,-6379.07,-4787.33,-2731.54,50.2962,79.2369,-151.93,5406.76,1673.33,1092.15,-29.522,5.04338,-12.3122
2.726,5121.29,-1104.22,9087.25,-25.2545,-85.6235,-42.2253,5633.98,-68.5458,8106.49,24.8746,344.249,-86.738,-2352.11,9456.0,-284.145,8.06474,-90.0588,-32.7313,3237.1,-6994.54,1108.74,-99.068,-1.09961,-294.964,235.225,9548.92,308.17,122.656,-40.871,-108.237,-6389.11,-4725.97,-2713.75,50.5778,79.921,-151.466,5445.95,1635.37,1078.6,-30.3527,4.80072,-11.2652
2.727,5152.39,-1247.51,9065.75,-24.6634,-86.2115,-42.0725,5785.48,53.324,8178.42,26.3111,344.948,-87.3798,-2238.88,9510.84,-390.613,8.50569,-88.0984,-33.5699,3195.84,-7091.72,1105.94,-99.6619,-0.630588,-296.47,282.974,9414.71,322.633,123.603,-47.7029,-108.425,-6399.16,-4664.61,-2695.97,50.8594,80.6051,-151.003,5485.14,1597.42,1065.06,-31.1834,4.55805,-10.2182
2.728,5183.5,-1390.81,9044.25,-24.0724,-86.7995,-41.9197,5936.97,175.194,8250.35,27.7476,345.647,-88.0217,-2125.65,9565.69,-497.08,8.94663,-86.1381,-34.4084,3154.58,-7188.9,1103.13,-100.256,-0.16157,-297.976,330.723,9280.5,337.096,124.549,-54.5349,-108.614,-6409.2,-4603.25,-2678.18,51.141,81.2893,-150.539,5524.33,1559.46,1051.51,-32.0141,4.31539,-9.17115
2.729,5213.91,-1522.93,9024.57,-23.4098,-87.3701,-41.7894,6090.53,288.971,8320.78,29.091,346.394,-88.7096,-2014.53,9626.77,-590.616,9.29365,-84.1657,-35.205,3117.87,-7281.78,1090.36,-100.905,0.355711,-299.472,384.981,9160.67,348.384,125.229,-61.6606,-108.81,-6422.24,-4543.54,-2663.03,51.4479,81.9128,-150.044,5567.67,1524.37,1039.99,-32.8224,4.08875,-8.11749
2.73,5238.78,-1565.61,9019.49,-22.1756,-87.8011,-41.839,6260.6,338.01,8379.15,29.6901,347.523,-89.7669,-1920.35,9737.81,-580.702,8.88931,-82.0973,-35.6654,3117.63,-7340.29,997.867,-102.0,1.2591,-300.889,491.313,9155.9,334.283,123.777,-71.1364,-109.065,-6459.26,-4497.02,-2668.94,51.9566,82.0513,-149.29,5644.17,1512.2,1044.63,-33.4516,3.99028,-7.01063
2.731,5263.66,-1608.29,9014.4,-20.9413,-88.232,-41.8887,6430.67,387.049,8437.53,30.2892,348.652,-90.8241,-1826.16,9848.86,-570.789,8.48496,-80.029,-36.1258,3117.39,-7398.8,905.376,-103.094,2.16249,-302.306,597.645,9151.12,320.181,122.325,-80.6122,-109.32,-6496.28,-4450.49,-2674.85,52.4654,82.1898,-148.536,5720.67,1500.03,1049.26,-34.0807,3.89181,-5.90377
2.732,5288.53,-1650.97,9009.32,-19.7071,-88.663,-41.9383,6600.75,436.088,8495.91,30.8882,349.78,-91.8813,-1731.98,9959.9,-560.875,8.08062,-77.9606,-36.5862,3117.14,-7457.3,812.885,-104.188,3.06588,-303.723,703.977,9146.34,306.079,120.872,-90.088,-109.575,-6533.29,-4403.97,-2680.76,52.9741,82.3283,-147.783,5797.17,1487.86,1053.9,-34.7098,3.79334,-4.7969
2.733,5313.4,-1693.65,9004.24,-18.4728,-89.094,-41.9879,6770.82,485.127,8554.29,31.4873,350.909,-92.9386,-1637.79,10070.9,-550.961,7.67627,-75.8923,-37.0466,3116.9,-7515.81,720.393,-105.282,3.96927,-305.141,810.309,9141.57,291.977,119.42,-99.5638,-109.83,-6570.31,-4357.45,-2686.67,53.4829,82.4668,-147.029,5873.67,1475.69,1058.53,-35.3389,3.69487,-3.69004
2.734,5311.57,-1648.37,9011.44,-17.4911,-89.606,-41.9627,6928.9,501.631,8640.03,32.2184,352.05,-94.0852,-1593.07,10182.5,-491.286,6.89702,-73.7886,-37.2047,3073.98,-7616.57,699.832,-106.21,5.01224,-306.555,904.44,9148.38,144.842,116.542,-108.737,-110.276,-6624.48,-4313.66,-2729.78,54.1608,82.5799,-146.106,5957.93,1411.26,1036.1,-35.9881,3.67346,-2.84505
2.735,5296.38,-1559.11,9024.78,-16.6356,-90.1586,-41.9002,7080.97,501.869,8739.46,33.0154,353.196,-95.2766,-1573.08,10294.3,-406.73,5.93031,-71.6674,-37.2116,3009.73,-7738.45,715.235,-107.053,6.12499,-307.967,992.472,9161.0,-68.811,112.952,-117.76,-110.818,-6687.23,-4271.24,-2791.49,54.9232,82.6802,-145.098,6046.06,1320.7,1000.14,-36.6473,3.69058,-2.131
2.736,5281.19,-1469.85,9038.12,-15.7802,-90.7112,-41.8377,7233.05,502.107,8838.89,33.8125,354.342,-96.468,-1553.09,10406.1,-322.174,4.96361,-69.5462,-37.2186,2945.48,-7860.33,730.639,-107.897,7.23774,-309.379,1080.5,9173.61,-282.464,109.362,-126.783,-111.359,-6749.99,-4228.83,-2853.2,55.6856,82.7805,-144.09,6134.19,1230.15,964.179,-37.3065,3.70771,-1.41695
2.737,5266.0,-1380.59,9051.46,-14.9247,-91.2638,-41.7752,7385.13,502.344,8938.33,34.6096,355.488,-97.6594,-1533.1,10517.9,-237.617,3.9969,-67.4249,-37.2255,2881.22,-7982.21,746.042,-108.741,8.3505,-310.791,1168.54,9186.22,-496.116,105.771,-135.805,-111.901,-6812.74,-4186.41,-2914.91,56.448,82.8809,-143.083,6222.33,1139.6,928.216,-37.9657,3.72483,-0.702901
2.738,5242.41,-1282.94,9063.77,-14.2028,-91.8346,-41.6451,7533.19,502.273,9034.68,35.3855,356.677,-98.8715,-1520.46,10616.4,-148.073,2.94417,-65.3398,-37.2361,2822.79,-8093.38,760.283,-109.513,9.44145,-312.2,1245.86,9189.37,-735.823,102.601,-144.071,-112.459,-6874.15,-4136.68,-2963.59,57.1092,82.941,-142.045,6303.62,1065.0,892.131,-38.5721,3.78095,0.0242358
2.739,5189.41,-1155.94,9072.49,-13.9483,-92.4692,-41.2785,7667.2,501.122,9120.28,36.0874,358.015,-100.156,-1533.56,10668.6,-41.0692,1.59033,-63.3812,-37.2598,2784.75,-8167.01,770.456,-110.037,10.4561,-313.599,1285.7,9159.4,-1066.72,100.9,-149.69,-113.077,-6930.86,-4061.33,-2966.65,57.4158,82.8605,-140.902,6360.96,1046.24,855.618,-38.9937,3.97354,0.797173
2.74,5136.42,-1028.94,9081.21,-13.6938,-93.1038,-40.9119,7801.22,499.971,9205.88,36.7893,359.353,-101.441,-1546.66,10720.8,65.9346,0.236489,-61.4225,-37.2835,2746.71,-8240.65,780.628,-110.561,11.4708,-314.998,1325.54,9129.42,-1397.61,99.1982,-155.308,-113.694,-6987.57,-3985.98,-2969.71,57.7225,82.7799,-139.76,6418.3,1027.49,819.106,-39.4152,4.16613,1.57011
2.741,5083.42,-901.932,9089.93,-13.4392,-93.7384,-40.5452,7935.23,498.819,9291.48,37.4912,360.691,-102.726,-1559.76,10772.9,172.938,-1.11735,-59.4639,-37.3072,2708.66,-8314.29,790.801,-111.085,12.4855,-316.396,1365.38,9099.44,-1728.5,97.4969,-160.926,-114.312,-7044.28,-3910.63,-2972.77,58.0291,82.6994,-138.618,6475.64,1008.73,782.593,-39.8368,4.35872,2.34305
2.742,5030.42,-774.928,9098.65,-13.1847,-94.3729,-40.1786,8069.24,497.668,9377.08,38.1931,362.029,-104.011,-1572.86,10825.1,279.942,-2.47119,-57.5052,-37.331,2670.62,-8387.93,800.973,-111.608,13.5002,-317.795,1405.22,9069.47,-2059.4,95.7956,-166.545,-114.93,-7100.99,-3835.28,-2975.83,58.3358,82.6189,-137.475,6532.98,989.98,746.08,-40.2583,4.55131,3.11598
2.743,4993.45,-709.744,9070.73,-13.1279,-94.9959,-39.7331,8212.04,512.234,9445.67,38.6797,363.405,-105.243,-1597.01,10821.8,317.1,-3.34385,-56.1182,-37.1972,2639.19,-8474.85,815.766,-111.841,14.2919,-319.047,1455.56,9024.76,-2322.11,94.818,-169.887,-115.434,-7198.14,-3764.99,-2992.12,58.4641,82.2579,-136.33,6548.88,987.197,688.055,-40.708,4.56693,4.02277
2.744,4961.05,-662.222,9032.35,-13.1274,-95.6154,-39.265,8357.36,531.292,9509.4,39.1048,364.792,-106.46,-1624.32,10802.6,334.303,-4.07903,-54.8946,-37.0184,2609.64,-8565.56,831.88,-111.99,15.02,-320.257,1508.89,8975.85,-2565.34,94.0472,-172.578,-115.905,-7306.84,-3696.16,-3012.18,58.5414,81.8168,-135.183,6552.94,988.978,623.884,-41.1657,4.53198,4.96779
2.745,4928.65,-614.701,8993.96,-13.127,-96.235,-38.7969,8502.68,550.35,9573.13,39.5299,366.178,-107.676,-1651.63,10783.5,351.505,-4.81421,-53.6709,-36.8396,2580.09,-8656.27,847.994,-112.139,15.748,-321.467,1562.23,8926.93,-2808.57,93.2764,-175.269,-116.376,-7415.54,-3627.33,-3032.25,58.6187,81.3757,-134.037,6556.99,990.758,559.713,-41.6234,4.49704,5.91282
2.746,4896.25,-567.179,8955.57,-13.1266,-96.8546,-38.3289,8648.0,569.407,9636.86,39.9551,367.565,-108.893,-1678.94,10764.3,368.708,-5.5494,-52.4473,-36.6608,2550.55,-8746.98,864.107,-112.287,16.4761,-322.677,1615.57,8878.02,-3051.8,92.5055,-177.961,-116.848,-7524.25,-3558.5,-3052.32,58.6961,80.9347,-132.891,6561.05,992.539,495.542,-42.0811,4.4621,6.85784
2.747,4879.03,-547.252,8912.68,-13.1042,-97.3992,-37.8627,8774.62,593.864,9699.66,40.172,368.956,-110.159,-1719.76,10722.6,396.679,-6.23063,-51.2318,-36.5378,2521.07,-8862.37,873.182,-112.41,17.2422,-323.899,1661.11,8819.83,-3297.35,91.8321,-179.648,-117.263,-7613.06,-3471.92,-3075.55,58.6159,80.2304,-131.751,6583.39,945.75,444.804,-42.6169,4.32472,7.78792
2.748,4892.17,-582.517,8860.77,-13.0376,-97.7939,-37.4003,8863.86,629.12,9760.62,39.9725,370.354,-111.524,-1787.62,10635.6,446.189,-6.80396,-50.0328,-36.5261,2491.74,-9027.11,868.178,-112.481,18.0842,-325.144,1691.06,8743.1,-3547.55,91.3536,-179.326,-117.565,-7662.08,-3349.85,-3105.12,58.2209,78.9998,-130.625,6642.3,801.821,420.933,-43.3088,3.98246,8.6881
2.749,4905.31,-617.781,8808.86,-12.971,-98.1885,-36.9378,8953.1,664.375,9821.58,39.7731,371.752,-112.89,-1855.47,10548.7,495.699,-7.37729,-48.8337,-36.5145,2462.4,-9191.85,863.174,-112.551,18.9263,-326.389,1721.01,8666.37,-3797.75,90.875,-179.004,-117.867,-7711.11,-3227.78,-3134.7,57.8259,77.7691,-129.499,6701.21,657.893,397.063,-44.0007,3.64021,9.58827
2.75,4918.44,-653.045,8756.95,-12.9043,-98.5831,-36.4754,9042.35,699.631,9882.53,39.5736,373.151,-114.255,-1923.33,10461.8,545.208,-7.95062,-47.6346,-36.5029,2433.07,-9356.6,858.171,-112.622,19.7683,-327.634,1750.96,8589.64,-4047.94,90.3964,-178.682,-118.169,-7760.13,-3105.72,-3164.27,57.4309,76.5385,-128.373,6760.12,513.964,373.192,-44.6926,3.29795,10.4885
2.751,4931.58,-688.31,8705.04,-12.8377,-98.9777,-36.013,9131.59,734.887,9943.49,39.3742,374.549,-115.621,-1991.18,10374.8,594.718,-8.52395,-46.4356,-36.4913,2403.74,-9521.34,853.167,-112.693,20.6104,-328.879,1780.91,8512.9,-4298.14,89.9179,-178.36,-118.471,-7809.16,-2983.65,-3193.84,57.0358,75.3078,-127.246,6819.03,370.036,349.322,-45.3845,2.95569,11.3886
2.752,4958.39,-780.719,8681.49,-12.3047,-99.0798,-35.6875,9193.87,786.711,10020.6,38.9411,375.911,-116.872,-2010.35,10267.9,561.817,-8.73123,-45.1887,-36.4668,2379.18,-9622.48,889.789,-112.47,21.2357,-330.356,1814.66,8511.93,-4508.15,89.3559,-175.755,-118.593,-7896.76,-2861.25,-3225.8,56.134,73.3796,-126.09,6856.21,270.251,294.88,-45.0911,2.81183,11.8201
2.753,4986.91,-880.271,8661.49,-11.7134,-99.1453,-35.3792,9252.78,840.606,10099.7,38.4787,377.268,-118.109,-2023.43,10158.5,518.616,-8.89276,-43.9358,-36.4407,2355.21,-9715.67,931.614,-112.211,21.8338,-331.862,1848.88,8520.43,-4713.13,88.7834,-172.865,-118.692,-7989.18,-2738.81,-3258.06,55.1689,71.3642,-124.93,6890.67,175.985,236.616,-44.6746,2.69278,12.1931
2.754,5015.42,-979.823,8641.49,-11.1221,-99.2108,-35.0709,9311.69,894.502,10178.8,38.0164,378.626,-119.347,-2036.51,10049.1,475.415,-9.05429,-42.6829,-36.4146,2331.25,-9808.86,973.438,-111.951,22.432,-333.368,1883.11,8528.92,-4918.11,88.211,-169.975,-118.792,-8081.6,-2616.38,-3290.32,54.2038,69.3488,-123.77,6925.14,81.719,178.353,-44.2581,2.57372,12.566
2.755,5043.94,-1079.38,8621.48,-10.5308,-99.2763,-34.7626,9370.6,948.397,10258.0,37.554,379.983,-120.584,-2049.59,9939.73,432.213,-9.21581,-41.43,-36.3885,2307.29,-9902.04,1015.26,-111.692,23.0301,-334.875,1917.34,8537.42,-5123.09,87.6386,-167.084,-118.891,-8174.02,-2493.94,-3322.58,53.2386,67.3335,-122.609,6959.6,-12.5472,120.089,-43.8416,2.45467,12.939
2.756,5056.9,-1132.63,8561.82,-10.0192,-99.3545,-34.4847,9426.32,981.029,10349.7,37.0203,381.249,-121.799,-2065.76,9819.34,387.009,-9.3494,-40.1874,-36.4259,2314.55,-9990.52,1083.19,-111.51,23.4364,-336.4,1931.5,8577.67,-5236.64,86.8869,-163.262,-118.797,-8259.13,-2378.97,-3362.63,52.0429,64.9474,-121.523,6973.84,-50.307,65.6558,-43.1735,2.46987,13.1148
2.757,5050.44,-1128.02,8452.6,-9.6073,-99.4487,-34.2448,9478.04,987.079,10457.2,36.3973,382.4,-122.987,-2085.8,9685.2,339.302,-9.44807,-38.9577,-36.5425,2360.83,-10073.1,1183.75,-111.425,23.6029,-337.95,1920.59,8657.61,-5235.89,85.9112,-158.273,-118.461,-8335.1,-2273.33,-3412.41,50.5589,62.0982,-120.53,6962.79,-17.4339,16.01,-42.1908,2.65292,13.0442
2.758,5043.98,-1123.41,8343.38,-9.19537,-99.5429,-34.005,9529.76,993.13,10564.7,35.7743,383.551,-124.175,-2105.84,9551.06,291.594,-9.54674,-37.728,-36.6592,2407.12,-10155.7,1284.31,-111.34,23.7693,-339.5,1909.68,8737.55,-5235.13,84.9355,-153.285,-118.126,-8411.08,-2167.69,-3462.2,49.0749,59.2489,-119.536,6951.74,15.4392,-33.6359,-41.2082,2.83596,12.9736
2.759,5037.51,-1118.8,8234.15,-8.78344,-99.6371,-33.7651,9581.48,999.181,10672.3,35.1513,384.702,-125.363,-2125.88,9416.92,243.887,-9.64541,-36.4983,-36.7759,2453.41,-10238.3,1384.87,-111.255,23.9358,-341.05,1898.76,8817.5,-5234.38,83.9598,-148.296,-117.79,-8487.05,-2062.05,-3511.98,47.5909,56.3997,-118.543,6940.69,48.3123,-83.2817,-40.2255,3.019,12.9031
2.76,5031.05,-1114.19,8124.93,-8.37151,-99.7313,-33.5252,9633.2,1005.23,10779.8,34.5283,385.853,-126.551,-2145.92,9282.78,196.18,-9.74408,-35.2686,-36.8925,2499.7,-10320.9,1485.44,-111.17,24.1023,-342.601,1887.85,8897.44,-5233.63,82.9841,-143.308,-117.454,-8563.02,-1956.41,-3561.77,46.1068,53.5504,-117.549,6929.64,81.1854,-132.928,-39.2428,3.20204,12.8325
2.761,5093.27,-1068.38,8085.01,-8.15566,-99.8392,-32.8864,9701.93,1018.3,10873.3,33.9052,386.633,-127.833,-2141.66,9184.65,211.649,-9.8275,-33.9348,-37.4651,2506.61,-10402.8,1529.02,-110.802,24.0817,-344.078,1870.35,8893.14,-5239.7,80.9022,-136.934,-117.005,-8626.84,-1851.52,-3589.49,44.0605,49.78,-116.621,6948.18,76.4338,-137.74,-38.9477,3.43846,12.9382
2.762,5155.48,-1022.57,8045.1,-7.93981,-99.9472,-32.2476,9770.66,1031.37,10966.7,33.2822,387.412,-129.115,-2137.41,9086.53,227.119,-9.91092,-32.601,-38.0376,2513.53,-10484.7,1572.61,-110.434,24.0611,-345.556,1852.84,8888.84,-5245.78,78.8204,-130.561,-116.556,-8690.67,-1746.62,-3617.21,42.0141,46.0095,-115.692,6966.71,71.6822,-142.552,-38.6526,3.67488,13.0439
2.763,5217.7,-976.757,8005.18,-7.72395,-100.055,-31.6088,9839.38,1044.43,11060.2,32.6591,388.191,-130.397,-2133.15,8988.4,242.588,-9.99435,-31.2671,-38.6102,2520.44,-10566.6,1616.2,-110.066,24.0405,-347.034,1835.33,8884.54,-5251.86,76.7385,-124.187,-116.107,-8754.49,-1641.73,-3644.94,39.9677,42.2391,-114.763,6985.25,66.9306,-147.365,-38.3575,3.9113,13.1496
2.764,5279.92,-930.948,7965.26,-7.5081,-100.163,-30.9699,9908.11,1057.5,11153.7,32.0361,388.971,-131.68,-2128.89,8890.27,258.057,-10.0778,-29.9333,-39.1828,2527.36,-10648.5,1659.79,-109.699,24.0199,-348.512,1817.83,8880.24,-5257.94,74.6567,-117.814,-115.658,-8818.31,-1536.83,-3672.66,37.9213,38.4686,-113.835,7003.79,62.179,-152.177,-38.0623,4.14771,13.2553
2.765,5338.63,-891.246,7941.59,-7.16431,-100.049,-30.283,9992.59,1065.24,11231.9,31.2868,389.707,-133.01,-2114.74,8809.3,324.293,-10.183,-28.7294,-39.7817,2550.77,-10747.6,1665.27,-109.57,24.2855,-349.843,1778.23,8924.03,-5201.29,72.1034,-111.468,-114.976,-8881.88,-1444.01,-3696.39,35.8519,34.6013,-113.017,6999.06,77.8391,-145.457,-38.1997,4.2942,13.232
2.766,5394.54,-856.431,7930.92,-6.71818,-99.7587,-29.5576,10089.7,1068.71,11297.8,30.4365,390.408,-134.378,-2092.68,8742.04,431.143,-10.3055,-27.6293,-40.4017,2587.38,-10860.3,1640.26,-109.634,24.78,-351.056,1720.97,9006.29,-5094.47,69.173,-105.145,-114.108,-8945.24,-1360.85,-3716.93,33.764,30.6566,-112.288,6975.71,109.829,-129.512,-38.683,4.36873,13.1055
2.767,5450.45,-821.615,7920.24,-6.27205,-99.4679,-28.8321,10186.8,1072.19,11363.7,29.5863,391.109,-135.746,-2070.62,8674.78,537.992,-10.4281,-26.5292,-41.0216,2623.99,-10973.1,1615.26,-109.697,25.2745,-352.269,1663.7,9088.55,-4987.64,66.2426,-98.8218,-113.24,-9008.59,-1277.7,-3737.48,31.6762,26.7118,-111.559,6952.37,141.818,-113.566,-39.1663,4.44326,12.979
2.768,5506.36,-786.799,7909.56,-5.82591,-99.1772,-28.1067,10283.8,1075.67,11429.6,28.736,391.811,-137.114,-2048.55,8607.52,644.841,-10.5507,-25.4291,-41.6416,2660.6,-11085.8,1590.25,-109.761,25.7689,-353.482,1606.43,9170.81,-4880.82,63.3122,-92.4986,-112.372,-9071.95,-1194.54,-3758.02,29.5884,22.767,-110.83,6929.02,173.808,-97.6209,-39.6496,4.5178,12.8526
2.769,5558.79,-751.968,7899.55,-5.36833,-98.8842,-27.4009,10379.7,1077.04,11494.7,27.8697,392.502,-138.469,-2024.9,8548.88,740.586,-10.6527,-24.3849,-42.2499,2700.71,-11197.6,1570.41,-109.796,26.2435,-354.671,1552.79,9246.79,-4766.05,60.3261,-86.2548,-111.472,-9133.62,-1113.93,-3781.07,27.5107,18.8578,-110.119,6911.81,202.508,-84.9414,-40.1528,4.56537,12.729
2.77,5583.43,-717.016,7894.82,-4.81921,-98.574,-26.8522,10466.0,1061.63,11553.1,26.8748,393.115,-139.715,-1988.56,8559.18,747.493,-10.5903,-23.7878,-42.7643,2768.77,-11301.7,1591.95,-109.603,26.559,-355.663,1528.17,9272.49,-4587.74,56.8947,-80.6462,-110.313,-9181.78,-1053.71,-3824.22,25.5147,15.2329,-109.558,6943.66,204.899,-98.3893,-40.8155,4.39725,12.6288
2.771,5608.07,-682.064,7890.1,-4.27008,-98.2638,-26.3035,10552.3,1046.22,11611.6,25.8799,393.729,-140.962,-1952.22,8569.48,754.4,-10.5279,-23.1908,-43.2787,2836.83,-11405.8,1613.49,-109.411,26.8745,-356.656,1503.54,9298.19,-4409.43,53.4634,-75.0376,-109.155,-9229.93,-993.488,-3867.38,23.5186,11.608,-108.997,6975.51,207.289,-111.837,-41.4782,4.22914,12.5285
2.772,5632.71,-647.111,7885.37,-3.72096,-97.9535,-25.7548,10638.6,1030.81,11670.1,24.885,394.342,-142.208,-1915.88,8579.78,761.306,-10.4655,-22.5937,-43.7931,2904.9,-11510.0,1635.03,-109.218,27.19,-357.648,1478.91,9323.89,-4231.12,50.032,-69.4289,-107.996,-9278.09,-933.268,-3910.53,21.5225,7.98305,-108.436,7007.36,209.679,-125.285,-42.141,4.06102,12.4283
2.773,5657.35,-612.159,7880.65,-3.17183,-97.6433,-25.2061,10724.9,1015.4,11728.5,23.8901,394.955,-143.455,-1879.53,8590.08,768.213,-10.4031,-21.9966,-44.3075,2972.96,-11614.1,1656.57,-109.026,27.5055,-358.641,1454.29,9349.59,-4052.8,46.6006,-63.8203,-106.838,-9326.25,-873.047,-3953.68,19.5265,4.35814,-107.875,7039.22,212.07,-138.733,-42.8037,3.89291,12.328
2.774,5642.86,-599.71,7878.75,-2.74087,-97.4267,-24.6466,10809.8,994.198,11781.4,22.9612,395.478,-144.603,-1860.4,8567.12,788.808,-10.649,-21.429,-44.9803,2987.99,-11760.9,1651.43,-108.856,27.7559,-359.837,1415.68,9403.13,-3838.11,43.2484,-59.265,-105.519,-9362.07,-836.37,-3976.04,18.0347,1.2197,-107.278,7069.82,214.531,-159.872,-43.2577,3.85115,12.1814
2.775,5608.8,-598.513,7878.27,-2.36899,-97.257,-24.0817,10893.9,970.099,11831.6,22.0652,395.955,-145.701,-1849.87,8527.53,816.247,-11.0491,-20.8762,-45.7322,2976.49,-11929.1,1632.96,-108.699,27.9737,-361.134,1370.07,9470.58,-3605.22,39.9358,-55.2363,-104.121,-9391.73,-811.465,-3988.01,16.7951,-1.67549,-106.663,7099.81,217.027,-184.857,-43.6073,3.87258,12.0116
2.776,5574.75,-597.316,7877.78,-1.99711,-97.0873,-23.5168,10978.0,946.0,11881.7,21.1692,396.433,-146.799,-1839.34,8487.94,843.686,-11.4491,-20.3233,-46.4841,2965.0,-12097.3,1614.49,-108.541,28.1915,-362.431,1324.46,9538.04,-3372.33,36.6232,-51.2075,-102.722,-9421.39,-786.56,-3999.97,15.5555,-4.57068,-106.048,7129.79,219.523,-209.842,-43.957,3.89401,11.8418
2.777,5540.7,-596.118,7877.3,-1.62523,-96.9175,-22.9519,11062.1,921.902,11931.8,20.2732,396.91,-147.897,-1828.81,8448.35,871.125,-11.8492,-19.7705,-47.236,2953.51,-12265.5,1596.02,-108.383,28.4093,-363.728,1278.85,9605.5,-3139.44,33.3106,-47.1788,-101.324,-9451.05,-761.655,-4011.94,14.3158,-7.46588,-105.433,7159.78,222.02,-234.827,-44.3066,3.91544,11.672
2.778,5509.05,-593.491,7881.32,-1.23088,-96.7693,-22.4049,11149.4,915.294,11975.8,19.4065,397.371,-148.95,-1814.46,8421.81,889.09,-12.1835,-19.2597,-47.8906,2956.17,-12432.4,1583.35,-108.197,28.6142,-364.999,1247.02,9666.8,-2902.65,30.0964,-43.5632,-99.8838,-9485.76,-740.184,-4009.94,13.0547,-10.2235,-104.772,7181.9,224.804,-262.695,-44.6037,3.92785,11.4929
2.779,5485.82,-585.857,7901.12,-0.757838,-96.6962,-21.9202,11247.9,969.906,11998.5,18.6423,397.774,-149.84,-1786.74,8440.92,873.896,-12.2877,-18.8963,-48.2051,3008.36,-12595.0,1590.98,-107.91,28.7744,-366.179,1263.41,9706.52,-2652.23,27.2269,-41.3935,-98.2981,-9538.18,-730.729,-3959.08,11.7182,-12.4997,-103.949,7176.5,228.595,-300.653,-44.717,3.9087,11.2816
2.78,5462.59,-578.223,7920.92,-0.2848,-96.6231,-21.4355,11346.4,1024.52,12021.2,17.8782,398.177,-150.731,-1759.01,8460.04,858.703,-12.3918,-18.5329,-48.5195,3060.54,-12757.6,1598.6,-107.623,28.9346,-367.36,1279.81,9746.24,-2401.8,24.3574,-39.2239,-96.7125,-9590.59,-721.275,-3908.22,10.3817,-14.7759,-103.126,7171.09,232.386,-338.611,-44.8304,3.88954,11.0703
2.781,5439.36,-570.589,7940.71,0.188238,-96.55,-20.9508,11444.9,1079.13,12043.9,17.1141,398.579,-151.622,-1731.29,8479.15,843.51,-12.4959,-18.1695,-48.8339,3112.73,-12920.2,1606.23,-107.337,29.0948,-368.54,1296.2,9785.96,-2151.38,21.4879,-37.0542,-95.1268,-9643.0,-711.821,-3857.36,9.04515,-17.0521,-102.303,7165.69,236.177,-376.569,-44.9437,3.87038,10.859
2.782,5416.14,-562.955,7960.51,0.661276,-96.4769,-20.4662,11543.4,1133.74,12066.6,16.35,398.982,-152.513,-1703.57,8498.27,828.316,-12.6001,-17.806,-49.1483,3164.92,-13082.8,1613.85,-107.05,29.255,-369.72,1312.59,9825.68,-1900.95,18.6184,-34.8845,-93.5412,-9695.42,-702.367,-3806.49,7.70864,-19.3283,-101.48,7160.29,239.968,-414.527,-45.057,3.85123,10.6477
2.783,5395.54,-574.349,7992.56,0.993003,-96.504,-20.0106,11631.9,1275.21,12029.2,15.578,399.394,-153.015,-1689.56,8522.65,789.154,-12.9196,-17.0458,-49.6967,3184.49,-13239.4,1602.79,-106.848,29.9816,-370.743,1311.14,9811.99,-1640.32,16.837,-34.1676,-91.9606,-9708.62,-700.943,-3729.39,6.90561,-21.654,-100.631,7158.17,259.902,-434.722,-45.1342,3.75591,10.4088
2.784,5375.7,-591.18,8028.11,1.28435,-96.5598,-19.5634,11717.6,1441.5,11974.7,14.8037,399.808,-153.405,-1679.47,8548.55,743.145,-13.3007,-16.1722,-50.3119,3194.73,-13394.3,1586.4,-106.671,30.8699,-371.722,1304.59,9783.03,-1376.78,15.3664,-33.8657,-90.3814,-9710.63,-701.814,-3644.8,6.25501,-23.9937,-99.7735,7156.98,284.447,-449.842,-45.2011,3.63882,10.162
2.785,5355.85,-608.01,8063.66,1.57571,-96.6155,-19.1161,11803.2,1607.79,11920.2,14.0293,400.222,-153.795,-1669.39,8574.44,697.135,-13.6818,-15.2986,-50.9271,3204.98,-13549.2,1570.0,-106.494,31.7582,-372.7,1298.05,9754.08,-1113.24,13.8959,-33.5639,-88.8023,-9712.63,-702.684,-3560.2,5.60441,-26.3335,-98.9165,7155.79,308.993,-464.961,-45.268,3.52174,9.91514
2.786,5336.01,-624.841,8099.21,1.86706,-96.6712,-18.6688,11888.8,1774.08,11865.6,13.255,400.636,-154.186,-1659.3,8600.33,651.125,-14.0628,-14.425,-51.5423,3215.23,-13704.1,1553.6,-106.317,32.6466,-373.678,1291.5,9725.12,-849.699,12.4253,-33.262,-87.2231,-9714.63,-703.555,-3475.6,4.95381,-28.6733,-98.0595,7154.6,333.539,-480.081,-45.3349,3.40466,9.66831
2.787,5340.39,-649.371,8123.23,2.12495,-96.7399,-18.2526,11968.3,1983.92,11783.7,12.2324,401.088,-154.342,-1655.74,8614.5,608.49,-14.3912,-13.6299,-52.1912,3234.46,-13854.5,1522.02,-106.333,33.5597,-374.708,1297.4,9693.55,-597.611,11.5402,-33.6201,-85.6869,-9711.99,-703.187,-3392.92,4.56382,-31.1239,-97.1898,7151.79,362.098,-485.357,-45.3558,3.32884,9.43146
2.788,5393.22,-689.299,8124.16,2.31592,-96.8346,-17.8985,12035.4,2280.88,11647.1,10.7132,401.615,-154.028,-1665.23,8605.23,572.606,-14.6143,-12.9917,-52.9076,3271.68,-13995.9,1460.08,-106.738,34.5224,-375.839,1328.18,9656.75,-368.431,11.826,-35.2981,-84.2364,-9700.06,-700.34,-3314.05,4.69503,-33.7961,-96.2948,7145.73,398.685,-470.945,-45.2847,3.33557,9.21454
2.789,5446.04,-729.226,8125.1,2.5069,-96.9292,-17.5443,12102.6,2577.83,11510.6,9.19392,402.143,-153.714,-1674.71,8595.96,536.722,-14.8373,-12.3536,-53.624,3308.89,-14137.3,1398.13,-107.143,35.485,-376.971,1358.97,9619.95,-139.251,12.1119,-36.9762,-82.7859,-9688.13,-697.494,-3235.19,4.82625,-36.4683,-95.3997,7139.67,435.272,-456.533,-45.2136,3.34229,8.99763
2.79,5498.87,-769.154,8126.04,2.69787,-97.0238,-17.1901,12169.7,2874.79,11374.0,7.67467,402.67,-153.4,-1684.2,8586.68,500.839,-15.0603,-11.7154,-54.3404,3346.1,-14278.8,1336.18,-107.548,36.4477,-378.103,1389.76,9583.15,89.929,12.3977,-38.6542,-81.3355,-9676.19,-694.647,-3156.32,4.95747,-39.1405,-94.5047,7133.62,471.859,-442.12,-45.1425,3.34902,8.78071
2.791,5551.69,-809.082,8126.98,2.88885,-97.1185,-16.836,12236.9,3171.75,11237.4,6.15542,403.198,-153.087,-1693.69,8577.41,464.955,-15.2833,-11.0773,-55.0568,3383.32,-14420.2,1274.24,-107.953,37.4104,-379.235,1420.55,9546.35,319.109,12.6835,-40.3322,-79.885,-9664.26,-691.801,-3077.46,5.08868,-41.8127,-93.6096,7127.56,508.446,-427.708,-45.0714,3.35574,8.5638
2.792,5596.41,-869.048,8102.73,3.23344,-97.1747,-16.7446,12328.9,3563.27,11213.4,3.26108,403.266,-152.152,-1700.54,8599.23,406.28,-15.5044,-10.3568,-55.8108,3424.56,-14491.0,1127.19,-109.12,38.9505,-380.292,1485.85,9436.8,505.337,14.3734,-43.0692,-79.2359,-9651.06,-708.272,-3065.62,6.22143,-43.8625,-93.1809,7113.43,528.788,-407.678,-45.2035,3.31118,8.30867
2.793,5640.11,-931.519,8075.33,3.59723,-97.2261,-16.686,12424.1,3966.62,11203.5,0.194858,403.276,-151.139,-1707.07,8624.93,344.757,-15.7252,-9.62615,-56.5695,3466.31,-14553.0,969.508,-110.383,40.5629,-381.34,1555.47,9318.15,686.196,16.2388,-45.9387,-78.687,-9637.71,-727.158,-3062.16,7.47937,-45.8345,-92.8104,7098.31,547.098,-386.945,-45.3611,3.26021,8.04876
2.794,5683.81,-993.99,8047.93,3.96102,-97.2775,-16.6275,12519.2,4369.97,11193.6,-2.87137,403.286,-150.127,-1713.59,8650.64,283.234,-15.946,-8.89546,-57.3283,3508.06,-14615.0,811.826,-111.646,42.1752,-382.388,1625.09,9199.51,867.056,18.1042,-48.8081,-78.1381,-9624.36,-746.044,-3058.7,8.7373,-47.8065,-92.44,7083.18,565.409,-366.212,-45.5187,3.20923,7.78886
2.795,5727.51,-1056.46,8020.53,4.32481,-97.329,-16.5689,12614.4,4773.31,11183.6,-5.93759,403.296,-149.114,-1720.12,8676.34,221.71,-16.1669,-8.16476,-58.087,3549.82,-14677.0,654.143,-112.909,43.7876,-383.436,1694.71,9080.86,1047.91,19.9696,-51.6775,-77.5892,-9611.01,-764.929,-3055.25,9.99524,-49.7785,-92.0695,7068.05,583.72,-345.479,-45.6763,3.15826,7.52895
2.796,5754.17,-1111.4,7989.64,4.59757,-97.3657,-16.5106,12736.3,5080.28,11210.5,-9.40037,403.128,-148.077,-1736.25,8700.28,164.925,-16.3997,-7.46465,-58.7848,3593.45,-14730.9,501.994,-114.12,46.1849,-384.294,1730.87,8976.42,1191.28,22.2097,-54.7349,-77.1549,-9581.95,-772.138,-3078.22,11.5769,-51.2715,-91.9036,7067.78,606.162,-326.422,-45.9707,3.08056,7.27376
2.797,5759.51,-1156.94,7954.39,4.75654,-97.3842,-16.4526,12891.5,5266.78,11283.3,-13.3588,402.737,-147.007,-1764.4,8721.99,114.063,-16.6475,-6.80276,-59.4065,3639.42,-14774.5,356.762,-115.265,49.5635,-384.913,1725.21,8889.72,1287.79,24.918,-58.0272,-76.864,-9533.24,-764.749,-3134.22,13.5633,-52.1658,-91.9932,7086.08,633.77,-309.46,-46.4361,2.96946,7.02445
2.798,5764.86,-1202.47,7919.13,4.91551,-97.4026,-16.3945,13046.7,5453.27,11356.1,-17.3173,402.347,-145.937,-1792.55,8743.71,63.2014,-16.8953,-6.14088,-60.0281,3685.4,-14818.1,211.53,-116.411,52.9421,-385.532,1719.55,8803.02,1384.3,27.6264,-61.3195,-76.573,-9484.54,-757.359,-3190.23,15.5497,-53.0602,-92.0829,7104.39,661.378,-292.498,-46.9014,2.85836,6.77514
2.799,5770.21,-1248.0,7883.88,5.07448,-97.4211,-16.3364,13202.0,5639.77,11429.0,-21.2758,401.956,-144.868,-1820.7,8765.43,12.3393,-17.1432,-5.479,-60.6498,3731.38,-14861.7,66.2972,-117.557,56.3207,-386.151,1713.88,8716.32,1480.81,30.3348,-64.6118,-76.2821,-9435.83,-749.97,-3246.23,17.5361,-53.9545,-92.1726,7122.69,688.986,-275.536,-47.3668,2.74725,6.52583
2.8,5775.55,-1293.53,7848.62,5.23345,-97.4395,-16.2784,13357.2,5826.26,11501.8,-25.2343,401.565,-143.798,-1848.85,8787.15,-38.5227,-17.391,-4.81711,-61.2715,3777.36,-14905.4,-78.9352,-118.703,59.6993,-386.77,1708.22,8629.62,1577.32,33.0432,-67.9041,-75.9912,-9387.13,-742.581,-3302.24,19.5225,-54.8488,-92.2622,7141.0,716.593,-258.574,-47.8322,2.63615,6.27652
2.801,5801.25,-1330.33,7870.85,5.56825,-97.5829,-16.1501,13567.1,5770.17,11586.8,-28.4939,401.047,-143.253,-1898.4,8828.16,-59.297,-17.42,-4.48525,-61.9769,3799.37,-15056.1,-214.127,-120.043,63.8486,-387.174,1680.09,8572.39,1610.68,36.1445,-70.4489,-75.9598,-9308.08,-687.998,-3341.71,21.2044,-53.9447,-92.2072,7134.0,738.38,-271.298,-48.7184,2.43004,6.16689
2.802,5826.96,-1367.14,7893.09,5.90305,-97.7263,-16.0218,13777.0,5714.07,11671.9,-31.7536,400.529,-142.707,-1947.96,8869.17,-80.0713,-17.4489,-4.15339,-62.6823,3821.38,-15206.9,-349.318,-121.383,67.9979,-387.577,1651.95,8515.16,1644.05,39.2458,-72.9936,-75.9283,-9229.04,-633.414,-3381.19,22.8863,-53.0407,-92.1521,7127.0,760.167,-284.023,-49.6047,2.22394,6.05727
2.803,5852.66,-1403.94,7915.32,6.23785,-97.8697,-15.8934,13986.9,5657.98,11757.0,-35.0132,400.011,-142.162,-1997.52,8910.17,-100.846,-17.4779,-3.82153,-63.3878,3843.4,-15357.7,-484.509,-122.724,72.1471,-387.98,1623.81,8457.92,1677.42,42.347,-75.5384,-75.8969,-9149.99,-578.831,-3420.66,24.5682,-52.1367,-92.0971,7120.0,781.953,-296.747,-50.491,2.01784,5.94764
2.804,5878.36,-1440.74,7937.55,6.57266,-98.0131,-15.7651,14196.9,5601.89,11842.1,-38.2728,399.493,-141.617,-2047.07,8951.18,-121.62,-17.5068,-3.48967,-64.0932,3865.41,-15508.4,-619.701,-124.064,76.2964,-388.383,1595.67,8400.69,1710.79,45.4483,-78.0832,-75.8655,-9070.95,-524.247,-3460.13,26.2501,-51.2326,-92.042,7113.0,803.74,-309.471,-51.3773,1.81173,5.83801
2.805,5894.25,-1478.12,7942.18,6.86352,-98.0766,-15.6309,14406.1,5552.73,11926.6,-41.0529,398.789,-141.337,-2077.44,8981.73,-156.756,-17.6326,-3.11323,-64.9121,3864.84,-15691.1,-720.547,-124.882,80.2229,-388.699,1558.38,8342.23,1701.08,48.3968,-79.9253,-76.0461,-8979.51,-479.634,-3473.79,27.1278,-49.0356,-91.7164,7100.03,832.77,-322.021,-52.3901,1.56123,5.71601
2.806,5902.29,-1515.96,7932.74,7.11922,-98.0762,-15.492,14614.9,5509.12,12010.7,-43.4494,397.936,-141.27,-2092.45,9003.9,-203.382,-17.8357,-2.70113,-65.8218,3846.21,-15899.3,-793.917,-125.281,83.9713,-388.947,1513.78,8282.81,1656.92,51.2231,-81.2052,-76.3964,-8878.15,-442.996,-3466.79,27.3622,-45.8041,-91.1744,7082.29,867.594,-334.43,-53.5041,1.27521,5.5841
2.807,5910.34,-1553.81,7923.3,7.37492,-98.0758,-15.3531,14823.6,5465.51,12094.7,-45.8459,397.083,-141.202,-2107.46,9026.07,-250.008,-18.0388,-2.28903,-66.7314,3827.57,-16107.5,-867.287,-125.68,87.7196,-389.194,1469.17,8223.38,1612.75,54.0494,-82.4852,-76.7466,-8776.79,-406.359,-3459.78,27.5966,-42.5727,-90.6323,7064.54,902.418,-346.84,-54.6181,0.989196,5.4522
2.808,5918.39,-1591.65,7913.86,7.63063,-98.0755,-15.2142,15032.4,5421.9,12178.8,-48.2424,396.231,-141.135,-2122.47,9048.24,-296.633,-18.242,-1.87692,-67.6411,3808.94,-16315.7,-940.657,-126.08,91.468,-389.442,1424.57,8163.95,1568.59,56.8757,-83.7652,-77.0969,-8675.44,-369.721,-3452.78,27.8309,-39.3412,-90.0903,7046.79,937.242,-359.25,-55.7322,0.703178,5.3203
2.809,5928.13,-1630.69,7904.5,7.88416,-98.0962,-15.0861,15241.5,5389.3,12258.1,-50.6194,395.354,-141.088,-2136.18,9074.71,-343.741,-18.4122,-1.48172,-68.5394,3779.44,-16528.3,-1014.14,-126.41,95.129,-389.657,1373.23,8116.84,1515.22,59.5834,-84.9056,-77.4424,-8568.57,-334.56,-3443.45,27.8605,-35.8769,-89.439,7027.95,970.088,-372.065,-56.8138,0.398546,5.17053
2.81,5951.47,-1679.28,7895.74,8.12029,-98.2861,-15.0439,15453.5,5444.79,12299.1,-52.8404,394.281,-141.206,-2139.53,9135.55,-394.702,-18.3188,-1.22173,-69.3467,3663.03,-16776.8,-1088.52,-126.184,98.0908,-389.61,1268.02,8168.19,1388.25,61.3425,-84.9295,-77.7503,-8417.61,-311.208,-3415.46,26.2513,-30.5501,-87.9138,7000.36,987.104,-388.132,-57.6364,-0.0549963,4.87789
2.811,5974.81,-1727.87,7886.98,8.35643,-98.476,-15.0018,15665.5,5500.28,12340.1,-55.0615,393.207,-141.324,-2142.88,9196.39,-445.663,-18.2254,-0.961737,-70.154,3546.62,-17025.3,-1162.9,-125.959,101.053,-389.563,1162.8,8219.55,1261.27,63.1016,-84.9534,-78.0581,-8266.65,-287.856,-3387.48,24.642,-25.2232,-86.3885,6972.76,1004.12,-404.199,-58.4589,-0.508539,4.58525
2.812,5998.16,-1776.46,7878.23,8.59256,-98.666,-14.9596,15877.5,5555.77,12381.1,-57.2826,392.134,-141.441,-2146.22,9257.22,-496.624,-18.132,-0.701744,-70.9614,3430.2,-17273.7,-1237.27,-125.733,104.014,-389.517,1057.59,8270.91,1134.3,64.8608,-84.9773,-78.366,-8115.69,-264.504,-3359.49,23.0328,-19.8963,-84.8633,6945.17,1021.14,-420.266,-59.2815,-0.962081,4.29261
2.813,6021.5,-1825.05,7869.47,8.8287,-98.8559,-14.9175,16089.4,5611.26,12422.1,-59.5036,391.061,-141.559,-2149.57,9318.06,-547.585,-18.0386,-0.441752,-71.7687,3313.79,-17522.2,-1311.65,-125.508,106.976,-389.47,952.379,8322.26,1007.32,66.6199,-85.0013,-78.6739,-7964.74,-241.152,-3331.5,21.4236,-14.5694,-83.3381,6917.57,1038.15,-436.333,-60.104,-1.41562,3.99997
2.814,6009.53,-1824.66,7889.67,9.08117,-99.1245,-14.9421,16300.7,5708.31,12456.5,-61.7292,390.125,-141.766,-2157.18,9346.67,-600.187,-18.0661,-0.265426,-72.3286,3165.13,-17790.3,-1364.11,-124.815,109.259,-389.312,822.171,8381.18,831.186,67.4513,-83.9694,-78.9617,-7805.78,-240.672,-3262.88,19.2905,-8.59738,-81.309,6897.35,1052.22,-447.086,-60.7605,-2.0519,3.81132
2.815,5979.91,-1799.79,7924.36,9.34182,-99.4326,-15.0001,16511.5,5826.13,12487.5,-63.9571,389.257,-142.018,-2166.93,9359.16,-653.61,-18.1541,-0.130933,-72.7647,3000.34,-18068.2,-1405.6,-123.889,111.203,-389.099,679.464,8443.87,630.466,67.8189,-82.4098,-79.2396,-7642.83,-251.629,-3173.93,16.8953,-2.30274,-79.0281,6880.81,1064.81,-455.184,-61.3338,-2.77954,3.67467
2.816,5950.3,-1774.92,7959.04,9.60246,-99.7406,-15.0581,16722.4,5943.96,12518.5,-66.185,388.388,-142.27,-2176.67,9371.65,-707.034,-18.242,0.00355928,-73.2009,2835.56,-18346.1,-1447.09,-122.963,113.146,-388.886,536.757,8506.57,429.747,68.1865,-80.8501,-79.5174,-7479.88,-262.586,-3084.98,14.5002,3.9919,-76.7472,6864.27,1077.4,-463.281,-61.9072,-3.50718,3.53802
2.817,5920.68,-1750.05,7993.73,9.86311,-100.049,-15.1161,16933.3,6061.78,12549.5,-68.4129,387.52,-142.522,-2186.42,9384.14,-760.457,-18.3299,0.138052,-73.6371,2670.77,-18624.0,-1488.59,-122.037,115.09,-388.673,394.05,8569.26,229.028,68.5541,-79.2904,-79.7952,-7316.93,-273.542,-2996.03,12.1051,10.2865,-74.4663,6847.73,1089.99,-471.378,-62.4805,-4.23482,3.40136
2.818,5903.7,-1723.6,8015.16,10.0307,-100.359,-15.2015,17145.3,6180.28,12574.5,-70.6121,386.628,-142.788,-2206.33,9402.05,-806.891,-18.4649,0.238283,-74.1501,2489.42,-18906.9,-1535.49,-121.073,116.735,-388.425,267.682,8642.92,33.6062,68.5884,-77.6319,-80.0432,-7159.73,-301.624,-2888.14,9.70694,16.4772,-72.1251,6835.85,1097.63,-474.116,-63.0165,-5.01955,3.26181
2.819,5930.94,-1691.65,7990.21,9.87245,-100.679,-15.3827,17361.6,6301.16,12578.6,-72.7107,385.649,-143.101,-2261.84,9438.9,-828.866,-18.7646,0.218601,-74.9321,2250.05,-19207.6,-1601.33,-119.977,117.334,-388.052,198.503,8754.91,-143.273,67.4561,-75.6276,-80.1868,-7022.7,-389.645,-2713.99,7.29802,22.3041,-69.5729,6840.28,1087.94,-458.099,-63.4216,-6.00408,3.11212
2.82,5958.19,-1659.69,7965.26,9.71422,-100.998,-15.5639,17577.9,6422.04,12582.7,-74.8092,384.671,-143.414,-2317.35,9475.75,-850.841,-19.0643,0.198919,-75.7141,2010.69,-19508.2,-1667.17,-118.881,117.933,-387.679,129.324,8866.91,-320.152,66.3238,-73.6234,-80.3304,-6885.67,-477.666,-2539.84,4.8891,28.1309,-67.0207,6844.71,1078.25,-442.082,-63.8267,-6.9886,2.96243
2.821,5985.43,-1627.73,7940.31,9.556,-101.318,-15.7451,17794.2,6542.91,12586.7,-76.9078,383.692,-143.727,-2372.87,9512.61,-872.815,-19.3641,0.179237,-76.496,1771.32,-19808.8,-1733.01,-117.786,118.533,-387.307,60.1449,8978.91,-497.031,65.1915,-71.6191,-80.4739,-6748.64,-565.687,-2365.69,2.48018,33.9577,-64.4685,6849.14,1068.56,-426.065,-64.2319,-7.97313,2.81274
2.822,6012.67,-1595.77,7915.37,9.39778,-101.637,-15.9263,18010.4,6663.79,12590.8,-79.0063,382.713,-144.04,-2428.38,9549.46,-894.79,-19.6638,0.159555,-77.278,1531.96,-20109.5,-1798.86,-116.69,119.132,-386.934,-9.03415,9090.91,-673.91,64.0592,-69.6149,-80.6175,-6611.61,-653.708,-2191.54,0.0712569,39.7846,-61.9163,6853.56,1058.87,-410.048,-64.637,-8.95766,2.66304
2.823,6034.34,-1559.48,7926.61,8.95602,-102.074,-16.0982,18230.9,6792.01,12565.6,-80.759,381.564,-144.057,-2490.18,9585.41,-896.417,-19.8505,-0.0374982,-77.9406,1280.09,-20414.9,-1910.83,-115.435,118.962,-386.304,-55.4463,9207.7,-791.88,62.007,-68.1724,-80.4234,-6496.78,-783.807,-2001.65,-1.80001,44.8664,-59.5401,6828.4,1055.81,-395.999,-65.0128,-10.2973,2.52232
2.824,6054.42,-1521.95,7948.19,8.43325,-102.544,-16.2675,18452.5,6922.33,12531.9,-82.4129,380.367,-143.989,-2553.78,9621.09,-892.23,-20.005,-0.285229,-78.5691,1024.65,-20721.6,-2035.99,-114.135,118.572,-385.6,-95.3537,9325.85,-893.019,59.6921,-66.8904,-80.1329,-6388.29,-925.928,-1807.26,-3.51766,49.7353,-57.2142,6794.78,1054.64,-382.512,-65.3802,-11.7384,2.38415
2.825,6074.49,-1484.42,7969.77,7.91048,-103.015,-16.4368,18674.1,7052.65,12498.2,-84.0668,379.169,-143.921,-2617.38,9656.78,-888.044,-20.1595,-0.532961,-79.1976,769.205,-21028.3,-2161.15,-112.836,118.183,-384.897,-135.261,9444.0,-994.159,57.3771,-65.6084,-79.8424,-6279.8,-1068.05,-1612.87,-5.23531,54.6042,-54.8884,6761.16,1053.46,-369.026,-65.7476,-13.1795,2.24598
2.826,6094.57,-1446.88,7991.35,7.38771,-103.485,-16.6061,18895.7,7182.97,12464.6,-85.7206,377.971,-143.853,-2680.97,9692.46,-883.857,-20.314,-0.780692,-79.8261,513.762,-21335.0,-2286.31,-111.536,117.793,-384.193,-175.168,9562.15,-1095.3,55.0622,-64.3264,-79.5518,-6171.31,-1210.17,-1418.48,-6.95295,59.4732,-52.5625,6727.54,1052.29,-355.539,-66.115,-14.6206,2.10781
2.827,6113.8,-1425.14,8011.15,6.82852,-103.906,-16.8595,19110.7,7312.91,12414.7,-87.184,376.666,-143.596,-2731.62,9707.22,-881.725,-20.3584,-1.28682,-80.5217,260.499,-21646.0,-2413.36,-110.243,117.128,-383.295,-199.611,9673.64,-1184.69,52.6002,-63.3358,-79.2027,-6063.9,-1361.84,-1217.35,-8.32212,64.0934,-50.3657,6688.41,1044.04,-360.611,-66.4843,-16.0121,2.01574
2.828,6131.33,-1434.97,8027.41,6.19648,-104.226,-17.2809,19312.4,7442.1,12332.6,-88.2661,375.145,-142.961,-2756.38,9680.11,-883.701,-20.1826,-2.30973,-81.3518,11.5932,-21965.7,-2544.18,-108.966,115.914,-382.008,-193.124,9771.8,-1250.61,49.8443,-62.9278,-78.7365,-5958.68,-1532.61,-1002.75,-8.99431,68.216,-48.4272,6638.24,1021.65,-402.8,-66.8577,-17.3043,2.01587
2.829,6148.86,-1444.79,8043.66,5.56444,-104.547,-17.7024,19514.1,7571.29,12250.5,-89.3482,373.625,-142.325,-2781.13,9653.0,-885.678,-20.0068,-3.33264,-82.1819,-237.312,-22285.3,-2675.0,-107.688,114.7,-380.721,-186.637,9869.96,-1316.52,47.0884,-62.5199,-78.2703,-5853.46,-1703.38,-788.143,-9.6665,72.3387,-46.4887,6588.08,999.254,-444.988,-67.231,-18.5965,2.01599
2.83,6166.39,-1454.62,8059.92,4.93241,-104.867,-18.1238,19715.8,7700.49,12168.4,-90.4304,372.105,-141.689,-2805.88,9625.89,-887.654,-19.831,-4.35555,-83.012,-486.217,-22604.9,-2805.82,-106.41,113.486,-379.435,-180.15,9968.12,-1382.43,44.3324,-62.112,-77.804,-5748.24,-1874.15,-573.539,-10.3387,76.4613,-44.5502,6537.92,976.861,-487.177,-67.6043,-19.8887,2.01611
2.831,6183.92,-1464.45,8076.17,4.30037,-105.188,-18.5452,19917.6,7829.68,12086.3,-91.5125,370.584,-141.053,-2830.63,9598.79,-889.63,-19.6552,-5.37846,-83.8421,-735.123,-22924.5,-2936.63,-105.133,112.272,-378.148,-173.663,10066.3,-1448.34,41.5765,-61.7041,-77.3378,-5643.02,-2044.91,-358.934,-11.0109,80.584,-42.6117,6487.75,954.467,-529.366,-67.9776,-21.1809,2.01624
2.832,6192.38,-1513.23,8039.36,3.57046,-105.713,-19.0559,20089.5,7956.21,12002.3,-91.8331,368.418,-139.848,-2875.32,9594.85,-935.351,-19.2548,-6.43783,-84.4177,-996.013,-23269.1,-3108.48,-103.798,110.922,-376.651,-158.601,10181.1,-1505.95,39.2591,-62.3058,-76.5658,-5545.73,-2226.09,-116.168,-10.6871,84.2129,-41.2393,6471.05,890.351,-557.396,-68.3598,-22.3542,2.02794
2.833,6199.69,-1566.87,7995.92,2.82832,-106.264,-19.5778,20257.7,8082.42,11918.1,-92.0584,366.17,-138.571,-2922.49,9593.82,-986.54,-18.8263,-7.50175,-84.9614,-1258.4,-23616.8,-3285.45,-102.456,109.554,-375.127,-142.467,10297.9,-1562.53,36.9965,-63.0338,-75.7556,-5449.43,-2408.57,130.119,-10.2387,87.7802,-39.9377,6458.53,821.018,-583.655,-68.743,-23.5127,2.04108
2.834,6207.01,-1620.51,7952.47,2.08618,-106.814,-20.0997,20425.9,8208.62,11833.9,-92.2838,363.923,-137.294,-2969.67,9592.78,-1037.73,-18.3979,-8.56568,-85.5051,-1520.79,-23964.5,-3462.42,-101.114,108.186,-373.603,-126.333,10414.8,-1619.1,34.7338,-63.7617,-74.9455,-5353.14,-2591.06,376.406,-9.79043,91.3475,-38.6361,6446.0,751.686,-609.915,-69.1263,-24.6713,2.05423
2.835,6214.33,-1674.16,7909.03,1.34404,-107.365,-20.6216,20594.1,8334.83,11749.6,-92.5091,361.675,-136.017,-3016.85,9591.75,-1088.92,-17.9694,-9.6296,-86.0489,-1783.18,-24312.2,-3639.39,-99.7722,106.819,-372.079,-110.199,10531.7,-1675.68,32.4712,-64.4897,-74.1353,-5256.84,-2773.54,622.693,-9.34212,94.9147,-37.3345,6433.48,682.354,-636.174,-69.5095,-25.8298,2.06738
2.836,6217.2,-1737.81,7877.24,0.708653,-107.802,-21.1113,20779.2,8453.43,11660.5,-92.19,359.176,-134.525,-3058.28,9591.29,-1143.93,-17.5321,-10.6977,-86.6457,-2043.65,-24655.1,-3813.01,-98.6477,105.255,-370.359,-63.9004,10598.6,-1723.59,30.2976,-65.7801,-73.2556,-5186.74,-2958.8,861.919,-8.4926,98.4056,-36.3336,6419.71,613.768,-654.181,-69.9846,-27.0137,2.02633
2.837,6214.52,-1813.96,7860.02,0.206699,-108.097,-21.5608,20985.4,8562.53,11565.3,-91.1904,356.361,-132.764,-3092.55,9591.56,-1203.73,-17.0837,-11.771,-87.3088,-2301.72,-24992.2,-3982.46,-97.7949,103.445,-368.394,20.1035,10602.9,-1760.67,28.2353,-67.7735,-72.289,-5149.39,-3147.52,1092.32,-7.14157,101.801,-35.7086,6404.38,546.113,-661.872,-70.5744,-28.2293,1.91755
2.838,6211.84,-1890.11,7842.81,-0.295256,-108.393,-22.0102,21191.7,8671.63,11470.2,-90.1908,353.547,-131.003,-3126.81,9591.82,-1263.54,-16.6352,-12.8443,-87.9719,-2559.79,-25329.2,-4151.91,-96.942,101.636,-366.428,104.107,10607.2,-1797.75,26.173,-69.7669,-71.3224,-5112.03,-3336.25,1322.72,-5.79053,105.196,-35.0836,6389.05,478.459,-669.562,-71.1642,-29.4449,1.80876
2.839,6209.16,-1966.26,7825.59,-0.79721,-108.688,-22.4597,21397.9,8780.72,11375.0,-89.1913,350.732,-129.242,-3161.07,9592.09,-1323.34,-16.1868,-13.9177,-88.6351,-2817.86,-25666.2,-4321.36,-96.0892,99.8262,-364.463,188.111,10611.5,-1834.83,24.1106,-71.7603,-70.3558,-5074.68,-3524.98,1553.12,-4.4395,108.592,-34.4586,6373.72,410.805,-677.253,-71.754,-30.6605,1.69998
2.84,6206.47,-2042.41,7808.37,-1.29916,-108.983,-22.9092,21604.2,8889.82,11279.8,-88.1917,347.918,-127.481,-3195.33,9592.36,-1383.14,-15.7383,-14.991,-89.2982,-3075.93,-26003.2,-4490.81,-95.2364,98.0168,-362.498,272.115,10615.9,-1871.91,22.0483,-73.7537,-69.3892,-5037.32,-3713.71,1783.52,-3.08847,111.987,-33.8336,6358.39,343.15,-684.943,-72.3438,-31.8761,1.5912
2.841,6253.0,-2163.37,7764.06,-1.49449,-109.459,-23.195,21886.0,8984.08,11117.8,-85.675,344.844,-125.549,-3178.88,9601.31,-1486.62,-15.1782,-15.7227,-89.9655,-3303.57,-26267.4,-4610.16,-94.5695,95.7923,-360.165,403.116,10644.6,-1930.44,20.6678,-75.6882,-68.1753,-5012.32,-3937.29,2041.08,-1.20391,115.288,-33.7967,6330.54,261.693,-732.5,-72.4163,-33.0065,1.36607
2.842,6299.52,-2284.33,7719.76,-1.68981,-109.935,-23.4809,22167.8,9078.35,10955.9,-83.1583,341.77,-123.616,-3162.42,9610.26,-1590.1,-14.6181,-16.4545,-90.6327,-3531.2,-26531.5,-4729.5,-93.9026,93.5678,-357.832,534.116,10673.3,-1988.97,19.2873,-77.6228,-66.9613,-4987.33,-4160.87,2298.64,0.680645,118.588,-33.7597,6302.68,180.235,-780.057,-72.4889,-34.1369,1.14094
2.843,6346.05,-2405.29,7675.45,-1.88514,-110.411,-23.7667,22449.7,9172.61,10793.9,-80.6416,338.695,-121.684,-3145.96,9619.22,-1693.59,-14.058,-17.1862,-91.3,-3758.83,-26795.6,-4848.85,-93.2358,91.3433,-355.499,665.117,10702.0,-2047.5,17.9068,-79.5573,-65.7474,-4962.33,-4384.46,2556.21,2.5652,121.888,-33.7228,6274.83,98.7771,-827.613,-72.5614,-35.2674,0.915809
2.844,6392.57,-2526.26,7631.14,-2.08046,-110.888,-24.0526,22731.5,9266.87,10632.0,-78.1249,335.621,-119.751,-3129.5,9628.17,-1797.07,-13.4979,-17.918,-91.9672,-3986.46,-27059.7,-4968.19,-92.5689,89.1188,-353.166,796.117,10730.7,-2106.03,16.5262,-81.4919,-64.5335,-4937.33,-4608.04,2813.77,4.44976,125.189,-33.6858,6246.97,17.3194,-875.17,-72.634,-36.3978,0.690681
2.845,6414.25,-2626.28,7633.27,-2.15609,-111.317,-24.4603,23039.9,9360.27,10429.6,-75.3098,332.492,-117.808,-3099.48,9670.08,-1874.31,-13.1381,-18.5082,-92.5548,-4222.43,-27314.8,-5114.29,-92.1498,86.6597,-350.602,904.541,10700.5,-2161.99,15.5774,-83.2384,-63.5946,-4901.75,-4856.46,3092.01,6.34147,128.371,-33.766,6238.12,-54.6806,-933.825,-72.627,-37.5359,0.479595
2.846,6416.05,-2709.55,7672.54,-2.13595,-111.71,-24.9656,23369.6,9452.98,10194.9,-72.256,329.319,-115.856,-3058.61,9738.34,-1930.54,-12.9387,-18.9853,-93.0786,-4465.06,-27562.6,-5281.79,-91.9289,84.013,-347.855,994.904,10623.3,-2215.89,14.9738,-84.8344,-62.8756,-4857.71,-5124.74,3386.79,8.23892,131.459,-33.9398,6244.48,-119.114,-1001.36,-72.5565,-38.6801,0.279743
2.847,6417.85,-2792.82,7711.81,-2.11582,-112.102,-25.4709,23699.4,9545.68,9960.28,-69.2021,326.146,-113.903,-3017.75,9806.61,-1986.78,-12.7393,-19.4624,-93.6025,-4707.69,-27810.5,-5449.29,-91.7081,81.3663,-345.107,1085.27,10546.1,-2269.8,14.3702,-86.4305,-62.1567,-4813.66,-5393.02,3681.56,10.1364,134.546,-34.1137,6250.83,-183.548,-1068.9,-72.4859,-39.8243,0.0798911
2.848,6419.65,-2876.09,7751.08,-2.09568,-112.495,-25.9762,24029.1,9638.39,9725.61,-66.1483,322.973,-111.951,-2976.89,9874.87,-2043.02,-12.5399,-19.9395,-94.1263,-4950.32,-28058.3,-5616.79,-91.4872,78.7196,-342.36,1175.63,10468.8,-2323.7,13.7666,-88.0266,-61.4378,-4769.62,-5661.3,3976.34,12.0338,137.634,-34.2875,6257.18,-247.982,-1136.43,-72.4154,-40.9685,-0.119961
2.849,6422.67,-2952.22,7786.58,-2.07169,-112.908,-26.4839,24360.4,9732.9,9481.64,-63.1321,319.774,-109.994,-2933.13,9939.09,-2097.11,-12.3796,-20.3839,-94.6734,-5200.58,-28300.3,-5789.97,-91.3262,76.0618,-339.585,1268.64,10389.7,-2374.39,13.2073,-89.5481,-60.7216,-4713.91,-5933.99,4283.74,13.8552,140.64,-34.4697,6260.89,-313.535,-1201.17,-72.3409,-42.0802,-0.358261
2.85,6435.42,-2971.28,7791.9,-2.01682,-113.486,-27.0114,24704.7,9841.86,9163.28,-60.417,316.368,-107.997,-2866.25,9970.94,-2134.03,-12.5319,-20.5665,-95.4067,-5511.8,-28495.6,-6008.64,-91.6441,73.315,-336.597,1382.79,10296.0,-2399.39,13.002,-90.4732,-60.0279,-4564.88,-6241.94,4692.1,15.068,142.994,-34.7183,6243.46,-388.043,-1243.51,-72.2347,-42.9319,-0.904151
2.851,6448.17,-2990.34,7797.21,-1.96196,-114.065,-27.5389,25048.9,9950.83,8844.91,-57.7019,312.962,-106.001,-2799.37,10002.8,-2170.95,-12.6842,-20.7491,-96.1399,-5823.03,-28690.9,-6227.3,-91.9619,70.5681,-333.608,1496.95,10202.3,-2424.39,12.7967,-91.3982,-59.3341,-4415.85,-6549.9,5100.46,16.2808,145.348,-34.967,6226.02,-462.551,-1285.85,-72.1284,-43.7835,-1.45004
2.852,6460.92,-3009.39,7802.53,-1.90709,-114.643,-28.0664,25393.2,10059.8,8526.55,-54.9868,309.556,-104.004,-2732.48,10034.6,-2207.88,-12.8366,-20.9318,-96.8732,-6134.26,-28886.2,-6445.97,-92.2798,67.8213,-330.62,1611.1,10108.6,-2449.4,12.5914,-92.3233,-58.6404,-4266.82,-6857.85,5508.82,17.4935,147.702,-35.2157,6208.58,-537.059,-1328.19,-72.0222,-44.6352,-1.99593
2.853,6473.67,-3028.45,7807.85,-1.85223,-115.222,-28.5939,25737.5,10168.7,8208.19,-52.2717,306.15,-102.007,-2665.6,10066.5,-2244.8,-12.9889,-21.1144,-97.6065,-6445.48,-29081.5,-6664.63,-92.5977,65.0744,-327.632,1725.26,10014.9,-2474.4,12.3861,-93.2484,-57.9466,-4117.79,-7165.8,5917.19,18.7063,150.056,-35.4644,6191.15,-611.568,-1370.53,-71.916,-45.4869,-2.54182
2.854,6503.85,-2991.95,7796.04,-1.89739,-115.831,-29.149,25983.4,10244.3,7850.95,-50.0189,302.313,-100.087,-2634.75,10074.1,-2270.2,-13.2854,-21.4734,-98.364,-6814.5,-29253.8,-6866.47,-93.0531,62.4543,-324.52,1845.28,9909.01,-2500.07,12.2473,-93.655,-57.6502,-3846.51,-7473.9,6355.71,19.1566,151.698,-35.9764,6209.92,-670.927,-1422.85,-71.8332,-46.2675,-3.05273
2.855,6542.73,-2927.67,7775.67,-1.99255,-116.456,-29.7179,26180.1,10303.2,7474.27,-47.9972,298.261,-98.2041,-2621.92,10069.6,-2289.83,-13.6539,-21.9206,-99.1337,-7212.42,-29414.5,-7059.9,-93.5774,59.8974,-321.347,1968.23,9797.01,-2526.07,12.1417,-93.8023,-57.5525,-3514.1,-7782.07,6809.31,19.2257,152.984,-36.6201,6246.8,-722.712,-1480.15,-71.762,-47.0125,-3.54615
2.856,6581.62,-2863.39,7755.3,-2.08771,-117.08,-30.2868,26376.9,10362.1,7097.6,-45.9755,294.209,-96.3215,-2609.09,10065.1,-2309.46,-14.0224,-22.3678,-99.9035,-7610.34,-29575.3,-7253.32,-94.1017,57.3406,-318.174,2091.18,9685.02,-2552.08,12.036,-93.9497,-57.4547,-3181.69,-8090.25,7262.92,19.2948,154.27,-37.2638,6283.68,-774.497,-1537.46,-71.6909,-47.7576,-4.03958
2.857,6620.51,-2799.11,7734.93,-2.18288,-117.705,-30.8558,26573.6,10421.0,6720.92,-43.9538,290.157,-94.4389,-2596.26,10060.6,-2329.09,-14.3909,-22.815,-100.673,-8008.25,-29736.1,-7446.74,-94.626,54.7838,-315.001,2214.13,9573.02,-2578.08,11.9304,-94.097,-57.3569,-2849.29,-8398.43,7716.52,19.3638,155.557,-37.9075,6320.56,-826.282,-1594.77,-71.6198,-48.5026,-4.533
2.858,6650.71,-2749.59,7728.21,-2.33709,-118.378,-31.4645,26730.5,10455.7,6334.76,-42.1357,285.861,-92.5733,-2593.79,10068.1,-2339.96,-14.7789,-23.3222,-101.473,-8416.57,-29888.4,-7599.51,-95.1211,52.1315,-311.834,2321.98,9467.97,-2594.7,11.7592,-94.2073,-57.3676,-2487.27,-8707.34,8147.92,19.0325,156.665,-38.6691,6360.67,-877.698,-1655.07,-71.567,-49.182,-5.04881
2.859,6650.54,-2751.71,7769.27,-2.69799,-119.224,-32.2123,26747.7,10406.2,5915.42,-41.0301,280.708,-90.7676,-2627.59,10117.6,-2320.18,-15.2353,-24.0396,-102.376,-8861.32,-30011.1,-7609.95,-95.5139,49.1448,-308.692,2376.96,9387.23,-2578.44,11.3585,-94.1881,-57.7578,-2021.64,-9018.84,8501.61,17.2996,157.149,-39.8436,6412.07,-927.821,-1725.85,-71.5785,-49.6317,-5.64301
2.86,6650.36,-2753.83,7810.33,-3.05888,-120.07,-32.9602,26764.9,10356.6,5496.07,-39.9244,275.556,-88.9619,-2661.38,10167.0,-2300.39,-15.6916,-24.757,-103.28,-9306.06,-30133.8,-7620.4,-95.9068,46.1581,-305.549,2431.94,9306.48,-2562.18,10.9579,-94.1688,-58.148,-1556.01,-9330.34,8855.29,15.5668,157.633,-41.018,6463.48,-977.944,-1796.64,-71.5899,-50.0814,-6.2372
2.861,6650.19,-2755.95,7851.38,-3.41978,-120.917,-33.708,26782.2,10307.0,5076.73,-38.8188,270.404,-87.1562,-2695.18,10216.4,-2280.61,-16.1479,-25.4743,-104.184,-9750.8,-30256.4,-7630.84,-96.2997,43.1714,-302.407,2486.92,9225.74,-2545.93,10.5572,-94.1496,-58.5382,-1090.39,-9641.84,9208.97,13.834,158.117,-42.1925,6514.88,-1028.07,-1867.42,-71.6014,-50.531,-6.8314
2.862,6650.01,-2758.07,7892.44,-3.78068,-121.763,-34.4559,26799.4,10257.5,4657.38,-37.7132,265.251,-85.3505,-2728.97,10265.9,-2260.82,-16.6042,-26.1917,-105.087,-10195.5,-30379.1,-7641.29,-96.6925,40.1848,-299.265,2541.89,9144.99,-2529.67,10.1565,-94.1303,-58.9284,-624.755,-9953.33,9562.66,12.1012,158.601,-43.3669,6566.28,-1078.19,-1938.2,-71.6128,-50.9807,-7.42559
2.863,6630.54,-2767.77,7914.82,-4.16063,-122.551,-35.0588,26778.6,10038.8,4225.87,-36.6519,259.035,-83.7499,-2771.37,10302.0,-2259.43,-16.6751,-27.0304,-105.918,-10611.1,-30461.6,-7545.14,-96.781,36.1795,-296.094,2587.51,9054.08,-2490.46,10.3988,-94.2982,-59.6998,-114.304,-10283.6,9802.87,8.80555,158.814,-44.8096,6606.47,-1111.22,-1963.94,-70.9654,-51.4553,-8.39695
2.864,6605.56,-2779.63,7931.86,-4.54603,-123.322,-35.6203,26746.9,9771.79,3790.89,-35.6033,252.514,-82.208,-2816.22,10334.2,-2263.29,-16.636,-27.9036,-106.728,-11018.2,-30532.7,-7418.54,-96.7826,31.8831,-292.915,2630.44,8960.26,-2444.68,10.8248,-94.5194,-60.5801,408.953,-10619.2,10010.7,5.06342,158.95,-46.3289,6643.45,-1139.36,-1976.81,-70.1298,-51.9369,-9.47608
2.865,6580.58,-2791.5,7948.91,-4.93142,-124.093,-36.1818,26715.2,9504.78,3355.9,-34.5547,245.994,-80.6661,-2861.07,10366.5,-2267.15,-16.5968,-28.7769,-107.537,-11425.4,-30603.7,-7291.94,-96.7841,27.5868,-289.736,2673.38,8866.45,-2398.91,11.2508,-94.7407,-61.4604,932.21,-10954.8,10218.5,1.32129,159.086,-47.8482,6680.44,-1167.5,-1989.68,-69.2941,-52.4186,-10.5552
2.866,6555.6,-2803.36,7965.95,-5.31682,-124.864,-36.7433,26683.5,9237.77,2920.92,-33.5061,239.473,-79.1242,-2905.92,10398.8,-2271.01,-16.5576,-29.6502,-108.347,-11832.6,-30674.8,-7165.34,-96.7856,23.2905,-286.558,2716.32,8772.63,-2353.13,11.6767,-94.962,-62.3407,1455.47,-11290.4,10426.3,-2.42084,159.222,-49.3675,6717.42,-1195.64,-2002.55,-68.4585,-52.9002,-11.6343
2.867,6548.13,-2846.36,7993.33,-5.64358,-125.749,-37.3944,26642.7,8902.14,2503.5,-32.0907,232.508,-77.64,-2932.25,10435.2,-2278.24,-16.5206,-30.4772,-109.143,-12260.0,-30709.9,-7009.79,-96.5355,18.8092,-283.209,2747.72,8675.77,-2313.83,12.3068,-95.1857,-63.2979,1980.11,-11624.8,10561.4,-6.86378,159.65,-50.9002,6787.65,-1217.78,-2022.23,-67.2739,-53.4129,-12.6829
2.868,6575.71,-2951.61,8041.38,-5.85309,-126.862,-38.2246,26583.9,8429.26,2121.24,-29.9417,224.656,-76.2712,-2921.54,10479.8,-2292.23,-16.4878,-31.2114,-109.912,-12728.0,-30673.3,-6796.32,-95.7821,13.9581,-279.521,2756.06,8572.8,-2287.46,13.3449,-95.4143,-64.4091,2507.51,-11956.8,10551.1,-12.7084,160.664,-52.4599,6924.38,-1227.9,-2055.53,-65.3914,-53.9876,-13.6704
2.869,6603.28,-3056.86,8089.43,-6.06259,-127.974,-39.0548,26525.1,7956.39,1738.98,-27.7927,216.803,-74.9024,-2910.83,10524.5,-2306.21,-16.4551,-31.9456,-110.68,-13196.0,-30636.7,-6582.85,-95.0287,9.10702,-275.832,2764.4,8469.84,-2261.09,14.3831,-95.6428,-65.5202,3034.91,-12288.8,10540.9,-18.5529,161.678,-54.0196,7061.1,-1238.02,-2088.82,-63.509,-54.5624,-14.6578
2.87,6630.85,-3162.11,8137.48,-6.27209,-129.086,-39.8851,26466.3,7483.52,1356.71,-25.6437,208.95,-73.5335,-2900.13,10569.2,-2320.2,-16.4224,-32.6799,-111.449,-13664.0,-30600.0,-6369.38,-94.2753,4.25592,-272.144,2772.74,8366.87,-2234.71,15.4213,-95.8714,-66.6314,3562.32,-12620.7,10530.6,-24.3975,162.692,-55.5793,7197.82,-1248.15,-2122.12,-61.6265,-55.1371,-15.6453
2.871,6658.43,-3267.36,8185.53,-6.48159,-130.198,-40.7153,26407.5,7010.65,974.447,-23.4947,201.098,-72.1647,-2889.42,10613.8,-2334.19,-16.3897,-33.4141,-112.218,-14132.0,-30563.4,-6155.91,-93.5219,-0.595183,-268.455,2781.08,8263.91,-2208.34,16.4594,-96.1,-67.7425,4089.72,-12952.7,10520.4,-30.2421,163.706,-57.139,7334.55,-1258.27,-2155.42,-59.7441,-55.7118,-16.6327
2.872,6640.19,-3328.88,8207.77,-6.3567,-131.335,-41.4565,26363.1,6499.66,594.754,-19.816,192.54,-70.4854,-2884.82,10687.9,-2376.87,-16.2199,-33.8827,-113.065,-14556.8,-30372.2,-5817.18,-92.9224,-4.6416,-264.55,2819.85,8206.36,-2158.52,18.0218,-96.443,-69.1758,4626.18,-13330.8,10343.7,-38.0981,166.247,-58.7039,7491.78,-1215.77,-2169.04,-57.3428,-56.3413,-17.6637
2.873,6616.22,-3384.94,8226.78,-6.19002,-132.475,-42.1865,26320.5,5983.9,215.383,-15.946,183.895,-68.7674,-2880.98,10765.7,-2423.15,-16.0329,-34.318,-113.922,-14976.3,-30161.8,-5462.79,-92.3421,-8.58743,-260.617,2862.42,8154.5,-2105.76,19.6497,-96.8003,-70.6494,5163.78,-13714.7,10146.1,-46.2056,168.979,-60.2695,7651.57,-1166.69,-2180.21,-54.8768,-56.9775,-18.7002
2.874,6592.26,-3440.99,8245.8,-6.02334,-133.616,-42.9165,26277.9,5468.15,-163.988,-12.0761,175.25,-67.0493,-2877.14,10843.5,-2469.42,-15.846,-34.7534,-114.779,-15395.7,-29951.3,-5108.39,-91.7619,-12.5333,-256.684,2904.99,8102.63,-2053.0,21.2776,-97.1576,-72.123,5701.38,-14098.5,9948.63,-54.313,171.711,-61.8351,7811.37,-1117.61,-2191.37,-52.4107,-57.6138,-19.7366
2.875,6568.3,-3497.05,8264.81,-5.85665,-134.756,-43.6465,26235.4,4952.39,-543.359,-8.20612,166.604,-65.3313,-2873.3,10921.3,-2515.7,-15.659,-35.1888,-115.635,-15815.1,-29740.8,-4754.0,-91.1816,-16.4791,-252.751,2947.56,8050.76,-2000.24,22.9055,-97.5149,-73.5965,6238.97,-14482.4,9751.12,-62.4205,174.443,-63.4007,7971.16,-1068.53,-2202.54,-49.9446,-58.25,-20.773
2.876,6573.92,-3525.58,8288.45,-5.69446,-135.916,-44.3207,26246.8,4421.49,-889.225,-3.41298,158.041,-63.6332,-2843.04,11027.9,-2551.96,-15.6887,-35.4529,-116.438,-16201.9,-29448.9,-4315.42,-90.8665,-20.0613,-248.822,2976.46,8042.36,-1959.39,24.7219,-97.7396,-75.0179,6793.77,-14855.6,9532.09,-71.0114,177.574,-64.9336,8130.36,-1042.9,-2217.69,-47.1743,-58.6377,-21.9854
2.877,6616.52,-3519.7,8317.88,-5.53787,-137.102,-44.925,26325.5,3871.63,-1193.21,2.53414,149.579,-61.96,-2779.77,11170.7,-2575.71,-15.9892,-35.5031,-117.172,-16548.0,-29055.2,-3771.61,-90.8828,-23.189,-244.898,2988.26,8088.27,-1933.41,26.7737,-97.7983,-76.374,7370.08,-15215.6,9286.16,-80.2065,181.203,-66.4257,8288.83,-1046.59,-2237.83,-44.0238,-58.7146,-23.4176
2.878,6659.13,-3513.81,8347.31,-5.38129,-138.287,-45.5292,26404.3,3321.78,-1497.19,8.48127,141.118,-60.2868,-2716.49,11313.5,-2599.45,-16.2896,-35.5533,-117.906,-16894.1,-28661.6,-3227.8,-90.8992,-26.3166,-240.973,3000.07,8134.19,-1907.44,28.8256,-97.857,-77.7301,7946.39,-15575.6,9040.24,-89.4016,184.832,-67.9178,8447.3,-1050.27,-2257.97,-40.8733,-58.7915,-24.8498
2.879,6701.73,-3507.93,8376.74,-5.2247,-139.472,-46.1335,26483.1,2771.93,-1801.18,14.4284,132.657,-58.6136,-2653.22,11456.2,-2623.2,-16.59,-35.6035,-118.64,-17240.2,-28267.9,-2683.99,-90.9155,-29.4443,-237.049,3011.87,8180.11,-1881.46,30.8775,-97.9158,-79.0862,8522.7,-15935.5,8794.32,-98.5967,188.461,-69.4099,8605.77,-1053.96,-2278.1,-37.7228,-58.8684,-26.282
2.88,6744.33,-3502.04,8406.17,-5.06811,-140.658,-46.7378,26561.9,2222.08,-2105.16,20.3755,124.196,-56.9404,-2589.94,11599.0,-2646.94,-16.8905,-35.6536,-119.374,-17586.2,-27874.2,-2140.18,-90.9318,-32.572,-233.125,3023.67,8226.03,-1855.49,32.9294,-97.9745,-80.4423,9099.01,-16295.5,8548.39,-107.792,192.09,-70.9019,8764.24,-1057.65,-2298.24,-34.5723,-58.9453,-27.7143
2.881,6714.83,-3468.08,8434.79,-5.09232,-142.173,-47.461,26938.0,1617.28,-2346.4,28.7695,117.319,-56.1471,-2533.53,11659.0,-2586.15,-17.3173,-35.3371,-120.124,-17899.6,-27342.8,-1544.8,-90.7046,-34.9868,-228.863,3065.01,8295.89,-1843.93,35.2395,-97.6443,-81.5865,9653.21,-16643.1,8375.12,-115.755,195.0,-71.9803,8910.58,-1022.28,-2234.19,-31.4641,-58.6051,-28.8959
2.882,6685.33,-3434.11,8463.42,-5.11652,-143.688,-48.1842,27314.0,1012.47,-2587.64,37.1634,110.443,-55.3538,-2477.12,11719.0,-2525.36,-17.7441,-35.0206,-120.873,-18213.0,-26811.4,-949.42,-90.4774,-37.4017,-224.6,3106.35,8365.74,-1832.37,37.5496,-97.314,-82.7308,10207.4,-16990.8,8201.84,-123.718,197.909,-73.0588,9056.92,-986.904,-2170.15,-28.356,-58.265,-30.0776
2.883,6655.82,-3400.15,8492.04,-5.14072,-145.203,-48.9075,27690.0,407.669,-2828.88,45.5574,103.566,-54.5606,-2420.7,11779.0,-2464.57,-18.1709,-34.7041,-121.622,-18526.3,-26280.0,-354.039,-90.2501,-39.8165,-220.338,3147.69,8435.6,-1820.81,39.8597,-96.9837,-83.8751,10761.6,-17338.5,8028.57,-131.682,200.819,-74.1372,9203.27,-951.531,-2106.1,-25.2479,-57.9248,-31.2593
2.884,6626.32,-3366.19,8520.66,-5.16492,-146.718,-49.6307,28066.0,-197.135,-3070.12,53.9514,96.6892,-53.7673,-2364.29,11839.0,-2403.79,-18.5978,-34.3876,-122.372,-18839.7,-25748.7,241.342,-90.0229,-42.2314,-216.076,3189.03,8505.46,-1809.25,42.1698,-96.6534,-85.0194,11315.8,-17686.2,7855.29,-139.645,203.728,-75.2156,9349.61,-916.158,-2042.06,-22.1398,-57.5846,-32.4409
2.885,6599.75,-3315.54,8545.37,-5.24876,-148.347,-50.3611,28671.3,-857.596,-3368.04,63.6176,91.5671,-54.044,-2314.03,11901.4,-2331.77,-19.153,-34.4001,-123.099,-19222.3,-25181.9,827.645,-89.5798,-44.1712,-211.379,3224.61,8598.65,-1776.57,44.2603,-96.1325,-86.0125,11816.5,-18017.4,7750.39,-145.988,205.426,-76.111,9501.95,-909.836,-1949.13,-19.4899,-57.2305,-33.704
2.886,6575.52,-3251.55,8566.94,-5.3803,-150.068,-51.0973,29460.0,-1562.58,-3711.31,74.3017,87.8486,-55.1767,-2268.68,11965.7,-2250.77,-19.8111,-34.6758,-123.808,-19660.4,-24587.0,1406.69,-88.9639,-45.731,-206.335,3255.58,8710.51,-1726.98,46.175,-95.4592,-86.8848,12274.4,-18335.4,7700.18,-151.034,206.156,-76.86,9659.09,-926.755,-1833.1,-17.2066,-56.8654,-35.0322
2.887,6551.29,-3187.56,8588.52,-5.51183,-151.788,-51.8335,30248.7,-2267.57,-4054.57,84.9857,84.1301,-56.3094,-2223.34,12029.9,-2169.78,-20.4692,-34.9515,-124.518,-20098.4,-23992.0,1985.73,-88.348,-47.2908,-201.291,3286.55,8822.37,-1677.4,48.0898,-94.7858,-87.7571,12732.2,-18653.4,7649.97,-156.079,206.885,-77.609,9816.24,-943.673,-1717.07,-14.9234,-56.5002,-36.3605
2.888,6527.06,-3123.57,8610.1,-5.64337,-153.508,-52.5697,31037.3,-2972.55,-4397.83,95.6698,80.4117,-57.4422,-2177.99,12094.1,-2088.78,-21.1272,-35.2272,-125.227,-20536.4,-23397.1,2564.77,-87.7321,-48.8506,-196.247,3317.52,8934.24,-1627.81,50.0046,-94.1124,-88.6293,13190.1,-18971.4,7599.76,-161.125,207.614,-78.358,9973.38,-960.592,-1601.05,-12.6401,-56.1351,-37.6887
2.889,6510.41,-3063.32,8636.26,-5.73055,-155.228,-53.3042,31854.4,-3666.49,-4763.2,106.395,77.153,-58.7512,-2134.3,12158.1,-2008.47,-21.7829,-35.4741,-125.979,-21001.7,-22803.2,3143.69,-87.015,-50.4032,-191.137,3351.57,9056.17,-1578.88,51.8698,-93.4409,-89.4432,13646.8,-19269.2,7556.34,-165.553,207.939,-78.9962,10135.3,-976.239,-1484.6,-10.3793,-55.7774,-38.9121
2.89,6554.43,-3032.98,8699.1,-5.46281,-156.944,-54.0253,32898.8,-4272.0,-5305.43,117.446,77.573,-61.4714,-2103.83,12219.4,-1933.64,-22.4194,-35.4908,-127.064,-21684.6,-22217.7,3721.68,-85.4884,-51.8973,-185.499,3410.2,9258.73,-1535.12,53.3389,-92.7836,-89.7897,14094.2,-19405.0,7567.29,-165.035,205.032,-78.7471,10335.8,-981.712,-1364.85,-8.29866,-55.4791,-39.2968
2.891,6598.44,-3002.64,8761.95,-5.19508,-158.66,-54.7463,33943.2,-4877.5,-5847.67,128.497,77.9931,-64.1915,-2073.35,12280.7,-1858.82,-23.0558,-35.5075,-128.15,-22367.5,-21632.2,4299.66,-83.9618,-53.3915,-179.86,3468.84,9461.29,-1491.37,54.808,-92.1264,-90.1362,14541.5,-19540.8,7578.24,-164.517,202.125,-78.498,10536.3,-987.185,-1245.09,-6.218,-55.1808,-39.6815
2.892,6642.45,-2972.31,8824.79,-4.92735,-160.376,-55.4674,34987.6,-5483.01,-6389.9,139.548,78.4131,-66.9116,-2042.88,12342.1,-1783.99,-23.6923,-35.5243,-129.235,-23050.4,-21046.8,4877.65,-82.4352,-54.8857,-174.222,3527.48,9663.84,-1447.62,56.2771,-91.4692,-90.4826,14988.9,-19676.6,7589.19,-163.998,199.218,-78.249,10736.8,-992.658,-1125.34,-4.13733,-54.8825,-40.0663
2.893,6686.46,-2941.97,8887.63,-4.65961,-162.092,-56.1885,36032.0,-6088.52,-6932.13,150.599,78.8331,-69.6318,-2012.41,12403.4,-1709.17,-24.3288,-35.541,-130.321,-23733.3,-20461.3,5455.63,-80.9086,-56.3798,-168.583,3586.12,9866.4,-1403.87,57.7462,-90.812,-90.8291,15436.2,-19812.5,7600.14,-163.48,196.311,-77.9999,10937.3,-998.132,-1005.59,-2.05667,-54.5842,-40.451
2.894,6694.91,-2940.1,8905.34,-4.43746,-163.94,-56.801,36962.0,-6516.35,-7626.28,160.329,81.0074,-72.7373,-1961.76,12438.8,-1652.82,-25.0083,-35.3979,-131.307,-24498.0,-19897.1,6036.69,-78.5724,-58.3446,-162.809,3607.52,10057.8,-1369.8,58.9883,-89.9208,-90.8405,15940.7,-19858.0,7572.21,-158.086,189.824,-76.8152,11101.0,-1096.21,-937.758,-1.04579,-53.9221,-41.2052
2.895,6685.58,-2952.47,8900.47,-4.23809,-165.854,-57.3591,37834.7,-6855.34,-8396.39,169.399,84.0587,-76.0355,-1901.01,12461.2,-1605.71,-25.7092,-35.1749,-132.244,-25303.6,-19343.6,6619.28,-75.8314,-60.5446,-156.967,3610.29,10243.5,-1340.57,60.1169,-88.9127,-90.6843,16473.7,-19858.5,7524.84,-150.254,181.546,-75.1627,11246.4,-1240.59,-895.89,-0.569796,-53.0782,-42.1442
2.896,6676.26,-2964.83,8895.6,-4.03872,-167.767,-57.9173,38707.4,-7194.32,-9166.51,178.468,87.1101,-79.3338,-1840.27,12483.6,-1558.6,-26.4102,-34.9519,-133.181,-26109.3,-18790.1,7201.86,-73.0904,-62.7447,-151.125,3613.07,10429.3,-1311.35,61.2455,-87.9046,-90.5282,17006.7,-19859.0,7477.47,-142.421,173.269,-73.5102,11391.8,-1384.97,-854.023,-0.0938062,-52.2343,-43.0832
2.897,6666.93,-2977.19,8890.73,-3.83935,-169.681,-58.4755,39580.2,-7533.31,-9936.62,187.537,90.1614,-82.632,-1779.53,12505.9,-1511.49,-27.1112,-34.7289,-134.118,-26914.9,-18236.6,7784.45,-70.3494,-64.9448,-145.283,3615.84,10615.0,-1282.12,62.3741,-86.8965,-90.372,17539.8,-19859.4,7430.1,-134.589,164.991,-71.8577,11537.1,-1529.34,-812.155,0.382184,-51.3903,-44.0222
2.898,6653.02,-2981.16,8890.15,-3.58291,-171.573,-59.0083,40334.7,-7794.81,-10742.5,195.679,93.4957,-85.8732,-1727.12,12538.6,-1454.75,-27.7206,-34.4297,-135.058,-27685.3,-17690.4,8334.82,-67.4718,-67.4348,-139.453,3624.66,10799.5,-1241.27,63.3149,-85.9532,-90.0709,18061.9,-19851.2,7347.78,-125.544,155.437,-70.1626,11672.8,-1661.01,-767.467,0.833502,-50.4346,-44.8212
2.899,6623.08,-2955.72,8904.58,-3.12667,-173.385,-59.4527,40675.6,-7785.14,-11673.5,200.575,97.8203,-88.9148,-1703.9,12607.5,-1364.28,-28.0098,-33.8642,-136.01,-28332.4,-17169.8,8772.4,-64.1159,-70.94,-133.665,3654.62,10979.6,-1159.76,63.5986,-85.2368,-89.2629,18545.8,-19812.6,7143.13,-112.255,141.417,-68.3183,11774.9,-1748.17,-712.907,1.19847,-49.0877,-45.1304
2.9,6593.13,-2930.29,8919.01,-2.67044,-175.198,-59.897,41016.5,-7775.47,-12604.6,205.471,102.145,-91.9564,-1680.67,12676.3,-1273.81,-28.299,-33.2986,-136.962,-28979.4,-16649.2,9209.98,-60.7599,-74.4451,-127.876,3684.58,11159.7,-1078.25,63.8822,-84.5204,-88.4548,19029.8,-19773.9,6938.49,-98.9665,127.397,-66.474,11876.9,-1835.34,-658.348,1.56343,-47.7407,-45.4397
2.901,6563.19,-2904.86,8933.44,-2.21421,-177.011,-60.3413,41357.3,-7765.8,-13535.6,210.367,106.47,-94.9979,-1657.45,12745.1,-1183.34,-28.5882,-32.7331,-137.913,-29626.5,-16128.6,9647.56,-57.404,-77.9502,-122.087,3714.53,11339.8,-996.734,64.1659,-83.804,-87.6467,19513.7,-19735.3,6733.85,-85.6777,113.377,-64.6297,11978.9,-1922.5,-603.788,1.92839,-46.3938,-45.7489
2.902,6533.25,-2879.43,8947.87,-1.75798,-178.823,-60.7856,41698.2,-7756.12,-14466.6,215.263,110.794,-98.0395,-1634.22,12813.9,-1092.87,-28.8774,-32.1675,-138.865,-30273.6,-15608.0,10085.1,-54.048,-81.4554,-116.299,3744.49,11519.9,-915.222,64.4495,-83.0877,-86.8386,19997.7,-19696.7,6529.21,-72.3889,99.3567,-62.7854,12080.9,-2009.66,-549.228,2.29336,-45.0468,-46.0581
2.903,6524.88,-2785.42,8986.88,-1.47818,-180.945,-61.1534,41454.7,-7528.56,-15328.8,215.361,114.052,-100.022,-1594.39,12838.0,-1008.59,-29.3147,-31.5444,-139.967,-30582.1,-15124.5,10240.2,-50.622,-85.5146,-110.335,3772.66,11714.3,-841.896,63.9132,-82.4157,-85.5635,20270.1,-19624.7,6210.96,-57.9291,82.7776,-61.8454,12139.7,-2184.45,-540.342,1.90799,-43.7802,-46.1768
2.904,6522.67,-2671.81,9032.91,-1.24879,-183.155,-61.4992,41044.2,-7238.75,-16171.3,214.089,117.006,-101.703,-1549.8,12849.2,-926.078,-29.7942,-30.9048,-141.113,-30793.8,-14651.5,10314.5,-47.1759,-89.7321,-104.322,3800.31,11912.7,-770.908,63.1427,-81.7564,-84.1549,20482.0,-19543.3,5860.27,-43.1348,65.4674,-61.1638,12186.2,-2384.28,-544.506,1.30824,-42.5365,-46.241
2.905,6520.47,-2558.2,9078.94,-1.0194,-185.365,-61.8451,40633.7,-6948.93,-17013.9,212.817,119.96,-103.383,-1505.22,12860.5,-843.567,-30.2738,-30.2652,-142.258,-31005.6,-14178.6,10388.8,-43.7298,-93.9496,-98.3082,3827.96,12111.1,-699.921,62.3722,-81.0971,-82.7464,20693.9,-19461.9,5509.57,-28.3404,48.1571,-60.4822,12232.6,-2584.11,-548.67,0.708484,-41.2927,-46.3052
2.906,6518.26,-2444.59,9124.97,-0.790007,-187.575,-62.1909,40223.2,-6659.12,-17856.4,211.544,122.913,-105.064,-1460.63,12871.7,-761.057,-30.7533,-29.6256,-143.404,-31217.3,-13705.6,10463.2,-40.2837,-98.1671,-92.2946,3855.61,12309.6,-628.934,61.6016,-80.4378,-81.3378,20905.8,-19380.4,5158.87,-13.546,30.8469,-59.8005,12279.1,-2783.94,-552.834,0.108733,-40.049,-46.3694
2.907,6511.53,-2346.67,9163.74,-0.539936,-189.845,-62.5561,39616.4,-6344.77,-18584.8,208.786,124.623,-106.017,-1412.75,12882.2,-670.24,-31.2205,-29.0381,-144.558,-31250.9,-13247.1,10420.8,-36.9306,-101.93,-86.1144,3888.44,12476.7,-562.636,60.4948,-79.8682,-79.8195,21020.2,-19248.9,4820.19,0.582988,13.6235,-59.2187,12327.3,-2944.42,-579.447,-0.217665,-38.8639,-46.3015
2.908,6495.74,-2280.12,9187.99,-0.248506,-192.236,-62.96,38617.1,-5981.36,-19085.0,203.057,123.844,-105.516,-1358.28,12891.3,-562.81,-31.6632,-28.5551,-145.729,-30928.0,-12817.7,10145.1,-33.7636,-104.785,-79.601,3931.64,12581.4,-505.715,58.7153,-79.4779,-78.0818,20939.6,-19017.4,4505.55,13.3811,-3.42593,-58.8362,12379.0,-3026.23,-650.958,0.00264457,-37.7957,-45.9695
2.909,6479.95,-2213.58,9212.23,0.0429241,-194.627,-63.3638,37617.8,-5617.94,-19585.1,197.328,123.065,-105.015,-1303.8,12900.3,-455.38,-32.1058,-28.072,-146.9,-30605.1,-12388.2,9869.41,-30.5965,-107.64,-73.0876,3974.84,12686.0,-448.795,56.9358,-79.0875,-76.344,20859.0,-18785.9,4190.91,26.1792,-20.4754,-58.4538,12430.7,-3108.04,-722.47,0.222954,-36.7276,-45.6375
2.91,6464.16,-2147.03,9236.48,0.334354,-197.018,-63.7677,36618.5,-5254.53,-20085.2,191.598,122.286,-104.515,-1249.33,12909.4,-347.95,-32.5484,-27.589,-148.071,-30282.2,-11958.7,9593.71,-27.4295,-110.494,-66.5741,4018.04,12790.7,-391.874,55.1563,-78.6972,-74.6062,20778.3,-18554.4,3876.27,38.9772,-37.5249,-58.0714,12482.4,-3189.84,-793.982,0.443264,-35.6595,-45.3054
2.911,6448.38,-2080.49,9260.73,0.625785,-199.409,-64.1716,35619.2,-4891.12,-20585.4,185.869,121.507,-104.014,-1194.86,12918.4,-240.52,-32.9911,-27.1059,-149.243,-29959.4,-11529.3,9318.01,-24.2625,-113.349,-60.0607,4061.24,12895.3,-334.954,53.3768,-78.3069,-72.8685,20697.7,-18322.9,3561.63,51.7753,-54.5743,-57.689,12534.0,-3271.65,-865.494,0.663574,-34.5914,-44.9734
2.912,6432.72,-2005.5,9315.99,0.98985,-201.775,-64.4135,34401.3,-4555.39,-20792.1,177.611,116.859,-100.823,-1174.17,12905.2,-130.617,-33.3169,-26.5874,-150.561,-29226.4,-11213.5,8942.25,-21.3125,-114.086,-53.0953,4114.53,12989.0,-282.606,50.7952,-77.8932,-71.1442,20451.1,-17927.5,3382.94,59.2972,-68.3207,-57.0289,12533.7,-3364.42,-993.867,1.48231,-33.7456,-44.6985
2.913,6417.08,-1929.45,9375.12,1.36299,-204.139,-64.6351,33156.2,-4223.13,-20962.1,169.037,111.728,-97.2966,-1157.7,12889.1,-20.4041,-33.6282,-26.0644,-151.898,-28442.1,-10912.0,8553.99,-18.3898,-114.558,-46.0733,4169.09,13081.3,-230.829,48.1134,-77.4767,-69.4217,20183.7,-17511.7,3221.25,66.1596,-81.6542,-56.3341,12526.8,-3458.56,-1129.35,2.37584,-32.9276,-44.4308
2.914,6401.45,-1853.4,9434.25,1.73614,-206.502,-64.8567,31911.0,-3890.86,-21132.1,160.463,106.596,-93.77,-1141.23,12873.0,89.8086,-33.9395,-25.5414,-153.235,-27657.9,-10610.5,8165.73,-15.467,-115.031,-39.0514,4223.65,13173.6,-179.053,45.4317,-77.0602,-67.6991,19916.3,-17095.9,3059.55,73.022,-94.9877,-55.6393,12519.9,-3552.7,-1264.83,3.26938,-32.1097,-44.163
2.915,6385.81,-1777.35,9493.39,2.10928,-208.866,-65.0783,30665.8,-3558.6,-21302.2,151.888,101.464,-90.2433,-1124.76,12857.0,200.021,-34.2508,-25.0184,-154.572,-26873.6,-10309.0,7777.47,-12.5442,-115.503,-32.0295,4278.21,13265.8,-127.276,42.7499,-76.6437,-65.9765,19648.9,-16680.1,2897.86,79.8843,-108.321,-54.9445,12513.0,-3646.84,-1400.31,4.16292,-31.2917,-43.8953
2.916,6348.83,-1738.43,9534.78,2.50331,-211.392,-65.2561,29427.8,-3216.7,-21368.7,142.711,94.3942,-85.536,-1098.69,12861.5,298.732,-34.4351,-24.3844,-155.912,-25993.8,-10096.9,7383.28,-9.82074,-114.906,-24.7746,4320.23,13329.7,-107.361,39.8299,-76.199,-64.1946,19360.8,-16219.0,2803.69,83.3765,-119.04,-54.2192,12503.5,-3728.23,-1546.9,5.1313,-30.3282,-43.3043
2.917,6285.16,-1745.92,9554.01,2.92345,-214.122,-65.3793,28198.6,-2862.75,-21305.8,132.78,84.9012,-79.3529,-1060.63,12891.8,383.065,-34.4608,-23.6115,-157.256,-24994.4,-9996.7,6981.67,-7.34634,-112.971,-17.2287,4346.57,13358.0,-127.271,36.6123,-75.7193,-62.3385,19046.9,-15701.3,2793.94,82.6559,-126.491,-53.4556,12490.8,-3793.7,-1707.39,6.19323,-29.1828,-42.3093
2.918,6221.5,-1753.4,9573.23,3.3436,-216.852,-65.5024,26969.5,-2508.8,-21242.9,122.849,75.4081,-73.1699,-1022.56,12922.2,467.398,-34.4864,-22.8386,-158.601,-23995.0,-9896.5,6580.07,-4.87193,-111.037,-9.68267,4372.91,13386.3,-147.182,33.3946,-75.2395,-60.4824,18732.9,-15183.7,2784.18,81.9354,-133.941,-52.692,12478.0,-3859.17,-1867.87,7.25517,-28.0373,-41.3142
2.919,6157.83,-1760.89,9592.46,3.76374,-219.581,-65.6255,25740.3,-2154.85,-21180.0,112.918,65.9151,-66.9868,-984.488,12952.5,551.732,-34.5121,-22.0657,-159.946,-22995.7,-9796.29,6178.47,-2.39753,-109.102,-2.13669,4399.25,13414.7,-167.092,30.177,-74.7598,-58.6263,18418.9,-14666.0,2774.43,81.2148,-141.392,-51.9284,12465.3,-3924.64,-2028.36,8.31711,-26.8919,-40.3192
2.92,6094.17,-1768.38,9611.68,4.18388,-222.311,-65.7487,24511.1,-1800.91,-21117.1,102.987,56.4221,-60.8037,-946.42,12982.8,636.065,-34.5377,-21.2928,-161.291,-21996.3,-9696.08,5776.87,0.076872,-107.168,5.40929,4425.6,13443.0,-187.003,26.9593,-74.28,-56.7702,18105.0,-14148.3,2764.67,80.4942,-148.842,-51.1648,12452.5,-3990.11,-2188.84,9.37905,-25.7465,-39.3241
2.921,6073.76,-1691.52,9640.99,4.87011,-225.314,-65.7564,23522.4,-1462.82,-20939.8,92.0229,44.2229,-52.8185,-871.01,13000.9,772.002,-34.6323,-20.4811,-162.743,-21056.8,-9702.64,5369.22,2.071,-102.753,13.7074,4460.85,13405.1,-250.713,23.4569,-73.3165,-55.149,17755.5,-13631.1,2828.98,74.4499,-149.686,-50.3531,12426.6,-4000.77,-2342.44,10.0703,-24.849,-38.6203
2.922,6053.34,-1614.66,9670.3,5.55634,-228.318,-65.7641,22533.8,-1124.73,-20762.5,81.059,32.0237,-44.8334,-795.6,13019.1,907.939,-34.7268,-19.6693,-164.196,-20117.3,-9709.21,4961.57,4.06513,-98.3387,22.0054,4496.11,13367.2,-314.424,19.9545,-72.353,-53.5277,17406.1,-13113.9,2893.29,68.4055,-150.53,-49.5415,12400.7,-4011.44,-2496.03,10.7616,-23.9515,-37.9165
2.923,6032.92,-1537.8,9699.61,6.24258,-231.321,-65.7717,21545.1,-786.638,-20585.3,70.0952,19.8245,-36.8482,-720.19,13037.2,1043.88,-34.8214,-18.8576,-165.649,-19177.9,-9715.77,4553.92,6.05926,-93.9241,30.3035,4531.37,13329.3,-378.134,16.4521,-71.3895,-51.9064,17056.6,-12596.7,2957.61,62.3611,-151.373,-48.7298,12374.8,-4022.1,-2649.62,11.4528,-23.0541,-37.2126
2.924,6012.51,-1460.94,9728.91,6.92881,-234.324,-65.7794,20556.4,-448.549,-20408.0,59.1314,7.62523,-28.863,-644.781,13055.3,1179.81,-34.916,-18.0458,-167.101,-18238.4,-9722.33,4146.27,8.05339,-89.5096,38.6015,4566.62,13291.4,-441.845,12.9497,-70.426,-50.2851,16707.2,-12079.4,3021.92,56.3167,-152.217,-47.9182,12348.9,-4032.77,-2803.22,12.1441,-22.1566,-36.5088
2.925,5979.04,-1385.47,9757.78,7.52525,-237.414,-65.7311,19825.0,-205.162,-20126.9,48.0456,-5.00127,-20.8666,-576.832,13075.5,1296.97,-35.0228,-17.1359,-168.517,-17422.1,-9746.26,3797.02,9.77676,-84.0968,47.1137,4597.55,13228.0,-517.506,9.30875,-68.89,-48.936,16330.3,-11603.1,3089.73,49.1503,-150.05,-46.9165,12295.6,-3997.93,-2917.99,12.8495,-21.4821,-35.5678
2.926,5935.15,-1311.1,9786.29,8.04986,-240.573,-65.638,19299.4,-37.5378,-19762.7,36.8622,-17.9696,-12.8612,-514.853,13097.2,1399.11,-35.1395,-16.1474,-169.902,-16704.4,-9784.08,3494.49,11.2835,-77.8853,55.797,4625.02,13144.3,-602.728,5.55706,-66.8962,-47.8046,15931.4,-11159.4,3160.34,41.0864,-145.474,-45.7628,12220.4,-3926.7,-3001.72,13.5663,-20.986,-34.4372
2.927,5891.25,-1236.74,9814.79,8.57446,-243.732,-65.5448,18773.8,130.086,-19398.5,25.6789,-30.9379,-4.85576,-452.874,13119.0,1501.25,-35.2562,-15.1589,-171.288,-15986.7,-9821.9,3191.96,12.7903,-71.6739,64.4804,4652.49,13060.5,-687.95,1.80537,-64.9024,-46.6733,15532.5,-10715.8,3230.95,33.0224,-140.898,-44.6091,12145.2,-3855.46,-3085.44,14.283,-20.4899,-33.3065
2.928,5847.35,-1162.38,9843.3,9.09907,-246.891,-65.4517,18248.3,297.711,-19034.3,14.4955,-43.9062,3.14966,-390.894,13140.7,1603.39,-35.3729,-14.1704,-172.673,-15269.0,-9859.72,2889.43,14.297,-65.4625,73.1638,4679.96,12976.8,-773.172,-1.94632,-62.9085,-45.5419,15133.5,-10272.1,3301.56,24.9585,-136.322,-43.4554,12070.0,-3784.23,-3169.17,14.9998,-19.9938,-32.1758
2.929,5804.74,-1088.4,9869.32,9.62593,-250.061,-65.3779,17783.0,427.183,-18653.7,3.54771,-56.7431,11.0642,-328.94,13162.0,1705.27,-35.505,-13.2128,-174.051,-14583.7,-9904.78,2603.34,15.8018,-59.2287,81.8136,4705.41,12893.4,-856.116,-5.73133,-60.7812,-44.454,14718.1,-9841.03,3372.09,17.1014,-131.456,-42.2823,11994.1,-3708.33,-3257.54,15.7047,-19.5099,-31.0645
2.93,5772.42,-1017.49,9875.42,10.1708,-253.316,-65.459,17800.5,251.445,-18142.0,-5.51492,-68.5281,18.252,-267.186,13179.6,1805.12,-35.7605,-12.5033,-175.37,-14158.1,-10007.8,2448.87,17.2905,-52.8157,90.1947,4714.73,12812.5,-920.838,-9.78289,-57.5864,-43.7133,14169.9,-9510.18,3441.9,10.8996,-124.276,-40.9537,11912.5,-3595.1,-3383.11,16.3153,-19.124,-30.1075
2.931,5740.1,-946.576,9881.53,10.7158,-256.57,-65.54,17817.9,75.7065,-17630.2,-14.5776,-80.3131,25.4397,-205.433,13197.2,1904.96,-36.0159,-11.7937,-176.689,-13732.5,-10110.7,2294.4,18.7793,-46.4028,98.5758,4724.05,12731.5,-985.559,-13.8344,-54.3916,-42.9727,13621.8,-9179.34,3511.72,4.6978,-117.096,-39.6251,11831.0,-3481.87,-3508.68,16.9258,-18.7381,-29.1504
2.932,5707.77,-875.667,9887.63,11.2607,-259.825,-65.621,17835.4,-100.032,-17118.4,-23.6402,-92.0981,32.6275,-143.679,13214.9,2004.81,-36.2714,-11.0841,-178.008,-13306.8,-10213.7,2139.93,20.2681,-39.9899,106.957,4733.37,12650.6,-1050.28,-17.886,-51.1969,-42.232,13073.6,-8848.49,3581.53,-1.504,-109.916,-38.2965,11749.4,-3368.63,-3634.24,17.5364,-18.3522,-28.1934
2.933,5675.46,-804.758,9893.74,11.8056,-263.08,-65.702,17852.8,-275.77,-16606.7,-32.7028,-103.883,39.8152,-81.9254,13232.5,2104.66,-36.5269,-10.3745,-179.327,-12881.2,-10316.7,1985.46,21.7568,-33.5769,115.338,4742.69,12569.7,-1115.0,-21.9376,-48.0021,-41.4914,12525.5,-8517.65,3651.35,-7.70581,-102.736,-36.9679,11667.8,-3255.4,-3759.81,18.147,-17.9664,-27.2364
2.934,5656.39,-752.25,9904.66,12.2915,-266.407,-65.5726,18072.0,-472.581,-15969.3,-39.441,-113.988,46.6661,-47.2553,13251.6,2184.48,-36.6361,-9.73632,-180.586,-12662.9,-10453.1,1880.75,23.4366,-27.7457,123.251,4766.32,12451.9,-1185.67,-26.0709,-43.9172,-40.8634,11887.7,-8324.2,3712.67,-11.6929,-95.9701,-35.9167,11585.4,-3096.74,-3832.12,19.2474,-17.7925,-26.4782
2.935,5643.96,-708.943,9917.99,12.748,-269.769,-65.3379,18392.1,-679.927,-15269.2,-45.0169,-123.254,53.3487,-26.127,13271.6,2254.3,-36.6723,-9.13381,-181.814,-12548.2,-10606.1,1800.91,25.2119,-22.2054,130.931,4797.1,12315.7,-1259.32,-30.2452,-39.3872,-40.2918,11205.1,-8199.44,3769.73,-14.5726,-89.4114,-35.0042,11502.6,-2915.35,-3877.79,20.5928,-17.7246,-25.8193
2.936,5631.52,-665.636,9931.32,13.2044,-273.132,-65.1031,18712.2,-887.273,-14569.0,-50.5928,-132.519,60.0312,-4.99879,13291.5,2324.11,-36.7085,-8.53131,-183.042,-12433.5,-10759.2,1721.07,26.9872,-16.6651,138.61,4827.88,12179.5,-1332.97,-34.4195,-34.8572,-39.7202,10522.6,-8074.68,3826.8,-17.4524,-82.8526,-34.0916,11419.8,-2733.97,-3923.47,21.9381,-17.6567,-25.1605
2.937,5619.09,-622.328,9944.65,13.6609,-276.495,-64.8684,19032.2,-1094.62,-13868.9,-56.1687,-141.785,66.7138,16.1295,13311.5,2393.93,-36.7447,-7.9288,-184.27,-12318.8,-10912.3,1641.23,28.7624,-11.1248,146.29,4858.65,12043.3,-1406.61,-38.5937,-30.3272,-39.1486,9839.96,-7949.92,3883.87,-20.3321,-76.2938,-33.1791,11337.0,-2552.59,-3969.15,23.2835,-17.5888,-24.5016
2.938,5598.28,-588.515,9956.61,14.1085,-279.9,-64.6553,19361.2,-1271.31,-13150.7,-60.9117,-150.397,73.2051,38.9328,13323.9,2453.18,-36.8017,-7.32848,-185.522,-12266.1,-11081.3,1566.94,30.4884,-5.97947,153.712,4882.63,11914.8,-1464.22,-42.7307,-25.6147,-38.6939,9127.13,-7824.93,3956.26,-22.7387,-70.613,-32.3127,11271.5,-2359.28,-4014.43,24.7925,-17.505,-23.8949
2.939,5548.15,-587.932,9963.77,14.5251,-283.453,-64.5178,19721.2,-1340.71,-12369.6,-62.7393,-156.724,79.0273,67.5987,13309.8,2475.48,-36.9315,-6.73582,-186.859,-12430.4,-11305.9,1512.08,32.0417,-2.21636,160.237,4882.81,11813.3,-1465.67,-46.737,-20.2634,-38.6489,8308.43,-7699.16,4082.32,-23.4894,-68.0051,-31.6077,11266.2,-2124.22,-4058.34,26.8746,-17.3652,-23.4707
2.94,5498.02,-587.348,9970.94,14.9416,-287.006,-64.3803,20081.2,-1410.1,-11588.4,-64.5669,-163.05,84.8494,96.2646,13295.8,2497.78,-37.0613,-6.14316,-188.196,-12594.8,-11530.5,1457.23,33.595,1.54675,166.761,4882.98,11711.8,-1467.12,-50.7434,-14.912,-38.6038,7489.74,-7573.39,4208.37,-24.2401,-65.3972,-30.9026,11260.9,-1889.17,-4102.25,28.9566,-17.2255,-23.0465
2.941,5447.9,-586.764,9978.1,15.3581,-290.56,-64.2429,20441.2,-1479.5,-10807.3,-66.3946,-169.377,90.6716,124.931,13281.8,2520.08,-37.1911,-5.55049,-189.533,-12759.1,-11755.1,1402.37,35.1483,5.30986,173.285,4883.16,11610.3,-1468.58,-54.7498,-9.56061,-38.5587,6671.04,-7447.62,4334.42,-24.9909,-62.7893,-30.1976,11255.6,-1654.11,-4146.15,31.0386,-17.0857,-22.6223
2.942,5397.77,-586.181,9985.26,15.7747,-294.113,-64.1054,20801.2,-1548.9,-10026.1,-68.2222,-175.703,96.4938,153.597,13267.8,2542.38,-37.3209,-4.95783,-190.87,-12923.4,-11979.7,1347.51,36.7016,9.07296,179.81,4883.33,11508.7,-1470.03,-58.7561,-4.20924,-38.5136,5852.34,-7321.85,4460.47,-25.7416,-60.1813,-29.4925,11250.3,-1419.06,-4190.06,33.1206,-16.946,-22.1981
2.943,5369.57,-590.191,9939.16,15.9696,-297.805,-63.9928,21162.5,-1496.69,-9306.51,-68.0603,-179.551,101.002,212.357,13232.3,2541.25,-37.1253,-4.57924,-192.307,-13186.1,-12187.9,1300.82,37.692,11.2909,185.168,4935.32,11421.9,-1441.14,-62.3779,1.48683,-38.4593,5100.23,-7286.87,4510.41,-24.8242,-60.4258,-29.1356,11227.6,-1190.39,-4283.07,35.1147,-16.4301,-21.465
2.944,5347.63,-595.513,9877.83,16.1013,-301.537,-63.8873,21524.1,-1409.75,-8604.46,-67.3299,-182.691,105.135,279.715,13190.7,2533.43,-36.8368,-4.2618,-193.771,-13476.9,-12391.4,1256.46,38.5215,13.0675,190.193,5002.11,11339.3,-1403.59,-65.8897,7.28138,-38.4022,4367.15,-7277.83,4538.61,-23.4303,-61.4852,-28.878,11199.9,-963.543,-4390.11,37.0836,-15.8069,-20.6437
2.945,5325.68,-600.835,9816.5,16.2329,-305.269,-63.7819,21885.8,-1322.8,-7902.4,-66.5996,-185.832,109.267,347.074,13149.1,2525.61,-36.5482,-3.94437,-195.236,-13767.7,-12594.9,1212.1,39.3511,14.844,195.218,5068.9,11256.7,-1366.03,-69.4016,13.0759,-38.3452,3634.07,-7268.78,4566.81,-22.0363,-62.5446,-28.6205,11172.2,-736.699,-4497.15,39.0526,-15.1836,-19.8224
2.946,5303.74,-606.158,9755.18,16.3645,-309.001,-63.6765,22247.4,-1235.85,-7200.35,-65.8693,-188.972,113.4,414.432,13107.5,2517.8,-36.2596,-3.62694,-196.7,-14058.5,-12798.4,1167.74,40.1806,16.6205,200.243,5135.68,11174.1,-1328.47,-72.9135,18.8705,-38.2882,2900.99,-7259.74,4595.01,-20.6424,-63.6041,-28.3629,11144.6,-509.855,-4604.19,41.0216,-14.5603,-19.0011
2.947,5277.23,-603.395,9712.61,16.4872,-312.756,-63.6376,22569.4,-1150.51,-6480.85,-64.4179,-190.982,116.95,464.735,13088.3,2506.27,-35.9853,-3.33758,-198.057,-14337.1,-12980.0,1151.15,40.695,18.0516,204.83,5207.64,11102.0,-1256.53,-76.226,24.7248,-38.1583,2210.58,-7283.88,4580.26,-18.6145,-65.0959,-28.1371,11129.7,-288.6,-4700.67,42.5404,-13.8304,-18.1063
2.948,5241.58,-584.463,9707.55,16.5919,-316.558,-63.7319,22811.9,-1068.39,-5726.44,-61.5245,-190.732,119.335,480.925,13113.7,2487.33,-35.7393,-3.10438,-199.198,-14591.3,-13117.9,1190.1,40.5789,18.7918,208.542,5289.94,11050.9,-1115.8,-79.1398,30.6987,-37.8829,1605.51,-7374.37,4479.63,-15.3188,-67.4526,-27.9748,11140.6,-78.5201,-4776.03,43.1587,-12.8871,-17.0646
2.949,5205.93,-565.53,9702.49,16.6966,-320.36,-63.8261,23054.4,-986.264,-4972.04,-58.6312,-190.482,121.72,497.115,13139.1,2468.39,-35.4934,-2.87117,-200.338,-14845.5,-13255.8,1229.04,40.4629,19.532,212.254,5372.23,10999.9,-975.074,-82.0536,36.6726,-37.6074,1000.45,-7464.87,4379.0,-12.0231,-69.8092,-27.8124,11151.5,131.56,-4851.38,43.7771,-11.9439,-16.023
2.95,5170.27,-546.598,9697.43,16.8013,-324.162,-63.9204,23296.9,-904.139,-4217.64,-55.7378,-190.232,124.105,513.305,13164.6,2449.45,-35.2474,-2.63797,-201.479,-15099.7,-13393.7,1267.98,40.3469,20.2722,215.966,5454.53,10948.8,-834.349,-84.9674,42.6464,-37.332,395.381,-7555.36,4278.36,-8.72745,-72.1659,-27.65,11162.3,341.639,-4926.73,44.3954,-11.0007,-14.9813
2.951,5134.62,-527.665,9692.37,16.9061,-327.964,-64.0147,23539.4,-822.014,-3463.24,-52.8444,-189.982,126.49,529.495,13190.0,2430.51,-35.0015,-2.40476,-202.619,-15353.9,-13531.6,1306.93,40.2308,21.0124,219.677,5536.82,10897.8,-693.624,-87.8812,48.6203,-37.0565,-209.685,-7645.85,4177.73,-5.43176,-74.5225,-27.4877,11173.2,551.719,-5002.08,45.0138,-10.0575,-13.9396
2.952,5065.33,-543.625,9707.84,16.7011,-331.71,-64.1035,23728.4,-681.468,-3044.64,-50.7111,-187.058,128.157,566.442,13206.2,2392.54,-34.407,-2.53419,-203.703,-15471.8,-13658.6,1371.81,39.2109,20.6048,222.181,5600.07,10840.4,-538.727,-90.267,54.1637,-36.7446,-715.052,-7760.35,3907.48,-2.1833,-75.4,-27.8656,11168.8,669.991,-4994.05,44.2164,-9.24918,-12.7028
2.953,4991.84,-563.947,9725.87,16.4574,-335.449,-64.1917,23910.7,-533.619,-2668.01,-48.6729,-183.799,129.734,605.983,13221.2,2352.18,-33.769,-2.70895,-204.781,-15572.6,-13784.3,1439.94,38.078,20.0538,224.533,5660.93,10782.2,-382.058,-92.5867,59.6533,-36.4281,-1207.96,-7877.85,3616.03,1.05925,-76.0925,-28.311,11162.6,776.787,-4975.59,43.242,-8.45777,-11.4416
2.954,4918.34,-584.268,9743.9,16.2137,-339.189,-64.2798,24093.0,-385.771,-2291.39,-46.6346,-180.54,131.311,645.523,13236.2,2311.83,-33.1309,-2.88371,-205.858,-15673.5,-13910.0,1508.06,36.9451,19.5028,226.885,5721.8,10724.0,-225.39,-94.9065,65.1428,-36.1116,-1700.86,-7995.35,3324.58,4.30181,-76.7851,-28.7565,11156.4,883.583,-4957.13,42.2677,-7.66636,-10.1804
2.955,4844.85,-604.59,9761.93,15.97,-342.928,-64.368,24275.3,-237.922,-1914.76,-44.5963,-177.281,132.889,685.064,13251.2,2271.47,-32.4929,-3.05847,-206.935,-15774.4,-14035.6,1576.19,35.8121,18.9518,229.237,5782.66,10665.8,-68.7217,-97.2263,70.6324,-35.7952,-2193.77,-8112.85,3033.13,7.54436,-77.4777,-29.2019,11150.2,990.379,-4938.67,41.2933,-6.87495,-8.91913
2.956,4747.83,-617.428,9756.73,15.4199,-347.006,-64.6057,24335.3,53.7378,-1607.06,-43.2248,-172.638,134.738,734.256,13270.1,2230.4,-31.9252,-3.30037,-207.961,-15646.8,-14205.9,1526.64,34.302,18.6654,230.447,5840.45,10615.8,116.613,-99.2355,75.8187,-35.4012,-2643.37,-8185.37,2748.65,10.5562,-76.7224,-29.7159,11104.4,1087.89,-4937.85,40.1308,-6.16678,-7.74355
2.957,4621.42,-620.91,9722.5,14.4867,-351.508,-65.0304,24242.3,525.16,-1385.51,-42.6866,-166.263,136.929,795.51,13293.9,2188.44,-31.4455,-3.6262,-208.924,-15233.8,-14432.0,1329.99,32.3203,18.7096,230.229,5894.38,10576.0,337.781,-100.856,80.6258,-34.9104,-3038.85,-8201.67,2472.88,13.2796,-74.1572,-30.3155,11009.1,1173.81,-4959.08,38.7331,-5.56267,-6.67502
2.958,4495.01,-624.393,9688.26,13.5534,-356.011,-65.455,24149.4,996.583,-1163.96,-42.1485,-159.888,139.119,856.764,13317.7,2146.47,-30.9658,-3.95203,-209.886,-14820.8,-14658.0,1133.35,30.3386,18.7539,230.011,5948.31,10536.2,558.949,-102.477,85.4329,-34.4196,-3434.33,-8217.98,2197.12,16.003,-71.592,-30.915,10913.8,1259.72,-4980.32,37.3355,-4.95856,-5.60648
2.959,4368.59,-627.876,9654.02,12.6202,-360.513,-65.8797,24056.4,1468.01,-942.413,-41.6104,-153.513,141.31,918.018,13341.6,2104.5,-30.486,-4.27785,-210.849,-14407.7,-14884.0,936.704,28.3569,18.7982,229.793,6002.25,10496.4,780.118,-104.098,90.2399,-33.9288,-3829.81,-8234.28,1921.35,18.7263,-69.0268,-31.5146,10818.5,1345.63,-5001.55,35.9378,-4.35445,-4.53795
2.96,4242.18,-631.359,9619.78,11.687,-365.015,-66.3043,23963.4,1939.43,-720.863,-41.0722,-147.138,143.5,979.272,13365.4,2062.54,-30.0063,-4.60368,-211.812,-13994.7,-15110.1,740.058,26.3752,18.8424,229.575,6056.18,10456.6,1001.29,-105.719,95.047,-33.4379,-4225.29,-8250.59,1645.59,21.4497,-66.4617,-32.1142,10723.3,1431.55,-5022.79,34.5401,-3.75034,-3.46942
2.961,4144.01,-577.328,9645.54,10.2884,-370.124,-66.6418,22467.1,1111.58,-2600.28,-42.737,-137.618,141.703,1054.61,13385.4,2007.3,-29.4926,-5.22811,-213.035,-12133.7,-15340.4,-339.797,22.2237,23.1144,224.217,6078.75,10403.8,1238.45,-106.562,98.6904,-32.9112,-4495.42,-8267.08,1911.47,24.7996,-62.5713,-33.3167,10636.1,1410.42,-4989.03,34.9624,-2.04704,-3.05204
2.962,4045.84,-523.298,9671.3,8.88984,-375.234,-66.9793,20970.9,283.728,-4479.71,-44.4018,-128.099,139.907,1129.95,13405.4,1952.07,-28.9789,-5.85254,-214.258,-10272.6,-15570.7,-1419.65,18.0723,27.3864,218.858,6101.32,10351.0,1475.62,-107.405,102.334,-32.3844,-4765.56,-8283.57,2177.34,28.1495,-58.6808,-34.5192,10549.0,1389.3,-4955.28,35.3846,-0.343742,-2.63466
2.963,3947.67,-469.267,9697.05,7.49126,-380.343,-67.3168,19474.6,-544.122,-6359.13,-46.0665,-118.579,138.11,1205.28,13425.5,1896.84,-28.4653,-6.47697,-215.481,-8411.59,-15801.0,-2499.51,13.9208,31.6584,213.499,6123.88,10298.2,1712.79,-108.247,105.977,-31.8577,-5035.69,-8300.07,2443.22,31.4994,-54.7904,-35.7217,10461.8,1368.17,-4921.52,35.8069,1.35956,-2.21728
2.964,3849.5,-415.237,9722.81,6.09269,-385.452,-67.6543,17978.3,-1371.97,-8238.55,-47.7313,-109.06,136.313,1280.62,13445.5,1841.6,-27.9516,-7.10141,-216.705,-6550.56,-16031.3,-3579.36,9.76933,35.9303,208.141,6146.45,10245.4,1949.96,-109.09,109.62,-31.3309,-5305.83,-8316.56,2709.1,34.8493,-50.9,-36.9243,10374.7,1347.05,-4887.77,36.2292,3.06286,-1.7999
2.965,3808.35,-413.084,9845.61,4.47423,-390.937,-68.0978,13508.1,-2949.25,-7342.28,-51.0883,-112.665,135.578,1342.26,13464.1,1819.6,-27.4288,-7.93407,-217.911,-3789.7,-15971.7,-4415.11,2.03507,33.849,201.141,6165.65,10193.9,2148.41,-109.371,112.225,-30.7386,-5453.11,-8428.03,3011.38,38.5037,-47.7863,-38.5875,10370.7,1292.3,-4792.98,39.9286,5.92546,-1.97689
2.966,3812.81,-452.435,10046.0,2.67986,-396.721,-68.6261,6658.66,-5126.08,-4225.46,-55.799,-126.77,135.692,1392.96,13481.7,1824.19,-26.8987,-8.93333,-219.103,-308.966,-15680.2,-5055.57,-8.56541,26.6849,192.828,6182.15,10143.3,2315.9,-109.202,113.999,-30.0939,-5502.11,-8615.49,3342.77,42.4016,-45.2941,-40.6193,10433.3,1210.66,-4649.38,46.2497,9.71552,-2.62939
2.967,3817.28,-491.785,10246.5,0.8855,-402.506,-69.1545,-190.77,-7302.91,-1108.63,-60.5097,-140.876,135.807,1443.65,13499.3,1828.78,-26.3686,-9.93258,-220.296,3171.77,-15388.6,-5696.04,-19.1659,19.5209,184.514,6198.65,10092.7,2483.38,-109.034,115.772,-29.4491,-5551.11,-8802.95,3674.16,46.2995,-42.8019,-42.6512,10495.8,1129.02,-4505.78,52.5709,13.5056,-3.28188
2.968,3821.74,-531.136,10446.9,-0.908864,-408.29,-69.6828,-7040.19,-9479.73,2008.19,-65.2204,-154.981,135.921,1494.34,13516.8,1833.37,-25.8386,-10.9318,-221.488,6652.5,-15097.1,-6336.5,-29.7664,12.3568,176.201,6215.15,10042.2,2650.86,-108.865,117.546,-28.8044,-5600.11,-8990.41,4005.55,50.1974,-40.3096,-44.683,10558.4,1047.38,-4362.17,58.8921,17.2956,-3.93437
2.969,3834.15,-575.923,10662.7,-2.71946,-414.156,-70.2286,-14778.6,-11105.3,6648.83,-65.3871,-178.299,138.389,1550.25,13546.5,1853.78,-25.3017,-11.8962,-222.693,10408.0,-14850.6,-6782.12,-40.2861,4.69728,168.079,6232.21,9989.32,2808.93,-108.568,119.062,-28.1448,-5639.87,-9159.32,4209.0,53.2367,-37.423,-46.6864,10642.4,961.585,-4168.3,65.8588,21.2129,-4.76075
2.97,3910.14,-664.205,11001.3,-4.65994,-420.671,-70.9136,-29628.4,-8320.35,23479.9,-29.2016,-275.31,159.678,1647.9,13672.5,2000.81,-24.7104,-12.5812,-223.994,16362.0,-14964.4,-5668.98,-50.1599,-6.92617,161.482,6253.78,9918.28,2891.62,-107.246,118.518,-27.3669,-5605.66,-9179.86,3388.94,49.4076,-31.3817,-48.4627,10898.4,842.516,-3572.26,77.9907,26.1482,-6.97822
2.971,3986.13,-752.487,11339.9,-6.60042,-427.186,-71.5987,-44478.2,-5535.44,40311.0,6.98401,-372.322,180.968,1745.54,13798.6,2147.83,-24.119,-13.2662,-225.294,22315.9,-15078.2,-4555.84,-60.0336,-18.5496,154.885,6275.34,9847.24,2974.31,-105.923,117.974,-26.5889,-5571.44,-9200.4,2568.87,45.5786,-25.3404,-50.2391,11154.3,723.447,-2976.22,90.1226,31.0835,-9.19569
2.972,4062.11,-840.77,11678.6,-8.5409,-433.701,-72.2837,-59328.0,-2750.53,57142.2,43.1696,-469.333,202.258,1843.19,13924.6,2294.86,-23.5277,-13.9513,-226.595,28269.9,-15192.0,-3442.7,-69.9074,-30.173,148.289,6296.91,9776.19,3057.0,-104.601,117.43,-25.811,-5537.23,-9220.95,1748.81,41.7495,-19.299,-52.0154,11410.3,604.378,-2380.17,102.254,36.0188,-11.4132
2.973,4138.1,-929.052,12017.2,-10.4814,-440.216,-72.9687,-74177.8,34.3804,73973.3,79.3551,-566.345,223.548,1940.84,14050.7,2441.89,-22.9364,-14.6363,-227.896,34223.8,-15305.7,-2329.56,-79.7812,-41.7965,141.692,6318.47,9705.15,3139.69,-103.278,116.886,-25.033,-5503.02,-9241.49,928.744,37.9204,-13.2577,-53.7917,11666.3,485.308,-1784.13,114.386,40.9541,-13.6306
2.974,4140.15,-867.559,12250.0,-12.6462,-447.124,-73.2582,-74915.0,-1044.4,70007.3,133.595,-622.808,237.277,2159.22,14355.4,2713.55,-22.4561,-14.776,-228.78,40744.2,-16845.0,1305.15,-59.0014,-56.2238,138.452,6370.09,9672.34,3222.02,-101.193,114.877,-24.1958,-5412.11,-9352.62,-240.66,34.9384,-2.22348,-53.6723,11866.1,511.452,-651.705,124.419,42.9673,-15.9172
2.975,4105.25,-731.179,12430.0,-14.9232,-454.228,-73.3499,-68595.8,-4055.03,55642.8,196.862,-658.997,247.226,2437.97,14749.5,3047.53,-22.0313,-14.6431,-229.457,47547.9,-19096.9,6200.64,-22.8949,-72.0531,136.89,6436.73,9658.64,3304.16,-98.7251,112.136,-23.3291,-5292.84,-9509.05,-1584.73,32.3799,11.3072,-52.6049,12037.9,610.202,748.914,133.402,43.5194,-18.2384
2.976,4070.34,-594.798,12610.0,-17.2002,-461.333,-73.4417,-62276.6,-7065.67,41278.3,260.13,-695.187,257.175,2716.72,15143.6,3381.51,-21.6065,-14.5102,-230.134,54351.5,-21348.8,11096.1,13.2115,-87.8824,135.328,6503.37,9644.94,3386.31,-96.2576,109.395,-22.4623,-5173.57,-9665.48,-2928.81,29.8214,24.8378,-51.5376,12209.6,708.952,2149.53,142.385,44.0716,-20.5596
2.977,4035.43,-458.418,12790.0,-19.4772,-468.437,-73.5334,-55957.4,-10076.3,26913.8,323.397,-731.376,267.124,2995.47,15537.8,3715.49,-21.1817,-14.3773,-230.81,61155.2,-23600.8,15991.6,49.318,-103.712,133.766,6570.02,9631.25,3468.45,-93.7902,106.653,-21.5955,-5054.31,-9821.91,-4272.88,27.2628,38.3685,-50.4703,12381.3,807.702,3550.15,151.369,44.6238,-22.8808
2.978,3975.14,-316.286,12933.7,-21.6776,-475.673,-73.6941,-45593.4,-10284.6,15277.5,352.187,-749.07,278.771,3321.79,15961.6,4022.39,-20.401,-14.8203,-231.235,65795.3,-25702.6,19611.9,82.0765,-112.373,139.233,6668.24,9639.85,3526.47,-91.1801,103.808,-20.727,-4857.36,-10151.7,-5172.76,28.0349,54.5318,-47.8517,12511.0,929.122,4975.68,157.665,44.0014,-24.8551
2.979,3826.04,-154.024,12950.3,-23.6102,-483.369,-74.0962,-21072.7,-684.838,13189.7,260.305,-702.032,296.361,3814.63,16489.7,4234.49,-18.3743,-17.2788,-230.778,62863.2,-27279.3,18769.0,103.117,-95.9478,169.304,6877.0,9726.52,3500.06,-88.0708,100.598,-19.8525,-4388.5,-11088.4,-4517.97,40.464,79.9097,-39.8034,12493.6,1129.88,6488.4,154.556,39.2683,-25.6149
2.98,3676.94,8.23858,12966.9,-25.5427,-491.064,-74.4983,3448.12,8914.94,11101.9,168.422,-654.994,313.951,4307.47,17017.8,4446.59,-16.3476,-19.7374,-230.321,59931.0,-28855.9,17926.1,124.157,-79.5224,199.375,7085.77,9813.18,3473.65,-84.9615,97.3875,-18.978,-3919.65,-12025.0,-3863.18,52.893,105.288,-31.7552,12476.2,1330.65,8001.12,151.448,34.5351,-26.3748
2.981,3527.83,170.501,12983.5,-27.4753,-498.76,-74.9004,27968.9,18514.7,9014.16,76.5404,-607.956,331.541,4800.3,17545.9,4658.69,-14.321,-22.1959,-229.864,56998.9,-30432.6,17083.3,145.198,-63.0969,229.445,7294.53,9899.84,3447.24,-81.8522,94.1774,-18.1035,-3450.79,-12961.7,-3208.39,65.3221,130.665,-23.7069,12458.8,1531.41,9513.83,148.339,29.802,-27.1347
2.982,3378.73,332.763,13000.1,-29.4079,-506.455,-75.3025,52489.7,28114.5,6926.38,-15.3417,-560.918,349.132,5293.14,18074.0,4870.79,-12.2943,-24.6544,-229.407,54066.7,-32009.2,16240.4,166.238,-46.6715,259.516,7503.3,9986.51,3420.83,-78.743,90.9672,-17.229,-2981.94,-13898.4,-2553.6,77.7511,156.043,-15.6587,12441.3,1732.17,11026.6,145.231,25.0688,-27.8946
2.983,3353.56,121.25,12860.3,-30.432,-513.547,-76.3915,73332.8,38221.4,11883.8,-121.169,-469.171,324.934,5694.34,18379.1,4616.63,-11.9095,-26.6496,-229.403,47536.3,-30895.8,10397.8,159.242,-0.221191,293.748,7774.76,10202.5,3271.25,-75.8691,88.5914,-16.3214,-1781.36,-15393.5,290.825,92.2777,176.216,-6.56937,12276.7,1739.84,11962.3,131.998,20.7174,-28.198
2.984,3363.81,-197.057,12675.8,-31.1966,-520.466,-77.6767,93125.3,48473.2,18854.1,-230.981,-364.652,288.797,6069.35,18620.6,4229.26,-11.9938,-28.5123,-229.529,39977.8,-29013.7,3126.7,144.235,54.8076,329.169,8064.13,10455.5,3086.48,-73.0624,86.4539,-15.4043,-371.722,-17048.2,3760.86,107.403,194.901,2.81739,12070.0,1692.35,12733.2,115.874,16.4752,-28.3709
2.985,3374.05,-515.363,12491.3,-31.9612,-527.385,-78.9618,112918.0,58725.0,25824.4,-340.793,-260.132,252.66,6444.37,18862.0,3841.88,-12.0782,-30.375,-229.654,32419.3,-27131.7,-4144.38,129.228,109.836,364.589,8353.5,10708.5,2901.71,-70.2558,84.3164,-14.4872,1037.92,-18702.9,7230.89,122.529,213.586,12.2041,11863.3,1644.85,13504.1,99.7494,12.2329,-28.5439
2.986,3384.29,-833.67,12306.7,-32.7258,-534.304,-80.247,132710.0,68976.7,32794.6,-450.605,-155.612,216.523,6819.39,19103.4,3454.5,-12.1625,-32.2378,-229.779,24860.8,-25249.6,-11415.5,114.222,164.865,400.01,8642.87,10961.4,2716.93,-67.4491,82.1789,-13.5701,2447.56,-20357.6,10700.9,137.655,232.272,21.5909,11656.7,1597.35,14275.0,83.6249,7.99059,-28.7169
2.987,3495.9,-1264.57,12061.9,-32.723,-540.891,-81.7438,143704.0,70344.1,35142.2,-536.877,-61.2011,172.232,7146.5,19283.1,3019.24,-12.9913,-33.3093,-230.369,17673.4,-23556.0,-17365.6,100.573,226.537,424.491,8907.52,11257.7,2486.81,-64.7139,80.4901,-12.3523,4052.43,-21590.0,13562.4,145.295,240.626,28.3907,11468.7,1439.6,14750.5,66.6949,4.78774,-29.3245
2.988,3810.25,-1920.66,11696.3,-31.1854,-546.813,-83.6638,137102.0,53942.5,28244.1,-576.071,12.9908,111.632,7377.8,19339.5,2488.2,-15.3089,-32.7985,-231.888,11228.5,-22239.3,-20673.8,89.6413,301.496,427.093,9122.72,11640.7,2166.0,-62.1215,79.6987,-10.533,6047.78,-21977.8,15206.8,137.963,228.316,30.0164,11318.3,1061.35,14635.3,48.1539,3.66374,-30.8012
2.989,4124.6,-2576.75,11330.7,-29.6478,-552.736,-85.5837,130499.0,37540.9,21346.0,-615.264,87.1827,51.0324,7609.11,19395.8,1957.17,-17.6265,-32.2876,-233.407,4783.48,-20922.6,-23981.9,78.7094,376.454,429.695,9337.92,12023.7,1845.19,-59.5291,78.9072,-8.71372,8043.12,-22365.6,16851.2,130.631,216.007,31.6421,11167.9,683.098,14520.1,29.6128,2.53975,-32.2779
2.99,4438.94,-3232.84,10965.1,-28.1102,-558.658,-87.5037,123897.0,21139.3,14448.0,-654.457,161.375,-9.5674,7840.41,19452.2,1426.13,-19.9441,-31.7768,-234.925,-1661.5,-19605.8,-27290.1,67.7775,451.412,432.297,9553.12,12406.7,1524.38,-56.9368,78.1158,-6.89442,10038.5,-22753.4,18495.6,123.299,203.698,33.2678,11017.4,304.847,14404.9,11.0718,1.41575,-33.7546
2.991,4753.29,-3888.93,10599.5,-26.5725,-564.58,-89.4236,117294.0,4737.65,7549.93,-693.651,235.567,-70.1672,8071.71,19508.5,895.09,-22.2617,-31.2659,-236.444,-8106.48,-18289.1,-30598.3,56.8455,526.371,434.899,9768.32,12789.7,1203.56,-54.3444,77.3244,-5.07513,12033.8,-23141.2,20139.9,115.967,191.389,34.8936,10867.0,-73.4031,14289.7,-7.46921,0.291757,-35.2313
2.992,5240.79,-4409.34,10185.4,-22.5694,-569.76,-91.2891,102199.0,-9927.27,-857.892,-592.886,258.359,-96.0731,8259.93,19554.2,443.002,-24.5675,-28.6536,-238.085,-12707.2,-18943.3,-26868.8,31.586,563.411,427.645,9899.0,13094.7,903.885,-54.1706,77.7505,-2.80045,13492.8,-22660.4,18894.2,97.7354,167.333,31.8176,10917.4,-590.165,13500.3,-18.4291,-0.067594,-37.136
2.993,5749.93,-4912.78,9765.2,-18.2581,-574.847,-93.1477,86041.3,-24375.1,-9454.43,-474.627,274.726,-117.642,8442.77,19598.5,0.782263,-26.872,-25.7786,-239.741,-17077.4,-19843.9,-22259.7,4.53544,595.711,419.159,10019.1,13389.9,606.847,-54.2993,78.3289,-0.468845,14884.7,-22071.1,17287.2,78.1413,141.808,28.154,10992.8,-1124.24,12626.6,-28.4414,-0.331364,-39.0943
2.994,6259.07,-5416.22,9345.04,-13.9467,-579.934,-95.0063,69884.0,-38823.0,-18051.0,-356.368,291.093,-139.211,8625.61,19642.9,-441.438,-29.1764,-22.9037,-241.398,-21447.6,-20744.5,-17650.5,-22.5151,628.011,410.673,10139.2,13685.1,309.809,-54.4279,78.9072,1.86276,16276.6,-21481.8,15680.1,58.5473,116.284,24.4904,11068.3,-1658.32,11752.8,-38.4537,-0.595134,-41.0526
2.995,6768.22,-5919.67,8924.89,-9.63539,-585.022,-96.865,53726.7,-53270.8,-26647.5,-238.108,307.461,-160.78,8808.45,19687.2,-883.657,-31.4808,-20.0287,-243.054,-25817.8,-21645.1,-13041.3,-49.5656,660.312,402.187,10259.4,13980.3,12.7704,-54.5565,79.4855,4.19436,17668.6,-20892.5,14073.1,38.9533,90.7599,20.8268,11143.8,-2192.39,10879.1,-48.4659,-0.858904,-43.0109
2.996,7345.45,-6254.43,8533.33,-5.07539,-589.88,-98.5034,36893.7,-56964.9,-24463.1,-186.884,275.696,-164.28,9015.76,19713.1,-1323.53,-34.1566,-15.3336,-244.809,-29187.3,-22928.7,-8371.14,-66.9933,661.082,397.629,10314.2,14244.4,-125.327,-56.1656,80.1214,6.41933,18669.0,-20300.1,11187.4,26.0087,77.9126,20.8526,11235.7,-2632.53,9759.51,-54.8154,-0.613588,-44.4446
2.997,8007.79,-6378.35,8177.51,-0.204545,-594.453,-99.8666,19216.0,-47217.0,-8802.51,-219.453,183.765,-145.193,9253.66,19715.8,-1760.48,-37.2968,-8.36335,-246.688,-31305.8,-24690.9,-3624.63,-72.3924,622.441,397.979,10287.5,14469.5,-64.7493,-59.6255,80.8293,8.51101,19180.1,-19703.7,6703.27,21.376,80.9116,25.4902,11348.1,-2955.25,8332.49,-56.5863,0.268085,-45.2227
2.998,8670.14,-6502.27,7821.7,4.6663,-599.025,-101.23,1538.42,-37469.1,6858.08,-252.022,91.8339,-126.106,9491.56,19718.6,-2197.43,-40.4369,-1.39309,-248.568,-33424.4,-26453.1,1121.88,-77.7915,583.799,398.329,10260.9,14694.7,-4.17131,-63.0853,81.5372,10.6027,19691.2,-19107.4,2219.15,16.7433,83.9106,30.1278,11460.6,-3277.97,6905.48,-58.3572,1.14976,-46.0008
2.999,9332.48,-6626.19,7465.88,9.53714,-603.597,-102.593,-16139.2,-27721.1,22518.7,-284.592,-0.0968808,-107.02,9729.45,19721.3,-2634.38,-43.5771,5.57717,-250.447,-35542.9,-28215.3,5868.4,-83.1906,545.158,398.68,10234.2,14919.8,56.4067,-66.5451,82.2451,12.6944,20202.2,-18511.0,-2264.97,12.1106,86.9096,34.7653,11573.0,-3600.7,5478.46,-60.1282,2.03143,-46.7788
3.0,9994.83,-6750.11,7110.07,14.408,-608.17,-103.956,-33816.8,-17973.2,38179.3,-317.161,-92.0277,-87.9326,9967.35,19724.1,-3071.33,-46.7172,12.5474,-252.326,-37661.4,-29977.5,10614.9,-88.5898,506.516,399.03,10207.5,15145.0,116.985,-70.005,82.953,14.786,20713.3,-17914.7,-6749.09,7.47789,89.9087,39.4029,11685.5,-3923.42,4051.44,-61.8991,2.9131,-47.5569
3.001,10749.7,-6335.62,6944.88,15.2626,-611.972,-104.593,-35518.6,-9926.29,30081.2,-308.626,-138.382,-55.6457,10119.4,19724.4,-3466.65,-51.6007,23.9208,-255.104,-38423.6,-32030.1,12008.4,-78.6593,456.532,390.893,9991.02,15208.3,432.939,-74.8395,82.7364,16.3074,19967.2,-17729.4,-9466.23,25.7779,119.731,50.8205,11413.5,-4074.65,2899.01,-63.2644,5.33363,-46.8572
3.002,11504.6,-5921.14,6779.7,16.1172,-615.775,-105.231,-37220.3,-1879.43,21983.2,-300.09,-184.736,-23.3587,10271.4,19724.7,-3861.97,-56.4842,35.2941,-257.882,-39185.8,-34082.8,13401.8,-68.7288,406.549,382.756,9774.52,15271.5,748.893,-79.674,82.5199,17.8287,19221.2,-17544.2,-12183.4,44.078,149.554,62.2381,11141.6,-4225.88,1746.58,-64.6297,7.75415,-46.1574
3.003,12259.5,-5506.65,6614.52,16.9718,-619.577,-105.868,-38922.1,6167.44,13885.2,-291.555,-231.09,8.92821,10423.4,19725.0,-4257.3,-61.3677,46.6674,-260.66,-39947.9,-36135.5,14795.3,-58.7984,356.565,374.619,9558.02,15334.8,1064.85,-84.5085,82.3034,19.35,18475.1,-17359.0,-14900.5,62.378,179.377,73.6557,10869.7,-4377.1,594.148,-65.995,10.1747,-45.4577
3.004,13014.4,-5092.17,6449.33,17.8265,-623.379,-106.505,-40623.8,14214.3,5787.16,-283.02,-277.444,41.2152,10575.4,19725.3,-4652.62,-66.2512,58.0408,-263.438,-40710.1,-38188.2,16188.8,-48.8679,306.581,366.482,9341.52,15398.1,1380.8,-89.343,82.0869,20.8714,17729.0,-17173.7,-17617.7,80.678,209.199,85.0733,10597.7,-4528.33,-558.284,-67.3602,12.5952,-44.758
3.005,13902.9,-4642.46,6866.9,16.8961,-625.866,-106.902,-35256.4,15447.8,4537.44,-264.546,-279.963,55.2729,10456.9,19556.4,-5066.93,-72.3542,70.034,-267.562,-40808.7,-38805.9,17199.4,-39.6035,257.497,355.682,9000.01,15369.6,1601.94,-93.4997,81.7364,21.9686,16323.0,-17002.5,-18467.3,102.27,234.756,93.8947,10113.8,-4568.98,-1198.73,-68.0281,13.8908,-44.263
3.006,14898.4,-4164.57,7750.68,14.5378,-627.299,-107.106,-24233.6,11230.5,8766.38,-238.122,-247.413,54.7472,10122.0,19252.4,-5496.42,-79.433,82.5231,-272.763,-40376.5,-38275.5,17903.9,-30.8719,209.132,342.753,8558.48,15267.8,1747.22,-97.1143,81.2786,22.7267,14389.0,-16842.4,-17822.8,126.494,256.901,100.639,9460.42,-4521.16,-1429.59,-68.138,14.2865,-43.932
3.007,15893.9,-3686.69,8634.45,12.1795,-628.733,-107.31,-13210.9,7013.23,12995.3,-211.697,-214.863,54.2215,9787.21,18948.3,-5925.92,-86.5117,95.0122,-277.963,-39944.2,-37745.1,18608.3,-22.1404,160.768,329.823,8116.96,15166.0,1892.5,-100.729,80.8209,23.4847,12455.0,-16682.4,-17178.4,150.719,279.045,107.383,8806.99,-4473.33,-1660.46,-68.2479,14.6821,-43.6009
3.008,16889.4,-3208.81,9518.23,9.8212,-630.167,-107.514,-2188.08,2795.96,17224.3,-185.273,-182.314,53.6959,9452.37,18644.2,-6355.42,-93.5904,107.501,-283.164,-39512.0,-37214.7,19312.7,-13.4088,112.403,316.894,7675.43,15064.2,2037.78,-104.343,80.3632,24.2428,10520.9,-16522.3,-16534.0,174.944,301.19,114.128,8153.57,-4425.51,-1891.32,-68.3578,15.0778,-43.2699
3.009,17950.6,-2774.75,10286.8,7.62118,-630.772,-107.494,8320.02,-1627.53,20921.3,-157.722,-147.628,52.4529,9031.09,18326.1,-6786.33,-101.034,119.626,-288.496,-38886.9,-36535.5,19938.4,-3.98143,64.896,303.518,7207.71,14937.3,2163.52,-107.828,79.9206,24.8345,8553.33,-16367.3,-15626.3,196.454,319.707,119.128,7513.99,-4340.65,-2039.97,-67.9663,14.7722,-42.999
3.01,19536.9,-2691.34,10134.1,6.6875,-624.751,-105.684,14710.7,-7700.79,20363.6,-121.16,-95.8592,45.4717,7918.35,17895.6,-7228.54,-111.396,128.832,-294.885,-36719.2,-34666.0,19933.4,11.0123,24.2541,286.576,6530.35,14609.5,2132.94,-110.273,79.5983,24.0957,6317.06,-16252.8,-12613.0,196.241,309.204,110.177,6985.19,-3959.56,-1530.95,-63.5634,8.85682,-43.2096
3.011,21123.3,-2607.93,9981.31,5.75381,-618.729,-103.873,21101.3,-13774.0,19805.8,-84.5987,-44.09,38.4905,6805.6,17465.1,-7670.75,-121.757,138.038,-301.274,-34551.6,-32796.6,19928.5,26.0059,-16.3878,269.634,5853.0,14281.8,2102.36,-112.718,79.276,23.3569,4080.79,-16138.3,-9599.57,196.029,298.702,101.226,6456.39,-3578.47,-1021.94,-59.1606,2.94141,-43.4202
3.012,22709.7,-2524.52,9828.54,4.82013,-612.708,-102.062,27492.0,-19847.3,19248.1,-48.037,7.67926,31.5093,5692.85,17034.6,-8112.96,-132.119,147.244,-307.663,-32384.0,-30927.1,19923.5,40.9996,-57.0298,252.692,5175.65,13954.0,2071.78,-115.163,78.9537,22.6182,1844.52,-16023.8,-6586.18,195.817,288.199,92.275,5927.59,-3197.38,-512.919,-54.7577,-2.97399,-43.6308
3.013,24296.1,-2441.11,9675.78,3.88644,-606.687,-100.252,33882.6,-25920.6,18690.3,-11.4754,59.4485,24.5282,4580.1,16604.1,-8555.17,-142.48,156.45,-314.052,-30216.3,-29057.7,19918.6,55.9933,-97.6717,235.75,4498.3,13626.3,2041.2,-117.608,78.6314,21.8794,-391.749,-15909.2,-3572.8,195.604,277.697,83.324,5398.79,-2816.28,-3.902,-50.3548,-8.8894,-43.8414
3.014,26075.4,-3050.56,8715.81,6.53245,-594.304,-98.4326,33559.2,-26299.0,17275.8,5.40917,78.0703,21.9468,3039.76,16479.6,-8560.11,-164.349,166.802,-319.358,-26732.6,-27116.9,18801.1,68.2955,-128.792,215.122,3728.61,13361.6,2124.21,-119.777,76.7629,20.9165,-2458.57,-15427.3,-1623.32,181.192,254.994,68.5517,5193.63,-2295.53,375.949,-44.29,-16.5317,-43.6689
3.015,27951.3,-4006.42,7352.23,10.9683,-578.74,-96.6095,29878.8,-23830.0,15432.9,12.4552,80.1184,21.5653,1285.61,16508.1,-8346.41,-191.972,177.726,-324.122,-22590.9,-25140.4,17127.4,79.2518,-155.151,192.65,2912.75,13128.4,2264.0,-121.809,74.1213,19.8416,-4440.67,-14761.8,-205.785,159.679,226.19,50.8689,5150.29,-1704.94,691.216,-37.3942,-25.0374,-43.3048
3.016,29827.1,-4962.29,5988.65,15.4041,-563.177,-94.7864,26198.3,-21361.0,13590.1,19.5011,82.1665,21.1838,-468.544,16536.6,-8132.72,-219.595,188.65,-328.886,-18449.1,-23163.9,15453.6,90.2082,-181.511,170.179,2096.89,12895.1,2403.79,-123.841,71.4796,18.7667,-6422.76,-14096.2,1211.75,138.166,197.387,33.186,5106.95,-1114.35,1006.48,-30.4984,-33.5431,-42.9408
3.017,31702.9,-5918.16,4625.08,19.84,-547.614,-92.9633,22517.8,-18892.1,11747.2,26.5471,84.2146,20.8023,-2222.69,16565.1,-7919.02,-247.218,199.574,-333.65,-14307.4,-21187.4,13779.9,101.165,-207.87,147.708,1281.03,12661.9,2543.58,-125.873,68.838,17.6918,-8404.86,-13430.6,2629.28,116.654,168.584,15.5031,5063.62,-523.768,1321.75,-23.6027,-42.0488,-42.5767
3.018,33366.8,-6882.18,3710.16,25.0809,-531.806,-91.3002,18914.4,-15478.3,10538.7,30.2245,82.6026,22.1262,-4018.85,16763.0,-7431.17,-272.91,208.555,-337.325,-10270.1,-18965.6,11940.6,109.661,-231.069,127.908,482.821,12474.1,2678.37,-127.623,65.5109,16.8848,-10323.4,-12743.5,3743.84,94.8288,139.641,-1.72548,5094.16,92.3213,1555.06,-16.851,-49.708,-42.101
3.019,34288.8,-7874.74,4365.55,33.1395,-515.143,-90.1973,15580.5,-8757.77,11550.8,22.1115,68.1804,29.4187,-5962.04,17554.0,-5983.8,-291.842,210.736,-337.187,-6598.03,-15885.1,9521.88,109.55,-243.205,117.459,-253.605,12445.2,2795.64,-128.388,59.7848,17.0155,-12019.3,-11980.9,3797.99,71.9103,110.206,-17.364,5383.27,797.671,1501.51,-10.6039,-54.4045,-41.2349
3.02,35210.7,-8867.29,5020.93,41.1981,-498.481,-89.0944,12246.6,-2037.25,12562.9,13.9986,53.7582,36.7113,-7905.22,18345.1,-4536.43,-310.775,212.917,-337.048,-2926.01,-12804.7,7103.14,109.439,-255.342,107.01,-990.031,12416.2,2912.92,-129.154,54.0587,17.1462,-13715.3,-11218.3,3852.15,48.9918,80.7709,-33.0026,5672.39,1503.02,1447.96,-4.35683,-59.101,-40.3688
3.021,36132.7,-9859.85,5676.32,49.2567,-481.818,-87.9915,8912.66,4683.27,13575.0,5.88561,39.336,44.0039,-9848.41,19136.1,-3089.05,-329.708,215.098,-336.909,746.008,-9724.22,4684.4,109.327,-267.479,96.5612,-1726.46,12387.3,3030.19,-129.919,48.3326,17.2769,-15411.2,-10455.7,3906.3,26.0734,51.336,-48.6411,5961.51,2208.37,1394.42,1.89027,-63.7975,-39.5026
3.022,37054.7,-10852.4,6331.71,57.3153,-465.156,-86.8885,5578.75,11403.8,14587.1,-2.22734,24.9138,51.2965,-11791.6,19927.1,-1641.68,-348.64,217.279,-336.771,4418.03,-6643.77,2265.67,109.216,-279.615,86.1123,-2462.88,12358.3,3147.46,-130.684,42.6065,17.4075,-17107.2,-9693.14,3960.46,3.15494,21.9011,-64.2797,6250.63,2913.72,1340.87,8.13737,-68.494,-38.6365
3.023,37390.1,-10819.8,6784.52,64.4606,-451.193,-86.3047,4539.87,13296.6,13595.7,-2.4108,19.6846,53.8401,-13618.5,20566.9,-270.97,-336.538,209.403,-328.971,6051.39,-4055.9,-223.967,99.8869,-274.982,86.8268,-3104.28,12326.6,3192.76,-130.255,35.8271,18.5231,-18668.5,-8633.07,2720.91,-7.14979,1.35564,-72.3214,6679.93,3516.75,1343.14,11.3436,-69.8968,-37.8219
3.024,37557.9,-10494.3,7179.47,71.3451,-438.001,-85.8691,4156.72,13810.1,12031.8,-0.328695,17.082,55.0268,-15412.3,21163.4,1077.84,-315.568,198.654,-318.984,7102.29,-1608.77,-2733.86,87.9245,-265.557,90.7308,-3718.52,12294.2,3217.5,-129.485,28.7467,19.92,-20191.3,-7487.99,1111.73,-13.8506,-16.6499,-78.1927,7149.28,4090.55,1361.37,13.6811,-70.3585,-37.022
3.025,37725.8,-10168.7,7574.41,78.2295,-424.81,-85.4336,3773.57,14323.7,10468.0,1.75341,14.4793,56.2135,-17206.0,21760.0,2426.64,-294.598,187.904,-308.996,8153.18,838.36,-5243.75,75.9622,-256.133,94.6349,-4332.77,12261.7,3242.24,-128.715,21.6663,21.317,-21714.1,-6342.91,-497.456,-20.5514,-34.6555,-84.0639,7618.62,4664.35,1379.59,16.0186,-70.8203,-36.2221
3.026,37893.6,-9843.22,7969.35,85.1139,-411.618,-84.998,3390.41,14837.2,8904.17,3.83552,11.8766,57.4002,-18999.7,22356.5,3775.45,-273.628,177.154,-299.008,9204.08,3285.49,-7753.64,63.9998,-246.708,98.5389,-4947.01,12229.2,3266.98,-127.945,14.5859,22.7139,-23236.9,-5197.83,-2106.64,-27.2522,-52.6611,-89.9351,8087.97,5238.15,1397.82,18.3561,-71.282,-35.4222
3.027,37996.0,-9519.33,8272.56,91.4271,-399.009,-85.6526,4083.49,14441.9,7388.4,2.67127,10.9396,55.6649,-20706.0,22680.0,4744.87,-248.015,165.976,-286.87,9563.7,5295.82,-9503.7,53.8286,-230.292,105.465,-5503.75,12252.2,3230.54,-126.316,7.91913,24.5309,-24666.8,-4284.53,-3671.63,-31.5853,-66.4558,-94.1968,8596.16,5763.57,1485.19,18.762,-71.1565,-34.663
3.028,37967.4,-9198.71,8392.29,96.5976,-387.565,-88.4875,6929.03,12229.0,5968.77,-4.98571,13.3336,48.0855,-22237.5,22457.1,4955.49,-213.114,153.941,-270.434,8540.77,6432.56,-9734.09,47.2395,-199.895,118.435,-5945.45,12386.0,3071.72,-122.968,2.07951,27.1878,-25910.7,-3834.76,-5148.24,-31.183,-71.829,-95.2395,9182.02,6192.2,1710.85,15.3048,-69.8564,-33.9854
3.029,37938.8,-8878.1,8512.03,101.768,-376.121,-91.3225,9774.56,10016.0,4549.13,-12.6427,15.7277,40.5062,-23769.0,22234.3,5166.12,-178.213,141.906,-253.997,7517.84,7569.3,-9964.49,40.6505,-169.497,131.405,-6387.15,12519.9,2912.9,-119.62,-3.7601,29.8448,-27154.6,-3385.0,-6624.84,-30.7806,-77.2021,-96.2822,9767.89,6620.84,1936.51,11.8476,-68.5563,-33.3077
3.03,37910.3,-8557.48,8631.77,106.939,-364.678,-94.1574,12620.1,7803.13,3129.49,-20.2997,18.1217,32.9268,-25300.4,22011.4,5376.74,-143.313,129.871,-237.561,6494.91,8706.04,-10194.9,34.0615,-139.099,144.375,-6828.86,12653.8,2754.08,-116.272,-9.59971,32.5017,-28398.6,-2935.23,-8101.45,-30.3783,-82.5752,-97.3249,10353.8,7049.47,2162.17,8.39039,-67.2562,-32.63
3.031,37881.7,-8236.86,8751.51,112.109,-353.234,-96.9923,15465.6,5590.21,1709.86,-27.9566,20.5158,25.3474,-26831.9,21788.6,5587.37,-108.412,117.836,-221.124,5471.98,9842.78,-10425.3,27.4724,-108.701,157.346,-7270.56,12787.7,2595.26,-112.924,-15.4393,35.1587,-29642.5,-2485.46,-9578.05,-29.976,-87.9484,-98.3676,10939.6,7478.1,2387.83,4.9332,-65.9561,-31.9523
3.032,37332.2,-8157.31,8861.91,116.627,-342.658,-99.5558,16032.0,4250.05,2422.26,-30.8282,24.4158,20.2576,-26810.3,20573.5,4016.84,-90.981,115.634,-218.626,3857.84,9576.63,-9635.32,25.1422,-75.3119,167.731,-7629.23,13068.8,2234.78,-107.147,-19.0384,39.1375,-30588.3,-2234.83,-10447.8,-31.38,-81.7458,-96.3405,11574.6,7738.87,2604.0,-1.3464,-64.6313,-31.6245
3.033,36717.5,-8107.9,8971.15,121.064,-332.191,-102.085,16313.4,3018.99,3401.17,-33.1016,28.504,15.4791,-26594.6,19234.3,2223.68,-75.734,114.661,-217.87,2169.79,9135.12,-8717.8,23.3442,-41.549,177.792,-7977.53,13368.3,1849.09,-101.066,-22.3574,43.2815,-31496.8,-2009.09,-11241.7,-33.0098,-74.0962,-93.9298,12215.7,7978.65,2818.98,-7.9788,-63.3034,-31.3405
3.034,36102.9,-8058.49,9080.38,125.501,-321.724,-104.615,16594.8,1787.92,4380.07,-35.375,32.5922,10.7005,-26378.8,17895.2,430.511,-60.4871,113.687,-217.114,481.747,8693.61,-7800.29,21.5463,-7.78606,187.854,-8325.83,13667.8,1463.4,-94.986,-25.6764,47.4256,-32405.3,-1783.34,-12035.5,-34.6397,-66.4466,-91.5191,12856.9,8218.42,3033.96,-14.6112,-61.9754,-31.0564
3.035,35488.2,-8009.08,9189.62,129.938,-311.257,-107.144,16876.3,556.853,5358.98,-37.6483,36.6805,5.922,-26163.1,16556.0,-1362.66,-45.2401,112.714,-216.359,-1206.3,8252.1,-6882.78,19.7484,25.9769,197.916,-8674.13,13967.3,1077.71,-88.9056,-28.9955,51.5696,-33313.9,-1557.6,-12829.4,-36.2695,-58.797,-89.1083,13498.0,8458.2,3248.94,-21.2436,-60.6475,-30.7724
3.036,34610.7,-7901.75,9465.63,133.367,-301.555,-108.974,15753.6,-344.977,6482.46,-38.2133,38.2918,3.30617,-25432.5,15727.2,-2911.6,-32.848,115.068,-218.766,-2481.35,7424.67,-6078.89,19.1188,49.0819,203.791,-9003.61,14312.2,668.682,-82.7765,-31.4335,56.2855,-34032.6,-1163.62,-13077.7,-37.6709,-47.8359,-84.9664,14076.4,8564.59,3368.31,-27.8009,-59.562,-30.9803
3.037,33404.5,-7722.04,9950.11,135.537,-292.808,-109.929,12875.8,-835.261,7786.66,-36.6426,36.8072,3.39372,-24058.1,15536.2,-4155.28,-24.0246,121.582,-225.126,-3240.18,6114.85,-5417.04,19.9496,58.8645,204.433,-9309.58,14713.8,230.492,-76.5866,-32.7705,61.7163,-34514.0,-559.353,-12644.0,-38.7869,-32.7354,-78.6605,14576.4,8504.25,3368.16,-34.2643,-58.7794,-31.8031
3.038,32198.3,-7542.32,10434.6,137.707,-284.062,-110.883,9997.99,-1325.55,9090.86,-35.072,35.3225,3.48127,-22683.8,15345.2,-5398.96,-15.2012,128.095,-231.486,-3999.0,4805.03,-4755.19,20.7805,68.6471,205.074,-9615.55,15115.3,-207.698,-70.3968,-34.1074,67.1471,-34995.4,44.9164,-12210.3,-39.9028,-17.6349,-72.3546,15076.5,8443.9,3368.02,-40.7277,-57.9969,-32.6259
3.039,30992.2,-7362.61,10919.1,139.877,-275.315,-111.838,7120.19,-1815.83,10395.1,-33.5014,33.8378,3.56882,-21309.5,15154.2,-6642.63,-6.37774,134.608,-237.847,-4757.82,3495.21,-4093.34,21.6113,78.4297,205.716,-9921.53,15516.9,-645.889,-64.2069,-35.4444,72.5779,-35476.9,649.185,-11776.6,-41.0187,-2.53443,-66.0487,15576.5,8383.56,3367.88,-47.1911,-57.2144,-33.4487
