Time,RFoot_accel.x,RFoot_accel.y,RFoot_accel.z,RFoot_gyro.x,RFoot_gyro.y,RFoot_gyro.z,LFoot_accel.x,LFoot_accel.y,LFoot_accel.z,LFoot_gyro.x,LFoot_gyro.y,LFoot_gyro.z,RShank_accel.x,RShank_accel.y,RShank_accel.z,RShank_gyro.x,RShank_gyro.y,RShank_gyro.z,LShank_accel.x,LShank_accel.y,LShank_accel.z,LShank_gyro.x,LShank_gyro.y,LShank_gyro.z,RThigh_accel.x,RThigh_accel.y,RThigh_accel.z,RThigh_gyro.x,RThigh_gyro.y,RThigh_gyro.z,LThigh_accel.x,LThigh_accel.y,LThigh_accel.z,LThigh_gyro.x,LThigh_gyro.y,LThigh_gyro.z,Pelvis_accel.x,Pelvis_accel.y,Pelvis_accel.z,Pelvis_gyro.x,Pelvis_gyro.y,Pelvis_gyro.z
4.48,8653.61,-6514.21,12482.9,-97.306,383.669,130.556,4728.25,1803.12,8209.81,19.9403,-69.194,43.8495,1748.76,12713.2,-1520.46,27.7803,9.15136,395.334,1748.05,-9697.84,-1916.83,18.2618,-68.7035,48.417,-6792.45,2945.95,-3313.66,-18.1078,39.9422,110.012,1729.8,-10212.3,-4247.8,-87.1517,-193.479,128.529,8354.82,1165.25,-1055.1,48.6705,19.0496,-8.50109
4.481,8878.62,-6564.54,12656.8,-97.0975,383.674,133.555,4812.27,1696.15,8158.45,19.9931,-69.2994,43.9142,1671.94,12898.4,-1574.81,27.8981,12.1027,396.387,1713.62,-9687.73,-1847.68,18.0536,-66.9548,49.0253,-6836.2,2855.28,-3250.23,-17.2211,37.918,109.369,1882.23,-10270.5,-4232.02,-84.9922,-188.963,128.305,8352.16,1212.44,-1108.76,46.6355,20.5585,-8.67081
4.482,9103.63,-6614.88,12830.7,-96.8891,383.68,136.554,4896.29,1589.17,8107.08,20.046,-69.4048,43.9788,1595.13,13083.6,-1629.15,28.016,15.0541,397.439,1679.2,-9677.63,-1778.53,17.8455,-65.2061,49.6335,-6879.94,2764.62,-3186.8,-16.3344,35.8938,108.726,2034.65,-10328.7,-4216.25,-82.8326,-184.448,128.082,8349.51,1259.64,-1162.42,44.6004,22.0673,-8.84052
4.483,9328.64,-6665.21,13004.6,-96.6807,383.685,139.552,4980.31,1482.2,8055.72,20.0989,-69.5102,44.0434,1518.31,13268.8,-1683.49,28.1338,18.0055,398.492,1644.77,-9667.52,-1709.38,17.6373,-63.4574,50.2417,-6923.69,2673.95,-3123.38,-15.4478,33.8696,108.084,2187.08,-10386.8,-4200.48,-80.673,-179.932,127.858,8346.86,1306.83,-1216.09,42.5654,23.5761,-9.01024
4.484,9553.66,-6715.55,13178.6,-96.4722,383.69,142.551,5064.33,1375.23,8004.35,20.1517,-69.6156,44.1081,1441.5,13454.1,-1737.84,28.2517,20.9569,399.545,1610.34,-9657.41,-1640.24,17.4291,-61.7087,50.8499,-6967.43,2583.28,-3059.95,-14.5611,31.8454,107.441,2339.51,-10445.0,-4184.71,-78.5135,-175.417,127.634,8344.2,1354.03,-1269.75,40.5303,25.0849,-9.17996
4.485,9808.97,-6731.99,13354.3,-96.423,383.861,145.722,5124.86,1319.03,7975.68,20.2472,-69.7396,44.1239,1309.75,13647.7,-1790.82,28.2553,23.8494,400.536,1566.09,-9682.09,-1578.51,17.3348,-60.1806,51.4358,-7030.73,2518.02,-3007.97,-13.6418,29.3569,106.85,2454.78,-10495.2,-4031.37,-76.0823,-170.503,127.041,8327.15,1377.9,-1269.23,38.8422,26.0523,-9.27766
4.486,10088.5,-6721.31,13531.4,-96.5012,384.164,149.03,5166.6,1303.46,7965.18,20.3768,-69.8784,44.1007,1134.06,13848.1,-1842.72,28.1676,26.6948,401.477,1513.99,-9734.6,-1522.71,17.3314,-58.8289,52.0038,-7109.68,2473.08,-2965.14,-12.6965,26.4969,106.301,2540.34,-10539.1,-3767.97,-73.4339,-165.27,126.152,8298.58,1383.13,-1225.36,37.4317,26.5864,-9.31777
4.487,10368.1,-6710.63,13708.5,-96.5793,384.468,152.339,5208.34,1287.88,7954.67,20.5063,-70.0172,44.0775,958.378,14048.5,-1894.62,28.0798,29.5402,402.418,1461.89,-9787.11,-1466.92,17.3281,-57.4773,52.5719,-7188.63,2428.14,-2922.32,-11.7512,23.637,105.751,2625.89,-10583.0,-3504.57,-70.7854,-160.038,125.263,8270.01,1388.35,-1181.49,36.0211,27.1206,-9.35787
4.488,10647.6,-6699.95,13885.6,-96.6575,384.771,155.648,5250.08,1272.31,7944.17,20.6359,-70.1561,44.0543,782.692,14248.9,-1946.51,27.9921,32.3855,403.359,1409.78,-9839.62,-1411.12,17.3248,-56.1257,53.1399,-7267.58,2383.19,-2879.5,-10.8059,20.777,105.201,2711.45,-10626.8,-3241.16,-68.1369,-154.805,124.374,8241.43,1393.57,-1137.62,34.6105,27.6547,-9.39797
4.489,10931.1,-6686.72,14057.4,-96.8191,385.104,158.991,5286.35,1265.85,7936.2,20.6938,-70.2907,44.0114,605.709,14445.6,-1993.58,27.8508,35.169,404.238,1360.86,-9889.08,-1349.77,17.3147,-54.8207,53.6931,-7350.39,2336.04,-2836.37,-9.82124,17.8471,104.654,2794.24,-10661.8,-3036.83,-65.4117,-149.517,123.536,8210.32,1399.88,-1098.43,33.2485,28.0906,-9.43798
4.49,11246.1,-6653.11,14186.4,-97.6478,385.667,162.608,5278.95,1332.34,7948.53,20.1788,-70.3919,43.8102,418.361,14613.6,-2002.03,27.2813,37.457,404.612,1337.39,-9914.2,-1243.95,17.25,-53.8889,54.1271,-7464.0,2271.16,-2790.83,-8.52163,14.3577,104.126,2854.93,-10625.9,-3305.02,-62.0723,-143.784,123.106,8158.84,1414.88,-1096.7,32.2752,27.7408,-9.47723
4.491,11561.2,-6619.5,14315.4,-98.4766,386.231,166.226,5271.54,1398.83,7960.87,19.6637,-70.493,43.609,231.013,14781.6,-2010.47,26.7118,39.745,404.987,1313.92,-9939.31,-1138.12,17.1852,-52.9571,54.5611,-7577.62,2206.28,-2745.3,-7.22203,10.8683,103.598,2915.62,-10589.9,-3573.21,-58.7329,-138.05,122.676,8107.37,1429.89,-1094.97,31.3018,27.391,-9.51648
4.492,11876.2,-6585.88,14444.4,-99.3054,386.795,169.843,5264.14,1465.32,7973.2,19.1486,-70.5942,43.4078,43.6647,14949.6,-2018.92,26.1423,42.033,405.361,1290.45,-9964.42,-1032.3,17.1205,-52.0253,54.9951,-7691.24,2141.4,-2699.76,-5.92242,7.37884,103.07,2976.31,-10554.0,-3841.41,-55.3934,-132.317,122.245,8055.89,1444.89,-1093.25,30.3284,27.0412,-9.55573
4.493,12191.2,-6552.27,14573.4,-100.134,387.358,173.461,5256.73,1531.81,7985.54,18.6335,-70.6954,43.2067,-143.683,15117.6,-2027.36,25.5727,44.321,405.736,1266.98,-9989.54,-926.477,17.0558,-51.0935,55.4291,-7804.86,2076.52,-2654.22,-4.62281,3.88941,102.541,3037.0,-10518.1,-4109.6,-52.054,-126.584,121.815,8004.41,1459.9,-1091.52,29.355,26.6914,-9.59497
4.494,12513.6,-6501.14,14627.0,-101.286,388.332,177.302,5232.23,1548.25,7991.13,17.9732,-70.8867,43.1104,-331.623,15287.9,-1989.23,24.6404,46.038,405.891,1232.0,-10023.3,-867.363,17.2459,-50.4075,55.759,-7918.18,2002.54,-2634.43,-3.56833,0.380176,101.901,3047.44,-10523.8,-4078.7,-49.7738,-121.272,120.702,7946.42,1523.14,-1055.74,28.3931,26.2925,-9.31355
4.495,12839.6,-6441.26,14643.0,-102.599,389.512,181.255,5199.19,1539.67,7993.36,17.2402,-71.123,43.0667,-519.859,15459.3,-1927.81,23.5266,47.4694,405.937,1191.26,-10061.5,-831.603,17.5634,-49.8445,56.0368,-8031.34,1924.01,-2627.52,-2.6364,-3.13896,101.203,3032.76,-10550.4,-3898.27,-48.0231,-116.17,119.246,7885.15,1610.51,-1002.95,27.437,25.8691,-8.8718
4.496,13165.7,-6381.38,14659.1,-103.913,390.691,185.208,5166.14,1531.08,7995.58,16.5073,-71.3593,43.0229,-708.095,15630.7,-1866.39,22.4129,48.9007,405.982,1150.53,-10099.6,-795.842,17.8809,-49.2815,56.3147,-8144.51,1845.48,-2620.61,-1.70448,-6.6581,100.506,3018.08,-10577.0,-3717.83,-46.2724,-111.068,117.791,7823.89,1697.88,-950.149,26.4808,25.4457,-8.43004
4.497,13491.7,-6321.49,14675.1,-105.226,391.871,189.161,5133.1,1522.5,7997.81,15.7743,-71.5956,42.9791,-896.33,15802.2,-1804.97,21.2991,50.3321,406.028,1109.79,-10137.7,-760.082,18.1984,-48.7184,56.5926,-8257.68,1766.95,-2613.7,-0.772553,-10.1772,99.8087,3003.4,-10603.6,-3537.39,-44.5218,-105.966,116.335,7762.63,1785.26,-897.352,25.5247,25.0223,-7.98828
4.498,13803.8,-6257.87,14673.3,-106.588,393.147,193.193,5101.13,1497.42,8006.17,15.0975,-71.871,42.9466,-1096.46,15974.1,-1737.4,20.2607,51.6025,406.093,1080.05,-10171.3,-712.121,18.4995,-48.1861,56.8803,-8375.71,1702.93,-2615.46,-0.018523,-13.5976,99.1238,2970.28,-10622.8,-3342.78,-42.9826,-101.131,114.878,7697.98,1848.78,-849.412,24.5428,24.5976,-7.58885
4.499,14067.0,-6181.16,14609.5,-108.118,394.762,197.503,5072.91,1414.63,8036.02,14.6172,-72.2833,42.9535,-1338.22,16147.5,-1648.31,19.4858,52.3095,406.23,1088.78,-10189.2,-621.456,18.7432,-47.7614,57.2024,-8510.77,1689.71,-2647.57,0.112879,-16.6721,98.4825,2872.61,-10616.3,-3098.6,-42.1834,-97.2283,113.414,7621.48,1828.84,-818.474,23.4707,24.168,-7.33755
4.5,14330.2,-6104.46,14545.6,-109.648,396.376,201.812,5044.7,1331.84,8065.87,14.1368,-72.6956,42.9605,-1579.98,16320.9,-1559.22,18.7109,53.0165,406.366,1097.51,-10207.1,-530.792,18.9869,-47.3368,57.5246,-8645.82,1676.48,-2679.67,0.24428,-19.7466,97.8411,2774.94,-10609.8,-2854.43,-41.3843,-93.3256,111.95,7544.98,1808.89,-787.535,22.3985,23.7384,-7.08626
4.501,14593.3,-6027.75,14481.8,-111.178,397.991,206.122,5016.48,1249.05,8095.71,13.6565,-73.1079,42.9674,-1821.74,16494.3,-1470.14,17.936,53.7234,406.502,1106.24,-10225.0,-440.127,19.2306,-46.9121,57.8467,-8780.88,1663.25,-2711.78,0.375682,-22.8211,97.1997,2677.27,-10603.3,-2610.25,-40.5852,-89.4228,110.486,7468.48,1788.95,-756.596,21.3263,23.3088,-6.83496
4.502,14856.5,-5951.04,14417.9,-112.708,399.606,210.432,4988.27,1166.26,8125.56,13.1762,-73.5202,42.9744,-2063.5,16667.7,-1381.05,17.1612,54.4304,406.639,1114.98,-10242.9,-349.462,19.4742,-46.4874,58.1689,-8915.93,1650.03,-2743.89,0.507084,-25.8955,96.5584,2579.6,-10596.8,-2366.07,-39.786,-85.5201,109.022,7391.98,1769.01,-725.657,20.2542,22.8792,-6.58366
4.503,15050.5,-5864.89,14337.0,-114.453,400.943,214.715,5000.1,1118.48,8138.98,12.8899,-73.9067,42.9037,-2321.2,16859.1,-1319.76,16.9131,54.7909,406.738,1153.48,-10211.7,-338.642,19.4987,-46.0798,58.6838,-9027.78,1606.97,-2780.55,0.253901,-28.0518,95.7953,2434.5,-10570.2,-2330.22,-38.7793,-81.0523,107.606,7314.92,1775.42,-650.662,19.5042,22.0146,-6.19714
4.504,15224.7,-5776.03,14251.3,-116.259,402.2,218.991,5023.38,1080.71,8147.7,12.6592,-74.2859,42.8109,-2583.45,17055.7,-1266.42,16.8155,55.0525,406.827,1200.49,-10166.6,-350.636,19.4605,-45.677,59.2538,-9132.99,1555.39,-2818.52,-0.109163,-29.9456,94.9974,2275.85,-10537.8,-2353.88,-37.7132,-76.4231,106.205,7237.71,1789.36,-563.08,18.8464,21.0258,-5.77197
4.505,15398.9,-5687.18,14165.5,-118.065,403.458,223.267,5046.66,1042.93,8156.42,12.4284,-74.665,42.718,-2845.71,17252.4,-1213.07,16.7179,55.3141,406.916,1247.5,-10121.4,-362.629,19.4223,-45.2742,59.8238,-9238.19,1503.82,-2856.49,-0.472227,-31.8394,94.1995,2117.19,-10505.4,-2377.55,-36.6472,-71.7939,104.804,7160.5,1803.3,-475.498,18.1885,20.037,-5.34681
4.506,15573.0,-5598.33,14079.8,-119.871,404.715,227.544,5069.94,1005.15,8165.14,12.1976,-75.0442,42.6252,-3107.97,17449.0,-1159.73,16.6203,55.5756,407.005,1294.51,-10076.2,-374.622,19.3841,-44.8714,60.3938,-9343.4,1452.24,-2894.45,-0.835291,-33.7333,93.4016,1958.54,-10473.0,-2401.22,-35.5812,-67.1647,103.403,7083.29,1817.23,-387.916,17.5306,19.0482,-4.92164
4.507,15716.8,-5531.15,13983.1,-121.922,405.603,231.671,5086.25,973.414,8184.61,11.9548,-75.416,42.515,-3355.36,17649.9,-1135.26,16.7151,55.707,407.142,1339.8,-10047.7,-385.551,19.418,-44.3318,60.986,-9433.14,1407.48,-2930.98,-1.3557,-35.3095,92.6688,1804.02,-10454.8,-2336.43,-34.8007,-63.1233,102.095,7014.88,1822.6,-317.256,16.8672,17.8611,-4.4883
4.508,15799.5,-5507.32,13864.5,-124.463,405.752,235.5,5088.62,953.748,8225.56,11.688,-75.773,42.37,-3573.03,17859.6,-1168.54,17.1949,55.5779,407.378,1381.66,-10052.5,-394.353,19.5961,-43.5183,61.6226,-9491.94,1376.34,-2964.64,-2.1908,-36.2505,92.0661,1657.77,-10465.0,-2094.71,-34.5914,-60.2575,100.973,6964.11,1810.84,-280.44,16.1929,16.2774,-4.03861
4.509,15882.3,-5483.49,13745.9,-127.004,405.901,239.329,5091.0,934.081,8266.52,11.4212,-76.1301,42.225,-3790.71,18069.3,-1201.82,17.6746,55.4489,407.613,1423.52,-10057.2,-403.154,19.7742,-42.7049,62.2592,-9550.74,1345.21,-2998.31,-3.02589,-37.1915,91.4635,1511.52,-10475.1,-1852.99,-34.3822,-57.3918,99.8508,6913.33,1799.07,-243.624,15.5185,14.6937,-3.58892
4.51,15965.1,-5459.67,13627.4,-129.545,406.049,243.158,5093.37,914.414,8307.47,11.1544,-76.4872,42.08,-4008.38,18279.0,-1235.09,18.1543,55.3198,407.848,1465.37,-10062.0,-411.956,19.9523,-41.8914,62.8957,-9609.54,1314.08,-3031.97,-3.86099,-38.1324,90.8608,1365.27,-10485.3,-1611.28,-34.1729,-54.526,98.7287,6862.55,1787.31,-206.808,14.8442,13.11,-3.13922
4.511,16047.9,-5435.84,13508.8,-132.086,406.198,246.986,5095.75,894.747,8348.43,10.8876,-76.8443,41.935,-4226.05,18488.7,-1268.37,18.6341,55.1907,408.083,1507.23,-10066.8,-420.757,20.1303,-41.0779,63.5323,-9668.34,1282.94,-3065.63,-4.69609,-39.0734,90.2581,1219.02,-10495.5,-1369.56,-33.9636,-51.6602,97.6066,6811.77,1775.54,-169.992,14.1698,11.5264,-2.68953
4.512,16001.1,-5277.65,13486.9,-135.568,404.602,250.598,5100.72,862.55,8404.56,10.6317,-77.4309,41.6114,-4436.75,18671.3,-1338.46,18.5641,55.0339,408.056,1553.74,-10092.1,-397.448,20.2791,-40.215,64.166,-9717.11,1239.54,-3056.3,-5.29589,-39.919,89.9672,1088.23,-10462.1,-1236.76,-33.8549,-49.4979,96.8977,6747.43,1746.4,-173.917,13.4402,9.85948,-2.11808
4.513,15938.1,-5102.67,13477.2,-139.168,402.787,254.182,5106.01,828.786,8462.58,10.3772,-78.0462,41.2653,-4646.59,18850.6,-1413.15,18.4255,54.8736,407.996,1600.84,-10120.0,-370.124,20.4242,-39.3458,64.7994,-9764.63,1194.59,-3041.59,-5.86628,-40.7526,89.7153,959.362,-10423.2,-1117.58,-33.7586,-47.4236,96.2406,6681.39,1715.08,-182.933,12.7038,8.18217,-1.53142
4.514,15875.1,-4927.7,13467.5,-142.768,400.973,257.765,5111.3,795.023,8520.61,10.1226,-78.6614,40.9193,-4856.42,19029.9,-1487.83,18.2868,54.7133,407.936,1647.94,-10147.8,-342.801,20.5692,-38.4766,65.4327,-9812.15,1149.65,-3026.89,-6.43667,-41.5862,89.4634,830.497,-10384.3,-998.399,-33.6624,-45.3492,95.5834,6615.36,1683.77,-191.95,11.9673,6.50487,-0.944761
4.515,15812.1,-4752.72,13457.7,-146.368,399.158,261.349,5116.59,761.259,8578.64,9.8681,-79.2767,40.5733,-5066.26,19209.2,-1562.52,18.1481,54.553,407.876,1695.04,-10175.7,-315.477,20.7143,-37.6075,66.066,-9859.66,1104.71,-3012.19,-7.00705,-42.4199,89.2115,701.631,-10345.4,-879.216,-33.5662,-43.2749,94.9262,6549.33,1652.45,-200.967,11.2309,4.82757,-0.3581
4.516,15738.6,-4430.8,13489.8,-150.63,396.032,264.858,5140.34,720.874,8619.97,9.68607,-79.9562,40.2556,-5287.5,19385.1,-1595.91,17.0893,54.1962,407.253,1719.19,-10210.2,-259.877,20.8005,-36.6896,66.7194,-9885.74,1058.08,-2947.04,-7.1411,-43.602,88.9094,565.741,-10334.2,-770.713,-33.8475,-41.6399,94.3969,6497.18,1619.06,-210.489,10.738,3.24631,0.0465672
4.517,15652.1,-3925.21,13574.2,-155.719,391.266,268.273,5187.17,672.211,8640.43,9.59465,-80.7158,39.9734,-5522.99,19556.9,-1577.68,14.8802,53.5937,405.926,1714.65,-10253.0,-168.93,20.813,-35.7108,67.3978,-9885.03,1009.32,-2818.85,-6.72972,-45.2196,88.5448,421.071,-10357.6,-675.558,-34.6006,-40.5542,94.0276,6462.4,1583.07,-220.642,10.5496,1.78508,0.223741
4.518,15565.6,-3419.63,13658.6,-160.809,386.499,271.689,5234.0,623.549,8660.88,9.50324,-81.4754,39.6912,-5758.47,19728.7,-1559.45,12.6712,52.9913,404.599,1710.12,-10295.7,-77.9834,20.8255,-34.7321,68.0761,-9884.31,960.573,-2690.66,-6.31834,-46.8373,88.1801,276.4,-10381.1,-580.403,-35.3537,-39.4685,93.6582,6427.63,1547.07,-230.795,10.3611,0.32385,0.400915
4.519,15479.1,-2914.04,13743.0,-165.898,381.733,275.104,5280.83,574.886,8681.34,9.41182,-82.235,39.409,-5993.96,19900.6,-1541.22,10.4621,52.3889,403.272,1705.58,-10338.5,12.9633,20.838,-33.7533,68.7545,-9883.6,911.821,-2562.47,-5.90696,-48.455,87.8155,131.73,-10404.5,-485.248,-36.1068,-38.3828,93.2888,6392.85,1511.08,-240.949,10.1727,-1.13738,0.578089
4.52,15392.6,-2408.46,13827.4,-170.988,376.967,278.519,5327.66,526.224,8701.8,9.32041,-82.9947,39.1268,-6229.45,20072.4,-1522.99,8.25308,51.7865,401.945,1701.05,-10381.3,103.91,20.8506,-32.7746,69.4329,-9882.88,863.069,-2434.28,-5.49558,-50.0727,87.4508,-12.9405,-10427.9,-390.093,-36.8599,-37.2971,92.9194,6358.07,1475.09,-251.102,9.98426,-2.59861,0.755263
4.521,15416.9,-1845.33,13797.1,-177.999,369.838,281.271,5323.17,494.493,8690.51,9.24732,-83.7616,38.807,-6472.4,20181.2,-1397.65,5.32963,50.2668,398.797,1745.43,-10460.1,107.871,20.8009,-31.8339,70.1068,-9774.54,752.33,-2279.36,-2.77544,-51.8853,87.0763,-73.309,-10436.3,-277.462,-37.0097,-37.2328,93.4885,6402.55,1456.37,-229.011,8.96348,-4.4745,1.26335
4.522,15441.3,-1282.2,13766.8,-185.011,362.708,284.024,5318.67,462.763,8679.22,9.17424,-84.5285,38.4872,-6715.34,20290.0,-1272.3,2.40618,48.7471,395.648,1789.8,-10538.8,111.833,20.7512,-30.8933,70.7807,-9666.2,641.591,-2124.45,-0.0552943,-53.6978,86.7018,-133.677,-10444.6,-164.831,-37.1595,-37.1687,94.0576,6447.02,1437.65,-206.919,7.9427,-6.3504,1.77145
4.523,15465.6,-719.07,13736.5,-192.022,355.579,286.776,5314.17,431.033,8667.93,9.10115,-85.2954,38.1673,-6958.28,20398.9,-1146.96,-0.517276,47.2274,392.5,1834.18,-10617.6,115.794,20.7016,-29.9527,71.4547,-9557.86,530.852,-1969.54,2.66485,-55.5104,86.3274,-194.046,-10453.0,-52.2006,-37.3092,-37.1044,94.6267,6491.5,1418.93,-184.828,6.92192,-8.22629,2.27954
4.524,15490.0,-155.941,13706.2,-199.034,348.45,289.529,5309.68,399.303,8656.64,9.02807,-86.0623,37.8475,-7201.23,20507.7,-1021.62,-3.44073,45.7077,389.352,1878.55,-10696.3,119.755,20.6519,-29.0121,72.1286,-9449.52,420.113,-1814.62,5.38499,-57.3229,85.9529,-254.414,-10461.3,60.4301,-37.459,-37.0402,95.1958,6535.97,1400.21,-162.737,5.90114,-10.1022,2.78763
4.525,15592.4,216.776,13593.7,-205.845,340.575,291.776,5304.88,400.482,8656.31,8.77802,-86.9277,37.418,-7507.98,20596.7,-898.961,-6.32065,44.13,385.876,1906.61,-10780.3,156.969,20.7843,-28.299,72.6953,-9299.42,293.979,-1708.61,9.345,-58.7886,85.2723,-327.901,-10502.1,168.986,-37.3898,-37.1017,95.9665,6539.34,1371.01,-151.189,4.74418,-12.0683,3.30157
4.526,15757.3,437.165,13415.4,-212.496,332.104,293.618,5299.85,427.989,8664.75,8.3864,-87.872,36.9009,-7865.77,20670.0,-778.455,-9.16575,42.5059,382.138,1921.61,-10868.5,220.786,21.0623,-27.7678,73.1763,-9115.91,155.528,-1641.72,14.2969,-59.9768,84.3469,-411.883,-10568.7,274.281,-37.1454,-37.2635,96.8984,6509.81,1333.43,-148.076,3.47828,-14.1066,3.82018
4.527,15922.2,657.554,13237.0,-219.147,323.633,295.461,5294.82,455.496,8673.18,7.99478,-88.8162,36.3837,-8223.57,20743.2,-657.95,-12.0109,40.8818,378.4,1936.62,-10956.7,284.603,21.3402,-27.2366,73.6573,-8932.4,17.0766,-1574.84,19.2488,-61.1649,83.4215,-495.864,-10635.3,379.576,-36.901,-37.4254,97.8303,6480.29,1295.85,-144.962,2.21238,-16.1449,4.33879
4.528,16087.2,877.943,13058.7,-225.798,315.162,297.304,5289.79,483.004,8681.62,7.60316,-89.7605,35.8666,-8581.36,20816.4,-537.444,-14.856,39.2576,374.662,1951.62,-11044.8,348.419,21.6182,-26.7055,74.1383,-8748.89,-121.374,-1507.95,24.2007,-62.3531,82.496,-579.846,-10702.0,484.872,-36.6566,-37.5873,98.7623,6450.76,1258.26,-141.849,0.946475,-18.1831,4.85741
4.529,16276.0,1055.18,12869.9,-232.152,306.679,299.069,5285.34,509.475,8690.46,7.18788,-90.6881,35.3532,-8940.57,20891.8,-409.697,-17.7717,37.604,370.862,1967.48,-11129.4,412.001,21.886,-26.1743,74.6147,-8558.09,-248.466,-1454.94,29.2065,-63.4715,81.5127,-663.126,-10764.8,590.896,-36.446,-37.8232,99.6947,6421.45,1220.11,-143.015,-0.347711,-20.2069,5.36835
4.53,16656.0,887.221,12597.2,-236.125,298.098,300.215,5285.59,527.661,8702.57,6.58338,-91.4827,34.8703,-9311.06,20984.8,-224.016,-21.2526,35.7145,366.565,1990.19,-11185.4,473.702,22.072,-25.6425,75.0551,-8308.99,-284.678,-1512.88,34.6433,-64.0319,80.0661,-740.791,-10797.8,702.757,-36.5057,-38.6509,100.631,6393.86,1177.36,-178.413,-1.86818,-22.1141,5.81794
4.531,17036.1,719.261,12324.6,-240.099,289.518,301.36,5285.83,545.846,8714.68,5.97888,-92.2773,34.3874,-9681.56,21077.7,-38.334,-24.7335,33.8249,362.269,2012.89,-11241.4,535.403,22.258,-25.1107,75.4954,-8059.89,-320.891,-1570.83,40.0801,-64.5922,78.6195,-818.456,-10830.7,814.617,-36.5654,-39.4787,101.568,6366.27,1134.6,-213.812,-3.38864,-24.0213,6.26752
4.532,17416.1,551.301,12051.9,-244.073,280.938,302.506,5286.07,564.032,8726.79,5.37438,-93.0719,33.9045,-10052.1,21170.6,147.348,-28.2145,31.9354,357.972,2035.59,-11297.4,597.104,22.444,-24.579,75.9358,-7810.78,-357.104,-1628.78,45.517,-65.1526,77.1729,-896.122,-10863.6,926.477,-36.6251,-40.3064,102.504,6338.68,1091.85,-249.21,-4.9091,-25.9285,6.71711
4.533,17796.2,383.341,11779.2,-248.046,272.357,303.652,5286.32,582.217,8738.89,4.76989,-93.8665,33.4217,-10422.5,21263.5,333.029,-31.6954,30.0458,353.675,2058.29,-11353.4,658.805,22.63,-24.0472,76.3761,-7561.68,-393.317,-1686.73,50.9538,-65.713,75.7263,-973.787,-10896.5,1038.34,-36.6848,-41.1342,103.44,6311.09,1049.1,-284.609,-6.42957,-27.8358,7.1667
4.534,18245.1,240.637,11556.8,-249.509,264.111,304.853,5294.98,570.938,8734.74,4.18642,-94.7458,32.7949,-10803.1,21409.8,574.221,-33.8697,26.7636,349.304,2083.78,-11409.9,702.536,22.9331,-23.5059,76.868,-7293.45,-405.872,-1753.09,56.0465,-65.4337,73.905,-1035.32,-10975.1,1123.73,-36.5255,-42.1025,104.284,6285.37,1029.0,-286.901,-7.37571,-29.7685,7.57955
4.535,18728.5,110.561,11359.5,-249.717,256.031,306.081,5307.85,544.927,8722.46,3.61347,-95.6675,32.0962,-11188.7,21582.7,843.168,-35.3906,22.785,344.896,2110.67,-11466.7,737.283,23.2948,-22.9599,77.3856,-7015.66,-406.599,-1823.66,60.9672,-64.7346,71.8963,-1088.79,-11076.4,1195.88,-36.2566,-43.1412,105.081,6260.57,1020.22,-272.64,-8.03468,-31.7141,7.97404
4.536,19211.9,-19.5143,11162.2,-249.924,247.951,307.31,5320.73,518.915,8710.18,3.04052,-96.5892,31.3974,-11574.3,21755.6,1112.11,-36.9115,18.8064,340.488,2137.56,-11523.4,772.03,23.6565,-22.4139,77.9032,-6737.87,-407.326,-1894.22,65.8878,-64.0356,69.8876,-1142.25,-11177.8,1268.04,-35.9878,-44.1799,105.879,6235.78,1011.44,-258.379,-8.69365,-33.6596,8.36853
4.537,19695.2,-149.59,10964.9,-250.131,239.871,308.539,5333.6,492.904,8697.91,2.46757,-97.5109,30.6987,-11959.9,21928.6,1381.06,-38.4325,14.8279,336.08,2164.45,-11580.2,806.777,24.0181,-21.8678,78.4208,-6460.08,-408.053,-1964.79,70.8085,-63.3365,67.8789,-1195.72,-11279.1,1340.2,-35.719,-45.2186,106.676,6210.98,1002.66,-244.118,-9.35262,-35.6051,8.76302
4.538,20224.0,-325.024,10761.1,-249.469,231.884,309.422,5349.57,443.992,8691.98,1.91826,-98.4313,29.9979,-12352.6,22112.6,1624.73,-39.3558,10.4486,331.785,2198.48,-11628.1,847.965,24.3868,-21.2746,78.9251,-6195.34,-387.28,-2044.21,75.546,-62.3127,65.8991,-1228.77,-11361.2,1400.31,-35.3976,-46.2384,107.429,6177.88,995.243,-228.746,-9.99061,-37.5427,9.18785
4.539,20911.9,-659.214,10534.6,-245.76,224.22,309.095,5376.35,314.929,8708.27,1.4517,-99.3476,29.2899,-12769.9,22335.7,1779.91,-38.1871,4.66674,327.885,2257.51,-11645.1,911.696,24.7797,-20.5163,79.3829,-5976.26,-291.257,-2154.64,79.6425,-60.1523,64.0202,-1190.36,-11375.9,1418.27,-34.8923,-47.1918,108.029,6115.68,992.613,-209.488,-10.5552,-39.4522,9.71888
4.54,21599.7,-993.404,10308.1,-242.051,216.556,308.768,5403.13,185.867,8724.55,0.985133,-100.264,28.5818,-13187.2,22558.7,1935.09,-37.0185,-1.11511,323.985,2316.54,-11662.1,975.427,25.1726,-19.758,79.8407,-5757.18,-195.234,-2265.07,83.739,-57.9919,62.1413,-1151.95,-11390.6,1436.23,-34.387,-48.1452,108.628,6053.49,989.982,-190.23,-11.1197,-41.3618,10.2499
4.541,22287.5,-1327.59,10081.6,-238.342,208.892,308.441,5429.92,56.8039,8740.84,0.51857,-101.18,27.8737,-13604.5,22781.7,2090.26,-35.8499,-6.89695,320.086,2375.56,-11679.1,1039.16,25.5655,-18.9997,80.2986,-5538.1,-99.2111,-2375.49,87.8355,-55.8315,60.2625,-1113.54,-11405.3,1454.19,-33.8817,-49.0987,109.228,5991.29,987.352,-170.972,-11.6842,-43.2714,10.7809
4.542,22975.4,-1661.78,9855.09,-234.634,201.228,308.114,5456.7,-72.2588,8757.13,0.0520059,-102.097,27.1657,-14021.8,23004.7,2245.44,-34.6812,-12.6788,316.186,2434.59,-11696.1,1102.89,25.9584,-18.2414,80.7564,-5319.02,-3.18818,-2485.92,91.932,-53.6712,58.3836,-1075.13,-11420.1,1472.15,-33.3764,-50.0521,109.827,5929.1,984.722,-151.714,-12.2488,-45.181,11.312
4.543,23678.9,-2507.86,9588.73,-226.947,194.946,305.45,5472.49,-160.55,8761.03,-0.239794,-103.116,26.3985,-14521.7,23210.8,2011.18,-33.1207,-16.6277,312.415,2481.02,-11704.6,1167.42,26.2253,-17.3704,81.1654,-5103.02,214.351,-2602.9,95.5205,-49.6994,56.6565,-977.969,-11432.1,1460.1,-32.9404,-50.6337,110.316,5854.36,972.698,-193.033,-12.8802,-46.8844,11.8208
4.544,24386.8,-3500.19,9310.98,-218.123,189.059,302.12,5485.14,-237.191,8761.38,-0.481662,-104.164,25.6145,-15045.3,23411.9,1665.65,-31.4481,-20.053,308.68,2523.86,-11710.7,1232.18,26.4561,-16.4673,81.5605,-4887.9,466.608,-2721.76,98.9637,-45.21,54.9729,-864.017,-11443.4,1439.46,-32.5243,-51.1091,110.773,5776.03,957.991,-251.659,-13.5307,-48.529,12.3233
4.545,25094.8,-4492.53,9033.23,-209.299,183.173,298.789,5497.79,-313.833,8761.74,-0.72353,-105.213,24.8304,-15568.8,23613.1,1320.13,-29.7755,-23.4782,304.946,2566.69,-11716.7,1296.94,26.6869,-15.5641,81.9555,-4672.78,718.866,-2840.62,102.407,-40.7207,53.2892,-750.064,-11454.7,1418.83,-32.1082,-51.5846,111.231,5697.71,943.283,-310.286,-14.1812,-50.1735,12.8258
4.546,25802.7,-5484.86,8755.48,-200.476,177.286,295.458,5510.44,-390.475,8762.09,-0.965398,-106.261,24.0464,-16092.3,23814.2,974.597,-28.103,-26.9035,301.212,2609.53,-11722.8,1361.7,26.9177,-14.6609,82.3506,-4457.66,971.124,-2959.48,105.85,-36.2314,51.6056,-636.112,-11466.0,1398.2,-31.692,-52.06,111.688,5619.38,928.576,-368.912,-14.8316,-51.8181,13.3282
4.547,26474.8,-6496.93,8559.64,-190.107,172.088,291.523,5524.76,-449.255,8783.76,-1.21801,-107.348,23.2022,-16641.2,24065.4,474.289,-27.1743,-28.1511,297.565,2647.8,-11718.9,1419.05,27.1586,-13.8006,82.8568,-4234.17,1279.89,-3048.53,109.011,-31.0977,50.1794,-511.202,-11460.3,1366.05,-31.3114,-52.4143,112.098,5554.63,910.627,-454.983,-15.2915,-53.242,13.8327
4.548,27075.2,-7548.46,8527.62,-176.649,168.271,286.382,5542.42,-472.314,8848.06,-1.49212,-108.51,22.2375,-17241.0,24416.5,-335.579,-27.7333,-25.0434,294.094,2676.94,-11695.1,1461.6,27.4196,-13.0259,83.5851,-3993.96,1701.68,-3078.0,111.605,-24.6754,49.268,-364.377,-11420.4,1310.87,-31.0017,-52.5265,112.412,5517.0,886.196,-595.941,-15.37,-54.2248,14.3411
4.549,27675.6,-8600.0,8495.6,-163.191,164.454,281.24,5560.08,-495.373,8912.35,-1.76623,-109.673,21.2728,-17840.8,24767.7,-1145.45,-28.2924,-21.9357,290.623,2706.08,-11671.2,1504.15,27.6806,-12.2511,84.3134,-3753.74,2123.46,-3107.46,114.199,-18.2532,48.3567,-217.552,-11380.5,1255.69,-30.6921,-52.6388,112.726,5479.38,861.764,-736.9,-15.4486,-55.2077,14.8495
4.55,28276.0,-9651.54,8463.57,-149.732,160.637,276.099,5577.73,-518.432,8976.65,-2.04034,-110.835,20.3081,-18440.5,25118.9,-1955.32,-28.8514,-18.8279,287.151,2735.23,-11647.4,1546.7,27.9416,-11.4764,85.0417,-3513.53,2545.24,-3136.92,116.793,-11.8309,47.4454,-70.7268,-11340.7,1200.52,-30.3824,-52.751,113.04,5441.76,837.332,-877.859,-15.5271,-56.1905,15.3579
4.551,28876.3,-10703.1,8431.55,-136.274,156.82,270.957,5595.39,-541.492,9040.95,-2.31445,-111.998,19.3434,-19040.3,25470.0,-2765.18,-29.4104,-15.7202,283.68,2764.37,-11623.5,1589.25,28.2026,-10.7017,85.7701,-3273.31,2967.03,-3166.38,119.388,-5.40866,46.5341,76.0982,-11300.8,1145.34,-30.0727,-52.8632,113.354,5404.14,812.901,-1018.82,-15.6057,-57.1733,15.8663
4.552,29661.2,-10941.1,8522.8,-122.603,154.768,265.811,5567.26,-582.579,9060.79,-2.55272,-113.237,18.2862,-19741.6,25841.5,-3492.43,-32.6246,-8.31297,280.43,2828.49,-11632.5,1616.19,28.6875,-9.94301,86.5664,-3063.44,3422.42,-3158.11,120.388,2.61395,47.0415,274.148,-11273.5,1116.97,-29.3008,-52.7181,113.603,5462.71,763.191,-1159.9,-16.0604,-57.5371,16.6849
4.553,30469.2,-11077.4,8629.46,-108.905,152.938,260.665,5533.41,-625.92,9075.07,-2.7865,-114.487,17.2174,-20455.6,26215.5,-4209.34,-36.1706,-0.368287,277.207,2896.98,-11645.7,1641.18,29.2004,-9.18636,87.3712,-2857.37,3882.01,-3145.12,121.189,10.8366,47.7262,478.6,-11247.7,1091.96,-28.4712,-52.5407,113.844,5533.3,710.321,-1301.01,-16.5622,-57.8236,17.5424
4.554,31277.1,-11213.8,8736.11,-95.2074,151.107,255.518,5499.55,-669.26,9089.35,-3.02029,-115.736,16.1487,-21169.5,26589.6,-4926.26,-39.7167,7.5764,273.985,2965.47,-11658.8,1666.17,29.7133,-8.42971,88.176,-2651.29,4341.6,-3132.13,121.99,19.0592,48.4109,683.053,-11221.9,1066.94,-27.6415,-52.3634,114.085,5603.9,657.452,-1442.11,-17.064,-58.1101,18.3998
4.555,32085.1,-11350.1,8842.77,-81.5096,149.276,250.371,5465.7,-712.601,9103.64,-3.25408,-116.985,15.0799,-21883.5,26963.6,-5643.17,-43.2627,15.5211,270.763,3033.96,-11671.9,1691.16,30.2262,-7.67305,88.9808,-2445.22,4801.19,-3119.14,122.792,27.2819,49.0956,887.506,-11196.2,1041.93,-26.8118,-52.1861,114.326,5674.49,604.582,-1583.21,-17.5658,-58.3966,19.2572
4.556,32971.7,-11070.4,8779.83,-70.2602,148.529,245.434,5454.79,-715.623,9136.13,-3.51388,-118.313,14.0725,-22675.7,27243.0,-6081.88,-46.7253,23.4125,267.698,3105.59,-11693.4,1685.01,30.8358,-7.05391,89.8694,-2225.66,5225.02,-3013.26,122.915,35.9125,50.0944,1127.44,-11184.4,1001.6,-26.1778,-52.0568,114.597,5757.31,559.565,-1707.23,-17.9717,-58.5295,19.9117
4.557,33956.5,-10270.7,8504.89,-62.0714,149.136,240.759,5472.56,-668.244,9191.39,-3.80618,-119.74,13.1418,-23565.6,27404.2,-6172.84,-50.0834,31.2374,264.832,3181.15,-11725.2,1639.94,31.5662,-6.60667,90.8628,-1989.24,5604.14,-2791.27,122.191,45.053,51.4858,1411.74,-11190.3,942.124,-25.7883,-51.9874,114.906,5855.41,524.364,-1809.88,-18.2579,-58.4703,20.3125
4.558,34941.4,-9471.04,8229.96,-53.8826,149.744,236.083,5490.32,-620.866,9246.64,-4.09849,-121.168,12.2111,-24455.4,27565.4,-6263.79,-53.4415,39.0623,261.966,3256.71,-11757.1,1594.88,32.2966,-6.15942,91.8561,-1752.82,5983.26,-2569.28,121.468,54.1935,52.8772,1696.03,-11196.1,882.649,-25.3989,-51.9181,115.214,5953.51,489.162,-1912.54,-18.5441,-58.4112,20.7133
4.559,35926.3,-8671.36,7955.02,-45.6939,150.351,231.408,5508.09,-573.487,9301.9,-4.3908,-122.595,11.2803,-25345.3,27726.5,-6354.75,-56.7997,46.8872,259.1,3332.28,-11789.0,1549.81,33.027,-5.71217,92.8495,-1516.4,6362.38,-2347.29,120.744,63.334,54.2685,1980.32,-11202.0,823.174,-25.0094,-51.8487,115.523,6051.6,453.96,-2015.19,-18.8302,-58.352,21.1141
4.56,36911.1,-7871.67,7680.09,-37.5051,150.958,226.732,5525.85,-526.109,9357.16,-4.68311,-124.022,10.3496,-26235.2,27887.7,-6445.7,-60.1578,54.712,256.234,3407.84,-11820.9,1504.74,33.7575,-5.26492,93.8428,-1279.98,6741.49,-2125.3,120.02,72.4744,55.6599,2264.62,-11207.8,763.7,-24.6199,-51.7794,115.832,6149.7,418.759,-2117.84,-19.1164,-58.2928,21.5149
4.561,37551.4,-6775.27,7086.6,-34.7511,152.664,222.269,5519.0,-447.727,9355.55,-5.17815,-125.633,9.51843,-27145.7,27795.5,-5835.85,-58.0099,57.5215,256.275,3466.5,-11841.0,1401.72,34.5845,-4.6967,94.9403,-1089.55,7238.65,-1886.21,118.162,83.7009,59.3059,2545.09,-11221.1,775.344,-24.3519,-51.9802,116.346,6281.44,360.481,-2201.48,-20.1248,-58.298,22.3036
4.562,38191.8,-5678.87,6493.12,-31.9971,154.369,217.806,5512.14,-369.344,9353.95,-5.67318,-127.245,8.68721,-28056.1,27703.2,-5226.01,-55.8619,60.3309,256.317,3525.16,-11861.0,1298.71,35.4116,-4.12848,96.0378,-899.113,7735.8,-1647.12,116.303,94.9274,62.9518,2825.56,-11234.4,786.988,-24.0838,-52.181,116.861,6413.19,302.204,-2285.12,-21.1332,-58.3032,23.0924
4.563,38832.1,-4582.47,5899.63,-29.243,156.075,213.343,5505.28,-290.962,9352.35,-6.16822,-128.857,7.85599,-28966.5,27611.0,-4616.16,-53.714,63.1403,256.359,3583.82,-11881.1,1195.69,36.2387,-3.56027,97.1353,-708.677,8232.96,-1408.03,114.445,106.154,66.5978,3106.03,-11247.7,798.632,-23.8157,-52.3818,117.375,6544.93,243.927,-2368.76,-22.1416,-58.3083,23.8812
4.564,39472.5,-3486.06,5306.15,-26.489,157.78,208.879,5498.42,-212.58,9350.75,-6.66325,-130.468,7.02478,-29877.0,27518.7,-4006.31,-51.5661,65.9497,256.401,3642.48,-11901.1,1092.67,37.0658,-2.99205,98.2328,-518.242,8730.11,-1168.94,112.586,117.38,70.2438,3386.5,-11260.9,810.276,-23.5476,-52.5826,117.89,6676.67,185.65,-2452.4,-23.15,-58.3135,24.6699
4.565,39750.6,-2590.61,4634.4,-25.8235,159.025,204.445,5502.76,-107.315,9367.89,-7.12965,-132.101,6.32037,-30670.1,27206.1,-3317.76,-46.4679,65.0072,257.92,3693.78,-11919.8,958.592,37.7497,-2.38208,99.5361,-305.724,9209.29,-952.445,110.15,130.02,74.8966,3673.07,-11303.6,843.171,-23.1633,-52.5632,118.437,6831.53,109.484,-2477.17,-24.6112,-58.6745,25.406
4.566,39739.0,-1855.92,3900.05,-26.8289,159.9,200.032,5516.06,19.4571,9400.04,-7.57313,-133.751,5.71741,-31369.3,26717.1,-2566.24,-39.0096,61.0632,260.621,3739.2,-11937.3,799.661,38.3189,-1.7387,101.004,-75.5391,9674.08,-754.03,107.253,143.791,80.3549,3964.51,-11369.9,893.066,-22.6859,-52.3678,119.011,7004.88,19.0081,-2454.85,-26.4346,-59.32,26.1
4.567,39727.5,-1121.23,3165.69,-27.8343,160.775,195.62,5529.37,146.229,9432.18,-8.01662,-135.402,5.11446,-32068.5,26228.1,-1814.72,-31.5513,57.1192,263.322,3784.61,-11954.7,640.73,38.8881,-1.09532,102.472,154.646,10138.9,-555.616,104.355,157.562,85.8133,4255.95,-11436.1,942.961,-22.2086,-52.1723,119.585,7178.23,-71.4682,-2432.52,-28.2581,-59.9655,26.794
4.568,39715.9,-386.541,2431.34,-28.8396,161.65,191.208,5542.67,273.0,9464.33,-8.4601,-137.052,4.5115,-32767.7,25739.1,-1063.19,-24.0929,53.1752,266.023,3830.02,-11972.2,481.799,39.4574,-0.451939,103.94,384.831,10603.7,-357.201,101.457,171.332,91.2716,4547.4,-11502.3,992.857,-21.7313,-51.9768,120.158,7351.58,-161.944,-2410.2,-30.0816,-60.611,27.4879
4.569,39667.9,300.777,1692.81,-29.9901,162.251,186.811,5551.98,403.118,9495.98,-8.87511,-138.728,3.93526,-33411.9,25199.8,-394.068,-16.7297,48.9094,268.49,3875.16,-11990.5,320.592,40.0163,0.183247,105.418,638.61,11062.3,-165.213,98.6801,185.191,96.8834,4844.25,-11576.2,1055.04,-21.2235,-51.7547,120.706,7528.84,-249.853,-2379.7,-31.8848,-61.2911,28.1512
4.57,39329.1,609.119,920.956,-32.3018,160.663,182.536,5529.35,560.005,9523.75,-9.06231,-140.611,3.57277,-33615.6,24257.4,-384.105,-10.1273,42.0694,269.082,3918.06,-12015.2,141.174,40.4929,0.752889,106.974,1081.14,11472.0,-24.6388,96.8647,199.749,103.723,5184.35,-11711.6,1215.57,-20.4726,-51.3193,121.047,7737.4,-317.217,-2283.8,-33.5265,-62.2476,28.5688
4.571,38990.2,917.461,149.099,-34.6135,159.074,178.262,5506.71,716.892,9551.52,-9.24952,-142.493,3.21027,-33819.2,23315.1,-374.143,-3.52485,35.2294,269.675,3960.96,-12040.0,-38.2428,40.9695,1.32253,108.529,1523.66,11881.7,115.936,95.0492,214.308,110.562,5524.46,-11847.0,1376.11,-19.7217,-50.884,121.388,7945.96,-384.582,-2187.9,-35.1682,-63.204,28.9864
4.572,38651.4,1225.8,-622.757,-36.9252,157.485,173.988,5484.07,873.778,9579.29,-9.43672,-144.376,2.84778,-34022.9,22372.7,-364.181,3.07757,28.3893,270.267,4003.86,-12064.7,-217.66,41.4461,1.89217,110.085,1966.19,12291.4,256.511,93.2338,228.866,117.402,5864.57,-11982.4,1536.64,-18.9708,-50.4487,121.728,8154.52,-451.947,-2092.01,-36.8098,-64.1605,29.404
4.573,38312.5,1534.14,-1394.61,-39.2369,155.896,169.713,5461.43,1030.67,9607.06,-9.62392,-146.259,2.48529,-34226.6,21430.4,-354.218,9.68,21.5493,270.86,4046.76,-12089.5,-397.077,41.9227,2.46182,111.641,2408.72,12701.1,397.085,91.4184,243.425,124.242,6204.68,-12117.8,1697.17,-18.2199,-50.0133,122.069,8363.08,-519.311,-1996.11,-38.4515,-65.1169,29.8216
4.574,38011.1,1618.62,-2185.25,-41.4393,152.984,165.031,5413.11,1196.16,9632.46,-9.92763,-148.066,2.18338,-34241.8,20361.7,-846.646,13.8865,16.8042,268.366,4107.68,-12110.2,-574.488,42.3505,3.02812,113.421,3037.47,13045.5,510.4,91.8664,256.32,130.633,6517.65,-12274.8,1778.16,-17.543,-48.9336,122.217,8556.22,-584.388,-1901.24,-39.6382,-65.9088,29.9786
4.575,37728.6,1591.16,-2985.28,-43.5871,149.41,160.144,5351.94,1365.95,9656.67,-10.2896,-149.834,1.91175,-34162.8,19229.8,-1590.27,16.8949,13.1066,264.329,4177.61,-12128.9,-750.897,42.754,3.59276,115.312,3759.33,13357.3,610.086,93.446,268.384,136.8,6817.05,-12442.5,1819.39,-16.9031,-47.5316,122.269,8741.64,-648.321,-1806.9,-40.5974,-66.6185,30.0054
4.576,37446.0,1563.7,-3785.31,-45.735,145.836,155.258,5290.78,1535.75,9680.88,-10.6516,-151.602,1.64013,-34083.8,18097.9,-2333.89,19.9034,9.40898,260.292,4247.53,-12147.6,-927.305,43.1574,4.1574,117.204,4481.19,13669.0,709.771,95.0257,280.447,142.967,7116.46,-12610.3,1860.62,-16.2633,-46.1297,122.321,8927.07,-712.254,-1712.56,-41.5566,-67.3282,30.0321
4.577,37163.4,1536.23,-4585.34,-47.8828,142.262,150.371,5229.61,1705.54,9705.1,-11.0135,-153.37,1.36851,-34004.8,16966.0,-3077.52,22.9119,5.71136,256.254,4317.46,-12166.3,-1103.71,43.5608,4.72203,119.096,5203.05,13980.8,809.457,96.6054,292.511,149.134,7415.86,-12778.0,1901.85,-15.6234,-44.7277,122.373,9112.49,-776.188,-1618.21,-42.5159,-68.0378,30.0588
4.578,36931.6,1494.21,-5379.59,-49.8952,138.583,145.281,5166.43,1871.7,9730.78,-11.351,-155.197,1.18172,-33923.3,15869.5,-3798.57,25.3696,2.84477,251.482,4395.7,-12178.3,-1280.45,43.9471,5.31571,121.05,6041.9,14263.9,925.862,98.797,303.194,154.547,7719.88,-12941.9,1954.98,-14.9849,-43.0374,122.311,9276.42,-840.318,-1516.5,-43.3797,-68.5155,30.0858
4.579,36877.7,1401.21,-6153.65,-51.4339,134.539,139.476,5096.18,2025.13,9761.59,-11.6026,-157.233,1.29182,-33832.9,14896.7,-4440.63,25.8999,2.88678,244.135,4503.03,-12166.7,-1458.31,44.2735,6.01103,123.223,7290.21,14446.5,1100.78,103.131,309.045,157.32,8040.04,-13092.1,2049.78,-14.351,-40.3376,121.852,9365.06,-905.14,-1389.0,-43.9095,-68.1812,30.114
4.58,36823.9,1308.22,-6927.7,-52.9726,130.494,133.672,5025.92,2178.55,9792.4,-11.8542,-159.269,1.40192,-33742.4,13924.0,-5082.69,26.4301,2.92878,236.788,4610.36,-12155.1,-1636.18,44.5998,6.70635,125.396,8538.52,14629.1,1275.71,107.464,314.895,160.094,8360.2,-13242.3,2144.58,-13.7172,-37.6378,121.393,9453.71,-969.963,-1261.49,-44.4394,-67.847,30.1422
4.581,36770.0,1215.22,-7701.76,-54.5112,126.45,127.868,4955.67,2331.98,9823.21,-12.1058,-161.304,1.51202,-33652.0,12951.3,-5724.76,26.9603,2.97078,229.441,4717.69,-12143.5,-1814.05,44.9261,7.40168,127.568,9786.83,14811.8,1450.63,111.798,320.746,162.868,8680.35,-13392.5,2239.37,-13.0833,-34.938,120.933,9542.36,-1034.78,-1133.99,-44.9693,-67.5127,30.1703
4.582,36716.2,1122.23,-8475.81,-56.0499,122.406,122.063,4885.42,2485.41,9854.02,-12.3574,-163.34,1.62213,-33561.6,11978.6,-6366.82,27.4906,3.01278,222.094,4825.02,-12131.9,-1991.92,45.2525,8.097,129.741,11035.1,14994.4,1625.55,116.132,326.596,165.642,9000.51,-13542.7,2334.17,-12.4494,-32.2382,120.474,9631.01,-1099.61,-1006.49,-45.4992,-67.1785,30.1985
4.583,36768.4,1151.41,-9064.57,-57.2441,118.089,116.375,4840.14,2523.33,9860.03,-12.2044,-165.284,1.9714,-33593.3,11244.3,-6588.78,28.0859,3.5775,213.859,4910.66,-12100.6,-2131.31,45.5396,9.2825,132.032,12582.8,15289.7,1982.11,117.755,325.197,165.541,9263.38,-13693.5,2461.46,-11.8449,-29.0909,119.35,9695.56,-1157.17,-879.731,-45.7951,-66.2066,29.8874
4.584,36851.0,1215.49,-9600.39,-58.3399,113.695,110.72,4802.0,2528.24,9858.96,-11.9358,-167.201,2.389,-33659.9,10578.2,-6690.71,28.6998,4.29156,205.369,4990.1,-12063.6,-2259.72,45.8155,10.6081,134.357,14216.1,15617.1,2390.57,118.605,321.726,164.619,9509.89,-13844.6,2598.04,-11.2488,-25.8158,118.038,9753.23,-1212.66,-753.186,-46.0241,-65.0525,29.4793
4.585,36933.6,1279.58,-10136.2,-59.4358,109.3,105.065,4763.86,2533.16,9857.88,-11.6673,-169.118,2.80661,-33726.5,9912.11,-6792.65,29.3138,5.00563,196.88,5069.55,-12026.6,-2388.12,46.0914,11.9336,136.683,15849.3,15944.6,2799.02,119.454,318.255,163.698,9756.39,-13995.7,2734.61,-10.6526,-22.5406,116.725,9810.89,-1268.15,-626.642,-46.2531,-63.8984,29.0712
4.586,37016.2,1343.66,-10672.0,-60.5316,104.906,99.4102,4725.72,2538.08,9856.81,-11.3987,-171.035,3.22421,-33793.1,9246.0,-6894.58,29.9277,5.71969,188.391,5149.0,-11989.6,-2516.53,46.3673,13.2592,139.008,17482.5,16272.0,3207.47,120.304,314.784,162.776,10002.9,-14146.8,2871.18,-10.0564,-19.2654,115.412,9868.55,-1323.64,-500.097,-46.4821,-62.7444,28.6631
4.587,37121.8,1494.74,-11117.0,-61.8228,100.543,94.1589,4705.7,2530.4,9859.31,-11.2579,-173.104,3.57835,-33917.4,8629.53,-6854.24,30.608,5.89638,179.882,5217.2,-11951.1,-2615.85,46.5554,14.8912,141.451,19110.1,16650.5,3605.62,117.504,307.709,160.943,10237.5,-14269.3,3028.34,-9.3082,-16.0869,113.872,9904.97,-1364.31,-379.934,-46.5334,-61.4803,28.2207
4.588,37273.6,1819.79,-11380.2,-63.5047,96.2448,89.7147,4721.94,2497.56,9868.98,-11.3727,-175.478,3.80553,-34156.9,8112.35,-6529.36,31.4208,4.99829,171.336,5262.93,-11909.6,-2656.98,46.5679,17.1361,144.128,20726.3,17130.9,3983.17,107.406,293.423,157.289,10448.5,-14334.5,3226.66,-8.25574,-13.1014,111.877,9898.9,-1375.35,-272.532,-46.2292,-59.9964,27.7099
4.589,37425.4,2144.84,-11643.5,-65.1867,91.9464,85.2704,4738.17,2464.71,9878.65,-11.4875,-177.853,4.03272,-34396.4,7595.18,-6204.47,32.2336,4.1002,162.79,5308.66,-11868.0,-2698.12,46.5804,19.381,146.806,22342.6,17611.4,4360.71,97.3077,279.137,153.635,10659.4,-14399.7,3424.98,-7.20328,-10.116,109.883,9892.82,-1386.39,-165.131,-45.925,-58.5124,27.1991
4.59,37577.2,2469.89,-11906.7,-66.8686,87.648,80.8262,4754.41,2431.86,9888.32,-11.6023,-180.227,4.2599,-34636.0,7078.0,-5879.59,33.0465,3.20212,154.244,5354.39,-11826.5,-2739.26,46.5929,21.6259,149.483,23958.8,18091.9,4738.25,87.2095,264.851,149.981,10870.4,-14464.8,3623.3,-6.15082,-7.13055,107.888,9886.74,-1397.43,-57.7291,-45.6208,-57.0284,26.6882
4.591,37729.0,2794.94,-12170.0,-68.5506,83.3496,76.382,4770.64,2399.02,9897.99,-11.717,-182.601,4.48709,-34875.5,6560.83,-5554.7,33.8593,2.30403,145.698,5400.12,-11784.9,-2780.4,46.6054,23.8708,152.16,25575.1,18572.4,5115.79,77.1113,250.565,146.326,11081.3,-14530.0,3821.62,-5.09836,-4.14512,105.893,9880.67,-1408.47,49.6725,-45.3166,-55.5445,26.1774
4.592,37880.3,3228.95,-12291.0,-71.6484,79.3841,73.2476,4842.21,2323.83,9900.63,-11.7048,-185.069,4.64,-35188.7,6286.34,-5147.18,34.8605,0.303278,137.837,5420.99,-11766.3,-2750.07,46.4814,26.6044,155.138,26808.6,19057.4,5191.04,58.6029,229.515,141.308,11219.6,-14604.0,3995.13,-4.17773,-1.99506,103.009,9895.81,-1388.76,117.503,-44.7474,-54.0759,25.5023
4.593,38031.5,3676.58,-12394.3,-74.9232,75.4602,70.2769,4920.7,2243.35,9902.4,-11.6766,-187.549,4.78364,-35511.2,6042.2,-4729.34,35.8852,-1.83531,130.062,5438.75,-11750.4,-2710.8,46.3404,29.3992,158.153,27994.3,19542.8,5228.49,39.0433,207.62,136.119,11348.8,-14679.1,4165.54,-3.27359,0.0505706,100.013,9913.6,-1365.21,180.388,-44.145,-52.6092,24.8067
4.594,38182.7,4124.2,-12497.6,-78.1979,71.5363,67.3061,4999.19,2162.87,9904.17,-11.6484,-190.029,4.92727,-35833.7,5798.05,-4311.49,36.9098,-3.9739,122.287,5456.52,-11734.6,-2671.54,46.1994,32.1939,161.168,29180.0,20028.3,5265.95,19.4836,185.725,130.93,11478.1,-14754.2,4335.95,-2.36945,2.0962,97.0178,9931.39,-1341.66,243.272,-43.5426,-51.1426,24.1111
4.595,38333.9,4571.83,-12600.9,-81.4727,67.6124,64.3354,5077.67,2082.38,9905.94,-11.6203,-192.51,5.0709,-36156.1,5553.9,-3893.64,37.9345,-6.11249,114.512,5474.28,-11718.8,-2632.27,46.0585,34.9886,164.183,30365.7,20513.8,5303.41,-0.0760904,163.83,125.741,11607.3,-14829.3,4506.36,-1.4653,4.14183,94.0222,9949.19,-1318.1,306.157,-42.9402,-49.6759,23.4155
4.596,38465.1,4996.25,-12651.1,-84.6637,63.7258,61.6754,5134.82,1969.39,9947.98,-11.5745,-195.137,5.10782,-36456.2,5349.04,-3513.88,38.9776,-8.4829,106.772,5488.44,-11743.6,-2541.44,45.9379,37.727,167.229,31289.9,20916.7,5246.69,-20.7244,141.31,120.61,11677.4,-14845.6,4660.14,-0.981824,5.75118,90.7684,9968.15,-1292.05,315.319,-42.2266,-48.3734,22.6386
4.597,38571.2,5391.68,-12635.1,-87.7499,59.8857,59.4035,5165.29,1815.76,10040.4,-11.5067,-197.949,5.01135,-36728.2,5193.29,-3181.71,40.0436,-11.1431,99.0768,5498.07,-11819.2,-2386.17,45.8429,40.3951,170.315,31887.2,21216.2,5072.24,-42.7334,118.01,115.55,11673.5,-14788.6,4793.12,-1.02417,6.81518,87.1918,9988.59,-1262.88,257.327,-41.3739,-47.276,21.76
4.598,38677.3,5787.1,-12619.1,-90.8361,56.0457,57.1317,5195.77,1662.12,10132.8,-11.4389,-200.76,4.91487,-37000.2,5037.54,-2849.55,41.1097,-13.8033,91.3816,5507.71,-11894.9,-2230.89,45.7479,43.0631,173.401,32484.6,21515.8,4897.79,-64.7425,94.7092,110.49,11669.5,-14731.5,4926.1,-1.06652,7.87917,83.6152,10009.0,-1233.71,199.336,-40.5211,-46.1786,20.8813
4.599,38783.3,6182.52,-12603.0,-93.9223,52.2056,54.8599,5226.25,1508.49,10225.1,-11.3711,-203.572,4.81839,-37272.2,4881.79,-2517.39,42.1757,-16.4635,83.6863,5517.35,-11970.5,-2075.62,45.6529,45.7312,176.486,33081.9,21815.4,4723.34,-86.7515,71.4087,105.43,11665.6,-14674.5,5059.09,-1.10887,8.94316,80.0385,10029.5,-1204.54,141.345,-39.6684,-45.0812,20.0027
4.6,38889.4,6577.95,-12587.0,-97.0085,48.3655,52.5881,5256.72,1354.85,10317.5,-11.3033,-206.384,4.72192,-37544.3,4726.04,-2185.23,43.2417,-19.1236,75.9911,5526.98,-12046.1,-1920.34,45.5578,48.3992,179.572,33679.2,22115.0,4548.89,-108.761,48.1082,100.369,11661.7,-14617.4,5192.07,-1.15122,10.0072,76.4619,10049.9,-1175.37,83.3537,-38.8157,-43.9837,19.1241
4.601,38875.9,6633.29,-12690.1,-98.5878,44.8702,50.392,5284.99,1194.82,10429.1,-11.1017,-209.282,4.53152,-37542.6,4635.67,-1914.19,44.5988,-21.4436,68.0119,5527.07,-12145.8,-1719.54,45.6084,50.2386,182.382,33653.1,22067.9,4378.43,-126.058,28.3454,96.5836,11526.0,-14476.9,5236.88,-1.72623,9.52982,72.6757,10084.2,-1095.76,-17.1028,-37.9171,-43.3479,18.0031
4.602,38862.4,6688.64,-12793.2,-100.167,41.3749,48.1958,5313.27,1034.79,10540.6,-10.9,-212.18,4.34111,-37541.0,4545.3,-1643.15,45.9559,-23.7635,60.0326,5527.17,-12245.5,-1518.74,45.659,52.078,185.192,33627.0,22020.8,4207.98,-143.355,8.58252,92.7976,11390.3,-14336.3,5281.7,-2.30124,9.0525,68.8896,10118.5,-1016.15,-117.559,-37.0185,-42.712,16.882
4.603,38848.9,6743.99,-12896.3,-101.746,37.8796,45.9997,5341.54,874.755,10652.1,-10.6983,-215.078,4.15071,-37539.4,4454.93,-1372.11,47.313,-26.0834,52.0534,5527.26,-12345.2,-1317.94,45.7096,53.9173,188.003,33600.8,21973.7,4037.53,-160.653,-11.1803,89.0117,11254.6,-14195.8,5326.51,-2.87625,8.57517,65.1034,10152.8,-936.547,-218.016,-36.1199,-42.0761,15.7609
4.604,38835.4,6799.33,-12999.4,-103.326,34.3843,43.8036,5369.81,714.723,10763.7,-10.4967,-217.976,3.96031,-37537.7,4364.56,-1101.08,48.6701,-28.4033,44.0742,5527.35,-12445.0,-1117.14,45.7602,55.7567,190.813,33574.7,21926.6,3867.07,-177.95,-30.9432,85.2258,11118.9,-14055.2,5371.32,-3.45126,8.09784,61.3172,10187.2,-856.94,-318.472,-35.2214,-41.4403,14.6399
4.605,38651.6,6675.9,-13077.0,-103.324,30.7923,41.1341,5382.95,589.041,10846.4,-10.3657,-221.188,3.81974,-37356.4,4289.56,-890.934,49.8684,-30.3146,35.9753,5508.51,-12552.1,-911.936,45.9704,57.1646,193.431,33230.0,21585.2,3899.23,-189.502,-47.4468,81.5469,10902.4,-13908.1,5390.96,-4.26862,7.016,57.5558,10229.7,-758.606,-444.187,-34.6847,-41.2046,13.5589
4.606,38331.4,6409.45,-13134.3,-102.058,27.1229,38.086,5383.98,490.839,10906.1,-10.2912,-224.651,3.71903,-37031.3,4226.86,-729.509,50.9396,-31.899,27.7808,5474.54,-12665.3,-703.21,46.3082,58.2274,195.896,32630.3,21008.3,4093.49,-196.457,-61.3429,77.9535,10621.2,-13755.8,5390.47,-5.27985,5.45056,53.8143,10278.9,-645.289,-590.108,-34.4375,-41.2892,12.51
4.607,38011.3,6142.99,-13191.5,-100.791,23.4536,35.0379,5385.01,392.637,10965.8,-10.2168,-228.114,3.61832,-36706.2,4164.16,-568.084,52.0107,-33.4834,19.5864,5440.56,-12778.4,-494.484,46.6461,59.2902,198.36,32030.7,20431.5,4287.74,-203.413,-75.2391,74.3601,10340.1,-13603.6,5389.97,-6.29109,3.88512,50.0727,10328.1,-531.972,-736.029,-34.1903,-41.3737,11.461
4.608,37691.2,5876.54,-13248.8,-99.525,19.7842,31.9898,5386.04,294.436,11025.6,-10.1423,-231.577,3.51761,-36381.1,4101.46,-406.659,53.0819,-35.0678,11.3919,5406.59,-12891.5,-285.758,46.9839,60.353,200.825,31431.0,19854.6,4482.0,-210.368,-89.1353,70.7666,10058.9,-13451.3,5389.47,-7.30232,2.31967,46.3312,10377.3,-418.656,-881.95,-33.9431,-41.4583,10.4121
4.609,37356.6,5606.78,-13293.4,-97.9352,16.0687,28.8936,5382.12,202.274,11086.0,-10.0729,-235.082,3.35265,-36032.9,4052.33,-266.388,54.0488,-36.4902,3.21523,5371.5,-13008.9,-79.0579,47.3349,61.3317,203.243,30791.5,19214.0,4701.53,-215.942,-102.244,66.9081,9765.04,-13295.4,5383.23,-8.33127,0.685001,42.6601,10431.2,-303.272,-1032.71,-33.7409,-41.5658,9.37929
4.61,36906.6,5310.65,-13237.4,-93.7581,11.9833,25.4129,5338.59,158.433,11152.2,-10.0441,-238.918,2.67371,-35499.9,4111.83,-295.339,54.1809,-36.6161,-4.81852,5327.5,-13160.6,111.433,47.7908,61.6371,205.288,29833.2,18063.2,5123.3,-210.464,-109.056,60.9288,9369.79,-13110.7,5331.07,-9.50187,-1.5035,39.5525,10523.1,-171.356,-1222.17,-33.8981,-41.8573,8.47588
4.611,36456.6,5014.52,-13181.4,-89.581,7.898,21.9323,5295.06,114.593,11218.5,-10.0153,-242.754,1.99477,-34966.8,4171.33,-324.29,54.313,-36.7421,-12.8523,5283.5,-13312.2,301.923,48.2468,61.9425,207.333,28874.9,16912.5,5545.07,-204.987,-115.868,54.9494,8974.53,-12926.0,5278.9,-10.6725,-3.69201,36.445,10614.9,-39.4387,-1411.63,-34.0554,-42.1488,7.57246
4.612,36006.6,4718.39,-13125.4,-85.4039,3.81266,18.4516,5251.53,70.7521,11284.7,-9.98647,-246.59,1.31583,-34433.8,4230.84,-353.242,54.445,-36.868,-20.886,5239.5,-13463.9,492.414,48.7028,62.2479,209.377,27916.6,15761.8,5966.84,-199.509,-122.68,48.97,8579.28,-12741.3,5226.73,-11.8431,-5.88051,33.3374,10706.8,92.4782,-1601.09,-34.2127,-42.4403,6.66905
4.613,35556.6,4422.25,-13069.3,-81.2268,-0.272668,14.9709,5208.0,26.9116,11350.9,-9.95765,-250.427,0.636891,-33900.8,4290.34,-382.193,54.5771,-36.9939,-28.9198,5195.5,-13615.5,682.905,49.1588,62.5532,211.422,26958.2,14611.1,6388.61,-194.032,-129.492,42.9907,8184.02,-12556.6,5174.57,-13.0137,-8.06902,30.2299,10798.6,224.395,-1790.55,-34.3699,-42.7318,5.76563
4.614,35106.4,4346.85,-12929.2,-76.4878,-4.54727,11.2887,5188.05,-36.0669,11428.7,-9.78359,-254.588,0.0390578,-33359.5,4429.52,-393.856,53.8127,-36.1082,-36.5329,5164.07,-13754.6,826.455,49.5745,62.3315,213.301,25834.5,13547.9,6701.8,-183.284,-131.447,36.8552,7769.87,-12355.6,5138.31,-14.1127,-10.6229,27.6848,10918.3,302.837,-1998.75,-34.2738,-42.5548,4.7285
4.615,34656.1,4381.82,-12747.1,-71.4678,-8.91651,7.50566,5179.89,-108.614,11512.4,-9.53691,-258.912,-0.518223,-32814.1,4608.54,-396.876,52.6001,-34.7166,-43.9357,5138.92,-13887.4,946.536,49.97,61.8462,215.096,24627.9,12528.5,6960.7,-169.902,-130.975,30.6417,7346.26,-12146.4,5110.0,-15.176,-13.3594,25.4211,11051.9,354.542,-2216.31,-34.051,-42.1435,3.62452
4.616,34205.8,4416.78,-12565.0,-66.4478,-13.2857,3.72263,5171.73,-181.162,11596.0,-9.29024,-263.236,-1.0755,-32268.7,4787.57,-399.895,51.3875,-33.325,-51.3385,5113.77,-14020.2,1066.62,50.3655,61.3608,216.891,23421.4,11509.1,7219.61,-156.519,-130.502,24.4283,6922.66,-11937.2,5081.69,-16.2392,-16.0959,23.1573,11185.4,406.246,-2433.88,-33.8282,-41.7322,2.52053
4.617,33755.4,4451.74,-12382.9,-61.4277,-17.655,-0.0604072,5163.57,-253.709,11679.6,-9.04356,-267.561,-1.63278,-31723.3,4966.59,-402.915,50.1749,-31.9334,-58.7413,5088.62,-14153.0,1186.7,50.761,60.8755,218.686,22214.9,10489.7,7478.51,-143.137,-130.029,18.2148,6499.06,-11727.9,5053.38,-17.3025,-18.8324,20.8935,11319.0,457.951,-2651.45,-33.6054,-41.321,1.41655
4.618,33332.9,4482.73,-12192.9,-56.5273,-21.8636,-3.90624,5155.72,-324.598,11772.2,-8.69384,-271.942,-2.12247,-31208.5,5154.54,-393.503,48.9103,-30.3251,-65.9003,5066.86,-14283.5,1291.5,51.1409,60.268,220.421,20962.8,9582.86,7651.19,-129.795,-128.52,12.5056,6082.76,-11534.8,5035.88,-18.2786,-21.5492,18.8855,11456.1,506.617,-2862.47,-33.221,-40.7199,0.37289
4.619,33007.6,4499.83,-11975.7,-52.0454,-25.5101,-7.97188,5148.96,-389.681,11896.1,-7.98344,-276.523,-2.3756,-30801.1,5373.7,-340.584,47.4635,-27.9584,-72.2057,5056.96,-14405.8,1342.83,51.4659,59.2331,221.948,19551.1,9069.96,7522.07,-116.591,-123.384,8.56156,5692.05,-11398.0,5056.22,-18.9499,-24.1971,17.7726,11605.6,544.648,-3050.6,-32.2711,-39.4544,-0.459618
4.62,32682.3,4516.92,-11758.4,-47.5635,-29.1566,-12.0375,5142.2,-454.763,12019.9,-7.27304,-281.105,-2.62873,-30393.7,5592.86,-287.665,46.0168,-25.5917,-78.5112,5047.05,-14528.1,1394.17,51.7909,58.1982,223.474,18139.3,8557.07,7392.94,-103.387,-118.247,4.6175,5301.34,-11261.1,5076.56,-19.6212,-26.8451,16.6598,11755.1,582.679,-3238.73,-31.3212,-38.189,-1.29213
4.621,32357.0,4534.02,-11541.1,-43.0816,-32.8032,-16.1032,5135.44,-519.846,12143.8,-6.56264,-285.686,-2.88185,-29986.3,5812.03,-234.746,44.5701,-23.225,-84.8166,5037.15,-14650.5,1445.5,52.1159,57.1633,225.001,16727.6,8044.18,7263.82,-90.1834,-113.11,0.67345,4910.62,-11124.3,5096.89,-20.2925,-29.493,15.547,11904.6,620.71,-3426.85,-30.3713,-36.9235,-2.12463
4.622,32031.8,4551.11,-11323.8,-38.5998,-36.4497,-20.1688,5128.67,-584.929,12267.6,-5.85224,-290.268,-3.13498,-29578.9,6031.19,-181.826,43.1234,-20.8583,-91.122,5027.25,-14772.8,1496.83,52.4409,56.1284,226.527,15315.9,7531.29,7134.7,-76.9797,-107.973,-3.2706,4519.91,-10987.4,5117.23,-20.9637,-32.1409,14.4342,12054.2,658.742,-3614.98,-29.4214,-35.6581,-2.95714
4.623,31836.0,4494.36,-10974.8,-34.5923,-39.6832,-24.4921,5098.55,-618.44,12370.8,-4.72181,-294.979,-3.60811,-29203.2,6315.76,-60.9517,41.7853,-17.8917,-96.9539,5034.28,-14888.3,1526.66,52.757,54.5797,227.862,13892.9,7325.41,6920.55,-64.9192,-104.269,-5.07416,4214.98,-10939.8,5125.36,-20.878,-34.3943,13.9008,12188.5,692.104,-3778.58,-28.3711,-33.8703,-3.80157
4.624,31677.3,4416.5,-10588.1,-30.7205,-42.7988,-28.8891,5061.75,-642.929,12468.1,-3.47136,-299.728,-4.14411,-28836.4,6619.01,79.339,40.4782,-14.7537,-102.65,5046.14,-15001.7,1550.35,53.0705,52.884,229.143,12466.8,7207.25,6682.11,-53.1854,-100.974,-6.26614,3934.56,-10917.7,5130.0,-20.5761,-36.5349,13.533,12318.6,724.133,-3935.18,-27.292,-31.9332,-4.64941
4.625,31518.6,4338.64,-10201.4,-26.8486,-45.9143,-33.286,5024.96,-667.419,12565.3,-2.22091,-304.476,-4.6801,-28469.6,6922.27,219.63,39.1711,-11.6158,-108.347,5058.01,-15115.2,1574.03,53.3841,51.1884,230.424,11040.7,7089.09,6443.67,-41.4516,-97.6792,-7.45812,3654.14,-10895.5,5134.65,-20.2741,-38.6754,13.1652,12448.6,756.162,-4091.77,-26.2129,-29.9962,-5.49724
4.626,31359.8,4260.78,-9814.67,-22.9767,-49.0299,-37.683,4988.16,-691.908,12662.6,-0.970469,-309.225,-5.21609,-28102.9,7225.52,359.92,37.8641,-8.47783,-114.044,5069.88,-15228.6,1597.72,53.6976,49.4928,231.704,9614.53,6970.93,6205.23,-29.7178,-94.3844,-8.6501,3373.72,-10873.4,5139.29,-19.9721,-40.816,12.7974,12578.7,788.191,-4248.36,-25.1338,-28.0592,-6.34507
4.627,31187.7,4165.04,-9442.51,-19.3327,-51.7175,-42.0913,4936.75,-706.396,12746.9,0.547717,-313.99,-5.65648,-27702.2,7525.25,489.268,36.5553,-5.17903,-119.23,5091.45,-15337.5,1613.86,54.0133,47.6746,232.952,8262.09,6929.37,6115.57,-19.3962,-95.4088,-8.93034,3151.02,-10893.9,5148.54,-19.3341,-42.7857,12.613,12697.8,815.12,-4377.87,-24.0588,-26.0599,-7.18207
4.628,30988.7,4033.5,-9099.43,-16.1445,-53.5491,-46.5222,4856.12,-700.882,12805.1,2.60138,-318.789,-5.90563,-27233.7,7817.94,596.73,35.2431,-1.55857,-123.398,5132.42,-15437.2,1614.91,54.3331,45.6112,234.133,7057.04,7041.03,6323.5,-11.8989,-105.072,-7.38708,3043.73,-10999.9,5167.02,-18.024,-44.4133,12.7953,12794.9,831.848,-4453.18,-22.9919,-23.9362,-7.99739
4.629,30789.8,3901.97,-8756.35,-12.9562,-55.3807,-50.9531,4775.49,-695.367,12863.4,4.65505,-323.588,-6.15479,-26765.3,8110.62,704.191,33.9308,2.06189,-127.565,5173.4,-15536.9,1615.96,54.6528,43.5479,235.314,5851.98,7152.68,6531.42,-4.40164,-114.735,-5.84382,2936.45,-11105.9,5185.5,-16.714,-46.041,12.9776,12892.0,848.577,-4528.5,-21.925,-21.8125,-8.8127
4.63,30590.8,3770.44,-8413.27,-9.76796,-57.2123,-55.384,4694.87,-689.852,12921.6,6.70872,-328.387,-6.40395,-26296.8,8403.31,811.653,32.6186,5.68235,-131.732,5214.38,-15636.6,1617.0,54.9726,41.4845,236.495,4646.92,7264.33,6739.35,3.09563,-124.398,-4.30057,2829.16,-11211.9,5203.98,-15.4039,-47.6687,13.1598,12989.1,865.306,-4603.82,-20.858,-19.6887,-9.62802
4.631,30391.9,3638.91,-8070.2,-6.5797,-59.044,-59.815,4614.24,-684.338,12979.8,8.76238,-333.186,-6.65311,-25828.3,8695.99,919.114,31.3064,9.3028,-135.899,5255.36,-15736.4,1618.05,55.2924,39.4211,237.676,3441.86,7375.98,6947.27,10.5929,-134.06,-2.75731,2721.88,-11317.9,5222.45,-14.0939,-49.2963,13.3421,13086.2,882.034,-4679.14,-19.7911,-17.565,-10.4433
4.632,30111.3,3155.06,-7784.67,-0.681821,-59.7836,-65.0058,4563.51,-677.827,13082.9,11.1782,-338.213,-6.89008,-25324.1,8973.33,1032.25,29.8919,13.8183,-139.253,5347.24,-15832.2,1583.66,55.6607,37.2996,238.785,2482.18,7550.2,7237.96,12.0674,-158.318,0.0158816,2786.87,-11510.7,5268.16,-11.8723,-50.8103,13.5109,13161.0,864.675,-4717.32,-18.6801,-15.9408,-11.2423
4.633,29820.6,2627.17,-7506.33,5.55476,-60.3868,-70.2916,4516.53,-671.191,13191.5,13.6392,-343.268,-7.12552,-24815.5,9248.76,1146.1,28.4646,18.4456,-142.506,5445.48,-15927.5,1544.83,56.035,35.1707,239.884,1553.18,7732.25,7539.0,12.7891,-184.401,2.94281,2873.4,-11714.4,5317.28,-9.53677,-52.3101,13.678,13233.0,843.054,-4750.86,-17.5635,-14.379,-12.0391
4.634,29529.9,2099.28,-7227.99,11.7913,-60.99,-75.5774,4469.54,-664.555,13300.1,16.1002,-348.323,-7.36097,-24306.8,9524.18,1259.94,27.0374,23.073,-145.759,5543.73,-16022.9,1506.0,56.4093,33.0418,240.984,624.171,7914.29,7840.04,13.5108,-210.483,5.86974,2959.93,-11918.0,5366.4,-7.20124,-53.81,13.8451,13305.1,821.433,-4784.4,-16.447,-12.8172,-12.836
4.635,29239.2,1571.39,-6949.65,18.0279,-61.5931,-80.8632,4422.55,-657.919,13408.7,18.5613,-353.378,-7.59641,-23798.2,9799.6,1373.79,25.6101,27.7003,-149.012,5641.97,-16118.2,1467.17,56.7836,30.913,242.083,-304.834,8096.33,8141.07,14.2324,-236.565,8.79667,3046.45,-12121.7,5415.51,-4.86571,-55.3098,14.0121,13377.1,799.812,-4817.94,-15.3305,-11.2554,-13.6329
4.636,29030.3,1011.38,-7197.78,30.5228,-62.5595,-86.4527,4352.71,-661.626,13515.0,21.2069,-358.591,-7.96403,-23143.2,10101.5,1565.78,20.6427,36.1724,-152.708,5751.91,-16224.1,1419.46,57.1832,28.739,243.117,-1208.35,8004.37,7958.93,14.9641,-262.53,10.0034,3209.03,-12366.9,5448.99,-2.31764,-56.875,13.9601,13433.4,754.285,-4832.41,-14.6449,-10.0581,-14.3829
4.637,28923.6,411.198,-8103.99,50.8405,-63.9797,-92.4219,4254.28,-678.262,13618.2,24.0834,-364.001,-8.49687,-22305.1,10436.4,1855.44,11.2503,49.4503,-156.959,5876.48,-16343.2,1360.64,57.6144,26.5088,244.07,-2080.01,7569.91,7172.82,15.7082,-288.349,9.05994,3466.68,-12663.9,5462.94,0.496108,-58.5221,13.634,13470.0,678.875,-4823.05,-14.4981,-9.31653,-15.0743
4.638,28816.9,-188.978,-9010.2,71.1582,-65.4,-98.3911,4155.86,-694.898,13721.4,26.9599,-369.411,-9.02971,-21467.1,10771.3,2145.1,1.85783,62.7283,-161.21,6001.04,-16462.3,1301.83,58.0456,24.2785,245.023,-2951.66,7135.44,6386.71,16.4523,-314.168,8.11646,3724.32,-12961.0,5476.88,3.30986,-60.1691,13.308,13506.5,603.466,-4813.68,-14.3513,-8.57491,-15.7658
4.639,28710.2,-789.155,-9916.41,91.4759,-66.8203,-104.36,4057.44,-711.534,13824.6,29.8364,-374.822,-9.56254,-20629.1,11106.2,2434.76,-7.53462,76.0062,-165.461,6125.6,-16581.3,1243.01,58.4769,22.0483,245.976,-3823.31,6700.97,5600.59,17.1964,-339.986,7.17298,3981.97,-13258.1,5490.82,6.12361,-61.8162,12.982,13543.1,528.057,-4804.32,-14.2045,-7.83329,-16.4572
4.64,28603.5,-1389.33,-10822.6,111.794,-68.2406,-110.329,3959.01,-728.17,13927.8,32.7129,-380.232,-10.0954,-19791.0,11441.1,2724.42,-16.9271,89.2842,-169.712,6250.17,-16700.4,1184.2,58.9081,19.818,246.928,-4694.97,6266.5,4814.48,17.9406,-365.805,6.22951,4239.61,-13555.2,5504.76,8.93736,-63.4632,12.656,13579.7,452.648,-4794.96,-14.0577,-7.09167,-17.1487
4.641,28295.0,-658.585,-11473.7,117.345,-86.9805,-121.635,3893.41,-750.738,14098.1,36.1387,-386.379,-10.482,-18258.1,12322.5,3755.19,-28.2082,107.136,-175.252,6388.02,-16855.1,1156.14,59.3923,17.5435,248.01,-5502.52,5460.24,3918.51,10.5284,-371.986,0.822103,4630.58,-13855.4,5506.19,11.594,-65.602,11.6575,13660.0,279.257,-4565.9,-16.6868,-7.52364,-17.3773
4.642,27986.6,72.1609,-12124.8,122.896,-105.72,-132.941,3827.81,-773.306,14268.5,39.5646,-392.527,-10.8686,-16725.2,13203.8,4785.95,-39.4894,124.987,-180.792,6525.88,-17009.7,1128.09,59.8765,15.269,249.091,-6310.07,4653.98,3022.54,3.11633,-378.166,-4.5853,5021.56,-14155.6,5507.61,14.2507,-67.7408,10.6591,13740.3,105.867,-4336.84,-19.3159,-7.95562,-17.606
4.643,27678.1,802.907,-12776.0,128.447,-124.46,-144.247,3762.21,-795.874,14438.8,42.9905,-398.675,-11.2552,-15192.2,14085.2,5816.71,-50.7706,142.838,-186.332,6663.74,-17164.4,1100.04,60.3607,12.9945,250.172,-7117.62,3847.72,2126.57,-4.29578,-384.347,-9.9927,5412.53,-14455.8,5509.03,16.9074,-69.8796,9.66061,13820.6,-67.5235,-4107.78,-21.945,-8.38759,-17.8347
4.644,27369.7,1533.65,-13427.1,133.998,-143.2,-155.553,3696.61,-818.442,14609.2,46.4163,-404.822,-11.6418,-13659.3,14966.6,6847.47,-62.0518,160.69,-191.872,6801.59,-17319.0,1071.99,60.8449,10.72,251.254,-7925.17,3041.46,1230.59,-11.7079,-390.527,-15.4001,5803.5,-14756.0,5510.45,19.5641,-72.0184,8.66216,13900.9,-240.914,-3878.72,-24.5741,-8.81957,-18.0633
4.645,24186.6,3130.65,-10152.4,126.264,-199.948,-174.434,3628.8,-852.057,14900.9,50.058,-411.889,-12.1544,-11838.2,16334.0,8709.99,-75.4279,174.025,-197.394,6955.25,-17498.3,1075.37,61.3456,8.29967,252.497,-8539.22,2646.38,978.894,-25.4098,-380.76,-20.0303,6241.72,-15032.5,5381.36,21.8589,-74.1568,7.34665,14036.1,-434.514,-3460.27,-29.2208,-10.3193,-17.5419
4.646,18703.8,5420.64,-3737.22,107.901,-287.101,-199.374,3559.23,-894.51,15289.6,53.8722,-419.692,-12.7677,-9786.65,18090.4,11237.9,-90.4799,183.747,-202.902,7121.56,-17697.2,1103.88,61.8594,5.76265,253.869,-8998.49,2580.24,1242.61,-44.1435,-358.235,-24.0387,6717.75,-15290.1,5147.85,23.8641,-76.2949,5.77749,14215.3,-644.281,-2890.31,-35.4816,-12.6734,-16.4204
4.647,13220.9,7710.63,2678.01,89.5391,-374.255,-224.315,3489.66,-936.962,15678.3,57.6865,-427.494,-13.3811,-7735.06,19846.7,13765.8,-105.532,193.47,-208.41,7287.87,-17896.1,1132.4,62.3733,3.22562,255.241,-9457.75,2514.1,1506.32,-62.8772,-335.71,-28.0471,7193.78,-15547.6,4914.34,25.8694,-78.433,4.20833,14394.5,-854.048,-2320.34,-41.7424,-15.0274,-15.2989
4.648,7738.12,10000.6,9093.24,71.1767,-461.409,-249.255,3420.09,-979.415,16067.0,61.5007,-435.297,-13.9945,-5683.47,21603.0,16293.8,-120.584,203.192,-213.918,7454.18,-18095.0,1160.91,62.8872,0.688596,256.614,-9917.01,2447.97,1770.04,-81.6109,-313.185,-32.0554,7669.81,-15805.1,4680.84,27.8747,-80.5711,2.63917,14573.7,-1063.82,-1750.38,-48.0032,-17.3814,-14.1774
4.649,2672.51,12297.3,14711.3,57.9247,-543.141,-269.427,3349.07,-1034.27,16463.8,65.3843,-443.25,-14.6919,-3761.31,23323.9,18838.0,-133.127,210.177,-219.934,7629.16,-18310.1,1200.9,63.4441,-1.89975,257.968,-10335.2,2415.23,2084.81,-99.2313,-288.719,-35.8631,8144.6,-16059.8,4427.17,29.7847,-82.5249,1.02741,14750.8,-1262.75,-1154.86,-54.1142,-19.8485,-13.0055
4.65,944.598,14647.2,13952.5,85.5555,-581.496,-251.454,3266.43,-1188.39,16925.1,69.8232,-452.409,-16.0609,-2874.52,24762.1,21512.8,-125.593,195.258,-230.013,7873.55,-18655.6,1332.68,64.3449,-4.8987,259.176,-10424.5,2649.7,2808.01,-107.945,-248.721,-38.0648,8609.4,-16292.4,4012.24,30.9326,-83.0039,-0.925086,14911.7,-1375.01,-354.903,-59.0271,-23.2204,-11.4309
4.651,-783.316,16997.1,13193.6,113.186,-619.851,-233.48,3183.78,-1342.5,17386.4,74.2621,-461.567,-17.4299,-1987.74,26200.3,24187.6,-118.059,180.339,-240.092,8117.94,-19001.0,1464.45,65.2458,-7.89764,260.384,-10513.8,2884.16,3531.21,-116.66,-208.723,-40.2664,9074.21,-16524.9,3597.31,32.0804,-83.4829,-2.87759,15072.5,-1487.27,445.053,-63.9401,-26.5924,-9.85628
4.652,-2511.23,19347.1,12434.8,140.817,-658.206,-215.506,3101.14,-1496.61,17847.7,78.7009,-470.726,-18.799,-1100.96,27638.4,26862.5,-110.526,165.42,-250.171,8362.33,-19346.4,1596.22,66.1466,-10.8966,261.592,-10603.1,3118.63,4254.42,-125.374,-168.725,-42.4681,9539.02,-16757.5,3182.38,33.2283,-83.9619,-4.83009,15233.4,-1599.53,1245.01,-68.8531,-29.9643,-8.28165
4.653,-4239.14,21697.0,11675.9,168.448,-696.561,-197.533,3018.49,-1650.72,18309.0,83.1398,-479.884,-20.168,-214.178,29076.6,29537.3,-102.992,150.5,-260.25,8606.71,-19691.8,1728.0,67.0475,-13.8955,262.8,-10692.4,3353.1,4977.62,-134.088,-128.726,-44.6698,10003.8,-16990.0,2767.45,34.3762,-84.441,-6.78258,15394.2,-1711.79,2044.96,-73.766,-33.3362,-6.70701
4.654,1801.33,18890.2,9956.85,152.846,-671.953,-177.623,2910.96,-1823.31,18649.3,87.6689,-489.316,-21.8635,-1105.91,29594.0,27829.1,-93.3889,148.837,-268.154,8996.78,-20162.1,1883.65,67.9924,-17.8,263.436,-10516.6,3378.69,4956.27,-126.007,-91.5355,-47.401,10406.6,-17212.9,2457.16,35.0477,-83.2156,-9.08537,15459.1,-1694.8,2832.06,-74.2396,-35.9319,-5.4212
4.655,11726.0,13505.2,7757.67,115.627,-615.865,-156.745,2790.98,-2005.14,18929.2,92.243,-498.884,-23.7222,-2886.9,29651.0,23929.3,-82.7504,153.802,-274.97,9459.68,-20694.9,2051.25,68.9594,-22.1571,263.786,-10208.3,3299.84,4562.66,-109.527,-55.7483,-50.3971,10778.5,-17430.8,2199.2,35.481,-81.1381,-11.5633,15476.0,-1613.18,3612.72,-72.4935,-38.1395,-4.27979
4.656,21650.7,8120.07,5558.49,78.4077,-559.777,-135.868,2671.0,-2186.97,19209.0,96.8172,-508.453,-25.5809,-4667.9,29708.0,20029.6,-72.1119,158.766,-281.787,9922.58,-21227.7,2218.84,69.9264,-26.5143,264.136,-9899.92,3220.99,4169.04,-93.0474,-19.961,-53.3931,11150.3,-17648.8,1941.24,35.9143,-79.0606,-14.0412,15492.9,-1531.56,4393.38,-70.7474,-40.347,-3.13838
4.657,31575.3,2734.99,3359.31,41.1887,-503.689,-114.99,2551.01,-2368.8,19488.8,101.391,-518.021,-27.4395,-6448.89,29765.1,16129.8,-61.4734,163.731,-288.603,10385.5,-21760.5,2386.44,70.8933,-30.8715,264.486,-9591.58,3142.15,3775.42,-76.5678,15.8262,-56.3891,11522.1,-17866.8,1683.28,36.3476,-76.9831,-16.5192,15509.8,-1449.94,5174.05,-69.0012,-42.5546,-1.99698
4.658,40373.7,-1993.27,2833.72,10.9184,-445.074,-97.4753,2392.76,-2474.5,19736.9,106.046,-527.716,-29.2048,-8313.91,29480.8,12053.9,-47.9183,171.515,-293.387,10883.4,-22307.0,2504.94,71.8554,-35.6661,264.593,-9131.11,3221.56,3138.48,-56.5101,49.8903,-58.5689,11879.5,-18110.6,1481.69,36.8571,-74.4729,-19.0754,15493.5,-1322.27,5923.06,-65.9519,-44.2438,-0.877975
4.659,45229.9,-4422.63,8165.74,4.9686,-377.617,-91.7307,2100.52,-2313.75,19873.9,110.982,-537.856,-30.6428,-10473.0,28001.8,7361.28,-24.1548,189.168,-291.056,11504.0,-22901.1,2451.63,72.8003,-41.9919,263.845,-8138.16,3854.91,1649.93,-23.9287,77.9235,-57.892,12186.3,-18444.7,1477.41,37.6333,-70.4485,-21.9056,15361.1,-1033.42,6561.27,-58.3413,-44.1186,0.162606
4.66,50086.2,-6851.98,13497.7,-0.981191,-310.161,-85.9861,1808.29,-2153.0,20010.8,115.917,-547.995,-32.0809,-12632.1,26522.9,2668.69,-0.391243,206.821,-288.724,12124.5,-23495.2,2398.31,73.7452,-48.3177,263.097,-7145.21,4488.25,161.384,8.65264,105.957,-57.215,12493.1,-18778.9,1473.12,38.4094,-66.4241,-24.7357,15228.6,-744.57,7199.48,-50.7307,-43.9933,1.20319
4.661,54942.5,-9281.34,18829.8,-6.93098,-242.704,-80.2415,1516.05,-1992.25,20147.7,120.853,-558.134,-33.519,-14791.2,25043.9,-2023.9,23.3723,224.474,-286.393,12745.0,-24089.4,2345.0,74.6901,-54.6435,262.349,-6152.26,5121.6,-1327.16,41.234,133.99,-56.5381,12799.9,-19113.0,1468.84,39.1855,-62.3997,-27.5659,15096.1,-455.72,7837.69,-43.1201,-43.8681,2.24377
4.662,59798.7,-11710.7,24161.8,-12.8808,-175.248,-74.4969,1223.82,-1831.5,20284.6,125.788,-568.274,-34.957,-16950.3,23565.0,-6716.5,47.1358,242.126,-284.062,13365.6,-24683.5,2291.68,75.635,-60.9693,261.601,-5159.31,5754.94,-2815.71,73.8154,162.023,-55.8611,13106.6,-19447.2,1464.56,39.9616,-58.3753,-30.3961,14963.6,-166.87,8475.9,-35.5095,-43.7429,3.28435
4.663,58777.8,-17933.2,35653.4,47.0339,-146.736,-73.4874,800.843,-1428.72,20252.7,130.446,-578.846,-35.1865,-17107.4,22045.7,-9454.27,64.3306,256.696,-274.1,13992.9,-25204.7,2018.04,76.0744,-68.9531,260.055,-3804.01,7014.59,-4012.85,100.474,183.271,-50.4849,13301.1,-19755.1,1479.52,42.6851,-51.7639,-33.095,14690.0,229.316,8499.58,-27.1417,-40.3428,4.80179
4.664,56077.6,-25239.5,48904.9,125.767,-129.351,-73.8309,340.516,-956.796,20172.6,135.025,-589.542,-35.0708,-16692.4,20514.8,-11633.5,79.6487,270.384,-261.959,14622.2,-25705.1,1681.43,76.3694,-77.4107,258.281,-2345.18,8453.19,-5126.73,125.44,202.581,-43.766,13463.4,-20055.6,1499.98,45.965,-44.4134,-35.7565,14376.2,656.168,8347.7,-18.5577,-36.0071,6.45548
4.665,53377.4,-32545.7,62156.4,204.5,-111.967,-74.1744,-119.812,-484.868,20092.5,139.603,-600.238,-34.955,-16277.4,18984.0,-13812.8,94.9668,284.073,-249.817,15251.5,-26205.5,1344.83,76.6643,-85.8682,256.507,-886.355,9891.78,-6240.61,150.406,221.891,-37.0471,13625.8,-20356.1,1520.44,49.2449,-37.0629,-38.418,14062.3,1083.02,8195.81,-9.9736,-31.6714,8.10916
4.666,50677.2,-39852.0,75408.0,283.233,-94.582,-74.5178,-580.139,-12.9391,20012.3,144.182,-610.935,-34.8392,-15862.4,17453.2,-15992.0,110.285,297.761,-237.676,15880.7,-26705.9,1008.23,76.9592,-94.3258,254.733,572.475,11330.4,-7354.49,175.372,241.2,-30.3282,13788.1,-20656.6,1540.9,52.5248,-29.7124,-41.0795,13748.4,1509.87,8043.92,-1.38953,-27.3357,9.76285
4.667,46684.3,-42095.0,80068.6,336.708,-75.0853,-71.8787,-1007.62,603.942,19837.1,149.014,-621.522,-33.6951,-15027.8,16378.0,-16377.4,118.934,304.71,-226.581,16523.3,-27155.2,621.309,77.0014,-103.348,252.47,1958.06,12601.2,-7905.27,195.504,254.41,-23.77,13851.5,-20890.2,1606.04,57.1525,-21.2564,-43.2869,13454.7,1904.35,7569.21,6.30332,-22.0025,11.4473
4.668,40105.8,-34211.5,67547.6,339.666,-51.3643,-63.2742,-1369.4,1510.73,19471.5,154.354,-631.89,-30.4944,-13354.1,16214.3,-13175.1,114.245,298.181,-217.581,17192.4,-27502.3,133.748,76.5382,-113.5,249.229,3197.18,13536.4,-7329.85,205.967,255.419,-17.5331,13717.1,-20990.0,1760.53,64.4758,-10.5893,-44.5864,13201.5,2234.08,6448.88,12.2137,-14.6744,13.1931
4.669,33527.3,-26328.1,55026.6,342.625,-27.6433,-54.6697,-1731.18,2417.51,19106.0,159.694,-642.259,-27.2937,-11680.4,16050.6,-9972.79,109.557,291.652,-208.58,17861.6,-27849.4,-353.813,76.0749,-123.651,245.989,4436.29,14471.7,-6754.44,216.431,256.429,-11.2963,13582.8,-21089.9,1915.02,71.799,0.0776908,-45.8859,12948.3,2563.81,5328.55,18.1241,-7.34623,14.939
4.67,26948.8,-18444.6,42505.6,345.583,-3.92234,-46.0652,-2092.96,3324.3,18740.4,165.034,-652.628,-24.093,-10006.7,15886.8,-6770.46,104.868,285.123,-199.579,18530.7,-28196.5,-841.374,75.6116,-133.803,242.748,5675.4,15406.9,-6179.02,226.895,257.438,-5.0595,13448.4,-21189.7,2069.51,79.1223,10.7447,-47.1854,12695.0,2893.54,4208.22,24.0345,-0.0181158,16.6849
4.671,20370.4,-10561.2,29984.7,348.541,19.7986,-37.4608,-2454.73,4231.09,18374.9,170.374,-662.997,-20.8923,-8332.96,15723.1,-3568.14,100.179,278.594,-190.578,19199.8,-28543.7,-1328.94,75.1484,-143.955,239.508,6914.51,16342.1,-5603.6,237.358,258.448,1.17733,13314.0,-21289.6,2223.99,86.4456,21.4118,-48.4848,12441.8,3223.26,3087.89,29.9449,7.31,18.4308
4.672,13060.1,-3350.45,23385.9,328.496,22.9496,-48.3195,-2649.63,5513.62,18256.5,172.696,-672.201,-15.7755,-6824.38,16678.6,202.324,112.479,243.972,-186.808,20099.1,-28654.4,-1781.74,76.0474,-152.176,235.36,7481.17,16493.7,-5051.06,241.424,244.716,-0.233588,12913.4,-21153.3,2705.23,95.7467,30.1778,-48.2675,12414.8,3015.83,2166.61,29.4265,11.7046,19.9103
4.673,5658.45,3776.22,17527.4,305.575,23.5293,-61.6111,-2823.66,6843.13,18169.0,174.64,-681.259,-10.4192,-5336.45,17774.0,4043.81,126.902,205.838,-183.691,21027.1,-28735.6,-2230.19,77.1167,-160.155,231.098,7963.77,16547.3,-4501.39,244.691,229.142,-2.60047,12479.5,-20987.6,3227.31,105.295,38.7063,-47.8605,12416.1,2741.26,1270.21,28.1046,15.7326,21.3566
4.674,-1743.23,10902.9,11668.9,282.655,24.1089,-74.9027,-2997.69,8172.63,18081.4,176.585,-690.317,-5.06286,-3848.52,18869.3,7885.29,141.325,167.704,-180.575,21955.1,-28816.8,-2678.65,78.186,-168.135,226.837,8446.38,16600.9,-3951.71,247.957,213.568,-4.96735,12045.7,-20821.8,3749.39,114.843,47.2347,-47.4536,12417.4,2466.68,373.804,26.7827,19.7605,22.8028
4.675,-9144.92,18029.5,5810.45,259.734,24.6886,-88.1943,-3171.72,9502.13,17993.9,178.53,-699.375,0.293456,-2360.58,19964.7,11726.8,155.748,129.571,-177.458,22883.1,-28897.9,-3127.1,79.2552,-176.114,222.575,8928.98,16654.5,-3402.03,251.224,197.993,-7.33423,11611.8,-20656.0,4271.47,124.392,55.7632,-47.0466,12418.7,2192.1,-522.599,25.4607,23.7885,24.2491
4.676,-15020.0,20936.0,875.962,235.371,13.0064,-104.872,-3343.07,10764.5,17746.6,178.302,-709.375,5.25473,-1301.74,20718.7,13186.4,168.013,95.2229,-172.826,23879.3,-28734.8,-3587.2,80.3767,-181.667,218.963,9147.12,16605.4,-3570.68,250.835,182.724,-12.663,11072.5,-20342.1,4652.37,133.041,62.4769,-46.1323,12458.4,1725.97,-1088.87,21.7789,24.3925,25.9781
4.677,-18986.7,18567.2,-2903.53,209.203,-14.0034,-125.783,-3511.05,11943.0,17299.4,175.359,-720.552,9.72221,-779.263,21046.0,11668.8,177.579,65.607,-166.3,24960.6,-28266.3,-4061.84,81.5634,-184.188,216.161,9034.7,16428.1,-4637.22,245.879,167.837,-21.694,10401.5,-19843.1,4856.79,140.565,66.9221,-44.5837,12546.1,1020.39,-1242.49,15.1472,20.7167,28.0605
4.678,-22953.4,16198.4,-6683.03,183.035,-41.0131,-146.693,-3679.03,13121.6,16852.2,172.415,-731.729,14.1897,-256.787,21373.3,10151.1,187.146,35.9911,-159.775,26042.0,-27797.9,-4536.49,82.75,-186.708,213.359,8922.28,16250.7,-5703.76,240.923,152.949,-30.7251,9730.37,-19344.0,5061.21,148.09,71.3674,-43.0351,12633.8,314.808,-1396.11,8.51556,17.0409,30.143
4.679,-26920.2,13829.5,-10462.5,156.867,-68.0228,-167.604,-3847.01,14300.1,16405.0,169.472,-742.907,18.6572,265.69,21700.7,8633.51,196.713,6.37523,-153.249,27123.4,-27329.4,-5011.14,83.9367,-189.228,210.558,8809.85,16073.4,-6770.3,235.966,138.061,-39.7562,9059.29,-18844.9,5265.64,155.615,75.8127,-41.4866,12721.4,-390.773,-1549.72,1.88388,13.365,32.2254
4.68,-30886.9,11460.7,-14242.0,130.7,-95.0325,-188.515,-4014.99,15478.6,15957.9,166.528,-754.084,23.1246,788.167,22028.0,7115.87,206.28,-23.2407,-146.723,28204.7,-26860.9,-5485.78,85.1233,-191.748,207.756,8697.43,15896.0,-7836.85,231.01,123.173,-48.7872,8388.2,-18345.8,5470.06,163.139,80.2579,-39.938,12809.1,-1096.35,-1703.34,-4.7478,9.6892,34.3079
4.681,-27030.3,8513.13,-12417.3,141.249,-123.538,-191.455,-3719.26,15516.7,15128.4,160.896,-768.594,24.2039,746.631,20467.1,2559.03,183.177,-14.6848,-146.894,28903.1,-25845.6,-5918.35,88.7955,-185.988,207.665,7739.67,16010.1,-9010.35,213.746,116.282,-54.9166,7647.05,-17838.1,5177.6,166.214,82.3112,-38.8916,12785.9,-1655.08,-1577.63,-4.797,0.631518,35.1466
4.682,-23173.8,5565.55,-10592.6,151.798,-152.044,-194.395,-3423.53,15554.8,14299.0,155.264,-783.104,25.2831,705.094,18906.3,-1997.8,160.074,-6.1289,-147.065,29601.5,-24830.4,-6350.91,92.4676,-180.229,207.575,6781.9,16124.1,-10183.9,196.481,109.391,-61.0459,6905.91,-17330.3,4885.14,169.288,84.3644,-37.8451,12762.8,-2213.81,-1451.92,-4.8462,-8.42616,35.9854
4.683,-19317.2,2617.97,-8767.96,162.347,-180.55,-197.335,-3127.79,15592.9,13469.5,149.632,-797.614,26.3623,663.558,17345.5,-6554.64,136.972,2.42698,-147.237,30299.9,-23815.2,-6783.48,96.1398,-174.47,207.484,5824.14,16238.1,-11357.4,179.217,102.501,-67.1753,6164.76,-16822.5,4592.68,172.363,86.4177,-36.7987,12739.6,-2772.54,-1326.21,-4.89539,-17.4838,36.8241
4.684,-15460.6,-329.617,-6943.27,172.896,-209.056,-200.276,-2832.06,15631.0,12640.1,144.001,-812.125,27.4415,622.021,15784.7,-11111.5,113.869,10.9829,-147.408,30998.3,-22799.9,-7216.04,99.8119,-168.71,207.393,4866.38,16352.2,-12530.9,161.952,95.6096,-73.3046,5423.62,-16314.8,4300.22,175.437,88.4709,-35.7523,12716.4,-3331.26,-1200.5,-4.94459,-26.5415,37.6629
4.685,-9258.35,-1717.02,-5261.39,188.489,-201.509,-200.952,-2237.21,15066.4,12130.6,140.538,-826.332,27.1209,208.057,13655.2,-14522.6,80.7461,27.9988,-157.592,31228.4,-21610.2,-7454.51,102.743,-159.126,209.568,3468.78,16359.0,-13331.4,140.162,93.1848,-77.3529,4740.31,-15906.0,4099.68,176.234,88.458,-35.5923,12582.4,-3752.8,-1075.82,0.2448,-34.7269,37.5919
4.686,-1179.51,-1856.28,-3693.75,208.117,-165.121,-199.818,-1403.07,14019.6,11877.2,138.812,-840.298,25.6805,-503.849,11070.7,-17017.2,39.6069,51.7827,-175.787,31083.9,-20280.8,-7537.7,105.082,-146.481,213.556,1719.31,16280.0,-13833.7,114.751,94.3328,-79.7362,4103.29,-15576.4,3972.66,175.21,86.7921,-36.1416,12359.7,-4064.58,-951.951,9.62505,-42.2145,36.7932
4.687,6899.33,-1995.55,-2126.1,227.745,-128.732,-198.683,-568.927,12972.9,11623.7,137.085,-854.263,24.2401,-1215.76,8486.31,-19511.8,-1.53225,75.5666,-193.981,30939.4,-18951.4,-7620.88,107.421,-133.837,217.544,-30.1619,16200.9,-14335.9,89.3403,95.4807,-82.1196,3466.26,-15246.8,3845.65,174.185,85.1262,-36.6908,12137.0,-4376.36,-828.083,19.0053,-49.7021,35.9945
4.688,14978.2,-2134.81,-558.457,247.373,-92.3437,-197.549,265.216,11926.1,11370.3,135.359,-868.229,22.7996,-1927.66,5901.88,-22006.4,-42.6714,99.3505,-212.176,30794.9,-17622.1,-7704.07,109.76,-121.192,221.532,-1779.63,16121.9,-14838.1,63.9294,96.6287,-84.503,2829.24,-14917.2,3718.64,173.161,83.4603,-37.2401,11914.3,-4688.14,-704.216,28.3856,-57.1896,35.1958
4.689,22562.9,-2208.64,1028.45,264.244,-57.9927,-196.539,1249.07,10935.3,11192.1,134.273,-880.598,21.4779,-2671.89,3472.32,-24069.4,-83.2896,121.87,-230.458,30573.2,-16312.1,-7770.64,111.894,-108.257,225.839,-3557.4,16003.9,-15283.3,38.4329,98.6062,-86.7875,2201.38,-14594.4,3598.35,171.762,81.1274,-37.9674,11705.5,-4982.57,-565.002,37.826,-64.0927,34.3465
4.69,26194.4,-1758.99,2769.49,259.053,-39.9424,-196.53,3430.64,10391.8,11616.3,138.316,-880.201,21.1062,-3674.64,2281.73,-22679.4,-119.74,134.269,-249.447,29733.5,-15156.8,-7704.23,112.384,-92.9981,232.708,-5561.54,15573.6,-15272.7,12.2509,107.22,-88.2813,1646.93,-14325.8,3531.82,167.372,73.4594,-40.1197,11607.1,-5138.19,-303.016,47.7477,-66.3196,33.0927
4.691,29826.0,-1309.33,4510.52,253.863,-21.892,-196.52,5612.21,9848.31,12040.6,142.358,-879.803,20.7345,-4677.4,1091.13,-21289.5,-156.19,146.669,-268.435,28893.8,-14001.5,-7637.83,112.874,-77.7395,239.577,-7565.69,15143.3,-15262.1,-13.9312,115.834,-89.7752,1092.48,-14057.2,3465.29,162.981,65.7914,-42.2721,11508.7,-5293.81,-41.0291,57.6693,-68.5466,31.8388
4.692,33457.5,-859.68,6251.56,248.673,-3.84169,-196.51,7793.78,9304.83,12464.8,146.401,-879.405,20.3628,-5680.16,-99.4612,-19899.6,-192.64,159.069,-287.423,28054.1,-12846.2,-7571.43,113.365,-62.4809,246.445,-9569.83,14713.1,-15251.4,-40.1132,124.447,-91.269,538.033,-13788.6,3398.76,158.591,58.1233,-44.4244,11410.3,-5449.43,220.958,67.591,-70.7735,30.5849
4.693,37089.1,-410.027,7992.59,243.483,14.2087,-196.5,9975.35,8761.36,12889.0,150.443,-879.007,19.991,-6682.92,-1290.06,-18509.7,-229.09,171.469,-306.411,27214.4,-11690.9,-7505.02,113.855,-47.2223,253.314,-11574.0,14282.8,-15240.8,-66.2952,133.061,-92.7628,-16.4176,-13519.9,3332.23,154.2,50.4553,-46.5767,11311.9,-5605.05,482.944,77.5127,-73.0005,29.3311
4.694,37006.0,-742.221,8289.89,235.464,28.4502,-191.528,12556.6,9345.23,13072.4,158.853,-870.657,22.8359,-7824.18,-1141.38,-15903.4,-237.366,176.935,-311.276,26175.6,-10749.2,-7797.67,112.42,-34.7239,260.371,-13421.2,13732.4,-14773.3,-86.4481,142.721,-92.883,-669.108,-13267.6,3216.16,148.589,39.8101,-49.2889,11367.0,-5731.73,868.038,81.4833,-73.2257,29.274
4.695,35065.6,-1465.34,7865.31,226.03,40.7873,-184.075,15337.8,10492.8,13135.5,169.447,-858.33,27.2891,-9034.7,-323.074,-12689.0,-231.555,178.934,-309.078,25037.3,-9914.28,-8269.84,110.023,-23.6056,267.522,-15190.0,13122.0,-14077.4,-103.586,152.904,-92.3163,-1370.92,-13023.4,3075.31,142.367,27.6763,-52.2809,11499.0,-5843.96,1314.69,82.4783,-72.4501,29.8154
4.696,33125.1,-2188.46,7440.73,216.597,53.1245,-176.622,18119.0,11640.3,13198.5,180.041,-846.003,31.7424,-10245.2,495.234,-9474.55,-225.745,180.932,-306.881,23898.9,-9079.36,-8742.0,107.625,-12.4872,274.673,-16958.8,12511.5,-13381.5,-120.725,163.087,-91.7497,-2072.73,-12779.3,2934.46,136.144,15.5425,-55.2731,11630.9,-5956.18,1761.33,83.4733,-71.6746,30.3567
4.697,31184.7,-2911.58,7016.16,207.163,65.4616,-169.169,20900.1,12787.9,13261.6,190.635,-833.677,36.1956,-11455.7,1313.54,-6260.11,-219.934,182.931,-304.684,22760.6,-8244.44,-9214.17,105.228,-1.36888,281.825,-18727.6,11901.1,-12685.6,-137.863,173.27,-91.183,-2774.54,-12535.1,2793.61,129.922,3.40871,-58.2651,11762.9,-6068.41,2207.98,84.4683,-70.899,30.8981
4.698,28665.2,-4146.04,6814.25,200.969,73.5,-161.889,23441.9,13901.7,13151.3,198.553,-819.868,40.8401,-12673.3,2191.06,-2948.22,-205.894,180.746,-296.907,21651.8,-7527.23,-9736.98,102.317,9.02991,288.213,-20390.7,11147.3,-11859.9,-149.41,182.296,-90.6993,-3492.85,-12305.6,2639.62,123.738,-8.70444,-61.1728,11933.2,-6223.15,2607.41,83.9406,-69.7471,31.8167
4.699,24118.6,-7170.21,7391.72,206.111,66.4926,-155.215,25146.1,14897.3,12434.5,197.101,-800.874,46.154,-13915.7,3275.8,704.767,-163.051,163.917,-269.601,20646.6,-7221.99,-10437.0,97.6088,16.9103,291.931,-21683.7,9891.72,-10579.8,-141.388,187.271,-90.5062,-4268.94,-12127.7,2439.61,117.685,-20.7453,-63.7846,12237.7,-6526.69,2841.55,78.0833,-67.2782,34.056
4.7,19572.1,-10194.4,7969.18,211.253,59.4852,-148.54,26850.3,15893.0,11717.7,195.65,-781.88,51.468,-15158.0,4360.55,4357.75,-120.208,147.087,-242.295,19641.4,-6916.75,-11137.0,92.9005,24.7907,295.65,-22976.8,8636.15,-9299.68,-133.365,192.247,-90.3131,-5045.02,-11949.8,2239.6,111.632,-32.7861,-66.3965,12542.2,-6830.24,3075.69,72.2259,-64.8093,36.2953
4.701,15025.5,-13218.5,8546.64,216.396,52.4779,-141.866,28554.4,16888.6,11000.8,194.198,-762.886,56.782,-16400.3,5445.29,8010.74,-77.3647,130.258,-214.989,18636.2,-6611.51,-11837.0,88.1921,32.6711,299.368,-24269.9,7380.59,-8019.6,-125.343,197.222,-90.12,-5821.11,-11771.9,2039.6,105.579,-44.827,-69.0084,12846.6,-7133.78,3309.83,66.3686,-62.3404,38.5346
4.702,10479.0,-16242.7,9124.1,221.538,45.4705,-135.191,30258.6,17884.2,10284.0,192.747,-743.892,62.0959,-17642.7,6530.04,11663.7,-34.5217,113.428,-187.683,17630.9,-6306.27,-12537.1,83.4838,40.5515,303.086,-25562.9,6125.03,-6739.51,-117.321,202.197,-89.9269,-6597.19,-11594.0,1839.59,99.5258,-56.8679,-71.6203,13151.1,-7437.33,3543.97,60.5113,-59.8715,40.7739
4.703,8463.95,-17031.0,9654.61,227.393,37.4595,-125.675,30657.1,20184.9,10922.9,175.039,-724.404,70.2494,-17307.9,6352.91,12259.9,-8.97619,88.7417,-165.255,16604.0,-6626.66,-13513.2,75.3556,55.4786,303.101,-26369.2,4726.84,-5717.91,-97.6582,199.128,-91.9333,-7327.66,-11510.4,1377.94,94.8765,-65.4407,-74.1484,13414.6,-7824.27,3581.67,55.4595,-55.8227,43.0975
4.704,7172.24,-17180.6,10171.7,233.451,29.1617,-115.346,30682.5,22858.5,11949.2,152.686,-704.775,79.2142,-16522.6,5815.25,11982.8,11.6272,61.81,-144.22,15570.8,-7125.8,-14568.2,66.2503,72.4192,302.057,-27036.5,3287.9,-4770.17,-74.6696,193.76,-94.5681,-8045.1,-11453.8,841.529,90.6283,-73.0227,-76.6527,13666.4,-8235.04,3563.23,50.638,-51.3225,45.4452
4.705,5880.54,-17330.1,10688.8,239.509,20.8639,-105.017,30708.0,25532.1,12975.5,130.333,-685.145,88.1789,-15737.2,5277.59,11705.7,32.2305,34.8783,-123.185,14537.7,-7624.94,-15623.2,57.145,89.3598,301.014,-27703.7,1848.97,-3822.42,-51.6809,188.393,-97.203,-8762.53,-11397.1,305.121,86.3801,-80.6047,-79.157,13918.2,-8645.81,3544.79,45.8164,-46.8224,47.793
4.706,4588.83,-17479.6,11205.9,245.568,12.5662,-94.6882,30733.4,28205.7,14001.8,107.981,-665.516,97.1437,-14951.9,4739.93,11428.5,52.8339,7.94658,-102.15,13504.6,-8124.08,-16678.2,48.0397,106.3,299.971,-28371.0,410.027,-2874.68,-28.6923,183.025,-99.8378,-9479.96,-11340.5,-231.287,82.1319,-88.1867,-81.6612,14170.0,-9056.58,3526.36,40.9948,-42.3222,50.1407
4.707,3451.48,-16607.7,11665.4,249.111,5.28533,-84.8139,30805.2,31018.5,14381.4,80.4721,-644.157,107.02,-14028.9,4169.69,10224.6,70.0046,-11.0515,-85.8107,12373.8,-8741.13,-17622.9,38.5091,126.953,298.054,-28769.5,-709.885,-2083.71,-5.53637,175.41,-102.216,-10157.0,-11309.5,-794.308,78.4249,-93.8257,-84.3394,14361.7,-9386.3,3479.03,38.2515,-37.6575,52.1016
4.708,2622.82,-13693.0,12009.9,247.623,0.0383829,-75.8484,30969.5,34110.0,13467.4,42.6514,-619.339,118.718,-12830.5,3534.29,7166.93,80.3099,-14.1822,-78.8628,11047.9,-9593.99,-18347.0,28.1278,155.03,294.388,-28630.4,-1191.75,-1606.28,17.9541,163.3,-104.08,-10753.1,-11329.6,-1410.56,75.8003,-95.5787,-87.3652,14433.3,-9553.94,3373.94,39.6647,-32.6636,53.2886
4.709,1794.17,-10778.3,12354.3,246.135,-5.20856,-66.883,31133.9,37201.4,12553.4,4.83076,-594.52,130.416,-11632.0,2898.89,4109.29,90.6152,-17.3129,-71.9149,9722.03,-10446.9,-19071.1,17.7465,183.107,290.723,-28491.4,-1673.61,-1128.86,41.4445,151.189,-105.944,-11349.2,-11349.7,-2026.8,73.1756,-97.3316,-90.3912,14504.8,-9721.58,3268.84,41.0779,-27.6698,54.4757
4.71,965.513,-7863.61,12698.7,244.648,-10.4555,-57.9175,31298.2,40292.8,11639.5,-32.9899,-569.702,142.115,-10433.6,2263.5,1051.66,100.921,-20.4436,-64.967,8396.13,-11299.7,-19795.3,7.36514,211.184,287.058,-28352.4,-2155.47,-651.43,64.935,139.079,-107.808,-11945.4,-11369.8,-2643.05,70.5509,-99.0846,-93.4171,14576.3,-9889.22,3163.74,42.4911,-22.6759,55.6627
4.711,136.859,-4948.91,13043.2,243.16,-15.7025,-48.9521,31462.6,43384.2,10725.5,-70.8106,-544.883,153.813,-9235.21,1628.1,-2005.97,111.226,-23.5743,-58.0191,7070.23,-12152.6,-20519.4,-3.01617,239.261,283.392,-28213.4,-2637.33,-174.005,88.4255,126.969,-109.673,-12541.5,-11389.9,-3259.3,67.9263,-100.838,-96.443,14647.8,-10056.9,3058.64,43.9044,-17.6821,56.8498
4.712,1520.9,-2262.6,12868.9,232.345,-13.4566,-41.7711,32333.6,42098.8,10891.3,-122.101,-515.043,155.893,-8860.1,1058.17,-3111.66,112.022,-10.639,-58.7988,5410.91,-12742.2,-20527.1,-14.885,264.633,283.279,-27288.9,-2227.48,-135.757,100.918,115.192,-109.353,-12991.0,-11494.4,-3708.09,65.38,-98.6614,-100.352,14556.5,-9964.27,3037.18,47.4193,-14.2137,57.5365
4.713,3181.54,395.164,12629.7,220.365,-10.2742,-34.8133,33292.9,40266.4,11192.2,-175.076,-484.576,156.771,-8587.91,496.427,-3973.35,111.629,4.30451,-60.5444,3709.91,-13299.0,-20445.3,-26.9398,289.668,283.609,-26266.2,-1706.16,-152.406,112.035,103.457,-108.761,-13422.1,-11609.4,-4135.96,62.8435,-95.9939,-104.372,14444.9,-9839.15,3026.18,51.1971,-10.9361,58.1608
4.714,4842.17,3052.93,12390.6,208.384,-7.09176,-27.8554,34252.3,38433.9,11493.0,-228.05,-454.109,157.649,-8315.71,-65.3175,-4835.04,111.236,19.248,-62.29,2008.91,-13855.8,-20363.5,-38.9947,314.703,283.939,-25243.5,-1184.85,-169.055,123.152,91.7225,-108.169,-13853.3,-11724.4,-4563.82,60.307,-93.3266,-108.391,14333.2,-9714.03,3015.17,54.9748,-7.6585,58.785
4.715,6502.8,5710.69,12151.5,196.403,-3.90933,-20.8976,35211.6,36601.4,11793.8,-281.024,-423.642,158.527,-8043.51,-627.062,-5696.73,110.843,34.1915,-64.0356,307.909,-14412.6,-20281.7,-51.0495,339.737,284.269,-24220.8,-663.536,-185.704,134.269,79.9875,-107.577,-14284.4,-11839.4,-4991.69,57.7705,-90.6591,-112.411,14221.5,-9588.91,3004.17,58.7525,-4.38087,59.4093
4.716,8133.74,7638.41,11990.3,185.1,-0.189148,-16.0851,35739.1,33254.6,13074.8,-322.025,-392.434,156.844,-7908.0,-950.604,-5277.9,106.384,46.9288,-67.8833,-1413.03,-14964.6,-19913.8,-63.5138,358.601,285.652,-22972.1,36.0471,-322.25,139.978,70.4529,-106.321,-14635.0,-12008.7,-5314.56,54.6255,-87.1524,-116.973,14108.6,-9352.81,3007.36,61.3772,-2.24659,60.0907
4.717,9727.56,8653.6,11926.7,174.645,4.20323,-13.9544,35726.7,28015.1,15581.0,-348.06,-360.301,151.96,-7943.33,-976.393,-3258.42,96.8428,56.9083,-74.3587,-3158.9,-15510.5,-19188.5,-76.4899,369.75,288.351,-21441.0,958.466,-608.668,138.927,63.6688,-104.237,-14884.9,-12245.8,-5506.18,50.7198,-82.5966,-122.215,13994.1,-8978.0,3028.29,62.5605,-1.54149,60.8438
4.718,11321.4,9668.78,11863.1,164.19,8.5956,-11.8237,35714.3,22775.6,18087.1,-374.095,-328.167,147.076,-7978.66,-1002.18,-1238.94,87.3011,66.8878,-80.834,-4904.76,-16056.5,-18463.2,-89.4661,380.899,291.05,-19910.0,1880.88,-895.086,137.875,56.8847,-102.153,-15134.8,-12482.9,-5697.8,46.8141,-78.0407,-127.457,13879.7,-8603.18,3049.23,63.7438,-0.836388,61.5968
4.719,12915.2,10684.0,11799.4,153.734,12.988,-9.69294,35701.9,17536.0,20593.3,-400.13,-296.034,142.192,-8013.99,-1027.97,780.546,77.7595,76.8672,-87.3094,-6650.63,-16602.5,-17737.9,-102.442,392.048,293.749,-18378.9,2803.3,-1181.5,136.824,50.1005,-100.069,-15384.7,-12719.9,-5889.41,42.9084,-73.4849,-132.699,13765.2,-8228.37,3070.16,64.9271,-0.131287,62.3498
4.72,14509.0,11699.1,11735.8,143.279,17.3803,-7.56221,35689.5,12296.5,23099.4,-426.165,-263.9,137.307,-8049.32,-1053.76,2800.03,68.2179,86.8467,-93.7847,-8396.49,-17148.5,-17012.6,-115.418,403.198,296.448,-16847.8,3725.72,-1467.92,135.772,43.3164,-97.9846,-15634.7,-12957.0,-6081.03,39.0027,-68.929,-137.941,13650.7,-7853.55,3091.1,66.1105,0.573814,63.1029
4.721,14335.6,11596.7,11800.1,134.954,20.5484,-8.60059,34266.9,7190.57,25610.1,-412.459,-241.693,130.986,-8273.45,-37.8701,5142.87,57.3279,79.5042,-98.5788,-9792.21,-17809.2,-15418.3,-113.278,399.485,294.181,-15277.9,4553.52,-1937.9,127.327,39.4621,-95.0338,-15615.2,-13284.7,-6121.43,33.7909,-65.212,-144.289,13664.6,-7380.04,3071.11,65.9799,-0.215864,63.8777
4.722,14162.3,11494.3,11864.3,126.63,23.7165,-9.63897,32844.3,2084.68,28120.9,-398.754,-219.485,124.665,-8497.57,978.02,7485.71,46.4379,72.1616,-103.373,-11187.9,-18469.9,-13824.1,-111.137,395.772,291.915,-13708.1,5381.32,-2407.89,118.881,35.6079,-92.0829,-15595.7,-13612.3,-6161.82,28.579,-61.4949,-150.636,13678.4,-6906.53,3051.12,65.8493,-1.00554,64.6524
4.723,13988.9,11391.8,11928.5,118.305,26.8846,-10.6774,31421.7,-3021.21,30631.6,-385.048,-197.278,118.344,-8721.7,1993.91,9828.55,35.5479,64.819,-108.167,-12583.6,-19130.6,-12229.9,-108.997,392.06,289.649,-12138.2,6209.12,-2877.87,110.436,31.7536,-89.132,-15576.2,-13939.9,-6202.21,23.3672,-57.7778,-156.984,13692.2,-6433.02,3031.14,65.7188,-1.79522,65.4272
4.724,13815.5,11289.4,11992.8,109.981,30.0528,-11.7157,29999.0,-8127.1,33142.3,-371.343,-175.07,112.023,-8945.82,3009.8,12171.4,24.6579,57.4764,-112.961,-13979.4,-19791.3,-10635.7,-106.856,388.347,287.383,-10568.4,7036.92,-3347.85,101.99,27.8994,-86.1812,-15556.7,-14267.6,-6242.6,18.1554,-54.0607,-163.331,13706.1,-5959.51,3011.15,65.5882,-2.5849,66.202
4.725,13108.4,10930.6,12124.3,102.461,31.6814,-12.1907,28469.8,-11501.4,34812.4,-344.65,-157.357,107.558,-9242.07,4222.98,13344.8,20.2949,45.6905,-114.396,-14765.9,-20328.8,-8698.69,-95.0326,378.277,282.22,-9243.05,7669.44,-3807.53,92.4843,24.9184,-83.0095,-15370.0,-14653.7,-6225.06,13.3464,-51.7508,-169.999,13764.2,-5504.78,3007.14,65.845,-3.11143,66.9081
4.726,11974.3,10366.8,12309.7,95.586,32.0785,-12.2149,26855.3,-13490.4,35809.9,-307.567,-143.239,104.577,-9596.02,5593.99,13582.7,21.1535,30.35,-113.143,-15065.1,-20767.8,-6487.4,-75.462,363.12,274.739,-8113.32,8145.73,-4258.96,82.1298,22.6361,-79.6611,-15049.5,-15086.5,-6161.19,8.85977,-50.5666,-176.924,13857.7,-5065.07,3015.91,66.4117,-3.42743,67.5592
4.727,10840.2,9802.93,12495.1,88.7108,32.4755,-12.2391,25240.8,-15479.4,36807.5,-270.484,-129.121,101.595,-9949.97,6965.0,13820.7,22.0121,15.0094,-111.89,-15364.4,-21206.8,-4276.1,-55.8914,347.963,267.258,-6983.59,8622.01,-4710.4,71.7752,20.3538,-76.3128,-14729.0,-15519.4,-6097.31,4.3731,-49.3824,-183.849,13951.2,-4625.36,3024.69,66.9784,-3.74344,68.2103
4.728,9706.15,9239.09,12680.4,81.8356,32.8726,-12.2633,23626.3,-17468.4,37805.0,-233.401,-115.003,98.6145,-10303.9,8336.01,14058.6,22.8706,-0.331172,-110.637,-15663.6,-21645.8,-2064.81,-36.3208,332.806,259.777,-5853.86,9098.3,-5161.83,61.4207,18.0715,-72.9644,-14408.5,-15952.3,-6033.44,-0.113562,-48.1982,-190.774,14044.8,-4185.66,3033.46,67.545,-4.05945,68.8613
4.729,8679.6,8639.12,12781.4,75.1469,33.3792,-12.4009,22086.2,-19121.4,38655.0,-196.135,-100.727,95.36,-10658.9,9681.91,14096.3,24.7815,-14.843,-108.717,-15809.6,-22028.2,142.292,-17.4233,316.149,252.056,-4793.1,9534.16,-5578.56,51.4067,15.936,-69.7291,-14071.4,-16397.9,-5940.71,-4.20495,-47.3807,-197.628,14143.5,-3761.47,3040.74,68.1254,-4.28101,69.5087
4.73,8513.38,7750.07,12206.8,69.9495,34.7624,-13.4459,21141.9,-18086.3,38324.0,-157.403,-85.1837,89.9185,-11022.6,10826.9,12532.9,35.1104,-22.7247,-101.461,-14730.4,-21957.4,2315.83,-3.91143,287.494,242.406,-4284.15,9646.62,-5717.66,44.1171,14.9749,-67.3974,-13602.1,-16945.4,-5617.13,-5.13408,-49.4975,-203.92,14284.0,-3461.45,3036.07,68.8151,-3.74702,70.1266
4.731,8347.15,6861.03,11632.2,64.7522,36.1456,-14.4909,20197.6,-17051.1,37993.0,-118.671,-69.6408,84.477,-11386.3,11971.9,10969.5,45.4392,-30.6064,-94.2057,-13651.2,-21886.6,4489.36,9.60048,258.838,232.756,-3775.19,9759.07,-5856.77,36.8276,14.0139,-65.0658,-13132.9,-17493.0,-5293.56,-6.06322,-51.6142,-210.212,14424.5,-3161.42,3031.4,69.5048,-3.21304,70.7445
4.732,8180.93,5971.99,11057.6,59.5549,37.5287,-15.5359,19253.3,-16015.9,37662.0,-79.9385,-54.0978,79.0355,-11750.0,13116.8,9406.0,55.7681,-38.4881,-86.9501,-12571.9,-21815.8,6662.9,23.1124,230.183,223.106,-3266.24,9871.53,-5995.87,29.538,13.0529,-62.7341,-12663.6,-18040.5,-4969.99,-6.99235,-53.7309,-216.505,14565.1,-2861.4,3026.73,70.1945,-2.67905,71.3623
4.733,8014.7,5082.94,10483.0,54.3575,38.9119,-16.5809,18309.0,-14980.7,37331.0,-41.2064,-38.5549,73.594,-12113.7,14261.8,7842.56,66.097,-46.3698,-79.6945,-11492.7,-21745.0,8836.43,36.6243,201.528,213.457,-2757.28,9983.99,-6134.97,22.2485,12.0919,-60.4025,-12194.3,-18588.0,-4646.42,-7.92149,-55.8476,-222.797,14705.6,-2561.38,3022.07,70.8842,-2.14506,71.9802
4.734,7783.5,4207.84,10211.6,51.2943,39.1088,-16.4914,17465.0,-13054.6,36520.3,-12.8189,-22.7257,67.0264,-12275.7,14919.3,6296.18,72.2012,-47.6256,-72.3603,-10152.9,-21265.9,10149.7,41.2907,167.339,204.597,-2658.02,10022.5,-6167.64,18.4634,11.9197,-58.7837,-11748.7,-19189.0,-4194.47,-5.80221,-60.1022,-227.498,14873.9,-2298.02,2956.82,71.2978,-1.2475,72.6134
4.735,7519.81,3339.7,10091.6,49.2981,38.7127,-15.8345,16671.2,-10683.0,35469.7,10.3963,-6.75351,59.8958,-12336.7,15333.0,4758.34,76.1931,-45.5685,-64.9868,-8682.8,-20582.7,11032.9,41.5343,130.382,196.133,-2763.59,10024.0,-6147.09,16.4305,12.1419,-57.5213,-11314.9,-19816.8,-3678.33,-2.15873,-65.4259,-231.403,15056.1,-2053.0,2861.29,71.5734,-0.168145,73.2543
4.736,7256.11,2471.57,9971.64,47.3019,38.3165,-15.1777,15877.4,-8311.34,34419.2,33.6115,9.21872,52.7651,-12397.8,15746.8,3220.5,80.1849,-43.5114,-57.6132,-7212.71,-19899.4,11916.1,41.7779,93.4259,187.669,-2869.17,10025.6,-6126.53,14.3976,12.3642,-56.2589,-10881.1,-20444.5,-3162.19,1.48475,-70.7495,-235.309,15238.4,-1807.98,2765.76,71.849,0.911207,73.8952
4.737,6992.42,1603.44,9851.68,45.3058,37.9204,-14.5209,15083.5,-5939.73,33368.6,56.8267,25.1909,45.6344,-12458.9,16160.5,1682.66,84.1768,-41.4543,-50.2397,-5742.63,-19216.1,12799.3,42.0215,56.4696,179.205,-2974.74,10027.1,-6105.98,12.3647,12.5864,-54.9966,-10447.3,-21072.3,-2646.04,5.12823,-76.0731,-239.215,15420.6,-1562.95,2670.22,72.1245,1.99056,74.5361
4.738,6719.85,652.324,9732.04,43.4667,37.4209,-13.5317,14239.6,-3748.42,32349.7,76.8625,40.5571,39.4489,-12390.4,16461.7,277.929,87.3548,-38.9363,-43.5615,-4374.31,-18572.0,13276.1,42.2996,20.9864,170.075,-3137.36,10057.0,-6079.23,11.3496,13.167,-53.9562,-10048.2,-21673.6,-2156.04,9.48019,-81.7965,-242.343,15612.9,-1338.41,2568.69,72.2757,3.06512,74.98
4.739,6416.2,-589.213,9613.52,42.1777,36.5596,-11.3796,13220.5,-2188.18,31441.3,85.7699,53.8021,36.571,-11868.6,16369.3,-660.916,87.6845,-34.8051,-39.3169,-3362.16,-18064.7,12330.3,42.6982,-9.34086,158.615,-3499.61,10186.1,-6030.77,13.8968,15.0019,-53.693,-9770.46,-22182.5,-1757.54,16.3118,-88.9192,-242.752,15840.6,-1185.57,2446.16,71.9913,4.12292,74.7344
4.74,6112.55,-1830.75,9495.01,40.8887,35.6983,-9.22752,12201.4,-627.939,30532.9,94.6773,67.0471,33.6932,-11346.8,16276.8,-1599.76,88.0142,-30.6739,-35.0722,-2350.02,-17557.4,11384.5,43.0968,-39.6681,147.155,-3861.87,10315.2,-5982.31,16.4441,16.8367,-53.4297,-9492.7,-22691.4,-1359.03,23.1434,-96.0418,-243.161,16068.3,-1032.72,2323.63,71.707,5.18072,74.4888
4.741,5808.9,-3072.29,9376.49,39.5996,34.8371,-7.07542,11182.4,932.301,29624.5,103.585,80.2921,30.8153,-10825.0,16184.3,-2538.61,88.3439,-26.5428,-30.8276,-1337.88,-17050.1,10438.7,43.4954,-69.9954,135.695,-4224.12,10444.3,-5933.85,18.9913,18.6716,-53.1665,-9214.93,-23200.3,-960.527,29.975,-103.164,-243.57,16295.9,-879.875,2201.11,71.4227,6.23852,74.2432
4.742,5505.25,-4313.82,9257.97,38.3106,33.9758,-4.92332,10163.3,2492.54,28716.1,112.492,93.5371,27.9375,-10303.2,16091.8,-3477.45,88.6737,-22.4116,-26.5829,-325.736,-16542.8,9492.88,43.894,-100.323,124.235,-4586.38,10573.4,-5885.39,21.5385,20.5065,-52.9032,-8937.16,-23709.2,-562.022,36.8067,-110.287,-243.979,16523.6,-727.029,2078.58,71.1383,7.29632,73.9976
4.743,5305.5,-4932.34,9361.55,39.6533,32.3399,-2.99632,9093.8,3173.37,28055.7,119.417,105.293,27.7962,-9521.34,15817.9,-3997.67,85.6583,-18.406,-24.6153,419.759,-16119.4,8031.22,44.9872,-119.781,109.861,-4962.13,10886.5,-5845.43,25.1965,22.5185,-53.3381,-8890.18,-24072.7,-375.263,43.7487,-116.948,-241.557,16809.1,-586.666,1900.92,70.3393,8.59039,73.8432
4.744,5135.44,-5372.86,9528.59,41.7479,30.4825,-1.13362,8009.94,3602.94,27466.1,125.775,116.622,28.4369,-8665.15,15492.1,-4398.28,81.6872,-14.4364,-23.2984,1089.07,-15720.0,6422.17,46.2788,-136.133,94.6545,-5341.74,11252.3,-5807.9,29.1718,24.5811,-53.9725,-8909.13,-24394.7,-249.003,50.7223,-123.477,-238.328,17111.2,-449.871,1707.51,69.3932,9.95196,73.7149
4.745,4965.37,-5813.37,9695.63,43.8425,28.6252,0.729076,6926.09,4032.52,26876.4,132.133,127.952,29.0775,-7808.97,15166.3,-4798.89,77.7162,-10.4667,-21.9814,1758.38,-15320.6,4813.12,47.5704,-152.486,79.4478,-5721.36,11618.0,-5770.38,33.1471,26.6437,-54.6069,-8928.09,-24716.8,-122.743,57.6959,-130.007,-235.098,17413.3,-313.075,1514.09,68.4471,11.3135,73.5866
4.746,4795.31,-6253.89,9862.67,45.9371,26.7679,2.59177,5842.23,4462.09,26286.8,138.491,139.282,29.7181,-6952.78,14840.5,-5199.5,73.7451,-6.49701,-20.6645,2427.69,-14921.2,3204.07,48.8621,-168.839,64.2411,-6100.97,11983.7,-5732.85,37.1224,28.7063,-55.2413,-8947.04,-25038.8,3.51653,64.6694,-136.536,-231.868,17715.4,-176.279,1320.68,67.501,12.6751,73.4582
4.747,4732.4,-6291.06,9900.86,47.1132,25.3198,4.23873,4816.65,4767.84,25723.8,145.11,149.273,30.8714,-6096.65,14535.6,-5450.73,67.7136,-2.5928,-20.6543,3162.71,-14450.2,1695.52,49.2485,-181.656,48.8143,-6443.03,12393.6,-5689.1,40.7805,30.4928,-56.4145,-9072.86,-25310.0,45.4332,70.9594,-142.149,-227.559,17980.2,-38.6308,1132.04,66.7952,14.2215,73.0571
4.748,4883.83,-5521.53,9681.34,46.4522,24.6899,5.45422,3907.62,4825.97,25214.0,152.254,156.586,33.0499,-5240.64,14272.7,-5403.2,57.5613,1.18048,-23.2577,4029.15,-13835.8,387.978,47.8247,-187.401,32.9473,-6709.98,12891.5,-5632.9,43.8041,31.7269,-58.6652,-9412.42,-25479.5,-81.3365,75.8822,-145.93,-221.091,18170.3,100.724,952.934,66.5697,16.1376,72.1102
4.749,5035.25,-4752.0,9461.82,45.7912,24.0601,6.66971,2998.59,4884.1,24704.2,159.398,163.9,35.2284,-4384.62,14009.8,-5355.66,47.4091,4.95377,-25.861,4895.58,-13221.5,-919.564,46.4009,-193.146,17.0803,-6976.93,13389.5,-5576.71,46.8277,32.9611,-60.9159,-9751.97,-25648.9,-208.106,80.805,-149.711,-214.623,18360.5,240.078,773.832,66.3442,18.0538,71.1634
4.75,5186.67,-3982.47,9242.3,45.1302,23.4302,7.8852,2089.57,4942.22,24194.4,166.541,171.213,37.4069,-3528.6,13746.9,-5308.13,37.2568,8.72706,-28.4644,5762.02,-12607.2,-2227.11,44.9771,-198.892,1.21333,-7243.88,13887.4,-5520.51,49.8513,34.1952,-63.1667,-10091.5,-25818.4,-334.876,85.7278,-153.493,-208.155,18550.6,379.433,594.73,66.1187,19.9699,70.2166
4.751,5338.1,-3212.94,9022.78,44.4692,22.8004,9.10069,1180.54,5000.35,23684.5,173.685,178.527,39.5855,-2672.59,13484.0,-5260.59,27.1045,12.5003,-31.0678,6628.45,-11992.8,-3534.65,43.5534,-204.637,-14.6536,-7510.83,14385.4,-5464.31,52.8749,35.4293,-65.4174,-10431.1,-25987.9,-461.646,90.6506,-157.274,-201.687,18740.7,518.788,415.628,65.8933,21.886,69.2697
4.752,5352.3,-2448.78,9320.0,42.5337,22.3133,8.85772,769.077,5513.14,22766.0,176.598,183.864,42.1448,-2124.15,13449.4,-4748.88,18.3431,13.0008,-36.3845,7459.09,-11260.4,-4696.49,39.917,-203.149,-27.5393,-7686.51,14969.8,-5348.77,54.6276,35.3196,-69.7781,-10915.7,-25994.0,-719.938,93.5352,-157.707,-193.404,18826.8,651.696,408.246,66.5358,23.8287,67.7521
4.753,5349.35,-1685.29,9681.81,40.4389,21.8439,8.43244,419.808,6082.75,21796.5,178.983,188.954,44.7517,-1614.15,13443.3,-4179.16,9.75556,13.0921,-42.0404,8285.25,-10513.3,-5840.12,36.004,-200.757,-40.0523,-7850.79,15565.0,-5225.81,56.2214,35.0419,-74.4026,-11418.5,-25979.8,-994.671,96.1651,-157.723,-184.894,18900.0,783.799,422.327,67.2868,25.7748,66.163
4.754,5346.41,-921.805,10043.6,38.3441,21.3746,8.00715,70.5382,6652.37,20826.9,181.368,194.044,47.3587,-1104.16,13437.2,-3609.43,1.16801,13.1834,-47.6963,9111.41,-9766.1,-6983.76,32.0911,-198.364,-52.5653,-8015.06,16160.2,-5102.85,57.8153,34.7642,-79.0272,-11921.3,-25965.5,-1269.4,98.7949,-157.738,-176.385,18973.1,915.903,436.409,68.0379,27.7209,64.574
4.755,5343.46,-158.316,10405.4,36.2493,20.9053,7.58187,-278.731,7221.99,19857.3,183.752,199.134,49.9656,-594.163,13431.1,-3039.7,-7.41953,13.2747,-53.3523,9937.57,-9018.93,-8127.39,28.1781,-195.972,-65.0783,-8179.34,16755.4,-4979.88,59.4092,34.4865,-83.6517,-12424.0,-25951.3,-1544.14,101.425,-157.753,-167.875,19046.2,1048.01,450.491,68.7889,29.667,62.985
4.756,5364.53,450.034,10637.3,33.8494,20.6163,6.7774,-466.73,7825.96,18896.4,183.169,204.385,52.7501,-243.63,13423.0,-2292.89,-12.6015,10.5205,-58.7602,10636.3,-8262.58,-9248.04,23.3307,-189.938,-74.7876,-8292.68,17292.9,-4865.48,60.8593,33.6883,-88.8237,-12901.3,-25865.0,-1824.27,103.279,-156.322,-159.328,18995.3,1209.66,481.436,69.2758,31.227,61.1114
4.757,5415.63,864.461,10706.7,31.0683,20.5527,5.49894,-453.14,8472.87,17946.5,178.876,209.836,55.7565,-92.4242,13412.4,-1324.71,-13.5266,4.20951,-63.8581,11175.7,-7494.77,-10340.0,17.3153,-179.353,-80.9923,-8342.35,17758.3,-4761.77,62.1298,32.2394,-94.6801,-13346.8,-25688.5,-2111.14,104.165,-153.085,-150.735,18789.3,1408.27,533.46,69.4324,32.3045,58.882
4.758,5466.72,1278.89,10776.2,28.2871,20.489,4.22048,-439.551,9119.78,16996.5,174.584,215.288,58.7629,58.7815,13401.8,-356.534,-14.4516,-2.10149,-68.9561,11715.1,-6726.95,-11431.9,11.2998,-168.768,-87.197,-8392.03,18223.7,-4658.07,63.4003,30.7906,-100.537,-13792.3,-25512.1,-2398.01,105.051,-149.847,-142.141,18583.2,1606.87,585.483,69.589,33.3819,56.6527
4.759,5517.82,1693.31,10845.6,25.5059,20.4253,2.94201,-425.961,9766.69,16046.5,170.291,220.739,61.7692,209.987,13391.1,611.643,-15.3767,-8.41249,-74.054,12254.5,-5959.14,-12523.8,5.28434,-158.183,-93.4017,-8441.7,18689.1,-4554.36,64.6708,29.3417,-106.393,-14237.8,-25335.6,-2684.88,105.936,-146.609,-133.548,18377.2,1805.47,637.507,69.7456,34.4593,54.4234
4.76,5568.91,2107.74,10915.0,22.7247,20.3617,1.66355,-412.372,10413.6,15096.5,165.998,226.19,64.7756,361.193,13380.5,1579.82,-16.3018,-14.7235,-79.152,12793.9,-5191.32,-13615.7,-0.731111,-147.598,-99.6065,-8491.37,19154.6,-4450.65,65.9413,27.8928,-112.249,-14683.3,-25159.2,-2971.75,106.822,-143.371,-124.955,18171.2,2004.08,689.53,69.9022,35.5367,52.1941
4.761,5443.34,2015.44,10801.4,20.0842,20.4114,0.309381,-391.13,10823.5,14565.4,156.926,231.433,67.9552,92.463,13500.9,1747.59,-14.5534,-19.9117,-80.2487,12972.0,-4594.91,-14071.6,-6.18027,-132.992,-101.15,-8389.78,19413.2,-4363.84,67.663,25.5902,-117.137,-14932.9,-24803.7,-3148.78,106.603,-138.413,-118.392,17896.8,2126.78,688.136,68.5599,36.6872,50.2666
4.762,5317.76,1923.14,10687.9,17.4437,20.4612,-1.04479,-369.889,11233.4,14034.2,147.853,236.676,71.1348,-176.267,13621.3,1915.36,-12.8049,-25.0999,-81.3455,13150.2,-3998.5,-14527.4,-11.6294,-118.386,-102.694,-8288.18,19671.8,-4277.03,69.3848,23.2875,-122.024,-15182.5,-24448.3,-3325.8,106.384,-133.454,-111.829,17622.4,2249.48,686.742,67.2177,37.8377,48.3392
4.763,5192.19,1830.84,10574.3,14.8032,20.511,-2.39896,-348.647,11643.2,13503.1,138.781,241.919,74.3144,-444.997,13741.7,2083.13,-11.0565,-30.2881,-82.4422,13328.3,-3402.09,-14983.3,-17.0786,-103.779,-104.238,-8186.58,19930.5,-4190.21,71.1066,20.9848,-126.911,-15432.1,-24092.8,-3502.82,106.165,-128.495,-105.266,17348.0,2372.19,685.347,65.8755,38.9882,46.4117
4.764,5066.61,1738.54,10460.7,12.1627,20.5607,-3.75313,-327.406,12053.1,12972.0,129.708,247.162,77.494,-713.727,13862.0,2250.9,-9.30814,-35.4764,-83.5389,13506.4,-2805.68,-15439.2,-22.5277,-89.173,-105.782,-8084.99,20189.1,-4103.4,72.8283,18.6822,-131.798,-15681.7,-23737.4,-3679.84,105.946,-123.536,-98.7031,17073.6,2494.89,683.953,64.5333,40.1386,44.4842
4.765,4839.5,1449.46,10364.8,10.0031,20.0973,-4.3637,-341.3,12269.0,12660.4,119.376,251.952,80.1631,-1099.17,13832.8,2051.74,-7.20294,-38.7223,-83.6627,13532.1,-2425.23,-15439.1,-26.6998,-75.9536,-106.739,-7922.33,20281.0,-4099.43,74.3746,16.6489,-135.25,-15795.9,-23338.9,-3786.8,105.446,-118.647,-94.0012,16753.7,2582.5,652.834,62.6313,41.6581,42.3438
4.766,4531.15,1002.96,10283.0,8.22806,19.2233,-4.3794,-383.303,12329.7,12524.5,108.035,256.379,82.4237,-1578.0,13684.0,1559.03,-4.81229,-40.4143,-83.0079,13435.8,-2217.56,-15074.3,-29.8501,-63.8438,-107.228,-7710.83,20239.5,-4161.74,75.7804,14.8311,-137.553,-15801.7,-22906.0,-3837.71,104.723,-113.813,-90.7881,16397.4,2642.03,597.936,60.2814,43.4727,40.0331
4.767,4222.8,556.454,10201.2,6.45305,18.3494,-4.39509,-425.306,12390.4,12388.6,96.695,260.806,84.6844,-2056.82,13535.2,1066.32,-2.42164,-42.1064,-82.3532,13339.4,-2009.89,-14709.4,-33.0004,-51.734,-107.716,-7499.32,20198.1,-4224.04,77.1862,13.0133,-139.856,-15807.5,-22473.1,-3888.63,103.999,-108.979,-87.5751,16041.1,2701.57,543.037,57.9315,45.2873,37.7224
4.768,3914.45,109.95,10119.5,4.67803,17.4754,-4.41079,-467.309,12451.1,12252.7,85.3546,265.233,86.945,-2535.64,13386.3,573.605,-0.0309915,-43.7985,-81.6985,13243.1,-1802.21,-14344.6,-36.1507,-39.6241,-108.204,-7287.82,20156.6,-4286.35,78.592,11.1955,-142.159,-15813.4,-22040.2,-3939.54,103.276,-104.145,-84.362,15684.8,2761.1,488.139,55.5816,47.102,35.4117
4.769,3633.66,-362.363,10041.0,3.08497,16.5355,-4.37431,-499.443,12475.4,12123.5,74.1543,269.643,89.042,-2990.91,13228.4,88.2684,2.07867,-45.14,-80.9592,13126.2,-1628.0,-13934.3,-39.0528,-28.1239,-108.833,-7075.29,20078.8,-4355.13,79.9197,9.54032,-144.124,-15797.4,-21600.9,-3985.62,102.507,-99.4386,-81.4683,15324.2,2809.83,441.262,53.3764,48.8914,33.1041
4.77,3573.32,-1041.14,9988.48,2.94746,15.0687,-3.92043,-452.623,12208.5,12047.8,64.0744,273.908,89.8303,-3257.83,12997.5,-338.071,1.94043,-43.6765,-79.5438,12844.5,-1721.46,-13160.5,-39.9697,-21.5007,-110.587,-6854.54,19710.2,-4475.71,80.6223,9.18584,-143.383,-15607.2,-21109.8,-3993.12,101.375,-95.7543,-81.1295,14928.8,2772.12,458.562,52.329,50.4793,30.8222
4.771,3512.98,-1719.91,9936.0,2.80995,13.6018,-3.46656,-405.804,11941.5,11972.1,53.9946,278.173,90.6185,-3524.74,12766.7,-764.411,1.80219,-42.213,-78.1284,12562.9,-1814.91,-12386.6,-40.8865,-14.8775,-112.341,-6633.8,19341.6,-4596.29,81.3249,8.83136,-142.642,-15417.0,-20618.7,-4000.61,100.243,-92.0701,-80.7907,14533.5,2734.41,475.862,51.2816,52.0672,28.5402
4.772,3452.65,-2398.69,9883.52,2.67244,12.1349,-3.01268,-358.984,11674.5,11896.5,43.9148,282.438,91.4067,-3791.65,12535.9,-1190.75,1.66394,-40.7495,-76.713,12281.2,-1908.37,-11612.8,-41.8033,-8.25426,-114.095,-6413.05,18972.9,-4716.87,82.0275,8.47687,-141.901,-15226.8,-20127.6,-4008.11,99.1113,-88.3859,-80.4519,14138.1,2696.7,493.163,50.2343,53.6551,26.2582
4.773,3392.31,-3077.46,9831.03,2.53493,10.668,-2.55881,-312.164,11407.6,11820.8,33.835,286.703,92.1949,-4058.56,12305.1,-1617.09,1.5257,-39.286,-75.2976,11999.5,-2001.82,-10839.0,-42.7202,-1.63103,-115.849,-6192.3,18604.3,-4837.45,82.7301,8.12239,-141.159,-15036.6,-19636.5,-4015.6,97.9794,-84.7017,-80.1131,13742.8,2658.99,510.463,49.1869,55.243,23.9762
4.774,3417.96,-3441.67,9765.04,2.64859,9.51009,-2.16982,-208.049,11013.7,11756.5,25.8001,291.2,92.1987,-4116.3,12148.6,-1832.09,2.11263,-37.3865,-73.1252,11667.5,-2127.89,-10100.6,-41.8342,2.87142,-118.65,-5969.59,18080.0,-4922.83,83.3309,8.69938,-139.633,-14796.5,-19141.7,-4005.3,96.3066,-81.8615,-80.8635,13513.0,2576.01,508.804,48.3777,55.7531,22.049
4.775,3486.6,-3648.6,9692.29,2.88784,8.5066,-1.81328,-75.2866,10556.3,11697.8,18.7877,295.813,91.8102,-4069.44,12029.1,-1941.43,3.06214,-35.2689,-70.5741,11310.3,-2270.27,-9379.85,-40.0469,6.31348,-121.976,-5745.9,17477.8,-4990.61,83.8809,9.7421,-137.714,-14531.5,-18645.0,-3986.11,94.3632,-79.4433,-82.1584,13365.8,2470.4,497.665,47.6877,55.7244,20.2993
4.776,3555.24,-3855.54,9619.55,3.12708,7.50312,-1.45674,57.4762,10098.9,11639.2,11.7754,300.426,91.4218,-4022.58,11909.7,-2050.77,4.01166,-33.1514,-68.0231,10953.2,-2412.65,-8659.12,-38.2595,9.75555,-125.301,-5522.21,16875.6,-5058.39,84.4308,10.7848,-135.795,-14266.5,-18148.3,-3966.92,92.4199,-77.0251,-83.4533,13218.7,2364.78,486.527,46.9976,55.6957,18.5496
4.777,3623.89,-4062.47,9546.8,3.36633,6.49963,-1.10021,190.239,9641.54,11580.5,4.76298,305.039,91.0334,-3975.73,11790.3,-2160.1,4.96117,-31.0338,-65.4721,10596.1,-2555.03,-7938.38,-36.4722,13.1976,-128.626,-5298.51,16273.3,-5126.18,84.9807,11.8275,-133.876,-14001.5,-17651.5,-3947.73,90.4766,-74.6069,-84.7483,13071.6,2259.17,475.388,46.3076,55.667,16.7999
4.778,3709.79,-4149.77,9486.47,3.50522,5.57635,-0.823062,323.207,9183.35,11521.3,-1.54754,309.665,90.3987,-3893.39,11650.5,-2215.07,5.94398,-29.1542,-62.8304,10238.0,-2685.17,-7241.6,-34.3151,16.3507,-132.074,-5080.02,15657.1,-5179.95,85.666,13.0465,-132.046,-13736.7,-17170.8,-3922.69,88.4099,-72.4187,-86.2285,12919.5,2162.17,444.702,45.8948,55.5763,14.814
4.779,3856.1,-3818.38,9469.62,3.29286,4.93375,-0.823794,456.891,8722.36,11460.1,-5.40159,314.338,88.9019,-3686.88,11439.5,-2079.76,7.04336,-28.1072,-59.8712,9876.58,-2772.49,-6628.62,-30.8641,18.4923,-135.947,-4879.74,14991.5,-5184.7,86.8247,14.8824,-130.527,-13472.5,-16746.0,-3877.21,85.9115,-71.0353,-88.3573,12749.7,2095.31,345.599,46.4526,55.2689,12.0017
4.78,4002.41,-3486.99,9452.76,3.08051,4.29116,-0.824526,590.576,8261.36,11398.9,-9.25564,319.011,87.4052,-3480.36,11228.5,-1944.45,8.14274,-27.0603,-56.9119,9515.19,-2859.81,-6015.65,-27.413,20.6338,-139.82,-4679.46,14325.9,-5189.44,87.9834,16.7184,-129.008,-13208.4,-16321.2,-3831.73,83.4131,-69.652,-90.4861,12579.9,2028.45,246.496,47.0104,54.9615,9.1894
4.781,4148.72,-3155.6,9435.91,2.86815,3.64857,-0.825259,724.261,7800.37,11337.6,-13.1097,323.684,85.9084,-3273.85,11017.4,-1809.14,9.24211,-26.0134,-53.9527,9153.8,-2947.14,-5402.67,-23.9619,22.7754,-143.693,-4479.18,13660.4,-5194.19,89.1421,18.5543,-127.489,-12944.2,-15896.5,-3786.25,80.9147,-68.2686,-92.615,12410.1,1961.58,147.393,47.5681,54.6541,6.37709
4.782,4295.03,-2824.21,9419.06,2.6558,3.00597,-0.825991,857.945,7339.37,11276.4,-16.9637,328.356,84.4117,-3067.33,10806.4,-1673.82,10.3415,-24.9664,-50.9935,8792.41,-3034.46,-4789.7,-20.5109,24.917,-147.566,-4278.9,12994.8,-5198.93,90.3009,20.3902,-125.97,-12680.0,-15471.7,-3740.78,78.4164,-66.8853,-94.7438,12240.3,1894.72,48.2896,48.1259,54.3467,3.56477
4.783,4423.17,-2447.57,9414.56,1.75684,2.59437,-1.01664,958.193,6931.66,11205.6,-18.778,332.73,82.1848,-2814.37,10529.5,-1495.87,10.8724,-24.7211,-49.1467,8408.54,-3053.62,-4260.35,-17.9063,26.2805,-151.143,-4047.32,12370.8,-5182.99,91.5618,22.115,-124.95,-12426.2,-15102.1,-3649.64,75.9267,-66.3165,-97.3267,11993.4,1853.73,-41.4087,48.813,54.2723,1.05921
4.784,4546.12,-2058.01,9413.59,0.661724,2.24876,-1.26155,1048.89,6539.17,11132.0,-20.0094,337.019,79.7492,-2548.14,10233.7,-1305.74,11.2409,-24.7048,-47.6179,8018.24,-3053.29,-3754.9,-15.5437,27.4218,-154.634,-3806.78,11758.6,-5161.13,92.852,23.8081,-124.072,-12175.2,-14748.4,-3545.47,73.4395,-65.9805,-100.039,11724.5,1820.13,-128.42,49.537,54.2645,-1.3587
4.785,4669.07,-1668.44,9412.62,-0.433397,1.90315,-1.50646,1139.58,6146.68,11058.4,-21.2408,341.307,77.3137,-2281.91,9937.92,-1115.6,11.6093,-24.6885,-46.089,7627.95,-3052.97,-3249.44,-13.181,28.5631,-158.126,-3566.25,11146.4,-5139.27,94.1422,25.5012,-123.194,-11924.3,-14394.7,-3441.29,70.9522,-65.6445,-102.752,11455.6,1786.53,-215.431,50.2611,54.2567,-3.77661
4.786,4792.03,-1278.88,9411.66,-1.52852,1.55754,-1.75137,1230.28,5754.19,10984.8,-22.4722,345.596,74.8782,-2015.68,9642.15,-925.465,11.9778,-24.6722,-44.5601,7237.65,-3052.65,-2743.99,-10.8183,29.7043,-161.618,-3325.72,10534.2,-5117.41,95.4324,27.1943,-122.316,-11673.4,-14040.9,-3337.11,68.465,-65.3085,-105.465,11186.7,1752.92,-302.443,50.9851,54.2489,-6.19452
4.787,4862.2,-974.656,9405.81,-2.67467,1.25153,-1.92607,1313.7,5387.46,10913.4,-22.9413,349.705,72.2278,-1802.24,9347.45,-774.692,12.2067,-24.8225,-43.4297,6827.67,-3036.19,-2289.05,-9.28582,30.3998,-164.908,-3094.65,9972.48,-5072.38,96.409,28.6093,-121.57,-11448.6,-13690.3,-3235.81,66.0535,-65.2179,-108.23,10927.6,1724.99,-352.911,51.1283,53.968,-8.26835
4.788,4826.83,-841.116,9390.23,-3.92287,1.02472,-1.96033,1382.59,5072.23,10846.2,-21.8859,353.457,69.1479,-1694.41,9054.89,-702.642,12.1563,-25.3057,-43.0964,6378.31,-2987.43,-1935.13,-9.41362,30.2036,-167.796,-2882.51,9511.61,-4980.98,96.7586,29.4682,-121.086,-11275.9,-13346.0,-3140.26,63.7933,-65.6182,-111.102,10687.8,1708.4,-330.292,50.1097,53.1409,-9.65405
4.789,4791.45,-707.577,9374.64,-5.17108,0.797915,-1.9946,1451.48,4757.0,10779.1,-20.8305,357.208,66.0679,-1586.57,8762.33,-630.593,12.106,-25.7889,-42.763,5928.95,-2938.68,-1581.21,-9.54142,30.0075,-170.684,-2670.37,9050.75,-4889.59,97.1081,30.3271,-120.603,-11103.3,-13001.8,-3044.71,61.533,-66.0185,-113.974,10448.1,1691.81,-307.674,49.0912,52.3137,-11.0397
4.79,4756.08,-574.038,9359.05,-6.41929,0.571106,-2.02887,1520.37,4441.78,10712.0,-19.7751,360.959,62.988,-1478.73,8469.78,-558.544,12.0556,-26.2722,-42.4296,5479.59,-2889.93,-1227.29,-9.66922,29.8113,-173.572,-2458.23,8589.89,-4798.2,97.4577,31.186,-120.12,-10930.7,-12657.5,-2949.16,59.2728,-66.4188,-116.846,10208.4,1675.22,-285.055,48.0726,51.4866,-12.4254
4.791,4720.7,-440.498,9343.46,-7.66749,0.344297,-2.06314,1589.26,4126.55,10644.8,-18.7198,364.71,59.9081,-1370.89,8177.22,-486.495,12.0052,-26.7554,-42.0962,5030.23,-2841.17,-873.375,-9.79702,29.6152,-176.459,-2246.09,8129.02,-4706.8,97.8073,32.0449,-119.636,-10758.1,-12313.2,-2853.61,57.0125,-66.8191,-119.718,9968.67,1658.62,-262.437,47.0541,50.6594,-13.8111
4.792,4635.43,-609.631,9310.81,-8.45345,-0.122483,-1.85143,1688.51,3865.72,10555.0,-16.367,368.04,56.493,-1373.1,7968.18,-577.252,12.0755,-26.6678,-42.116,4564.47,-2824.26,-599.855,-11.4848,28.3845,-179.053,-2046.19,7801.23,-4652.27,96.959,31.8784,-119.381,-10615.6,-12023.2,-2758.05,54.5835,-67.4297,-122.5,9790.45,1625.54,-210.01,44.0954,48.293,-14.7486
4.793,4543.92,-816.598,9276.03,-9.18162,-0.619258,-1.60898,1791.56,3611.69,10462.4,-13.852,371.317,53.0361,-1389.06,7769.59,-688.36,12.1608,-26.5089,-42.1799,4096.65,-2811.32,-336.385,-13.3677,27.0245,-181.611,-1847.81,7490.07,-4602.35,95.9611,31.5837,-119.153,-10476.9,-11740.0,-2662.49,52.1332,-68.0665,-125.27,9619.92,1590.4,-153.857,40.8943,45.7342,-15.63
4.794,4452.41,-1023.56,9241.25,-9.90979,-1.11603,-1.36652,1894.61,3357.66,10369.8,-11.337,374.594,49.5792,-1405.03,7570.99,-799.468,12.246,-26.35,-42.2438,3628.84,-2798.39,-72.9144,-15.2505,25.6645,-184.168,-1649.44,7178.91,-4552.42,94.9631,31.2891,-118.926,-10338.1,-11456.8,-2566.93,49.683,-68.7034,-128.04,9449.38,1555.25,-97.7045,37.6931,43.1755,-16.5115
4.795,4360.9,-1230.53,9206.47,-10.638,-1.61281,-1.12407,1997.66,3103.62,10277.2,-8.82201,377.871,46.1223,-1420.99,7372.39,-910.577,12.3313,-26.1911,-42.3077,3161.02,-2785.46,190.556,-17.1334,24.3045,-186.725,-1451.07,6867.75,-4502.5,93.9652,30.9944,-118.699,-10199.4,-11173.6,-2471.37,47.2328,-69.3402,-130.81,9278.85,1520.11,-41.5517,34.492,40.6167,-17.3929
4.796,4283.96,-1497.48,9172.06,-11.115,-2.11572,-0.992968,2110.87,2900.61,10179.7,-6.00615,381.029,42.607,-1429.46,7224.0,-1043.09,12.712,-25.5523,-42.1036,2728.68,-2809.95,414.49,-19.2058,22.4662,-189.171,-1298.27,6590.51,-4475.96,92.7229,30.1951,-118.523,-10085.9,-10910.2,-2397.42,44.7661,-69.8446,-133.421,9226.63,1466.58,-25.1694,32.0286,37.792,-18.4126
4.797,4225.22,-1839.42,9138.1,-11.278,-2.6263,-1.00106,2236.77,2761.36,10076.0,-2.81421,384.038,39.0188,-1428.55,7138.38,-1202.37,13.4618,-24.3135,-41.5645,2340.68,-2881.23,589.005,-21.5152,20.03,-191.477,-1202.43,6355.68,-4478.65,91.1752,28.7649,-118.411,-10003.8,-10671.6,-2350.49,42.2788,-70.1833,-135.833,9322.29,1390.07,-58.5003,30.4876,34.635,-19.6051
4.798,4166.49,-2181.36,9104.15,-11.441,-3.13688,-1.00915,2362.68,2622.12,9972.31,0.377736,387.047,35.4305,-1427.65,7052.76,-1361.65,14.2115,-23.0748,-41.0255,1952.68,-2952.51,763.519,-23.8246,17.5938,-193.784,-1106.6,6120.85,-4481.34,89.6275,27.3347,-118.298,-9921.72,-10432.9,-2303.55,39.7915,-70.522,-138.244,9417.96,1313.56,-91.8311,28.9466,31.4779,-20.7976
4.799,4107.76,-2523.3,9070.19,-11.604,-3.64746,-1.01724,2488.58,2482.87,9868.62,3.56968,390.056,31.8423,-1426.74,6967.14,-1520.92,14.9613,-21.836,-40.4864,1564.69,-3023.78,938.034,-26.134,15.1575,-196.09,-1010.77,5886.02,-4484.03,88.0799,25.9046,-118.186,-9839.65,-10194.3,-2256.62,37.3041,-70.8607,-140.656,9513.62,1237.06,-125.162,27.4056,28.3209,-21.99
4.8,4049.02,-2865.24,9036.23,-11.7671,-4.15804,-1.02533,2614.49,2343.63,9764.92,6.76163,393.066,28.254,-1425.84,6881.52,-1680.2,15.7111,-20.5973,-39.9473,1176.69,-3095.06,1112.55,-28.4434,12.7213,-198.396,-914.939,5651.19,-4486.72,86.5322,24.4744,-118.074,-9757.58,-9955.66,-2209.68,34.8168,-71.1994,-143.067,9609.29,1160.55,-158.493,25.8646,25.1638,-23.1825
4.801,4059.77,-3039.7,9001.57,-11.4717,-4.56779,-1.3589,2702.2,2317.78,9636.59,9.84357,395.661,24.7039,-1364.04,6924.31,-1899.53,16.9418,-18.4058,-39.0745,968.037,-3181.69,1269.53,-30.1385,8.835,-200.119,-952.332,5514.94,-4485.17,85.0809,22.7687,-118.308,-9658.42,-9749.39,-2201.57,32.653,-71.0492,-145.146,9710.8,1046.54,-316.467,27.4324,23.876,-25.5369
4.802,4070.52,-3214.15,8966.9,-11.1763,-4.97753,-1.69247,2789.91,2291.93,9508.25,12.9255,398.256,21.1537,-1302.25,6967.11,-2118.86,18.1724,-16.2143,-38.2017,759.388,-3268.31,1426.51,-31.8337,4.94869,-201.842,-989.725,5378.69,-4483.61,83.6296,21.063,-118.542,-9559.26,-9543.13,-2193.46,30.4892,-70.899,-147.224,9812.31,932.528,-474.441,29.0002,22.5881,-27.8913
4.803,4081.26,-3388.61,8932.23,-10.8809,-5.38727,-2.02604,2877.62,2266.08,9379.91,16.0075,400.851,17.6035,-1240.46,7009.9,-2338.2,19.4031,-14.0228,-37.3289,550.739,-3354.94,1583.49,-33.5289,1.06238,-203.565,-1027.12,5242.43,-4482.06,82.1783,19.3573,-118.776,-9460.1,-9336.87,-2185.35,28.3253,-70.7488,-149.302,9913.82,818.517,-632.415,30.568,21.3003,-30.2457
4.804,4092.01,-3563.07,8897.56,-10.5854,-5.79702,-2.35961,2965.33,2240.23,9251.57,19.0894,403.447,14.0534,-1178.67,7052.69,-2557.53,20.6338,-11.8313,-36.4561,342.089,-3441.57,1740.47,-35.224,-2.82393,-205.288,-1064.51,5106.18,-4480.51,80.727,17.6516,-119.009,-9360.95,-9130.61,-2177.24,26.1615,-70.5986,-151.38,10015.3,704.506,-790.389,32.1358,20.0124,-32.6001
4.805,4110.37,-3626.89,8881.9,-10.2425,-6.14997,-2.70073,3045.06,2244.13,9115.0,21.7657,405.657,10.5933,-1087.15,7131.31,-2697.37,21.3273,-9.81492,-35.5674,251.839,-3559.9,1860.13,-36.2774,-7.55736,-207.224,-1131.61,5028.87,-4515.66,79.5853,15.9599,-119.145,-9249.86,-8950.21,-2168.91,24.2705,-70.198,-153.311,10093.1,695.128,-888.165,34.298,19.4838,-34.9179
4.806,4134.81,-3602.2,8881.46,-9.86152,-6.45749,-3.04789,3118.39,2271.84,8971.85,24.1175,407.56,7.20519,-971.85,7238.58,-2773.62,21.5911,-7.93859,-34.666,256.308,-3703.6,1949.95,-36.8173,-12.9685,-209.329,-1222.49,4998.72,-4580.17,78.6913,14.2793,-119.201,-9129.22,-8790.5,-2160.4,22.5978,-69.5971,-155.123,10151.9,769.456,-937.781,36.9359,19.5625,-37.2064
4.807,4159.26,-3577.51,8881.01,-9.48054,-6.76501,-3.39506,3191.73,2299.56,8828.7,26.4693,409.463,3.81712,-856.549,7345.84,-2849.86,21.855,-6.06227,-33.7646,260.776,-3847.31,2039.76,-37.3572,-18.3796,-211.435,-1313.36,4968.57,-4644.69,77.7972,12.5987,-119.258,-9008.59,-8630.8,-2151.89,20.925,-68.9962,-156.936,10210.7,843.784,-987.397,39.5737,19.6412,-39.4949
4.808,4183.7,-3552.81,8880.57,-9.09956,-7.07253,-3.74222,3265.06,2327.27,8685.55,28.821,411.366,0.429047,-741.247,7453.11,-2926.1,22.1188,-4.18595,-32.8632,265.245,-3991.01,2129.57,-37.8971,-23.7907,-213.54,-1404.23,4938.42,-4709.2,76.9032,10.9181,-119.314,-8887.96,-8471.09,-2143.39,19.2523,-68.3953,-158.749,10269.5,918.112,-1037.01,42.2116,19.7199,-41.7834
4.809,4205.81,-3523.66,8879.85,-8.70139,-7.37145,-4.06139,3337.7,2363.03,8545.34,31.0821,413.212,-2.92831,-629.968,7565.43,-2991.03,22.2468,-2.41715,-31.9895,281.569,-4132.69,2208.06,-38.3068,-29.2991,-215.702,-1498.1,4922.46,-4775.35,76.0538,9.30432,-119.376,-8769.6,-8313.41,-2139.0,17.6224,-67.77,-160.518,10310.2,992.12,-1078.77,44.6293,19.8806,-43.958
4.81,4209.22,-3458.79,8876.97,-8.16579,-7.60149,-4.15664,3404.76,2463.2,8428.7,32.6175,414.609,-6.03992,-550.867,7718.1,-2965.42,21.2876,-1.50856,-31.3377,392.735,-4258.2,2195.93,-37.6739,-35.5859,-218.313,-1616.01,5020.05,-4854.55,75.5607,8.22459,-119.479,-8669.47,-8171.9,-2167.61,16.3354,-66.9489,-161.94,10205.4,1063.56,-1057.62,45.2861,20.6975,-45.2218
4.811,4212.62,-3393.91,8874.09,-7.63019,-7.83153,-4.25189,3471.82,2563.37,8312.07,34.1528,416.005,-9.15154,-471.767,7870.78,-2939.82,20.3285,-0.599971,-30.6859,503.901,-4383.72,2183.8,-37.041,-41.8727,-220.925,-1733.92,5117.64,-4933.75,75.0676,7.14486,-119.582,-8569.33,-8030.4,-2196.22,15.0483,-66.1278,-163.361,10100.7,1135.0,-1036.47,45.943,21.5144,-46.4855
4.812,4216.02,-3329.04,8871.21,-7.09459,-8.06157,-4.34714,3538.87,2663.55,8195.43,35.6882,417.401,-12.2632,-392.666,8023.46,-2914.21,19.3693,0.308617,-30.0342,615.066,-4509.23,2171.67,-36.4082,-48.1596,-223.536,-1851.82,5215.22,-5012.94,74.5746,6.06513,-119.684,-8469.2,-7888.89,-2224.83,13.7613,-65.3067,-164.783,9996.0,1206.44,-1015.32,46.5998,22.3313,-47.7493
4.813,4219.43,-3264.17,8868.33,-6.55899,-8.29161,-4.44239,3605.93,2763.72,8078.79,37.2235,418.797,-15.3748,-313.565,8176.13,-2888.6,18.4102,1.21721,-29.3824,726.232,-4634.74,2159.54,-35.7753,-54.4464,-226.147,-1969.73,5312.81,-5092.14,74.0815,4.98539,-119.787,-8369.07,-7747.39,-2253.44,12.4742,-64.4857,-166.204,9891.27,1277.88,-994.177,47.2566,23.1482,-49.0131
