Time,RFoot_accel.x,RFoot_accel.y,RFoot_accel.z,RFoot_gyro.x,RFoot_gyro.y,RFoot_gyro.z,LFoot_accel.x,LFoot_accel.y,LFoot_accel.z,LFoot_gyro.x,LFoot_gyro.y,LFoot_gyro.z,RShank_accel.x,RShank_accel.y,RShank_accel.z,RShank_gyro.x,RShank_gyro.y,RShank_gyro.z,LShank_accel.x,LShank_accel.y,LShank_accel.z,LShank_gyro.x,LShank_gyro.y,LShank_gyro.z,RThigh_accel.x,RThigh_accel.y,RThigh_accel.z,RThigh_gyro.x,RThigh_gyro.y,RThigh_gyro.z,LThigh_accel.x,LThigh_accel.y,LThigh_accel.z,LThigh_gyro.x,LThigh_gyro.y,LThigh_gyro.z,Pelvis_accel.x,Pelvis_accel.y,Pelvis_accel.z,Pelvis_gyro.x,Pelvis_gyro.y,Pelvis_gyro.z
5.09,3813.9,-8828.09,5889.0,25.3664,297.203,46.6478,4753.31,3259.08,7768.22,7.48229,6.60565,0.61331,5424.07,5505.31,-5838.8,26.3791,7.59525,55.5757,-1183.09,-9189.78,-3582.19,-7.53671,-15.8046,57.2302,-6041.85,15277.9,-975.497,-18.9499,53.4367,131.573,-3164.44,-8550.98,-2521.52,-18.8459,-4.7365,79.9113,11670.8,1362.99,548.654,41.7065,-17.508,23.5472
5.091,3550.85,-8805.0,5737.46,28.6521,298.394,47.0745,4770.78,3256.05,7743.84,6.90715,6.75476,0.9169,5287.46,5400.43,-5454.75,25.5576,11.186,57.4402,-1239.59,-9136.62,-3592.98,-6.90382,-16.2348,56.1334,-6247.88,14990.0,-887.259,-17.8204,55.2537,131.896,-3212.11,-8510.08,-2504.63,-19.4667,-4.63051,80.7789,11611.8,1320.26,524.489,43.1169,-18.3665,25.9381
5.092,3287.79,-8781.9,5585.91,31.9378,299.585,47.5011,4788.26,3253.02,7719.46,6.332,6.90386,1.22049,5150.85,5295.54,-5070.69,24.7361,14.7768,59.3047,-1296.09,-9083.46,-3603.77,-6.27093,-16.665,55.0366,-6453.91,14702.0,-799.022,-16.6909,57.0708,132.219,-3259.78,-8469.19,-2487.74,-20.0875,-4.52451,81.6465,11552.8,1277.53,500.324,44.5273,-19.225,28.3291
5.093,3024.74,-8758.81,5434.36,35.2235,300.776,47.9278,4805.73,3249.98,7695.09,5.75685,7.05297,1.52408,5014.25,5190.66,-4686.63,23.9146,18.3676,61.1692,-1352.59,-9030.3,-3614.56,-5.63805,-17.0952,53.9398,-6659.94,14414.1,-710.784,-15.5614,58.8878,132.542,-3307.44,-8428.29,-2470.85,-20.7083,-4.41852,82.5142,11493.8,1234.8,476.16,45.9377,-20.0834,30.72
5.094,2851.09,-8622.29,5322.91,37.4514,301.555,49.0007,4838.39,3241.72,7684.07,5.32285,7.17831,1.95677,4869.5,5074.36,-4250.58,23.6213,19.7601,63.043,-1455.34,-9014.27,-3626.27,-5.0145,-17.2946,52.8145,-6817.74,14151.8,-647.44,-14.5516,60.7124,132.569,-3340.78,-8428.49,-2422.0,-21.244,-4.47943,83.1255,11429.2,1188.53,448.891,47.0764,-20.9149,33.1505
5.095,2722.15,-8429.06,5231.5,39.1505,302.129,50.3968,4878.65,3230.85,7679.73,4.95942,7.29177,2.45402,4720.67,4952.36,-3788.54,23.5921,20.0535,64.9214,-1581.21,-9016.8,-3638.44,-4.39563,-17.3785,51.6749,-6951.44,13902.3,-596.543,-13.6017,62.5408,132.448,-3366.95,-8449.25,-2357.16,-21.7371,-4.62379,83.6088,11361.9,1140.48,420.072,48.0792,-21.7329,35.6006
5.096,2593.21,-8235.83,5140.09,40.8495,302.703,51.7928,4918.91,3219.98,7675.4,4.59599,7.40523,2.95126,4571.85,4830.36,-3326.5,23.5628,20.3469,66.7999,-1707.08,-9019.33,-3650.61,-3.77676,-17.4624,50.5353,-7085.14,13652.8,-545.646,-12.6518,64.3692,132.328,-3393.12,-8470.01,-2292.31,-22.2302,-4.76815,84.092,11294.6,1092.44,391.252,49.0821,-22.5509,38.0508
5.097,2464.27,-8042.6,5048.69,42.5486,303.277,53.1889,4959.17,3209.11,7671.06,4.23256,7.51868,3.4485,4423.03,4708.36,-2864.46,23.5336,20.6403,68.6783,-1832.96,-9021.86,-3662.78,-3.15789,-17.5463,49.3957,-7218.83,13403.3,-494.749,-11.7019,66.1975,132.207,-3419.29,-8490.77,-2227.47,-22.7233,-4.91251,84.5752,11227.2,1044.39,362.432,50.0849,-23.3689,40.501
5.098,2337.78,-7811.76,4983.9,43.7585,303.562,54.746,4999.09,3189.71,7672.99,3.86482,7.60386,3.945,4282.0,4590.48,-2421.79,23.6415,20.6261,70.7073,-1938.99,-9024.96,-3655.31,-2.63975,-17.6518,48.3072,-7322.04,13158.7,-448.157,-10.7661,67.9455,132.035,-3444.73,-8514.72,-2154.86,-23.0984,-5.12966,85.0086,11145.4,995.562,331.804,50.9993,-24.1766,42.8848
5.099,2219.89,-7449.33,5012.3,43.2564,302.839,56.8671,5037.84,3140.5,7696.87,3.48201,7.59006,4.43885,4168.26,4487.02,-2046.9,24.2291,19.5353,73.2628,-1975.57,-9030.05,-3579.11,-2.47416,-17.833,47.398,-7318.55,12931.1,-416.633,-9.88011,69.412,131.682,-3467.62,-8549.86,-2055.03,-23.0606,-5.60156,85.2674,11012.8,943.97,294.852,51.6042,-24.9482,45.0368
5.1,2102.0,-7086.9,5040.69,42.7544,302.115,58.9881,5076.58,3091.29,7720.75,3.09919,7.57625,4.93271,4054.51,4383.55,-1672.01,24.8168,18.4445,75.8184,-2012.16,-9035.14,-3502.91,-2.30858,-18.0141,46.4888,-7315.06,12703.6,-385.109,-8.99409,70.8785,131.329,-3490.5,-8585.0,-1955.21,-23.0229,-6.07347,85.5262,10880.3,892.379,257.899,52.2092,-25.7197,47.1887
5.101,1984.11,-6724.46,5069.09,42.2523,301.392,61.1091,5115.33,3042.07,7744.63,2.71638,7.56245,5.42656,3940.77,4280.09,-1297.12,25.4045,17.3537,78.3739,-2048.74,-9040.24,-3426.72,-2.14299,-18.1952,45.5797,-7311.57,12476.1,-353.585,-8.10806,72.345,130.977,-3513.39,-8620.14,-1855.38,-22.9851,-6.54538,85.7849,10747.7,840.788,220.946,52.8141,-26.4913,49.3406
5.102,1866.22,-6362.03,5097.48,41.7502,300.669,63.2301,5154.08,2992.86,7768.51,2.33357,7.54865,5.92042,3827.03,4176.63,-922.233,25.9921,16.2629,80.9295,-2085.32,-9045.33,-3350.52,-1.97741,-18.3763,44.6704,-7308.08,12248.5,-322.06,-7.22204,73.8115,130.624,-3536.27,-8655.28,-1755.55,-22.9474,-7.01729,86.0437,10615.1,789.197,183.994,53.419,-27.2629,51.4925
5.103,1750.45,-5948.6,5131.82,39.7364,298.891,65.6077,5173.75,2961.66,7772.69,2.11088,7.70548,6.44707,3845.32,4066.93,-749.03,24.8431,17.7755,83.8345,-2072.64,-9052.42,-3203.76,-1.78389,-19.1459,44.0202,-7224.74,12066.5,-299.305,-6.36458,74.9753,130.286,-3552.4,-8685.05,-1670.86,-22.5752,-8.4305,86.2753,10503.1,723.105,147.427,53.9576,-27.6586,53.9263
5.104,1635.28,-5520.6,5167.86,37.2906,296.813,68.0585,5187.96,2935.62,7771.24,1.93394,7.91107,6.9831,3901.33,3955.45,-633.452,23.1978,20.032,86.8395,-2045.88,-9060.07,-3036.84,-1.58239,-20.0836,43.4439,-7118.58,11897.5,-279.055,-5.51529,76.0526,129.953,-3566.6,-8713.3,-1590.5,-22.1074,-10.1126,86.4991,10397.0,652.87,110.97,54.4772,-27.947,56.4406
5.105,1520.12,-5092.59,5203.9,34.8449,294.734,70.5093,5202.18,2909.57,7769.8,1.757,8.11665,7.51913,3957.34,3843.96,-517.874,21.5525,22.2884,89.8444,-2019.12,-9067.73,-2869.92,-1.38089,-21.0212,42.8676,-7012.43,11728.5,-258.805,-4.66599,77.1298,129.62,-3580.8,-8741.54,-1510.14,-21.6397,-11.7948,86.7228,10290.9,582.636,74.5132,54.9969,-28.2353,58.955
5.106,1404.96,-4664.59,5239.94,32.3991,292.656,72.9602,5216.39,2883.53,7768.36,1.58007,8.32224,8.05516,4013.36,3732.48,-402.296,19.9073,24.5448,92.8493,-1992.36,-9075.39,-2703.0,-1.17939,-21.9589,42.2913,-6906.27,11559.5,-238.555,-3.8167,78.2071,129.288,-3595.0,-8769.78,-1429.77,-21.172,-13.477,86.9466,10184.8,512.401,38.0564,55.5165,-28.5237,61.4693
5.107,1295.71,-4237.96,5269.07,29.4739,290.331,75.5383,5218.93,2842.76,7774.2,1.46086,8.51821,8.51986,4056.24,3624.84,-267.666,18.3463,27.1411,96.0615,-1961.18,-9096.97,-2528.5,-1.09111,-22.985,41.7818,-6785.0,11402.7,-228.053,-3.07775,79.1649,128.946,-3606.22,-8801.27,-1332.81,-20.7096,-15.3672,87.1408,10056.1,447.993,-1.12483,56.0214,-28.6837,63.8786
5.108,1198.28,-3814.08,5284.38,25.5897,287.515,78.371,5198.13,2772.54,7794.62,1.45711,8.69494,8.84189,4072.86,3524.9,-94.9346,16.9541,30.4172,99.6882,-1921.18,-9146.41,-2338.87,-1.22929,-24.1878,41.406,-6633.48,11270.2,-237.045,-2.55952,79.8836,128.586,-3611.48,-8839.27,-1202.66,-20.2581,-17.6736,87.2758,9881.98,395.239,-45.7548,56.4966,-28.5868,66.0778
5.109,1100.86,-3390.2,5299.7,21.7056,284.699,81.2038,5177.32,2702.33,7815.04,1.45336,8.87167,9.16392,4089.48,3424.96,77.797,15.5618,33.6932,103.315,-1881.18,-9195.86,-2149.24,-1.36747,-25.3907,41.0302,-6481.97,11137.7,-246.038,-2.04128,80.6023,128.227,-3616.73,-8877.26,-1072.5,-19.8065,-19.98,87.4108,9707.91,342.485,-90.3849,56.9718,-28.4899,68.2771
5.11,1003.44,-2966.32,5315.01,17.8214,281.882,84.0365,5156.52,2632.11,7835.46,1.44961,9.04841,9.48594,4106.11,3325.02,250.529,14.1696,36.9693,106.941,-1841.18,-9245.3,-1959.61,-1.50564,-26.5936,40.6544,-6330.45,11005.3,-255.031,-1.52304,81.321,127.868,-3621.99,-8915.26,-942.349,-19.355,-22.2864,87.5458,9533.83,289.731,-135.015,57.447,-28.393,70.4763
5.111,906.012,-2542.44,5330.32,13.9373,279.066,86.8692,5135.71,2561.89,7855.89,1.44586,9.22514,9.80797,4122.73,3225.08,423.26,12.7773,40.2453,110.568,-1801.18,-9294.74,-1769.97,-1.64382,-27.7964,40.2786,-6178.94,10872.8,-264.024,-1.00481,82.0397,127.508,-3627.25,-8953.25,-812.196,-18.9035,-24.5928,87.6808,9359.76,236.977,-179.645,57.9222,-28.2961,72.6755
5.112,949.486,-2284.58,5258.69,10.2059,276.764,90.0749,5112.73,2477.55,7901.29,1.52574,9.27524,9.89237,4019.94,3051.73,622.592,13.6729,41.4639,114.424,-1743.07,-9378.14,-1673.76,-1.90347,-28.9492,40.1169,-5999.34,10756.1,-276.919,-0.83173,82.4202,127.212,-3647.54,-9016.1,-741.757,-18.5592,-27.609,87.706,9304.6,171.592,-235.755,58.8226,-27.9473,74.6529
5.113,1010.57,-2047.47,5176.18,6.49366,274.526,93.3272,5089.47,2391.44,7949.82,1.61607,9.30951,9.94706,3902.23,2869.2,825.249,14.8544,42.4253,118.309,-1682.71,-9465.78,-1589.22,-2.17831,-30.0958,39.9819,-5816.24,10641.5,-290.302,-0.701801,82.7584,126.925,-3669.72,-9082.06,-678.783,-18.2283,-30.714,87.7175,9264.3,104.628,-293.299,59.7762,-27.567,76.6024
5.114,1071.66,-1810.36,5093.68,2.78141,272.288,96.5795,5066.22,2305.33,7998.35,1.7064,9.34377,10.0018,3784.52,2686.67,1027.91,16.0359,43.3866,122.194,-1622.34,-9553.42,-1504.67,-2.45315,-31.2424,39.847,-5633.14,10526.8,-303.684,-0.571872,83.0967,126.637,-3691.89,-9148.01,-615.809,-17.8975,-33.8189,87.7289,9224.01,37.6645,-350.844,60.7298,-27.1867,78.552
5.115,1132.74,-1573.25,5011.17,-0.930833,270.051,99.8318,5042.97,2219.22,8046.88,1.79673,9.37804,10.0564,3666.8,2504.15,1230.56,17.2174,44.348,126.079,-1561.97,-9641.06,-1420.13,-2.72799,-32.3889,39.712,-5450.04,10412.1,-317.067,-0.441942,83.435,126.349,-3714.07,-9213.97,-552.835,-17.5666,-36.9239,87.7404,9183.71,-29.2993,-408.388,61.6834,-26.8064,80.5016
5.116,1274.16,-1459.82,4895.5,-4.22844,268.602,103.228,5014.95,2143.75,8078.93,1.9496,9.46589,10.0807,3476.53,2312.91,1385.81,18.8215,44.1393,129.356,-1503.49,-9720.61,-1347.62,-2.99498,-33.3911,39.5897,-5282.73,10303.9,-335.287,-0.506804,83.6729,126.084,-3748.18,-9276.67,-501.166,-17.2351,-40.278,87.6219,9145.79,-89.1949,-432.187,62.7121,-26.4094,82.2768
5.117,1515.99,-1501.02,4738.36,-7.00775,268.139,106.803,4980.97,2081.58,8090.41,2.18064,9.6207,10.0668,3195.54,2110.79,1481.81,20.9539,42.4681,131.873,-1447.37,-9790.04,-1290.15,-3.25215,-34.2127,39.4832,-5135.18,10203.6,-359.552,-0.815154,83.7854,125.849,-3797.21,-9335.3,-463.627,-16.903,-43.9434,87.3409,9110.84,-140.255,-413.805,63.8345,-25.9916,83.834
5.118,1757.81,-1542.21,4581.21,-9.78705,267.677,110.379,4946.98,2019.41,8101.88,2.41167,9.77552,10.053,2914.55,1908.67,1577.81,23.0863,40.7969,134.39,-1391.25,-9859.48,-1232.68,-3.50932,-35.0344,39.3767,-4987.63,10103.3,-383.818,-1.1235,83.898,125.614,-3846.24,-9393.93,-426.089,-16.5708,-47.6088,87.06,9075.88,-191.316,-395.422,64.9569,-25.5738,85.3912
5.119,1999.64,-1583.4,4424.07,-12.5664,267.215,113.954,4913.0,1957.24,8113.35,2.64271,9.93033,10.0391,2633.57,1706.55,1673.81,25.2187,39.1257,136.907,-1335.13,-9928.91,-1175.2,-3.76649,-35.8561,39.2702,-4840.07,10003.0,-408.083,-1.43185,84.0105,125.378,-3895.26,-9452.57,-388.55,-16.2386,-51.2742,86.779,9040.93,-242.376,-377.04,66.0794,-25.1559,86.9484
5.12,2241.47,-1624.6,4266.93,-15.3457,266.752,117.53,4879.02,1895.07,8124.83,2.87375,10.0851,10.0253,2352.58,1504.44,1769.8,27.351,37.4544,139.425,-1279.01,-9998.34,-1117.73,-4.02366,-36.6777,39.1637,-4692.52,9902.67,-432.349,-1.74021,84.123,125.143,-3944.29,-9511.2,-351.012,-15.9065,-54.9396,86.4981,9005.97,-293.436,-358.657,67.2018,-24.7381,88.5055
5.121,2515.3,-1834.08,4143.4,-16.9643,267.917,121.105,4897.21,1892.23,8105.25,3.04294,10.4731,9.94291,1998.69,1436.26,1705.71,28.8502,35.213,140.3,-1228.74,-10046.6,-1114.99,-4.30932,-37.1386,39.0857,-4582.68,9803.24,-452.216,-2.29386,84.262,124.923,-3987.39,-9610.55,-320.123,-15.5861,-58.9189,85.9599,8995.37,-326.307,-368.034,67.9587,-24.3595,89.3672
5.122,2789.13,-2043.57,4019.87,-18.5829,269.081,124.681,4915.41,1889.38,8085.67,3.21213,10.8611,9.86053,1644.79,1368.08,1641.62,30.3494,32.9715,141.176,-1178.47,-10094.8,-1112.25,-4.59498,-37.5995,39.0077,-4472.84,9703.81,-472.082,-2.84751,84.401,124.703,-4030.5,-9709.9,-289.234,-15.2657,-62.8982,85.4216,8984.77,-359.177,-377.412,68.7155,-23.981,90.2289
5.123,3062.96,-2253.05,3896.34,-20.2015,270.245,128.257,4933.6,1886.54,8066.09,3.38131,11.249,9.77815,1290.9,1299.91,1577.53,31.8485,30.7301,142.051,-1128.2,-10143.0,-1109.52,-4.88063,-38.0604,38.9297,-4363.0,9604.38,-491.949,-3.40116,84.54,124.482,-4073.6,-9809.25,-258.344,-14.9454,-66.8775,84.8834,8974.17,-392.048,-386.789,69.4723,-23.6025,91.0906
5.124,3336.8,-2462.54,3772.82,-21.82,271.41,131.833,4951.8,1883.7,8046.51,3.5505,11.637,9.69577,937.004,1231.73,1513.44,33.3477,28.4886,142.926,-1077.93,-10191.2,-1106.78,-5.16629,-38.5213,38.8517,-4253.17,9504.95,-511.816,-3.95482,84.679,124.262,-4116.7,-9908.61,-227.455,-14.625,-70.8569,84.3452,8963.58,-424.919,-396.167,70.2291,-23.224,91.9523
5.125,3550.17,-2674.33,3709.29,-22.6292,272.804,135.263,4974.36,1897.88,8025.22,3.65089,11.9146,9.58662,654.058,1259.4,1440.24,34.65,26.7061,143.472,-1017.88,-10205.0,-1118.08,-5.49103,-38.7012,38.7645,-4161.08,9421.83,-519.018,-4.48733,84.9188,123.968,-4132.66,-10021.1,-191.07,-14.2616,-74.9491,83.8555,8883.83,-420.743,-413.102,70.9631,-22.5594,92.5596
5.126,3715.18,-2887.97,3693.78,-22.7909,274.382,138.575,5000.4,1925.67,8002.56,3.69625,12.104,9.45605,427.871,1363.74,1359.74,35.7948,25.2908,143.754,-950.017,-10191.3,-1140.62,-5.84702,-38.6562,38.67,-4083.19,9351.77,-516.089,-5.00294,85.2392,123.616,-4126.89,-10144.1,-150.289,-13.8637,-79.1318,83.4047,8748.76,-386.931,-436.084,71.6788,-21.666,92.9632
5.127,3880.2,-3101.61,3678.26,-22.9526,275.96,141.887,5026.45,1953.47,7979.91,3.7416,12.2935,9.32548,201.684,1468.08,1279.25,36.9396,23.8755,144.036,-882.151,-10177.5,-1163.15,-6.20302,-38.6113,38.5754,-4005.3,9281.71,-513.16,-5.51854,85.5596,123.264,-4121.13,-10267.0,-109.507,-13.4657,-83.3144,82.954,8613.7,-353.119,-459.066,72.3945,-20.7726,93.3669
5.128,4045.21,-3315.25,3662.74,-23.1142,277.539,145.199,5052.49,1981.27,7957.25,3.78695,12.4829,9.19492,-24.5027,1572.41,1198.75,38.0844,22.4602,144.318,-814.284,-10163.8,-1185.69,-6.55901,-38.5663,38.4808,-3927.41,9211.64,-510.231,-6.03415,85.8799,122.912,-4115.37,-10390.0,-68.7254,-13.0678,-87.4971,82.5032,8478.63,-319.306,-482.048,73.1102,-19.8792,93.7705
5.129,4188.78,-3521.94,3649.43,-23.17,279.1,148.45,5078.26,2007.82,7936.1,3.82769,12.666,9.05234,-221.502,1689.62,1112.98,39.1839,21.1798,144.652,-756.82,-10147.1,-1209.38,-6.92677,-38.4798,38.3819,-3855.45,9146.77,-505.598,-6.56946,86.2308,122.542,-4103.73,-10505.1,-33.07,-12.6238,-91.6501,81.9986,8349.28,-281.368,-509.607,73.8918,-18.9271,94.1213
5.13,4160.85,-3673.02,3653.71,-22.3785,280.528,151.214,5101.74,2024.38,7926.95,3.83152,12.7992,8.81368,-185.001,1909.73,985.043,39.921,20.9788,145.397,-782.585,-10106.7,-1242.3,-7.38866,-38.0607,38.2485,-3830.96,9123.49,-487.34,-7.26238,86.8252,122.033,-4045.13,-10557.7,-38.4246,-11.8105,-95.5658,81.0643,8265.62,-210.419,-573.784,75.1998,-17.5059,94.0498
5.131,4132.92,-3824.1,3657.99,-21.5869,281.956,153.978,5125.23,2040.95,7917.8,3.83534,12.9324,8.57503,-148.499,2129.84,857.104,40.6581,20.7778,146.142,-808.349,-10066.3,-1275.22,-7.85055,-37.6416,38.1151,-3806.47,9100.21,-469.081,-7.95531,87.4196,121.524,-3986.53,-10610.2,-43.7793,-10.9972,-99.4816,80.1299,8181.96,-139.469,-637.96,76.5079,-16.0846,93.9783
5.132,4105.0,-3975.17,3662.26,-20.7954,283.383,156.741,5148.72,2057.51,7908.66,3.83916,13.0655,8.33638,-111.998,2349.95,729.164,41.3952,20.5769,146.887,-834.113,-10025.8,-1308.14,-8.31243,-37.2225,37.9817,-3781.98,9076.93,-450.823,-8.64824,88.0141,121.014,-3927.93,-10662.7,-49.1339,-10.184,-103.397,79.1955,8098.3,-68.5203,-702.136,77.8159,-14.6633,93.9068
5.133,4077.07,-4126.25,3666.54,-20.0039,284.811,159.505,5172.21,2074.08,7899.51,3.84299,13.1987,8.09772,-75.4965,2570.06,601.224,42.1324,20.3759,147.632,-859.878,-9985.42,-1341.06,-8.77432,-36.8033,37.8483,-3757.48,9053.65,-432.564,-9.34116,88.6085,120.505,-3869.33,-10715.2,-54.4886,-9.37072,-107.313,78.2611,8014.64,2.42881,-766.312,79.124,-13.2421,93.8353
5.134,4005.38,-4232.51,3680.59,-18.7308,286.155,161.623,5187.15,2081.54,7907.35,3.7429,13.3784,7.83358,90.7237,2780.02,480.504,42.5643,20.7658,149.185,-887.922,-9979.85,-1367.98,-9.12161,-36.2559,37.9394,-3763.25,9030.13,-428.674,-10.092,89.4146,119.96,-3777.57,-10738.8,-59.2558,-8.78537,-110.871,77.3287,7970.12,77.9046,-770.684,79.9754,-12.0389,93.6107
5.135,3911.82,-4316.37,3699.52,-17.2169,287.457,163.418,5197.82,2084.45,7923.69,3.59086,13.5814,7.55669,321.803,2984.91,363.394,42.8436,21.4513,151.142,-917.106,-9991.71,-1391.89,-9.41159,-35.6443,38.1427,-3784.15,9006.48,-431.969,-10.8719,90.3265,119.397,-3669.22,-10747.9,-63.7293,-8.31397,-114.251,76.3973,7945.17,155.644,-745.154,80.5985,-10.9447,93.3095
5.136,3818.26,-4400.22,3718.45,-15.703,288.759,165.214,5208.49,2087.36,7940.02,3.43882,13.7843,7.2798,552.883,3189.79,246.284,43.1229,22.1367,153.099,-946.289,-10003.6,-1415.81,-9.70158,-35.0326,38.3461,-3805.05,8982.84,-435.263,-11.6517,91.2385,118.833,-3560.87,-10757.0,-68.2028,-7.84257,-117.631,75.4659,7920.22,233.383,-719.624,81.2217,-9.85059,93.0083
5.137,3724.7,-4484.07,3737.38,-14.1891,290.061,167.009,5219.16,2090.27,7956.36,3.28678,13.9873,7.00291,783.963,3394.67,129.174,43.4022,22.8221,155.056,-975.473,-10015.4,-1439.72,-9.99157,-34.421,38.5494,-3825.95,8959.19,-438.558,-12.4315,92.1504,118.27,-3452.53,-10766.0,-72.6763,-7.37116,-121.01,74.5345,7895.27,311.122,-694.093,81.8448,-8.75644,92.7071
5.138,3627.97,-4549.33,3766.2,-12.5667,291.27,168.654,5226.34,2080.73,7971.69,3.18844,14.1716,6.75563,1017.57,3577.6,36.552,43.6212,23.5174,157.169,-994.692,-10028.3,-1457.93,-10.2562,-33.8476,38.7933,-3852.91,8937.8,-436.003,-13.1662,93.0727,117.671,-3324.88,-10768.2,-83.9808,-6.92377,-124.214,73.5973,7875.8,388.561,-676.198,82.3222,-7.70287,92.3627
5.139,3520.15,-4549.49,3829.63,-10.5645,292.152,169.772,5221.32,2027.64,7983.53,3.27805,14.2906,6.612,1260.05,3683.68,29.6393,43.6293,24.2473,159.826,-979.03,-10044.6,-1456.2,-10.4322,-33.408,39.1789,-3901.06,8924.28,-412.977,-13.7429,94.0314,116.947,-3129.7,-10746.0,-119.194,-6.5604,-126.802,72.6398,7875.5,464.951,-685.024,82.2894,-6.79136,91.8668
5.14,3412.32,-4549.66,3893.07,-8.56236,293.033,170.89,5216.29,1974.55,7995.36,3.36766,14.4096,6.46838,1502.52,3789.76,22.7266,43.6373,24.9772,162.483,-963.369,-10060.9,-1454.46,-10.6082,-32.9684,39.5645,-3949.21,8910.76,-389.951,-14.3197,94.99,116.222,-2934.52,-10723.9,-154.407,-6.19704,-129.39,71.6822,7875.2,541.34,-693.85,82.2566,-5.87985,91.3709
5.141,3304.5,-4549.82,3956.5,-6.5602,293.915,172.008,5211.27,1921.46,8007.2,3.45727,14.5286,6.32475,1744.99,3895.83,15.8139,43.6454,25.7071,165.14,-947.708,-10077.2,-1452.73,-10.7841,-32.5288,39.9501,-3997.36,8897.24,-366.926,-14.8964,95.9487,115.498,-2739.34,-10701.7,-189.621,-5.83368,-131.978,70.7247,7874.89,617.73,-702.676,82.2239,-4.96834,90.875
5.142,3196.67,-4549.99,4019.94,-4.55804,294.796,173.126,5206.24,1868.37,8019.03,3.54688,14.6476,6.18112,1987.46,4001.91,8.90123,43.6535,26.437,167.797,-932.046,-10093.6,-1450.99,-10.9601,-32.0892,40.3358,-4045.52,8883.72,-343.9,-15.4732,96.9073,114.774,-2544.16,-10679.5,-224.834,-5.47031,-134.565,69.7671,7874.59,694.12,-711.502,82.1911,-4.05683,90.3791
5.143,3084.4,-4489.5,4084.86,-2.43931,295.485,174.192,5218.61,1854.58,7983.29,3.7498,14.8919,6.10608,2170.65,4011.1,20.7442,44.0538,26.8818,170.465,-891.707,-10085.7,-1465.9,-10.9306,-31.4537,40.7171,-4080.48,8876.65,-319.718,-15.8169,97.8138,114.136,-2381.7,-10623.3,-275.698,-4.85272,-136.211,68.9691,7866.53,768.994,-685.772,82.3196,-3.20794,90.1859
5.144,2970.87,-4411.7,4150.2,-0.287276,296.119,175.244,5235.95,1852.02,7933.95,3.98508,15.1719,6.05063,2336.89,3992.61,37.9459,44.5662,27.2451,173.136,-844.316,-10070.9,-1485.55,-10.8425,-30.7623,41.0972,-4111.67,8871.43,-295.207,-16.0942,98.7055,113.523,-2228.58,-10557.4,-331.033,-4.16248,-137.586,68.2166,7856.25,843.436,-650.169,82.4942,-2.37696,90.0792
5.145,2857.33,-4333.89,4215.54,1.86476,296.752,176.295,5253.29,1849.46,7884.62,4.22037,15.4519,5.99518,2503.14,3974.11,55.1476,45.0785,27.6084,175.807,-796.925,-10056.1,-1505.21,-10.7543,-30.0708,41.4774,-4142.86,8866.21,-270.696,-16.3714,99.5971,112.91,-2075.47,-10491.4,-386.368,-3.47224,-138.962,67.4642,7845.97,917.877,-614.567,82.6688,-1.54597,89.9725
5.146,2743.8,-4256.08,4280.88,4.01679,297.386,177.346,5270.63,1846.9,7835.28,4.45566,15.7319,5.93973,2669.39,3955.62,72.3493,45.5909,27.9717,178.479,-749.534,-10041.3,-1524.87,-10.6661,-29.3793,41.8575,-4174.05,8860.99,-246.184,-16.6487,100.489,112.297,-1922.35,-10425.5,-441.703,-2.78201,-140.338,66.7117,7835.7,992.318,-578.964,82.8434,-0.714986,89.8658
5.147,2640.43,-4157.6,4336.79,6.05864,298.024,178.35,5267.02,1862.49,7811.1,4.64318,15.9886,5.92386,2805.5,3916.81,78.9585,46.1844,28.3654,181.039,-713.571,-10021.4,-1548.01,-10.5657,-28.4546,42.1896,-4212.22,8850.74,-238.39,-16.8878,101.299,111.717,-1766.92,-10366.0,-496.846,-2.16482,-141.251,66.0157,7851.96,1046.36,-560.372,82.9773,0.129896,89.6635
5.148,2557.39,-4017.77,4373.81,7.88011,298.671,179.259,5221.54,1914.38,7837.24,4.73516,16.1984,5.98714,2881.33,3837.38,64.383,46.9404,28.8201,183.379,-700.463,-9991.08,-1578.09,-10.4408,-27.0632,42.4257,-4264.36,8830.4,-264.031,-17.0507,101.948,111.203,-1606.86,-10319.4,-551.605,-1.69373,-141.238,65.4327,7921.32,1059.61,-575.801,83.0299,1.00257,89.2701
5.149,2474.36,-3877.94,4410.84,9.70158,299.317,180.167,5176.06,1966.28,7863.38,4.82715,16.4083,6.05041,2957.16,3757.94,49.8074,47.6964,29.2748,185.719,-687.354,-9960.78,-1608.17,-10.3158,-25.6719,42.6618,-4316.5,8810.07,-289.673,-17.2136,102.597,110.689,-1446.8,-10272.9,-606.364,-1.22265,-141.225,64.8497,7990.67,1072.86,-591.23,83.0825,1.87525,88.8766
5.15,2391.32,-3738.1,4447.87,11.523,299.964,181.076,5130.58,2018.17,7889.52,4.91914,16.6181,6.11369,3032.99,3678.51,35.2319,48.4523,29.7295,188.059,-674.246,-9930.48,-1638.25,-10.1909,-24.2805,42.8979,-4368.63,8789.73,-315.314,-17.3766,103.246,110.175,-1286.73,-10226.3,-661.123,-0.751559,-141.211,64.2667,8060.03,1086.12,-606.659,83.1351,2.74792,88.4831
5.151,2308.29,-3598.27,4484.89,13.3445,300.61,181.985,5085.1,2070.07,7915.66,5.01113,16.828,6.17696,3108.82,3599.08,20.6563,49.2083,30.1842,190.399,-661.137,-9900.17,-1668.34,-10.066,-22.8892,43.134,-4420.77,8769.4,-340.955,-17.5395,103.895,109.661,-1126.67,-10179.7,-715.882,-0.280471,-141.198,63.6838,8129.38,1099.37,-622.088,83.1877,3.62059,88.0896
5.152,2248.51,-3456.98,4504.02,14.3962,301.239,182.705,5062.82,2122.01,7897.83,5.25605,17.0555,6.31723,3154.79,3533.44,58.8816,49.9442,30.5025,192.379,-682.323,-9866.56,-1728.58,-9.96665,-21.3038,43.2269,-4502.82,8743.01,-365.095,-17.3274,104.332,109.112,-978.766,-10067.9,-793.815,0.0761903,-139.939,63.1397,8141.99,1124.1,-650.907,82.384,4.47922,87.5349
5.153,2191.64,-3315.49,4520.9,15.3517,301.865,183.401,5043.43,2173.96,7874.5,5.5201,17.2852,6.46712,3197.02,3469.52,103.707,50.6776,30.8038,194.314,-707.796,-9832.54,-1792.59,-9.87055,-19.6941,43.3019,-4588.61,8715.86,-389.048,-17.0685,104.742,108.558,-832.38,-9947.83,-874.646,0.418548,-138.524,62.6005,8147.52,1150.27,-681.4,81.4734,5.3361,86.96
5.154,2134.77,-3174.01,4537.79,16.3072,302.492,184.097,5024.04,2225.91,7851.17,5.78415,17.5149,6.61701,3239.25,3405.6,148.532,51.411,31.1051,196.25,-733.269,-9798.51,-1856.61,-9.77445,-18.0844,43.3769,-4674.39,8688.72,-413.0,-16.8095,105.152,108.005,-685.993,-9827.81,-955.476,0.760906,-137.108,62.0613,8153.04,1176.44,-711.893,80.5627,6.19297,86.3851
5.155,2077.9,-3032.53,4554.68,17.2626,303.118,184.793,5004.66,2277.85,7827.84,6.0482,17.7446,6.7669,3281.48,3341.68,193.358,52.1444,31.4064,198.185,-758.742,-9764.49,-1920.62,-9.67834,-16.4748,43.4519,-4760.18,8661.58,-436.953,-16.5506,105.562,107.451,-539.606,-9707.79,-1036.31,1.10326,-135.693,61.5222,8158.56,1202.61,-742.386,79.652,7.04984,85.8102
5.156,2035.96,-2895.63,4603.24,17.7875,303.593,185.36,5008.77,2314.99,7821.65,6.13311,17.964,6.94305,3318.53,3314.29,236.808,52.8151,31.6546,200.039,-770.628,-9726.61,-1990.88,-9.63372,-14.8739,43.5254,-4836.49,8622.63,-483.186,-16.157,105.938,106.957,-430.696,-9628.14,-1120.67,1.34473,-134.019,61.0327,8130.33,1222.88,-769.562,78.7978,7.98032,85.2314
5.157,2012.68,-2764.44,4691.41,17.774,303.878,185.765,5042.24,2333.62,7836.89,5.9941,18.1703,7.15203,3349.11,3332.57,278.541,53.4074,31.8365,201.792,-765.53,-9683.92,-2068.95,-9.65346,-13.284,43.5972,-4900.96,8568.94,-557.272,-15.5949,106.273,106.538,-368.632,-9598.94,-1209.46,1.46008,-132.023,60.6054,8059.89,1235.78,-792.59,78.0141,9.0028,84.6477
5.158,1989.39,-2633.25,4779.59,17.7606,304.163,186.171,5075.72,2352.25,7852.12,5.85508,18.3767,7.36101,3379.68,3350.84,320.274,53.9997,32.0184,203.544,-760.432,-9641.23,-2147.03,-9.6732,-11.6942,43.6689,-4965.43,8515.24,-631.357,-15.0329,106.607,106.118,-306.568,-9569.74,-1298.24,1.57544,-130.026,60.1781,7989.46,1248.68,-815.618,77.2304,10.0253,84.0639
5.159,1966.1,-2502.06,4867.76,17.7471,304.449,186.576,5109.2,2370.89,7867.36,5.71607,18.583,7.56999,3410.26,3369.11,362.007,54.592,32.2003,205.297,-755.334,-9598.54,-2225.1,-9.69294,-10.1043,43.7406,-5029.9,8461.55,-705.442,-14.4708,106.942,105.699,-244.503,-9540.55,-1387.02,1.69079,-128.029,59.7508,7919.02,1261.58,-838.646,76.4467,11.0478,83.4802
5.16,1942.82,-2370.88,4955.93,17.7337,304.734,186.981,5142.68,2389.52,7882.59,5.57706,18.7894,7.77896,3440.84,3387.38,403.74,55.1843,32.3822,207.05,-750.237,-9555.85,-2303.17,-9.71267,-8.51448,43.8124,-5094.36,8407.86,-779.527,-13.9088,107.277,105.28,-182.439,-9511.35,-1475.81,1.80614,-126.032,59.3236,7848.58,1274.48,-861.674,75.6631,12.0702,82.8964
5.161,1937.86,-2234.93,5076.62,17.0312,304.683,187.257,5137.1,2389.1,7865.3,5.67908,19.0157,8.00048,3446.43,3484.78,428.04,55.8376,32.3554,208.858,-775.77,-9520.86,-2343.21,-9.6058,-7.28969,43.8071,-5124.14,8367.04,-863.963,-13.5709,107.663,104.99,-190.832,-9458.65,-1548.16,1.64504,-123.713,59.0032,7799.57,1263.23,-862.175,75.1815,12.9047,81.7964
5.162,1932.9,-2098.99,5197.3,16.3286,304.632,187.532,5131.52,2388.68,7848.01,5.78109,19.242,8.22199,3452.01,3582.18,452.339,56.4908,32.3286,210.666,-801.304,-9485.88,-2383.24,-9.49893,-6.0649,43.8018,-5153.91,8326.22,-948.398,-13.233,108.05,104.7,-199.226,-9405.95,-1620.52,1.48395,-121.394,58.6828,7750.55,1251.97,-862.677,74.6999,13.7391,80.6964
5.163,1927.94,-1963.04,5317.99,15.6261,304.58,187.807,5125.94,2388.27,7830.71,5.88311,19.4683,8.4435,3457.6,3679.57,476.639,57.144,32.3018,212.474,-826.837,-9450.9,-2423.27,-9.39206,-4.84011,43.7965,-5183.68,8285.4,-1032.83,-12.8951,108.436,104.411,-207.619,-9353.25,-1692.88,1.32285,-119.075,58.3625,7701.53,1240.72,-863.178,74.2184,14.5735,79.5963
5.164,1922.98,-1827.1,5438.68,14.9236,304.529,188.083,5120.36,2387.85,7813.42,5.98513,19.6946,8.66501,3463.19,3776.97,500.939,57.7973,32.2749,214.283,-852.371,-9415.92,-2463.3,-9.28519,-3.61532,43.7913,-5213.45,8244.58,-1117.27,-12.5573,108.822,104.121,-216.013,-9300.55,-1765.24,1.16175,-116.756,58.0421,7652.51,1229.47,-863.68,73.7368,15.408,78.4963
5.165,1932.03,-1712.37,5524.6,13.8166,304.415,188.244,5123.71,2426.4,7804.93,5.99996,19.8834,8.92907,3441.89,3876.23,539.081,58.4318,31.961,216.067,-888.868,-9396.65,-2501.19,-9.13215,-2.6314,43.7873,-5247.46,8185.97,-1182.74,-12.3377,109.252,103.951,-284.452,-9269.67,-1841.59,1.06829,-114.451,57.8861,7626.11,1204.22,-874.339,73.403,16.2571,77.1642
5.166,1952.29,-1614.62,5582.69,12.386,304.25,188.314,5134.2,2496.11,7803.47,5.94504,20.0422,9.22717,3399.08,3976.98,588.296,59.0513,31.4172,217.833,-934.137,-9389.95,-2537.36,-8.94217,-1.84019,43.7844,-5284.86,8113.13,-1233.03,-12.2129,109.715,103.878,-400.928,-9256.23,-1921.14,1.02895,-112.159,57.8614,7617.8,1167.78,-893.126,73.1873,17.1181,75.6466
5.167,1972.56,-1516.87,5640.79,10.9554,304.085,188.385,5144.7,2565.83,7802.01,5.89013,20.2009,9.52527,3356.27,4077.73,637.511,59.6708,30.8735,219.599,-979.405,-9383.26,-2573.53,-8.75219,-1.04897,43.7815,-5322.26,8040.29,-1283.33,-12.088,110.179,103.805,-517.404,-9242.79,-2000.68,0.98961,-109.867,57.8368,7609.5,1131.35,-911.913,72.9716,17.9791,74.129
5.168,1992.82,-1419.12,5698.88,9.52474,303.92,188.455,5155.19,2635.55,7800.56,5.83522,20.3597,9.82337,3313.45,4178.48,686.726,60.2904,30.3298,221.365,-1024.67,-9376.56,-2609.71,-8.56221,-0.25776,43.7785,-5359.65,7967.44,-1333.62,-11.9632,110.642,103.731,-633.88,-9229.35,-2080.23,0.950269,-107.575,57.8121,7601.19,1094.91,-930.699,72.756,18.8401,72.6113
5.169,2015.46,-1329.3,5755.43,8.05193,303.771,188.485,5164.06,2699.42,7801.34,5.77133,20.5309,10.1581,3267.2,4278.0,729.144,60.9201,29.7826,223.122,-1073.6,-9370.65,-2643.08,-8.36784,0.447923,43.7756,-5397.26,7896.56,-1380.86,-11.8866,111.088,103.684,-746.409,-9217.35,-2155.7,0.915197,-105.338,57.8199,7598.5,1059.07,-947.641,72.4857,19.7166,71.1267
5.17,2057.16,-1302.99,5799.6,6.24159,303.748,188.187,5159.98,2716.5,7820.0,5.63568,20.8021,10.7861,3193.38,4367.68,717.178,61.6316,29.2077,224.813,-1151.84,-9370.96,-2654.07,-8.13826,0.469348,43.7722,-5436.55,7841.31,-1403.64,-12.1963,111.389,103.848,-827.361,-9216.84,-2198.57,0.914266,-103.534,58.0865,7640.75,1028.0,-949.824,71.7779,20.7164,69.906
5.171,2098.86,-1276.68,5843.77,4.43124,303.725,187.889,5155.89,2733.57,7838.67,5.50002,21.0732,11.4141,3119.56,4457.36,705.213,62.3431,28.6328,226.505,-1230.08,-9371.28,-2665.07,-7.90868,0.490772,43.7688,-5475.84,7786.07,-1426.42,-12.506,111.69,104.011,-908.313,-9216.34,-2241.43,0.913335,-101.731,58.3532,7683.0,996.938,-952.008,71.0701,21.7162,68.6853
5.172,2140.56,-1250.38,5887.94,2.62089,303.703,187.592,5151.8,2750.65,7857.33,5.36436,21.3443,12.0421,3045.74,4547.04,693.247,63.0546,28.0579,228.196,-1308.31,-9371.6,-2676.06,-7.6791,0.512197,43.7654,-5515.13,7730.83,-1449.21,-12.8157,111.991,104.175,-989.265,-9215.83,-2284.3,0.912404,-99.9277,58.6198,7725.25,965.873,-954.191,70.3623,22.7161,67.4646
5.173,2182.26,-1224.07,5932.1,0.810542,303.68,187.294,5147.71,2767.73,7875.99,5.22871,21.6154,12.6701,2971.92,4636.73,681.281,63.7661,27.483,229.887,-1386.55,-9371.91,-2687.05,-7.44952,0.533622,43.762,-5554.41,7675.59,-1471.99,-13.1254,112.292,104.339,-1070.22,-9215.33,-2327.16,0.911473,-98.1244,58.8865,7767.5,934.808,-956.374,69.6546,23.7159,66.2439
5.174,2257.46,-1231.3,5973.9,-0.97196,303.928,186.941,5122.88,2775.62,7884.43,5.06885,21.812,13.2012,2913.57,4746.43,655.054,64.5407,26.9338,231.631,-1485.7,-9386.91,-2692.08,-7.22255,-0.00535279,43.718,-5577.93,7610.86,-1493.1,-13.4412,112.498,104.68,-1178.57,-9221.56,-2371.37,0.920771,-96.615,59.1957,7815.52,925.556,-946.76,68.817,24.4817,65.0878
5.175,2349.4,-1255.31,6014.52,-2.74054,304.311,186.561,5087.68,2778.91,7887.75,4.89689,21.9714,13.6838,2862.95,4866.13,621.696,65.3468,26.3974,233.401,-1595.31,-9409.25,-2694.13,-6.99687,-0.824527,43.6538,-5593.57,7541.39,-1513.37,-13.76,112.657,105.11,-1300.63,-9231.15,-2416.24,0.935185,-95.2524,59.5262,7866.41,927.21,-931.247,67.9145,25.1304,63.964
5.176,2441.34,-1279.31,6055.14,-4.50912,304.694,186.181,5052.48,2782.21,7891.07,4.72493,22.1307,14.1665,2812.33,4985.84,588.338,66.1529,25.8611,235.171,-1704.92,-9431.58,-2696.18,-6.77119,-1.6437,43.5895,-5609.2,7471.92,-1533.64,-14.0789,112.815,105.54,-1422.69,-9240.74,-2461.11,0.949598,-93.8898,59.8568,7917.31,928.865,-915.735,67.0121,25.7791,62.8401
5.177,2533.28,-1303.32,6095.76,-6.2777,305.078,185.801,5017.28,2785.51,7894.39,4.55298,22.2901,14.6491,2761.71,5105.55,554.98,66.959,25.3247,236.941,-1814.53,-9453.92,-2698.23,-6.54551,-2.46288,43.5252,-5624.84,7402.45,-1553.91,-14.3977,112.974,105.969,-1544.75,-9250.33,-2505.99,0.964011,-92.5272,60.1873,7968.21,930.52,-900.222,66.1096,26.4278,61.7163
5.178,2638.05,-1338.92,6128.05,-7.99164,305.61,185.4,4981.32,2791.4,7900.86,4.36168,22.4593,15.1349,2712.78,5221.81,530.588,67.8031,24.77,238.767,-1923.5,-9470.52,-2701.33,-6.28406,-3.39479,43.4462,-5641.33,7334.53,-1570.24,-14.6748,113.01,106.4,-1643.76,-9264.87,-2542.22,1.05237,-91.2443,60.5841,8012.71,931.734,-886.388,65.1615,27.0183,60.6615
5.179,2787.7,-1415.12,6131.19,-9.51435,306.665,184.926,4942.7,2806.37,7918.37,4.1027,22.6629,15.6318,2669.78,5325.99,537.581,68.7806,24.1512,240.786,-2030.23,-9467.03,-2708.15,-5.89737,-4.7213,43.3153,-5660.81,7272.03,-1572.74,-14.8059,112.62,106.832,-1662.1,-9296.68,-2548.2,1.39955,-90.2399,61.2128,8034.81,931.409,-878.432,64.0535,27.4049,59.8487
5.18,2937.34,-1491.32,6134.33,-11.0371,307.719,184.451,4904.07,2821.34,7935.88,3.84372,22.8665,16.1287,2626.77,5430.17,544.575,69.7581,23.5323,242.806,-2136.96,-9463.53,-2714.96,-5.51069,-6.04781,43.1844,-5680.29,7209.53,-1575.24,-14.937,112.231,107.264,-1680.44,-9328.49,-2554.18,1.74672,-89.2356,61.8414,8056.92,931.083,-870.475,62.9456,27.7915,59.0358
5.181,3086.99,-1567.51,6137.47,-12.5598,308.774,183.976,4865.44,2836.32,7953.4,3.58474,23.0701,16.6256,2583.76,5534.35,551.568,70.7356,22.9135,244.825,-2243.69,-9460.04,-2721.77,-5.124,-7.37432,43.0535,-5699.77,7147.02,-1577.75,-15.0681,111.841,107.697,-1698.79,-9360.3,-2560.16,2.0939,-88.2313,62.4701,8079.02,930.758,-862.519,61.8377,28.1781,58.2229
5.182,3236.63,-1643.71,6140.61,-14.0825,309.828,183.501,4826.82,2851.29,7970.91,3.32576,23.2737,17.1225,2540.75,5638.53,558.561,71.7131,22.2946,246.845,-2350.41,-9456.55,-2728.58,-4.73732,-8.70084,42.9226,-5719.25,7084.52,-1580.25,-15.1993,111.451,108.129,-1717.13,-9392.12,-2566.14,2.44107,-87.227,63.0988,8101.13,930.432,-854.563,60.7297,28.5647,57.41
5.183,3385.25,-1714.14,6197.45,-15.3473,310.996,182.834,4819.27,2868.14,7960.39,3.09719,23.4912,17.7023,2483.92,5711.03,550.116,72.7856,21.3136,248.859,-2400.44,-9471.75,-2694.65,-4.0191,-10.3807,42.7583,-5711.51,7046.22,-1571.54,-15.198,110.647,108.516,-1722.79,-9418.36,-2549.66,2.80243,-86.6214,63.7383,8126.24,878.242,-849.234,60.4775,28.7397,56.3541
5.184,3533.56,-1782.92,6269.63,-16.5384,312.195,182.113,4820.62,2885.52,7941.86,2.87731,23.7127,18.3057,2423.13,5774.49,537.26,73.8852,20.2291,250.872,-2434.26,-9492.29,-2649.08,-3.20616,-12.1615,42.5845,-5695.99,7014.82,-1559.63,-15.159,109.724,108.89,-1724.83,-9443.0,-2526.77,3.16785,-86.1297,64.3811,8152.22,811.233,-844.657,60.4699,28.8542,55.2288
5.185,3681.88,-1851.7,6341.81,-17.7294,313.394,181.391,4821.96,2902.9,7923.32,2.65742,23.9342,18.9092,2362.34,5837.95,524.404,74.9849,19.1446,252.886,-2468.08,-9512.83,-2603.51,-2.39322,-13.9424,42.4107,-5680.47,6983.43,-1547.72,-15.1199,108.801,109.263,-1726.86,-9467.65,-2503.87,3.53327,-85.6381,65.0238,8178.2,744.225,-840.079,60.4622,28.9687,54.1036
5.186,3830.19,-1920.48,6413.99,-18.9205,314.594,180.669,4823.3,2920.29,7904.79,2.43753,24.1558,19.5126,2301.55,5901.42,511.548,76.0845,18.0601,254.899,-2501.91,-9533.36,-2557.93,-1.58028,-15.7232,42.2369,-5664.95,6952.03,-1535.81,-15.0808,107.878,109.637,-1728.9,-9492.29,-2480.97,3.89869,-85.1464,65.6665,8204.18,677.216,-835.502,60.4545,29.0833,52.9783
5.187,3958.76,-1975.3,6488.87,-20.1019,315.743,179.963,4829.86,2938.57,7898.75,2.20253,24.3427,20.0996,2240.5,5962.96,491.733,77.0393,16.9387,256.912,-2517.2,-9561.68,-2520.96,-0.772853,-17.5184,42.042,-5666.89,6931.3,-1529.05,-14.972,106.79,110.048,-1720.52,-9522.17,-2455.75,4.31509,-84.6516,66.239,8241.11,631.33,-837.635,60.3778,29.287,51.8434
5.188,4047.82,-2002.2,6569.16,-21.2639,316.792,179.288,4846.87,2958.67,7917.67,1.93728,24.4606,20.6535,2178.94,6020.67,458.0,77.7042,15.7434,258.923,-2495.45,-9605.54,-2501.19,0.0235426,-19.3422,41.8048,-5703.77,6931.88,-1532.58,-14.7236,105.371,110.531,-1691.33,-9562.49,-2425.87,4.83346,-84.1506,66.6711,8299.95,627.686,-853.188,60.1631,29.6692,50.6895
5.189,4136.87,-2029.09,6649.44,-22.4259,317.842,178.614,4863.87,2978.76,7936.6,1.67203,24.5785,21.2074,2117.38,6078.38,424.267,78.3692,14.5482,260.934,-2473.69,-9649.39,-2481.42,0.819939,-21.166,41.5676,-5740.64,6932.47,-1536.11,-14.4752,103.951,111.015,-1662.14,-9602.81,-2396.0,5.35183,-83.6496,67.1032,8358.78,624.043,-868.742,59.9484,30.0515,49.5355
5.19,4225.93,-2055.98,6729.73,-23.5879,318.891,177.939,4880.88,2998.85,7955.53,1.40679,24.6963,21.7613,2055.82,6136.09,390.534,79.0342,13.3529,262.946,-2451.93,-9693.25,-2461.65,1.61633,-22.9899,41.3304,-5777.52,6933.06,-1539.63,-14.2268,102.532,111.499,-1632.94,-9643.14,-2366.12,5.8702,-83.1486,67.5352,8417.62,620.4,-884.296,59.7337,30.4337,48.3816
5.191,4314.99,-2082.88,6810.01,-24.7499,319.94,177.264,4897.89,3018.95,7974.46,1.14154,24.8142,22.3152,1994.25,6193.8,356.802,79.6992,12.1576,264.957,-2430.18,-9737.11,-2441.88,2.41273,-24.8137,41.0931,-5814.39,6933.64,-1543.16,-13.9784,101.113,111.983,-1603.75,-9683.46,-2336.25,6.38856,-82.6475,67.9673,8476.45,616.756,-899.849,59.519,30.8159,47.2277
5.192,4376.1,-2096.45,6850.21,-25.8496,321.031,176.475,4895.1,2959.21,7982.2,0.917638,24.7377,22.712,1956.05,6268.31,342.424,80.1324,11.1158,266.972,-2402.93,-9746.11,-2461.45,2.86006,-26.0095,40.8051,-5839.1,6945.3,-1548.34,-13.4282,99.5279,112.385,-1570.45,-9716.33,-2330.0,6.80147,-82.3991,68.3875,8489.68,606.975,-915.246,58.9752,31.2525,46.1147
5.193,4433.73,-2108.35,6885.4,-26.9416,322.126,175.672,4889.84,2889.49,7988.54,0.698902,24.6369,23.0891,1920.77,6344.92,330.465,80.5367,10.0932,268.988,-2375.01,-9750.75,-2485.94,3.26376,-27.1267,40.5108,-5862.29,6958.33,-1553.73,-12.8404,97.922,112.776,-1536.64,-9748.27,-2326.7,7.2012,-82.1822,68.8063,8497.2,596.427,-930.623,58.3903,31.6958,45.0069
5.194,4491.35,-2120.25,6920.59,-28.0335,323.222,174.868,4884.58,2819.78,7994.88,0.480167,24.5361,23.4662,1885.48,6421.53,318.507,80.9409,9.07058,271.003,-2347.08,-9755.39,-2510.43,3.66746,-28.244,40.2165,-5885.49,6971.37,-1559.12,-12.2525,96.3161,113.167,-1502.82,-9780.21,-2323.41,7.60093,-81.9653,69.225,8504.73,585.878,-946.0,57.8054,32.1392,43.8991
5.195,4548.97,-2132.16,6955.78,-29.1255,324.317,174.064,4879.32,2750.06,8001.22,0.261431,24.4352,23.8433,1850.2,6498.14,306.549,81.3452,8.04796,273.018,-2319.15,-9760.03,-2534.92,4.07116,-29.3613,39.9221,-5908.68,6984.41,-1564.51,-11.6646,94.7102,113.558,-1469.01,-9812.16,-2320.11,8.00066,-81.7484,69.6437,8512.26,575.33,-961.378,57.2205,32.5825,42.7913
5.196,4620.98,-2147.45,7006.53,-30.1148,325.396,173.26,4854.43,2687.04,8013.5,0.0737163,24.3647,24.144,1847.72,6583.92,315.02,81.7256,6.92492,274.975,-2279.17,-9769.1,-2545.92,4.38698,-30.164,39.704,-5927.81,6993.83,-1561.25,-11.1811,93.1753,113.838,-1440.47,-9821.48,-2325.84,8.25137,-81.4078,69.9813,8510.94,570.032,-971.317,56.9429,33.0104,41.7254
5.197,4710.98,-2166.96,7076.73,-30.9758,326.452,172.455,4805.02,2632.39,8033.18,-0.0752219,24.332,24.3491,1886.25,6681.17,349.028,82.0761,5.67634,276.859,-2224.11,-9783.69,-2540.07,4.59296,-30.5735,39.5812,-5941.88,6998.75,-1547.18,-10.8281,91.7293,113.978,-1418.52,-9802.54,-2342.86,8.31582,-80.9127,70.2175,8498.58,571.297,-974.458,57.0495,33.4188,40.7116
5.198,4800.99,-2186.48,7146.93,-31.8368,327.509,171.649,4755.61,2577.74,8052.87,-0.22416,24.2992,24.5543,1924.78,6778.42,383.036,82.4267,4.42776,278.743,-2169.06,-9798.28,-2534.22,4.79894,-30.983,39.4583,-5955.95,7003.67,-1533.12,-10.475,90.2833,114.117,-1396.57,-9783.59,-2359.87,8.38027,-80.4176,70.4537,8486.21,572.562,-977.599,57.1561,33.8272,39.6979
5.199,4890.99,-2205.99,7217.13,-32.6978,328.566,170.844,4706.2,2523.08,8072.55,-0.373098,24.2665,24.7594,1963.31,6875.67,417.045,82.7772,3.17918,280.627,-2114.0,-9812.88,-2528.36,5.00492,-31.3925,39.3355,-5970.01,7008.59,-1519.05,-10.122,88.8373,114.257,-1374.62,-9764.65,-2376.88,8.44472,-79.9225,70.6899,8473.85,573.827,-980.741,57.2627,34.2356,38.6841
5.2,4980.99,-2225.51,7287.33,-33.5587,329.623,170.039,4656.79,2468.43,8092.24,-0.522037,24.2338,24.9646,2001.83,6972.92,451.053,83.1277,1.93061,282.511,-2058.95,-9827.47,-2522.51,5.2109,-31.802,39.2126,-5984.08,7013.5,-1504.99,-9.76891,87.3913,114.397,-1352.67,-9745.7,-2393.9,8.50917,-79.4274,70.9261,8461.49,575.092,-983.882,57.3693,34.6441,37.6704
5.201,5073.25,-2266.88,7310.27,-34.3741,330.666,169.522,4658.93,2431.64,8101.09,-0.589317,24.1487,25.2869,2014.26,7051.24,474.841,83.5606,0.779273,284.225,-1996.54,-9832.28,-2489.12,5.21263,-31.8711,39.1394,-5962.47,7040.74,-1525.1,-9.35092,86.5063,114.3,-1309.54,-9776.27,-2347.38,8.41039,-78.6936,71.148,8446.92,538.944,-962.225,56.851,35.1516,36.7822
5.202,5165.5,-2308.25,7333.21,-35.1895,331.709,169.006,4661.07,2394.85,8109.95,-0.656597,24.0637,25.6092,2026.69,7129.55,498.629,83.9935,-0.37206,285.939,-1934.12,-9837.08,-2455.74,5.21437,-31.9401,39.0661,-5940.87,7067.97,-1545.21,-8.93293,85.6213,114.203,-1266.41,-9806.85,-2300.85,8.31161,-77.9598,71.3698,8432.35,502.796,-940.568,56.3328,35.6591,35.8941
5.203,5257.75,-2349.62,7356.15,-36.0049,332.752,168.489,4663.22,2358.06,8118.8,-0.723877,23.9787,25.9315,2039.11,7207.86,522.417,84.4264,-1.52339,287.653,-1871.71,-9841.89,-2422.35,5.21611,-32.0091,38.9929,-5919.26,7095.21,-1565.32,-8.51495,84.7363,114.106,-1223.28,-9837.42,-2254.33,8.21284,-77.2261,71.5916,8417.78,466.648,-918.911,55.8145,36.1666,35.0059
5.204,5350.01,-2391.0,7379.09,-36.8203,333.795,167.972,4665.36,2321.27,8127.65,-0.791157,23.8937,26.2538,2051.54,7286.18,546.205,84.8593,-2.67473,289.367,-1809.29,-9846.69,-2388.97,5.21785,-32.0782,38.9197,-5897.66,7122.44,-1585.43,-8.09696,83.8513,114.009,-1180.15,-9867.99,-2207.81,8.11407,-76.4923,71.8134,8403.21,430.5,-897.255,55.2962,36.6742,34.1177
5.205,5447.94,-2431.68,7404.63,-37.5649,334.815,167.375,4673.47,2311.19,8163.4,-0.871784,23.7489,26.4696,2062.67,7352.96,560.957,85.2695,-3.70606,291.005,-1774.91,-9834.53,-2359.84,5.18733,-32.0434,38.8291,-5876.88,7147.46,-1604.75,-7.81162,83.335,113.74,-1135.76,-9885.14,-2166.61,7.88089,-75.4498,71.9719,8391.67,416.981,-871.732,54.7708,37.1028,33.2747
5.206,5550.42,-2471.82,7432.25,-38.2529,335.818,166.714,4686.36,2322.48,8220.67,-0.96309,23.5562,26.6002,2072.75,7410.51,568.48,85.6616,-4.64139,292.581,-1762.95,-9808.81,-2334.11,5.131,-31.9257,38.7247,-5856.77,7170.69,-1623.45,-7.63242,83.1137,113.333,-1090.36,-9891.56,-2129.67,7.54019,-74.1604,72.0797,8382.57,421.564,-843.118,54.2397,37.4684,32.4678
5.207,5652.91,-2511.96,7459.87,-38.9409,336.82,166.053,4699.25,2333.76,8277.93,-1.05439,23.3634,26.7307,2082.84,7468.06,576.003,86.0536,-5.57672,294.158,-1750.99,-9783.09,-2308.39,5.07467,-31.8079,38.6204,-5836.66,7193.92,-1642.14,-7.45321,82.8924,112.926,-1044.96,-9897.97,-2092.73,7.19949,-72.871,72.1875,8373.46,426.148,-814.503,53.7087,37.834,31.6609
5.208,5755.39,-2552.1,7487.5,-39.6288,337.823,165.392,4712.15,2345.04,8335.2,-1.1457,23.1707,26.8613,2092.93,7525.61,583.526,86.4457,-6.51205,295.734,-1739.03,-9757.36,-2282.66,5.01834,-31.6901,38.516,-5816.55,7217.15,-1660.84,-7.27401,82.6711,112.519,-999.559,-9904.38,-2055.79,6.8588,-71.5816,72.2954,8364.36,430.732,-785.888,53.1776,38.1996,30.8539
5.209,5855.95,-2590.03,7518.69,-40.3136,338.804,164.743,4725.26,2351.22,8386.39,-1.23494,22.9548,26.9773,2104.86,7587.39,594.524,86.8442,-7.47553,297.294,-1727.71,-9733.76,-2259.42,4.96946,-31.5245,38.427,-5798.4,7238.42,-1677.44,-7.11705,82.4746,112.08,-952.894,-9908.58,-2018.87,6.52756,-70.278,72.3898,8360.24,439.4,-758.246,52.6746,38.5349,30.0802
5.21,5941.21,-2610.25,7578.5,-40.9729,339.609,164.184,4740.2,2316.56,8388.95,-1.30767,22.5537,26.9775,2131.47,7682.93,633.315,87.2949,-8.6642,298.717,-1721.52,-9727.15,-2256.04,4.98015,-30.9753,38.4615,-5795.95,7244.01,-1677.27,-7.13812,82.4762,111.393,-896.105,-9895.05,-1982.16,6.27201,-68.861,72.3772,8396.05,480.75,-738.384,52.3967,38.6283,29.5723
5.211,6026.46,-2630.48,7638.31,-41.6321,340.414,163.625,4755.13,2281.9,8391.52,-1.3804,22.1526,26.9777,2158.08,7778.48,672.107,87.7455,-9.85287,300.139,-1715.33,-9720.54,-2252.66,4.99084,-30.4262,38.4961,-5793.5,7249.59,-1677.1,-7.15918,82.4777,110.705,-839.315,-9881.52,-1945.45,6.01646,-67.444,72.3646,8431.86,522.099,-718.522,52.1187,38.7217,29.0645
5.212,6111.71,-2650.7,7698.12,-42.2914,341.22,163.067,4770.07,2247.23,8394.08,-1.45313,21.7515,26.9779,2184.7,7874.03,710.899,88.1961,-11.0415,301.562,-1709.14,-9713.93,-2249.28,5.00153,-29.8771,38.5306,-5791.06,7255.17,-1676.93,-7.18024,82.4793,110.017,-782.526,-9867.99,-1908.74,5.76091,-66.027,72.352,8467.66,563.449,-698.66,51.8407,38.8152,28.5566
5.213,6196.97,-2670.93,7757.93,-42.9507,342.025,162.508,4785.0,2212.57,8396.65,-1.52586,21.3504,26.9781,2211.31,7969.58,749.69,88.6468,-12.2302,302.985,-1702.95,-9707.32,-2245.9,5.01222,-29.3279,38.5651,-5788.61,7260.76,-1676.76,-7.2013,82.4808,109.33,-725.737,-9854.46,-1872.02,5.50535,-64.61,72.3394,8503.47,604.798,-678.798,51.5628,38.9086,28.0487
5.214,6257.42,-2696.92,7795.79,-43.5677,342.648,161.98,4777.13,2182.34,8417.42,-1.60439,21.0526,26.9282,2218.84,8094.38,781.254,89.1574,-13.4897,304.26,-1676.13,-9711.42,-2236.5,5.00611,-28.5771,38.6193,-5788.0,7277.79,-1690.84,-7.28204,82.609,108.612,-711.969,-9871.29,-1813.98,5.39559,-62.945,72.4377,8514.87,632.312,-653.614,51.1277,39.0399,27.6809
5.215,6305.47,-2725.8,7822.68,-44.1635,343.181,161.468,4757.86,2154.34,8447.3,-1.68582,20.8065,26.8533,2216.83,8233.8,809.204,89.698,-14.7846,305.462,-1638.99,-9720.88,-2224.09,4.99159,-27.7254,38.6833,-5788.31,7300.55,-1712.04,-7.39262,82.8004,107.881,-719.712,-9903.32,-1745.26,5.35873,-61.156,72.5913,8514.08,652.908,-625.769,50.6141,39.1903,27.383
5.216,6353.52,-2754.67,7849.58,-44.7593,343.713,160.955,4738.59,2126.34,8477.18,-1.76725,20.5604,26.7785,2214.83,8373.22,837.154,90.2385,-16.0795,306.664,-1601.86,-9730.34,-2211.68,4.97707,-26.8736,38.7473,-5788.63,7323.31,-1733.24,-7.5032,82.9918,107.149,-727.455,-9935.34,-1676.55,5.32187,-59.367,72.745,8513.28,673.503,-597.924,50.1006,39.3406,27.0851
5.217,6401.58,-2783.54,7876.47,-45.3552,344.245,160.443,4719.32,2098.34,8507.06,-1.84867,20.3143,26.7036,2212.82,8512.64,865.104,90.7791,-17.3744,307.866,-1564.73,-9739.8,-2199.27,4.96255,-26.0219,38.8113,-5788.94,7346.08,-1754.43,-7.61379,83.1832,106.417,-735.198,-9967.36,-1607.84,5.285,-57.578,72.8987,8512.48,694.099,-570.08,49.587,39.491,26.7872
5.218,6445.33,-2810.1,7911.31,-45.9922,344.65,159.924,4714.06,2066.25,8523.2,-1.89761,20.0573,26.6214,2207.76,8645.0,874.047,91.2707,-18.7096,309.051,-1533.83,-9753.49,-2175.21,4.92046,-25.1958,38.9036,-5781.52,7363.3,-1769.92,-7.73721,83.457,105.67,-736.285,-9997.02,-1539.31,5.21941,-55.7621,73.0205,8510.46,711.536,-532.727,49.0672,39.5625,26.4659
5.219,6474.04,-2828.53,7973.97,-46.7733,344.608,159.381,4757.83,2019.87,8491.25,-1.83283,19.7618,26.5137,2192.02,8752.66,816.464,91.5909,-20.1861,310.175,-1524.75,-9781.98,-2110.41,4.78189,-24.4593,39.0949,-5747.07,7361.13,-1765.4,-7.90559,84.0194,104.87,-714.071,-10018.5,-1471.47,5.0533,-53.8518,73.0308,8504.16,717.914,-462.098,48.526,39.3583,26.0625
5.22,6502.75,-2846.96,8036.63,-47.5544,344.565,158.838,4801.61,1973.49,8459.3,-1.76805,19.4664,26.406,2176.29,8860.33,758.881,91.911,-21.6625,311.299,-1515.66,-9810.47,-2045.6,4.64331,-23.7227,39.2861,-5712.61,7358.96,-1760.89,-8.07397,84.5818,104.071,-691.857,-10039.9,-1403.63,4.88718,-51.9416,73.041,8497.86,724.292,-391.468,47.9848,39.1541,25.659
5.221,6531.46,-2865.39,8099.28,-48.3355,344.523,158.295,4845.39,1927.12,8427.35,-1.70326,19.171,26.2983,2160.55,8967.99,701.298,92.2312,-23.139,312.423,-1506.58,-9838.96,-1980.8,4.50473,-22.9862,39.4774,-5678.16,7356.8,-1756.37,-8.24234,85.1442,103.271,-669.644,-10061.3,-1335.79,4.72106,-50.0314,73.0513,8491.56,730.671,-320.838,47.4436,38.9499,25.2556
5.222,6560.17,-2883.82,8161.94,-49.1166,344.48,157.753,4889.17,1880.74,8395.41,-1.63848,18.8755,26.1906,2144.81,9075.65,643.715,92.5514,-24.6154,313.547,-1497.5,-9867.45,-1915.99,4.36615,-22.2497,39.6686,-5643.7,7354.63,-1751.86,-8.41072,85.7066,102.471,-647.43,-10082.8,-1267.94,4.55494,-48.1212,73.0615,8485.26,737.049,-250.209,46.9024,38.7457,24.8521
5.223,6583.66,-2892.16,8197.21,-49.9876,344.183,157.295,4871.9,1862.01,8393.48,-1.59817,18.4376,25.9451,2130.13,9212.27,632.942,92.663,-26.1456,314.466,-1535.32,-9889.08,-1869.74,4.13358,-21.4826,39.76,-5626.59,7342.93,-1705.07,-8.45466,86.3671,101.671,-654.285,-10065.7,-1235.26,4.32431,-46.3585,73.1644,8489.94,761.014,-231.095,46.6605,38.4641,24.412
5.224,6605.66,-2897.62,8224.64,-50.8843,343.813,156.862,4837.2,1851.18,8400.12,-1.56484,17.9589,25.6602,2115.74,9357.17,635.542,92.7151,-27.6912,315.327,-1586.55,-9908.75,-1828.78,3.87416,-20.7067,39.8228,-5614.43,7328.52,-1646.21,-8.46304,87.0555,100.871,-669.446,-10037.6,-1212.63,4.07524,-44.6379,73.2936,8497.77,790.003,-226.701,46.5042,38.1604,23.9614
5.225,6627.66,-2903.08,8252.08,-51.781,343.443,156.428,4802.49,1840.35,8406.76,-1.53152,17.4802,25.3754,2101.35,9502.06,638.143,92.7672,-29.2367,316.188,-1637.78,-9928.42,-1787.82,3.61474,-19.9309,39.8856,-5602.27,7314.1,-1587.34,-8.47143,87.744,100.07,-684.606,-10009.5,-1190.0,3.82617,-42.9173,73.4229,8505.59,818.993,-222.306,46.3479,37.8567,23.5108
5.226,6649.66,-2908.54,8279.52,-52.6777,343.073,155.995,4767.79,1829.52,8413.41,-1.4982,17.0015,25.0905,2086.97,9646.96,640.743,92.8193,-30.7822,317.049,-1689.0,-9948.08,-1746.87,3.35532,-19.155,39.9484,-5590.12,7299.68,-1528.48,-8.47981,88.4324,99.2698,-699.766,-9981.43,-1167.37,3.5771,-41.1968,73.5522,8513.41,847.983,-217.912,46.1915,37.553,23.0602
5.227,6690.59,-2925.73,8308.01,-53.6108,342.705,155.546,4758.37,1808.64,8423.79,-1.42491,16.5204,24.774,2070.49,9782.53,653.069,92.9057,-32.3663,317.856,-1743.79,-9967.3,-1702.84,3.10923,-18.3577,40.0244,-5579.97,7275.75,-1482.77,-8.55882,88.9758,98.5548,-717.844,-9958.82,-1147.51,3.35458,-39.4981,73.6164,8530.23,886.323,-220.141,45.936,37.199,22.6276
5.228,6769.38,-2966.38,8338.62,-54.6168,342.338,155.065,4799.51,1767.65,8441.65,-1.27172,16.0346,24.3941,2049.84,9899.44,684.846,93.0609,-34.0275,318.558,-1805.7,-9985.6,-1652.69,2.88977,-17.5175,40.1269,-5573.85,7232.79,-1463.37,-8.77905,89.2291,98.0107,-741.754,-9947.17,-1133.17,3.18516,-37.8432,73.5507,8565.05,943.367,-235.618,45.4821,36.7445,22.2312
5.229,6848.18,-3007.02,8369.23,-55.6227,341.971,154.584,4840.65,1726.66,8459.51,-1.11852,15.5487,24.0142,2029.19,10016.4,716.622,93.2161,-35.6887,319.26,-1867.62,-10003.9,-1602.54,2.67031,-16.6773,40.2295,-5567.72,7189.83,-1443.96,-8.99929,89.4823,97.4666,-765.665,-9935.51,-1118.83,3.01574,-36.1883,73.485,8599.87,1000.41,-251.096,45.0282,36.2899,21.8348
5.23,6926.98,-3047.67,8399.84,-56.6287,341.604,154.103,4881.8,1685.67,8477.37,-0.965324,15.0629,23.6343,2008.53,10133.3,748.399,93.3713,-37.3499,319.962,-1929.53,-10022.2,-1552.39,2.45085,-15.8371,40.332,-5561.6,7146.87,-1424.56,-9.21953,89.7356,96.9225,-789.576,-9923.85,-1104.5,2.84632,-34.5334,73.4193,8634.69,1057.45,-266.573,44.5743,35.8353,21.4383
5.231,7005.77,-3088.32,8430.45,-57.6347,341.237,153.622,4922.94,1644.68,8495.23,-0.812128,14.577,23.2545,1987.88,10250.2,780.176,93.5265,-39.011,320.664,-1991.44,-10040.5,-1502.24,2.2314,-14.9969,40.4346,-5555.48,7103.91,-1405.16,-9.43977,89.9888,96.3784,-813.486,-9912.19,-1090.16,2.6769,-32.8785,73.3536,8669.5,1114.5,-282.05,44.1204,35.3807,21.0419
5.232,7115.36,-3139.22,8482.01,-58.6467,340.713,153.037,4933.06,1581.09,8523.35,-0.793791,14.2387,22.8789,1952.77,10391.6,780.974,93.8334,-40.5031,321.253,-2031.03,-10049.7,-1484.63,2.06226,-14.2164,40.548,-5584.51,7085.66,-1406.6,-9.67387,89.1305,95.7925,-835.319,-9927.13,-1089.69,2.4539,-31.5964,73.2011,8661.84,1156.74,-245.52,43.3265,34.9012,20.8478
5.233,7228.79,-3191.4,8536.19,-59.6596,340.169,152.44,4939.3,1514.68,8552.75,-0.792312,13.9188,22.504,1915.85,10536.1,777.901,94.1592,-41.9741,321.828,-2067.83,-10057.7,-1471.09,1.89942,-13.4434,40.6629,-5617.94,7070.5,-1410.65,-9.9097,88.1332,95.2015,-856.893,-9945.4,-1090.96,2.22419,-30.3609,73.0378,8648.87,1197.13,-202.489,42.4901,34.4186,20.679
5.234,7342.23,-3243.57,8590.36,-60.6724,339.625,151.842,4945.54,1448.28,8582.16,-0.790833,13.5989,22.129,1878.93,10680.6,774.828,94.4851,-43.4451,322.404,-2104.63,-10065.7,-1457.55,1.73657,-12.6704,40.7777,-5651.37,7055.34,-1414.7,-10.1455,87.136,94.6104,-878.466,-9963.66,-1092.23,1.99449,-29.1254,72.8744,8635.9,1237.51,-159.458,41.6537,33.9359,20.5102
5.235,7455.67,-3295.75,8644.54,-61.6853,339.081,151.245,4951.79,1381.87,8611.56,-0.789354,13.279,21.754,1842.01,10825.1,771.755,94.8109,-44.9161,322.979,-2141.43,-10073.7,-1444.01,1.57373,-11.8974,40.8926,-5684.8,7040.18,-1418.75,-10.3814,86.1387,94.0194,-900.039,-9981.93,-1093.49,1.76478,-27.8899,72.711,8622.92,1277.9,-116.426,40.8173,33.4533,20.3414
5.236,7590.53,-3348.28,8705.62,-62.5579,338.432,150.686,4944.19,1346.65,8621.8,-0.754923,12.8409,21.3909,1810.9,10963.2,768.886,95.263,-46.225,323.553,-2149.64,-10083.1,-1434.83,1.43236,-11.1513,40.9718,-5727.17,7019.87,-1439.8,-10.6603,84.3911,93.5054,-933.178,-9986.71,-1096.64,1.62581,-26.7557,72.6683,8599.15,1300.72,-65.7973,40.0948,32.8546,20.1798
5.237,7752.19,-3401.26,8775.31,-63.2552,337.651,150.175,4919.28,1350.41,8608.09,-0.679302,12.2552,21.0427,1787.06,11093.3,766.274,95.8729,-47.3313,324.125,-2122.09,-10094.3,-1431.09,1.31782,-10.4387,41.0064,-5780.7,6993.12,-1482.09,-10.9932,81.7054,93.0878,-980.774,-9974.62,-1102.12,1.60024,-25.7481,72.7765,8561.89,1301.58,-5.67082,39.5147,32.1109,20.0273
5.238,7913.85,-3454.24,8845.01,-63.9525,336.871,149.665,4894.37,1354.18,8594.38,-0.603682,11.6694,20.6944,1763.21,11223.4,763.662,96.4828,-48.4377,324.697,-2094.54,-10105.5,-1427.36,1.20328,-9.72614,41.0411,-5834.24,6966.38,-1524.37,-11.3262,79.0198,92.6701,-1028.37,-9962.54,-1107.61,1.57468,-24.7404,72.8847,8524.62,1302.43,54.4557,38.9346,31.3672,19.8747
5.239,8075.51,-3507.22,8914.7,-64.6498,336.09,149.154,4869.47,1357.95,8580.67,-0.528061,11.0837,20.3462,1739.37,11353.5,761.05,97.0926,-49.544,325.269,-2067.0,-10116.6,-1423.62,1.08874,-9.01359,41.0757,-5887.77,6939.64,-1566.66,-11.6591,76.3342,92.2525,-1075.97,-9950.45,-1113.1,1.54912,-23.7328,72.9928,8487.35,1303.29,114.582,38.3545,30.6236,19.7221
5.24,8237.17,-3560.2,8984.4,-65.3471,335.31,148.643,4844.56,1361.72,8566.96,-0.45244,10.4979,19.9979,1715.52,11483.7,758.438,97.7025,-50.6504,325.841,-2039.45,-10127.8,-1419.89,0.974202,-8.30103,41.1103,-5941.31,6912.89,-1608.95,-11.992,73.6486,91.8348,-1123.56,-9938.37,-1118.59,1.52355,-22.7252,73.101,8450.09,1304.15,174.709,37.7744,29.8799,19.5695
5.241,8398.73,-3665.76,9061.77,-65.9883,334.196,148.577,4859.9,1398.82,8580.95,-0.382269,9.97903,19.626,1715.5,11644.9,798.734,98.3183,-51.6121,326.477,-2047.04,-10126.5,-1441.06,0.713796,-7.67189,41.1954,-6040.6,6879.79,-1647.54,-12.4291,69.067,91.5626,-1168.57,-9937.86,-1097.19,1.69848,-22.1631,73.1672,8477.12,1330.33,208.752,37.3406,28.6273,19.068
5.242,8560.29,-3771.32,9139.14,-66.6296,333.083,148.51,4875.24,1435.92,8594.94,-0.312098,9.46014,19.2541,1715.48,11806.1,839.031,98.9342,-52.5739,327.113,-2054.63,-10125.1,-1462.23,0.453391,-7.04276,41.2804,-6139.88,6846.68,-1686.12,-12.8662,64.4854,91.2903,-1213.58,-9937.34,-1075.79,1.8734,-21.6011,73.2334,8504.15,1356.52,242.795,36.9069,27.3747,18.5666
5.243,8721.86,-3876.88,9216.51,-67.2708,331.97,148.443,4890.59,1473.02,8608.92,-0.241926,8.94125,18.8822,1715.45,11967.3,879.327,99.55,-53.5357,327.75,-2062.22,-10123.8,-1483.4,0.192985,-6.41363,41.3655,-6239.17,6813.57,-1724.71,-13.3033,59.9038,91.0181,-1258.58,-9936.83,-1054.39,2.04832,-21.0391,73.2996,8531.18,1382.7,276.838,36.4732,26.1221,18.0651
5.244,8883.42,-3982.44,9293.88,-67.9121,330.857,148.376,4905.93,1510.12,8622.91,-0.171755,8.42236,18.5103,1715.43,12128.6,919.623,100.166,-54.4975,328.386,-2069.81,-10122.4,-1504.57,-0.0674207,-5.7845,41.4505,-6338.46,6780.46,-1763.3,-13.7404,55.3223,90.7459,-1303.59,-9936.32,-1032.99,2.22325,-20.477,73.3658,8558.21,1408.89,310.881,36.0395,24.8695,17.5637
5.245,9044.03,-4094.33,9309.32,-68.0404,329.673,148.184,4902.59,1519.41,8654.07,-0.138252,7.8638,18.0868,1719.49,12284.8,961.714,100.723,-55.428,328.939,-2087.85,-10108.9,-1520.48,-0.211538,-5.30933,41.4985,-6436.06,6762.99,-1792.65,-14.4077,50.0124,90.3916,-1373.39,-9935.12,-1022.23,2.45843,-20.0363,73.5111,8588.75,1427.28,341.103,35.6304,23.4546,16.9363
5.246,9203.86,-4211.28,9275.2,-67.7584,328.433,147.892,4884.3,1506.45,8698.95,-0.134083,7.27349,17.6219,1726.81,12437.0,1005.24,101.234,-56.3335,329.424,-2114.24,-10085.7,-1532.18,-0.262625,-4.95733,41.5167,-6532.3,6758.01,-1814.61,-15.2592,44.1199,89.9718,-1463.01,-9933.37,-1019.98,2.74183,-19.6928,73.7196,8622.11,1439.43,368.269,35.2411,21.9098,16.2081
5.247,9363.69,-4328.24,9241.09,-67.4765,327.192,147.599,4866.02,1493.49,8743.83,-0.129914,6.68318,17.157,1734.13,12589.2,1048.77,101.744,-57.239,329.909,-2140.64,-10062.5,-1543.88,-0.313712,-4.60532,41.5349,-6628.55,6753.04,-1836.56,-16.1107,38.2274,89.5519,-1552.64,-9931.62,-1017.72,3.02523,-19.3492,73.9281,8655.47,1451.58,395.434,34.8518,20.365,15.4799
5.248,9523.52,-4445.2,9206.97,-67.1945,325.952,147.306,4847.73,1480.53,8788.72,-0.125746,6.09286,16.6921,1741.45,12741.4,1092.3,102.255,-58.1445,330.394,-2167.04,-10039.2,-1555.58,-0.364799,-4.25332,41.5531,-6724.79,6748.07,-1858.52,-16.9622,32.3348,89.1321,-1642.26,-9929.87,-1015.47,3.30863,-19.0056,74.1366,8688.83,1463.73,422.599,34.4625,18.8202,14.7517
5.249,9680.5,-4563.53,9179.97,-66.7918,324.635,147.048,4832.27,1470.41,8827.51,-0.114748,5.49762,16.2368,1753.44,12894.0,1129.44,102.791,-58.9667,330.811,-2194.25,-10019.0,-1570.11,-0.411484,-3.93821,41.5654,-6821.61,6741.48,-1876.43,-17.8663,26.3937,88.7449,-1730.64,-9927.95,-1013.13,3.57428,-18.7079,74.3708,8720.87,1476.66,448.561,34.0838,17.2541,14.0162
5.25,9814.63,-4692.84,9209.88,-65.4228,322.713,147.068,4839.44,1482.95,8817.57,-0.0491193,4.86293,15.858,1802.88,13050.2,1115.56,103.539,-59.1225,330.675,-2227.92,-10022.3,-1607.24,-0.422958,-3.91817,41.53,-6923.02,6721.9,-1861.91,-19.1911,20.0637,88.6192,-1809.06,-9924.61,-1010.11,3.69797,-18.7769,74.8113,8742.35,1495.76,464.893,33.7898,15.5169,13.2224
5.251,9948.77,-4822.16,9239.79,-64.0537,320.791,147.088,4846.61,1495.49,8807.64,0.0165093,4.22824,15.4792,1852.31,13206.3,1101.68,104.287,-59.2782,330.539,-2261.58,-10025.6,-1644.37,-0.434431,-3.89813,41.4946,-7024.42,6702.31,-1847.38,-20.5159,13.7337,88.4935,-1887.47,-9921.27,-1007.09,3.82166,-18.8459,75.2519,8763.84,1514.87,481.225,33.4958,13.7797,12.4285
5.252,10082.9,-4951.47,9269.69,-62.6847,318.868,147.107,4853.78,1508.04,8797.71,0.082138,3.59355,15.1003,1901.75,13362.5,1087.79,105.035,-59.434,330.403,-2295.25,-10028.9,-1681.51,-0.445905,-3.87809,41.4592,-7125.83,6682.73,-1832.86,-21.8408,7.40364,88.3677,-1965.89,-9917.93,-1004.07,3.94535,-18.9149,75.6924,8785.32,1533.98,497.557,33.2019,12.0425,11.6347
5.253,10217.0,-5080.79,9299.6,-61.3157,316.946,147.127,4860.94,1520.58,8787.77,0.147767,2.95886,14.7215,1951.18,13518.6,1073.91,105.782,-59.5897,330.267,-2328.92,-10032.3,-1718.64,-0.457378,-3.85805,41.4238,-7227.24,6663.15,-1818.33,-23.1656,1.07362,88.242,-2044.3,-9914.59,-1001.05,4.06904,-18.984,76.1329,8806.81,1553.09,513.889,32.9079,10.3053,10.8409
5.254,10326.2,-5141.09,9295.56,-59.604,314.163,147.232,4860.81,1564.66,8783.39,0.0304211,2.28743,14.4255,1934.84,13683.3,1060.11,106.583,-59.1836,330.092,-2369.48,-10048.5,-1734.39,-0.62615,-4.0423,41.4132,-7291.81,6630.12,-1742.84,-24.4271,-5.26933,88.1744,-2108.14,-9942.53,-995.883,4.28089,-19.3412,76.4761,8803.12,1566.0,542.591,32.6512,8.46408,10.0986
5.255,10422.9,-5166.88,9274.56,-57.7209,310.951,147.379,4857.04,1624.5,8781.78,-0.178412,1.59762,14.1708,1885.6,13852.2,1046.35,107.411,-58.4965,329.898,-2413.5,-10071.1,-1739.46,-0.873572,-4.3287,41.4151,-7337.97,6590.37,-1636.86,-25.657,-11.6188,88.1358,-2164.7,-9986.12,-989.649,4.53681,-19.8424,76.7706,8786.84,1575.82,577.479,32.4131,6.57087,9.38208
5.256,10519.5,-5192.67,9253.55,-55.8378,307.739,147.526,4853.26,1684.34,8780.17,-0.387244,0.907806,13.9162,1836.37,14021.1,1032.59,108.238,-57.8094,329.704,-2457.51,-10093.8,-1744.53,-1.12099,-4.6151,41.417,-7384.12,6550.62,-1530.88,-26.8868,-17.9682,88.0972,-2221.26,-10029.7,-983.414,4.79273,-20.3437,77.0651,8770.57,1585.64,612.367,32.175,4.67765,8.66558
5.257,10616.2,-5218.46,9232.54,-53.9548,304.527,147.673,4849.48,1744.18,8778.56,-0.596077,0.217997,13.6616,1787.14,14190.0,1018.83,109.065,-57.1223,329.51,-2501.52,-10116.5,-1749.6,-1.36842,-4.9015,41.4189,-7430.27,6510.86,-1424.9,-28.1166,-24.3176,88.0586,-2277.82,-10073.3,-977.179,5.04865,-20.845,77.3596,8754.29,1595.47,647.254,31.9369,2.78443,7.94908
5.258,10702.9,-5228.64,9200.0,-51.8191,301.131,147.749,4845.11,1799.59,8778.94,-0.77508,-0.445638,13.4526,1747.02,14366.2,1020.43,109.819,-56.3995,329.268,-2548.36,-10139.9,-1762.47,-1.56934,-5.23453,41.4034,-7465.83,6472.4,-1320.33,-29.1022,-30.6773,88.0855,-2334.31,-10119.5,-967.767,5.30393,-21.4467,77.6764,8738.76,1604.73,675.108,31.6423,0.853064,7.27804
5.259,10754.8,-5184.23,9127.06,-48.7993,297.095,147.573,4838.67,1839.51,8786.23,-0.849679,-1.01766,13.4038,1738.83,14567.5,1075.84,110.317,-55.5516,328.859,-2605.1,-10166.0,-1802.64,-1.60755,-5.7308,41.3275,-7464.28,6438.45,-1220.64,-29.233,-37.0729,88.3412,-2390.55,-10174.7,-947.232,5.55695,-22.4,78.0709,8725.83,1612.05,678.343,31.1503,-1.21184,6.7661
5.26,10806.8,-5139.82,9054.12,-45.7796,293.059,147.397,4832.23,1879.43,8793.53,-0.924278,-1.58968,13.3549,1730.63,14768.9,1131.24,110.815,-54.7037,328.45,-2661.84,-10192.2,-1842.82,-1.64575,-6.22707,41.2515,-7462.73,6404.5,-1120.96,-29.3638,-43.4685,88.5969,-2446.79,-10229.9,-926.698,5.80997,-23.3532,78.4654,8712.89,1619.36,681.579,30.6583,-3.27675,6.25416
5.261,10858.7,-5095.41,8981.18,-42.7598,289.023,147.222,4825.79,1919.34,8800.83,-0.998877,-2.16171,13.306,1722.43,14970.3,1186.64,111.313,-53.8558,328.041,-2718.59,-10218.4,-1882.99,-1.68395,-6.72334,41.1756,-7461.19,6370.54,-1021.28,-29.4947,-49.8641,88.8527,-2503.03,-10285.1,-906.164,6.06299,-24.3064,78.86,8699.96,1626.68,684.814,30.1663,-5.34166,5.74222
5.262,10910.7,-5051.0,8908.25,-39.7401,284.987,147.046,4819.35,1959.26,8808.13,-1.07348,-2.73373,13.2572,1714.24,15171.7,1242.04,111.811,-53.0079,327.632,-2775.33,-10244.5,-1923.16,-1.72216,-7.21961,41.0996,-7459.64,6336.59,-921.598,-29.6255,-56.2597,89.1084,-2559.27,-10340.4,-885.629,6.31601,-25.2597,79.2545,8687.03,1633.99,688.049,29.6744,-7.40657,5.23028
5.263,11036.5,-5035.18,8786.02,-36.4178,280.889,146.697,4793.11,1983.75,8818.95,-1.06008,-3.39663,13.2769,1662.62,15393.9,1249.95,112.504,-51.5552,327.275,-2770.82,-10282.8,-1960.31,-1.82533,-7.89607,41.0782,-7370.89,6274.67,-858.178,-28.2491,-62.3549,89.5275,-2597.18,-10374.1,-893.33,6.59578,-26.2993,79.5524,8686.73,1635.84,644.333,29.3466,-9.28473,4.74672
5.264,11183.5,-5027.52,8649.72,-33.0092,276.773,146.298,4761.23,2003.83,8830.79,-1.02153,-4.08549,13.3162,1598.6,15622.0,1244.3,113.252,-49.9297,326.933,-2748.81,-10324.5,-1996.59,-1.94707,-8.62402,41.0723,-7257.23,6204.75,-805.118,-26.442,-68.3642,89.9932,-2629.85,-10401.7,-909.097,6.8832,-27.3637,79.8228,8690.04,1636.13,587.203,29.0658,-11.1095,4.27125
5.265,11330.5,-5019.85,8513.41,-29.6005,272.658,145.9,4729.34,2023.92,8842.62,-0.982989,-4.77435,13.3555,1534.57,15850.1,1238.64,114.0,-48.3043,326.591,-2726.8,-10366.3,-2032.87,-2.0688,-9.35197,41.0664,-7143.58,6134.84,-752.059,-24.6349,-74.3736,90.459,-2662.53,-10429.3,-924.864,7.17062,-28.428,80.0931,8693.36,1636.41,530.072,28.7851,-12.9343,3.79579
5.266,11477.4,-5012.19,8377.11,-26.1918,268.542,145.501,4697.45,2044.0,8854.45,-0.944446,-5.46321,13.3948,1470.55,16078.3,1232.98,114.748,-46.6788,326.249,-2704.78,-10408.0,-2069.16,-2.19054,-10.0799,41.0606,-7029.92,6064.93,-698.999,-22.8278,-80.3829,90.9247,-2695.2,-10456.9,-940.632,7.45803,-29.4924,80.3634,8696.67,1636.7,472.942,28.5043,-14.7591,3.32033
5.267,11685.6,-4991.42,8254.79,-22.9236,264.77,145.038,4681.32,2058.58,8863.84,-0.95472,-6.13055,13.394,1347.49,16298.1,1252.05,115.273,-44.9626,325.731,-2685.87,-10431.1,-2103.41,-2.29553,-10.8337,41.0652,-6905.15,5995.7,-640.91,-20.5588,-85.8875,91.2477,-2711.49,-10480.0,-965.372,7.73774,-30.5992,80.559,8701.03,1631.17,380.143,28.5032,-16.2939,2.91013
5.268,12016.4,-4944.44,8160.47,-19.936,261.686,144.445,4696.7,2062.14,8868.33,-1.06263,-6.75484,13.3133,1106.35,16501.2,1320.55,115.351,-43.065,324.86,-2673.15,-10416.9,-2133.6,-2.36702,-11.6393,41.091,-6758.15,5927.86,-572.76,-17.366,-90.3828,91.2853,-2695.01,-10494.3,-1008.06,8.00204,-31.7911,80.6052,8707.47,1614.03,216.006,29.0613,-17.2486,2.63045
5.269,12347.2,-4897.46,8066.15,-16.9485,258.601,143.853,4712.08,2065.7,8872.81,-1.17054,-7.37914,13.2326,865.21,16704.3,1389.06,115.43,-41.1674,323.989,-2660.42,-10402.8,-2163.79,-2.4385,-12.4449,41.1168,-6611.16,5860.02,-504.611,-14.1732,-94.8782,91.3229,-2678.53,-10508.6,-1050.74,8.26633,-32.983,80.6515,8713.9,1596.88,51.8693,29.6195,-18.2032,2.35077
5.27,12678.0,-4850.47,7971.83,-13.9609,255.516,143.26,4727.46,2069.27,8877.3,-1.27845,-8.00344,13.1518,624.072,16907.3,1457.56,115.509,-39.2698,323.118,-2647.7,-10388.6,-2193.98,-2.50999,-13.2504,41.1426,-6464.17,5792.18,-436.461,-10.9804,-99.3735,91.3605,-2662.05,-10522.9,-1093.43,8.53062,-34.1749,80.6977,8720.34,1579.74,-112.267,30.1776,-19.1579,2.07109
5.271,13008.7,-4803.49,7877.51,-10.9734,252.431,142.668,4742.85,2072.83,8881.79,-1.38636,-8.62773,13.0711,382.934,17110.4,1526.07,115.588,-37.3721,322.247,-2634.98,-10374.4,-2224.17,-2.58148,-14.056,41.1684,-6317.17,5724.34,-368.312,-7.78756,-103.869,91.3981,-2645.57,-10537.1,-1136.11,8.79491,-35.3667,80.7439,8726.78,1562.59,-276.404,30.7358,-20.1126,1.79141
5.272,13441.4,-4774.98,7784.34,-7.06247,249.096,142.214,4707.43,2086.64,8867.04,-1.38719,-9.17781,13.1222,77.0866,17279.0,1531.29,115.616,-34.8299,321.03,-2630.09,-10399.2,-2261.47,-2.56414,-14.5672,41.3034,-6140.82,5695.29,-386.147,-3.93913,-106.579,91.0077,-2603.61,-10569.0,-1171.31,9.08853,-36.4338,80.7901,8717.21,1545.05,-477.963,31.7932,-20.1347,1.65234
5.273,13886.8,-4748.79,7691.31,-3.03611,245.729,141.778,4665.67,2101.72,8849.88,-1.37464,-9.71861,13.1899,-236.849,17443.2,1528.59,115.637,-32.2072,319.77,-2626.19,-10428.9,-2299.66,-2.53568,-15.0415,41.4521,-5960.81,5671.09,-414.729,-0.00875568,-109.065,90.5639,-2558.46,-10603.1,-1205.58,9.38581,-37.4853,80.8363,8705.65,1527.47,-684.199,32.9131,-20.0403,1.53086
5.274,14332.2,-4722.6,7598.28,0.990252,242.362,141.342,4623.91,2116.81,8832.72,-1.36209,-10.2594,13.2575,-550.785,17607.4,1525.89,115.659,-29.5844,318.51,-2622.28,-10458.5,-2337.85,-2.50723,-15.5158,41.6008,-5780.79,5646.89,-443.312,3.92162,-111.552,90.12,-2513.31,-10637.2,-1239.84,9.6831,-38.5368,80.8824,8694.09,1509.88,-890.436,34.0329,-19.9458,1.40938
5.275,14777.6,-4696.41,7505.25,5.01661,238.996,140.905,4582.15,2131.89,8815.57,-1.34954,-10.8002,13.3252,-864.721,17771.6,1523.2,115.68,-26.9616,317.25,-2618.38,-10488.1,-2376.05,-2.47878,-15.9902,41.7495,-5600.78,5622.69,-471.895,7.852,-114.039,89.6761,-2468.16,-10671.3,-1274.1,9.98038,-39.5883,80.9286,8682.52,1492.29,-1096.67,35.1527,-19.8514,1.28789
5.276,15251.2,-4658.57,7402.78,8.88023,235.696,140.315,4575.73,2152.2,8818.04,-1.31822,-11.3836,13.4665,-1198.7,17937.5,1529.73,115.772,-23.9262,315.968,-2597.53,-10508.4,-2401.94,-2.49915,-16.5172,41.9945,-5377.72,5609.29,-554.463,11.6589,-115.414,89.0988,-2407.36,-10695.6,-1299.03,10.2941,-40.6631,80.9342,8661.78,1476.48,-1264.45,36.1212,-19.4479,1.25709
5.277,15760.2,-4606.18,7288.49,12.5404,232.48,139.533,4613.48,2179.02,8845.05,-1.26345,-12.0204,13.7001,-1557.74,18105.6,1547.79,115.952,-20.3751,314.659,-2555.49,-10516.8,-2412.44,-2.58054,-17.1101,42.36,-5100.87,5609.37,-704.513,15.3115,-115.399,88.3549,-2327.0,-10707.8,-1312.27,10.6282,-41.767,80.8891,8629.54,1462.88,-1384.16,36.9005,-18.6579,1.33964
5.278,16269.1,-4553.79,7174.21,16.2006,229.264,138.75,4651.23,2205.85,8872.07,-1.20868,-12.6571,13.9336,-1916.78,18273.7,1565.85,116.132,-16.824,313.35,-2513.46,-10525.2,-2422.95,-2.66194,-17.7029,42.7255,-4824.03,5609.46,-854.563,18.964,-115.384,87.6109,-2246.64,-10720.0,-1325.52,10.9624,-42.8709,80.8439,8597.31,1449.28,-1503.87,37.6798,-17.868,1.42219
5.279,16778.0,-4501.4,7059.93,19.8608,226.047,137.968,4688.98,2232.67,8899.08,-1.1539,-13.2938,14.1672,-2275.82,18441.8,1583.92,116.312,-13.2729,312.04,-2471.43,-10533.7,-2433.46,-2.74333,-18.2958,43.091,-4547.18,5609.55,-1004.61,22.6166,-115.369,86.867,-2166.28,-10732.1,-1338.77,11.2965,-43.9749,80.7987,8565.08,1435.68,-1623.57,38.459,-17.078,1.50474
5.28,17286.9,-4449.01,6945.64,23.521,222.831,137.185,4726.73,2259.5,8926.09,-1.09913,-13.9306,14.4007,-2634.86,18610.0,1601.98,116.492,-9.72179,310.731,-2429.4,-10542.1,-2443.97,-2.82473,-18.8887,43.4565,-4270.33,5609.64,-1154.66,26.2691,-115.354,86.123,-2085.92,-10744.3,-1352.01,11.6307,-45.0788,80.7536,8532.84,1422.09,-1743.28,39.2383,-16.2881,1.58729
5.281,17892.7,-4214.85,6813.93,26.2079,220.701,136.904,4746.53,2237.09,8944.41,-1.1236,-14.5829,14.4039,-3062.5,18763.6,1612.25,116.544,-5.89352,309.582,-2388.08,-10550.5,-2402.06,-2.80922,-19.3787,43.672,-3984.83,5645.62,-1192.53,28.6595,-113.16,85.1022,-1971.09,-10751.0,-1324.05,11.8717,-46.1705,80.6031,8501.11,1377.61,-1782.15,39.7165,-15.3722,1.78193
5.282,18498.4,-3980.69,6682.22,28.8949,218.571,136.623,4766.34,2214.69,8962.72,-1.14807,-15.2352,14.4072,-3490.15,18917.2,1622.52,116.595,-2.06525,308.433,-2346.77,-10558.8,-2360.14,-2.79372,-19.8687,43.8874,-3699.33,5681.6,-1230.39,31.0498,-110.966,84.0815,-1856.26,-10757.8,-1296.08,12.1126,-47.2622,80.4527,8469.38,1333.14,-1821.02,40.1946,-14.4563,1.97657
5.283,19104.2,-3746.52,6550.51,31.5818,216.441,136.342,4786.14,2192.28,8981.03,-1.17254,-15.8875,14.4104,-3917.79,19070.8,1632.8,116.646,1.76303,307.284,-2305.46,-10567.2,-2318.23,-2.77821,-20.3587,44.1029,-3413.84,5717.58,-1268.25,33.4402,-108.772,83.0607,-1741.43,-10764.6,-1268.12,12.3536,-48.3539,80.3022,8437.64,1288.67,-1859.89,40.6728,-13.5404,2.17121
5.284,19709.9,-3512.36,6418.79,34.2688,214.31,136.061,4805.95,2169.88,8999.34,-1.19701,-16.5398,14.4136,-4345.44,19224.4,1643.07,116.697,5.5913,306.134,-2264.15,-10575.5,-2276.32,-2.7627,-20.8487,44.3184,-3128.34,5753.56,-1306.11,35.8305,-106.578,82.04,-1626.6,-10771.3,-1240.15,12.5946,-49.4457,80.1517,8405.91,1244.2,-1898.77,41.1509,-12.6245,2.36584
5.285,20288.2,-3175.1,6384.54,36.2252,212.229,136.396,4794.81,2162.97,9011.11,-1.10003,-17.2513,14.5348,-4821.12,19360.2,1710.28,116.538,9.29216,304.784,-2208.59,-10581.3,-2254.48,-2.74741,-21.3238,44.6806,-2853.11,5837.45,-1298.47,37.5469,-103.493,80.9941,-1524.22,-10780.5,-1223.67,12.8543,-50.4491,80.0106,8371.67,1177.33,-1918.92,41.5387,-11.7165,2.56375
5.286,20844.5,-2755.36,6428.25,37.5972,210.186,137.224,4758.91,2168.45,9017.65,-0.905889,-18.0102,14.7503,-5335.24,19481.9,1823.04,116.21,12.8911,303.274,-2141.63,-10585.1,-2248.69,-2.73229,-21.7871,45.1602,-2586.08,5959.68,-1254.43,38.724,-99.6963,79.9281,-1431.8,-10791.6,-1216.38,13.1289,-51.3818,79.877,8335.43,1092.54,-1924.11,41.854,-10.815,2.76426
5.287,21400.9,-2335.63,6471.96,38.9692,208.144,138.052,4723.01,2173.93,9024.19,-0.71175,-18.7691,14.9658,-5849.36,19603.6,1935.8,115.882,16.49,301.763,-2074.68,-10588.8,-2242.91,-2.71717,-22.2503,45.6398,-2319.06,6081.9,-1210.39,39.9011,-95.8996,78.8621,-1339.37,-10802.7,-1209.09,13.4036,-52.3146,79.7434,8299.19,1007.75,-1929.29,42.1694,-9.9134,2.96477
5.288,21957.2,-1915.89,6515.67,40.3412,206.101,138.88,4687.12,2179.41,9030.72,-0.517611,-19.5281,15.1813,-6363.48,19725.3,2048.56,115.554,20.089,300.252,-2007.72,-10592.5,-2237.12,-2.70206,-22.7135,46.1194,-2052.04,6204.13,-1166.35,41.0783,-92.1029,77.7961,-1246.95,-10813.9,-1201.79,13.6782,-53.2473,79.6098,8262.95,922.966,-1934.48,42.4848,-9.01184,3.16529
5.289,22475.0,-1496.8,6565.14,41.472,203.93,139.859,4656.34,2184.94,9032.33,-0.321346,-20.2748,15.3686,-6862.93,19844.9,2168.67,115.163,23.5623,298.771,-1946.25,-10596.1,-2236.21,-2.69145,-23.1488,46.6062,-1781.64,6320.57,-1119.72,42.1409,-88.1413,76.7432,-1153.39,-10819.7,-1193.37,13.9322,-54.161,79.4617,8231.11,838.74,-1936.87,42.7786,-8.11339,3.36438
5.29,22684.4,-1082.88,6660.77,40.6724,200.732,142.049,4666.48,2190.85,8994.47,-0.108073,-20.9247,15.331,-7245.04,19947.8,2347.64,114.262,26.0308,297.519,-1928.67,-10598.4,-2274.3,-2.71693,-23.3609,47.1498,-1484.29,6390.72,-1052.43,42.2872,-82.8606,75.7954,-1050.76,-10782.8,-1175.9,14.0208,-54.9216,79.1975,8234.46,758.998,-1916.87,42.8988,-7.23988,3.55211
5.291,22893.9,-668.967,6756.39,39.8728,197.535,144.238,4676.63,2196.77,8956.61,0.105199,-21.5745,15.2933,-7627.16,20050.7,2526.61,113.362,28.4993,296.268,-1911.08,-10600.6,-2312.38,-2.74242,-23.5729,47.6934,-1186.93,6460.87,-985.133,42.4336,-77.58,74.8475,-948.128,-10746.0,-1158.44,14.1093,-55.6823,78.9333,8237.81,679.256,-1896.88,43.0191,-6.36637,3.73984
5.292,23103.3,-255.051,6852.01,39.0733,194.337,146.428,4686.78,2202.68,8918.75,0.318471,-22.2243,15.2557,-8009.27,20153.6,2705.59,112.462,30.9678,295.017,-1893.49,-10602.9,-2350.47,-2.7679,-23.7849,48.237,-889.57,6531.01,-917.838,42.5799,-72.2994,73.8996,-845.499,-10709.1,-1140.97,14.1978,-56.4429,78.6691,8241.17,599.515,-1876.89,43.1394,-5.49286,3.92757
5.293,23312.8,158.866,6947.63,38.2737,191.139,148.617,4696.92,2208.59,8880.89,0.531744,-22.8742,15.218,-8391.39,20256.5,2884.56,111.561,33.4363,293.765,-1875.91,-10605.2,-2388.56,-2.79339,-23.9969,48.7806,-592.213,6601.16,-850.542,42.7262,-67.0187,72.9517,-742.869,-10672.3,-1123.51,14.2864,-57.2036,78.4049,8244.52,519.773,-1856.9,43.2597,-4.61935,4.1153
5.294,23136.0,414.09,6942.62,36.1257,188.019,151.491,4735.5,2179.71,8869.14,0.878377,-23.5119,15.2645,-8559.04,20333.7,3117.75,110.829,34.9076,292.991,-1867.55,-10612.3,-2384.77,-2.74889,-24.0908,49.3707,-310.368,6704.21,-826.68,42.9738,-61.03,72.1446,-627.342,-10651.0,-1121.38,14.2919,-57.7871,78.0594,8265.07,451.587,-1853.63,43.3325,-3.83427,4.34226
5.295,22766.2,589.969,6887.31,33.3036,184.938,154.707,4788.29,2133.42,8870.44,1.29169,-24.1437,15.353,-8619.47,20398.2,3378.06,110.18,35.8803,292.455,-1863.81,-10621.9,-2360.06,-2.66941,-24.1256,49.984,-36.2804,6823.71,-824.534,43.2719,-54.6871,71.4079,-505.366,-10637.5,-1126.93,14.2559,-58.2822,77.6732,8294.22,389.179,-1858.73,43.3816,-3.09341,4.58884
5.296,22396.3,765.847,6831.99,30.4814,181.856,157.923,4841.08,2087.13,8871.74,1.70501,-24.7754,15.4416,-8679.9,20462.6,3638.37,109.532,36.8529,291.919,-1860.07,-10631.5,-2335.35,-2.58992,-24.1604,50.5973,237.807,6943.2,-822.388,43.5701,-48.3443,70.6712,-383.39,-10624.0,-1132.48,14.2199,-58.7772,77.287,8323.38,326.77,-1863.84,43.4307,-2.35254,4.83542
5.297,22026.5,941.726,6776.68,27.6593,178.775,161.138,4893.88,2040.84,8873.04,2.11832,-25.4072,15.5301,-8740.33,20527.0,3898.67,108.883,37.8256,291.383,-1856.33,-10641.0,-2310.63,-2.51044,-24.1953,51.2106,511.895,7062.7,-820.242,43.8682,-42.0015,69.9344,-261.415,-10610.5,-1138.02,14.1839,-59.2722,76.9008,8352.53,264.361,-1868.94,43.4798,-1.61168,5.082
5.298,21647.4,1048.42,6697.25,24.5993,176.095,164.454,4932.12,1994.58,8876.18,2.67187,-26.0874,15.6376,-8752.05,20550.8,4115.28,108.331,38.5898,290.836,-1842.64,-10645.9,-2283.63,-2.4665,-24.1554,51.8794,782.007,7163.16,-828.693,44.1904,-35.6097,69.266,-145.808,-10603.9,-1139.25,14.1241,-59.7228,76.4818,8382.34,204.77,-1885.18,43.5592,-0.847878,5.33008
5.299,21236.2,912.966,6533.41,20.7066,174.818,168.122,4919.44,1948.39,8885.77,3.71623,-26.9372,15.8114,-8593.32,20432.1,4178.91,108.116,38.6243,290.253,-1794.16,-10634.3,-2248.63,-2.54701,-23.8544,52.7424,1038.2,7197.01,-874.234,44.5967,-29.0464,68.8369,-52.4919,-10621.3,-1125.38,13.9806,-60.0176,75.948,8414.45,155.039,-1940.42,43.7442,-0.0038073,5.58342
5.3,20824.9,777.513,6369.58,16.8138,173.542,171.79,4906.75,1902.2,8895.35,4.76059,-27.7871,15.9853,-8434.58,20313.4,4242.54,107.901,38.6588,289.669,-1745.68,-10622.7,-2213.63,-2.62751,-23.5534,53.6053,1294.39,7230.86,-919.774,45.003,-22.4831,68.4078,40.8237,-10638.7,-1111.5,13.8372,-60.3125,75.4143,8446.57,105.308,-1995.66,43.9292,0.840264,5.83675
5.301,20413.6,642.06,6205.74,12.9211,172.266,175.458,4894.07,1856.0,8904.93,5.80494,-28.637,16.1592,-8275.84,20194.7,4306.18,107.686,38.6933,289.085,-1697.19,-10611.0,-2178.62,-2.70802,-23.2523,54.4683,1550.59,7264.71,-965.315,45.4093,-15.9198,67.9787,134.139,-10656.1,-1097.63,13.6938,-60.6073,74.8805,8478.68,55.5765,-2050.9,44.1143,1.68433,6.09008
5.302,20002.3,506.607,6041.91,9.02844,170.99,179.125,4881.39,1809.81,8914.52,6.8493,-29.4868,16.333,-8117.1,20076.0,4369.81,107.471,38.7278,288.502,-1648.71,-10599.4,-2143.62,-2.78852,-22.9513,55.3312,1806.78,7298.56,-1010.85,45.8156,-9.35649,67.5496,227.455,-10673.6,-1083.76,13.5504,-60.9022,74.3467,8510.8,5.84543,-2106.14,44.2993,2.52841,6.34341
5.303,20022.4,185.464,5902.75,6.04755,170.953,182.534,4847.39,1646.97,8957.58,7.94564,-30.3714,15.8507,-7993.49,19871.7,4242.49,107.727,40.0034,287.305,-1644.88,-10579.2,-2161.9,-3.02724,-22.6612,56.0076,2063.66,7388.06,-1025.08,45.9832,-2.51866,67.2189,291.745,-10657.9,-1073.17,13.3149,-61.0121,73.7116,8548.63,-46.8727,-2158.13,44.4402,3.53411,6.5422
5.304,20165.7,-188.733,5770.65,3.32717,171.271,185.868,4807.29,1450.8,9010.19,9.05682,-31.2659,15.1809,-7879.92,19642.9,4060.62,108.117,41.6337,285.934,-1653.81,-10556.6,-2195.41,-3.31115,-22.3743,56.6307,2320.74,7493.46,-1030.35,46.0824,4.3976,66.9164,347.741,-10632.8,-1063.53,13.0531,-61.0691,73.0477,8588.09,-100.444,-2209.19,44.5685,4.586,6.7254
5.305,20309.0,-562.93,5638.55,0.606802,171.588,189.202,4767.2,1254.63,9062.81,10.168,-32.1604,14.5112,-7766.35,19414.1,3878.74,108.507,43.2639,284.562,-1662.74,-10534.0,-2228.92,-3.59507,-22.0874,57.2537,2577.81,7598.86,-1035.63,46.1817,11.3139,66.6138,403.738,-10607.6,-1053.89,12.7912,-61.126,72.3837,8627.56,-154.016,-2260.25,44.6968,5.63788,6.90861
5.306,20452.3,-937.127,5506.44,-2.11357,171.906,192.537,4727.1,1058.46,9115.43,11.2792,-33.0549,13.8414,-7652.78,19185.3,3696.87,108.898,44.8941,283.19,-1671.68,-10511.4,-2262.43,-3.87899,-21.8005,57.8768,2834.88,7704.26,-1040.9,46.281,18.2301,66.3113,459.735,-10582.5,-1044.25,12.5294,-61.183,71.7197,8667.02,-207.587,-2311.32,44.8252,6.68977,7.09181
5.307,20714.7,-1239.44,5393.41,-3.91234,172.227,195.843,4732.85,1154.22,9078.05,12.0803,-33.6254,13.7791,-7597.94,18965.8,3504.04,109.189,47.0963,281.433,-1684.38,-10477.2,-2398.47,-4.45699,-21.8964,58.3819,3094.34,7800.15,-1044.06,46.1366,25.3257,66.1272,503.693,-10554.1,-1023.17,12.2302,-61.2166,71.0805,8709.4,-268.703,-2357.03,44.9134,7.77031,7.26483
5.308,21215.5,-1398.0,5318.52,-3.86788,172.555,199.092,4830.29,1833.84,8860.66,12.2612,-33.548,14.9318,-7660.58,18765.1,3289.33,109.282,50.4424,278.906,-1704.64,-10419.9,-2739.58,-5.62316,-22.758,58.6509,3358.55,7877.04,-1042.97,45.5049,32.7801,66.18,523.576,-10519.3,-979.202,11.856,-61.2031,70.4909,8757.62,-344.908,-2392.04,44.9213,8.90815,7.41749
5.309,21716.3,-1556.55,5243.62,-3.82343,172.883,202.342,4927.73,2513.47,8643.28,12.4421,-33.4705,16.0845,-7723.21,18564.4,3074.61,109.375,53.7886,276.379,-1724.9,-10362.6,-3080.7,-6.78933,-23.6196,58.9199,3622.76,7953.93,-1041.89,44.8732,40.2344,66.2328,543.458,-10484.5,-935.237,11.4818,-61.1897,69.9013,8805.83,-421.113,-2427.05,44.9292,10.046,7.57014
5.31,22217.2,-1715.1,5168.73,-3.77897,173.211,205.592,5025.16,3193.09,8425.9,12.623,-33.3931,17.2372,-7785.85,18363.7,2859.9,109.468,57.1347,273.852,-1745.15,-10305.3,-3421.81,-7.9555,-24.4812,59.1889,3886.97,8030.82,-1040.8,44.2415,47.6888,66.2856,563.341,-10449.8,-891.273,11.1076,-61.1762,69.3118,8854.04,-497.318,-2462.06,44.9371,11.1838,7.72279
5.311,22718.0,-1873.65,5093.83,-3.73452,173.539,208.842,5122.6,3872.72,8208.51,12.804,-33.3157,18.39,-7848.48,18163.0,2645.19,109.562,60.4808,271.325,-1765.41,-10248.0,-3762.92,-9.12167,-25.3428,59.4579,4151.18,8107.71,-1039.71,43.6097,55.1431,66.3385,583.224,-10415.0,-847.308,10.7334,-61.1628,68.7222,8902.26,-573.523,-2497.07,44.945,12.3217,7.87544
5.312,23084.7,-1837.22,5113.41,-2.67461,173.327,211.683,5122.48,3917.12,8324.82,12.3367,-33.8321,20.2988,-7902.5,18122.1,2747.89,109.135,63.8263,268.716,-1771.34,-10200.5,-3585.13,-8.13588,-26.2679,60.7272,4388.52,8167.03,-1087.0,42.7786,62.4993,66.5516,591.024,-10384.0,-802.414,10.1702,-61.2918,68.1311,8957.86,-619.094,-2495.13,45.0872,13.425,7.86326
5.313,23434.7,-1776.42,5144.8,-1.48777,173.047,214.473,5110.16,3882.13,8482.84,11.7884,-34.4228,22.3021,-7955.45,18101.1,2890.27,108.643,67.1718,266.098,-1775.49,-10154.2,-3342.47,-6.8811,-27.201,62.1215,4622.5,8224.16,-1140.34,41.9224,69.8432,66.7847,597.315,-10353.4,-757.404,9.58347,-61.4386,67.5398,9014.38,-660.836,-2488.57,45.2462,14.5239,7.83047
5.314,23784.7,-1715.62,5176.19,-0.300923,172.768,217.264,5097.85,3847.13,8640.86,11.2402,-35.0135,24.3055,-8008.39,18080.1,3032.65,108.152,70.5172,263.479,-1779.63,-10107.9,-3099.81,-5.62631,-28.134,63.5158,4856.48,8281.28,-1193.67,41.0663,77.1872,67.0178,603.605,-10322.9,-712.394,8.99669,-61.5854,66.9485,9070.91,-702.578,-2482.01,45.4052,15.6229,7.79768
5.315,24134.7,-1654.81,5207.58,0.885921,172.488,220.054,5085.53,3812.13,8798.88,10.6919,-35.6043,26.3088,-8061.34,18059.1,3175.03,107.66,73.8626,260.86,-1783.77,-10061.6,-2857.15,-4.37153,-29.0671,64.91,5090.46,8338.41,-1247.01,40.2102,84.5311,67.251,609.896,-10292.3,-667.383,8.40992,-61.7322,66.3572,9127.43,-744.32,-2475.46,45.5643,16.7218,7.76489
5.316,24307.0,-1543.16,5190.09,2.31064,172.22,222.48,5088.97,3550.76,8918.95,10.3002,-36.2479,27.4516,-8130.1,18108.0,3195.78,107.564,77.298,258.691,-1786.11,-10123.6,-2566.95,-2.99362,-29.1464,66.1351,5311.47,8379.95,-1294.04,39.2581,91.7771,67.3746,602.457,-10254.5,-669.02,7.65665,-61.9965,65.7665,9190.41,-772.725,-2450.02,45.8282,17.6453,7.56684
5.317,24257.3,-1367.96,5111.52,4.0327,171.967,224.451,5112.09,3006.44,8991.6,10.1043,-36.9577,27.5184,-8218.64,18244.1,3064.5,107.964,80.8458,257.084,-1786.2,-10320.9,-2217.33,-1.46183,-28.1586,67.1488,5516.28,8402.0,-1333.19,38.1859,98.9006,67.3613,577.857,-10207.6,-728.964,6.69527,-62.4077,65.1766,9261.46,-784.459,-2401.0,46.2232,18.3495,7.1622
5.318,24207.6,-1192.76,5032.94,5.75476,171.713,226.422,5135.22,2462.11,9064.26,9.90836,-37.6676,27.5853,-8307.18,18380.3,2933.21,108.364,84.3936,255.477,-1786.28,-10518.2,-1867.71,0.0699662,-27.1708,68.1624,5721.09,8424.06,-1372.35,37.1138,106.024,67.348,553.257,-10160.7,-788.909,5.73389,-62.819,64.5867,9332.51,-796.193,-2351.98,46.6182,19.0537,6.75756
5.319,24157.9,-1017.55,4954.36,7.47683,171.46,228.393,5158.34,1917.79,9136.91,9.71244,-38.3774,27.6522,-8395.72,18516.4,2801.93,108.763,87.9415,253.87,-1786.37,-10715.5,-1518.09,1.60176,-26.1831,69.1761,5925.91,8446.12,-1411.5,36.0416,113.148,67.3348,528.657,-10113.8,-848.853,4.77251,-63.2302,63.9968,9403.55,-807.927,-2302.96,47.0133,19.7578,6.35293
5.32,24108.2,-842.347,4875.79,9.19889,171.207,230.363,5181.47,1373.46,9209.56,9.51652,-39.0872,27.7191,-8484.25,18652.6,2670.64,109.163,91.4893,252.263,-1786.45,-10912.8,-1168.46,3.13356,-25.1953,70.1898,6130.72,8468.18,-1450.66,34.9695,120.271,67.3215,504.057,-10066.9,-908.798,3.81113,-63.6414,63.4068,9474.6,-819.661,-2253.93,47.4083,20.462,5.94829
5.321,23875.7,-597.997,4891.07,9.73641,170.837,231.626,5201.22,1073.79,9180.94,8.73638,-39.989,25.9392,-8550.96,18758.1,2729.9,108.351,94.3348,250.826,-1786.49,-11010.1,-1030.73,3.52124,-24.3134,70.5905,6309.03,8497.53,-1471.76,34.229,125.897,67.3178,469.679,-10047.7,-1065.68,2.46118,-64.1915,62.7573,9545.57,-820.923,-2169.55,47.8188,20.7082,5.43783
5.322,23643.2,-353.646,4906.36,10.2739,170.468,232.89,5220.98,774.112,9152.32,7.95623,-40.8908,24.1593,-8617.67,18863.6,2789.17,107.539,97.1803,249.389,-1786.53,-11107.5,-892.999,3.90893,-23.4316,70.9911,6487.34,8526.89,-1492.86,33.4884,131.524,67.3141,435.301,-10028.5,-1222.55,1.11122,-64.7417,62.1077,9616.54,-822.184,-2085.16,48.2293,20.9543,4.92736
5.323,23410.7,-109.296,4921.64,10.8115,170.099,234.153,5240.74,474.437,9123.69,7.17609,-41.7926,22.3794,-8684.37,18969.1,2848.44,106.727,100.026,247.951,-1786.57,-11204.8,-755.267,4.29661,-22.5497,71.3919,6665.65,8556.25,-1513.96,32.7479,137.15,67.3104,400.923,-10009.3,-1379.43,-0.23873,-65.2918,61.4581,9687.51,-823.446,-2000.77,48.6398,21.2005,4.4169
5.324,23178.2,135.054,4936.93,11.349,169.729,235.416,5260.5,174.762,9095.07,6.39595,-42.6944,20.5995,-8751.08,19074.6,2907.7,105.915,102.871,246.514,-1786.61,-11302.2,-617.534,4.6843,-21.6678,71.7925,6843.96,8585.6,-1535.06,32.0074,142.776,67.3067,366.546,-9990.14,-1536.31,-1.58868,-65.8419,60.8085,9758.48,-824.707,-1916.39,49.0503,21.4466,3.90643
5.325,22999.2,479.952,4929.99,11.2752,169.424,236.282,5246.03,144.597,9094.06,5.74765,-43.6736,19.3253,-8832.23,19142.4,3004.72,105.008,105.013,244.93,-1780.77,-11322.8,-564.212,4.92314,-20.9435,72.1823,7003.23,8597.24,-1573.61,31.2649,146.951,67.1,336.671,-9998.93,-1682.75,-2.69432,-66.3538,60.1002,9835.59,-801.242,-1818.91,49.556,21.3737,3.41743
5.326,22863.1,905.287,4905.29,10.7123,169.171,236.831,5204.17,330.039,9115.13,5.20483,-44.7147,18.4557,-8924.94,19180.0,3131.94,104.025,106.592,243.227,-1770.25,-11282.0,-578.419,5.0429,-20.3452,72.5632,7147.26,8594.7,-1626.12,30.5206,149.964,66.7309,310.4,-10030.1,-1820.83,-3.6045,-66.835,59.3448,9917.62,-757.994,-1710.96,50.138,21.0455,2.9456
5.327,22727.0,1330.62,4880.58,10.1494,168.917,237.38,5162.32,515.481,9136.2,4.66201,-45.7559,17.586,-9017.64,19217.6,3259.16,103.043,108.171,241.524,-1759.72,-11241.2,-592.626,5.16267,-19.747,72.9442,7291.29,8592.15,-1678.64,29.7764,152.977,66.3618,284.129,-10061.2,-1958.92,-4.51468,-67.3163,58.5894,9999.65,-714.746,-1603.0,50.72,20.7173,2.47377
5.328,22590.9,1755.96,4855.88,9.58651,168.664,237.929,5120.47,700.923,9157.27,4.11919,-46.797,16.7163,-9110.35,19255.2,3386.38,102.06,109.75,239.822,-1749.19,-11200.4,-606.832,5.28243,-19.1487,73.3251,7435.33,8589.61,-1731.15,29.0322,155.99,65.9927,257.857,-10092.4,-2097.0,-5.42486,-67.7975,57.8341,10081.7,-671.499,-1495.05,51.302,20.3892,2.00193
5.329,22472.6,2172.1,4827.34,8.91879,168.386,238.399,5078.23,872.316,9179.71,3.58651,-47.8394,15.8899,-9205.01,19282.4,3515.49,101.03,111.172,238.09,-1737.56,-11160.0,-621.754,5.4333,-18.5624,73.7396,7569.75,8586.42,-1779.29,28.3618,158.74,65.5472,231.757,-10127.2,-2222.43,-6.18962,-68.2655,57.0837,10159.2,-624.996,-1391.54,51.8908,20.0196,1.54645
5.33,22496.4,2514.68,4768.18,7.41234,167.919,238.233,5032.87,931.314,9213.19,3.13495,-48.8913,15.4095,-9315.28,19225.8,3659.7,99.625,111.339,236.118,-1717.11,-11122.7,-642.39,5.833,-18.0718,74.4222,7627.34,8577.96,-1792.37,28.282,159.392,64.4908,207.022,-10191.2,-2246.65,-5.79098,-68.6278,56.3736,10200.8,-552.455,-1323.51,52.5345,19.319,1.22174
5.331,22520.3,2857.26,4709.02,5.90589,167.452,238.068,4987.51,990.313,9246.66,2.68339,-49.9433,14.9291,-9425.55,19169.3,3803.91,98.2198,111.505,234.146,-1696.66,-11085.5,-663.027,6.23269,-17.5812,75.1048,7684.92,8569.5,-1805.44,28.2022,160.044,63.4343,182.286,-10255.3,-2270.86,-5.39234,-68.9901,55.6636,10242.5,-479.914,-1255.49,53.1783,18.6184,0.89703
5.332,22544.2,3199.84,4649.85,4.39945,166.985,237.902,4942.16,1049.31,9280.13,2.23183,-50.9952,14.4487,-9535.83,19112.7,3948.12,96.8146,111.671,232.174,-1676.21,-11048.2,-683.664,6.63238,-17.0906,75.7875,7742.51,8561.05,-1818.52,28.1224,160.696,62.3779,157.551,-10319.3,-2295.07,-4.9937,-69.3524,54.9535,10284.1,-407.373,-1187.47,53.822,17.9179,0.572321
5.333,22568.1,3542.42,4590.69,2.893,166.518,237.737,4896.8,1108.31,9313.6,1.78027,-52.0472,13.9683,-9646.1,19056.2,4092.33,95.4094,111.838,230.203,-1655.76,-11010.9,-704.301,7.03207,-16.6,76.4701,7800.09,8552.59,-1831.6,28.0427,161.348,61.3215,132.816,-10383.3,-2319.28,-4.59507,-69.7147,54.2434,10325.7,-334.832,-1119.44,54.4657,17.2173,0.247613
5.334,22560.4,3765.28,4442.03,1.56577,166.03,236.665,4901.27,1115.0,9344.53,1.32002,-53.0978,13.5308,-9771.57,18984.1,4201.76,93.8455,111.454,228.106,-1614.92,-11000.0,-718.556,7.44232,-15.9521,77.4221,7810.62,8510.09,-1860.1,28.3172,160.687,60.0409,123.535,-10473.8,-2296.72,-3.53924,-70.0066,53.6272,10355.2,-279.632,-1087.14,55.1192,16.3341,0.0818579
5.335,22537.0,3928.29,4248.62,0.32816,165.531,235.139,4930.65,1095.54,9374.18,0.85542,-54.1479,13.1148,-9904.63,18904.3,4293.8,92.2021,110.796,225.946,-1563.87,-11002.3,-729.621,7.85784,-15.2256,78.5088,7797.63,8450.56,-1896.32,28.7689,159.371,58.6484,121.982,-10577.5,-2250.77,-2.15481,-70.2634,53.0579,10378.5,-233.104,-1072.7,55.7776,15.3596,-0.00441975
5.336,22513.6,4091.29,4055.22,-0.909452,165.032,233.614,4960.04,1076.08,9403.83,0.39082,-55.1979,12.6988,-10037.7,18824.4,4385.84,90.5587,110.138,223.786,-1512.83,-11004.6,-740.686,8.27336,-14.4992,79.5955,7784.63,8391.03,-1932.53,29.2206,158.054,57.2558,120.429,-10681.3,-2204.82,-0.770382,-70.5201,52.4886,10401.8,-186.576,-1058.25,56.4359,14.3851,-0.0906975
5.337,22490.2,4254.3,3861.81,-2.14706,164.533,232.089,4989.43,1056.63,9433.48,-0.0737791,-56.2479,12.2828,-10170.8,18744.6,4477.89,88.9154,109.479,221.627,-1461.79,-11006.9,-751.751,8.68888,-13.7727,80.6822,7771.63,8331.5,-1968.74,29.6724,156.738,55.8632,118.876,-10785.0,-2158.87,0.614044,-70.7768,51.9193,10425.1,-140.048,-1043.81,57.0943,13.4105,-0.176975
5.338,22460.4,4375.13,3666.41,-3.16171,164.0,230.285,5012.43,1042.68,9460.89,-0.457904,-57.3175,11.9083,-10292.4,18645.9,4548.06,87.2488,108.7,219.397,-1416.14,-11023.3,-762.644,9.06116,-12.9848,81.7284,7742.16,8296.5,-2011.06,30.2447,155.226,54.3734,117.988,-10885.1,-2102.32,2.01402,-70.9893,51.3687,10440.4,-96.3888,-1045.3,57.7187,12.4666,-0.216235
5.339,22408.0,4348.37,3464.03,-3.39596,163.347,227.504,5013.13,1048.06,9480.41,-0.560366,-58.4552,11.6791,-10373.9,18481.0,4541.71,85.5011,107.495,216.92,-1389.36,-11089.4,-772.939,9.28209,-11.9821,82.6328,7655.03,8347.35,-2074.72,31.239,153.028,52.543,119.428,-10972.3,-2008.68,3.46841,-71.0466,50.8838,10427.3,-62.7717,-1102.58,58.2246,11.6299,-0.0909322
5.34,22355.6,4321.6,3261.65,-3.63021,162.695,224.723,5013.82,1053.43,9499.94,-0.662829,-59.5929,11.4499,-10455.4,18316.1,4535.36,83.7534,106.291,214.444,-1362.58,-11155.5,-783.233,9.50302,-10.9795,83.5372,7567.9,8398.2,-2138.39,32.2333,150.83,50.7126,120.868,-11059.5,-1915.04,4.9228,-71.1039,50.3988,10414.3,-29.1547,-1159.86,58.7306,10.7931,0.0343705
5.341,22303.1,4294.83,3059.27,-3.86446,162.043,221.942,5014.52,1058.8,9519.46,-0.765291,-60.7306,11.2206,-10536.9,18151.1,4529.01,82.0057,105.086,211.967,-1335.79,-11221.6,-793.527,9.72395,-9.97678,84.4416,7480.76,8449.04,-2202.06,33.2276,148.632,48.8822,122.307,-11146.8,-1821.4,6.37719,-71.1612,49.9139,10401.2,4.46238,-1217.13,59.2365,9.95636,0.159673
5.342,22250.7,4268.07,2856.89,-4.09871,161.39,219.161,5015.21,1064.17,9538.99,-0.867754,-61.8683,10.9914,-10618.4,17986.2,4522.66,80.258,103.882,209.491,-1309.01,-11287.7,-803.822,9.94489,-8.9741,85.346,7393.63,8499.89,-2265.73,34.222,146.434,47.0518,123.747,-11234.0,-1727.76,7.83159,-71.2185,49.4289,10388.2,38.0794,-1274.41,59.7424,9.1196,0.284976
5.343,22099.1,4184.55,2660.34,-3.06504,160.688,215.799,4988.18,1077.23,9572.2,-0.85508,-63.0715,10.7233,-10646.3,17861.2,4522.73,78.4866,102.578,207.016,-1341.56,-11357.8,-835.403,10.0648,-8.12374,85.9675,7251.78,8584.14,-2350.69,34.85,144.263,45.3048,129.634,-11291.3,-1656.76,9.06157,-71.0928,49.0324,10378.1,79.6091,-1360.19,59.8989,8.52134,0.364862
5.344,21919.2,4084.83,2465.45,-1.66911,159.971,212.272,4953.22,1092.47,9609.32,-0.80951,-64.2933,10.444,-10658.7,17747.6,4524.64,76.7083,101.247,204.542,-1391.07,-11429.2,-873.067,10.1559,-7.3169,86.5082,7094.31,8677.94,-2441.74,35.3734,142.099,43.5816,136.791,-11340.0,-1592.24,10.2274,-70.9148,48.6612,10368.9,123.4,-1454.11,59.9557,7.99124,0.431773
5.345,21739.2,3985.1,2270.57,-0.273174,159.255,208.744,4918.27,1107.72,9646.45,-0.763941,-65.5151,10.1648,-10671.2,17634.0,4526.55,74.93,99.9149,202.068,-1440.58,-11500.5,-910.731,10.2469,-6.51006,87.0489,6936.83,8771.73,-2532.79,35.8968,139.935,41.8583,143.948,-11388.8,-1527.71,11.3933,-70.7368,48.29,10359.8,167.19,-1548.03,60.0124,7.46113,0.498683
5.346,21559.3,3885.37,2075.69,1.12276,158.538,205.216,4883.31,1122.97,9683.57,-0.718371,-66.7369,9.88556,-10683.7,17520.4,4528.45,73.1518,98.5833,199.594,-1490.08,-11571.8,-948.394,10.338,-5.70322,87.5896,6779.35,8865.53,-2623.84,36.4202,137.772,40.1351,151.105,-11437.6,-1463.19,12.5591,-70.5588,47.9187,10350.6,210.98,-1641.95,60.0691,6.93103,0.565593
5.347,21391.6,3792.6,1880.39,2.89626,157.672,201.38,4855.45,1146.01,9715.49,-0.671968,-67.9527,9.60873,-10662.5,17381.0,4508.15,71.2817,97.4113,196.992,-1545.93,-11626.0,-988.399,10.3843,-5.07423,88.1497,6639.55,8946.7,-2698.97,36.7402,135.703,38.6534,160.318,-11477.3,-1418.36,13.5691,-70.4043,47.6069,10341.9,248.649,-1729.13,60.056,6.50049,0.67184
5.348,21248.4,3713.77,1684.26,5.4249,156.505,196.93,4841.78,1184.66,9736.98,-0.623897,-69.1563,9.33674,-10574.2,17190.0,4443.44,69.2279,96.5587,194.133,-1614.46,-11645.8,-1033.09,10.3412,-4.80095,88.7487,6535.13,9002.64,-2742.26,36.6533,133.822,37.655,173.641,-11499.2,-1412.93,14.2671,-70.2968,47.4138,10334.3,274.072,-1802.83,59.9034,6.26907,0.856761
5.349,21105.2,3634.93,1488.13,7.95353,155.338,192.48,4828.1,1223.3,9758.47,-0.575826,-70.36,9.06474,-10485.9,16999.0,4378.73,67.1741,95.706,191.274,-1683.0,-11665.7,-1077.77,10.298,-4.52766,89.3477,6430.71,9058.58,-2785.55,36.5665,131.942,36.6566,186.965,-11521.0,-1407.5,14.9651,-70.1893,47.2206,10326.7,299.496,-1876.54,59.7507,6.03765,1.04168
5.35,20962.0,3556.1,1291.99,10.4822,154.171,188.03,4814.42,1261.95,9779.97,-0.527755,-71.5637,8.79275,-10397.6,16808.0,4314.01,65.1204,94.8534,188.415,-1751.53,-11685.6,-1122.46,10.2549,-4.25438,89.9467,6326.28,9114.52,-2828.84,36.4797,130.062,35.6581,200.288,-11542.8,-1402.07,15.6631,-70.0817,47.0275,10319.1,324.919,-1950.24,59.5981,5.80623,1.2266
5.351,20818.8,3477.26,1095.86,13.0108,153.004,183.58,4800.75,1300.59,9801.46,-0.479684,-72.7674,8.52076,-10309.3,16617.0,4249.3,63.0666,94.0007,185.556,-1820.06,-11705.4,-1167.15,10.2117,-3.9811,90.5457,6221.86,9170.46,-2872.12,36.3928,128.181,34.6597,213.611,-11564.6,-1396.65,16.3611,-69.9742,46.8344,10311.5,350.343,-2023.94,59.4455,5.57481,1.41152
5.352,20690.8,3420.59,924.601,16.0372,151.777,178.816,4829.11,1349.25,9832.97,-0.564041,-74.2721,8.36474,-10246.7,16477.8,4182.29,61.072,93.3529,182.58,-1859.58,-11714.3,-1188.24,10.3704,-3.99511,91.4263,6068.02,9295.14,-2915.5,35.1281,127.217,33.9735,237.723,-11584.9,-1402.36,16.8773,-69.8928,46.7538,10283.0,387.375,-2047.34,59.3723,5.41303,1.73723
5.353,20564.6,3366.69,756.446,19.1258,150.541,174.012,4862.73,1399.16,9865.73,-0.664952,-75.8143,8.22322,-10187.3,16345.0,4115.0,59.0849,92.7307,179.589,-1895.47,-11721.7,-1206.38,10.5543,-4.04504,92.3421,5908.0,9428.41,-2958.89,33.716,126.368,33.3264,263.184,-11605.1,-1409.47,17.3709,-69.8147,46.6872,10251.8,425.859,-2064.44,59.3092,5.25995,2.08054
5.354,20438.4,3312.78,588.291,22.2144,149.306,169.209,4896.35,1449.07,9898.49,-0.765863,-77.3566,8.08169,-10127.9,16212.3,4047.71,57.0977,92.1085,176.599,-1931.36,-11729.1,-1224.51,10.7382,-4.09496,93.258,5747.98,9561.69,-3002.28,32.304,125.518,32.6793,288.645,-11625.2,-1416.58,17.8644,-69.7365,46.6206,10220.7,464.342,-2081.55,59.246,5.10687,2.42384
5.355,20312.3,3258.88,420.136,25.3031,148.071,164.405,4929.97,1498.98,9931.25,-0.866773,-78.8989,7.94017,-10068.5,16079.5,3980.42,55.1105,91.4862,173.608,-1967.25,-11736.6,-1242.65,10.9221,-4.14489,94.1738,5587.96,9694.96,-3045.66,30.892,124.669,32.0322,314.106,-11645.3,-1423.69,18.3579,-69.6584,46.554,10189.6,502.826,-2098.65,59.1828,4.95379,2.76715
5.356,20199.1,3256.81,248.245,28.1803,146.673,159.703,4953.4,1528.48,9952.7,-1.01971,-80.5263,7.85539,-10029.4,15921.9,3923.43,53.1307,90.9694,170.528,-1982.12,-11761.5,-1283.8,11.0741,-4.08684,95.0726,5415.32,9824.16,-3004.15,28.9684,124.177,31.576,341.933,-11669.6,-1452.64,18.8548,-69.4461,46.4706,10165.6,538.15,-2119.87,59.2221,4.84138,3.31524
5.357,20102.2,3319.51,71.6825,30.7931,145.071,155.128,4964.09,1532.46,9960.02,-1.23769,-82.2601,7.84153,-10015.7,15733.3,3879.34,51.1601,90.5841,167.336,-1970.72,-11808.4,-1353.72,11.1863,-3.89384,95.9501,5226.91,9948.28,-2856.49,26.4054,124.131,31.3586,372.718,-11699.1,-1508.9,19.3557,-69.066,46.3663,10150.3,569.525,-2146.21,59.3895,4.77982,4.11932
5.358,20005.4,3382.21,-104.879,33.406,143.47,150.554,4974.78,1536.43,9967.33,-1.45567,-83.9938,7.82766,-10001.9,15544.7,3835.24,49.1895,90.1989,164.144,-1959.32,-11855.3,-1423.64,11.2985,-3.70083,96.8276,5038.5,10072.4,-2708.84,23.8423,124.086,31.1412,403.502,-11728.6,-1565.16,19.8566,-68.686,46.2619,10135.1,600.899,-2172.55,59.5569,4.71825,4.9234
5.359,19908.5,3444.92,-281.441,36.0189,141.868,145.979,4985.48,1540.41,9974.64,-1.67364,-85.7276,7.8138,-9988.2,15356.1,3791.14,47.2189,89.8137,160.952,-1947.92,-11902.2,-1493.56,11.4107,-3.50782,97.7051,4850.09,10196.5,-2561.19,21.2793,124.04,30.9238,434.287,-11758.1,-1621.42,20.3576,-68.306,46.1576,10119.8,632.274,-2198.9,59.7243,4.65668,5.72747
5.36,19811.7,3507.62,-458.003,38.6318,140.266,141.405,4996.17,1544.38,9981.96,-1.89162,-87.4613,7.79994,-9974.46,15167.5,3747.04,45.2482,89.4285,157.759,-1936.52,-11949.1,-1563.48,11.5229,-3.31482,98.5826,4661.67,10320.6,-2413.54,18.7162,123.994,30.7064,465.071,-11787.6,-1677.68,20.8585,-67.9259,46.0532,10104.6,663.648,-2225.24,59.8917,4.59511,6.53155
5.361,19737.0,3581.47,-558.379,40.4874,138.276,136.924,4974.7,1579.2,9992.34,-1.87901,-89.0102,7.80374,-10062.5,15063.3,3684.55,43.3886,89.1812,154.199,-1941.63,-12019.6,-1594.36,11.6464,-3.00292,99.2102,4537.95,10425.2,-2182.22,14.995,124.321,30.3623,480.105,-11825.1,-1792.66,21.309,-66.9862,45.8684,10104.0,658.383,-2267.06,60.2869,4.50372,7.21096
5.362,19662.4,3655.32,-658.754,42.343,136.286,132.443,4953.24,1614.02,10002.7,-1.86639,-90.559,7.80753,-10150.5,14959.2,3622.06,41.5289,88.934,150.638,-1946.73,-12090.1,-1625.23,11.7699,-2.69103,99.8378,4414.24,10529.8,-1950.89,11.2737,124.649,30.0182,495.139,-11862.5,-1907.64,21.7596,-66.0464,45.6835,10103.5,653.117,-2308.87,60.682,4.41232,7.89037
5.363,19587.8,3729.17,-759.13,44.1985,134.296,127.963,4931.77,1648.83,10013.1,-1.85378,-92.1078,7.81133,-10238.5,14855.0,3559.57,39.6693,88.6867,147.077,-1951.84,-12160.7,-1656.1,11.8934,-2.37914,100.465,4290.52,10634.4,-1719.57,7.55236,124.976,29.6741,510.173,-11900.0,-2022.62,22.2101,-65.1066,45.4987,10102.9,647.852,-2350.68,61.0772,4.32092,8.56978
5.364,19513.2,3803.02,-859.505,46.0541,132.305,123.482,4910.31,1683.65,10023.5,-1.84116,-93.6566,7.81513,-10326.5,14750.9,3497.08,37.8096,88.4395,143.516,-1956.95,-12231.2,-1686.97,12.0169,-2.06725,101.093,4166.8,10738.9,-1488.24,3.83106,125.303,29.33,525.207,-11937.5,-2137.6,22.6606,-64.1669,45.3139,10102.4,642.587,-2392.5,61.4723,4.22953,9.24919
5.365,19453.3,3863.5,-969.91,47.2501,130.249,119.37,4885.37,1731.77,10020.3,-1.8059,-95.2321,7.87335,-10440.4,14640.2,3430.1,36.004,88.0231,139.906,-1954.31,-12267.9,-1722.34,12.1133,-1.77924,101.75,4010.67,10787.0,-1214.95,-0.0281954,125.938,28.8238,540.757,-11964.6,-2232.7,23.0716,-62.9202,45.1204,10158.1,630.138,-2445.83,61.9789,4.15778,9.80264
5.366,19405.2,3913.29,-1088.34,47.9183,128.14,115.554,4857.65,1790.53,10006.3,-1.75252,-96.8289,7.97512,-10574.9,14524.4,3359.54,34.2416,87.4715,136.258,-1945.48,-12277.5,-1761.29,12.1881,-1.51033,102.43,3828.62,10789.9,-908.069,-3.99783,126.82,28.188,556.718,-11983.5,-2311.91,23.4509,-61.4281,44.9202,10258.7,611.942,-2508.37,62.5745,4.10175,10.2553
5.367,19357.0,3963.08,-1206.77,48.5865,126.03,111.737,4829.93,1849.3,9992.24,-1.69915,-98.4258,8.07688,-10709.5,14408.5,3288.98,32.4793,86.9199,132.61,-1936.65,-12287.1,-1800.24,12.2628,-1.24143,103.11,3646.56,10792.7,-601.191,-7.96746,127.703,27.5523,572.68,-12002.4,-2391.11,23.8302,-59.9359,44.7199,10359.4,593.746,-2570.91,63.1702,4.04571,10.708
5.368,19308.9,4012.88,-1325.19,49.2548,123.921,107.92,4802.21,1908.06,9978.22,-1.64577,-100.023,8.17865,-10844.1,14292.6,3218.41,30.7169,86.3682,128.962,-1927.82,-12296.7,-1839.19,12.3376,-0.972525,103.79,3464.5,10795.6,-294.313,-11.9371,128.585,26.9165,588.641,-12021.3,-2470.31,24.2095,-58.4438,44.5197,10460.1,575.55,-2633.45,63.7659,3.98968,11.1607
5.369,19263.4,4054.61,-1439.95,49.8225,121.79,104.146,4781.26,1963.77,9965.56,-1.59429,-101.621,8.29626,-10977.2,14181.0,3148.68,29.0196,85.7636,125.302,-1926.43,-12304.1,-1882.56,12.4192,-0.729579,104.452,3287.06,10801.0,6.81432,-15.7904,129.451,26.2402,602.71,-12033.8,-2541.03,24.5745,-56.9352,44.3275,10548.5,559.147,-2695.43,64.3623,3.93679,11.6149
5.37,19239.2,4031.89,-1525.35,49.5863,119.49,100.707,4814.49,1995.07,9963.83,-1.55795,-103.229,8.54061,-11098.9,14103.4,3085.55,27.8426,84.7346,121.548,-1984.65,-12293.5,-1961.24,12.5557,-0.694292,104.967,3146.52,10827.3,261.941,-18.7133,130.188,25.2403,601.639,-11995.9,-2543.9,24.8246,-55.2956,44.1996,10538.8,557.09,-2752.9,64.9646,3.90903,12.0811
5.371,19215.1,4009.16,-1610.76,49.3501,117.19,97.2679,4847.72,2026.38,9962.11,-1.52162,-104.837,8.78496,-11220.6,14025.9,3022.42,26.6656,83.7056,117.794,-2042.86,-12283.0,-2039.92,12.6923,-0.659004,105.481,3005.98,10853.5,517.068,-21.6363,130.925,24.2403,600.568,-11958.0,-2546.77,25.0748,-53.656,44.0717,10529.2,555.032,-2810.36,65.5669,3.88128,12.5474
5.372,19190.9,3986.44,-1696.16,49.1139,114.89,93.829,4880.94,2057.68,9960.38,-1.48528,-106.445,9.02931,-11342.3,13948.4,2959.29,25.4886,82.6766,114.039,-2101.07,-12272.4,-2118.6,12.8289,-0.623717,105.996,2865.44,10879.8,772.194,-24.5592,131.661,23.2404,599.497,-11920.1,-2549.64,25.325,-52.0164,43.9438,10519.5,552.975,-2867.82,66.1693,3.85352,13.0136
5.373,19166.7,3963.72,-1781.56,48.8777,112.589,90.3902,4914.17,2088.98,9958.66,-1.44895,-108.053,9.27367,-11463.9,13870.9,2896.16,24.3116,81.6476,110.285,-2159.29,-12261.9,-2197.28,12.9655,-0.58843,106.51,2724.9,10906.1,1027.32,-27.4821,132.398,22.2405,598.426,-11882.2,-2552.5,25.5751,-50.3769,43.8159,10509.8,550.918,-2925.29,66.7716,3.82577,13.4799
5.374,19129.2,3850.79,-1855.15,48.4138,110.295,87.2971,4930.56,2108.27,9963.43,-1.26025,-109.671,9.68976,-11576.4,13814.0,2842.56,23.1979,80.3413,106.787,-2204.03,-12242.5,-2248.2,13.03,-0.716643,107.071,2629.52,10874.3,1133.89,-28.7444,133.323,21.0405,566.723,-11815.8,-2524.42,25.6919,-48.8974,43.7007,10468.3,551.015,-2950.66,67.2123,3.90611,14.0334
5.375,19085.0,3692.75,-1922.84,47.8362,108.004,84.3768,4938.54,2121.55,9971.44,-0.995373,-111.293,10.1917,-11684.3,13767.5,2793.74,22.1159,78.8965,103.418,-2242.04,-12218.7,-2285.26,13.0584,-0.926607,107.655,2556.73,10813.6,1166.19,-29.1765,134.343,19.7404,519.704,-11735.3,-2480.86,25.7421,-47.498,43.5919,10410.8,552.19,-2959.99,67.5722,4.04049,14.6306
5.376,19040.9,3534.72,-1990.53,47.2585,105.712,81.4565,4946.52,2134.84,9979.46,-0.730496,-112.916,10.6937,-11792.2,13721.0,2744.91,21.0339,77.4516,100.048,-2280.05,-12194.8,-2322.31,13.0869,-1.13657,108.238,2483.94,10752.8,1198.48,-29.6086,135.362,18.4404,472.685,-11654.7,-2437.3,25.7922,-46.0986,43.483,10353.4,553.366,-2969.32,67.9321,4.17487,15.2278
5.377,18996.7,3376.68,-2058.22,46.6809,103.421,78.5362,4954.49,2148.12,9987.47,-0.465618,-114.539,11.1957,-11900.1,13674.4,2696.08,19.9519,76.0068,96.679,-2318.05,-12171.0,-2359.36,13.1153,-1.34653,108.822,2411.14,10692.1,1230.78,-30.0406,136.381,17.1403,425.666,-11574.1,-2393.73,25.8423,-44.6992,43.3742,10295.9,554.541,-2978.65,68.292,4.30926,15.8249
5.378,18941.9,3216.97,-2128.23,46.055,101.085,75.7031,4971.07,2160.85,9994.81,-0.170997,-116.175,11.696,-11989.2,13625.9,2635.95,18.9608,74.6009,93.2922,-2359.87,-12149.2,-2390.28,13.1125,-1.5944,109.38,2363.81,10619.9,1272.72,-30.1812,137.335,15.8569,373.56,-11503.2,-2347.55,25.8681,-43.3991,43.3445,10253.3,553.841,-2995.58,68.6039,4.38612,16.3399
5.379,18849.7,3051.38,-2206.35,45.2604,98.5916,73.1752,5017.77,2171.63,9999.77,0.227725,-117.862,12.1906,-12012.2,13570.5,2536.28,18.2879,73.3314,89.8444,-2415.01,-12134.2,-2399.71,13.0005,-1.97492,109.845,2405.56,10508.0,1348.4,-29.3016,138.058,14.6319,303.651,-11466.0,-2292.22,25.8091,-42.4464,43.5918,10262.9,546.58,-3039.06,68.7478,4.26168,16.567
5.38,18757.5,2885.79,-2284.46,44.4657,96.0984,70.6473,5064.48,2182.42,10004.7,0.626446,-119.548,12.6852,-12035.2,13515.1,2436.6,17.615,72.062,86.3966,-2470.15,-12119.2,-2409.14,12.8885,-2.35544,110.311,2447.31,10396.0,1424.09,-28.4219,138.782,13.4069,233.743,-11428.7,-2236.88,25.7501,-41.4938,43.8391,10272.4,539.318,-3082.55,68.8917,4.13723,16.7941
5.381,18665.4,2720.21,-2362.58,43.6711,93.6052,68.1194,5111.18,2193.21,10009.7,1.02517,-121.235,13.1797,-12058.2,13459.6,2336.92,16.9421,70.7925,82.9487,-2525.29,-12104.2,-2418.57,12.7765,-2.73596,110.776,2489.06,10284.0,1499.78,-27.5423,139.506,12.1818,163.834,-11391.5,-2181.54,25.6911,-40.5411,44.0864,10282.0,532.057,-3126.04,69.0356,4.01279,17.0212
5.382,18573.2,2554.62,-2440.7,42.8764,91.112,65.5915,5157.88,2203.99,10014.6,1.42389,-122.921,13.6743,-12081.2,13404.2,2237.25,16.2692,69.523,79.5009,-2580.43,-12089.3,-2428.0,12.6644,-3.11648,111.242,2530.81,10172.0,1575.47,-26.6627,140.23,10.9568,93.925,-11354.3,-2126.2,25.6321,-39.5885,44.3338,10291.6,524.796,-3169.53,69.1795,3.88835,17.2483
5.383,18490.5,2428.85,-2501.42,42.1255,88.3522,63.4886,5151.85,2206.71,10014.4,1.90969,-124.616,14.1259,-12081.5,13349.0,2147.49,15.8916,68.2342,76.0539,-2620.35,-12078.3,-2428.54,12.5726,-3.73432,111.68,2585.74,10089.7,1701.8,-25.5917,140.257,9.93387,57.4291,-11330.2,-2051.57,25.4895,-39.0775,44.564,10336.1,548.66,-3204.98,69.0923,3.79077,17.323
5.384,18410.6,2314.47,-2557.17,41.3871,85.5164,61.5071,5130.76,2207.12,10012.7,2.42038,-126.313,14.5652,-12075.2,13293.8,2060.57,15.5984,66.9398,72.607,-2655.92,-12068.6,-2426.55,12.4865,-4.41997,112.111,2644.45,10015.8,1842.61,-24.466,140.085,8.96869,30.4798,-11309.9,-1971.43,25.3229,-38.6928,44.7893,10390.6,581.417,-3238.14,68.9392,3.70086,17.3541
5.385,18330.6,2200.08,-2612.92,40.6486,82.6805,59.5256,5109.67,2207.54,10010.9,2.93106,-128.009,15.0045,-12068.9,13238.7,1973.65,15.3052,65.6455,69.1601,-2691.49,-12058.8,-2424.55,12.4004,-5.10562,112.541,2703.15,9941.92,1983.42,-23.3404,139.913,8.0035,3.53046,-11289.7,-1891.29,25.1564,-38.3081,45.0146,10445.1,614.174,-3271.3,68.786,3.61096,17.3852
5.386,18250.7,2085.69,-2668.67,39.9102,79.8446,57.5441,5088.57,2207.95,10009.2,3.44175,-129.706,15.4438,-12062.6,13183.5,1886.73,15.012,64.3511,65.7133,-2727.06,-12049.0,-2422.56,12.3143,-5.79127,112.972,2761.85,9868.05,2124.23,-22.2147,139.74,7.03832,-23.4189,-11269.4,-1811.15,24.9898,-37.9233,45.2399,10499.6,646.932,-3304.46,68.6328,3.52106,17.4163
5.387,18167.9,1984.39,-2719.86,39.0936,76.9754,55.7941,5071.08,2209.78,10002.5,3.99418,-131.382,15.9037,-12033.1,13121.4,1817.12,14.7167,63.1525,62.3062,-2757.58,-12040.0,-2425.36,12.2301,-6.51135,113.39,2820.13,9812.59,2259.05,-21.3066,139.256,6.10434,-51.1547,-11238.3,-1736.45,24.8137,-37.7072,45.4569,10548.6,690.466,-3321.82,68.3322,3.50013,17.5827
5.388,18079.3,1909.29,-2761.94,38.1206,74.0395,54.5071,5060.8,2214.43,9986.14,4.63011,-133.017,16.4049,-11957.4,13045.2,1782.11,14.417,62.1453,58.9785,-2777.99,-12032.5,-2437.77,12.1499,-7.3003,113.783,2877.57,9793.93,2381.91,-20.8334,138.147,5.23277,-80.4638,-11185.5,-1672.63,24.6184,-37.8281,45.6571,10586.6,755.553,-3307.6,67.7367,3.61716,18.0197
5.389,17990.7,1834.18,-2804.02,37.1476,71.1036,53.2201,5050.53,2219.09,9969.73,5.26604,-134.652,16.9061,-11881.7,12969.0,1747.1,14.1174,61.1381,55.6508,-2798.4,-12025.0,-2450.18,12.0697,-8.08925,114.177,2935.01,9775.27,2504.77,-20.3603,137.037,4.3612,-109.773,-11132.8,-1608.81,24.423,-37.949,45.8574,10624.6,820.641,-3293.37,67.1411,3.73419,18.4567
5.39,17902.1,1759.08,-2846.1,36.1746,68.1677,51.9332,5040.25,2223.75,9953.32,5.90197,-136.287,17.4074,-11806.0,12892.8,1712.09,13.8178,60.1309,52.3232,-2818.81,-12017.5,-2462.58,11.9894,-8.8782,114.57,2992.44,9756.62,2627.62,-19.8872,135.928,3.48963,-139.082,-11080.1,-1544.99,24.2277,-38.07,46.0576,10662.6,885.729,-3279.15,66.5456,3.85122,18.8936
5.391,17813.5,1683.97,-2888.18,35.2016,65.2318,50.6462,5029.97,2228.41,9936.91,6.5379,-137.923,17.9086,-11730.2,12816.7,1677.08,13.5182,59.1237,48.9955,-2839.22,-12009.9,-2474.99,11.9092,-9.66715,114.964,3049.88,9737.96,2750.48,-19.4141,134.819,2.61805,-168.391,-11027.4,-1481.17,24.0323,-38.1909,46.2578,10700.6,950.817,-3264.93,65.95,3.96824,19.3306
5.392,17695.3,1653.54,-2888.26,34.3386,61.9857,49.536,5031.25,2225.08,9929.76,7.28627,-139.568,18.4603,-11641.0,12712.7,1640.2,13.2882,58.5318,45.6375,-2844.38,-12026.2,-2472.75,11.8268,-10.5017,115.286,3057.41,9634.88,2739.42,-19.1494,133.434,1.47925,-204.36,-11007.4,-1422.19,23.728,-38.7037,46.531,10785.0,988.799,-3279.76,66.2844,3.69073,19.2748
5.393,17573.5,1628.7,-2883.08,33.4894,58.7009,48.4478,5033.98,2220.75,9923.76,8.04871,-141.214,19.0184,-11550.2,12605.3,1603.09,13.067,57.9917,42.2757,-2847.63,-12045.5,-2468.68,11.7441,-11.3419,115.6,3058.7,9521.24,2711.62,-18.9107,132.015,0.307034,-241.161,-10991.6,-1363.81,23.41,-39.2654,46.8133,10875.3,1023.39,-3298.24,66.735,3.36389,19.1573
5.394,17451.6,1603.85,-2877.91,32.6401,55.4162,47.3596,5036.71,2216.42,9917.77,8.81114,-142.86,19.5765,-11459.3,12497.9,1565.98,12.8457,57.4516,38.9139,-2850.88,-12064.8,-2464.61,11.6614,-12.1821,115.914,3059.99,9407.6,2683.82,-18.672,130.595,-0.865178,-277.963,-10975.7,-1305.43,23.0921,-39.8271,47.0956,10965.5,1057.99,-3316.71,67.1855,3.03706,19.0399
5.395,17329.8,1579.01,-2872.73,31.7909,52.1314,46.2715,5039.44,2212.09,9911.77,9.57357,-144.507,20.1346,-11368.4,12390.5,1528.87,12.6245,56.9115,35.5521,-2854.14,-12084.1,-2460.54,11.5787,-13.0223,116.228,3061.28,9293.96,2656.02,-18.4333,129.176,-2.03739,-314.764,-10959.9,-1247.05,22.7741,-40.3887,47.3779,11055.8,1092.58,-3335.18,67.6361,2.71022,18.9224
5.396,17209.4,1579.81,-2869.53,31.0443,48.9123,45.4115,5041.66,2198.8,9906.11,10.3695,-146.124,20.6626,-11270.6,12315.0,1517.12,12.4746,56.6124,32.264,-2860.62,-12095.5,-2446.42,11.5274,-13.8945,116.556,3018.8,9218.29,2551.75,-18.0494,128.059,-3.29284,-341.946,-10951.9,-1194.8,22.5696,-41.2726,47.6106,11126.9,1127.0,-3345.82,67.8127,2.35277,18.7926
5.397,17091.0,1612.68,-2868.8,30.4262,45.7753,44.8368,5043.26,2174.31,9900.85,11.2072,-147.705,21.1528,-11164.0,12279.2,1537.06,12.414,56.6145,29.068,-2871.13,-12097.2,-2419.75,11.5154,-14.8069,116.902,2921.61,9190.06,2351.9,-17.484,127.321,-4.65233,-357.104,-10953.6,-1150.22,22.5067,-42.559,47.7812,11174.1,1161.2,-3346.69,67.6469,1.95705,18.6474
5.398,16972.5,1645.54,-2868.06,29.808,42.6384,44.2621,5044.86,2149.81,9895.6,12.045,-149.286,21.643,-11057.5,12243.4,1557.0,12.3534,56.6166,25.872,-2881.65,-12099.0,-2393.08,11.5034,-15.7192,117.248,2824.42,9161.84,2152.05,-16.9186,126.583,-6.01182,-372.261,-10955.4,-1105.64,22.4439,-43.8455,47.9519,11221.4,1195.39,-3347.55,67.4811,1.56133,18.5022
5.399,16854.0,1678.41,-2867.32,29.1898,39.5014,43.6875,5046.45,2125.32,9890.34,12.8827,-150.868,22.1332,-10950.9,12207.6,1576.95,12.2928,56.6187,22.676,-2892.16,-12100.7,-2366.4,11.4914,-16.6315,117.594,2727.24,9133.61,1952.2,-16.3532,125.844,-7.37131,-387.418,-10957.2,-1061.05,22.381,-45.132,48.1225,11268.6,1229.59,-3348.41,67.3152,1.16561,18.357
5.4,16735.6,1711.27,-2866.59,28.5716,36.3644,43.1128,5048.05,2100.82,9885.08,13.7205,-152.449,22.6234,-10844.3,12171.8,1596.89,12.2322,56.6208,19.48,-2902.67,-12102.4,-2339.73,11.4794,-17.5438,117.94,2630.05,9105.39,1752.35,-15.7878,125.106,-8.7308,-402.576,-10958.9,-1016.47,22.3182,-46.4184,48.2931,11315.8,1263.79,-3349.28,67.1494,0.769892,18.2118
5.401,16594.7,1640.3,-2804.14,27.8903,33.4591,42.6238,5066.01,2076.17,9864.36,14.7554,-154.165,23.1989,-10741.0,12066.6,1632.88,11.9095,56.8479,16.6775,-2892.39,-12082.9,-2328.74,11.3948,-18.4578,118.413,2493.07,9050.37,1542.91,-15.0875,125.185,-10.3515,-413.584,-10953.8,-959.248,22.0835,-48.1403,48.3189,11332.5,1317.25,-3353.76,66.7302,0.505413,17.9934
5.402,16453.8,1569.32,-2741.69,27.209,30.5537,42.1348,5083.97,2051.52,9843.64,15.7904,-155.88,23.7744,-10637.7,11961.5,1668.87,11.5869,57.0751,13.8749,-2882.11,-12063.5,-2317.75,11.3103,-19.3718,118.885,2356.09,8995.34,1333.47,-14.3872,125.264,-11.9722,-424.592,-10948.6,-902.027,21.8487,-49.8622,48.3447,11349.1,1370.7,-3358.25,66.3111,0.240934,17.7751
5.403,16313.0,1498.35,-2679.24,26.5277,27.6483,41.6457,5101.94,2026.88,9822.92,16.8253,-157.596,24.3498,-10534.4,11856.3,1704.86,11.2642,57.3022,11.0724,-2871.83,-12044.1,-2306.76,11.2257,-20.2858,119.357,2219.11,8940.32,1124.03,-13.6869,125.343,-13.5929,-435.6,-10943.5,-844.806,21.614,-51.584,48.3705,11365.8,1424.16,-3362.73,65.8919,-0.0235448,17.5567
5.404,16172.1,1427.37,-2616.79,25.8464,24.7429,41.1567,5119.9,2002.23,9802.2,17.8603,-159.311,24.9253,-10431.1,11751.1,1740.84,10.9416,57.5294,8.26988,-2861.55,-12024.6,-2295.77,11.1412,-21.1998,119.83,2082.13,8885.29,914.595,-12.9866,125.422,-15.2136,-446.608,-10938.3,-787.585,21.3793,-53.3059,48.3963,11382.5,1477.62,-3367.22,65.4727,-0.288024,17.3383
5.405,16034.9,1322.29,-2570.91,25.4279,21.8054,40.7602,5125.4,1984.66,9799.94,18.8606,-161.089,25.4553,-10286.2,11644.9,1767.22,10.7442,57.9256,5.56666,-2845.93,-12016.6,-2281.93,11.0435,-22.1296,120.29,1960.57,8881.55,759.379,-12.6799,125.656,-16.8356,-450.355,-10953.0,-754.468,21.1661,-55.142,48.266,11393.2,1501.79,-3388.54,65.2785,-0.524224,17.1149
5.406,15900.5,1189.92,-2538.28,25.2198,18.8422,40.4376,5120.92,1972.76,9812.44,19.8333,-162.915,25.949,-10108.1,11537.8,1785.91,10.6469,58.4572,2.94289,-2826.03,-12017.7,-2265.79,10.9354,-23.0721,120.74,1851.35,8918.83,647.54,-12.6881,126.014,-18.4586,-448.293,-10983.6,-740.634,20.97,-57.0695,48.0108,11399.3,1502.54,-3423.34,65.2643,-0.737803,16.8874
5.407,15766.1,1057.55,-2505.66,25.0118,15.879,40.1151,5116.44,1960.86,9824.95,20.806,-164.742,26.4426,-9930.03,11430.7,1804.6,10.5496,58.9888,0.31912,-2806.14,-12018.8,-2249.66,10.8272,-24.0145,121.191,1742.13,8956.11,535.701,-12.6964,126.372,-20.0816,-446.232,-11014.1,-726.799,20.774,-58.997,47.7557,11405.3,1503.29,-3458.13,65.25,-0.951381,16.66
5.408,15631.7,925.185,-2473.03,24.8037,12.9157,39.7925,5111.97,1948.95,9837.46,21.7786,-166.569,26.9363,-9751.92,11323.6,1823.29,10.4523,59.5203,-2.30465,-2786.24,-12019.9,-2233.52,10.7191,-24.9569,121.641,1632.91,8993.39,423.862,-12.7046,126.73,-21.7046,-444.17,-11044.7,-712.965,20.5779,-60.9245,47.5005,11411.4,1504.03,-3492.92,65.2358,-1.16496,16.4325
5.409,15492.5,801.974,-2431.62,24.646,9.94149,39.4465,5106.57,1940.14,9848.51,22.7582,-168.385,27.4422,-9573.5,11217.8,1833.13,10.3484,60.1271,-4.93281,-2766.81,-12024.1,-2218.23,10.6205,-25.9229,122.085,1522.78,9027.73,319.882,-12.7967,127.026,-23.3132,-437.603,-11072.2,-699.961,20.4055,-62.8826,47.227,11416.0,1503.54,-3523.91,65.2261,-1.3968,16.2082
5.41,15314.6,752.036,-2319.85,24.8917,6.87892,38.9133,5093.81,1956.02,9847.94,23.7925,-170.12,28.0461,-9392.62,11122.3,1772.16,10.1918,61.3355,-7.59607,-2751.05,-12052.6,-2209.65,10.5987,-27.077,122.475,1405.34,9038.51,278.77,-13.5603,126.826,-24.8072,-394.99,-11075.2,-693.599,20.422,-65.0854,46.8069,11408.8,1493.14,-3524.44,65.2528,-1.77471,16.0088
5.411,15136.8,702.098,-2208.09,25.1374,3.81636,38.38,5081.06,1971.9,9847.37,24.8268,-171.855,28.65,-9211.74,11026.9,1711.2,10.0352,62.5439,-10.2593,-2735.29,-12081.2,-2201.07,10.5768,-28.2311,122.864,1287.9,9049.3,237.658,-14.3238,126.626,-26.3012,-352.377,-11078.2,-687.237,20.4384,-67.2883,46.3867,11401.6,1482.73,-3524.97,65.2794,-2.15263,15.8094
5.412,14959.0,652.159,-2096.33,25.3831,0.7538,37.8468,5068.3,1987.78,9846.79,25.8611,-173.589,29.2539,-9030.87,10931.4,1650.23,9.87864,63.7523,-12.9226,-2719.53,-12109.8,-2192.5,10.5549,-29.3852,123.254,1170.46,9060.08,196.547,-15.0873,126.425,-27.7952,-309.764,-11081.1,-680.875,20.4548,-69.4911,45.9666,11394.4,1472.33,-3525.5,65.3061,-2.53055,15.61
5.413,14781.2,602.221,-1984.57,25.6288,-2.30876,37.3135,5055.54,2003.66,9846.22,26.8954,-175.324,29.8578,-8849.99,10836.0,1589.26,9.72204,64.9607,-15.5858,-2703.77,-12138.3,-2183.92,10.5331,-30.5392,123.644,1053.02,9070.87,155.435,-15.8508,126.225,-29.2891,-267.151,-11084.1,-674.513,20.4713,-71.694,45.5464,11387.2,1461.93,-3526.03,65.3328,-2.90846,15.4106
5.414,14624.5,616.748,-1892.46,25.7157,-5.25682,36.8288,5075.64,2026.52,9859.73,28.0152,-177.042,30.4809,-8670.22,10757.9,1572.94,9.38521,66.3378,-18.1554,-2672.73,-12158.0,-2186.21,10.5541,-31.6936,124.143,923.317,9045.45,142.552,-16.5032,125.772,-30.7721,-212.537,-11085.4,-667.847,20.563,-73.8436,45.0634,11352.5,1451.92,-3546.79,65.0834,-3.41135,15.3445
5.415,14478.3,663.509,-1810.18,25.7231,-8.14762,36.3683,5112.16,2052.87,9880.28,29.1779,-178.751,31.1136,-8491.0,10688.4,1578.93,8.95828,67.7991,-20.6782,-2634.04,-12173.2,-2193.93,10.5965,-32.8482,124.697,787.489,9001.94,143.784,-17.1001,125.193,-32.2495,-151.923,-11085.8,-661.029,20.6924,-75.9665,44.5489,11304.0,1442.12,-3577.66,64.696,-3.97671,15.3451
5.416,14332.1,710.27,-1727.9,25.7305,-11.0384,35.9078,5148.68,2079.21,9900.83,30.3405,-180.46,31.7464,-8311.78,10619.0,1584.92,8.53134,69.2604,-23.201,-2595.35,-12188.4,-2201.66,10.6389,-34.0028,125.251,651.661,8958.43,145.016,-17.697,124.614,-33.727,-91.3094,-11086.2,-654.21,20.8217,-78.0895,44.0344,11255.5,1432.32,-3608.54,64.3086,-4.54208,15.3457
5.417,14186.0,757.031,-1645.62,25.7379,-13.9292,35.4473,5185.2,2105.55,9921.38,31.5032,-182.169,32.3791,-8132.56,10549.5,1590.92,8.1044,70.7218,-25.7238,-2556.67,-12203.6,-2209.38,10.6813,-35.1574,125.805,515.833,8914.92,146.248,-18.2938,124.035,-35.2044,-30.6956,-11086.6,-647.391,20.9511,-80.2124,43.5199,11207.0,1422.52,-3639.41,63.9212,-5.10745,15.3464
5.418,14057.8,808.962,-1570.63,25.6269,-16.6895,34.9239,5213.92,2131.77,9941.48,32.6044,-183.905,33.0473,-7962.27,10476.4,1601.58,7.70235,72.1228,-28.1854,-2515.0,-12220.5,-2215.66,10.7512,-36.316,126.365,367.399,8857.2,133.98,-18.7686,123.428,-36.6723,31.6749,-11083.0,-642.534,21.1037,-82.3048,42.9881,11161.0,1404.82,-3652.09,63.5693,-5.79591,15.3716
5.419,13992.5,878.988,-1521.16,25.1012,-18.9927,34.1799,5215.31,2157.53,9959.99,33.4907,-185.735,33.8397,-7823.22,10390.1,1628.6,7.38742,73.3128,-30.4328,-2462.89,-12243.5,-2216.86,10.9171,-37.4886,126.944,174.844,8749.76,74.4644,-18.8163,122.728,-38.1064,100.194,-11065.7,-644.542,21.3377,-84.2901,42.3955,11123.5,1359.48,-3601.08,63.3413,-6.91522,15.4829
5.42,13927.3,949.014,-1471.68,24.5754,-21.2959,33.4359,5216.71,2183.29,9978.5,34.3769,-187.564,34.6321,-7684.17,10303.8,1655.61,7.07248,74.5028,-32.6802,-2410.78,-12266.6,-2218.07,11.0831,-38.6613,127.523,-17.7103,8642.32,14.949,-18.8639,122.027,-39.5406,168.712,-11048.3,-646.55,21.5717,-86.2755,41.8028,11086.0,1314.14,-3550.06,63.1134,-8.03453,15.5942
5.421,13862.0,1019.04,-1422.21,24.0497,-23.5991,32.692,5218.1,2209.05,9997.0,35.2632,-189.394,35.4245,-7545.12,10217.6,1682.63,6.75755,75.6928,-34.9276,-2358.67,-12289.6,-2219.27,11.249,-39.834,128.103,-210.265,8534.88,-44.5665,-18.9116,121.327,-40.9748,237.231,-11031.0,-648.557,21.8057,-88.2609,41.2102,11048.5,1268.8,-3499.05,62.8854,-9.15384,15.7055
5.422,13796.7,1089.07,-1372.73,23.524,-25.9023,31.948,5219.49,2234.81,10015.5,36.1495,-191.223,36.2168,-7406.08,10131.3,1709.64,6.44262,76.8828,-37.175,-2306.57,-12312.7,-2220.48,11.4149,-41.0067,128.682,-402.82,8427.43,-104.082,-18.9592,120.626,-42.4089,305.75,-11013.7,-650.565,22.0397,-90.2463,40.6176,11011.0,1223.46,-3448.03,62.6574,-10.2731,15.8168
5.423,13836.9,1162.17,-1373.52,20.7015,-27.4798,30.4378,5202.09,2280.18,10030.9,37.0667,-193.25,37.0325,-7324.17,10110.8,1676.62,6.23659,78.3195,-39.1996,-2270.61,-12361.0,-2244.11,11.5824,-42.1424,129.319,-619.486,8320.47,-153.652,-17.8767,119.885,-43.8174,415.116,-11015.3,-639.93,22.1847,-92.0428,40.0505,10970.0,1152.63,-3416.36,62.375,-11.4717,15.9204
5.424,13907.2,1236.14,-1388.67,17.2229,-28.8498,28.7086,5179.32,2331.16,10045.5,37.9928,-195.334,37.8549,-7258.6,10109.0,1626.45,6.06167,79.8266,-41.1606,-2239.28,-12416.6,-2274.14,11.7503,-43.2676,129.972,-843.042,8213.65,-200.38,-16.4712,119.132,-45.2185,536.152,-11022.3,-625.682,22.3044,-93.7855,39.4907,10927.9,1074.51,-3390.2,62.077,-12.6929,16.0218
5.425,13977.4,1310.12,-1403.82,13.7442,-30.2198,26.9794,5156.55,2382.14,10060.0,38.9188,-197.418,38.6773,-7193.03,10107.3,1576.27,5.88675,81.3338,-43.1216,-2207.95,-12472.1,-2304.18,11.9182,-44.3927,130.625,-1066.6,8106.83,-247.109,-15.0657,118.38,-46.6196,657.188,-11029.3,-611.434,22.424,-95.5281,38.9309,10885.8,996.4,-3364.05,61.779,-13.9141,16.1232
5.426,14047.7,1384.1,-1418.98,10.2655,-31.5899,25.2502,5133.78,2433.12,10074.6,39.8449,-199.502,39.4997,-7127.45,10105.5,1526.1,5.71184,82.8409,-45.0826,-2176.61,-12527.7,-2334.21,12.0861,-45.5179,131.279,-1290.15,8000.01,-293.837,-13.6602,117.628,-48.0207,778.225,-11036.3,-597.186,22.5437,-97.2707,38.3711,10843.8,918.287,-3337.9,61.4809,-15.1354,16.2245
