Time,RFoot_accel.x,RFoot_accel.y,RFoot_accel.z,RFoot_gyro.x,RFoot_gyro.y,RFoot_gyro.z,LFoot_accel.x,LFoot_accel.y,LFoot_accel.z,LFoot_gyro.x,LFoot_gyro.y,LFoot_gyro.z,RShank_accel.x,RShank_accel.y,RShank_accel.z,RShank_gyro.x,RShank_gyro.y,RShank_gyro.z,LShank_accel.x,LShank_accel.y,LShank_accel.z,LShank_gyro.x,LShank_gyro.y,LShank_gyro.z,RThigh_accel.x,RThigh_accel.y,RThigh_accel.z,RThigh_gyro.x,RThigh_gyro.y,RThigh_gyro.z,LThigh_accel.x,LThigh_accel.y,LThigh_accel.z,LThigh_gyro.x,LThigh_gyro.y,LThigh_gyro.z,Pelvis_accel.x,Pelvis_accel.y,Pelvis_accel.z,Pelvis_gyro.x,Pelvis_gyro.y,Pelvis_gyro.z
1.78,5055.79,-3493.06,8219.15,15.3202,-7.13371,-8.45586,2980.15,255.55,6766.97,4.44743,391.776,-116.661,713.674,10390.4,-218.277,6.60196,-28.5951,-62.2495,1714.98,-5928.44,-686.224,-77.2876,60.8767,-279.52,-127.512,9877.56,-2028.48,81.1314,-59.5295,-69.4701,-4771.02,-7182.93,1979.12,-77.2564,159.708,-111.471,7066.86,2522.37,-47.1454,20.3465,13.2789,-84.0721
1.781,5161.65,-3459.59,8156.6,15.4919,-7.10692,-8.42474,2994.26,223.432,6813.64,4.52662,391.863,-113.863,662.9,10440,-336.502,7.02457,-29.2935,-61.9984,1583.09,-6096.21,-667.872,-77.7611,59.9091,-281.236,-141.797,9973.29,-2088.12,81.4172,-59.5643,-70.1531,-4797.68,-7186.35,1951.52,-74.5773,164.727,-110.955,7058.99,2543.48,-47.4308,20.3613,13.4208,-83.3936
1.782,5267.51,-3426.12,8094.04,15.6636,-7.08013,-8.39363,3008.37,191.314,6860.31,4.60579,391.95,-111.065,612.126,10489.6,-454.727,7.44718,-29.9919,-61.7472,1451.19,-6263.98,-649.52,-78.2346,58.9415,-282.951,-156.082,10069,-2147.75,81.7029,-59.5991,-70.836,-4824.33,-7189.77,1923.92,-71.8983,169.745,-110.439,7051.11,2564.59,-47.7162,20.3761,13.5626,-82.715
1.783,5361.4,-3424.36,8062.31,15.613,-7.05844,-8.74589,3092.65,140.309,6926.53,4.53354,392.495,-108.437,526.712,10509.4,-500.003,7.67273,-30.1048,-61.5653,1341.1,-6412.12,-545.577,-78.8074,57.4402,-284.602,-146.267,10147.9,-2224.92,81.5833,-59.5167,-71.5364,-4870.95,-7172.81,1879.96,-69.1187,174.34,-110.143,7044.25,2566.34,-27.9115,20.3901,13.5965,-81.9087
1.784,5451.86,-3431.67,8039.37,15.4988,-7.03821,-9.20768,3196.98,83.9081,6998.34,4.41803,393.171,-105.858,431.399,10520.6,-524.436,7.84198,-30.0503,-61.4032,1237.25,-6554.65,-417.179,-79.4084,55.7864,-286.236,-129.566,10222,-2307.09,81.3479,-59.4008,-72.2417,-4923.28,-7150.02,1831.32,-66.3104,178.812,-109.909,7037.67,2562.54,-2.36672,20.404,13.5995,-81.0659
1.785,5542.33,-3438.98,8016.44,15.3846,-7.01798,-9.66948,3301.3,27.507,7070.15,4.30251,393.847,-103.279,336.087,10531.8,-548.87,8.01124,-29.9959,-61.2412,1133.4,-6697.17,-288.781,-80.0094,54.1327,-287.869,-112.865,10296.1,-2389.26,81.1125,-59.285,-72.9471,-4975.6,-7127.23,1782.69,-63.5021,183.285,-109.674,7031.09,2558.75,23.178,20.4179,13.6025,-80.2231
1.786,5632.79,-3446.29,7993.51,15.2704,-6.99774,-10.1313,3405.63,-28.8942,7141.95,4.18699,394.523,-100.7,240.775,10543,-573.304,8.18049,-29.9415,-61.0791,1029.54,-6839.7,-160.383,-80.6105,52.4789,-289.503,-96.1645,10370.2,-2471.43,80.8771,-59.1691,-73.6524,-5027.93,-7104.44,1734.06,-60.6939,187.758,-109.44,7024.51,2554.96,48.7228,20.4318,13.6055,-79.3803
1.787,5700.91,-3422.95,7979.32,15.2536,-6.95191,-10.4418,3523.95,-88.6702,7236.08,3.92483,395.223,-98.3054,172.99,10548.5,-572.449,8.27771,-29.9579,-60.9697,949.952,-6974.43,-11.4462,-81.1407,50.5821,-291.108,-99.2962,10429.7,-2558.94,80.6942,-58.9665,-74.336,-5071.61,-7072.63,1681.34,-58.1232,191.812,-109.459,7007.53,2548.47,73.3865,20.3587,13.7264,-78.4951
1.788,5724.36,-3338.31,7982.62,15.4314,-6.85489,-10.4497,3670.26,-155.196,7374.85,3.36936,395.972,-96.2782,160.263,10542.4,-521.019,8.23086,-30.116,-60.9656,918.891,-7093.56,178.567,-81.5292,48.199,-292.658,-142.093,10459.9,-2657.13,80.6164,-58.5905,-74.9759,-5098.01,-7022.79,1620.47,-56.0278,195.029,-109.985,6969.77,2536.58,96.2882,20.1119,14.0831,-77.5253
1.789,5747.81,-3253.68,7985.92,15.6092,-6.75787,-10.4576,3816.57,-221.722,7513.62,2.81388,396.72,-94.251,147.536,10536.3,-469.589,8.18402,-30.274,-60.9615,887.83,-7212.68,368.579,-81.9177,45.816,-294.208,-184.89,10490.1,-2755.33,80.5386,-58.2145,-75.6158,-5124.42,-6972.95,1559.6,-53.9324,198.246,-110.511,6932.01,2524.68,119.19,19.8651,14.4399,-76.5554
1.79,5771.25,-3169.04,7989.22,15.787,-6.66085,-10.4655,3962.88,-288.247,7652.39,2.25841,397.468,-92.2239,134.808,10530.2,-418.158,8.13717,-30.4321,-60.9574,856.769,-7331.81,558.592,-82.3062,43.433,-295.758,-227.687,10520.4,-2853.52,80.4608,-57.8384,-76.2557,-5150.82,-6923.1,1498.72,-51.8369,201.463,-111.037,6894.25,2512.79,142.091,19.6182,14.7967,-75.5855
1.791,5794.7,-3084.4,7992.52,15.9648,-6.56382,-10.4734,4109.19,-354.773,7791.17,1.70294,398.216,-90.1967,122.081,10524.1,-366.728,8.09032,-30.5902,-60.9533,825.708,-7450.94,748.605,-82.6947,41.0499,-297.308,-270.483,10550.6,-2951.71,80.383,-57.4624,-76.8956,-5177.23,-6873.26,1437.85,-49.7415,204.68,-111.563,6856.5,2500.9,164.993,19.3714,15.1535,-74.6156
1.792,5781.6,-3047.7,8003.28,16.0942,-6.47386,-10.4591,4237.82,-340.466,7896.84,1.78374,399.122,-88.2917,161.394,10537.6,-353.237,7.95698,-30.4806,-60.8764,807.577,-7562.92,865.129,-83.263,38.56,-298.766,-288.798,10581.8,-3022.57,80.3722,-57.2422,-77.3311,-5227.4,-6759.18,1383.26,-48.4016,206.307,-112.46,6828.24,2518.43,181.693,18.7258,15.302,-73.4958
1.793,5763.94,-3016.98,8014.97,16.2175,-6.38478,-10.442,4364.25,-316.056,7998.38,1.94408,400.047,-86.4019,207.213,10553.5,-344.488,7.81283,-30.3375,-60.7904,791.062,-7674.02,972.467,-83.8537,36.0566,-300.212,-304.052,10613.2,-3090.01,80.3697,-57.0414,-77.741,-5280.55,-6637.07,1329.47,-47.1561,207.736,-113.403,6801.18,2539.63,197.617,18.0303,15.4245,-72.3573
1.794,5746.27,-2986.27,8026.67,16.3409,-6.2957,-10.425,4490.67,-291.645,8099.92,2.10441,400.973,-84.5121,253.031,10569.4,-335.739,7.66868,-30.1945,-60.7045,774.547,-7785.12,1079.81,-84.4445,33.5532,-301.659,-319.306,10644.6,-3157.45,80.3672,-56.8406,-78.151,-5333.69,-6514.96,1275.67,-45.9107,209.164,-114.346,6774.11,2560.84,213.541,17.3349,15.547,-71.2188
1.795,5728.6,-2955.55,8038.36,16.4642,-6.20662,-10.4079,4617.09,-267.234,8201.46,2.26475,401.898,-82.6224,298.849,10585.3,-326.99,7.52453,-30.0514,-60.6185,758.033,-7896.21,1187.14,-85.0352,31.0499,-303.106,-334.56,10676,-3224.89,80.3647,-56.6398,-78.5609,-5386.84,-6392.85,1221.87,-44.6652,210.593,-115.289,6747.05,2582.04,229.465,16.6394,15.6696,-70.0803
1.796,5704.19,-2989.73,8038.34,16.474,-6.14645,-10.5596,4751.73,-252.723,8327.81,2.69467,402.911,-80.9172,324.592,10580.8,-349.693,7.48876,-29.7742,-60.5332,749.585,-8013.82,1271.63,-85.508,28.7695,-304.602,-338.042,10649.7,-3276.79,80.3813,-56.3943,-78.8893,-5455.5,-6276.49,1186,-44.1091,211.078,-116.267,6727.03,2578.89,227.638,15.8632,15.684,-68.9032
1.797,5671.34,-3105.01,8023.66,16.3419,-6.12241,-10.9221,4896.65,-250.588,8485.18,3.46159,404.035,-79.4428,325.239,10550.8,-411.712,7.58847,-29.3295,-60.4488,751.222,-8139.58,1327.55,-85.8333,26.7679,-306.162,-326.811,10551.2,-3309.25,80.4217,-56.0927,-79.1158,-5543.56,-6167.3,1172.54,-44.4146,210.384,-117.287,6715.8,2545.29,203.619,14.9859,15.5634,-67.6779
1.798,5638.49,-3220.29,8008.99,16.2098,-6.09836,-11.2846,5041.57,-248.452,8642.54,4.2285,405.158,-77.9684,325.886,10520.8,-473.731,7.68818,-28.8847,-60.3645,752.859,-8265.34,1383.46,-86.1586,24.7663,-307.722,-315.579,10452.8,-3341.72,80.4621,-55.7912,-79.3423,-5631.63,-6058.12,1159.08,-44.7201,209.689,-118.306,6704.58,2511.69,179.601,14.1087,15.4428,-66.4526
1.799,5605.63,-3335.57,7994.31,16.0777,-6.07432,-11.6471,5186.49,-246.316,8799.91,4.99542,406.281,-76.4941,326.534,10490.8,-535.75,7.78788,-28.4399,-60.2801,754.495,-8391.1,1439.38,-86.4839,22.7647,-309.282,-304.347,10354.4,-3374.18,80.5025,-55.4897,-79.5687,-5719.69,-5948.93,1145.62,-45.0257,208.995,-119.326,6693.36,2478.1,155.583,13.2315,15.3222,-65.2273
1.8,5572.78,-3450.85,7979.64,15.9456,-6.05027,-12.0096,5331.4,-244.181,8957.28,5.76233,407.405,-75.0197,327.181,10460.9,-597.769,7.88759,-27.9952,-60.1957,756.132,-8516.86,1495.3,-86.8092,20.7631,-310.842,-293.116,10255.9,-3406.65,80.5428,-55.1882,-79.7952,-5807.75,-5839.75,1132.17,-45.3312,208.301,-120.346,6682.14,2444.5,131.564,12.3543,15.2016,-64.0021
1.801,5525.83,-3432.4,8017.11,16.0046,-5.94415,-12.4769,5499.65,-354.586,9121.7,6.50645,408.642,-74.4557,352.795,10451,-693.219,7.91045,-27.3333,-60.0744,744.661,-8675.66,1562.33,-86.6314,19.2996,-312.718,-289.689,10176.2,-3431.76,80.4758,-55.1144,-79.718,-5928.82,-5724.83,1106.62,-47.1715,205.915,-120.914,6657.54,2417.42,155.765,12.0004,15.2861,-62.578
1.802,5478.88,-3413.95,8054.58,16.0637,-5.83802,-12.9441,5667.89,-464.991,9286.13,7.25057,409.88,-73.8917,378.41,10441.2,-788.669,7.9333,-26.6714,-59.9531,733.191,-8834.47,1629.36,-86.4535,17.8361,-314.594,-286.262,10096.4,-3456.87,80.4087,-55.0406,-79.6408,-6049.89,-5609.91,1081.08,-49.0119,203.53,-121.482,6632.95,2390.35,179.965,11.6465,15.3706,-61.1541
1.803,5431.93,-3395.49,8092.04,16.1227,-5.7319,-13.4114,5836.14,-575.396,9450.55,7.99469,411.117,-73.3277,404.024,10431.4,-884.119,7.95616,-26.0095,-59.8318,721.72,-8993.27,1696.4,-86.2757,16.3725,-316.47,-282.836,10016.7,-3481.99,80.3416,-54.9669,-79.5636,-6170.96,-5494.99,1055.54,-50.8522,201.145,-122.049,6608.36,2363.27,204.165,11.2926,15.4552,-59.7301
1.804,5384.98,-3377.04,8129.51,16.1817,-5.62577,-13.8787,6004.38,-685.801,9614.98,8.73881,412.355,-72.7638,429.638,10421.6,-979.569,7.97901,-25.3476,-59.7105,710.25,-9152.08,1763.43,-86.0978,14.909,-318.346,-279.409,9936.93,-3507.1,80.2745,-54.8931,-79.4864,-6292.03,-5380.07,1029.99,-52.6926,198.76,-122.617,6583.77,2336.19,228.365,10.9387,15.5397,-58.306
1.805,5369.82,-3383.03,8130.39,16.311,-5.53438,-14.2305,6129.52,-791.437,9756.09,9.45578,413.689,-72.5442,430.394,10403.5,-1024.24,7.86122,-24.9047,-59.6588,692.585,-9317.67,1822.48,-85.9556,13.6283,-320.428,-296.372,9854.45,-3527.96,80.0008,-54.6698,-79.3983,-6399.02,-5292.21,1041.75,-54.8515,195.852,-122.714,6603.78,2293.83,237.785,10.6861,15.6432,-56.9669
1.806,5380.07,-3408.57,8102,16.4964,-5.45478,-14.4901,6220.17,-893.257,9878.55,10.151,415.1,-72.6001,411.262,10378.7,-1028.3,7.63092,-24.6372,-59.6626,669.964,-9488.69,1875.15,-85.8418,12.4939,-322.673,-329.646,9769.76,-3545.43,79.5619,-54.3267,-79.3016,-6494.75,-5226,1083.34,-57.2652,192.526,-122.434,6659.45,2239.25,235.382,10.5146,15.7617,-55.6956
1.807,5390.33,-3434.12,8073.6,16.6819,-5.37518,-14.7496,6310.82,-995.077,10001,10.8463,416.51,-72.6561,392.13,10354,-1032.35,7.40061,-24.3696,-59.6664,647.343,-9659.72,1927.81,-85.7281,11.3595,-324.919,-362.921,9685.08,-3562.9,79.123,-53.9836,-79.2048,-6590.48,-5159.8,1124.93,-59.6789,189.2,-122.154,6715.13,2184.66,232.978,10.343,15.8802,-54.4243
1.808,5400.59,-3459.66,8045.21,16.8674,-5.29558,-15.0091,6401.46,-1096.9,10123.5,11.5415,417.921,-72.712,372.998,10329.2,-1036.4,7.17031,-24.1021,-59.6702,624.722,-9830.74,1980.48,-85.6143,10.2252,-327.165,-396.195,9600.4,-3580.36,78.684,-53.6405,-79.108,-6686.2,-5093.59,1166.52,-62.0927,185.874,-121.874,6770.8,2130.07,230.575,10.1715,15.9988,-53.153
1.809,5416.96,-3484.26,8015.9,17.0391,-5.20829,-15.2959,6493.61,-1191.94,10244.3,12.2267,419.317,-72.7911,347.574,10310,-1043.15,6.935,-23.8035,-59.6579,598.4,-9995.26,2028.62,-85.5078,9.14556,-329.428,-430.288,9514.88,-3599.51,78.2585,-53.3247,-79.0328,-6778.98,-5030.18,1209.87,-64.4778,182.472,-121.474,6821.75,2080.52,227.516,9.9163,16.1001,-51.8605
1.81,5482.22,-3501.23,7979.28,17.101,-5.05952,-15.8004,6597.74,-1232.74,10351.9,12.8317,420.596,-73.0553,271.807,10334.8,-1071.45,6.65971,-23.2566,-59.5161,542.473,-10107.7,2040.52,-85.4595,8.50433,-331.824,-470.931,9422.67,-3632.12,77.9404,-53.2266,-79.13,-6848.11,-4989.17,1267.25,-66.634,178.462,-120.115,6834.88,2071.26,219.215,8.99243,16.0637,-50.3984
1.811,5547.48,-3518.21,7942.66,17.163,-4.91075,-16.3049,6701.86,-1273.53,10459.5,13.4367,421.876,-73.3195,196.04,10359.6,-1099.74,6.38442,-22.7098,-59.3742,486.546,-10220.2,2052.42,-85.4112,7.86311,-334.22,-511.573,9330.47,-3664.74,77.6223,-53.1286,-79.2272,-6917.24,-4948.16,1324.64,-68.7902,174.452,-118.756,6848,2061.99,210.914,8.06855,16.0273,-48.9363
1.812,5612.74,-3535.18,7906.04,17.2249,-4.76198,-16.8094,6805.99,-1314.33,10567.1,14.0417,423.155,-73.5837,120.273,10384.4,-1128.04,6.10913,-22.1629,-59.2324,430.619,-10332.7,2064.32,-85.3629,7.22189,-336.616,-552.215,9238.26,-3697.35,77.3041,-53.0305,-79.3244,-6986.37,-4907.15,1382.02,-70.9464,170.442,-117.398,6861.13,2052.73,202.613,7.14468,15.9909,-47.4742
1.813,5678,-3552.15,7869.42,17.2868,-4.61321,-17.314,6910.11,-1355.13,10674.8,14.6467,424.434,-73.8479,44.5064,10409.2,-1156.34,5.83383,-21.616,-59.0906,374.693,-10445.1,2076.22,-85.3146,6.58066,-339.013,-592.858,9146.05,-3729.97,76.986,-52.9325,-79.4216,-7055.5,-4866.14,1439.4,-73.1025,166.432,-116.039,6874.25,2043.47,194.311,6.2208,15.9545,-46.012
1.814,5722.45,-3494.41,7862.71,17.0765,-4.462,-17.729,7000.13,-1308.49,10778.7,15.2874,425.528,-74.2399,-39.8184,10426.1,-1123.72,5.60103,-21.3083,-59.0203,317.726,-10553.8,2116.41,-85.1192,6.12452,-341.396,-687.535,9068.1,-3768.92,76.7391,-52.7847,-79.6128,-7078.28,-4884.7,1493.16,-74.2563,162.472,-114.14,6939.38,2016.24,178.297,5.37749,15.8157,-44.6546
1.815,5756.49,-3399.3,7870.95,16.73,-4.30956,-18.0992,7083.08,-1218.13,10880.9,15.9459,426.529,-74.6958,-128.422,10438.9,-1060.63,5.38946,-21.1202,-58.9858,260.239,-10660.6,2170.74,-84.8502,5.76093,-343.773,-809.229,8997.28,-3811.04,76.5277,-52.6121,-79.8511,-7077.89,-4933.05,1545.1,-74.9088,158.538,-111.97,7030.5,1980.04,158.426,4.57445,15.6258,-43.3494
1.816,5790.54,-3304.19,7879.19,16.3834,-4.15712,-18.4695,7166.04,-1127.77,10983,16.6044,427.529,-75.1517,-217.026,10451.8,-997.55,5.17789,-20.932,-58.9513,202.752,-10767.4,2225.07,-84.5812,5.39734,-346.15,-930.923,8926.45,-3853.16,76.3164,-52.4395,-80.0893,-7077.5,-4981.4,1597.05,-75.5613,154.605,-109.8,7121.62,1943.84,138.554,3.77142,15.4359,-42.0443
1.817,5824.58,-3209.08,7887.43,16.0369,-4.00468,-18.8398,7249,-1037.41,11085.1,17.263,428.53,-75.6076,-305.629,10464.6,-934.466,4.96632,-20.7439,-58.9168,145.265,-10874.2,2279.41,-84.3123,5.03375,-348.527,-1052.62,8855.63,-3895.28,76.105,-52.2669,-80.3276,-7077.1,-5029.75,1648.99,-76.2138,150.671,-107.631,7212.74,1907.63,118.683,2.96838,15.246,-40.7391
1.818,5840.76,-3134.33,7887.12,15.7012,-3.81527,-19.2176,7331.35,-956.436,11182.6,17.7899,429.439,-76.0754,-395.735,10484.9,-884.704,4.82316,-20.5283,-58.7986,105.45,-10979.1,2338.54,-84.0107,4.64864,-350.89,-1174.3,8798.85,-3916.54,75.8345,-52.2111,-80.6118,-7073.76,-5087.72,1683.99,-76.401,146.933,-105.426,7295.35,1880.58,101.658,2.22278,15.0701,-39.4367
1.819,5794.41,-3130.83,7856.88,15.4032,-3.49648,-19.622,7411.54,-908.316,11263.5,17.8563,430.024,-76.5849,-491.097,10531.1,-881.575,4.91942,-20.2166,-58.3875,127.486,-11077.7,2414.49,-83.5947,4.18822,-353.204,-1295.95,8791.2,-3864.78,75.3567,-52.5643,-81.0566,-7060.08,-5179.37,1659.67,-74.9595,143.881,-103.097,7348.15,1885.55,94.5923,1.67821,14.9432,-38.1439
1.82,5748.07,-3127.33,7826.64,15.1052,-3.1777,-20.0263,7491.74,-860.197,11344.5,17.9227,430.609,-77.0944,-586.459,10577.2,-878.445,5.01568,-19.905,-57.9764,149.522,-11176.3,2490.44,-83.1788,3.7278,-355.517,-1417.6,8783.55,-3813.02,74.8788,-52.9175,-81.5015,-7046.41,-5271.02,1635.35,-73.518,140.829,-100.767,7400.94,1890.53,87.5269,1.13363,14.8163,-36.851
1.821,5701.73,-3123.83,7796.4,14.8072,-2.85891,-20.4307,7571.94,-812.077,11425.4,17.9892,431.195,-77.6039,-681.82,10623.4,-875.315,5.11193,-19.5933,-57.5654,171.557,-11274.9,2566.39,-82.7629,3.26739,-357.831,-1539.26,8775.9,-3761.25,74.401,-53.2707,-81.9464,-7032.73,-5362.67,1611.03,-72.0766,137.778,-98.4379,7453.74,1895.5,80.4615,0.589056,14.6894,-35.5582
1.822,5655.38,-3120.33,7766.15,14.5092,-2.54012,-20.8351,7652.13,-763.957,11506.4,18.0556,431.78,-78.1134,-777.182,10669.6,-872.185,5.20819,-19.2817,-57.1543,193.593,-11373.5,2642.34,-82.3469,2.80697,-360.144,-1660.91,8768.25,-3709.49,73.9232,-53.6239,-82.3913,-7019.05,-5454.31,1586.71,-70.6351,134.726,-96.1086,7506.53,1900.48,73.3961,0.04448,14.5625,-34.2654
1.823,5695.71,-3057,7756.72,14.3796,-2.2283,-21.1402,7710,-668.549,11554.7,17.4987,432.009,-78.7474,-838.573,10643,-812.856,5.0771,-19.4316,-56.6771,218.471,-11460.5,2673.11,-82.0944,2.35148,-362.255,-1745.2,8795.16,-3671.18,73.2128,-54.2239,-82.9036,-7016.21,-5546.86,1564.84,-68.1953,133.081,-94.0577,7552.92,1870.61,69.9164,-0.279828,14.4047,-33.229
1.824,5760.81,-2976.58,7753.22,14.2981,-1.91847,-21.417,7761.49,-559.631,11593.7,16.7637,432.137,-79.417,-890.259,10595.5,-737.471,4.88104,-19.7134,-56.1809,244.161,-11544.2,2690.98,-81.8886,1.89739,-364.309,-1818.82,8831.96,-3636.72,72.436,-54.8944,-83.4352,-7016.47,-5639.67,1543.68,-65.4704,131.839,-92.0865,7597.46,1830.78,67.4612,-0.541202,14.2382,-32.2658
1.825,5825.9,-2896.16,7749.73,14.2167,-1.60864,-21.6938,7812.97,-450.713,11632.7,16.0287,432.264,-80.0865,-941.944,10548.1,-662.086,4.68498,-19.9952,-55.6848,269.851,-11628,2708.85,-81.6827,1.4433,-366.363,-1892.44,8868.75,-3602.25,71.6591,-55.5648,-83.9668,-7016.72,-5732.48,1522.51,-62.7454,130.596,-90.1153,7642.01,1790.95,65.006,-0.802576,14.0717,-31.3026
1.826,5891,-2815.74,7746.24,14.1352,-1.29881,-21.9706,7864.46,-341.794,11671.7,15.2937,432.392,-80.7561,-993.629,10500.6,-586.7,4.48893,-20.277,-55.1886,295.541,-11711.7,2726.72,-81.4769,0.989211,-368.416,-1966.07,8905.55,-3567.79,70.8823,-56.2353,-84.4984,-7016.97,-5825.28,1501.34,-60.0204,129.354,-88.144,7686.56,1751.12,62.5508,-1.06395,13.9051,-30.3395
1.827,5930.16,-2761.39,7754.02,13.9718,-1.00448,-22.2706,7925.81,-247.01,11726,14.5349,432.502,-81.4492,-1033.48,10467.1,-517.047,4.34282,-20.5306,-54.7814,325.063,-11795,2737.01,-81.3178,0.585704,-370.412,-2048.35,8929.52,-3536.73,70.2427,-56.9709,-85.0876,-7019.13,-5901.39,1477.65,-57.0905,128.554,-86.2478,7727.61,1721.18,51.7287,-1.4151,13.6929,-29.4121
1.828,5917.45,-2759.19,7784.36,13.6446,-0.741131,-22.6171,8006.88,-180.495,11810.7,13.7284,432.577,-82.1893,-1049.67,10461.5,-458.856,4.29662,-20.7276,-54.552,362.248,-11877.8,2732.17,-81.2523,0.283358,-372.293,-2147.96,8927.86,-3512.51,69.8777,-57.8368,-85.7921,-7025.1,-5944.09,1448.89,-53.7507,128.638,-84.5017,7761.64,1711.01,24.173,-1.9458,13.3895,-28.5562
1.829,5904.74,-2756.98,7814.7,13.3174,-0.477784,-22.9636,8087.95,-113.979,11895.5,12.9219,432.653,-82.9294,-1065.86,10455.8,-400.666,4.25042,-20.9246,-54.3227,399.434,-11960.6,2727.32,-81.1868,-0.0189867,-374.173,-2247.58,8926.19,-3488.28,69.5126,-58.7027,-86.4966,-7031.07,-5986.8,1420.14,-50.411,128.723,-82.7557,7795.67,1700.84,-3.38273,-2.4765,13.086,-27.7003
1.83,5892.03,-2754.78,7845.04,12.9903,-0.214437,-23.3101,8169.02,-47.4633,11980.3,12.1154,432.729,-83.6695,-1082.05,10450.2,-342.475,4.20422,-21.1217,-54.0933,436.619,-12043.3,2722.48,-81.1213,-0.321332,-376.053,-2347.19,8924.52,-3464.05,69.1476,-59.5686,-87.201,-7037.04,-6029.5,1391.39,-47.0712,128.808,-81.0096,7829.71,1690.67,-30.9384,-3.0072,12.7825,-26.8444
1.831,5879.32,-2752.58,7875.38,12.6631,0.0489099,-23.6566,8250.09,19.0524,12065,11.3089,432.804,-84.4096,-1098.24,10444.5,-284.285,4.15801,-21.3187,-53.8639,473.805,-12126.1,2717.63,-81.0558,-0.623677,-377.934,-2446.8,8922.86,-3439.83,68.7826,-60.4345,-87.9055,-7043.01,-6072.2,1362.64,-43.7314,128.892,-79.2635,7863.74,1680.49,-58.4942,-3.5379,12.479,-25.9886
1.832,5811.92,-2759.53,7899.92,12.4522,0.263333,-23.9809,8373.48,60.1604,12116.4,10.4771,432.978,-84.9626,-1050.07,10444.8,-272.104,3.93476,-21.211,-53.5327,514.842,-12210.1,2669.93,-81.2255,-0.600664,-379.695,-2539.67,8934.47,-3434.68,68.923,-61.437,-88.5727,-7040.59,-6047.58,1298.79,-40.7651,129.637,-78.0096,7916.59,1674.13,-74.9205,-3.956,12.3174,-25.333
1.833,5737.69,-2767.62,7923.74,12.2559,0.471641,-24.3024,8502.16,98.0924,12163.6,9.6421,433.164,-85.4923,-993.84,10445.7,-265.674,3.68937,-21.0652,-53.1888,556.36,-12294.4,2616.87,-81.4247,-0.536982,-381.441,-2631.7,8947.75,-3431.91,69.1267,-62.4565,-89.2353,-7037.12,-6014.54,1230.55,-37.8455,130.465,-76.8172,7971.79,1668.25,-89.9557,-4.36003,12.1735,-24.7024
1.834,5663.45,-2775.71,7947.56,12.0595,0.679949,-24.6239,8630.84,136.024,12210.8,8.80714,433.351,-86.0219,-937.615,10446.7,-259.245,3.44399,-20.9194,-52.8448,597.878,-12378.6,2563.81,-81.6238,-0.4733,-383.187,-2723.73,8961.03,-3429.15,69.3303,-63.476,-89.8978,-7033.65,-5981.51,1162.31,-34.9258,131.293,-75.6248,8027,1662.37,-104.991,-4.76406,12.0295,-24.0718
1.835,5589.21,-2783.8,7971.38,11.8632,0.888256,-24.9454,8759.51,173.956,12258,7.97218,433.537,-86.5516,-881.39,10447.7,-252.815,3.1986,-20.7737,-52.5009,639.396,-12462.8,2510.76,-81.823,-0.409617,-384.933,-2815.76,8974.3,-3426.38,69.5339,-64.4955,-90.5604,-7030.18,-5948.47,1094.08,-32.0062,132.121,-74.4324,8082.2,1656.48,-120.026,-5.16808,11.8856,-23.4412
1.836,5536.55,-2811.37,8018.54,11.6238,0.994863,-25.2164,8904.76,192.706,12324,7.1227,433.743,-87.2311,-823.591,10449.7,-269.781,3.13428,-20.6432,-52.0889,659.501,-12552.1,2447.51,-82.1195,-0.209799,-386.585,-2914.45,9008.29,-3447.14,69.8388,-65.2246,-91.2003,-6992.77,-5904.31,1041.19,-29.4584,132.743,-73.4864,8128.54,1640.63,-152.545,-5.44079,11.7748,-22.992
1.837,5510.86,-2863.3,8094.87,11.3306,0.974343,-25.4243,9070.73,187.477,12413.7,6.25507,433.974,-88.0978,-763.826,10452.9,-315.993,3.29628,-20.532,-51.5917,652.841,-12648,2371.52,-82.5376,0.160188,-388.119,-3021.46,9068.16,-3497.3,70.2703,-65.5907,-91.8118,-6912.94,-5846.26,1007.5,-27.3753,133.109,-72.8486,8163.8,1612.32,-206.92,-5.54934,11.7054,-22.7695
1.838,5485.17,-2915.22,8171.21,11.0375,0.953823,-25.6322,9236.69,182.249,12503.3,5.38744,434.205,-88.9645,-704.06,10456.2,-362.205,3.45828,-20.4207,-51.0946,646.182,-12743.8,2295.53,-82.9558,0.530176,-389.653,-3128.47,9128.04,-3547.45,70.7018,-65.9568,-92.4232,-6833.1,-5788.2,973.804,-25.2922,133.475,-72.2108,8199.05,1584.01,-261.294,-5.65788,11.6361,-22.547
1.839,5459.48,-2967.14,8247.55,10.7443,0.933303,-25.8401,9402.66,177.02,12593,4.51981,434.435,-89.8313,-644.295,10459.4,-408.417,3.62028,-20.3095,-50.5974,639.522,-12839.6,2219.55,-83.374,0.900164,-391.188,-3235.48,9187.91,-3597.61,71.1333,-66.3229,-93.0347,-6753.27,-5730.15,940.11,-23.2091,133.841,-71.573,8234.31,1555.7,-315.668,-5.76643,11.5667,-22.3245
1.84,5433.79,-3019.06,8323.88,10.4512,0.912784,-26.048,9568.62,171.792,12682.6,3.65219,434.666,-90.698,-584.53,10462.6,-454.629,3.78228,-20.1983,-50.1003,632.862,-12935.4,2143.56,-83.7921,1.27015,-392.722,-3342.5,9247.79,-3647.77,71.5648,-66.689,-93.6462,-6673.43,-5672.09,906.415,-21.126,134.207,-70.9351,8269.57,1527.39,-370.043,-5.87498,11.4973,-22.102
1.841,5425.04,-2970.07,8333.02,10.2877,0.935105,-26.3167,9717.32,134.891,12786.2,3.16602,434.82,-91.5926,-577.306,10490.1,-431.003,3.72653,-20.4181,-49.8216,610.376,-13040.9,2117.69,-84.1884,2.09558,-393.984,-3441.52,9271.87,-3675.8,72.4903,-67.1862,-94.0836,-6579.45,-5588.23,881.093,-20.0177,133.748,-70.6909,8319.94,1504.69,-381.336,-5.45013,11.4175,-21.8074
1.842,5416.29,-2921.07,8342.15,10.1243,0.957427,-26.5854,9866.02,97.9906,12889.9,2.67986,434.973,-92.4872,-570.083,10517.5,-407.378,3.67078,-20.6379,-49.5429,587.889,-13146.5,2091.82,-84.5847,2.92101,-395.246,-3540.55,9295.96,-3703.84,73.4158,-67.6835,-94.521,-6485.47,-5504.36,855.771,-18.9095,133.289,-70.4466,8370.32,1481.98,-392.63,-5.02528,11.3377,-21.5127
1.843,5407.55,-2872.08,8351.28,9.96086,0.979749,-26.8541,10014.7,61.0901,12993.5,2.1937,435.127,-93.3818,-562.859,10545,-383.752,3.61502,-20.8578,-49.2642,565.403,-13252,2065.96,-84.9811,3.74644,-396.508,-3639.58,9320.04,-3731.88,74.3413,-68.1807,-94.9585,-6391.49,-5420.5,830.448,-17.8012,132.83,-70.2023,8420.69,1459.28,-403.923,-4.60044,11.2578,-21.218
1.844,5398.8,-2823.08,8360.41,9.79742,1.00207,-27.1228,10163.4,24.1895,13097.1,1.70753,435.28,-94.2764,-555.636,10572.4,-360.127,3.55927,-21.0776,-48.9855,542.917,-13357.5,2040.09,-85.3774,4.57187,-397.77,-3738.6,9344.13,-3759.92,75.2668,-68.6779,-95.3959,-6297.5,-5336.63,805.126,-16.6929,132.372,-69.9581,8471.07,1436.57,-415.217,-4.17559,11.178,-20.9233
1.845,5417.98,-2804.44,8372.42,9.55894,0.914765,-27.5223,10325.2,21.928,13181,1.26073,435.616,-95.2056,-581.473,10622.2,-350.457,3.45588,-21.2058,-48.6087,517.393,-13468.4,2007.03,-85.8597,5.75502,-398.946,-3845.75,9361.96,-3734.93,76.0661,-69.4234,-96.0128,-6240.39,-5257.67,773.996,-15.7057,131.297,-70.1163,8529.02,1435.8,-425.101,-3.85111,11.0525,-20.7538
1.846,5459.52,-2810.08,8386.74,9.26041,0.739757,-28.0265,10497.5,47.3777,13249.1,0.845421,436.097,-96.1624,-633.758,10689.7,-351.951,3.31439,-21.2606,-48.1534,489.438,-13583.7,1968.2,-86.4109,7.22436,-400.054,-3959.4,9374.78,-3667.53,76.7643,-70.3674,-96.7733,-6212.76,-5182.64,738.22,-14.8153,129.731,-70.5966,8593.04,1452.58,-433.856,-3.60693,10.8904,-20.6846
1.847,5501.05,-2815.72,8401.06,8.96188,0.56475,-28.5306,10669.8,72.8273,13317.3,0.430112,436.577,-97.1193,-686.044,10757.2,-353.445,3.1729,-21.3154,-47.698,461.483,-13699,1929.38,-86.9622,8.6937,-401.161,-4073.05,9387.61,-3600.12,77.4625,-71.3113,-97.5337,-6185.13,-5107.6,702.443,-13.9249,128.164,-71.0768,8657.06,1469.36,-442.611,-3.36274,10.7283,-20.6153
1.848,5542.58,-2821.36,8415.38,8.66335,0.389742,-29.0348,10842.1,98.277,13385.4,0.0148023,437.058,-98.0761,-738.329,10824.8,-354.939,3.03141,-21.3701,-47.2427,433.528,-13814.2,1890.56,-87.5134,10.163,-402.269,-4186.7,9400.43,-3532.72,78.1607,-72.2553,-98.2942,-6157.51,-5032.57,666.667,-13.0346,126.597,-71.5571,8721.08,1486.13,-451.366,-3.11856,10.5663,-20.546
1.849,5580.02,-2822.9,8431.22,8.36494,0.207374,-29.5309,11012.9,130.93,13456.4,-0.412432,437.493,-99.029,-791.26,10893.2,-352.224,2.87059,-21.5126,-46.7993,404.347,-13933.2,1848.07,-88.1225,11.7129,-403.361,-4294.85,9416.08,-3470.07,78.8685,-73.2873,-99.0542,-6137.97,-4957.62,627.025,-12.2455,124.977,-72.0225,8777.15,1502.76,-461.654,-2.90496,10.3969,-20.4494
1.85,5584.67,-2791.65,8459.21,8.06743,-0.0338795,-29.9629,11172.2,221.205,13550.2,-0.935066,437.556,-99.9504,-849.355,10969.1,-315.846,2.55515,-22.3566,-46.4505,365.353,-14082.3,1776.28,-89.1945,13.907,-404.332,-4359.02,9454.37,-3445.39,79.6527,-75.0231,-99.8107,-6183.12,-4883.3,556.458,-12.2668,122.925,-72.3694,8769.66,1518.21,-484.2,-2.93605,10.1688,-20.1347
1.851,5589.32,-2760.41,8487.19,7.76992,-0.275133,-30.3949,11331.5,311.48,13643.9,-1.4577,437.619,-100.872,-907.449,11044.9,-279.468,2.2397,-23.2005,-46.1017,326.36,-14231.3,1704.49,-90.2666,16.1011,-405.303,-4423.2,9492.66,-3420.72,80.4369,-76.759,-100.567,-6228.28,-4808.99,485.89,-12.2881,120.873,-72.7162,8762.17,1533.66,-506.746,-2.96715,9.94065,-19.82
1.852,5593.97,-2729.16,8515.18,7.47242,-0.516386,-30.8268,11490.8,401.755,13737.6,-1.98033,437.682,-101.793,-965.543,11120.8,-243.089,1.92425,-24.0445,-45.753,287.366,-14380.3,1632.7,-91.3387,18.2952,-406.274,-4487.37,9530.95,-3396.04,81.2211,-78.4948,-101.324,-6273.43,-4734.67,415.323,-12.3095,118.822,-73.0631,8754.68,1549.11,-529.293,-2.99825,9.71255,-19.5053
1.853,5598.62,-2697.91,8543.17,7.17491,-0.757639,-31.2588,11650.1,492.03,13831.4,-2.50297,437.745,-102.714,-1023.64,11196.6,-206.711,1.6088,-24.8884,-45.4042,248.373,-14529.3,1560.91,-92.4108,20.4893,-407.245,-4551.54,9569.23,-3371.36,82.0053,-80.2306,-102.08,-6318.59,-4660.36,344.756,-12.3308,116.77,-73.4099,8747.19,1564.56,-551.839,-3.02935,9.48444,-19.1906
1.854,5602.17,-2674.16,8591.1,6.66907,-1.14194,-31.6097,11726.9,582.988,13919.7,-3.31,437.291,-103.823,-1064.01,11266.2,-238.039,1.37784,-25.7057,-44.9949,214.744,-14707.7,1484.62,-93.5409,23.1005,-408.12,-4598.96,9609.84,-3356.44,82.8722,-82.3589,-102.919,-6369.33,-4615.91,295.569,-12.04,114.132,-73.7564,8737.23,1562.76,-569.498,-2.99477,9.23265,-18.9586
1.855,5605.15,-2654.16,8649.02,6.05907,-1.59776,-31.9201,11762.4,674.288,14005.3,-4.25923,436.579,-105.026,-1095.52,11332.6,-303.219,1.18912,-26.5096,-44.5555,183.798,-14900.6,1406.08,-94.7,25.9201,-408.948,-4638,9651.61,-3346.4,83.7804,-84.6835,-103.798,-6422.87,-4586.4,257.073,-11.5932,111.2,-74.1026,8726.05,1552.34,-584.712,-2.92736,8.96902,-18.7679
1.856,5608.14,-2634.16,8706.93,5.44907,-2.05357,-32.2304,11797.9,765.588,14091,-5.20845,435.867,-106.229,-1127.03,11399,-368.4,1.0004,-27.3135,-44.116,152.851,-15093.6,1327.55,-95.8592,28.7398,-409.775,-4677.04,9693.37,-3336.36,84.6885,-87.0081,-104.677,-6476.4,-4556.88,218.576,-11.1464,108.268,-74.4489,8714.86,1541.92,-599.927,-2.85994,8.70539,-18.5772
1.857,5611.12,-2614.16,8764.84,4.83907,-2.50939,-32.5408,11833.4,856.888,14176.6,-6.15768,435.154,-107.431,-1158.54,11465.5,-433.58,0.81168,-28.1174,-43.6765,121.905,-15286.6,1249.02,-97.0183,31.5595,-410.603,-4716.08,9735.14,-3326.32,85.5967,-89.3327,-105.556,-6529.94,-4527.37,180.08,-10.6995,105.336,-74.7951,8703.68,1531.5,-615.142,-2.79253,8.44176,-18.3865
1.858,5606.11,-2593.04,8806.46,4.13629,-3.03877,-32.872,11851.3,933.524,14277,-7.15836,434.011,-108.649,-1169.62,11531.5,-471.908,0.656194,-28.9247,-43.2594,96.2312,-15487.4,1164.53,-98.1739,34.5154,-411.406,-4751.24,9777.65,-3314.18,86.5682,-91.7878,-106.467,-6595.68,-4507.84,146.867,-10.065,102.349,-75.0643,8695.43,1520.46,-624.074,-2.7616,8.1771,-18.213
1.859,5573.14,-2568.01,8791.07,3.10878,-3.82557,-33.2764,11807.7,958.84,14429.4,-8.33909,431.359,-109.919,-1109.17,11596.2,-416.254,0.617025,-29.7438,-42.921,89.0125,-15715.6,1059.23,-99.3169,37.9485,-412.124,-4772.81,9822.79,-3294.71,87.7613,-94.6997,-107.488,-6704.14,-4523.28,132.147,-8.77368,99.1684,-75.0636,8697.44,1507.25,-611.014,-2.85834,7.90881,-18.0996
1.86,5540.16,-2542.97,8775.68,2.08127,-4.61238,-33.6808,11764,984.156,14581.7,-9.51982,428.707,-111.189,-1048.71,11660.9,-360.599,0.577856,-30.5629,-42.5826,81.7938,-15943.8,953.922,-100.46,41.3815,-412.843,-4794.38,9867.92,-3275.24,88.9543,-97.6117,-108.509,-6812.59,-4538.72,117.427,-7.48235,95.9875,-75.063,8699.45,1494.03,-597.954,-2.95509,7.64053,-17.9862
1.861,5507.18,-2517.93,8760.29,1.05377,-5.39919,-34.0852,11720.4,1009.47,14734,-10.7006,426.056,-112.46,-988.26,11725.6,-304.945,0.538687,-31.382,-42.2441,74.575,-16172,848.617,-101.603,44.8146,-413.561,-4815.95,9913.05,-3255.77,90.1474,-100.524,-109.531,-6921.05,-4554.15,102.707,-6.19101,92.8065,-75.0624,8701.47,1480.82,-584.894,-3.05183,7.37225,-17.8728
1.862,5474.2,-2492.89,8744.9,0.0262558,-6.186,-34.4896,11676.7,1034.79,14886.3,-11.8813,423.404,-113.73,-927.807,11790.3,-249.29,0.499518,-32.2011,-41.9057,67.3563,-16400.2,743.312,-102.746,48.2476,-414.279,-4837.52,9958.19,-3236.3,91.3404,-103.436,-110.552,-7029.51,-4569.59,87.9874,-4.89968,89.6256,-75.0618,8703.48,1467.61,-571.834,-3.14858,7.10397,-17.7594
1.863,5481.03,-2498.87,8775.46,-1.57545,-6.91946,-34.9464,11552.3,983.456,14978.7,-12.9373,419.943,-115.489,-879.251,11772.1,-256.465,0.511111,-33.0696,-41.4799,122.248,-16672.4,749.834,-103.756,52.1015,-414.943,-4821.15,9991.43,-3251.01,92.8846,-106.592,-111.132,-7138.08,-4602.75,75.3036,-3.51949,87.1507,-74.4976,8718.08,1481.63,-565.718,-2.99889,6.80235,-17.5965
1.864,5499.23,-2513.71,8819.14,-3.3412,-7.63769,-35.4181,11404.9,910.225,15053.9,-13.9577,416.25,-117.388,-834.094,11730.3,-281.59,0.537207,-33.9522,-41.029,194.886,-16957.2,788.305,-104.728,56.0757,-415.59,-4793.94,10021.3,-3275.49,94.529,-109.819,-111.586,-7246.69,-4640.97,63.2016,-2.1139,84.8775,-73.7724,8736.28,1503.44,-561.587,-2.77878,6.4912,-17.4196
1.865,5517.43,-2528.56,8862.83,-5.10696,-8.35591,-35.8899,11257.4,836.994,15129.1,-14.9781,412.558,-119.288,-788.937,11688.4,-306.716,0.563302,-34.8348,-40.5782,267.523,-17242,826.777,-105.7,60.0498,-416.238,-4766.72,10051.1,-3299.96,96.1735,-113.045,-112.04,-7355.3,-4679.19,51.0996,-0.708321,82.6044,-73.0473,8754.47,1525.25,-557.456,-2.55868,6.18004,-17.2426
1.866,5535.63,-2543.4,8906.51,-6.87272,-9.07413,-36.3616,11110,763.763,15204.3,-15.9985,408.866,-121.187,-743.78,11646.6,-331.841,0.589398,-35.7175,-40.1274,340.161,-17526.8,865.248,-106.672,64.024,-416.886,-4739.51,10081,-3324.44,97.818,-116.272,-112.494,-7463.9,-4717.42,38.9975,0.697261,80.3312,-72.3221,8772.67,1547.05,-553.324,-2.33858,5.86889,-17.0657
1.867,5558.52,-2589.72,8910.13,-8.99444,-9.72888,-36.9952,11021.3,742.078,15250.6,-16.8005,404.987,-122.997,-735.022,11615.6,-437.402,0.69778,-36.7341,-39.7947,409.62,-17824.4,929.837,-107.547,67.9522,-417.565,-4719.84,10108.9,-3355.58,99.2074,-119.526,-113.259,-7554.94,-4775.98,72.397,2.20644,78.3128,-71.4759,8792.82,1571.47,-556.821,-2.19026,5.52035,-16.9066
1.868,5590.8,-2699,8833.62,-11.8281,-10.2567,-37.9525,11050.1,823.488,15238.9,-17.1658,400.736,-124.63,-799.063,11606.5,-703.832,0.970736,-38.0189,-39.6981,472.72,-18147.4,1046.66,-108.229,71.7885,-418.307,-4715.27,10133,-3400.05,100.086,-122.835,-114.647,-7610.82,-4875.2,196.799,3.92281,76.8039,-70.3878,8816.85,1601.1,-575.575,-2.18552,5.09703,-16.7833
1.869,5623.08,-2808.28,8757.11,-14.6617,-10.7845,-38.9098,11078.9,904.898,15227.2,-17.5311,396.485,-126.263,-863.105,11597.3,-970.262,1.24369,-39.3037,-39.6014,535.82,-18470.5,1163.48,-108.91,75.6248,-419.049,-4710.7,10157.2,-3444.51,100.966,-126.145,-116.035,-7666.7,-4974.43,321.202,5.63918,75.2951,-69.2996,8840.89,1630.72,-594.329,-2.18077,4.67371,-16.66
1.87,5655.36,-2917.56,8680.6,-17.4954,-11.3122,-39.8671,11107.7,986.307,15215.5,-17.8964,392.233,-127.896,-927.146,11588.1,-1236.69,1.51665,-40.5885,-39.5048,598.92,-18793.6,1280.31,-109.592,79.4612,-419.792,-4706.13,10181.3,-3488.98,101.845,-129.454,-117.423,-7722.58,-5073.66,445.605,7.35555,73.7862,-68.2115,8864.92,1660.35,-613.083,-2.17603,4.2504,-16.5367
1.871,5687.63,-3026.84,8604.09,-20.329,-11.84,-40.8244,11136.5,1067.72,15203.8,-18.2616,387.982,-129.529,-991.187,11578.9,-1503.12,1.7896,-41.8733,-39.4082,662.02,-19116.7,1397.13,-110.273,83.2975,-420.534,-4701.56,10205.4,-3533.45,102.724,-132.764,-118.811,-7778.46,-5172.89,570.007,9.07192,72.2773,-67.1234,8888.96,1689.98,-631.837,-2.17129,3.82708,-16.4134
1.872,5725.69,-3101.2,8577.83,-24.5078,-12.4945,-42.3459,11280.1,1283.36,15166.8,-17.5166,383.96,-130.826,-1077.4,11609.2,-1797.88,2.42585,-43.0291,-39.0922,616.274,-19404.6,1457.14,-110.679,86.5818,-421.05,-4660.72,10224.7,-3552.68,103.33,-135.772,-120.316,-7720.46,-5284.82,807.7,10.9208,69.7805,-66.2163,8924.52,1689.02,-674.965,-2.47413,3.3679,-16.1753
1.873,5764.46,-3171.2,8557.86,-28.8547,-13.1648,-43.9379,11438,1515.79,15126.5,-16.6327,379.967,-132.081,-1166.38,11644.4,-2096.19,3.10752,-44.1688,-38.7488,556.922,-19688,1510.05,-111.05,89.797,-421.537,-4615.36,10243.4,-3568.77,103.902,-138.742,-121.836,-7648.22,-5398.35,1059.55,12.7863,67.1602,-65.3319,8961.53,1684.24,-721.139,-2.81543,2.90424,-15.9229
1.874,5803.24,-3241.2,8537.88,-33.2017,-13.8351,-45.5299,11595.9,1748.22,15086.3,-15.7488,375.974,-133.335,-1255.37,11679.6,-2394.49,3.78918,-45.3085,-38.4054,497.57,-19971.4,1562.96,-111.421,93.0123,-422.024,-4569.99,10262.1,-3584.85,104.474,-141.712,-123.355,-7575.98,-5511.88,1311.41,14.6518,64.5398,-64.4475,8998.53,1679.46,-767.313,-3.15673,2.44059,-15.6704
1.875,5842.02,-3311.2,8517.91,-37.5486,-14.5053,-47.122,11753.9,1980.64,15046,-14.8649,371.981,-134.59,-1344.35,11714.8,-2692.79,4.47084,-46.4482,-38.062,438.218,-20254.8,1615.87,-111.793,96.2276,-422.512,-4524.62,10280.8,-3600.93,105.046,-144.682,-124.875,-7503.74,-5625.4,1563.26,16.5173,61.9195,-63.5631,9035.54,1674.68,-813.487,-3.49802,1.97693,-15.4179
1.876,5893.56,-3556.51,8514.22,-39.1952,-15.0141,-48.422,11995.7,2186.82,15051,-13.5773,368.02,-136.243,-1482.78,11749.9,-3064.63,5.32882,-49.3699,-37.5747,351.027,-20542.7,1688.49,-111.728,99.1344,-422.688,-4462.66,10303.5,-3617.63,105.489,-147.516,-126.355,-7370.31,-5716.36,1845.23,18.6599,57.9735,-62.94,9075.82,1666.77,-858.793,-3.8244,1.60346,-15.1539
1.877,5961.07,-4020.96,8530.89,-37.4665,-15.3211,-49.3571,12342.3,2360.2,15112.5,-11.7849,364.099,-138.394,-1683,11784.6,-3528.4,6.40718,-54.5191,-36.9076,229.039,-20836.3,1785.77,-111.117,101.656,-422.476,-4379.95,10331,-3635.09,105.77,-150.18,-127.787,-7160.4,-5779.12,2164.82,21.1488,52.3703,-62.6433,9120.2,1654.95,-903.012,-4.13214,1.34274,-14.8755
1.878,6028.58,-4485.41,8547.56,-35.7377,-15.628,-50.2921,12688.9,2533.58,15174.1,-9.9925,360.177,-140.546,-1883.23,11819.4,-3992.17,7.48555,-59.6683,-36.2404,107.05,-21129.9,1883.05,-110.507,104.177,-422.264,-4297.24,10358.5,-3652.55,106.051,-152.843,-129.219,-6950.49,-5841.87,2484.42,23.6377,46.7672,-62.3466,9164.58,1643.13,-947.232,-4.43987,1.08202,-14.5971
1.879,6096.09,-4949.86,8564.24,-34.0089,-15.9349,-51.2272,13035.5,2706.95,15235.6,-8.20011,356.256,-142.697,-2083.46,11854.1,-4455.94,8.56391,-64.8175,-35.5733,-14.9387,-21423.5,1980.32,-109.896,106.698,-422.052,-4214.53,10386.1,-3670.02,106.332,-155.507,-130.651,-6740.57,-5904.63,2804.02,26.1266,41.164,-62.05,9208.96,1631.31,-991.451,-4.74761,0.821298,-14.3187
1.88,6163.6,-5414.31,8580.91,-32.2802,-16.2418,-52.1623,13382,2880.33,15297.1,-6.40771,352.334,-144.849,-2283.69,11888.9,-4919.71,9.64228,-69.9667,-34.9062,-136.927,-21717.1,2077.6,-109.286,109.219,-421.84,-4131.82,10413.6,-3687.48,106.613,-158.171,-132.084,-6530.66,-5967.38,3123.62,28.6155,35.5609,-61.7533,9253.34,1619.49,-1035.67,-5.05535,0.560575,-14.0403
1.881,5886.76,-5803.76,8664.04,-33.6881,-17.06,-56.6561,13844.8,2680.1,15463.7,-5.54401,348.595,-149.114,-2212.11,11742.4,-5075.84,8.35173,-69.7427,-36.3338,-349.345,-22002.3,2208.65,-107.938,111.81,-421.137,-4047.56,10439.3,-3838.8,106.866,-159.684,-133.083,-6321.14,-6005.75,3180.65,30.8206,28.0704,-61.7847,9277.41,1619.86,-1082.28,-5.13834,0.280276,-13.9063
1.882,5609.93,-6193.21,8747.18,-35.0959,-17.8782,-61.15,14307.6,2479.87,15630.2,-4.68031,344.855,-153.38,-2140.53,11596,-5231.97,7.06118,-69.5187,-37.7615,-561.763,-22287.6,2339.69,-106.59,114.402,-420.434,-3963.31,10465,-3990.13,107.12,-161.198,-134.082,-6111.63,-6044.11,3237.69,33.0257,20.5799,-61.816,9301.47,1620.23,-1128.9,-5.22133,-2.35E-05,-13.7722
1.883,5333.09,-6582.66,8830.31,-36.5038,-18.6963,-65.6439,14770.4,2279.64,15796.8,-3.8166,341.116,-157.646,-2068.95,11449.5,-5388.1,5.77063,-69.2946,-39.1891,-774.18,-22572.9,2470.74,-105.242,116.993,-419.732,-3879.05,10490.7,-4141.46,107.373,-162.711,-135.081,-5902.12,-6082.48,3294.73,35.2308,13.0894,-61.8473,9325.54,1620.6,-1175.51,-5.30432,-0.280323,-13.6382
1.884,5056.25,-6972.11,8913.44,-37.9117,-19.5145,-70.1377,15233.2,2079.4,15963.3,-2.9529,337.376,-161.912,-1997.37,11303,-5544.23,4.48009,-69.0706,-40.6168,-986.598,-22858.2,2601.79,-103.894,119.584,-419.029,-3794.79,10516.3,-4292.78,107.626,-164.225,-136.08,-5692.6,-6120.84,3351.76,37.4359,5.59889,-61.8786,9349.6,1620.97,-1222.13,-5.38731,-0.560622,-13.5041
1.885,4851.35,-6449.55,9049.88,-38.4686,-20.5406,-72.2447,15741.6,1956.97,16045,-3.75024,333.773,-166.883,-1571.94,11486.4,-4959,2.82641,-69.965,-41.1503,-1251.57,-23116.4,2672.96,-102.468,122.327,-418.283,-3706.77,10548.3,-4473.71,108.438,-165.472,-136.99,-5499.45,-6132.74,3329.14,39.3119,-1.47916,-61.6281,9372.67,1622.02,-1242.61,-5.52618,-0.849479,-13.3538
1.886,4703.98,-5197.38,9228.95,-38.3449,-21.7332,-72.4422,16286.6,1896.76,16058.7,-5.8764,330.281,-172.418,-863.433,11933.6,-3780.68,0.882222,-71.7542,-40.9685,-1558.58,-23353,2696.23,-100.979,125.191,-417.503,-3615.74,10585.2,-4678.31,109.698,-166.507,-137.828,-5319.38,-6123.45,3242.8,40.9246,-8.22725,-61.1522,9394.96,1623.61,-1242.18,-5.70976,-1.14518,-13.1905
1.887,4556.61,-3945.2,9408.03,-38.2211,-22.9258,-72.6397,16831.7,1836.55,16072.4,-8.00256,326.788,-177.953,-154.926,12380.9,-2602.36,-1.06196,-73.5433,-40.7868,-1865.59,-23589.5,2719.49,-99.4901,128.055,-416.724,-3524.7,10622.1,-4882.92,110.958,-167.541,-138.666,-5139.31,-6114.16,3156.45,42.5373,-14.9753,-60.6762,9417.24,1625.2,-1241.76,-5.89334,-1.44089,-13.0272
1.888,4409.25,-2693.02,9587.1,-38.0974,-24.1185,-72.8372,17376.7,1776.35,16086.1,-10.1287,323.295,-183.488,553.582,12828.1,-1424.04,-3.00615,-75.3325,-40.605,-2172.6,-23826,2742.75,-98.0011,130.92,-415.944,-3433.67,10659,-5087.52,112.217,-168.576,-139.504,-4959.24,-6104.88,3070.1,44.15,-21.7234,-60.2003,9439.52,1626.79,-1241.33,-6.07692,-1.73659,-12.8639
1.889,4302.51,-1578.97,9736.67,-38.0277,-25.2766,-72.9506,17913,1763.71,16092.3,-12.509,319.857,-189.027,1159.29,13227.6,-353.1,-4.84092,-77.1138,-40.3954,-2491.1,-24051.6,2747.3,-96.5491,133.886,-415.145,-3339.5,10691.8,-5283.19,113.611,-169.629,-140.274,-4780.06,-6094.81,2984.44,45.7101,-28.0788,-59.6348,9458.4,1629.66,-1244.37,-6.27061,-1.99455,-12.6966
1.89,4520.79,-1569.87,9650.21,-38.3905,-26.1589,-72.3904,18379.4,2131.69,16038.5,-16.9218,316.862,-194.595,942.563,13244.8,-141.189,-5.80037,-78.833,-39.9631,-2901.51,-24189.8,2602.06,-95.3938,137.669,-414.189,-3220.23,10691.7,-5407.3,116.08,-170.833,-140.498,-4607.95,-6078.48,2904.27,46.8496,-31.2923,-58.3528,9450.08,1642.76,-1275.13,-6.54517,-1.95056,-12.4971
1.891,4739.07,-1560.77,9563.75,-38.7534,-27.0412,-71.8303,18845.8,2499.67,15984.7,-21.3346,313.866,-200.164,725.84,13262,70.721,-6.75983,-80.5521,-39.5308,-3311.93,-24328,2456.81,-94.2384,141.452,-413.233,-3100.96,10691.6,-5531.42,118.549,-172.036,-140.721,-4435.85,-6062.15,2824.09,47.9891,-34.5059,-57.0709,9441.75,1655.87,-1305.89,-6.81973,-1.90657,-12.2977
1.892,4957.35,-1551.67,9477.29,-39.1162,-27.9235,-71.2701,19312.2,2867.65,15930.9,-25.7474,310.871,-205.733,509.117,13279.2,282.631,-7.71928,-82.2713,-39.0984,-3722.35,-24466.2,2311.57,-93.0831,145.234,-412.278,-2981.69,10691.6,-5655.54,121.017,-173.239,-140.945,-4263.75,-6045.83,2743.92,49.1285,-37.7194,-55.7889,9433.43,1668.97,-1336.64,-7.09429,-1.86258,-12.0982
1.893,5175.63,-1542.57,9390.83,-39.4791,-28.8058,-70.71,19778.6,3235.62,15877.1,-30.1603,307.875,-211.301,292.393,13296.4,494.542,-8.67873,-83.9904,-38.6661,-4132.77,-24604.4,2166.33,-91.9277,149.017,-411.322,-2862.42,10691.5,-5779.66,123.486,-174.443,-141.169,-4091.65,-6029.5,2663.75,50.268,-40.933,-54.507,9425.1,1682.08,-1367.4,-7.36884,-1.81859,-11.8987
1.894,5285.8,-1780.67,9324.27,-39.1938,-29.7463,-70.5371,20226.8,3557.69,15591.1,-33.7791,305.241,-215.953,73.5426,13215.1,445.316,-8.97452,-84.4882,-38.409,-4497.25,-24694.7,1960.26,-90.5964,153.411,-410.078,-2694.42,10698.2,-5795.24,125.792,-176.113,-141.023,-3850.38,-6095.1,2623.41,51.7147,-41.3872,-52.7298,9394.01,1694.62,-1383.83,-7.87938,-1.69513,-11.6103
1.895,5341.9,-2142.37,9267.66,-38.5844,-30.7159,-70.5579,20665.9,3856.8,15189,-37.0009,302.788,-220.146,-146.372,13084.4,265.522,-8.93846,-84.3754,-38.2395,-4838.76,-24761.1,1723.76,-89.1772,158.11,-408.69,-2502.05,10708.2,-5756.55,128.017,-178.017,-140.691,-3574.52,-6201.67,2603,53.3152,-40.4618,-50.705,9351.54,1706.89,-1393.1,-8.5079,-1.53194,-11.2774
1.896,5398,-2504.06,9211.05,-37.975,-31.6855,-70.5787,21105,4155.9,14786.9,-40.2227,300.335,-224.339,-366.287,12953.8,85.7285,-8.90241,-84.2625,-38.0701,-5180.27,-24827.4,1487.27,-87.758,162.81,-407.302,-2309.68,10718.3,-5717.86,130.242,-179.921,-140.36,-3298.67,-6308.23,2582.58,54.9156,-39.5364,-48.6803,9309.07,1719.15,-1402.36,-9.13643,-1.36874,-10.9444
1.897,5454.11,-2865.76,9154.44,-37.3656,-32.6551,-70.5995,21544.1,4455.01,14384.8,-43.4444,297.882,-228.533,-586.202,12823.1,-94.0653,-8.86636,-84.1497,-37.9006,-5521.78,-24893.8,1250.78,-86.3388,167.509,-405.914,-2117.31,10728.3,-5679.17,132.466,-181.825,-140.028,-3022.81,-6414.79,2562.17,56.516,-38.6109,-46.6555,9266.6,1731.42,-1411.63,-9.76495,-1.20554,-10.6115
1.898,5489.66,-3135.31,9096.41,-36.8226,-33.59,-70.7847,21973,4695.14,14103.5,-47.17,295.099,-232.412,-724.896,12682.9,-228.963,-8.89211,-84.0955,-37.8318,-5847.96,-24951.1,1031.11,-84.9713,172.296,-404.389,-1909.65,10740.1,-5610.44,134.329,-183.804,-139.653,-2742.23,-6532.36,2560.35,58.2351,-36.9428,-44.5876,9225.81,1743.6,-1420.39,-10.4426,-1.03347,-10.3064
1.899,5453.26,-3082.33,9033.36,-36.5124,-34.4038,-71.5452,22366.3,4728.84,14244.6,-52.6586,291.161,-235.192,-579.317,12509.4,-206.724,-9.1342,-84.2469,-38.115,-6120.5,-24976.4,870.329,-83.7848,177.387,-402.387,-1648.47,10757.9,-5436.52,134.923,-186.046,-139.122,-2445.09,-6688.42,2623.6,60.3693,-32.6753,-42.369,9190.93,1755.49,-1427.41,-11.2922,-0.83033,-10.0987
1.9,5416.86,-3029.35,8970.32,-36.2021,-35.2175,-72.3057,22759.6,4762.55,14385.7,-58.1473,287.223,-237.972,-433.738,12335.9,-184.485,-9.3763,-84.3982,-38.3982,-6393.04,-25001.8,709.547,-82.5982,182.477,-400.385,-1387.29,10775.7,-5262.61,135.517,-188.287,-138.592,-2147.95,-6844.47,2686.85,62.5035,-28.4078,-40.1504,9156.05,1767.38,-1434.43,-12.1418,-0.627188,-9.89101
1.901,5380.46,-2976.37,8907.27,-35.8918,-36.0313,-73.0663,23152.9,4796.25,14526.8,-63.6359,283.284,-240.753,-288.159,12162.3,-162.246,-9.61839,-84.5495,-38.6814,-6665.57,-25027.2,548.765,-81.4117,187.568,-398.384,-1126.11,10793.5,-5088.7,136.112,-190.529,-138.061,-1850.81,-7000.53,2750.11,64.6377,-24.1403,-37.9318,9121.16,1779.28,-1441.45,-12.9915,-0.424046,-9.68329
1.902,5344.06,-2923.39,8844.23,-35.5816,-36.845,-73.8268,23546.3,4829.95,14667.9,-69.1246,279.346,-243.533,-142.581,11988.8,-140.007,-9.86048,-84.7009,-38.9646,-6938.11,-25052.6,387.983,-80.2251,192.659,-396.382,-864.926,10811.3,-4914.78,136.706,-192.77,-137.531,-1553.67,-7156.59,2813.36,66.7719,-19.8728,-35.7132,9086.28,1791.17,-1448.47,-13.8411,-0.220905,-9.47557
1.903,5335.17,-2710.94,8859.92,-35.434,-37.7059,-73.8251,24159.4,4850.25,14411.6,-75.5529,276.423,-245.041,25.4064,11911.5,-54.744,-10.1946,-84.5804,-39.5394,-7355.76,-25067.8,162.564,-79.1257,196.732,-393.175,-635.382,10772.4,-4672.79,136.097,-194.081,-137.032,-1206.36,-7307.64,2900.39,68.9158,-15.2716,-33.8,9073.06,1788.04,-1444.25,-14.5302,-0.0423441,-9.60696
1.904,5334.14,-2452.92,8898.11,-35.3328,-38.5802,-73.6058,24835.3,4866.71,14041.7,-82.2498,273.791,-246.186,199.796,11861.8,48.5252,-10.5551,-84.3824,-40.1975,-7814.86,-25080.1,-81.322,-78.0511,200.515,-389.625,-414.877,10717.3,-4411.35,135.144,-195.125,-136.543,-844.729,-7457.27,2994.2,71.0626,-10.5751,-31.9742,9066.03,1780.61,-1436.83,-15.1735,0.129193,-9.83523
1.905,5333.11,-2194.9,8936.3,-35.2317,-39.4546,-73.3864,25511.2,4883.18,13671.8,-88.9466,271.159,-247.33,374.185,11812,151.795,-10.9156,-84.1843,-40.8556,-8273.96,-25092.4,-325.208,-76.9765,204.297,-386.074,-194.373,10662.1,-4149.9,134.191,-196.169,-136.053,-483.093,-7606.89,3088.02,73.2093,-5.87867,-30.1483,9059.01,1773.19,-1429.4,-15.8168,0.300731,-10.0635
1.906,5332.08,-1936.88,8974.49,-35.1306,-40.3289,-73.167,26187.1,4899.65,13301.9,-95.6435,268.527,-248.475,548.575,11762.3,255.064,-11.276,-83.9862,-41.5137,-8733.07,-25104.7,-569.094,-75.9019,208.079,-382.524,26.1314,10607,-3888.46,133.238,-197.214,-135.564,-121.457,-7756.52,3181.84,75.356,-1.18221,-28.3224,9051.98,1765.76,-1421.98,-16.4602,0.472269,-10.2918
1.907,5320.47,-1755.03,9001.41,-35.0104,-41.201,-72.8698,26921.3,4841.7,12815.1,-100.947,266.549,-249.021,701.702,11705,356.802,-11.5692,-83.6659,-42.2551,-9310.35,-25144.6,-781.154,-74.601,211.089,-378.509,251.324,10560.6,-3643.33,131.848,-197.77,-135.062,241.624,-7897.45,3226.11,76.9807,2.94418,-26.7812,9045.35,1764.15,-1420.18,-17.098,0.722515,-10.6905
1.908,5287.69,-1725.51,9005.78,-34.8523,-42.0685,-72.417,27772,4634.92,12094.6,-103.465,265.878,-248.371,812.306,11632.9,455.48,-11.7278,-83.1009,-43.1631,-10124,-25239.7,-929.56,-72.8475,212.555,-373.567,485.893,10531.7,-3430.83,129.581,-197.351,-134.537,607.595,-8020.98,3171.32,77.5612,5.9304,-25.8096,9039.52,1774.16,-1429.66,-17.725,1.13018,-11.43
1.909,5254.92,-1695.99,9010.16,-34.6942,-42.936,-71.9642,28622.8,4428.15,11374.2,-105.984,265.207,-247.722,922.91,11560.7,554.158,-11.8865,-82.5359,-44.0711,-10937.7,-25334.8,-1077.97,-71.094,214.021,-368.625,720.463,10502.8,-3218.33,127.315,-196.931,-134.012,973.565,-8144.52,3116.52,78.1417,8.91663,-24.8381,9033.69,1784.17,-1439.13,-18.352,1.53784,-12.1696
1.91,5222.15,-1666.47,9014.53,-34.536,-43.8035,-71.5115,29473.5,4221.37,10653.7,-108.502,264.537,-247.072,1033.51,11488.5,652.835,-12.0451,-81.9708,-44.9791,-11751.3,-25429.8,-1226.37,-69.3405,215.487,-363.683,955.032,10474,-3005.82,125.048,-196.512,-133.486,1339.54,-8268.05,3061.72,78.7223,11.9029,-23.8665,9027.86,1794.18,-1448.6,-18.9789,1.9455,-12.9092
1.911,5189.38,-1636.96,9018.91,-34.3779,-44.671,-71.0587,30324.3,4014.59,9933.24,-111.02,263.866,-246.422,1144.12,11416.4,751.513,-12.2037,-81.4058,-45.8871,-12565,-25524.9,-1374.78,-67.587,216.954,-358.741,1189.6,10445.1,-2793.32,122.781,-196.092,-132.961,1705.51,-8391.59,3006.93,79.3028,14.8891,-22.8949,9022.03,1804.2,-1458.07,-19.6059,2.35317,-13.6488
1.912,5158.34,-1657.55,9008.65,-33.9581,-45.496,-70.4871,30805.2,3187.31,9517.42,-113.765,263.238,-245.277,1242.45,11339.6,822.536,-12.2791,-80.4885,-46.9299,-13323,-25623.9,-1344.8,-64.9519,216.37,-354.063,1392.75,10450.7,-2542.37,120.258,-194.409,-132.383,2141.18,-8422.86,2819.88,77.4496,16.6059,-21.5084,9034.93,1847.43,-1468.58,-20.0318,2.98677,-14.3461
1.913,5127.51,-1684.4,8996.55,-33.5056,-46.3157,-69.9006,31240,2282.47,9139.68,-116.538,262.615,-244.071,1339.25,11262.3,890.102,-12.3442,-79.5271,-47.9896,-14074.1,-25723.3,-1292.52,-62.2067,215.53,-349.417,1591.97,10460.5,-2286.61,117.702,-192.567,-131.799,2585.56,-8442.59,2616.31,75.2921,18.1641,-20.07,9050.18,1894.81,-1479.22,-20.4327,3.64861,-15.0383
1.914,5096.68,-1711.26,8984.46,-33.0532,-47.1354,-69.3142,31674.7,1377.63,8761.94,-119.311,261.992,-242.864,1436.05,11185,957.669,-12.4092,-78.5657,-49.0493,-14825.2,-25822.7,-1240.24,-59.4614,214.689,-344.772,1791.19,10470.4,-2030.85,115.147,-190.725,-131.215,3029.94,-8462.33,2412.73,73.1347,19.7223,-18.6316,9065.42,1942.19,-1489.85,-20.8335,4.31044,-15.7304
1.915,5065.86,-1738.11,8972.36,-32.6007,-47.9551,-68.7277,32109.5,472.784,8384.2,-122.084,261.37,-241.658,1532.85,11107.7,1025.24,-12.4742,-77.6043,-50.109,-15576.3,-25922.2,-1187.96,-56.7162,213.849,-340.126,1990.4,10480.2,-1775.09,112.591,-188.884,-130.631,3474.32,-8482.07,2209.16,70.9773,21.2805,-17.1933,9080.67,1989.57,-1500.49,-21.2344,4.97228,-16.4225
1.916,5047.77,-1746.18,8973.53,-32.0772,-48.8119,-68.1767,32386.2,-6.04952,7913.64,-124.316,261.008,-239.398,1629.69,11052.3,1081.32,-12.611,-76.618,-51.2425,-16200.1,-25885.8,-1143.18,-54.3229,212.056,-335.904,2173.93,10491.1,-1511.89,110.025,-186.696,-130.002,3925.21,-8502.68,1964.89,67.3359,22.3191,-15.1444,9093.85,2050.11,-1505.01,-21.623,5.75259,-17.0601
1.917,5045.61,-1730.77,8991.27,-31.4649,-49.715,-67.67,32465.3,47.628,7327.04,-125.872,260.971,-235.82,1726.58,11024.2,1123.05,-12.8376,-75.6005,-52.4683,-16665,-25679.7,-1107.77,-52.3694,209.071,-332.212,2337.84,10503.2,-1239.39,107.444,-184.075,-129.319,4384.22,-8524.39,1669.74,61.8395,22.7081,-12.3324,9104.45,2127.08,-1501.89,-21.9964,6.68098,-17.6297
1.918,5043.45,-1715.36,9009,-30.8527,-50.6182,-67.1633,32544.4,101.306,6740.44,-127.427,260.934,-232.243,1823.47,10996.2,1164.78,-13.0641,-74.583,-53.694,-17129.8,-25473.6,-1072.37,-50.416,206.086,-328.519,2501.75,10515.3,-966.898,104.864,-181.455,-128.636,4843.24,-8546.11,1374.6,56.3431,23.0972,-9.52044,9115.06,2204.05,-1498.77,-22.3697,7.60936,-18.1993
1.919,5041.29,-1699.94,9026.74,-30.2404,-51.5213,-66.6567,32623.5,154.983,6153.85,-128.982,260.898,-228.665,1920.36,10968.2,1206.51,-13.2906,-73.5655,-54.9198,-17594.6,-25267.5,-1036.96,-48.4625,203.102,-324.827,2665.66,10527.5,-694.402,102.283,-178.834,-127.952,5302.25,-8567.82,1079.46,50.8467,23.4862,-6.70846,9125.67,2281.02,-1495.65,-22.7431,8.53775,-18.7688
1.92,5039.13,-1684.53,9044.48,-29.6281,-52.4245,-66.15,32702.6,208.661,5567.25,-130.537,260.861,-225.088,2017.25,10940.2,1248.24,-13.5172,-72.548,-56.1456,-18059.4,-25061.3,-1001.55,-46.509,200.117,-321.134,2829.57,10539.6,-421.906,99.703,-176.214,-127.269,5761.26,-8589.53,784.32,45.3503,23.8752,-3.89647,9136.27,2358,-1492.53,-23.1165,9.46614,-19.3384
1.921,5033.18,-1614.77,9082.69,-29.1285,-53.4712,-65.5775,32420.2,5.9894,4901.9,-130.146,260.186,-220.716,2082.12,10859.4,1250.8,-13.5313,-70.9525,-57.6557,-18302.3,-24506.2,-1084.83,-45.3042,196.746,-317.603,3034.15,10651,-272.555,97.2325,-172.956,-126.123,6307.92,-8746.83,556.964,38.0016,23.0345,-0.239684,9146.21,2449.24,-1452.95,-23.8326,10.8071,-19.5036
1.922,5027.23,-1545.01,9120.9,-28.6288,-54.5178,-65.005,32137.8,-196.682,4236.56,-129.755,259.51,-216.345,2146.99,10778.6,1253.36,-13.5454,-69.357,-59.1657,-18545.1,-23951.1,-1168.11,-44.0993,193.376,-314.072,3238.73,10762.4,-123.205,94.7619,-169.697,-124.978,6854.57,-8904.13,329.608,30.6529,22.1938,3.4171,9156.15,2540.48,-1413.38,-24.5487,12.1481,-19.6689
1.923,5021.28,-1475.25,9159.11,-28.1292,-55.5645,-64.4326,31855.5,-399.353,3571.22,-129.364,258.835,-211.974,2211.86,10697.9,1255.92,-13.5595,-67.7616,-60.6758,-18787.9,-23395.9,-1251.38,-42.8944,190.005,-310.541,3443.3,10873.8,26.146,92.2913,-166.439,-123.832,7401.23,-9061.43,102.252,23.3042,21.353,7.07388,9166.08,2631.72,-1373.81,-25.2647,13.489,-19.8341
1.924,5015.33,-1405.49,9197.32,-27.6295,-56.6112,-63.8601,31573.1,-602.024,2905.87,-128.973,258.159,-207.602,2276.73,10617.1,1258.47,-13.5736,-66.1661,-62.1858,-19030.7,-22840.8,-1334.66,-41.6895,186.635,-307.01,3647.88,10985.2,175.496,89.8207,-163.181,-122.686,7947.88,-9218.73,-125.104,15.9556,20.5123,10.7307,9176.02,2722.96,-1334.23,-25.9808,14.83,-19.9993
1.925,4993.49,-1342.59,9235.48,-27.1462,-57.7189,-63.1264,31237.7,-894.842,2268.4,-127.712,256.932,-202.557,2351.74,10563.3,1267.29,-13.6981,-64.452,-63.7646,-19091.3,-22242.9,-1341.91,-40.9502,183.367,-303.141,3840.54,11106.8,315.498,87.5228,-159.769,-121.282,8493.94,-9497.43,-240.56,9.0984,18.3877,14.0693,9203.69,2791.82,-1261.29,-26.695,16.226,-20.2012
1.926,4958.94,-1285.18,9273.61,-26.6758,-58.8753,-62.2638,30859.9,-1259.78,1653.21,-125.754,255.262,-196.972,2434.86,10530.9,1281.11,-13.9108,-62.6431,-65.3984,-19006.2,-21610.8,-1288.34,-40.5833,180.181,-299.003,4023.67,11236.6,448.02,85.363,-156.234,-119.672,9039.51,-9873.23,-266.498,2.63445,15.236,17.1535,9245.53,2842.79,-1161.66,-27.4078,17.6661,-20.4324
1.927,4924.4,-1227.78,9311.73,-26.2055,-60.0318,-61.4012,30482.1,-1624.71,1038.03,-123.796,253.593,-191.388,2517.98,10498.5,1294.93,-14.1235,-60.8341,-67.0322,-18921.1,-20978.8,-1234.76,-40.2164,176.995,-294.866,4206.8,11366.4,580.542,83.2032,-152.7,-118.061,9585.09,-10249,-292.436,-3.8295,12.0843,20.2376,9287.38,2893.75,-1062.03,-28.1205,19.1062,-20.6635
1.928,4889.85,-1170.37,9349.86,-25.7351,-61.1882,-60.5386,30104.2,-1989.65,422.848,-121.838,251.924,-185.803,2601.1,10466.2,1308.76,-14.3363,-59.0252,-68.666,-18836,-20346.7,-1181.19,-39.8495,173.809,-290.728,4389.92,11496.2,713.064,81.0434,-149.165,-116.451,10130.7,-10624.8,-318.374,-10.2934,8.93266,23.3218,9329.22,2944.71,-962.396,-28.8332,20.5463,-20.8947
1.929,4850.78,-1123.65,9390.82,-25.2557,-62.3721,-59.6825,29741.4,-2329.05,-195.585,-119.812,250.007,-180.157,2687.72,10434.8,1316.12,-14.513,-57.1867,-70.2934,-18748.7,-19709.6,-1118.87,-39.542,170.619,-286.445,4571.88,11623.2,827.916,78.9075,-145.565,-114.83,10669.4,-11002,-379.458,-16.2883,6.00768,26.3225,9370.63,2992.38,-859.668,-29.498,21.9193,-21.1633
1.93,4775.52,-1162.38,9454.46,-24.7041,-63.7751,-58.8787,29497.9,-2464.25,-840.02,-117.241,246.114,-174.02,2802.34,10411.1,1271.83,-14.4017,-55.112,-71.8689,-18644.1,-19033,-986.589,-39.7093,167.39,-281.006,4744.46,11728.5,801.409,76.9625,-141.446,-113.126,11153.2,-11389.5,-721.712,-18.5308,4.89635,28.6552,9408.56,3013.74,-732.18,-29.7801,22.7559,-21.7318
1.931,4700.26,-1201.12,9518.11,-24.1524,-65.1782,-58.075,29254.4,-2599.45,-1484.45,-114.67,242.221,-167.883,2916.96,10387.5,1227.55,-14.2904,-53.0372,-73.4445,-18539.4,-18356.4,-854.305,-39.8766,164.16,-275.567,4917.04,11833.7,774.902,75.0175,-137.327,-111.422,11637,-11777,-1063.97,-20.7732,3.78501,30.9879,9446.49,3035.1,-604.693,-30.0622,23.5925,-22.3003
1.932,4625,-1239.85,9581.75,-23.6007,-66.5812,-57.2712,29010.9,-2734.65,-2128.89,-112.099,238.328,-161.746,3031.58,10363.8,1183.26,-14.179,-50.9624,-75.0201,-18434.8,-17679.8,-722.022,-40.0439,160.931,-270.129,5089.61,11939,748.394,73.0725,-133.208,-109.718,12120.8,-12164.5,-1406.22,-23.0157,2.67368,33.3206,9484.42,3056.45,-477.206,-30.3442,24.4291,-22.8688
1.933,4549.74,-1278.59,9645.4,-23.049,-67.9842,-56.4674,28767.4,-2869.85,-2773.32,-109.529,234.435,-155.609,3146.2,10340.1,1138.97,-14.0677,-48.8876,-76.5957,-18330.1,-17003.1,-589.738,-40.2112,157.702,-264.69,5262.19,12044.2,721.887,71.1275,-129.089,-108.015,12604.6,-12552,-1748.48,-25.2581,1.56235,35.6533,9522.35,3077.81,-349.718,-30.6263,25.2657,-23.4372
1.934,4501.98,-1335.12,9691.01,-22.6218,-69.5764,-55.7731,28563.4,-2914.46,-3347.64,-106.595,229.914,-149.857,3219.85,10340,1098.79,-14.0696,-46.8009,-78.2337,-18440.6,-16431.5,-491.991,-40.2323,154.725,-258.7,5423.69,12134.3,731.049,69.309,-125.107,-106.233,13065.2,-12899.9,-1993.07,-25.6444,3.31512,36.3455,9539.33,3146.02,-210.15,-30.9857,25.8793,-24.0313
1.935,4467.96,-1400.54,9727.6,-22.257,-71.2631,-55.1336,28379.2,-2913.77,-3886.9,-103.481,225.079,-144.298,3273.02,10351.6,1060.67,-14.1281,-44.7083,-79.9028,-18658.7,-15912.3,-411.512,-40.1803,151.873,-252.434,5579.66,12216.7,758.045,67.5538,-121.194,-104.414,13514.2,-13228,-2188.84,-25.1026,6.49993,36.2176,9545.82,3237.64,-64.5417,-31.3839,26.3814,-24.6381
1.936,4433.95,-1465.97,9764.2,-21.8921,-72.9498,-54.494,28195,-2913.08,-4426.15,-100.366,220.244,-138.739,3326.18,10363.3,1022.55,-14.1866,-42.6157,-81.572,-18876.8,-15393.2,-331.033,-40.1283,149.022,-246.168,5735.62,12299.1,785.041,65.7986,-117.281,-102.594,13963.1,-13556.1,-2384.61,-24.5607,9.68475,36.0896,9552.32,3329.27,81.0669,-31.782,26.8836,-25.2449
1.937,4399.94,-1531.39,9800.79,-21.5273,-74.6365,-53.8545,28010.8,-2912.39,-4965.41,-97.252,215.409,-133.18,3379.35,10374.9,984.42,-14.2451,-40.5231,-83.2411,-19094.9,-14874,-250.554,-40.0763,146.17,-239.903,5891.59,12381.5,812.037,64.0434,-113.368,-100.775,14412.1,-13884.2,-2580.38,-24.0189,12.8696,35.9617,9558.81,3420.89,226.676,-32.1802,27.3857,-25.8517
1.938,4385.89,-1588.64,9827.27,-21.1807,-76.3384,-53.225,27894.3,-3029.63,-5507.41,-94.0341,210.314,-128.127,3421.31,10409.3,956.182,-14.2825,-38.3116,-84.9506,-19411.1,-14407.3,-144.784,-39.8504,143.358,-233.537,6039.8,12469.5,847.039,62.2249,-109.656,-98.9335,14796.2,-14185.5,-2693.79,-22.9968,16.0584,34.9426,9567.36,3508.78,363.956,-32.648,27.7637,-26.4858
1.939,4441.75,-1617.25,9818.34,-20.8981,-78.0936,-52.6306,28015,-3559.6,-6059.01,-90.4539,204.308,-124.843,3424.06,10523.2,962.549,-14.2457,-35.6838,-86.801,-20070.9,-14124.2,49.5054,-39.0161,140.683,-226.822,6160.87,12576.8,910.061,60.1848,-106.646,-97.0164,14953,-14392.6,-2518.96,-20.2935,19.2616,30.8047,9583.1,3583.59,472.086,-33.3595,27.7075,-27.2154
1.94,4497.6,-1645.86,9809.4,-20.6156,-79.8488,-52.0361,28135.7,-4089.58,-6610.6,-86.8737,198.301,-121.559,3426.82,10637.1,968.915,-14.2089,-33.0561,-88.6514,-20730.6,-13841.1,243.794,-38.1818,138.008,-220.107,6281.94,12684,973.082,58.1447,-103.637,-95.0994,15109.9,-14599.7,-2344.13,-17.5902,22.4647,26.6668,9598.84,3658.39,580.217,-34.071,27.6513,-27.9451
1.941,4553.45,-1674.47,9800.47,-20.333,-81.6039,-51.4417,28256.4,-4619.55,-7162.2,-83.2935,192.295,-118.275,3429.57,10751,975.281,-14.1722,-30.4284,-90.5018,-21390.4,-13558,438.083,-37.3476,135.333,-213.391,6403.01,12791.3,1036.1,56.1046,-100.627,-93.1824,15266.7,-14806.8,-2169.3,-14.8869,25.6679,22.5288,9614.58,3733.2,688.348,-34.7826,27.595,-28.6747
1.942,4609.31,-1703.07,9791.54,-20.0504,-83.3591,-50.8473,28377.2,-5149.53,-7713.79,-79.7133,186.289,-114.992,3432.33,10864.9,981.647,-14.1354,-27.8006,-92.3522,-22050.1,-13274.8,632.372,-36.5133,132.658,-206.676,6524.08,12898.6,1099.13,54.0645,-97.6178,-91.2654,15423.6,-15013.9,-1994.47,-12.1837,28.871,18.3909,9630.32,3808,796.479,-35.4941,27.5388,-29.4043
1.943,4673.25,-1707.52,9806.97,-19.6607,-85.1903,-50.3014,28641,-5524.64,-8190.23,-76.8555,180.025,-111.632,3419.72,10976.9,992.757,-13.9761,-25.5802,-94.1562,-22735.5,-13169.7,764.155,-35.2636,129.568,-199.671,6640.66,12950.2,1015.82,52.9855,-94.6241,-89.3551,15384.2,-14808.9,-1960,-10.5352,30.9627,13.0117,9625.65,3892,876.13,-36.2851,27.1384,-29.892
1.944,4739.5,-1705.06,9829.36,-19.2403,-87.0431,-49.7695,28945.8,-5855.51,-8645.19,-74.204,173.687,-108.251,3402.73,11088.4,1005.22,-13.7817,-23.4761,-95.9469,-23428.2,-13115.4,878.08,-33.8953,126.36,-192.583,6755.97,12985.8,890.716,52.1812,-91.6349,-87.4468,15288.9,-14486.1,-1965.64,-9.1881,32.7368,7.27774,9615.16,3978.63,947.645,-37.0987,26.6397,-30.3106
1.945,4805.75,-1702.6,9851.75,-18.8199,-88.896,-49.2375,29250.6,-6186.38,-9100.15,-71.5526,167.348,-104.87,3385.73,11199.8,1017.69,-13.5872,-21.3721,-97.7376,-24120.9,-13061.1,992.005,-32.5269,123.152,-185.495,6871.27,13021.4,765.607,51.3769,-88.6457,-85.5385,15193.5,-14163.3,-1971.28,-7.841,34.511,1.54381,9604.67,4065.26,1019.16,-37.9123,26.141,-30.7292
1.946,4872,-1700.15,9874.15,-18.3995,-90.7489,-48.7055,29555.3,-6517.25,-9555.11,-68.9011,161.01,-101.489,3368.73,11311.3,1030.15,-13.3928,-19.268,-99.5284,-24813.5,-13006.8,1105.93,-31.1586,119.944,-178.407,6986.57,13057.1,640.499,50.5726,-85.6566,-83.6301,15098.1,-13840.4,-1976.93,-6.4939,36.2851,-4.19011,9594.18,4151.89,1090.67,-38.726,25.6423,-31.1477
1.947,4910.39,-1709.36,9902.86,-17.9733,-92.626,-48.2117,29846.5,-6754.78,-10024.1,-66.3086,154.694,-97.963,3355.2,11417.3,1030.48,-13.2749,-17.3347,-101.333,-25451.9,-12943.4,1203.41,-29.6104,116.628,-171.348,7079.91,13091.3,566.562,49.864,-83.1678,-81.8476,14942.8,-13463.4,-2119.39,-6.01961,38.0223,-9.18322,9602.72,4234.47,1157.49,-39.556,25.1079,-31.508
1.948,4893.07,-1741.93,9944.21,-17.5355,-94.5513,-47.794,30110.6,-6805.63,-10521,-63.834,148.419,-94.1488,3348.59,11512.4,1006.56,-13.3097,-15.7429,-103.165,-25981.5,-12861.7,1268.01,-27.7024,113.096,-164.345,7129.31,13122.9,594.967,49.3466,-81.6801,-80.3167,14667.5,-12977.8,-2535.5,-7.29095,39.6855,-12.6947,9649.33,4308.97,1214.91,-40.4187,24.5021,-31.7515
1.949,4875.75,-1774.5,9985.56,-17.0978,-96.4767,-47.3763,30374.7,-6856.48,-11017.9,-61.3594,142.145,-90.3345,3341.98,11607.5,982.626,-13.3446,-14.1511,-104.996,-26511.2,-12780.1,1332.61,-25.7943,109.564,-157.342,7178.71,13154.5,623.373,48.8292,-80.1923,-78.7858,14392.2,-12492.3,-2951.62,-8.5623,41.3488,-16.2062,9695.94,4383.47,1272.33,-41.2814,23.8963,-31.9951
1.95,4858.43,-1807.07,10026.9,-16.66,-98.402,-46.9586,30638.8,-6907.32,-11514.8,-58.8848,135.87,-86.5203,3335.37,11702.6,958.696,-13.3795,-12.5593,-106.828,-27040.9,-12698.5,1397.21,-23.8863,106.033,-150.34,7228.11,13186.1,651.778,48.3119,-78.7045,-77.255,14117,-12006.7,-3367.73,-9.83364,43.0121,-19.7177,9742.54,4457.97,1329.75,-42.1441,23.2905,-32.2387
1.951,4841.11,-1839.64,10068.3,-16.2223,-100.327,-46.5409,30902.9,-6958.17,-12011.7,-56.4102,129.596,-82.7061,3328.76,11797.8,934.766,-13.4144,-10.9675,-108.66,-27570.5,-12616.8,1461.81,-21.9783,102.501,-143.337,7277.51,13217.7,680.183,47.7945,-77.2168,-75.7241,13841.7,-11521.1,-3783.84,-11.105,44.6754,-23.2291,9789.15,4532.47,1387.17,-43.0068,22.6847,-32.4822
1.952,4809.54,-1882.47,10103.5,-15.8195,-102.381,-46.1032,31075.5,-6966.98,-12478,-54.4713,123.499,-78.0679,3353.49,11862.5,921.607,-13.6665,-9.54684,-110.449,-27935.7,-12466.5,1489.77,-19.9558,98.7354,-136.173,7302.26,13293.4,653.474,47.229,-76.6501,-74.2809,13602.7,-11227.7,-4435.46,-13.4467,47.9125,-23.7825,9798.1,4578.89,1419.15,-43.6085,22.0828,-32.3853
1.953,4776.19,-1926.59,10137.9,-15.421,-104.451,-45.6629,31236.6,-6970.53,-12940.6,-52.5993,117.424,-73.3266,3382.14,11923.5,909.794,-13.9459,-8.14753,-112.232,-28280.4,-12307.7,1513.15,-17.9189,94.9403,-128.988,7323.94,13374.8,619.876,46.6574,-76.1985,-72.8488,13368.2,-10958.3,-5116.51,-15.9223,51.3465,-23.9662,9802.35,4621.79,1447.95,-44.1776,21.4814,-32.2457
1.954,4742.84,-1970.7,10172.4,-15.0226,-106.52,-45.2227,31397.7,-6974.09,-13403.1,-50.7274,111.349,-68.5854,3410.79,11984.4,897.981,-14.2252,-6.74821,-114.016,-28625,-12148.8,1536.53,-15.8821,91.1452,-121.803,7345.61,13456.1,586.277,46.0859,-75.7469,-71.4167,13133.8,-10688.9,-5797.56,-18.3978,54.7804,-24.1498,9806.6,4664.7,1476.75,-44.7467,20.8799,-32.1062
1.955,4709.5,-2014.81,10206.8,-14.6241,-108.59,-44.7825,31558.9,-6977.64,-13865.6,-48.8554,105.274,-63.8442,3439.44,12045.3,886.168,-14.5045,-5.3489,-115.8,-28969.6,-11989.9,1559.92,-13.8452,87.3502,-114.618,7367.28,13537.4,552.679,45.5143,-75.2954,-69.9845,12899.3,-10419.5,-6478.61,-20.8733,58.2143,-24.3335,9810.85,4707.6,1505.55,-45.3159,20.2785,-31.9666
1.956,4680.77,-2055.35,10243.2,-14.3286,-110.729,-44.3997,31691.3,-6966.04,-14307.1,-47.1525,99.2104,-58.9517,3448.43,12107.5,871.722,-14.7429,-4.02446,-117.636,-29231.8,-11770.9,1588.69,-11.8044,83.3588,-107.011,7366.35,13586.1,519.761,44.9979,-75.1651,-68.5206,12751.6,-10353.5,-7149.72,-22.6973,62.2565,-23.8868,9783.66,4729.21,1521.86,-45.5987,19.7075,-31.6461
1.957,4657.82,-2091.41,10281.8,-14.1618,-112.955,-44.0886,31787.9,-6935.5,-14722.3,-45.661,93.1606,-53.8699,3432.83,12171,853.984,-14.9302,-2.79361,-119.537,-29390.9,-11476.8,1624.21,-9.75853,79.122,-98.8759,7337.15,13594,487.692,44.5504,-75.4364,-67.0171,12712.4,-10542,-7808.4,-23.7068,67.0591,-22.6522,9717.17,4724.19,1522.55,-45.5238,19.1746,-31.0994
1.958,4634.87,-2127.47,10320.5,-13.995,-115.181,-43.7776,31884.5,-6904.96,-15137.5,-44.1694,87.1107,-48.7882,3417.24,12234.6,836.245,-15.1176,-1.56277,-121.439,-29550,-11182.7,1659.73,-7.71268,74.8852,-90.7411,7307.96,13602,455.624,44.103,-75.7078,-65.5136,12673.2,-10730.4,-8467.07,-24.7163,71.8616,-21.4176,9650.68,4719.17,1523.24,-45.4489,18.6416,-30.5527
1.959,4611.92,-2163.53,10359.2,-13.8281,-117.407,-43.4665,31981.1,-6874.42,-15552.8,-42.6778,81.0609,-43.7065,3401.64,12298.1,818.507,-15.3049,-0.331921,-123.341,-29709.1,-10888.5,1695.25,-5.66683,70.6484,-82.6064,7278.76,13609.9,423.556,43.6555,-75.9791,-64.0101,12634,-10918.9,-9125.75,-25.7258,76.6642,-20.1829,9584.19,4714.15,1523.93,-45.374,18.1087,-30.006
1.96,4588.97,-2199.59,10397.9,-13.6613,-119.633,-43.1554,32077.7,-6843.88,-15968,-41.1863,75.011,-38.6247,3386.04,12361.7,800.769,-15.4922,0.898925,-125.243,-29868.2,-10594.4,1730.77,-3.62099,66.4116,-74.4716,7249.56,13617.9,391.487,43.208,-76.2504,-62.5065,12594.8,-11107.3,-9784.42,-26.7353,81.4667,-18.9483,9517.7,4709.13,1524.61,-45.2991,17.5758,-29.4593
1.961,4593.54,-2192.28,10435.5,-13.7366,-122.175,-43.0511,32152.7,-6996.81,-16255.3,-39.5674,68.7266,-33.3448,3326.42,12418.4,733.727,-15.6859,1.9663,-127.099,-29937.2,-10297.4,1840.98,-1.52872,61.6534,-65.8709,7154.49,13647,336.578,42.6847,-76.8688,-61.2005,12544,-11546.3,-10158.6,-24.6775,85.4113,-18.5393,9524.45,4692.95,1426.16,-45.1685,17.084,-28.6732
1.962,4598.1,-2184.98,10473.1,-13.8119,-124.718,-42.9467,32227.6,-7149.74,-16542.6,-37.9486,62.4422,-28.065,3266.79,12475.1,666.686,-15.8795,3.03367,-128.955,-30006.3,-10000.4,1951.18,0.563543,56.8952,-57.2701,7059.41,13676,281.669,42.1614,-77.4872,-59.8945,12493.3,-11985.3,-10532.7,-22.6197,89.3559,-18.1303,9531.21,4676.77,1327.7,-45.0378,16.5922,-27.887
1.963,4602.66,-2177.67,10510.6,-13.8872,-127.26,-42.8423,32302.6,-7302.67,-16829.9,-36.3297,56.1578,-22.7851,3207.16,12531.8,599.644,-16.0732,4.10104,-130.812,-30075.4,-9703.45,2061.38,2.65581,52.137,-48.6693,6964.34,13705.1,226.76,41.6381,-78.1055,-58.5885,12442.5,-12424.3,-10906.8,-20.5619,93.3004,-17.7213,9537.96,4660.59,1229.24,-44.9072,16.1004,-27.1009
1.964,4607.22,-2170.36,10548.2,-13.9626,-129.803,-42.7379,32377.5,-7455.6,-17117.2,-34.7108,49.8734,-17.5052,3147.53,12588.5,532.602,-16.2668,5.16841,-132.668,-30144.5,-9406.46,2171.58,4.74808,47.3788,-40.0686,6869.26,13734.2,171.852,41.1147,-78.7239,-57.2824,12391.8,-12863.4,-11281,-18.5041,97.245,-17.3123,9544.72,4644.41,1130.79,-44.7766,15.6086,-26.3148
1.965,4622.84,-2161.18,10572.8,-14.11,-132.426,-42.6564,32410.1,-7637.49,-17322,-33.1721,43.2904,-12.2776,3070.45,12662.2,496.169,-16.4713,6.06322,-134.469,-30226.1,-9182.4,2295.24,6.78177,42.3471,-31.2521,6761.26,13754.9,112.612,40.5079,-79.4444,-56.1812,12292.3,-13286.4,-11535.7,-15.0674,100.437,-17.7972,9539.34,4599.64,1003.18,-44.622,15.2545,-25.4747
1.966,4647.32,-2150.5,10587.1,-14.315,-135.112,-42.593,32408.9,-7842.53,-17460.8,-31.6975,36.4687,-7.09198,2979.4,12749.4,484.223,-16.6845,6.81996,-136.227,-30317.7,-9016.67,2429.65,8.76861,37.0967,-22.2629,6642.93,13768.8,49.9067,39.8343,-80.2468,-55.2439,12153.8,-13696.7,-11694.8,-10.5277,103.028,-18.9971,9524.26,4531.99,852.25,-44.4481,15.0106,-24.5915
1.967,4671.8,-2139.82,10601.3,-14.5201,-137.798,-42.5296,32407.6,-8047.58,-17599.6,-30.2228,29.6469,-1.90631,2888.35,12836.6,472.277,-16.8977,7.57671,-137.984,-30409.3,-8850.93,2564.06,10.7555,31.8462,-13.2738,6524.59,13782.7,-12.7981,39.1607,-81.0491,-54.3066,12015.4,-14107,-11853.9,-5.98795,105.619,-20.197,9509.18,4464.35,701.322,-44.2743,14.7666,-23.7083
1.968,4696.28,-2129.14,10615.6,-14.7252,-140.485,-42.4663,32406.4,-8252.63,-17738.4,-28.7482,22.8251,3.27936,2797.31,12923.8,460.331,-17.1109,8.33346,-139.741,-30500.9,-8685.2,2698.47,12.7423,26.5957,-4.28472,6406.25,13796.7,-75.503,38.4871,-81.8514,-53.3693,11876.9,-14517.3,-12013,-1.4482,108.209,-21.3969,9494.11,4396.7,550.393,-44.1004,14.5227,-22.8252
1.969,4721.12,-2123.58,10629.3,-14.9368,-143.162,-42.4137,32392.8,-8443.06,-17864.3,-27.2243,15.9565,8.47731,2712.56,13010.7,449.169,-17.3023,9.04842,-141.48,-30588.2,-8536.86,2825.83,14.7093,21.3337,4.67177,6290.39,13803.2,-141.273,37.8448,-82.6042,-52.4433,11730.9,-14900.4,-12148.2,3.16708,110.645,-22.6924,9476.2,4327.48,398.669,-43.9198,14.3079,-21.9495
1.97,4748.86,-2159.01,10639,-15.2008,-145.763,-42.448,32280.7,-8516.58,-17886.8,-25.3067,8.71375,13.7735,2678.19,13095,444.284,-17.3188,9.42908,-143.07,-30640.6,-8527.59,2896.81,16.5173,15.98,13.3674,6194.29,13750.9,-231.566,37.4533,-82.9612,-51.6086,11524.4,-15066,-12092.3,8.38668,111.839,-24.753,9435.65,4245.65,240.588,-43.6858,14.3266,-21.1338
1.971,4776.61,-2194.44,10648.6,-15.4647,-148.364,-42.4823,32168.5,-8590.11,-17909.4,-23.389,1.47096,19.0696,2643.82,13179.4,439.399,-17.3353,9.80973,-144.661,-30693,-8518.33,2967.79,18.3253,10.6263,22.063,6098.19,13698.5,-321.859,37.0618,-83.3181,-50.7739,11317.9,-15231.6,-12036.4,13.6063,113.032,-26.8136,9395.1,4163.81,82.5069,-43.4517,14.3452,-20.3182
1.972,4804.35,-2229.88,10658.3,-15.7287,-150.965,-42.5166,32056.4,-8663.63,-17931.9,-21.4714,-5.77182,24.3658,2609.45,13263.7,434.514,-17.3518,10.1904,-146.251,-30745.4,-8509.06,3038.77,20.1333,5.27263,30.7586,6002.1,13646.1,-412.152,36.6703,-83.675,-49.9391,11111.3,-15397.2,-11980.4,18.8259,114.226,-28.8742,9354.55,4081.98,-75.5743,-43.2177,14.3639,-19.5025
1.973,4832.09,-2265.31,10668,-15.9926,-153.566,-42.5509,31944.3,-8737.16,-17954.4,-19.5537,-13.0146,29.6619,2575.08,13348,429.629,-17.3683,10.571,-147.842,-30797.9,-8499.8,3109.75,21.9413,-0.0810692,39.4542,5906,13593.7,-502.445,36.2787,-84.0319,-49.1044,10904.8,-15562.8,-11924.5,24.0455,115.42,-30.9349,9313.99,4000.14,-233.655,-42.9836,14.3825,-18.6868
1.974,4842.15,-2319.55,10680.1,-16.3412,-156.252,-42.7255,31819.5,-8750.1,-17856.7,-17.079,-20.2296,35.1283,2578.63,13399.7,419.036,-17.402,10.7533,-149.459,-30811.9,-8560.87,3072.45,23.544,-5.10449,47.6709,5842.84,13548.7,-564.483,35.5891,-84.2822,-48.3819,10677.7,-15649.8,-11758.5,28.4358,115.959,-33.0525,9259.51,3918.49,-388.805,-42.7431,14.4332,-18.0242
1.975,4843.38,-2383.2,10693.5,-16.7322,-158.98,-42.9704,31688.4,-8732.77,-17698.9,-14.3257,-27.4307,40.6798,2601.13,13435.1,405.59,-17.4443,10.8363,-151.089,-30806.8,-8657.1,2981.02,25.0439,-9.96276,55.648,5796.15,13507.2,-612.394,34.7505,-84.4793,-47.7156,10440.4,-15697.5,-11537.4,32.4115,116.17,-35.1985,9198.05,3836.93,-542.489,-42.4994,14.4998,-17.4381
1.976,4844.6,-2446.85,10706.9,-17.1232,-161.708,-43.2152,31557.3,-8715.43,-17541.1,-11.5725,-34.6319,46.2313,2623.63,13470.5,392.143,-17.4866,10.9193,-152.72,-30801.7,-8753.33,2889.59,26.5439,-14.821,63.6252,5749.45,13465.8,-660.305,33.9118,-84.6763,-47.0492,10203.1,-15745.3,-11316.3,36.3872,116.381,-37.3446,9136.59,3755.37,-696.173,-42.2558,14.5664,-16.852
1.977,4845.82,-2510.5,10720.3,-17.5142,-164.436,-43.46,31426.2,-8698.1,-17383.3,-8.81921,-41.833,51.7829,2646.14,13505.9,378.697,-17.529,11.0024,-154.351,-30796.6,-8849.57,2798.16,28.0439,-19.6793,71.6023,5702.76,13424.4,-708.215,33.0732,-84.8733,-46.3828,9965.75,-15793,-11095.3,40.3629,116.592,-39.4907,9075.13,3673.81,-849.857,-42.0121,14.6331,-16.2659
1.978,4844.48,-2577.02,10736.5,-17.8697,-167.2,-43.724,31306.3,-8698.68,-17234.7,-5.43633,-48.8437,57.4442,2672.82,13536.8,350.199,-17.6154,11.0569,-155.999,-30767.4,-8957.66,2674.36,29.5129,-24.3748,79.4494,5662.85,13378,-752.852,32.1802,-84.9637,-45.7013,9720.85,-15797,-10820.3,43.9241,116.543,-41.4733,9016.17,3588.03,-993.617,-41.7799,14.6603,-15.6769
1.979,4834.17,-2653.55,10762.5,-18.1012,-170.094,-44.055,31225.3,-8762,-17118.7,0.150179,-55.1881,63.4897,2714.12,13551.8,269.023,-17.8561,11.0119,-157.707,-30653.9,-9107.28,2437.27,30.8731,-28.5005,86.8414,5646.67,13314,-786.028,31.0974,-84.6808,-44.9665,9449.4,-15648,-10356.9,46.0345,115.582,-42.8836,8965.93,3487.47,-1102.64,-41.588,14.5494,-15.0777
1.98,4823.85,-2730.08,10788.4,-18.3326,-172.988,-44.386,31144.4,-8825.32,-17002.7,5.73669,-61.5326,69.5353,2755.42,13566.9,187.847,-18.0968,10.9669,-159.416,-30540.3,-9256.9,2200.17,32.2334,-32.6261,94.2333,5630.49,13250.1,-819.205,30.0145,-84.398,-44.2318,9177.95,-15499.1,-9893.43,48.1449,114.62,-44.2939,8915.7,3386.91,-1211.67,-41.3962,14.4385,-14.4784
1.981,4813.53,-2806.62,10814.4,-18.564,-175.881,-44.7171,31063.5,-8888.63,-16886.7,11.3232,-67.877,75.5808,2796.72,13582,106.671,-18.3375,10.922,-161.125,-30426.8,-9406.51,1963.08,33.5936,-36.7518,101.625,5614.31,13186.2,-852.382,28.9317,-84.1151,-43.497,8906.51,-15350.1,-9429.97,50.2553,113.659,-45.7042,8865.46,3286.35,-1320.7,-41.2043,14.3276,-13.8792
1.982,4803.21,-2883.15,10840.4,-18.7954,-178.775,-45.0481,30982.6,-8951.95,-16770.7,16.9097,-74.2214,81.6264,2838.02,13597.1,25.4955,-18.5783,10.877,-162.834,-30313.3,-9556.13,1725.99,34.9539,-40.8774,109.017,5598.13,13122.3,-885.559,27.8488,-83.8323,-42.7623,8635.06,-15201.1,-8966.52,52.3657,112.698,-47.1145,8815.22,3185.8,-1429.72,-41.0124,14.2167,-13.28
1.983,4806.05,-2950.94,10845.3,-19.2376,-181.751,-45.5367,31031.8,-9286.57,-16956.4,29.1379,-79.1396,88.8705,2842.19,13637.3,-55.4396,-18.8657,11.0171,-164.428,-30127.6,-9693.81,1364.69,35.8377,-44.2949,115.58,5602.6,13043.5,-936.635,26.4799,-83.11,-42.1105,8310.63,-15051.2,-8472.78,52.8458,111.488,-48.4635,8785.51,3087.45,-1513.07,-41.2929,13.9808,-12.6845
1.984,4812.64,-3016.22,10844.1,-19.7401,-184.752,-46.0704,31118.2,-9698.7,-17228.4,43.2636,-83.6503,96.4571,2835.75,13684.7,-136.306,-19.1666,11.2102,-165.99,-29921.2,-9828.08,967.906,36.5854,-47.5101,121.905,5612.97,12960.5,-992.826,25.0293,-82.2621,-41.4823,7971.05,-14901,-7970.38,52.8602,110.207,-49.7949,8761.67,2989.75,-1589.07,-41.7083,13.7092,-12.0902
1.985,4819.23,-3081.51,10842.9,-20.2425,-187.752,-46.6041,31204.7,-10110.8,-17500.3,57.3894,-88.1609,104.044,2829.31,13732.1,-217.172,-19.4674,11.4032,-167.552,-29714.8,-9962.34,571.122,37.3331,-50.7253,128.23,5623.33,12877.4,-1049.02,23.5787,-81.4143,-40.8542,7631.47,-14750.8,-7467.98,52.8745,108.925,-51.1264,8737.82,2892.04,-1665.07,-42.1238,13.4375,-11.4959
1.986,4825.82,-3146.8,10841.8,-20.7449,-190.752,-47.1378,31291.1,-10523,-17772.2,71.5152,-92.6716,111.63,2822.87,13779.6,-298.038,-19.7682,11.5963,-169.114,-29508.5,-10096.6,174.337,38.0808,-53.9405,134.555,5633.7,12794.3,-1105.21,22.1281,-80.5664,-40.2261,7291.89,-14600.6,-6965.59,52.8888,107.644,-52.4578,8713.98,2794.33,-1741.08,-42.5392,13.1659,-10.9016
1.987,4833.54,-3209.92,10838.7,-21.2803,-193.77,-47.7529,31548.1,-11476.2,-18550.9,86.3917,-99.0896,120.739,2817.7,13823.6,-350.163,-19.9872,11.7367,-170.604,-29243.6,-10237.4,-397.636,38.2907,-56.0995,140.598,5650.72,12724.3,-1156.41,20.481,-79.5321,-39.646,6894.52,-14457.5,-6447.74,52.5368,106.595,-53.9253,8704,2711.99,-1765.44,-43.5261,12.8469,-10.3691
1.988,4843.5,-3268.72,10831.9,-21.8814,-196.821,-48.5308,32146.3,-13511.7,-20343.2,102.77,-109.322,132.891,2815.09,13860.7,-344.807,-20.0424,11.772,-171.948,-28861.6,-10391.1,-1319.98,37.4252,-56.1463,146.076,5681.06,12680.3,-1197.65,18.4411,-78.125,-39.1621,6381.57,-14328.6,-5899,51.4518,106.011,-55.6651,8721.77,2660.4,-1686.53,-45.6558,12.4333,-9.96041
1.989,4853.47,-3327.51,10825.1,-22.4825,-199.871,-49.3087,32744.5,-15547.3,-22135.5,119.148,-119.555,145.043,2812.48,13897.9,-339.45,-20.0976,11.8073,-173.291,-28479.5,-10544.8,-2242.33,36.5598,-56.1931,151.553,5711.4,12636.3,-1238.88,16.4012,-76.7178,-38.6782,5868.62,-14199.8,-5350.25,50.3669,105.427,-57.4049,8739.53,2608.81,-1607.61,-47.7855,12.0197,-9.5517
1.99,4863.43,-3386.31,10818.2,-23.0836,-202.922,-50.0866,33342.7,-17582.8,-23927.8,135.526,-129.788,157.195,2809.87,13935,-334.093,-20.1528,11.8426,-174.635,-28097.5,-10698.5,-3164.68,35.6943,-56.24,157.031,5741.74,12592.3,-1280.11,14.3613,-75.3107,-38.1943,5355.67,-14070.9,-4801.5,49.282,104.842,-59.1447,8757.29,2557.21,-1528.7,-49.9152,11.6061,-9.14299
1.991,4873.39,-3445.11,10811.4,-23.6848,-205.973,-50.8645,33940.9,-19618.3,-25720.1,151.903,-140.02,169.347,2807.26,13972.1,-328.737,-20.208,11.8778,-175.979,-27715.5,-10852.2,-4087.03,34.8288,-56.2868,162.508,5772.08,12548.3,-1321.34,12.3215,-73.9035,-37.7104,4842.72,-13942.1,-4252.76,48.1971,104.258,-60.8845,8775.06,2505.62,-1449.78,-52.0449,11.1924,-8.73428
1.992,4879.31,-3501.3,10872.9,-24.3737,-209.263,-51.7282,31889.1,-15136.3,-20840.4,120.988,-174.735,186.894,2822.59,13994.3,-328.861,-20.2327,11.4353,-177.35,-26666.4,-11182.6,-6885.27,31.4149,-47.1391,166.49,5776.79,12530,-1378.88,10.1436,-71.8282,-37.1805,4217.85,-13882.8,-3674.82,47.2751,103.599,-62.8413,8892.29,2403.6,-891.274,-55.1522,11.3325,-8.96368
1.993,4884.72,-3557.17,10942.9,-25.0735,-212.583,-52.6027,29506.1,-9839.68,-15126.7,84.1618,-212.51,205.114,2840.16,14014.7,-329.67,-20.2535,10.9331,-178.725,-25533.8,-11535.1,-9917.98,27.6825,-36.8422,170.284,5778.3,12514.9,-1438.45,7.94857,-69.6693,-36.645,3578.98,-13832.3,-3093.23,46.3734,102.93,-64.8253,9021.96,2295.28,-272.818,-58.3817,11.5418,-9.27283
1.994,4890.12,-3613.04,11012.9,-25.7734,-215.902,-53.4771,27123.1,-4543.03,-9412.98,47.3351,-250.284,223.335,2857.73,14035,-330.48,-20.2743,10.4308,-180.099,-24401.3,-11887.6,-12950.7,23.95,-26.5452,174.078,5779.81,12499.8,-1498.02,5.7535,-67.5104,-36.1094,2940.11,-13781.7,-2511.64,45.4717,102.262,-66.8093,9151.63,2186.95,345.638,-61.6111,11.751,-9.58199
1.995,4895.53,-3668.91,11082.8,-26.4733,-219.222,-54.3515,24740.1,753.611,-3699.26,10.5084,-288.059,241.556,2875.3,14055.3,-331.289,-20.2952,9.9286,-181.474,-23268.7,-12240.1,-15983.4,20.2176,-16.2482,177.872,5781.31,12484.6,-1557.59,3.55844,-65.3516,-35.5738,2301.25,-13731.1,-1930.05,44.5701,101.593,-68.7932,9281.3,2078.63,964.094,-64.8406,11.9603,-9.89114
1.996,4881.78,-3717.96,11184.4,-27.0881,-222.758,-55.2255,19379.3,8220.21,1808.62,-4.13671,-329.548,266.082,2926.11,14083.9,-289.945,-20.4246,9.39901,-182.977,-21251.5,-12942.7,-19457.4,15.6515,-8.17948,180.91,5764.76,12483.9,-1641.42,1.55936,-63.1481,-34.967,1632.61,-13740.9,-1485.44,42.3801,100.012,-70.2404,9485.7,1838.77,1519.43,-65.8289,13.5132,-11.2238
1.997,4844.07,-3758.47,11325.6,-27.5967,-226.565,-56.0991,10296,18399.2,7059.23,8.94504,-375.681,298.489,3018.45,14122.7,-195.908,-20.6896,8.83524,-184.642,-18128.4,-14082.9,-23482.8,10.0435,-2.89601,183.001,5725.63,12501.1,-1755.57,-0.194723,-60.889,-34.2712,926.777,-13826,-1212.06,38.5799,97.2899,-71.0166,9783.52,1434.49,1995.87,-64.0158,16.7457,-13.8358
1.998,4806.36,-3798.98,11466.7,-28.1052,-230.372,-56.9727,1212.74,28578.3,12309.8,22.0268,-421.815,330.896,3110.8,14161.5,-101.872,-20.9547,8.27147,-186.307,-15005.2,-15223.1,-27508.3,4.43542,2.38746,185.092,5686.5,12518.3,-1869.72,-1.94881,-58.6298,-33.5753,220.938,-13911.1,-938.67,34.7797,94.5676,-71.7928,10081.3,1030.21,2472.32,-62.2027,19.9781,-16.4478
1.999,4768.65,-3839.49,11607.8,-28.6137,-234.179,-57.8463,-7870.52,38757.3,17560.4,35.1086,-467.948,363.303,3203.14,14200.3,-7.83568,-21.2198,7.70771,-187.972,-11882.1,-16363.4,-31533.7,-1.17265,7.67093,187.184,5647.37,12535.6,-1983.87,-3.7029,-56.3707,-32.8795,-484.9,-13996.2,-665.283,30.9794,91.8454,-72.569,10379.2,625.93,2948.76,-60.3897,23.2106,-19.0598
2,4730.95,-3880,11749,-29.1223,-237.987,-58.7199,-16953.8,48936.3,22811.1,48.1903,-514.081,395.71,3295.49,14239.1,86.2007,-21.4848,7.14394,-189.636,-8759.01,-17503.6,-35559.1,-6.78071,12.9544,189.275,5608.24,12552.8,-2098.02,-5.45698,-54.1115,-32.1836,-1190.74,-14081.3,-391.896,27.1792,89.1232,-73.3452,10677,221.651,3425.2,-58.5766,26.443,-21.6718
2.001,4677.7,-3856.55,11911.2,-28.9173,-242.272,-59.2384,-15292.7,36694.3,20350.4,72.5277,-496.993,378.18,3469.68,14353.9,293.595,-21.9532,7.18031,-191.693,-5087.27,-19676.3,-32363.2,-5.98929,-23.7369,194.098,5617.02,12620.8,-2232.49,-5.1105,-52.8115,-31.7379,-1908.02,-14314.8,-746.328,19.9047,91.4834,-68.977,11043.7,-218.4,2946.88,-44.5917,31.9945,-26.2137
2.002,4624.45,-3833.11,12073.4,-28.7123,-246.557,-59.757,-13631.6,24452.2,17889.8,96.8651,-479.905,360.651,3643.87,14468.7,500.989,-22.4215,7.21668,-193.751,-1415.52,-21849,-29167.2,-5.19787,-60.4283,198.92,5625.81,12688.9,-2366.97,-4.76401,-51.5115,-31.2922,-2625.3,-14548.4,-1100.76,12.6303,93.8436,-64.6089,11410.4,-658.451,2468.57,-30.6068,37.546,-30.7555
2.003,4571.2,-3809.66,12235.7,-28.5073,-250.843,-60.2755,-11970.4,12210.1,15429.2,121.203,-462.817,343.122,3818.06,14583.4,708.384,-22.8898,7.25306,-195.808,2256.23,-24021.7,-25971.2,-4.40645,-97.1196,203.743,5634.59,12756.9,-2501.44,-4.41752,-50.2115,-30.8464,-3342.58,-14781.9,-1455.19,5.35583,96.2038,-60.2407,11777.1,-1098.5,1990.25,-16.622,43.0975,-35.2973
2.004,4517.96,-3786.22,12397.9,-28.3023,-255.128,-60.794,-10309.3,-31.9522,12968.5,145.54,-445.729,325.592,3992.25,14698.2,915.778,-23.3581,7.28943,-197.865,5927.98,-26194.3,-22775.2,-3.61503,-133.811,208.566,5643.37,12825,-2635.92,-4.07103,-48.9115,-30.4007,-4059.87,-15015.4,-1809.62,-1.91863,98.5639,-55.8726,12143.8,-1538.55,1511.93,-2.6371,48.649,-39.8392
2.005,4471.75,-3743.04,12598.6,-27.4162,-259.776,-61.1283,-3223.31,-6330.8,11725.7,145.957,-415.68,300.192,4205.1,14888.2,1068.44,-24.2897,7.99069,-199.894,7476.89,-28530.8,-17118.9,6.6415,-171.657,214.89,5746.87,12917.4,-2777.22,-2.91169,-48.4252,-29.9878,-4545.41,-15667.9,-2021.6,-3.93811,109.015,-48.7658,12443.4,-1744.77,1328.5,13.3598,52.2027,-43.2117
2.006,4431.19,-3684.08,12829.9,-25.9853,-264.712,-61.3151,8202.65,-7875.06,11457.1,127.237,-375.261,268.494,4448.87,15138.4,1177.32,-25.5918,9.22387,-201.9,7327.53,-30998.4,-9494.31,24.4701,-210.428,222.416,5926.13,13029.5,-2923.99,-1.10206,-48.5898,-29.6012,-4845.56,-16655.5,-2119.61,-1.7536,125.939,-39.4681,12689.3,-1763.92,1380.96,30.9664,54.1582,-45.6489
2.007,4390.63,-3625.13,13061.3,-24.5543,-269.649,-61.502,19628.6,-9419.33,11188.5,108.517,-334.843,236.796,4692.64,15388.6,1286.2,-26.8939,10.457,-203.907,7178.17,-33466,-1869.76,42.2987,-249.198,229.942,6105.39,13141.5,-3070.75,0.707565,-48.7544,-29.2146,-5145.71,-17643.1,-2217.63,0.430905,142.862,-30.1705,12935.3,-1783.08,1433.43,48.5729,56.1138,-48.086
2.008,4350.06,-3566.17,13292.6,-23.1233,-274.586,-61.6888,31054.6,-10963.6,10919.9,89.7969,-294.424,205.098,4936.41,15638.8,1395.09,-28.1961,11.6902,-205.913,7028.8,-35933.6,5754.79,60.1273,-287.968,237.468,6284.66,13253.5,-3217.52,2.51719,-48.9191,-28.828,-5445.86,-18630.7,-2315.64,2.61541,159.786,-20.8728,13181.2,-1802.23,1485.9,66.1795,58.0693,-50.5231
2.009,4306.65,-3515.81,13504.4,-21.6757,-279.638,-61.93,41594.8,-11253.7,11057.7,71.201,-256.206,175.21,5170.81,15896.4,1472.03,-29.5591,12.8912,-207.888,6739.58,-38174.9,12810.8,77.0937,-322.617,244.622,6474.95,13376.3,-3356.78,4.12037,-49.0691,-28.4241,-5647.16,-19715.8,-2266.06,6.44577,176.735,-12.0514,13425.4,-1824.18,1616.87,82.7608,59.6019,-52.6877
2.01,4240.51,-3534.24,13559.6,-20.0948,-285.616,-62.6053,45049,-1510.3,14447.1,53.5968,-235.589,159.792,5330.19,16213.8,1293.51,-31.4096,13.8342,-209.609,5331.44,-38605.7,15318.6,87.1625,-324.298,248.801,6753.46,13585.2,-3436.08,4.07201,-49.1021,-27.8824,-5057.58,-21580.5,-1035.74,23.443,193.888,-7.04066,13655.6,-1868.55,2375.9,91.1396,57.7505,-52.6715
2.011,4174.36,-3552.68,13614.8,-18.5139,-291.593,-63.2807,48503.3,8233.08,17836.5,35.9926,-214.972,144.375,5489.57,16531.2,1114.99,-33.2601,14.7773,-211.33,3923.3,-39036.6,17826.3,97.2312,-325.979,252.981,7031.97,13794.1,-3515.37,4.02364,-49.1351,-27.3407,-4468,-23445.2,194.585,40.4402,211.04,-2.02991,13885.7,-1912.91,3134.92,99.5185,55.8992,-52.6554
2.012,4108.21,-3571.11,13670.1,-16.933,-297.571,-63.9561,51957.5,17976.5,21225.9,18.3883,-194.356,128.957,5648.95,16848.5,936.464,-35.1105,15.7204,-213.051,2515.16,-39467.5,20334.1,107.3,-327.659,257.16,7310.48,14003,-3594.67,3.97527,-49.1681,-26.7989,-3878.43,-25309.9,1424.91,57.4374,228.193,2.98085,14115.9,-1957.27,3893.94,107.897,54.0479,-52.6393
2.013,4042.06,-3589.55,13725.3,-15.3521,-303.548,-64.6315,55411.8,27719.8,24615.2,0.78413,-173.739,113.54,5808.33,17165.9,757.942,-36.961,16.6635,-214.772,1107.03,-39898.3,22841.8,117.369,-329.34,261.34,7588.99,14211.9,-3673.96,3.9269,-49.2011,-26.2572,-3288.85,-27174.5,2655.23,74.4346,245.345,7.9916,14346,-2001.63,4652.97,116.276,52.1965,-52.6231
2.014,4003.46,-3719.2,13645.5,-14.5865,-309.582,-65.8572,53537.6,30442.4,25122.1,-11.7626,-164.897,101.775,5885.51,17430,532.266,-37.9487,17.1353,-216.177,500.659,-38766.6,21990.1,116.124,-316.323,261.985,7839.77,14449.6,-3614.46,1.57084,-48.6936,-25.5233,-2187.28,-28605.5,4985.1,89.6867,243.284,7.23784,14660.1,-2209.09,4871.44,118.585,50.3017,-52.5776
2.015,3978.63,-3904.48,13498.1,-14.2285,-315.645,-67.3582,48999.1,29654.5,24187.7,-21.7805,-161.943,91.8357,5921.6,17667.5,283.013,-38.505,17.3715,-217.425,295.177,-36853.7,19458.6,109.222,-295.957,260.863,8076.69,14701.8,-3485.57,-1.93906,-47.9159,-24.6934,-829.704,-29819.5,7864.74,104.066,231.616,3.60183,15016.3,-2498.1,4819.63,117.858,48.3852,-52.5173
2.016,3953.8,-4089.75,13350.7,-13.8705,-321.707,-68.8592,44460.7,28866.7,23253.3,-31.7984,-158.99,81.8965,5957.68,17905,33.7602,-39.0613,17.6077,-218.672,89.6943,-34940.7,16927.1,102.321,-275.59,259.74,8313.61,14953.9,-3356.68,-5.44897,-47.1382,-23.8634,527.867,-31033.6,10744.4,118.446,219.947,-0.0341924,15372.4,-2787.11,4767.82,117.131,46.4686,-52.457
2.017,3928.98,-4275.02,13203.3,-13.5125,-327.769,-70.3601,39922.3,28078.9,22318.9,-41.8163,-156.036,71.9573,5993.76,18142.6,-215.492,-39.6176,17.8439,-219.92,-115.788,-33027.7,14395.6,95.4191,-255.224,258.618,8550.53,15206.1,-3227.79,-8.95887,-46.3605,-23.0335,1885.44,-32247.6,13624,132.825,208.279,-3.67021,15728.5,-3076.12,4716.01,116.404,44.5521,-52.3967
2.018,3917.34,-4495.1,13074.5,-13.5356,-333.774,-72.0306,34935,26356.9,20954.6,-49.2581,-155.012,60.3335,6007.42,18335.8,-460.979,-39.8718,17.9102,-221.1,-272.753,-31059,11654.5,87.9631,-233.885,256.827,8783.66,15453.1,-3066.32,-12.9418,-45.4006,-22.0067,3233.63,-32843.1,15888.9,144.404,194.043,-6.85305,16080.2,-3338.13,4527.48,114.68,42.4778,-52.1788
2.019,3951.84,-4836.99,13010.8,-14.8927,-339.576,-74.2942,28376.7,21365.3,18085.3,-47.6838,-160.739,42.8132,5942.55,18374,-693.281,-39.0685,17.3816,-222.045,-259.908,-28894.9,8179.71,78.5668,-209.142,252.696,9003.49,15682.4,-2790.81,-18.5802,-43.803,-20.2906,4549.01,-31273.7,16002.2,146.18,170.823,-8.44978,16416.3,-3505.64,3860.41,109.466,39.8514,-51.4096
2.02,3986.35,-5178.88,12947.2,-16.2498,-345.378,-76.5579,21818.4,16373.8,15216.1,-46.1094,-166.466,25.293,5877.68,18412.3,-925.584,-38.2653,16.8531,-222.99,-247.063,-26730.9,4704.95,69.1705,-184.399,248.565,9223.33,15911.6,-2515.31,-24.2186,-42.2053,-18.5745,5864.39,-29704.3,16115.4,147.956,147.602,-10.0465,16752.4,-3673.15,3193.34,104.252,37.2249,-50.6403
2.021,4020.85,-5520.77,12883.5,-17.6069,-351.179,-78.8215,15260.1,11382.2,12346.9,-44.5351,-172.194,7.77273,5812.82,18450.5,-1157.89,-37.462,16.3246,-223.935,-234.217,-24566.9,1230.2,59.7741,-159.655,244.435,9443.16,16140.8,-2239.8,-29.857,-40.6077,-16.8585,7179.77,-28134.9,16228.7,149.732,124.381,-11.6432,17088.5,-3840.66,2526.27,99.0384,34.5985,-49.8711
2.022,4055.36,-5862.67,12819.9,-18.964,-356.981,-81.0852,8701.77,6390.68,9477.67,-42.9607,-177.921,-9.74753,5747.95,18488.8,-1390.19,-36.6588,15.796,-224.88,-221.372,-22402.8,-2244.56,50.3778,-134.912,240.304,9663,16370,-1964.3,-35.4955,-39.0101,-15.1424,8495.15,-26565.5,16341.9,151.508,101.16,-13.24,17424.5,-4008.17,1859.19,93.8244,31.972,-49.1018
2.023,4080,-6091.72,12841.1,-21.2136,-362.892,-84.2338,5185.5,4570.25,7593.33,-38.4706,-185.385,-21.7924,5751.43,18444.2,-1590.36,-35.8678,13.9217,-226.26,-4.82978,-20172.4,-3828.91,43.898,-114.315,238.8,9890,16549.5,-1730.01,-41.3814,-36.3162,-12.4756,8727.04,-23978.7,13717.4,150.633,94.981,-8.44112,17611.5,-3885.15,1597.23,86.5506,28.3913,-46.668
2.024,4101.81,-6288.54,12886.5,-23.7183,-368.834,-87.6353,2538.38,3655.86,5990.39,-33.1473,-193.346,-32.2728,5774.45,18376.1,-1781.35,-35.0803,11.6629,-227.765,269.911,-17923,-4873.14,38.2514,-94.903,238.047,10119,16714.8,-1507.5,-47.3381,-33.3092,-9.53703,8649.37,-21101.1,10310.6,149.001,93.6706,-1.81495,17755.8,-3679.12,1451,78.6883,24.538,-43.7587
2.025,4123.63,-6485.36,12932,-26.2229,-374.775,-91.0368,-108.737,2741.47,4387.45,-27.824,-201.307,-42.7532,5797.46,18307.9,-1972.34,-34.2928,9.40414,-229.269,544.652,-15673.7,-5917.37,32.6049,-75.4907,237.294,10348.1,16880.1,-1284.98,-53.2948,-30.3022,-6.5985,8571.7,-18223.6,6903.78,147.369,92.3601,4.81122,17900,-3473.09,1304.77,70.8261,20.6847,-40.8493
2.026,4145.44,-6682.17,12977.4,-28.7275,-380.717,-94.4383,-2755.85,1827.08,2784.51,-22.5007,-209.267,-53.2336,5820.47,18239.8,-2163.32,-33.5053,7.14534,-230.774,819.393,-13424.3,-6961.61,26.9583,-56.0784,236.54,10577.1,17045.3,-1062.47,-59.2515,-27.2951,-3.65997,8494.03,-15346.1,3497,145.737,91.0497,11.4374,18044.3,-3267.06,1158.55,62.9638,16.8314,-37.94
2.027,4146.82,-6821.61,13023.7,-31.1524,-386.822,-98.0713,-4440.58,1370.72,1636.06,-17.8966,-216.625,-60.7539,5877.44,18190.1,-2356.57,-32.7901,4.27874,-232.41,1064.73,-11350.1,-7561.28,22.5689,-40.0231,236.963,10782.4,17189.5,-885.61,-65.0055,-23.6736,-0.386286,7793.15,-13069.9,804.441,141.28,92.8219,15.9778,18107.9,-2961.41,1114.9,55.23,13.1022,-34.216
2.028,4107.34,-6846.31,13071.7,-33.4179,-393.254,-102.167,-4200.51,1830.4,1396.6,-14.7308,-222.778,-62.3539,6002.32,18177.2,-2554.35,-32.2195,0.196511,-234.309,1251.27,-9626.18,-7271.84,20.6937,-30.6819,239.739,10940.3,17291.5,-800.047,-70.354,-18.823,3.55769,5845.84,-11996.4,-459.645,131.172,100.759,16.3468,18010,-2456.54,1276.4,47.7532,9.62146,-28.8627
2.029,4067.86,-6871,13119.7,-35.6833,-399.686,-106.263,-3960.45,2290.09,1157.13,-11.5649,-228.931,-63.9539,6127.2,18164.4,-2752.12,-31.6488,-3.88572,-236.208,1437.8,-7902.29,-6982.41,18.8186,-21.3406,242.514,11098.2,17393.4,-714.484,-75.7025,-13.9724,7.50167,3898.54,-10922.8,-1723.73,121.065,108.697,16.7157,17912.1,-1951.67,1437.9,40.2765,6.1407,-23.5094
2.03,4028.37,-6895.7,13167.6,-37.9487,-406.118,-110.359,-3720.38,2749.78,917.67,-8.39913,-235.084,-65.5538,6252.07,18151.6,-2949.9,-31.0781,-7.96795,-238.107,1624.34,-6178.4,-6692.97,16.9434,-11.9994,245.29,11256.1,17495.4,-628.921,-81.0509,-9.12183,11.4456,1951.24,-9849.26,-2987.82,110.958,116.634,17.0847,17814.2,-1446.8,1599.41,32.7997,2.65994,-18.1562
2.031,3988.89,-6920.39,13215.6,-40.2141,-412.55,-114.455,-3480.32,3209.47,678.207,-5.23331,-241.237,-67.1538,6376.95,18138.7,-3147.67,-30.5075,-12.0502,-240.006,1810.87,-4454.51,-6403.53,15.0683,-2.6581,248.065,11413.9,17597.4,-543.358,-86.3994,-4.27126,15.3896,3.93444,-8775.72,-4251.9,100.85,124.572,17.4537,17716.3,-941.933,1760.91,25.323,-0.820822,-12.8029
2.032,3898.79,-7088.3,13219.4,-42.4664,-419.347,-118.947,-2738.72,3388.21,998.163,-3.58459,-243.497,-65.2722,6520.77,18252,-3357.81,-30.213,-17.0942,-241.959,1652.66,-3218.97,-6288.13,14.8795,2.03182,249.281,11460.4,17584.7,-557.87,-90.9631,1.80473,19.4707,-2951.76,-8425.29,-4090.56,83.1433,122.854,5.18003,17452.2,-313.87,1515.31,18.5819,-3.45212,-6.19086
2.033,3802.37,-7274.12,13217.6,-44.717,-426.188,-123.488,-1934.42,3531.83,1388.05,-2.12551,-245.27,-62.9554,6666.97,18380.9,-3569.49,-29.953,-22.2584,-243.918,1451.35,-2044.47,-6194.47,14.9016,6.14032,250.301,11493.1,17557.6,-584.892,-95.4288,8.0339,23.5688,-6033.5,-8165.26,-3751.04,64.4861,119.93,-8.67391,17167.4,329.592,1218.82,11.9328,-5.97723,0.578496
2.034,3705.95,-7459.93,13215.8,-46.9677,-433.03,-128.029,-1130.13,3675.46,1777.93,-0.666431,-247.042,-60.6385,6813.17,18509.9,-3781.17,-29.693,-27.4226,-245.877,1250.05,-869.977,-6100.82,14.9237,10.2488,251.321,11525.7,17530.5,-611.914,-99.8944,14.2631,27.667,-9115.25,-7905.23,-3411.52,45.8289,117.006,-22.5279,16882.5,973.054,922.328,5.2837,-8.50235,7.34786
2.035,3609.53,-7645.75,13214.1,-49.2183,-439.872,-132.571,-325.842,3819.08,2167.81,0.79265,-248.815,-58.3217,6959.36,18638.9,-3992.85,-29.4331,-32.5868,-247.836,1048.74,304.518,-6007.17,14.9457,14.3573,252.342,11558.3,17503.5,-638.936,-104.36,20.4922,31.7652,-12197,-7645.19,-3072,27.1718,114.082,-36.3818,16597.7,1616.52,625.838,-1.3654,-11.0275,14.1172
2.036,3513.84,-7866.52,13191.9,-51.3947,-446.719,-137.357,345.591,3622.11,2666.6,1.97816,-248.836,-55.3781,7122.47,18771.1,-4160.98,-29.3496,-38.1035,-249.801,780.495,1328.54,-5928.92,14.4634,18.1559,250.924,11537,17425.3,-674.028,-108.644,27.1112,35.6224,-15299.4,-7001.98,-2726.18,10.2922,104.594,-50.575,16325.9,2195.72,336.757,-8.4914,-13.2206,20.5269
2.037,3419.07,-8130.99,13144.2,-53.4783,-453.574,-142.449,850.951,2999.39,3301.52,2.82171,-246.668,-51.6511,7306.71,18907.2,-4274.67,-29.4867,-44.0609,-251.773,428.577,2164.47,-5869.93,13.3504,21.567,246.459,11448.3,17283.2,-719.207,-112.699,34.2174,39.1784,-18427.6,-5879.8,-2372.46,-4.36525,86.9012,-65.1922,16070.6,2694.6,56.9363,-16.2135,-14.9989,26.4871
2.038,3324.29,-8395.46,13096.5,-55.5619,-460.429,-147.541,1356.31,2376.66,3936.45,3.66526,-244.499,-47.9241,7490.95,19043.2,-4388.35,-29.6237,-50.0182,-253.745,76.6585,3000.4,-5810.93,12.2375,24.9781,241.994,11359.6,17141.2,-764.387,-116.755,41.3237,42.7344,-21555.8,-4757.63,-2018.74,-19.0227,69.2086,-79.8095,15815.2,3193.48,-222.885,-23.9356,-16.7771,32.4473
2.039,3229.51,-8659.93,13048.8,-57.6456,-467.284,-152.633,1861.67,1753.94,4571.37,4.5088,-242.331,-44.1972,7675.19,19179.3,-4502.04,-29.7608,-55.9756,-255.717,-275.26,3836.33,-5751.94,11.1245,28.3892,237.529,11270.9,16999.1,-809.566,-120.811,48.4299,46.2905,-24684,-3635.45,-1665.03,-33.6802,51.516,-94.4267,15559.8,3692.36,-502.705,-31.6577,-18.5554,38.4075
2.04,3134.74,-8924.39,13001.2,-59.7292,-474.139,-157.725,2367.03,1131.22,5206.29,5.35235,-240.162,-40.4702,7859.43,19315.4,-4615.73,-29.8979,-61.933,-257.69,-627.178,4672.26,-5692.95,10.0116,31.8003,233.064,11182.2,16857.1,-854.745,-124.867,55.5361,49.8465,-27812.2,-2513.27,-1311.31,-48.3377,33.8234,-109.044,15304.5,4191.24,-782.526,-39.3798,-20.3336,44.3677
2.041,3056.31,-8987.8,13009.4,-62.0017,-481.18,-163.002,2770.47,349.366,5625.07,6.32672,-236.981,-34.4062,8133.42,19348.9,-4590.93,-30.4156,-68.5702,-259.727,-672.251,4949.94,-5221.27,8.88316,34.288,225.851,11040,16621.3,-931.69,-128.38,63.632,52.5065,-29879.6,-627.034,-956.979,-58.1723,14.1435,-109.1,15142.9,4364.03,-605.18,-45.3498,-22.5151,47.6256
2.042,2977.88,-9051.21,13017.6,-64.2742,-488.221,-168.278,3173.91,-432.489,6043.84,7.30108,-233.799,-28.3421,8407.42,19382.4,-4566.14,-30.9333,-75.2073,-261.765,-717.324,5227.63,-4749.6,7.75475,36.7757,218.637,10897.8,16385.5,-1008.63,-131.893,71.7279,55.1665,-31947.1,1259.2,-602.646,-68.0069,-5.53638,-109.157,14981.3,4536.82,-427.833,-51.3198,-24.6967,50.8836
2.043,2899.45,-9114.63,13025.8,-66.5467,-495.262,-173.554,3577.35,-1214.34,6462.62,8.27545,-230.618,-22.2781,8681.41,19415.8,-4541.35,-31.451,-81.8445,-263.802,-762.397,5505.32,-4277.92,6.62634,39.2635,211.423,10755.6,16149.8,-1085.58,-135.406,79.8238,57.8266,-34014.6,3145.44,-248.314,-77.8415,-25.2163,-109.213,14819.7,4709.62,-250.486,-57.2897,-26.8782,54.1416
2.044,2821.03,-9178.04,13034,-68.8192,-502.303,-178.83,3980.79,-1996.2,6881.39,9.24981,-227.437,-16.2141,8955.41,19449.3,-4516.56,-31.9687,-88.4817,-265.84,-807.469,5783.01,-3806.24,5.49793,41.7512,204.21,10613.4,15914,-1162.52,-138.918,87.9197,60.4866,-36082,5031.67,106.018,-87.6761,-44.8962,-109.269,14658.1,4882.41,-73.1398,-63.2597,-29.0598,57.3996
2.045,2748.91,-9156.97,13095.1,-71.1156,-509.694,-183.845,4398.44,-2383.69,7117.56,10.533,-224.641,-9.00406,9229.76,19441,-4458.29,-32.5036,-95.6192,-267.888,-904.241,5543.67,-3403.26,5.11084,44.3581,197.31,10472.9,15657.4,-1231.17,-142.095,96.4582,62.7027,-36827.5,6428.56,265.398,-94.0409,-57.31,-102.369,14517.1,4980.89,166.772,-66.419,-31.2856,58.5552
2.046,2681.84,-9068.33,13198.7,-73.4312,-517.365,-188.651,4827.47,-2455.68,7207.64,12.0631,-222.155,-0.877178,9504.41,19399.2,-4373.22,-33.0522,-103.157,-269.943,-1042.37,4890.72,-3055.23,5.31681,47.0604,190.662,10333.7,15384,-1293.17,-145.004,105.351,64.5638,-36515.4,7433.96,268.817,-97.6297,-63.9108,-89.9034,14392.7,5019.93,456.736,-67.3298,-33.5468,58.0289
2.047,2614.78,-8979.68,13302.2,-75.7467,-525.037,-193.456,5256.5,-2527.68,7297.72,13.5933,-219.668,7.2497,9779.06,19357.4,-4288.16,-33.6008,-110.695,-271.998,-1180.5,4237.77,-2707.19,5.52278,49.7627,184.014,10194.6,15110.6,-1355.17,-147.912,114.244,66.4249,-36203.2,8439.36,272.235,-101.219,-70.5116,-77.4379,14268.3,5058.98,746.701,-68.2406,-35.8081,57.5026
2.048,2547.71,-8891.04,13405.8,-78.0623,-532.708,-198.261,5685.53,-2599.67,7387.8,15.1235,-217.181,15.3766,10053.7,19315.6,-4203.1,-34.1494,-118.233,-274.054,-1318.63,3584.82,-2359.16,5.72875,52.4649,177.366,10055.4,14837.2,-1417.17,-150.82,123.136,68.286,-35891.1,9444.77,275.654,-104.807,-77.1124,-64.9724,14143.9,5098.02,1036.66,-69.1514,-38.0694,56.9764
2.049,2477.45,-8802.36,13518.5,-80.3493,-540.446,-203.031,6149.21,-2661.78,7450.8,16.4991,-214.656,23.3169,10323.2,19274,-4116.11,-34.7636,-125.862,-276.079,-1509.14,2885.93,-2042.41,5.94781,55.4255,170.81,9921.97,14568.9,-1448.49,-153.674,131.879,70.1222,-35331.3,10274.7,249.492,-107.857,-82.4006,-52.5584,14012.9,5149.85,1317.33,-69.393,-40.3229,56.1521
2.05,2381.62,-8713.36,13704.8,-82.4073,-548.728,-207.514,6890.16,-2644.77,7297.2,16.6381,-211.818,29.7644,10550.9,19233.7,-4013.68,-35.9032,-134.225,-277.869,-2118.69,1819.49,-1975.89,6.27162,60.4519,164.999,9834.72,14341.1,-1234.41,-156.086,139.416,71.7589,-32789.2,9700.61,-13.3069,-106.592,-77.188,-40.5564,13828.9,5304.05,1523.64,-64.2819,-42.5144,52.944
2.051,2285.79,-8624.37,13891.1,-84.4653,-557.009,-211.997,7631.1,-2627.77,7143.6,16.7771,-208.98,36.212,10778.7,19193.3,-3911.25,-37.0427,-142.588,-279.659,-2728.25,753.058,-1909.38,6.59542,65.4784,159.188,9747.46,14113.3,-1020.33,-158.497,146.954,73.3958,-30247.2,9126.55,-276.106,-105.327,-71.9754,-28.5543,13645,5458.25,1729.95,-59.1708,-44.7058,49.7358
2.052,2189.96,-8535.38,14077.4,-86.5233,-565.29,-216.481,8372.05,-2610.77,6989.99,16.9161,-206.142,42.6595,11006.5,19153,-3808.82,-38.1822,-150.951,-281.448,-3337.8,-313.378,-1842.87,6.91923,70.5048,153.376,9660.21,13885.6,-806.254,-160.909,154.491,75.0326,-27705.2,8552.49,-538.905,-104.063,-66.7628,-16.5523,13461.1,5612.45,1936.25,-54.0597,-46.8973,46.5276
2.053,2094.13,-8446.38,14263.7,-88.5813,-573.571,-220.964,9112.99,-2593.76,6836.39,17.0551,-203.304,49.107,11234.3,19112.6,-3706.4,-39.3217,-159.314,-283.238,-3947.36,-1379.81,-1776.35,7.24304,75.5313,147.565,9572.95,13657.8,-592.174,-163.321,162.029,76.6693,-25163.2,7978.43,-801.704,-102.798,-61.5502,-4.55024,13277.2,5766.64,2142.56,-48.9486,-49.0888,43.3195
2.054,1854.93,-8226.65,14516.4,-91.2085,-583.386,-224.38,10075.5,-2405.01,6828.49,15.7314,-196.667,53.4452,11477.1,19121.1,-3573.02,-41.0352,-167.721,-284.626,-4501.16,-2333.08,-1580.3,7.02513,81.0859,141.826,9534.11,13495.6,-23.7253,-165.305,165.392,78.2129,-22448.7,7188.23,-1099.17,-100.279,-56.7548,3.43562,13017,6089.98,2354.46,-41.5504,-50.5268,39.2973
2.055,1544.03,-7941.54,14802.3,-94.1203,-593.968,-227.262,11148.7,-2130.39,6893.43,13.6764,-188.13,56.7286,11727.3,19154,-3424.17,-43.0357,-176.151,-285.814,-5027.1,-3229.76,-1319.47,6.53636,86.9046,136.123,9519.46,13366.1,721.908,-167.074,166.668,79.7099,-19647.8,6289.96,-1413.96,-97.1332,-52.168,9.41338,12718.7,6497.88,2569.15,-33.0086,-51.5881,34.868
2.056,1233.14,-7656.43,15088.1,-97.032,-604.549,-230.145,12222,-1855.77,6958.37,11.6214,-179.594,60.012,11977.5,19186.9,-3275.32,-45.0361,-184.581,-287.001,-5553.04,-4126.43,-1058.64,6.04759,92.7233,130.419,9504.82,13236.7,1467.54,-168.844,167.944,81.2068,-16847,5391.69,-1728.75,-93.9873,-47.5812,15.3911,12420.4,6905.78,2783.84,-24.4667,-52.6494,30.4388
2.057,922.245,-7371.32,15374,-99.9438,-615.131,-233.027,13295.2,-1581.14,7023.32,9.56634,-171.057,63.2955,12227.7,19219.8,-3126.47,-47.0366,-193.01,-288.189,-6078.97,-5023.11,-797.816,5.55883,98.542,124.716,9490.17,13107.2,2213.17,-170.613,169.221,82.7037,-14046.1,4493.42,-2043.54,-90.8414,-42.9944,21.3689,12122.1,7313.68,2998.53,-15.9249,-53.7106,26.0096
2.058,590.975,-7146.08,15594.2,-103.031,-626.424,-236.079,14638.4,-1129.4,7289.12,7.7875,-159.838,66.1541,12472,19262.9,-2966.15,-49.2221,-201.337,-289.103,-6587.06,-5865.44,-558.367,4.9106,104.343,119.511,9457.26,12977.9,3025.31,-171.901,167.587,83.8597,-11449.4,3736.43,-2361.81,-86.8078,-40.2042,27.3004,11817.9,7729.17,3205.72,-8.16337,-54.2747,21.6516
2.059,188.39,-7130.36,15584.8,-106.731,-640.206,-239.724,16926.6,-57.7598,8257.93,6.97535,-139.231,67.5257,12695.5,19341.8,-2765.71,-52.0551,-209.303,-289.06,-7032.66,-6517.54,-393.74,3.70424,110.08,116.052,9360.41,12848.9,4070.19,-171.502,155.772,83.8225,-9567.11,3473.94,-2692.24,-79.6672,-43.7023,33.0699,11492.9,8171.22,3386.66,-3.1328,-53.0982,17.5432
2.06,-214.195,-7114.64,15575.4,-110.431,-653.987,-243.369,19214.8,1013.88,9226.74,6.16319,-118.625,68.8973,12919,19420.6,-2565.26,-54.8881,-217.269,-289.016,-7478.27,-7169.65,-229.112,2.49789,115.817,112.593,9263.55,12719.8,5115.07,-171.103,143.956,83.7852,-7684.84,3211.44,-3022.68,-72.5266,-47.2004,38.8394,11167.9,8613.27,3567.59,1.89777,-51.9218,13.4348
2.061,-616.78,-7098.93,15566,-114.131,-667.768,-247.014,21503,2085.53,10195.5,5.35104,-98.0185,70.2689,13142.6,19499.5,-2364.82,-57.7212,-225.235,-288.972,-7923.87,-7821.76,-64.4851,1.29153,121.554,109.133,9166.7,12590.8,6159.95,-170.704,132.14,83.7479,-5802.57,2948.95,-3353.12,-65.3861,-50.6985,44.6088,10842.9,9055.33,3748.52,6.92835,-50.7454,9.32641
2.062,-1019.37,-7083.21,15556.7,-117.831,-681.549,-250.659,23791.2,3157.17,11164.4,4.53888,-77.412,71.6405,13366.1,19578.3,-2164.37,-60.5542,-233.201,-288.929,-8369.48,-8473.87,100.142,0.0851766,127.292,105.674,9069.85,12461.7,7204.83,-170.305,120.324,83.7106,-3920.3,2686.45,-3683.55,-58.2455,-54.1966,50.3783,10517.9,9497.38,3929.46,11.9589,-49.5689,5.218
2.063,-1381.88,-6605.31,15083,-123.408,-702.321,-254.997,26210.5,3276.83,12192.5,-1.69302,-60.9323,69.1766,13477.4,19578.5,-1987.91,-64.3958,-239.232,-288.534,-9089.08,-9104.57,-167.77,-1.56495,134.934,105.312,8780.69,12311.3,7917.02,-167.352,100.796,81.803,-2723.46,2310.82,-4121.37,-51.4776,-61.333,59.6109,10253.8,9781.59,4097.45,13.7464,-46.9887,2.23974
2.064,-1732.95,-5995.36,14476.8,-129.521,-725.09,-259.533,28667.2,3124.5,13237.6,-9.47343,-45.6315,65.6168,13556.7,19556.2,-1818.3,-68.5255,-244.709,-288.039,-9886.97,-9729.16,-559.266,-3.34188,143.12,105.835,8436.58,12154.7,8534.16,-163.669,79.0641,79.361,-1722.46,1902.86,-4589.88,-44.8162,-69.509,69.8329,10007.2,10020.7,4261.75,14.6073,-44.0074,-0.415626
2.065,-2084.02,-5385.41,13870.5,-135.634,-747.859,-264.069,31124,2972.17,14282.7,-17.2538,-30.3308,62.057,13636,19534,-1648.69,-72.6552,-250.187,-287.544,-10684.9,-10353.8,-950.761,-5.1188,151.306,106.359,8092.47,11998.1,9151.29,-159.985,57.3323,76.919,-721.452,1494.9,-5058.38,-38.1549,-77.685,80.0549,9760.54,10259.8,4426.05,15.4682,-41.0261,-3.07099
2.066,-2435.08,-4775.46,13264.2,-141.747,-770.628,-268.605,33580.7,2819.84,15327.8,-25.0342,-15.0301,58.4973,13715.3,19511.7,-1479.08,-76.7849,-255.664,-287.049,-11482.8,-10978.3,-1342.26,-6.89573,159.492,106.882,7748.36,11841.5,9768.42,-156.302,35.6004,74.4771,279.552,1086.94,-5526.89,-31.4935,-85.861,90.2769,9513.89,10498.9,4590.35,16.3291,-38.0448,-5.72636
2.067,-2584.48,-4129.02,12515.2,-147.7,-791.896,-273.48,34277.9,3023.88,15583.3,-31.0645,-5.96192,55.1633,13713.5,19425.8,-1354.48,-80.8508,-259.399,-286.626,-12015.9,-11695.7,-1760.04,-8.93904,166.996,108.032,7306.84,11686.7,10073.5,-151.901,14.4693,71.9521,1120.24,422.725,-6079.81,-25.6416,-91.2266,101.214,9298.34,10625.7,4743.52,17.2949,-34.7196,-8.02025
2.068,-2330.53,-3409.59,11480.6,-153.334,-810.162,-279.031,31455.8,3940.65,14259.6,-33.5945,-9.35901,52.2809,13549.6,19213,-1319.88,-84.789,-259.647,-286.348,-12019.5,-12598.4,-2230.41,-11.5152,173.136,110.436,6670.48,11535.4,9754.52,-146.062,-5.4603,69.2611,1640.31,-754.011,-6801.55,-21.4085,-90.9716,113.58,9145,10527.8,4874.42,18.4705,-30.7064,-9.59122
2.069,-2076.58,-2690.17,10446.1,-158.968,-828.429,-284.582,28633.8,4857.42,12936,-36.1245,-12.7561,49.3985,13385.8,19000.1,-1285.29,-88.7272,-259.895,-286.07,-12023.1,-13501.2,-2700.78,-14.0913,179.277,112.84,6034.12,11384.1,9435.52,-140.223,-25.3899,66.5701,2160.37,-1930.75,-7523.29,-17.1754,-90.7165,125.946,8991.65,10429.8,5005.33,19.6462,-26.6932,-11.1622
2.07,-1822.63,-1970.74,9411.48,-164.602,-846.695,-290.133,25811.8,5774.19,11612.4,-38.6544,-16.1532,46.5161,13221.9,18787.3,-1250.69,-92.6654,-260.143,-285.792,-12026.7,-14403.9,-3171.14,-16.6674,185.417,115.244,5397.77,11232.8,9116.52,-134.385,-45.3196,63.8791,2680.44,-3107.48,-8245.04,-12.9423,-90.4615,138.313,8838.31,10331.9,5136.23,20.8218,-22.68,-12.7331
2.071,-1568.67,-1251.32,8376.91,-170.236,-864.962,-295.683,22989.8,6690.97,10288.8,-41.1844,-19.5503,43.6337,13058,18574.4,-1216.09,-96.6037,-260.391,-285.514,-12030.3,-15306.7,-3641.51,-19.2435,191.557,117.649,4761.41,11081.5,8797.53,-128.546,-65.2492,61.1881,3200.5,-4284.22,-8966.78,-8.70925,-90.2065,150.679,8684.96,10234,5267.13,21.9974,-18.6669,-14.3041
2.072,230.107,-157.624,7913.65,-180.478,-873.319,-295.866,19662,6494.5,9095.29,-39.4855,-20.2463,37.9643,12931.7,18363.2,-1379.57,-97.8596,-256.797,-284.697,-11429,-16090.5,-3154.97,-19.328,188.029,120.272,3927.86,10836.9,7831.75,-120.018,-78.6317,59.2351,3563.54,-5717,-9512.96,-1.10963,-72.8477,163.941,8690.25,9816.24,5371.21,22.7709,-14.8322,-16.0031
2.073,2221.99,982.853,7521.79,-191.296,-880.437,-295.377,16271.1,6158.88,7918.09,-37.2579,-20.6047,31.9465,12810.1,18152.1,-1567.8,-98.7803,-252.723,-283.811,-10752.1,-16859.4,-2548.81,-19.101,183.292,122.923,3069.65,10580.6,6785.13,-111.153,-91.1958,57.3743,3906.95,-7181.78,-10037.2,6.91082,-53.3509,177.316,8715.36,9358.51,5471.93,23.4941,-11.02,-17.7181
2.074,4213.88,2123.33,7129.94,-202.114,-887.555,-294.888,12880.1,5823.25,6740.89,-35.0303,-20.9632,25.9287,12688.5,17941.1,-1756.03,-99.701,-248.649,-282.926,-10075.3,-17628.3,-1942.65,-18.8741,178.555,125.574,2211.45,10324.3,5738.51,-102.289,-103.76,55.5135,4250.36,-8646.57,-10561.4,14.9313,-33.8541,190.69,8740.47,8900.77,5572.65,24.2173,-7.20768,-19.433
2.075,6205.76,3263.81,6738.09,-212.932,-894.673,-294.399,9489.16,5487.63,5563.7,-32.8027,-21.3216,19.9109,12566.8,17730,-1944.26,-100.622,-244.575,-282.04,-9398.36,-18397.3,-1336.5,-18.6472,173.818,128.225,1353.24,10068,4691.88,-93.424,-116.324,53.6526,4593.77,-10111.4,-11085.6,22.9517,-14.3573,204.064,8765.59,8443.04,5673.37,24.9406,-3.3954,-21.148
2.076,8436.23,3856.44,6451.43,-222.751,-892.944,-291.161,7859.61,4794.69,5089.46,-32.1045,-21.3812,13.1866,12512.5,17450.4,-2099.63,-102.211,-240.319,-281.187,-8997.95,-18954.5,-725.438,-16.1991,167.673,130.596,525.331,9844.66,3620.74,-84.5016,-124.736,52.7404,4853.77,-11547.7,-11279.9,32.1362,10.5391,216.89,8810.43,7887.57,5809.38,24.7616,-0.238099,-23.0055
2.077,10964.9,3764.28,6296.26,-231.322,-880.157,-284.486,8431.81,3655.08,5493.94,-33.318,-21.0673,5.57928,12542.1,17085,-2213.9,-104.635,-235.835,-280.373,-8943.15,-19247.1,-108.256,-10.9745,159.77,132.618,-264.708,9662.4,2518.94,-75.507,-127.959,53.0137,5009.51,-12948.6,-11061.6,42.7758,42.1851,229.032,8879.94,7209.94,5989.5,23.4547,2.10048,-25.0412
2.078,13493.6,3672.11,6141.08,-239.894,-867.37,-277.812,9004.01,2515.48,5898.41,-34.5314,-20.7535,-2.02808,12571.8,16719.7,-2328.17,-107.059,-231.351,-279.56,-8888.34,-19539.7,508.927,-5.74994,151.867,134.64,-1054.75,9480.15,1417.13,-66.5123,-131.182,53.2871,5165.25,-14349.5,-10843.3,53.4153,73.8311,241.173,8949.45,6532.3,6169.62,22.1478,4.43905,-27.0769
2.079,16022.3,3579.95,5985.91,-248.465,-854.583,-271.137,9576.21,1375.87,6302.88,-35.7449,-20.4396,-9.63544,12601.4,16354.3,-2442.44,-109.483,-226.867,-278.746,-8833.54,-19832.3,1126.11,-0.525375,143.963,136.662,-1844.79,9297.9,315.333,-57.5177,-134.404,53.5605,5320.99,-15750.4,-10625,64.0549,105.477,253.314,9018.96,5854.66,6349.74,20.841,6.77763,-29.1126
2.08,18551,3487.78,5830.74,-257.036,-841.797,-264.463,10148.4,236.271,6707.35,-36.9584,-20.1258,-17.2428,12631.1,15989,-2556.71,-111.907,-222.382,-277.932,-8778.73,-20124.9,1743.29,4.69919,136.06,138.684,-2634.83,9115.65,-786.468,-48.5231,-137.627,53.8339,5476.73,-17151.3,-10406.7,74.6945,137.123,265.455,9088.47,5177.02,6529.86,19.5341,9.11621,-31.1483
2.081,20976.9,-347.439,5901.87,-263.183,-817.917,-266.99,10210.6,419.321,7133.09,-35.4231,-19.5778,-18.4053,12169.8,15405.7,-2753.02,-115.691,-218.136,-282.021,-8817.62,-20113.3,1864.98,7.96487,133.272,137.444,-3165.33,9181,-1511.94,-42.8117,-133.835,57.4696,5246.13,-18243.9,-9123.21,81.1925,160.668,271.486,9013.22,4559.08,6448.88,16.9651,10.9609,-33.0688
2.082,23402.8,-4182.66,5973.01,-269.33,-794.037,-269.518,10272.8,602.372,7558.84,-33.8878,-19.0297,-19.5678,11708.5,14822.4,-2949.32,-119.476,-213.89,-286.109,-8856.52,-20101.6,1986.67,11.2306,130.483,136.204,-3695.83,9246.35,-2237.42,-37.1004,-130.042,61.1054,5015.52,-19336.4,-7839.76,87.6906,184.213,277.516,8937.97,3941.14,6367.9,14.396,12.8056,-34.9892
2.083,25828.7,-8017.89,6044.14,-275.476,-770.158,-272.045,10334.9,785.423,7984.58,-32.3525,-18.4817,-20.7303,11247.3,14239.2,-3145.63,-123.26,-209.643,-290.197,-8895.41,-20090,2108.35,14.4962,127.695,134.965,-4226.33,9311.7,-2962.89,-31.389,-126.25,64.7411,4784.91,-20429,-6556.31,94.1886,207.757,283.546,8862.72,3323.21,6286.92,11.827,14.6503,-36.9097
2.084,28254.7,-11853.1,6115.28,-281.623,-746.278,-274.573,10397.1,968.473,8410.33,-30.8172,-17.9337,-21.8928,10786,13655.9,-3341.93,-127.045,-205.397,-294.286,-8934.3,-20078.3,2230.04,17.7619,124.906,133.725,-4756.83,9377.05,-3688.37,-25.6777,-122.458,68.3769,4554.3,-21521.6,-5272.86,100.687,231.302,289.577,8787.47,2705.27,6205.94,9.25796,16.495,-38.8302
2.085,30760.9,-16231.4,5946.93,-279.546,-718.209,-282.487,10348.1,662.764,8700.76,-29.3461,-16.7007,-21.7871,10056,13278.3,-3836.23,-128.085,-198.429,-299.886,-8764.79,-19815.7,2170.56,17.7497,123.089,131.382,-5065.57,9519.8,-4067.89,-22.105,-118.055,73.2298,3907.28,-22281.6,-3762.78,102.9,244.124,290.451,8679.52,2275.05,6055.68,7.17166,18.3723,-40.0665
2.086,33331.3,-21044.3,5586.99,-270.89,-686.788,-294.71,10210,-33.9543,8882.94,-27.9263,-14.9197,-20.6669,9110.94,13065.1,-4568.92,-126.93,-189.286,-306.697,-8428.56,-19352.2,1966.14,15.1151,122.048,128.155,-5196.89,9724.47,-4170.66,-20.2433,-113.164,79.0566,2927.14,-22775.6,-2071.42,101.685,248.367,287.2,8545.41,1995.02,5849.98,5.47156,20.2757,-40.7555
2.087,35901.7,-25857.1,5227.05,-262.234,-655.366,-306.933,10072,-730.672,9065.12,-26.5065,-13.1388,-19.5467,8165.89,12851.9,-5301.61,-125.776,-180.142,-313.507,-8092.33,-18888.7,1761.72,12.4806,121.007,124.928,-5328.22,9929.13,-4273.43,-18.3816,-108.272,84.8834,1947,-23269.5,-380.048,100.47,252.611,283.95,8411.29,1714.98,5644.28,3.77146,22.1791,-41.4445
2.088,38472.1,-30669.9,4867.1,-253.578,-623.945,-319.156,9934.02,-1427.39,9247.31,-25.0867,-11.3578,-18.4265,7220.84,12638.7,-6034.3,-124.621,-170.998,-320.317,-7756.1,-18425.3,1557.3,9.84598,119.966,121.702,-5459.54,10133.8,-4376.19,-16.5198,-103.381,90.7102,966.851,-23763.4,1311.32,99.2551,256.854,280.699,8277.18,1434.94,5438.58,2.07135,24.0824,-42.1335
2.089,40827.7,-35203.6,4666.78,-242.875,-593.027,-330.835,9792.9,-2113.84,9423.17,-23.6558,-9.65908,-17.1469,6292.1,12543.3,-6742.9,-122.963,-161.351,-326.499,-7436.63,-17954.2,1361.04,7.30039,118.537,118.611,-5548.8,10345.1,-4458.87,-14.9939,-98.6719,96.6422,-69.2417,-24164.8,2896.61,97.2751,259.742,276.604,8147.42,1177.18,5245.42,0.511702,25.9659,-42.5966
2.09,41463.8,-37504.1,5743.42,-215.794,-566.129,-338.155,9626.9,-2718.16,9548.5,-22.1355,-8.61836,-14.5923,5493.89,13390.2,-7258.79,-117.278,-147.676,-327.652,-7251.22,-17422.8,1230.07,5.46668,114.007,116.606,-5301.55,10609.8,-4380.82,-16.1541,-95.4216,103.416,-1552.92,-23825.8,3633.3,89.1734,251.789,265.753,8052.54,1097.61,5152.52,0.0756532,27.6905,-41.2528
2.091,42100,-39804.5,6820.05,-188.713,-539.232,-345.476,9460.91,-3322.48,9673.82,-20.6152,-7.57764,-12.0377,4695.67,14237.1,-7774.69,-111.593,-134.002,-328.806,-7065.81,-16891.4,1099.11,3.63296,109.477,114.601,-5054.29,10874.4,-4302.77,-17.3144,-92.1713,110.19,-3036.59,-23486.7,4369.98,81.0717,243.835,254.903,7957.66,1018.04,5059.61,-0.360395,29.4151,-39.9089
2.092,42736.2,-42105,7896.68,-161.632,-512.334,-352.796,9294.92,-3926.8,9799.15,-19.0949,-6.53693,-9.48307,3897.46,15084,-8290.58,-105.908,-120.327,-329.959,-6880.4,-16360,968.149,1.79925,104.947,112.597,-4807.04,11139,-4224.72,-18.4747,-88.921,116.965,-4520.27,-23147.7,5106.67,72.97,235.882,244.052,7862.78,938.466,4966.71,-0.796444,31.1398,-38.565
2.093,43372.4,-44405.5,8973.31,-134.551,-485.436,-360.116,9128.93,-4531.12,9924.47,-17.5746,-5.49621,-6.92845,3099.24,15930.9,-8806.47,-100.223,-106.652,-331.113,-6694.99,-15828.6,837.186,-0.0344683,100.417,110.592,-4559.78,11403.6,-4146.67,-19.635,-85.6706,123.739,-6003.94,-22808.7,5843.35,64.8683,227.928,233.201,7767.9,858.894,4873.81,-1.23249,32.8644,-37.2212
2.094,42723.5,-44381.5,9817.16,-101.298,-459.352,-359.752,8684.55,-4632.52,9927.95,-15.719,-4.94284,-5.34257,2426.33,17018.1,-9496.97,-90.1071,-92.7654,-327.516,-6522.34,-15363.6,909.612,-0.0814955,94.0622,108.494,-4228.59,11672.8,-4178.79,-21.915,-83.3189,130.646,-7447.57,-22194.8,5979,54.9445,218.631,220.267,7781.87,784.965,4823.29,-1.73958,34.0853,-35.342
2.095,41432.1,-43195.2,10544.6,-64.958,-433.674,-355.546,8100.97,-4482.45,9870.49,-13.6957,-4.63315,-4.24105,1816.08,18225.4,-10274.8,-77.7759,-78.773,-321.545,-6356.08,-14931.8,1083.73,0.764821,86.7949,106.35,-3855.44,11944.3,-4266,-24.7549,-81.4165,137.619,-8871.17,-21443.6,5814.12,44.1097,208.661,206.291,7850.27,713.859,4793.98,-2.28219,35.0543,-33.1951
2.096,40140.7,-42009,11272.1,-28.6184,-407.996,-351.34,7517.39,-4332.38,9813.04,-11.6725,-4.32346,-3.13954,1205.82,19432.8,-11052.6,-65.4446,-64.7806,-315.573,-6189.82,-14499.9,1257.85,1.61114,79.5276,104.205,-3482.28,12215.8,-4353.21,-27.5948,-79.514,144.593,-10294.8,-20692.3,5649.24,33.2749,198.692,192.315,7918.66,642.752,4764.67,-2.82481,36.0234,-31.0483
2.097,38849.3,-40822.7,11999.5,7.72118,-382.318,-347.134,6933.81,-4182.31,9755.58,-9.64916,-4.01377,-2.03803,595.561,20640.2,-11830.3,-53.1134,-50.7882,-309.602,-6023.55,-14068.1,1431.97,2.45746,72.2604,102.061,-3109.12,12487.2,-4440.41,-30.4347,-77.6116,151.567,-11718.4,-19941.1,5484.36,22.4401,188.723,178.339,7987.05,571.646,4735.35,-3.36742,36.9924,-28.9014
2.098,37467.7,-39158.4,12803.2,41.8788,-357.422,-341.507,6414.75,-3865.33,9680.58,-7.63271,-3.67915,-1.09214,-31.9703,21695.4,-12721.5,-40.8947,-35.9728,-302.899,-5839.46,-13560.5,1605.24,3.17153,65.0477,99.6699,-2768.01,12764.3,-4475.91,-33.4945,-76.2545,158.387,-13020.6,-19269.3,5362.03,11.5738,178.637,164.038,8080.69,504.261,4720.33,-4.16879,37.7756,-26.8324
2.099,35770.3,-35820.6,13873.5,68.3997,-335.265,-330.909,6121.51,-2964.15,9544.17,-5.64022,-3.25727,-0.690935,-719.959,22218.4,-14009.4,-29.0703,-18.277,-293.638,-5592.99,-12787.5,1775.53,3.42275,58.0262,96.4171,-2539.07,13060.8,-4330.44,-37.3237,-76.8063,164.67,-13898,-18875.6,5388.6,0.597233,168.143,148.602,8262.71,449.901,4755.33,-5.87582,37.908,-25.0355
2.1,34072.9,-32482.9,14943.7,94.9206,-313.108,-320.31,5828.28,-2062.97,9407.75,-3.64773,-2.83539,-0.289732,-1407.95,22741.4,-15297.3,-17.2459,-0.58127,-284.377,-5346.51,-12014.4,1945.81,3.67397,51.0047,93.1643,-2310.12,13357.4,-4184.96,-41.1529,-77.358,170.953,-14775.4,-18481.8,5415.18,-10.3793,157.65,133.165,8444.72,395.541,4790.33,-7.58286,38.0405,-23.2387
2.101,32375.5,-29145.1,16014,121.441,-290.952,-309.711,5535.04,-1161.79,9271.34,-1.65524,-2.41352,0.111471,-2095.94,23264.3,-16585.2,-5.42147,17.1145,-275.116,-5100.03,-11241.4,2116.1,3.92519,43.9832,89.9115,-2081.18,13653.9,-4039.49,-44.9821,-77.9098,177.237,-15652.8,-18088.1,5441.76,-21.3558,147.157,117.728,8626.73,341.182,4825.34,-9.2899,38.173,-21.4419
2.102,30678.1,-25807.4,17084.3,147.962,-268.795,-299.112,5241.81,-260.613,9134.93,0.337256,-1.99164,0.512674,-2783.92,23787.3,-17873.1,6.40296,34.8103,-265.855,-4853.56,-10468.3,2286.38,4.17641,36.9617,86.6588,-1852.24,13950.5,-3894.01,-48.8114,-78.4615,183.52,-16530.2,-17694.4,5468.34,-32.3324,136.663,102.292,8808.75,286.822,4860.34,-10.9969,38.3055,-19.645
2.103,29377.4,-22653.2,17469.7,157.914,-247.426,-288.298,5203.1,389.56,9043.21,1.8879,-1.63287,0.459046,-3223.75,23776.7,-17504.3,9.45476,44.9514,-257.837,-4460.09,-9388.74,2259.59,2.69121,30.1024,84.1873,-1786.44,14277.3,-3545.76,-52.8389,-81.0953,188.568,-16821.4,-17472.2,5419.21,-40.0519,127.502,88.025,8962.59,231.482,4871.43,-13.1126,37.971,-17.4799
2.104,28190,-19551.6,17659.5,163.132,-226.282,-277.422,5237.1,968.016,8964.25,3.3123,-1.29214,0.275467,-3592.68,23613.7,-16662.2,10.0001,52.934,-250.175,-4024.63,-8221.55,2176.5,0.709904,23.2895,81.9391,-1767.25,14612.6,-3139.56,-56.9231,-84.3238,193.262,-16945.1,-17299.1,5348.46,-46.8409,118.721,74.0926,9108.39,175.863,4875.68,-15.345,37.5031,-15.2095
2.105,27002.7,-16449.9,17849.2,168.349,-205.138,-266.545,5271.11,1546.47,8885.3,4.7367,-0.9514,0.0918872,-3961.61,23450.6,-15820.1,10.5455,60.9167,-242.513,-3589.17,-7054.37,2093.4,-1.27141,16.4765,79.6909,-1748.07,14948,-2733.36,-61.0073,-87.5524,197.957,-17068.7,-17126,5277.71,-53.6299,109.94,60.1602,9254.18,120.244,4879.94,-17.5774,37.0352,-12.9391
2.106,25815.3,-13348.2,18039,173.567,-183.994,-255.669,5305.11,2124.93,8806.35,6.1611,-0.610663,-0.0916921,-4330.54,23287.6,-14978,11.0908,68.8993,-234.85,-3153.71,-5887.19,2010.31,-3.25271,9.66355,77.4427,-1728.89,15283.4,-2327.16,-65.0915,-90.781,202.652,-17192.4,-16952.9,5206.95,-60.4189,101.159,46.2279,9399.98,64.6242,4884.2,-19.8098,36.5673,-10.6688
2.107,24764.4,-10898,18341.3,174.02,-164.15,-245.777,5309.78,2536.61,8734.33,7.49308,-0.344079,-0.2775,-4518.94,23134,-13636,8.44562,70.9188,-227.622,-2712.45,-4889.74,1877.36,-5.40775,2.66625,76.0449,-1725.79,15590.7,-2048.14,-68.2454,-93.9452,206.789,-17064,-16733.9,5075.95,-65.028,93.3231,34.4271,9536.03,22.9649,4834.35,-22.104,36.2018,-8.11539
2.108,23986.4,-9750.8,18868.7,164.945,-146.907,-237.854,5255.78,2614.75,8676.17,8.64024,-0.225799,-0.467766,-4346.31,22999.2,-11294.4,-0.58062,61.012,-221.261,-2259.59,-4231.75,1644.69,-7.91025,-4.69972,76.3478,-1754.87,15841.7,-2023.47,-69.5388,-96.9807,209.811,-16431.7,-16423.1,4824.44,-65.2773,87.3783,26.8896,9652.61,9.22559,4676.29,-24.5217,36.0411,-4.99603
2.109,23208.3,-8603.56,19396.1,155.869,-129.665,-229.931,5201.78,2692.9,8618.02,9.7874,-0.10752,-0.658032,-4173.68,22864.3,-8952.73,-9.60686,51.1052,-214.9,-1806.73,-3573.77,1412.02,-10.4127,-12.0657,76.6506,-1783.95,16092.8,-1998.8,-70.8322,-100.016,212.833,-15799.5,-16112.3,4572.94,-65.5267,81.4335,19.3521,9769.19,-4.51368,4518.24,-26.9394,35.8804,-1.87668
2.11,22430.3,-7456.31,19923.5,146.793,-112.422,-222.008,5147.78,2771.04,8559.87,10.9346,0.0107601,-0.848298,-4001.04,22729.5,-6611.09,-18.6331,41.1984,-208.539,-1353.87,-2915.79,1179.36,-12.9152,-19.4317,76.9535,-1813.03,16343.8,-1974.13,-72.1256,-103.052,215.855,-15167.2,-15801.6,4321.43,-65.776,75.4886,11.8146,9885.77,-18.253,4360.18,-29.3571,35.7197,1.24268
2.111,21652.2,-6309.07,20450.9,137.717,-95.1798,-214.085,5093.78,2849.18,8501.72,12.0817,0.12904,-1.03856,-3828.41,22594.7,-4269.46,-27.6593,31.2916,-202.178,-901.011,-2257.8,946.691,-15.4177,-26.7976,77.2564,-1842.1,16594.9,-1949.46,-73.4191,-106.087,218.877,-14534.9,-15490.8,4069.92,-66.0253,69.5438,4.27716,10002.3,-31.9922,4202.13,-31.7748,35.559,4.36203
