Time,RFoot_accel.x,RFoot_accel.y,RFoot_accel.z,RFoot_gyro.x,RFoot_gyro.y,RFoot_gyro.z,LFoot_accel.x,LFoot_accel.y,LFoot_accel.z,LFoot_gyro.x,LFoot_gyro.y,LFoot_gyro.z,RShank_accel.x,RShank_accel.y,RShank_accel.z,RShank_gyro.x,RShank_gyro.y,RShank_gyro.z,LShank_accel.x,LShank_accel.y,LShank_accel.z,LShank_gyro.x,LShank_gyro.y,LShank_gyro.z,RThigh_accel.x,RThigh_accel.y,RThigh_accel.z,RThigh_gyro.x,RThigh_gyro.y,RThigh_gyro.z,LThigh_accel.x,LThigh_accel.y,LThigh_accel.z,LThigh_gyro.x,LThigh_gyro.y,LThigh_gyro.z,Pelvis_accel.x,Pelvis_accel.y,Pelvis_accel.z,Pelvis_gyro.x,Pelvis_gyro.y,Pelvis_gyro.z
2.26,8830.15,-4479.23,3644.43,-89.2674,369.921,217.802,6263.93,3630.17,5351.31,71.2965,-34.8506,55.8101,1588.56,8765.31,246.524,130.335,-68.8989,409.8,324.158,-7996.33,-3910.87,-40.065,-164.769,-0.26057,-12975.5,-3793.05,-690.123,-89.9714,-104.999,145.733,5313.92,-11176.2,-879.397,36.9313,-117.808,164.84,2709.26,-1410.75,1367.9,84.1922,-44.488,28.6396
2.261,8903.83,-4355.19,3633.77,-88.7826,366.529,219.626,6362.55,3561.78,5288.47,71.3032,-33.5686,56.356,1450.95,8922.34,459.839,131.255,-68.6429,410.071,329.542,-7859.68,-3798.29,-40.0352,-163.774,1.79185,-13041.0,-3817.95,-762.277,-87.1524,-113.865,146.148,5620.58,-11241.0,-752.902,36.0565,-120.44,161.989,2759.93,-1463.69,1370.18,84.8472,-46.0156,28.4766
2.262,8977.52,-4231.15,3623.11,-88.2978,363.136,221.45,6461.18,3493.38,5225.62,71.3099,-32.2865,56.9019,1313.33,9079.37,673.153,132.176,-68.3868,410.341,334.927,-7723.04,-3685.71,-40.0054,-162.779,3.84427,-13106.5,-3842.85,-834.43,-84.3334,-122.73,146.563,5927.25,-11305.9,-626.408,35.1818,-123.072,159.137,2810.6,-1516.64,1372.46,85.5022,-47.5433,28.3136
2.263,8925.97,-4028.66,3653.99,-88.3326,358.662,222.96,6530.22,3316.69,5103.55,70.8982,-30.9874,56.9781,1131.84,9207.63,783.723,132.666,-69.8094,409.98,341.232,-7613.75,-3577.04,-39.5833,-161.539,6.08436,-13100.9,-3818.69,-930.918,-81.0163,-130.642,147.298,6285.1,-11369.9,-663.983,34.1809,-126.521,156.253,2864.19,-1582.79,1364.92,86.0708,-48.8391,28.0371
2.264,8838.64,-3803.76,3696.75,-88.516,353.879,224.381,6590.81,3109.06,4964.57,70.367,-29.6833,56.92,937.812,9327.68,864.937,133.032,-71.7116,409.439,347.799,-7512.29,-3469.48,-39.0491,-160.229,8.37807,-13075.1,-3780.51,-1034.36,-77.5568,-138.282,148.124,6657.57,-11433.7,-748.436,33.1439,-130.204,153.361,2918.62,-1652.72,1354.58,86.6148,-50.0688,27.7282
2.265,8751.31,-3578.86,3739.51,-88.6993,349.096,225.802,6651.4,2901.43,4825.58,69.8358,-28.3793,56.8619,743.783,9447.73,946.151,133.399,-73.6138,408.898,354.367,-7410.82,-3361.92,-38.5149,-158.92,10.6718,-13049.3,-3742.32,-1137.8,-74.0973,-145.921,148.951,7030.04,-11497.5,-832.888,32.1069,-133.886,150.468,2973.05,-1722.65,1344.24,87.1588,-51.2985,27.4192
2.266,8663.98,-3353.96,3782.27,-88.8827,344.313,227.223,6711.99,2693.8,4686.59,69.3045,-27.0752,56.8038,549.755,9567.78,1027.37,133.765,-75.516,408.357,360.934,-7309.36,-3254.36,-37.9807,-157.61,12.9655,-13023.4,-3704.14,-1241.24,-70.6378,-153.56,149.777,7402.52,-11561.3,-917.341,31.0699,-137.569,147.575,3027.48,-1792.58,1333.9,87.7028,-52.5282,27.1103
2.267,8551.39,-3114.54,3793.32,-89.2761,339.147,228.487,6745.49,2527.15,4564.83,68.2658,-25.9056,56.5293,384.162,9703.16,1076.24,134.066,-77.3869,407.525,359.645,-7215.3,-3149.69,-37.361,-155.974,15.3437,-12963.6,-3657.68,-1344.09,-67.1655,-161.006,150.741,7803.75,-11620.7,-1056.72,30.0002,-141.122,144.757,3072.45,-1849.35,1311.27,88.3794,-53.6312,26.8164
2.268,8388.25,-2846.08,3740.94,-90.0895,333.216,229.436,6724.81,2442.46,4477.53,66.2121,-25.0049,55.8221,275.443,9869.22,1060.45,134.237,-79.1949,406.114,342.643,-7136.07,-3050.82,-36.5704,-153.685,17.8908,-12835.7,-3594.66,-1445.75,-63.6673,-168.065,151.978,8262.52,-11671.3,-1305.97,28.865,-144.417,142.089,3098.51,-1879.81,1264.06,89.3213,-54.4809,26.5525
2.269,8225.11,-2577.62,3688.57,-90.9029,327.284,230.385,6704.13,2357.78,4390.24,64.1583,-24.1042,55.1149,166.723,10035.3,1044.66,134.408,-81.003,404.702,325.641,-7056.84,-2951.94,-35.7798,-151.395,20.4379,-12707.9,-3531.64,-1547.42,-60.1692,-175.125,153.216,8721.28,-11721.8,-1555.22,27.7297,-147.712,139.422,3124.56,-1910.26,1216.84,90.2632,-55.3306,26.2887
2.27,8061.97,-2309.16,3636.19,-91.7163,321.353,231.334,6683.45,2273.09,4302.94,62.1046,-23.2035,54.4077,58.0038,10201.3,1028.86,134.579,-82.8111,403.29,308.639,-6977.61,-2853.07,-34.9892,-149.106,22.9851,-12580.0,-3468.62,-1649.08,-56.6711,-182.184,154.454,9180.05,-11772.4,-1804.46,26.5945,-151.006,136.754,3150.61,-1940.71,1169.63,91.2051,-56.1804,26.0249
2.271,7898.83,-2040.7,3583.81,-92.5298,315.421,232.284,6662.77,2188.4,4215.64,60.0508,-22.3028,53.7005,-50.7157,10367.4,1013.07,134.749,-84.6191,401.878,291.637,-6898.38,-2754.19,-34.1986,-146.816,25.5322,-12452.2,-3405.6,-1750.75,-53.173,-189.243,155.691,9638.81,-11822.9,-2053.71,25.4593,-154.301,134.086,3176.67,-1971.16,1122.41,92.147,-57.0301,25.761
2.272,7754.99,-1896.97,3473.93,-93.7015,308.681,232.246,6633.17,2301.36,4063.38,57.106,-21.2892,52.9055,-29.5724,10500.5,1041.25,134.898,-84.9889,400.125,375.458,-6844.84,-2664.86,-33.1625,-144.192,28.3507,-12313.8,-3371.55,-1932.68,-49.2843,-195.546,157.225,10122.1,-11832.4,-2370.7,24.8592,-156.061,131.499,3225.57,-1987.38,1078.6,93.4803,-57.8608,25.184
2.273,7613.56,-1768.83,3356.85,-94.9181,301.84,232.085,6602.46,2439.02,3903.0,54.0497,-20.2616,52.0995,7.8037,10629.5,1074.92,135.044,-85.1789,398.33,471.883,-6794.52,-2576.71,-32.0957,-141.526,31.2031,-12174.2,-3341.12,-2124.64,-45.3469,-201.755,158.795,10608.5,-11836.8,-2696.15,24.326,-157.63,128.923,3277.33,-2001.82,1035.22,94.8624,-58.689,24.5679
2.274,7472.13,-1640.69,3239.77,-96.1346,294.999,231.924,6571.75,2576.68,3742.63,50.9934,-19.234,51.2935,45.1798,10758.6,1108.59,135.189,-85.369,396.535,568.308,-6744.21,-2488.56,-31.0289,-138.859,34.0555,-12034.6,-3310.69,-2316.61,-41.4094,-207.963,160.366,11094.8,-11841.1,-3021.6,23.7927,-159.199,126.347,3329.09,-2016.26,991.831,96.2446,-59.5173,23.9518
2.275,7330.7,-1512.54,3122.7,-97.3511,288.158,231.762,6541.04,2714.35,3582.25,47.9371,-18.2064,50.4875,82.5559,10887.6,1142.26,135.335,-85.559,394.739,664.732,-6693.89,-2400.42,-29.9621,-136.193,36.908,-11895.0,-3280.26,-2508.57,-37.4719,-214.171,161.936,11581.2,-11845.5,-3347.05,23.2595,-160.767,123.771,3380.85,-2030.7,948.446,97.6267,-60.3456,23.3356
2.276,7244.35,-1463.85,3011.9,-98.7187,280.941,230.891,6496.37,2883.63,3442.71,44.6343,-16.9521,49.7527,179.872,11036.4,1164.87,135.548,-84.5664,393.12,840.258,-6617.13,-2349.15,-28.7833,-133.198,39.8975,-11748.8,-3288.96,-2762.05,-32.7146,-219.13,163.414,12038.5,-11802.1,-3646.2,22.9024,-161.418,121.322,3439.34,-2056.8,917.573,99.0875,-60.9482,22.7501
2.277,7226.85,-1514.46,2908.94,-100.275,273.254,229.131,6434.26,3092.45,3329.23,41.0232,-15.4145,49.1067,352.112,11210.0,1173.64,135.845,-82.0955,391.721,1114.66,-6507.31,-2343.98,-27.4644,-129.792,43.0583,-11594.5,-3346.58,-3092.43,-26.9323,-222.528,164.776,12459.4,-11699.1,-3912.46,22.7655,-160.922,119.034,3506.26,-2097.47,902.342,100.646,-61.2686,22.2029
2.278,7209.35,-1565.07,2805.98,-101.831,265.567,227.372,6372.15,3301.27,3215.74,37.4122,-13.8768,48.4607,524.352,11383.6,1182.41,136.141,-79.6246,390.323,1389.06,-6397.5,-2338.81,-26.1455,-126.386,46.2191,-11440.2,-3404.2,-3422.8,-21.1501,-225.926,166.139,12880.4,-11596.1,-4178.73,22.6286,-160.426,116.746,3573.18,-2138.14,887.111,102.205,-61.589,21.6557
2.279,7191.86,-1615.69,2703.02,-103.388,257.881,225.612,6310.03,3510.09,3102.26,33.8011,-12.3392,47.8148,696.593,11557.2,1191.18,136.438,-77.1536,388.924,1663.47,-6287.69,-2333.65,-24.8267,-122.981,49.38,-11285.9,-3461.82,-3753.18,-15.3678,-229.324,167.501,13301.4,-11493.1,-4444.99,22.4917,-159.93,114.457,3640.1,-2178.8,871.88,103.764,-61.9095,21.1085
2.28,7174.36,-1666.3,2600.06,-104.944,250.194,223.853,6247.92,3718.91,2988.78,30.1901,-10.8016,47.1688,868.833,11730.8,1199.96,136.734,-74.6827,387.525,1937.87,-6177.88,-2328.48,-23.5078,-119.575,52.5408,-11131.6,-3519.44,-4083.55,-9.58557,-232.722,168.864,13722.4,-11390.1,-4711.26,22.3547,-159.434,112.169,3707.01,-2219.47,856.649,105.323,-62.2299,20.5613
2.281,7390.7,-1788.41,2533.19,-105.827,241.979,221.16,6113.19,3810.26,3018.64,26.9184,-8.98851,46.8173,981.588,11866.9,1194.18,137.366,-70.5159,386.843,2352.2,-6030.31,-2342.13,-22.0796,-115.258,55.8424,-10915.8,-3598.26,-4484.01,-2.27931,-231.524,169.522,14006.3,-11163.9,-4793.12,21.6629,-157.183,110.265,3831.1,-2245.67,817.958,106.692,-62.1988,20.0729
2.282,7607.04,-1910.53,2466.33,-106.711,233.764,218.467,5978.46,3901.61,3048.5,23.6467,-7.17544,46.4658,1094.34,12002.9,1188.41,137.998,-66.349,386.161,2766.54,-5882.75,-2355.78,-20.6515,-110.941,59.144,-10700.1,-3677.08,-4884.46,5.02695,-230.327,170.179,14290.2,-10937.7,-4874.98,20.9711,-154.931,108.36,3955.18,-2271.88,779.267,108.061,-62.1677,19.5844
2.283,7823.38,-2032.64,2399.46,-107.594,225.549,215.775,5843.73,3992.96,3078.36,20.375,-5.36237,46.1143,1207.1,12139.0,1182.64,138.63,-62.1821,385.478,3180.87,-5735.19,-2369.44,-19.2234,-106.624,62.4456,-10484.3,-3755.9,-5284.91,12.3332,-229.13,170.837,14574.1,-10711.6,-4956.84,20.2793,-152.68,106.456,4079.27,-2298.08,740.576,109.43,-62.1366,19.0959
2.284,8039.72,-2154.76,2332.59,-108.478,217.334,213.082,5709.0,4084.31,3108.23,17.1032,-3.54929,45.7629,1319.85,12275.0,1176.86,139.262,-58.0152,384.796,3595.2,-5587.62,-2383.09,-17.7953,-102.307,65.7472,-10268.5,-3834.71,-5685.37,19.6395,-227.932,171.495,14858.0,-10485.4,-5038.69,19.5875,-150.428,104.552,4203.35,-2324.28,701.885,110.799,-62.1056,18.6075
2.285,8360.91,-2184.72,2302.43,-107.98,208.849,210.896,5525.24,4112.05,3209.67,14.134,-1.82702,45.5274,1309.63,12414.3,1190.95,140.031,-53.6389,384.178,4010.2,-5437.13,-2415.51,-16.4213,-97.648,69.2366,-9972.65,-3840.14,-6024.7,26.7267,-224.408,171.583,15047.7,-10263.0,-5015.68,18.4193,-147.814,102.699,4339.87,-2335.28,682.453,112.251,-61.9997,18.273
2.286,8765.96,-2140.97,2301.64,-106.378,200.149,209.115,5302.24,4088.89,3368.37,11.4066,-0.17738,45.3847,1201.02,12556.3,1220.94,140.912,-49.095,383.61,4425.74,-5284.31,-2462.94,-15.0906,-92.7162,72.8764,-9612.83,-3786.85,-6315.14,33.6387,-219.024,171.216,15162.0,-10043.7,-4908.75,16.87,-144.91,100.886,4486.34,-2334.11,678.428,113.768,-61.834,18.0618
2.287,9171.02,-2097.21,2300.84,-104.776,191.449,207.334,5079.24,4065.74,3527.07,8.67922,1.47226,45.242,1092.4,12698.2,1250.92,141.792,-44.5511,383.042,4841.28,-5131.48,-2510.37,-13.7599,-87.7843,76.5161,-9253.01,-3733.55,-6605.57,40.5507,-213.639,170.849,15276.3,-9824.41,-4801.83,15.3206,-142.006,99.0738,4632.82,-2332.95,674.402,115.286,-61.6683,17.8506
2.288,9576.08,-2053.46,2300.05,-103.174,182.748,205.553,4856.24,4042.59,3685.78,5.95185,3.12189,45.0994,983.794,12840.1,1280.9,142.672,-40.0072,382.474,5256.82,-4978.66,-2557.8,-12.4292,-82.8525,80.1559,-8893.18,-3680.26,-6896.01,47.4627,-208.255,170.483,15390.6,-9605.1,-4694.91,13.7712,-139.102,97.2614,4779.29,-2331.78,670.377,116.803,-61.5027,17.6393
2.289,9994.34,-2003.68,2298.84,-101.372,174.059,203.942,4628.75,4018.32,3851.99,3.26023,4.72345,44.9689,846.48,12984.8,1313.36,143.495,-35.4127,381.916,5656.49,-4830.97,-2611.41,-11.092,-77.8335,83.7951,-8526.48,-3617.03,-7175.94,54.1865,-202.623,170.037,15482.6,-9393.58,-4581.65,12.1951,-136.213,95.4475,4922.09,-2336.64,670.409,118.375,-61.3315,17.4648
2.29,10518.2,-1905.69,2294.3,-97.9774,165.46,203.692,4365.29,3985.06,4078.26,0.854594,5.94033,44.9362,479.536,13151.9,1365.63,143.86,-30.4136,381.441,5929.23,-4724.33,-2714.38,-9.70291,-72.1177,87.4298,-8104.7,-3474.28,-7371.9,59.4045,-195.01,168.963,15396.5,-9244.44,-4417.68,10.4047,-133.443,93.621,5035.5,-2389.7,702.891,120.378,-61.1163,17.5837
2.291,11042.0,-1807.71,2289.75,-94.5825,156.861,203.443,4101.83,3951.8,4304.53,-1.55105,7.15722,44.9035,112.593,13319.0,1417.9,144.225,-25.4145,380.966,6201.96,-4617.7,-2817.36,-8.31376,-66.4018,91.0644,-7682.92,-3331.53,-7567.85,64.6225,-187.397,167.888,15310.4,-9095.3,-4253.72,8.61434,-130.673,91.7946,5148.91,-2442.77,735.373,122.382,-60.9011,17.7026
2.292,11565.9,-1709.73,2285.21,-91.1875,148.261,203.193,3838.37,3918.54,4530.81,-3.95669,8.3741,44.8709,-254.351,13486.1,1470.17,144.59,-20.4153,380.491,6474.69,-4511.07,-2920.34,-6.92462,-60.6859,94.6991,-7261.15,-3188.78,-7763.81,69.8405,-179.784,166.814,15224.3,-8946.16,-4089.75,6.82397,-127.903,89.9681,5262.32,-2495.83,767.856,124.386,-60.6858,17.8214
2.293,12089.7,-1611.74,2280.66,-87.7926,139.662,202.943,3574.91,3885.28,4757.08,-6.36232,9.59098,44.8382,-621.294,13653.2,1522.44,144.955,-15.4162,380.016,6747.43,-4404.43,-3023.32,-5.53548,-54.97,98.3338,-6839.37,-3046.03,-7959.76,75.0585,-172.171,165.739,15138.2,-8797.01,-3925.78,5.03359,-125.133,88.1417,5375.73,-2548.89,800.338,126.389,-60.4706,17.9403
2.294,12720.3,-1648.8,2185.19,-83.7097,132.139,203.066,3386.55,3881.77,4953.26,-8.27134,10.4334,44.9952,-1089.84,13865.1,1558.08,144.784,-10.5062,379.626,6863.3,-4398.27,-3097.94,-4.01326,-48.8147,101.734,-6452.31,-2881.88,-8154.9,79.3596,-163.684,164.383,14946.8,-8711.85,-3798.18,3.44988,-122.609,86.4572,5515.61,-2606.35,852.832,128.609,-60.6254,18.1943
2.295,13404.2,-1753.38,2044.26,-79.2827,125.154,203.376,3235.75,3893.13,5134.4,-9.93204,11.0887,45.2472,-1609.18,14099.4,1585.41,144.344,-5.64072,379.278,6900.74,-4442.34,-3158.39,-2.42451,-42.4396,105.018,-6082.61,-2707.03,-8349.63,83.2023,-154.76,162.886,14702.7,-8658.67,-3688.76,1.96951,-120.208,84.8438,5668.73,-2666.01,915.332,130.937,-60.9651,18.5158
2.296,14088.2,-1857.95,1903.32,-74.8558,118.17,203.685,3084.95,3904.49,5315.54,-11.5927,11.7439,45.4991,-2128.52,14333.7,1612.73,143.904,-0.775229,378.931,6938.17,-4486.41,-3218.83,-0.835766,-36.0645,108.302,-5712.9,-2532.17,-8544.35,87.0449,-145.835,161.389,14458.7,-8605.49,-3579.35,0.489139,-117.807,83.2304,5821.85,-2725.68,977.832,133.266,-61.3049,18.8373
2.297,14772.1,-1962.53,1762.39,-70.4288,111.185,203.995,2934.15,3915.85,5496.68,-13.2534,12.3992,45.751,-2647.86,14568.0,1640.06,143.464,4.09026,378.584,6975.61,-4530.47,-3279.28,0.752982,-29.6894,111.585,-5343.2,-2357.32,-8739.08,90.8876,-136.911,159.891,14214.7,-8552.31,-3469.93,-0.991233,-115.406,81.617,5974.97,-2785.34,1040.33,135.594,-61.6446,19.1588
2.298,15493.2,-2115.06,1615.9,-65.5243,104.766,204.298,2838.17,3930.14,5642.82,-14.765,12.896,46.0351,-3195.0,14805.7,1655.86,142.919,8.77177,378.239,6941.5,-4603.29,-3325.26,2.34045,-23.3481,114.807,-4990.67,-2194.09,-8919.9,94.5975,-127.703,158.284,13957.6,-8514.31,-3382.43,-2.41366,-112.983,80.0345,6123.33,-2845.78,1107.24,137.861,-62.0923,19.5488
2.299,16344.2,-2435.46,1449.97,-58.9485,100.328,204.581,2934.09,3954.66,5666.47,-15.7546,12.8385,46.4321,-3839.41,15055.4,1631.29,142.003,12.8094,377.903,6656.94,-4776.7,-3320.62,3.92345,-17.125,117.813,-4698.24,-2071.56,-9052.04,97.8425,-117.501,156.292,13654.6,-8529.43,-3371.63,-3.63327,-110.484,78.5604,6255.03,-2908.91,1189.6,139.915,-62.9175,20.1784
2.3,17195.2,-2755.85,1284.04,-52.3727,95.8906,204.863,3030.0,3979.17,5690.11,-16.7442,12.781,46.8291,-4483.83,15305.1,1606.73,141.088,16.847,377.566,6372.38,-4950.11,-3315.99,5.50645,-10.9019,120.818,-4405.82,-1949.03,-9184.17,101.088,-107.299,154.299,13351.6,-8544.55,-3360.83,-4.85288,-107.985,77.0863,6386.73,-2972.05,1271.96,141.969,-63.7428,20.808
2.301,18046.3,-3076.25,1118.12,-45.7969,91.4527,205.146,3125.91,4003.69,5713.76,-17.7338,12.7235,47.2261,-5128.25,15554.7,1582.17,140.173,20.8846,377.229,6087.83,-5123.52,-3311.35,7.08945,-4.67885,123.824,-4113.39,-1826.49,-9316.31,104.333,-97.097,152.306,13048.6,-8559.67,-3350.03,-6.0725,-105.486,75.6123,6518.42,-3035.19,1354.32,144.023,-64.5681,21.4376
2.302,18897.3,-3396.65,952.189,-39.2211,87.0148,205.428,3221.82,4028.21,5737.4,-18.7234,12.666,47.6231,-5772.67,15804.4,1557.6,139.258,24.9222,376.893,5803.27,-5296.94,-3306.71,8.67245,1.54424,126.829,-3820.97,-1703.96,-9448.44,107.578,-86.8951,150.314,12745.6,-8574.79,-3339.24,-7.29211,-102.987,74.1382,6650.12,-3098.33,1436.68,146.077,-65.3933,22.0672
2.303,19787.3,-3766.51,830.138,-30.9102,84.1787,206.164,3543.84,4003.75,5716.84,-19.5087,12.4086,48.0098,-6468.78,16008.9,1451.5,138.446,29.2545,376.635,5319.05,-5569.29,-3222.87,10.2106,7.00279,129.726,-3597.58,-1566.04,-9422.89,109.828,-76.0989,147.889,12399.5,-8649.32,-3381.23,-8.34148,-99.7701,72.8909,6760.11,-3138.57,1515.25,146.589,-66.7894,22.9865
2.304,20688.6,-4150.5,720.623,-22.1037,81.8004,207.029,3930.46,3965.31,5683.64,-20.2356,12.0942,48.3936,-7179.66,16200.5,1322.1,137.664,33.671,376.4,4777.77,-5869.91,-3116.41,11.7359,12.2429,132.592,-3393.93,-1423.73,-9352.28,111.795,-65.1331,145.341,12041.0,-8740.83,-3438.3,-9.34221,-96.3481,71.7085,6863.9,-3172.27,1592.74,146.66,-68.3485,23.9887
2.305,21589.8,-4534.5,611.109,-13.2972,79.4221,207.893,4317.09,3926.86,5650.45,-20.9626,11.7797,48.7773,-7890.53,16392.1,1192.69,136.881,38.0875,376.165,4236.5,-6170.54,-3009.95,13.2613,17.483,135.458,-3190.27,-1281.42,-9281.67,113.762,-54.1672,142.793,11682.6,-8832.34,-3495.38,-10.3429,-92.926,70.526,6967.69,-3205.97,1670.22,146.732,-69.9075,24.9908
2.306,22491.0,-4918.49,501.594,-4.49066,77.0438,208.758,4703.71,3888.41,5617.26,-21.6895,11.4652,49.1611,-8601.41,16583.7,1063.29,136.099,42.504,375.93,3695.23,-6471.16,-2903.48,14.7866,22.7231,138.324,-2986.62,-1139.11,-9211.06,115.729,-43.2013,140.245,11324.1,-8923.85,-3552.46,-11.3437,-89.5039,69.3436,7071.48,-3239.68,1747.71,146.803,-71.4666,25.9929
2.307,23376.5,-5288.7,329.994,4.65534,75.8005,209.692,5126.75,3818.39,5620.01,-22.3452,11.154,49.4281,-9293.44,16778.9,947.31,135.245,46.8232,375.759,3130.31,-6801.65,-2757.91,16.268,27.3692,141.164,-2806.44,-980.492,-9084.79,116.993,-32.4159,137.605,10934.2,-9009.13,-3605.15,-12.2887,-85.8069,68.381,7160.12,-3271.94,1800.14,146.058,-73.158,27.0734
2.308,24230.6,-5631.34,34.2229,14.4803,76.8274,210.764,5622.64,3685.22,5694.67,-22.8586,10.8491,49.4617,-9947.77,16981.2,858.174,134.247,50.9479,375.717,2518.09,-7191.89,-2534.13,17.6614,30.8271,143.952,-2673.21,-789.264,-8847.18,116.851,-21.9913,134.783,10481.2,-9081.95,-3649.07,-13.1225,-81.5603,67.8579,7218.48,-3301.32,1802.46,143.68,-75.1139,28.3107
2.309,25084.6,-5973.98,-261.548,24.3052,77.8542,211.837,6118.52,3552.05,5769.33,-23.372,10.5442,49.4953,-10602.1,17183.6,769.038,133.249,55.0726,375.676,1905.88,-7582.13,-2310.34,19.0549,34.285,146.739,-2539.98,-598.037,-8609.57,116.71,-11.5667,131.961,10028.3,-9154.76,-3692.98,-13.9563,-77.3137,67.3349,7276.84,-3330.71,1804.78,141.302,-77.0698,29.5479
2.31,25938.6,-6316.62,-557.319,34.1302,78.8811,212.909,6614.41,3418.89,5843.99,-23.8854,10.2393,49.5289,-11256.4,17385.9,679.902,132.252,59.1973,375.634,1293.67,-7972.37,-2086.56,20.4483,37.7429,149.527,-2406.75,-406.809,-8371.95,116.569,-1.14205,129.138,9575.42,-9227.58,-3736.9,-14.7901,-73.067,66.8119,7335.2,-3360.09,1807.1,138.925,-79.0256,30.7852
2.311,26792.6,-6659.26,-853.09,43.9552,79.908,213.981,7110.29,3285.72,5918.65,-24.3988,9.93439,49.5625,-11910.7,17588.3,590.767,131.254,63.322,375.592,681.455,-8362.61,-1862.77,21.8418,41.2008,152.314,-2273.51,-215.581,-8134.34,116.427,9.28257,126.316,9122.51,-9300.4,-3780.82,-15.6238,-68.8204,66.2888,7393.56,-3389.48,1809.42,136.547,-80.9815,32.0224
2.312,27562.6,-6906.05,-1203.35,53.8489,84.2249,214.601,7478.55,3083.62,6112.66,-24.7464,9.02381,49.2854,-12537.2,17777.2,459.049,130.008,67.0258,375.365,180.241,-8729.51,-1621.6,22.9177,42.5304,154.669,-2143.87,-21.7293,-7795.27,114.693,18.3451,123.512,8552.18,-9332.18,-3748.49,-16.3501,-65.003,66.3929,7505.14,-3425.32,1745.94,133.042,-83.2266,33.8026
2.313,28322.1,-7140.85,-1560.43,63.7512,88.953,215.165,7830.86,2872.9,6321.58,-25.0734,8.03752,48.9695,-13160.2,17964.4,322.008,128.731,70.6769,375.114,-307.098,-9093.51,-1378.25,23.954,43.5939,156.969,-2014.68,172.451,-7443.51,112.76,27.2374,120.711,7967.16,-9358.83,-3706.62,-17.0629,-61.2393,66.5754,7623.36,-3461.97,1674.24,129.397,-85.5078,35.6506
2.314,29081.6,-7375.66,-1917.5,73.6536,93.6811,215.729,8183.16,2662.18,6530.51,-25.4003,7.05123,48.6536,-13783.2,18151.6,184.968,127.454,74.3281,374.863,-794.437,-9457.5,-1134.91,24.9903,44.6575,159.27,-1885.48,366.63,-7091.75,110.827,36.1297,117.909,7382.15,-9385.48,-3664.76,-17.7757,-57.4756,66.7579,7741.59,-3498.61,1602.54,125.751,-87.7891,37.4986
2.315,29841.0,-7610.47,-2274.57,83.5559,98.4093,216.292,8535.47,2451.46,6739.43,-25.7273,6.06494,48.3376,-14406.2,18338.8,47.9276,126.177,77.9792,374.612,-1281.78,-9821.49,-891.559,26.0265,45.721,161.57,-1756.29,560.81,-6739.99,108.894,45.0219,115.107,6797.14,-9412.13,-3622.9,-18.4884,-53.7119,66.9404,7859.81,-3535.26,1530.84,122.105,-90.0703,39.3467
2.316,30484.9,-7671.26,-2533.18,93.0048,103.514,217.176,8722.56,2230.29,6999.86,-26.0868,4.75941,47.9498,-14979.9,18539.6,-94.2981,124.537,81.4463,374.057,-1668.24,-10168.5,-681.397,26.8333,45.7413,163.514,-1676.24,720.441,-6382.05,106.614,53.0379,112.428,6157.13,-9453.01,-3547.07,-19.1806,-50.5598,67.3867,7938.81,-3586.42,1382.4,119.083,-92.0271,41.1142
2.317,30984.3,-7514.53,-2668.71,101.887,109.088,218.461,8703.12,1996.08,7324.65,-26.487,3.05482,47.4722,-15492.1,18757.1,-243.005,122.443,84.6832,373.122,-1928.6,-10494.3,-512.715,27.3533,44.4575,165.011,-1657.62,836.886,-6016.38,103.899,59.9584,109.9,5448.39,-9511.69,-3428.78,-19.8469,-48.1723,68.163,7968.78,-3655.71,1138.04,116.841,-93.5783,42.7812
2.318,31483.7,-7357.81,-2804.23,110.769,114.663,219.746,8683.69,1761.86,7649.44,-26.8872,1.35023,46.9946,-16004.2,18974.7,-391.713,120.35,87.9201,372.187,-2188.96,-10820.2,-344.033,27.8732,43.1736,166.508,-1639.0,953.331,-5650.71,101.184,66.8789,107.373,4739.65,-9570.37,-3310.49,-20.5132,-45.7849,68.9393,7998.75,-3724.99,893.679,114.6,-95.1295,44.4481
2.319,31983.1,-7201.08,-2939.76,119.651,120.237,221.031,8664.25,1527.64,7974.24,-27.2874,-0.354359,46.517,-16516.4,19192.3,-540.42,118.256,91.1571,371.252,-2449.33,-11146.0,-175.351,28.3932,41.8898,168.005,-1620.39,1069.78,-5285.05,98.4696,73.7993,104.846,4030.92,-9629.04,-3192.2,-21.1795,-43.3974,69.7156,8028.72,-3794.28,649.32,112.358,-96.6807,46.1151
2.32,32482.5,-7044.35,-3075.29,128.533,125.812,222.316,8644.82,1293.42,8299.03,-27.6876,-2.05895,46.0394,-17028.5,19409.8,-689.127,116.162,94.394,370.317,-2709.69,-11471.8,-6.66875,28.9132,40.6059,169.502,-1601.77,1186.22,-4919.38,95.7548,80.7198,102.319,3322.18,-9687.72,-3073.91,-21.8459,-41.0099,70.4918,8058.69,-3863.57,404.961,110.116,-98.2319,47.7821
2.321,32649.5,-6403.98,-3159.87,134.841,130.346,224.584,8322.68,1207.56,8557.38,-28.001,-4.66321,45.3731,-17269.0,19749.3,-606.466,113.294,96.7725,368.988,-2835.65,-11782.8,17.1091,29.043,38.1439,170.398,-1601.73,1231.42,-4677.84,94.258,86.0811,99.9831,2640.74,-9822.47,-2894.5,-21.9528,-39.8674,71.5538,8128.38,-3890.18,110.616,110.562,-99.1575,49.2402
2.322,32816.4,-5763.61,-3244.45,141.15,134.88,226.852,8000.55,1121.7,8815.73,-28.3145,-7.26746,44.7069,-17509.5,20088.8,-523.805,110.425,99.1511,367.659,-2961.62,-12093.7,40.887,29.1729,35.6819,171.293,-1601.69,1276.62,-4436.29,92.7612,91.4423,97.6476,1959.31,-9957.21,-2715.09,-22.0597,-38.7249,72.6157,8198.08,-3916.8,-183.728,111.009,-100.083,50.6983
2.323,32983.4,-5123.24,-3329.03,147.458,139.414,229.12,7678.42,1035.84,9074.08,-28.6279,-9.87172,44.0406,-17749.9,20428.3,-441.145,107.556,101.53,366.33,-3087.58,-12404.7,64.6648,29.3027,33.2199,172.189,-1601.65,1321.82,-4194.75,91.2644,96.8036,95.312,1277.87,-10092.0,-2535.68,-22.1667,-37.5823,73.6776,8267.77,-3943.41,-478.072,111.455,-101.009,52.1564
2.324,33150.4,-4482.87,-3413.6,153.767,143.948,231.388,7356.29,949.984,9332.43,-28.9414,-12.476,43.3743,-17990.4,20767.8,-358.484,104.687,103.908,365.001,-3213.54,-12715.6,88.4427,29.4326,30.7579,173.084,-1601.6,1367.02,-3953.21,89.7676,102.165,92.9765,596.437,-10226.7,-2356.28,-22.2736,-36.4398,74.7396,8337.47,-3970.03,-772.416,111.902,-101.934,53.6146
2.325,33208.2,-3798.06,-3602.91,158.144,147.803,233.05,7026.01,1000.98,9506.34,-28.8682,-15.0905,42.8214,-18144.5,21116.3,-153.829,101.36,105.296,363.585,-3295.05,-13015.8,60.9872,29.6163,28.1921,173.719,-1559.4,1379.85,-3787.66,89.3549,107.081,90.5681,-0.900526,-10382.8,-2128.58,-22.1571,-36.0125,75.7011,8436.77,-3940.15,-1011.55,112.604,-102.245,54.7721
2.326,33178.6,-3077.71,-3876.0,160.974,151.114,234.228,6689.22,1161.45,9612.69,-28.4857,-17.7134,42.3591,-18229.5,21471.9,148.422,97.6661,105.893,362.099,-3341.0,-13307.3,-7.45511,29.8432,25.5431,174.145,-1483.45,1366.78,-3682.9,89.8095,111.641,88.1015,-530.961,-10555.9,-1862.26,-21.8618,-36.1573,76.5823,8559.76,-3865.09,-1206.51,113.511,-102.065,55.6891
2.327,33149.1,-2357.36,-4149.09,163.805,154.425,235.406,6352.42,1321.92,9719.04,-28.1033,-20.3362,41.8968,-18314.5,21827.6,450.672,93.9721,106.489,360.613,-3386.94,-13598.7,-75.8974,30.0701,22.8942,174.571,-1407.51,1353.7,-3578.15,90.2641,116.2,85.6349,-1061.02,-10729.0,-1595.94,-21.5666,-36.302,77.4634,8682.75,-3790.02,-1401.47,114.417,-101.884,56.6062
2.328,33119.5,-1637.0,-4422.18,166.636,157.736,236.584,6015.63,1482.4,9825.38,-27.7208,-22.959,41.4345,-18399.5,22183.3,752.923,90.278,107.085,359.127,-3432.88,-13890.2,-144.34,30.297,20.2452,174.997,-1331.56,1340.63,-3473.39,90.7186,120.76,83.1683,-1591.08,-10902.2,-1329.62,-21.2713,-36.4468,78.3446,8805.75,-3714.95,-1596.44,115.324,-101.704,57.5233
2.329,33098.8,-938.832,-4717.31,169.136,160.948,237.555,5703.65,1647.94,9923.08,-27.2778,-25.5654,41.0376,-18485.0,22527.8,1039.25,86.5733,107.527,357.58,-3474.46,-14169.7,-217.444,30.5394,17.5902,175.379,-1249.01,1332.69,-3386.39,91.4184,125.382,80.6687,-2093.23,-11072.6,-1059.04,-20.963,-36.7398,79.25,8924.35,-3623.85,-1793.03,116.25,-101.425,58.4163
2.33,33148.0,-418.097,-5188.76,168.984,163.369,236.872,5590.2,1854.11,9951.51,-26.3506,-28.0403,41.164,-18574.5,22782.9,1198.2,82.7832,106.729,355.542,-3481.07,-14353.4,-327.844,30.9065,14.8865,175.407,-1113.58,1365.82,-3441.42,94.0805,130.497,77.9052,-2372.07,-11221.6,-754.347,-20.5507,-38.2179,80.3492,9007.83,-3404.44,-2002.63,117.329,-100.366,59.1172
2.331,33197.3,102.637,-5660.22,168.832,165.79,236.189,5476.76,2060.27,9979.94,-25.4234,-30.5152,41.2904,-18664.0,23038.1,1357.15,78.9932,105.932,353.504,-3487.68,-14537.1,-438.243,31.2735,12.1828,175.435,-978.154,1398.96,-3496.45,96.7425,135.613,75.1417,-2650.9,-11370.6,-449.658,-20.1384,-39.6961,81.4485,9091.31,-3185.04,-2212.23,118.408,-99.3074,59.8181
2.332,33246.5,623.372,-6131.67,168.68,168.211,235.506,5363.31,2266.43,10008.4,-24.4962,-32.9901,41.4168,-18753.5,23293.2,1516.1,75.2031,105.135,351.466,-3494.29,-14720.8,-548.643,31.6405,9.47906,175.462,-842.725,1432.09,-3551.48,99.4045,140.729,72.3782,-2929.74,-11519.7,-144.97,-19.726,-41.1743,82.5477,9174.79,-2965.63,-2421.84,119.487,-98.2484,60.519
2.333,33295.8,1144.11,-6603.13,168.528,170.631,234.823,5249.87,2472.59,10036.8,-23.569,-35.4649,41.5432,-18842.9,23548.3,1675.04,71.413,104.338,349.427,-3500.9,-14904.5,-659.043,32.0076,6.77534,175.49,-707.297,1465.23,-3606.51,102.067,145.844,69.6147,-3208.58,-11668.7,159.718,-19.3137,-42.6524,83.647,9258.28,-2746.22,-2631.44,120.566,-97.1894,61.2199
2.334,33407.6,1535.54,-7140.76,166.944,172.21,233.009,5290.03,2563.84,10076.3,-22.6535,-38.0276,41.8777,-19087.0,23737.1,1701.18,68.0484,103.363,346.952,-3473.34,-15002.2,-755.032,32.3183,4.06331,175.402,-485.837,1553.01,-3693.4,105.39,151.718,66.5419,-3335.22,-11789.6,472.026,-18.7727,-45.5378,84.7987,9339.95,-2474.39,-2868.2,121.865,-95.6915,62.2892
2.335,33550.6,1862.32,-7711.48,164.643,173.366,230.63,5407.0,2597.65,10121.3,-21.7438,-40.6342,42.3162,-19408.2,23892.6,1660.91,64.8965,102.299,344.257,-3428.7,-15057.0,-843.816,32.6009,1.34711,175.255,-221.361,1668.12,-3796.23,109.043,157.97,63.3144,-3385.78,-11896.4,788.142,-18.1674,-49.1268,85.9766,9420.73,-2176.35,-3118.54,123.274,-93.9742,63.5427
2.336,33693.7,2189.1,-8282.2,162.343,174.523,228.25,5523.97,2631.46,10166.3,-20.8341,-43.2408,42.7547,-19729.5,24048.2,1620.64,61.7446,101.235,341.562,-3384.05,-15111.7,-932.599,32.8835,-1.36908,175.108,43.1144,1783.23,-3899.06,112.697,164.223,60.087,-3436.33,-12003.2,1104.26,-17.562,-52.7158,87.1545,9501.5,-1878.32,-3368.88,124.683,-92.2568,64.7963
2.337,33836.8,2515.88,-8852.92,160.042,175.68,225.871,5640.93,2665.26,10211.2,-19.9245,-45.8474,43.1932,-20050.8,24203.8,1580.37,58.5927,100.171,338.867,-3339.41,-15166.5,-1021.38,33.1661,-4.08527,174.961,307.59,1898.34,-4001.88,116.351,170.475,56.8595,-3486.89,-12110.0,1420.37,-16.9567,-56.3048,88.3324,9582.28,-1580.28,-3619.21,126.092,-90.5395,66.0498
2.338,33981.5,2841.86,-9432.12,157.364,176.511,223.223,5763.59,2697.97,10254.9,-18.9743,-48.4526,43.6399,-20404.9,24360.8,1549.22,55.4993,99.0099,336.012,-3275.66,-15200.4,-1095.06,33.5514,-6.67593,174.841,595.43,2032.52,-4097.35,119.979,176.756,53.5465,-3508.09,-12206.0,1718.43,-16.264,-60.3611,89.493,9678.23,-1288.44,-3867.84,127.587,-88.6469,67.3965
2.339,34132.0,3165.06,-10041.0,153.368,176.203,219.636,5906.15,2726.81,10294.0,-17.8826,-51.0528,44.1148,-20873.5,24522.7,1549.97,52.6105,97.5097,332.597,-3145.03,-15161.1,-1115.87,34.2959,-8.82722,174.817,965.04,2233.47,-4167.04,123.518,183.137,49.9338,-3426.58,-12264.2,1953.3,-15.266,-66.0533,90.5928,9827.32,-1018.33,-4110.5,129.383,-86.141,69.0694
2.34,34282.5,3488.25,-10649.8,149.371,175.895,216.049,6048.72,2755.66,10333.1,-16.7908,-53.6531,44.5898,-21342.2,24684.6,1550.73,49.7218,96.0094,329.182,-3014.4,-15121.9,-1136.68,35.0404,-10.9785,174.792,1334.65,2434.43,-4236.74,127.057,189.519,46.3212,-3345.07,-12322.3,2188.16,-14.268,-71.7454,91.6925,9976.4,-748.214,-4353.16,131.179,-83.6351,70.7423
2.341,34432.9,3811.45,-11258.7,145.374,175.587,212.461,6191.29,2784.51,10372.2,-15.699,-56.2533,45.0647,-21810.9,24846.5,1551.48,46.833,94.5091,325.767,-2883.77,-15082.7,-1157.49,35.7849,-13.1298,174.768,1704.26,2635.38,-4306.44,130.596,195.9,42.7086,-3263.56,-12380.5,2423.02,-13.27,-77.4375,92.7923,10125.5,-478.099,-4595.81,132.975,-81.1292,72.4152
2.342,34583.4,4134.65,-11867.6,141.377,175.278,208.874,6333.85,2813.35,10411.3,-14.6072,-58.8535,45.5397,-22279.6,25008.4,1552.24,43.9442,93.0088,322.351,-2753.13,-15043.5,-1178.3,36.5295,-15.2811,174.743,2073.87,2836.33,-4376.13,134.135,202.281,39.096,-3182.04,-12438.6,2657.88,-12.272,-83.1297,93.8921,10274.6,-207.984,-4838.47,134.771,-78.6233,74.0881
2.343,34673.5,4527.96,-12520.4,136.127,173.886,204.594,6392.04,2780.55,10470.4,-13.5918,-61.6354,45.9559,-22741.4,25189.8,1675.56,41.5585,90.2989,318.526,-2615.67,-14962.3,-1212.54,37.8897,-17.0678,174.803,2546.21,3105.7,-4351.68,136.885,207.518,35.2559,-3058.75,-12501.9,2841.93,-11.3627,-90.0661,94.6438,10314.0,63.1202,-5007.1,135.739,-75.3798,74.8935
2.344,34746.4,4941.32,-13185.7,130.52,172.185,200.117,6426.13,2730.14,10535.1,-12.5981,-64.4691,46.3555,-23201.2,25376.7,1833.9,39.3165,87.2434,314.582,-2476.24,-14869.1,-1250.63,39.4259,-18.7504,174.887,3047.9,3394.62,-4300.34,139.411,212.426,31.3509,-2923.52,-12566.7,3011.46,-10.4788,-97.358,95.2961,10322.2,334.507,-5154.58,136.471,-71.9255,75.4512
2.345,34819.2,5354.67,-13851.1,124.913,170.483,195.64,6460.21,2679.73,10599.9,-11.6044,-67.3028,46.755,-23661.0,25563.6,1992.24,37.0745,84.1879,310.639,-2336.82,-14775.9,-1288.71,40.9621,-20.433,174.97,3549.59,3683.54,-4248.99,141.936,217.335,27.4459,-2788.29,-12631.4,3180.99,-9.59482,-104.65,95.9484,10330.3,605.894,-5302.06,137.202,-68.4712,76.0088
2.346,34892.1,5768.03,-14516.4,119.306,168.782,191.163,6494.29,2629.32,10664.7,-10.6107,-70.1365,47.1545,-24120.8,25750.5,2150.58,34.8325,81.1323,306.696,-2197.4,-14682.6,-1326.79,42.4983,-22.1156,175.054,4051.29,3972.46,-4197.65,144.462,222.244,23.5409,-2653.06,-12696.2,3350.53,-8.71088,-111.942,96.6008,10338.4,877.28,-5449.55,137.934,-65.0169,76.5664
2.347,34927.3,6162.94,-15214.2,113.409,166.682,186.317,6487.73,2577.11,10735.4,-9.75622,-73.0661,47.4696,-24563.6,25902.4,2294.69,33.1434,77.5277,302.52,-2056.73,-14576.8,-1336.07,44.1614,-23.6362,175.283,4605.23,4305.22,-4089.99,146.584,226.17,19.7647,-2512.27,-12759.1,3456.43,-7.75318,-119.475,96.9214,10359.0,1141.51,-5583.81,138.806,-61.8268,77.1467
2.348,34887.3,6520.95,-15976.6,106.93,163.784,180.734,6399.85,2521.3,10818.0,-9.18021,-76.1873,47.6156,-24972.7,25984.2,2410.35,32.5602,72.8247,297.875,-1913.55,-14445.9,-1287.74,46.0784,-24.8329,175.8,5263.67,4725.66,-3869.7,147.9,228.129,16.2462,-2360.37,-12818.3,3435.06,-6.64795,-127.491,96.5787,10404.4,1391.42,-5691.62,139.959,-59.1647,77.7723
2.349,34847.4,6878.96,-16739.1,100.452,160.886,175.151,6311.98,2465.49,10900.7,-8.6042,-79.3085,47.7617,-25381.8,26066.0,2526.01,31.977,68.1218,293.231,-1770.38,-14314.9,-1239.41,47.9953,-26.0296,176.317,5922.11,5146.09,-3649.41,149.216,230.089,12.7277,-2208.47,-12877.6,3413.7,-5.54272,-135.508,96.236,10449.8,1641.33,-5799.44,141.112,-56.5027,78.3979
2.35,34807.4,7236.97,-17501.6,93.9733,157.988,169.568,6224.1,2409.68,10983.3,-8.0282,-82.4297,47.9078,-25790.8,26147.8,2641.68,31.3938,63.4188,288.587,-1627.2,-14184.0,-1191.08,49.9123,-27.2263,176.835,6580.56,5566.53,-3429.12,150.533,232.048,9.20916,-2056.58,-12936.9,3392.34,-4.4375,-143.524,95.8933,10495.2,1891.24,-5907.25,142.265,-53.8406,79.0235
2.351,34767.4,7594.98,-18264.1,87.4949,155.09,163.985,6136.23,2353.87,11065.9,-7.45219,-85.5509,48.0539,-26199.9,26229.7,2757.34,30.8107,58.7158,283.943,-1484.02,-14053.0,-1142.75,51.8293,-28.423,177.352,7239.0,5986.96,-3208.83,151.849,234.007,5.69066,-1904.68,-12996.1,3370.97,-3.33227,-151.54,95.5506,10540.6,2141.15,-6015.07,143.419,-51.1786,79.6492
2.352,34694.1,7763.08,-19036.4,81.2324,151.424,157.508,6049.89,2344.41,11116.8,-6.61774,-88.6471,48.1224,-26695.3,26081.8,2663.33,30.9377,53.6354,277.888,-1336.59,-13950.4,-1093.23,53.1964,-29.4351,178.21,7950.68,6465.2,-2835.87,152.374,232.354,3.31134,-1741.16,-13031.2,3156.13,-1.96781,-158.747,94.4002,10602.7,2465.69,-6042.1,144.61,-48.4902,80.0866
2.353,34616.7,7907.45,-19810.0,74.9968,147.662,150.92,5963.74,2340.75,11163.8,-5.75098,-91.7401,48.1812,-27201.6,25905.2,2543.11,31.1536,48.5079,271.657,-1188.63,-13851.4,-1043.56,54.4947,-30.4241,179.111,8669.01,6950.66,-2443.82,152.801,230.248,1.07441,-1576.18,-13063.2,2917.09,-0.57095,-165.853,93.1488,10666.7,2799.56,-6059.04,145.806,-45.7984,80.5006
2.354,34539.3,8051.81,-20583.5,68.7613,143.899,144.332,5877.59,2337.08,11210.7,-4.88422,-94.8332,48.24,-27707.8,25728.7,2422.89,31.3695,43.3803,265.426,-1040.67,-13752.4,-993.885,55.7931,-31.4131,180.012,9387.34,7436.12,-2051.77,153.227,228.143,-1.16251,-1411.21,-13095.2,2678.06,0.825909,-172.959,91.8974,10730.8,3133.43,-6075.98,147.003,-43.1066,80.9145
2.355,34461.9,8196.18,-21357.1,62.5257,140.137,137.743,5791.44,2333.42,11257.6,-4.01746,-97.9262,48.2987,-28214.1,25552.1,2302.67,31.5853,38.2528,259.194,-892.707,-13653.3,-944.213,57.0915,-32.4021,180.913,10105.7,7921.58,-1659.72,153.654,226.037,-3.39943,-1246.23,-13127.2,2439.03,2.22277,-180.064,90.6461,10794.9,3467.3,-6092.91,148.199,-40.4148,81.3285
2.356,34361.6,8235.84,-22153.6,56.9008,136.122,130.953,5731.61,2309.42,11322.9,-3.04049,-101.114,48.3324,-28760.6,25222.4,2122.3,31.695,33.5583,252.406,-772.48,-13599.6,-939.098,58.3418,-33.0466,181.997,10821.1,8420.49,-1234.11,153.546,221.822,-4.67882,-1083.47,-13118.1,2115.52,3.45093,-185.942,89.0193,10897.7,3761.87,-6073.39,148.435,-37.6601,81.5393
2.357,34232.7,8144.64,-22978.7,52.0393,131.789,123.91,5704.68,2260.0,11411.1,-1.92575,-104.422,48.3347,-29357.4,24701.4,1866.76,31.6721,29.4052,244.921,-686.924,-13602.5,-989.679,59.532,-33.2605,183.31,11533.0,8936.21,-766.524,152.77,214.969,-4.76131,-923.458,-13057.7,1686.41,4.46821,-190.285,86.9232,11048.7,4007.31,-6008.29,147.47,-34.8267,81.4963
2.358,34103.7,8053.43,-23803.9,47.1778,127.457,116.867,5677.76,2210.58,11499.3,-0.811021,-107.729,48.337,-29954.2,24180.3,1611.21,31.6491,25.2522,237.436,-601.367,-13605.3,-1040.26,60.7222,-33.4744,184.624,12244.9,9451.92,-298.943,151.993,208.117,-4.84379,-763.45,-12997.3,1257.3,5.48549,-194.629,84.8272,11199.7,4252.76,-5943.19,146.506,-31.9934,81.4533
2.359,33974.8,7962.23,-24629.0,42.3163,123.125,109.824,5650.83,2161.15,11587.4,0.303712,-111.036,48.3393,-30551.0,23659.2,1355.66,31.6261,21.0991,229.951,-515.811,-13608.2,-1090.84,61.9123,-33.6883,185.937,12956.8,9967.64,168.638,151.217,201.264,-4.92627,-603.443,-12936.9,828.192,6.50276,-198.972,82.7311,11350.7,4498.21,-5878.09,145.541,-29.16,81.4103
2.36,33845.8,7871.02,-25454.1,37.4548,118.792,102.781,5623.91,2111.73,11675.6,1.41845,-114.343,48.3416,-31147.8,23138.2,1100.11,31.6031,16.946,222.466,-430.254,-13611.1,-1141.42,63.1025,-33.9022,187.251,13668.7,10483.4,636.22,150.441,194.411,-5.00875,-443.436,-12876.5,399.084,7.52004,-203.315,80.6351,11501.8,4743.65,-5812.99,144.576,-26.3266,81.3672
2.361,33531.9,7737.08,-26243.6,34.2637,113.723,95.6994,5633.05,2047.68,11699.0,2.2783,-117.951,48.1449,-31584.7,22285.3,908.612,31.5738,13.6404,214.426,-335.34,-13706.5,-1079.59,64.6743,-33.3516,188.486,14326.5,10954.1,1052.23,147.588,183.128,-2.62522,-342.838,-12746.9,-16.8836,8.15209,-204.018,78.3376,11671.9,4951.77,-5786.46,141.047,-23.4814,80.783
2.362,33218.0,7603.14,-27033.0,31.0726,108.654,88.6181,5642.19,1983.63,11722.3,3.13815,-121.558,47.9482,-32021.7,21432.3,717.112,31.5446,10.3348,206.387,-240.427,-13801.9,-1017.76,66.2461,-32.8011,189.722,14984.3,11424.9,1468.24,144.735,171.845,-0.241691,-242.241,-12617.4,-432.851,8.78414,-204.721,76.0402,11842.0,5159.89,-5759.94,137.518,-20.6361,80.1988
2.363,32904.1,7469.2,-27822.4,27.8816,103.584,81.5368,5651.33,1919.58,11745.7,3.99801,-125.166,47.7515,-32458.7,20579.4,525.613,31.5153,7.0291,198.347,-145.513,-13897.2,-955.928,67.8178,-32.2505,190.957,15642.1,11895.7,1884.25,141.882,160.561,2.14184,-141.643,-12487.8,-848.818,9.41619,-205.424,73.7427,12012.1,5368.01,-5733.41,133.988,-17.7909,79.6146
2.364,32590.2,7335.26,-28611.9,24.6905,98.515,74.4555,5660.47,1855.53,11769.1,4.85786,-128.773,47.5547,-32895.7,19726.5,334.113,31.486,3.72346,190.308,-50.5995,-13992.6,-894.096,69.3896,-31.7,192.193,16299.9,12366.5,2300.26,139.028,149.278,4.52537,-41.0455,-12358.3,-1264.79,10.0482,-206.126,71.4453,12182.2,5576.13,-5706.89,130.459,-14.9457,79.0303
2.365,32151.8,7263.64,-29288.1,21.8068,92.7095,67.8878,5633.12,1857.98,11808.9,5.48975,-132.526,47.3529,-33164.8,18867.8,197.882,31.549,0.702452,181.867,56.3926,-14097.9,-838.667,71.0871,-31.1648,193.495,16861.7,12813.8,2579.25,134.084,136.528,7.72827,89.0433,-12225.1,-1655.55,10.3682,-205.042,69.3509,12402.6,5718.4,-5677.3,126.853,-12.2954,78.0844
2.366,31613.7,7241.9,-29873.8,19.1689,86.315,61.7311,5576.59,1913.65,11861.9,5.93927,-136.394,47.147,-33299.7,18004.5,105.865,31.6859,-2.09084,173.105,173.048,-14211.1,-788.36,72.8852,-30.642,194.849,17346.5,13242.3,2748.63,127.467,122.604,11.5867,242.725,-12089.0,-2026.16,10.4384,-202.529,67.4189,12663.3,5808.0,-5645.25,123.185,-9.801,76.8491
2.367,31075.7,7220.15,-30459.5,16.5311,79.9205,55.5743,5520.06,1969.31,11914.8,6.38879,-140.263,46.9411,-33434.6,17141.2,13.8489,31.8227,-4.88413,164.343,289.702,-14324.2,-738.054,74.6833,-30.1192,196.203,17831.4,13670.8,2918.0,120.85,108.68,15.445,396.407,-11952.9,-2396.76,10.5087,-200.016,65.4869,12924.1,5897.6,-5613.2,119.518,-7.30662,75.6138
2.368,30537.6,7198.4,-31045.3,13.8932,73.526,49.4175,5463.53,2024.97,11967.8,6.83831,-144.131,46.7352,-33569.5,16277.9,-78.1676,31.9596,-7.67742,155.581,406.357,-14437.4,-687.747,76.4814,-29.5964,197.557,18316.3,14099.3,3087.38,114.233,94.7559,19.3034,550.089,-11816.8,-2767.37,10.579,-197.502,63.5549,13184.8,5987.19,-5581.15,115.85,-4.81225,74.3785
2.369,29988.6,7195.85,-31615.8,11.17,66.9895,43.4239,5410.01,2084.91,12016.5,7.31096,-148.001,46.5746,-33685.7,15452.5,-150.923,32.0955,-10.4068,146.745,511.648,-14546.9,-650.945,78.1865,-29.0318,198.908,18761.8,14525.2,3217.73,107.069,80.9129,23.2356,706.49,-11682.2,-3110.24,10.6274,-194.835,61.6902,13441.2,6074.19,-5535.51,112.184,-2.47682,73.1488
2.37,29352.3,7346.86,-32065.5,7.76346,59.3162,38.7349,5380.56,2179.05,12031.2,7.9687,-151.879,46.7772,-33652.9,14930.2,-69.5928,32.2239,-12.6245,137.317,526.022,-14626.4,-722.183,79.1477,-28.1325,200.224,18892.7,14930.3,3035.83,95.5253,67.7174,27.7579,884.64,-11559.1,-3231.26,10.5013,-190.938,60.3637,13662.6,6140.4,-5381.15,108.534,-1.41293,71.9641
2.371,28715.9,7497.88,-32515.1,4.35695,51.6429,34.0459,5351.11,2273.19,12045.9,8.62644,-155.757,46.9797,-33620.1,14407.9,11.7377,32.3523,-14.8423,127.889,540.397,-14706.0,-793.42,80.1088,-27.2332,201.541,19023.5,15335.3,2853.93,83.9816,54.5219,32.2801,1062.79,-11436.0,-3352.28,10.3753,-187.04,59.0372,13884.0,6206.6,-5226.79,104.884,-0.349033,70.7794
2.372,28079.5,7648.9,-32964.7,0.950429,43.9696,29.3569,5321.66,2367.33,12060.6,9.28417,-159.635,47.1822,-33587.2,13885.6,93.0682,32.4808,-17.0601,118.462,554.772,-14785.5,-864.658,81.0699,-26.334,202.857,19154.4,15740.4,2672.03,72.4379,41.3264,36.8024,1240.94,-11313.0,-3473.31,10.2492,-183.142,57.7107,14105.4,6272.8,-5072.42,101.233,0.714862,69.5947
2.373,27443.2,7799.92,-33414.3,-2.45609,36.2964,24.6679,5292.21,2461.47,12075.3,9.94191,-163.513,47.3847,-33554.4,13363.2,174.399,32.6092,-19.2778,109.034,569.147,-14865.1,-935.896,82.0311,-25.4347,204.174,19285.2,16145.5,2490.13,60.8943,28.1309,41.3246,1419.09,-11189.9,-3594.33,10.1231,-179.245,56.3842,14326.8,6339.0,-4918.06,97.5828,1.77876,68.41
2.374,26964.6,7977.08,-33786.9,-6.84159,28.0605,21.2274,5288.28,2484.94,12085.0,10.6954,-167.539,47.6778,-33562.9,13082.7,364.222,32.6335,-21.5591,99.2614,494.516,-14957.8,-1034.54,82.4393,-24.386,205.472,19121.5,16480.8,2217.31,46.8018,18.1044,45.1864,1630.49,-11138.2,-3610.6,10.2778,-175.722,55.5821,14547.3,6319.12,-4758.47,93.3128,2.30295,67.0782
2.375,26564.9,8167.3,-34120.9,-11.7166,19.5434,18.4113,5297.12,2473.08,12092.2,11.4968,-171.64,48.0161,-33592.1,12923.0,608.291,32.6059,-23.8721,89.3168,375.384,-15057.2,-1146.88,82.5712,-23.2625,206.761,18810.4,16781.3,1899.02,31.4349,9.66246,48.7179,1858.51,-11122.3,-3574.49,10.5729,-172.386,55.0422,14767.2,6256.18,-4596.26,88.7329,2.55729,65.6727
2.376,26165.2,8357.52,-34454.9,-16.5916,11.0262,15.5952,5305.95,2461.21,12099.4,12.2982,-175.74,48.3544,-33621.2,12763.3,852.361,32.5782,-26.1851,79.3723,256.251,-15156.6,-1259.22,82.703,-22.1391,208.049,18499.4,17081.8,1580.74,16.068,1.22052,52.2494,2086.53,-11106.3,-3538.39,10.868,-169.05,54.5023,14987.1,6193.25,-4434.06,84.1531,2.81162,64.2673
2.377,25765.5,8547.75,-34788.9,-21.4666,2.5091,12.7791,5314.79,2449.35,12106.6,13.0996,-179.841,48.6928,-33650.4,12603.6,1096.43,32.5505,-28.4982,69.4278,137.118,-15255.9,-1371.57,82.8349,-21.0156,209.338,18188.4,17382.3,1262.45,0.701091,-7.22142,55.7809,2314.56,-11090.3,-3502.28,11.1631,-165.715,53.9624,15207.0,6130.31,-4271.85,79.5732,3.06596,62.8618
2.378,25456.2,8730.39,-35094.6,-26.6549,-5.91139,10.3944,5320.13,2445.82,12106.3,13.9622,-183.972,48.9878,-33714.7,12481.3,1332.92,32.513,-30.8178,59.3815,13.2148,-15337.1,-1467.97,82.8246,-20.0167,210.568,17826.1,17636.4,1000.05,-14.6489,-14.2176,58.7265,2530.11,-11076.8,-3470.86,11.6245,-162.531,53.5747,15420.6,6048.78,-4138.22,74.0466,3.21459,61.484
2.379,25463.4,8886.52,-35301.0,-32.9399,-13.9936,9.51947,5313.24,2471.45,12079.6,15.0392,-188.208,49.1314,-33902.2,12489.6,1542.88,32.4413,-33.1608,48.9792,-127.385,-15354.5,-1508.61,82.3168,-19.4536,211.593,17284.4,17728.2,933.222,-29.9399,-16.1536,59.6214,2702.02,-11071.7,-3455.83,12.668,-159.881,53.7197,15612.1,5902.15,-4104.6,65.2065,2.9932,60.203
2.38,25470.5,9042.64,-35507.5,-39.2249,-22.0759,8.64456,5306.35,2497.09,12052.9,16.1161,-192.445,49.2749,-34089.7,12498.0,1752.84,32.3697,-35.5038,38.5769,-267.984,-15371.9,-1549.25,81.8091,-18.8906,212.618,16742.8,17820.0,866.399,-45.2308,-18.0897,60.5163,2873.93,-11066.6,-3440.8,13.7114,-157.23,53.8648,15803.6,5755.52,-4070.99,56.3664,2.77182,58.9219
2.381,25477.7,9198.77,-35713.9,-45.5099,-30.1582,7.76964,5299.45,2522.72,12026.2,17.1931,-196.682,49.4184,-34277.1,12506.3,1962.8,32.298,-37.8467,28.1746,-408.584,-15389.4,-1589.88,81.3013,-18.3275,213.642,16201.1,17911.7,799.576,-60.5217,-20.0257,61.4112,3045.85,-11061.6,-3425.78,14.7549,-154.58,54.0099,15995.1,5608.89,-4037.37,47.5263,2.55044,57.6408
2.382,25484.9,9354.9,-35920.3,-51.7948,-38.2404,6.89472,5292.56,2548.35,11999.6,18.2701,-200.918,49.562,-34464.6,12514.7,2172.77,32.2263,-40.1897,17.7723,-549.183,-15406.8,-1630.52,80.7935,-17.7644,214.667,15659.5,18003.5,732.753,-75.8126,-21.9618,62.306,3217.76,-11056.5,-3410.75,15.7983,-151.93,54.155,16186.6,5462.26,-4003.76,38.6862,2.32906,56.3598
2.383,25593.1,9425.99,-36014.7,-58.2762,-45.9304,6.89393,5308.17,2611.79,12032.7,19.4997,-205.249,50.1217,-34622.2,12511.9,2299.26,32.1668,-42.1625,7.39641,-678.244,-15414.7,-1676.3,80.3843,-17.9876,215.802,15189.5,17903.8,975.426,-85.9713,-20.4021,61.4344,3306.0,-11045.1,-3408.27,17.2904,-149.636,54.8282,16245.6,5238.19,-3991.66,32.2109,1.20889,54.575
2.384,25730.2,9472.79,-36077.0,-64.8136,-53.5084,7.14289,5330.21,2686.03,12082.9,20.7729,-209.606,50.8002,-34771.2,12506.0,2401.91,32.1108,-44.0294,-2.97193,-804.008,-15419.9,-1723.56,80.0031,-18.4354,216.968,14739.9,17749.3,1306.53,-94.6636,-17.8436,60.058,3370.33,-11031.8,-3409.38,18.9108,-147.444,55.6523,16266.7,4992.0,-3985.71,26.4113,-0.168068,52.6463
2.385,25867.3,9519.59,-36139.4,-71.3511,-61.0864,7.39185,5352.25,2760.28,12133.1,22.0462,-213.963,51.4788,-34920.3,12500.0,2504.56,32.0548,-45.8964,-13.3403,-929.772,-15425.1,-1770.82,79.622,-18.8833,218.135,14290.3,17594.8,1637.63,-103.356,-15.2851,58.6815,3434.66,-11018.5,-3410.49,20.5311,-145.252,56.4763,16287.7,4745.82,-3979.76,20.6117,-1.54503,50.7176
2.386,26004.4,9566.39,-36201.8,-77.8885,-68.6643,7.64081,5374.29,2834.52,12183.3,23.3195,-218.32,52.1574,-35069.4,12494.1,2607.21,31.9988,-47.7634,-23.7086,-1055.54,-15430.2,-1818.08,79.2409,-19.3311,219.301,13840.8,17440.3,1968.73,-112.048,-12.7266,57.3051,3498.99,-11005.2,-3411.6,22.1514,-143.06,57.3004,16308.8,4499.63,-3973.81,14.812,-2.92199,48.7889
2.387,26084.0,9552.99,-36197.7,-84.092,-76.2019,7.9388,5378.87,2930.81,12187.4,24.5257,-222.743,52.92,-35116.3,12456.1,2662.83,31.9416,-49.3645,-33.9363,-1178.21,-15431.8,-1891.06,78.7623,-20.096,220.308,13437.3,17238.3,2325.68,-117.472,-9.5835,55.6816,3542.73,-11009.6,-3422.82,23.8469,-140.771,58.2256,16329.0,4256.33,-3964.79,9.93239,-4.4719,46.9333
2.388,26048.4,9419.17,-36060.6,-89.6277,-83.6588,8.33484,5348.5,3071.2,12099.4,25.5977,-227.295,53.8506,-34959.0,12354.2,2624.43,31.882,-50.4338,-43.8825,-1294.72,-15426.1,-2015.47,78.089,-21.495,220.995,13126.0,16941.4,2734.35,-116.359,-5.27121,53.5637,3545.3,-11049.5,-3454.27,25.6925,-138.288,59.353,16347.5,4018.8,-3949.63,6.89283,-6.36771,45.2239
2.389,26012.9,9285.36,-35923.5,-95.1634,-91.1156,8.73088,5318.14,3211.59,12011.3,26.6698,-231.847,54.7813,-34801.7,12252.3,2586.02,31.8224,-51.5031,-53.8287,-1411.22,-15420.4,-2139.89,77.4156,-22.894,221.682,12814.8,16644.5,3143.02,-115.245,-0.958921,51.4458,3547.87,-11089.5,-3485.72,27.5382,-135.805,60.4804,16366.0,3781.28,-3934.48,3.85327,-8.26353,43.5146
2.39,25977.4,9151.55,-35786.4,-100.699,-98.5725,9.12692,5287.77,3351.98,11923.3,27.7419,-236.4,55.712,-34644.4,12150.4,2547.61,31.7629,-52.5724,-63.775,-1527.73,-15414.7,-2264.31,76.7423,-24.293,222.369,12503.5,16347.6,3551.69,-114.132,3.35337,49.3279,3550.43,-11129.5,-3517.17,29.3839,-133.322,61.6078,16384.5,3543.76,-3919.32,0.813716,-10.1593,41.8053
2.391,25941.9,9017.74,-35649.4,-106.235,-106.029,9.52296,5257.41,3492.37,11835.2,28.814,-240.952,56.6426,-34487.1,12048.4,2509.2,31.7033,-53.6417,-73.7212,-1644.24,-15409.0,-2388.73,76.069,-25.692,223.056,12192.2,16050.8,3960.36,-113.019,7.66566,47.2099,3553.0,-11169.4,-3548.63,31.2295,-130.839,62.7352,16403.0,3306.24,-3904.17,-2.22584,-12.0551,40.0959
2.392,25743.3,8773.91,-35391.3,-110.294,-113.491,9.73341,5185.42,3696.18,11849.3,29.9173,-245.722,58.0107,-34137.8,11977.4,2417.11,31.6973,-54.0775,-83.0944,-1758.92,-15371.5,-2645.74,75.4562,-27.2704,223.701,11852.8,15689.6,4157.16,-105.539,12.3914,45.4125,3497.13,-11251.5,-3605.19,33.08,-127.496,63.958,16409.2,2968.1,-3800.89,-3.68539,-13.446,38.2138
2.393,25524.3,8516.34,-35118.2,-114.17,-120.952,9.92065,5108.23,3907.91,11876.1,31.0245,-250.519,59.4334,-33764.5,11910.3,2318.3,31.6979,-54.4342,-92.3959,-1873.38,-15330.0,-2919.33,74.8509,-28.8713,224.34,11509.8,15320.5,4327.48,-97.2633,17.1687,43.655,3433.95,-11338.8,-3664.89,34.9311,-124.046,65.1928,16413.8,2617.37,-3686.59,-4.94743,-14.7737,36.3102
2.394,25305.4,8258.76,-34845.0,-118.045,-128.414,10.1079,5031.04,4119.65,11902.9,32.1316,-255.316,60.8561,-33391.1,11843.2,2219.49,31.6985,-54.7908,-101.697,-1987.84,-15288.4,-3192.92,74.2457,-30.4721,224.979,11166.9,14951.4,4497.79,-88.9875,21.9461,41.8976,3370.78,-11426.2,-3724.59,36.7822,-120.596,66.4276,16418.5,2266.65,-3572.3,-6.20948,-16.1014,34.4065
2.395,25086.4,8001.18,-34571.9,-121.92,-135.876,10.2951,4953.86,4331.39,11929.6,33.2388,-260.114,62.2789,-33017.8,11776.1,2120.69,31.6992,-55.1474,-110.999,-2102.29,-15246.9,-3466.5,73.6404,-32.0729,225.619,10823.9,14582.2,4668.11,-80.7116,26.7235,40.1402,3307.61,-11513.5,-3784.3,38.6333,-117.146,67.6624,16423.1,1915.92,-3458.01,-7.47152,-17.4291,32.5029
2.396,24882.1,7766.57,-34250.1,-125.138,-143.223,10.3356,4879.92,4497.94,11949.0,34.6463,-264.986,63.9555,-32622.7,11770.9,2038.29,31.6624,-55.2356,-119.888,-2160.45,-15245.5,-3681.23,72.7123,-34.0086,226.21,10437.4,14184.8,4775.19,-71.3515,30.7148,38.1152,3243.14,-11592.0,-3821.33,40.3072,-113.307,68.6459,16438.2,1651.08,-3392.89,-8.69068,-18.5698,30.4976
2.397,24696.1,7560.66,-33867.6,-127.534,-150.426,10.1925,4810.06,4608.0,11958.9,36.4292,-269.952,65.9495,-32200.4,11843.3,1976.41,31.5789,-54.988,-128.262,-2148.23,-15294.2,-3822.38,71.3807,-36.3629,226.741,9996.42,13752.0,4803.23,-60.6361,33.7234,35.7558,3177.05,-11659.5,-3830.03,41.7595,-108.983,69.3151,16466.4,1493.6,-3389.26,-9.85622,-19.4768,28.3653
2.398,24510.1,7354.76,-33485.1,-129.93,-157.628,10.0494,4740.2,4718.06,11968.9,38.212,-274.919,67.9436,-31778.2,11915.6,1914.52,31.4954,-54.7405,-136.636,-2136.01,-15343.0,-3963.53,70.049,-38.7172,227.272,9555.43,13319.2,4831.27,-49.9206,36.732,33.3965,3110.96,-11727.0,-3838.74,43.2118,-104.659,69.9843,16494.6,1336.12,-3385.62,-11.0218,-20.3837,26.233
2.399,24324.1,7148.85,-33102.7,-132.326,-164.831,9.9063,4670.34,4828.13,11978.8,39.9949,-279.885,69.9376,-31355.9,11987.9,1852.64,31.4119,-54.493,-145.01,-2123.8,-15391.7,-4104.68,68.7174,-41.0714,227.803,9114.44,12886.4,4859.31,-39.2051,39.7406,31.0371,3044.87,-11794.5,-3847.44,44.6641,-100.334,70.6535,16522.8,1178.64,-3381.99,-12.1873,-21.2907,24.1007
2.4,24138.1,6942.94,-32720.2,-134.722,-172.034,9.76322,4600.48,4938.19,11988.8,41.7777,-284.852,71.9317,-30933.6,12060.2,1790.76,31.3283,-54.2455,-153.384,-2111.58,-15440.5,-4245.83,67.3857,-43.4257,228.334,8673.45,12453.6,4887.35,-28.4896,42.7493,28.6777,2978.79,-11862.0,-3856.14,46.1164,-96.0101,71.3227,16551.1,1021.16,-3378.35,-13.3528,-22.1977,21.9684
2.401,24046.4,6800.92,-32274.5,-135.883,-178.464,8.68525,4527.44,4989.17,12099.5,44.034,-290.044,74.1654,-30554.7,12216.1,1761.33,31.2599,-53.8344,-160.49,-2054.88,-15492.7,-4387.22,66.4087,-46.0434,228.762,8212.55,11967.3,4965.85,-19.4772,40.2646,23.9162,2906.16,-12000.8,-3870.59,46.6554,-91.4335,71.1011,16472.9,886.942,-3653.33,-13.2671,-22.6622,20.0384
2.402,23954.8,6658.89,-31828.9,-137.043,-184.894,7.60728,4454.4,5040.15,12210.2,46.2903,-295.235,76.3992,-30175.7,12372.0,1731.89,31.1915,-53.4233,-167.597,-1998.18,-15545.0,-4528.62,65.4317,-48.6612,229.19,7751.65,11481.1,5044.36,-10.4649,37.7799,19.1546,2833.53,-12139.6,-3885.05,47.1944,-86.8569,70.8794,16394.6,752.72,-3928.3,-13.1814,-23.1267,18.1083
2.403,23863.1,6516.87,-31383.2,-138.204,-191.324,6.52931,4381.36,5091.12,12320.9,48.5465,-300.427,78.633,-29796.7,12527.9,1702.46,31.1231,-53.0123,-174.703,-1941.48,-15597.3,-4670.02,64.4547,-51.2789,229.618,7290.75,10994.8,5122.86,-1.4525,35.2953,14.3931,2760.9,-12278.5,-3899.5,47.7334,-82.2803,70.6578,16316.4,618.497,-4203.28,-13.0957,-23.5912,16.1782
2.404,23771.5,6374.84,-30937.5,-139.364,-197.754,5.45134,4308.32,5142.1,12431.5,50.8028,-305.619,80.8668,-29417.8,12683.7,1673.03,31.0546,-52.6012,-181.81,-1884.79,-15649.6,-4811.41,63.4776,-53.8967,230.047,6829.84,10508.6,5201.36,7.55987,32.8106,9.63159,2688.27,-12417.3,-3913.96,48.2724,-77.7038,70.4361,16238.2,484.275,-4478.25,-13.01,-24.0557,14.2481
2.405,23644.7,6256.12,-30413.1,-140.323,-203.451,3.85786,4225.84,5158.54,12495.8,52.9642,-311.077,83.148,-29044.5,12789.7,1684.83,31.136,-52.4436,-188.058,-1819.73,-15729.6,-4884.82,62.5731,-56.472,230.412,6362.41,9990.84,5286.43,14.6915,26.856,3.34178,2634.59,-12496.6,-3888.96,48.1842,-73.4404,69.9712,16125.6,418.674,-4685.48,-13.3171,-23.9208,12.0505
2.406,23490.0,6156.04,-29825.6,-141.12,-208.562,1.85196,4135.81,5147.34,12523.0,55.0497,-316.747,85.4673,-28675.7,12855.7,1729.61,31.3371,-52.4887,-193.619,-1747.98,-15831.9,-4903.84,61.7267,-59.0135,230.727,5889.76,9447.93,5376.76,20.3186,18.1255,-4.17066,2596.07,-12528.4,-3832.39,47.5943,-69.4276,69.3116,15985.6,407.97,-4838.5,-13.9386,-23.3064,9.63884
2.407,23335.2,6055.97,-29238.1,-141.917,-213.673,-0.153943,4045.79,5136.14,12550.1,57.1351,-322.418,87.7865,-28306.9,12921.8,1774.4,31.5382,-52.5338,-199.181,-1676.23,-15934.2,-4922.86,60.8802,-61.555,231.042,5417.1,8905.01,5467.08,25.9457,9.39498,-11.6831,2557.54,-12560.2,-3775.83,47.0043,-65.4149,68.652,15845.5,397.266,-4991.53,-14.56,-22.692,7.22721
2.408,23180.5,5955.89,-28650.6,-142.715,-218.784,-2.15984,3955.76,5124.94,12577.3,59.2206,-328.089,90.1058,-27938.2,12987.8,1819.18,31.7393,-52.579,-204.742,-1604.48,-16036.4,-4941.88,60.0337,-64.0965,231.357,4944.45,8362.1,5557.4,31.5728,0.664454,-19.1955,2519.02,-12591.9,-3719.26,46.4144,-61.4021,67.9924,15705.5,386.562,-5144.56,-15.1815,-22.0775,4.81557
2.409,23006.9,5868.49,-28066.0,-143.346,-223.232,-4.22531,3866.63,5111.32,12601.3,61.4011,-333.784,92.4544,-27578.4,13033.4,1882.41,31.9602,-52.6913,-210.064,-1532.76,-16138.8,-4961.53,59.1834,-66.6881,231.661,4462.69,7826.38,5633.77,36.6916,-8.30471,-26.8967,2487.68,-12625.6,-3657.45,45.769,-57.5384,67.3086,15560.7,376.591,-5279.54,-15.6555,-21.4158,2.34308
2.41,22682.4,5882.55,-27505.0,-142.65,-222.374,-6.76732,3784.7,5078.37,12599.8,64.3412,-339.68,95.0384,-27291.1,12916.0,2093.15,32.3393,-53.3414,-213.474,-1461.26,-16242.2,-4986.23,58.3026,-69.6804,231.875,3908.09,7348.24,5598.53,37.7441,-19.183,-36.108,2513.85,-12674.6,-3553.65,44.6802,-54.8675,66.4308,15378.2,372.491,-5270.15,-14.9506,-20.3754,-0.61622
2.411,22358.0,5896.6,-26944.0,-141.955,-221.515,-9.30932,3702.78,5045.41,12598.4,67.2814,-345.576,97.6225,-27003.7,12798.5,2303.88,32.7184,-53.9916,-216.884,-1389.76,-16345.6,-5010.93,57.4218,-72.6727,232.089,3353.49,6870.1,5563.29,38.7966,-30.0612,-45.3192,2540.01,-12723.6,-3449.85,43.5913,-52.1965,65.553,15195.7,368.391,-5260.77,-14.2457,-19.3351,-3.57552
2.412,22033.5,5910.66,-26382.9,-141.259,-220.657,-11.8513,3620.85,5012.46,12597.0,70.2215,-351.472,100.207,-26716.3,12681.0,2514.62,33.0974,-54.6417,-220.293,-1318.26,-16449.1,-5035.63,56.541,-75.6651,232.303,2798.9,6391.96,5528.05,39.849,-40.9395,-54.5304,2566.17,-12772.6,-3346.05,42.5025,-49.5255,64.6753,15013.1,364.291,-5251.38,-13.5408,-18.2948,-6.53482
2.413,21709.1,5924.71,-25821.9,-140.564,-219.799,-14.3933,3538.92,4979.5,12595.6,73.1617,-357.368,102.791,-26429.0,12563.5,2725.36,33.4765,-55.2919,-223.703,-1246.76,-16552.5,-5060.32,55.6602,-78.6574,232.517,2244.3,5913.83,5492.81,40.9015,-51.8178,-63.7416,2592.33,-12821.7,-3242.26,41.4137,-46.8546,63.7975,14830.6,360.191,-5242.0,-12.8359,-17.2545,-9.49412
2.414,22556.6,2365.5,-25516.0,-121.194,-169.485,-24.2826,3512.69,4944.03,12594.9,75.9046,-363.385,105.086,-28897.9,12360.5,1124.72,39.263,-58.3495,-227.552,-1211.88,-16670.2,-5055.28,54.6319,-82.0832,232.82,1567.56,5652.13,6087.15,34.0968,-62.7467,-73.2619,2658.94,-12877.5,-3092.02,40.0544,-45.2139,62.6333,14619.5,386.673,-5189.3,-12.1354,-15.7123,-12.2788
2.415,23990.1,-2980.34,-25337.6,-92.4863,-94.4425,-37.8455,3514.31,4907.29,12594.5,78.549,-369.463,107.238,-32745.0,12114.7,-1381.62,47.7533,-62.6109,-231.621,-1195.32,-16795.0,-5035.36,53.53,-85.7259,233.167,829.749,5498.65,6996.29,23.3634,-73.7009,-82.9368,2745.77,-12936.8,-2918.56,38.5598,-44.0883,61.3258,14394.0,428.447,-5114.95,-11.4371,-13.9193,-14.9763
2.416,25423.6,-8326.18,-25159.3,-63.7791,-19.4002,-51.4084,3515.93,4870.56,12594.1,81.1933,-375.54,109.39,-36592.1,11868.9,-3887.96,56.2435,-66.8723,-235.69,-1178.75,-16919.9,-5015.45,52.428,-89.3685,233.515,91.9348,5345.17,7905.42,12.63,-84.6551,-92.6117,2832.6,-12996.2,-2745.11,37.0653,-42.9627,60.0184,14168.6,470.221,-5040.6,-10.7388,-12.1262,-17.6737
2.417,26857.1,-13672.0,-24980.9,-35.0718,55.6421,-64.9713,3517.55,4833.83,12593.8,83.8376,-381.618,111.541,-40439.1,11623.1,-6394.3,64.7337,-71.1337,-239.759,-1162.18,-17044.8,-4995.53,51.3261,-93.0112,233.862,-645.879,5191.69,8814.56,1.89664,-95.6093,-102.287,2919.43,-13055.5,-2571.65,35.5708,-41.8371,58.711,13943.1,511.995,-4966.25,-10.0405,-10.3332,-20.3711
2.418,31664.1,-19806.2,-22496.3,-4.40525,137.314,-72.7405,3522.55,4806.37,12600.2,86.6526,-387.742,113.751,-45575.3,11613.9,-9954.03,71.2944,-65.8419,-246.611,-1106.74,-17170.8,-4961.34,50.293,-96.7487,234.155,-1403.97,5087.82,9625.86,-10.6863,-104.99,-111.751,3020.35,-13109.5,-2393.69,34.1623,-41.1436,57.5351,13740.4,566.492,-4886.45,-9.95136,-7.72444,-22.7663
2.419,48278.0,-28699.7,-11939.6,33.119,242.188,-60.2318,3539.4,4811.36,12630.5,90.0651,-394.026,116.168,-55223.5,12432.7,-17200.6,71.1014,-27.1137,-263.206,-915.246,-17301.3,-4877.2,49.5011,-100.818,234.257,-2233.05,5157.56,10094.8,-29.7425,-108.865,-120.479,3170.63,-13145.1,-2199.96,33.0552,-41.9628,56.8197,13617.2,665.522,-4787.59,-11.9941,-2.26072,-24.1035
2.42,64891.9,-37593.1,-1382.92,70.6432,347.062,-47.7231,3556.24,4816.35,12660.7,93.4775,-400.311,118.584,-64871.6,13251.5,-24447.3,70.9084,11.6145,-279.801,-723.754,-17431.7,-4793.05,48.7091,-104.887,234.36,-3062.12,5227.29,10563.7,-48.7987,-112.74,-129.208,3320.9,-13180.7,-2006.23,31.9481,-42.7819,56.1043,13494.0,764.551,-4688.73,-14.0369,3.20299,-25.4408
2.421,81505.8,-46486.5,9173.76,108.167,451.936,-35.2144,3573.08,4821.34,12691.0,96.89,-406.595,121.0,-74519.8,14070.3,-31693.9,70.7154,50.3427,-296.395,-532.261,-17562.1,-4708.91,47.9172,-108.957,234.462,-3891.19,5297.03,11032.6,-67.8549,-116.614,-137.936,3471.17,-13216.3,-1812.5,30.8409,-43.601,55.3889,13370.8,863.581,-4589.87,-16.0797,8.6667,-26.7781
2.422,98119.7,-55380.0,19730.4,145.692,556.81,-22.7057,3589.93,4826.33,12721.3,100.302,-412.879,123.416,-84167.9,14889.1,-38940.5,70.5224,89.0709,-312.99,-340.769,-17692.5,-4624.76,47.1253,-113.026,234.565,-4720.27,5366.77,11501.5,-86.9111,-120.489,-146.664,3621.44,-13251.8,-1618.77,29.7338,-44.4201,54.6735,13247.7,962.61,-4491.01,-18.1225,14.1304,-28.1154
2.423,105481.0,-44653.6,18810.8,149.179,588.757,0.217904,3515.93,4907.16,12892.3,102.801,-420.08,125.47,-78376.4,19491.2,-29230.2,30.1824,115.192,-314.037,-130.327,-17810.3,-4639.39,46.069,-117.359,234.834,-5318.28,4955.6,10118.5,-89.5066,-117.419,-152.885,3760.79,-13256.0,-1502.29,28.7841,-46.4193,54.2328,13039.6,1222.04,-3442.58,-17.9944,17.0911,-27.3337
2.424,110199.0,-28321.5,14612.3,142.941,599.867,26.1173,3415.98,5009.64,13103.5,105.038,-427.542,127.42,-68173.5,25174.3,-14675.0,-21.6282,137.71,-310.641,85.5288,-17924.4,-4682.24,44.9372,-121.767,235.151,-5850.27,4407.02,8206.46,-87.3991,-112.365,-158.39,3897.02,-13251.2,-1407.88,27.8794,-48.7556,53.8706,12807.2,1527.29,-2122.85,-17.2461,19.3366,-25.9466
2.425,114916.0,-11989.5,10413.7,136.703,610.976,52.0166,3316.03,5112.13,13314.7,107.275,-435.003,129.37,-57970.6,30857.4,-119.801,-73.4388,160.229,-307.246,301.385,-18038.5,-4725.09,43.8054,-126.175,235.468,-6382.26,3858.45,6294.41,-85.2915,-107.312,-163.894,4033.25,-13246.4,-1313.47,26.9747,-51.0919,53.5084,12574.8,1832.54,-803.126,-16.4978,21.5821,-24.5595
2.426,119634.0,4342.53,6215.18,130.465,622.086,77.916,3216.08,5214.61,13525.9,109.512,-442.465,131.321,-47767.7,36540.4,14435.4,-125.249,182.748,-303.85,517.241,-18152.7,-4767.94,42.6736,-130.583,235.785,-6914.25,3309.87,4382.36,-83.1839,-102.258,-169.399,4169.48,-13241.6,-1219.06,26.0701,-53.4282,53.1463,12342.4,2137.79,516.602,-15.7494,23.8277,-23.1725
2.427,117083.0,19719.3,2436.97,110.563,626.577,62.8123,3118.74,5297.69,13697.7,111.921,-450.174,133.503,-39086.3,40667.5,26064.5,-150.409,167.215,-295.833,755.593,-18302.5,-4729.43,41.8007,-134.607,236.06,-7242.47,2645.0,2137.28,-72.75,-95.2935,-174.088,4319.65,-13265.1,-1171.14,24.9073,-56.0265,52.8149,12112.5,2321.18,1745.73,-15.9278,25.1594,-21.6889
2.428,99997.2,33185.7,-500.563,63.3357,617.83,-34.2976,3026.65,5341.96,13790.7,114.675,-458.377,136.151,-33447.8,41682.4,31841.7,-122.268,75.5785,-278.57,1038.94,-18523.6,-4528.19,41.4455,-137.864,236.255,-7163.13,1747.55,-773.867,-45.6632,-84.5084,-177.148,4497.72,-13345.4,-1216.19,23.2283,-59.1489,52.5453,11887.7,2260.85,2793.65,-17.9594,24.6637,-20.0125
2.429,82911.0,46652.0,-3438.1,16.1079,609.083,-131.407,2934.56,5386.23,13883.7,117.429,-466.58,138.799,-27809.3,42697.3,37618.8,-94.1263,-16.0577,-261.308,1322.28,-18744.8,-4326.95,41.0903,-141.12,236.449,-7083.79,850.102,-3685.01,-18.5765,-73.7233,-180.209,4675.79,-13425.6,-1261.25,21.5493,-62.2712,52.2756,11663.0,2200.52,3841.57,-19.991,24.168,-18.3361
2.43,65824.8,60118.4,-6375.63,-31.1198,600.336,-228.517,2842.47,5430.5,13976.7,120.183,-474.783,141.447,-22170.8,43712.3,43396.0,-65.9849,-107.694,-244.046,1605.63,-18965.9,-4125.71,40.7351,-144.377,236.644,-7004.44,-47.3468,-6596.16,8.51025,-62.9382,-183.269,4853.85,-13505.9,-1306.3,19.8703,-65.3935,52.0059,11438.2,2140.19,4889.5,-22.0227,23.6722,-16.6596
2.431,48738.6,73584.7,-9313.17,-78.3476,591.589,-325.627,2750.38,5474.77,14069.6,122.937,-482.986,144.094,-16532.3,44727.2,49173.1,-37.8434,-199.33,-226.784,1888.97,-19187.1,-3924.47,40.38,-147.633,236.838,-6925.1,-944.796,-9507.3,35.597,-52.1532,-186.329,5031.92,-13586.2,-1351.35,18.1913,-68.5158,51.7363,11213.4,2079.86,5937.42,-24.0543,23.1765,-14.9832
2.432,41631.4,64488.2,-7571.41,-38.7514,563.767,-328.466,2731.48,5252.29,14308.1,124.638,-492.231,145.492,-14964.5,43097.4,40669.3,-31.3816,-236.94,-231.182,2223.38,-19443.8,-3754.12,40.1586,-150.938,237.208,-6334.0,-478.819,-10830.4,52.3867,-38.3562,-187.59,5240.51,-13712.3,-1508.45,15.9215,-71.8049,50.5886,10996.2,2262.98,6594.4,-24.4841,21.365,-13.2871
2.433,35771.6,52571.2,-5244.74,11.6978,533.56,-319.521,2721.73,4996.47,14564.7,126.208,-501.607,146.733,-13905.6,41137.0,30380.3,-27.6297,-267.796,-238.287,2564.17,-19704.9,-3587.64,39.954,-154.248,237.601,-5678.93,157.586,-11955.0,67.8892,-24.1828,-188.626,5452.92,-13844.1,-1679.54,13.5778,-75.1148,49.3312,10780.0,2476.53,7202.51,-24.7135,19.389,-11.5886
2.434,29911.7,40654.3,-2918.07,62.147,503.353,-310.576,2711.98,4740.65,14821.3,127.777,-510.982,147.975,-12846.6,39176.5,20091.3,-23.8778,-298.652,-245.393,2904.95,-19966.1,-3421.15,39.7494,-157.558,237.993,-5023.86,793.991,-13079.6,83.3918,-10.0093,-189.663,5665.33,-13975.9,-1850.64,11.234,-78.4248,48.0737,10563.8,2690.08,7810.62,-24.943,17.413,-9.89002
2.435,24051.9,28737.4,-591.399,112.596,473.147,-301.631,2702.23,4484.84,15077.9,129.346,-520.358,149.216,-11787.7,37216.1,9802.33,-20.1259,-329.508,-252.498,3245.74,-20227.2,-3254.66,39.5447,-160.869,238.385,-4368.79,1430.4,-14204.2,98.8943,4.16413,-190.699,5877.74,-14107.8,-2021.73,8.89033,-81.7347,46.8163,10347.6,2903.63,8418.73,-25.1725,15.437,-8.19148
2.436,20574.5,9293.77,3393.19,155.76,445.488,-267.226,2678.65,4284.46,15301.0,130.79,-530.159,150.29,-5465.31,37148.8,1959.33,-18.7442,-338.503,-240.443,3634.76,-20492.7,-3093.06,39.3418,-163.95,238.763,-3626.87,2565.6,-14093.8,103.221,12.4644,-189.846,6121.7,-14303.5,-2177.13,7.11283,-85.0083,45.1825,10177.2,3128.02,8705.64,-26.5105,14.9697,-6.04546
2.437,20075.2,-19558.2,9450.18,189.816,421.016,-200.995,2637.77,4153.39,15482.4,132.078,-540.493,151.153,7436.36,39447.9,-2826.21,-20.3255,-320.172,-204.437,4084.06,-20763.7,-2937.56,39.1411,-166.746,239.122,-2776.41,4324.3,-12439.7,93.5763,13.4233,-186.63,6405.12,-14579.1,-2312.9,6.04312,-88.2367,43.0783,10064.0,3365.97,8591.04,-29.234,16.3884,-3.34009
2.438,19575.9,-48410.1,15507.2,223.873,396.543,-134.764,2596.9,4022.31,15663.7,133.366,-550.827,152.016,20338.0,41747.0,-7611.74,-21.9067,-301.841,-168.432,4533.37,-21034.6,-2782.06,38.9403,-169.542,239.481,-1925.95,6082.99,-10785.5,83.9321,14.3821,-183.415,6688.54,-14854.7,-2448.67,4.9734,-91.465,40.9741,9950.92,3603.91,8476.44,-31.9576,17.807,-0.634725
2.439,19076.6,-77262.0,21564.2,257.929,372.07,-68.5333,2556.02,3891.24,15845.0,134.653,-561.16,152.88,33239.7,44046.1,-12397.3,-23.488,-283.51,-132.426,4982.67,-21305.5,-2626.56,38.7395,-172.338,239.84,-1075.49,7841.69,-9131.29,74.2879,15.341,-180.199,6971.96,-15130.3,-2584.44,3.90369,-94.6934,38.8698,9837.8,3841.86,8361.85,-34.6811,19.2257,2.07064
2.44,18577.3,-106114.0,27621.1,291.985,347.597,-2.30243,2515.14,3760.16,16026.4,135.941,-571.494,153.743,46141.3,46345.2,-17182.8,-25.0692,-265.179,-96.4204,5431.97,-21576.4,-2471.06,38.5388,-175.134,240.199,-225.025,9600.39,-7477.11,64.6436,16.2999,-176.984,7255.37,-15405.9,-2720.21,2.83397,-97.9218,36.7656,9724.67,4079.81,8247.25,-37.4046,20.6443,4.77601
2.441,6981.38,-111075.0,39956.7,273.653,299.727,-48.8377,2330.98,3598.37,16306.2,136.758,-583.222,154.0,64083.1,49406.4,-20013.8,-36.3265,-223.231,-47.8902,5947.58,-21744.6,-2321.45,37.8304,-178.792,240.22,1005.65,11178.0,-7777.41,42.6127,11.2186,-168.477,7524.46,-15507.8,-2871.87,3.46115,-100.92,34.4407,10226.8,4569.68,9134.87,-41.9161,33.6724,12.9456
2.442,-4614.58,-116036.0,52292.2,255.321,251.857,-95.373,2146.81,3436.59,16586.0,137.575,-594.951,154.257,82024.8,52467.6,-22844.8,-47.5838,-181.283,0.639891,6463.19,-21912.7,-2171.83,37.122,-182.449,240.242,2236.31,12755.6,-8077.71,20.5818,6.13743,-159.971,7793.54,-15609.6,-3023.54,4.08832,-103.917,32.1157,10728.9,5059.56,10022.5,-46.4275,46.7006,21.1151
2.443,-16210.5,-120998.0,64627.8,236.989,203.987,-141.908,1962.65,3274.8,16865.8,138.392,-606.68,154.513,99966.6,55528.9,-25675.7,-58.8411,-139.334,49.17,6978.8,-22080.9,-2022.21,36.4136,-186.106,240.263,3466.98,14333.2,-8378.01,-1.44907,1.05622,-151.464,8062.63,-15711.5,-3175.2,4.7155,-106.915,29.7908,11231.0,5549.44,10910.1,-50.9389,59.7287,29.2847
2.444,-27806.5,-125959.0,76963.3,218.657,156.117,-188.444,1778.49,3113.02,17145.7,139.209,-618.408,154.77,117908.0,58590.1,-28506.7,-70.0984,-97.386,97.7001,7494.41,-22249.0,-1872.6,35.7053,-189.763,240.284,4697.65,15910.7,-8678.31,-23.48,-4.025,-142.957,8331.71,-15813.3,-3326.86,5.34268,-109.913,27.4659,11733.1,6039.31,11797.7,-55.4503,72.7568,37.4542
2.445,-37375.1,-109694.0,76601.6,203.555,128.317,-230.696,1484.85,2961.98,17511.3,139.123,-631.671,153.752,122648.0,59483.1,-28168.1,-83.0315,-31.306,75.6543,8088.23,-22398.8,-1615.64,35.2884,-193.186,240.167,6974.87,17665.4,-10406.1,-40.0624,-0.232909,-131.035,8514.49,-15764.2,-3496.55,5.91087,-112.555,25.4559,12226.3,6802.27,14377.9,-53.3274,76.4968,48.9144
2.446,-45322.0,-76448.7,66082.0,191.038,116.574,-269.522,1103.65,2819.53,17945.6,138.314,-646.161,151.714,116825.0,58641.6,-25293.9,-97.305,54.0792,-2.85237,8744.61,-22534.0,-1272.81,35.1048,-196.421,239.938,10089.3,19561.8,-13275.9,-52.2861,10.6578,-116.379,8628.23,-15594.2,-3680.66,6.43189,-114.912,23.6979,12712.3,7783.68,18312.0,-45.8969,72.8063,63.0071
2.447,-53268.8,-43203.2,55562.5,178.521,104.831,-308.348,722.438,2677.09,18379.9,137.505,-660.651,149.676,111003.0,57800.2,-22419.7,-111.579,139.464,-81.359,9401.0,-22669.1,-929.984,34.9212,-199.657,239.71,13203.8,21458.1,-16145.7,-64.5098,21.5486,-101.723,8741.96,-15424.3,-3864.78,6.9529,-117.269,21.9399,13198.2,8765.09,22246.2,-38.4665,69.1158,77.0999
2.448,-61215.6,-9957.72,45043.0,166.004,93.0876,-347.175,341.23,2534.64,18814.2,136.696,-675.141,147.639,105180.0,56958.7,-19545.5,-125.852,224.85,-159.866,10057.4,-22804.2,-587.155,34.7375,-202.893,239.481,16318.2,23354.5,-19015.5,-76.7335,32.4393,-87.0676,8855.7,-15254.3,-4048.89,7.47391,-119.627,20.1819,13684.2,9746.51,26180.4,-31.0361,65.4253,91.1926
2.449,-67241.2,21759.1,35154.1,154.45,83.7934,-381.463,-49.0283,2339.97,19309.1,135.307,-690.339,145.15,98199.1,55845.1,-16249.5,-137.942,306.025,-240.063,10711.8,-22950.9,-281.356,34.6604,-205.702,239.242,19907.1,25499.0,-21740.4,-86.8064,46.4824,-70.9118,8967.37,-15101.7,-4231.01,7.74579,-121.847,18.3254,14142.1,10713.0,29546.1,-23.2443,60.2594,105.22
2.45,-57896.8,41246.8,30309.8,150.594,94.0925,-379.452,-511.7,1727.42,20288.8,129.269,-711.205,139.052,81947.9,52554.7,-9579.04,-132.561,353.517,-333.782,11350.2,-23190.3,-271.798,35.4351,-205.102,238.917,27291.8,29629.1,-23306.1,-79.6738,85.7447,-42.7542,9062.53,-15087.7,-4397.18,6.0246,-122.975,15.6815,14375.6,11559.9,28363.7,-12.5608,43.2903,118.723
2.451,-48552.4,60734.5,25465.5,146.739,104.392,-377.44,-974.371,1114.88,21268.5,123.232,-732.07,132.955,65696.7,49264.2,-2908.61,-127.18,401.01,-427.502,11988.6,-23429.7,-262.239,36.2099,-204.501,238.591,34676.5,33759.2,-24871.7,-72.5411,125.007,-14.5966,9157.68,-15073.7,-4563.35,4.30341,-124.103,13.0376,14609.0,12406.7,27181.4,-1.87726,26.3213,132.225
2.452,-39208.0,80222.2,20621.2,142.884,114.691,-375.428,-1437.04,502.335,22248.2,117.195,-752.936,126.857,49445.6,45973.8,3761.81,-121.798,448.502,-521.221,12627.0,-23669.0,-252.681,36.9846,-203.901,238.266,42061.2,37889.2,-26437.4,-65.4085,164.269,13.561,9252.84,-15059.6,-4729.52,2.58221,-125.231,10.3937,14842.5,13253.6,25999.1,8.80624,9.35222,145.728
2.453,-29863.6,99709.8,15776.9,139.029,124.99,-373.417,-1899.71,-110.21,23228.0,111.158,-773.801,120.76,33194.4,42683.4,10432.2,-116.417,495.995,-614.941,13265.4,-23908.4,-243.123,37.7593,-203.301,237.94,49445.9,42019.3,-28003.1,-58.2758,203.532,41.7187,9347.99,-15045.6,-4895.68,0.86102,-126.359,7.74984,15075.9,14100.5,24816.8,19.4897,-7.61682,159.231
2.454,-18457.4,100682.0,13599.4,141.565,121.768,-320.295,-2573.57,-857.539,24400.6,100.272,-803.872,112.162,19253.5,40788.1,16212.7,-98.838,495.965,-616.977,13773.9,-24141.5,-703.909,38.3575,-201.311,236.98,52705.0,44863.3,-25532.1,-50.6778,209.523,58.3382,9440.78,-15184.3,-5051.49,-1.35493,-127.056,3.52796,15508.6,14715.1,20716.1,15.7908,-9.22109,166.686
2.455,-6020.13,92397.0,12755.2,147.296,111.785,-241.618,-3353.02,-1672.26,25669.6,86.9632,-838.545,102.315,6467.64,39590.4,21548.3,-75.1599,472.174,-573.173,14217.6,-24371.4,-1399.87,38.8674,-198.627,235.703,53901.3,47064.2,-21042.9,-42.8471,198.878,69.1887,9532.39,-15399.3,-5202.11,-3.81826,-127.536,-1.48292,16040.9,15213.5,15156.2,4.90058,-3.14296,171.118
2.456,6417.1,84111.8,11911.1,153.027,101.802,-162.94,-4132.47,-2486.98,26938.7,73.654,-873.218,92.4676,-6318.2,38392.7,26883.9,-51.4818,448.382,-529.368,14661.2,-24601.4,-2095.83,39.3773,-195.942,234.425,55097.7,49265.1,-16553.6,-35.0164,188.233,80.0392,9623.99,-15614.3,-5352.74,-6.28158,-128.017,-6.4938,16573.2,15712.0,9596.31,-5.98962,2.93517,175.549
2.457,18854.3,75826.6,11066.9,158.757,91.8194,-84.2633,-4911.91,-3301.7,28207.7,60.3448,-907.891,82.6202,-19104.0,37194.9,32219.4,-27.8037,424.591,-485.563,15104.9,-24831.3,-2791.78,39.8871,-193.258,233.148,56294.0,51466.1,-12064.3,-27.1857,177.588,90.8898,9715.59,-15829.3,-5503.36,-8.74491,-128.497,-11.5047,17105.5,16210.5,4036.41,-16.8798,9.0133,179.98
2.458,29921.2,64916.5,9868.68,161.808,83.3315,-16.476,-5798.2,-3760.87,28495.1,53.1593,-941.406,76.1805,-30416.5,34944.6,35990.9,-3.46848,394.399,-436.685,15460.1,-25024.5,-3349.8,40.684,-191.303,231.872,55784.9,52775.7,-8293.22,-20.1106,163.409,96.0604,9795.94,-16033.4,-5572.24,-10.4196,-128.713,-16.7609,17441.2,16284.8,-380.412,-31.0197,15.8726,180.196
2.459,36191.8,44819.6,7431.14,155.475,80.0756,13.1967,-7058.42,-2975.62,25346.8,67.4071,-970.865,81.6673,-36572.0,29010.4,34288.0,23.1667,341.806,-370.047,15506.0,-25089.1,-3425.0,42.4855,-191.9,230.6,49306.8,50965.9,-7035.63,-15.6802,136.857,81.3515,9836.89,-16199.4,-5355.04,-9.33415,-128.004,-22.8756,17089.1,14874.4,-796.45,-56.5335,25.4663,165.658
2.46,42462.5,24722.6,4993.61,149.143,76.8196,42.8694,-8318.65,-2190.36,22198.4,81.6549,-1000.32,87.1541,-42727.5,23076.1,32585.1,49.8018,289.213,-303.409,15551.9,-25153.6,-3500.21,44.287,-192.497,229.328,42828.6,49156.1,-5778.03,-11.2498,110.305,66.6426,9877.83,-16365.5,-5137.84,-8.24869,-127.295,-28.9904,16736.9,13464.1,-1212.49,-82.0472,35.0599,151.119
2.461,48733.1,4625.68,2556.07,142.81,73.5637,72.542,-9578.87,-1405.11,19050.1,95.9027,-1029.78,92.6409,-48883.0,17141.8,30882.2,76.437,236.62,-236.771,15597.8,-25218.1,-3575.41,46.0885,-193.095,228.056,36350.4,47346.3,-4520.43,-6.81939,83.7536,51.9337,9918.78,-16531.5,-4920.64,-7.16323,-126.586,-35.1052,16384.7,12053.8,-1628.52,-107.561,44.6535,136.581
2.462,55003.7,-15471.3,118.54,136.478,70.3078,102.215,-10839.1,-619.853,15901.7,110.151,-1059.24,98.1277,-55038.5,11207.5,29179.4,103.072,184.026,-170.133,15643.8,-25282.6,-3650.62,47.89,-193.692,226.785,29872.3,45536.5,-3262.83,-2.38898,57.2018,37.2248,9959.73,-16697.5,-4703.44,-6.07777,-125.877,-41.2199,16032.5,10643.5,-2044.56,-133.075,54.2471,122.042
2.463,53639.7,-24519.3,-919.0,133.62,74.0324,79.224,-8875.48,-31.3053,11389.6,116.777,-1051.78,106.64,-55317.0,6091.16,22970.8,109.03,150.394,-146.752,15165.8,-25037.1,-3528.72,51.5911,-194.581,227.909,24253.3,42269.5,-4517.6,12.3804,64.0127,21.2353,9953.15,-16626.5,-4331.61,-2.23182,-124.96,-46.6152,16139.6,9002.55,-1281.24,-145.715,58.0828,104.653
2.464,50094.3,-30410.4,-1556.54,131.754,79.7514,41.1866,-5990.77,501.041,6487.84,121.225,-1033.78,116.016,-53916.3,1208.54,15475.0,109.08,122.18,-135.731,14538.1,-24703.1,-3350.51,55.8349,-195.553,229.718,18879.8,38586.2,-6490.19,30.1038,80.3558,4.87994,9932.98,-16487.8,-3915.6,2.40284,-123.982,-51.805,16377.9,7295.7,-180.951,-154.677,60.2735,86.4482
2.465,46548.9,-36301.6,-2194.08,129.888,85.4705,3.14914,-3106.07,1033.39,1586.09,125.673,-1015.77,125.392,-52515.7,-3674.07,7979.09,109.13,93.9658,-124.709,13910.4,-24369.1,-3172.29,60.0787,-196.525,231.528,13506.4,34902.9,-8462.77,47.8272,96.6989,-11.4754,9912.82,-16349.1,-3499.6,7.0375,-123.005,-56.9947,16616.2,5588.86,919.335,-163.638,62.4641,68.2439
2.466,43003.6,-42192.7,-2831.62,128.022,91.1895,-34.8883,-221.358,1565.73,-3315.65,130.122,-997.769,134.768,-51115.0,-8556.69,483.22,109.18,65.7514,-113.687,13282.7,-24035.1,-2994.08,64.3225,-197.497,233.337,8132.91,31219.6,-10435.4,65.5506,113.042,-27.8308,9892.66,-16210.3,-3083.59,11.6722,-122.028,-62.1844,16854.5,3882.01,2019.62,-172.6,64.6547,50.0395
2.467,38098.7,-43247.2,-2913.92,125.556,95.0496,-65.9615,3583.86,2405.35,-6021.65,135.671,-973.524,142.662,-48420.0,-12203.0,-5963.21,102.335,53.2825,-111.592,12427.2,-23568.0,-2899.7,68.6945,-198.054,236.459,3616.11,27702.3,-11529.7,85.6238,132.408,-40.9455,9779.57,-15967.5,-2625.27,16.6371,-120.745,-67.0713,17122.0,2380.99,2703.55,-176.903,66.9345,32.9848
2.468,30474.8,-34628.3,-1885.72,121.889,95.1916,-83.1064,9230.08,3859.51,-4336.15,143.422,-936.8,147.591,-43136.1,-13376.8,-10310.7,81.7005,72.3045,-127.35,11116.0,-22834.8,-2972.97,73.323,-197.782,242.207,812.635,24517.1,-10867.7,110.397,157.822,-47.5792,9480.62,-15516.6,-2082.31,22.2626,-118.853,-71.3526,17447.7,1291.63,2554.75,-171.888,69.3927,18.2294
2.469,22850.9,-26009.3,-857.517,118.221,95.3336,-100.251,14876.3,5313.66,-2650.64,151.173,-900.076,152.52,-37852.2,-14550.5,-14658.3,61.0657,91.3264,-143.108,9804.85,-22101.7,-3046.24,77.9514,-197.51,247.955,-1990.84,21331.9,-10205.7,135.169,183.235,-54.2129,9181.67,-15065.6,-1539.34,27.888,-116.96,-75.6338,17773.3,202.263,2405.96,-166.874,71.851,3.4739
2.47,15227.0,-17390.4,170.682,114.554,95.4757,-117.396,20522.5,6767.82,-965.137,158.924,-863.352,157.449,-32568.4,-15724.2,-19005.8,40.4309,110.348,-158.867,8493.69,-21368.5,-3119.52,82.5799,-197.238,253.703,-4794.31,18146.7,-9543.67,159.942,208.648,-60.8466,8882.72,-14614.6,-996.383,33.5135,-115.068,-79.9151,18099.0,-887.101,2257.17,-161.859,74.3092,-11.2816
2.471,7603.06,-8771.49,1198.88,110.887,95.6177,-134.541,26168.8,8221.98,720.367,166.675,-826.628,162.378,-27284.5,-16898.0,-23353.3,19.7961,129.37,-174.625,7182.53,-20635.4,-3192.79,87.2084,-196.966,259.451,-7597.79,14961.5,-8881.65,184.715,234.061,-67.4803,8583.77,-14163.7,-453.421,39.139,-113.176,-84.1963,18424.7,-1976.47,2108.38,-156.844,76.7674,-26.037
2.472,3539.32,-2909.09,1956.11,111.631,94.6951,-123.765,31231.8,12015.4,982.061,169.073,-782.623,172.039,-20765.6,-17104.9,-18988.4,0.149865,141.168,-191.117,5280.19,-19782.3,-3433.73,88.2683,-194.535,267.422,-9706.56,13079.8,-8439.11,202.612,250.941,-65.1699,8108.8,-13666.1,-32.7602,43.1134,-109.792,-87.4587,18615.6,-2437.33,2465.32,-145.814,77.2427,-33.8593
2.473,-79.4035,2608.74,2679.46,112.927,93.6394,-109.498,36221.9,16101.2,1065.78,170.802,-737.707,182.291,-14092.4,-17190.9,-13534.5,-19.3728,152.062,-207.701,3303.96,-18914.3,-3695.62,88.8822,-191.834,275.67,-11728.5,11361.1,-8024.02,219.649,266.754,-61.7415,7611.83,-13162.8,372.613,46.8816,-106.221,-90.5938,18789.7,-2819.63,2885.48,-134.031,77.4703,-40.8149
2.474,-3698.13,8126.57,3402.82,114.223,92.5836,-95.232,41212.0,20187.0,1149.5,172.53,-692.791,192.543,-7419.13,-17276.9,-8080.57,-38.8954,162.957,-224.285,1327.72,-18046.3,-3957.52,89.4961,-189.133,283.918,-13750.4,9642.43,-7608.92,236.686,282.567,-58.313,7114.87,-12659.5,777.987,50.6497,-102.651,-93.729,18963.8,-3201.93,3305.63,-122.249,77.6978,-47.7706
2.475,-7316.85,13644.4,4126.17,115.518,91.5279,-80.9656,46202.1,24272.9,1233.22,174.259,-647.875,202.795,-745.872,-17362.9,-2626.62,-58.418,173.851,-240.869,-648.515,-17178.2,-4219.42,90.11,-186.432,292.166,-15772.4,7923.72,-7193.82,253.723,298.38,-54.8846,6617.9,-12156.2,1183.36,54.4178,-99.08,-96.8641,19137.8,-3584.23,3725.79,-110.467,77.9254,-54.7262
2.476,-8627.0,15614.0,5262.4,115.953,89.8737,-67.3676,49858.4,27950.9,1793.57,161.996,-611.823,212.654,4847.63,-17108.4,2706.78,-67.0007,169.15,-250.867,-2794.62,-16530.9,-5148.33,86.7158,-177.841,300.19,-17649.4,6241.49,-6964.23,263.841,308.602,-50.9981,6130.49,-11681.6,1442.96,55.8037,-95.9492,-99.8417,19197.5,-4071.18,4674.33,-89.7864,75.3544,-57.9041
2.477,-7051.43,13148.2,6914.72,115.31,87.4713,-54.6051,51847.3,31119.2,2949.71,132.245,-586.851,222.019,9091.43,-16428.3,7889.51,-61.9082,144.953,-252.632,-5153.08,-16159.6,-6911.0,78.3117,-161.888,307.933,-19345.3,4604.86,-6966.51,265.309,311.836,-46.5391,5655.01,-11242.9,1520.35,54.2118,-93.3678,-102.622,19114.2,-4688.94,6283.35,-57.9835,69.2852,-56.3598
2.478,-5475.85,10682.4,8567.04,114.667,85.0689,-41.8427,53836.3,34287.5,4105.86,102.493,-561.879,231.385,13335.2,-15748.3,13072.2,-56.8158,120.756,-254.397,-7511.53,-15788.2,-8673.67,69.9076,-145.934,315.675,-21041.2,2968.23,-6968.8,266.778,315.07,-42.0801,5179.54,-10804.2,1597.75,52.62,-90.7865,-105.403,19030.8,-5306.71,7892.36,-26.1806,63.2161,-54.8155
2.479,-3900.28,8216.64,10219.4,114.024,82.6665,-29.0802,55825.2,37455.8,5262.0,72.741,-536.906,240.75,17579.0,-15068.2,18255.0,-51.7234,96.5587,-256.162,-9869.98,-15416.9,-10436.3,61.5035,-129.98,323.418,-22737.2,1331.6,-6971.08,268.247,318.304,-37.621,4704.06,-10365.5,1675.14,51.0281,-88.2051,-108.184,18947.4,-5924.47,9501.38,5.62221,57.1469,-53.2712
2.48,-2324.71,5750.86,11871.7,113.382,80.2641,-16.3178,57814.1,40624.1,6418.15,42.9891,-511.934,250.116,21822.8,-14388.1,23437.7,-46.631,72.3617,-257.928,-12228.4,-15045.5,-12199.0,53.0994,-114.027,331.161,-24433.1,-305.03,-6973.37,269.716,321.538,-33.162,4228.59,-9926.82,1752.53,49.4363,-85.6238,-110.965,18864.1,-6542.23,11110.4,37.4251,51.0778,-51.7269
2.481,-977.793,2614.79,12359.5,109.435,76.9931,-20.4951,55517.7,39602.9,7293.26,11.4322,-498.167,259.491,21309.6,-11641.7,18190.8,-42.1898,71.0507,-247.82,-12374.9,-15827.3,-12880.6,45.0143,-99.7029,332.307,-25364.7,-1973.05,-6182.29,257.891,310.446,-35.8862,3697.44,-9718.46,1428.1,40.9742,-84.9649,-114.341,18771.2,-7360.64,11547.0,66.6781,44.9224,-44.416
2.482,369.128,-521.284,12847.3,105.489,73.7222,-24.6724,53221.2,38581.7,8168.36,-20.1248,-484.4,268.865,20796.4,-8895.38,12943.9,-37.7485,69.7396,-237.713,-12521.3,-16609.1,-13562.2,36.9292,-85.3792,333.454,-26296.3,-3641.07,-5391.22,246.066,299.353,-38.6105,3166.29,-9510.11,1103.68,32.5121,-84.3059,-117.717,18678.2,-8179.05,11983.7,95.9312,38.767,-37.1051
2.483,1716.05,-3657.36,13335.1,101.542,70.4512,-28.8497,50924.7,37560.4,9043.47,-51.6817,-470.632,278.24,20283.2,-6149.02,7696.95,-33.3072,68.4285,-227.606,-12667.7,-17390.8,-14243.8,28.8441,-71.0555,334.601,-27227.9,-5309.09,-4600.14,234.24,288.26,-41.3348,2635.14,-9301.76,779.258,24.05,-83.647,-121.093,18585.3,-8997.46,12420.3,125.184,32.6117,-29.7941
2.484,3062.97,-6793.43,13822.9,97.5955,67.1803,-33.027,48628.3,36539.2,9918.58,-83.2386,-456.865,287.615,19770.0,-3402.65,2450.03,-28.866,67.1175,-217.499,-12814.1,-18172.6,-14925.4,20.7589,-56.7318,335.747,-28159.5,-6977.11,-3809.06,222.415,277.167,-44.0591,2104.0,-9093.4,454.836,15.5879,-82.9881,-124.469,18492.4,-9815.87,12856.9,154.437,26.4563,-22.4832
2.485,3733.07,-8034.91,13599.0,94.2435,63.9264,-37.236,45497.3,33656.3,11026.7,-100.515,-444.806,291.732,17658.1,-805.107,-1541.9,-29.6178,87.5702,-209.624,-11910.2,-19280.7,-14832.1,15.0073,-48.9873,333.17,-28732.2,-8044.25,-2942.14,207.452,262.515,-50.1097,1600.77,-9055.3,-16.0594,5.54153,-82.3566,-128.568,18354.1,-10262.9,12832.8,166.456,22.1281,-14.6805
2.486,3861.73,-7760.72,12805.7,91.3672,60.6861,-41.4705,41698.6,29284.1,12321.2,-106.367,-434.114,291.644,14267.3,1673.38,-4529.83,-34.5242,125.434,-203.536,-10166.0,-20649.8,-14118.8,11.1224,-46.5062,327.613,-29017.8,-8630.68,-2014.54,189.978,245.016,-58.8212,1119.88,-9153.4,-604.132,-5.77223,-81.7471,-133.245,18179.5,-10412.9,12440.1,164.687,19.2617,-6.48435
2.487,3990.38,-7486.53,12012.5,88.4908,57.4458,-45.705,37900.0,24911.9,13615.6,-112.219,-423.422,291.555,10876.5,4151.86,-7517.77,-39.4305,163.298,-197.448,-8421.84,-22018.9,-13405.5,7.23751,-44.0251,322.056,-29303.3,-9217.11,-1086.94,172.504,227.518,-67.5328,638.984,-9251.5,-1192.21,-17.086,-81.1376,-137.922,18004.9,-10562.8,12047.4,162.918,16.3952,1.71179
2.488,4119.04,-7212.34,11219.2,85.6145,54.2055,-49.9395,34101.3,20539.7,14910.1,-118.071,-412.731,291.467,7485.74,6630.35,-10505.7,-44.3368,201.161,-191.36,-6677.66,-23388.0,-12692.3,3.35263,-41.5439,316.5,-29588.9,-9803.54,-159.336,155.03,210.019,-76.2444,158.091,-9349.6,-1780.28,-28.3998,-80.5281,-142.599,17830.3,-10712.8,11654.7,161.149,13.5288,9.90793
2.489,4264.83,-6759.42,10492.8,82.7376,51.0902,-53.6164,30502.4,16334.2,16154.2,-122.192,-402.042,291.414,4112.24,9019.11,-12748.1,-49.1872,236.557,-186.086,-4994.16,-24701.8,-11953.3,-0.0557979,-39.9769,310.848,-29828.4,-10281.5,684.98,138.389,193.172,-85.1506,-310.734,-9500.89,-2384.22,-39.6176,-79.5604,-147.472,17617.9,-10879.7,11261.1,158.43,10.9643,18.0415
2.49,4547.7,-4876.62,10301.4,79.8567,48.9739,-52.8324,28500.8,13462.4,16994.5,-112.463,-391.38,291.649,877.023,10690.0,-9025.78,-53.5894,252.206,-187.323,-3796.1,-25573.0,-11008.7,0.347421,-45.7224,304.434,-29700.0,-9892.19,863.005,128.413,181.543,-95.6135,-683.028,-10077.7,-3115.08,-50.0677,-75.7274,-153.907,17103.5,-11183.0,10860.4,148.106,10.816,25.6748
2.491,4830.57,-2993.82,10110.0,76.9759,46.8577,-52.0484,26499.3,10590.6,17834.8,-102.734,-380.717,291.885,-2358.2,12361.0,-5303.49,-57.9916,267.854,-188.561,-2598.04,-26444.3,-10064.1,0.75064,-51.4679,298.021,-29571.5,-9502.84,1041.03,118.437,169.915,-106.076,-1055.32,-10654.6,-3845.94,-60.5179,-71.8944,-160.342,16589.1,-11486.3,10459.6,137.783,10.6676,33.308
2.492,5113.45,-1111.02,9918.52,74.095,44.7415,-51.2643,24497.7,7718.73,18675.1,-93.0044,-370.055,292.12,-5593.42,14031.9,-1581.21,-62.3938,283.503,-189.798,-1399.97,-27315.5,-9119.48,1.15386,-57.2134,291.607,-29443.0,-9113.48,1219.06,108.461,158.286,-116.539,-1427.62,-11231.5,-4576.81,-70.968,-68.0614,-166.777,16074.7,-11789.6,10058.8,127.46,10.5193,40.9413
2.493,5396.32,771.777,9727.09,71.2141,42.6253,-50.4803,22496.2,4846.9,19515.4,-83.2751,-359.393,292.356,-8828.63,15702.9,2141.08,-66.796,299.152,-191.035,-201.91,-28186.7,-8174.87,1.55708,-62.9589,285.194,-29314.6,-8724.13,1397.08,98.4855,146.658,-127.002,-1799.91,-11808.3,-5307.67,-81.4182,-64.2284,-173.212,15560.3,-12092.9,9658.02,117.136,10.3709,48.5746
2.494,5792.21,2463.39,9647.99,68.7566,40.9898,-46.446,21737.7,4000.1,19685.2,-69.3888,-347.559,294.16,-10966.4,16866.8,5343.39,-67.7871,286.341,-192.924,124.628,-28669.3,-7469.69,5.39618,-68.8608,280.944,-28949.3,-7678.88,1150.47,95.6986,139.37,-136.691,-2194.58,-12546.8,-5830.39,-89.5638,-58.0149,-179.709,14964.9,-12578.8,9360.33,110.542,11.2582,54.0233
2.495,6244.6,4059.42,9625.06,66.5106,39.5946,-40.7867,21600.8,4165.81,19519.8,-53.4239,-335.14,296.75,-12555.3,17777.1,8285.71,-67.0728,259.3,-195.138,15.4034,-28957.6,-6884.23,10.9532,-74.8408,277.777,-28465.5,-6305.69,691.547,96.5061,134.252,-145.992,-2600.43,-13366.2,-6249.05,-96.5572,-50.6113,-186.235,14329.0,-13156.1,9114.19,105.812,12.6632,58.3798
2.496,6697.0,5655.44,9602.13,64.2647,38.1994,-35.1273,21463.9,4331.52,19354.4,-37.459,-322.72,299.339,-14144.3,18687.5,11228.0,-66.3585,232.26,-197.352,-93.8212,-29245.9,-6298.77,16.5103,-80.8209,274.609,-27981.8,-4932.51,232.62,97.3136,129.134,-155.293,-3006.28,-14185.6,-6667.7,-103.55,-43.2076,-192.762,13693.2,-13733.3,8868.04,101.082,14.0683,62.7362
2.497,7149.39,7251.46,9579.2,62.0187,36.8042,-29.4679,21327.0,4497.23,19189.1,-21.4942,-310.301,301.928,-15733.3,19597.8,14170.3,-65.6442,205.219,-199.566,-203.046,-29534.2,-5713.31,22.0673,-86.801,271.442,-27498.0,-3559.32,-226.306,98.1211,124.017,-164.594,-3412.13,-15005.0,-7086.36,-110.544,-35.804,-199.289,13057.3,-14310.6,8621.9,96.3526,15.4734,67.0927
2.498,7540.13,8301.9,9601.33,60.216,35.4103,-23.5318,21322.7,4894.34,19095.2,-6.63833,-298.375,303.773,-16945.0,20368.3,16242.6,-63.2101,178.058,-200.123,-396.273,-29746.3,-5234.72,27.9171,-91.7204,268.717,-26978.4,-1974.95,-642.803,98.6572,117.9,-172.945,-3830.2,-15823.5,-7430.72,-116.573,-28.2386,-205.308,12502.1,-14696.4,8411.02,91.2966,16.7653,70.5473
2.499,7715.1,7442.78,9781.16,59.9644,34.021,-16.6272,21782.6,6101.38,19251.7,4.33605,-288.179,303.011,-16836.1,20649.4,15269.7,-54.7569,150.474,-194.88,-883.508,-29691.7,-5130.2,34.7918,-92.9271,267.543,-26333.1,348.537,-910.793,98.2436,108.288,-177.969,-4291.03,-16638.7,-7515.04,-119.23,-20.107,-209.55,12228.9,-14412.5,8323.58,85.0987,17.6608,70.8453
2.5,7890.07,6583.66,9961.0,59.7129,32.6317,-9.72254,22242.4,7308.42,19408.2,15.3104,-277.983,302.249,-16727.2,20930.4,14296.9,-46.3037,122.891,-189.638,-1370.74,-29637.1,-5025.68,41.6664,-94.1339,266.368,-25687.8,2672.03,-1178.78,97.83,98.6755,-182.994,-4751.85,-17454.0,-7599.37,-121.886,-11.9754,-213.791,11955.8,-14128.5,8236.15,78.9008,18.5562,71.1433
2.501,8065.03,5724.54,10140.8,59.4613,31.2424,-2.81791,22702.2,8515.46,19564.7,26.2848,-267.786,301.488,-16618.3,21211.4,13324.0,-37.8505,95.3083,-184.395,-1857.98,-29582.5,-4921.17,48.541,-95.3406,265.193,-25042.5,4995.51,-1446.77,97.4164,89.0632,-188.018,-5212.68,-18269.3,-7683.69,-124.543,-3.84383,-218.033,11682.6,-13844.6,8148.71,72.7029,19.4517,71.4413
2.502,8240.0,4865.42,10320.7,59.2098,29.8532,4.08673,23162.0,9722.5,19721.2,37.2592,-257.59,300.726,-16509.5,21492.5,12351.1,-29.3974,67.7252,-179.153,-2345.21,-29527.9,-4816.65,55.4156,-96.5473,264.019,-24397.2,7319.0,-1714.76,97.0028,79.4509,-193.042,-5673.5,-19084.6,-7768.02,-127.199,4.28775,-222.275,11409.5,-13560.6,8061.27,66.505,20.3472,71.7393
2.503,7799.43,3118.86,10230.8,58.257,28.3895,5.29407,23646.4,9536.89,19495.9,42.7023,-242.404,297.124,-15190.0,21514.2,10405.9,-21.3343,53.9844,-169.318,-2597.63,-29194.9,-4908.86,59.2949,-95.3415,261.781,-23810.5,9527.52,-1822.14,90.0981,66.715,-195.95,-6160.17,-19818.7,-7655.47,-127.477,10.527,-224.189,11497.0,-12594.9,8096.31,59.0307,21.2943,72.0715
2.504,7182.99,1118.76,10063.8,57.1038,26.9045,4.87362,24137.8,8953.38,19161.5,46.5651,-225.792,292.711,-13524.5,21462.0,8182.9,-13.3828,44.1986,-158.172,-2782.96,-28782.4,-5057.29,62.3183,-93.4463,259.24,-23240.6,11703.2,-1883.63,81.3388,53.0867,-198.252,-6654.23,-20529.7,-7486.66,-127.076,16.2256,-225.438,11687.5,-11434.3,8166.35,51.1917,22.2562,72.4134
2.505,6566.55,-881.349,9896.81,55.9506,25.4196,4.45318,24629.2,8369.87,18827.1,50.4278,-209.181,288.298,-11859.1,21409.7,5959.88,-5.4312,34.4127,-147.025,-2968.28,-28369.9,-5205.72,65.3417,-91.5512,256.698,-22670.7,13878.9,-1945.12,72.5794,39.4584,-200.554,-7148.29,-21240.7,-7317.86,-126.674,21.9242,-226.687,11878.0,-10273.7,8236.39,43.3526,23.218,72.7553
2.506,5950.11,-2881.45,9729.83,54.7975,23.9346,4.03273,25120.6,7786.35,18492.7,54.2906,-192.569,283.884,-10193.7,21357.4,3736.87,2.52037,24.6268,-135.879,-3153.61,-27957.5,-5354.14,68.3651,-89.656,254.157,-22100.8,16054.5,-2006.61,63.8201,25.8301,-202.857,-7642.35,-21951.7,-7149.06,-126.273,27.6228,-227.936,12068.5,-9113.14,8306.43,35.5136,24.1799,73.0972
2.507,5411.74,-4332.19,9607.98,53.2916,22.4889,2.70842,25520.4,7260.97,18606.0,60.4258,-176.27,281.792,-8502.11,21187.1,1886.27,7.95688,19.0702,-125.755,-3274.99,-27456.1,-5487.28,70.1962,-87.7748,250.796,-21570.7,17925.7,-2139.12,55.3128,14.4017,-204.973,-8133.79,-22613.9,-6925.22,-125.718,31.8038,-228.006,12316.7,-7957.49,8410.04,28.3407,25.0294,74.2257
2.508,5029.53,-4684.17,9576.36,51.0802,21.1217,-0.423619,25737.2,6851.84,19614.8,71.1061,-160.594,284.34,-6758.26,20780.8,780.525,8.36325,21.9719,-117.678,-3268.47,-26777.1,-5589.83,69.6426,-85.9214,245.796,-21120.1,19187.8,-2413.68,47.3094,7.37316,-206.717,-8620.01,-23178.7,-6591.31,-124.856,32.9495,-225.718,12680.1,-6811.68,8580.79,22.4998,25.6541,76.9275
2.509,4647.32,-5036.16,9544.75,48.8688,19.7545,-3.55565,25953.9,6442.71,20623.6,81.7864,-144.918,286.889,-5014.4,20374.4,-325.223,8.76963,24.8737,-109.6,-3261.95,-26098.1,-5692.38,69.0891,-84.0679,240.796,-20669.5,20450.0,-2688.24,39.306,0.344617,-208.46,-9106.23,-23743.5,-6257.39,-123.995,34.0951,-223.429,13043.4,-5665.88,8751.55,16.659,26.2789,79.6293
2.51,4265.11,-5388.15,9513.13,46.6575,18.3873,-6.68769,26170.6,6033.58,21632.3,92.4667,-129.242,289.437,-3270.54,19968.1,-1430.97,9.17601,27.7754,-101.523,-3255.43,-25419.0,-5794.93,68.5355,-82.2145,235.796,-20218.8,21712.1,-2962.8,31.3026,-6.68393,-210.204,-9592.44,-24308.3,-5923.48,-123.133,35.2408,-221.141,13406.8,-4520.07,8922.31,10.8181,26.9037,82.331
2.511,3882.89,-5740.14,9481.52,44.4461,17.02,-9.81973,26387.3,5624.45,22641.1,103.147,-113.566,291.985,-1526.68,19561.8,-2536.72,9.58238,30.6772,-93.445,-3248.92,-24740.0,-5897.48,67.982,-80.3611,230.795,-19768.2,22974.2,-3237.36,23.2993,-13.7125,-211.948,-10078.7,-24873.1,-5589.57,-122.271,36.3864,-218.853,13770.2,-3374.27,9093.07,4.97731,27.5285,85.0328
2.512,3910.23,-4926.97,9660.37,42.3796,15.5218,-11.1232,26014.8,5284.01,22976.8,112.442,-100.639,294.712,-554.147,18694.2,-2257.56,8.34296,34.7218,-91.2913,-3252.28,-24063.1,-5929.47,65.3706,-80.4737,224.122,-19293.2,23458.8,-3435.89,24.2454,-13.0301,-211.106,-10477.0,-25370.1,-5073.02,-121.282,32.2316,-213.74,14065.7,-2658.46,9196.95,2.14964,27.0315,88.6487
2.513,3988.76,-3968.16,9865.53,40.3312,14.0072,-12.198,25568.7,4952.15,23228.4,121.563,-88.0548,297.462,321.972,17768.9,-1805.28,6.89781,38.9093,-89.8781,-3256.88,-23386.4,-5952.65,62.502,-80.832,217.24,-18815.1,23846.3,-3624.91,26.3103,-11.3838,-209.941,-10864.4,-25858.6,-4533.65,-120.276,27.4142,-208.274,14352.7,-1996.41,9292.47,-0.301391,26.3942,92.3789
2.514,4067.29,-3009.34,10070.7,38.2828,12.4927,-13.2729,25122.5,4620.3,23479.9,130.684,-75.4709,300.211,1198.09,16843.7,-1353.01,5.45266,43.0968,-88.4649,-3261.48,-22709.7,-5975.82,59.6334,-81.1903,210.357,-18337.0,24233.8,-3813.93,28.3752,-9.73757,-208.776,-11251.8,-26347.2,-3994.27,-119.271,22.5967,-202.809,14639.7,-1334.35,9388.0,-2.75242,25.757,96.1091
2.515,4145.82,-2050.53,10275.9,36.2344,10.9781,-14.3477,24676.3,4288.44,23731.5,139.805,-62.887,302.96,2074.21,15918.5,-900.73,4.00751,47.2843,-87.0517,-3266.08,-22033.0,-5999.0,56.7648,-81.5486,203.475,-17858.9,24621.2,-4002.95,30.44,-8.09131,-207.611,-11639.1,-26835.8,-3454.9,-118.265,17.7793,-197.343,14926.8,-672.299,9483.52,-5.20345,25.1197,99.8393
2.516,4215.36,-1361.42,10381.6,34.4506,9.60445,-14.4326,23883.2,4201.35,23774.3,145.976,-51.968,303.376,2484.86,14965.4,-364.798,3.74582,49.6769,-86.6048,-3206.45,-21421.9,-6032.86,53.8685,-82.824,196.231,-17314.9,24787.0,-4076.6,35.852,-5.44909,-204.304,-12060.0,-27322.8,-2873.29,-116.54,10.6487,-190.786,15167.2,-161.195,9525.04,-6.1274,24.2651,103.035
2.517,4273.69,-1009.44,10363.0,32.9976,8.40702,-13.28,22656.4,4420.2,23556.1,148.457,-43.1301,300.876,2313.69,13977.5,275.705,4.96345,49.8258,-87.3658,-3066.52,-20892.7,-6080.1,50.9374,-85.2457,188.535,-16688.5,24675.5,-4006.04,45.448,-1.56192,-198.319,-12522.6,-27807.9,-2238.89,-113.915,0.626647,-182.866,15349.4,161.22,9499.04,-5.14251,23.1388,105.562
2.518,4332.02,-657.465,10344.5,31.5446,7.20959,-12.1274,21429.6,4639.06,23338.0,150.938,-34.2922,298.376,2142.52,12989.6,916.208,6.18109,49.9748,-88.1267,-2926.58,-20363.6,-6127.33,48.0064,-87.6674,180.84,-16062.1,24564.1,-3935.47,55.0439,2.32525,-192.335,-12985.2,-28293.1,-1604.49,-111.291,-9.39543,-174.946,15531.7,483.636,9473.05,-4.15761,22.0124,108.089
2.519,4390.34,-305.488,10325.9,30.0916,6.01216,-10.9748,20202.8,4857.92,23119.9,153.42,-25.4543,295.876,1971.34,12001.6,1556.71,7.39872,50.1238,-88.8877,-2786.65,-19834.5,-6174.56,45.0753,-90.0891,173.144,-15435.7,24452.7,-3864.91,64.6399,6.21243,-186.35,-13447.8,-28778.2,-970.093,-108.666,-19.4175,-167.026,15713.9,806.051,9447.05,-3.17272,20.8861,110.616
2.52,4448.67,46.4886,10307.4,28.6386,4.81473,-9.82217,18975.9,5076.78,22901.8,155.901,-16.6164,293.377,1800.17,11013.7,2197.21,8.61635,50.2728,-89.6486,-2646.72,-19305.4,-6221.79,42.1442,-92.5109,165.448,-14809.3,24341.3,-3794.35,74.2358,10.0996,-180.366,-13910.4,-29263.3,-335.694,-106.041,-29.4396,-159.106,15896.1,1128.47,9421.06,-2.18783,19.7597,113.143
2.521,4457.66,-142.39,10098.9,26.7878,3.60623,-8.66539,17513.6,6391.69,22141.4,154.312,-8.81869,290.052,838.632,10257.0,2367.94,9.99915,48.9661,-88.7297,-2377.04,-18885.4,-6282.32,41.2213,-95.4296,157.779,-14023.5,23969.4,-3772.8,82.9895,12.9596,-172.783,-14465.9,-29752.9,227.39,-101.45,-40.5532,-151.1,16122.8,1198.82,9272.78,0.722884,18.5675,112.498
2.522,4466.65,-331.268,9890.41,24.9371,2.39772,-7.50861,16051.3,7706.59,21380.9,152.724,-1.02097,286.728,-122.905,9500.25,2538.67,11.3819,47.6594,-87.8108,-2107.37,-18465.5,-6342.86,40.2983,-98.3484,150.109,-13237.8,23597.6,-3751.24,91.7431,15.8195,-165.2,-15021.5,-30242.4,790.473,-96.8594,-51.6667,-143.095,16349.4,1269.17,9124.51,3.63359,17.3752,111.853
2.523,4475.64,-520.146,9681.93,23.0863,1.18922,-6.35183,14589.0,9021.5,20620.5,151.135,6.77675,283.404,-1084.44,8743.52,2709.4,12.7647,46.3527,-86.892,-1837.69,-18045.5,-6403.4,39.3754,-101.267,142.439,-12452.0,23225.8,-3729.69,100.497,18.6795,-157.617,-15577.0,-30732.0,1353.56,-92.2684,-62.7803,-135.089,16576.1,1339.53,8976.23,6.5443,16.1829,111.209
2.524,4484.63,-709.024,9473.45,21.2355,-0.0192867,-5.19505,13126.7,10336.4,19860.1,149.547,14.5745,280.08,-2045.98,7986.78,2880.13,14.1475,45.046,-85.9731,-1568.01,-17625.6,-6463.93,38.4525,-104.186,134.77,-11666.2,22854.0,-3708.14,109.25,21.5394,-150.033,-16132.5,-31221.5,1916.64,-87.6774,-73.8939,-127.084,16802.7,1409.88,8827.96,9.45501,14.9906,110.564
2.525,4585.45,-650.811,9360.72,19.6921,-0.893354,-3.98552,11946.3,11740.2,19267.2,146.643,21.8674,276.199,-2785.13,7492.07,3059.64,15.3373,43.1776,-84.5993,-1240.53,-17249.4,-6489.09,38.8906,-106.57,127.264,-10905.6,22470.7,-3705.74,115.203,23.2314,-143.569,-16681.4,-31561.4,2405.83,-82.5558,-83.2202,-120.837,16960.9,1457.06,8631.91,12.9325,14.4301,108.157
2.526,4759.72,-394.925,9324.61,18.3946,-1.49987,-2.73379,10991.3,13215.2,18808.4,142.687,28.7565,271.874,-3346.37,7206.98,3246.16,16.3727,40.86,-82.8618,-866.788,-16908.3,-6485.95,40.4176,-108.527,119.89,-10165.0,22078.4,-3718.66,118.914,23.989,-138.0,-17225.1,-31781.4,2835.92,-77.0096,-91.1166,-115.998,17064.2,1485.71,8397.65,16.8635,14.3751,104.339
2.527,4934.0,-139.039,9288.49,17.097,-2.10639,-1.48206,10036.2,14690.2,18349.6,138.731,35.6456,267.549,-3907.6,6921.9,3432.69,17.408,38.5424,-81.1242,-493.051,-16567.2,-6482.8,41.9446,-110.484,112.516,-9424.34,21686.0,-3731.58,122.625,24.7466,-132.43,-17768.7,-32001.5,3266.0,-71.4635,-99.0129,-111.159,17167.5,1514.35,8163.39,20.7945,14.32,100.522
2.528,5108.27,116.847,9252.38,15.7995,-2.71291,-0.230333,9081.22,16165.1,17890.7,134.775,42.5347,263.223,-4468.84,6636.81,3619.21,18.4433,36.2248,-79.3866,-119.314,-16226.0,-6479.66,43.4715,-112.442,105.142,-8683.72,21293.7,-3744.5,126.337,25.5042,-126.861,-18312.4,-32221.6,3696.08,-65.9173,-106.909,-106.32,17270.9,1543.0,7929.13,24.7254,14.265,96.7041
2.529,5254.08,335.684,9224.66,14.5685,-3.34147,1.08767,8200.21,17564.8,17445.7,130.277,49.4443,258.834,-4945.41,6399.53,3786.99,19.5035,33.7977,-77.6412,249.908,-15879.1,-6476.96,45.0086,-114.186,97.9193,-7962.12,20902.2,-3770.95,129.56,26.0189,-121.61,-18833.0,-32381.6,4106.73,-60.7395,-114.252,-101.903,17360.1,1592.96,7709.05,28.6954,14.297,92.7798
2.53,5172.13,258.122,9264.1,13.8698,-4.14639,2.93582,7911.16,18361.9,17111.3,121.448,56.5184,253.932,-4744.67,6544.71,3804.74,20.7619,30.4946,-75.8331,583.012,-15486.0,-6477.82,46.6266,-114.225,91.914,-7392.68,20518.2,-3905.67,128.884,24.5903,-118.904,-19169.2,-32060.7,4361.89,-58.5082,-117.165,-100.866,17336.8,1813.47,7602.49,32.9778,15.0252,88.0022
2.531,5090.19,180.561,9303.54,13.1711,-4.9513,4.78398,7622.11,19159.1,16776.8,112.618,63.5925,249.031,-4543.93,6689.9,3822.5,22.0204,27.1916,-74.025,916.116,-15092.8,-6478.69,48.2446,-114.264,85.9086,-6823.23,20134.1,-4040.4,128.207,23.1618,-116.198,-19505.3,-31739.8,4617.05,-56.2768,-120.078,-99.8287,17313.4,2033.98,7495.92,37.2602,15.7534,83.2247
2.532,5008.25,103.0,9342.98,12.4724,-5.75622,6.63213,7333.06,19956.2,16442.4,103.789,70.6666,244.129,-4343.19,6835.08,3840.26,23.2789,23.8886,-72.2169,1249.22,-14699.7,-6479.55,49.8626,-114.304,79.9032,-6253.79,19750.0,-4175.12,127.531,21.7332,-113.492,-19841.5,-31418.9,4872.21,-54.0455,-122.991,-98.7915,17290.0,2254.49,7389.36,41.5425,16.4816,78.4471
2.533,4926.31,25.4385,9382.42,11.7737,-6.56113,8.48029,7044.01,20753.4,16107.9,94.9594,77.7407,239.228,-4142.44,6980.26,3858.02,24.5373,20.5855,-70.4088,1582.32,-14306.5,-6480.42,51.4806,-114.343,73.8979,-5684.34,19366.0,-4309.84,126.854,20.3047,-110.786,-20177.7,-31098.1,5127.37,-51.8142,-125.904,-97.7543,17266.6,2474.99,7282.79,45.8249,17.2098,73.6695
2.534,4807.66,-275.447,9386.12,11.0344,-7.35188,9.43069,7122.76,20968.8,15947.8,85.2548,84.8216,234.784,-3708.53,7315.35,3568.29,25.2358,17.7473,-68.77,1819.42,-13862.3,-6490.46,51.951,-112.922,68.8525,-5278.31,18933.8,-4459.86,124.898,18.5874,-109.923,-20336.7,-30442.4,5347.31,-53.3864,-126.826,-98.7458,17229.6,2697.05,7224.21,48.7752,17.7546,68.396
2.535,4670.65,-687.995,9371.95,10.2747,-8.13555,9.93221,7385.41,20893.3,15874.9,75.1127,91.906,230.569,-3158.04,7745.38,3124.82,25.6542,15.1414,-67.2158,2008.51,-13392.6,-6505.1,51.8475,-110.772,64.2872,-4954.0,18477.6,-4617.52,122.302,16.7257,-109.982,-20407.0,-29619.2,5549.64,-56.8603,-126.752,-100.752,17185.8,2919.89,7189.61,51.0595,18.2078,62.8746
2.536,4533.65,-1100.54,9357.79,9.51501,-8.91921,10.4337,7648.07,20817.7,15801.9,64.9706,98.9903,226.354,-2607.54,8175.41,2681.34,26.0726,12.5355,-65.6616,2197.59,-12922.9,-6519.73,51.744,-108.621,59.7219,-4629.68,18021.3,-4775.19,119.705,14.8641,-110.04,-20477.4,-28796.1,5751.97,-60.3342,-126.678,-102.758,17141.9,3142.72,7155.01,53.3437,18.661,57.3532
2.537,4396.65,-1513.09,9343.62,8.75533,-9.70288,10.9352,7910.72,20742.2,15729.0,54.8285,106.075,222.139,-2057.05,8605.45,2237.87,26.491,9.92969,-64.1074,2386.68,-12453.3,-6534.37,51.6405,-106.47,55.1566,-4305.36,17565.1,-4932.85,117.109,13.0024,-110.099,-20547.7,-27972.9,5954.29,-63.8081,-126.604,-104.763,17098.1,3365.55,7120.42,55.628,19.1141,51.8318
2.538,4277.96,-1857.04,9338.86,7.97185,-10.5438,11.307,8170.22,20466.3,15638.1,44.8471,113.233,217.363,-1562.53,9039.76,1791.62,26.6648,7.76669,-62.5837,2546.08,-11982.6,-6533.17,51.4031,-103.938,50.5992,-4042.6,17103.2,-5080.79,114.391,11.4558,-110.595,-20540.0,-27111.8,6149.85,-68.1265,-126.732,-107.225,17035.7,3567.79,7072.63,57.3798,19.4311,46.4649
2.539,4223.36,-1960.89,9367.04,7.10508,-11.5853,11.2246,8418.67,19488.9,15484.2,35.4281,120.648,210.626,-1263.96,9489.05,1335.65,25.9823,7.15368,-61.1666,2601.59,-11508.7,-6476.55,50.6976,-100.067,46.0698,-3995.29,16621.4,-5194.67,111.246,11.0119,-112.625,-20259.5,-26117.7,6321.67,-75.4005,-127.564,-111.282,16908.3,3697.93,6978.68,57.2681,19.2715,41.6388
2.54,4168.76,-2064.75,9395.22,6.23831,-12.6268,11.1422,8667.12,18511.6,15330.3,26.0091,128.063,203.888,-965.385,9938.35,879.675,25.2999,6.54068,-59.7496,2657.09,-11034.8,-6419.93,49.992,-96.1964,41.5403,-3947.99,16139.7,-5308.55,108.101,10.568,-114.656,-19978.9,-25123.7,6493.5,-82.6746,-128.396,-115.339,16780.9,3828.06,6884.73,57.1564,19.1119,36.8127
2.541,4114.16,-2168.6,9423.4,5.37154,-13.6682,11.0598,8915.57,17534.2,15176.4,16.5902,135.478,197.15,-666.81,10387.6,423.703,24.6174,5.92768,-58.3325,2712.59,-10560.9,-6363.31,49.2864,-92.3258,37.0109,-3900.68,15657.9,-5422.43,104.956,10.1242,-116.686,-19698.3,-24129.6,6665.32,-89.9486,-129.228,-119.397,16653.5,3958.2,6790.78,57.0447,18.9522,31.9866
2.542,4059.57,-2272.46,9451.58,4.50477,-14.7097,10.9774,9164.02,16556.9,15022.5,7.17123,142.893,190.412,-368.236,10836.9,-32.2695,23.9349,5.31468,-56.9155,2768.1,-10087.0,-6306.69,48.5808,-88.4552,32.4814,-3853.37,15176.2,-5536.3,101.811,9.68029,-118.716,-19417.7,-23135.6,6837.15,-97.2226,-130.06,-123.454,16526.1,4088.34,6696.83,56.933,18.7926,27.1605
2.543,4113.45,-2282.25,9439.8,3.75474,-15.7142,10.906,9099.57,15801.9,14744.6,-0.156887,150.235,181.703,-348.397,11191.2,-248.255,22.8199,5.96231,-55.3943,2681.8,-9718.67,-6141.04,47.7032,-84.3925,27.4168,-3902.22,14850.1,-5628.2,99.0439,10.1371,-121.13,-18934.1,-22271.3,6885.28,-105.738,-132.4,-127.699,16214.3,4098.38,6564.69,55.4665,18.873,22.8324
2.544,4198.32,-2265.15,9416.6,3.03806,-16.7082,10.8377,8945.72,15110.5,14431.3,-6.88763,157.556,172.43,-408.198,11518.3,-395.672,21.5814,6.97011,-53.8433,2554.99,-9380.48,-5944.24,46.7764,-80.2749,22.1993,-3978.53,14568.6,-5713.82,96.385,10.8512,-123.653,-18392.4,-21444.2,6898.07,-114.609,-135.172,-131.998,15849.8,4074.12,6421.63,53.6129,19.022,18.6466
2.545,4283.19,-2248.06,9393.41,2.32138,-17.7021,10.7694,8791.87,14419.0,14118.0,-13.6184,164.877,163.158,-467.998,11845.4,-543.09,20.3429,7.97791,-52.2923,2428.18,-9042.29,-5747.43,45.8497,-76.1574,16.9818,-4054.85,14287.0,-5799.43,93.726,11.5654,-126.177,-17850.8,-20617.1,6910.86,-123.479,-137.943,-136.297,15485.3,4049.85,6278.58,51.7593,19.1709,14.4609
2.546,4368.06,-2230.97,9370.21,1.6047,-18.6961,10.7011,8638.03,13727.5,13804.7,-20.3491,172.198,153.885,-527.798,12172.5,-690.507,19.1044,8.98571,-50.7413,2301.37,-8704.11,-5550.63,44.923,-72.0398,11.7643,-4131.16,14005.4,-5885.05,91.0671,12.2795,-128.7,-17309.1,-19789.9,6923.65,-132.35,-140.715,-140.596,15120.8,4025.59,6135.52,49.9057,19.3199,10.2751
2.547,4449.01,-2228.83,9352.33,1.00708,-19.617,10.6395,8405.14,13190.7,13510.1,-25.9478,179.269,144.457,-619.056,12401.1,-733.05,18.2808,9.9139,-49.0675,2136.45,-8399.34,-5318.29,43.9364,-68.1608,6.34225,-4198.42,13784.2,-5933.54,88.9926,12.9899,-131.223,-16740.8,-19071.4,6883.4,-141.116,-143.791,-144.649,14764.3,3971.72,5987.38,47.7702,19.5409,6.13023
2.548,4522.13,-2256.58,9345.07,0.64757,-20.3918,10.5912,8014.17,12963.2,13253.1,-29.2822,185.84,134.717,-773.227,12432.8,-565.843,18.2869,10.6829,-47.1482,1895.32,-8161.43,-5014.87,42.8302,-64.7591,0.511245,-4247.56,13683.5,-5907.79,88.0872,13.6928,-133.744,-16119.1,-18570.2,6737.05,-149.672,-147.474,-148.208,14424.1,3858.67,5829.06,45.0712,19.9062,2.06712
2.549,4595.24,-2284.33,9337.81,0.288059,-21.1667,10.5429,7623.2,12735.6,12996.1,-32.6167,192.411,124.977,-927.399,12464.4,-398.636,18.2931,11.4518,-45.2288,1654.19,-7923.51,-4711.45,41.7239,-61.3573,-5.31976,-4296.7,13582.9,-5882.05,87.1818,14.3956,-136.265,-15497.5,-18069.0,6590.7,-158.228,-151.158,-151.768,14083.8,3745.61,5670.75,42.3721,20.2714,-1.99599
2.55,4668.35,-2312.08,9330.55,-0.0714524,-21.9415,10.4946,7232.23,12508.0,12739.0,-35.9512,198.982,115.237,-1081.57,12496.1,-231.429,18.2992,12.2208,-43.3094,1413.06,-7685.6,-4408.02,40.6176,-57.9556,-11.1508,-4345.84,13482.2,-5856.3,86.2764,15.0985,-138.786,-14875.8,-17567.8,6444.36,-166.784,-154.841,-155.327,13743.5,3632.56,5512.44,39.673,20.6366,-6.0591
2.551,4741.46,-2339.83,9323.29,-0.430964,-22.7164,10.4463,6841.25,12280.5,12482.0,-39.2857,205.553,105.497,-1235.74,12527.7,-64.2223,18.3054,12.9897,-41.39,1171.93,-7447.68,-4104.6,39.5114,-54.5538,-16.9818,-4394.98,13381.6,-5830.56,85.371,15.8014,-141.307,-14254.1,-17066.5,6298.01,-175.34,-158.525,-158.887,13403.3,3519.5,5354.13,36.9739,21.0018,-10.1222
2.552,4747.92,-2350.97,9306.61,-0.654067,-23.5097,10.4799,6453.28,12001.2,12368.5,-40.8711,210.652,95.893,-1302.71,12389.2,128.079,19.15,12.5258,-39.5143,992.196,-7232.46,-3845.72,38.2717,-51.6657,-23.0722,-4425.13,13385.5,-5798.16,85.5804,17.0345,-143.707,-13725.1,-16843.7,6084.06,-182.504,-160.787,-161.753,13109.9,3386.22,5223.57,34.7507,22.0763,-13.4768
2.553,4746.04,-2360.03,9288.74,-0.86012,-24.3053,10.5237,6065.68,11715.4,12273.0,-42.2379,215.567,86.3063,-1358.77,12229.5,323.517,20.0995,11.9078,-37.6439,820.134,-7020.07,-3592.41,37.0154,-48.8418,-29.1951,-4452.91,13402.6,-5764.93,85.9292,18.334,-146.092,-13207.7,-16655.6,5861.65,-189.493,-162.872,-164.533,12822.4,3250.41,5096.48,32.5869,23.2395,-16.7428
2.554,4744.17,-2369.1,9270.88,-1.06617,-25.1009,10.5675,5678.08,11429.6,12177.5,-43.6047,220.483,76.7195,-1414.83,12069.7,518.955,21.049,11.2898,-35.7736,648.071,-6807.68,-3339.1,35.759,-46.0179,-35.3179,-4480.68,13419.7,-5731.7,86.2779,19.6334,-148.477,-12690.3,-16467.5,5639.25,-196.483,-164.957,-167.313,12534.9,3114.61,4969.39,30.4231,24.4027,-20.0087
2.555,4742.3,-2378.17,9253.02,-1.27222,-25.8965,10.6113,5290.48,11143.9,12082.0,-44.9715,225.398,67.1327,-1470.9,11909.9,714.392,21.9985,10.6718,-33.9032,476.009,-6595.29,-3085.79,34.5027,-43.194,-41.4408,-4508.46,13436.7,-5698.47,86.6267,20.9328,-150.862,-12172.8,-16279.4,5416.84,-203.472,-167.041,-170.093,12247.4,2978.8,4842.31,28.2593,25.5658,-23.2747
2.556,4738.7,-2375.66,9277.37,-1.41806,-26.8779,10.7482,4915.2,10798.6,12002.1,-45.8454,229.438,57.7902,-1492.02,11726.2,767.642,22.778,9.88119,-32.3385,348.334,-6401.1,-2900.01,33.091,-40.3443,-47.4336,-4544.77,13511.6,-5665.35,87.0848,22.2657,-153.012,-11724.4,-16179.6,5191.5,-209.899,-167.76,-172.562,12037.6,2856.68,4758.88,26.1306,26.6132,-26.3439
2.557,4732.93,-2358.67,9354.51,-1.48864,-28.0914,11.0015,4555.31,10378.9,11941.7,-46.103,232.384,48.753,-1469.46,11512.5,643.156,23.3449,8.87481,-31.1557,276.143,-6229.66,-2798.65,31.485,-37.4622,-53.2636,-4591.76,13658.6,-5632.37,87.6795,23.6403,-154.867,-11362.4,-16190.2,4962.51,-215.621,-166.772,-174.643,11925.0,2751.66,4730.03,24.0457,27.516,-29.1669
2.558,4727.17,-2341.69,9431.64,-1.55921,-29.3049,11.2548,4195.42,9959.25,11881.4,-46.3607,235.33,39.7158,-1446.9,11298.8,518.67,23.9118,7.86844,-29.973,203.952,-6058.22,-2697.29,29.8791,-34.5801,-59.0937,-4638.74,13805.7,-5599.39,88.2743,25.0149,-156.722,-11000.3,-16200.8,4733.51,-221.344,-165.784,-176.724,11812.3,2646.65,4701.19,21.9607,28.4187,-31.99
2.559,4721.41,-2324.71,9508.77,-1.62978,-30.5184,11.5081,3835.53,9539.58,11821.0,-46.6183,238.275,30.6786,-1424.34,11085.1,394.184,24.4788,6.86206,-28.7902,131.762,-5886.78,-2595.93,28.2732,-31.6981,-64.9238,-4685.73,13952.7,-5566.41,88.869,26.3896,-158.577,-10638.2,-16211.3,4504.51,-227.067,-164.796,-178.805,11699.7,2541.63,4672.34,19.8758,29.3214,-34.8131
2.56,4715.65,-2307.73,9585.9,-1.70036,-31.7319,11.7615,3475.65,9119.91,11760.6,-46.8759,241.221,21.6414,-1401.78,10871.3,269.698,25.0457,5.85569,-27.6075,59.5711,-5715.34,-2494.56,26.6673,-28.816,-70.7539,-4732.71,14099.7,-5533.43,89.4637,27.7642,-160.433,-10276.1,-16221.9,4275.51,-232.79,-163.808,-180.886,11587.1,2436.62,4643.49,17.7909,30.2241,-37.6361
2.561,4727.47,-2304.69,9618.36,-1.73114,-32.9237,11.9322,3199.78,8838.07,11610.8,-45.8982,243.46,13.6551,-1314.39,10929.2,213.847,24.7305,5.95618,-26.8454,57.9944,-5571.3,-2515.56,24.7655,-25.697,-76.0797,-4745.51,14279.6,-5515.23,89.2087,28.5185,-161.291,-9975.21,-16296.7,4077.02,-237.219,-159.375,-181.901,11651.2,2355.62,4636.58,15.4029,30.4861,-40.1991
2.562,4739.28,-2301.65,9650.83,-1.76193,-34.1156,12.103,2923.91,8556.24,11461.0,-44.9205,245.699,5.66877,-1227.01,10987.1,157.995,24.4152,6.05666,-26.0833,56.4177,-5427.27,-2536.55,22.8638,-22.5779,-81.4055,-4758.3,14459.5,-5497.03,88.9537,29.2729,-162.149,-9674.29,-16371.5,3878.52,-241.649,-154.942,-182.915,11715.2,2274.61,4629.68,13.015,30.748,-42.7621
2.563,4751.09,-2298.61,9683.29,-1.79271,-35.3075,12.2737,2648.04,8274.41,11311.1,-43.9427,247.937,-2.31753,-1139.62,11045.0,102.144,24.1,6.15715,-25.3212,54.8409,-5283.24,-2557.54,20.9621,-19.4588,-86.7313,-4771.1,14639.4,-5478.83,88.6987,30.0273,-163.008,-9373.36,-16446.3,3680.03,-246.078,-150.508,-183.93,11779.3,2193.61,4622.77,10.6271,31.01,-45.3251
2.564,4762.91,-2295.57,9715.76,-1.8235,-36.4994,12.4444,2372.17,7992.58,11161.3,-42.965,250.176,-10.3038,-1052.24,11102.9,46.2924,23.7848,6.25764,-24.5591,53.2642,-5139.21,-2578.53,19.0603,-16.3398,-92.0572,-4783.89,14819.3,-5460.63,88.4437,30.7816,-163.866,-9072.43,-16521.1,3481.53,-250.508,-146.075,-184.944,11843.3,2112.61,4615.86,8.23913,31.272,-47.8882
2.565,4785.15,-2260.92,9749.36,-1.97242,-37.8514,12.6019,2178.93,7824.42,10936.3,-41.4295,252.663,-17.9643,-999.744,11217.5,84.6897,23.5019,6.40993,-24.1032,80.7568,-4992.14,-2609.56,17.1292,-13.0028,-97.1703,-4801.29,14989.2,-5463.7,87.4086,30.8855,-164.024,-8798.65,-16602.4,3313.2,-253.701,-139.889,-185.496,11921.8,2020.58,4594.95,5.90393,31.5328,-50.5296
2.566,4815.72,-2200.97,9783.88,-2.21585,-39.3315,12.7487,2051.8,7747.2,10651.3,-39.4479,255.348,-25.364,-975.166,11377.3,198.486,23.2451,6.60367,-23.8923,131.505,-4842.66,-2648.63,15.1747,-9.49163,-102.113,-4822.38,15151.0,-5483.79,85.7496,30.4689,-163.621,-8546.6,-16689.0,3168.98,-255.907,-132.302,-185.677,12011.9,1919.72,4562.84,3.61093,31.7928,-53.2339
2.567,4846.3,-2141.02,9818.4,-2.45929,-40.8116,12.8955,1924.68,7669.98,10366.3,-37.4662,258.033,-32.7637,-950.587,11537.2,312.283,22.9882,6.79741,-23.6814,182.253,-4693.17,-2687.7,13.2201,-5.9804,-107.056,-4843.46,15312.9,-5503.87,84.0905,30.0523,-163.218,-8294.54,-16775.5,3024.77,-258.112,-124.714,-185.858,12102.0,1818.87,4530.74,1.31792,32.0528,-55.9382
2.568,4876.88,-2081.07,9852.92,-2.70272,-42.2917,13.0423,1797.55,7592.77,10081.3,-35.4845,260.718,-40.1635,-926.008,11697.0,426.079,22.7313,6.99115,-23.4705,233.001,-4543.69,-2726.76,11.2656,-2.46918,-111.999,-4864.55,15474.7,-5523.96,82.4314,29.6358,-162.816,-8042.48,-16862.1,2880.56,-260.318,-117.126,-186.039,12192.1,1718.01,4498.63,-0.975082,32.3127,-58.6424
2.569,4900.48,-2025.09,9886.41,-2.91889,-43.7695,13.2094,1685.1,7529.01,9797.43,-33.5642,263.487,-47.4837,-906.033,11863.3,539.412,22.5505,7.117,-23.2112,284.772,-4395.54,-2764.17,9.31207,1.03459,-116.919,-4879.7,15625.8,-5538.0,80.7253,29.1312,-162.306,-7794.95,-16953.2,2738.63,-262.252,-109.303,-186.16,12276.5,1616.89,4466.03,-3.1773,32.6099,-61.3637
2.57,4868.29,-2000.93,9911.68,-2.917,-45.2292,13.5386,1690.08,7572.91,9522.6,-32.1349,266.932,-54.1682,-922.886,12081.2,649.038,22.9786,6.69979,-22.5652,344.73,-4258.13,-2788.25,7.36714,4.47869,-121.652,-4847.4,15690.9,-5503.72,78.6426,27.9227,-160.942,-7583.55,-17081.2,2614.98,-262.011,-99.5882,-185.796,12315.0,1513.64,4429.53,-4.65324,33.2051,-64.2214
2.571,4836.1,-1976.77,9936.96,-2.9151,-46.689,13.8677,1695.06,7616.82,9247.78,-30.7055,270.377,-60.8526,-939.74,12299.0,758.663,23.4068,6.28258,-21.9191,404.688,-4120.72,-2812.33,5.42222,7.9228,-126.385,-4815.09,15756.0,-5469.44,76.5598,26.7142,-159.579,-7372.16,-17209.1,2491.33,-261.771,-89.8738,-185.432,12353.5,1410.4,4393.02,-6.12919,33.8003,-67.0791
2.572,4803.9,-1952.61,9962.23,-2.91321,-48.1487,14.1969,1700.04,7660.73,8972.95,-29.2762,273.822,-67.5371,-956.593,12516.9,868.289,23.8349,5.86537,-21.2731,464.646,-3983.31,-2836.41,3.4773,11.3669,-131.118,-4782.78,15821.1,-5435.16,74.4771,25.5057,-158.215,-7160.76,-17337.1,2367.68,-261.53,-80.1595,-185.069,12392.0,1307.16,4356.52,-7.60513,34.3955,-69.9368
2.573,4771.71,-1928.45,9987.51,-2.91131,-49.6085,14.5261,1705.01,7704.63,8698.12,-27.8468,277.267,-74.2216,-973.446,12734.7,977.915,24.263,5.44816,-20.6271,524.604,-3845.91,-2860.49,1.53238,14.811,-135.851,-4750.48,15886.2,-5400.88,72.3944,24.2972,-156.851,-6949.37,-17465.1,2244.03,-261.29,-70.4452,-184.705,12430.5,1203.92,4320.01,-9.08107,34.9907,-72.7945
2.574,4749.72,-1923.27,10028.0,-2.95815,-51.1768,14.8295,1782.85,7741.79,8542.16,-27.0557,280.826,-80.3729,-1014.66,12928.1,1041.36,24.5409,4.75247,-19.7338,573.016,-3681.48,-2874.31,-0.425467,18.0175,-140.431,-4734.72,15904.0,-5330.95,70.4195,23.1117,-155.213,-6793.67,-17579.2,2175.23,-259.293,-59.9871,-184.298,12405.3,1133.84,4289.86,-10.0131,35.3844,-75.8729
2.575,4732.84,-1927.59,10076.2,-3.02935,-52.7995,15.1201,1897.12,7775.57,8445.64,-26.5838,284.441,-86.2577,-1068.05,13109.2,1081.72,24.7436,3.91753,-18.717,615.654,-3503.56,-2883.0,-2.38978,21.1053,-144.934,-4727.24,15898.2,-5243.2,68.4986,21.9376,-153.436,-6665.82,-17686.5,2133.86,-256.417,-49.1573,-183.869,12348.2,1080.35,4262.88,-10.6731,35.6773,-79.0618
2.576,4715.96,-1931.9,10124.4,-3.10055,-54.4221,15.4107,2011.4,7809.35,8349.12,-26.1118,288.056,-92.1425,-1121.44,13290.3,1122.08,24.9463,3.08259,-17.7002,658.293,-3325.63,-2891.69,-4.35409,24.193,-149.437,-4719.75,15892.4,-5155.45,66.5776,20.7635,-151.66,-6537.98,-17793.8,2092.48,-253.542,-38.3274,-183.44,12291.1,1026.87,4235.9,-11.3332,35.9702,-82.2507
2.577,4699.08,-1936.22,10172.6,-3.17176,-56.0448,15.7013,2125.67,7843.14,8252.59,-25.6398,291.671,-98.0274,-1174.84,13471.5,1162.44,25.149,2.24766,-16.6833,700.932,-3147.7,-2900.37,-6.31841,27.2807,-153.94,-4712.27,15886.6,-5067.7,64.6566,19.5894,-149.884,-6410.13,-17901.1,2051.11,-250.666,-27.4976,-183.012,12234.0,973.38,4208.92,-11.9932,36.2631,-85.4395
2.578,4693.08,-1938.75,10221.5,-3.27472,-57.7131,15.9867,2233.03,7867.56,8170.83,-25.3499,295.243,-103.724,-1219.92,13635.7,1184.25,25.3347,1.33122,-15.6912,739.542,-2980.71,-2924.71,-8.35545,30.3048,-158.399,-4715.92,15862.5,-4967.42,62.9869,18.5828,-148.077,-6304.94,-17985.1,2020.2,-247.395,-16.569,-182.675,12172.1,938.93,4173.47,-12.5546,36.5343,-88.7055
2.579,4725.2,-1935.03,10273.0,-3.48883,-59.5415,16.2538,2316.24,7859.2,8140.74,-25.6972,298.661,-108.759,-1235.94,13740.7,1141.15,25.4611,0.129543,-14.7858,764.053,-2851.99,-3003.81,-10.6471,33.1058,-162.701,-4758.53,15773.9,-4823.26,62.1966,18.1625,-146.162,-6279.04,-17987.7,2025.9,-242.739,-5.29498,-182.659,12093.1,971.11,4108.35,-12.7706,36.7295,-92.2414
2.58,4757.32,-1931.31,10324.6,-3.70295,-61.3699,16.5208,2399.45,7850.85,8110.64,-26.0444,302.079,-113.795,-1251.96,13845.8,1098.05,25.5874,-1.07214,-13.8804,788.564,-2723.28,-3082.92,-12.9387,35.9069,-167.003,-4801.13,15685.3,-4679.1,61.4063,17.7421,-144.247,-6253.14,-17990.3,2031.59,-238.084,5.97903,-182.644,12014.2,1003.29,4043.22,-12.9866,36.9246,-95.7773
2.581,4789.44,-1927.6,10376.1,-3.91706,-63.1983,16.7879,2482.66,7842.5,8080.54,-26.3917,305.497,-118.831,-1267.99,13950.8,1054.96,25.7138,-2.27382,-12.9749,813.076,-2594.56,-3162.02,-15.2303,38.708,-171.305,-4843.74,15596.7,-4534.94,60.6159,17.3218,-142.332,-6227.24,-17992.9,2037.29,-233.428,17.253,-182.629,11935.3,1035.47,3978.1,-13.2026,37.1198,-99.3133
2.582,4821.56,-1923.88,10427.7,-4.13117,-65.0267,17.055,2565.87,7834.15,8050.45,-26.7389,308.916,-123.867,-1284.01,14055.9,1011.86,25.8402,-3.4755,-12.0695,837.587,-2465.84,-3241.12,-17.5219,41.5091,-175.607,-4886.35,15508.1,-4390.78,59.8256,16.9014,-140.417,-6201.34,-17995.4,2042.99,-228.773,28.5271,-182.614,11856.3,1067.65,3912.98,-13.4186,37.3149,-102.849
2.583,4828.32,-1929.94,10465.7,-4.67829,-67.03,17.3339,2645.18,7835.31,7943.92,-26.9556,312.636,-128.182,-1279.91,14103.8,983.286,25.8158,-5.28587,-11.2087,867.14,-2336.44,-3316.65,-19.7071,44.2219,-179.784,-4888.09,15417.9,-4231.03,60.0259,16.7796,-138.967,-6260.32,-17914.0,2067.75,-223.614,39.2169,-182.603,11725.4,1170.99,3831.68,-14.2328,37.5902,-106.059
2.584,4827.83,-1938.8,10499.9,-5.32054,-69.0833,17.6163,2723.38,7839.2,7815.56,-27.1349,316.444,-132.291,-1270.07,14135.5,958.864,25.7483,-7.27015,-10.3607,898.135,-2206.84,-3391.16,-21.862,46.9095,-183.925,-4878.15,15327.3,-4066.83,60.5093,16.7431,-137.651,-6343.56,-17808.6,2097.95,-218.312,49.7399,-182.594,11579.7,1294.67,3745.77,-15.218,37.8883,-109.176
2.585,4827.33,-1947.65,10534.0,-5.9628,-71.1366,17.8987,2801.57,7843.09,7687.2,-27.3143,320.251,-136.4,-1260.22,14167.1,934.441,25.6809,-9.25443,-9.51261,929.129,-2077.24,-3465.66,-24.0169,49.5971,-188.066,-4868.21,15236.7,-3902.63,60.9926,16.7066,-136.334,-6426.79,-17703.2,2128.16,-213.01,60.2628,-182.584,11434.0,1418.35,3659.86,-16.2032,38.1864,-112.293
2.586,4826.84,-1956.51,10568.1,-6.60506,-73.1899,18.1811,2879.76,7846.97,7558.85,-27.4936,324.058,-140.508,-1250.38,14198.8,910.018,25.6134,-11.2387,-8.66457,960.124,-1947.64,-3540.17,-26.1718,52.2847,-192.207,-4858.27,15146.1,-3738.43,61.476,16.6701,-135.017,-6510.02,-17597.8,2158.36,-207.708,70.7857,-182.575,11288.3,1542.03,3573.95,-17.1883,38.4846,-115.41
2.587,4825.54,-1978.5,10582.6,-7.48302,-75.264,18.2679,2957.07,7858.29,7434.28,-27.9107,327.93,-144.234,-1223.23,14189.8,862.743,25.5872,-13.5062,-7.80297,995.241,-1835.24,-3602.11,-28.0983,55.0756,-196.279,-4822.8,15045.3,-3551.8,62.1935,16.5736,-133.885,-6601.91,-17470.0,2197.55,-202.357,80.799,-182.55,11106.4,1674.81,3488.97,-18.3863,38.8392,-118.165
2.588,4822.64,-2026.76,10557.8,-8.8324,-77.3794,17.9636,3032.59,7884.47,7317.29,-28.8033,331.933,-147.195,-1161.49,14099.5,769.762,25.6434,-16.3401,-6.91429,1038.61,-1757.23,-3638.91,-29.568,58.0731,-200.211,-4736.25,14924.3,-3320.31,63.3792,16.357,-133.121,-6711.12,-17297.4,2254.7,-196.907,89.793,-182.493,10852.2,1825.81,3405.85,-20.0101,39.3069,-120.196
2.589,4819.73,-2075.02,10533.0,-10.1818,-79.4949,17.6592,3108.11,7910.65,7200.3,-29.6959,335.935,-150.155,-1099.76,14009.2,676.781,25.6996,-19.1739,-6.0256,1081.97,-1679.21,-3675.72,-31.0377,61.0707,-204.143,-4649.71,14803.2,-3088.81,64.5649,16.1404,-132.357,-6820.33,-17124.7,2311.84,-191.458,98.787,-182.437,10598.0,1976.81,3322.73,-21.6338,39.7745,-122.228
2.59,4816.83,-2123.28,10508.2,-11.5312,-81.6104,17.3549,3183.63,7936.83,7083.31,-30.5885,339.937,-153.115,-1038.02,13919.0,583.801,25.7559,-22.0078,-5.13692,1125.33,-1601.2,-3712.52,-32.5074,64.0682,-208.075,-4563.17,14682.2,-2857.32,65.7507,15.9238,-131.593,-6929.53,-16952.1,2368.99,-186.008,107.781,-182.381,10343.8,2127.81,3239.61,-23.2575,40.2421,-124.26
2.591,4813.93,-2171.54,10483.4,-12.8805,-83.7259,17.0506,3259.15,7963.0,6966.32,-31.481,343.939,-156.075,-976.275,13828.7,490.82,25.8121,-24.8417,-4.24823,1168.7,-1523.19,-3749.33,-33.9771,67.0658,-212.007,-4476.63,14561.1,-2625.83,66.9364,15.7073,-130.829,-7038.74,-16779.4,2426.14,-180.559,116.775,-182.325,10089.6,2278.81,3156.49,-24.8812,40.7098,-126.291
2.592,4908.86,-2267.58,10416.3,-14.8647,-85.6071,16.6548,3306.29,7912.67,6906.02,-33.0324,347.374,-158.583,-997.246,13749.2,320.969,25.9085,-27.6695,-3.40263,1216.76,-1578.47,-3766.05,-35.1193,70.2651,-215.937,-4341.57,14466.7,-2389.99,68.0663,14.5121,-130.41,-7154.33,-16527.4,2464.67,-175.819,124.16,-182.229,9924.82,2405.19,3147.67,-26.1519,40.9628,-127.722
2.593,5016.03,-2369.58,10343.8,-16.9283,-87.459,16.2476,3349.89,7852.78,6852.8,-34.6662,350.738,-161.034,-1028.55,13671.1,141.51,26.01,-30.4967,-2.56241,1265.4,-1650.41,-3780.26,-36.2207,73.4896,-219.866,-4200.45,14375.5,-2153.61,69.1893,13.1946,-130.034,-7270.73,-16265.5,2500.86,-171.168,131.344,-182.129,9771.16,2528.49,3148.13,-27.3786,41.189,-129.077
2.594,5123.19,-2471.59,10271.4,-18.9918,-89.311,15.8404,3393.49,7792.89,6799.57,-36.3,354.103,-163.485,-1059.86,13593.0,-37.9501,26.1115,-33.3238,-1.72219,1314.05,-1722.35,-3794.47,-37.322,76.7141,-223.796,-4059.32,14284.4,-1917.23,70.3122,11.8771,-129.658,-7387.12,-16003.6,2537.06,-166.517,138.527,-182.028,9617.5,2651.79,3148.6,-28.6052,41.4152,-130.432
