Time,RFoot_accel.x,RFoot_accel.y,RFoot_accel.z,RFoot_gyro.x,RFoot_gyro.y,RFoot_gyro.z,LFoot_accel.x,LFoot_accel.y,LFoot_accel.z,LFoot_gyro.x,LFoot_gyro.y,LFoot_gyro.z,RShank_accel.x,RShank_accel.y,RShank_accel.z,RShank_gyro.x,RShank_gyro.y,RShank_gyro.z,LShank_accel.x,LShank_accel.y,LShank_accel.z,LShank_gyro.x,LShank_gyro.y,LShank_gyro.z,RThigh_accel.x,RThigh_accel.y,RThigh_accel.z,RThigh_gyro.x,RThigh_gyro.y,RThigh_gyro.z,LThigh_accel.x,LThigh_accel.y,LThigh_accel.z,LThigh_gyro.x,LThigh_gyro.y,LThigh_gyro.z,Pelvis_accel.x,Pelvis_accel.y,Pelvis_accel.z,Pelvis_gyro.x,Pelvis_gyro.y,Pelvis_gyro.z
3.11,2363.64,-4836.65,9431.67,-33.9088,-32.9542,-25.6985,3731.5,-2434.06,7374.62,-46.567,529.935,4.97777,1178.74,11229.6,-2512.76,17.2425,-42.0613,-9.93143,-2999.02,-3041.75,-177.849,-22.0981,-39.1727,-293.128,-2829.97,12110.5,-4309.47,57.2637,-113.412,-108.045,-10460.1,-9913.89,2554.34,-91.1661,153.269,-154.435,6316.93,2042.05,2083.19,-8.62297,11.5543,-106.041
3.111,2103.09,-5281.88,9232.27,-33.8942,-33.5745,-26.2895,3578.77,-2491.71,7278.16,-40.2418,534.748,9.62722,1217.73,11250.9,-2630.65,17.1249,-43.7079,-8.26776,-2747.04,-3004.34,-18.5642,-24.2113,-48.0765,-296.563,-2807.18,11952.9,-4309.7,58.4969,-113.4,-108.082,-10400.6,-9738.01,2460.8,-91.8088,149.277,-153.872,6231.67,2025.68,2025.29,-11.8204,10.768,-102.609
3.112,2354.8,-5429.95,9025.22,-34.9929,-34.3956,-28.6834,3458.29,-2547.43,7213.08,-33.6588,538.554,14.1286,1041.65,11200.2,-2727.06,16.3833,-45.649,-7.24078,-2486.2,-3008.01,44.1695,-26.5286,-56.4049,-299.269,-2738.39,11809.2,-4251.12,59.3231,-113.158,-108.609,-10438.9,-9532.07,2342.6,-92.9312,144.921,-153.403,6146.29,1895.16,1968.2,-12.9611,9.59775,-98.8349
3.113,2670.53,-5540.87,8817.21,-36.2309,-35.2417,-31.3028,3341.85,-2602.91,7151.91,-27.0435,542.234,18.6115,838.693,11140.6,-2820.77,15.5637,-47.6269,-6.29337,-2224.25,-3016.8,94.8344,-28.8715,-64.6613,-301.884,-2663.84,11667.2,-4185.18,60.0985,-112.887,-109.198,-10489.4,-9322.38,2221.32,-94.1136,140.519,-152.947,6060.9,1750.39,1911.22,-13.8447,8.37951,-95.0176
3.114,2986.26,-5651.79,8609.2,-37.4689,-36.0879,-33.9221,3225.41,-2658.39,7090.74,-20.4283,545.914,23.0944,635.733,11081.0,-2914.49,14.7441,-49.6048,-5.34597,-1962.3,-3025.6,145.499,-31.2143,-72.9178,-304.499,-2589.3,11525.3,-4119.24,60.8739,-112.616,-109.787,-10540.0,-9112.68,2100.05,-95.2961,136.117,-152.49,5975.5,1605.61,1854.24,-14.7282,7.16127,-91.2003
3.115,3301.99,-5762.71,8401.19,-38.7068,-36.9341,-36.5415,3108.97,-2713.87,7029.58,-13.813,549.594,27.5773,432.772,11021.4,-3008.21,13.9245,-51.5827,-4.39856,-1700.35,-3034.4,196.164,-33.5571,-81.1742,-307.114,-2514.76,11383.3,-4053.31,61.6493,-112.345,-110.376,-10590.5,-8902.99,1978.77,-96.4785,131.715,-152.033,5890.11,1460.83,1797.26,-15.6118,5.94304,-87.383
3.116,3776.76,-5613.19,8249.36,-39.811,-37.7633,-38.3947,3041.12,-2747.65,6968.8,-7.46179,552.786,31.7129,134.457,11002.1,-3042.49,12.7623,-53.1671,-4.10152,-1427.14,-3050.35,238.642,-36.0439,-88.7439,-309.531,-2443.01,11262.7,-3967.25,62.2806,-112.487,-110.997,-10671.6,-8724.75,1901.86,-97.7136,127.321,-151.588,5810.01,1345.99,1734.05,-16.6098,4.63273,-83.6212
3.117,4450.31,-5138.12,8167.76,-40.7479,-38.5715,-39.2903,3034.01,-2754.29,6908.52,-1.44068,555.367,35.4144,-283.052,11033.3,-3002.49,11.1719,-54.2596,-4.61743,-1139.85,-3075.24,270.886,-38.7107,-95.455,-311.7,-2374.76,11168.7,-3856.04,62.7318,-113.145,-111.656,-10791.0,-8585.84,1880.43,-99.0148,122.936,-151.157,5736.52,1268.55,1663.05,-17.7508,3.20733,-79.9289
3.118,5123.87,-4663.05,8086.16,-41.6849,-39.3796,-40.1858,3026.91,-2760.93,6848.23,4.58044,557.947,39.1159,-700.561,11064.5,-2962.48,9.58146,-55.3521,-5.13333,-852.562,-3100.13,303.13,-41.3774,-102.166,-313.869,-2306.5,11074.6,-3744.83,63.183,-113.804,-112.316,-10910.3,-8446.92,1859.0,-100.316,118.552,-150.726,5663.04,1191.11,1592.05,-18.8917,1.78192,-76.2365
3.119,5797.43,-4187.98,8004.56,-42.6218,-40.1877,-41.0814,3019.8,-2767.58,6787.95,10.6015,560.528,42.8175,-1118.07,11095.6,-2922.48,7.99101,-56.4446,-5.64924,-565.273,-3125.02,335.375,-44.0442,-108.877,-316.038,-2238.24,10980.6,-3633.62,63.6342,-114.462,-112.976,-11029.6,-8308.0,1837.56,-101.617,114.167,-150.295,5589.55,1113.68,1521.06,-20.0327,0.356523,-72.5442
3.12,6470.98,-3712.92,7922.95,-43.5587,-40.9959,-41.977,3012.69,-2774.22,6727.66,16.6227,563.109,46.519,-1535.58,11126.8,-2882.48,6.40057,-57.537,-6.16514,-277.983,-3149.91,367.619,-46.711,-115.588,-318.207,-2169.98,10886.6,-3522.41,64.0854,-115.12,-113.635,-11149.0,-8169.09,1816.13,-102.918,109.782,-149.864,5516.06,1036.24,1450.06,-21.1737,-1.06888,-68.8519
3.121,6893.78,-3513.34,7931.35,-43.9143,-41.4653,-42.1491,3024.47,-2571.22,6652.95,21.1424,564.299,49.317,-1819.46,11282.7,-2682.79,5.38024,-59.3894,-6.64161,-23.0297,-3152.52,401.424,-49.5636,-120.557,-320.573,-2157.14,10758.3,-3561.89,65.2843,-116.435,-114.483,-11206.5,-8037.73,1926.44,-103.401,105.548,-149.742,5507.64,1094.54,1418.49,-25.5012,-1.90371,-65.6891
3.122,7316.57,-3313.77,7939.74,-44.27,-41.9347,-42.3212,3036.25,-2368.22,6578.23,25.662,565.489,52.115,-2103.34,11438.6,-2483.1,4.35991,-61.2417,-7.11807,231.924,-3155.14,435.23,-52.4162,-125.526,-322.939,-2144.31,10630.0,-3601.38,66.4831,-117.75,-115.331,-11264.0,-7906.38,2036.75,-103.884,101.314,-149.619,5499.21,1152.84,1386.92,-29.8288,-2.73855,-62.5263
3.123,7739.37,-3114.19,7948.13,-44.6256,-42.4041,-42.4933,3048.03,-2165.22,6503.52,30.1817,566.68,54.913,-2387.22,11594.5,-2283.41,3.33957,-63.094,-7.59454,486.878,-3157.76,469.035,-55.2688,-130.495,-325.305,-2131.47,10501.6,-3640.86,67.6819,-119.065,-116.178,-11321.5,-7775.02,2147.05,-104.368,97.0793,-149.497,5490.78,1211.14,1355.35,-34.1564,-3.57338,-59.3636
3.124,8162.16,-2914.62,7956.52,-44.9812,-42.8735,-42.6655,3059.81,-1962.22,6428.8,34.7014,567.87,57.7111,-2671.11,11750.4,-2083.73,2.31924,-64.9463,-8.071,741.831,-3160.38,502.841,-58.1214,-135.463,-327.671,-2118.63,10373.3,-3680.34,68.8808,-120.38,-117.026,-11379.0,-7643.66,2257.36,-104.851,92.8449,-149.374,5482.35,1269.43,1323.79,-38.4839,-4.40822,-56.2008
3.125,8309.9,-2819.06,7973.95,-45.0809,-43.4015,-42.7793,3097.24,-1708.07,6366.92,38.1956,568.23,59.5775,-2796.65,11922.4,-1855.73,1.3852,-67.35,-8.29017,980.19,-3222.65,527.287,-60.7976,-138.987,-330.057,-2089.82,10285.3,-3763.93,70.473,-121.789,-118.238,-11397.3,-7523.79,2446.18,-104.104,88.576,-149.295,5437.81,1279.95,1299.07,-42.4099,-5.1795,-52.6373
3.126,8237.6,-2806.73,7998.61,-44.9759,-43.9764,-42.8465,3155.18,-1413.0,6315.3,40.8693,567.928,60.6987,-2795.54,12107.3,-1605.08,0.520206,-70.1949,-8.30349,1205.27,-3332.64,544.245,-63.3326,-141.353,-332.458,-2048.23,10229.6,-3882.8,72.38,-123.274,-119.742,-11384.1,-7413.11,2697.81,-102.375,84.2794,-149.25,5364.39,1252.25,1279.84,-46.0145,-5.89992,-48.7532
3.127,8165.3,-2794.4,8023.27,-44.8709,-44.5513,-42.9138,3213.13,-1117.93,6263.68,43.543,567.625,61.8198,-2794.42,12292.3,-1354.43,-0.344792,-73.0397,-8.31681,1430.36,-3442.64,561.204,-65.8677,-143.72,-334.859,-2006.64,10173.8,-4001.67,74.287,-124.759,-121.246,-11370.9,-7302.43,2949.45,-100.645,79.9829,-149.205,5290.96,1224.55,1260.61,-49.6191,-6.62035,-44.8691
3.128,8093.0,-2782.06,8047.93,-44.7659,-45.1262,-42.981,3271.07,-822.861,6212.07,46.2167,567.323,62.941,-2793.31,12477.2,-1103.78,-1.20979,-75.8846,-8.33013,1655.44,-3552.64,578.162,-68.4028,-146.086,-337.26,-1965.05,10118.1,-4120.54,76.1939,-126.244,-122.749,-11357.8,-7191.74,3201.08,-98.9147,75.6863,-149.16,5217.54,1196.85,1241.38,-53.2237,-7.34078,-40.9851
3.129,7986.16,-2774.0,8078.43,-44.6913,-45.6959,-43.0443,3329.15,-531.518,6160.86,48.7009,566.887,63.8223,-2760.98,12652.6,-865.194,-2.09607,-78.7528,-8.28223,1872.3,-3663.2,608.037,-70.8917,-148.21,-339.681,-1912.95,10064.2,-4235.95,78.1394,-127.754,-124.254,-11339.3,-7077.58,3452.54,-96.925,71.4883,-149.155,5144.47,1165.13,1220.14,-56.596,-8.09411,-37.1407
3.13,7603.05,-2800.08,8155.58,-44.8607,-46.2245,-43.0765,3388.33,-269.998,6112.95,49.6692,565.388,62.7841,-2478.94,12752.0,-723.112,-3.15259,-81.8072,-7.74447,2023.42,-3778.28,741.242,-73.0108,-148.387,-342.268,-1776.76,10024.7,-4323.58,80.3931,-129.463,-125.768,-11278.3,-6935.62,3702.55,-92.8576,68.0792,-149.463,5074.32,1101.18,1182.81,-58.1097,-9.11068,-33.6142
3.131,7219.93,-2826.16,8232.74,-45.03,-46.7531,-43.1087,3447.5,-8.47686,6065.05,50.6374,563.89,61.746,-2196.91,12851.3,-581.029,-4.2091,-84.8617,-7.20671,2174.54,-3893.37,874.448,-75.13,-148.565,-344.855,-1640.58,9985.28,-4411.21,82.6467,-131.172,-127.281,-11217.3,-6793.66,3952.56,-88.7902,64.67,-149.77,5004.16,1037.23,1145.49,-59.6235,-10.1272,-30.0876
3.132,6836.82,-2852.24,8309.9,-45.1993,-47.2817,-43.1408,3506.68,253.044,6017.14,51.6056,562.391,60.7079,-1914.88,12950.7,-438.947,-5.26562,-87.9162,-6.66896,2325.66,-4008.46,1007.65,-77.2491,-148.742,-347.441,-1504.4,9945.83,-4498.84,84.9003,-132.881,-128.795,-11156.3,-6651.69,4202.57,-84.7228,61.2609,-150.078,4934.0,973.281,1108.16,-61.1373,-11.1438,-26.5611
3.133,6453.71,-2878.32,8387.06,-45.3687,-47.8103,-43.173,3565.86,514.565,5969.23,52.5739,560.892,59.6697,-1632.85,13050.0,-296.865,-6.32214,-90.9706,-6.1312,2476.78,-4123.55,1140.86,-79.3682,-148.92,-350.028,-1368.22,9906.39,-4586.47,87.154,-134.59,-130.308,-11095.2,-6509.73,4452.58,-80.6554,57.8517,-150.386,4863.84,909.332,1070.84,-62.651,-12.1604,-23.0345
3.134,6100.33,-2943.0,8444.9,-45.5115,-48.7924,-43.3437,3698.3,747.936,5906.62,52.6389,558.725,57.4634,-1354.57,13047.1,-308.598,-7.32659,-93.5509,-5.42648,2592.38,-4248.6,1282.52,-81.1882,-148.285,-352.203,-1242.27,9876.94,-4660.79,89.494,-136.355,-131.778,-10994.1,-6338.74,4653.38,-75.8488,55.7792,-150.83,4860.11,891.654,1011.71,-64.1495,-12.9827,-19.9878
3.135,5761.81,-3026.98,8493.1,-45.6412,-50.0013,-43.5837,3867.37,967.234,5836.65,52.2524,556.224,54.673,-1078.16,12993.0,-397.238,-8.305,-95.8941,-4.63827,2690.21,-4378.64,1428.41,-82.8586,-147.245,-354.172,-1121.43,9852.5,-4728.45,91.8771,-138.146,-133.227,-10872.8,-6153.23,4829.56,-70.6727,54.3751,-151.342,4889.6,897.111,941.677,-65.6402,-13.7078,-17.1809
3.136,5423.29,-3110.96,8541.29,-45.7708,-51.2101,-43.8237,4036.44,1186.53,5766.69,51.8659,553.723,51.8827,-801.75,12939.0,-485.879,-9.28342,-98.2374,-3.85006,2788.05,-4508.68,1574.29,-84.529,-146.205,-356.142,-1000.59,9828.05,-4796.1,94.2603,-139.938,-134.675,-10751.6,-5967.72,5005.74,-65.4965,52.971,-151.854,4919.08,902.568,871.647,-67.131,-14.433,-14.3741
3.137,5084.78,-3194.94,8589.49,-45.9004,-52.419,-44.0637,4205.51,1405.83,5696.72,51.4794,551.221,49.0923,-525.34,12884.9,-574.519,-10.2618,-100.581,-3.06185,2885.88,-4638.71,1720.18,-86.1993,-145.165,-358.112,-879.749,9803.61,-4863.76,96.6434,-141.73,-136.123,-10630.4,-5782.22,5181.93,-60.3204,51.5668,-152.366,4948.56,908.026,801.617,-68.6218,-15.1581,-11.5672
3.138,4802.51,-3274.19,8623.05,-45.9781,-53.5649,-44.2484,4379.33,1631.0,5607.05,50.8291,548.576,46.0008,-278.736,12802.0,-685.047,-11.1501,-102.551,-2.34142,2973.25,-4768.71,1885.67,-87.7917,-143.834,-359.977,-768.316,9783.68,-4934.28,98.9702,-143.395,-137.594,-10499.6,-5579.6,5333.45,-55.2668,50.691,-152.87,4983.84,906.076,736.234,-69.8822,-15.8588,-8.95861
3.139,4717.1,-3336.88,8605.42,-45.8743,-54.4905,-44.2394,4569.8,1876.71,5448.42,49.2554,545.426,41.8555,-136.451,12618.2,-872.18,-11.7228,-103.218,-1.85823,3023.95,-4898.59,2119.75,-89.1108,-141.487,-361.478,-689.804,9779.56,-5014.82,101.099,-144.613,-139.141,-10335.5,-5317.11,5398.67,-50.6423,51.6643,-153.348,5039.37,878.203,687.114,-70.3366,-16.4738,-7.04386
3.14,4631.69,-3399.57,8587.79,-45.7705,-55.4162,-44.2304,4760.27,2122.43,5289.78,47.6818,542.276,37.7102,5.83422,12434.4,-1059.31,-12.2955,-103.886,-1.37504,3074.66,-5028.46,2353.84,-90.43,-139.14,-362.979,-611.292,9775.45,-5095.36,103.229,-145.832,-140.689,-10171.4,-5054.61,5463.89,-46.0177,52.6377,-153.825,5094.91,850.33,637.994,-70.791,-17.0888,-5.12911
3.141,4546.28,-3462.27,8570.17,-45.6667,-56.3419,-44.2214,4950.74,2368.14,5131.14,46.1082,539.125,33.5649,148.119,12250.6,-1246.45,-12.8683,-104.553,-0.891844,3125.37,-5158.33,2587.92,-91.7491,-136.793,-364.48,-532.78,9771.33,-5175.9,105.358,-147.051,-142.236,-10007.3,-4792.12,5529.11,-41.3932,53.611,-154.302,5150.44,822.457,588.875,-71.2455,-17.7038,-3.21436
3.142,4460.87,-3524.96,8552.54,-45.5629,-57.2675,-44.2125,5141.21,2613.85,4972.5,44.5346,535.975,29.4197,290.405,12066.9,-1433.58,-13.441,-105.22,-0.408651,3176.07,-5288.21,2822.01,-93.0683,-134.446,-365.982,-454.268,9767.21,-5256.44,107.487,-148.269,-143.783,-9843.23,-4529.62,5594.33,-36.7687,54.5844,-154.78,5205.98,794.584,539.755,-71.6999,-18.3189,-1.29961
3.143,4527.77,-3577.86,8494.32,-46.0609,-58.0106,-44.6836,5308.51,2914.29,4869.4,42.0316,532.123,24.5522,359.061,11854.0,-1527.94,-13.7803,-105.106,-0.221194,3185.9,-5474.81,2967.86,-94.0399,-130.891,-367.091,-431.799,9751.09,-5287.21,109.616,-149.68,-145.461,-9650.67,-4261.25,5615.25,-33.6125,56.9826,-154.907,5318.86,777.388,514.197,-71.6875,-18.8248,0.000842226
3.144,4638.19,-3627.96,8424.49,-46.7308,-58.7014,-45.2919,5469.19,3230.37,4782.16,39.2632,528.07,19.4783,406.68,11632.9,-1595.79,-14.0529,-104.769,-0.118232,3184.04,-5677.63,3088.52,-94.9121,-126.991,-368.089,-425.341,9731.53,-5303.75,111.744,-151.145,-147.176,-9449.97,-3991.19,5623.51,-30.8758,59.788,-154.934,5448.14,763.242,495.37,-71.5418,-19.2996,1.12579
3.145,4748.6,-3678.06,8354.67,-47.4007,-59.3922,-45.9002,5629.87,3546.44,4694.92,36.4948,524.016,14.4044,454.3,11411.7,-1663.64,-14.3255,-104.432,-0.0152712,3182.18,-5880.45,3209.17,-95.7844,-123.09,-369.087,-418.884,9711.98,-5320.29,113.873,-152.611,-148.891,-9249.27,-3721.13,5631.76,-28.1391,62.5934,-154.962,5577.41,749.097,476.544,-71.3961,-19.7744,2.25073
3.146,4859.02,-3728.16,8284.84,-48.0707,-60.0831,-46.5085,5790.55,3862.52,4607.69,33.7263,519.963,9.33055,501.919,11190.6,-1731.49,-14.5981,-104.095,0.0876901,3180.32,-6083.26,3329.82,-96.6566,-119.19,-370.085,-412.427,9692.43,-5336.84,116.001,-154.077,-150.605,-9048.57,-3451.07,5640.02,-25.4024,65.3988,-154.989,5706.68,734.951,457.718,-71.2505,-20.2491,3.37567
3.147,4989.38,-3727.43,8220.89,-48.6302,-60.7167,-47.044,5942.53,4166.25,4533.76,30.6045,515.624,3.81693,508.319,11005.3,-1754.31,-14.8593,-103.904,0.0703503,3151.14,-6236.29,3442.64,-97.3958,-114.72,-370.809,-412.278,9673.0,-5349.91,117.841,-155.81,-152.194,-8835.1,-3183.1,5633.53,-23.3143,68.3085,-154.914,5827.33,717.52,441.807,-70.9892,-20.6953,4.28045
3.148,5159.64,-3625.06,8168.66,-48.969,-61.2359,-47.4339,6077.11,4445.27,4486.46,26.7757,510.712,-2.57621,432.28,10891.8,-1687.09,-15.0977,-104.005,-0.187592,3067.29,-6289.73,3539.77,-97.8688,-109.111,-370.983,-424.747,9653.81,-5356.02,119.103,-158.078,-153.531,-8596.09,-2919.31,5597.54,-22.5232,71.427,-154.632,5930.71,693.518,431.73,-70.4967,-21.0841,4.74491
3.149,5329.89,-3522.68,8116.43,-49.3078,-61.755,-47.8237,6211.68,4724.3,4439.15,22.947,505.801,-8.96935,356.241,10778.4,-1619.87,-15.3361,-104.107,-0.445534,2983.44,-6343.18,3636.9,-98.3419,-103.502,-371.158,-437.217,9634.63,-5362.13,120.365,-160.347,-154.867,-8357.08,-2655.52,5561.55,-21.7321,74.5454,-154.351,6034.1,669.516,421.652,-70.0042,-21.473,5.20937
3.15,5500.14,-3420.3,8064.2,-49.6466,-62.2742,-48.2136,6346.26,5003.33,4391.84,19.1182,500.889,-15.3625,280.202,10664.9,-1552.65,-15.5745,-104.208,-0.703476,2899.59,-6396.63,3734.04,-98.8149,-97.8927,-371.333,-449.686,9615.44,-5368.24,121.627,-162.615,-156.204,-8118.07,-2391.72,5525.56,-20.9411,77.6639,-154.07,6137.49,645.514,411.574,-69.5117,-21.8618,5.67383
3.151,5670.4,-3317.92,8011.97,-49.9854,-62.7934,-48.6035,6480.83,5282.35,4344.54,15.2895,495.977,-21.7556,204.163,10551.4,-1485.43,-15.8129,-104.309,-0.961418,2815.74,-6450.07,3831.17,-99.288,-92.2835,-371.508,-462.156,9596.26,-5374.35,122.889,-164.884,-157.54,-7879.06,-2127.93,5489.57,-20.15,80.7823,-153.788,6240.87,621.512,401.496,-69.0192,-22.2507,6.13829
3.152,5776.16,-3240.3,7941.97,-50.4452,-63.207,-48.9111,6597.58,5448.41,4320.42,10.7988,490.691,-29.7226,64.1199,10572.2,-1437.18,-16.0874,-105.069,-1.22831,2714.49,-6568.93,3876.86,-99.8434,-84.9947,-372.137,-430.163,9548.97,-5312.29,123.542,-167.436,-158.568,-7703.2,-1963.81,5434.81,-20.1421,83.4183,-153.291,6314.31,588.353,367.95,-68.4033,-22.5283,6.35025
3.153,5873.87,-3165.76,7869.75,-50.9201,-63.6075,-49.2084,6712.1,5600.35,4299.21,6.22548,485.358,-37.8863,-83.9242,10609.8,-1391.31,-16.3664,-105.911,-1.49632,2611.07,-6695.97,3916.13,-100.409,-77.4958,-372.824,-392.612,9498.17,-5241.71,124.12,-170.024,-159.558,-7535.24,-1812.15,5377.72,-20.2321,85.994,-152.767,6384.0,554.049,331.471,-67.7719,-22.7919,6.53065
3.154,5971.57,-3091.23,7797.53,-51.395,-64.008,-49.5057,6826.62,5752.29,4278.0,1.6521,480.025,-46.0499,-231.968,10647.4,-1345.44,-16.6454,-106.753,-1.76434,2507.65,-6823.0,3955.39,-100.975,-69.997,-373.51,-355.061,9447.36,-5171.13,124.698,-172.611,-160.547,-7367.28,-1660.5,5320.62,-20.3221,88.5697,-152.243,6453.69,519.746,294.992,-67.1405,-23.0556,6.71105
3.155,6069.28,-3016.7,7725.31,-51.8698,-64.4085,-49.803,6941.14,5904.23,4256.79,-2.92127,474.692,-54.2136,-380.012,10685.0,-1299.57,-16.9244,-107.595,-2.03235,2404.23,-6950.04,3994.65,-101.54,-62.4982,-374.196,-317.51,9396.56,-5100.55,125.275,-175.199,-161.537,-7199.32,-1508.84,5263.52,-20.4122,91.1454,-151.719,6523.38,485.442,258.513,-66.5091,-23.3193,6.89145
3.156,6130.09,-3009.25,7684.47,-52.0781,-64.8424,-50.0643,7057.92,5997.76,4243.07,-7.26793,469.274,-62.8258,-513.873,10740.2,-1272.33,-17.2172,-108.583,-2.12216,2311.29,-7124.63,3958.19,-101.917,-54.6986,-375.067,-268.496,9356.28,-5062.62,125.488,-177.299,-162.215,-7047.41,-1397.48,5185.66,-20.4654,93.4213,-151.198,6573.66,463.367,227.845,-65.8191,-23.4832,7.03065
3.157,6144.76,-3085.67,7682.85,-51.9532,-65.318,-50.2807,7177.53,6018.29,4238.74,-11.3312,463.75,-71.9986,-630.005,10817.4,-1268.39,-17.5275,-109.755,-1.98923,2231.47,-7358.66,3827.09,-102.057,-46.5231,-376.169,-205.155,9329.17,-5065.49,125.245,-178.79,-162.505,-6915.58,-1336.5,5081.86,-20.4728,95.3225,-150.679,6599.66,456.577,204.441,-65.0559,-23.5225,7.11835
3.158,6159.44,-3162.09,7681.23,-51.8283,-65.7937,-50.497,7297.14,6038.81,4234.4,-15.3945,458.226,-81.1714,-746.136,10894.6,-1264.45,-17.8377,-110.927,-1.8563,2151.65,-7592.69,3695.98,-102.197,-38.3475,-377.27,-141.814,9302.05,-5068.35,125.002,-180.28,-162.794,-6783.75,-1275.52,4978.05,-20.4801,97.2237,-150.16,6625.66,449.787,181.037,-64.2926,-23.5618,7.20605
3.159,6174.12,-3238.52,7679.61,-51.7034,-66.2694,-50.7133,7416.75,6059.34,4230.06,-19.4578,452.702,-90.3442,-862.268,10971.7,-1260.5,-18.148,-112.099,-1.72337,2071.83,-7826.72,3564.87,-102.337,-30.172,-378.371,-78.472,9274.93,-5071.22,124.76,-181.771,-163.084,-6651.91,-1214.55,4874.25,-20.4874,99.1249,-149.641,6651.67,442.997,157.633,-63.5294,-23.6011,7.29376
3.16,6188.8,-3314.94,7677.99,-51.5784,-66.7451,-50.9296,7536.36,6079.87,4225.72,-23.521,447.178,-99.517,-978.399,11048.9,-1256.56,-18.4582,-113.271,-1.59044,1992.01,-8060.75,3433.76,-102.477,-21.9964,-379.473,-15.1306,9247.82,-5074.09,124.517,-183.261,-163.374,-6520.08,-1153.57,4770.44,-20.4947,101.026,-149.122,6677.67,436.206,134.229,-62.7662,-23.6403,7.38146
3.161,6172.55,-3458.94,7586.47,-51.4979,-67.1042,-51.3144,7666.78,6051.69,4229.44,-26.3733,441.98,-108.704,-967.066,11066.9,-1287.68,-18.7789,-114.473,-1.24153,1892.3,-8131.36,3351.29,-102.798,-13.5694,-379.977,137.007,9217.71,-5145.33,124.256,-183.284,-163.494,-6526.69,-1155.1,4712.87,-19.6865,102.384,-149.069,6634.12,422.875,121.65,-61.9378,-23.6361,7.34647
3.162,6156.3,-3602.94,7494.94,-51.4173,-67.4634,-51.6991,7797.2,6023.52,4233.16,-29.2256,436.783,-117.892,-955.732,11085.0,-1318.8,-19.0997,-115.676,-0.892626,1792.58,-8201.96,3268.82,-103.12,-5.1424,-380.481,289.144,9187.6,-5216.56,123.996,-183.307,-163.615,-6533.31,-1156.63,4655.29,-18.8783,103.741,-149.016,6590.58,409.543,109.071,-61.1095,-23.6318,7.31149
3.163,6140.05,-3746.94,7403.42,-51.3368,-67.8225,-52.0838,7927.63,5995.35,4236.88,-32.0779,431.586,-127.079,-944.398,11103.0,-1349.93,-19.4204,-116.879,-0.543721,1692.87,-8272.57,3186.35,-103.441,3.28461,-380.986,441.281,9157.49,-5287.8,123.735,-183.33,-163.735,-6539.92,-1158.16,4597.72,-18.0701,105.099,-148.963,6547.03,396.211,96.4912,-60.2812,-23.6275,7.2765
3.164,6123.79,-3890.95,7311.9,-51.2562,-68.1817,-52.4685,8058.05,5967.17,4240.6,-34.9302,426.389,-136.267,-933.065,11121.1,-1381.05,-19.7412,-118.081,-0.194816,1593.15,-8343.17,3103.88,-103.763,11.7116,-381.49,593.419,9127.38,-5359.03,123.475,-183.353,-163.856,-6546.54,-1159.69,4540.14,-17.2619,106.456,-148.911,6503.49,382.879,83.9118,-59.4528,-23.6232,7.24151
3.165,6114.08,-3984.37,7233.91,-51.0897,-68.3567,-52.9196,8174.85,5957.3,4278.96,-37.3321,421.462,-145.422,-835.381,11097.0,-1426.06,-20.1036,-119.107,0.106984,1524.3,-8399.43,3018.26,-104.162,20.0466,-381.42,755.487,9090.5,-5415.87,123.033,-182.619,-163.914,-6600.24,-1187.54,4480.44,-16.2103,107.847,-148.913,6456.17,376.785,68.9495,-58.6323,-23.6808,7.19873
3.166,6109.6,-4037.34,7166.74,-50.8545,-68.3844,-53.4239,8280.76,5962.06,4345.02,-39.3736,416.751,-154.552,-668.617,11039.3,-1482.17,-20.4995,-119.99,0.371099,1480.14,-8444.21,2930.13,-104.623,28.3081,-380.889,925.499,9048.19,-5461.2,122.447,-181.279,-163.921,-6691.62,-1236.46,4419.04,-14.9638,109.263,-148.961,6405.85,376.479,52.081,-57.8179,-23.788,7.14972
3.167,6105.12,-4090.3,7099.58,-50.6193,-68.4121,-53.9281,8386.67,5966.83,4411.08,-41.4151,412.041,-163.681,-501.853,10981.5,-1538.27,-20.8953,-120.873,0.635214,1435.98,-8488.99,2842.0,-105.084,36.5695,-380.359,1095.51,9005.88,-5506.53,121.862,-179.939,-163.928,-6782.99,-1285.37,4357.64,-13.7173,110.679,-149.008,6355.52,376.174,35.2124,-57.0036,-23.8952,7.10071
3.168,6100.64,-4143.27,7032.42,-50.3841,-68.4398,-54.4323,8492.58,5971.59,4477.14,-43.4566,407.33,-172.811,-335.09,10923.8,-1594.38,-21.2911,-121.756,0.899329,1391.82,-8533.77,2753.86,-105.545,44.831,-379.828,1265.52,8963.58,-5551.85,121.276,-178.599,-163.936,-6874.37,-1334.29,4296.24,-12.4708,112.095,-149.055,6305.2,375.869,18.3438,-56.1893,-24.0023,7.0517
3.169,6089.99,-4194.86,6978.97,-50.1673,-68.4788,-54.9046,8599.91,5971.16,4550.07,-45.4118,402.672,-181.882,-166.443,10858.8,-1653.65,-21.6622,-122.529,1.14851,1343.64,-8585.18,2660.08,-105.99,53.0803,-379.29,1429.29,8926.15,-5582.44,120.581,-177.16,-163.885,-6963.09,-1381.54,4236.72,-11.1603,113.536,-149.07,6259.65,378.557,2.51283,-55.368,-24.1196,6.99778
3.17,6030.05,-4235.43,7035.21,-50.0983,-68.6078,-55.1211,8718.63,5929.16,4677.93,-46.676,398.437,-190.487,17.2646,10735.3,-1738.21,-21.8355,-122.416,1.27824,1263.26,-8689.64,2521.06,-106.309,61.2331,-378.689,1543.11,8927.79,-5495.16,119.014,-174.929,-163.367,-7030.51,-1415.52,4192.26,-9.33798,115.174,-148.819,6252.31,405.19,-5.01743,-54.4906,-24.3174,6.90463
3.171,5970.1,-4276.0,7091.44,-50.0292,-68.7367,-55.3375,8837.35,5887.16,4805.78,-47.9402,394.202,-199.093,200.972,10611.9,-1822.76,-22.0089,-122.304,1.40797,1182.88,-8794.09,2382.05,-106.628,69.3858,-378.088,1656.94,8929.43,-5407.87,117.446,-172.698,-162.849,-7097.93,-1449.5,4147.8,-7.51563,116.813,-148.569,6244.97,431.824,-12.5477,-53.6133,-24.5152,6.81149
3.172,5910.16,-4316.56,7147.68,-49.9602,-68.8657,-55.554,8956.07,5845.16,4933.64,-49.2044,389.966,-207.698,384.68,10488.5,-1907.32,-22.1822,-122.192,1.5377,1102.5,-8898.55,2243.03,-106.947,77.5385,-377.488,1770.76,8931.07,-5320.58,115.879,-170.466,-162.331,-7165.35,-1483.48,4103.34,-5.69329,118.451,-148.319,6237.64,458.457,-20.0779,-52.736,-24.713,6.71834
3.173,5850.22,-4357.13,7203.92,-49.8911,-68.9947,-55.7704,9074.79,5803.15,5061.5,-50.4686,385.731,-216.303,568.388,10365.1,-1991.88,-22.3555,-122.079,1.66743,1022.12,-9003.0,2104.02,-107.266,85.6912,-376.887,1884.58,8932.71,-5233.3,114.312,-168.235,-161.813,-7232.78,-1517.46,4058.88,-3.87094,120.089,-148.068,6230.3,485.091,-27.6082,-51.8586,-24.9108,6.62519
3.174,5760.83,-4336.8,7180.26,-49.8138,-69.1041,-56.1893,9175.62,5800.84,5202.12,-51.2461,381.986,-224.432,679.55,10234.8,-2071.79,-22.4131,-121.358,1.62257,1017.65,-9102.04,1928.49,-107.671,94.0344,-376.644,2018.67,8932.38,-5199.18,112.864,-165.093,-161.233,-7296.28,-1566.15,4048.29,-1.70879,122.044,-147.65,6239.33,502.96,-24.4355,-51.3494,-25.1545,6.32155
3.175,5656.73,-4286.02,7116.66,-49.7322,-69.2036,-56.7093,9267.49,5818.37,5349.13,-51.7803,378.485,-232.322,754.441,10101.1,-2149.39,-22.4129,-120.333,1.49042,1051.14,-9198.36,1734.71,-108.118,102.473,-376.58,2162.91,8931.07,-5191.65,111.477,-161.495,-160.622,-7357.83,-1622.21,4054.64,0.623257,124.158,-147.149,6256.54,516.446,-15.9114,-51.0242,-25.4211,5.91266
3.176,5552.63,-4235.24,7053.06,-49.6507,-69.3032,-57.2294,9359.37,5835.9,5496.14,-52.3144,374.984,-240.212,829.331,9967.39,-2226.99,-22.4127,-119.307,1.35827,1084.64,-9294.68,1540.92,-108.565,110.911,-376.516,2307.14,8929.76,-5184.12,110.089,-157.898,-160.011,-7419.37,-1678.26,4060.99,2.95531,126.272,-146.647,6273.76,529.933,-7.38735,-50.6991,-25.6877,5.50378
3.177,5448.53,-4184.46,6989.46,-49.5691,-69.4028,-57.7494,9451.25,5853.42,5643.16,-52.8486,371.484,-248.102,904.221,9833.68,-2304.59,-22.4125,-118.282,1.22612,1118.13,-9391.0,1347.14,-109.011,119.349,-376.451,2451.37,8928.45,-5176.59,108.702,-154.3,-159.4,-7480.91,-1734.31,4067.34,5.28736,128.385,-146.145,6290.98,543.419,1.13675,-50.3739,-25.9544,5.09489
3.178,5387.05,-4129.18,6928.4,-49.4521,-69.4989,-58.2536,9548.3,5874.13,5789.85,-53.3121,368.095,-255.74,958.448,9713.44,-2348.55,-22.3722,-117.142,1.02851,1152.89,-9486.66,1139.16,-109.512,127.885,-376.409,2600.74,8921.04,-5161.09,107.523,-150.526,-158.68,-7528.69,-1795.75,4093.44,7.76922,130.425,-145.681,6281.14,565.548,12.5009,-50.1655,-26.2247,4.66979
3.179,5474.76,-4058.12,6876.22,-49.2108,-69.5827,-58.7022,9663.49,5905.93,5935.41,-53.5287,365.098,-262.492,940.353,9640.29,-2274.75,-22.1913,-115.601,0.60179,1192.08,-9580.0,881.479,-110.2,136.76,-376.445,2768.12,8892.28,-5117.69,107.072,-146.135,-157.577,-7528.27,-1876.01,4188.67,10.7755,132.206,-145.347,6176.62,617.927,33.8051,-50.3658,-26.5083,4.1879
3.18,5562.47,-3987.05,6824.04,-48.9695,-69.6667,-59.1508,9778.67,5937.74,6080.97,-53.7454,362.1,-269.244,922.258,9567.15,-2200.96,-22.0104,-114.06,0.17507,1231.28,-9673.33,623.8,-110.888,145.634,-376.482,2935.49,8863.52,-5074.29,106.621,-141.744,-156.473,-7527.84,-1956.28,4283.89,13.7817,133.987,-145.013,6072.1,670.305,55.1094,-50.5661,-26.7919,3.70602
3.181,5650.18,-3915.99,6771.86,-48.7282,-69.7506,-59.5995,9893.85,5969.55,6226.53,-53.962,359.103,-275.996,904.163,9494.0,-2127.16,-21.8295,-112.519,-0.25165,1270.48,-9766.66,366.121,-111.576,154.509,-376.518,3102.87,8834.76,-5030.89,106.17,-137.353,-155.37,-7527.42,-2036.54,4379.12,16.7879,135.769,-144.679,5967.57,722.683,76.4137,-50.7665,-27.0755,3.22414
3.182,5737.89,-3844.93,6719.67,-48.4869,-69.8344,-60.0481,10009.0,6001.36,6372.09,-54.1786,356.106,-282.749,886.068,9420.86,-2053.37,-21.6487,-110.978,-0.678371,1309.67,-9860.0,108.441,-112.264,163.384,-376.554,3270.24,8806.0,-4987.49,105.72,-132.963,-154.267,-7527.0,-2116.81,4474.35,19.7941,137.55,-144.346,5863.05,775.061,97.7179,-50.9668,-27.3591,2.74225
3.183,5828.69,-3820.4,6682.92,-48.001,-69.6797,-60.1927,10117.9,6100.67,6501.0,-54.6086,353.686,-288.474,899.856,9364.7,-1945.26,-21.4293,-109.774,-1.02808,1362.99,-9942.79,-182.169,-113.302,172.269,-376.357,3388.77,8794.56,-4889.61,105.711,-128.441,-153.022,-7508.15,-2144.87,4495.47,22.6471,139.592,-143.981,5842.3,796.677,102.852,-51.057,-27.5574,2.31115
3.184,5920.36,-3809.17,6650.58,-47.4452,-69.4567,-60.2504,10225.1,6219.26,6625.15,-55.0995,351.431,-293.906,922.754,9313.4,-1827.36,-21.1988,-108.666,-1.35579,1420.34,-10022.6,-482.188,-114.441,181.156,-376.093,3493.34,8788.07,-4776.17,105.828,-123.883,-151.738,-7484.04,-2158.02,4495.42,25.4563,141.708,-143.607,5845.49,809.503,103.365,-51.1158,-27.7313,1.89455
3.185,6012.03,-3797.94,6618.24,-46.8894,-69.2337,-60.3081,10332.2,6337.85,6749.31,-55.5905,349.176,-299.338,945.652,9262.1,-1709.45,-20.9684,-107.558,-1.6835,1477.7,-10102.3,-782.208,-115.579,190.043,-375.829,3597.91,8781.59,-4662.72,105.945,-119.324,-150.453,-7459.92,-2171.17,4495.38,28.2654,143.825,-143.233,5848.67,822.33,103.878,-51.1746,-27.9053,1.47796
3.186,6103.71,-3786.7,6585.89,-46.3336,-69.0107,-60.3658,10439.3,6456.44,6873.46,-56.0815,346.921,-304.77,968.549,9210.79,-1591.55,-20.738,-106.449,-2.01121,1535.05,-10182.1,-1082.23,-116.717,198.931,-375.565,3702.49,8775.1,-4549.28,106.062,-114.765,-149.168,-7435.81,-2184.32,4495.33,31.0746,145.941,-142.86,5851.86,835.156,104.392,-51.2334,-28.0792,1.06136
3.187,6169.96,-3804.46,6553.46,-45.7287,-68.6759,-60.4316,10554.0,6577.14,6998.46,-56.7039,344.864,-309.888,1008.1,9148.96,-1521.08,-20.5523,-105.408,-2.47038,1591.67,-10290.7,-1373.67,-117.939,207.703,-375.183,3792.53,8762.66,-4402.97,106.064,-110.415,-148.093,-7394.55,-2207.38,4534.06,33.9275,148.032,-142.457,5878.87,859.19,94.7683,-51.4481,-28.2492,0.590394
3.188,6185.38,-3880.19,6520.84,-45.0256,-68.1173,-60.5135,10683.8,6702.02,7125.16,-57.5892,343.206,-314.38,1080.95,9066.05,-1545.47,-20.4562,-104.501,-3.19246,1646.84,-10457.0,-1647.97,-119.329,216.246,-374.565,3853.52,8738.3,-4190.92,105.838,-106.48,-147.439,-7319.0,-2250.25,4650.34,36.8679,150.072,-141.997,5953.52,905.639,64.8707,-51.9747,-28.4112,0.0106816
3.189,6200.79,-3955.93,6488.23,-44.3225,-67.5587,-60.5955,10813.7,6826.91,7251.86,-58.4745,341.547,-318.871,1153.79,8983.14,-1569.87,-20.3601,-103.593,-3.91453,1702.01,-10623.3,-1922.26,-120.719,224.788,-373.946,3914.5,8713.95,-3978.86,105.611,-102.545,-146.784,-7243.44,-2293.12,4766.63,39.8083,152.113,-141.537,6028.18,952.089,34.9732,-52.5014,-28.5733,-0.56903
3.19,6216.21,-4031.66,6455.62,-43.6194,-67.0002,-60.6774,10943.5,6951.8,7378.56,-59.3598,339.888,-323.362,1226.64,8900.24,-1594.26,-20.264,-102.686,-4.63661,1757.18,-10789.5,-2196.56,-122.109,233.331,-373.328,3975.49,8689.59,-3766.81,105.385,-98.6103,-146.129,-7167.89,-2335.99,4882.91,42.7487,154.153,-141.076,6102.83,998.539,5.07563,-53.028,-28.7354,-1.14874
3.191,6231.62,-4107.4,6423.0,-42.9164,-66.4416,-60.7594,11073.4,7076.69,7505.26,-60.2451,338.229,-327.853,1299.49,8817.33,-1618.66,-20.1679,-101.778,-5.35869,1812.34,-10955.8,-2470.85,-123.498,241.873,-372.709,4036.48,8665.24,-3554.76,105.158,-94.6755,-145.475,-7092.33,-2378.86,4999.2,45.6891,156.194,-140.616,6177.49,1044.99,-24.8219,-53.5546,-28.8975,-1.72845
3.192,6137.83,-4137.12,6378.04,-41.7022,-65.85,-60.7096,11183.7,7224.53,7650.83,-61.4736,337.083,-331.336,1416.58,8734.31,-1619.56,-19.9772,-100.142,-6.4113,1813.48,-11215.5,-2701.95,-124.599,250.411,-372.433,4097.47,8656.48,-3332.39,104.642,-91.7602,-144.694,-7037.88,-2467.66,5092.48,49.0434,157.922,-140.306,6103.09,1134.47,-48.3919,-54.4176,-28.9242,-2.27475
3.193,6030.39,-4161.09,6331.53,-40.4243,-65.2542,-60.6433,11291.5,7375.25,7798.77,-62.7451,336.0,-334.693,1539.2,8651.27,-1617.52,-19.7746,-98.4148,-7.50523,1807.87,-11487.0,-2927.64,-125.664,258.947,-372.2,4158.47,8649.67,-3108.73,104.09,-88.9723,-143.897,-6986.06,-2562.19,5182.89,52.4494,159.611,-140.014,6010.07,1229.33,-71.1709,-55.3225,-28.934,-2.81686
3.194,5922.95,-4185.06,6285.02,-39.1463,-64.6585,-60.577,11399.4,7525.96,7946.71,-64.0166,334.918,-338.049,1661.82,8568.23,-1615.48,-19.5721,-96.6875,-8.59916,1802.26,-11758.4,-3153.33,-126.729,267.484,-371.967,4219.46,8642.86,-2885.07,103.538,-86.1845,-143.1,-6934.24,-2656.73,5273.3,55.8554,161.3,-139.722,5917.04,1324.19,-93.95,-56.2275,-28.9438,-3.35897
3.195,5815.52,-4209.03,6238.51,-37.8683,-64.0627,-60.5108,11507.3,7676.68,8094.64,-65.288,333.835,-341.406,1784.44,8485.2,-1613.44,-19.3696,-94.9601,-9.69309,1796.64,-12029.9,-3379.02,-127.794,276.021,-371.734,4280.46,8636.05,-2661.42,102.986,-83.3967,-142.303,-6882.43,-2751.27,5363.7,59.2614,162.989,-139.431,5824.01,1419.05,-116.729,-57.1325,-28.9535,-3.90109
3.196,5691.66,-4219.57,6217.72,-36.6766,-63.4667,-60.4309,11601.4,7797.41,8264.8,-66.5489,332.794,-344.478,1912.1,8417.74,-1570.29,-19.2,-92.9653,-10.7687,1763.16,-12324.5,-3560.93,-128.666,284.342,-371.818,4338.11,8615.07,-2456.04,102.441,-80.8949,-141.579,-6803.45,-2837.36,5441.39,62.6211,164.342,-139.097,5741.24,1493.46,-141.853,-58.0374,-28.8736,-4.29362
3.197,5547.27,-4213.34,6229.1,-35.5928,-62.8704,-60.3341,11678.3,7880.68,8462.76,-67.7965,331.805,-347.195,2046.05,8369.77,-1475.76,-19.0715,-90.6362,-11.8215,1694.83,-12648.2,-3688.1,-129.298,292.393,-372.299,4391.58,8576.39,-2273.5,101.905,-78.7508,-140.946,-6690.53,-2912.89,5503.17,65.9231,165.273,-138.711,5671.28,1542.32,-169.908,-58.9424,-28.6814,-4.49917
3.198,5402.89,-4207.11,6240.47,-34.509,-62.2741,-60.2373,11755.2,7963.94,8660.71,-69.0442,330.816,-349.912,2179.99,8321.79,-1381.23,-18.943,-88.3071,-12.8742,1626.5,-12971.9,-3815.27,-129.93,300.444,-372.779,4445.05,8537.71,-2090.97,101.368,-76.6066,-140.314,-6577.6,-2988.42,5564.96,69.225,166.205,-138.325,5601.32,1591.18,-197.962,-59.8473,-28.4892,-4.70472
3.199,5258.51,-4200.88,6251.85,-33.4252,-61.6778,-60.1405,11832.1,8047.21,8858.66,-70.2918,329.827,-352.628,2313.94,8273.82,-1286.7,-18.8145,-85.978,-13.927,1558.18,-13295.6,-3942.45,-130.562,308.496,-373.26,4498.52,8499.03,-1908.43,100.832,-74.4625,-139.681,-6464.68,-3063.95,5626.74,72.5269,167.136,-137.939,5531.37,1640.04,-226.017,-60.7523,-28.297,-4.91026
3.2,5114.13,-4194.65,6263.22,-32.3414,-61.0815,-60.0438,11909.0,8130.47,9056.61,-71.5395,328.839,-355.345,2447.89,8225.84,-1192.17,-18.686,-83.6489,-14.9798,1489.85,-13619.3,-4069.62,-131.194,316.547,-373.74,4551.99,8460.34,-1725.9,100.296,-72.3183,-139.049,-6351.75,-3139.48,5688.53,75.8289,168.068,-137.553,5461.41,1688.9,-254.072,-61.6572,-28.1048,-5.11581
3.201,5138.31,-4087.07,6285.96,-31.1828,-60.6783,-59.8489,12013.2,8095.36,9224.33,-72.8463,327.827,-357.629,2463.88,8220.2,-1078.95,-18.4291,-81.1668,-16.0913,1351.28,-13912.0,-4130.43,-131.331,323.318,-374.714,4562.67,8408.43,-1570.85,99.8989,-70.1146,-138.504,-6231.61,-3216.27,5791.04,78.724,168.234,-137.361,5451.68,1684.81,-291.259,-62.2649,-27.6634,-5.08896
3.202,5162.48,-3979.49,6308.69,-30.0242,-60.2752,-59.6541,12117.3,8060.25,9392.04,-74.1532,326.816,-359.914,2479.87,8214.56,-965.741,-18.1721,-78.6847,-17.2028,1212.71,-14204.8,-4191.25,-131.469,330.088,-375.689,4573.34,8356.52,-1415.8,99.5021,-67.9108,-137.959,-6111.46,-3293.06,5893.55,81.619,168.4,-137.168,5441.95,1680.71,-328.447,-62.8726,-27.222,-5.06211
3.203,5186.66,-3871.91,6331.42,-28.8656,-59.872,-59.4593,12221.5,8025.14,9559.76,-75.4601,325.804,-362.198,2495.87,8208.92,-852.529,-17.9152,-76.2027,-18.3143,1074.14,-14497.5,-4252.06,-131.607,336.859,-376.663,4584.02,8304.61,-1260.76,99.1054,-65.707,-137.414,-5991.31,-3369.86,5996.06,84.5141,168.566,-136.975,5432.22,1676.62,-365.634,-63.4803,-26.7807,-5.03525
3.204,5210.84,-3764.34,6354.16,-27.7069,-59.4689,-59.2645,12325.7,7990.02,9727.48,-76.7669,324.793,-364.483,2511.86,8203.28,-739.317,-17.6582,-73.7206,-19.4258,935.574,-14790.3,-4312.88,-131.744,343.63,-377.637,4594.7,8252.7,-1105.71,98.7086,-63.5032,-136.869,-5871.17,-3446.65,6098.57,87.4092,168.732,-136.782,5422.49,1672.52,-402.822,-64.088,-26.3393,-5.0084
3.205,5250.22,-3603.24,6369.87,-26.8941,-59.0105,-59.0285,12440.9,7949.44,9881.86,-78.0458,323.72,-366.449,2465.21,8208.18,-603.026,-17.4234,-71.2448,-20.3136,788.809,-15052.1,-4321.79,-131.475,349.452,-378.717,4594.33,8215.75,-963.257,98.1021,-61.2487,-136.419,-5756.61,-3466.46,6128.2,89.8675,168.63,-136.02,5390.78,1714.19,-436.277,-65.0055,-25.8803,-5.02565
3.206,5301.75,-3399.33,6379.95,-26.3578,-58.508,-58.7595,12564.8,7904.49,10025.6,-79.3023,322.599,-368.162,2368.45,8221.5,-448.271,-17.2062,-68.774,-21.0224,635.487,-15289.0,-4289.18,-130.881,354.516,-379.882,4585.14,8190.77,-830.883,97.3279,-58.9537,-136.045,-5646.53,-3440.68,6099.54,91.9764,168.312,-134.801,5341.5,1792.45,-466.746,-66.1707,-25.4071,-5.07818
3.207,5353.28,-3195.42,6390.04,-25.8215,-58.0055,-58.4906,12688.8,7859.54,10169.3,-80.5588,321.478,-369.874,2271.69,8234.82,-293.516,-16.989,-66.3032,-21.7312,482.165,-15526.0,-4256.58,-130.286,359.581,-381.046,4575.94,8165.78,-698.509,96.5537,-56.6587,-135.671,-5536.45,-3414.9,6070.87,94.0852,167.995,-133.583,5292.21,1870.72,-497.215,-67.3359,-24.9339,-5.1307
3.208,5404.82,-2991.51,6400.13,-25.2852,-57.503,-58.2216,12812.7,7814.58,10313.0,-81.8153,320.357,-371.586,2174.93,8248.15,-138.762,-16.7718,-63.8325,-22.44,328.843,-15763.0,-4223.97,-129.692,364.645,-382.211,4566.74,8140.8,-566.135,95.7794,-54.3637,-135.298,-5426.37,-3389.12,6042.2,96.1941,167.678,-132.364,5242.93,1948.99,-527.684,-68.5011,-24.4608,-5.18323
3.209,5458.42,-2785.84,6405.82,-24.696,-56.9823,-57.9205,12936.9,7777.73,10458.7,-83.0747,319.2,-373.259,2077.08,8258.93,18.2078,-16.5583,-61.4471,-23.1351,179.384,-15996.9,-4188.34,-129.029,369.496,-383.391,4554.45,8119.35,-436.827,94.9457,-52.0149,-134.933,-5328.14,-3360.21,5996.5,98.0121,167.324,-131.098,5197.43,2030.99,-558.642,-69.6596,-23.9929,-5.24675
3.21,5528.54,-2565.99,6376.41,-23.6835,-56.3167,-57.3624,13062.9,7805.68,10620.6,-84.3574,317.763,-374.615,1970.6,8249.45,192.899,-16.3749,-59.7454,-23.721,60.829,-16206.4,-4128.53,-127.817,372.644,-384.693,4517.42,8126.11,-332.049,93.6358,-49.2352,-134.643,-5324.63,-3306.23,5814.56,97.5036,166.684,-129.447,5182.24,2142.88,-593.51,-70.7646,-23.5678,-5.39821
3.211,5598.66,-2346.15,6346.99,-22.671,-55.651,-56.8042,13189.0,7833.63,10782.5,-85.6402,316.325,-375.971,1864.11,8239.96,367.59,-16.1915,-58.0437,-24.3069,-57.7257,-16415.8,-4068.72,-126.605,375.792,-385.995,4480.39,8132.87,-227.271,92.326,-46.4556,-134.353,-5321.12,-3252.24,5632.62,96.9951,166.044,-127.797,5167.05,2254.77,-628.379,-71.8695,-23.1426,-5.54967
3.212,5668.78,-2126.31,6317.58,-21.6585,-54.9854,-56.2461,13315.0,7861.59,10944.4,-86.9229,314.887,-377.327,1757.62,8230.48,542.281,-16.008,-56.3419,-24.8928,-176.28,-16625.3,-4008.91,-125.393,378.939,-387.297,4443.35,8139.63,-122.494,91.0162,-43.6759,-134.062,-5317.61,-3198.26,5450.67,96.4865,165.404,-126.146,5151.86,2366.66,-663.247,-72.9745,-22.7174,-5.70113
3.213,5738.9,-1906.47,6288.17,-20.646,-54.3197,-55.6879,13441.0,7889.54,11106.2,-88.2056,313.45,-378.684,1651.13,8220.99,716.972,-15.8246,-54.6402,-25.4787,-294.835,-16834.8,-3949.1,-124.181,382.087,-388.599,4406.32,8146.39,-17.7156,89.7064,-40.8963,-133.772,-5314.11,-3144.28,5268.73,95.978,164.764,-124.495,5136.68,2478.56,-698.115,-74.0795,-22.2923,-5.85259
3.214,5794.96,-1785.12,6259.69,-19.326,-53.6555,-54.7644,13554.2,7939.87,11247.2,-89.6362,311.939,-379.906,1601.55,8198.62,856.457,-15.6411,-52.9497,-26.3564,-384.516,-17047.6,-3895.54,-122.735,384.303,-389.912,4363.64,8151.03,110.817,88.2025,-37.9613,-133.287,-5332.75,-3136.94,5127.72,95.4369,163.489,-122.868,5120.84,2541.84,-698.664,-75.4258,-21.6297,-5.67198
3.215,5843.98,-1713.03,6231.68,-17.8522,-52.9921,-53.6581,13661.0,8001.4,11377.7,-91.1407,310.392,-381.061,1580.42,8169.8,978.34,-15.4575,-51.2649,-27.3799,-459.76,-17262.0,-3845.09,-121.171,386.052,-391.23,4318.14,8154.63,251.227,86.6014,-34.9486,-132.703,-5362.48,-3152.91,5007.19,94.8794,161.898,-121.251,5104.67,2580.83,-682.054,-76.8927,-20.8484,-5.32532
3.216,5893.0,-1640.94,6203.67,-16.3783,-52.3286,-52.5519,13767.7,8062.92,11508.2,-92.6452,308.844,-382.217,1559.29,8140.99,1100.22,-15.2739,-49.58,-28.4035,-535.004,-17476.5,-3794.65,-119.608,387.802,-392.549,4272.63,8158.22,391.637,85.0004,-31.9359,-132.12,-5392.2,-3168.88,4886.66,94.322,160.306,-119.634,5088.51,2619.81,-665.443,-78.3597,-20.0671,-4.97867
3.217,5942.02,-1568.85,6175.66,-14.9045,-51.6652,-51.4457,13874.5,8124.45,11638.7,-94.1498,307.297,-383.372,1538.17,8112.17,1222.1,-15.0904,-47.8952,-29.427,-610.248,-17690.9,-3744.2,-118.044,389.551,-393.867,4227.13,8161.81,532.046,83.3994,-28.9232,-131.537,-5421.92,-3184.85,4766.12,93.7645,158.714,-118.018,5072.34,2658.8,-648.832,-79.8267,-19.2858,-4.63201
3.218,5985.06,-1530.03,6160.54,-13.4053,-51.0125,-50.4286,13990.8,8189.09,11760.3,-95.746,305.743,-384.529,1540.63,8078.2,1331.81,-14.9296,-46.1066,-30.5367,-688.576,-17917.3,-3696.27,-116.37,391.105,-395.2,4187.81,8168.85,671.263,81.8398,-26.0087,-130.905,-5442.08,-3205.74,4647.17,93.1672,157.054,-116.703,5052.59,2693.85,-629.018,-81.2598,-18.4663,-4.29276
3.219,6007.17,-1607.63,6190.53,-11.8176,-50.3975,-49.7235,14140.5,8264.66,11850.8,-97.6631,304.168,-385.694,1625.66,8026.2,1398.91,-14.8483,-43.9551,-31.9477,-777.698,-18185.7,-3657.16,-114.309,391.974,-396.581,4170.16,8187.93,806.305,80.425,-23.4379,-130.103,-5428.79,-3243.87,4533.73,92.4304,155.153,-116.444,5020.27,2715.11,-597.99,-82.5744,-17.5132,-3.97942
3.22,6029.27,-1685.24,6220.53,-10.2299,-49.7825,-49.0184,14290.2,8340.23,11941.3,-99.5803,302.592,-386.859,1710.69,7974.2,1466.01,-14.767,-41.8035,-33.3586,-866.821,-18454.1,-3618.05,-112.248,392.843,-397.963,4152.51,8207.02,941.346,79.0103,-20.8672,-129.302,-5415.5,-3282.0,4420.3,91.6936,153.252,-116.185,4987.94,2736.38,-566.962,-83.889,-16.5601,-3.66607
3.221,6051.37,-1762.84,6250.52,-8.64212,-49.1675,-48.3133,14440.0,8415.8,12031.8,-101.497,301.016,-388.024,1795.73,7922.2,1533.1,-14.6858,-39.6519,-34.7696,-955.943,-18722.4,-3578.94,-110.187,393.712,-399.344,4134.86,8226.1,1076.39,77.5956,-18.2964,-128.5,-5402.2,-3320.13,4306.86,90.9567,151.351,-115.927,4955.62,2757.65,-535.934,-85.2036,-15.607,-3.35273
3.222,6073.48,-1840.45,6280.51,-7.05438,-48.5525,-47.6082,14589.7,8491.37,12122.3,-103.415,299.441,-389.189,1880.76,7870.21,1600.2,-14.6045,-37.5004,-36.1806,-1045.06,-18990.8,-3539.83,-108.127,394.58,-400.726,4117.21,8245.19,1211.43,76.1808,-15.7256,-127.698,-5388.91,-3358.26,4193.43,90.2199,149.45,-115.668,4923.3,2778.91,-504.906,-86.5182,-14.6539,-3.03939
3.223,6067.06,-1890.1,6286.36,-5.1567,-47.87,-46.7383,14779.4,8567.16,12233.6,-105.621,297.768,-390.263,1989.07,7830.05,1586.25,-14.6675,-35.1681,-37.7291,-1172.95,-19259.4,-3531.41,-105.78,395.045,-401.94,4121.3,8274.79,1296.75,75.3387,-13.8561,-126.665,-5350.73,-3302.43,4067.19,88.6944,147.404,-114.754,4965.33,2817.01,-466.037,-87.6017,-13.9034,-2.62684
3.224,6052.5,-1931.78,6285.32,-3.17046,-47.1684,-45.8213,14980.6,8643.02,12351.0,-107.911,296.067,-391.311,2104.02,7793.27,1549.14,-14.7718,-32.7843,-39.3169,-1311.91,-19528.0,-3531.76,-103.351,395.395,-403.107,4131.59,8307.4,1367.87,74.6601,-12.1869,-125.565,-5305.45,-3219.75,3937.29,86.9436,145.315,-113.652,5028.61,2859.91,-424.927,-88.6191,-13.2108,-2.18595
3.225,6037.93,-1973.45,6284.27,-1.18422,-46.4667,-44.9044,15181.7,8718.88,12468.3,-110.2,294.366,-392.359,2218.98,7756.5,1512.03,-14.876,-30.4004,-40.9047,-1450.87,-19796.6,-3532.1,-100.922,395.745,-404.274,4141.89,8340.01,1438.99,73.9816,-10.5178,-124.464,-5260.17,-3137.06,3807.39,85.1928,143.227,-112.551,5091.88,2902.82,-383.818,-89.6366,-12.5183,-1.74506
3.226,6023.37,-2015.12,6283.23,0.80202,-45.765,-43.9874,15382.8,8794.74,12585.6,-112.49,292.665,-393.407,2333.93,7719.72,1474.92,-14.9802,-28.0165,-42.4925,-1589.82,-20065.2,-3532.44,-98.4939,396.094,-405.44,4152.19,8372.62,1510.11,73.303,-8.84867,-123.364,-5214.89,-3054.38,3677.49,83.442,141.139,-111.449,5155.16,2945.73,-342.708,-90.6541,-11.8257,-1.30417
3.227,6000.91,-2051.32,6278.43,2.78831,-45.1006,-43.1353,15605.3,8866.04,12694.8,-114.864,290.894,-394.478,2441.45,7689.27,1433.61,-15.1409,-25.4509,-44.0869,-1743.04,-20334.3,-3536.19,-96.029,396.324,-406.437,4167.95,8407.67,1576.01,72.8297,-7.56495,-122.235,-5149.55,-2990.73,3575.18,82.0816,138.817,-110.068,5209.29,2982.38,-300.828,-91.6276,-11.2247,-0.904125
3.228,5962.65,-2076.59,6266.14,4.77469,-44.5107,-42.413,15870.6,8928.22,12787.7,-117.406,288.981,-395.596,2534.1,7671.47,1383.89,-15.4144,-22.522,-45.6943,-1924.76,-20604.3,-3546.74,-93.4916,396.313,-407.096,4194.62,8447.61,1631.46,72.7668,-7.05206,-121.046,-5044.1,-2965.15,3528.05,81.502,136.026,-108.129,5245.16,3006.53,-257.407,-92.5134,-10.8068,-0.585769
3.229,5924.4,-2101.85,6253.85,6.76107,-43.9208,-41.6906,16135.8,8990.4,12880.5,-119.948,287.068,-396.713,2626.75,7653.67,1334.17,-15.688,-19.593,-47.3018,-2106.49,-20874.3,-3557.29,-90.9542,396.302,-407.755,4221.28,8487.55,1686.92,72.7038,-6.53916,-119.858,-4938.66,-2939.56,3480.92,80.9224,133.236,-106.19,5281.02,3030.68,-213.985,-93.3992,-10.389,-0.267413
3.23,5886.15,-2127.11,6241.55,8.74745,-43.3309,-40.9683,16401.1,9052.58,12973.4,-122.491,285.155,-397.83,2719.41,7635.87,1284.45,-15.9615,-16.6641,-48.9092,-2288.21,-21144.3,-3567.84,-88.4168,396.291,-408.414,4247.95,8527.49,1742.37,72.6409,-6.02627,-118.67,-4833.22,-2913.98,3433.79,80.3428,130.445,-104.25,5316.88,3054.83,-170.564,-94.285,-9.97119,0.0509423
3.231,5847.89,-2152.38,6229.26,10.7338,-42.741,-40.246,16666.3,9114.76,13066.2,-125.033,283.241,-398.948,2812.06,7618.07,1234.73,-16.2351,-13.7351,-50.5167,-2469.94,-21414.3,-3578.39,-85.8794,396.281,-409.072,4274.62,8567.43,1797.83,72.578,-5.51338,-117.481,-4727.77,-2888.4,3386.65,79.7632,127.654,-102.311,5352.74,3078.98,-127.142,-95.1708,-9.55337,0.369298
3.232,5808.62,-2127.34,6272.88,12.207,-42.4007,-39.5062,16961.9,9146.26,13143.1,-127.569,281.176,-400.032,2832.71,7591.31,1189.57,-16.3395,-10.7023,-52.0655,-2675.64,-21649.5,-3600.27,-83.395,395.945,-409.198,4287.7,8616.51,1828.25,72.6626,-5.63663,-116.535,-4534.5,-3004.47,3436.76,80.7405,124.274,-100.342,5376.43,3101.01,-91.187,-95.8218,-9.30942,0.517672
3.233,5769.22,-2096.02,6323.49,13.616,-42.0917,-38.7643,17261.3,9173.93,13218.0,-130.104,279.091,-401.112,2844.35,7563.43,1144.98,-16.4227,-7.6566,-53.607,-2884.35,-21880.3,-3623.58,-80.9173,395.569,-409.258,4299.07,8666.74,1855.54,72.7656,-5.8394,-115.618,-4330.26,-3138.25,3499.01,81.9124,120.82,-98.3696,5398.6,3122.77,-56.1649,-96.4433,-9.0872,0.644798
3.234,5729.82,-2064.7,6374.09,15.025,-41.7827,-38.0223,17560.8,9201.59,13292.9,-132.639,277.006,-402.192,2856.0,7535.54,1100.39,-16.5059,-4.61087,-55.1485,-3093.05,-22111.1,-3646.88,-78.4396,395.193,-409.317,4310.45,8716.96,1882.83,72.8687,-6.04217,-114.702,-4126.01,-3272.03,3561.27,83.0842,117.367,-96.3971,5420.77,3144.54,-21.1427,-97.0649,-8.86499,0.771924
3.235,5690.41,-2033.38,6424.7,16.434,-41.4737,-37.2804,17860.2,9229.26,13367.8,-135.174,274.921,-403.272,2867.65,7507.66,1055.8,-16.5892,-1.56514,-56.6899,-3301.75,-22341.9,-3670.19,-75.9619,394.816,-409.377,4321.83,8767.19,1910.11,72.9717,-6.24493,-113.785,-3921.76,-3405.81,3623.53,84.2561,113.913,-94.4246,5442.94,3166.3,13.8794,-97.6865,-8.64278,0.899049
3.236,5656.74,-1991.13,6453.92,17.5178,-41.2101,-36.4938,18159.8,9233.89,13439.6,-137.653,272.856,-404.221,2839.92,7507.69,1016.45,-16.683,1.29667,-58.3137,-3525.73,-22552.8,-3698.83,-73.5002,394.157,-409.09,4316.66,8815.96,1938.52,72.7999,-6.84991,-112.794,-3727.19,-3535.47,3610.05,85.7902,110.626,-92.4521,5481.52,3193.75,57.368,-98.3744,-8.56653,0.99986
3.237,5630.21,-1935.21,6456.38,18.1951,-41.0033,-35.6514,18459.9,9209.74,13507.5,-140.059,270.815,-405.004,2762.98,7542.61,983.656,-16.7899,3.92857,-60.0403,-3768.81,-22738.8,-3734.13,-71.0586,393.143,-408.37,4290.81,8862.92,1968.31,72.2846,-7.95766,-111.707,-3544.72,-3659.98,3501.91,87.7771,107.549,-90.4796,5540.61,3228.29,111.44,-99.1452,-8.67275,1.06778
3.238,5603.69,-1879.3,6458.85,18.8723,-40.7965,-34.809,18759.9,9185.58,13575.4,-142.466,268.774,-405.788,2686.03,7577.53,950.859,-16.8968,6.56046,-61.7669,-4011.88,-22924.7,-3769.44,-68.6171,392.13,-407.651,4264.95,8909.89,1998.11,71.7694,-9.0654,-110.621,-3362.25,-3784.49,3393.77,89.764,104.473,-88.5071,5599.71,3262.84,165.511,-99.9161,-8.77896,1.13569
3.239,5577.16,-1823.39,6461.32,19.5496,-40.5897,-33.9666,19059.9,9161.42,13643.3,-144.873,266.734,-406.572,2609.09,7612.45,918.063,-17.0038,9.19236,-63.4934,-4254.96,-23110.7,-3804.74,-66.1755,391.116,-406.931,4239.1,8956.85,2027.9,71.2541,-10.1731,-109.535,-3179.78,-3909.01,3285.63,91.7508,101.396,-86.5345,5658.81,3297.38,219.583,-100.687,-8.88518,1.20361
3.24,5550.64,-1767.48,6463.79,20.2268,-40.3829,-33.1241,19359.9,9137.27,13711.2,-147.28,264.693,-407.356,2532.14,7647.37,885.266,-17.1107,11.8243,-65.22,-4498.03,-23296.7,-3840.05,-63.7339,390.103,-406.212,4213.25,9003.81,2057.69,70.7388,-11.2809,-108.449,-2997.31,-4033.52,3177.49,93.7377,98.319,-84.562,5717.91,3331.92,273.655,-101.458,-8.99139,1.27153
3.241,5553.15,-1703.12,6547.08,20.6238,-40.0934,-32.0856,19676.9,8995.44,13695.8,-149.242,263.004,-407.874,2458.38,7741.23,863.257,-17.4342,13.5538,-66.8252,-4833.02,-23512.0,-3866.77,-61.2356,388.058,-404.767,4150.16,9093.49,2035.11,69.6524,-13.3458,-107.468,-2754.44,-4118.36,3136.7,96.4125,94.1552,-83.0761,5735.15,3325.81,370.957,-102.085,-9.48041,1.22815
3.242,5555.65,-1638.76,6630.38,21.0208,-39.804,-31.047,19993.9,8853.61,13680.5,-151.204,261.316,-408.393,2384.62,7835.1,841.247,-17.7576,15.2834,-68.4303,-5168.02,-23727.3,-3893.5,-58.7373,386.014,-403.323,4087.08,9183.17,2012.53,68.5661,-15.4108,-106.487,-2511.57,-4203.21,3095.9,99.0873,89.9915,-81.5902,5752.39,3319.69,468.259,-102.712,-9.96942,1.18478
3.243,5558.16,-1574.4,6713.68,21.4178,-39.5145,-30.0085,20310.9,8711.78,13665.2,-153.165,259.627,-408.911,2310.86,7928.97,819.237,-18.0811,17.0129,-70.0355,-5503.01,-23942.6,-3920.22,-56.239,383.97,-401.878,4023.99,9272.85,1989.95,67.4797,-17.4757,-105.505,-2268.7,-4288.06,3055.1,101.762,85.8277,-80.1043,5769.63,3313.58,565.561,-103.339,-10.4584,1.14141
3.244,5560.67,-1510.04,6796.97,21.8148,-39.2251,-28.9699,20627.9,8569.95,13649.9,-155.127,257.939,-409.43,2237.1,8022.83,797.228,-18.4045,18.7425,-71.6406,-5838.0,-24157.9,-3946.95,-53.7407,381.926,-400.434,3960.9,9362.53,1967.36,66.3934,-19.5407,-104.524,-2025.83,-4372.9,3014.31,104.437,81.664,-78.6184,5786.88,3307.46,662.863,-103.966,-10.9475,1.09803
3.245,5564.0,-1534.73,6887.14,22.3012,-39.1744,-28.1573,20949.3,8382.58,13589.3,-156.591,256.568,-409.711,2204.52,8143.73,768.552,-18.8198,20.2323,-73.2288,-6189.46,-24380.4,-3988.31,-50.8481,378.984,-398.811,3884.3,9465.69,1918.28,65.6271,-21.6803,-103.233,-1772.14,-4421.86,2964.19,108.164,77.2977,-77.4305,5801.74,3306.75,752.941,-104.515,-11.5911,1.25551
3.246,5567.98,-1630.67,6982.81,22.859,-39.3148,-27.5254,21274.1,8158.77,13492.5,-157.657,255.452,-409.803,2204.89,8286.26,734.543,-19.3086,21.5303,-74.8034,-6554.1,-24608.7,-4041.4,-47.64,375.323,-397.047,3796.88,9579.64,1848.01,65.1169,-23.8796,-101.693,-1509.79,-4442.1,2906.63,112.734,72.7693,-76.4808,5814.71,3310.35,837.239,-105.002,-12.3584,1.57368
3.247,5571.97,-1726.61,7078.48,23.4169,-39.4552,-26.8935,21599.0,7934.96,13395.7,-158.723,254.336,-409.895,2205.26,8428.78,700.534,-19.7973,22.8284,-76.378,-6918.73,-24837.0,-4094.48,-44.4319,371.662,-395.282,3709.47,9693.59,1777.73,64.6067,-26.0789,-100.153,-1247.44,-4462.34,2849.06,117.303,68.2409,-75.5311,5827.68,3313.96,921.538,-105.49,-13.1257,1.89185
3.248,5575.96,-1822.54,7174.15,23.9748,-39.5956,-26.2616,21923.8,7711.15,13299.0,-159.789,253.22,-409.987,2205.63,8571.3,666.525,-20.286,24.1264,-77.9527,-7283.37,-25065.2,-4147.56,-41.2239,368.002,-393.517,3622.05,9807.53,1707.45,64.0965,-28.2781,-98.6134,-985.087,-4482.57,2791.49,121.873,63.7126,-74.5815,5840.65,3317.56,1005.84,-105.977,-13.893,2.21002
3.249,5578.86,-1923.02,7266.6,24.4909,-39.7749,-25.6544,22246.1,7480.89,13206.3,-160.772,252.118,-410.006,2205.82,8714.03,628.047,-20.7724,25.3719,-79.5231,-7648.96,-25285.8,-4199.28,-37.9627,364.088,-391.77,3529.4,9924.48,1642.19,63.665,-30.5267,-97.0493,-738.719,-4513.03,2694.4,126.345,59.7141,-73.6875,5850.63,3322.43,1087.66,-106.462,-14.7016,2.5362
3.25,5573.1,-2059.84,7333.29,24.673,-40.2655,-25.2453,22548.3,7199.04,13146.4,-161.085,251.128,-409.441,2204.68,8858.35,553.813,-21.2397,26.1973,-81.0606,-8022.15,-25444.3,-4240.09,-34.2769,358.149,-390.168,3394.92,10065.5,1617.03,63.8628,-33.1696,-95.29,-620.208,-4625.23,2281.06,130.035,59.9548,-73.2393,5836.67,3337.39,1149.73,-106.934,-15.8397,2.92656
3.251,5567.33,-2196.65,7399.98,24.8552,-40.7561,-24.8361,22850.4,6917.18,13086.6,-161.399,250.138,-408.875,2203.53,9002.68,479.58,-21.7071,27.0227,-82.598,-8395.34,-25602.8,-4280.91,-30.591,352.209,-388.566,3260.44,10206.4,1591.87,64.0606,-35.8125,-93.5308,-501.697,-4737.43,1867.72,133.726,60.1955,-72.791,5822.71,3352.34,1211.79,-107.406,-16.9778,3.31691
3.252,5561.57,-2333.46,7466.67,25.0374,-41.2467,-24.4269,23152.6,6635.33,13026.7,-161.712,249.148,-408.31,2202.39,9147.01,405.346,-22.1744,27.8481,-84.1355,-8768.53,-25761.3,-4321.72,-26.9052,346.27,-386.964,3125.95,10347.4,1566.71,64.2584,-38.4554,-91.7715,-383.186,-4849.63,1454.38,137.416,60.4363,-72.3428,5808.75,3367.3,1273.85,-107.878,-18.1159,3.70726
3.253,5555.8,-2470.28,7533.36,25.2195,-41.7373,-24.0177,23454.7,6353.48,12966.9,-162.026,248.158,-407.744,2201.24,9291.34,331.113,-22.6418,28.6734,-85.673,-9141.72,-25919.9,-4362.53,-23.2193,340.331,-385.362,2991.47,10488.4,1541.55,64.4561,-41.0983,-90.0123,-264.674,-4961.83,1041.04,141.107,60.677,-71.8945,5794.79,3382.25,1335.92,-108.35,-19.254,4.09761
3.254,5563.47,-2549.35,7553.46,25.1549,-42.2755,-23.9396,23711.1,6035.65,12887.1,-161.986,247.239,-406.342,2194.13,9433.59,246.049,-22.9979,29.3247,-87.2228,-9526.02,-25949.3,-4406.75,-19.6833,332.909,-384.185,2830.77,10685.0,1512.77,64.4685,-44.4065,-88.6313,-202.139,-4999.37,583.75,143.094,63.4939,-71.6831,5807.84,3379.57,1381.03,-108.511,-20.5762,4.37185
3.255,5577.84,-2599.55,7550.28,24.9669,-42.8374,-24.027,23944.5,5699.84,12797.3,-161.77,246.355,-404.522,2184.03,9574.8,155.57,-23.2985,29.8888,-88.7788,-9915.86,-25914.3,-4452.67,-16.2221,324.747,-383.22,2656.97,10909.4,1482.2,64.3883,-48.0474,-87.4395,-167.592,-4999.57,104.491,144.228,67.5988,-71.5901,5834.4,3368.06,1417.67,-108.518,-21.9904,4.58802
3.256,5592.22,-2649.74,7547.09,24.779,-43.3994,-24.1144,24177.9,5364.04,12707.5,-161.555,245.471,-402.701,2173.93,9716.01,65.091,-23.599,30.4529,-90.3349,-10305.7,-25879.2,-4498.6,-12.761,316.585,-382.255,2483.17,11133.8,1451.62,64.308,-51.6883,-86.2477,-133.045,-4999.77,-374.768,145.363,71.7037,-71.4972,5860.96,3356.55,1454.3,-108.525,-23.4047,4.80419
3.257,5606.59,-2699.94,7543.91,24.591,-43.9613,-24.2018,24411.3,5028.23,12617.7,-161.339,244.587,-400.881,2163.83,9857.22,-25.3879,-23.8996,31.017,-91.8909,-10695.5,-25844.1,-4544.52,-9.29984,308.423,-381.29,2309.37,11358.2,1421.04,64.2277,-55.3293,-85.0558,-98.4981,-4999.97,-854.026,146.498,75.8086,-71.4042,5887.52,3345.05,1490.94,-108.532,-24.8189,5.02036
3.258,5630.63,-2757.53,7548.62,24.5519,-44.5706,-24.3526,24628.7,4733.62,12489.0,-160.968,243.843,-398.556,2136.46,9998.37,-122.505,-24.1913,31.5289,-93.3943,-11058.5,-25764.6,-4581.69,-6.06594,299.918,-380.385,2131.61,11581.8,1390.84,63.9404,-59.0787,-83.9518,-70.6488,-4996.33,-1260.34,147.044,79.9973,-71.4113,5911.15,3333.33,1519.39,-108.504,-26.255,5.19057
3.259,5688.48,-2840.97,7581.0,25.0338,-45.3455,-24.7252,24790.0,4583.21,12224.2,-160.056,243.585,-394.463,2048.63,10139.3,-242.857,-24.4519,31.8582,-94.7136,-11327.3,-25529.4,-4588.22,-3.62742,290.213,-379.689,1939.99,11802.3,1361.97,62.9288,-63.2083,-83.155,-66.2419,-4979.28,-1411.32,145.533,84.4793,-71.7687,5924.55,3320.86,1519.19,-108.351,-27.7679,5.19992
3.26,5746.34,-2924.41,7613.38,25.5158,-46.1204,-25.0979,24951.4,4432.8,11959.5,-159.145,243.328,-390.371,1960.8,10280.3,-363.209,-24.7126,32.1875,-96.0329,-11596.1,-25294.2,-4594.75,-1.18889,280.508,-378.994,1748.37,12022.8,1333.09,61.9171,-67.3379,-82.3583,-61.8349,-4962.23,-1562.3,144.021,88.9613,-72.1262,5937.96,3308.39,1518.99,-108.198,-29.2808,5.20927
3.261,5804.19,-3007.86,7645.75,25.9977,-46.8954,-25.4705,25112.8,4282.39,11694.7,-158.233,243.071,-386.279,1872.97,10421.2,-483.561,-24.9732,32.5168,-97.3521,-11864.9,-25059.0,-4601.28,1.24963,270.804,-378.299,1556.74,12243.2,1304.22,60.9054,-71.4674,-81.5616,-57.4279,-4945.18,-1713.29,142.509,93.4433,-72.4836,5951.36,3295.92,1518.8,-108.046,-30.7937,5.21862
3.262,5862.05,-3091.3,7678.13,26.4797,-47.6703,-25.8431,25274.1,4131.98,11429.9,-157.321,242.813,-382.187,1785.14,10562.2,-603.912,-25.2338,32.846,-98.6714,-12133.6,-24823.9,-4607.81,3.68816,261.099,-377.604,1365.12,12463.7,1275.34,59.8938,-75.597,-80.7648,-53.0209,-4928.13,-1864.27,140.997,97.9253,-72.841,5964.76,3283.46,1518.6,-107.893,-32.3065,5.22797
3.263,5914.25,-3247.17,7679.67,26.3859,-48.391,-26.1878,25393.7,4170.65,11111.6,-155.756,242.904,-376.18,1706.61,10664.6,-688.764,-25.2821,32.6697,-99.7943,-12234.6,-24512.0,-4589.1,5.2644,251.558,-376.322,1202.15,12620.2,1210.42,58.5109,-79.5534,-79.5486,0.967962,-4959.77,-1842.26,135.663,100.642,-73.5744,5938.5,3263.98,1507.04,-107.6,-33.6564,5.49519
3.264,5964.84,-3423.74,7672.41,26.1277,-49.0961,-26.5246,25501.3,4263.35,10778.0,-154.005,243.093,-369.627,1630.74,10756.1,-763.472,-25.2697,32.349,-100.861,-12287.7,-24178.2,-4563.18,6.59428,242.064,-374.871,1047.36,12758.4,1135.19,57.022,-83.4603,-78.2126,69.1231,-5005.33,-1770.82,129.236,102.854,-74.4151,5900.91,3242.51,1492.23,-107.267,-34.9598,5.83609
3.265,6015.44,-3600.31,7665.14,25.8695,-49.8013,-26.8613,25608.9,4356.04,10444.5,-152.254,243.283,-363.074,1554.86,10847.6,-838.181,-25.2573,32.0282,-101.928,-12340.7,-23844.4,-4537.26,7.92416,232.57,-373.421,892.57,12896.6,1059.97,55.533,-87.3672,-76.8767,137.278,-5050.89,-1699.37,122.81,105.066,-75.2559,5863.32,3221.03,1477.43,-106.933,-36.2631,6.17699
3.266,6066.03,-3776.87,7657.88,25.6112,-50.5064,-27.198,25716.5,4448.74,10110.9,-150.503,243.472,-356.52,1478.99,10939.0,-912.889,-25.2448,31.7074,-102.995,-12393.8,-23510.7,-4511.34,9.25405,223.075,-371.971,737.781,13034.8,984.745,54.0441,-91.2741,-75.5407,205.433,-5096.45,-1627.93,116.383,107.278,-76.0966,5825.73,3199.56,1462.63,-106.6,-37.5664,6.51789
3.267,6112.83,-3911.32,7664.36,25.1129,-51.2661,-27.6437,25805.6,4536.22,9780.06,-148.512,243.64,-349.456,1407.81,11015.8,-976.594,-25.1681,31.3304,-104.112,-12411.0,-23200.6,-4510.82,10.0803,214.218,-370.164,582.781,13133.1,897.72,52.5751,-94.9561,-74.0829,291.935,-5126.52,-1578.6,108.982,108.672,-77.1063,5800.03,3189.58,1457.74,-106.213,-38.8039,6.88703
3.268,6152.07,-3961.52,7698.36,24.1344,-52.1349,-28.3073,25857.6,4613.28,9454.7,-146.041,243.762,-341.368,1346.01,11063.3,-1018.29,-24.9628,30.8409,-105.332,-12356.4,-22938.1,-4561.12,9.89915,206.634,-367.644,427.357,13151.6,787.095,51.1457,-98.1881,-72.3816,415.128,-5125.61,-1573.47,99.6342,108.428,-78.4538,5798.13,3202.57,1472.69,-105.716,-39.9097,7.31265
3.269,6191.31,-4011.71,7732.36,23.156,-53.0037,-28.9709,25909.7,4690.33,9129.35,-143.569,243.885,-333.28,1284.21,11110.9,-1059.99,-24.7575,30.3514,-106.552,-12301.8,-22675.5,-4611.41,9.71804,199.051,-365.123,271.934,13170.1,676.469,49.7164,-101.42,-70.6803,538.322,-5124.7,-1568.34,90.286,108.184,-79.8014,5796.22,3215.57,1487.63,-105.22,-41.0155,7.73827
3.27,6230.55,-4061.91,7766.36,22.1775,-53.8726,-29.6345,25961.7,4767.39,8804.0,-141.098,244.007,-325.193,1222.4,11158.4,-1101.68,-24.5522,29.8619,-107.772,-12247.2,-22412.9,-4661.71,9.53693,191.467,-362.603,116.51,13188.7,565.844,48.2871,-104.652,-68.979,661.516,-5123.79,-1563.21,80.9378,107.941,-81.149,5794.32,3228.57,1502.58,-104.724,-42.1212,8.16389
3.271,6269.79,-4112.11,7800.35,21.199,-54.7414,-30.2982,26013.7,4844.44,8478.65,-138.626,244.13,-317.105,1160.6,11205.9,-1143.38,-24.347,29.3723,-108.991,-12192.6,-22150.4,-4712.0,9.35582,183.883,-360.083,-38.9138,13207.2,455.219,46.8578,-107.884,-67.2777,784.709,-5122.88,-1558.08,71.5895,107.697,-82.4966,5792.42,3241.56,1517.52,-104.227,-43.227,8.58951
3.272,6289.75,-3999.7,7819.58,20.354,-55.7006,-30.9258,26016.8,4773.41,8173.57,-135.215,243.782,-308.188,1100.21,11275.2,-1130.47,-24.3384,28.4858,-110.0,-12256.4,-22012.6,-4941.75,8.28579,178.742,-356.853,-175.371,13183.7,340.911,45.1181,-110.378,-65.7034,903.198,-5174.69,-1645.31,60.5444,108.727,-81.3214,5780.76,3221.65,1572.47,-103.412,-44.4744,8.81271
3.273,6307.31,-3866.96,7836.95,19.5257,-56.6711,-31.549,26013.7,4683.86,7871.03,-131.686,243.376,-299.168,1040.0,11347.1,-1110.74,-24.3544,27.5496,-110.983,-12335.0,-21890.4,-5193.93,7.10466,173.905,-353.534,-309.458,13155.0,226.143,43.3396,-112.78,-64.145,1021.1,-5233.1,-1744.08,49.2871,109.916,-79.8308,5767.89,3197.61,1632.42,-102.557,-45.7395,9.0106
3.274,6324.87,-3734.22,7854.33,18.6974,-57.6416,-32.1721,26010.6,4594.31,7568.49,-128.156,242.97,-290.147,979.789,11419.1,-1091.01,-24.3705,26.6135,-111.965,-12413.5,-21768.2,-5446.1,5.92352,169.069,-350.216,-443.545,13126.2,111.375,41.5611,-115.181,-62.5865,1139.0,-5291.5,-1842.86,38.0299,111.105,-78.3402,5755.01,3173.58,1692.37,-101.702,-47.0046,9.2085
3.275,6342.42,-3601.48,7871.7,17.8691,-58.6121,-32.7953,26007.5,4504.76,7265.95,-124.627,242.564,-281.126,919.577,11491.1,-1071.27,-24.3865,25.6773,-112.947,-12492.1,-21646.1,-5698.28,4.74238,164.233,-346.897,-577.632,13097.5,-3.3923,39.7826,-117.583,-61.0281,1256.9,-5349.91,-1941.63,26.7726,112.294,-76.8496,5742.14,3149.54,1752.33,-100.847,-48.2697,9.40639
3.276,6342.15,-3491.17,7886.23,17.1524,-59.569,-33.3483,26018.3,4291.43,6958.01,-120.592,241.912,-271.944,878.113,11561.1,-1023.05,-24.3483,24.7373,-113.791,-12673.6,-21561.8,-5940.37,3.57242,160.387,-343.569,-680.025,13040.2,-124.118,37.8277,-119.817,-59.5735,1415.66,-5433.01,-1881.93,15.2871,112.495,-73.8853,5757.16,3139.42,1799.23,-99.9973,-49.5339,9.66655
3.277,6319.59,-3408.91,7897.21,16.5751,-60.5089,-33.8134,26046.6,3923.38,6643.32,-115.922,240.954,-262.561,860.082,11628.7,-939.204,-24.2424,23.7924,-114.46,-12983.7,-21524.9,-6169.85,2.41643,157.778,-340.229,-742.801,12947.2,-252.292,35.6525,-121.841,-58.2489,1625.49,-5546.98,-1624.13,3.51614,111.461,-69.0786,5807.04,3146.69,1829.84,-99.1533,-50.7969,10.0046
3.278,6297.03,-3326.65,7908.18,15.9978,-61.4488,-34.2786,26074.9,3555.32,6328.62,-111.253,239.995,-253.177,842.052,11696.3,-855.362,-24.1364,22.8476,-115.13,-13293.7,-21488.0,-6399.33,1.26044,155.17,-336.89,-805.577,12854.1,-380.466,33.4774,-123.865,-56.9243,1835.33,-5660.95,-1366.34,-8.25479,110.426,-64.272,5856.92,3153.97,1860.45,-98.3093,-52.0598,10.3426
3.279,6274.47,-3244.38,7919.16,15.4205,-62.3887,-34.7438,26103.2,3187.27,6013.93,-106.584,239.037,-243.793,824.022,11763.9,-771.519,-24.0305,21.9028,-115.799,-13603.8,-21451.1,-6628.81,0.104453,152.561,-333.55,-868.353,12761.1,-508.64,31.3022,-125.888,-55.5997,2045.16,-5774.92,-1108.54,-20.0257,109.392,-59.4654,5906.81,3161.24,1891.06,-97.4653,-53.3228,10.6806
3.28,6251.91,-3162.12,7930.13,14.8432,-63.3286,-35.2089,26131.5,2819.22,5699.24,-101.915,238.078,-234.409,805.991,11831.5,-687.677,-23.9245,20.9579,-116.468,-13913.9,-21414.2,-6858.29,-1.05154,149.953,-330.21,-931.129,12668.1,-636.814,29.127,-127.912,-54.2751,2254.99,-5888.89,-850.745,-31.7967,108.357,-54.6587,5956.69,3168.51,1921.67,-96.6213,-54.5858,11.0186
3.281,6265.83,-3163.03,7939.83,14.5207,-64.468,-35.57,26191.9,2175.83,5362.27,-96.2,237.035,-225.195,801.906,11831.9,-573.961,-23.9751,20.1085,-117.351,-14494.8,-21400.9,-6892.47,-2.08583,146.974,-327.268,-928.64,12491.2,-793.896,27.5016,-129.76,-53.5394,2570.57,-6142.12,-507.093,-43.4111,103.094,-47.6678,5963.48,3198.46,1880.75,-96.2063,-55.6441,11.0482
3.282,6279.76,-3163.94,7949.53,14.1982,-65.6073,-35.9311,26252.3,1532.44,5025.3,-90.4851,235.991,-215.982,797.82,11832.4,-460.246,-24.0258,19.2591,-118.234,-15075.7,-21387.7,-6926.66,-3.12012,143.995,-324.327,-926.151,12314.4,-950.978,25.8761,-131.608,-52.8036,2886.14,-6395.35,-163.441,-55.0256,97.8316,-40.6768,5970.26,3228.42,1839.83,-95.7913,-56.7023,11.0779
3.283,6293.68,-3164.86,7959.22,13.8757,-66.7467,-36.2923,26312.6,889.047,4688.33,-84.7701,234.948,-206.768,793.735,11832.9,-346.531,-24.0764,18.4097,-119.117,-15656.6,-21374.4,-6960.84,-4.15441,141.016,-321.386,-923.662,12137.5,-1108.06,24.2507,-133.456,-52.0679,3201.71,-6648.58,180.211,-66.64,92.5689,-33.6858,5977.05,3258.37,1798.91,-95.3763,-57.7606,11.1075
3.284,6307.6,-3165.77,7968.92,13.5532,-67.886,-36.6534,26373.0,245.656,4351.35,-79.0552,233.904,-197.554,789.65,11833.3,-232.815,-24.127,17.5603,-120.0,-16237.5,-21361.2,-6995.02,-5.1887,138.037,-318.444,-921.173,11960.6,-1265.14,22.6253,-135.304,-51.3322,3517.29,-6901.82,523.863,-78.2545,87.3061,-26.6949,5983.84,3288.33,1757.99,-94.9614,-58.8188,11.1372
3.285,6298.22,-3159.06,7989.51,13.4918,-69.0701,-36.952,26474.1,-306.917,3948.44,-72.9342,233.462,-188.092,817.53,11809.2,-116.84,-24.3693,16.7769,-120.885,-16901.1,-21299.2,-6966.62,-6.01302,133.936,-315.788,-862.945,11780.4,-1438.27,21.4696,-136.93,-50.9682,3902.09,-7184.86,810.5,-88.2609,80.1463,-19.0971,6038.6,3291.06,1709.45,-94.2461,-59.5426,11.0374
3.286,6270.18,-3146.27,8018.81,13.6393,-70.2901,-37.2005,26607.8,-786.835,3492.76,-66.4885,233.501,-178.431,870.983,11765.3,0.943339,-24.7649,16.0463,-121.773,-17630.8,-21198.1,-6888.15,-6.66934,128.937,-313.36,-760.127,11597.6,-1624.23,20.6895,-138.377,-50.9018,4342.26,-7491.75,1051.53,-96.9809,71.4688,-11.014,6131.74,3272.01,1654.8,-93.2906,-59.9988,10.8342
3.287,6242.15,-3133.47,8048.12,13.7869,-71.51,-37.4491,26741.5,-1266.75,3037.08,-60.0427,233.54,-168.77,924.435,11721.4,118.727,-25.1605,15.3157,-122.661,-18360.5,-21097.1,-6809.67,-7.32567,123.938,-310.932,-657.307,11414.8,-1810.19,19.9095,-139.824,-50.8353,4782.44,-7798.65,1292.55,-105.701,62.7913,-2.93079,6224.88,3252.96,1600.16,-92.335,-60.4551,10.631
3.288,6214.11,-3120.67,8077.42,13.9344,-72.7299,-37.6976,26875.2,-1746.67,2581.4,-53.597,233.579,-159.11,977.888,11677.5,236.51,-25.5561,14.5851,-123.548,-19090.2,-20996.0,-6731.2,-7.982,118.939,-308.504,-554.489,11232.0,-1996.15,19.1295,-141.271,-50.7688,5222.61,-8105.54,1533.58,-114.421,54.1139,5.15238,6318.02,3233.91,1545.51,-91.3795,-60.9113,10.4277
3.289,6191.05,-3104.01,8109.8,14.1016,-73.9383,-37.9174,27031.2,-2171.55,2115.28,-47.0602,233.807,-149.323,1036.53,11633.4,340.082,-25.9549,13.9358,-124.432,-19818.3,-20873.9,-6652.13,-8.67161,113.672,-306.037,-442.839,11048.6,-2183.41,18.4442,-142.644,-50.745,5690.25,-8423.01,1738.33,-122.921,45.1111,13.0634,6403.4,3217.8,1484.56,-90.3892,-61.2771,10.2221
3.29,6207.76,-3056.42,8166.8,14.4266,-75.0551,-37.9065,27365.6,-2156.11,1565.64,-39.7949,235.542,-138.527,1136.68,11587.8,329.964,-26.3786,13.9372,-125.284,-20533.7,-20583.4,-6568.27,-9.62748,106.254,-303.255,-260.547,10860.4,-2381.08,18.5167,-143.422,-51.0625,6377.62,-8825.1,1652.9,-129.665,33.5058,19.5975,6426.7,3225.25,1373.21,-89.1202,-60.9195,9.99774
3.291,6224.47,-3008.83,8223.8,14.7517,-76.1718,-37.8955,27700.0,-2140.67,1015.99,-32.5297,237.278,-127.732,1236.83,11542.2,319.845,-26.8022,13.9386,-126.137,-21249.1,-20292.8,-6484.4,-10.5834,98.8367,-300.472,-78.2555,10672.1,-2578.74,18.5892,-144.2,-51.3801,7064.98,-9227.2,1567.46,-136.408,21.9006,26.1315,6449.99,3232.69,1261.85,-87.8513,-60.5619,9.77334
3.292,6241.19,-2961.24,8280.79,15.0767,-77.2886,-37.8846,28034.4,-2125.23,466.349,-25.2645,239.014,-116.937,1336.98,11496.6,309.727,-27.2259,13.94,-126.989,-21964.6,-20002.2,-6400.54,-11.5392,91.4192,-297.69,104.036,10483.9,-2776.41,18.6617,-144.978,-51.6976,7752.34,-9629.29,1482.03,-143.151,10.2953,32.6655,6473.29,3240.14,1150.5,-86.5823,-60.2043,9.54895
3.293,6257.9,-2913.65,8337.79,15.4018,-78.4054,-37.8737,28368.8,-2109.79,-83.2957,-17.9993,240.749,-106.142,1437.13,11451.0,299.609,-27.6496,13.9414,-127.841,-22680.0,-19711.6,-6316.68,-12.4951,84.0017,-294.908,286.328,10295.7,-2974.08,18.7343,-145.757,-52.0151,8439.71,-10031.4,1396.6,-149.894,-1.30994,39.1996,6496.58,3247.59,1039.14,-85.3134,-59.8466,9.32455
3.294,6249.44,-2866.72,8385.57,15.9074,-79.7079,-37.7704,28792.6,-2000.07,-645.947,-10.0969,243.17,-95.1445,1497.28,11420.8,308.806,-28.1554,14.3415,-128.816,-23367.5,-19314.5,-6293.07,-13.7792,75.4591,-291.469,504.12,10109.8,-3142.95,19.3058,-145.944,-52.3712,9182.22,-10352.7,958.927,-154.614,-12.4329,44.026,6558.48,3221.81,941.943,-83.8731,-59.4488,8.86856
3.295,6228.39,-2820.12,8428.74,16.5033,-81.1034,-37.6209,29261.2,-1843.21,-1215.1,-1.87581,245.934,-84.0458,1537.43,11398.4,327.66,-28.7023,14.9411,-129.853,-24040.9,-18864.0,-6299.58,-15.2274,66.3539,-287.702,739.662,9925.06,-3297.42,20.127,-145.836,-52.7465,9952.32,-10633.6,345.137,-158.322,-23.3146,47.9986,6639.69,3179.42,851.825,-82.3472,-59.0308,8.29677
3.296,6207.34,-2773.52,8471.9,17.0992,-82.4989,-37.4715,29729.8,-1686.35,-1784.26,6.34526,248.697,-72.9471,1577.58,11375.9,346.514,-29.2491,15.5407,-130.89,-24714.4,-18413.6,-6306.1,-16.6756,57.2486,-283.936,975.205,9740.34,-3451.89,20.9481,-145.728,-53.1218,10722.4,-10914.5,-268.653,-162.03,-34.1964,51.9713,6720.89,3137.03,761.707,-80.8212,-58.6129,7.72499
3.297,6186.29,-2726.91,8515.07,17.6951,-83.8944,-37.322,30198.5,-1529.5,-2353.41,14.5663,251.461,-61.8483,1617.73,11353.4,365.369,-29.796,16.1403,-131.927,-25387.8,-17963.1,-6312.62,-18.1239,48.1434,-280.169,1210.75,9555.63,-3606.37,21.7693,-145.62,-53.4971,11492.5,-11195.4,-882.444,-165.738,-45.0782,55.9439,6802.1,3094.64,671.589,-79.2952,-58.1949,7.1532
3.298,6159.74,-2686.83,8542.92,18.2458,-85.318,-37.1713,30670.9,-1437.98,-2927.64,22.7612,254.21,-50.8855,1646.91,11337.7,382.783,-30.3346,16.7606,-132.867,-26023.2,-17508.4,-6307.22,-19.6394,38.743,-276.234,1444.98,9379.39,-3750.76,22.6397,-145.304,-53.9964,12237.9,-11483.2,-1536.42,-168.27,-55.1256,59.3276,6891.49,3052.9,586.569,-77.6078,-57.7253,6.54039
3.299,6113.94,-2669.53,8517.17,18.6383,-86.8399,-37.0162,31156.8,-1575.15,-3519.65,30.8643,256.908,-40.3982,1637.66,11345.5,395.159,-30.8445,17.4536,-133.47,-26525.2,-17038.8,-6260.15,-21.3908,28.3096,-271.712,1674.63,9232.8,-3859.84,23.6829,-144.255,-54.9299,12896.6,-11795.0,-2331.04,-166.687,-62.2526,60.6499,7009.55,3013.43,519.395,-75.3549,-57.0749,5.78399
3.3,6068.14,-2652.24,8491.41,19.0308,-88.3619,-36.8612,31642.7,-1712.33,-4111.66,38.9674,259.607,-29.9109,1628.42,11353.2,407.535,-31.3544,18.1465,-134.073,-27027.2,-16569.2,-6213.08,-23.1421,17.8761,-267.19,1904.28,9086.21,-3968.93,24.7262,-143.207,-55.8634,13555.3,-12106.7,-3125.67,-165.104,-69.3796,61.9721,7127.62,2973.97,452.221,-73.1021,-56.4246,5.02759
3.301,6022.33,-2634.95,8465.65,19.4234,-89.8838,-36.7062,32128.6,-1849.5,-4703.68,47.0705,262.305,-19.4237,1619.18,11361.0,419.91,-31.8643,18.8395,-134.676,-27529.2,-16099.6,-6166.01,-24.8934,7.44264,-262.667,2133.93,8939.62,-4078.02,25.7694,-142.159,-56.7969,14213.9,-12418.5,-3920.29,-163.522,-76.5067,63.2944,7245.68,2934.51,385.046,-70.8492,-55.7742,4.27119
3.302,5976.53,-2617.66,8439.9,19.8159,-91.4057,-36.5512,32614.5,-1986.67,-5295.69,55.1736,265.003,-8.93641,1609.93,11368.8,432.286,-32.3742,19.5324,-135.279,-28031.1,-15630.0,-6118.94,-26.6447,-2.99081,-258.145,2363.58,8793.03,-4187.11,26.8126,-141.111,-57.7304,14872.6,-12730.2,-4714.91,-161.939,-83.6337,64.6167,7363.75,2895.04,317.872,-68.5964,-55.1239,3.51478
3.303,5969.05,-2616.99,8451.78,20.2286,-92.8677,-36.3919,32932.4,-2230.45,-5916.2,62.5204,267.041,1.48601,1615.28,11373.9,480.479,-32.8861,20.1986,-135.937,-28363.7,-15159.3,-6058.76,-27.9578,-14.7139,-253.069,2567.17,8711.19,-4225.5,27.8032,-139.357,-58.7786,15117.7,-13164.3,-5449.78,-155.957,-86.5219,62.8768,7503.08,2802.76,225.249,-66.1571,-53.9562,2.984
3.304,5972.52,-2621.08,8474.41,20.6471,-94.3125,-36.2315,33202.3,-2504.69,-6544.85,69.6511,268.889,11.8899,1624.79,11378.3,538.906,-33.3986,20.857,-136.611,-28647.9,-14688.2,-5994.84,-29.1458,-26.8054,-247.834,2763.31,8647.85,-4243.7,28.7789,-137.401,-59.8595,15244.5,-13633.4,-6167.57,-148.719,-88.199,60.2621,7648.5,2695.38,125.355,-63.6646,-52.6408,2.51768
3.305,5975.99,-2625.17,8497.05,21.0657,-95.7573,-36.071,33472.3,-2778.93,-7173.5,76.7819,270.738,22.2938,1634.31,11382.7,597.333,-33.9111,21.5154,-137.285,-28932.1,-14217.1,-5930.92,-30.3338,-38.8969,-242.599,2959.46,8584.51,-4261.89,29.7545,-135.444,-60.9404,15371.3,-14102.4,-6885.36,-141.48,-89.8761,57.6474,7793.91,2588.01,25.4613,-61.1721,-51.3254,2.05135
3.306,5979.46,-2629.25,8519.68,21.4842,-97.2021,-35.9106,33742.2,-3053.17,-7802.16,83.9126,272.587,32.6977,1643.82,11387.0,655.76,-34.4235,22.1739,-137.958,-29216.3,-13746.0,-5867.0,-31.5217,-50.9884,-237.364,3155.6,8521.17,-4280.08,30.7301,-133.488,-62.0213,15498.1,-14571.5,-7603.15,-134.242,-91.5532,55.0327,7939.33,2480.63,-74.4324,-58.6796,-50.0099,1.58503
3.307,5989.19,-2649.25,8549.91,21.9668,-98.7273,-35.8061,33895.6,-3279.83,-8426.31,90.7421,273.847,43.1656,1647.12,11401.0,679.157,-34.9119,22.7649,-138.705,-29455.3,-13270.9,-5773.12,-32.333,-63.4961,-232.044,3345.91,8471.79,-4266.24,31.6822,-131.373,-63.1812,15398.2,-14991.2,-8234.03,-126.222,-91.6096,51.2118,8069.22,2343.53,-184.468,-56.0395,-48.5603,1.08697
3.308,6011.41,-2701.07,8595.34,22.5775,-100.413,-35.8135,33816.0,-3411.31,-9041.45,96.9694,273.931,53.7617,1637.98,11434.3,632.494,-35.3523,23.2211,-139.597,-29604.0,-12787.7,-5619.31,-32.391,-76.8365,-226.553,3524.56,8450.32,-4188.32,32.5873,-128.94,-64.4989,14845.1,-15312.4,-8691.09,-116.641,-88.4244,44.9788,8168.08,2146.96,-314.787,-53.1043,-46.8423,0.525451
3.309,6033.63,-2752.89,8640.77,23.1882,-102.099,-35.8209,33736.4,-3542.79,-9656.58,103.197,274.014,64.3577,1628.84,11467.5,585.831,-35.7926,23.6772,-140.489,-29752.7,-12304.5,-5465.5,-32.449,-90.1769,-221.062,3703.21,8428.84,-4110.41,33.4924,-126.507,-65.8166,14291.9,-15633.6,-9148.16,-107.059,-85.2392,38.7458,8266.94,1950.4,-445.107,-50.169,-45.1244,-0.0360711
3.31,6055.85,-2804.71,8686.2,23.7989,-103.785,-35.8283,33656.7,-3674.27,-10271.7,109.424,274.098,74.9537,1619.7,11500.7,539.168,-36.2329,24.1334,-141.381,-29901.4,-11821.2,-5311.7,-32.5069,-103.517,-215.572,3881.86,8407.37,-4032.49,34.3975,-124.074,-67.1343,13738.8,-15954.8,-9605.22,-97.4781,-82.054,32.5128,8365.8,1753.83,-575.426,-47.2337,-43.4064,-0.597593
3.311,6078.07,-2856.52,8731.63,24.4095,-105.471,-35.8357,33577.1,-3805.76,-10886.9,115.651,274.181,85.5498,1610.56,11533.9,492.505,-36.6732,24.5895,-142.273,-30050.1,-11338.0,-5157.89,-32.5649,-116.858,-210.081,4060.51,8385.89,-3954.57,35.3026,-121.641,-68.452,13185.6,-16275.9,-10062.3,-87.8967,-78.8688,26.2797,8464.66,1557.27,-705.745,-44.2984,-41.6884,-1.15912
3.312,6118.86,-2927.74,8760.24,24.9652,-107.261,-35.9178,33303.2,-3854.63,-11495.3,121.396,272.508,95.8037,1651.12,11580.2,452.19,-37.0275,25.4559,-143.365,-30131.6,-10806.7,-4998.01,-31.9111,-130.959,-204.17,4197.46,8434.85,-3795.36,35.6775,-119.383,-69.6178,12369.8,-16378.0,-10433.6,-79.6006,-73.8599,18.6055,8621.04,1390.7,-857.227,-40.9486,-39.5717,-1.54361
3.313,6161.98,-3001.38,8786.74,25.5139,-109.065,-36.0093,33005.0,-3893.18,-12102.9,127.081,270.616,106.015,1697.9,11628.0,412.667,-37.3709,26.3736,-144.482,-30204.7,-10269.4,-4837.37,-31.1684,-145.156,-198.207,4329.21,8492.6,-3626.0,35.9861,-117.148,-70.7645,11521.2,-16452.7,-10794.2,-71.4652,-68.6231,10.7512,8784.6,1227.88,-1011.35,-37.547,-37.4051,-1.90597
3.314,6205.09,-3075.02,8813.24,26.0626,-110.868,-36.1008,32706.9,-3931.73,-12710.5,132.766,268.723,116.226,1744.68,11675.9,373.144,-37.7143,27.2912,-145.599,-30277.8,-9732.1,-4676.74,-30.4256,-159.353,-192.244,4460.95,8550.36,-3456.63,36.2947,-114.913,-71.9113,10672.5,-16527.3,-11154.8,-63.3298,-63.3863,2.89682,8948.16,1065.07,-1165.48,-34.1454,-35.2385,-2.26833
3.315,6248.21,-3148.66,8839.74,26.6113,-112.671,-36.1923,32408.7,-3970.28,-13318.1,138.451,266.83,126.437,1791.45,11723.7,333.622,-38.0578,28.2089,-146.716,-30350.9,-9194.78,-4516.1,-29.6828,-173.55,-186.281,4592.69,8608.12,-3287.26,36.6033,-112.677,-73.0581,9823.86,-16602.0,-11515.3,-55.1945,-58.1495,-4.95753,9111.72,902.249,-1319.61,-30.7437,-33.0719,-2.63069
3.316,6273.16,-3215.81,8893.16,26.9908,-114.585,-36.3263,32142.9,-4053.63,-13925.8,143.326,264.315,136.174,1860.16,11781.4,281.507,-38.4025,29.1904,-147.781,-30392.8,-8746.39,-4308.66,-28.6765,-187.556,-179.744,4670.32,8707.44,-3158.37,36.983,-110.494,-73.9527,9039.92,-16713.0,-11933.0,-48.2238,-52.2881,-13.0732,9242.36,717.89,-1468.01,-27.2962,-30.9531,-2.91942
3.317,6275.42,-3274.86,8980.22,27.1586,-116.637,-36.5134,31917.5,-4193.01,-14533.4,147.188,261.021,145.318,1956.29,11851.3,213.652,-38.7487,30.2518,-148.781,-30395.9,-8409.14,-4042.71,-27.3407,-201.323,-172.492,4680.3,8858.72,-3080.08,37.4514,-108.376,-74.532,8336.87,-16869.4,-12422.2,-42.709,-45.6459,-21.5154,9331.85,506.605,-1609.26,-23.7912,-28.8939,-3.11612
3.318,6277.67,-3333.91,9067.27,27.3263,-118.688,-36.7004,31692.2,-4332.38,-15141.1,151.049,257.726,154.462,2052.42,11921.3,145.797,-39.0949,31.3132,-149.782,-30399.0,-8071.9,-3776.76,-26.005,-215.09,-165.24,4690.27,9010.0,-3001.79,37.9198,-106.258,-75.1114,7633.82,-17025.8,-12911.3,-37.1943,-39.0038,-29.9577,9421.34,295.32,-1750.51,-20.2862,-26.8347,-3.31281
3.319,6279.92,-3392.95,9154.33,27.4941,-120.74,-36.8875,31466.8,-4471.75,-15748.8,154.911,254.432,163.605,2148.54,11991.2,77.9414,-39.441,32.3746,-150.782,-30402.0,-7734.65,-3510.81,-24.6692,-228.857,-157.988,4700.25,9161.27,-2923.51,38.3882,-104.14,-75.6907,6930.77,-17182.3,-13400.4,-31.6796,-32.3617,-38.3999,9510.83,84.0351,-1891.75,-16.7813,-24.7756,-3.5095
3.32,6282.17,-3452.0,9241.39,27.6619,-122.792,-37.0746,31241.4,-4611.12,-16356.5,158.773,251.138,172.749,2244.67,12061.1,10.0862,-39.7872,33.436,-151.783,-30405.1,-7397.4,-3244.86,-23.3334,-242.625,-150.735,4710.23,9312.55,-2845.22,38.8566,-102.022,-76.2701,6227.72,-17338.7,-13889.5,-26.1648,-25.7196,-46.8422,9600.32,-127.25,-2033.0,-13.2763,-22.7164,-3.70619
3.321,6211.45,-3390.8,9338.26,27.5429,-125.234,-37.3679,31116.6,-4681.23,-16870.7,159.241,246.61,180.944,2215.24,12213.6,58.9057,-40.0706,34.4292,-152.615,-30255.5,-7321.3,-3026.18,-20.9712,-254.713,-142.229,4587.86,9545.96,-2852.89,38.9665,-100.313,-76.4323,5858.65,-17517.4,-14239.8,-22.7549,-18.9876,-54.0617,9761.51,-243.658,-2210.78,-11.4839,-21.1907,-3.49775
3.322,6140.73,-3329.61,9435.13,27.4239,-127.676,-37.6613,30991.7,-4751.34,-17384.9,159.71,242.082,189.138,2185.81,12366.0,107.725,-40.3539,35.4224,-153.448,-30105.9,-7245.2,-2807.5,-18.609,-266.802,-133.722,4465.49,9779.37,-2860.56,39.0765,-98.6036,-76.5946,5489.58,-17696.0,-14590.1,-19.3451,-12.2556,-61.2813,9922.7,-360.066,-2388.55,-9.69146,-19.6651,-3.2893
3.323,6070.02,-3268.41,9532.01,27.3049,-130.118,-37.9546,30866.9,-4821.46,-17899.1,160.179,237.554,197.333,2156.37,12518.5,156.545,-40.6373,36.4156,-154.281,-29956.2,-7169.1,-2588.82,-16.2468,-278.891,-125.215,4343.12,10012.8,-2868.24,39.1864,-96.8944,-76.7568,5120.51,-17874.7,-14940.5,-15.9352,-5.52362,-68.5008,10083.9,-476.474,-2566.33,-7.89904,-18.1395,-3.08085
3.324,5999.3,-3207.22,9628.88,27.1859,-132.559,-38.248,30742.0,-4891.57,-18413.3,160.648,233.026,205.527,2126.94,12670.9,205.364,-40.9206,37.4088,-155.114,-29806.6,-7093.0,-2370.13,-13.8846,-290.979,-116.708,4220.75,10246.2,-2875.91,39.2964,-95.1852,-76.919,4751.43,-18053.4,-15290.8,-12.5253,1.20835,-75.7204,10245.1,-592.882,-2744.11,-6.10662,-16.6138,-2.8724
3.325,5956.0,-3122.61,9717.92,27.0815,-135.178,-38.529,30588.1,-4769.82,-18776.0,159.915,227.598,213.376,2095.4,12785.8,271.669,-41.201,38.1459,-155.933,-29586.9,-7079.14,-2249.64,-11.4504,-301.647,-107.974,4077.28,10495.4,-2890.59,38.5983,-93.5715,-76.7896,4569.83,-18211.5,-15136.9,-11.077,4.79621,-81.7444,10417.7,-751.991,-2925.81,-4.5849,-15.0692,-2.84546
3.326,5934.65,-3019.29,9800.69,26.9887,-137.937,-38.8002,30410.9,-4494.58,-19017.5,158.221,221.45,220.95,2062.19,12870.6,351.963,-41.4789,38.678,-156.74,-29311.0,-7115.08,-2207.7,-8.9585,-311.178,-99.0584,3916.92,10757.3,-2910.89,37.2538,-92.0341,-76.4268,4538.19,-18353.0,-14579.7,-11.1978,5.86877,-86.812,10599.6,-945.26,-3110.66,-3.27975,-13.5094,-2.96371
3.327,5913.3,-2915.96,9883.46,26.8959,-140.697,-39.0714,30233.6,-4219.35,-19259.1,156.527,215.302,228.523,2028.97,12955.5,432.257,-41.7569,39.2102,-157.547,-29035.2,-7151.02,-2165.77,-6.46662,-320.708,-90.1425,3756.55,11019.1,-2931.19,35.9094,-90.4968,-76.0641,4506.55,-18494.5,-14022.5,-11.3187,6.94132,-91.8796,10781.4,-1138.53,-3295.5,-1.9746,-11.9496,-3.08196
3.328,5891.95,-2812.63,9966.22,26.803,-143.456,-39.3425,30056.4,-3944.11,-19500.6,154.834,209.154,236.097,1995.75,13040.3,512.55,-42.0348,39.7424,-158.354,-28759.4,-7186.96,-2123.83,-3.97473,-330.239,-81.2266,3596.19,11281.0,-2951.49,34.5649,-88.9594,-75.7013,4474.91,-18636.1,-13465.3,-11.4396,8.01388,-96.9472,10963.2,-1331.8,-3480.35,-0.669453,-10.3898,-3.20022
3.329,5872.65,-2723.48,10046.7,26.7297,-146.221,-39.605,29870.2,-3660.55,-19720.6,153.105,202.896,243.568,1970.04,13132.0,583.261,-42.3406,40.176,-159.177,-28462.8,-7225.93,-2097.77,-1.49285,-339.373,-72.3503,3433.56,11537.1,-2986.08,33.0302,-87.4206,-75.2938,4468.29,-18767.3,-12858.0,-11.6974,8.21761,-101.795,11149.3,-1523.07,-3661.75,0.619695,-8.80484,-3.28378
3.33,5869.74,-2747.65,10108.8,26.8121,-149.023,-39.798,29611.7,-3310.39,-19769.2,151.095,195.76,250.219,2004.43,13278.7,577.306,-42.8685,39.8213,-160.127,-28000.5,-7289.13,-2198.78,0.909056,-345.337,-63.7904,3252.75,11747.1,-3135.0,29.9745,-85.8702,-74.5285,4661.85,-18816.2,-11849.9,-13.0499,1.47071,-104.882,11369.6,-1698.33,-3815.64,1.78083,-7.01848,-3.08978
3.331,5866.82,-2771.83,10170.8,26.8944,-151.825,-39.9911,29353.2,-2960.22,-19817.8,149.086,188.623,256.869,2038.81,13425.4,571.351,-43.3964,39.4665,-161.078,-27538.1,-7352.33,-2299.79,3.31096,-351.301,-55.2304,3071.94,11957.2,-3283.92,26.9187,-84.3199,-73.7633,4855.41,-18865.2,-10841.9,-14.4024,-5.27619,-107.97,11589.8,-1873.59,-3969.54,2.94197,-5.23212,-2.89579
3.332,5863.91,-2796.01,10232.9,26.9768,-154.627,-40.1841,29094.7,-2610.06,-19866.4,147.077,181.487,263.52,2073.2,13572.1,565.397,-43.9243,39.1117,-162.029,-27075.8,-7415.53,-2400.79,5.71286,-357.265,-46.6705,2891.13,12167.2,-3432.84,23.863,-82.7695,-72.998,5048.97,-18914.1,-9833.92,-15.7549,-12.0231,-111.057,11810.0,-2048.86,-4123.43,4.10311,-3.44577,-2.70179
3.333,5860.99,-2820.18,10295.0,27.0592,-157.429,-40.3771,28836.1,-2259.89,-19915.0,145.068,174.351,270.171,2107.58,13718.9,559.442,-44.4522,38.7569,-162.98,-26613.5,-7478.73,-2501.8,8.11476,-363.229,-38.1105,2710.32,12377.3,-3581.77,20.8072,-81.2191,-72.2328,5242.52,-18963.0,-8825.91,-17.1074,-18.77,-114.145,12030.2,-2224.12,-4277.32,5.26425,-1.65941,-2.5078
3.334,5851.5,-2919.63,10339.1,27.0734,-160.485,-40.7548,28600.6,-1954.97,-19848.1,143.116,167.253,276.211,2152.85,13857.6,504.183,-44.7674,38.7874,-163.758,-26142.8,-7479.15,-2620.47,9.89009,-367.115,-29.6872,2540.62,12496.5,-3770.82,17.3558,-79.4612,-71.5093,5575.19,-19004.9,-7757.93,-17.8454,-30.0688,-116.533,12261.3,-2355.18,-4419.34,5.86509,0.0867754,-2.67604
3.335,5838.71,-3056.71,10374.2,27.0535,-163.669,-41.2249,28376.5,-1672.67,-19723.4,141.193,160.175,281.947,2203.57,13992.5,424.272,-44.9763,39.0106,-164.451,-25668.0,-7448.18,-2747.97,11.3521,-369.963,-21.3322,2376.48,12570.4,-3979.94,13.7066,-77.5995,-70.8067,5977.42,-19043.4,-6659.97,-18.276,-43.6435,-118.572,12497.8,-2464.12,-4555.42,6.18577,1.81287,-3.02539
3.336,5825.92,-3193.78,10409.2,27.0337,-166.853,-41.6949,28152.4,-1390.37,-19598.7,139.27,153.097,287.682,2254.29,14127.3,344.361,-45.1853,39.2338,-165.143,-25193.2,-7417.21,-2875.48,12.8142,-372.811,-12.9772,2212.35,12644.2,-4189.06,10.0574,-75.7378,-70.1042,6379.64,-19081.8,-5562.02,-18.7067,-57.2182,-120.61,12734.3,-2573.07,-4691.5,6.50646,3.53897,-3.37475
3.337,5813.13,-3330.86,10444.3,27.0138,-170.037,-42.165,27928.4,-1108.07,-19474.0,137.347,146.019,293.418,2305.0,14262.1,264.451,-45.3942,39.4569,-165.836,-24718.5,-7386.25,-3002.98,14.2762,-375.659,-4.62225,2048.21,12718.1,-4398.18,6.40816,-73.8761,-69.4016,6781.86,-19120.2,-4464.06,-19.1373,-70.793,-122.649,12970.7,-2682.01,-4827.58,6.82714,5.26506,-3.7241
3.338,5802.65,-3462.6,10478.8,27.0195,-173.293,-42.7011,27721.7,-831.383,-19308.7,135.564,139.023,298.937,2354.19,14381.2,181.526,-45.5669,39.5692,-166.522,-24262.2,-7379.09,-3139.59,15.6351,-377.998,3.74212,1901.61,12762.9,-4618.31,2.72319,-71.8495,-68.8252,7220.93,-19106.0,-3377.55,-19.2497,-85.297,-124.347,13208.1,-2781.05,-4943.73,7.50581,7.08336,-4.15513
3.339,5800.26,-3575.67,10511.2,27.1144,-176.802,-43.4681,27575.9,-574.34,-19000.9,134.271,132.318,303.703,2398.04,14445.5,88.0544,-45.6131,39.2932,-167.19,-23870.6,-7455.25,-3308.06,16.6332,-378.555,12.1393,1816.42,12706.4,-4876.93,-1.08688,-69.246,-68.6904,7788.96,-18907.3,-2331.1,-18.248,-103.054,-124.858,13448.6,-2845.39,-4990.13,9.43744,9.22439,-4.87203
3.34,5797.88,-3688.73,10543.7,27.2093,-180.311,-44.2352,27430.1,-317.296,-18693.1,132.977,125.612,308.469,2441.89,14509.8,-5.41736,-45.6593,39.0171,-167.857,-23479.1,-7531.42,-3476.54,17.6313,-379.112,20.5365,1731.22,12649.8,-5135.55,-4.89696,-66.6424,-68.5556,8356.98,-18708.6,-1284.65,-17.2463,-120.81,-125.368,13689.1,-2909.74,-5036.53,11.3691,11.3654,-5.58893
3.341,5795.49,-3801.79,10576.1,27.3042,-183.82,-45.0023,27284.3,-60.2525,-18385.3,131.684,118.907,313.235,2485.73,14574.0,-98.8891,-45.7054,38.7411,-168.525,-23087.5,-7607.59,-3645.01,18.6294,-379.669,28.9337,1646.02,12593.2,-5394.17,-8.70704,-64.0389,-68.4208,8925.01,-18509.9,-238.205,-16.2445,-138.567,-125.878,13929.6,-2974.09,-5082.93,13.3007,13.5064,-6.30582
3.342,5793.11,-3914.85,10608.5,27.3992,-187.329,-45.7693,27138.5,196.791,-18077.5,130.391,112.201,318.001,2529.58,14638.3,-192.361,-45.7516,38.4651,-169.192,-22696.0,-7683.76,-3813.48,19.6275,-380.226,37.3309,1560.83,12536.6,-5652.79,-12.5171,-61.4353,-68.286,9493.04,-18311.2,808.244,-15.2428,-156.324,-126.388,14170.1,-3038.43,-5129.32,15.2323,15.6475,-7.02272
3.343,5789.65,-4000.55,10625.3,27.1817,-190.936,-46.6892,27057.9,503.84,-17685.6,129.811,105.95,321.824,2534.9,14706.8,-329.434,-45.8049,38.4743,-169.955,-22420.8,-7853.99,-4001.71,20.0908,-379.72,45.5812,1522.64,12474.0,-5849.99,-16.267,-57.9884,-68.4879,9883.34,-18068.0,1497.76,-13.3632,-173.076,-125.812,14363.7,-3004.55,-5115.08,17.1031,17.3008,-8.10528
3.344,5785.89,-4078.42,10637.6,26.875,-194.572,-47.6528,26996.1,825.176,-17269.7,129.434,99.8292,325.377,2529.22,14776.4,-478.964,-45.8602,38.5649,-170.745,-22178.8,-8051.09,-4195.58,20.4012,-378.912,53.7895,1497.88,12409.6,-6029.64,-19.9996,-54.3006,-68.7861,10222.9,-17812.1,2085.3,-11.2328,-189.542,-124.926,14543.9,-2942.6,-5083.51,18.9565,18.8149,-9.29232
3.345,5782.13,-4156.3,10649.8,26.5682,-198.207,-48.6164,26934.2,1146.51,-16853.9,129.058,93.7082,328.931,2523.53,14846.1,-628.494,-45.9156,38.6555,-171.535,-21936.9,-8248.19,-4389.45,20.7116,-378.103,61.9978,1473.11,12345.2,-6209.29,-23.7323,-50.6128,-69.0843,10562.4,-17556.1,2672.83,-9.1024,-206.007,-124.039,14724.1,-2880.65,-5051.93,20.8099,20.3289,-10.4794
3.346,5778.37,-4234.17,10662.1,26.2615,-201.842,-49.5801,26872.3,1467.85,-16438.0,128.681,87.5871,332.484,2517.85,14915.8,-778.024,-45.9709,38.7461,-172.325,-21694.9,-8445.29,-4583.31,21.022,-377.294,70.2061,1448.35,12280.9,-6388.94,-27.465,-46.925,-69.3825,10901.9,-17300.2,3260.37,-6.97198,-222.473,-123.153,14904.3,-2818.69,-5020.36,22.6633,21.843,-11.6664
3.347,5782.0,-4304.06,10668.5,25.8765,-205.542,-50.6439,26839.6,1797.44,-16012.6,128.799,81.7327,335.554,2498.35,14980.3,-885.225,-46.0809,38.689,-172.959,-21493.4,-8646.84,-4772.89,21.1118,-376.373,78.2427,1437.34,12216.9,-6540.5,-31.0767,-42.9471,-69.8514,11111.6,-17030.3,3679.24,-4.82844,-236.43,-122.199,15081.5,-2710.28,-5005.26,24.1649,22.9713,-12.7707
3.348,5800.4,-4357.96,10663.0,25.3348,-209.37,-51.9081,26865.3,2143.55,-15568.1,129.906,76.4117,337.656,2451.22,15034.6,-907.767,-46.3002,38.3363,-173.281,-21372.9,-8857.32,-4953.9,20.7605,-375.227,85.9359,1453.84,12153.9,-6635.89,-34.4467,-38.389,-70.6619,11061.7,-16732.6,3760.8,-2.65869,-245.373,-121.113,15252.7,-2508.93,-5023.1,24.9631,23.3281,-13.7094
3.349,5818.8,-4411.87,10657.5,24.7932,-213.199,-53.1724,26891.0,2489.65,-15123.6,131.013,71.0906,339.758,2404.1,15088.9,-930.31,-46.5195,37.9836,-173.603,-21252.3,-9067.79,-5134.9,20.4092,-374.082,93.6291,1470.33,12090.9,-6731.28,-37.8168,-33.831,-71.4724,11011.8,-16434.9,3842.35,-0.488926,-254.316,-120.026,15423.9,-2307.59,-5040.94,25.7614,23.6849,-14.6481
3.35,5837.19,-4465.77,10652.0,24.2515,-217.028,-54.4366,26916.7,2835.76,-14679.1,132.12,65.7695,341.86,2356.97,15143.2,-952.852,-46.7387,37.6309,-173.925,-21131.8,-9278.26,-5315.91,20.0579,-372.936,101.322,1486.83,12027.9,-6826.67,-41.1868,-29.273,-72.2828,10961.9,-16137.2,3923.91,1.68083,-263.259,-118.939,15595.1,-2106.24,-5058.78,26.5596,24.0418,-15.5869
3.351,5855.59,-4519.68,10646.5,23.7099,-220.857,-55.7009,26942.5,3181.86,-14234.5,133.227,60.4484,343.962,2309.85,15197.5,-975.394,-46.958,37.2782,-174.247,-21011.3,-9488.73,-5496.91,19.7066,-371.79,109.015,1503.32,11964.9,-6922.06,-44.5568,-24.7149,-73.0933,10912.0,-15839.6,4005.46,3.85059,-272.202,-117.852,15766.2,-1904.89,-5076.63,27.3578,24.3986,-16.5256
3.352,5863.33,-4563.81,10610.0,23.0159,-224.844,-57.0816,26981.4,3492.63,-13822.6,135.009,55.8203,344.655,2209.81,15211.4,-1007.86,-46.8937,35.9823,-174.538,-20809.1,-9676.52,-5589.52,19.0872,-370.702,116.161,1550.6,11937.4,-6907.01,-47.6961,-19.7856,-74.0628,10516.8,-15505.6,3948.66,4.34254,-272.639,-117.074,15959.0,-1654.12,-5055.31,27.3405,24.0583,-17.0943
3.353,5869.74,-4606.71,10569.7,22.3029,-228.851,-58.477,27022.0,3798.98,-13414.7,136.876,51.2788,345.171,2103.16,15220.4,-1041.56,-46.794,34.5685,-174.826,-20596.8,-9861.47,-5671.07,18.4342,-369.621,123.238,1601.73,11914.3,-6878.16,-50.8065,-14.81,-75.0521,10078.4,-15167.2,3874.57,4.62476,-272.013,-116.336,16154.5,-1397.17,-5029.1,27.2213,23.6307,-17.6168
3.354,5876.15,-4649.62,10529.3,21.5899,-232.858,-59.8724,27062.6,4105.34,-13006.9,138.743,46.7374,345.688,1996.51,15229.3,-1075.26,-46.6944,33.1547,-175.113,-20384.5,-10046.4,-5752.62,17.7812,-368.54,130.314,1652.85,11891.1,-6849.31,-53.917,-9.83433,-76.0415,9639.98,-14828.8,3800.47,4.90699,-271.387,-115.597,16349.9,-1140.22,-5002.89,27.1021,23.2032,-18.1393
3.355,5882.56,-4692.53,10489.0,20.8769,-236.865,-61.2677,27103.2,4411.69,-12599.0,140.609,42.1959,346.204,1889.86,15238.2,-1108.97,-46.5947,31.741,-175.401,-20172.2,-10231.4,-5834.18,17.1282,-367.459,137.391,1703.98,11868.0,-6820.46,-57.0275,-4.85867,-77.0308,9201.57,-14490.3,3726.38,5.18921,-270.76,-114.858,16545.4,-883.266,-4976.68,26.9829,22.7757,-18.6617
3.356,5893.3,-4732.69,10435.2,20.0674,-240.785,-62.6912,27126.3,4732.88,-12201.6,142.442,37.7422,346.018,1814.65,15226.8,-1140.61,-46.4428,30.09,-175.595,-19925.6,-10434.5,-5861.89,16.3779,-366.492,144.194,1748.52,11843.5,-6745.41,-59.8086,0.0642328,-77.8907,8699.39,-14177.6,3702.99,4.18834,-266.743,-114.768,16696.6,-632.512,-5005.07,26.3975,22.0786,-19.1497
3.357,5909.45,-4769.41,10364.8,19.1373,-244.595,-64.15,27127.7,5072.63,-11817.4,144.233,33.3983,344.954,1778.73,15189.7,-1169.68,-46.2257,28.1426,-175.673,-19636.3,-10660.5,-5822.31,15.5059,-365.667,150.656,1784.84,11817.4,-6612.63,-62.1781,4.92118,-78.5888,8117.48,-13897.1,3742.97,1.5836,-258.486,-115.49,16792.5,-389.503,-5101.69,25.2295,21.0444,-19.5945
3.358,5925.6,-4806.14,10294.3,18.2071,-248.406,-65.6088,27129.0,5412.38,-11433.1,146.023,29.0543,343.889,1742.81,15152.7,-1198.76,-46.0085,26.1951,-175.751,-19347.0,-10886.4,-5782.73,14.6339,-364.841,157.118,1821.16,11791.2,-6479.84,-64.5475,9.77812,-79.287,7535.57,-13616.6,3782.95,-1.02114,-250.229,-116.212,16888.3,-146.495,-5198.31,24.0614,20.0102,-20.0394
3.359,5941.75,-4842.87,10223.8,17.277,-252.216,-67.0675,27130.3,5752.13,-11048.8,147.814,24.7104,342.825,1706.89,15115.7,-1227.83,-45.7914,24.2477,-175.828,-19057.6,-11112.4,-5743.15,13.7619,-364.016,163.579,1857.47,11765.0,-6347.06,-66.917,14.6351,-79.9851,6953.67,-13336.1,3822.93,-3.62588,-241.971,-116.934,16984.2,96.5127,-5294.94,22.8934,18.976,-20.4842
3.36,5957.9,-4879.59,10153.3,16.3469,-256.026,-68.5263,27131.7,6091.88,-10664.6,149.604,20.3664,341.76,1670.98,15078.7,-1256.9,-45.5742,22.3003,-175.906,-18768.3,-11338.3,-5703.56,12.8899,-363.191,170.041,1893.79,11738.8,-6214.28,-69.2865,19.492,-80.6832,6371.76,-13055.5,3862.91,-6.23061,-233.714,-117.655,17080.1,339.521,-5391.56,21.7253,17.9418,-20.929
3.361,5947.51,-4920.17,10079.8,15.5184,-259.676,-70.0359,26961.5,6495.5,-10219.3,151.142,15.2771,339.347,1742.09,15009.0,-1309.15,-45.5247,19.8996,-176.247,-18371.1,-11541.0,-5601.43,12.7264,-361.232,176.073,1848.53,11723.4,-5972.37,-70.4191,23.3136,-81.1223,5814.57,-12702.4,4060.87,-9.33308,-221.456,-118.494,17061.0,566.943,-5381.4,20.4357,17.7687,-21.3612
3.362,5937.12,-4960.75,10006.3,14.6898,-263.325,-71.5456,26791.3,6899.12,-9774.08,152.681,10.1878,336.934,1813.21,14939.2,-1361.4,-45.4751,17.4988,-176.589,-17973.8,-11743.6,-5499.29,12.5629,-359.273,182.104,1803.27,11707.9,-5730.46,-71.5517,27.1353,-81.5614,5257.38,-12349.4,4258.84,-12.4356,-209.198,-119.332,17041.9,794.366,-5371.25,19.146,17.5956,-21.7934
3.363,5926.73,-5001.32,9932.85,13.8613,-266.974,-73.0552,26621.2,7302.73,-9328.83,154.219,5.09846,334.521,1884.33,14869.5,-1413.65,-45.4255,15.0981,-176.93,-17576.6,-11946.2,-5397.16,12.3993,-357.314,188.136,1758.01,11692.5,-5488.55,-72.6843,30.9569,-82.0006,4700.19,-11996.3,4456.81,-15.538,-196.94,-120.17,17022.9,1021.79,-5361.09,17.8563,17.4225,-22.2256
3.364,5916.34,-5041.9,9859.35,13.0328,-270.624,-74.5649,26451.0,7706.35,-8883.58,155.757,0.00913209,332.108,1955.45,14799.7,-1465.9,-45.376,12.6973,-177.272,-17179.3,-12148.9,-5295.02,12.2358,-355.355,194.168,1712.74,11677.0,-5246.64,-73.817,34.7785,-82.4397,4143.0,-11643.2,4654.77,-18.6405,-184.682,-121.008,17003.8,1249.21,-5350.94,16.5667,17.2493,-22.6577
3.365,5891.97,-5068.25,9801.54,12.218,-274.365,-76.2087,26206.7,8192.95,-8495.8,156.472,-5.39775,328.869,2065.59,14717.2,-1530.16,-45.4067,10.6956,-177.715,-16756.6,-12370.0,-5166.1,12.3188,-352.158,199.648,1678.31,11668.9,-5009.04,-74.5151,37.8791,-82.5872,3658.15,-11298.8,4864.62,-20.7994,-172.484,-120.954,16951.8,1467.43,-5317.83,15.335,16.7304,-23.1932
3.366,5856.41,-5083.2,9756.29,11.4141,-278.179,-77.9598,25903.2,8745.93,-8153.99,156.529,-11.0587,324.97,2206.95,14624.4,-1604.02,-45.5017,9.01319,-178.24,-16313.6,-12605.9,-5015.73,12.599,-347.971,204.687,1652.55,11666.5,-4774.89,-74.8655,40.4028,-82.5013,3231.18,-10961.4,5083.96,-22.2033,-160.335,-120.187,16873.5,1678.28,-5266.35,14.1497,15.9348,-23.8113
3.367,5820.86,-5098.16,9711.04,10.6102,-281.993,-79.7109,25599.7,9298.91,-7812.19,156.586,-16.7196,321.07,2348.31,14531.7,-1677.88,-45.5966,7.33073,-178.765,-15870.6,-12841.8,-4865.37,12.8793,-343.784,209.726,1626.78,11664.2,-4540.74,-75.216,42.9266,-82.4155,2804.21,-10623.9,5303.3,-23.6073,-148.185,-119.419,16795.2,1889.13,-5214.87,12.9643,15.1391,-24.4294
3.368,5785.3,-5113.12,9665.78,9.80637,-285.807,-81.462,25296.1,9851.89,-7470.39,156.643,-22.3805,317.171,2489.67,14438.9,-1751.74,-45.6916,5.64826,-179.29,-15427.6,-13077.6,-4715.01,13.1595,-339.597,214.765,1601.02,11661.8,-4306.58,-75.5665,45.4503,-82.3296,2377.25,-10286.5,5522.64,-25.0113,-136.036,-118.651,16717.0,2099.98,-5163.39,11.779,14.3435,-25.0475
3.369,5750.33,-5123.63,9628.53,9.00519,-289.623,-83.2159,24976.3,10406.5,-7116.77,156.435,-28.114,313.053,2618.83,14346.6,-1824.07,-45.8091,4.01415,-179.837,-14975.3,-13311.6,-4557.39,13.4708,-335.082,219.715,1578.55,11659.0,-4065.45,-75.8727,47.8003,-82.2083,1959.23,-9958.25,5723.06,-26.2319,-124.084,-117.742,16633.4,2314.25,-5099.25,10.7063,13.4476,-25.6336
3.37,5720.07,-5098.59,9655.29,8.22552,-293.452,-84.9916,24525.9,10973.7,-6668.69,154.111,-34.4279,307.186,2650.29,14258.3,-1884.19,-46.1067,2.76684,-180.555,-14448.2,-13530.0,-4341.71,14.0308,-327.934,223.949,1582.46,11652.3,-3768.5,-75.8252,48.7603,-81.8028,1612.79,-9703.29,5772.06,-25.9849,-113.708,-115.7,16507.7,2555.86,-4933.82,10.5344,11.7492,-25.9632
3.371,5689.8,-5073.54,9682.06,7.44585,-297.281,-86.7673,24075.6,11541.0,-6220.6,151.787,-40.7417,301.32,2681.75,14169.9,-1944.32,-46.4044,1.51952,-181.274,-13921.1,-13748.3,-4126.02,14.5908,-320.787,228.183,1586.36,11645.7,-3471.55,-75.7776,49.7203,-81.3973,1266.35,-9448.33,5821.06,-25.7379,-103.332,-113.658,16382.0,2797.46,-4768.38,10.3626,10.0507,-26.2929
3.372,5659.54,-5048.5,9708.82,6.66618,-301.109,-88.5431,23625.2,12108.2,-5772.52,149.463,-47.0555,295.454,2713.21,14081.6,-2004.44,-46.7021,0.272207,-181.992,-13394.1,-13966.7,-3910.34,15.1508,-313.64,232.417,1590.27,11639.0,-3174.6,-75.73,50.6803,-80.9919,919.911,-9193.37,5870.06,-25.4909,-92.9563,-111.616,16256.2,3039.07,-4602.94,10.1907,8.35229,-26.6225
3.373,5629.27,-5023.46,9735.58,5.88651,-304.938,-90.3188,23174.8,12675.5,-5324.44,147.139,-53.3694,289.588,2744.67,13993.3,-2064.56,-46.9998,-0.975108,-182.711,-12867.0,-14185.1,-3694.65,15.7107,-306.493,236.652,1594.18,11632.3,-2877.64,-75.6824,51.6404,-80.5864,573.473,-8938.41,5919.06,-25.244,-82.5805,-109.574,16130.5,3280.67,-4437.5,10.0188,6.65386,-26.9522
3.374,5601.51,-5007.63,9763.26,5.19242,-308.841,-92.048,22729.9,13099.9,-4863.17,142.808,-59.7507,281.526,2850.44,13955.3,-2048.75,-47.3591,-2.44587,-183.512,-12379.0,-14376.5,-3463.81,16.261,-297.424,240.228,1619.82,11616.4,-2564.06,-75.4044,51.61,-80.0822,276.171,-8690.83,5670.5,-24.2496,-71.9193,-107.288,15973.2,3493.61,-4318.59,9.44377,4.26511,-27.4809
3.375,5574.99,-4996.41,9791.38,4.54111,-312.782,-93.7539,22287.6,13452.9,-4395.3,137.474,-66.1659,272.368,2993.38,13942.6,-1994.97,-47.7491,-4.02837,-184.353,-11910.6,-14554.6,-3225.39,16.8064,-287.395,243.475,1656.35,11595.9,-2242.17,-75.0112,51.0845,-79.5287,3.438,-8446.94,5273.16,-22.8815,-61.1154,-104.88,15800.1,3692.2,-4222.94,8.6671,1.53119,-28.1092
3.376,5548.47,-4985.18,9819.51,3.88981,-316.723,-95.4598,21845.4,13805.9,-3927.43,132.14,-72.581,263.209,3136.32,13929.8,-1941.19,-48.1391,-5.61086,-185.195,-11442.1,-14732.6,-2986.96,17.3518,-277.366,246.723,1692.87,11575.4,-1920.28,-74.6179,50.5589,-78.9752,-269.295,-8203.05,4875.82,-21.5135,-50.3115,-102.472,15627.0,3890.79,-4127.3,7.89043,-1.20273,-28.7374
3.377,5521.95,-4973.96,9847.64,3.2385,-320.664,-97.1656,21403.1,14158.9,-3459.57,126.806,-78.9961,254.05,3279.26,13917.1,-1887.41,-48.5291,-7.19335,-186.036,-10973.7,-14910.6,-2748.54,17.8971,-267.337,249.97,1729.39,11554.9,-1598.39,-74.2246,50.0334,-78.4217,-542.028,-7959.16,4478.48,-20.1454,-39.5076,-100.064,15454.0,4089.39,-4031.65,7.11376,-3.93664,-29.3657
3.378,5488.79,-4963.51,9872.04,2.56131,-324.679,-98.8726,20963.7,14474.6,-2969.18,119.589,-85.4177,244.162,3409.35,13905.2,-1843.66,-48.9497,-8.80424,-186.863,-10519.4,-15066.5,-2494.9,18.4097,-256.709,252.973,1782.08,11550.4,-1285.8,-73.6766,49.1305,-77.8233,-827.665,-7708.58,3927.64,-18.6569,-27.559,-97.8139,15286.6,4261.53,-3936.14,6.27272,-6.74682,-29.8704
3.379,5432.35,-4955.78,9883.38,1.79349,-328.958,-100.584,20534.5,14659.9,-2399.99,105.783,-91.862,231.718,3494.47,13896.3,-1835.0,-49.4774,-10.5146,-187.639,-10114.7,-15144.9,-2188.0,18.8074,-243.988,255.122,1891.39,11601.4,-1005.79,-72.587,46.9068,-77.0682,-1158.46,-7434.57,2839.55,-16.7466,-11.6039,-96.1189,15139.4,4341.07,-3841.11,5.20641,-9.82391,-29.9427
3.38,5375.91,-4948.05,9894.73,1.02568,-333.236,-102.294,20105.2,14845.1,-1830.8,91.9759,-98.3062,219.275,3579.6,13887.3,-1826.35,-50.005,-12.2249,-188.416,-9709.9,-15223.3,-1881.1,19.2052,-231.266,257.271,2000.69,11652.5,-725.785,-71.4973,44.6832,-76.313,-1489.26,-7160.55,1751.46,-14.8364,4.35123,-94.424,14992.1,4420.61,-3746.07,4.1401,-12.901,-30.015
3.381,5319.48,-4940.32,9906.07,0.257861,-337.514,-104.005,19675.9,15030.4,-1261.6,78.1691,-104.75,206.831,3664.72,13878.4,-1817.69,-50.5327,-13.9352,-189.192,-9305.14,-15301.7,-1574.2,19.6029,-218.544,259.419,2110.0,11703.6,-445.775,-70.4076,42.4596,-75.5579,-1820.06,-6886.54,663.377,-12.9262,20.3063,-92.729,14844.9,4500.16,-3651.04,3.07379,-15.9781,-30.0873
3.382,5263.04,-4932.59,9917.42,-0.509955,-341.793,-105.716,19246.6,15215.6,-692.408,64.3624,-111.195,194.388,3749.85,13869.5,-1809.03,-51.0603,-15.6455,-189.969,-8900.38,-15380.1,-1267.3,20.0006,-205.823,261.568,2219.3,11754.7,-165.765,-69.318,40.236,-74.8027,-2150.86,-6612.53,-424.71,-11.016,36.2614,-91.034,14697.6,4579.7,-3556.01,2.00748,-19.0552,-30.1596
3.383,5200.56,-4900.17,9938.33,-1.55351,-346.187,-107.381,18594.2,16106.1,-394.174,34.8596,-116.964,179.388,3865.27,13863.8,-1792.14,-51.4055,-17.3639,-190.858,-8337.54,-15368.4,-1043.95,20.3802,-191.289,262.695,2363.2,11812.5,43.527,-67.8827,37.291,-73.5154,-2551.04,-6281.31,-1588.47,-8.5296,56.3484,-89.9065,14546.0,4596.87,-3416.81,1.13533,-22.3897,-30.0751
3.384,5136.35,-4860.68,9961.97,-2.67584,-350.614,-109.032,17878.0,17197.9,-173.358,0.87214,-122.54,163.658,3989.36,13859.2,-1772.9,-51.6985,-19.0845,-191.779,-7729.52,-15331.0,-844.468,20.7545,-176.238,263.53,2516.99,11872.1,232.614,-66.3487,34.14,-72.0761,-2971.06,-5933.75,-2773.84,-5.87856,77.6161,-88.9411,14393.1,4596.22,-3265.0,0.318651,-25.7977,-29.9458
3.385,5072.15,-4821.2,9985.61,-3.79817,-355.041,-110.684,17161.8,18289.8,47.4577,-33.1153,-128.115,147.927,4113.44,13854.5,-1753.65,-51.9915,-20.8051,-192.699,-7121.51,-15293.5,-644.989,21.1289,-161.186,264.365,2670.78,11931.8,421.701,-64.8147,30.9889,-70.6368,-3391.07,-5586.18,-3959.22,-3.22752,98.8837,-87.9757,14240.2,4595.57,-3113.19,-0.498028,-29.2057,-29.8165
3.386,5007.94,-4781.72,10009.3,-4.9205,-359.468,-112.335,16445.6,19381.7,268.274,-67.1027,-133.691,132.197,4237.52,13849.8,-1734.41,-52.2846,-22.5257,-193.62,-6513.5,-15256.1,-445.509,21.5032,-146.135,265.199,2824.56,11991.4,610.789,-63.2807,27.8378,-69.1975,-3811.08,-5238.62,-5144.59,-0.57648,120.151,-87.0104,14087.4,4594.92,-2961.37,-1.31471,-32.6137,-29.6872
3.387,4952.86,-4735.4,10026.8,-5.99329,-363.978,-114.04,15321.5,21120.3,1111.46,-99.2916,-145.553,122.271,4358.85,13863.9,-1712.27,-52.6911,-24.288,-194.624,-5646.66,-15224.3,-692.681,22.7523,-128.087,265.324,3000.4,12052.0,775.571,-61.7449,24.5909,-67.6325,-4291.08,-4839.09,-5894.49,3.0361,137.405,-85.3256,13929.0,4579.01,-2820.42,-2.26783,-35.4926,-29.5421
3.388,4916.02,-4675.39,10032.3,-6.96699,-368.652,-115.851,13381.7,24152.4,3199.37,-127.884,-169.988,123.953,4474.69,13915.6,-1684.32,-53.3249,-26.1336,-195.792,-4262.13,-15203.7,-1833.16,25.7508,-104.044,264.027,3220.32,12114.6,891.744,-60.2057,21.1523,-65.8161,-4891.03,-4335.62,-5773.44,8.57175,146.632,-82.2022,13759.7,4532.59,-2701.21,-3.49383,-37.3131,-29.3653
3.389,4879.18,-4615.38,10037.8,-7.9407,-373.327,-117.662,11441.8,27184.5,5287.28,-156.475,-194.422,125.636,4590.53,13967.2,-1656.38,-53.9586,-27.9792,-196.961,-2877.61,-15183.1,-2973.63,28.7492,-80.0023,262.731,3440.25,12177.2,1007.92,-58.6665,17.7136,-63.9998,-5490.98,-3832.16,-5652.39,14.1074,155.858,-79.0787,13590.5,4486.18,-2581.99,-4.71984,-39.1336,-29.1884
3.39,4842.34,-4555.36,10043.3,-8.91441,-378.001,-119.473,9502.01,30216.6,7375.19,-185.067,-218.856,127.319,4706.37,14018.8,-1628.44,-54.5924,-29.8248,-198.13,-1493.09,-15162.5,-4114.11,31.7477,-55.9602,261.435,3660.17,12239.7,1124.09,-57.1273,14.275,-62.1834,-6090.93,-3328.7,-5531.34,19.6431,165.084,-75.9553,13421.2,4439.76,-2462.77,-5.94584,-40.9542,-29.0116
3.391,4805.5,-4495.35,10048.8,-9.88811,-382.676,-121.284,7562.17,33248.7,9463.1,-213.659,-243.291,129.001,4822.21,14070.5,-1600.49,-55.2261,-31.6703,-199.299,-108.565,-15141.9,-5254.58,34.7462,-31.918,260.138,3880.09,12302.3,1240.26,-55.5881,10.8363,-60.367,-6690.88,-2825.23,-5410.29,25.1787,174.311,-72.8318,13251.9,4393.34,-2343.55,-7.17184,-42.7747,-28.8348
3.392,4742.57,-4522.06,10132.0,-10.4339,-387.78,-123.039,-1022.46,40357.9,17091.2,-244.782,-306.626,178.026,5082.23,14139.3,-1554.38,-55.7454,-33.8038,-200.418,3946.02,-15657.1,-10499.5,39.9723,15.5182,256.672,4137.31,12356.9,1284.75,-54.2129,7.54498,-58.5041,-7256.66,-2323.7,-3947.04,27.9756,154.546,-64.6186,13145.7,4268.93,-1401.61,-6.07612,-43.5125,-29.0014
3.393,4676.38,-4559.6,10224.9,-10.9262,-392.938,-124.786,-10437.7,47976.7,25411.7,-276.222,-374.824,232.969,5360.28,14210.3,-1505.99,-56.2503,-35.9732,-201.53,8334.36,-16239.3,-16257.6,45.4768,65.8787,252.934,4399.19,12410.4,1320.27,-52.8582,4.27208,-56.6353,-7818.17,-1822.4,-2316.02,30.4302,131.158,-55.7692,13047.3,4134.76,-356.835,-4.69018,-44.1149,-29.211
3.394,4610.18,-4597.14,10317.8,-11.4185,-398.096,-126.533,-19852.9,55595.6,33732.3,-307.662,-443.022,287.912,5638.33,14281.3,-1457.6,-56.7552,-38.1427,-202.643,12722.7,-16821.4,-22015.6,50.9814,116.239,249.197,4661.06,12463.9,1355.8,-51.5035,0.999174,-54.7666,-8379.68,-1321.1,-684.995,32.8848,107.77,-46.9198,12949.0,4000.59,687.942,-3.30424,-44.7174,-29.4205
3.395,4543.99,-4634.68,10410.7,-11.9108,-403.254,-128.28,-29268.2,63214.4,42052.9,-339.101,-511.219,342.854,5916.38,14352.2,-1409.22,-57.2601,-40.3121,-203.756,17111.0,-17403.6,-27773.6,56.4859,166.6,245.459,4922.94,12517.5,1391.32,-50.1488,-2.27373,-52.8978,-8941.19,-819.808,946.027,35.3394,84.3816,-38.0704,12850.6,3866.43,1732.72,-1.9183,-45.3198,-29.6301
3.396,4469.59,-4707.53,10534.0,-12.3806,-408.77,-129.979,-39109.5,62622.9,45988.0,-341.285,-550.824,359.634,6207.52,14408.6,-1341.38,-57.8134,-42.4975,-205.004,24120.5,-18687.7,-31655.5,54.6357,201.888,236.079,5192.02,12566.4,1389.77,-48.6558,-5.43498,-50.7727,-9414.97,-378.846,2287.78,32.1443,53.1399,-25.7991,12748.0,3530.88,2716.06,1.8493,-43.7289,-30.8604
3.397,4384.93,-4824.51,10695.2,-12.8224,-414.732,-131.62,-49483.6,51768.6,44441.1,-306.899,-554.688,328.709,6515.02,14446.8,-1249.24,-58.4271,-44.7027,-206.423,34406.2,-20849.4,-33192.0,43.592,218.336,219.647,5470.09,12609.4,1341.85,-46.9901,-8.45668,-48.327,-9779.11,-13.3035,3267.96,21.8872,12.0816,-9.25063,12640.1,2943.6,3622.6,8.59398,-39.3964,-33.3668
3.398,4300.28,-4941.5,10856.4,-13.2642,-420.694,-133.26,-59857.7,40914.2,42894.3,-272.512,-558.552,297.785,6822.52,14484.9,-1157.1,-59.0409,-46.908,-207.841,44692.0,-23011.2,-34728.6,32.5483,234.784,203.215,5748.16,12652.5,1293.94,-45.3244,-11.4784,-45.8813,-10143.2,352.239,4248.14,11.6301,-28.9768,7.29787,12532.2,2356.32,4529.14,15.3387,-35.0639,-35.8731
3.399,4215.62,-5058.48,11017.6,-13.706,-426.655,-134.9,-70231.8,30059.9,41347.5,-238.126,-562.416,266.86,7130.02,14523.1,-1064.95,-59.6546,-49.1133,-209.26,54977.7,-25172.9,-36265.2,21.5045,251.232,186.783,6026.23,12695.6,1246.03,-43.6587,-14.5001,-43.4356,-10507.4,717.782,5228.31,1.37298,-70.0352,23.8464,12424.4,1769.04,5435.69,22.0833,-30.7314,-38.3794
3.4,4130.96,-5175.47,11178.8,-14.1478,-432.617,-136.54,-80605.9,19205.6,39800.7,-203.74,-566.279,235.936,7437.52,14561.2,-972.81,-60.2683,-51.3186,-210.678,65263.5,-27334.6,-37801.7,10.4608,267.68,170.351,6304.31,12738.6,1198.11,-41.9929,-17.5218,-40.99,-10871.5,1083.33,6208.49,-8.88414,-111.094,40.3949,12316.5,1181.76,6342.23,28.828,-26.3989,-40.8858
3.401,4015.73,-5169.42,11524.2,-13.9322,-439.559,-137.801,-68999.7,3435.18,32701.6,-171.038,-511.552,176.06,8007.12,14715.4,-669.16,-61.2044,-51.8397,-212.381,71072.0,-28658.1,-23922.7,-3.42817,206.149,141.075,6692.15,12782.6,1161.11,-38.8434,-21.789,-38.2781,-11143.9,843.755,5041.85,-14.9115,-130.016,65.0223,12543.2,424.697,5550.55,43.0434,-15.5278,-47.6936
3.402,3900.5,-5163.38,11869.6,-13.7166,-446.501,-139.063,-57393.5,-12335.2,25602.6,-138.336,-456.824,116.184,8576.72,14869.5,-365.51,-62.1405,-52.3608,-214.083,76880.4,-29981.7,-10043.6,-17.3172,144.618,111.799,7080.0,12826.6,1124.11,-35.6939,-26.0562,-35.5663,-11416.4,604.185,3875.22,-20.9389,-148.939,89.6497,12770.0,-332.366,4758.87,57.2588,-4.65667,-54.5015
3.403,3785.27,-5157.34,12215.1,-13.5011,-453.442,-140.324,-45787.4,-28105.6,18503.6,-105.634,-402.096,56.3088,9146.32,15023.7,-61.8598,-63.0765,-52.8819,-215.786,82688.9,-31305.3,3835.42,-31.2062,83.0865,82.5224,7467.84,12870.5,1087.1,-32.5444,-30.3235,-32.8545,-11688.8,364.615,2708.58,-26.9662,-167.862,114.277,12996.7,-1089.43,3967.19,71.4742,6.21445,-61.3094
3.404,3670.04,-5151.29,12560.5,-13.2855,-460.384,-141.586,-34181.2,-43876.0,11404.5,-72.9319,-347.368,-3.56694,9715.92,15177.8,241.79,-64.0126,-53.403,-217.489,88497.4,-32628.9,17714.5,-45.0951,21.5554,53.2462,7855.69,12914.5,1050.1,-29.3949,-34.5907,-30.1427,-11961.2,125.045,1541.95,-32.9936,-186.785,138.905,13223.5,-1846.49,3175.52,85.6896,17.0856,-68.1172
3.405,3532.01,-5086.01,12965.0,-11.9514,-468.161,-142.699,-19647.2,-49531.5,10187.8,-62.629,-313.739,-32.3099,10348.9,15389.7,297.395,-66.0511,-53.1878,-219.514,83435.9,-32527.5,22602.4,-38.3546,-0.854471,45.6189,8295.42,13049.3,1023.7,-26.2469,-38.952,-27.3378,-11801.6,-899.392,675.939,-31.9947,-191.043,163.601,13172.0,-1734.01,3437.99,95.5152,22.8168,-73.2966
3.406,3375.74,-4973.34,13416.7,-9.72253,-476.606,-143.694,-2770.98,-47095.2,13676.7,-70.2455,-296.987,-36.1467,11032.7,15647.7,154.563,-68.9715,-52.3834,-221.799,69678.5,-31286.3,20297.4,-15.1106,8.03267,55.3107,8776.65,13256.9,1005.78,-23.1001,-43.3885,-24.4585,-11296.4,-2551.72,50.4273,-25.3747,-183.571,188.353,12897.8,-925.896,4543.79,101.829,24.4361,-77.1732
3.407,3219.47,-4860.67,13868.4,-7.49365,-485.05,-144.689,14105.2,-44659.0,17165.7,-77.8619,-280.236,-39.9835,11716.4,15905.8,11.7318,-71.8919,-51.5791,-224.083,55921.1,-30045.1,17992.4,8.13352,16.9198,65.0026,9257.89,13464.4,987.862,-19.9533,-47.825,-21.5792,-10791.2,-4204.06,-575.085,-18.7548,-176.099,213.105,12623.7,-117.78,5649.59,108.143,26.0554,-81.0498
3.408,3063.2,-4748.0,14320.1,-5.26477,-493.495,-145.684,30981.4,-42222.7,20654.7,-85.4784,-263.484,-43.8202,12400.2,16163.8,-131.1,-74.8122,-50.7747,-226.367,42163.7,-28803.9,15687.4,31.3776,25.8069,74.6944,9739.12,13671.9,969.942,-16.8065,-52.2615,-18.6999,-10285.9,-5856.39,-1200.6,-12.1348,-168.627,237.857,12349.6,690.336,6755.39,114.456,27.6747,-84.9264
3.409,2904.56,-4643.4,14715.1,-3.04908,-502.056,-146.795,46631.0,-38792.4,23534.4,-92.9987,-250.199,-45.7997,13029.8,16438.1,-279.076,-77.6106,-50.0055,-228.575,28678.9,-27603.5,13645.6,54.0667,38.1218,87.5176,10220.1,13911.4,952.832,-13.9797,-56.4744,-15.8046,-9635.42,-7640.74,-1643.43,-6.08854,-161.236,261.053,12068.0,1427.61,7848.7,119.946,28.6427,-88.1338
3.41,2726.99,-4603.33,14656.0,-0.938826,-511.549,-148.841,52467.2,-27410.3,21539.2,-99.7493,-264.644,-32.9211,13226.9,16841.6,-468.21,-79.4324,-49.5174,-230.168,17374.5,-26730.2,13709.2,72.3155,77.8586,125.391,10699.0,14406.5,942.196,-13.7125,-58.8977,-12.7811,-7822.6,-10481.3,-624.782,-4.6319,-154.495,271.803,11726.8,1598.14,8842.01,118.84,24.4003,-85.9881
3.411,2549.41,-4563.26,14596.9,1.17142,-521.041,-150.887,58303.4,-16028.1,19544.0,-106.5,-279.088,-20.0424,13424.0,17245.2,-657.345,-81.2542,-49.0292,-231.761,6070.06,-25856.9,13772.8,90.5643,117.595,163.265,11177.9,14901.7,931.56,-13.4453,-61.3211,-9.75768,-6009.78,-13321.8,393.861,-3.17525,-147.754,282.553,11385.6,1768.68,9835.33,117.735,20.1578,-83.8424
3.412,2371.84,-4523.2,14537.8,3.28167,-530.534,-152.932,64139.6,-4645.91,17548.8,-113.251,-293.533,-7.16371,13621.0,17648.7,-846.479,-83.076,-48.541,-233.354,-5234.34,-24983.6,13836.3,108.813,157.332,201.138,11656.7,15396.9,920.924,-13.1781,-63.7445,-6.73422,-4196.96,-16162.3,1412.5,-1.7186,-141.013,293.303,11044.4,1939.21,10828.6,116.63,15.9153,-81.6967
3.413,2194.27,-4483.13,14478.7,5.39193,-540.027,-154.978,69975.8,6736.27,15553.6,-120.001,-307.978,5.71497,13818.1,18052.3,-1035.61,-84.8979,-48.0528,-234.947,-16538.7,-24110.3,13899.9,127.062,197.069,239.012,12135.6,15892.0,910.287,-12.9109,-66.1678,-3.71076,-2384.14,-19002.9,2431.15,-0.261947,-134.272,304.053,10703.2,2109.74,11822.0,115.524,11.6729,-79.551
3.414,2074.75,-4369.02,14242.1,5.67474,-548.983,-157.211,67083.4,7835.08,12184.3,-116.099,-321.001,11.875,13779.2,18262.9,-907.264,-85.3419,-49.1791,-235.224,-24680.5,-23461.1,12875.7,125.483,231.957,262.055,12575.5,16318.2,956.232,-15.3893,-66.9453,-0.272698,-135.79,-21764.9,2876.8,-5.25495,-131.804,302.821,10607.2,2032.72,10970.9,111.643,10.5292,-76.5486
3.415,1984.28,-4217.88,13916.9,5.04383,-557.671,-159.538,59826.7,3792.21,8127.99,-106.869,-333.315,14.6757,13622.3,18377.0,-620.174,-85.0972,-51.1126,-234.843,-31240.9,-22923.9,11307.6,113.99,264.42,277.682,12995.9,16710.0,1030.47,-19.2405,-66.8999,3.37267,2330.32,-24487.6,3035.96,-13.4728,-131.471,295.597,10633.9,1831.91,9197.58,106.374,10.935,-73.1178
3.416,1893.8,-4066.74,13591.7,4.41292,-566.359,-161.865,52570.0,-250.654,4071.65,-97.6402,-345.628,17.4764,13465.5,18491.1,-333.083,-84.8524,-53.0461,-234.463,-37801.4,-22386.8,9739.53,102.498,296.883,293.31,13416.3,17101.7,1104.7,-23.0918,-66.8545,7.01804,4796.43,-27210.3,3195.12,-21.6906,-131.138,288.374,10660.6,1631.1,7424.3,101.104,11.3408,-69.687
3.417,1803.32,-3915.61,13266.4,3.78202,-575.047,-164.192,45313.3,-4293.52,15.3244,-88.411,-357.941,20.2771,13308.6,18605.3,-45.9925,-84.6077,-54.9796,-234.082,-44361.8,-21849.6,8171.46,91.0048,329.346,308.937,13836.7,17493.4,1178.94,-26.943,-66.8091,10.6634,7262.54,-29933.1,3354.28,-29.9084,-130.806,281.15,10687.3,1430.29,5651.01,95.835,11.7465,-66.2562
3.418,1711.06,-3762.67,13009.8,2.81181,-583.618,-166.088,38967.6,-8364.94,-3151.85,-78.5841,-367.915,23.6671,13237.0,18608.7,229.529,-84.2295,-57.6586,-233.758,-49866.0,-21356.3,6804.24,78.6599,354.934,321.032,14216.2,17763.8,1157.05,-31.0987,-65.3644,14.5276,9738.84,-32442.8,2852.8,-37.021,-125.631,270.376,10710.2,1202.34,4169.19,89.1932,12.0363,-62.8118
3.419,1612.55,-3603.42,12993.2,0.654024,-591.775,-166.48,35810.5,-12536.3,-3206.97,-66.6652,-369.702,29.1197,13464.0,18224.5,464.556,-83.3847,-62.9469,-233.634,-51673.3,-21016.3,6140.04,63.3322,356.458,320.763,14452.5,17609.6,798.725,-36.3201,-59.0221,19.1579,12250.8,-34207.3,39.0433,-40.2653,-103.512,247.176,10719.9,879.377,3707.49,77.748,11.9199,-59.3196
3.42,1514.05,-3444.18,12976.6,-1.50376,-599.931,-166.871,32653.4,-16707.6,-3262.09,-54.7462,-371.49,34.5724,13691.0,17840.3,699.583,-82.5399,-68.2352,-233.51,-53480.5,-20676.3,5475.85,48.0045,357.982,320.494,14688.8,17455.5,440.4,-41.5416,-52.6798,23.7882,14762.7,-35971.7,-2774.71,-43.5095,-81.3923,223.976,10729.5,556.412,3245.78,66.3028,11.8036,-55.8275
3.421,1415.54,-3284.93,12960.0,-3.66154,-608.088,-167.262,29496.3,-20879.0,-3317.22,-42.8273,-373.277,40.025,13918.0,17456.1,934.611,-81.6951,-73.5235,-233.386,-55287.8,-20336.3,4811.65,32.6768,359.507,320.224,14925.1,17301.3,82.0749,-46.763,-46.3375,28.4185,17274.6,-37736.1,-5588.46,-46.7538,-59.2728,200.775,10739.2,233.448,2784.08,54.8575,11.6873,-52.3354
3.422,1317.04,-3125.69,12943.4,-5.81932,-616.245,-167.653,26339.2,-25050.3,-3372.34,-30.9084,-375.064,45.4777,14145.0,17072.0,1169.64,-80.8503,-78.8118,-233.261,-57095.1,-19996.3,4147.46,17.3491,361.031,319.955,15161.4,17147.1,-276.25,-51.9844,-39.9952,33.0488,19786.6,-39500.5,-8402.22,-49.998,-37.1533,177.575,10748.8,-89.5168,2322.37,43.4123,11.5709,-48.8432
3.423,1034.93,-3211.53,13122.2,-9.70529,-625.797,-167.617,26534.5,-24872.5,-1025.49,-27.4298,-371.964,52.9168,14682.2,16635.1,1130.38,-80.5449,-84.8672,-234.043,-55628.8,-19695.7,4693.97,5.30189,340.131,318.0,15260.4,16670.0,-860.463,-55.398,-27.5931,38.1839,22009.5,-39813.0,-10763.9,-40.529,4.77351,151.524,10773.5,-555.879,2752.12,29.4696,10.485,-47.6526
3.424,700.369,-3367.4,13356.8,-14.085,-635.747,-167.458,27687.5,-23452.1,2007.64,-26.3628,-367.466,60.9233,15308.0,16183.1,1012.75,-80.3937,-91.1417,-235.083,-53227.2,-19406.4,5586.4,-5.80803,312.824,315.563,15320.1,16100.6,-1509.22,-58.2951,-13.4596,43.4632,24149.7,-39710.6,-12996.4,-27.4276,52.3595,124.658,10802.6,-1063.21,3436.56,14.8132,9.1221,-47.1194
3.425,365.805,-3523.27,13591.3,-18.4648,-645.697,-167.3,28840.6,-22031.7,5040.77,-25.2957,-362.969,68.9299,15933.8,15731.2,895.125,-80.2424,-97.4162,-236.123,-50825.6,-19117.0,6478.83,-16.918,285.517,313.126,15379.9,15531.2,-2157.97,-61.1922,0.673959,48.7425,26290.0,-39608.2,-15228.8,-14.3263,99.9455,97.792,10831.6,-1570.54,4121.0,0.156902,7.75917,-46.5863
3.426,31.2418,-3679.14,13825.9,-22.8445,-655.647,-167.141,29993.6,-20611.3,8073.9,-24.2287,-358.472,76.9365,16559.6,15279.3,777.498,-80.0911,-103.691,-237.163,-48424.0,-18827.7,7371.25,-28.0279,258.21,310.69,15439.6,14961.8,-2806.72,-64.0893,14.8075,54.0218,28430.3,-39505.9,-17461.3,-1.22487,147.531,70.9261,10860.6,-2077.88,4805.44,-14.4994,6.39623,-46.0532
3.427,-292.675,-3787.46,14025.6,-28.9281,-666.558,-167.312,29630.2,-18423.8,10495.5,-24.2606,-350.067,84.9474,17129.6,14905.5,682.608,-79.9749,-109.875,-238.329,-45191.4,-18153.3,8126.5,-36.9739,226.406,307.923,15435.1,14510.6,-3174.38,-69.4548,30.4617,59.5006,29868.8,-38714.6,-18425.6,13.424,192.25,47.5697,10913.0,-2282.59,5128.17,-26.8626,5.67,-45.7828
3.428,-595.297,-3800.67,14155.5,-38.4192,-679.392,-168.142,26234.0,-14702.1,11693.9,-26.4905,-333.846,92.967,17587.7,14687.9,633.192,-79.9288,-115.879,-239.744,-40296.9,-16709.0,8607.39,-41.5923,185.607,304.498,15302.0,14295.9,-2979.87,-79.757,49.1571,65.3781,29903.5,-36545.5,-16853.7,31.1676,231.234,31.2323,11012.1,-1882.07,4727.47,-34.6393,6.21716,-46.0377
3.429,-897.919,-3813.89,14285.4,-47.9104,-692.227,-168.972,22837.7,-10980.5,12892.3,-28.7205,-317.625,100.987,18045.8,14470.3,583.775,-79.8826,-121.884,-241.159,-35402.4,-15264.7,9088.28,-46.2106,144.808,301.073,15168.9,14081.2,-2785.35,-90.0592,67.8526,71.2556,29938.3,-34376.4,-15281.7,48.9113,270.218,14.8949,11111.1,-1481.55,4326.77,-42.416,6.76431,-46.2927
3.43,-1200.54,-3827.11,14415.3,-57.4016,-705.061,-169.801,19441.5,-7258.85,14090.7,-30.9504,-301.404,109.006,18503.9,14252.7,534.359,-79.8365,-127.888,-242.575,-30507.8,-13820.4,9569.17,-50.829,104.009,297.648,15035.8,13866.6,-2590.83,-100.361,86.548,77.1332,29973.1,-32207.3,-13709.7,66.655,309.202,-1.4425,11210.2,-1081.03,3926.07,-50.1927,7.31147,-46.5476
3.431,-1503.16,-3840.33,14545.1,-66.8927,-717.896,-170.631,16045.2,-3537.2,15289.1,-33.1803,-285.183,117.026,18962.0,14035.2,484.943,-79.7903,-133.892,-243.99,-25613.3,-12376.1,10050.1,-55.4473,63.2098,294.223,14902.7,13651.9,-2396.32,-110.664,105.243,83.0107,30007.8,-30038.2,-12137.7,84.3987,348.186,-17.7799,11309.3,-680.503,3525.37,-57.9695,7.85863,-46.8025
3.432,-1318.68,-3686.97,14621.1,-83.886,-738.227,-175.547,14792.6,346.254,16765.4,-43.7155,-256.525,122.685,19221.6,13803.9,428.771,-80.22,-139.476,-245.628,-22067.6,-11109.4,8453.32,-56.1309,34.8977,287.069,14783.7,13408.9,-1399.59,-122.035,113.093,87.0435,27667.5,-27253.0,-10329.5,88.9372,366.133,-22.576,11281.8,147.031,3639.79,-59.0606,8.03687,-45.1814
3.433,-1073.31,-3512.8,14690.2,-101.817,-759.496,-180.974,13807.9,4249.93,18276.5,-55.289,-226.312,128.049,19456.4,13570.9,371.754,-80.7093,-145.007,-247.294,-18690.5,-9864.96,6596.87,-56.3226,8.14642,279.449,14666.5,13162.3,-302.597,-133.541,119.587,90.8456,25030.2,-24390.7,-8491.66,91.8251,381.449,-25.9294,11238.5,1027.94,3818.6,-59.3159,8.169,-43.3257
3.434,-827.944,-3338.63,14759.4,-119.748,-780.765,-186.401,12823.3,8153.61,19787.7,-66.8624,-196.099,133.413,19691.2,13337.8,314.738,-81.1985,-150.539,-248.96,-15313.4,-8620.49,4740.43,-56.5143,-18.6048,271.829,14549.2,12915.8,794.4,-145.047,126.081,94.6477,22393.0,-21528.5,-6653.86,94.713,396.766,-29.2829,11195.3,1908.85,3997.42,-59.5713,8.30113,-41.4701
3.435,-582.575,-3164.45,14828.5,-137.679,-802.034,-191.828,11838.6,12057.3,21298.8,-78.4358,-165.885,138.777,19925.9,13104.8,257.721,-81.6877,-156.07,-250.626,-11936.3,-7376.03,2883.98,-56.706,-45.3561,264.209,14432.0,12669.3,1891.4,-156.552,132.575,98.4498,19755.8,-18666.3,-4816.06,97.601,412.083,-32.6363,11152.0,2789.76,4176.23,-59.8267,8.43326,-39.6144
3.436,26.7575,-2638.73,14129.9,-155.524,-819.309,-198.848,12047.1,13470.0,21605.7,-85.4566,-139.878,134.997,20063.6,12886.1,294.034,-82.5717,-159.514,-252.588,-9327.53,-6497.16,619.45,-56.0474,-60.1615,255.573,14235.0,12334.0,2813.71,-163.63,132.481,101.04,16774.2,-16162.7,-3927.72,93.8645,420.817,-33.413,11214.8,3427.91,4508.22,-57.9772,8.31129,-37.885
3.437,1091.04,-1673.56,12471.7,-173.26,-831.589,-207.861,13746.9,11768.9,20407.4,-86.7865,-119.127,119.789,20079.8,12685.3,447.008,-83.9491,-160.349,-254.918,-7679.15,-6075.27,-2155.18,-54.3258,-60.0346,245.668,13938.3,11887.7,3517.66,-165.172,124.153,102.114,13362.4,-14107.4,-4226.18,81.8476,421.321,-30.9687,11410.1,3762.59,5031.68,-53.4967,7.8717,-36.3134
3.438,2155.33,-708.386,10813.5,-190.996,-843.87,-216.873,15446.7,10067.8,19209.1,-88.1165,-98.3755,104.58,20096.0,12484.5,599.983,-85.3266,-161.184,-257.248,-6030.77,-5653.38,-4929.82,-52.6042,-59.9077,235.762,13641.6,11441.5,4221.62,-166.714,115.825,103.189,9950.5,-12052.1,-4524.65,69.8308,421.826,-28.5244,11605.5,4097.28,5555.14,-49.0163,7.4321,-34.7418
3.439,3219.62,256.785,9155.21,-208.732,-856.151,-225.885,17146.6,8366.74,18010.7,-89.4465,-77.6244,89.3712,20112.2,12283.6,752.957,-86.7041,-162.02,-259.579,-4382.38,-5231.49,-7704.45,-50.8827,-59.7808,225.857,13344.9,10995.2,4925.58,-168.256,107.497,104.264,6538.63,-9996.83,-4823.11,57.8139,422.33,-26.0802,11800.8,4431.97,6078.59,-44.5358,6.9925,-33.1702
3.44,4283.9,1221.95,7496.96,-226.468,-868.432,-234.898,18846.4,6665.67,16812.4,-90.7765,-56.8733,74.1626,20128.4,12082.8,905.931,-88.0815,-162.855,-261.909,-2734.0,-4809.6,-10479.1,-49.1611,-59.654,215.951,13048.2,10549.0,5629.53,-169.798,99.1687,105.338,3126.76,-7941.53,-5121.57,45.7971,422.835,-23.6359,11996.2,4766.65,6602.05,-40.0553,6.55291,-31.5986
