Time,RFoot_accel.x,RFoot_accel.y,RFoot_accel.z,RFoot_gyro.x,RFoot_gyro.y,RFoot_gyro.z,LFoot_accel.x,LFoot_accel.y,LFoot_accel.z,LFoot_gyro.x,LFoot_gyro.y,LFoot_gyro.z,RShank_accel.x,RShank_accel.y,RShank_accel.z,RShank_gyro.x,RShank_gyro.y,RShank_gyro.z,LShank_accel.x,LShank_accel.y,LShank_accel.z,LShank_gyro.x,LShank_gyro.y,LShank_gyro.z,RThigh_accel.x,RThigh_accel.y,RThigh_accel.z,RThigh_gyro.x,RThigh_gyro.y,RThigh_gyro.z,LThigh_accel.x,LThigh_accel.y,LThigh_accel.z,LThigh_gyro.x,LThigh_gyro.y,LThigh_gyro.z,Pelvis_accel.x,Pelvis_accel.y,Pelvis_accel.z,Pelvis_gyro.x,Pelvis_gyro.y,Pelvis_gyro.z
2.39,8154.51,-4547.01,8258.28,2.23192,330.891,288.486,5845.29,137.345,7235.97,30.7333,-81.2677,3.87062,2939.16,11507.5,860.324,114.624,88.695,394.956,-3455.22,-8967.1,-692.755,-24.7763,-53.4683,49.3095,-8866.7,1621.62,-134.007,-43.777,85.0274,142.527,-3631.62,-6930.6,-1671.73,4.14862,-81.4867,105.305,5773.35,-54.932,820.079,79.4182,-1.82113,60.669
2.391,8300.54,-4540.84,8336.06,2.51735,328.838,291.11,5849.67,220.698,7216.55,30.6172,-80.8432,3.49398,2857.11,11629.8,804.738,115.392,90.842,395.852,-3494.33,-8992.98,-760.047,-24.4713,-53.6511,49.4145,-8772.69,1634.46,-134.212,-42.2997,82.2398,142.732,-3535.47,-6989.14,-1513.78,0.689536,-85.578,104.626,5816.13,-37.5401,820.03,79.1081,-2.36286,60.5328
2.392,8413.16,-4557.65,8332.67,3.06619,326.966,293.13,5885.65,356.608,7157.46,30.4614,-80.3382,3.44496,2778.93,11697.2,686.309,116.358,92.8816,396.374,-3535.79,-8984.65,-905.079,-24.3015,-53.8335,49.5187,-8692.26,1700.66,-169.681,-40.9385,79.933,142.951,-3331.28,-7081.26,-1456.47,-0.518871,-90.9757,104.209,5804.67,-27.948,790.443,78.7804,-2.98695,60.3604
2.393,8521.6,-4577.33,8319.13,3.64796,325.115,295.074,5925.59,499.088,7093.42,30.3005,-79.8232,3.43689,2701.22,11757.8,560.024,117.349,94.9078,396.85,-3577.54,-8972.04,-1059.83,-24.1486,-54.016,49.6228,-8613.52,1773.52,-209.559,-39.5918,77.6864,143.173,-3113.58,-7177.58,-1411.75,-1.44594,-96.5367,103.825,5786.42,-19.3308,757.164,78.4506,-3.62134,60.1835
2.394,8630.04,-4597.01,8305.6,4.22973,323.265,297.018,5965.53,641.568,7029.38,30.1397,-79.3081,3.42883,2623.51,11818.4,433.74,118.339,96.934,397.326,-3619.29,-8959.43,-1214.58,-23.9957,-54.1984,49.7269,-8534.78,1846.39,-249.436,-38.2452,75.4398,143.394,-2895.88,-7273.9,-1367.02,-2.37302,-102.098,103.441,5768.17,-10.7136,723.885,78.1208,-4.25573,60.0066
2.395,8738.48,-4616.69,8292.07,4.8115,321.415,298.962,6005.47,784.047,6965.33,29.9788,-78.793,3.42076,2545.81,11879,307.455,119.33,98.9601,397.802,-3661.04,-8946.82,-1369.33,-23.8428,-54.3809,49.8311,-8456.04,1919.26,-289.314,-36.8985,73.1932,143.616,-2678.18,-7370.22,-1322.3,-3.30009,-107.659,103.057,5749.92,-2.09648,690.606,77.791,-4.89012,59.8297
2.396,8761.81,-4647.1,8285.47,5.64373,319.209,300.325,6045.46,936.022,6889.93,29.8208,-78.1276,3.50996,2524.54,11957.5,181.85,120.335,101.157,398.087,-3680.51,-8926.1,-1565.78,-23.7351,-54.5213,50.0459,-8386.96,1957.28,-347.699,-35.5416,71.0086,143.843,-2445.73,-7467.43,-1349.77,-3.34017,-112.815,102.779,5742.63,-18.0979,654.437,77.4745,-5.59955,59.5794
2.397,8678.75,-4690.9,8287.55,6.78902,316.559,300.961,6085.5,1099.87,6800.32,29.6663,-77.274,3.72076,2573.81,12058.4,57.095,121.356,103.567,398.134,-3672.13,-8895.25,-1814.36,-23.684,-54.6092,50.3991,-8329.94,1951.73,-429.217,-34.1721,68.9017,144.078,-2194.84,-7565.73,-1467.48,-2.27153,-117.466,102.636,5749.02,-64.8724,614.657,77.1747,-6.40277,59.2374
2.398,8595.69,-4734.71,8289.63,7.93431,313.908,301.598,6125.55,1263.71,6710.72,29.5117,-76.4205,3.93155,2623.09,12159.3,-67.6605,122.377,105.977,398.181,-3663.75,-8864.41,-2062.94,-23.6329,-54.697,50.7523,-8272.92,1946.18,-510.736,-32.8025,66.7948,144.313,-1943.95,-7664.04,-1585.19,-1.20289,-122.116,102.492,5755.42,-111.647,574.877,76.875,-7.206,58.8954
2.399,8512.63,-4778.51,8291.71,9.0796,311.257,302.234,6165.6,1427.55,6621.11,29.3572,-75.567,4.14235,2672.37,12260.2,-192.416,123.398,108.387,398.227,-3655.37,-8833.56,-2311.52,-23.5818,-54.7849,51.1055,-8215.9,1940.63,-592.254,-31.433,64.6879,144.548,-1693.06,-7762.35,-1702.91,-0.134244,-126.767,102.349,5761.82,-158.421,535.096,76.5752,-8.00923,58.5534
2.4,8429.57,-4822.32,8293.78,10.2249,308.606,302.87,6205.65,1591.4,6531.5,29.2027,-74.7135,4.35314,2721.65,12361.1,-317.171,124.419,110.797,398.274,-3646.99,-8802.71,-2560.1,-23.5307,-54.8727,51.4587,-8158.88,1935.08,-673.772,-30.0634,62.581,144.783,-1442.17,-7860.66,-1820.62,0.9344,-131.417,102.205,5768.22,-205.196,495.316,76.2755,-8.81246,58.2114
2.401,8166.86,-4880.61,8242.84,11.6466,305.092,301.554,6208.75,1830.88,6470.42,29.2037,-73.7761,4.6927,2926.67,12464.7,-236.266,124.77,112.158,398.4,-3503.95,-8756.41,-2715.57,-23.3838,-54.8915,52.0196,-8073.57,1936.02,-765.929,-28.802,60.7765,144.964,-1219.03,-7928.39,-2072.55,1.73138,-134.455,101.971,5795.73,-273.647,487.625,76.2463,-9.67496,57.7992
2.402,7904.14,-4938.91,8191.9,13.0683,301.577,300.238,6211.86,2070.37,6409.34,29.2047,-72.8387,5.03226,3131.69,12568.3,-155.361,125.12,113.518,398.525,-3360.92,-8710.11,-2871.04,-23.2368,-54.9102,52.5807,-7988.26,1936.96,-858.085,-27.5407,58.9721,145.145,-995.885,-7996.12,-2324.47,2.52835,-137.493,101.737,5823.24,-342.098,479.934,76.2172,-10.5375,57.3869
2.403,7641.43,-4997.21,8140.96,14.4901,298.062,298.921,6214.96,2309.85,6348.26,29.2057,-71.9013,5.37182,3336.72,12671.8,-74.4564,125.471,114.879,398.651,-3217.88,-8663.81,-3026.51,-23.0899,-54.9289,53.1416,-7902.95,1937.9,-950.242,-26.2793,57.1677,145.325,-772.742,-8063.85,-2576.4,3.32533,-140.531,101.503,5850.75,-410.548,472.243,76.1881,-11.4,56.9747
2.404,7378.72,-5055.5,8090.02,15.9118,294.548,297.605,6218.07,2549.34,6287.17,29.2067,-70.964,5.71138,3541.74,12775.4,6.44863,125.822,116.24,398.776,-3074.85,-8617.5,-3181.98,-22.943,-54.9476,53.7026,-7817.64,1938.84,-1042.4,-25.0179,55.3632,145.506,-549.599,-8131.59,-2828.33,4.1223,-143.569,101.269,5878.26,-478.999,464.552,76.1589,-12.2625,56.5625
2.405,7152.09,-5096.67,8088.96,17.547,290.814,295.449,6167.5,2779,6239.62,29.3319,-70.0634,6.31811,3760.96,12883.2,53.7191,125.864,117.172,399.01,-2926.84,-8544.33,-3344.61,-22.8278,-55.1443,54.3614,-7764.35,1953.02,-1131.66,-23.5594,53.5083,145.717,-389.452,-8199.58,-3045.95,4.40564,-146.109,100.916,5899.03,-536.259,453.888,76.3935,-12.999,56.1813
2.406,6954.32,-5124.14,8127.81,19.3531,286.904,292.62,6074,3000.81,6202.89,29.5564,-69.1922,7.13857,3991.53,12994.3,74.0819,125.66,117.762,399.332,-2774.85,-8449.67,-3512.95,-22.738,-55.4833,55.0983,-7736.68,1977.79,-1218.59,-21.9432,51.6129,145.952,-279.703,-8267.79,-3236.12,4.27806,-148.249,100.467,5914.41,-584.567,440.845,76.839,-13.6347,55.8249
2.407,6756.56,-5151.61,8166.66,21.1592,282.994,289.791,5980.5,3222.61,6166.16,29.7809,-68.3211,7.95902,4222.1,13105.4,94.4447,125.456,118.351,399.653,-2622.87,-8355.01,-3681.29,-22.6482,-55.8223,55.8353,-7709.01,2002.56,-1305.53,-20.3269,49.7176,146.187,-169.953,-8336,-3426.3,4.15047,-150.39,100.019,5929.78,-632.875,427.802,77.2846,-14.2704,55.4685
2.408,6558.8,-5179.08,8205.51,22.9653,279.084,286.962,5887,3444.41,6129.43,30.0054,-67.45,8.77948,4452.67,13216.5,114.808,125.252,118.94,399.974,-2470.88,-8260.34,-3849.64,-22.5584,-56.1614,56.5722,-7681.34,2027.33,-1392.47,-18.7107,47.8222,146.422,-60.2036,-8404.21,-3616.47,4.02289,-152.531,99.5701,5945.16,-681.183,414.759,77.7301,-14.9061,55.1122
2.409,6388.75,-5187.91,8269.23,24.7908,275.091,284.171,5797.28,3663.17,6094.67,30.215,-66.5745,9.64304,4658.72,13330.4,138.325,125.013,119.493,400.342,-2334.61,-8166.89,-4030.82,-22.4782,-56.4369,57.3029,-7648.9,2041.7,-1478.76,-17.1128,45.9222,146.655,46.1462,-8470.93,-3799.13,3.89998,-154.646,99.1577,5956.79,-723.078,402.267,78.1272,-15.5417,54.768
2.41,6440.41,-5047.67,8531.94,26.7719,270.441,281.685,5737.73,3857.55,6075.68,30.3061,-65.6645,10.8514,4668.53,13466.5,187.08,124.499,119.745,401.076,-2324.09,-8083.09,-4314.75,-22.4747,-56.2046,57.9834,-7578.26,1972.79,-1559.89,-15.6615,43.9844,146.875,125.298,-8525.72,-3921.69,3.81442,-156.551,99.035,5938.43,-713.669,394.177,78.1364,-16.177,54.5215
2.411,6492.07,-4907.43,8794.66,28.7529,265.791,279.199,5678.19,4051.93,6056.7,30.3971,-64.7544,12.0597,4678.33,13602.5,235.836,123.984,119.998,401.811,-2313.56,-7999.29,-4598.68,-22.4712,-55.9722,58.6638,-7507.63,1903.89,-1641.01,-14.2102,42.0466,147.096,204.45,-8580.51,-4044.25,3.72887,-158.456,98.9122,5920.08,-704.261,386.087,78.1456,-16.8123,54.2751
2.412,6543.74,-4767.18,9057.37,30.734,261.14,276.713,5618.65,4246.3,6037.71,30.4882,-63.8443,13.2681,4688.14,13738.6,284.591,123.47,120.251,402.546,-2303.03,-7915.49,-4882.61,-22.4677,-55.7399,59.3442,-7436.99,1834.99,-1722.13,-12.759,40.1088,147.316,283.601,-8635.3,-4166.8,3.64331,-160.361,98.7894,5901.72,-694.853,377.997,78.1548,-17.4476,54.0286
2.413,6595.4,-4626.94,9320.09,32.7151,256.49,274.226,5559.11,4440.68,6018.72,30.5792,-62.9343,14.4764,4697.95,13874.6,333.346,122.956,120.504,403.281,-2292.5,-7831.69,-5166.53,-22.4642,-55.5075,60.0247,-7366.35,1766.09,-1803.26,-11.3077,38.171,147.537,362.753,-8690.09,-4289.36,3.55776,-162.265,98.6666,5883.36,-685.445,369.908,78.164,-18.0828,53.7821
2.414,6859.79,-4497.14,9601.23,34.761,252.007,272.654,5536.95,4566.57,5986.53,30.7667,-61.952,15.7536,4574.13,14026.2,401.97,122.129,120.19,403.851,-2329.16,-7783.12,-5414.9,-22.4241,-54.8923,60.6304,-7289.3,1745.68,-1853.12,-10.0523,36.2238,147.671,402.611,-8711.69,-4382.82,3.57116,-164.287,98.3843,5865.6,-676.155,392.569,78.1548,-18.9678,53.6681
2.415,7230.54,-4372.57,9891.59,36.8394,247.607,271.54,5533.48,4658.23,5947.74,31.0023,-60.9336,17.065,4383.49,14185.4,480.528,121.147,119.592,404.339,-2389.42,-7752.17,-5645.49,-22.3658,-54.0856,61.1987,-7209.04,1749.53,-1887.36,-8.89501,34.2718,147.761,422.822,-8716.69,-4461.73,3.63404,-166.366,98.0222,5848.14,-666.925,430.606,78.1363,-19.9775,53.6203
2.416,7601.29,-4248,10182,38.9178,243.207,270.425,5530.02,4749.88,5908.95,31.2379,-59.9152,18.3765,4192.85,14344.7,559.086,120.164,118.995,404.827,-2449.67,-7721.22,-5876.07,-22.3075,-53.2789,61.7671,-7128.79,1753.37,-1921.6,-7.73768,32.3198,147.851,443.033,-8721.7,-4540.65,3.69693,-168.445,97.6601,5830.68,-657.694,468.644,78.1179,-20.9872,53.5724
2.417,7972.04,-4123.43,10472.3,40.9961,238.807,269.31,5526.55,4841.53,5870.16,31.4735,-58.8968,19.688,4002.21,14504,637.644,119.182,118.398,405.315,-2509.92,-7690.27,-6106.66,-22.2491,-52.4722,62.3355,-7048.53,1757.22,-1955.84,-6.58036,30.3678,147.941,463.244,-8726.7,-4619.56,3.75981,-170.524,97.298,5813.22,-648.464,506.681,78.0995,-21.997,53.5246
2.418,8400.72,-4036.84,10771.3,43.0694,234.82,268.46,5539.65,4928.89,5834.48,31.6842,-57.9237,21.0246,3781.86,14687.7,703.694,118.081,117.875,405.757,-2572.05,-7664.34,-6309.06,-22.1724,-51.8058,62.9024,-6969.97,1754.05,-1982.58,-5.50011,28.4132,147.932,483.412,-8727.57,-4693.1,3.79586,-172.6,96.9592,5806.29,-645.415,541.534,78.1641,-23.0342,53.4528
2.419,9032.18,-4083.18,11100.6,45.1245,232.283,268.535,5610.71,5001.19,5809.73,31.8075,-57.1093,22.4487,3457.53,14957,725.966,116.567,117.615,406.035,-2640.71,-7655.95,-6412.79,-22.0314,-51.6301,63.4643,-6897.35,1726.34,-1983.09,-4.68965,26.4495,147.576,503.43,-8713.98,-4747.83,3.73801,-174.666,96.7016,5836.21,-664.003,565.245,78.5198,-24.1677,53.2972
2.42,9663.64,-4129.52,11430,47.1796,229.745,268.609,5681.77,5073.5,5784.98,31.9307,-56.295,23.8728,3133.19,15226.3,748.237,115.053,117.355,406.314,-2709.37,-7647.56,-6516.53,-21.8903,-51.4544,64.0263,-6824.73,1698.64,-1983.59,-3.87919,24.4858,147.22,523.449,-8700.39,-4802.57,3.68016,-176.731,96.4441,5866.13,-682.591,588.956,78.8754,-25.3012,53.1417
2.421,10295.1,-4175.85,11759.3,49.2347,227.207,268.684,5752.84,5145.8,5760.23,32.054,-55.4806,25.297,2808.86,15495.5,770.508,113.539,117.095,406.592,-2778.03,-7639.17,-6620.26,-21.7493,-51.2788,64.5882,-6752.12,1670.93,-1984.09,-3.06873,22.5221,146.865,543.468,-8686.8,-4857.3,3.6223,-178.796,96.1866,5896.04,-701.179,612.666,79.2311,-26.4347,52.9861
2.422,10926.6,-4222.2,12088.6,51.2898,224.669,268.759,5823.9,5218.1,5735.48,32.1773,-54.6662,26.7211,2484.52,15764.8,792.78,112.025,116.835,406.871,-2846.69,-7630.79,-6724,-21.6083,-51.1031,65.1502,-6679.5,1643.23,-1984.59,-2.25827,20.5584,146.509,563.486,-8673.21,-4912.03,3.56445,-180.861,95.929,5925.96,-719.767,636.377,79.5867,-27.5682,52.8305
2.423,11717.7,-4369.8,12392.4,52.7892,224.645,269.739,5920.67,5313.21,5728.78,32.302,-53.9031,28.4206,2076.83,16087.2,805.215,110.14,117.652,407.395,-2887.11,-7641.29,-6755.26,-21.482,-51.4784,65.8203,-6612.44,1631.7,-1965.85,-1.64587,19.1142,145.829,559.601,-8654.82,-4913.96,3.83032,-182.834,95.6579,5909.68,-699.834,618.307,79.527,-28.57,52.6651
2.424,12554.6,-4546.35,12689,54.1297,225.339,270.979,6024.79,5414.84,5727.24,32.4271,-53.1547,30.1987,1645.31,16424.7,814.841,108.149,118.777,407.99,-2919.46,-7657.18,-6765.83,-21.36,-52.0111,66.5212,-6546.97,1624.81,-1941.62,-1.09006,17.8185,145.056,548.886,-8635.06,-4900.81,4.18868,-184.781,95.3828,5880.2,-668.895,588.3,79.3485,-29.5342,52.4969
2.425,13391.4,-4722.89,12985.5,55.4702,226.033,272.218,6128.9,5516.47,5725.71,32.5522,-52.4062,31.9769,1213.8,16762.2,824.466,106.158,119.901,408.585,-2951.81,-7673.08,-6776.39,-21.238,-52.5438,67.2222,-6481.5,1617.91,-1917.38,-0.534249,16.5227,144.283,538.171,-8615.3,-4887.66,4.54704,-186.728,95.1077,5850.72,-637.957,558.293,79.1701,-30.4984,52.3287
2.426,14228.2,-4899.44,13282.1,56.8107,226.727,273.457,6233.02,5618.09,5724.17,32.6773,-51.6578,33.755,782.287,17099.7,834.091,104.167,121.026,409.18,-2984.16,-7688.97,-6786.95,-21.116,-53.0765,67.9231,-6416.03,1611.01,-1893.15,0.021561,15.227,143.51,527.456,-8595.54,-4874.51,4.90541,-188.675,94.8326,5821.24,-607.018,528.286,78.9916,-31.4625,52.1605
2.427,15162.5,-5063.78,13534.1,57.8506,229.145,275.113,6309.96,5697.86,5733.58,32.8357,-50.9368,35.5853,339.667,17409.2,857.498,102.312,122.495,409.74,-3005.24,-7710.58,-6771.66,-20.9161,-53.8413,68.6516,-6357.82,1589.26,-1864.39,0.601899,14.1422,142.612,523.836,-8586.73,-4844.69,5.27899,-190.432,94.5287,5789.42,-565.52,492.314,78.7744,-32.3731,51.9974
2.428,16291.7,-5203.72,13697.3,58.2891,235.013,277.601,6332.55,5733.9,5764.89,33.0609,-50.2707,37.5198,-125.167,17662.7,908.466,100.731,124.654,410.232,-3003.8,-7743.62,-6704.64,-20.5602,-55.0703,69.4351,-6314.1,1537.81,-1826.59,1.23129,13.4795,141.463,534.404,-8599.84,-4781.53,5.68299,-191.81,94.1671,5752.92,-502.902,444.409,78.4797,-33.1765,51.8442
2.429,17420.9,-5343.67,13860.4,58.7276,240.881,280.089,6355.14,5769.95,5796.2,33.2861,-49.6045,39.4543,-590.001,17916.2,959.434,99.15,126.813,410.725,-3002.36,-7776.66,-6637.63,-20.2044,-56.2992,70.2185,-6270.38,1486.36,-1788.79,1.86069,12.8168,140.314,544.972,-8612.95,-4718.37,6.087,-193.189,93.8054,5716.43,-440.285,396.505,78.185,-33.9799,51.6911
2.43,18550.1,-5483.61,14023.5,59.166,246.749,282.577,6377.73,5805.99,5827.5,33.5112,-48.9384,41.3888,-1054.84,18169.7,1010.4,97.5689,128.972,411.217,-3000.92,-7809.7,-6570.62,-19.8485,-57.5281,71.002,-6226.67,1434.92,-1750.99,2.49009,12.1541,139.166,555.541,-8626.06,-4655.22,6.49101,-194.567,93.4438,5679.93,-377.667,348.6,77.8903,-34.7832,51.538
2.431,19679.3,-5623.56,14186.6,59.6045,252.617,285.065,6400.32,5842.04,5858.81,33.7364,-48.2722,43.3233,-1519.67,18423.2,1061.37,95.9877,131.13,411.709,-2999.48,-7842.74,-6503.6,-19.4927,-58.757,71.7854,-6182.95,1383.47,-1713.19,3.11948,11.4913,138.017,566.109,-8639.17,-4592.06,6.89502,-195.945,93.0822,5643.44,-315.05,300.696,77.5955,-35.5866,51.3849
2.432,20730.3,-5725.42,14255.5,61.0215,259.887,287.801,6370.54,5796.9,5909.09,33.8144,-47.7428,45.1759,-2020.97,18686.3,1080.62,94.9212,133.022,412.045,-2957.22,-7917.21,-6428.09,-18.7804,-60.2988,72.4579,-6084.54,1349.47,-1610.55,3.89185,11.8107,136.564,591.419,-8639.48,-4562.14,7.04082,-196.582,92.8354,5620.19,-245.008,261.625,77.691,-36.2835,51.1685
2.433,21771.5,-5822.52,14312.7,62.5609,267.331,290.568,6334.21,5741.6,5961.73,33.874,-47.2305,47.0183,-2526.83,18950.6,1095.91,93.9189,134.879,412.362,-2909.85,-7996.86,-6351.52,-18.0236,-61.8798,73.1165,-5979.29,1317.66,-1499.82,4.6821,12.2529,135.072,618.572,-8638.19,-4536.39,7.15434,-197.126,92.603,5598.61,-174.038,223.658,77.8352,-36.9671,50.9443
2.434,22812.8,-5919.62,14369.9,64.1002,274.776,293.335,6297.87,5686.31,6014.38,33.9336,-46.7181,48.8608,-3032.69,19214.9,1111.2,92.9166,136.737,412.679,-2862.48,-8076.51,-6274.95,-17.2668,-63.4607,73.7751,-5874.04,1285.84,-1389.08,5.47234,12.695,133.581,645.725,-8636.9,-4510.63,7.26786,-197.67,92.3705,5577.03,-103.068,185.691,77.9793,-37.6508,50.72
2.435,23854,-6016.72,14427,65.6395,282.221,296.102,6261.54,5631.02,6067.02,33.9932,-46.2058,50.7032,-3538.55,19479.2,1126.49,91.9144,138.594,412.995,-2815.12,-8156.16,-6198.38,-16.51,-65.0416,74.4338,-5768.8,1254.03,-1278.35,6.26259,13.1371,132.089,672.877,-8635.61,-4484.88,7.38137,-198.214,92.1381,5555.44,-32.098,147.725,78.1235,-38.3344,50.4957
2.436,24534,-6109.48,14553.2,67.5896,288.613,298.401,6220.35,5574.02,6111.47,34.0987,-45.7533,52.4913,-3915.67,19756.2,1096.14,90.8966,139.932,413.456,-2784.91,-8240.77,-6137.5,-15.7775,-66.3619,75.0755,-5643.95,1248.13,-1179.31,7.08472,14.0946,130.499,708.712,-8623.99,-4449.78,7.39823,-198.486,91.9581,5525.17,34.2495,113.969,78.4265,-38.7793,50.1981
2.437,24762.3,-6196.82,14765.6,70.0533,293.689,300.114,6173.09,5514.89,6145.66,34.2617,-45.3758,54.2115,-4131.87,20049.1,1008.76,89.8596,140.62,414.095,-2776.16,-8331.57,-6096.24,-15.0753,-67.3565,75.696,-5494.61,1274.62,-1094.89,7.94671,15.6963,128.786,755.399,-8599.44,-4403,7.29427,-198.418,91.8437,5484.03,94.8191,85.4769,78.9278,-38.9259,49.8087
2.438,24990.7,-6284.16,14978,72.5169,298.765,301.828,6125.82,5455.75,6179.86,34.4247,-44.9982,55.9317,-4348.07,20342,921.38,88.8225,141.308,414.735,-2767.41,-8422.37,-6054.97,-14.3731,-68.3511,76.3165,-5345.27,1301.11,-1010.48,8.80869,17.2981,127.073,802.087,-8574.89,-4356.23,7.19031,-198.35,91.7293,5442.89,155.389,56.985,79.4292,-39.0724,49.4193
2.439,25219,-6371.5,15190.4,74.9806,303.841,303.542,6078.56,5396.62,6214.05,34.5876,-44.6206,57.6519,-4564.27,20634.9,833.997,87.7854,141.996,415.374,-2758.66,-8513.17,-6013.7,-13.671,-69.3457,76.9371,-5195.92,1327.6,-926.062,9.67068,18.8998,125.36,848.774,-8550.35,-4309.45,7.08634,-198.282,91.6149,5401.76,215.958,28.4931,79.9306,-39.219,49.03
2.44,25447.4,-6458.84,15402.8,77.4443,308.917,305.256,6031.29,5337.48,6248.25,34.7506,-44.243,59.3721,-4780.47,20927.7,746.615,86.7484,142.684,416.014,-2749.91,-8603.98,-5972.44,-12.9688,-70.3402,77.5576,-5046.58,1354.09,-841.646,10.5327,20.5015,123.646,895.461,-8525.8,-4262.67,6.98238,-198.214,91.5005,5360.62,276.528,0.00122663,80.432,-39.3655,48.6406
2.441,24765.2,-6361.37,15380.8,78.5491,311.71,305.218,6015.44,5218.11,6259.33,34.945,-43.8467,60.9264,-4508.81,21279.7,720.417,84.7441,142.286,418.094,-2778.14,-8672.83,-5857.8,-12.3187,-70.5306,78.1725,-4848.31,1371.43,-819.755,12.2143,23.1879,121.735,943.043,-8512.39,-4222.28,6.58598,-197.747,91.7234,5355.09,310.082,-9.69557,81.3139,-39.2655,48.391
2.442,24083,-6263.91,15358.8,79.654,314.503,305.179,5999.59,5098.75,6270.41,35.1394,-43.4504,62.4807,-4237.15,21631.6,694.218,82.7399,141.889,420.175,-2806.38,-8741.69,-5743.17,-11.6685,-70.7209,78.7874,-4650.04,1388.78,-797.864,13.896,25.8743,119.824,990.626,-8498.99,-4181.89,6.18958,-197.279,91.9464,5349.56,343.635,-19.3924,82.1959,-39.1656,48.1415
2.443,23400.8,-6166.45,15336.8,80.7588,317.296,305.141,5983.74,4979.38,6281.49,35.3337,-43.0541,64.0351,-3965.49,21983.6,668.02,80.7356,141.491,422.255,-2834.61,-8810.54,-5628.53,-11.0183,-70.9113,79.4023,-4451.78,1406.13,-775.973,15.5776,28.5607,117.913,1038.21,-8485.58,-4141.5,5.79317,-196.812,92.1694,5344.03,377.189,-29.0892,83.0778,-39.0656,47.8919
2.444,22718.6,-6068.98,15314.8,81.8637,320.089,305.103,5967.89,4860.01,6292.57,35.5281,-42.6578,65.5894,-3693.84,22335.5,641.822,78.7314,141.094,424.336,-2862.84,-8879.4,-5513.9,-10.3681,-71.1016,80.0173,-4253.51,1423.48,-754.081,17.2593,31.2471,116.002,1085.79,-8472.18,-4101.11,5.39677,-196.345,92.3923,5338.5,410.742,-38.7859,83.9598,-38.9656,47.6423
2.445,22024.8,-5785.71,15262.4,81.8991,322.423,304.573,5979.95,4701.78,6347.19,35.445,-42.3093,66.8327,-3284.5,22566.1,706.576,76.2957,139.645,426.451,-2845.96,-8952.56,-5320.44,-9.46241,-71.3004,80.6702,-4031.52,1461.06,-749.311,19.3463,33.6954,113.955,1135.62,-8487.62,-4091.13,4.95131,-195.821,92.6698,5333.08,461.318,-28.0755,84.8374,-38.8875,47.3911
2.446,21321.6,-5353.78,15185.6,81.079,324.39,303.648,6014.34,4512.46,6436.65,35.1399,-41.9992,67.8273,-2765.03,22699.7,844.091,73.5148,137.354,428.595,-2792.99,-9029.17,-5063.91,-8.35238,-71.5061,81.3535,-3790.55,1514.84,-758.237,21.7576,35.9533,111.8,1187.26,-8526.13,-4105.49,4.4666,-195.254,92.9909,5327.74,525.512,-1.03914,85.7116,-38.8268,47.1386
2.447,20618.4,-4921.86,15108.9,80.2589,326.357,302.723,6048.73,4323.14,6526.11,34.8349,-41.689,68.8218,-2245.55,22833.3,981.606,70.734,135.064,430.738,-2740.02,-9105.78,-4807.38,-7.24236,-71.7117,82.0368,-3549.57,1568.62,-767.163,24.1689,38.2112,109.644,1238.89,-8564.65,-4119.84,3.98188,-194.686,93.312,5322.41,589.705,25.9972,86.5857,-38.7662,46.8861
2.448,19915.2,-4489.93,15032.1,79.4388,328.324,301.798,6083.12,4133.81,6615.56,34.5298,-41.3789,69.8164,-1726.07,22966.9,1119.12,67.9531,132.774,432.882,-2687.06,-9182.38,-4550.86,-6.13233,-71.9173,82.7201,-3308.6,1622.4,-776.089,26.5803,40.4691,107.489,1290.52,-8603.17,-4134.2,3.49717,-194.119,93.6331,5317.08,653.899,53.0335,87.4599,-38.7056,46.6337
2.449,19289.3,-4080.65,14956.8,78.6207,330.28,300.792,6116.1,3953.65,6707.12,34.1795,-41.116,70.7664,-1232.07,23082.9,1252.49,65.1618,130.376,434.786,-2632.08,-9254.79,-4298.86,-4.99965,-72.1014,83.398,-3064.51,1683.82,-786.516,29.0073,42.6574,105.298,1339.72,-8647.32,-4151.42,3.00077,-193.535,93.9523,5310.63,722.1,79.8341,88.2654,-38.6626,46.3881
2.45,19281.6,-3852.54,14893.2,77.8192,332.142,299.135,6137.75,3846.74,6815.44,33.4679,-41.2311,71.36,-941.862,23058.2,1352.68,62.2866,127.111,434.776,-2560.97,-9293.61,-4083.09,-3.68576,-72.1138,84.0329,-2795.41,1806.31,-808.947,31.5598,44.2889,102.817,1369.36,-8736.54,-4191.61,2.41088,-192.827,94.2563,5295.2,822.363,104.749,88.5214,-38.7605,46.1983
2.451,19273.9,-3624.43,14829.6,77.0176,334.004,297.478,6159.4,3739.84,6923.77,32.7562,-41.3462,71.9536,-651.655,23033.6,1452.86,59.4114,123.846,434.767,-2489.87,-9332.43,-3867.32,-2.37186,-72.1262,84.6678,-2526.32,1928.81,-831.378,34.1124,45.9203,100.337,1399,-8825.75,-4231.79,1.82098,-192.119,94.5603,5279.77,922.625,129.664,88.7775,-38.8585,46.0085
2.452,19266.3,-3396.32,14766,76.2161,335.866,295.821,6181.05,3632.94,7032.1,32.0445,-41.4614,72.5471,-361.447,23008.9,1553.05,56.5363,120.582,434.757,-2418.76,-9371.25,-3651.56,-1.05797,-72.1386,85.3028,-2257.23,2051.3,-853.809,36.6649,47.5517,97.857,1428.64,-8914.97,-4271.97,1.23109,-191.411,94.8643,5264.34,1022.89,154.579,89.0336,-38.9564,45.8187
2.453,19258.6,-3168.21,14702.3,75.4146,337.729,294.165,6202.7,3526.03,7140.42,31.3329,-41.5765,73.1407,-71.2391,22984.2,1653.24,53.6611,117.317,434.748,-2347.66,-9410.06,-3435.79,0.255924,-72.151,85.9377,-1988.14,2173.8,-876.24,39.2175,49.1831,95.3767,1458.28,-9004.19,-4312.16,0.641191,-190.703,95.1683,5248.91,1123.15,179.493,89.2896,-39.0544,45.6288
2.454,19561.7,-3191.12,14605.8,75.0855,339.015,291.802,6204.27,3417.2,7230.26,30.6177,-41.8489,73.6704,-23.1616,22997.5,1614.08,51.325,114.798,433.329,-2309.26,-9481.56,-3260.04,1.58517,-71.714,86.5772,-1705.84,2336.02,-866.871,41.0954,49.869,92.787,1494.91,-9109.95,-4327.67,0.344252,-189.925,95.4543,5271.79,1223.18,203.812,89.1344,-39.4174,45.7564
2.455,20020.2,-3339.54,14492.8,74.9928,340.013,289.086,6195.79,3307.4,7310.86,29.9008,-42.1999,74.1681,-96.1492,23029.7,1505.25,49.2584,112.651,431.206,-2287.21,-9569.39,-3104.3,2.92209,-71.0524,87.219,-1416.95,2518.11,-841.603,42.6361,50.0822,90.1424,1535.04,-9223.99,-4330.83,0.193792,-189.111,95.7313,5313.82,1323.1,227.832,88.7736,-39.9131,46.0426
2.456,20478.8,-3487.96,14379.8,74.9,341.011,286.37,6187.32,3197.61,7391.46,29.1838,-42.5509,74.6658,-169.137,23062,1396.42,47.1918,110.504,429.083,-2265.17,-9657.22,-2948.56,4.25901,-70.3908,87.8607,-1128.06,2700.2,-816.334,44.1767,50.2953,87.4978,1575.17,-9338.03,-4334,0.0433314,-188.297,96.0083,5355.86,1423.02,251.852,88.4128,-40.4087,46.3287
2.457,20937.3,-3636.39,14266.8,74.8072,342.009,283.654,6178.84,3087.81,7472.06,28.4669,-42.9019,75.1635,-242.124,23094.2,1287.59,45.1252,108.358,426.959,-2243.12,-9745.06,-2792.82,5.59593,-69.7292,88.5025,-839.172,2882.29,-791.065,45.7174,50.5085,84.8533,1615.3,-9452.07,-4337.17,-0.107129,-187.484,96.2853,5397.89,1522.94,275.872,88.052,-40.9043,46.6149
2.458,21379.8,-3771.9,14148.5,74.8704,342.662,280.904,6164.79,2959.79,7558.31,27.714,-43.311,75.5672,-360.415,23194,1166.53,43.1931,106.391,424.795,-2218.26,-9841.16,-2633.56,6.8568,-68.9768,89.1793,-555.831,3064.1,-752.816,46.96,50.416,82.2787,1641.13,-9572.2,-4325.56,-0.0644164,-186.689,96.5118,5435.25,1607.21,295.761,87.7671,-41.4396,46.9207
2.459,21765.9,-3862.21,14011.4,75.4791,342.107,278.035,6131.22,2767.99,7664.36,26.8351,-43.9238,75.6421,-637.267,23530.1,1002.62,41.7317,105.055,422.488,-2183.51,-9966.19,-2461.99,7.8515,-67.9067,89.9786,-291.914,3244.93,-669.138,47.1591,49.2539,79.949,1616.9,-9713.64,-4262.2,0.654401,-185.964,96.5617,5456.28,1636.67,301.194,87.7481,-42.1135,47.295
2.46,22152.1,-3952.53,13874.4,76.0879,341.552,275.166,6097.65,2576.19,7770.42,25.9563,-44.5365,75.7169,-914.118,23866.2,838.725,40.2703,103.718,420.181,-2148.77,-10091.2,-2290.42,8.8462,-66.8366,90.7779,-27.9974,3425.76,-585.461,47.3583,48.0918,77.6194,1592.67,-9855.08,-4198.84,1.37322,-185.238,96.6115,5477.3,1666.13,306.627,87.7291,-42.7874,47.6693
2.461,22538.3,-4042.85,13737.3,76.6967,340.997,272.297,6064.08,2384.39,7876.47,25.0774,-45.1492,75.7918,-1190.97,24202.4,674.824,38.8088,102.382,417.875,-2114.03,-10216.3,-2118.85,9.84089,-65.7664,91.5772,235.919,3606.59,-501.783,47.5575,46.9297,75.2897,1568.45,-9996.52,-4135.49,2.09204,-184.513,96.6614,5498.32,1695.59,312.059,87.7101,-43.4614,48.0437
2.462,22924.4,-4133.17,13600.3,77.3054,340.442,269.428,6030.51,2192.59,7982.53,24.1986,-45.7619,75.8667,-1467.82,24538.5,510.924,37.3474,101.045,415.568,-2079.28,-10341.3,-1947.27,10.8356,-64.6963,92.3764,499.836,3787.42,-418.106,47.7566,45.7676,72.96,1544.22,-10138,-4072.13,2.81085,-183.787,96.7112,5519.34,1725.05,317.492,87.6911,-44.1353,48.418
2.463,23126.7,-4039.83,13366.6,77.8443,339.051,266.32,6008.19,2026,8113.5,23.3456,-46.7656,75.5709,-1763.73,24913.7,494.587,35.516,98.8951,413.433,-1997.32,-10455.5,-1726.47,11.8944,-63.6113,93.2148,756.309,3987.41,-347.418,47.3289,43.4892,70.9689,1494.5,-10257.8,-3945.92,3.98897,-183.187,96.6827,5578.34,1781.79,338.626,87.1764,-44.8087,48.8782
2.464,23276.4,-3894.02,13105.4,78.3632,337.422,263.144,5989.1,1866.61,8251.58,22.5,-47.8809,75.1692,-2065.09,25300.2,520.411,33.5789,96.5124,411.347,-1901.86,-10566.7,-1491.61,12.9715,-62.5221,94.0643,1010.66,4192.87,-280.441,46.722,40.8918,69.0744,1437.5,-10371.5,-3801.76,5.29831,-182.623,96.6317,5648.18,1846.33,364.247,86.5201,-45.4819,49.363
2.465,23426.2,-3748.21,12844.2,78.8821,335.793,259.968,5970,1707.22,8389.67,21.6544,-48.9963,74.7675,-2366.45,25686.6,546.235,31.6418,94.1296,409.261,-1806.4,-10677.9,-1256.75,14.0487,-61.4328,94.9138,1265,4398.33,-213.464,46.1152,38.2945,67.18,1380.5,-10485.1,-3657.59,6.60766,-182.058,96.5807,5718.03,1910.87,389.867,85.8638,-46.1551,49.8478
2.466,23575.9,-3602.4,12582.9,79.401,334.164,256.792,5950.9,1547.83,8527.75,20.8089,-50.1116,74.3658,-2667.81,26073.1,572.06,29.7048,91.7469,407.175,-1710.94,-10789.1,-1021.88,15.1258,-60.3435,95.7633,1519.35,4603.8,-146.487,45.5083,35.6971,65.2855,1323.5,-10598.8,-3513.42,7.917,-181.494,96.5297,5787.88,1975.41,415.487,85.2075,-46.8284,50.3327
2.467,23688.1,-3430.12,12279.6,79.5469,332.409,253.121,5937.44,1409.8,8659.39,20.0215,-51.4087,73.9746,-2997.63,26471.1,612.343,27.681,89.0447,405.076,-1641.52,-10897.5,-826.08,16.1762,-59.2861,96.5892,1802.61,4803.91,-105.702,45.1262,32.6915,63.6583,1265.34,-10706.3,-3381.87,9.32549,-180.816,96.5622,5864.47,2018.03,439.753,84.5663,-47.6713,50.8186
2.468,23725.1,-3204.91,11892.2,78.9469,330.401,248.461,5935.24,1314.49,8778.13,19.3507,-53.0692,73.6043,-3384.36,26892.4,681.544,25.484,85.7034,402.953,-1624.16,-11000.4,-708.393,17.173,-58.2922,97.3682,2143.72,4993.32,-117.3,45.1935,28.8694,62.5653,1204.89,-10801.5,-3275.53,10.9323,-179.912,96.7617,5954.56,2016.82,461.311,83.9553,-48.8535,51.307
2.469,23762.2,-2979.7,11504.7,78.347,328.393,243.8,5933.05,1219.17,8896.88,18.6798,-54.7297,73.2339,-3771.1,27313.6,750.746,23.287,82.3622,400.83,-1606.81,-11103.3,-590.706,18.1698,-57.2983,98.1471,2484.82,5182.73,-128.899,45.2609,25.0473,61.4724,1144.44,-10896.7,-3169.18,12.539,-179.008,96.9613,6044.66,2015.61,482.868,83.3443,-50.0356,51.7954
2.47,23799.2,-2754.49,11117.3,77.747,326.386,239.14,5930.86,1123.86,9015.62,18.0089,-56.3902,72.8636,-4157.84,27734.9,819.948,21.09,79.0209,398.707,-1589.46,-11206.2,-473.019,19.1667,-56.3045,98.926,2825.93,5372.14,-140.497,45.3283,21.2252,60.3794,1083.99,-10991.9,-3062.84,14.1458,-178.104,97.1608,6134.75,2014.4,504.426,82.7334,-51.2178,52.2838
2.471,23836.3,-2529.28,10729.8,77.1471,324.378,234.48,5928.66,1028.55,9134.36,17.338,-58.0507,72.4933,-4544.58,28156.2,889.149,18.893,75.6796,396.583,-1572.1,-11309.2,-355.333,20.1635,-55.3106,99.705,3167.04,5561.56,-152.095,45.3956,17.4031,59.2865,1023.54,-11087,-2956.5,15.7526,-177.199,97.3604,6224.84,2013.19,525.983,82.1224,-52.4,52.7722
2.472,24002.4,-2314.28,10271.1,75.2767,322.047,228.363,5930.51,960.703,9212.47,16.7912,-59.8719,71.8889,-4992.24,28338.3,946.833,16.7441,71.6666,394.173,-1645.2,-11467.3,-257.609,21.3518,-53.9272,100.503,3449.7,5694.63,-295.577,46.8936,13.1079,58.7679,984.931,-11202,-2866.45,17.4329,-175.641,97.6711,6332.47,1980.6,492.516,82.0646,-53.9493,53.1098
2.473,24184.8,-2100.56,9803.45,73.2476,319.675,222.065,5932.86,896.286,9285.5,16.2599,-61.7133,71.2553,-5447.51,28490.6,1003.08,14.6012,67.5696,391.727,-1729.61,-11632.4,-162.38,22.5641,-52.4951,101.304,3725.05,5820.67,-455.544,48.5705,8.75352,58.321,949.057,-11319.4,-2778.43,19.1223,-174.002,97.9958,6442.28,1944.09,452.17,82.0759,-55.5445,53.4287
2.474,24367.1,-1886.84,9335.82,71.2184,317.303,215.766,5935.22,831.869,9358.53,15.7285,-63.5546,70.6216,-5902.79,28642.9,1059.32,12.4582,63.4726,389.281,-1814.02,-11797.5,-67.1517,23.7763,-51.0629,102.104,4000.4,5946.7,-615.512,50.2474,4.39916,57.8742,913.183,-11436.9,-2690.41,20.8118,-172.362,98.3204,6552.1,1907.58,411.824,82.0873,-57.1398,53.7475
2.475,24549.4,-1673.12,8868.18,69.1893,314.932,209.468,5937.57,767.452,9431.56,15.1972,-65.396,69.988,-6358.06,28795.2,1115.56,10.3153,59.3756,386.835,-1898.43,-11962.5,28.0768,24.9886,-49.6308,102.905,4275.76,6072.73,-775.479,51.9242,0.0448089,57.4274,877.308,-11554.3,-2602.39,22.5013,-170.722,98.6451,6661.92,1871.06,371.479,82.0986,-58.735,54.0663
2.476,24773.1,-1452.27,8424.25,67.0532,312.131,202.934,5962.73,732.541,9503.9,14.6568,-67.2949,69.2725,-6809.38,28826.6,1140,8.43148,55.0433,384.227,-1942.39,-12143,144.593,26.3235,-48.4794,103.765,4556.57,6205.49,-924.316,54.2745,-4.1005,57.3002,863.742,-11670.2,-2530.58,24.2619,-168.592,99.0301,6778.42,1848.86,320.051,81.8198,-60.0171,54.4388
2.477,25048.7,-1222.5,8009.94,64.7836,308.795,196.107,6016.41,734.513,9575.38,14.1051,-69.2656,68.4546,-7255.74,28706.8,1124.68,6.87156,50.4168,381.417,-1935.76,-12342.7,287.718,27.8118,-47.679,104.702,4844.22,6346.66,-1059.24,57.4667,-7.9845,57.5727,878.06,-11784.1,-2479.04,26.1115,-165.851,99.4906,6903.28,1844.53,254.772,81.1783,-60.9079,54.8785
2.478,25324.2,-992.734,7595.63,62.5139,305.459,189.279,6070.09,736.484,9646.87,13.5535,-71.2363,67.6368,-7702.1,28587,1109.36,5.31165,45.7903,378.606,-1929.14,-12542.4,430.844,29.3001,-46.8786,105.638,5131.86,6487.84,-1194.16,60.6588,-11.8685,57.8452,892.377,-11898,-2427.5,27.961,-163.11,99.951,7028.13,1840.2,189.493,80.5367,-61.7987,55.3181
2.479,25599.7,-762.968,7181.33,60.2443,302.123,182.452,6123.77,738.456,9718.35,13.0018,-73.207,66.819,-8148.47,28467.2,1094.04,3.75173,41.1638,375.796,-1922.52,-12742.1,573.969,30.7883,-46.0782,106.574,5419.5,6629.01,-1329.08,63.8509,-15.7525,58.1177,906.695,-12011.8,-2375.95,29.8106,-160.369,100.411,7152.99,1835.87,124.214,79.8952,-62.6895,55.7577
2.48,25875.2,-533.201,6767.02,57.9746,298.787,175.625,6177.45,740.428,9789.83,12.4501,-75.1778,66.0011,-8594.83,28347.5,1078.72,2.19181,36.5373,372.985,-1915.9,-12941.8,717.094,32.2766,-45.2777,107.51,5707.15,6770.18,-1464.01,67.0431,-19.6365,58.3902,921.013,-12125.7,-2324.41,31.6602,-157.627,100.872,7277.85,1831.54,58.9343,79.2536,-63.5803,56.1973
2.481,26146.2,-465.276,6298.87,55.9733,295.473,168.854,6175.22,792.473,9868.44,11.8562,-77.5578,65.687,-9158.75,28037.7,991.596,1.01809,32.7564,369.632,-1857.51,-13078,673.798,33.2737,-44.8976,108.562,5940.27,6906.87,-1603,70.6175,-21.6292,58.9745,1003.09,-12229.3,-2288.6,33.3797,-153.666,101.351,7422.82,1792.82,-45.6489,78.5611,-64.2145,56.9404
2.482,26417.2,-397.351,5830.72,53.972,292.158,162.084,6172.99,844.518,9947.05,11.2623,-79.9378,65.3728,-9722.68,27727.8,904.476,-0.155635,28.9754,366.278,-1799.12,-13214.3,630.503,34.2708,-44.5174,109.614,6173.4,7043.57,-1741.99,74.192,-23.6219,59.5589,1085.16,-12332.8,-2252.8,35.0992,-149.705,101.83,7567.8,1754.1,-150.232,77.8687,-64.8487,57.6834
2.483,26688.1,-329.426,5362.57,51.9707,288.843,155.313,6170.76,896.563,10025.7,10.6684,-82.3179,65.0586,-10286.6,27418,817.357,-1.32936,25.1945,362.924,-1740.73,-13350.5,587.207,35.2679,-44.1373,110.666,6406.53,7180.27,-1880.99,77.7664,-25.6145,60.1432,1167.23,-12436.4,-2216.99,36.8187,-145.743,102.309,7712.77,1715.38,-254.815,77.1762,-65.4829,58.4264
2.484,26959.1,-261.501,4894.42,49.9693,285.528,148.542,6168.54,948.608,10104.3,10.0744,-84.6979,64.7444,-10850.5,27108.2,730.237,-2.50308,21.4136,359.571,-1682.35,-13486.7,543.911,36.265,-43.7571,111.719,6639.65,7316.96,-2019.98,81.3409,-27.6072,60.7275,1249.3,-12539.9,-2181.19,38.5383,-141.782,102.789,7857.75,1676.66,-359.399,76.4838,-66.1171,59.1694
2.485,27226.1,-232.769,4430.16,47.9123,282.215,141.887,6133.55,986.988,10181.8,9.49897,-87.1325,64.4155,-11410.1,26787.1,636.961,-3.3639,17.9544,355.71,-1670.1,-13585.7,489.022,37.0698,-43.0836,112.651,6868.52,7470.43,-2055.83,84.2277,-28.1604,61.5067,1343.76,-12623.7,-2152.15,39.6367,-137.368,103.293,8002.3,1621.75,-492.346,76.1028,-66.3509,59.9921
2.486,27489.9,-235.393,3969.03,45.8108,278.903,135.325,6072.35,1014.44,10258.5,8.93828,-89.6107,64.0749,-11966.3,26456.9,538.759,-3.97439,14.7527,351.443,-1694.78,-13654.8,424.859,37.7206,-42.1753,113.487,7093.99,7637.32,-2009.17,86.5643,-27.5619,62.4417,1448.14,-12691.5,-2128.51,40.2382,-132.591,103.816,8146.5,1553.89,-647.985,75.971,-66.2645,60.8786
2.487,27753.8,-238.017,3507.89,43.7092,275.591,128.762,6011.15,1041.89,10335.2,8.3776,-92.0889,63.7343,-12522.5,26126.7,440.557,-4.58488,11.551,347.176,-1719.45,-13724,360.696,38.3715,-41.267,114.323,7319.45,7804.21,-1962.52,88.9009,-26.9635,63.3768,1552.51,-12759.4,-2104.88,40.8397,-127.814,104.34,8290.71,1486.03,-803.623,75.8392,-66.1781,61.765
2.488,28017.6,-240.64,3046.75,41.6077,272.28,122.2,5949.95,1069.33,10411.9,7.81692,-94.5671,63.3936,-13078.7,25796.5,342.355,-5.19537,8.3493,342.909,-1744.12,-13793.1,296.533,39.0224,-40.3587,115.159,7544.91,7971.09,-1915.86,91.2376,-26.365,64.3119,1656.89,-12827.3,-2081.25,41.4412,-123.037,104.864,8434.92,1418.17,-959.262,75.7075,-66.0917,62.6515
2.489,28276.2,-249.747,2591.95,39.519,268.991,115.714,5889.7,1090.87,10484.7,7.2732,-97.0494,63.0515,-13616.9,25468.5,242.213,-5.74426,5.10768,338.558,-1763.81,-13865.9,237.923,39.6799,-39.4743,116.01,7771.97,8145.97,-1857.18,93.3419,-25.4669,65.2326,1759.66,-12895.3,-2058.81,41.9571,-118.21,105.374,8576.62,1348.03,-1114.01,75.6003,-65.9251,63.5013
2.49,28493.8,-310.723,2187.87,37.5334,265.886,109.848,5837.01,1065.11,10525.6,6.86516,-99.5642,62.6974,-14011.2,25158.8,126.544,-5.80028,1.54681,333.533,-1743.63,-13968.4,223.739,40.3902,-38.7818,116.971,8011.79,8384.72,-1702.29,93.5875,-22.1717,66.0387,1849.61,-12964.8,-2045.98,41.7877,-112.98,105.777,8698.25,1259.58,-1261.66,75.6906,-65.1169,64.0582
2.491,28711.3,-371.7,1783.79,35.5477,262.781,103.981,5784.32,1039.36,10566.6,6.45713,-102.079,62.3433,-14405.6,24849,10.8746,-5.85631,-2.01406,328.508,-1723.45,-14070.8,209.555,41.1005,-38.0892,117.933,8251.62,8623.48,-1547.41,93.8332,-18.8765,66.8448,1939.55,-13034.2,-2033.14,41.6183,-107.75,106.18,8819.88,1171.14,-1409.3,75.7809,-64.3086,64.6151
2.492,28928.8,-432.676,1379.7,33.5621,259.676,98.1144,5731.64,1013.6,10607.5,6.0491,-104.594,61.9891,-14799.9,24539.3,-104.794,-5.91234,-5.57493,323.483,-1703.27,-14173.3,195.371,41.8109,-37.3967,118.895,8491.44,8862.23,-1392.53,94.0788,-15.5813,67.6509,2029.5,-13103.6,-2020.31,41.4489,-102.52,106.582,8941.52,1082.7,-1556.95,75.8712,-63.5003,65.172
2.493,29146.3,-493.652,975.62,31.5765,256.571,92.2477,5678.95,987.847,10648.5,5.64107,-107.109,61.635,-15194.3,24229.5,-220.463,-5.96837,-9.1358,318.458,-1683.09,-14275.7,181.187,42.5212,-36.7041,119.856,8731.26,9100.99,-1237.65,94.3245,-12.2861,68.457,2119.45,-13173.1,-2007.47,41.2796,-97.2902,106.985,9063.16,994.263,-1704.59,75.9614,-62.6921,65.7289
2.494,29337.2,-627.576,550.967,29.6722,253.557,86.6902,5643.01,952.749,10676.7,5.36847,-109.756,61.2153,-15500.4,23991.4,-414.75,-5.56232,-12.3067,313.149,-1654.89,-14312.1,217.016,43.3193,-36.2012,120.873,8993.62,9383.94,-957.958,93.0497,-7.46533,69.2121,2217.1,-13236.4,-1967.98,41.3108,-92.1917,107.352,9215.29,909.786,-1851.5,75.8362,-61.613,66.1397
2.495,29514.7,-797.975,116.03,27.8085,250.587,81.2873,5615.44,912.98,10698.6,5.16358,-112.47,60.7627,-15762.3,23789,-648.346,-4.92523,-15.2826,307.698,-1622.7,-14315.6,277.853,44.1614,-35.7933,121.918,9267.25,9688.98,-615.856,91.0147,-1.88172,69.9418,2318.6,-13296.8,-1915.17,41.4423,-87.1589,107.702,9382.66,827.29,-1998.03,75.6032,-60.3986,66.4773
2.496,29692.2,-968.375,-318.906,25.9449,247.618,75.8844,5587.87,873.21,10720.5,4.95869,-115.183,60.3102,-16024.3,23586.6,-881.942,-4.28814,-18.2585,302.248,-1590.5,-14319,338.689,45.0034,-35.3853,122.962,9540.87,9994.02,-273.754,88.9798,3.7019,70.6715,2420.1,-13357.2,-1862.35,41.5739,-82.1261,108.051,9550.04,744.795,-2144.56,75.3702,-59.1843,66.815
2.497,29869.7,-1138.77,-753.844,24.0812,244.649,70.4814,5560.3,833.441,10742.4,4.75381,-117.897,59.8576,-16286.2,23384.3,-1115.54,-3.65105,-21.2344,296.797,-1558.3,-14322.4,399.525,45.8455,-34.9773,124.007,9814.5,10299.1,68.3481,86.9448,9.28551,71.4011,2521.6,-13417.6,-1809.54,41.7054,-77.0933,108.401,9717.42,662.299,-2291.1,75.1372,-57.9699,67.1527
2.498,30046.1,-1287.07,-1186.57,22.2481,241.579,65.1982,5539.81,807.233,10755.8,4.49109,-120.607,59.3751,-16557.2,23162.7,-1357.81,-3.02374,-23.9315,291.32,-1527.86,-14321.2,462.202,46.6757,-34.6195,125.058,10101.9,10618.2,425.286,84.4966,15.114,72.106,2618.54,-13461.8,-1749.69,41.9021,-72.2838,108.707,9880.2,588.094,-2426.23,74.8898,-56.7379,67.4885
2.499,30218.3,-1357.99,-1611.55,20.5218,238.156,60.3339,5544.1,828.49,10739.3,4.02596,-123.305,58.7873,-16859.8,22874.2,-1630.46,-2.43066,-25.6524,285.754,-1503.53,-14303.8,531.321,47.4645,-34.4371,126.131,10437.4,10986.5,834.148,80.6016,21.7997,72.7241,2699.52,-13449.8,-1665.22,42.3267,-68.2554,108.859,10026.9,542.901,-2521.46,74.5919,-55.4444,67.8177
2.5,30390.5,-1428.91,-2036.54,18.7955,234.734,55.4697,5548.38,849.747,10722.7,3.56083,-126.003,58.1996,-17162.5,22585.6,-1903.11,-1.83758,-27.3733,280.187,-1479.2,-14286.3,600.44,48.2534,-34.2547,127.204,10772.8,11354.9,1243.01,76.7066,28.4853,73.3421,2780.5,-13437.7,-1580.75,42.7514,-64.227,109.011,10173.6,497.709,-2616.7,74.294,-54.1509,68.147
2.501,30562.7,-1499.83,-2461.52,17.0692,231.312,50.6055,5552.67,871.003,10706.2,3.0957,-128.702,57.6119,-17465.1,22297,-2175.76,-1.24449,-29.0943,274.621,-1454.88,-14268.8,669.559,49.0422,-34.0723,128.277,11108.3,11723.2,1651.87,72.8117,35.171,73.9602,2861.48,-13425.6,-1496.28,43.176,-60.1986,109.163,10320.3,452.516,-2711.93,73.9961,-52.8574,68.4762
2.502,30734.9,-1570.75,-2886.5,15.3429,227.889,45.7412,5556.95,892.26,10689.7,2.63057,-131.4,57.0242,-17767.8,22008.5,-2448.4,-0.65141,-30.8152,269.054,-1430.55,-14251.4,738.678,49.831,-33.8899,129.35,11443.8,12091.5,2060.74,68.9167,41.8566,74.5782,2942.46,-13413.5,-1411.81,43.6007,-56.1702,109.316,10467,407.324,-2807.16,73.6982,-51.5639,68.8055
2.503,30988.9,-1636.3,-3530.1,13.7951,225.274,41.6813,5588.87,948.593,10684.5,2.09705,-134.066,56.6054,-18067.7,21742.2,-2677.13,0.302217,-32.2741,263.301,-1431.34,-14244.8,706.755,50.7141,-33.4237,130.364,11802,12419.1,2410.18,64.481,48.6756,75.0677,3004.28,-13364.6,-1366.81,43.8303,-52.9652,109.274,10631.5,409.166,-2857.79,72.9292,-50.2594,69.1567
2.504,31266.1,-1700.31,-4236.16,12.2984,222.889,37.8511,5628.69,1014.95,10682.7,1.54399,-136.724,56.2349,-18366.7,21482.4,-2893.31,1.35886,-33.6581,257.493,-1439.31,-14241.2,645.962,51.624,-32.8764,131.361,12166.8,12735.1,2742.65,59.8909,55.5326,75.5205,3060.62,-13305.2,-1333.08,44.0042,-49.9955,109.177,10801.2,424.446,-2895.68,72.0256,-48.9518,69.5143
2.505,31543.4,-1764.32,-4942.22,10.8017,220.504,34.0209,5668.51,1081.3,10680.8,0.990935,-139.382,55.8643,-18665.8,21222.5,-3109.49,2.4155,-35.0422,251.686,-1447.27,-14237.7,585.17,52.534,-32.3291,132.358,12531.5,13051.1,3075.12,55.3008,62.3897,75.9733,3116.97,-13245.8,-1299.36,44.1781,-47.0257,109.079,10970.8,439.726,-2933.57,71.122,-47.6442,69.8718
2.506,31820.7,-1828.33,-5648.28,9.30503,218.12,30.1908,5708.32,1147.65,10679,0.437877,-142.039,55.4938,-18964.9,20962.6,-3325.67,3.47214,-36.4263,245.878,-1455.24,-14234.2,524.378,53.4439,-31.7817,133.355,12896.3,13367.1,3407.59,50.7106,69.2467,76.426,3173.31,-13186.4,-1265.63,44.3521,-44.056,108.982,11140.5,455.006,-2971.46,70.2184,-46.3365,70.2293
2.507,32092.6,-1919.05,-6325.71,7.95793,215.959,26.4707,5736.08,1193.01,10695.3,-0.0841509,-144.76,55.1499,-19309.5,20679.1,-3496.92,4.24749,-37.8546,239.697,-1438.51,-14213.7,475.473,54.2045,-31.2743,134.335,13263.4,13629.2,3657.99,45.9376,75.8937,76.7291,3229.68,-13122.6,-1242.44,44.4967,-41.3719,108.926,11312.6,465.041,-2995.15,69.1353,-45.0398,70.5767
2.508,32353.9,-2063.19,-6945.9,6.91006,214.246,22.9707,5739.71,1196.38,10747.9,-0.544118,-147.608,54.8593,-19745.1,20348,-3578.34,4.46027,-39.3715,232.769,-1372.41,-14159.4,450.342,54.6664,-30.8465,135.279,13635.3,13783.5,3744.25,40.7989,82.1203,76.7326,3286.09,-13050,-1240.3,44.583,-39.259,108.952,11489.6,464.585,-2990.44,67.6933,-43.765,70.9039
2.509,32615.2,-2207.33,-7566.09,5.86219,212.534,19.4708,5743.34,1199.75,10800.5,-1.00408,-150.456,54.5687,-20180.8,20017,-3659.76,4.67305,-40.8884,225.84,-1306.31,-14105,425.212,55.1283,-30.4188,136.224,14007.1,13937.8,3830.51,35.6602,88.3469,76.7362,3342.5,-12977.5,-1238.16,44.6692,-37.1461,108.977,11666.6,464.129,-2985.72,66.2513,-42.4901,71.231
2.51,32876.4,-2351.47,-8186.27,4.81432,210.821,15.9708,5746.97,1203.11,10853.1,-1.46405,-153.303,54.2781,-20616.4,19686,-3741.17,4.88583,-42.4053,218.912,-1240.2,-14050.6,400.081,55.5902,-29.991,137.169,14379,14092.2,3916.77,30.5215,94.5735,76.7398,3398.92,-12904.9,-1236.03,44.7554,-35.0332,109.003,11843.6,463.673,-2981.01,64.8093,-41.2153,71.5582
2.511,33137.7,-2495.61,-8806.46,3.76645,209.109,12.4709,5750.6,1206.48,10905.7,-1.92402,-156.151,53.9875,-21052,19355,-3822.59,5.09862,-43.9222,211.983,-1174.1,-13996.2,374.951,56.0521,-29.5633,138.113,14750.8,14246.5,4003.03,25.3828,100.8,76.7434,3455.33,-12832.3,-1233.89,44.8416,-32.9204,109.029,12020.6,463.217,-2976.29,63.3673,-39.9404,71.8853
2.512,33255.3,-2413.37,-9336.69,2.41841,207.014,9.60918,5719.09,1188,10934.6,-2.42371,-159.282,53.5753,-21472.2,19127,-3996.88,6.45416,-42.404,205.611,-1130.3,-13963.3,347.556,56.277,-28.9072,139.475,15080.1,14322.5,3845.28,20.1985,106.314,76.091,3518.26,-12756.9,-1220.72,45.0685,-31.6119,109.169,12188.6,548.264,-2965.22,61.8143,-39.1067,72.4189
2.513,33355,-2302.83,-9855.67,1.03284,204.872,6.82727,5683.18,1166.79,10960.5,-2.92837,-162.449,53.1479,-21890.4,18911.9,-4182.79,7.95254,-40.5065,199.309,-1089.28,-13933,319.878,56.4723,-28.2225,140.889,15404,14388.7,3657.03,15.0086,111.739,75.3566,3582,-12681.1,-1206.17,45.313,-30.4039,109.325,12355.4,643.998,-2953.34,60.2474,-38.328,72.9783
2.514,33454.6,-2192.3,-10374.7,-0.352725,202.73,4.04536,5647.27,1145.58,10986.4,-3.43303,-165.615,52.7205,-22308.7,18696.8,-4368.69,9.45092,-38.609,193.006,-1048.26,-13902.7,292.199,56.6677,-27.5378,142.302,15727.9,14454.9,3468.79,9.8186,117.164,74.6221,3645.74,-12605.3,-1191.61,45.5574,-29.1959,109.48,12522.3,739.733,-2941.47,58.6806,-37.5494,73.5376
2.515,33554.3,-2081.77,-10893.6,-1.73829,200.587,1.26346,5611.37,1124.36,11012.3,-3.93769,-168.782,52.2931,-22726.9,18481.8,-4554.6,10.9493,-36.7114,186.703,-1007.25,-13872.5,264.521,56.863,-26.8531,143.716,16051.8,14521.1,3280.54,4.62864,122.589,73.8877,3709.49,-12529.5,-1177.06,45.8019,-27.9879,109.635,12689.1,835.468,-2929.59,57.1137,-36.7707,74.097
2.516,33524.3,-1861.25,-11402.8,-3.70137,198.158,-0.867593,5587.52,1138.39,11044.6,-4.52756,-172.034,51.8565,-23015.2,18206.4,-4521.68,11.7997,-35.0403,180.207,-957.524,-13859.2,233.782,57.157,-26.0937,145.001,16342.3,14531.1,3028.05,-0.859909,127.566,72.6022,3768.68,-12477,-1166.88,46.0761,-27.1302,109.694,12832.4,918.805,-2899.01,55.4191,-36.347,74.8253
2.517,33332.1,-1503.25,-11899.6,-6.38635,195.369,-2.18507,5578.75,1196.45,11085.1,-5.22395,-175.392,51.4085,-23141,17855.8,-4215.24,11.8402,-33.6521,173.468,-896.923,-13867.2,199.217,57.5744,-25.2407,146.124,16591,14470.9,2695.24,-6.72168,131.981,70.6279,3822.17,-12453.7,-1162.17,46.3875,-26.7103,109.632,12946,986.644,-2845.03,53.5649,-36.3669,75.7647
2.518,33140,-1145.24,-12396.5,-9.07133,192.58,-3.50255,5569.99,1254.52,11125.5,-5.92034,-178.75,50.9604,-23266.8,17505.2,-3908.81,11.8807,-32.264,166.73,-836.322,-13875.1,164.652,57.9917,-24.3878,147.247,16839.7,14410.7,2362.43,-12.5835,136.395,68.6535,3875.67,-12430.3,-1157.46,46.6988,-26.2903,109.57,13059.7,1054.48,-2791.06,51.7106,-36.3869,76.7041
2.519,32947.9,-787.243,-12893.3,-11.7563,189.791,-4.82003,5561.22,1312.59,11166,-6.61673,-182.108,50.5124,-23392.5,17154.6,-3602.37,11.9212,-30.8759,159.991,-775.721,-13883.1,130.086,58.4091,-23.5348,148.37,17088.4,14350.4,2029.63,-18.4452,140.81,66.6791,3929.17,-12406.9,-1152.75,47.0102,-25.8704,109.508,13173.3,1122.32,-2737.08,49.8564,-36.4068,77.6436
2.52,32755.8,-429.241,-13390.1,-14.4413,187.002,-6.13751,5552.45,1370.65,11206.4,-7.31313,-185.466,50.0643,-23518.3,16803.9,-3295.93,11.9617,-29.4878,153.253,-715.12,-13891.1,95.5212,58.8264,-22.6819,149.493,17337.2,14290.2,1696.82,-24.307,145.225,64.7048,3982.67,-12383.6,-1148.04,47.3215,-25.4504,109.446,13287,1190.16,-2683.1,48.0021,-36.4267,78.583
2.521,32458.9,-15.5727,-13769.4,-17.68,183.002,-7.11546,5524.38,1496.67,11254.2,-8.22039,-188.991,49.8812,-23571.4,16518.2,-2965.89,12.2388,-29.2166,146.163,-644.375,-13973.2,30.3574,59.3001,-21.9537,150.954,17551.7,14172.4,1429.18,-31.1901,148.11,62.1328,4021.29,-12421,-1137.09,47.7151,-25.1537,109.274,13395,1240.74,-2732.52,44.4634,-36.1938,79.2266
2.522,32162,398.096,-14148.7,-20.9187,179.003,-8.09341,5496.3,1622.69,11302,-9.12766,-192.516,49.698,-23624.5,16232.4,-2635.86,12.5158,-28.9454,139.073,-573.631,-14055.2,-34.8063,59.7738,-21.2255,152.415,17766.1,14054.6,1161.55,-38.0732,150.994,59.5608,4059.9,-12458.4,-1126.14,48.1087,-24.857,109.102,13503,1291.32,-2781.93,40.9248,-35.961,79.8701
2.523,31865.2,811.764,-14528,-24.1574,175.003,-9.07135,5468.23,1748.71,11349.9,-10.0349,-196.041,49.5149,-23677.6,15946.6,-2305.82,12.7929,-28.6742,131.983,-502.887,-14137.3,-99.9701,60.2474,-20.4973,153.875,17980.6,13936.8,893.91,-44.9562,153.879,56.9889,4098.52,-12495.8,-1115.19,48.5022,-24.5603,108.93,13611.1,1341.9,-2831.34,37.3861,-35.7281,80.5136
2.524,31568.3,1225.43,-14907.3,-27.3962,171.003,-10.0493,5440.15,1874.73,11397.7,-10.9422,-199.566,49.3317,-23730.7,15660.8,-1975.79,13.0699,-28.403,124.893,-432.143,-14219.4,-165.134,60.7211,-19.7691,155.336,18195.1,13819,626.273,-51.8393,156.763,54.4169,4137.14,-12533.2,-1104.24,48.8958,-24.2636,108.758,13719.1,1392.48,-2880.75,33.8474,-35.4952,81.1572
2.525,31214.9,1545.23,-15235.8,-30.2415,165.741,-10.8446,5403.09,1996.17,11470.2,-11.7144,-203.324,49.5236,-23778.8,15353.8,-1698.9,13.1934,-28.0776,117.362,-400.736,-14297.4,-282.458,61.0081,-19.0558,156.572,18390.6,13721.1,465.755,-58.2792,158.031,51.8485,4147.45,-12547.3,-1064.16,49.2709,-24.1003,108.621,13791.1,1464.21,-2916.59,30.2338,-35.5928,81.5319
2.526,30816.3,1789.92,-15523.6,-32.7722,159.468,-11.4938,5358.84,2113.94,11562.3,-12.3784,-207.268,50.0156,-23823,15029.8,-1464.54,13.194,-27.7088,109.478,-400.8,-14372.1,-441.51,61.1459,-18.3546,157.628,18570.9,13639,390.932,-64.3644,158.007,49.2829,4135.12,-12542.7,-1000.77,49.6313,-24.0437,108.511,13834.3,1552.85,-2941.57,26.5602,-35.9547,81.6914
2.527,30417.7,2034.61,-15811.4,-35.3028,153.196,-12.1429,5314.58,2231.7,11654.5,-13.0425,-211.213,50.5075,-23867.1,14705.8,-1230.18,13.1946,-27.3401,101.594,-400.863,-14446.8,-600.562,61.2836,-17.6533,158.684,18751.2,13556.9,316.109,-70.4497,157.982,46.7173,4122.79,-12538.1,-937.387,49.9917,-23.9872,108.402,13877.5,1641.5,-2966.56,22.8866,-36.3167,81.851
2.528,30019.1,2279.31,-16099.3,-37.8335,146.923,-12.7921,5270.33,2349.47,11746.7,-13.7065,-215.158,50.9995,-23911.2,14381.7,-995.818,13.1951,-26.9714,93.7096,-400.927,-14521.6,-759.614,61.4214,-16.952,159.74,18931.5,13474.8,241.286,-76.535,157.957,44.1517,4110.45,-12533.5,-874.003,50.352,-23.9307,108.292,13920.7,1730.15,-2991.54,19.213,-36.6787,82.0106
2.529,29607.8,2514.05,-16373,-40.2471,140.354,-13.4325,5231.08,2450.7,11826,-14.3448,-219.105,51.4571,-23946.6,14068,-773.82,13.1672,-26.5718,85.7851,-406.578,-14602.5,-897.412,61.5149,-16.2583,160.81,19099.9,13396.6,189.544,-82.2953,157.487,41.7257,4088.37,-12528.3,-808.032,50.6709,-23.9066,108.143,13956.9,1808.7,-3018.51,15.8029,-37.0825,82.1237
2.53,29094.4,2669.19,-16534.2,-41.724,131.407,-14.0031,5231.94,2419.58,11802.7,-14.7766,-223.071,51.6396,-23911.7,13836.9,-650.741,12.911,-25.9255,77.5373,-456.928,-14733.5,-865.175,61.2548,-15.6244,161.992,19172.7,13348.9,322.454,-85.4554,153.46,40.4164,3988.28,-12517.9,-721.377,50.6579,-24.1426,107.672,13936.9,1806.46,-3061.33,14.5,-37.821,81.8649
2.531,28581.1,2824.32,-16695.4,-43.2009,122.46,-14.5738,5232.8,2388.46,11779.4,-15.2085,-227.038,51.822,-23876.8,13605.8,-527.662,12.6548,-25.2792,69.2896,-507.278,-14864.6,-832.937,60.9946,-14.9906,163.174,19245.5,13301.3,455.365,-88.6156,149.432,39.1071,3888.19,-12507.6,-634.721,50.6449,-24.3786,107.202,13916.9,1804.22,-3104.16,13.197,-38.5595,81.606
2.532,28067.8,2979.45,-16856.6,-44.6778,113.513,-15.1444,5233.66,2357.34,11756.1,-15.6403,-231.005,52.0045,-23841.8,13374.6,-404.582,12.3987,-24.6329,61.0418,-557.628,-14995.6,-800.7,60.7345,-14.3568,164.356,19318.3,13253.7,588.275,-91.7757,145.404,37.7977,3788.11,-12497.2,-548.066,50.6318,-24.6146,106.732,13896.8,1801.98,-3146.98,11.8941,-39.298,81.3472
2.533,27554.4,3134.59,-17017.8,-46.1547,104.566,-15.715,5234.51,2326.22,11732.8,-16.0721,-234.971,52.187,-23806.9,13143.5,-281.503,12.1425,-23.9866,52.7941,-607.978,-15126.6,-768.463,60.4743,-13.723,165.538,19391,13206.1,721.185,-94.9359,141.376,36.4884,3688.02,-12486.8,-461.41,50.6188,-24.8505,106.262,13876.8,1799.74,-3189.81,10.5912,-40.0365,81.0884
2.534,27087.6,3282.14,-17107.9,-46.8897,94.5523,-16.2685,5242.27,2290.97,11709.6,-16.466,-238.991,52.2811,-23619.4,13004.3,-87.5397,11.6112,-23.2898,44.4921,-605.981,-15183.7,-776.703,60.2823,-13.6886,166.789,19339.9,13228.8,867.068,-95.8353,135.315,36.1467,3576.26,-12493.7,-392.767,50.2824,-25.2745,105.521,13812.6,1819.54,-3291.68,9.20726,-40.2054,80.5561
2.535,26644.1,3425.9,-17162.4,-47.2537,84.0053,-16.8134,5253.47,2253.65,11686.4,-16.8409,-243.038,52.3309,-23355.6,12911,141.866,10.9425,-22.5679,36.1629,-577.811,-15203.8,-805.181,60.1243,-13.9539,168.074,19226.8,13286.6,1019.44,-95.6042,128.238,36.2887,3458.67,-12509.3,-333.13,49.7842,-25.7925,104.645,13726.4,1850.36,-3423.08,7.7828,-40.0895,79.8871
2.536,26200.6,3569.66,-17216.9,-47.6178,73.4583,-17.3582,5264.68,2216.34,11663.2,-17.2159,-247.085,52.3808,-23091.8,12817.7,371.271,10.2737,-21.846,27.8338,-549.641,-15224,-833.66,59.9663,-14.2192,169.359,19113.7,13344.4,1171.81,-95.3732,121.161,36.4308,3341.08,-12524.8,-273.493,49.2861,-26.3104,103.769,13640.1,1881.17,-3554.48,6.35834,-39.9736,79.2181
2.537,25757,3713.42,-17271.4,-47.9818,62.9113,-17.9031,5275.88,2179.02,11640.1,-17.5908,-251.133,52.4307,-22828.1,12724.4,600.677,9.60489,-21.1241,19.5046,-521.47,-15244.1,-862.138,59.8083,-14.4845,170.645,19000.6,13402.3,1324.18,-95.1422,114.083,36.5729,3223.48,-12540.4,-213.856,48.788,-26.8284,102.893,13553.9,1911.99,-3685.88,4.93388,-39.8577,78.5491
2.538,25359.1,3844.1,-17295.4,-48.1577,52.4574,-18.2334,5272.5,2150.63,11622.1,-17.9685,-255.262,52.5206,-22562.7,12646.1,826.225,8.82615,-20.3211,11.148,-491.957,-15253.4,-885.59,59.6115,-14.7473,171.897,18840.2,13448.7,1445.46,-94.142,107.002,36.9899,3112.01,-12552.3,-162.929,48.2123,-27.4471,101.988,13499.9,1948.09,-3805.13,3.16109,-39.6188,77.8475
2.539,25120.7,3929.01,-17212.5,-47.6751,42.3292,-17.8125,5218.05,2153.5,11622.3,-18.3563,-259.68,52.7509,-22291.7,12619.9,1038.27,7.66258,-19.2341,2.69537,-457.742,-15224.5,-891.448,59.2788,-15.0015,173.033,18514.2,13455.1,1457.95,-90.4495,99.9046,38.3694,3021.93,-12551.6,-142.486,47.365,-28.4184,100.98,13559.2,2002.68,-3881.89,0.169138,-38.9498,77.032
2.54,24882.3,4013.91,-17129.6,-47.1926,32.201,-17.3916,5163.6,2156.37,11622.6,-18.7441,-264.099,52.9812,-22020.8,12593.8,1250.32,6.499,-18.1472,-5.75727,-423.527,-15195.7,-897.305,58.9462,-15.2558,174.169,18188.2,13461.4,1470.43,-86.7571,92.8075,39.7489,2931.86,-12550.8,-122.043,46.5177,-29.3896,99.9727,13618.4,2057.28,-3958.65,-2.82282,-38.2809,76.2166
2.541,24643.9,4098.82,-17046.8,-46.71,22.0729,-16.9706,5109.15,2159.24,11622.8,-19.1319,-268.517,53.2115,-21749.9,12567.7,1462.36,5.33542,-17.0602,-14.2099,-389.312,-15166.9,-903.163,58.6135,-15.51,175.305,17862.2,13467.8,1482.92,-83.0647,85.7103,41.1285,2841.78,-12550.1,-101.6,45.6704,-30.3609,98.965,13677.7,2111.87,-4035.41,-5.81477,-37.6119,75.4011
2.542,24405.5,4183.72,-16963.9,-46.2274,11.9447,-16.5497,5054.7,2162.1,11623.1,-19.5196,-272.935,53.4417,-21478.9,12541.5,1674.41,4.17184,-15.9732,-22.6625,-355.097,-15138,-909.02,58.2808,-15.7642,176.441,17536.2,13474.2,1495.4,-79.3723,78.6132,42.508,2751.7,-12549.3,-81.1573,44.8232,-31.3322,97.9573,13736.9,2166.47,-4112.17,-8.80672,-36.9429,74.5856
2.543,24416.6,4123.96,-16725.9,-45.5632,2.82296,-15.6766,4985.67,2186.49,11598.2,-19.9256,-277.226,53.6329,-21299.7,12525.7,1720.27,3.21469,-13.8634,-30.666,-302.845,-15136.1,-922.511,58.0798,-16.1756,177.544,17142.3,13391.6,1260.44,-73.4432,74.4478,44.0744,2700.25,-12547.6,-112.967,43.8511,-32.5591,96.7177,13694.1,2250.59,-4134.72,-12.6483,-36.0439,73.5044
2.544,24499.1,4022.87,-16443.6,-44.8471,-6.01125,-14.6742,4912.47,2217.02,11566.3,-20.3368,-281.48,53.8128,-21146.6,12512.9,1718.64,2.31651,-11.4613,-38.5411,-245.44,-15142,-938.183,57.9165,-16.632,178.639,16729,13283.6,954.775,-66.8751,71.1201,45.6943,2659.84,-12545.5,-159.705,42.8434,-33.8592,95.4119,13622.2,2343.14,-4141.79,-16.7327,-35.0793,72.3474
2.545,24581.7,3921.78,-16161.3,-44.1309,-14.8455,-13.6718,4839.28,2247.56,11534.3,-20.748,-285.734,53.9927,-20993.5,12500.2,1717.02,1.41834,-9.05912,-46.4162,-188.034,-15147.8,-953.855,57.7531,-17.0885,179.733,16315.7,13175.6,649.11,-60.307,67.7924,47.3141,2619.42,-12543.5,-206.443,41.8357,-35.1592,94.1061,13550.2,2435.7,-4148.87,-20.817,-34.1146,71.1903
2.546,24664.2,3820.69,-15878.9,-43.4148,-23.6797,-12.6695,4766.08,2278.09,11502.3,-21.1592,-289.988,54.1726,-20840.4,12487.4,1715.39,0.520173,-6.65699,-54.2913,-130.629,-15153.6,-969.526,57.5898,-17.5449,180.827,15902.4,13067.5,343.446,-53.7388,64.4646,48.934,2579,-12541.5,-253.182,40.828,-36.4592,92.8003,13478.2,2528.25,-4155.94,-24.9013,-33.15,70.0333
2.547,24772.7,3699.07,-15590.2,-42.9312,-31.7688,-11.6656,4703.9,2313.93,11490,-21.6033,-294.32,54.3795,-20700.7,12469.1,1675.22,-0.193546,-3.89078,-61.8749,-56.9258,-15150.6,-1001.05,57.4806,-18.0932,181.946,15461.7,12934.5,-43.3793,-47.2667,63.0362,50.2774,2554.07,-12536.3,-316.107,39.8769,-37.8646,91.4212,13404,2584.67,-4121.2,-27.9432,-32.6667,68.7085
2.548,24933.3,3536.42,-15288.8,-42.9125,-38.3679,-10.6589,4663.75,2360.38,11516.9,-22.1131,-298.808,54.6403,-20587.7,12440,1557.94,-0.538361,-0.39643,-68.8753,49.3725,-15129.9,-1064.27,57.4799,-18.8255,183.112,14965.9,12751.5,-592.525,-40.9864,65.4065,51.0681,2560.11,-12524.7,-411.407,39.0388,-39.4809,89.8954,13325.3,2568.81,-4002.86,-28.9,-33.1461,67.0483
2.549,25093.9,3373.77,-14987.3,-42.8939,-44.9669,-9.65218,4623.61,2406.84,11543.8,-22.6229,-303.295,54.9011,-20474.7,12410.9,1440.67,-0.883177,3.09792,-75.8757,155.671,-15109.1,-1127.49,57.4793,-19.5578,184.279,14470.1,12568.6,-1141.67,-34.7062,67.7768,51.8588,2566.15,-12513.2,-506.707,38.2008,-41.0971,88.3696,13246.6,2552.96,-3884.52,-29.8568,-33.6256,65.3881
2.55,25254.5,3211.12,-14685.9,-42.8753,-51.566,-8.64545,4583.47,2453.29,11570.7,-23.1327,-307.783,55.1618,-20361.7,12381.7,1323.39,-1.22799,6.59228,-82.8761,261.969,-15088.4,-1190.71,57.4786,-20.2901,185.445,13974.3,12385.6,-1690.82,-28.426,70.147,52.6495,2572.19,-12501.6,-602.006,37.3627,-42.7134,86.8438,13167.9,2537.1,-3766.18,-30.8136,-34.1051,63.7279
2.551,25415.1,3048.47,-14384.4,-42.8567,-58.165,-7.63872,4543.32,2499.75,11597.6,-23.6424,-312.271,55.4226,-20248.7,12352.6,1206.11,-1.57281,10.0866,-89.8764,368.267,-15067.7,-1253.93,57.4779,-21.0224,186.612,13478.5,12202.7,-2239.96,-22.1457,72.5173,53.4401,2578.23,-12490.1,-697.306,36.5246,-44.3296,85.318,13089.2,2521.24,-3647.83,-31.7704,-34.5845,62.0676
2.552,25491.8,2830.13,-14148.2,-44.3573,-62.8579,-7.63218,4496.08,2534.16,11624.6,-24.0225,-316.973,55.879,-20041.3,12357.3,1136.54,-1.32178,13.6496,-95.7985,506.345,-15050.6,-1313.32,57.4705,-21.5533,187.85,12963.1,12039.3,-2796.62,-18.6105,79.8206,53.1147,2666.33,-12464,-794.205,35.9473,-46.0626,83.9533,13058,2485.3,-3714.1,-31.5543,-34.2859,60.1512
2.553,25558,2604.83,-13920.2,-46.0479,-67.3126,-7.75066,4447.95,2567.06,11651.5,-24.3863,-321.7,56.3597,-19822.1,12366.3,1072.93,-0.996276,17.2211,-101.586,648.396,-15034,-1372.22,57.4621,-22.0591,189.098,12445.2,11878.4,-3354.22,-15.4185,87.7406,52.6499,2764.68,-12436,-891.303,35.4026,-47.8102,82.6087,13032.7,2446.86,-3803.43,-31.1914,-33.89,58.2027
2.554,25624.2,2379.53,-13692.2,-47.7385,-71.7672,-7.86914,4399.83,2599.96,11678.4,-24.7501,-326.428,56.8405,-19602.9,12375.2,1009.31,-0.67077,20.7926,-107.373,790.446,-15017.4,-1431.13,57.4538,-22.5648,190.345,11927.2,11717.6,-3911.82,-12.2264,95.6605,52.185,2863.03,-12408.1,-988.402,34.8579,-49.5578,81.264,13007.5,2408.42,-3892.77,-30.8286,-33.4941,56.2542
2.555,25690.3,2154.24,-13464.1,-49.429,-76.2219,-7.98762,4351.7,2632.86,11705.3,-25.1139,-331.156,57.3213,-19383.7,12384.1,945.7,-0.345264,24.3641,-113.16,932.497,-15000.7,-1490.03,57.4454,-23.0706,191.593,11409.3,11556.7,-4469.42,-9.03437,103.58,51.7201,2961.39,-12380.1,-1085.5,34.3131,-51.3054,79.9194,12982.3,2369.97,-3982.11,-30.4658,-33.0982,54.3056
2.556,25733.9,2110.75,-13500.7,-61.1018,-79.4837,-9.88491,4305.07,2666.44,11706.7,-25.3276,-335.952,57.7832,-18992.5,12382.8,697.229,0.60558,28.2477,-118.178,1059.09,-14991.8,-1584.75,57.4692,-23.4345,192.848,10881.9,11367.1,-4953.55,-8.24009,112.676,50.5267,3087.86,-12348.8,-1204.23,33.7718,-53.0891,78.5871,12990.8,2303.05,-4115.5,-30.2489,-32.6533,52.3596
2.557,25749.3,2294.53,-13868,-85.2523,-81.2545,-14.0057,4260.31,2700.88,11676.2,-25.3537,-340.831,58.2217,-18386.4,12368.5,217.684,2.3381,32.5216,-122.233,1166.35,-14992.4,-1724.22,57.5331,-23.6209,194.113,10342.4,11141.7,-5345.84,-10.443,123.242,48.4228,3249.49,-12313.3,-1349.99,33.2348,-54.918,77.2701,13041.4,2200.54,-4303.97,-30.2143,-32.1472,50.4167
2.558,25764.6,2478.31,-14235.2,-109.403,-83.0253,-18.1265,4215.55,2735.32,11645.7,-25.3797,-345.711,58.6602,-17780.4,12354.3,-261.861,4.07062,36.7954,-126.287,1273.61,-14993,-1863.7,57.5971,-23.8073,195.379,9803.03,10916.3,-5738.13,-12.646,133.808,46.3189,3411.11,-12277.9,-1495.75,32.6978,-56.7468,75.9532,13092,2098.02,-4492.43,-30.1797,-31.6411,48.4738
2.559,25779.9,2662.1,-14602.5,-133.553,-84.7961,-22.2473,4170.79,2769.76,11615.3,-25.4058,-350.59,59.0987,-17174.3,12340.1,-741.405,5.80313,41.0693,-130.342,1380.87,-14993.7,-2003.18,57.661,-23.9938,196.644,9263.62,10690.8,-6130.42,-14.849,144.373,44.2149,3572.73,-12242.4,-1641.51,32.1607,-58.5757,74.6362,13142.7,1995.51,-4680.9,-30.1452,-31.135,46.5309
2.56,25795.3,2845.88,-14969.8,-157.704,-86.5668,-26.368,4126.03,2804.21,11584.8,-25.4318,-355.47,59.5372,-16568.2,12325.8,-1220.95,7.53565,45.3432,-134.397,1488.13,-14994.3,-2142.65,57.7249,-24.1802,197.91,8724.21,10465.4,-6522.72,-17.0519,154.939,42.111,3734.36,-12206.9,-1787.27,31.6237,-60.4045,73.3192,13193.3,1893,-4869.36,-30.1106,-30.6288,44.588
2.561,28494.8,6378.18,-25436.4,-192.533,-82.9228,-60.3276,4093.03,2823.07,11628,-25.0941,-360.707,60.2287,-14880.8,12280.5,-3667.01,13.1186,64.214,-135.306,1511.05,-15041,-2232.15,57.7025,-24.9363,199.195,8206.65,10188,-5664.25,-26.102,159.548,38.4172,3872.61,-12180.7,-1924.19,31.0685,-62.6246,71.957,13218.7,1799.02,-4794.7,-31.7897,-28.3127,43.1307
2.562,31194.2,9910.47,-35902.9,-227.362,-79.2788,-94.2872,4060.02,2841.93,11671.3,-24.7565,-365.945,60.9203,-13193.5,12235.1,-6113.07,18.7015,83.0848,-136.214,1533.97,-15087.7,-2321.66,57.68,-25.6924,200.48,7689.09,9910.49,-4805.79,-35.1521,164.157,34.7235,4010.86,-12154.5,-2061.12,30.5132,-64.8447,70.5948,13244.2,1705.05,-4720.03,-33.4687,-25.9966,41.6735
2.563,33893.7,13442.8,-46369.5,-262.192,-75.6348,-128.247,4027.01,2860.79,11714.5,-24.4188,-371.183,61.6119,-11506.1,12189.7,-8559.12,24.2844,101.956,-137.123,1556.89,-15134.4,-2411.16,57.6576,-26.4484,201.765,7171.54,9633.02,-3947.33,-44.2022,168.766,31.0297,4149.1,-12128.3,-2198.04,29.958,-67.0648,69.2326,13269.6,1611.08,-4645.37,-35.1478,-23.6804,40.2162
2.564,36593.2,16975.1,-56836,-297.021,-71.9907,-162.206,3994,2879.65,11757.8,-24.0811,-376.42,62.3034,-9818.74,12144.4,-11005.2,29.8673,120.826,-138.031,1579.81,-15181.1,-2500.66,57.6351,-27.2045,203.05,6653.98,9355.55,-3088.87,-53.2523,173.375,27.336,4287.35,-12102.1,-2334.96,29.4027,-69.285,67.8704,13295,1517.11,-4570.71,-36.8268,-21.3643,38.759
2.565,32564.2,15266.9,-52011.6,-256.435,-160.411,-228.187,3935.6,2916.13,11845.6,-23.5358,-381.926,62.8722,-8588.35,11917.8,-14601.7,37.8482,155.071,-143.47,1618.46,-15254.5,-2566.41,57.5153,-28.401,204.189,6252.05,9258.86,-1104.58,-69.0443,169.763,23.0091,4435.62,-12092.2,-2543.79,28.7664,-71.6367,66.7184,13488.9,1362.17,-4194.23,-38.6495,-15.3198,38.8137
2.566,23152.6,9366.48,-34954.3,-155.518,-322.484,-319.784,3856.88,2966.71,11969.3,-22.8244,-387.647,63.3427,-7723.54,11546.1,-19118.6,47.7476,201.614,-152.532,1669.68,-15349.2,-2613.16,57.3176,-29.9498,205.212,5942.61,9306.79,1780.37,-90.2298,159.575,18.1757,4591.91,-12095.4,-2810.14,28.0651,-74.0936,65.7346,13817.5,1158.46,-3576.29,-40.5871,-6.29256,40.078
2.567,13740.9,3466.01,-17897.1,-54.5998,-484.556,-411.38,3778.16,3017.29,12092.9,-22.1131,-393.368,63.8132,-6858.73,11174.5,-23635.5,57.647,248.157,-161.594,1720.9,-15444,-2659.9,57.12,-31.4985,206.234,5633.18,9354.71,4665.33,-111.415,149.387,13.3423,4748.2,-12098.6,-3076.49,27.3639,-76.5506,64.7508,14146.1,954.747,-2958.36,-42.5247,2.73468,41.3423
2.568,4329.27,-2434.46,-839.826,46.3181,-646.628,-502.977,3699.44,3067.86,12216.5,-21.4017,-399.089,64.2838,-5993.92,10802.9,-28152.4,67.5464,294.701,-170.656,1772.13,-15538.7,-2706.65,56.9223,-33.0473,207.256,5323.75,9402.64,7550.28,-132.601,139.199,8.50896,4904.49,-12101.8,-3342.84,26.6626,-79.0076,63.767,14474.8,751.036,-2340.43,-44.4623,11.7619,42.6066
2.569,-2845.08,-7009.94,12975.8,136.037,-793.191,-585.357,3620.53,3119.57,12356.2,-20.7009,-404.92,64.7066,-5895.39,10610.6,-31772.5,75.6831,335.43,-184.041,1841.87,-15641.7,-2737.87,56.7576,-34.6226,208.284,5083.06,9542.75,10227.2,-154.574,129.833,3.40697,5065.4,-12103,-3635.21,25.9223,-81.3507,62.8484,14791.3,620.882,-1544.72,-45.772,20.1778,44.3907
2.57,7878.96,-985.511,858.475,136.162,-815.682,-593.997,3540.08,3180.33,12624.7,-20.0848,-411.629,64.7478,-11927.2,11853.7,-28218.2,69.7186,329.647,-232.011,2059.77,-15810.3,-2644.91,56.8566,-36.41,209.351,5392.36,10420.4,11239.5,-182.852,127.035,-3.84381,5263.32,-12087.9,-4135.8,24.8693,-82.783,62.4515,15010.9,1079.19,673.142,-42.0577,23.7031,50.3333
2.571,18603,5038.92,-11258.9,136.286,-838.173,-602.637,3459.63,3241.09,12893.2,-19.4687,-418.338,64.7891,-17958.9,13096.8,-24663.9,63.7542,323.865,-279.981,2277.67,-15978.9,-2551.95,56.9556,-38.1974,210.419,5701.67,11298,12251.8,-211.13,124.238,-11.0946,5461.23,-12072.9,-4636.39,23.8163,-84.2154,62.0546,15230.4,1537.49,2891.01,-38.3434,27.2283,56.2758
2.572,29327.1,11063.3,-23376.2,136.411,-860.664,-611.277,3379.18,3301.84,13161.7,-18.8526,-425.047,64.8303,-23990.7,14339.9,-21109.6,57.7897,318.082,-327.951,2495.57,-16147.5,-2458.99,57.0546,-39.9848,211.486,6010.97,12175.6,13264.2,-239.408,121.441,-18.3454,5659.15,-12057.8,-5136.98,22.7633,-85.6477,61.6577,15450,1995.79,5108.87,-34.6291,30.7536,62.2184
2.573,40051.1,17087.8,-35493.5,136.536,-883.155,-619.918,3298.73,3362.6,13430.2,-18.2365,-431.756,64.8716,-30022.5,15583,-17555.2,51.8252,312.3,-375.922,2713.47,-16316.2,-2366.02,57.1536,-41.7722,212.554,6320.28,13053.2,14276.5,-267.686,118.644,-25.5962,5857.06,-12042.8,-5637.57,21.7103,-87.08,61.2608,15669.6,2454.1,7326.74,-30.9149,34.2788,68.1609
2.574,50220.9,19950,-27921.8,136.604,-856.225,-584.043,3187.13,3365.7,13750.7,-19.4092,-439.341,64.7648,-36240.5,20829.5,-11577.3,22.3215,280.49,-435.233,3024.87,-16600.9,-2317.29,58.1418,-41.9946,213.753,7330.04,13704.8,14134.5,-276.972,122.147,-33.3977,6066.14,-12155.5,-6068.82,19.58,-87.588,60.6191,15540.1,2340.09,9190.93,-29.3024,28.9391,71.2269
2.575,60113.7,21231.1,-10505.6,136.642,-804.585,-525.911,3059.96,3339.96,14097.2,-21.4764,-447.365,64.5841,-42551.6,28077.6,-4387.69,-18.9519,235.666,-500.215,3383.02,-16943.8,-2290.66,59.5746,-41.4344,215.019,8690.04,14243.3,13415.5,-276.761,128.801,-41.4747,6280.8,-12332.2,-6465.42,16.9111,-87.6336,59.8551,15236.2,1939.93,10878.3,-28.7409,19.1668,72.8547
2.576,70006.5,22512.1,6910.67,136.68,-752.945,-467.779,2932.78,3314.23,14443.8,-23.5436,-455.389,64.4033,-48862.7,35325.8,2801.97,-60.2252,190.842,-565.197,3741.16,-17286.6,-2264.04,61.0075,-40.8743,216.284,10050,14781.9,12696.4,-276.551,135.456,-49.5516,6495.45,-12508.8,-6862.01,14.2422,-87.6793,59.0911,14932.2,1539.76,12565.7,-28.1793,9.3945,74.4825
2.577,79899.2,23793.2,24326.9,136.719,-701.305,-409.647,2805.61,3288.49,14790.3,-25.6107,-463.413,64.2225,-55173.7,42573.9,9991.63,-101.499,146.019,-630.18,4099.31,-17629.5,-2237.42,62.4403,-40.3142,217.55,11410,15320.4,11977.4,-276.34,142.11,-57.6286,6710.11,-12685.5,-7258.6,11.5733,-87.725,58.3271,14628.3,1139.6,14253,-27.6178,-0.377789,76.1102
2.578,88159.4,23091.5,38849.1,134.387,-646.624,-358.325,2671.62,3281.67,15056.3,-27.6862,-471.547,64.1626,-59423.6,50066.6,16744.7,-139.091,105.496,-676.72,4434.73,-17983.2,-2321.6,63.9267,-39.7646,218.723,12788.8,15569.6,11269.9,-270.397,145.169,-64.0298,6940.51,-12914,-7617.43,8.71075,-87.6863,57.197,14330.3,736.044,15312.5,-29.1269,-9.58437,76.8016
2.579,90705.7,15450.1,43242.3,123.76,-581.305,-330.84,2513.76,3341.06,15040.3,-29.7904,-480.066,64.5256,-56459.2,58415,21969.8,-163.8,80.0271,-658.714,4690.6,-18375,-2793.61,65.6003,-39.2516,219.573,14233.2,14805.7,10603.3,-244.391,135.645,-64.5661,7226.01,-13324.1,-7844.11,5.17018,-87.3523,54.7855,14053.2,320.598,14174.2,-37.8832,-16.811,74.2157
2.58,93252,7808.72,47635.5,113.133,-515.985,-303.355,2355.9,3400.44,15024.2,-31.8947,-488.585,64.8885,-53494.9,66763.4,27194.9,-188.51,54.5581,-640.709,4946.47,-18766.9,-3265.62,67.274,-38.7386,220.423,15677.5,14041.8,9936.58,-218.385,126.121,-65.1023,7511.51,-13734.2,-8070.79,1.62961,-87.0183,52.3741,13776.2,-94.8472,13035.8,-46.6396,-24.0376,71.6298
2.581,95798.3,167.308,52028.6,102.506,-450.665,-275.87,2198.03,3459.82,15008.2,-33.999,-497.104,65.2515,-50530.5,75111.8,32420,-213.219,29.0891,-622.703,5202.35,-19158.7,-3737.64,68.9476,-38.2256,221.272,17121.9,13277.9,9269.9,-192.378,116.597,-65.6386,7797.01,-14144.3,-8297.47,-1.91097,-86.6843,49.9627,13499.1,-510.293,11897.5,-55.3959,-31.2642,69.0438
2.582,98344.5,-7474.1,56421.8,91.8791,-385.346,-248.385,2040.17,3519.2,14992.2,-36.1033,-505.624,65.6144,-47566.1,83460.2,37645.1,-237.928,3.62009,-604.697,5458.22,-19550.6,-4209.65,70.6213,-37.7126,222.122,18566.3,12514,8603.22,-166.372,107.073,-66.1749,8082.51,-14554.4,-8524.15,-5.45154,-86.3502,47.5513,13222,-925.738,10759.2,-64.1523,-38.4909,66.4579
2.583,90681.4,-16956,57826.3,111.182,-336.931,-242.833,1952.6,3565.83,14872.1,-35.9931,-513.921,66.4909,-40397.3,82371,35322.1,-195.195,-29.2207,-544.772,5547.3,-19767.3,-4451.66,71.0167,-38.1605,222.776,18978.7,13387.2,7505.19,-149.186,95.2255,-66.939,8375.65,-14941.3,-8612.84,-6.90447,-86.8359,44.1865,13133.4,-681.871,9716.85,-69.1937,-40.5606,65.2992
2.584,80101.4,-26963.8,58376.8,139.037,-293.347,-243.548,1885.11,3608.83,14722.2,-35.2502,-522.155,67.5142,-32027.2,78585.3,30842.6,-133.192,-64.1678,-472.87,5588.73,-19934,-4627.97,71.0469,-38.883,223.373,19096.2,14728.1,6283.93,-134.52,82.7137,-67.7683,8670.96,-15321.6,-8662.11,-7.76093,-87.5556,40.5492,13098.6,-249.63,8701.91,-73.1737,-41.157,64.5483
2.585,69521.3,-36971.6,58927.4,166.891,-249.763,-244.263,1817.62,3651.82,14572.4,-34.5073,-530.39,68.5374,-23657.2,74799.6,26363,-71.1891,-99.1149,-400.968,5630.16,-20100.7,-4804.27,71.0771,-39.6054,223.971,19213.7,16069,5062.66,-119.854,70.2019,-68.5976,8966.28,-15701.8,-8711.37,-8.6174,-88.2755,36.9119,13063.8,182.611,7686.98,-77.1538,-41.7534,63.7973
2.586,58941.2,-46979.4,59478,194.746,-206.179,-244.978,1750.13,3694.81,14422.5,-33.7644,-538.624,69.5606,-15287.2,71013.9,21883.4,-9.1862,-134.062,-329.066,5671.58,-20267.5,-4980.57,71.1073,-40.3279,224.568,19331.2,17409.9,3841.4,-105.188,57.6901,-69.4269,9261.6,-16082.1,-8760.63,-9.47386,-88.9952,33.2746,13029,614.852,6672.04,-81.1338,-42.3498,63.0464
2.587,49176.4,-52709.1,56597.6,209.42,-160.766,-239.032,1675.12,3736.64,14349.8,-32.463,-547.324,70.6383,-8262.23,65745,17158.3,35.8442,-158.542,-275.173,5782.36,-20372.1,-5055.61,70.6172,-41.7569,225.341,19025.8,18709,2653.97,-93.9842,47.5117,-69.13,9536.78,-16365.7,-8730.32,-8.83317,-90.1749,29.7565,12989.3,1149.49,5659.41,-83.5067,-41.532,63.2386
2.588,41042.2,-49882.4,46855.1,197.733,-111.696,-219.765,1585.06,3776.14,14431.4,-30.0446,-556.954,71.8251,-3927.56,57509.8,11942.2,46.9298,-162.087,-257.296,6031.84,-20352.5,-4928.12,69.0865,-44.5991,226.465,17874.4,19924.4,1534.21,-89.7059,42.0001,-66.5807,9771.7,-16455.8,-8540.85,-5.1982,-92.2741,26.4767,12939.6,1888.92,4651.4,-82.6654,-37.886,65.317
2.589,32908,-47055.8,37112.7,186.046,-62.6256,-200.497,1495,3815.64,14512.9,-27.6261,-566.585,73.0118,407.109,49274.7,6726.07,58.0153,-165.632,-239.419,6281.32,-20332.9,-4800.64,67.5558,-47.4412,227.588,16723.1,21139.9,414.455,-85.4276,36.4886,-64.0314,10006.6,-16545.9,-8351.38,-1.56322,-94.3734,23.197,12890,2628.34,3643.38,-81.824,-34.24,67.3954
2.59,24773.8,-44229.1,27370.2,174.359,-13.5554,-181.23,1404.94,3855.14,14594.5,-25.2077,-576.215,74.1985,4741.78,41039.5,1509.94,69.1009,-169.178,-221.542,6530.8,-20313.3,-4673.16,66.0251,-50.2833,228.712,15571.7,22355.3,-705.301,-81.1493,30.977,-61.482,10241.5,-16636.1,-8161.91,2.07175,-96.4726,19.9173,12840.4,3367.77,2635.37,-80.9827,-30.5939,69.4738
2.591,16639.5,-41402.5,17627.8,162.672,35.5148,-161.963,1314.89,3894.64,14676,-22.7892,-585.846,75.3852,9076.45,32804.3,-3706.19,80.1864,-172.723,-203.664,6780.28,-20293.7,-4545.67,64.4944,-53.1254,229.835,14420.4,23570.7,-1825.06,-76.8709,25.4655,-58.9327,10476.5,-16726.2,-7972.44,5.70673,-98.5719,16.6376,12790.8,4107.2,1627.35,-80.1413,-26.9479,71.5522
2.592,14236.3,-29419.1,14155.9,137.528,37.1477,-131.675,1205.63,3914.25,14782,-18.7896,-595.832,77.3835,10344.9,28230.6,-6089.02,72.3441,-155.085,-213.286,7149.85,-20372.5,-4551.52,63.7976,-57.4215,230.816,12871,23589.8,-3561.24,-58.717,22.3066,-51.6451,10625.6,-16617,-7746.7,10.2504,-100.077,13.5734,12892.3,4589.75,1487.75,-77.3975,-19.6975,75.2774
2.593,12549.4,-16291.1,11467.8,110.702,32.8509,-100.01,1093.97,3931.38,14891.1,-14.5924,-605.863,79.4833,11230.1,24114.6,-8117.69,62.1358,-134.798,-226.345,7534.44,-20463.6,-4574.04,63.205,-61.8993,231.779,11272,23459.3,-5374.47,-38.8286,19.4419,-43.7653,10764,-16482.8,-7516.41,14.9076,-101.507,10.5363,13012.6,5040.19,1456.7,-74.4159,-11.9966,79.2084
2.594,10862.5,-3163.06,8779.64,83.8755,28.5541,-68.3441,982.319,3948.51,15000.2,-10.3951,-615.894,81.5831,12115.3,19998.5,-10146.4,51.9276,-114.512,-239.405,7919.03,-20554.8,-4596.57,62.6125,-66.3771,232.742,9672.9,23328.8,-7187.7,-18.9401,16.5772,-35.8855,10902.4,-16348.6,-7286.13,19.5648,-102.938,7.49907,13133,5490.64,1425.65,-71.4343,-4.29576,83.1395
2.595,9175.64,9964.95,6091.53,57.0495,24.2572,-36.6786,870.663,3965.64,15109.2,-6.19787,-625.925,83.6829,13000.5,15882.5,-12175,41.7193,-94.2261,-252.464,8303.62,-20645.9,-4619.09,62.0199,-70.855,233.705,8073.82,23198.3,-9000.94,0.948265,13.7124,-28.0056,11040.8,-16214.4,-7055.85,24.222,-104.369,4.46188,13253.4,5941.08,1394.6,-68.4527,3.40513,87.0706
2.596,9437.52,16310.1,3348.6,48.3471,21.4374,-32.3958,792.728,3852.3,15310.9,-1.5512,-636.315,85.4275,12561.9,12906.2,-13155.1,35.6049,-76.2827,-265.671,8601.07,-20785.7,-4608.89,61.9463,-75.3215,234.402,6216.56,22581.3,-11083.8,24.4574,17.22,-23.5062,11168.1,-16048.9,-6877.68,27.3745,-104.502,1.22755,13306.2,6042.67,1542.79,-66.8078,8.84064,89.5365
2.597,12135.3,14176.5,537.159,62.2993,20.4637,-62.3413,756.944,3575.86,15628.5,3.65726,-647.154,86.7284,10468.5,11354.4,-12824.5,34.6079,-61.2678,-279.062,8789.59,-20986.2,-4557.8,62.5214,-79.7739,234.766,4036.58,21356.1,-13503.8,52.4926,28.6929,-23.2323,11281.7,-15844.3,-6764.67,28.6461,-103.014,-2.25323,13274.4,5708.21,1915.01,-66.8338,11.4444,90.1711
2.598,14833.2,12043,-2274.28,76.2514,19.49,-92.2868,721.16,3299.42,15946,8.86573,-657.992,88.0292,8375.19,9802.54,-12493.8,33.6109,-46.2529,-292.454,8978.11,-21186.8,-4506.7,63.0964,-84.2263,235.129,1856.6,20130.9,-15923.8,80.5277,40.1659,-22.9584,11395.2,-15639.7,-6651.65,29.9176,-101.526,-5.734,13242.6,5373.74,2287.23,-66.8598,14.0482,90.8057
2.599,17531,9909.49,-5085.72,90.2036,18.5163,-122.232,685.377,3022.98,16263.6,14.0742,-668.831,89.33,6281.83,8250.73,-12163.2,32.6139,-31.2381,-305.846,9166.63,-21387.4,-4455.61,63.6715,-88.6787,235.493,-323.381,18905.7,-18343.8,108.563,51.6388,-22.6844,11508.7,-15435.1,-6538.63,31.1892,-100.038,-9.21477,13210.8,5039.27,2659.46,-66.8858,16.652,91.4403
2.6,20228.8,7775.97,-7897.16,104.156,17.5426,-152.178,649.593,2746.55,16581.1,19.2827,-679.669,90.6308,4188.48,6698.92,-11832.6,31.6169,-16.2232,-319.238,9355.16,-21588,-4404.52,64.2465,-93.1311,235.857,-2503.36,17680.5,-20763.7,136.598,63.1118,-22.4105,11622.2,-15230.5,-6425.62,32.4608,-98.5504,-12.6955,13179.1,4704.81,3031.68,-66.9118,19.2558,92.0749
2.601,21169.5,9672.59,-3792.76,101.383,19.3704,-135.921,423.933,2521.56,16812.8,25.7206,-697.652,91.3111,495.765,6230.61,-9294.77,35.2667,-20.8778,-328.719,9784.89,-21793.5,-4290.06,64.9583,-98.8071,236.117,-4863.99,16903.8,-21533.2,152.168,79.0422,-24.8773,11708.8,-15082.1,-6477.39,30.9373,-93.2944,-16.9171,13211.9,4163.46,1910.98,-70.7351,25.2425,88.6942
2.602,22110.3,11569.2,311.648,98.6096,21.1982,-119.664,198.273,2296.58,17044.5,32.1585,-715.634,91.9913,-3196.95,5762.3,-6756.96,38.9165,-25.5325,-338.2,10214.6,-21999,-4175.59,65.6702,-104.483,236.376,-7224.61,16127.2,-22302.6,167.739,94.9726,-27.344,11795.3,-14933.7,-6529.17,29.4139,-88.0385,-21.1387,13244.7,3622.12,790.281,-74.5583,31.2292,85.3136
2.603,23051,13465.8,4416.05,95.8364,23.026,-103.407,-27.3867,2071.6,17276.2,38.5964,-733.617,92.6715,-6889.66,5293.99,-4219.15,42.5663,-30.1871,-347.681,10644.4,-22204.6,-4061.13,66.382,-110.159,236.636,-9585.23,15350.6,-23072.1,183.309,110.903,-29.8108,11881.9,-14785.3,-6580.94,27.8905,-82.7826,-25.3602,13277.6,3080.77,-330.421,-78.3816,37.2159,81.9329
2.604,23991.7,15362.5,8520.46,93.0633,24.8538,-87.1507,-253.047,1846.61,17507.9,45.0343,-751.599,93.3518,-10582.4,4825.68,-1681.34,46.2161,-34.8418,-357.162,11074.1,-22410.1,-3946.67,67.0938,-115.835,236.896,-11945.9,14574,-23841.5,198.88,126.833,-32.2776,11968.5,-14636.9,-6632.72,26.3671,-77.5267,-29.5818,13310.4,2539.43,-1451.12,-82.2049,43.2026,78.5522
2.605,23823.9,13278.2,9931.27,91.5968,27.6356,-73.0999,-588.537,1653.31,17094,53.1661,-768.415,95.4749,-13728.7,4943.88,158.045,44.3954,-39.7928,-363.495,11413.4,-22523.2,-3836.32,67.9416,-121.855,237.326,-13996.1,13806.4,-23583,204.2,135.669,-33.7809,12011.3,-14560.9,-6690.63,25.7328,-70.7748,-33.629,13287.3,2034.4,-2169.69,-83.0178,49.8486,75.0004
2.606,22769.1,8009.33,9187.2,91.1755,31.1805,-60.8141,-1011.89,1485.36,16163.8,62.6531,-784.296,98.7523,-16437.9,5531.3,1438.69,38.1984,-44.981,-367.31,11680.5,-22562.3,-3729.26,68.8983,-128.15,237.893,-15798.1,13046.1,-22502.2,201.322,138.829,-34.5133,12019.3,-14543,-6753.45,25.8099,-62.8263,-37.5368,13219.5,1558.41,-2566.56,-81.4224,57.0219,71.3118
2.607,21714.4,2740.42,8443.13,90.7542,34.7255,-48.5283,-1435.25,1317.41,15233.6,72.14,-800.178,102.03,-19147.1,6118.72,2719.34,32.0014,-50.1691,-371.125,11947.5,-22601.5,-3622.2,69.8549,-134.444,238.46,-17600.1,12285.7,-21421.4,198.443,141.989,-35.2457,12027.2,-14525,-6816.27,25.8871,-54.8777,-41.4446,13151.6,1082.43,-2963.43,-79.827,64.1952,67.6232
2.608,20659.7,-2528.49,7699.06,90.3329,38.2704,-36.2425,-1858.6,1149.45,14303.3,81.6269,-816.059,105.307,-21856.4,6706.14,3999.99,25.8044,-55.3573,-374.94,12214.5,-22640.6,-3515.14,70.8116,-140.739,239.026,-19402.1,11525.4,-20340.6,195.564,145.149,-35.9781,12035.1,-14507,-6879.09,25.9642,-46.9292,-45.3524,13083.7,606.442,-3360.3,-78.2317,71.3685,63.9346
2.609,19497.7,-7632.15,6960.71,89.7467,41.6483,-26.1793,-2156.45,928.293,13430.3,91.7209,-830.399,108.554,-24167.8,7402.74,4896.72,18.8755,-57.6809,-377.271,12400.2,-22660.2,-3385.8,71.7466,-147.346,239.635,-21133.1,10747.5,-19265.4,191.897,146.993,-36.5959,12025.1,-14490.6,-6881.61,26.2609,-39.1439,-49.1307,13036.3,128.659,-3642.74,-76.0892,78.0578,60.3467
2.61,17477.6,-11413.8,6268.17,87.8411,43.6896,-33.8971,-1450.24,281.467,13015.6,106.672,-832.407,111.563,-23297.3,8972.81,2722.09,6.09175,-37.0886,-367.721,11935,-22524,-3078.17,72.509,-156.455,240.577,-22296.3,9829.22,-18234.9,181.93,138.308,-36.2965,11871.8,-14486,-6401.75,28.3142,-32.6651,-51.8722,13151.9,-363.511,-3009.81,-69.57,80.8743,57.5639
2.611,15457.5,-15195.4,5575.63,85.9355,45.7309,-41.615,-744.034,-365.359,12600.8,121.622,-834.414,114.571,-22426.7,10542.9,547.469,-6.69203,-16.4963,-358.171,11469.9,-22387.8,-2770.55,73.2713,-165.563,241.518,-23459.6,8910.96,-17204.5,171.963,129.624,-35.9972,11718.5,-14481.4,-5921.89,30.3674,-26.1863,-54.6138,13267.5,-855.68,-2376.88,-63.0508,83.6909,54.7811
2.612,13437.3,-18977,4883.09,84.0299,47.7723,-49.3329,-37.8244,-1012.18,12186,136.573,-836.422,117.579,-21556.2,12113,-1627.15,-19.4758,4.096,-348.62,11004.7,-22251.7,-2462.92,74.0337,-174.671,242.46,-24622.8,7992.69,-16174.1,161.996,120.94,-35.6978,11565.2,-14476.9,-5442.03,32.4207,-19.7075,-57.3554,13383.1,-1347.85,-1743.95,-56.5316,86.5075,51.9983
2.613,11417.2,-22758.6,4190.55,82.1244,49.8136,-57.0508,668.385,-1659.01,11771.2,151.524,-838.43,120.587,-20685.6,13683,-3801.78,-32.2596,24.6883,-339.07,10539.5,-22115.5,-2155.29,74.796,-183.779,243.402,-25786,7074.42,-15143.6,152.029,112.255,-35.3984,11411.9,-14472.3,-4962.17,34.474,-13.2287,-60.097,13498.7,-1840.02,-1111.02,-50.0124,89.3241,49.2155
2.614,9787.85,-21804.2,4370.73,81.7176,52.3454,-63.2085,1910.44,-2101.79,11962.7,166.808,-837.575,122.432,-17851,14379.1,-5161.36,-39.9944,35.8204,-320.969,9932.96,-21980.6,-1774.05,75.3063,-194.808,244.599,-26409.8,5978.85,-14696.1,146.765,99.7222,-34.066,11136.1,-14445.1,-4189.12,36.4535,-9.63195,-62.1767,13857.9,-2317.23,-377.739,-44.7378,90.2954,48.2511
2.615,8353.9,-18481.9,4987.27,82.0601,55.1225,-68.5862,3420.42,-2442.55,12457.4,182.259,-835.29,123.695,-14034.4,14638.1,-6113.43,-45.2048,42.2224,-298.591,9255.78,-21846.4,-1356,75.6905,-206.798,245.924,-26764,4794.62,-14539.9,143.853,85.2649,-32.2171,10799.1,-14406.5,-3269.47,38.396,-7.47624,-63.9255,14339,-2786.97,405.71,-40.0856,90.344,48.1959
2.616,6919.95,-15159.5,5603.8,82.4027,57.8995,-73.9639,4930.4,-2783.31,12952.1,197.711,-833.005,124.959,-10217.8,14897.2,-7065.49,-50.4151,48.6244,-276.214,8578.59,-21712.2,-937.954,76.0748,-218.788,247.249,-27118.1,3610.4,-14383.7,140.941,70.8076,-30.3683,10462,-14367.9,-2349.83,40.3386,-5.32052,-65.6743,14820.1,-3256.71,1189.16,-35.4334,90.3926,48.1407
2.617,5486,-11837.2,6220.34,82.7453,60.6766,-79.3416,6440.37,-3124.07,13446.7,213.162,-830.72,126.223,-6401.21,15156.2,-8017.56,-55.6254,55.0264,-253.836,7901.41,-21578,-519.905,76.459,-230.778,248.574,-27472.2,2426.17,-14227.6,138.028,56.3503,-28.5194,10125,-14329.4,-1430.19,42.2811,-3.1648,-67.4231,15301.2,-3726.45,1972.61,-30.7811,90.4413,48.0856
2.618,4271.07,-8612.92,6776.93,83.4759,63.4507,-83.1295,8022.19,-3240.35,13726.4,228.425,-827.591,127.737,-2891.52,14805.6,-8462.88,-60.1838,58.7326,-234.002,7272.98,-21432.2,-164.567,76.6885,-241.672,250.022,-27725.7,1266.98,-14015.5,136.694,42.7147,-26.8427,9739.1,-14267.2,-548.675,43.9774,-1.73834,-68.9348,15795.3,-4199.11,2755.45,-26.3514,90.1006,48.39
2.619,3822.73,-5732.14,7123.69,85.5644,66.2147,-81.3529,9855.45,-2570.98,13253.5,243.028,-821.51,130.13,-456.033,12321.2,-7134.62,-62.4601,53.004,-223.069,6815.17,-21245.5,-28.7132,76.3762,-248.729,251.904,-27627,195.398,-13607.8,140.883,31.955,-25.7688,9182.35,-14122.5,199.369,44.8118,-2.86427,-69.6168,16335.1,-4682.01,3536.15,-22.7003,88.3974,49.9528
2.62,3374.38,-2851.36,7470.45,87.653,68.9787,-79.5763,11688.7,-1901.6,12780.6,257.632,-815.429,132.523,1979.46,9836.75,-5806.36,-64.7364,47.2754,-212.136,6357.35,-21058.9,107.14,76.064,-255.785,253.785,-27528.3,-876.183,-13200.2,145.071,21.1953,-24.695,8625.61,-13977.7,947.413,45.6462,-3.99019,-70.2988,16875,-5164.91,4316.86,-19.0492,86.6941,51.5156
2.621,2926.03,29.4161,7817.21,89.7416,71.7426,-77.7996,13522,-1232.23,12307.8,272.235,-809.348,134.916,4414.95,7352.31,-4478.1,-67.0128,41.5467,-201.203,5899.54,-20872.2,242.994,75.7517,-262.842,255.666,-27429.6,-1947.76,-12792.5,149.26,10.4356,-23.6211,8068.87,-13832.9,1695.46,46.4805,-5.11612,-70.9808,17414.8,-5647.81,5097.56,-15.3982,84.9909,53.0784
2.622,2477.68,2910.19,8163.96,91.8301,74.5066,-76.023,15355.2,-562.856,11834.9,286.839,-803.267,137.309,6850.44,4867.87,-3149.84,-69.2891,35.8181,-190.271,5441.73,-20685.5,378.847,75.4395,-269.899,257.547,-27330.9,-3019.34,-12384.8,153.449,-0.324047,-22.5472,7512.13,-13688.2,2443.5,47.3149,-6.24205,-71.6627,17954.7,-6130.71,5878.27,-11.7471,83.2877,54.6412
2.623,3120.59,3169.64,8603.13,90.1743,75.0817,-74.465,17433.6,460.328,11286.4,294.424,-796.739,139.716,7456.62,2589.12,-1224.96,-70.5011,27.3386,-189.644,4738.22,-20438.1,-239.64,74.4107,-269.348,259.928,-26849.4,-3328.33,-11484.6,152.151,-4.81595,-21.8324,6799.68,-13589.1,3044.42,45.4019,-10.0302,-72.7893,18233.7,-6705.17,6719.77,-5.8624,79.1267,56.4119
2.624,4075.28,2680.13,9068.69,87.4487,75.0314,-72.9695,19582,1584.6,10716.4,300.005,-790.084,142.128,7540.14,369.133,870.378,-71.4091,18.0731,-191.963,3964.52,-20173.3,-1073.65,73.1772,-266.624,262.452,-26258.5,-3419.44,-10443.7,149.285,-7.51705,-21.2202,6042.75,-13503,3603.31,42.7038,-14.579,-74.0429,18438.1,-7305.79,7578.64,0.660458,74.2636,58.2421
2.625,5029.97,2190.62,9534.25,84.723,74.9811,-71.474,21730.4,2708.87,10146.3,305.585,-783.428,144.539,7623.67,-1850.85,2965.72,-72.3171,8.80767,-194.281,3190.81,-19908.5,-1907.67,71.9438,-263.899,264.976,-25667.7,-3510.55,-9402.72,146.42,-10.2181,-20.6081,5285.82,-13417,4162.2,40.0058,-19.1277,-75.2964,18642.6,-7906.41,8437.52,7.18332,69.4004,60.0724
2.626,5984.66,1701.11,9999.81,81.9974,74.9308,-69.9785,23878.9,3833.14,9576.24,311.165,-776.772,146.95,7707.19,-4070.84,5061.06,-73.225,-0.457788,-196.599,2417.11,-19643.7,-2741.68,70.7103,-261.175,267.5,-25076.8,-3601.66,-8361.78,143.554,-12.9192,-19.9959,4528.9,-13330.9,4721.09,37.3078,-23.6765,-76.55,18847,-8507.03,9296.39,13.7062,64.5372,61.9026
2.627,7015.69,1296.38,10341.1,79.471,74.3843,-68.4815,25725.2,5179.31,9124.17,313.122,-770.371,150.401,7181.67,-5554.61,6521.93,-73.3795,-8.49273,-198.975,1580.07,-19424.2,-3741.06,69.3223,-255.785,269.404,-24365.2,-3528.64,-7467.11,139.205,-13.5544,-19.6161,3753.5,-13222.6,5118.81,33.3758,-28.8519,-78.3532,18953.3,-9068.96,9872.18,20.9083,59.6017,63.4585
2.628,8199.39,1061.22,10433.9,77.3434,72.8455,-66.9815,26967.2,6969.25,8908.07,307.83,-764.48,155.934,5438.08,-5565.94,6713.85,-72.027,-14.0667,-201.467,616.388,-19295.4,-5071.18,67.6254,-245.066,270.066,-23412.3,-3127.37,-6865.03,131.889,-10.0575,-19.7011,2941.17,-13069.8,5194.19,26.9759,-35.2806,-81.2556,18863.4,-9553.51,9881.81,29.4689,54.5212,64.4659
2.629,9383.08,826.051,10526.7,75.2158,71.3067,-65.4816,28209.2,8759.19,8691.98,302.539,-758.589,161.466,3694.48,-5577.27,6905.77,-70.6744,-19.6406,-203.958,-347.297,-19166.6,-6401.3,65.9284,-234.346,270.728,-22459.3,-2726.1,-6262.95,124.574,-6.56061,-19.7862,2128.85,-12917,5269.57,20.5761,-41.7093,-84.1579,18773.5,-10038.1,9891.43,38.0294,49.4408,65.4733
2.63,10566.8,590.886,10619.5,73.0881,69.7679,-63.9816,29451.2,10549.1,8475.88,297.247,-752.698,166.998,1950.88,-5588.6,7097.69,-69.3219,-25.2145,-206.45,-1310.98,-19037.7,-7731.43,64.2315,-223.627,271.39,-21506.4,-2324.83,-5660.87,117.258,-3.06374,-19.8712,1316.52,-12764.2,5344.95,14.1762,-48.138,-87.0603,18683.5,-10522.6,9901.06,46.59,44.3604,66.4807
2.631,11750.5,355.72,10712.3,70.9605,68.2291,-62.4816,30693.2,12339.1,8259.79,291.956,-746.807,172.531,207.287,-5599.93,7289.61,-67.9694,-30.7884,-208.942,-2274.67,-18908.9,-9061.55,62.5345,-212.907,272.052,-20553.4,-1923.57,-5058.79,109.942,0.433135,-19.9562,504.192,-12611.3,5420.33,7.77636,-54.5667,-89.9626,18593.6,-11007.2,9910.69,55.1506,39.28,67.4881
2.632,11383.8,1058.27,10869.6,68.5687,65.7982,-60.2757,31062,13896,8466.1,282.748,-741.345,180.043,-1441.52,-3965.62,6774.46,-66.9574,-29.2447,-209.545,-2830.39,-18923.9,-10114.6,59.1041,-200.443,269.784,-19537,-1387.51,-5105.64,101.974,3.62444,-22.5782,-270.47,-12540.6,5026.1,-1.04214,-60.4511,-94.1012,18408.8,-11024.4,9552.29,56.6725,36.1109,67.6766
2.633,10823.3,1878.03,11035,66.1439,63.2558,-57.9816,31321.5,15423.8,8725.21,273.052,-735.938,187.802,-3078.48,-2125.61,6170.94,-65.9879,-26.8113,-209.912,-3335.11,-18956.9,-11132.9,55.457,-187.761,267.151,-18512.7,-834.599,-5233.61,93.9238,6.77755,-25.5174,-1040.42,-12480.1,4573.17,-10.163,-66.2675,-98.3942,18212.1,-10983.3,9147.89,57.3146,33.1807,67.7628
2.634,10262.8,2697.79,11200.4,63.7191,60.7134,-55.6875,31581.1,16951.6,8984.32,263.355,-730.53,195.562,-4715.44,-285.594,5567.42,-65.0185,-24.378,-210.279,-3839.83,-18989.9,-12151.3,51.8099,-175.079,264.517,-17488.5,-281.69,-5361.58,85.8738,9.93067,-28.4565,-1810.38,-12419.6,4120.24,-19.2838,-72.0839,-102.687,18015.4,-10942.2,8743.5,57.9567,30.2504,67.8489
2.635,9702.24,3517.56,11365.8,61.2943,58.171,-53.3934,31840.6,18479.4,9243.43,253.659,-725.122,203.321,-6352.4,1554.42,4963.89,-64.049,-21.9446,-210.646,-4344.55,-19022.9,-13169.7,48.1627,-162.397,261.884,-16464.2,271.218,-5489.55,77.8238,13.0838,-31.3956,-2580.33,-12359.2,3667.3,-28.4046,-77.9004,-106.98,17818.7,-10901,8339.1,58.5988,27.3202,67.935
2.636,8989.3,4037.85,11350,58.941,55.9024,-50.4116,32026.7,19449,9368.8,243.926,-719.459,210.767,-7470.22,3578.87,4811.31,-64.9198,-19.2203,-210.931,-4516.68,-19135.7,-13728.4,44.4763,-152.638,257.77,-15447.8,848.747,-5699.56,71.1333,14.9035,-35.8375,-3267.86,-12428.1,3140.34,-38.228,-82.676,-112.15,17578.8,-10756.9,8016.37,57.5854,24.8553,67.9595
2.637,8085.83,4183.82,11107.5,56.6772,53.9759,-46.5703,32121.1,19720.9,9327,234.147,-713.476,217.819,-7939.11,5833.87,5222.4,-68.0909,-16.1325,-211.114,-4273.06,-19348.1,-13712.6,40.7408,-146.533,251.807,-14441.5,1457.05,-6012.1,66.1421,15.0564,-42.1578,-3852.34,-12658.9,2520.83,-48.9296,-86.1506,-118.417,17285.1,-10484.2,7795.74,54.5027,22.9719,67.907
2.638,7182.35,4329.79,10865.1,54.4134,52.0495,-42.729,32215.5,19992.7,9285.2,224.368,-707.493,224.872,-8408.01,8088.87,5633.49,-71.2619,-13.0447,-211.296,-4029.43,-19560.6,-13696.7,37.0052,-140.427,245.844,-13435.2,2065.35,-6324.65,61.1509,15.2092,-48.478,-4436.83,-12889.7,1901.32,-59.6312,-89.6252,-124.683,16991.3,-10211.5,7575.1,51.4199,21.0885,67.8544
2.639,6278.88,4475.75,10622.7,52.1495,50.123,-38.8877,32309.8,20264.6,9243.41,214.589,-701.51,231.925,-8876.91,10343.9,6044.59,-74.4329,-9.95694,-211.479,-3785.81,-19773.1,-13680.9,33.2697,-134.322,239.88,-12428.8,2673.65,-6637.2,56.1597,15.3621,-54.7982,-5021.32,-13120.5,1281.82,-70.3327,-93.0997,-130.95,16697.5,-9938.8,7354.46,48.3371,19.2052,67.8018
2.64,5375.4,4621.72,10380.3,49.8857,48.1965,-35.0464,32404.1,20536.4,9201.61,204.811,-695.527,238.978,-9345.81,12598.9,6455.68,-77.604,-6.86914,-211.661,-3542.19,-19985.5,-13665.1,29.5341,-128.216,233.917,-11422.5,3281.96,-6949.75,51.1685,15.515,-61.1185,-5605.81,-13351.3,662.307,-81.0343,-96.5743,-137.216,16403.7,-9666.09,7133.82,45.2543,17.3218,67.7493
2.641,4931.03,3742.95,9996.72,49.1305,47.7952,-32.887,32133.4,20555.3,8581.48,194.039,-685.174,243.946,-9276.7,13917,6530.6,-79.2254,-9.48597,-210.856,-2875.3,-20331.6,-12914.6,27.7736,-130.439,226.935,-10536.7,3905.12,-6968.81,49.362,13.2878,-67.9284,-5955.75,-13909.3,203.361,-89.0695,-97.286,-144.621,16126.8,-9325.94,7009.51,43.8832,16.33,67.4498
2.642,4486.66,2864.18,9613.17,48.3753,47.3939,-30.7276,31862.6,20574.1,7961.35,183.267,-674.821,248.915,-9207.6,15235.1,6605.52,-80.8468,-12.1028,-210.05,-2208.41,-20677.6,-12164.1,26.0131,-132.661,219.953,-9650.94,4528.29,-6987.88,47.5555,11.0606,-74.7382,-6305.7,-14467.3,-255.586,-97.1047,-97.9976,-152.025,15849.9,-8985.79,6885.19,42.5121,15.3382,67.1504
2.643,4042.28,1985.41,9229.61,47.6201,46.9925,-28.5681,31591.8,20593,7341.23,172.495,-664.469,253.883,-9138.5,16553.3,6680.44,-82.4681,-14.7196,-209.244,-1541.52,-21023.7,-11413.6,24.2525,-134.884,212.971,-8765.15,5151.45,-7006.94,45.749,8.8334,-81.5481,-6655.65,-15025.3,-714.532,-105.14,-98.7093,-159.43,15573,-8645.64,6760.88,41.141,14.3463,66.8509
2.644,3597.91,1106.63,8846.05,46.8649,46.5912,-26.4087,31321.1,20611.9,6721.1,161.723,-654.116,258.851,-9069.4,17871.4,6755.35,-84.0895,-17.3365,-208.439,-874.633,-21369.7,-10663.2,22.492,-137.106,205.988,-7879.36,5774.62,-7026.01,43.9425,6.60619,-88.358,-7005.6,-15583.3,-1173.48,-113.175,-99.4209,-166.835,15296,-8305.49,6636.57,39.7699,13.3545,66.5515
2.645,3451.2,131.394,8609.14,46.1084,46.0084,-25.0516,31070.3,20815,6697.47,151.091,-642.901,260.691,-8803.46,18520.4,6121.72,-83.1807,-18.2459,-205.882,-274.981,-21763.5,-10016.8,23.4888,-139.51,200.358,-7149,6460.02,-7037.82,43.3072,4.58525,-94.5982,-7255.81,-16215.2,-1521.02,-118.029,-98.7023,-173.652,15067.8,-7902.58,6538.52,39.1245,12.7133,66.1462
2.646,3542.61,-921.02,8489.55,45.3509,45.2803,-24.3364,30835.6,21165.6,7151.03,140.571,-630.994,260.027,-8380.06,18634.1,4921.25,-80.2478,-17.7894,-201.925,270.883,-22195.6,-9453.7,26.6915,-142.059,195.809,-6542.96,7195.21,-7043.84,43.6088,2.72932,-100.383,-7426.23,-16906.3,-1779.43,-120.338,-96.8395,-179.999,14878.6,-7449.45,6461.5,39.0596,12.3525,65.6564
2.647,3634.02,-1973.43,8369.96,44.5935,44.5523,-23.6212,30600.9,21516.1,7604.6,130.051,-619.088,259.364,-7956.66,18747.8,3720.79,-77.3148,-17.3329,-197.968,816.746,-22627.6,-8890.62,29.8942,-144.608,191.26,-5936.93,7930.4,-7049.85,43.9105,0.873386,-106.167,-7596.65,-17597.4,-2037.83,-122.647,-94.9767,-186.347,14689.4,-6996.33,6384.47,38.9947,11.9918,65.1665
2.648,3725.43,-3025.85,8250.36,43.836,43.8242,-22.906,30366.3,21866.6,8058.16,119.531,-607.182,258.701,-7533.26,18861.4,2520.32,-74.3818,-16.8765,-194.01,1362.61,-23059.7,-8327.54,33.0969,-147.157,186.71,-5330.9,8665.59,-7055.87,44.2122,-0.982545,-111.952,-7767.07,-18288.5,-2296.24,-124.956,-93.1138,-192.694,14500.2,-6543.2,6307.44,38.9298,11.631,64.6766
2.649,3872.96,-3983.17,8133.46,43.1514,43.1697,-22.3568,30177.5,22188.1,8411.41,108.707,-594.414,257.39,-7023.82,18891.9,1370.82,-71.1819,-15.8069,-189.753,1822.07,-23475.3,-7805.76,36.3359,-149.055,182.685,-4755.04,9405.84,-7084.06,44.6424,-2.5815,-117.576,-7941.93,-18965.1,-2532.53,-126.828,-91.2221,-198.745,14317.6,-6094.58,6244.47,38.82,11.2954,64.0993
2.65,4469.42,-4179.78,8038.08,43.0488,43.1034,-23.1363,30356.3,22277.2,7962.19,95.4532,-574.749,250.902,-5826.04,18256.5,629.043,-65.8464,-9.83312,-183.09,1590.32,-23758.8,-7614.44,39.8657,-145.74,182.853,-4420.49,10186.6,-7289.67,46.1006,-2.1246,-121.914,-8152.31,-19526.1,-2591.85,-125.206,-89.0995,-202.426,14187.7,-5682.04,6293.94,38.3508,11.161,62.8225
2.651,5065.88,-4376.38,7942.7,42.9463,43.037,-23.9159,30535.1,22366.2,7512.96,82.1997,-555.084,244.414,-4628.27,17621.1,-112.729,-60.5109,-3.85929,-176.428,1358.57,-24042.4,-7423.12,43.3955,-142.426,183.02,-4085.95,10967.3,-7495.27,47.5588,-1.66771,-126.252,-8362.69,-20087.1,-2651.17,-123.584,-86.9769,-206.108,14057.8,-5269.5,6343.4,37.8816,11.0266,61.5457
2.652,5662.34,-4572.99,7847.32,42.8438,42.9707,-24.6954,30713.9,22455.3,7063.73,68.9463,-535.419,237.926,-3430.49,16985.8,-854.502,-55.1753,2.11454,-169.765,1126.82,-24326,-7231.8,46.9253,-139.112,183.187,-3751.41,11748,-7700.88,49.017,-1.21082,-130.59,-8573.08,-20648,-2710.48,-121.962,-84.8543,-209.789,13927.9,-4856.96,6392.86,37.4124,10.8921,60.2689
2.653,6258.8,-4769.59,7751.94,42.7413,42.9044,-25.4749,30892.6,22544.3,6614.51,55.6928,-515.755,231.438,-2232.71,16350.4,-1596.27,-49.8398,8.08837,-163.103,895.073,-24609.5,-7040.48,50.4551,-135.797,183.355,-3416.87,12528.8,-7906.48,50.4753,-0.753931,-134.929,-8783.46,-21209,-2769.8,-120.339,-82.7316,-213.471,13798,-4444.42,6442.33,36.9432,10.7577,58.9921
2.654,6401.6,-4649.34,7780.16,43.1979,42.739,-26.0769,31354.7,22484.4,6541.47,42.1833,-491.91,222.893,-970.434,15511.5,-1746.35,-44.6424,12.6376,-157.874,-25.4489,-24651.5,-6814.46,51.6386,-129.226,185.862,-3179.39,13184.7,-8013.22,51.6958,0.472678,-138.09,-9084.64,-21612.3,-2713,-118.325,-81.856,-214.681,13725.5,-4161.55,6529.73,36.5221,10.3096,57.2268
2.655,6317.57,-4370.68,7870.19,43.9341,42.524,-26.5901,31958.3,22349.8,6656.54,28.5458,-465.977,213.319,324.098,14570.8,-1600.58,-39.5142,16.4744,-153.362,-1290.36,-24572.7,-6571.09,51.6488,-121.026,189.54,-2990.45,13778.3,-8070.51,52.7976,2.08415,-140.662,-9431.22,-21936.7,-2598.15,-116.114,-81.6039,-214.656,13681.8,-3943.51,6636.09,36.1251,9.70463,55.2172
2.656,6233.53,-4092.01,7960.22,44.6703,42.309,-27.1033,32561.9,22215.3,6771.6,14.9083,-440.043,203.745,1618.63,13630.2,-1454.81,-34.3859,20.3113,-148.849,-2555.26,-24494,-6327.72,51.6591,-112.825,193.218,-2801.51,14371.9,-8127.81,53.8994,3.69561,-143.234,-9777.8,-22261.1,-2483.3,-113.904,-81.3518,-214.631,13638,-3725.47,6742.46,35.7281,9.09968,53.2075
2.657,6149.49,-3813.34,8050.25,45.4065,42.094,-27.6165,33165.5,22080.8,6886.67,1.27076,-414.109,194.171,2913.16,12689.5,-1309.04,-29.2576,24.1482,-144.337,-3820.17,-24415.2,-6084.34,51.6694,-104.625,196.895,-2612.56,14965.5,-8185.1,55.0012,5.30708,-145.806,-10124.4,-22585.5,-2368.45,-111.693,-81.0997,-214.606,13594.3,-3507.42,6848.82,35.3311,8.49472,51.1979
2.658,6008.61,-3536.04,8144.86,45.9294,41.761,-27.9908,33659,21914.1,7111.37,-11.687,-388.669,185.941,4015.12,11831.6,-1155.23,-25.1397,27.6728,-140.473,-5138.44,-24309.2,-5798.11,51.5759,-96.3098,200.506,-2455.89,15500.2,-8166.45,56.1321,6.81979,-147.965,-10450.5,-22846.9,-2263.42,-109.631,-81.2151,-213.678,13558.4,-3306.29,6940.24,35.0042,7.82974,49.1159
2.659,5668.75,-3263.55,8255.53,45.706,41.015,-27.8786,33766.9,21634.7,7719.78,-22.2657,-364.957,182.417,4443.1,11263.3,-973.258,-24.5579,30.1048,-138.875,-6643.46,-24108.1,-5361.84,51.1191,-87.5918,203.881,-2412.15,15828.5,-7882,57.365,7.98685,-148.677,-10705.1,-22888,-2192.72,-108.088,-82.6168,-209.588,13549.9,-3164.34,6979.36,34.9223,6.95468,46.7808
2.66,5328.88,-2991.05,8366.19,45.4825,40.269,-27.7665,33874.9,21355.4,8328.18,-32.8445,-341.245,178.894,4871.07,10695,-791.29,-23.976,32.5368,-137.277,-8148.47,-23906.9,-4925.57,50.6622,-78.8737,207.257,-2368.41,16156.8,-7597.55,58.5978,9.1539,-149.388,-10959.6,-22929,-2122.03,-106.545,-84.0186,-205.499,13541.4,-3022.38,7018.49,34.8404,6.07962,44.4457
2.661,4989.02,-2718.56,8476.86,45.259,39.523,-27.6544,33982.8,21076,8936.59,-43.4232,-317.533,175.37,5299.05,10126.7,-609.321,-23.3942,34.9688,-135.679,-9653.49,-23705.8,-4489.29,50.2054,-70.1556,210.632,-2324.67,16485.1,-7313.1,59.8306,10.321,-150.1,-11214.2,-22970.1,-2051.34,-105.002,-85.4203,-201.41,13532.9,-2880.43,7057.61,34.7585,5.20455,42.1106
2.662,4649.16,-2446.06,8587.52,45.0356,38.777,-27.5423,34090.8,20796.6,9545,-54.0019,-293.821,171.846,5727.02,9558.4,-427.352,-22.8124,37.4008,-134.081,-11158.5,-23504.7,-4053.02,49.7486,-61.4375,214.007,-2280.93,16813.4,-7028.65,61.0635,11.488,-150.811,-11468.7,-23011.1,-1980.65,-103.459,-86.8221,-197.32,13524.4,-2738.48,7096.73,34.6766,4.32949,39.7755
2.663,4546.94,-2103.04,8774.14,43.9688,37.6266,-26.7946,33930.6,19152.5,9087.97,-63.5355,-266.518,167.798,5457.86,9356.67,-108.196,-24.011,40.771,-132.778,-12209.9,-23219.5,-3867.76,50.6226,-54.2532,215.335,-2355.22,17174.3,-6566.04,61.3351,13.1952,-150.468,-11588.7,-22967.3,-1969.97,-102.864,-88.9713,-190.743,13585.4,-2647.12,7126.73,34.8685,3.64671,37.3128
2.664,4512.62,-1739.87,8982.46,42.6611,36.3606,-25.8654,33693.7,17118.5,8326.53,-72.7705,-238.188,163.6,4989.52,9259.68,250.157,-25.7183,44.4092,-131.56,-13131.8,-22910.3,-3754.21,51.8768,-47.5071,216.078,-2463.24,17544.4,-6052.52,61.332,15.0567,-149.823,-11670.1,-22899.3,-1976.44,-102.539,-91.3341,-183.455,13666.2,-2570.23,7154.13,35.1385,3.01888,34.8136
2.665,4478.3,-1376.7,9190.78,41.3534,35.0947,-24.9361,33456.9,15084.4,7565.1,-82.0055,-209.858,159.402,4521.18,9162.7,608.51,-27.4257,48.0475,-130.341,-14053.6,-22601,-3640.66,53.1311,-40.7609,216.82,-2571.26,17914.6,-5539,61.329,16.9182,-149.179,-11751.6,-22831.2,-1982.91,-102.215,-93.6969,-176.166,13747,-2493.33,7181.52,35.4086,2.39106,32.3143
2.666,4443.98,-1013.53,9399.1,40.0457,33.8287,-24.0069,33220.1,13050.4,6803.66,-91.2405,-181.528,155.204,4052.84,9065.71,966.862,-29.133,51.6858,-129.123,-14975.4,-22291.8,-3527.12,54.3853,-34.0148,217.563,-2679.28,18284.8,-5025.48,61.3259,18.7797,-148.534,-11833.1,-22763.2,-1989.39,-101.89,-96.0598,-168.878,13827.8,-2416.44,7208.92,35.6786,1.76323,29.8151
2.667,4428.32,-706.526,9593.75,38.7891,32.5846,-23.0879,32924.3,11348.7,6670.7,-98.1592,-152.491,149.651,3537.46,9022.18,1379.82,-29.7784,54.5966,-127.614,-15659.2,-21961.6,-3437.38,56.3193,-28.5652,217.254,-2859.73,18609.8,-4521.8,61.3109,20.7845,-147.485,-11850.7,-22736.2,-1986.96,-101.97,-98.3626,-161.403,13905.1,-2328.58,7219.76,36.0044,1.15333,27.2023
2.668,4449.98,-511.851,9761.06,37.6347,31.3845,-22.1895,32510.6,10311.7,7794.69,-100.445,-122.038,141.388,2928.02,9085.56,1901.99,-28.2999,56.0525,-125.525,-15866.8,-21589.4,-3395.26,59.613,-25.7088,214.841,-3185.03,18844.4,-4037.79,61.2717,23.0757,-145.626,-11740.7,-22791.3,-1966.73,-102.859,-100.546,-153.553,13975.6,-2218.82,7197.5,36.4415,0.579293,24.3622
2.669,4471.64,-317.176,9928.37,36.4804,30.1843,-21.291,32096.8,9274.64,8918.67,-102.731,-91.5853,133.125,2318.58,9148.95,2424.16,-26.8214,57.5084,-123.436,-16074.5,-21217.2,-3353.14,62.9067,-22.8523,212.429,-3510.34,19079,-3553.79,61.2325,25.367,-143.768,-11630.6,-22846.5,-1946.51,-103.747,-102.728,-145.703,14046.1,-2109.06,7175.24,36.8786,0.00525823,21.5222
2.67,4493.29,-122.501,10095.7,35.326,28.9841,-20.3925,31683.1,8237.62,10042.7,-105.017,-61.1325,124.862,1709.14,9212.33,2946.34,-25.3429,58.9644,-121.347,-16282.2,-20844.9,-3311.03,66.2004,-19.9958,210.016,-3835.64,19313.6,-3069.78,61.1933,27.6582,-141.909,-11520.5,-22901.6,-1926.28,-104.635,-104.911,-137.854,14116.6,-1999.29,7152.99,37.3158,-0.568777,18.6821
2.671,4514.95,72.1739,10263,34.1717,27.784,-19.4941,31269.4,7200.61,11166.6,-107.302,-30.6798,116.599,1099.71,9275.71,3468.51,-23.8644,60.4203,-119.258,-16489.9,-20472.7,-3268.91,69.494,-17.1393,207.604,-4160.95,19548.2,-2585.77,61.1542,29.9495,-140.051,-11410.4,-22956.8,-1906.06,-105.524,-107.094,-130.004,14187.1,-1889.53,7130.73,37.7529,-1.14281,15.842
2.672,4417.36,-24.778,10230.1,33.0836,26.6192,-18.4238,30707.4,7274.04,12514.8,-97.9681,-5.09945,109.871,708.21,9374.24,3548.95,-21.1603,58.2564,-117.56,-16286.7,-20074.9,-3220.34,71.2379,-17.2712,203.675,-4604.51,19458.7,-2385.88,63.6773,32.4118,-137.368,-11182.7,-23074.4,-1828.03,-107.241,-108.188,-123.754,14207,-1749.97,7017.43,38.3883,-1.40564,12.9617
2.673,4304.87,-158.183,10172.3,32.0037,25.4588,-17.3319,30126.9,7486.27,13891,-87.1814,19.8718,103.335,343.958,9477.15,3574.18,-18.303,55.6401,-115.912,-16032.1,-19673.8,-3170.97,72.788,-17.7767,199.556,-5062.85,19328.8,-2221.5,66.5206,34.8955,-134.581,-10940.2,-23199.8,-1742.78,-109.062,-109.145,-117.703,14220.6,-1606.68,6892.76,39.0485,-1.62957,10.0763
2.674,4192.38,-291.589,10114.4,30.9239,24.2984,-16.2401,29546.4,7698.51,15267.2,-76.3946,44.8431,96.7991,-20.2945,9580.06,3599.41,-15.4458,53.0238,-114.263,-15777.6,-19272.8,-3121.59,74.3381,-18.2822,195.437,-5521.19,19198.8,-2057.11,69.364,37.3792,-131.795,-10697.8,-23325.2,-1657.52,-110.882,-110.102,-111.653,14234.2,-1463.4,6768.08,39.7088,-1.8535,7.19099
2.675,4079.89,-424.994,10056.5,29.844,23.138,-15.1483,28965.9,7910.74,16643.4,-65.6079,69.8144,90.2631,-384.547,9682.98,3624.64,-12.5885,50.4074,-112.614,-15523.1,-18871.7,-3072.22,75.8882,-18.7876,191.318,-5979.54,19068.9,-1892.73,72.2074,39.8629,-129.008,-10455.4,-23450.6,-1572.27,-112.703,-111.059,-105.602,14247.8,-1320.11,6643.4,40.369,-2.07743,4.30563
2.676,4015.09,-662.134,9965.41,28.775,22.0112,-14.3303,28477.7,7866.65,17553.9,-57.8593,91.0575,83.7208,-694.946,9860.75,3473,-10.3844,47.9484,-111.153,-15102,-18504.6,-3121.42,75.8177,-19.3249,186.694,-6416.43,18864.1,-1822.58,76.0341,42.6114,-126.486,-10196.9,-23574.4,-1442.72,-114.504,-110.738,-101.038,14266.8,-1157.76,6503.77,41.1163,-2.30415,1.4672
2.677,4009.91,-1028.94,9832.78,27.7195,20.9264,-13.8545,28104.7,7502.15,17882.3,-53.9086,107.64,77.1704,-938.03,10132.1,3100.26,-8.99672,45.686,-109.927,-14473,-18179.9,-3293.86,73.7213,-19.9021,181.437,-6826.5,18565.8,-1870.23,81.0898,45.691,-124.294,-9918.53,-23696,-1257.81,-116.279,-108.82,-98.3319,14292.6,-971.582,6345.43,41.9727,-2.53437,-1.3126
2.678,4004.72,-1395.75,9700.14,26.6639,19.8416,-13.3786,27731.8,7137.66,18210.8,-49.9578,124.223,70.62,-1181.11,10403.4,2727.52,-7.60905,43.4236,-108.701,-13843.9,-17855.3,-3466.3,71.6249,-20.4792,176.18,-7236.58,18267.5,-1917.87,86.1456,48.7706,-122.102,-9640.12,-23817.6,-1072.89,-118.055,-106.901,-95.6258,14318.4,-785.402,6187.1,42.829,-2.76459,-4.09239
2.679,3999.54,-1762.56,9567.5,25.6084,18.7568,-12.9028,27358.8,6773.16,18539.2,-46.007,140.806,64.0696,-1424.2,10674.8,2354.78,-6.22138,41.1613,-107.475,-13214.8,-17530.6,-3638.74,69.5285,-21.0564,170.923,-7646.65,17969.2,-1965.51,91.2013,51.8502,-119.91,-9361.72,-23939.2,-887.976,-119.831,-104.983,-92.9197,14344.2,-599.222,6028.76,43.6853,-2.9948,-6.87219
2.68,3994.35,-2129.37,9434.87,24.5529,17.672,-12.4269,26985.8,6408.66,18867.7,-42.0562,157.389,57.5192,-1667.28,10946.1,1982.05,-4.83372,38.8989,-106.249,-12585.7,-17205.9,-3811.17,67.4321,-21.6335,165.666,-8056.73,17670.9,-2013.15,96.2571,54.9298,-117.718,-9083.31,-24060.8,-703.06,-121.606,-103.064,-90.2136,14370,-413.042,5870.42,44.5416,-3.22502,-9.65198
2.681,4171.08,-2068.18,9365.3,23.3172,16.9028,-12.3514,25996.7,6961.19,18506.5,-42.4309,166.501,52.9097,-1792.7,11174.6,1962.4,-4.48543,38.4309,-104.658,-11514.8,-16973.6,-4142.57,61.4153,-20.2276,158.835,-8298.33,17401.1,-1982.23,100.626,56.5621,-116.315,-8920.26,-23974.1,-500.82,-123.846,-98.0017,-90.5469,14361.9,-190.295,5692.17,45.0857,-3.27137,-12.1329
2.682,4347.81,-2007,9295.73,22.0815,16.1336,-12.2759,25007.5,7513.72,18145.3,-42.8055,175.613,48.3002,-1918.12,11403.1,1942.76,-4.13714,37.963,-103.067,-10443.9,-16741.4,-4473.96,55.3984,-18.8216,152.004,-8539.93,17131.2,-1951.31,104.994,58.1944,-114.912,-8757.2,-23887.4,-298.58,-126.086,-92.939,-90.8802,14353.7,32.453,5513.91,45.6298,-3.31772,-14.6139
2.683,4524.54,-1945.81,9226.16,20.8459,15.3645,-12.2004,24018.3,8066.26,17784.1,-43.1801,184.726,43.6906,-2043.54,11631.6,1923.11,-3.78885,37.495,-101.477,-9373.02,-16509.1,-4805.35,49.3815,-17.4157,145.173,-8781.53,16861.4,-1920.39,109.363,59.8267,-113.509,-8594.15,-23800.8,-96.34,-128.326,-87.8763,-91.2135,14345.6,255.201,5335.65,46.1739,-3.36407,-17.0948
2.684,4701.27,-1884.63,9156.59,19.6102,14.5953,-12.1248,23029.1,8618.79,17422.9,-43.5547,193.838,39.0811,-2168.96,11860.1,1903.47,-3.44056,37.027,-99.8856,-8302.12,-16276.8,-5136.74,43.3646,-16.0097,138.342,-9023.13,16591.6,-1889.47,113.732,61.459,-112.105,-8431.09,-23714.1,105.9,-130.567,-82.8136,-91.5467,14337.4,477.948,5157.4,46.718,-3.41042,-19.5758
2.685,4809.06,-1691.87,9109.11,18.6377,14.0192,-11.8941,21874,9165.19,16776.4,-44.2051,202.524,35.3719,-2257.39,11913.6,2038.05,-3.38916,35.7854,-98.3795,-7148.6,-15974.8,-5360.2,35.7125,-15.3086,130.712,-9140.7,16300.8,-1846.08,117.067,61.8877,-111.208,-8305.54,-23676.9,335.472,-132.974,-76.7947,-93.1758,14293.3,681.563,5004.28,46.7603,-3.38257,-21.8297
2.686,4861.69,-1393.87,9079.29,17.8759,13.5975,-11.5392,20586.2,9706.68,15901.6,-45.076,210.87,32.3829,-2316.22,11827.1,2296.01,-3.57527,33.9248,-96.9413,-5928.97,-15617.1,-5497.33,26.7522,-15.1713,122.441,-9159.05,15993.3,-1792.7,119.575,61.3537,-110.715,-8209.97,-23679.3,586.908,-135.516,-70.0108,-95.8416,14220.3,869.871,4871.27,46.4012,-3.29537,-23.9019
2.687,4914.33,-1095.86,9049.47,17.114,13.1759,-11.1843,19298.5,10248.2,15026.9,-45.947,219.215,29.394,-2375.05,11740.6,2553.97,-3.76139,32.0642,-95.5031,-4709.35,-15259.4,-5634.45,17.7919,-15.034,114.171,-9177.39,15685.8,-1739.32,122.083,60.8197,-110.222,-8114.41,-23681.6,838.345,-138.058,-63.227,-98.5073,14147.4,1058.18,4738.26,46.042,-3.20818,-25.9741
2.688,4966.96,-797.856,9019.65,16.3522,12.7542,-10.8294,18010.7,10789.7,14152.2,-46.8179,227.56,26.405,-2433.88,11654.2,2811.93,-3.9475,30.2037,-94.0649,-3489.73,-14901.7,-5771.57,8.8316,-14.8968,105.901,-9195.73,15378.3,-1685.95,124.592,60.2857,-109.729,-8018.85,-23684,1089.78,-140.599,-56.4431,-101.173,14074.4,1246.49,4605.25,45.6829,-3.12098,-28.0463
2.689,5000.7,-535.797,8989.02,15.6069,12.3627,-10.453,16761.9,11265.2,13342.5,-47.7208,235.702,23.5465,-2488,11544.6,3040.4,-4.08242,28.2637,-92.6549,-2317.08,-14531.9,-5889.52,0.32915,-14.9743,97.6467,-9197.99,15071.1,-1643.96,126.932,59.6756,-109.388,-7937.02,-23669.1,1345.37,-143.112,-49.7209,-103.962,13993.1,1421.3,4474.01,45.2626,-3.01942,-30.0695
2.69,4883.32,-561.305,8951.89,14.9937,12.213,-9.90429,15825,11213.4,13053.2,-48.8787,242.217,21.7315,-2504.49,11250.1,3032.95,-3.8078,25.6886,-91.4708,-1520.21,-14065.4,-5854.02,-4.5104,-16.7703,89.5243,-9071.54,14765.7,-1693.08,127.931,58.4569,-110.27,-7965,-23515.8,1634.19,-145.393,-43.4916,-107.732,13844.4,1488.15,4356.84,44.3535,-2.80303,-31.7002
2.691,4765.94,-586.813,8914.75,14.3806,12.0632,-9.35563,14888,11161.5,12764,-50.0367,248.732,19.9165,-2520.98,10955.6,3025.5,-3.53318,23.1136,-90.2868,-723.334,-13599,-5818.53,-9.34995,-18.5662,81.4018,-8945.08,14460.2,-1742.2,128.929,57.2382,-111.152,-7992.98,-23362.5,1923.02,-147.674,-37.2624,-111.503,13695.7,1555.01,4239.67,43.4443,-2.58664,-33.3309
2.692,4648.57,-612.32,8877.62,13.7674,11.9135,-8.80696,13951,11109.6,12474.7,-51.1947,255.247,18.1016,-2537.47,10661.1,3018.06,-3.25857,20.5385,-89.1028,73.5376,-13132.5,-5783.04,-14.1895,-20.3622,73.2794,-8818.63,14154.8,-1791.32,129.928,56.0196,-112.033,-8020.96,-23209.2,2211.84,-149.954,-31.0331,-115.273,13547,1621.86,4122.5,42.5351,-2.37024,-34.9616
2.693,4531.19,-637.828,8840.48,13.1543,11.7637,-8.2583,13014.1,11057.7,12185.5,-52.3526,261.762,16.2866,-2553.96,10366.7,3010.61,-2.98395,17.9635,-87.9187,870.409,-12666.1,-5747.55,-19.0291,-22.1581,65.157,-8692.18,13849.4,-1840.44,130.926,54.8009,-112.915,-8048.94,-23055.9,2500.66,-152.235,-24.8038,-119.044,13398.4,1688.71,4005.33,41.6259,-2.15385,-36.5922
2.694,4404.42,-842.722,8836.62,12.4482,11.5745,-7.95977,12134,10909.8,12115.5,-52.3633,266.827,16.0535,-2416.26,10086.6,2891.88,-2.12928,16.3274,-86.5451,1332.96,-12319,-5778.01,-19.5506,-21.4317,58.1284,-8551.79,13590.4,-1941.63,131.091,53.6561,-114.55,-8148.43,-22838.1,2776.38,-154.649,-19.6518,-122.867,13272.5,1683.31,3887.97,40.5454,-1.87249,-38.0144
2.695,4272.96,-1137.31,8849.39,11.6957,11.3655,-7.78632,11282.4,10714,12155.3,-51.8004,271.168,16.6113,-2201.48,9813.71,2717.5,-0.984593,15.1609,-85.0767,1628.34,-12031.5,-5841.43,-17.9133,-19.4441,51.6468,-8404.43,13354.6,-2068.86,130.838,52.5481,-116.563,-8283.66,-22588,3045.55,-157.128,-15.0383,-126.716,13158.1,1641.77,3770.51,39.3791,-1.55865,-39.3324
2.696,4141.49,-1431.9,8862.15,10.9431,11.1565,-7.61287,10430.7,10518.1,12195,-51.2375,275.508,17.1692,-1986.7,9540.84,2543.13,0.160097,13.9944,-83.6083,1923.72,-11744.1,-5904.85,-16.2759,-17.4565,45.1651,-8257.07,13118.8,-2196.09,130.586,51.4402,-118.575,-8418.9,-22338,3314.72,-159.608,-10.4248,-130.565,13043.6,1600.24,3653.04,38.2129,-1.24481,-40.6503
2.697,4010.03,-1726.48,8874.92,10.1906,10.9476,-7.43942,9579.12,10322.2,12234.7,-50.6746,279.848,17.727,-1771.91,9267.98,2368.76,1.30479,12.8278,-82.1399,2219.11,-11456.6,-5968.27,-14.6385,-15.4689,38.6835,-8109.72,12883,-2323.31,130.334,50.3323,-120.587,-8554.14,-22087.9,3583.89,-162.087,-5.81131,-134.414,12929.2,1558.7,3535.58,37.0467,-0.930976,-41.9683
2.698,3907.19,-1981.91,8888.04,9.42208,10.6857,-7.33871,8723.45,10104.7,12264.8,-49.7405,283.625,18.3527,-1537.5,9033.65,2206.25,2.44615,11.8918,-80.5824,2498.08,-11190.5,-6008.32,-12.5149,-12.2377,32.3429,-7969.9,12672.1,-2452.85,129.947,49.2755,-122.667,-8684.1,-21840.7,3815.49,-164.571,-1.52127,-138.148,12838.1,1499.39,3421.22,36.0243,-0.634104,-43.1659
2.699,3904.55,-2100.29,8902.4,8.59777,10.2387,-7.49259,7853.62,9811.69,12261.3,-47.5072,285.433,19.216,-1234.35,8934.23,2085.3,3.57588,11.7624,-78.7126,2719.64,-10999,-5966.58,-8.68965,-4.65388,26.4959,-7856.49,12548.6,-2590.47,129.092,48.3974,-124.984,-8795.62,-21603.7,3915.64,-167.072,1.63674,-141.48,12828.6,1377.85,3317.73,35.5055,-0.396615,-43.942
2.7,3901.91,-2218.66,8916.76,7.77345,9.79179,-7.64647,6983.79,9518.66,12257.7,-45.274,287.241,20.0793,-931.211,8834.8,1964.34,4.7056,11.633,-76.8428,2941.2,-10807.5,-5924.84,-4.86437,2.92999,20.6488,-7743.09,12425.1,-2728.1,128.236,47.5193,-127.301,-8907.14,-21366.7,4015.78,-169.572,4.79474,-144.812,12819.2,1256.32,3214.25,34.9867,-0.159127,-44.7181
2.701,3899.26,-2337.04,8931.11,6.94914,9.34484,-7.80035,6113.96,9225.63,12254.2,-43.0407,289.049,20.9426,-628.069,8735.37,1843.38,5.83532,11.5036,-74.973,3162.75,-10616,-5883.1,-1.0391,10.5139,14.8018,-7629.68,12301.5,-2865.72,127.38,46.6412,-129.618,-9018.66,-21129.7,4115.92,-172.073,7.95274,-148.145,12809.7,1134.78,3110.76,34.4678,0.0783621,-45.4943
2.702,3896.62,-2455.41,8945.47,6.12483,8.89788,-7.95424,5244.14,8932.6,12250.7,-40.8075,290.857,21.806,-324.927,8635.95,1722.42,6.96505,11.3742,-73.1032,3384.31,-10424.5,-5841.36,2.78618,18.0977,8.9548,-7516.27,12178,-3003.34,126.524,45.7631,-131.935,-9130.18,-20892.6,4216.07,-174.573,11.1107,-151.477,12800.3,1013.24,3007.27,33.949,0.315851,-46.2704
2.703,3950.19,-2366.81,8977.5,5.33358,8.48572,-8.16589,4613.64,8590.63,12073.6,-40.2612,291.889,21.4765,-225.546,8669.54,1545.88,7.52511,11.2271,-71.2893,3720.75,-10103.1,-5683.41,3.36148,25.7361,3.57439,-7410.44,12127.6,-3126.92,125.495,45.0529,-134.109,-9203.89,-20685.5,4283.04,-176.475,13.3772,-154.037,12849,880.928,2938.8,34.0462,0.410111,-46.5628
2.704,4019.83,-2219.07,9014.58,4.55177,8.0835,-8.39405,4051.52,8234.67,11847,-40.1968,292.7,20.8062,-184.382,8741.14,1353.47,7.92241,11.0749,-69.4913,4090.01,-9744.67,-5492.25,3.00821,33.3901,-1.6727,-7306.77,12098.1,-3246.48,124.416,44.3905,-136.241,-9266.8,-20486.9,4340.54,-178.205,15.389,-156.376,12914.4,745.537,2880.34,34.3195,0.463449,-46.7169
2.705,4089.46,-2071.34,9051.66,3.76996,7.68128,-8.62221,3489.4,7878.71,11620.4,-40.1325,293.511,20.136,-143.219,8812.74,1161.05,8.31972,10.9227,-67.6933,4459.28,-9386.21,-5301.1,2.65495,41.044,-6.91979,-7203.1,12068.7,-3366.04,123.337,43.7282,-138.374,-9329.71,-20288.3,4398.04,-179.935,17.4008,-158.715,12979.7,610.146,2821.87,34.5927,0.516786,-46.871
2.706,4159.1,-1923.6,9088.75,2.98815,7.27906,-8.85036,2927.27,7522.75,11393.7,-40.0681,294.322,19.4657,-102.055,8884.34,968.631,8.71702,10.7706,-65.8954,4828.55,-9027.76,-5109.94,2.30168,48.698,-12.1669,-7099.43,12039.2,-3485.6,122.257,43.0659,-140.506,-9392.62,-20089.8,4455.54,-181.665,19.4125,-161.055,13045.1,474.755,2763.4,34.8659,0.570124,-47.0251
2.707,4221.48,-1795.99,9118.06,2.26962,6.82284,-8.96091,2474.19,7259.95,11135.3,-40.8833,294.969,18.4617,-166.797,8983.86,782.544,8.93812,10.5784,-64.2052,5131.78,-8608.54,-4936.32,0.915497,54.9452,-17.2076,-6997.31,12021.6,-3611.5,121.17,42.4275,-142.546,-9435.88,-19920.7,4490.97,-183.15,21.1112,-163.202,13101.2,359.005,2716.92,35.2933,0.5871,-47.1983
2.708,4269.36,-1708.62,9131.86,1.67766,6.25861,-8.83622,2239.18,7183.45,10813.5,-43.4574,295.288,16.7901,-443.349,9139.24,609.118,8.80683,10.3063,-62.7305,5302.93,-8067.81,-4797.78,-2.53651,58.3789,-21.8355,-6898.27,12027.8,-3750.1,120.067,41.8371,-144.402,-9439.83,-19810.5,4482.27,-184.144,22.1838,-164.965,13138.6,282.535,2694.4,36.0289,0.531353,-47.4099
2.709,4317.24,-1621.26,9145.66,1.08569,5.69438,-8.71154,2004.17,7106.96,10491.6,-46.0315,295.607,15.1185,-719.901,9294.62,435.692,8.67554,10.0341,-61.2559,5474.09,-7527.07,-4659.23,-5.98852,61.8126,-26.4634,-6799.23,12034,-3888.69,118.963,41.2466,-146.258,-9443.79,-19700.4,4473.56,-185.137,23.2563,-166.727,13176.1,206.065,2671.88,36.7645,0.475607,-47.6214
2.71,4365.12,-1533.89,9159.46,0.493724,5.13014,-8.58685,1769.15,7030.47,10169.7,-48.6056,295.926,13.4469,-996.453,9450,262.266,8.54424,9.76192,-59.7812,5645.24,-6986.34,-4520.69,-9.44053,65.2464,-31.0914,-6700.2,12040.3,-4027.28,117.859,40.6562,-148.114,-9447.74,-19590.2,4464.86,-186.131,24.3288,-168.49,13213.6,129.595,2649.37,37.5001,0.41986,-47.833
2.711,4413.01,-1446.52,9173.25,-0.0982418,4.56591,-8.46217,1534.14,6953.97,9847.81,-51.1797,296.246,11.7754,-1273.01,9605.38,88.8396,8.41295,9.48975,-58.3066,5816.4,-6445.6,-4382.14,-12.8925,68.6801,-35.7193,-6601.16,12046.5,-4165.87,116.756,40.0657,-149.969,-9451.69,-19480.1,4456.15,-187.125,25.4014,-170.253,13251.1,53.1252,2626.85,38.2357,0.364114,-48.0446
2.712,4468.9,-1456.85,9141.46,-0.74641,3.95786,-8.10951,1515.56,6997.78,9554.53,-53.359,296.576,9.82447,-1578.55,9787.82,171.155,8.56782,9.01716,-56.7779,5636.09,-6117.37,-4228.24,-15.0112,69.9501,-39.9587,-6550.13,12035.1,-4315.71,115.804,39.6309,-151.382,-9435.37,-19287.1,4439.86,-187.79,26.1251,-171.302,13293.6,35.9574,2618.02,38.6342,0.140963,-48.647
2.713,4525.8,-1479.4,9103.96,-1.4016,3.34432,-7.72835,1524.02,7056.62,9264.83,-55.489,296.907,7.83865,-1887.71,9973.65,285.439,8.75846,8.51952,-55.2424,5411.85,-5815.7,-4072.41,-16.9631,70.9496,-44.1496,-6505.11,12021.5,-4466.96,114.871,39.2156,-152.738,-9416.51,-19083.7,4422.62,-188.414,26.8052,-172.263,13336.6,26.2024,2610.89,38.9905,-0.103112,-49.2982
2.714,4582.69,-1501.94,9066.46,-2.0568,2.73079,-7.3472,1532.49,7115.46,8975.13,-57.619,297.239,5.85283,-2196.87,10159.5,399.723,8.9491,8.02187,-53.7069,5187.62,-5514.04,-3916.58,-18.9151,71.9491,-48.3405,-6460.09,12007.9,-4618.21,113.938,38.8003,-154.095,-9397.66,-18880.4,4405.38,-189.038,27.4854,-173.223,13379.7,16.4473,2603.77,39.3468,-0.347188,-49.9495
2.715,4639.59,-1524.49,9028.96,-2.71199,2.11725,-6.96604,1540.96,7174.3,8685.43,-59.749,297.57,3.86701,-2506.04,10345.3,514.006,9.13974,7.52423,-52.1714,4963.38,-5212.37,-3760.76,-20.867,72.9486,-52.5313,-6415.06,11994.3,-4769.47,113.005,38.385,-155.452,-9378.8,-18677,4388.14,-189.662,28.1655,-174.184,13422.8,6.69223,2596.64,39.7032,-0.591264,-50.6007
2.716,4696.7,-1533.18,9008.32,-3.3083,1.49582,-6.61574,1604.66,7175.12,8497.28,-61.4194,297.841,1.87814,-2719.44,10511.9,670.245,9.34115,6.61725,-50.5565,4635.41,-5033.48,-3641.23,-21.6669,74.1885,-56.8231,-6393.86,11948.9,-4933.08,112.204,38.0758,-156.676,-9321.35,-18454.5,4350.03,-189.973,28.8578,-174.758,13447.3,19.7925,2586.02,39.8682,-0.834125,-51.2305
2.717,4754.08,-1524.57,9008.75,-3.831,0.864521,-6.30399,1737.41,7103.43,8436.08,-62.5151,298.037,-0.114551,-2813.14,10654.3,878.927,9.55602,5.1986,-48.8423,4177.78,-5008.06,-3567.07,-21.0268,75.7287,-61.2411,-6402.45,11863.8,-5112.16,111.568,37.8993,-157.736,-9215.67,-18208,4285.84,-189.894,29.5652,-174.849,13448.6,61.462,2571.02,39.7942,-1.07547,-51.8333
2.718,4811.46,-1515.96,9009.18,-4.3537,0.233218,-5.99225,1870.16,7031.73,8374.87,-63.6109,298.233,-2.10724,-2906.85,10796.8,1087.61,9.77089,3.77996,-47.128,3720.15,-4982.63,-3492.91,-20.3866,77.269,-65.659,-6411.04,11778.7,-5291.24,110.931,37.7228,-158.796,-9109.99,-17961.6,4221.65,-189.815,30.2726,-174.941,13450,103.131,2556.02,39.7201,-1.31681,-52.4361
2.719,4868.84,-1507.34,9009.6,-4.87641,-0.398085,-5.68051,2002.91,6960.03,8313.66,-64.7067,298.429,-4.09993,-3000.55,10939.2,1296.29,9.98576,2.36131,-45.4138,3262.52,-4957.21,-3418.76,-19.7465,78.8093,-70.077,-6419.63,11693.6,-5470.32,110.295,37.5463,-159.856,-9004.3,-17715.2,4157.46,-189.735,30.98,-175.032,13451.3,144.801,2541.02,39.6461,-1.55816,-53.0389
2.72,4926.23,-1498.73,9010.03,-5.39911,-1.02939,-5.36876,2135.66,6888.33,8252.45,-65.8025,298.625,-6.09262,-3094.26,11081.7,1504.97,10.2006,0.942667,-43.6996,2804.89,-4931.79,-3344.6,-19.1063,80.3495,-74.4949,-6428.21,11608.5,-5649.4,109.659,37.3698,-160.916,-8898.62,-17468.8,4093.27,-189.656,31.6874,-175.123,13452.7,186.47,2526.02,39.5721,-1.7995,-53.6417
2.721,4894.66,-1475.99,9020.91,-5.68745,-1.89436,-4.84556,2226.14,6732.62,8100.1,-66.8681,299.258,-8.20887,-2999.37,11171.7,1547.04,10.3587,-0.835444,-41.754,2385.17,-4945.17,-3235.49,-19.1169,81.4718,-78.7964,-6455.57,11507.7,-5782.46,109.362,37.3388,-162.03,-8847.69,-17290.1,3950.45,-188.86,32.5054,-175.33,13423,225.179,2491.88,39.6417,-1.83983,-54.2077
2.722,4863.1,-1453.25,9031.8,-5.9758,-2.75934,-4.32235,2316.63,6576.9,7947.74,-67.9337,299.891,-10.3251,-2904.48,11261.7,1589.1,10.5169,-2.61355,-39.8084,1965.46,-4958.54,-3126.38,-19.1274,82.5941,-83.098,-6482.93,11407,-5915.53,109.065,37.3078,-163.143,-8796.75,-17111.5,3807.63,-188.064,33.3235,-175.536,13393.2,263.887,2457.74,39.7113,-1.88017,-54.7737
2.723,4831.54,-1430.51,9042.68,-6.26414,-3.62431,-3.79915,2407.11,6421.19,7795.39,-68.9994,300.524,-12.4414,-2809.6,11351.8,1631.17,10.675,-4.39166,-37.8628,1545.75,-4971.92,-3017.28,-19.1379,83.7164,-87.3995,-6510.29,11306.2,-6048.59,108.767,37.2768,-164.257,-8745.82,-16932.8,3664.81,-187.268,34.1416,-175.743,13363.5,302.595,2423.59,39.7809,-1.9205,-55.3397
2.724,4799.98,-1407.77,9053.56,-6.55248,-4.48928,-3.27594,2497.6,6265.47,7643.03,-70.065,301.157,-14.5576,-2714.71,11441.8,1673.23,10.8331,-6.16977,-35.9172,1126.03,-4985.29,-2908.17,-19.1485,84.8387,-91.701,-6537.65,11205.5,-6181.66,108.47,37.2458,-165.371,-8694.88,-16754.2,3521.99,-186.472,34.9597,-175.949,13333.8,341.303,2389.45,39.8504,-1.96084,-55.9057
2.725,4753.2,-1393.49,9065.63,-6.93461,-5.27728,-2.75835,2531.8,6132.01,7483.17,-70.9514,302.475,-16.8303,-2566.4,11506.7,1659.56,10.9238,-7.80179,-34.0807,775.333,-4936.36,-2770.36,-19.8627,85.0659,-95.8218,-6565.19,11134.6,-6261.06,107.977,37.2295,-166.36,-8624.31,-16541.8,3343.24,-185.558,36.0003,-175.788,13277.8,379.813,2362.36,40.1703,-1.97994,-56.5162
2.726,4694.25,-1385.98,9078.65,-7.39176,-6.00369,-2.24526,2520.98,6016.36,7317.31,-71.6943,304.34,-19.2281,-2375.34,11551.5,1601.29,10.9607,-9.31692,-32.3314,479.84,-4837.57,-2609.6,-21.1399,84.577,-99.7982,-6592.88,11087.6,-6297.55,107.328,37.2248,-167.25,-8538.03,-16302.3,3135.75,-184.549,37.219,-175.333,13200.8,418.165,2340.9,40.6903,-1.98206,-57.1625
