Time,RFoot_accel.x,RFoot_accel.y,RFoot_accel.z,RFoot_gyro.x,RFoot_gyro.y,RFoot_gyro.z,LFoot_accel.x,LFoot_accel.y,LFoot_accel.z,LFoot_gyro.x,LFoot_gyro.y,LFoot_gyro.z,RShank_accel.x,RShank_accel.y,RShank_accel.z,RShank_gyro.x,RShank_gyro.y,RShank_gyro.z,LShank_accel.x,LShank_accel.y,LShank_accel.z,LShank_gyro.x,LShank_gyro.y,LShank_gyro.z,RThigh_accel.x,RThigh_accel.y,RThigh_accel.z,RThigh_gyro.x,RThigh_gyro.y,RThigh_gyro.z,LThigh_accel.x,LThigh_accel.y,LThigh_accel.z,LThigh_gyro.x,LThigh_gyro.y,LThigh_gyro.z,Pelvis_accel.x,Pelvis_accel.y,Pelvis_accel.z,Pelvis_gyro.x,Pelvis_gyro.y,Pelvis_gyro.z
1.52,6134.35,-7990.05,3480.89,98.5881,341.439,116.184,987.336,3034.71,6463.42,23.9877,-76.1779,24.6847,-72.0321,7516.42,-3916.03,-18.7517,62.5683,275.296,270.633,-9585.25,-2671.98,3.77574,-29.1034,50.2692,-6037.03,8951.84,-2838.76,-82.4352,148.219,176.361,898.319,-8802.94,-2321.32,1.31503,-73.6565,78.3873,4719.0,-350.222,2145.33,35.0683,16.6789,79.6997
1.521,6252.43,-8079.77,3485.9,97.1143,341.72,116.842,814.901,3159.94,6359.77,22.5096,-79.2024,24.0882,-95.3226,7630.71,-3935.79,-17.9386,61.5414,276.712,477.905,-9558.43,-2717.78,3.84478,-28.7347,50.5724,-6003.16,8878.36,-2779.14,-82.9149,147.608,175.739,823.669,-8808.71,-2363.49,1.55375,-72.809,78.7908,4701.69,-335.7,2105.09,34.5431,16.2563,79.1688
1.522,6370.51,-8169.49,3490.92,95.6405,342.001,117.5,642.465,3285.17,6256.12,21.0314,-82.2269,23.4916,-118.613,7745.0,-3955.54,-17.1255,60.5145,278.128,685.177,-9531.61,-2763.59,3.91383,-28.366,50.8756,-5969.3,8804.88,-2719.53,-83.3945,146.996,175.117,749.019,-8814.48,-2405.65,1.79247,-71.9616,79.1943,4684.38,-321.178,2064.86,34.0179,15.8337,78.6378
1.523,6488.59,-8259.21,3495.93,94.1667,342.282,118.158,470.03,3410.39,6152.48,19.5533,-85.2514,22.895,-141.904,7859.29,-3975.3,-16.3124,59.4876,279.544,892.449,-9504.79,-2809.4,3.98287,-27.9973,51.1787,-5935.43,8731.4,-2659.91,-83.8742,146.385,174.495,674.368,-8820.25,-2447.82,2.03119,-71.1141,79.5978,4667.07,-306.656,2024.62,33.4927,15.4111,78.1068
1.524,6606.67,-8348.93,3500.95,92.6929,342.563,118.815,297.595,3535.62,6048.83,18.0752,-88.2759,22.2984,-165.194,7973.58,-3995.05,-15.4993,58.4607,280.96,1099.72,-9477.97,-2855.2,4.05192,-27.6286,51.4819,-5901.57,8657.92,-2600.29,-84.3538,145.773,173.873,599.718,-8826.01,-2489.99,2.26991,-70.2666,80.0013,4649.76,-292.135,1984.39,32.9675,14.9885,77.5759
1.525,6709.74,-8429.93,3507.5,91.286,342.671,119.477,245.941,3725.53,5980.8,16.8227,-90.1624,21.289,-201.158,8060.73,-4020.6,-14.6933,57.5551,282.368,1248.97,-9456.04,-2912.48,3.9973,-27.5325,51.5227,-5858.44,8572.43,-2539.19,-84.6225,145.294,173.066,509.022,-8837.91,-2527.86,2.59269,-69.456,80.5044,4660.84,-287.247,1938.58,32.6321,14.9184,77.1756
1.526,6800.81,-8503.95,3515.27,89.9326,342.639,120.141,290.914,3967.18,5941.25,15.7506,-91.1384,19.9493,-247.261,8126.17,-4050.79,-13.8928,56.7464,283.77,1351.81,-9438.03,-2978.95,3.84376,-27.6546,51.3535,-5807.9,8477.34,-2476.91,-84.7223,144.921,172.112,405.491,-8854.7,-2562.29,2.98271,-68.6748,81.0871,4694.65,-290.067,1888.31,32.4484,15.1305,76.8798
1.527,6891.87,-8577.97,3523.05,88.5793,342.608,120.806,335.886,4208.82,5901.71,14.6785,-92.1144,18.6096,-293.364,8191.61,-4080.98,-13.0924,55.9378,285.172,1454.64,-9420.02,-3045.41,3.69021,-27.7766,51.1844,-5757.36,8382.24,-2414.62,-84.8222,144.548,171.158,301.959,-8871.49,-2596.73,3.37273,-67.8937,81.6698,4728.45,-292.887,1838.04,32.2647,15.3426,76.584
1.528,6982.94,-8651.99,3530.82,87.2259,342.577,121.47,380.859,4450.47,5862.17,13.6064,-93.0904,17.2699,-339.467,8257.04,-4111.17,-12.292,55.1292,286.574,1557.47,-9402.02,-3111.87,3.53667,-27.8987,51.0152,-5706.83,8287.15,-2352.33,-84.9221,144.175,170.204,198.428,-8888.29,-2631.17,3.76276,-67.1125,82.2525,4762.26,-295.707,1787.77,32.081,15.5547,76.2882
1.529,7070.1,-8719.16,3541.86,85.8938,342.492,122.166,485.531,4688.88,5857.91,12.5256,-93.6454,15.9227,-383.045,8326.57,-4137.31,-11.4596,54.3284,287.973,1648.47,-9373.64,-3196.95,3.33011,-27.9462,50.7899,-5661.05,8194.99,-2291.0,-85.0367,143.843,169.249,89.5937,-8904.59,-2661.19,4.15935,-66.3991,82.7925,4799.34,-293.318,1739.87,31.972,15.7995,76.0032
1.53,7126.06,-8731.51,3578.97,84.7321,341.976,123.111,1067.81,4901.35,6135.93,11.375,-90.8319,14.5152,-406.423,8428.75,-4131.09,-10.3713,53.5897,289.355,1644.76,-9262.31,-3430.99,2.69944,-27.3974,50.1153,-5653.39,8126.29,-2237.32,-85.2694,143.833,168.286,-61.6595,-8917.01,-2655.96,4.60851,-66.2275,82.9901,4862.64,-249.251,1710.87,32.4608,16.306,75.8049
1.531,7182.01,-8743.86,3616.09,83.5703,341.461,124.057,1650.08,5113.83,6413.96,10.2245,-88.0184,13.1076,-429.801,8530.93,-4124.87,-9.28292,52.851,290.736,1641.06,-9150.98,-3665.03,2.06877,-26.8486,49.4407,-5645.74,8057.6,-2183.63,-85.502,143.823,167.324,-212.913,-8929.43,-2650.73,5.05767,-66.0559,83.1878,4925.93,-205.185,1681.87,32.9495,16.8124,75.6065
1.532,7237.96,-8756.21,3653.2,82.4086,340.945,125.002,2232.36,5326.3,6691.98,9.0739,-85.2049,11.7001,-453.178,8633.12,-4118.65,-8.19459,52.1124,292.118,1637.35,-9039.65,-3899.08,1.4381,-26.2999,48.7661,-5638.08,7988.9,-2129.95,-85.7347,143.813,166.361,-364.166,-8941.85,-2645.49,5.50684,-65.8843,83.3855,4989.23,-161.119,1652.88,33.4383,17.3189,75.4082
1.533,7293.91,-8768.56,3690.32,81.2469,340.429,125.947,2814.63,5538.78,6970.0,7.92332,-82.3914,10.2926,-476.556,8735.3,-4112.43,-7.10625,51.3737,293.499,1633.65,-8928.32,-4133.12,0.807436,-25.7511,48.0915,-5630.42,7920.2,-2076.26,-85.9674,143.804,165.399,-515.419,-8954.28,-2640.26,5.956,-65.7127,83.5831,5052.53,-117.053,1623.88,33.927,17.8254,75.2099
1.534,7375.79,-8756.88,3749.45,80.3391,339.725,127.203,3676.24,5530.07,7290.89,6.66006,-78.201,9.29496,-492.903,8819.3,-4118.2,-5.84868,50.6926,294.848,1399.19,-8779.95,-4342.32,0.0243986,-24.4227,47.5874,-5572.74,7845.19,-2023.6,-86.1481,144.127,164.554,-659.908,-8971.39,-2629.48,6.18775,-66.1292,83.9123,5101.07,-99.934,1601.32,35.3702,18.1237,74.778
1.535,7470.63,-8733.19,3819.6,79.5583,338.927,128.613,4677.51,5410.76,7633.22,5.34046,-73.3222,8.50233,-505.735,8894.2,-4129.96,-4.50649,50.0404,296.18,1049.37,-8613.06,-4539.09,-0.834824,-22.7046,47.1685,-5490.04,7767.03,-1971.45,-86.3028,144.617,163.767,-801.015,-8990.86,-2615.92,6.3108,-66.8397,84.3073,5142.23,-96.2889,1581.99,37.2906,18.3178,74.2294
1.536,7565.48,-8709.5,3889.74,78.7775,338.129,130.024,5678.78,5291.45,7975.54,4.02086,-68.4434,7.70969,-518.566,8969.1,-4141.72,-3.1643,49.3881,297.512,699.542,-8446.17,-4735.87,-1.69405,-20.9864,46.7496,-5407.34,7688.86,-1919.31,-86.4575,145.107,162.981,-942.122,-9010.33,-2602.36,6.43384,-67.5502,84.7022,5183.38,-92.6437,1562.65,39.2111,18.5119,73.6808
1.537,7660.32,-8685.81,3959.89,77.9968,337.33,131.435,6680.06,5172.14,8317.86,2.70126,-63.5646,6.91706,-531.398,9044.01,-4153.48,-1.82211,48.7359,298.844,349.716,-8279.28,-4932.65,-2.55327,-19.2683,46.3307,-5324.65,7610.7,-1867.16,-86.6122,145.597,162.195,-1083.23,-9029.79,-2588.81,6.55689,-68.2607,85.0972,5224.54,-88.9986,1543.32,41.1315,18.7061,73.1321
1.538,7765.28,-8663.71,4020.0,77.1327,336.606,132.848,7556.72,5063.53,8565.8,1.33769,-58.8484,6.42084,-560.497,9118.46,-4177.5,-0.567068,48.1689,300.158,-26.0714,-8169.58,-5074.27,-3.2031,-17.5819,46.009,-5255.67,7540.96,-1814.25,-86.7009,146.105,161.397,-1211.83,-9054.64,-2601.66,6.68436,-69.0511,85.483,5272.16,-74.0673,1528.6,42.7569,18.8478,72.484
1.539,7905.68,-8647.17,4044.98,75.977,336.141,134.267,7997.24,4992.36,8483.39,-0.179785,-54.701,6.96202,-646.534,9191.34,-4244.45,0.382975,47.9002,301.411,-492.72,-8260.05,-5022.85,-3.12004,-16.0065,46.0277,-5234.7,7500.72,-1758.67,-86.5583,146.676,160.56,-1296.67,-9098.33,-2706.92,6.82732,-70.1212,85.8368,5342.4,-19.6342,1530.05,43.3497,18.8063,71.4878
1.54,8046.08,-8630.62,4069.96,74.8214,335.676,135.687,8437.76,4921.19,8400.97,-1.69726,-50.5536,7.50321,-732.571,9264.23,-4311.4,1.33302,47.6315,302.664,-959.369,-8350.52,-4971.43,-3.03698,-14.4312,46.0463,-5213.73,7460.47,-1703.09,-86.4157,147.246,159.724,-1381.5,-9142.02,-2812.19,6.97029,-71.1913,86.1905,5412.63,34.799,1531.51,43.9425,18.7649,70.4915
1.541,8186.48,-8614.08,4094.94,73.6657,335.211,137.107,8878.29,4850.03,8318.56,-3.21473,-46.4063,8.04439,-818.608,9337.11,-4378.35,2.28306,47.3628,303.918,-1426.02,-8440.98,-4920.01,-2.95392,-12.8559,46.0649,-5192.77,7420.23,-1647.52,-86.2731,147.817,158.887,-1466.34,-9185.71,-2917.45,7.11325,-72.2614,86.5443,5482.87,89.2321,1532.96,44.5352,18.7234,69.4952
1.542,8326.88,-8597.53,4119.92,72.5101,334.746,138.527,9318.81,4778.86,8236.14,-4.73221,-42.2589,8.58558,-904.644,9410.0,-4445.3,3.2331,47.0942,305.171,-1892.67,-8531.45,-4868.6,-2.87086,-11.2806,46.0835,-5171.8,7379.99,-1591.94,-86.1305,148.387,158.05,-1551.18,-9229.39,-3022.72,7.25621,-73.3315,86.898,5553.1,143.665,1534.41,45.128,18.6819,68.4989
1.543,8490.84,-8559.09,4128.61,70.6591,334.438,139.824,9490.38,4544.71,8090.94,-6.41859,-38.1264,9.62946,-1031.28,9495.51,-4415.8,4.40636,46.3406,306.213,-2252.41,-8715.61,-4648.24,-2.43,-10.4997,46.4178,-5147.16,7339.16,-1550.23,-85.8006,148.901,157.379,-1599.58,-9276.4,-3141.79,7.19969,-73.5661,87.3026,5632.1,166.445,1597.47,44.5918,18.294,67.3424
1.544,8661.54,-8514.39,4132.63,68.6095,334.175,141.087,9585.12,4263.99,7927.79,-8.15322,-33.9982,10.817,-1169.51,9584.64,-4358.75,5.64338,45.4486,307.196,-2581.61,-8926.53,-4379.62,-1.88691,-9.94575,46.8424,-5121.47,7298.17,-1512.49,-85.4173,149.398,156.756,-1637.58,-9324.34,-3264.81,7.08618,-73.562,87.7216,5713.61,180.18,1678.14,43.733,17.8071,66.1402
1.545,8832.23,-8469.7,4136.65,66.5599,333.911,142.35,9679.85,3983.27,7764.65,-9.88786,-29.87,12.0045,-1307.74,9673.77,-4301.69,6.88041,44.5565,308.179,-2910.82,-9137.45,-4111.0,-1.34383,-9.39184,47.2669,-5095.77,7257.17,-1474.75,-85.0339,149.895,156.132,-1675.58,-9372.29,-3387.83,6.97267,-73.5578,88.1407,5795.12,193.915,1758.8,42.8742,17.3203,64.9379
1.546,9002.93,-8425.0,4140.68,64.5103,333.648,143.613,9774.58,3702.56,7601.51,-11.6225,-25.7418,13.192,-1445.98,9762.9,-4244.64,8.11744,43.6645,309.161,-3240.02,-9348.38,-3842.38,-0.800744,-8.83792,47.6915,-5070.08,7216.17,-1437.01,-84.6506,150.392,155.509,-1713.57,-9420.24,-3510.85,6.85916,-73.5537,88.5597,5876.62,207.651,1839.47,42.0155,16.8334,63.7357
1.547,9158.11,-8387.83,4154.3,62.408,333.32,144.789,9854.34,3417.8,7503.87,-13.1552,-21.8592,14.1911,-1569.01,9871.19,-4212.38,9.26438,42.7778,310.182,-3541.11,-9556.6,-3582.41,-0.187866,-8.4797,48.2778,-5047.44,7178.77,-1416.48,-84.1123,150.73,154.924,-1736.46,-9485.13,-3623.06,6.79884,-73.1084,89.0141,5981.79,233.638,1913.01,41.029,16.286,62.5599
1.548,9282.24,-8365.7,4187.13,60.2006,332.863,145.791,9904.15,3124.97,7537.24,-14.284,-18.4676,14.8135,-1661.65,10017.8,-4229.7,10.2312,41.9018,311.279,-3785.99,-9759.44,-3339.75,0.564596,-8.51285,49.1878,-5030.91,7148.57,-1430.36,-83.2644,150.749,154.416,-1729.13,-9583.91,-3713.67,6.8449,-71.781,89.5392,6134.27,284.128,1972.32,39.7871,15.6175,61.4368
1.549,9406.37,-8343.57,4219.96,57.9932,332.406,146.793,9953.96,2832.14,7570.61,-15.4128,-15.0759,15.4359,-1754.29,10164.4,-4247.02,11.198,41.0258,312.375,-4030.87,-9962.27,-3097.08,1.31706,-8.546,50.0978,-5014.38,7118.37,-1444.23,-82.4165,150.768,153.909,-1721.79,-9682.69,-3804.28,6.89096,-70.4536,90.0642,6286.76,334.619,2031.63,38.5452,14.9491,60.3138
1.55,9530.5,-8321.44,4252.78,55.7858,331.95,147.795,10003.8,2539.31,7603.98,-16.5416,-11.6843,16.0583,-1846.93,10311.1,-4264.35,12.1648,40.1498,313.472,-4275.75,-10165.1,-2854.42,2.06952,-8.57914,51.0078,-4997.85,7088.16,-1458.11,-81.5685,150.787,153.402,-1714.46,-9781.46,-3894.88,6.93701,-69.1261,90.5893,6439.24,385.109,2090.94,37.3034,14.2806,59.1908
1.551,9654.64,-8299.32,4285.61,53.5784,331.493,148.797,10053.6,2246.48,7637.35,-17.6704,-8.29273,16.6807,-1939.57,10457.7,-4281.67,13.1315,39.2738,314.569,-4520.64,-10367.9,-2611.76,2.82198,-8.61229,51.9178,-4981.32,7057.96,-1471.99,-80.7206,150.806,152.895,-1707.13,-9880.24,-3985.49,6.98307,-67.7987,91.1144,6591.72,435.6,2150.25,36.0615,13.6121,58.0678
1.552,9720.17,-8269.62,4308.72,51.2048,330.819,149.639,9890.08,2164.82,7588.67,-18.7475,-6.28879,16.5481,-1942.15,10548.3,-4317.96,14.2273,38.4737,315.267,-4580.54,-10509.2,-2470.34,3.50964,-9.04634,52.5854,-4951.01,7022.9,-1487.37,-79.7773,150.09,152.516,-1726.45,-9979.74,-3997.6,7.20093,-66.0942,91.4661,6723.7,485.944,2127.77,34.6378,12.5311,56.7445
1.553,9778.37,-8238.99,4330.62,48.8105,330.119,150.46,9699.91,2109.56,7529.74,-19.8181,-4.45831,16.3212,-1933.47,10631.8,-4356.62,15.3391,37.6832,315.915,-4617.33,-10642.8,-2341.57,4.18919,-9.5305,53.2228,-4918.99,6987.24,-1502.95,-78.8222,149.282,152.154,-1749.11,-10079.3,-3999.89,7.44027,-64.3427,91.7962,6853.12,536.269,2095.06,33.1915,11.3986,55.3962
1.554,9836.57,-8208.35,4352.51,46.4162,329.418,151.282,9509.73,2054.3,7470.8,-20.8887,-2.62783,16.0943,-1924.8,10715.4,-4395.27,16.451,36.8926,316.563,-4654.11,-10776.4,-2212.81,4.86875,-10.0147,53.8601,-4886.96,6951.57,-1518.52,-77.867,148.474,151.792,-1771.77,-10178.9,-4002.18,7.6796,-62.5911,92.1263,6982.54,586.595,2062.35,31.7451,10.266,54.0479
1.555,9894.77,-8177.71,4374.41,44.0219,328.717,152.104,9319.56,1999.04,7411.86,-21.9594,-0.797348,15.8673,-1916.12,10799.0,-4433.93,17.5628,36.102,317.211,-4690.89,-10910.0,-2084.04,5.5483,-10.4988,54.4974,-4854.93,6915.91,-1534.1,-76.9118,147.666,151.43,-1794.43,-10278.5,-4004.48,7.91894,-60.8395,92.4564,7111.95,636.921,2029.65,30.2987,9.13348,52.6996
1.556,9955.11,-8176.56,4387.34,41.5855,327.977,152.725,9054.15,2133.31,7327.32,-22.7221,0.843589,15.4825,-1910.76,10895.8,-4455.82,18.6911,35.2716,317.852,-4643.47,-10999.4,-2038.86,6.03298,-10.9816,54.8907,-4843.06,6885.6,-1548.35,-75.9314,146.433,151.192,-1839.63,-10361.5,-3963.53,8.2595,-59.3753,92.8065,7234.69,667.643,1983.89,28.9571,7.91757,51.3282
1.557,10018.1,-8212.26,4389.05,39.0965,327.188,153.094,8694.68,2504.48,7210.77,-23.1,2.2476,14.9004,-1909.54,11009.1,-4456.73,19.8399,34.3913,318.484,-4490.79,-11033.4,-2098.14,6.27405,-11.4627,54.9789,-4856.37,6861.98,-1560.95,-74.9193,144.668,151.108,-1913.01,-10423.5,-3868.54,8.72659,-58.2704,93.1816,7349.09,673.862,1921.8,27.7466,6.59746,49.928
1.558,10081.1,-8247.96,4390.75,36.6075,326.398,153.464,8335.22,2875.65,7094.21,-23.4779,3.6516,14.3183,-1908.31,11122.5,-4457.65,20.9887,33.5111,319.116,-4338.11,-11067.4,-2157.43,6.51512,-11.9437,55.0672,-4869.69,6838.36,-1573.55,-73.9072,142.904,151.025,-1986.38,-10485.6,-3773.54,9.19368,-57.1655,93.5567,7463.48,680.08,1859.71,26.5361,5.27735,48.5279
1.559,10144.1,-8283.67,4392.46,34.1186,325.608,153.833,7975.75,3246.82,6977.66,-23.8558,5.05561,13.7362,-1907.09,11235.8,-4458.56,22.1374,32.6308,319.747,-4185.43,-11101.5,-2216.71,6.75619,-12.4248,55.1554,-4883.0,6814.74,-1586.14,-72.8952,141.139,150.941,-2059.76,-10547.7,-3678.54,9.66076,-56.0605,93.9318,7577.87,686.298,1797.62,25.3255,3.95724,47.1277
1.56,10207.2,-8319.37,4394.17,31.6296,324.818,154.203,7616.28,3617.99,6861.1,-24.2337,6.45962,13.1541,-1905.86,11349.2,-4459.48,23.2862,31.7506,320.379,-4032.75,-11135.5,-2276.0,6.99727,-12.9059,55.2437,-4896.32,6791.12,-1598.74,-71.8831,139.374,150.858,-2133.14,-10609.8,-3583.55,10.1279,-54.9556,94.3069,7692.27,692.517,1735.53,24.115,2.63713,45.7275
1.561,10293.3,-8381.25,4380.36,29.6021,324.098,154.416,7521.52,3669.19,6929.06,-24.6229,8.50271,12.8175,-1895.56,11427.7,-4503.28,24.5389,30.9904,320.727,-3841.35,-11019.7,-2425.55,6.47808,-12.5706,54.8031,-4938.68,6803.62,-1583.81,-70.883,136.685,150.809,-2273.27,-10627.7,-3410.38,10.7747,-54.4618,94.7561,7829.68,691.83,1666.9,22.9963,1.4716,44.5076
1.562,10379.4,-8443.13,4366.55,27.5747,323.378,154.63,7426.75,3720.39,6997.01,-25.0121,10.5458,12.481,-1885.26,11506.2,-4547.08,25.7915,30.2302,321.076,-3649.96,-10903.8,-2575.11,5.95889,-12.2354,54.3626,-4981.05,6816.12,-1568.88,-69.8829,133.996,150.761,-2413.4,-10645.5,-3237.21,11.4216,-53.9679,95.2053,7967.09,691.143,1598.27,21.8776,0.306067,43.2877
1.563,10465.5,-8505.01,4352.74,25.5472,322.658,154.843,7331.98,3771.58,7064.97,-25.4012,12.5889,12.1444,-1874.96,11584.7,-4590.89,27.0442,29.4701,321.424,-3458.56,-10788.0,-2724.67,5.4397,-11.9001,53.922,-5023.42,6828.61,-1553.94,-68.8828,131.307,150.712,-2553.52,-10663.3,-3064.04,12.0684,-53.4741,95.6545,8104.5,690.456,1529.64,20.7589,-0.859463,42.0679
1.564,10551.6,-8566.89,4338.92,23.5197,321.938,155.057,7237.21,3822.78,7132.92,-25.7904,14.632,11.8078,-1864.65,11663.3,-4634.69,28.2969,28.7099,321.772,-3267.16,-10672.2,-2874.22,4.92051,-11.5649,53.4815,-5065.78,6841.11,-1539.01,-67.8828,128.618,150.664,-2693.65,-10681.2,-2890.87,12.7153,-52.9803,96.1037,8241.92,689.77,1461.01,19.6402,-2.02499,40.848
1.565,10634.5,-8630.51,4352.62,21.8664,321.124,155.235,7273.73,3688.26,7230.09,-26.1784,16.6682,11.4544,-1827.93,11741.0,-4666.43,29.5174,28.1342,321.94,-3117.14,-10518.5,-2975.53,4.42683,-10.9904,52.9186,-5114.14,6862.48,-1537.51,-67.2634,125.484,150.632,-2862.39,-10664.0,-2714.44,13.4471,-52.8343,96.6908,8364.97,691.379,1416.74,18.2461,-3.23057,39.8718
1.566,10714.9,-8695.52,4388.32,20.5124,320.234,155.385,7415.26,3405.17,7350.62,-26.5653,18.6988,11.0877,-1770.07,11818.2,-4688.53,30.7122,27.706,321.964,-3000.24,-10334.6,-3038.23,3.95356,-10.2244,52.2578,-5167.3,6890.96,-1546.76,-66.9487,121.994,150.613,-3054.0,-10618.9,-2535.41,14.247,-52.9667,97.3882,8476.52,694.826,1391.97,16.6315,-4.4682,39.0907
1.567,10795.4,-8760.52,4424.02,19.1584,319.345,155.535,7556.8,3122.07,7471.15,-26.9522,20.7295,10.7209,-1712.21,11895.4,-4710.63,31.9069,27.2779,321.988,-2883.33,-10150.7,-3100.94,3.48028,-9.45845,51.597,-5220.46,6919.43,-1556.01,-66.634,118.505,150.594,-3245.61,-10573.7,-2356.37,15.0469,-53.0991,98.0857,8588.08,698.273,1367.19,15.0169,-5.70582,38.3095
1.568,10875.8,-8825.53,4459.72,17.8044,318.456,155.685,7698.34,2838.98,7591.67,-27.3391,22.7602,10.3542,-1654.35,11972.6,-4732.73,33.1017,26.8497,322.011,-2766.42,-9966.77,-3163.64,3.007,-8.69249,50.9362,-5273.61,6947.9,-1565.27,-66.3193,115.015,150.574,-3437.22,-10528.6,-2177.34,15.8468,-53.2315,98.7831,8699.63,701.719,1342.42,13.4024,-6.94344,37.5283
1.569,10952.4,-8891.32,4493.26,16.4797,317.557,155.845,7825.38,2562.18,7713.57,-27.7496,24.7011,9.989,-1601.77,12048.9,-4753.87,34.297,26.4363,322.042,-2663.25,-9795.44,-3207.47,2.54114,-7.9943,50.279,-5325.89,6971.52,-1573.89,-66.0198,111.489,150.579,-3634.09,-10483.9,-2001.36,16.6452,-53.411,99.4815,8807.57,703.997,1316.68,11.8269,-8.21633,36.7575
1.57,10998.7,-8963.35,4509.5,15.3888,316.589,156.088,7836.43,2335.69,7846.37,-28.3487,25.9237,9.63618,-1591.4,12118.3,-4767.32,35.4968,26.1409,322.127,-2670.02,-9724.77,-3100.27,2.13461,-7.83827,49.6504,-5371.15,6956.31,-1577.52,-65.8418,107.673,150.77,-3872.96,-10443.0,-1849.85,17.4316,-53.9674,100.188,8886.56,696.921,1283.2,10.564,-9.77132,36.0691
1.571,11045.0,-9035.37,4525.73,14.2979,315.621,156.33,7847.49,2109.21,7979.17,-28.9478,27.1463,9.28335,-1581.04,12187.8,-4780.76,36.6966,25.8454,322.212,-2676.78,-9654.1,-2993.07,1.72808,-7.68225,49.0218,-5416.42,6941.09,-1581.14,-65.6638,103.857,150.96,-4111.83,-10402.1,-1698.34,18.218,-54.5239,100.895,8965.56,689.846,1249.71,9.30112,-11.3263,35.3807
1.572,11091.4,-9107.4,4541.97,13.2071,314.653,156.573,7858.55,1882.72,8111.98,-29.5468,28.3688,8.93052,-1570.67,12257.2,-4794.21,37.8964,25.55,322.297,-2683.55,-9583.43,-2885.87,1.32155,-7.52622,48.3931,-5461.68,6925.88,-1584.77,-65.4859,100.041,151.151,-4350.7,-10361.2,-1546.83,19.0044,-55.0803,101.602,9044.55,682.77,1216.23,8.03823,-12.8813,34.6923
1.573,11137.7,-9179.43,4558.21,12.1162,313.685,156.815,7869.61,1656.24,8244.78,-30.1459,29.5914,8.57769,-1560.3,12326.6,-4807.65,39.0963,25.2545,322.383,-2690.31,-9512.76,-2778.66,0.915013,-7.3702,47.7645,-5506.94,6910.66,-1588.4,-65.3079,96.2254,151.342,-4589.56,-10320.3,-1395.32,19.7908,-55.6368,102.308,9123.55,675.694,1182.75,6.77533,-14.4363,34.0039
1.574,11195.3,-9241.85,4577.07,11.3975,312.815,157.115,7819.48,1566.38,8295.81,-30.2206,30.4455,8.37805,-1531.34,12392.9,-4805.69,40.1523,24.9847,322.4,-2794.82,-9502.4,-2626.92,0.772413,-7.64367,47.2601,-5561.09,6903.23,-1569.59,-64.7678,92.0093,151.63,-4798.04,-10260.0,-1221.32,20.4002,-56.4842,103.211,9176.62,687.991,1127.03,5.49228,-16.2479,33.446
1.575,11258.4,-9299.47,4597.25,10.8648,311.993,157.443,7738.76,1544.83,8305.95,-30.0331,31.1153,8.255,-1493.08,12457.7,-4796.03,41.1364,24.7277,322.383,-2948.19,-9522.18,-2452.91,0.761779,-8.13189,46.8178,-5619.67,6899.69,-1539.58,-64.0466,87.5932,151.966,-4991.32,-10189.9,-1036.07,20.921,-57.4772,104.211,9216.74,709.975,1060.19,4.19914,-18.1877,32.9535
1.576,11321.6,-9357.1,4617.42,10.3321,311.172,157.771,7658.03,1523.28,8316.09,-29.8457,31.7851,8.13196,-1454.82,12522.5,-4786.37,42.1205,24.4707,322.366,-3101.57,-9541.96,-2278.89,0.751145,-8.62011,46.3755,-5678.25,6896.15,-1509.56,-63.3254,83.177,152.301,-5184.6,-10119.9,-850.824,21.4419,-58.4701,105.212,9256.85,731.959,993.357,2.906,-20.1275,32.461
1.577,11384.8,-9414.72,4637.6,9.79944,310.35,158.099,7577.31,1501.72,8326.23,-29.6582,32.4549,8.00891,-1416.56,12587.3,-4776.71,43.1047,24.2138,322.349,-3254.94,-9561.75,-2104.88,0.740511,-9.10833,45.9331,-5736.83,6892.61,-1479.54,-62.6042,78.7608,152.637,-5377.88,-10049.8,-665.578,21.9628,-59.463,106.212,9296.96,753.943,926.521,1.61286,-22.0673,31.9685
1.578,11431.5,-9472.29,4670.06,9.37876,309.447,158.435,7517.13,1477.04,8327.62,-29.4001,33.1243,7.88975,-1378.76,12653.1,-4765.51,44.1017,23.9904,322.362,-3412.44,-9591.87,-1932.05,0.71447,-9.83017,45.4983,-5801.48,6885.5,-1445.84,-61.8558,74.3323,152.972,-5564.23,-9980.11,-470.798,22.4823,-60.5576,107.21,9337.14,768.26,853.19,0.360592,-24.0019,31.4509
1.579,11420.4,-9529.65,4745.51,9.35009,308.26,158.801,7528.84,1441.37,8298.38,-28.8946,33.7924,7.7842,-1342.54,12722.8,-4748.89,45.1437,23.8849,322.479,-3584.36,-9658.19,-1763.38,0.634503,-11.3697,45.0896,-5887.32,6865.94,-1399.24,-61.0122,69.8605,153.306,-5726.31,-9911.67,-242.648,22.9971,-62.0081,108.201,9377.53,755.74,757.126,-0.748651,-25.918,30.8453
1.58,11409.3,-9587.01,4820.97,9.32143,307.073,159.166,7540.55,1405.7,8269.13,-28.3891,34.4605,7.67865,-1306.33,12792.4,-4732.28,46.1857,23.7795,322.596,-3756.28,-9724.51,-1594.71,0.554536,-12.9092,44.6809,-5973.17,6846.38,-1352.64,-60.1687,65.3887,153.639,-5888.38,-9843.22,-14.4988,23.5118,-63.4585,109.193,9417.92,743.22,661.062,-1.8579,-27.8341,30.2398
1.581,11398.2,-9644.37,4896.42,9.29276,305.886,159.531,7552.26,1370.03,8239.89,-27.8837,35.1285,7.5731,-1270.11,12862.0,-4715.67,47.2277,23.674,322.713,-3928.2,-9790.83,-1426.04,0.474569,-14.4487,44.2723,-6059.02,6826.81,-1306.04,-59.3251,60.917,153.972,-6050.46,-9774.78,213.651,24.0266,-64.909,110.184,9458.3,730.7,564.998,-2.96714,-29.7501,29.6342
1.582,11387.1,-9701.73,4971.88,9.26409,304.698,159.896,7563.97,1334.37,8210.64,-27.3782,35.7966,7.46756,-1233.9,12931.7,-4699.06,48.2697,23.5685,322.831,-4100.13,-9857.15,-1257.37,0.394603,-15.9882,43.8636,-6144.87,6807.25,-1259.44,-58.4815,56.4452,154.305,-6212.54,-9706.33,441.8,24.5414,-66.3595,111.175,9498.69,718.18,468.934,-4.07638,-31.6662,29.0286
1.583,11325.3,-9748.84,5037.27,9.78932,303.067,160.324,7531.45,1294.3,8281.79,-26.5468,35.6895,7.5474,-1187.57,12966.4,-4680.85,49.3597,23.4159,323.006,-4211.75,-9963.95,-1138.13,0.112996,-17.7162,43.3392,-6203.95,6805.05,-1254.32,-57.3975,52.1629,154.822,-6346.01,-9651.7,645.076,24.8572,-68.4605,112.238,9522.35,753.311,348.224,-4.79045,-33.1474,28.4656
1.584,11249.0,-9793.01,5099.78,10.4728,301.309,160.769,7486.29,1252.97,8381.63,-25.6223,35.361,7.68021,-1138.36,12991.1,-4662.17,50.4633,23.25,323.197,-4306.14,-10082.3,-1033.02,-0.226222,-19.498,42.7818,-6255.39,6807.8,-1261.06,-56.2447,47.9349,155.391,-6471.31,-9601.01,841.245,25.1163,-70.7474,113.322,9541.22,802.056,220.472,-5.3916,-34.5043,27.9148
1.585,11172.7,-9837.19,5162.29,11.1563,299.551,161.214,7441.13,1211.64,8481.46,-24.6977,35.0324,7.81302,-1089.15,13015.9,-4643.5,51.567,23.084,323.388,-4400.53,-10200.7,-927.9,-0.565441,-21.2798,42.2244,-6306.83,6810.56,-1267.79,-55.0919,43.7068,155.961,-6596.61,-9550.32,1037.41,25.3753,-73.0342,114.405,9560.09,850.801,92.72,-5.99276,-35.8612,27.3639
1.586,11096.4,-9881.37,5224.8,11.8398,297.794,161.659,7395.97,1170.31,8581.3,-23.7732,34.7039,7.94584,-1039.93,13040.7,-4624.82,52.6707,22.918,323.58,-4494.93,-10319.1,-822.783,-0.904659,-23.0616,41.667,-6358.26,6813.32,-1274.53,-53.9392,39.4788,156.53,-6721.91,-9499.63,1233.58,25.6344,-75.3211,115.489,9578.96,899.546,-35.0319,-6.59391,-37.2181,26.8131
1.587,11020.9,-9921.24,5273.99,12.7823,295.993,162.133,7294.68,1128.69,8651.61,-22.7908,34.3223,7.9587,-979.145,13050.9,-4596.15,53.7522,22.6509,323.813,-4548.58,-10416.4,-740.427,-1.29862,-24.8315,41.1351,-6417.22,6795.69,-1279.21,-52.659,35.344,157.048,-6831.95,-9467.76,1410.14,25.8579,-77.8619,116.569,9594.17,950.596,-139.349,-6.90976,-38.4306,26.2834
1.588,10947.0,-9952.5,5296.52,14.243,294.106,162.665,7081.12,1086.48,8662.86,-21.6927,33.8347,7.73167,-895.208,13031.9,-4547.49,54.7895,22.1818,324.132,-4520.76,-10471.6,-703.596,-1.80208,-26.5774,40.654,-6491.21,6737.29,-1279.8,-51.1242,31.396,157.464,-6911.49,-9473.5,1547.49,26.0103,-80.9108,117.64,9602.04,1006.26,-196.796,-6.65501,-39.3544,25.7959
1.589,10873.1,-9983.76,5319.06,15.7036,292.219,163.197,6867.57,1044.27,8674.12,-20.5946,33.3471,7.50464,-811.272,13013.0,-4498.82,55.8267,21.7126,324.451,-4492.94,-10526.8,-666.764,-2.30554,-28.3234,40.1729,-6565.21,6678.89,-1280.38,-49.5894,27.448,157.879,-6991.02,-9479.25,1684.83,26.1628,-83.9596,118.712,9609.9,1061.92,-254.244,-6.40025,-40.2781,25.3083
1.59,10799.1,-10015.0,5341.59,17.1642,290.332,163.729,6654.01,1002.05,8685.38,-19.4965,32.8595,7.27761,-727.335,12994.0,-4450.16,56.8639,21.2434,324.771,-4465.11,-10582.0,-629.932,-2.809,-30.0694,39.6917,-6639.2,6620.48,-1280.96,-48.0546,23.4999,158.295,-7070.55,-9485.0,1822.17,26.3153,-87.0084,119.784,9617.77,1117.58,-311.691,-6.14549,-41.2018,24.8208
1.591,10725.2,-10046.3,5364.13,18.6249,288.446,164.261,6440.46,959.843,8696.63,-18.3984,32.3719,7.05058,-643.398,12975.1,-4401.5,57.9011,20.7743,325.09,-4437.29,-10637.2,-593.101,-3.31246,-31.8154,39.2106,-6713.2,6562.08,-1281.54,-46.5198,19.5519,158.71,-7150.09,-9490.74,1959.51,26.4677,-90.0573,120.856,9625.64,1173.24,-369.139,-5.89074,-42.1255,24.3333
1.592,10648.2,-10081.8,5382.06,20.5111,286.549,164.721,6314.66,997.591,8736.92,-17.1703,31.851,6.81647,-602.111,12945.3,-4409.54,58.8756,20.2752,325.298,-4335.68,-10684.8,-578.948,-3.98269,-33.3626,38.5091,-6771.63,6498.67,-1246.33,-44.7156,15.7161,158.788,-7169.92,-9524.96,2038.9,26.7258,-93.8051,121.872,9639.51,1184.94,-387.574,-5.29216,-43.2597,23.7365
1.593,10570.7,-10117.9,5399.42,22.4505,284.65,165.171,6199.83,1045.34,8780.85,-15.9261,31.326,6.58148,-566.155,12914.3,-4424.68,59.8422,19.7724,325.493,-4224.85,-10731.5,-567.63,-4.67376,-34.8849,37.7801,-6828.12,6434.64,-1206.65,-42.8777,11.8944,158.823,-7182.29,-9562.74,2111.05,26.997,-97.6402,122.881,9654.12,1191.14,-401.132,-4.65061,-44.4202,23.126
1.594,10493.3,-10154.0,5416.77,24.3899,282.752,165.622,6085.0,1093.08,8824.77,-14.6818,30.8009,6.34649,-530.199,12883.2,-4439.82,60.8088,19.2696,325.687,-4114.02,-10778.1,-556.313,-5.36483,-36.4073,37.051,-6884.6,6370.6,-1166.96,-41.0397,8.0726,158.858,-7194.66,-9600.52,2183.19,27.2682,-101.475,123.89,9668.74,1197.35,-414.691,-4.00906,-45.5806,22.5155
1.595,10415.8,-10190.1,5434.13,26.3293,280.853,166.072,5970.17,1140.82,8868.69,-13.4375,30.2759,6.11149,-494.243,12852.1,-4454.95,61.7753,18.7668,325.882,-4003.19,-10824.8,-544.995,-6.0559,-37.9297,36.3219,-6941.09,6306.56,-1127.27,-39.2018,4.25085,158.894,-7207.03,-9638.3,2255.33,27.5394,-105.311,124.899,9683.35,1203.56,-428.25,-3.36751,-46.7411,21.905
1.596,10333.0,-10217.8,5461.74,28.3397,279.021,166.456,5874.55,1176.14,8894.42,-12.4126,29.699,5.81401,-441.799,12818.5,-4478.95,62.7041,18.2736,326.145,-3891.25,-10866.8,-559.173,-6.74477,-39.2201,35.5899,-6994.38,6258.39,-1086.6,-37.3907,0.553585,158.828,-7197.02,-9697.72,2296.84,27.7243,-109.214,125.86,9680.22,1206.83,-442.707,-2.75319,-47.8978,21.2463
1.597,10243.7,-10235.0,5502.18,30.4389,277.272,166.758,5802.92,1195.91,8897.43,-11.6618,29.0574,5.4384,-368.745,12781.7,-4514.01,63.5857,17.7926,326.493,-3777.92,-10903.1,-605.22,-7.43087,-40.2207,34.854,-7043.67,6230.06,-1044.68,-35.6129,-2.98808,158.635,-7159.02,-9784.19,2300.06,27.8014,-113.202,126.761,9654.91,1206.42,-458.286,-2.17291,-49.0498,20.5272
1.598,10154.3,-10252.3,5542.62,32.5381,275.522,167.06,5731.3,1215.69,8900.43,-10.911,28.4158,5.06279,-295.691,12745.0,-4549.07,64.4672,17.3115,326.841,-3664.58,-10939.4,-651.267,-8.11697,-41.2212,34.1182,-7092.95,6201.72,-1002.77,-33.8352,-6.52974,158.443,-7121.02,-9870.67,2303.28,27.8785,-117.191,127.662,9629.6,1206.02,-473.865,-1.59264,-50.2017,19.8081
1.599,10064.9,-10269.5,5583.06,34.6373,273.773,167.362,5659.68,1235.46,8903.44,-10.1602,27.7741,4.68718,-222.636,12708.3,-4584.13,65.3488,16.8305,327.189,-3551.25,-10975.6,-697.314,-8.80307,-42.2217,33.3824,-7142.24,6173.38,-960.853,-32.0575,-10.0714,158.251,-7083.02,-9957.14,2306.51,27.9556,-121.179,128.563,9604.29,1205.61,-489.445,-1.01236,-51.3537,19.0891
1.6,9975.54,-10286.7,5623.5,36.7365,272.024,167.663,5588.05,1255.23,8906.44,-9.40934,27.1325,4.31158,-149.582,12671.5,-4619.19,66.2303,16.3494,327.536,-3437.92,-11011.9,-743.361,-9.48917,-43.2223,32.6465,-7191.53,6145.04,-918.938,-30.2798,-13.6131,158.058,-7045.02,-10043.6,2309.73,28.0326,-125.168,129.464,9578.97,1205.21,-505.024,-0.432083,-52.5057,18.37
1.601,9911.84,-10218.0,5765.76,38.4123,270.056,168.03,5583.01,1339.98,8913.48,-8.6173,26.4007,3.96962,-106.912,12646.3,-4633.52,66.8482,15.8729,327.858,-3357.11,-10998.5,-828.078,-10.1234,-43.764,32.1886,-7219.58,6051.59,-936.024,-28.3612,-16.6514,157.836,-7019.76,-10097.2,2217.82,27.8757,-128.499,130.231,9565.75,1304.32,-544.695,-0.509862,-53.3222,17.8712
1.602,9848.14,-10149.4,5908.03,40.0881,268.088,168.397,5577.96,1424.73,8920.52,-7.82526,25.6688,3.62766,-64.2412,12621.0,-4647.84,67.466,15.3963,328.18,-3276.3,-10985.1,-912.796,-10.7576,-44.3057,31.7307,-7247.63,5958.14,-953.111,-26.4426,-19.6897,157.614,-6994.5,-10150.8,2125.92,27.7187,-131.831,130.998,9552.53,1403.43,-584.367,-0.587641,-54.1387,17.3724
1.603,9784.44,-10080.7,6050.29,41.7639,266.12,168.764,5572.92,1509.48,8927.56,-7.03321,24.937,3.28571,-21.5708,12595.7,-4662.17,68.0839,14.9197,328.502,-3195.49,-10971.7,-997.513,-11.3919,-44.8474,31.2727,-7275.67,5864.69,-970.197,-24.524,-22.7281,157.392,-6969.24,-10204.4,2034.02,27.5618,-135.163,131.765,9539.3,1502.54,-624.038,-0.66542,-54.9553,16.8736
1.604,9720.73,-10012.1,6192.56,43.4397,264.152,169.131,5567.87,1594.23,8934.6,-6.24117,24.2052,2.94375,21.0996,12570.4,-4676.5,68.7017,14.4432,328.824,-3114.68,-10958.3,-1082.23,-12.0261,-45.3891,30.8148,-7303.72,5771.24,-987.283,-22.6054,-25.7664,157.169,-6943.97,-10258.0,1942.11,27.4048,-138.494,132.532,9526.08,1601.65,-663.71,-0.743199,-55.7718,16.3748
1.605,9662.77,-9925.13,6332.98,44.6947,262.353,169.574,5564.91,1655.5,8935.81,-5.59015,23.4149,2.62432,36.6255,12547.8,-4703.21,69.3554,14.0463,329.29,-3040.02,-10966.6,-1148.41,-12.5306,-45.938,30.3818,-7312.82,5671.4,-1043.16,-20.3254,-28.4527,156.909,-6909.49,-10296.7,1827.66,27.4042,-141.25,133.22,9524.19,1667.69,-752.322,-1.07393,-56.2581,15.9535
1.606,9609.41,-9823.51,6471.93,45.6131,260.688,170.078,5563.61,1697.99,8932.34,-5.05195,22.5779,2.32292,30.4359,12527.4,-4739.84,70.0378,13.7131,329.87,-2970.27,-10992.3,-1199.77,-12.9312,-46.4926,29.9689,-7306.75,5566.45,-1130.07,-17.7563,-30.8574,156.619,-6867.63,-10323.3,1695.18,27.5286,-143.546,133.846,9531.38,1707.27,-880.086,-1.60704,-56.4804,15.5942
1.607,9556.04,-9721.89,6610.88,46.5315,259.023,170.583,5562.31,1740.48,8928.87,-4.51374,21.7409,2.02151,24.2462,12507.0,-4776.46,70.7201,13.38,330.45,-2900.52,-11017.9,-1251.12,-13.3319,-47.0473,29.556,-7300.69,5461.5,-1216.98,-15.1873,-33.2621,156.329,-6825.77,-10350.0,1562.69,27.6531,-145.842,134.471,9538.56,1746.86,-1007.85,-2.14014,-56.7026,15.2349
1.608,9502.67,-9620.27,6749.84,47.4499,257.358,171.087,5561.02,1782.97,8925.4,-3.97554,20.9039,1.72011,18.0565,12486.5,-4813.08,71.4025,13.0469,331.03,-2830.78,-11043.6,-1302.47,-13.7326,-47.6019,29.143,-7294.63,5356.55,-1303.9,-12.6182,-35.6668,156.039,-6783.91,-10376.6,1430.2,27.7775,-148.138,135.096,9545.74,1786.44,-1135.62,-2.67324,-56.9248,14.8756
1.609,9458.71,-9518.8,6881.67,48.2303,255.836,171.605,5555.78,1820.92,8922.55,-3.45321,20.0683,1.43766,11.9938,12462.2,-4846.25,72.0926,12.6695,331.625,-2767.56,-11069.9,-1356.95,-14.1241,-48.1144,28.7387,-7285.66,5249.44,-1387.86,-9.9858,-38.0182,155.71,-6741.92,-10400.6,1288.24,27.9094,-150.265,135.702,9542.4,1820.14,-1253.62,-3.14357,-57.1321,14.4879
1.61,9490.05,-9418.54,6956.59,47.9069,255.464,172.235,5519.05,1822.55,8924.6,-3.05786,19.2432,1.30683,6.94666,12407.2,-4851.85,72.8446,11.938,332.34,-2756.62,-11100.9,-1436.4,-14.4423,-48.2903,28.4031,-7253.45,5125.04,-1448.25,-6.84706,-39.9437,155.071,-6698.85,-10403.1,1070.5,28.1012,-151.043,136.151,9454.86,1806.78,-1293.5,-3.11173,-57.2194,13.8723
1.611,9521.39,-9318.28,7031.5,47.5835,255.091,172.865,5482.33,1824.17,8926.66,-2.66251,18.4181,1.17601,1.8995,12352.2,-4857.44,73.5967,11.2065,333.055,-2745.67,-11131.9,-1515.85,-14.7606,-48.4661,28.0675,-7221.24,5000.64,-1508.64,-3.70832,-41.8691,154.432,-6655.78,-10405.7,852.759,28.293,-151.821,136.6,9367.31,1793.43,-1333.39,-3.0799,-57.3068,13.2568
1.612,9552.73,-9218.02,7106.41,47.26,254.719,173.496,5445.6,1825.8,8928.71,-2.26716,17.593,1.04519,-3.14766,12297.2,-4863.03,74.3487,10.475,333.77,-2734.73,-11162.9,-1595.3,-15.0788,-48.6419,27.7319,-7189.03,4876.24,-1569.03,-0.569573,-43.7946,153.794,-6612.71,-10408.2,635.018,28.4847,-152.599,137.049,9279.77,1780.07,-1373.27,-3.04806,-57.3941,12.6413
1.613,9584.07,-9117.76,7181.33,46.9366,254.346,174.126,5408.87,1827.42,8930.76,-1.87181,16.768,0.914368,-8.19482,12242.1,-4868.62,75.1008,9.74345,334.485,-2723.78,-11193.9,-1674.74,-15.3971,-48.8177,27.3963,-7156.82,4751.84,-1629.41,2.56917,-45.7201,153.155,-6569.64,-10410.7,417.278,28.6765,-153.377,137.498,9192.22,1766.71,-1413.16,-3.01623,-57.4815,12.0257
1.614,9668.24,-9058.77,7262.3,45.8976,254.895,174.751,5384.06,1849.59,8942.08,-1.61868,16.0298,0.724494,-56.5833,12169.9,-4868.78,76.1412,9.03889,335.26,-2737.56,-11214.9,-1774.59,-15.7175,-48.9957,27.044,-7145.95,4649.81,-1670.72,5.53059,-47.2427,152.478,-6501.29,-10412.7,168.995,28.7404,-153.202,137.725,9162.01,1764.52,-1406.34,-2.92771,-57.5805,11.2593
1.615,9778.82,-9020.41,7346.3,44.5008,255.904,175.373,5365.2,1882.04,8958.04,-1.43666,15.335,0.505094,-126.642,12089.0,-4866.22,77.3259,8.3478,336.066,-2763.7,-11230.9,-1884.64,-16.039,-49.1748,26.6834,-7145.75,4558.97,-1702.48,8.40336,-48.564,151.783,-6420.3,-10414.6,-94.5575,28.7404,-152.55,137.841,9160.45,1767.9,-1376.16,-2.81084,-57.6854,10.4175
1.616,9889.4,-8982.05,7430.3,43.104,256.913,175.995,5346.34,1914.48,8974.0,-1.25464,14.6402,0.285694,-196.701,12008.2,-4863.67,78.5105,7.65671,336.872,-2789.84,-11246.9,-1994.69,-16.3605,-49.3539,26.3228,-7145.56,4468.13,-1734.23,11.2761,-49.8853,151.087,-6339.31,-10416.4,-358.11,28.7404,-151.899,137.957,9158.9,1771.29,-1345.99,-2.69398,-57.7903,9.57574
1.617,9999.98,-8943.69,7514.3,41.7072,257.922,176.617,5327.48,1946.93,8989.95,-1.07261,13.9455,0.0662942,-266.761,11927.3,-4861.11,79.6952,6.96562,337.678,-2815.98,-11263.0,-2104.73,-16.682,-49.5329,25.9622,-7145.36,4377.28,-1765.99,14.1489,-51.2066,150.392,-6258.31,-10418.2,-621.663,28.7404,-151.247,138.073,9157.34,1774.68,-1315.82,-2.57711,-57.8952,8.73394
1.618,10105.9,-8900.21,7620.06,40.0753,259.049,177.252,5314.38,1997.54,9001.72,-0.953659,13.1833,-0.0954731,-334.813,11855.4,-4863.11,80.9316,6.27395,338.558,-2839.97,-11275.0,-2210.95,-17.0116,-49.7891,25.6017,-7144.4,4296.15,-1809.41,16.7476,-52.3021,149.728,-6169.03,-10415.4,-873.202,28.7721,-150.341,138.202,9140.63,1777.03,-1282.23,-2.48633,-57.997,7.90695
1.619,10195.4,-8838.84,7801.98,37.6205,260.591,177.929,5321.44,2111.77,8998.82,-1.05543,12.1852,-0.0555257,-395.841,11814.7,-4881.08,82.3492,5.58025,339.696,-2856.45,-11273.1,-2303.76,-17.3694,-50.315,25.2415,-7140.74,4249.04,-1893.63,18.3869,-52.6075,149.176,-6050.72,-10396.4,-1082.69,28.9145,-148.547,138.378,9070.87,1775.75,-1236.67,-2.48684,-58.0879,7.1318
1.62,10285.0,-8777.46,7983.91,35.1657,262.132,178.605,5328.5,2226.0,8995.92,-1.15721,11.1871,-0.0155784,-456.869,11774.1,-4899.05,83.7668,4.88655,340.834,-2872.93,-11271.3,-2396.57,-17.7272,-50.8409,24.8813,-7137.09,4201.92,-1977.85,20.0263,-52.9129,148.625,-5932.41,-10377.5,-1292.18,29.057,-146.752,138.554,9001.1,1774.48,-1191.11,-2.48736,-58.1787,6.35665
1.621,10374.5,-8716.08,8165.84,32.7109,263.674,179.282,5335.56,2340.22,8993.02,-1.25898,10.189,0.0243689,-517.897,11733.5,-4917.02,85.1844,4.19285,341.972,-2889.4,-11269.4,-2489.39,-18.085,-51.3668,24.521,-7133.43,4154.8,-2062.07,21.6657,-53.2183,148.073,-5814.09,-10358.5,-1501.67,29.1994,-144.958,138.73,8931.34,1773.2,-1145.55,-2.48787,-58.2696,5.5815
1.622,10464.1,-8654.71,8347.76,30.2561,265.216,179.959,5342.62,2454.45,8990.13,-1.36076,9.19097,0.0643162,-578.926,11692.8,-4935.0,86.602,3.49915,343.109,-2905.88,-11267.5,-2582.2,-18.4428,-51.8927,24.1608,-7129.77,4107.69,-2146.29,23.305,-53.5237,147.522,-5695.78,-10339.6,-1711.16,29.3419,-143.163,138.906,8861.58,1771.92,-1099.99,-2.48838,-58.3605,4.80635
1.623,10524.7,-8516.39,8506.01,27.1033,266.906,180.811,5344.08,2553.98,9018.56,-1.64387,8.19652,0.140968,-613.068,11683.7,-4945.72,88.0415,2.41694,344.211,-2893.38,-11262.1,-2682.13,-18.8762,-52.4125,23.8892,-7150.13,4068.47,-2258.38,23.9672,-52.7339,146.767,-5521.5,-10362.6,-1869.02,29.7415,-141.002,139.077,8787.43,1795.11,-1084.78,-2.60695,-58.3353,4.34271
1.624,10577.1,-8356.09,8657.51,23.7511,268.639,181.714,5343.94,2649.31,9055.94,-1.97879,7.20311,0.228107,-639.529,11683.5,-4954.38,89.4871,1.22372,345.302,-2872.59,-11255.6,-2784.09,-19.3312,-52.9304,23.6428,-7177.35,4031.51,-2378.43,24.3503,-51.6312,145.954,-5331.22,-10397.5,-2012.14,30.2145,-138.737,139.246,8712.02,1825.29,-1078.23,-2.75925,-58.2771,3.96807
1.625,10629.4,-8195.79,8809.0,20.3989,270.371,182.616,5343.8,2744.65,9093.32,-2.31371,6.20971,0.315245,-665.989,11683.3,-4963.03,90.9328,0.0304972,346.393,-2851.8,-11249.2,-2886.05,-19.7862,-53.4484,23.3965,-7204.57,3994.55,-2498.49,24.7333,-50.5285,145.141,-5140.94,-10432.5,-2155.26,30.6875,-136.472,139.416,8636.62,1855.47,-1071.68,-2.91155,-58.2188,3.59344
1.626,10681.8,-8035.5,8960.49,17.0467,272.104,183.519,5343.66,2839.98,9130.71,-2.64863,5.2163,0.402384,-692.45,11683.1,-4971.69,92.3784,-1.16272,347.484,-2831.02,-11242.7,-2988.01,-20.2412,-53.9664,23.1501,-7231.8,3957.59,-2618.54,25.1164,-49.4258,144.327,-4950.65,-10467.5,-2298.37,31.1605,-134.206,139.585,8561.22,1885.65,-1065.13,-3.06385,-58.1605,3.2188
1.627,10745.2,-7870.73,9108.22,13.3438,273.848,184.344,5329.18,2920.84,9137.89,-2.97349,4.25794,0.598395,-720.246,11701.6,-4954.42,93.6993,-2.62014,348.462,-2800.37,-11236.9,-3090.81,-20.6667,-54.3809,22.9405,-7261.54,3914.09,-2725.05,25.289,-47.9315,143.425,-4749.45,-10514.4,-2402.26,31.6363,-131.998,139.697,8502.32,1902.06,-1067.89,-3.22779,-58.0345,2.89762
1.628,10830.7,-7697.01,9248.43,8.93933,275.616,185.017,5286.01,2972.77,9084.66,-3.27821,3.3697,1.01215,-750.713,11757.3,-4885.33,94.7705,-4.60595,349.215,-2750.0,-11232.5,-3195.29,-21.0333,-54.5886,22.8045,-7296.34,3857.49,-2804.48,25.0408,-45.654,142.342,-4526.39,-10585.1,-2427.68,32.1176,-129.903,139.695,8476.42,1890.93,-1089.25,-3.41498,-57.7729,2.68338
1.629,10916.2,-7523.3,9388.65,4.53491,277.383,185.69,5242.84,3024.69,9031.42,-3.58294,2.48146,1.42591,-781.18,11812.9,-4816.24,95.8418,-6.59177,349.968,-2699.62,-11228.0,-3299.77,-21.3999,-54.7963,22.6685,-7331.14,3800.89,-2883.91,24.7925,-43.3765,141.26,-4303.33,-10655.8,-2453.1,32.599,-127.808,139.693,8450.52,1879.8,-1110.61,-3.60218,-57.5113,2.46913
1.63,11001.7,-7349.58,9528.87,0.130484,279.151,186.362,5199.67,3076.61,8978.19,-3.88766,1.59321,1.83966,-811.647,11868.6,-4747.15,96.913,-8.57758,350.721,-2649.25,-11223.6,-3404.24,-21.7665,-55.004,22.5325,-7365.93,3744.3,-2963.33,24.5443,-41.099,140.178,-4080.27,-10726.6,-2478.52,33.0803,-125.713,139.69,8424.61,1868.67,-1131.98,-3.78938,-57.2498,2.25489
1.631,11087.1,-7175.87,9669.08,-4.27394,280.919,187.035,5156.5,3128.53,8924.96,-4.19238,0.704971,2.25342,-842.114,11924.3,-4678.06,97.9843,-10.5634,351.474,-2598.88,-11219.2,-3508.72,-22.1331,-55.2117,22.3965,-7400.73,3687.7,-3042.76,24.2961,-38.8215,139.095,-3857.2,-10797.3,-2503.94,33.5616,-123.619,139.688,8398.71,1857.54,-1153.34,-3.97657,-56.9882,2.04065
1.632,11166.9,-7042.83,9811.8,-9.24096,282.458,187.14,5141.07,3171.94,8868.84,-4.38611,-0.15776,2.72491,-868.754,12070.7,-4636.6,98.4142,-12.8153,352.168,-2551.05,-11208.2,-3622.67,-22.6942,-55.147,22.3596,-7370.24,3629.96,-3111.09,23.8384,-36.1673,137.688,-3620.07,-10829.5,-2620.18,33.6043,-121.122,139.841,8365.26,1834.47,-1166.72,-4.29346,-56.6278,1.97105
1.633,11245.9,-6914.89,9954.83,-14.2783,283.969,187.174,5129.12,3214.28,8812.36,-4.56596,-1.0173,3.20363,-894.916,12228.5,-4598.6,98.7639,-15.1005,352.855,-2503.53,-11196.5,-3737.8,-23.2796,-55.0483,22.3352,-7331.6,3572.08,-3178.03,23.3546,-33.466,136.239,-3381.18,-10857.0,-2747.78,33.5921,-118.575,140.014,8330.86,1809.9,-1179.1,-4.62656,-56.2552,1.91952
1.634,11324.9,-6786.94,10097.9,-19.3156,285.479,187.208,5117.16,3256.62,8755.88,-4.74581,-1.87684,3.68234,-921.078,12386.2,-4560.6,99.1136,-17.3856,353.542,-2456.02,-11184.8,-3852.94,-23.865,-54.9495,22.3107,-7292.95,3514.2,-3244.98,22.8708,-30.7646,134.791,-3142.29,-10884.4,-2875.37,33.5799,-116.029,140.187,8296.46,1785.34,-1191.48,-4.95966,-55.8825,1.868
1.635,11403.9,-6658.99,10240.9,-24.353,286.99,187.242,5105.2,3298.96,8699.4,-4.92566,-2.73639,4.16105,-947.24,12544.0,-4522.6,99.4633,-19.6708,354.229,-2408.5,-11173.0,-3968.07,-24.4504,-54.8507,22.2862,-7254.3,3456.32,-3311.92,22.3869,-28.0633,133.343,-2903.4,-10911.9,-3002.97,33.5678,-113.482,140.361,8262.06,1760.77,-1203.86,-5.29277,-55.5098,1.81648
1.636,11498.6,-6588.64,10346.5,-29.1562,288.384,186.847,5100.92,3380.21,8652.98,-4.94804,-3.56044,4.78093,-949.356,12731.5,-4501.69,99.6828,-21.8402,354.838,-2367.23,-11144.1,-4091.93,-25.0769,-54.8789,22.3505,-7191.06,3404.61,-3385.93,21.9407,-25.3458,131.756,-2659.97,-10925.4,-3125.49,33.4884,-110.767,140.577,8233.16,1749.82,-1201.67,-5.68093,-55.0228,1.89292
1.637,11613.0,-6590.27,10405.4,-33.6668,289.633,185.913,5106.22,3510.08,8619.16,-4.77358,-4.34014,5.57728,-921.413,12956.0,-4502.15,99.7396,-23.865,355.35,-2333.75,-11093.7,-4226.71,-25.7549,-55.0657,22.5256,-7097.08,3360.62,-3468.76,21.5416,-22.6079,129.996,-2410.86,-10921.4,-3241.66,33.3252,-107.841,140.849,8211.15,1755.89,-1181.29,-6.13794,-54.3928,2.12932
1.638,11727.3,-6591.91,10464.2,-38.1775,290.881,184.98,5111.52,3639.96,8585.33,-4.59912,-5.11984,6.37364,-893.471,13180.6,-4502.6,99.7963,-25.8898,355.862,-2300.27,-11043.4,-4361.48,-26.4328,-55.2524,22.7007,-7003.1,3316.63,-3551.6,21.1425,-19.8701,128.237,-2161.75,-10917.4,-3357.83,33.1619,-104.916,141.12,8189.14,1761.95,-1160.9,-6.59494,-53.7628,2.36572
1.639,11841.6,-6593.54,10523.1,-42.6881,292.13,184.046,5116.83,3769.84,8551.5,-4.42467,-5.89953,7.16999,-865.529,13405.2,-4503.06,99.8531,-27.9146,356.374,-2266.79,-10993.0,-4496.26,-27.1108,-55.4392,22.8759,-6909.12,3272.64,-3634.43,20.7434,-17.1323,126.477,-1912.64,-10913.4,-3474.01,32.9986,-101.99,141.392,8167.12,1768.02,-1140.52,-7.05194,-53.1328,2.60211
1.64,11955.9,-6595.18,10581.9,-47.1987,293.379,183.113,5122.13,3899.71,8517.68,-4.25021,-6.67923,7.96634,-837.586,13629.8,-4503.51,99.9098,-29.9394,356.886,-2233.31,-10942.6,-4631.04,-27.7888,-55.626,23.051,-6815.13,3228.65,-3717.27,20.3443,-14.3945,124.717,-1663.53,-10909.4,-3590.18,32.8354,-99.0647,141.663,8145.11,1774.08,-1120.13,-7.50895,-52.5028,2.83851
1.641,12090.1,-6798.53,10621.4,-50.0657,293.942,180.813,5177.83,4011.42,8537.94,-3.62618,-7.74381,9.10042,-700.53,13940.2,-4455.89,99.8767,-31.5014,357.327,-2276.66,-10914.7,-4746.0,-28.1742,-56.3498,23.5516,-6648.56,3202.71,-3725.53,19.888,-11.7993,122.71,-1347.56,-11014.5,-3477.02,33.4199,-97.03,141.62,8145.58,1719.49,-1070.7,-7.97231,-51.7683,2.96267
1.642,12224.3,-7001.89,10660.9,-52.9326,294.505,178.513,5233.54,4123.12,8558.21,-3.00215,-8.80839,10.2345,-563.474,14250.7,-4408.28,99.8435,-33.0633,357.768,-2320.02,-10886.8,-4860.97,-28.5596,-57.0736,24.0523,-6481.98,3176.78,-3733.78,19.4317,-9.20416,120.703,-1031.59,-11119.7,-3363.85,34.0045,-94.9954,141.576,8146.04,1664.89,-1021.27,-8.43567,-51.0339,3.08684
1.643,12358.6,-7205.25,10700.4,-55.7996,295.068,176.214,5289.25,4234.83,8578.47,-2.37811,-9.87297,11.3686,-426.417,14561.2,-4360.66,99.8104,-34.6252,358.209,-2363.37,-10858.9,-4975.94,-28.945,-57.7974,24.5529,-6315.4,3150.85,-3742.04,18.9754,-6.60899,118.696,-715.624,-11224.8,-3250.69,34.589,-92.9608,141.533,8146.5,1610.3,-971.842,-8.89904,-50.2994,3.211
1.644,12492.8,-7408.6,10739.9,-58.6665,295.631,173.914,5344.95,4346.53,8598.73,-1.75408,-10.9375,12.5027,-289.361,14871.7,-4313.04,99.7773,-36.1872,358.65,-2406.73,-10830.9,-5090.91,-29.3305,-58.5212,25.0535,-6148.82,3124.92,-3750.3,18.5191,-4.01382,116.689,-399.655,-11330.0,-3137.53,35.1735,-90.9262,141.489,8146.97,1555.7,-922.41,-9.3624,-49.5649,3.33517
1.645,12642.3,-7654.89,10768.8,-60.2574,295.758,171.065,5404.76,4330.87,8658.33,-0.487962,-12.1691,13.7933,-132.714,15199.3,-4284.87,99.6884,-37.5683,359.208,-2450.77,-10846.5,-5086.27,-29.4372,-59.5487,25.6902,-5931.55,3122.39,-3700.94,17.9247,-1.69029,114.681,-102.771,-11411.8,-3035.73,35.5244,-89.1923,141.559,8127.55,1494.33,-873.669,-9.53365,-48.8442,3.44487
1.646,12804.2,-7935.54,10789.4,-60.8274,295.537,167.777,5467.85,4213.31,8749.41,1.29183,-13.5343,15.2091,39.6055,15540.6,-4272.24,99.5549,-38.8049,359.86,-2495.37,-10896.9,-4985.95,-29.321,-60.8191,26.4358,-5673.74,3138.58,-3605.5,17.2198,0.415924,112.671,178.844,-11474.9,-2943.01,35.6883,-87.6991,141.718,8092.23,1427.54,-825.48,-9.47121,-48.1344,3.54299
1.647,12966.1,-8216.18,10809.9,-61.3973,295.315,164.489,5530.95,4095.76,8840.48,3.07162,-14.8995,16.6249,211.925,15881.9,-4259.62,99.4214,-40.0414,360.512,-2539.97,-10947.3,-4885.63,-29.2049,-62.0896,27.1814,-5415.92,3154.77,-3510.05,16.5149,2.52214,110.662,460.46,-11538.0,-2850.3,35.8522,-86.2059,141.877,8056.91,1360.75,-777.29,-9.40876,-47.4246,3.64112
1.648,13128.0,-8496.82,10830.5,-61.9673,295.093,161.201,5594.04,3978.2,8931.55,4.85141,-16.2647,18.0407,384.244,16223.2,-4247.0,99.288,-41.2779,361.163,-2584.57,-10997.6,-4785.31,-29.0887,-63.36,27.9269,-5158.11,3170.96,-3414.61,15.8099,4.62836,108.653,742.075,-11601.2,-2757.59,36.0161,-84.7127,142.037,8021.59,1293.96,-729.101,-9.34632,-46.7148,3.73925
1.649,13296.6,-8769.12,10850.5,-62.3647,294.8,157.882,5650.9,3845.29,9023.65,6.64265,-17.6578,19.3992,549.926,16562.5,-4232.87,99.1588,-42.4173,361.746,-2617.55,-11052.0,-4679.67,-28.9828,-64.6292,28.6637,-4893.94,3190.43,-3310.8,15.0976,6.63388,106.676,1021.0,-11662.6,-2673.23,36.0321,-83.2567,142.21,7986.76,1229.41,-682.716,-9.22518,-45.9836,3.81836
1.65,13519.2,-8974.68,10866.1,-61.3811,293.941,154.309,5657.96,3589.49,9123.95,8.52558,-19.2739,20.2993,662.512,16885.5,-4206.75,99.0642,-42.7792,361.773,-2557.56,-11138.5,-4531.44,-28.9587,-65.8886,29.3299,-4578.95,3236.09,-3140.06,14.3262,7.83388,104.965,1278.42,-11710.6,-2655.72,34.865,-82.0991,142.495,7955.81,1182.87,-650.761,-8.63439,-45.0809,3.74529
1.651,13741.7,-9180.25,10881.8,-60.3975,293.083,150.737,5665.01,3333.69,9224.24,10.4085,-20.8899,21.1994,775.097,17208.5,-4180.62,98.9696,-43.1412,361.8,-2497.58,-11224.9,-4383.22,-28.9347,-67.148,29.9962,-4263.97,3281.75,-2969.33,13.5549,9.03388,103.254,1535.83,-11758.6,-2638.2,33.6979,-80.9415,142.781,7924.87,1136.32,-618.807,-8.0436,-44.1782,3.67222
1.652,13964.2,-9385.81,10897.4,-59.414,292.224,147.164,5672.06,3077.89,9324.54,12.2914,-22.506,22.0996,887.682,17531.5,-4154.49,98.875,-43.5031,361.827,-2437.6,-11311.4,-4234.99,-28.9107,-68.4074,30.6624,-3948.98,3327.41,-2798.59,12.7835,10.2339,101.543,1793.25,-11806.5,-2620.69,32.5308,-79.7838,143.066,7893.92,1089.78,-586.852,-7.45282,-43.2756,3.59916
1.653,14186.8,-9591.38,10913.1,-58.4304,291.365,143.592,5679.11,2822.09,9424.83,14.1744,-24.1221,22.9997,1000.27,17854.5,-4128.37,98.7804,-43.865,361.854,-2377.61,-11397.9,-4086.76,-28.8866,-69.6669,31.3287,-3633.99,3373.07,-2627.86,12.0121,11.4339,99.8313,2050.67,-11854.5,-2603.18,31.3637,-78.6262,143.352,7862.97,1043.23,-554.898,-6.86203,-42.3729,3.52609
1.654,14442.7,-9626.83,10977.9,-57.1584,289.846,140.499,5636.71,2819.23,9439.75,15.03,-25.6855,23.8021,1036.03,18225.4,-4078.03,98.9956,-43.6738,361.347,-2285.62,-11447.4,-3965.53,-28.8471,-71.2163,32.1571,-3285.41,3425.86,-2440.86,11.4969,11.5669,98.3784,2340.23,-11962.0,-2558.65,30.5004,-78.4305,143.416,7844.94,1022.62,-514.674,-6.2937,-41.4771,3.41998
1.655,14715.3,-9577.23,11067.2,-55.7421,287.997,137.646,5569.58,2942.84,9411.98,15.3719,-27.2227,24.5557,1033.39,18620.4,-4015.58,99.3657,-43.2061,360.574,-2177.63,-11478.5,-3857.79,-28.7998,-72.9107,33.0665,-2920.02,3482.22,-2245.73,11.1098,11.1665,97.0547,2645.87,-12099.3,-2500.6,29.7889,-78.7158,143.369,7833.37,1014.97,-470.314,-5.73659,-40.5847,3.29736
1.656,14987.9,-9527.63,11156.6,-54.3258,286.149,134.792,5502.44,3066.46,9384.21,15.7138,-28.7599,25.3093,1030.75,19015.3,-3953.14,99.7358,-42.7384,359.8,-2069.64,-11509.7,-3750.05,-28.7526,-74.6051,33.9759,-2554.63,3538.57,-2050.6,10.7227,10.7661,95.731,2951.5,-12236.5,-2442.56,29.0774,-79.001,143.322,7821.79,1007.33,-425.955,-5.17948,-39.6923,3.17473
1.657,15260.5,-9478.02,11246.0,-52.9095,284.3,131.939,5435.31,3190.07,9356.44,16.0557,-30.2971,26.063,1028.11,19410.3,-3890.69,100.106,-42.2707,359.027,-1961.65,-11540.8,-3642.31,-28.7053,-76.2995,34.8853,-2189.24,3594.93,-1855.47,10.3356,10.3657,94.4073,3257.14,-12373.8,-2384.51,28.366,-79.2863,143.275,7810.22,999.681,-381.596,-4.62237,-38.7999,3.0521
1.658,15545.9,-9366.29,11336.1,-51.6508,282.247,129.364,5339.76,3284.83,9341.0,16.3967,-31.7729,26.8975,989.799,19817.4,-3816.91,100.53,-41.8407,358.149,-1812.24,-11571.9,-3522.73,-28.4722,-77.879,35.831,-1820.92,3659.36,-1669.76,10.1431,9.61493,93.1084,3565.2,-12504.3,-2345.21,27.8515,-79.9037,143.173,7806.45,993.978,-330.479,-4.08297,-37.923,2.95703
1.659,15876.5,-9037.13,11429.1,-50.9437,279.483,127.761,5144.75,3278.61,9368.72,16.7344,-33.0339,28.0152,826.633,20266.7,-3703.44,101.141,-41.5423,356.905,-1517.83,-11603.1,-3361.67,-27.5885,-79.0563,36.9034,-1442.35,3752.05,-1517.04,10.6318,7.63771,91.8963,3881.73,-12611.3,-2371.51,28.0267,-81.6837,142.875,7829.96,995.074,-255.71,-3.60553,-37.0999,2.95842
1.66,16207.0,-8707.96,11522.0,-50.2365,276.718,126.158,4949.74,3272.38,9396.44,17.0722,-34.2949,29.1329,663.466,20716.1,-3589.97,101.753,-41.2439,355.66,-1223.43,-11634.4,-3200.62,-26.7047,-80.2336,37.9759,-1063.78,3844.73,-1364.32,11.1204,5.66048,90.6843,4198.25,-12718.3,-2397.81,28.2018,-83.4637,142.577,7853.48,996.171,-180.941,-3.1281,-36.2769,2.9598
1.661,16537.6,-8378.8,11614.9,-49.5293,273.954,124.555,4754.73,3266.16,9424.16,17.4099,-35.5559,30.2507,500.3,21165.4,-3476.5,102.364,-40.9455,354.416,-929.028,-11665.6,-3039.56,-25.821,-81.411,39.0483,-685.205,3937.42,-1211.6,11.609,3.68325,89.4722,4514.78,-12825.2,-2424.1,28.377,-85.2436,142.279,7877.0,997.267,-106.172,-2.65067,-35.4539,2.96119
1.662,16868.1,-8049.63,11707.9,-48.8221,271.189,122.952,4559.73,3259.94,9451.88,17.7476,-36.8168,31.3684,337.134,21614.8,-3363.04,102.976,-40.6471,353.172,-634.625,-11696.8,-2878.51,-24.9373,-82.5883,40.1207,-306.633,4030.11,-1058.89,12.0977,1.70602,88.2602,4831.31,-12932.2,-2450.4,28.5522,-87.0236,141.981,7900.51,998.364,-31.4026,-2.17324,-34.6308,2.96257
1.663,17241.9,-7625.28,11774.1,-49.0069,267.926,122.257,4332.23,3028.88,9436.18,17.7355,-37.8006,31.9096,-25.1542,22064.7,-3194.27,103.194,-41.3716,351.562,-263.029,-11693.0,-2747.59,-23.6661,-82.303,41.3742,56.4229,4146.94,-1025.34,13.6803,-0.871505,87.2246,5110.87,-12974.0,-2578.34,28.4151,-89.3408,141.318,7975.71,970.408,41.6607,-1.52378,-33.9905,3.13104
1.664,17628.2,-7173.73,11832.8,-49.4466,264.521,121.821,4095.46,2733.58,9408.07,17.6235,-38.7052,32.2861,-444.334,22514.9,-3009.72,103.299,-42.3884,349.847,130.621,-11679.2,-2625.29,-22.2843,-81.5997,42.6794,415.046,4270.67,-1025.85,15.5754,-3.62055,86.2395,5379.88,-12997.1,-2735.31,28.1889,-91.8115,140.551,8065.66,934.152,114.237,-0.825169,-33.4023,3.34724
1.665,18014.4,-6722.19,11891.5,-49.8862,261.115,121.385,3858.69,2438.28,9379.96,17.5114,-39.6098,32.6627,-863.514,22965.0,-2825.16,103.404,-43.4052,348.132,524.272,-11665.5,-2502.98,-20.9024,-80.8965,43.9845,773.668,4394.41,-1026.36,17.4706,-6.36959,85.2544,5648.89,-13020.3,-2892.29,27.9627,-94.2822,139.784,8155.62,897.896,186.812,-0.12656,-32.8142,3.56345
1.666,18400.6,-6270.64,11950.1,-50.3259,257.71,120.948,3621.92,2142.98,9351.85,17.3993,-40.5143,33.0392,-1282.69,23415.1,-2640.6,103.509,-44.422,346.418,917.923,-11651.7,-2380.67,-19.5206,-80.1933,45.2897,1132.29,4518.14,-1026.87,19.3658,-9.11863,84.2693,5917.9,-13043.4,-3049.26,27.7365,-96.7528,139.017,8245.58,861.64,259.388,0.572048,-32.226,3.77965
1.667,18803.6,-5852.24,11965.4,-50.9867,254.106,120.769,3488.46,1899.38,9295.34,17.1177,-41.3721,33.1069,-1763.15,23850.6,-2454.33,103.464,-45.9655,344.616,1252.54,-11607.0,-2276.95,-18.0476,-79.0396,46.7783,1487.13,4650.08,-1067.2,21.701,-11.7646,83.4222,6175.16,-13061.2,-3216.4,27.3401,-99.213,138.091,8338.48,826.007,354.036,1.47664,-31.7778,4.09365
1.668,19240.0,-5500.15,11894.0,-52.0897,250.104,121.102,3561.62,1759.2,9182.03,16.4967,-42.1362,32.5571,-2366.14,24257.0,-2264.67,103.119,-48.5625,342.639,1469.1,-11500.5,-2210.39,-16.3923,-76.985,48.6337,1834.41,4798.44,-1187.2,24.9164,-14.2045,82.8509,6408.94,-13068.0,-3403.89,26.6036,-101.652,136.849,8437.28,791.622,492.827,2.79321,-31.6092,4.60322
1.669,19676.5,-5148.05,11822.5,-53.1926,246.103,121.436,3634.78,1619.02,9068.72,15.8757,-42.9003,32.0073,-2969.13,24663.4,-2075.0,102.774,-51.1595,340.663,1685.66,-11394.0,-2143.82,-14.737,-74.9304,50.4891,2181.68,4946.79,-1307.19,28.1318,-16.6444,82.2797,6642.71,-13074.9,-3591.37,25.867,-104.091,135.607,8536.08,757.237,631.619,4.10979,-31.4407,5.11279
1.67,20112.9,-4795.96,11751.1,-54.2956,242.101,121.769,3707.94,1478.84,8955.41,15.2548,-43.6644,31.4575,-3572.13,25069.8,-1885.33,102.428,-53.7565,338.687,1902.21,-11287.5,-2077.26,-13.0816,-72.8758,52.3444,2528.96,5095.15,-1427.18,31.3472,-19.0843,81.7085,6876.49,-13081.7,-3778.85,25.1304,-106.53,134.365,8634.88,722.852,770.41,5.42636,-31.2722,5.62236
1.671,20549.4,-4443.86,11679.7,-55.3986,238.1,122.102,3781.1,1338.66,8842.1,14.6338,-44.4285,30.9078,-4175.12,25476.2,-1695.66,102.083,-56.3535,336.71,2118.77,-11181.0,-2010.69,-11.4263,-70.8212,54.1998,2876.23,5243.51,-1547.18,34.5626,-21.5241,81.1373,7110.27,-13088.6,-3966.33,24.3939,-108.969,133.122,8733.68,688.466,909.202,6.74293,-31.1037,6.13194
1.672,20977.4,-4334.85,11362.6,-56.6292,234.443,122.224,4026.24,1377.42,8772.89,13.6494,-45.1898,30.3923,-4799.07,25757.8,-1603.82,101.779,-59.329,335.052,2181.96,-11031.0,-2023.78,-9.86834,-68.3681,56.8879,3133.97,5392.19,-1725.36,38.1873,-22.3899,80.7125,7352.36,-13147.4,-4071.51,24.0017,-111.052,131.637,8820.98,635.8,1085.59,8.31017,-31.3456,6.81041
1.673,21404.4,-4256.22,11014.8,-57.8758,230.83,122.319,4292.89,1438.54,8709.2,12.6195,-45.9506,29.8811,-5425.64,26023.9,-1524.21,101.481,-62.3519,333.433,2225.97,-10875.7,-2046.83,-8.32252,-65.8652,59.68,3380.53,5540.91,-1910.82,41.8631,-23.0589,80.306,7595.49,-13212.7,-4166.4,23.6526,-113.09,130.12,8906.84,580.848,1266.68,9.90874,-31.6388,7.50998
1.674,21831.4,-4177.6,10667.1,-59.1224,227.216,122.414,4559.53,1499.66,8645.51,11.5896,-46.7115,29.3699,-6052.21,26290.0,-1444.6,101.183,-65.3748,331.815,2269.99,-10720.3,-2069.87,-6.77671,-63.3622,62.4722,3627.08,5689.63,-2096.27,45.5389,-23.7279,79.8995,7838.63,-13278.0,-4261.3,23.3035,-115.128,128.604,8992.7,525.896,1447.76,11.5073,-31.932,8.20956
1.675,22258.4,-4098.97,10319.3,-60.3689,223.603,122.509,4826.17,1560.78,8581.82,10.5597,-47.4724,28.8587,-6678.77,26556.1,-1364.99,100.884,-68.3977,330.196,2314.01,-10564.9,-2092.92,-5.2309,-60.8593,65.2643,3873.63,5838.35,-2281.73,49.2148,-24.3969,79.493,8081.76,-13343.3,-4356.19,22.9544,-117.166,127.088,9078.57,470.944,1628.85,13.1059,-32.2252,8.90914
1.676,22707.9,-4070.16,9932.19,-61.3928,220.771,122.195,5039.67,1611.31,8558.98,9.47713,-48.2255,28.4802,-7250.58,26723.1,-1291.94,100.698,-71.2281,328.636,2374.31,-10473.6,-2124.18,-3.7242,-58.355,68.272,4080.54,6001.46,-2449.56,52.6283,-23.9871,79.1677,8341.46,-13414.5,-4455.41,22.6002,-118.666,125.357,9177.23,403.193,1779.06,14.569,-32.7444,9.6956
1.677,23185.6,-4103.63,9495.91,-62.1384,218.914,121.368,5186.74,1648.58,8587.21,8.32868,-48.969,28.2676,-7753.92,26766.3,-1227.1,100.65,-73.8177,327.15,2454.98,-10462.3,-2165.72,-2.26641,-55.849,71.5491,4237.89,6182.57,-2595.34,55.714,-22.2289,78.9439,8621.89,-13492.9,-4560.03,22.2397,-119.493,123.357,9291.89,319.443,1890.67,15.8626,-33.546,10.5906
1.678,23663.2,-4137.1,9059.63,-62.884,217.058,120.541,5333.8,1685.85,8615.44,7.18024,-49.7125,28.055,-8257.26,26809.5,-1162.25,100.602,-76.4074,325.664,2535.64,-10450.9,-2207.26,-0.80862,-53.343,74.8261,4395.24,6363.67,-2741.13,58.7997,-20.4707,78.7201,8902.31,-13571.3,-4664.65,21.8791,-120.321,121.358,9406.56,235.693,2002.28,17.1563,-34.3476,11.4857
1.679,24140.8,-4170.57,8623.35,-63.6296,215.202,119.715,5480.87,1723.13,8643.67,6.03179,-50.456,27.8424,-8760.6,26852.7,-1097.4,100.555,-78.997,324.178,2616.31,-10439.6,-2248.79,0.649172,-50.837,78.1032,4552.59,6544.78,-2886.91,61.8854,-18.7124,78.4962,9182.73,-13649.7,-4769.28,21.5185,-121.148,119.358,9521.22,151.943,2113.89,18.45,-35.1492,12.3807
1.68,24618.5,-4204.04,8187.07,-64.3753,213.346,118.888,5627.94,1760.4,8671.9,4.88334,-51.1996,27.6298,-9263.95,26895.9,-1032.56,100.507,-81.5867,322.692,2696.97,-10428.3,-2290.33,2.10696,-48.331,81.3803,4709.94,6725.88,-3032.7,64.9711,-16.9542,78.2724,9463.16,-13728.1,-4873.9,21.158,-121.976,117.359,9635.89,68.1928,2225.5,19.7436,-35.9508,13.2758
1.681,25170.4,-4104.17,7861.92,-65.0211,213.2,117.827,5526.44,1819.19,8732.19,4.15608,-52.1956,27.5311,-9665.05,26706.9,-944.36,100.597,-83.2691,320.595,2782.44,-10487.6,-2361.03,3.55815,-45.8117,84.5166,4843.52,6991.68,-3086.76,66.9214,-12.7928,78.5919,9739.52,-13809.3,-4967.4,20.0799,-121.395,114.95,9755.16,-44.5658,2241.5,21.2785,-37.0926,14.4037
1.682,25722.4,-4004.3,7536.77,-65.6669,213.055,116.767,5424.94,1877.98,8792.49,3.42882,-53.1916,27.4324,-10066.2,26517.8,-856.164,100.688,-84.9515,318.498,2867.92,-10547.0,-2431.74,5.00934,-43.2925,87.6529,4977.1,7257.49,-3140.83,68.8716,-8.63134,78.9113,10015.9,-13890.5,-5060.89,19.0018,-120.814,112.542,9874.43,-157.324,2257.51,22.8133,-38.2344,15.5316
1.683,26274.3,-3904.43,7211.62,-66.3127,212.909,115.706,5323.44,1936.77,8852.79,2.70156,-54.1876,27.3337,-10467.3,26328.8,-767.968,100.778,-86.6339,316.402,2953.39,-10606.4,-2502.44,6.46053,-40.7733,90.7893,5110.69,7523.29,-3194.9,70.8219,-4.46991,79.2308,10292.3,-13971.8,-5154.38,17.9237,-120.233,110.133,9993.7,-270.083,2273.51,24.3482,-39.3761,16.6595
1.684,26826.3,-3804.56,6886.48,-66.9586,212.764,114.645,5221.94,1995.56,8913.09,1.9743,-55.1836,27.2349,-10868.4,26139.8,-679.772,100.869,-88.3162,314.305,3038.86,-10665.7,-2573.14,7.91171,-38.2541,93.9256,5244.27,7789.09,-3248.96,72.7722,-0.308484,79.5502,10568.6,-14053.0,-5247.88,16.8455,-119.652,107.725,10113.0,-382.842,2289.52,25.8831,-40.5179,17.7874
1.685,27366.1,-3646.42,6532.57,-67.7227,213.164,113.622,5061.15,2104.13,8997.46,1.49658,-56.2637,27.2809,-11234.3,25862.6,-601.618,100.981,-89.2013,311.845,3151.31,-10726.9,-2718.02,9.27354,-36.014,96.9653,5336.7,8056.42,-3235.94,74.1241,4.8905,79.974,10766.0,-14117.7,-5311.15,15.6294,-118.649,105.306,10217.9,-476.975,2286.34,27.7193,-41.56,19.0572
1.686,27896.3,-3441.65,6155.65,-68.5816,214.002,112.63,4852.92,2252.52,9101.09,1.21849,-57.411,27.4427,-11572.0,25514.8,-531.498,101.11,-89.4484,309.094,3285.35,-10789.4,-2922.23,10.5639,-33.9972,99.9278,5396.21,8324.97,-3169.25,74.9972,10.9195,80.4812,10900.3,-14169.1,-5350.25,14.3028,-117.308,102.88,10311.4,-556.208,2267.83,29.7966,-42.5222,20.4407
1.687,28426.4,-3236.89,5778.74,-69.4404,214.84,111.637,4644.69,2400.91,9204.72,0.940397,-58.5583,27.6044,-11909.8,25167.0,-461.378,101.24,-89.6956,306.343,3419.38,-10852.0,-3126.44,11.8542,-31.9804,102.89,5455.71,8593.52,-3102.56,75.8704,16.9486,80.9885,11034.6,-14220.4,-5389.34,12.9761,-115.967,100.453,10405.0,-635.44,2249.31,31.8738,-43.4845,21.8241
1.688,28956.5,-3032.12,5401.83,-70.2993,215.677,110.644,4436.47,2549.29,9308.35,0.662305,-59.7056,27.7661,-12247.6,24819.2,-391.258,101.369,-89.9427,303.592,3553.41,-10914.5,-3330.65,13.1446,-29.9635,105.853,5515.22,8862.06,-3035.87,76.7435,22.9776,81.4958,11168.9,-14271.8,-5428.44,11.6495,-114.626,98.0265,10498.5,-714.673,2230.8,33.9511,-44.4468,23.2076
1.689,29463.1,-2821.14,5025.86,-71.1468,216.488,109.65,4239.37,2702.54,9408.55,0.412147,-60.8591,27.995,-12579.9,24467.7,-320.505,101.505,-90.0808,300.793,3675.25,-10980.5,-3536.04,14.4425,-27.9894,108.803,5565.32,9125.22,-2957.26,77.5773,29.0834,82.0147,11282.8,-14321.1,-5456.84,10.3434,-113.252,95.6321,10591.6,-797.813,2208.95,36.0589,-45.4074,24.6052
1.69,29781.1,-2560.41,4657.52,-71.9034,217.081,108.639,4131.34,2894.67,9481.29,0.385465,-62.0629,28.7609,-12869.4,24086.4,-244.692,101.691,-89.3465,297.609,3699.56,-11073.8,-3750.86,15.8007,-26.3563,111.658,5540.17,9345.23,-2783.29,78.0959,35.804,82.6267,11233.4,-14353.7,-5399.61,9.20081,-111.612,93.4952,10681.6,-912.215,2160.47,38.4115,-46.3548,26.1163
1.691,30099.1,-2299.68,4289.18,-72.66,217.675,107.628,4023.3,3086.8,9554.04,0.358783,-63.2667,29.5267,-13158.8,23705.1,-168.879,101.878,-88.6122,294.426,3723.88,-11167.1,-3965.67,17.159,-24.7233,114.513,5515.02,9565.25,-2609.33,78.6145,42.5245,83.2387,11184.1,-14386.2,-5342.39,8.05827,-109.973,91.3583,10771.6,-1026.62,2111.98,40.7641,-47.3021,27.6275
1.692,30417.2,-2038.94,3920.83,-73.4166,218.268,106.617,3915.27,3278.92,9626.78,0.3321,-64.4705,30.2926,-13448.3,23323.7,-93.066,102.064,-87.8779,291.243,3748.19,-11260.4,-4180.49,18.5173,-23.0903,117.368,5489.88,9785.26,-2435.36,79.133,49.245,83.8508,11134.7,-14418.7,-5285.17,6.91573,-108.334,89.2213,10861.6,-1141.02,2063.49,43.1167,-48.2495,29.1386
1.693,30735.2,-1778.21,3552.49,-74.1733,218.862,105.606,3807.24,3471.05,9699.53,0.305418,-65.6742,31.0585,-13737.7,22942.4,-17.253,102.25,-87.1436,288.059,3772.5,-11353.7,-4395.31,19.8755,-21.4572,120.222,5464.73,10005.3,-2261.39,79.6516,55.9655,84.4628,11085.4,-14451.3,-5227.95,5.77319,-106.695,87.0844,10951.6,-1255.42,2015.01,45.4693,-49.1968,30.6497
1.694,30828.0,-1468.24,3206.98,-75.2201,218.542,104.605,3791.05,3620.16,9770.9,0.414642,-67.0791,32.2382,-14005.8,22615.9,90.7858,102.416,-86.3702,284.49,3699.29,-11478.4,-4544.1,21.4197,-19.9098,123.01,5401.06,10172.1,-2099.52,80.3445,62.4208,85.1012,10972.4,-14491.5,-5132.17,4.6098,-105.039,85.1331,10991.8,-1316.48,1950.4,47.163,-50.2125,32.2948
1.695,30808.2,-1133.64,2872.89,-76.4121,217.764,103.609,3820.79,3747.76,9841.58,0.591819,-68.5845,33.6247,-14263.3,22316.8,214.938,102.572,-85.5774,280.728,3577.33,-11618.8,-4659.88,23.0567,-18.4051,125.765,5318.14,10312.4,-1943.69,81.1245,68.7434,85.7529,10827.6,-14535.7,-5017.1,3.43597,-103.376,83.2746,11007.2,-1350.87,1877.72,48.5273,-51.2622,34.007
1.696,30788.3,-799.043,2538.8,-77.6041,216.987,102.613,3850.53,3875.35,9912.27,0.768997,-70.09,35.0112,-14520.8,22017.6,339.09,102.728,-84.7845,276.966,3455.37,-11759.2,-4775.67,24.6938,-16.9005,128.52,5235.21,10452.7,-1787.87,81.9045,75.0661,86.4046,10682.8,-14579.8,-4902.03,2.26215,-101.713,81.4161,11022.6,-1385.26,1805.05,49.8915,-52.312,35.7191
1.697,30768.5,-464.447,2204.71,-78.7961,216.21,101.617,3880.27,4002.95,9982.96,0.946174,-71.5954,36.3977,-14778.3,21718.5,463.241,102.884,-83.9917,273.204,3333.41,-11899.6,-4891.45,26.3309,-15.3959,131.275,5152.29,10592.9,-1632.05,82.6845,81.3887,87.0563,10538.0,-14623.9,-4786.97,1.08833,-100.049,79.5576,11037.9,-1419.65,1732.38,51.2557,-53.3618,37.4312
1.698,30710.3,-121.286,1851.26,-80.1372,215.144,100.583,3931.08,4094.31,10059.0,1.11871,-73.2012,37.7758,-15014.5,21449.7,590.525,102.985,-83.186,269.273,3192.3,-12044.4,-4979.39,27.913,-14.0743,133.965,5092.1,10727.8,-1482.56,83.7683,87.3966,87.6986,10377.5,-14665.9,-4685.69,-0.037801,-98.4195,77.7317,11059.5,-1443.44,1646.38,52.3188,-54.3728,39.137
1.699,30517.5,251.85,1430.04,-81.9999,213.07,99.417,4055.65,4058.8,10153.8,1.275,-75.158,39.1244,-15175.9,21286.8,728.768,102.895,-82.3355,264.749,2984.17,-12204.8,-4969.91,29.3027,-13.3933,136.433,5111.5,10843.9,-1355.25,85.9155,92.303,88.3083,10162.0,-14700.6,-4632.69,-0.996992,-96.9086,76.0198,11102.7,-1430.11,1513.77,52.3279,-55.248,40.8205
1.7,30324.8,624.986,1008.82,-83.8627,210.995,98.2514,4180.22,4023.3,10248.7,1.43128,-77.1149,40.4731,-15337.4,21123.9,867.011,102.805,-81.485,260.224,2776.05,-12365.1,-4960.44,30.6925,-12.7122,138.9,5130.89,10960.0,-1227.95,88.0626,97.2093,88.918,9946.47,-14735.3,-4579.69,-1.95618,-95.3977,74.3079,11145.8,-1416.78,1381.16,52.337,-56.1232,42.504
1.701,30132.0,998.123,587.599,-85.7255,208.921,97.0857,4304.8,3987.8,10343.5,1.58757,-79.0717,41.8218,-15498.9,20961.1,1005.25,102.715,-80.6345,255.7,2567.93,-12525.5,-4950.96,32.0822,-12.0312,141.368,5150.29,11076.1,-1100.64,90.2097,102.116,89.5277,9730.94,-14769.9,-4526.68,-2.91538,-93.8867,72.596,11189.0,-1403.45,1248.55,52.3461,-56.9985,44.1875
1.702,29939.2,1371.26,166.379,-87.5882,206.846,95.92,4429.37,3952.3,10438.4,1.74386,-81.0286,43.1704,-15660.3,20798.2,1143.5,102.625,-79.784,251.176,2359.81,-12685.8,-4941.48,33.472,-11.3502,143.835,5169.69,11192.2,-973.339,92.3569,107.022,90.1374,9515.42,-14804.6,-4473.68,-3.87457,-92.3758,70.8841,11232.2,-1390.12,1115.94,52.3552,-57.8737,45.8709
1.703,29839.5,1672.61,-255.898,-89.6772,204.48,94.7126,4487.23,3861.62,10564.8,1.8035,-83.3909,44.2424,-15843.9,20723.4,1257.11,102.086,-78.95,246.096,2196.51,-12848.0,-4805.01,34.9347,-11.4103,146.256,5303.31,11304.4,-868.354,95.1546,110.316,90.8498,9265.1,-14816.1,-4479.03,-4.78783,-90.9762,69.4089,11247.6,-1367.64,983.919,52.0796,-58.5378,47.5257
1.704,29766.2,1953.45,-678.477,-91.8307,202.032,93.4933,4526.04,3755.17,10700.4,1.83553,-85.8691,45.2354,-16033.8,20673.7,1363.69,101.417,-78.1206,240.859,2046.01,-13010.7,-4632.25,36.4182,-11.682,148.663,5469.57,11415.4,-769.746,98.1382,113.149,91.5915,9004.85,-14820.9,-4501.05,-5.68798,-89.6082,68.0014,11255.2,-1342.53,852.07,51.7228,-59.1416,49.1722
1.705,29693.0,2234.29,-1101.06,-93.9843,199.583,92.274,4564.84,3648.72,10835.9,1.86756,-88.3473,46.2283,-16223.8,20624.1,1470.26,100.749,-77.2913,235.621,1895.51,-13173.4,-4459.5,37.9018,-11.9538,151.07,5635.83,11526.5,-671.138,101.122,115.982,92.3332,8744.6,-14825.7,-4523.06,-6.58812,-88.2403,66.5939,11262.7,-1317.43,720.22,51.3659,-59.7454,50.8187
1.706,29619.8,2515.13,-1523.64,-96.1378,197.134,91.0547,4603.65,3542.28,10971.5,1.89958,-90.8255,47.2213,-16413.7,20574.5,1576.84,100.08,-76.462,230.384,1745.01,-13336.1,-4286.75,39.3853,-12.2255,153.476,5802.1,11637.5,-572.53,104.105,118.815,93.0749,8484.35,-14830.5,-4545.08,-7.48827,-86.8724,65.1864,11270.3,-1292.33,588.37,51.0091,-60.3491,52.4652
1.707,29613.3,2748.14,-1944.57,-98.221,194.698,89.8324,4619.05,3460.24,11103.8,1.9599,-93.3824,48.1961,-16641.0,20554.6,1679.39,99.2978,-75.5914,225.077,1599.73,-13509.7,-4145.13,40.976,-12.7644,155.776,6004.16,11732.6,-495.336,106.641,120.977,93.7148,8225.53,-14828.5,-4559.58,-8.14515,-85.6245,63.8638,11293.4,-1257.18,447.667,50.6014,-60.827,54.0221
1.708,29740.1,2885.46,-2362.23,-100.163,192.288,88.6041,4587.66,3427.03,11229.8,2.07681,-96.0967,49.1346,-16943.1,20594.4,1773.87,98.2873,-74.6382,219.631,1464.9,-13705.1,-4065.78,42.7807,-13.8377,157.862,6277.82,11796.0,-460.969,108.281,121.798,94.151,7969.56,-14812.8,-4559.03,-8.31552,-84.6166,62.7108,11347.8,-1201.95,289.258,50.092,-61.0528,55.4
1.709,29866.9,3022.78,-2779.88,-102.106,189.877,87.3759,4556.27,3393.81,11355.8,2.19371,-98.811,50.0732,-17245.1,20634.1,1868.36,97.2768,-73.685,214.185,1330.06,-13900.5,-3986.44,44.5855,-14.9109,159.947,6551.48,11859.3,-426.603,109.921,122.618,94.5873,7713.6,-14797.1,-4558.49,-8.48589,-83.6087,61.5579,11402.1,-1146.71,130.849,49.5826,-61.2787,56.7779
1.71,29993.6,3160.11,-3197.53,-104.048,187.467,86.1476,4524.88,3360.6,11481.8,2.31061,-101.525,51.0117,-17547.2,20673.9,1962.84,96.2663,-72.7318,208.74,1195.22,-14095.9,-3907.1,46.3903,-15.9842,162.033,6825.14,11922.7,-392.237,111.561,123.438,95.0235,7457.64,-14781.4,-4557.94,-8.65627,-82.6008,60.405,11456.5,-1091.48,-27.5598,49.0732,-61.5046,58.1557
1.711,30120.4,3297.43,-3615.18,-105.991,185.057,84.9194,4493.49,3327.38,11607.8,2.42752,-104.239,51.9503,-17849.3,20713.7,2057.33,95.2559,-71.7786,203.294,1060.38,-14291.3,-3827.76,48.195,-17.0574,164.118,7098.8,11986.0,-357.87,113.2,124.259,95.4597,7201.67,-14765.7,-4557.4,-8.82664,-81.5929,59.2521,11510.8,-1036.25,-185.969,48.5638,-61.7305,59.5336
1.712,30219.2,3377.38,-3992.16,-107.052,182.068,83.4984,4469.69,3258.02,11677.3,2.60657,-107.204,52.7838,-18132.3,20726.0,2150.29,94.2127,-70.9849,197.975,895.443,-14437.4,-3762.94,49.7778,-17.8894,165.732,7441.13,11994.1,-319.603,112.753,123.152,94.5472,6953.91,-14762.1,-4461.13,-8.3105,-80.8376,58.4058,11568.8,-901.96,-381.725,48.203,-61.595,60.7176
1.713,30314.6,3450.15,-4364.06,-108.002,179.008,82.0534,4446.84,3184.14,11739.7,2.79339,-110.199,53.6042,-18413.0,20734.8,2243.06,93.1654,-70.2111,192.671,726.739,-14577.4,-3699.94,51.3329,-18.6912,167.288,7792.04,11995.2,-280.849,112.044,121.804,93.4661,6707.17,-14760.0,-4352.89,-7.70856,-80.1138,57.5979,11627.2,-757.792,-582.15,47.8607,-61.4142,61.8775
1.714,30409.9,3522.92,-4735.95,-108.953,175.947,80.6084,4423.99,3110.26,11802.2,2.98021,-113.194,54.4246,-18693.7,20743.7,2335.83,92.1181,-69.4373,187.367,558.035,-14717.3,-3636.94,52.888,-19.493,168.843,8142.96,11996.3,-242.094,111.335,120.456,92.3849,6460.44,-14757.9,-4244.65,-7.10661,-79.3901,56.79,11685.7,-613.625,-782.575,47.5185,-61.2335,63.0373
1.715,30505.2,3595.7,-5107.85,-109.903,172.886,79.1634,4401.13,3036.37,11864.6,3.16703,-116.19,55.2449,-18974.4,20752.6,2428.6,91.0708,-68.6636,182.064,389.331,-14857.3,-3573.94,54.443,-20.2948,170.398,8493.87,11997.4,-203.34,110.627,119.107,91.3038,6213.7,-14755.9,-4136.41,-6.50466,-78.6664,55.982,11744.2,-469.458,-983.0,47.1763,-61.0528,64.1971
1.716,30511.7,3680.49,-5459.73,-110.232,169.308,77.6176,4397.76,2951.2,11925.3,3.37652,-119.402,55.9022,-19207.7,20701.1,2525.33,90.042,-67.9294,176.858,225.536,-14979.1,-3459.34,55.9085,-21.3498,171.867,8871.92,11920.3,-178.023,108.589,117.007,89.413,5982.01,-14750.8,-4001.54,-5.87772,-77.9578,55.2013,11800.6,-297.502,-1176.75,46.9641,-60.7315,65.3241
1.717,30407.2,3780.32,-5786.59,-109.783,165.083,75.9458,4418.72,2851.91,11983.9,3.61434,-122.885,56.3556,-19381.7,20574.0,2626.99,89.0362,-67.2446,171.774,67.8774,-15078.2,-3280.22,57.2619,-22.7213,173.229,9283.87,11745.3,-169.503,104.889,113.965,86.5102,5769.14,-14742.1,-3833.38,-5.21953,-77.2684,54.4546,11854.4,-90.812,-1362.15,46.9144,-60.2346,66.41
1.718,30302.6,3880.14,-6113.45,-109.334,160.858,74.274,4439.68,2752.63,12042.5,3.85216,-126.368,56.8089,-19555.7,20447.0,2728.66,88.0304,-66.5599,166.69,-89.7814,-15177.3,-3101.11,58.6153,-24.0928,174.59,9695.82,11570.4,-160.982,101.189,110.922,83.6073,5556.27,-14733.4,-3665.22,-4.56134,-76.579,53.7079,11908.2,115.878,-1547.55,46.8648,-59.7377,67.4959
1.719,30198.1,3979.97,-6440.31,-108.886,156.633,72.6023,4460.64,2653.34,12101.0,4.08998,-129.852,57.2623,-19729.7,20319.9,2830.32,87.0247,-65.8752,161.606,-247.44,-15276.4,-2922.0,59.9687,-25.4643,175.952,10107.8,11395.4,-152.462,97.4899,107.88,80.7045,5343.4,-14724.7,-3497.06,-3.90315,-75.8896,52.9612,11962.1,322.569,-1732.95,46.8151,-59.2408,68.5818
1.72,30093.5,4079.79,-6767.18,-108.437,152.408,70.9305,4481.6,2554.05,12159.6,4.3278,-133.335,57.7156,-19903.7,20192.9,2931.98,86.0189,-65.1905,156.522,-405.099,-15375.5,-2742.89,61.3221,-26.8358,177.314,10519.7,11220.5,-143.942,93.7903,104.838,77.8016,5130.54,-14716.0,-3328.89,-3.24496,-75.2001,52.2145,12015.9,529.259,-1918.35,46.7654,-58.7439,69.6677
1.721,29871.9,4209.31,-7081.47,-107.282,147.309,69.1041,4512.92,2542.74,12237.1,4.61954,-137.011,58.1836,-19973.8,19943.5,3000.83,85.2467,-64.5704,151.352,-340.949,-15420.4,-2541.24,62.4295,-28.071,178.609,10901.3,11140.7,-220.094,87.3758,100.713,73.9954,4964.93,-14645.4,-3166.56,-2.6779,-74.0279,51.5098,12084.9,742.507,-2078.1,46.657,-57.7037,70.3862
1.722,29650.3,4338.82,-7395.76,-106.126,142.209,67.2778,4544.24,2531.43,12314.5,4.91127,-140.687,58.6516,-20043.9,19694.2,3069.67,84.4744,-63.9504,146.183,-276.8,-15465.3,-2339.59,63.537,-29.3061,179.904,11282.9,11060.8,-296.246,80.9613,96.588,70.1892,4799.33,-14574.8,-3004.22,-2.11084,-72.8556,50.8051,12154.0,955.754,-2237.86,46.5486,-56.6636,71.1047
1.723,29428.8,4468.34,-7710.06,-104.971,137.11,65.4514,4575.57,2520.11,12392.0,5.20301,-144.363,59.1196,-20114.1,19444.9,3138.51,83.7021,-63.3304,141.013,-212.65,-15510.2,-2137.93,64.6445,-30.5412,181.2,11664.5,10981.0,-372.398,74.5468,92.4628,66.3831,4633.73,-14504.2,-2841.88,-1.54377,-71.6834,50.1004,12223.1,1169.0,-2397.62,46.4401,-55.6234,71.8232
1.724,29207.2,4597.85,-8024.35,-103.816,132.011,63.6251,4606.89,2508.8,12469.5,5.49475,-148.039,59.5876,-20184.2,19195.5,3207.36,82.9299,-62.7103,135.843,-148.501,-15555.0,-1936.28,65.7519,-31.7764,182.495,12046.1,10901.2,-448.55,68.1323,88.3376,62.5769,4468.13,-14433.6,-2679.55,-0.976712,-70.5111,49.3957,12292.1,1382.25,-2557.38,46.3317,-54.5833,72.5416
1.725,29002.2,4752.86,-8290.1,-102.466,126.681,61.8456,4604.17,2466.02,12540.0,5.77772,-151.765,59.9914,-20230.8,18904.9,3360.43,81.9845,-62.0709,130.339,-93.5865,-15583.1,-1813.4,66.6601,-32.3883,183.702,12405.9,10919.7,-548.3,60.9369,83.2981,58.4724,4311.95,-14321.8,-2511.97,-0.518756,-68.9522,48.8125,12344.0,1584.51,-2657.29,46.0538,-53.7311,73.2594
1.726,28810.4,4928.25,-8517.0,-100.96,121.166,60.1037,4574.22,2398.07,12605.0,6.05367,-155.53,60.3438,-20258.6,18581.3,3580.88,80.9007,-61.416,124.566,-46.0609,-15597.6,-1753.55,67.4088,-32.5015,184.839,12748.1,11016.7,-666.928,53.1168,77.5273,54.1292,4163.29,-14176.9,-2340.19,-0.148085,-67.084,48.3266,12382.1,1777.97,-2709.31,45.6403,-53.0292,73.9766
1.727,28618.7,5103.64,-8743.91,-99.4538,115.652,58.3618,4544.26,2330.12,12670.0,6.32963,-159.295,60.6962,-20286.3,18257.7,3801.34,79.8169,-60.7612,118.794,1.46472,-15612.2,-1693.7,68.1575,-32.6148,185.975,13090.4,11113.8,-785.556,45.2967,71.7565,49.786,4014.64,-14032.1,-2168.42,0.222586,-65.2158,47.8406,12420.2,1971.44,-2761.34,45.2268,-52.3274,74.6939
1.728,28426.9,5279.04,-8970.82,-97.948,110.137,56.6199,4514.31,2262.17,12735.0,6.60558,-163.06,61.0487,-20314.1,17934.1,4021.79,78.7331,-60.1063,113.021,48.9903,-15626.8,-1633.84,68.9062,-32.7281,187.112,13432.6,11210.9,-904.185,37.4765,65.9857,45.4428,3865.99,-13887.3,-1996.64,0.593257,-63.3476,47.3547,12458.3,2164.9,-2813.36,44.8133,-51.6255,75.4111
1.729,28239.7,5462.14,-9188.14,-96.4682,104.59,54.8787,4484.48,2186.33,12799.1,6.87823,-166.86,61.3408,-20339.7,17616.4,4223.99,77.5591,-59.3817,107.167,98.4875,-15639.5,-1560.48,69.667,-32.8043,188.229,13766.4,11305.8,-1016.8,29.7421,60.0099,41.1442,3714.99,-13743.8,-1825.29,0.941385,-61.4671,46.8973,12495.7,2354.07,-2862.39,44.3296,-50.9644,76.1038
1.73,28088.5,5706.87,-9328.77,-95.1971,98.7881,53.1437,4455.63,2047.45,12855.8,7.12442,-170.935,61.1509,-20348.2,17346.0,4280.21,75.6641,-58.099,100.66,163.757,-15637.3,-1379.0,70.5242,-32.5837,189.194,14031.9,11383.9,-1081.33,22.693,52.3943,37.2024,3545.15,-13611.6,-1657.29,1.10917,-59.4887,46.6687,12527.5,2508.83,-2887.45,43.2847,-50.6291,76.6002
1.731,27937.3,5951.61,-9469.4,-93.9259,92.9859,51.4087,4426.77,1908.57,12912.5,7.37062,-175.01,60.961,-20356.7,17075.5,4336.42,73.769,-56.8164,94.1532,229.026,-15635.2,-1197.52,71.3813,-32.3632,190.159,14297.5,11461.9,-1145.86,15.644,44.7787,33.2605,3375.31,-13479.3,-1489.29,1.27696,-57.5103,46.4401,12559.3,2663.6,-2912.5,42.2397,-50.2937,77.0967
1.732,27786.1,6196.35,-9610.03,-92.6548,87.1837,49.6736,4397.92,1769.69,12969.2,7.61682,-179.086,60.7711,-20365.2,16805.1,4392.63,71.874,-55.5337,87.6462,294.295,-15633.0,-1016.04,72.2385,-32.1427,191.124,14563.0,11539.9,-1210.39,8.59495,37.1631,29.3187,3205.47,-13347.1,-1321.28,1.44475,-55.532,46.2115,12591.1,2818.37,-2937.56,41.1947,-49.9583,77.5932
1.733,27634.9,6441.09,-9750.66,-91.3836,81.3815,47.9386,4369.06,1630.81,13026.0,7.86301,-183.161,60.5812,-20373.8,16534.6,4448.84,69.979,-54.2511,81.1392,359.565,-15630.9,-834.565,73.0957,-31.9222,192.09,14828.6,11618.0,-1274.92,1.5459,29.5474,25.3768,3035.63,-13214.8,-1153.28,1.61254,-53.5536,45.9828,12623.0,2973.14,-2962.61,40.1497,-49.623,78.0896
1.734,27497.3,6642.65,-9865.74,-90.1369,75.4289,45.9486,4365.95,1485.43,13080.9,8.24417,-187.427,60.2646,-20362.1,16340.2,4497.01,68.1051,-52.8412,74.5988,386.512,-15661.9,-655.521,73.6247,-31.5309,193.117,14980.2,11644.4,-1275.16,-3.31293,21.0913,22.1773,2850.09,-13097.1,-971.672,1.89806,-51.5478,45.9447,12680.8,3150.19,-3013.13,38.1544,-49.0547,78.4192
1.735,27366.5,6822.62,-9968.04,-88.9024,69.4011,43.8312,4375.7,1336.81,13134.9,8.6928,-191.787,59.8846,-20340.5,16183.8,4541.16,66.2418,-51.3678,68.0415,394.298,-15709.6,-477.694,73.9897,-31.0542,194.176,15075.0,11645.1,-1243.27,-7.07665,12.2149,19.3489,2656.7,-12986.6,-783.258,2.24245,-49.5283,46.0017,12751.6,3338.39,-3076.37,35.684,-48.3701,78.6653
1.736,27235.7,7002.58,-10070.3,-87.6679,63.3734,41.7138,4385.45,1188.19,13188.9,9.14144,-196.148,59.5046,-20318.8,16027.3,4585.31,64.3784,-49.8944,61.4844,402.083,-15757.2,-299.867,74.3547,-30.5775,195.234,15169.7,11645.8,-1211.38,-10.8404,3.33851,16.5206,2463.31,-12876.2,-594.844,2.58684,-47.5088,46.0587,12822.4,3526.59,-3139.6,33.2136,-47.6854,78.9115
1.737,27105.0,7182.55,-10172.6,-86.4334,57.3456,39.5964,4395.2,1039.57,13242.9,9.59008,-200.509,59.1246,-20297.2,15870.9,4629.46,62.5151,-48.421,54.9271,409.869,-15804.9,-122.04,74.7197,-30.1008,196.293,15264.5,11646.5,-1179.49,-14.6041,-5.5379,13.6922,2269.92,-12765.8,-406.43,2.93123,-45.4893,46.1158,12893.2,3714.79,-3202.85,30.7432,-47.0007,79.1576
1.738,26985.8,7335.56,-10266.1,-85.152,51.3459,37.3987,4405.68,889.681,13291.7,10.0591,-204.924,58.658,-20275.2,15720.0,4676.71,60.6844,-46.9606,48.33,389.765,-15852.5,47.8155,74.9912,-29.576,197.227,15325.6,11631.7,-1131.65,-17.4224,-14.3247,11.1834,2078.32,-12665.4,-217.722,3.27142,-43.5493,46.1688,12953.3,3887.4,-3284.94,28.2912,-46.1523,79.2867
1.739,26907.5,7394.21,-10328.5,-83.7061,45.4445,34.9195,4418.73,735.378,13322.1,10.5992,-209.529,57.8884,-20252.2,15588.5,4734.85,58.9678,-45.5457,41.5932,272.049,-15899.9,189.769,74.935,-28.8827,197.723,15269.1,11562.5,-1027.99,-16.9319,-22.798,9.7931,1893.0,-12600.4,-27.9861,3.59692,-41.8877,46.2077,12976.4,4005.45,-3433.02,25.9032,-44.7309,79.0059
1.74,26829.1,7452.86,-10391.0,-82.2603,39.5431,32.4404,4431.77,581.075,13352.5,11.1394,-214.135,57.1187,-20229.2,15457.0,4792.98,57.2512,-44.1308,34.8564,154.333,-15947.3,331.723,74.8788,-28.1894,198.219,15212.6,11493.3,-924.325,-16.4415,-31.2713,8.40277,1707.68,-12535.3,161.75,3.92242,-40.2262,46.2466,12999.5,4123.5,-3581.11,23.5152,-43.3096,78.7252
1.741,26750.8,7511.5,-10453.5,-80.8145,33.6417,29.9612,4444.82,426.772,13382.9,11.6795,-218.741,56.349,-20206.1,15325.6,4851.12,55.5346,-42.7159,28.1196,36.6166,-15994.6,473.676,74.8226,-27.4961,198.716,15156.1,11424.1,-820.664,-15.951,-39.7447,7.01245,1522.36,-12470.3,351.487,4.24793,-38.5647,46.2855,13022.6,4241.54,-3729.19,21.1273,-41.8882,78.4445
1.742,26672.4,7570.15,-10515.9,-79.3686,27.7403,27.4821,4457.86,272.468,13413.3,12.2197,-223.346,55.5793,-20183.1,15194.1,4909.26,53.818,-41.301,21.3828,-81.0997,-16042.0,615.63,74.7664,-26.8028,199.212,15099.6,11354.9,-717.003,-15.4605,-48.218,5.62212,1337.04,-12405.2,541.223,4.57343,-36.9031,46.3244,13045.7,4359.59,-3877.28,18.7393,-40.4668,78.1637
1.743,26633.5,7558.27,-10520.1,-77.8641,22.2539,24.9746,4466.58,198.569,13431.8,12.7161,-228.033,54.5847,-20176.4,15083.8,4939.7,52.0839,-39.9346,14.6877,-159.586,-16077.4,793.675,74.7613,-26.4805,199.714,14928.4,11273.0,-559.521,-12.3194,-54.5383,5.18073,1156.82,-12350.7,704.866,4.821,-35.3662,46.3072,13090.9,4416.07,-3987.33,16.6797,-38.8798,77.3322
1.744,26605.8,7526.23,-10507.7,-76.3429,16.886,22.459,4474.05,147.641,13446.9,13.2,-232.743,53.5258,-20174.2,14979.6,4962.24,50.3448,-38.5821,8.00468,-226.864,-16109.4,982.033,74.7709,-26.2643,200.216,14724.5,11187.5,-386.662,-8.42101,-60.2435,5.01045,978.053,-12299.2,861.053,5.04631,-33.8648,46.274,13142.4,4454.96,-4086.51,14.7139,-37.2454,76.3433
1.745,26578.2,7494.2,-10495.2,-74.8216,11.5181,19.9433,4481.53,96.7141,13462.0,13.684,-237.453,52.4669,-20172.1,14875.5,4984.77,48.6056,-37.2297,1.32161,-294.142,-16141.3,1170.39,74.7804,-26.048,200.719,14520.5,11102.0,-213.803,-4.52263,-65.9487,4.84018,799.29,-12247.7,1017.24,5.27162,-32.3635,46.2408,13193.9,4493.86,-4185.69,12.748,-35.6111,75.3544
1.746,26550.5,7462.17,-10482.8,-73.3003,6.15022,17.4277,4489.0,45.7868,13477.1,14.1679,-242.163,51.408,-20169.9,14771.3,5007.31,46.8665,-35.8772,-5.36145,-361.42,-16173.3,1358.75,74.79,-25.8318,201.222,14316.5,11016.5,-40.9435,-0.624242,-71.6538,4.6699,620.527,-12196.2,1173.43,5.49693,-30.8622,46.2076,13245.4,4532.75,-4284.87,10.7822,-33.9767,74.3654
1.747,26525.7,7420.05,-10449.0,-71.8514,0.98699,14.8953,4477.23,27.1945,13479.1,14.6431,-246.89,50.4059,-20155.4,14672.5,5008.38,45.1511,-34.579,-12.0257,-396.801,-16196.4,1482.8,74.6159,-25.6634,201.664,14087.4,10933.2,137.787,3.75738,-75.9727,4.60268,447.154,-12161.6,1313.19,5.64135,-29.3893,46.1749,13313.4,4572.42,-4379.38,8.96995,-32.3235,73.2361
1.748,26506.5,7357.76,-10372.6,-70.5471,-3.76694,12.3292,4426.96,73.2721,13455.1,15.1008,-251.649,49.5173,-20116.2,14584.7,4966.55,43.483,-33.3894,-18.6523,-368.388,-16201.9,1478.26,74.0746,-25.5908,201.986,13807.7,10854.3,328.261,9.10546,-77.5191,4.74156,284.563,-12161.0,1420.11,5.624,-27.9734,46.143,13414.2,4613.63,-4464.54,7.46493,-30.6327,71.8258
1.749,26487.3,7295.48,-10296.2,-69.2428,-8.52087,9.76305,4376.69,119.35,13431.0,15.5585,-256.409,48.6287,-20076.9,14496.9,4924.72,41.8149,-32.1998,-25.2789,-339.976,-16207.4,1473.71,73.5333,-25.5183,202.307,13528.0,10775.4,518.735,14.4535,-79.0655,4.88044,121.972,-12160.4,1527.03,5.60665,-26.5574,46.1111,13515.1,4654.85,-4549.69,5.9599,-28.9418,70.4156
1.75,26468.1,7233.2,-10219.8,-67.9385,-13.2748,7.19693,4326.42,165.427,13406.9,16.0163,-261.169,47.7402,-20037.7,14409.1,4882.89,40.1468,-31.0103,-31.9055,-311.563,-16212.8,1469.16,72.992,-25.4457,202.628,13248.4,10696.5,709.208,19.8016,-80.6119,5.01932,-40.6199,-12159.8,1633.95,5.5893,-25.1415,46.0793,13616.0,4696.07,-4634.85,4.45488,-27.2509,69.0053
1.751,26449.0,7170.91,-10143.4,-66.6343,-18.0287,4.63082,4276.15,211.505,13382.8,16.474,-265.929,46.8516,-19998.4,14321.3,4841.06,38.4787,-29.8207,-38.5321,-283.15,-16218.3,1464.62,72.4507,-25.3731,202.949,12968.7,10617.6,899.682,25.1497,-82.1583,5.15821,-203.211,-12159.2,1740.87,5.57195,-23.7256,46.0474,13716.9,4737.29,-4720.01,2.94986,-25.56,67.595
1.752,26344.7,7096.02,-9993.34,-65.5585,-22.4827,2.23091,4222.88,241.359,13335.5,16.8396,-270.72,46.0038,-19872.7,14259.0,4810.58,37.0778,-28.8339,-45.0286,-255.885,-16185.2,1420.51,72.1021,-25.2321,203.228,12692.4,10539.7,1030.6,29.997,-80.214,4.92422,-306.259,-12164.6,1763.87,5.60424,-22.4434,45.6734,13790.0,4676.76,-4710.92,2.06617,-24.2857,65.9458
1.753,26229.8,7019.55,-9834.05,-64.5114,-26.8992,-0.148213,4169.24,269.184,13285.2,17.1936,-275.516,45.1611,-19736.2,14200.0,4781.52,35.7103,-27.8724,-51.5089,-228.764,-16147.3,1371.46,71.7775,-25.0826,203.502,12416.5,10461.9,1154.07,34.7817,-77.8333,4.64363,-401.863,-12170.8,1776.37,5.64273,-21.178,45.2566,13859.7,4603.51,-4690.06,1.26016,-23.0635,64.2668
1.754,26114.8,6943.09,-9674.75,-63.4643,-31.3157,-2.52734,4115.6,297.01,13234.9,17.5476,-280.311,44.3185,-19599.6,14140.9,4752.47,34.3428,-26.911,-57.9891,-201.643,-16109.3,1322.41,71.4529,-24.9331,203.776,12140.7,10384.1,1277.54,39.5664,-75.4527,4.36303,-497.467,-12176.9,1788.88,5.68122,-19.9126,44.8399,13929.3,4530.27,-4669.19,0.454148,-21.8413,62.5878
1.755,25999.9,6866.62,-9515.46,-62.4171,-35.7322,-4.90646,4061.97,324.835,13184.6,17.9017,-285.106,43.4758,-19463.1,14081.9,4723.41,32.9753,-25.9495,-64.4694,-174.522,-16071.4,1273.35,71.1283,-24.7836,204.049,11864.8,10306.4,1401.01,44.3511,-73.072,4.08244,-593.071,-12183.1,1801.39,5.71971,-18.6471,44.4231,13999.0,4457.02,-4648.33,-0.351865,-20.6191,60.9087
1.756,25833.5,6818.57,-9338.76,-61.6271,-40.0337,-7.24201,4016.27,371.912,13127.3,18.1993,-289.851,42.7037,-19317.2,14046.0,4692.0,31.6098,-25.3207,-70.7631,-102.673,-16018.4,1242.02,71.0201,-24.8003,204.271,11599.8,10221.6,1448.29,48.3214,-69.2648,3.39408,-659.071,-12202.7,1783.49,5.9735,-17.4549,43.8844,14080.1,4364.21,-4601.3,-1.11739,-19.5852,58.8941
1.757,25602.7,6806.05,-9140.31,-61.1583,-44.1916,-9.52308,3980.51,443.053,13061.1,18.4264,-294.533,42.02,-19159.5,14039.2,4657.64,30.2468,-25.1078,-76.8236,25.0857,-15946.5,1232.85,71.1824,-25.0246,204.429,11348.5,10128.2,1400.33,51.2738,-63.6746,2.196,-688.064,-12239.3,1727.58,6.49641,-16.3542,43.1933,14175.5,4246.96,-4521.59,-1.83232,-18.7867,56.4599
1.758,25371.8,6793.52,-8941.86,-60.6896,-48.3494,-11.8042,3944.75,514.194,12995.0,18.6534,-299.215,41.3363,-19001.8,14032.4,4623.27,28.8838,-24.8949,-82.8842,152.844,-15874.6,1223.67,71.3446,-25.2489,204.587,11097.2,10034.7,1352.38,54.2261,-58.0844,0.997921,-717.057,-12275.9,1671.67,7.01932,-15.2534,42.5021,14271.0,4129.7,-4441.88,-2.54724,-17.9881,54.0258
1.759,25141.0,6781.0,-8743.4,-60.2209,-52.5072,-14.0852,3908.99,585.335,12928.9,18.8805,-303.897,40.6526,-18844.1,14025.5,4588.91,27.5207,-24.682,-88.9447,280.603,-15802.7,1214.49,71.5068,-25.4733,204.744,10845.9,9941.31,1304.42,57.1784,-52.4941,-0.200156,-746.05,-12312.5,1615.76,7.54223,-14.1527,41.811,14366.4,4012.45,-4362.16,-3.26217,-17.1896,51.5916
1.76,24910.2,6768.47,-8544.95,-59.7522,-56.6651,-16.3663,3873.23,656.476,12862.8,19.1076,-308.579,39.9689,-18686.4,14018.7,4554.55,26.1577,-24.469,-95.0053,408.362,-15730.7,1205.31,71.6691,-25.6976,204.902,10594.6,9847.87,1256.47,60.1308,-46.9039,-1.39823,-775.044,-12349.1,1559.85,8.06514,-13.052,41.1199,14461.9,3895.19,-4282.45,-3.97709,-16.3911,49.1574
1.761,24650.4,6701.44,-8309.49,-59.7954,-60.5882,-18.6925,3874.14,773.294,12789.1,19.4216,-313.539,39.8551,-18431.5,14006.7,4489.93,24.8547,-24.3073,-100.498,436.786,-15666.9,991.126,71.1519,-25.8061,205.306,10385.6,9738.64,1045.02,60.9093,-38.957,-3.09473,-725.103,-12358.0,1484.43,8.87962,-12.0066,40.3631,14491.9,3735.4,-4217.91,-4.98958,-16.4336,46.5564
1.762,24390.6,6634.41,-8074.04,-59.8387,-64.5114,-21.0187,3875.06,890.112,12715.5,19.7355,-318.498,39.7413,-18176.7,13994.6,4425.31,23.5517,-24.1456,-105.992,465.21,-15603.0,776.943,70.6348,-25.9146,205.71,10176.7,9629.41,833.566,61.6878,-31.0101,-4.79123,-675.162,-12367.0,1409.01,9.6941,-10.9612,39.6063,14522.0,3575.62,-4153.38,-6.00207,-16.4761,43.9554
1.763,24130.8,6567.38,-7838.58,-59.882,-68.4345,-23.345,3875.98,1006.93,12641.9,20.0494,-323.457,39.6275,-17921.8,13982.5,4360.69,22.2487,-23.984,-111.485,493.634,-15539.1,562.759,70.1176,-26.0231,206.113,9967.77,9520.17,622.116,62.4663,-23.0632,-6.48773,-625.221,-12375.9,1333.6,10.5086,-9.91584,38.8495,14552.0,3415.83,-4088.84,-7.01455,-16.5186,41.3544
1.764,23871.1,6500.35,-7603.13,-59.9252,-72.3577,-25.6712,3876.89,1123.75,12568.2,20.3633,-328.416,39.5137,-17666.9,13970.4,4296.06,20.9458,-23.8223,-116.978,522.059,-15475.2,348.576,69.6005,-26.1316,206.517,9758.84,9410.94,410.666,63.2449,-15.1162,-8.18423,-575.28,-12384.8,1258.18,11.3231,-8.87046,38.0927,14582.0,3256.05,-4024.31,-8.02704,-16.5611,38.7534
1.765,23600.5,6408.1,-7325.86,-60.0939,-76.2034,-28.0598,3877.42,1255.76,12521.4,20.7518,-333.425,39.464,-17387.6,13959.2,4252.65,19.7903,-23.8352,-122.137,508.023,-15405.7,158.603,69.1415,-26.7579,206.909,9556.44,9300.01,157.729,62.581,-6.54792,-9.99864,-497.617,-12381.2,1171.63,12.2623,-8.06527,37.1809,14569.6,3109.24,-3957.57,-8.66064,-17.0229,36.1804
1.766,23321.4,6295.67,-7015.16,-60.3628,-79.9873,-30.4984,3877.63,1399.93,12496.1,21.1999,-338.474,39.4654,-17088.7,13948.6,4226.21,18.753,-23.9879,-127.029,460.021,-15331.8,-12.0001,68.7289,-27.7986,207.292,9359.28,9187.72,-128.397,60.7633,2.51753,-11.9074,-397.776,-12367.6,1076.19,13.3012,-7.45222,36.145,14523.3,2972.8,-3889.07,-8.99113,-17.8201,33.6299
1.767,23042.2,6183.25,-6704.45,-60.6318,-83.7711,-32.937,3877.84,1544.11,12470.8,21.648,-343.523,39.4668,-16789.8,13938.1,4199.77,17.7156,-24.1406,-131.921,412.018,-15257.9,-182.604,68.3164,-28.8393,207.675,9162.12,9075.43,-414.523,58.9456,11.583,-13.8161,-297.934,-12353.9,980.746,14.3402,-6.83918,35.1092,14476.9,2836.37,-3820.56,-9.32161,-18.6173,31.0794
1.768,22763.0,6070.82,-6393.74,-60.9008,-87.5549,-35.3756,3878.05,1688.28,12445.4,22.0961,-348.571,39.4682,-16490.9,13927.5,4173.32,16.6782,-24.2933,-136.813,364.015,-15183.9,-353.207,67.9039,-29.88,208.058,8964.95,8963.15,-700.649,57.1279,20.6484,-15.7248,-198.093,-12340.2,885.302,15.3792,-6.22614,34.0733,14430.5,2699.94,-3752.06,-9.6521,-19.4145,28.5289
1.769,22490.3,5958.36,-6078.84,-61.1821,-91.2798,-37.7829,3866.89,1837.32,12422.1,22.5996,-353.635,39.5317,-16195.1,13914.3,4146.99,15.6641,-24.4532,-141.63,336.522,-15114.9,-516.467,67.5743,-30.9946,208.442,8763.57,8852.13,-973.0,55.0987,29.6265,-17.6806,-86.7723,-12321.3,792.162,16.3716,-5.69952,33.037,14382.4,2557.74,-3689.06,-9.96157,-20.2088,26.0351
1.77,22269.2,5845.65,-5730.39,-61.5622,-94.5334,-39.94,3764.77,2025.3,12415.1,23.5467,-358.82,40.0919,-15924.3,13880.3,4121.49,14.836,-24.6699,-145.851,473.104,-15085.5,-620.978,67.9087,-32.7004,208.837,8528.47,8751.27,-1135.16,51.3769,37.9052,-20.0125,116.383,-12259.9,717.453,16.9911,-5.86432,31.9968,14319.8,2369.42,-3670.03,-10.1029,-20.9794,23.9957
1.771,22048.1,5732.94,-5381.95,-61.9423,-97.787,-42.0971,3662.65,2213.28,12408.1,24.4938,-364.005,40.6522,-15653.5,13846.3,4095.98,14.0079,-24.8867,-150.072,609.686,-15056.0,-725.489,68.243,-34.4063,209.233,8293.38,8650.4,-1297.31,47.6552,46.184,-22.3443,319.539,-12198.6,642.744,17.6106,-6.02912,30.9566,14257.2,2181.09,-3651.01,-10.2442,-21.7501,21.9563
1.772,21827.0,5620.23,-5033.5,-62.3225,-101.041,-44.2542,3560.53,2401.27,12401.1,25.4408,-369.19,41.2125,-15382.7,13812.3,4070.48,13.1798,-25.1034,-154.293,746.268,-15026.6,-830.0,68.5773,-36.1121,209.629,8058.28,8549.54,-1459.47,43.9334,54.4628,-24.6762,522.694,-12137.3,568.035,18.2302,-6.19393,29.9165,14194.6,1992.77,-3631.99,-10.3855,-22.5207,19.9169
1.773,21605.8,5507.52,-4685.05,-62.7026,-104.294,-46.4113,3458.41,2589.25,12394.1,26.3879,-374.375,41.7727,-15111.9,13778.3,4044.98,12.3517,-25.3201,-158.514,882.849,-14997.2,-934.511,68.9116,-37.8179,210.024,7823.18,8448.68,-1621.63,40.2117,62.7415,-27.008,725.85,-12075.9,493.327,18.8497,-6.35873,28.8763,14132.0,1804.44,-3612.97,-10.5268,-23.2914,17.8775
1.774,21383.6,5363.01,-4309.86,-63.0829,-106.906,-48.6452,3299.56,2683.91,12436.0,26.8981,-379.746,42.4067,-14831.1,13710.6,4029.38,11.7431,-25.674,-162.328,1098.16,-15034.4,-1023.73,69.0064,-39.5361,210.335,7549.31,8306.95,-1691.86,35.6561,69.8496,-29.5656,944.404,-12012.7,417.33,19.1627,-6.99217,27.8751,14019.0,1630.86,-3556.33,-10.6664,-24.0156,16.0038
1.775,21160.7,5202.6,-3921.3,-63.4632,-109.198,-50.9176,3112.34,2731.91,12502.3,27.1898,-385.21,43.0775,-14545.4,13626.1,4018.72,11.2442,-26.0965,-165.939,1352.83,-15104.9,-1105.3,68.9815,-41.2604,210.604,7256.07,8144.78,-1716.12,30.6835,76.3725,-32.236,1170.66,-11948.4,340.688,19.3224,-7.85992,26.8934,13880.8,1464.64,-3480.87,-10.8052,-24.7166,14.2129
1.776,20937.9,5042.19,-3532.74,-63.8436,-111.489,-53.1899,2925.12,2779.92,12568.6,27.4815,-390.674,43.7483,-14259.7,13541.6,4008.06,10.7453,-26.519,-169.55,1607.5,-15175.4,-1186.87,68.9566,-42.9848,210.873,6962.83,7982.61,-1740.39,25.711,82.8953,-34.9064,1396.91,-11884.2,264.047,19.482,-8.72768,25.9118,13742.5,1298.42,-3405.42,-10.944,-25.4177,12.422
1.777,20715.1,4881.78,-3144.17,-64.224,-113.781,-55.4622,2737.9,2827.92,12634.9,27.7732,-396.138,44.4191,-13973.9,13457.0,3997.4,10.2464,-26.9414,-173.161,1862.17,-15246.0,-1268.44,68.9317,-44.7091,211.143,6669.58,7820.44,-1764.65,20.7385,89.4181,-37.5768,1623.16,-11820.0,187.406,19.6417,-9.59544,24.9301,13604.3,1132.2,-3329.97,-11.0828,-26.1187,10.6311
1.778,20488.3,4720.06,-2753.27,-64.5615,-115.919,-57.6641,2575.81,2892.56,12671.1,28.2292,-401.584,45.158,-13689.4,13380.1,3987.85,9.7474,-27.3674,-176.608,2065.41,-15282.6,-1411.88,68.7229,-46.1501,211.475,6358.47,7644.4,-1766.14,15.6633,95.5456,-40.438,1844.46,-11758.0,109.732,19.7279,-10.6318,23.9189,13459.8,974.905,-3254.7,-11.1152,-26.8856,8.88793
1.779,20247.7,4553.73,-2354.17,-64.749,-117.524,-59.6197,2501.67,3015.45,12602.0,29.26,-406.966,46.1353,-13409.1,13330.2,3982.21,9.24816,-27.8054,-179.48,2088.69,-15200.5,-1771.86,67.8703,-46.5995,212.028,5984.83,7419.81,-1687.89,10.2288,100.289,-43.9667,2048.4,-11703.9,28.4434,19.5567,-12.2585,22.8044,13293.4,848.871,-3180.05,-10.7753,-27.8831,7.31206
1.78,20007.1,4387.41,-1955.07,-64.9364,-119.128,-61.5753,2427.52,3138.34,12533.0,30.2909,-412.349,47.1126,-13128.8,13280.2,3976.56,8.74892,-28.2434,-182.353,2111.96,-15118.4,-2131.84,67.0177,-47.0489,212.581,5611.19,7195.22,-1609.64,4.79437,105.033,-47.4955,2252.34,-11649.7,-52.845,19.3854,-13.8851,21.6898,13127.0,722.837,-3105.39,-10.4355,-28.8806,5.73619
1.781,19766.6,4221.08,-1555.97,-65.1239,-120.732,-63.5308,2353.38,3261.22,12463.9,31.3217,-417.731,48.0899,-12848.5,13230.2,3970.92,8.24968,-28.6815,-185.225,2135.23,-15036.3,-2491.82,66.1651,-47.4983,213.134,5237.55,6970.62,-1531.4,-0.640095,109.777,-51.0243,2456.28,-11595.5,-134.133,19.2142,-15.5117,20.5753,12960.6,596.803,-3030.74,-10.0956,-29.8781,4.16032
1.782,19526.0,4054.75,-1156.87,-65.3113,-122.336,-65.4864,2279.23,3384.11,12394.8,32.3526,-423.114,49.0671,-12568.2,13180.2,3965.27,7.75044,-29.1195,-188.097,2158.5,-14954.1,-2851.79,65.3125,-47.9477,213.688,4863.91,6746.03,-1453.15,-6.07456,114.521,-54.5531,2660.22,-11541.3,-215.422,19.043,-17.1384,19.4607,12794.2,470.769,-2956.09,-9.75575,-30.8756,2.58445
1.783,19197.4,3953.87,-777.302,-64.95,-123.561,-67.2795,2276.19,3412.61,12325.6,34.0813,-428.617,50.1708,-12258.6,13106.5,4017.8,7.23069,-29.5969,-190.007,2289.1,-14996.1,-2916.26,64.6366,-49.2932,214.323,4425.14,6506.09,-1318.1,-10.6946,117.745,-59.2776,2867.97,-11505.5,-285.552,18.7695,-19.731,18.1523,12660.6,373.395,-2882.15,-9.76863,-31.7153,1.05441
1.784,18843.6,3871.68,-403.312,-64.4319,-124.677,-69.0262,2293.46,3414.14,12256.2,36.0095,-434.154,51.3106,-11940.5,13026.2,4086.95,6.70508,-30.0855,-191.643,2450.36,-15073.5,-2896.29,64.0112,-50.8948,214.981,3967.76,6261.77,-1166.83,-15.082,120.535,-64.3438,3076.8,-11475.0,-352.495,18.4667,-22.5996,16.7885,12536.3,284.209,-2808.41,-9.88228,-32.51,-0.462537
1.785,18489.8,3789.5,-29.3206,-63.9137,-125.793,-70.7729,2310.74,3415.67,12186.9,37.9376,-439.691,52.4503,-11622.5,12945.8,4156.09,6.17948,-30.5742,-193.278,2611.62,-15150.9,-2876.32,63.3859,-52.4963,215.64,3510.38,6017.45,-1015.55,-19.4694,123.324,-69.41,3285.64,-11444.5,-419.438,18.164,-25.4683,15.4247,12412.1,195.024,-2734.67,-9.99593,-33.3047,-1.97948
1.786,18136.0,3707.31,344.67,-63.3956,-126.91,-72.5196,2328.01,3417.21,12117.6,39.8658,-445.229,53.5901,-11304.5,12865.5,4225.24,5.65387,-31.0628,-194.914,2772.89,-15228.2,-2856.35,62.7605,-54.0979,216.298,3053.0,5773.13,-864.276,-23.8567,126.114,-74.4761,3494.48,-11413.9,-486.38,17.8612,-28.3369,14.0609,12287.8,105.838,-2660.93,-10.1096,-34.0994,-3.49643
1.787,17751.4,3597.07,719.24,-61.7382,-127.924,-74.3586,2334.57,3393.55,12080.2,41.9093,-450.925,54.6641,-10952.5,12788.0,4279.02,5.0021,-31.5553,-196.304,2922.72,-15293.6,-2862.82,62.0986,-55.8978,216.957,2595.04,5533.0,-751.837,-27.2661,128.114,-79.7822,3701.24,-11375.8,-552.377,17.658,-31.2507,12.7319,12160.7,26.5698,-2608.07,-10.598,-34.8431,-5.01999
1.788,17305.1,3430.71,1094.97,-57.8024,-128.736,-76.3821,2319.69,3319.51,12106.7,44.1836,-456.937,55.6064,-10532.4,12716.3,4302.08,4.09802,-32.0554,-197.204,3049.7,-15335.0,-2922.17,61.3637,-58.0946,217.619,2135.92,5301.27,-717.07,-28.7197,128.534,-85.5683,3903.87,-11322.4,-616.482,17.6539,-34.2548,11.4728,12028.2,-32.8638,-2596.96,-11.8359,-35.4848,-6.55677
1.789,16858.8,3264.35,1470.7,-53.8665,-129.548,-78.4057,2304.8,3245.48,12133.3,46.4578,-462.95,56.5487,-10112.4,12644.6,4325.14,3.19393,-32.5555,-198.103,3176.68,-15376.3,-2981.52,60.6287,-60.2913,218.28,1676.81,5069.54,-682.304,-30.1733,128.954,-91.3543,4106.5,-11269.1,-680.587,17.6497,-37.2589,10.2136,11895.7,-92.2975,-2585.86,-13.0739,-36.1265,-8.09355
1.79,16412.6,3097.99,1846.42,-49.9306,-130.36,-80.4293,2289.92,3171.44,12159.8,48.732,-468.962,57.491,-9692.3,12572.9,4348.2,2.28984,-33.0556,-199.003,3303.66,-15417.7,-3040.86,59.8938,-62.488,218.941,1217.69,4837.81,-647.538,-31.6268,129.374,-97.1403,4309.12,-11215.7,-744.691,17.6456,-40.263,8.95444,11763.2,-151.731,-2574.75,-14.3118,-36.7683,-9.63033
1.791,15966.3,2931.63,2222.15,-45.9948,-131.172,-82.4529,2275.04,3097.41,12186.3,51.0062,-474.975,58.4333,-9272.25,12501.2,4371.25,1.38576,-33.5557,-199.903,3430.64,-15459.0,-3100.21,59.1589,-64.6847,219.603,758.574,4606.08,-612.771,-33.0804,129.794,-102.926,4511.75,-11162.4,-808.796,17.6414,-43.2671,7.69528,11630.7,-211.165,-2563.64,-15.5498,-37.41,-11.1671
1.792,15394.5,2028.75,2495.3,-33.0691,-131.474,-84.336,2226.07,3111.59,12238.5,53.4521,-481.339,59.3078,-8747.21,12409.7,4338.75,-0.469014,-33.9287,-200.274,3564.48,-15512.0,-3239.05,58.8785,-66.8526,220.316,285.314,4348.85,-779.254,-30.4867,128.019,-108.824,4726.88,-11124.7,-861.93,18.2002,-46.101,6.14392,11486.6,-247.693,-2613.03,-16.5993,-38.0257,-12.4379
1.793,14807.0,1033.81,2755.63,-19.0197,-131.712,-86.2017,2172.84,3136.79,12293.8,55.9195,-487.747,60.1739,-8209.04,12315.8,4299.3,-2.44262,-34.2858,-200.579,3699.18,-15566.4,-3387.82,58.655,-69.0168,221.036,-189.713,4088.44,-970.894,-27.3872,125.969,-114.735,4943.58,-11088.9,-913.692,18.8294,-48.9136,4.55605,11341.1,-281.357,-2669.97,-17.6252,-38.6381,-13.6754
1.794,14219.4,38.87,3015.96,-4.97029,-131.95,-88.0673,2119.6,3162.0,12349.2,58.3868,-494.156,61.0399,-7670.88,12221.9,4259.86,-4.41622,-34.6429,-200.885,3833.87,-15620.7,-3536.59,58.4315,-71.1811,221.756,-664.74,3828.03,-1162.53,-24.2877,123.919,-120.646,5160.28,-11053.2,-965.454,19.4585,-51.7262,2.96817,11195.6,-315.022,-2726.91,-18.6512,-39.2505,-14.9129
1.795,13631.9,-956.071,3276.29,9.07911,-132.188,-89.9329,2066.37,3187.2,12404.5,60.8542,-500.564,61.906,-7132.72,12127.9,4220.41,-6.38983,-35.0,-201.19,3968.57,-15675.1,-3685.36,58.208,-73.3453,222.476,-1139.77,3567.62,-1354.17,-21.1882,121.869,-126.558,5376.98,-11017.4,-1017.22,20.0877,-54.5389,1.38029,11050.1,-348.687,-2783.86,-19.6772,-39.863,-16.1504
1.796,13135.7,-2273.31,4035.32,26.4168,-133.468,-92.505,1980.93,3231.88,12473.8,63.5656,-507.304,62.8499,-6274.47,12080.6,4403.02,-11.4869,-33.7465,-201.104,4132.42,-15740.7,-3785.79,57.7198,-76.007,223.268,-1642.68,3327.71,-1627.36,-16.7634,118.86,-132.09,5599.67,-10986.8,-1085.95,20.7345,-56.8934,-0.216948,10919.7,-404.058,-2886.49,-20.2208,-39.8692,-17.2102
1.797,12753.7,-3993.41,5417.74,47.8649,-136.051,-95.9601,1855.21,3300.91,12560.6,66.5821,-514.459,63.8911,-5016.13,12091.5,4863.2,-20.4885,-30.4797,-200.529,4332.72,-15820.4,-3825.79,56.9006,-79.2907,224.15,-2180.44,3113.43,-2002.48,-10.682,114.652,-137.149,5829.85,-10962.7,-1175.91,21.4035,-58.6753,-1.82588,10808.3,-486.562,-3046.22,-20.1614,-39.1175,-18.0479
1.798,12371.7,-5713.51,6800.16,69.313,-138.634,-99.4153,1729.49,3369.94,12647.4,69.5986,-521.613,64.9323,-3757.79,12102.4,5323.38,-29.49,-27.213,-199.954,4533.02,-15900.0,-3865.79,56.0815,-82.5743,225.033,-2718.21,2899.15,-2377.6,-4.60055,110.443,-142.208,6060.03,-10938.5,-1265.86,22.0725,-60.4572,-3.43482,10696.9,-569.066,-3205.95,-20.1019,-38.3659,-18.8856
1.799,11989.6,-7433.62,8182.58,90.7611,-141.217,-102.87,1603.77,3438.97,12734.1,72.6151,-528.768,65.9734,-2499.45,12113.3,5783.57,-38.4915,-23.9462,-199.378,4733.32,-15979.6,-3905.78,55.2623,-85.8579,225.915,-3255.97,2684.87,-2752.72,1.48086,106.235,-147.268,6290.22,-10914.3,-1355.82,22.7415,-62.2391,-5.04375,10585.5,-651.57,-3365.69,-20.0425,-37.6142,-19.7233
1.8,11607.6,-9153.72,9565.0,112.209,-143.8,-106.326,1478.05,3508.0,12820.9,75.6316,-535.923,67.0146,-1241.11,12124.2,6243.75,-47.493,-20.6794,-198.803,4933.62,-16059.2,-3945.78,54.4431,-89.1415,226.798,-3793.73,2470.59,-3127.84,7.56228,102.027,-152.327,6520.4,-10890.2,-1445.77,23.4105,-64.021,-6.65268,10474.1,-734.075,-3525.42,-19.9831,-36.8626,-20.5609
1.801,9711.15,-10547.0,13048.8,140.392,-154.549,-118.915,1357.12,3481.75,12916.9,79.7162,-543.758,68.2187,3030.1,12618.4,6617.73,-57.5722,-7.54307,-194.901,5101.21,-16122.8,-3994.21,53.5829,-92.3913,227.629,-4332.46,2358.74,-3346.88,13.654,94.6278,-156.308,6738.75,-10893.1,-1626.82,23.6523,-64.3244,-8.26183,10414.2,-817.535,-3716.03,-16.3228,-33.4356,-20.4328
1.802,7814.67,-11940.2,16532.5,168.575,-165.299,-131.504,1236.18,3455.5,13012.9,83.8007,-551.593,69.4227,7301.32,13112.7,6991.72,-67.6514,5.59328,-190.998,5268.81,-16186.4,-4042.64,52.7226,-95.6411,228.459,-4871.19,2246.89,-3565.92,19.7457,87.229,-160.29,6957.1,-10896.0,-1807.87,23.8941,-64.6278,-9.87097,10354.2,-900.995,-3906.63,-12.6625,-30.0087,-20.3046
1.803,5918.19,-13333.5,20016.3,196.759,-176.049,-144.094,1115.25,3429.25,13108.8,87.8853,-559.428,70.6268,11572.5,13606.9,7365.7,-77.7306,18.7296,-187.096,5436.41,-16250.1,-4091.07,51.8623,-98.8909,229.29,-5409.92,2135.05,-3784.96,25.8373,79.8302,-164.271,7175.45,-10898.9,-1988.91,24.1359,-64.9311,-11.4801,10294.3,-984.455,-4097.24,-9.00217,-26.5818,-20.1764
1.804,4021.72,-14726.7,23500.0,224.942,-186.798,-156.683,994.312,3403.0,13204.8,91.9698,-567.263,71.8309,15843.7,14101.1,7739.68,-87.8097,31.866,-183.193,5604.0,-16313.7,-4139.5,51.0021,-102.141,230.12,-5948.64,2023.2,-4004.0,31.929,72.4314,-168.252,7393.8,-10901.8,-2169.96,24.3777,-65.2345,-13.0893,10234.4,-1067.92,-4287.85,-5.34185,-23.1549,-20.0482
1.805,-580.373,-16315.9,29447.1,246.409,-211.656,-175.394,894.517,3313.01,13335.6,96.6928,-575.52,72.8073,22078.9,14637.2,4717.77,-87.4641,56.0873,-173.806,5781.27,-16409.6,-4138.11,50.1205,-106.055,230.877,-6338.93,2122.68,-4312.88,35.28,65.2747,-170.739,7610.75,-10908.9,-2358.39,24.0288,-64.6936,-14.8385,10351.2,-1134.0,-4013.76,0.555822,-17.854,-18.1139
1.806,-7346.96,-18061.7,37364.7,262.504,-247.8,-199.001,811.633,3172.02,13494.2,101.926,-584.114,73.6017,29885.2,15207.0,-1020.86,-78.7785,89.1765,-160.03,5966.27,-16531.3,-4096.85,49.222,-110.502,231.576,-6610.46,2391.23,-4693.64,36.4384,58.3116,-172.031,7826.57,-10919.4,-2552.73,23.2074,-63.4773,-16.6998,10609.5,-1186.19,-3367.92,8.24337,-11.0541,-14.7348
1.807,-14113.5,-19807.6,45282.4,278.6,-283.944,-222.609,728.75,3031.04,13652.9,107.16,-592.708,74.3961,37691.6,15776.7,-6759.49,-70.093,122.266,-146.254,6151.26,-16653.0,-4055.6,48.3235,-114.949,232.274,-6881.99,2659.78,-5074.4,37.5969,51.3486,-173.322,8042.39,-10929.8,-2747.06,22.3859,-62.261,-18.5611,10867.8,-1238.38,-2722.07,15.9309,-4.25416,-11.3557
1.808,-20880.1,-21553.5,53200.1,294.695,-320.088,-246.216,645.867,2890.05,13811.5,112.394,-601.302,75.1905,45497.9,16346.4,-12498.1,-61.4075,155.355,-132.478,6336.26,-16774.7,-4014.34,47.425,-119.395,232.973,-7153.52,2928.33,-5455.15,38.7553,44.3855,-174.614,8258.22,-10940.2,-2941.4,21.5645,-61.0446,-20.4224,11126.1,-1290.57,-2076.23,23.6185,2.54578,-7.97658
1.809,-27478.1,-22313.0,59604.9,305.029,-351.109,-265.42,561.114,2753.01,13997.2,117.748,-610.032,75.8704,53160.3,16903.4,-16768.9,-53.3758,181.872,-119.157,6530.9,-16904.6,-3948.74,46.5206,-123.967,233.663,-7345.12,3231.1,-5971.4,39.4812,39.5105,-175.466,8469.62,-10954.1,-3084.46,20.714,-60.0914,-22.283,11375.2,-1300.14,-1309.44,30.3117,8.84553,-4.14981
1.81,-32727.0,-15181.7,53906.8,269.276,-341.148,-249.396,461.408,2647.52,14399.4,124.067,-619.845,75.6342,59671.2,17358.2,-9296.62,-50.575,155.811,-109.48,6802.69,-17100.1,-3688.32,45.5687,-129.546,234.294,-6897.37,3807.57,-7571.53,36.7472,51.3396,-172.801,8645.68,-10995.3,-2817.36,19.6312,-61.2429,-24.1377,11550.1,-968.78,424.909,29.0499,11.1438,3.25817
1.811,-37975.9,-8050.47,48208.6,233.522,-331.187,-233.373,361.702,2542.04,14801.6,130.385,-629.659,75.3979,66182.1,17813.1,-1824.37,-47.7743,129.75,-99.8024,7074.47,-17295.7,-3427.9,44.6167,-135.125,234.924,-6449.61,4384.05,-9171.65,34.0131,63.1687,-170.137,8821.73,-11036.5,-2550.25,18.5485,-62.3943,-25.9924,11725.1,-637.415,2159.26,27.7882,13.442,10.6661
1.812,-43224.9,-919.181,42510.5,197.769,-321.226,-217.349,261.996,2436.55,15203.9,136.704,-639.473,75.1617,72693.0,18268.0,5647.89,-44.9735,103.689,-90.1249,7346.25,-17491.2,-3167.49,43.6648,-140.704,235.554,-6001.86,4960.52,-10771.8,31.2791,74.9977,-167.472,8997.79,-11077.7,-2283.15,17.4657,-63.5458,-27.8471,11900.1,-306.05,3893.61,26.5265,15.7403,18.0741
1.813,-48473.8,6212.1,36812.4,162.016,-311.264,-201.325,162.29,2331.06,15606.1,143.022,-649.286,74.9255,79203.8,18722.8,13120.1,-42.1727,77.6275,-80.4474,7618.04,-17686.7,-2907.07,42.7128,-146.282,236.184,-5554.1,5537.0,-12371.9,28.545,86.8268,-164.807,9173.84,-11118.9,-2016.05,16.383,-64.6972,-29.7018,12075.1,25.3145,5627.95,25.2648,18.0385,25.4821
1.814,-42707.9,11740.4,33653.7,135.641,-279.459,-167.95,-6.87644,2229.23,16106.2,148.421,-660.029,74.3668,74833.5,19476.6,15772.8,-52.8784,65.2287,-91.2876,8027.87,-17986.4,-2631.55,42.4118,-151.744,236.525,-4713.64,6736.91,-12341.6,16.2575,106.894,-158.615,9267.21,-11200.2,-1337.22,15.3312,-70.5922,-30.5083,12156.2,181.082,7245.22,17.8513,14.0718,32.5739
1.815,-31434.6,16467.1,31764.7,113.955,-236.732,-125.899,-210.773,2129.23,16655.3,153.36,-671.236,73.647,65022.5,20379.8,16015.7,-70.3373,59.661,-112.387,8506.72,-18338.2,-2348.49,42.4363,-157.147,236.721,-3676.81,8248.53,-11496.0,-0.806695,131.081,-150.659,9319.23,-11301.7,-452.533,14.295,-78.859,-30.7907,12190.4,249.05,8803.95,7.36193,6.9726,39.5075
1.816,-20161.3,21193.8,29875.8,92.269,-194.005,-83.8478,-414.67,2029.23,17204.3,158.299,-682.443,72.9272,55211.5,21283.0,16258.7,-87.7963,54.0932,-133.486,8985.57,-18689.9,-2065.42,42.4607,-162.549,236.918,-2639.98,9760.15,-10650.4,-17.8709,155.267,-142.703,9371.26,-11403.1,432.156,13.2588,-87.1258,-31.073,12224.5,317.018,10362.7,-3.12748,-0.126589,46.4412
1.817,-8887.94,25920.6,27986.8,70.5832,-151.278,-41.7967,-618.567,1929.24,17753.3,163.238,-693.65,72.2073,45400.5,22186.2,16501.6,-105.255,48.5255,-154.585,9464.42,-19041.7,-1782.36,42.4852,-167.952,237.115,-1603.15,11271.8,-9804.85,-34.9351,179.453,-134.747,9423.28,-11504.5,1316.85,12.2226,-95.3926,-31.3554,12258.7,384.986,11921.4,-13.6169,-7.22578,53.3748
1.818,2344.57,28316.8,25954.1,53.7193,-114.301,-10.0847,-826.208,1867.25,18248.3,167.266,-705.039,71.4237,35586.7,22923.8,16257.2,-118.86,50.4267,-176.215,9963.16,-19425.2,-1597.89,42.7501,-173.081,237.122,-340.715,13158.6,-8313.57,-54.8839,201.434,-125.07,9443.23,-11605.9,2085.89,11.0534,-104.617,-31.3867,12275.4,362.164,13021.1,-22.617,-13.8615,59.1253
1.819,13434.3,22556.5,23418.1,53.7318,-97.4484,-14.5594,-1046.95,1938.32,18553.8,168.101,-717.063,70.4167,25762.7,23081.7,14307.3,-118.977,78.469,-199.707,10531.5,-19919.7,-1758.49,43.8563,-177.254,236.468,1711.37,16358.5,-4562.27,-84.9283,215.695,-109.371,9350.88,-11707.1,2450.16,9.41846,-117.193,-30.5394,12230.9,21.5778,12514.2,-26.4047,-18.8749,60.7347
1.82,24524.0,16796.2,20882.1,53.7444,-80.5956,-19.034,-1267.7,2009.38,18859.4,168.937,-729.087,69.4097,15938.8,23239.6,12357.4,-119.093,106.511,-223.199,11099.8,-20414.2,-1919.09,44.9625,-181.427,235.814,3763.45,19558.5,-810.971,-114.973,229.956,-93.6724,9258.53,-11808.4,2814.44,7.78356,-129.769,-29.6922,12186.4,-319.009,12007.4,-30.1923,-23.8884,62.3441
1.821,35613.7,11035.9,18346.2,53.757,-63.7429,-23.5087,-1488.44,2080.45,19164.9,169.773,-741.11,68.4027,6114.83,23397.5,10407.5,-119.21,134.554,-246.691,11668.1,-20908.7,-2079.69,46.0687,-185.6,235.159,5815.53,22758.5,2940.33,-145.017,244.216,-77.9736,9166.17,-11909.6,3178.71,6.14865,-142.345,-28.8449,12141.9,-659.595,11500.5,-33.98,-28.9018,63.9535
1.822,46703.4,5275.63,15810.2,53.7695,-46.8901,-27.9834,-1709.19,2151.51,19470.4,170.609,-753.134,67.3957,-3709.12,23555.4,8457.55,-119.327,162.596,-270.183,12236.4,-21403.2,-2240.3,47.175,-189.772,234.505,7867.61,25958.5,6691.62,-175.062,258.477,-62.2747,9073.83,-12010.8,3542.99,4.51374,-154.921,-27.9976,12097.3,-1000.18,10993.6,-37.7677,-33.9152,65.5629
1.823,49116.8,516.368,12059.4,61.9896,-60.5279,-39.799,-1988.42,2480.83,19456.1,170.777,-765.079,67.3955,-9310.68,23293.0,6862.52,-100.104,186.388,-270.071,12769.6,-21791.4,-2456.29,47.8737,-193.597,233.206,10682.2,28725.1,9189.25,-179.623,256.846,-45.0099,8873.63,-12166.5,3327.26,2.48973,-165.816,-28.1668,12095.2,-729.42,9808.02,-39.4063,-32.1987,67.2512
1.824,49051.2,-3956.88,7961.6,72.5548,-82.8773,-53.712,-2284.36,2883.93,19350.4,170.755,-777.002,67.683,-13705.8,22910.5,5368.89,-75.3565,208.966,-263.215,13292.8,-22149.2,-2688.12,48.4559,-197.322,231.722,13714.7,31368.0,11328.7,-176.902,250.674,-27.2977,8642.63,-12337.6,2945.81,0.354538,-176.231,-28.6264,12105.1,-283.988,8428.52,-40.4308,-28.5594,68.962
1.825,48985.6,-8430.13,3863.76,83.1199,-105.227,-67.625,-2580.3,3287.03,19244.7,170.733,-788.925,67.9706,-18101.0,22527.9,3875.26,-50.6087,231.544,-256.359,13816.0,-22507.0,-2919.95,49.0382,-201.046,230.238,16747.1,34010.9,13468.1,-174.182,244.503,-9.58547,8411.62,-12508.8,2564.36,-1.78065,-186.646,-29.086,12115.0,161.443,7049.02,-41.4554,-24.92,70.6728
1.826,48920.1,-12903.4,-234.083,93.685,-127.576,-81.538,-2876.23,3690.13,19138.9,170.711,-800.848,68.2581,-22496.2,22145.4,2381.62,-25.8609,254.122,-249.503,14339.1,-22864.8,-3151.77,49.6204,-204.771,228.754,19779.6,36653.7,15607.6,-171.462,238.331,8.12676,8180.61,-12680.0,2182.92,-3.91584,-197.061,-29.5456,12124.9,606.875,5669.52,-42.48,-21.2807,72.3837
1.827,46811.7,-13702.0,-3423.6,99.3395,-150.33,-86.5735,-3168.49,4096.88,18925.8,171.421,-812.379,69.1212,-26095.8,21941.1,1743.12,-6.18957,267.754,-242.561,14833.2,-23053.4,-3277.59,49.7245,-208.414,227.329,21915.8,38289.3,16856.7,-161.076,228.328,20.7877,7922.61,-12873.3,1794.43,-6.11283,-205.876,-30.8946,12055.3,1252.21,4432.22,-42.9709,-17.3875,74.9906
1.828,40617.7,-7151.2,-4796.48,95.1729,-173.894,-73.854,-3453.37,4510.93,18497.7,173.595,-823.128,71.1357,-28104.3,22093.4,2814.86,3.32904,263.494,-235.446,15268.8,-22903.5,-3191.39,48.8721,-211.892,226.022,22259.7,37910.3,16325.4,-135.358,210.664,23.3462,7610.63,-13110.9,1391.84,-8.43344,-211.491,-34.0223,11826.9,2297.37,3479.3,-42.3943,-12.9868,79.3898
1.829,34423.8,-600.447,-6169.36,91.0062,-197.458,-61.1346,-3738.26,4924.98,18069.6,175.77,-833.876,73.1502,-30112.9,22245.6,3886.6,12.8476,259.234,-228.331,15704.5,-22753.6,-3105.19,48.0197,-215.37,224.716,22603.5,37531.2,15794.0,-109.64,192.999,25.9047,7298.64,-13348.5,989.263,-10.754,-217.106,-37.1501,11598.5,3342.52,2526.38,-41.8178,-8.58601,83.7889
1.83,28229.8,5950.31,-7542.24,86.8396,-221.022,-48.4152,-4023.14,5339.02,17641.5,177.945,-844.624,75.1647,-32121.4,22397.9,4958.34,22.3662,254.973,-221.217,16140.2,-22603.7,-3018.99,47.1674,-218.848,223.409,22947.3,37152.2,15262.6,-83.9213,175.334,28.4632,6986.66,-13586.2,586.681,-13.0746,-222.722,-40.2778,11370.1,4387.68,1573.46,-41.2413,-4.18525,88.1881
1.831,22035.9,12501.1,-8915.12,82.6729,-244.586,-35.6957,-4308.03,5753.07,17213.4,180.119,-855.372,77.1792,-34129.9,22550.1,6030.08,31.8849,250.713,-214.102,16575.9,-22453.8,-2932.79,46.315,-222.327,222.102,23291.1,36773.2,14731.3,-58.2031,157.669,31.0217,6674.67,-13823.8,184.1,-15.3953,-228.337,-43.4056,11141.7,5432.83,620.541,-40.6648,0.215508,92.5873
1.832,19977.2,15335.3,-7547.07,77.2749,-251.223,-29.5821,-3910.19,5605.27,16717.4,186.801,-865.942,80.4671,-34740.0,23132.1,7170.32,34.5096,230.0,-211.643,16867.0,-21956.3,-2497.04,45.7666,-225.081,221.117,21335.0,35599.9,11677.2,-35.7621,155.934,21.0034,6272.69,-13880.4,31.7117,-16.2287,-229.906,-47.8737,10854.5,5815.56,394.414,-38.1892,5.07072,94.4154
1.833,18435.5,17704.9,-5836.4,71.723,-255.743,-24.2942,-3427.02,5387.25,16212.8,194.047,-876.489,83.9141,-35175.3,23767.8,8319.13,36.2727,207.231,-209.766,17140.1,-21415.3,-2017.59,45.2562,-227.745,220.172,19091.4,34327.3,8307.72,-13.7307,156.189,9.41312,5859.47,-13914.4,-89.4024,-16.8762,-230.97,-52.5094,10560.0,6115.49,259.137,-35.4762,9.98274,95.9221
1.834,16893.7,20074.6,-4125.73,66.1711,-260.264,-19.0063,-2943.84,5169.22,15708.3,201.292,-887.037,87.3612,-35610.5,24403.5,9467.94,38.0357,184.462,-207.889,17413.2,-20874.3,-1538.14,44.7458,-230.408,219.228,16847.8,33054.7,4938.28,8.30065,156.445,-2.17721,5446.24,-13948.4,-210.516,-17.5237,-232.033,-57.1451,10265.4,6415.42,123.859,-32.7632,14.8948,97.4288
1.835,15351.9,22444.2,-2415.07,60.6192,-264.784,-13.7184,-2460.66,4951.2,15203.7,208.538,-897.584,90.8082,-36045.8,25039.2,10616.7,39.7987,161.693,-206.012,17686.2,-20333.4,-1058.69,44.2354,-233.072,218.283,14604.2,31782.1,1568.84,30.332,156.701,-13.7675,5033.01,-13982.4,-331.631,-18.1712,-233.097,-61.7808,9970.87,6715.35,-11.4182,-30.0503,19.8068,98.9355
1.836,14695.3,20882.8,-485.684,57.397,-264.179,-14.5279,-1593.77,4132.2,14174.0,220.215,-904.745,95.837,-35428.6,24923.4,10588.8,39.9098,139.127,-203.711,17807.8,-19778.8,-515.263,45.0438,-234.737,217.332,12255.7,30245.0,-1384.55,47.628,163.938,-24.5262,4629.17,-13932.2,-445.274,-18.3307,-232.3,-66.3629,9759.65,6784.03,122.954,-29.1133,24.0657,98.9186
1.837,15145.2,14407.5,1717.09,57.0869,-257.167,-22.9592,-247.23,2562.0,12487.7,237.433,-907.673,102.843,-33496.0,23868.2,9089.86,37.956,116.815,-200.878,17739.9,-19207.3,108.135,47.5007,-235.153,216.373,9776.0,28377.5,-3817.89,59.0047,179.902,-34.2453,4237.06,-13776.8,-549.579,-17.8803,-229.179,-70.878,9652.59,6563.66,594.387,-30.3965,27.5081,96.9972
1.838,15595.0,7932.23,3919.87,56.7768,-250.155,-31.3905,1099.31,991.795,10801.4,254.65,-910.601,109.849,-31563.4,22813.0,7590.94,36.0021,94.5036,-198.046,17672.0,-18635.7,731.533,49.9575,-235.569,215.414,7296.31,26509.9,-6251.22,70.3815,195.867,-43.9643,3844.94,-13621.5,-653.884,-17.4299,-226.058,-75.3931,9545.53,6343.28,1065.82,-31.6796,30.9506,95.0758
1.839,16044.9,1456.96,6122.64,56.4667,-243.143,-39.8219,2445.85,-578.409,9115.17,271.867,-913.529,116.855,-29630.8,21757.8,6092.01,34.0483,72.192,-195.213,17604.2,-18064.1,1354.93,52.4144,-235.986,214.455,4816.63,24642.3,-8684.55,81.7582,211.831,-53.6834,3452.83,-13466.1,-758.189,-16.9795,-222.937,-79.9082,9438.47,6122.91,1537.25,-32.9627,34.3931,93.1544
1.84,16494.7,-5018.31,8325.42,56.1566,-236.131,-48.2532,3792.39,-2148.61,7428.9,289.084,-916.457,123.861,-27698.2,20702.5,4593.09,32.0944,49.8804,-192.381,17536.3,-17492.6,1978.33,54.8712,-236.402,213.496,2336.95,22774.8,-11117.9,93.1349,227.796,-63.4024,3060.72,-13310.7,-862.493,-16.5291,-219.815,-84.4233,9331.41,5902.53,2008.69,-34.2459,37.8355,91.233
1.841,14407.7,-7722.31,9729.21,57.8951,-227.883,-53.1858,6213.7,-4364.44,6489.74,308.335,-899.458,124.168,-23543.1,18725.8,2020.69,26.7073,44.8565,-188.505,16341.5,-16846.2,1836.19,57.4403,-235.355,214.85,354.818,20932.0,-10687.4,105.135,237.056,-70.6139,2673.6,-12975.2,-967.135,-17.9017,-215.675,-88.594,9412.65,5432.87,1991.57,-38.9161,39.7706,85.6918
1.842,12320.7,-10426.3,11133.0,59.6336,-219.635,-58.1184,8635.01,-6580.27,5550.59,327.586,-882.46,124.474,-19388.0,16749.1,-551.705,21.3202,39.8326,-184.629,15146.8,-16199.8,1694.05,60.0093,-234.309,216.204,-1627.32,19089.3,-10256.9,117.136,246.316,-77.8253,2286.47,-12639.6,-1071.78,-19.2743,-211.534,-92.7646,9493.88,4963.21,1974.45,-43.5864,41.7056,80.1505
1.843,10233.8,-13130.3,12536.8,61.3721,-211.387,-63.051,11056.3,-8796.1,4611.43,346.836,-865.461,124.781,-15232.9,14772.4,-3124.1,15.9331,34.8087,-180.752,13952.0,-15553.5,1551.9,62.5783,-233.263,217.557,-3609.45,17246.5,-9826.37,129.136,255.577,-85.0368,1899.35,-12304.1,-1176.42,-20.6469,-207.394,-96.9353,9575.12,4493.54,1957.33,-48.2567,43.6406,74.6093
1.844,8146.75,-15834.3,13940.6,63.1106,-203.139,-67.9837,13477.6,-11011.9,3672.27,366.087,-848.462,125.087,-11077.9,12795.7,-5696.5,10.5461,29.7848,-176.876,12757.3,-14907.1,1409.76,65.1473,-232.216,218.911,-5591.58,15403.8,-9395.87,141.136,264.837,-92.2482,1512.23,-11968.6,-1281.06,-22.0196,-203.253,-101.106,9656.35,4023.88,1940.21,-52.927,45.5757,69.068
1.845,5903.13,-15167.8,14591.4,62.431,-195.65,-69.9732,16345.8,-10817.7,3215.31,380.219,-832.316,126.018,-6598.46,10717.9,-6884.69,4.89691,28.5461,-177.425,10741.5,-14301.3,824.003,66.8274,-229.644,221.799,-7289.09,13583.3,-8242.38,149.677,263.898,-97.0529,1193.9,-11588.0,-1426.45,-24.9981,-200.277,-104.896,9725.29,3761.02,1853.92,-55.9749,46.4026,65.3999
1.846,3534.21,-11805.0,14639.8,59.8169,-188.767,-69.6083,19571.5,-8695.31,3144.1,390.257,-816.852,127.447,-1859.62,8559.23,-6965.52,-0.961892,30.3356,-181.515,8068.94,-13728.1,-116.648,67.7963,-225.851,225.915,-8758.9,11780.7,-6510.48,155.45,254.799,-99.9323,930.593,-11171.2,-1604.45,-29.2614,-198.233,-108.382,9784.4,3663.59,1712.28,-57.7248,46.343,63.2302
1.847,1165.29,-8442.11,14688.2,57.2029,-181.884,-69.2433,22797.2,-6572.96,3072.9,400.295,-801.387,128.876,2879.22,6400.54,-7046.34,-6.8207,32.1251,-185.605,5396.35,-13154.8,-1057.3,68.7653,-222.057,230.031,-10228.7,9978.15,-4778.59,161.222,245.7,-102.812,667.288,-10754.5,-1782.44,-33.5247,-196.188,-111.867,9843.51,3566.17,1570.64,-59.4748,46.2835,61.0605
1.848,-1203.63,-5079.26,14736.7,54.5888,-175.002,-68.8784,26022.9,-4450.61,3001.69,410.332,-785.923,130.305,7618.06,4241.85,-7127.17,-12.6795,33.9147,-189.694,2723.76,-12581.5,-1997.95,69.7342,-218.264,234.147,-11698.5,8175.56,-3046.7,166.995,236.601,-105.691,403.983,-10337.7,-1960.44,-37.788,-194.144,-115.353,9902.61,3468.75,1429.01,-61.2248,46.2239,58.8908
1.849,-3276.77,-1982.22,14717.4,51.8173,-168.259,-68.6469,29059.0,-1965.89,2908.57,418.134,-770.924,132.434,12143.0,2152.82,-6928.73,-18.6346,34.9011,-193.783,57.0389,-12071.4,-2949.69,70.4505,-214.237,237.95,-13151.9,6394.48,-1446.12,171.878,226.47,-108.432,151.01,-9933.12,-2152.66,-42.1944,-192.334,-118.747,9990.18,3332.22,1322.45,-62.5471,46.0184,56.7944
1.85,-2983.7,-1011.72,14156.4,47.7864,-162.637,-69.4825,30578.6,3417.86,2640.15,408.047,-759.646,140.159,14957.0,621.155,-4496.25,-25.3599,29.4631,-197.859,-2562.73,-12067.0,-3990.21,69.1456,-208.342,239.246,-14473.6,4785.53,-896.066,169.641,208.081,-110.067,-19.301,-9625.88,-2458.75,-47.7456,-192.403,-121.408,10305.4,2882.89,1496.54,-60.4486,44.6452,55.2842
1.851,-2690.63,-41.2218,13595.4,43.7555,-157.016,-70.3181,32098.1,8801.61,2371.74,397.961,-748.368,147.885,17771.0,-910.512,-2063.76,-32.0851,24.025,-201.936,-5182.51,-12062.6,-5030.72,67.8407,-202.447,240.542,-15795.3,3176.59,-346.014,167.403,189.692,-111.701,-189.612,-9318.63,-2764.83,-53.2969,-192.471,-124.069,10620.6,2433.56,1670.62,-58.3501,43.272,53.774
1.852,-2397.56,929.277,13034.4,39.7246,-151.394,-71.1537,33617.7,14185.4,2103.32,387.874,-737.09,155.611,20584.9,-2442.18,368.728,-38.8104,18.5869,-206.012,-7802.28,-12058.2,-6071.23,66.5357,-196.552,241.838,-17117.0,1567.64,204.037,165.165,171.303,-113.336,-359.923,-9011.39,-3070.92,-58.8481,-192.54,-126.731,10935.8,1984.23,1844.71,-56.2515,41.8989,52.2638
1.853,-2104.49,1899.78,12473.5,35.6937,-145.772,-71.9893,35137.2,19569.1,1834.91,377.787,-725.812,163.336,23398.9,-3973.85,2801.21,-45.5357,13.1489,-210.089,-10422.0,-12053.8,-7111.74,65.2308,-190.656,243.134,-18438.7,-41.3097,754.089,162.928,152.914,-114.971,-530.234,-8704.15,-3377.0,-64.3994,-192.609,-129.392,11251.0,1534.9,2018.79,-54.153,40.5257,50.7536
1.854,-120.704,2069.15,11995.0,33.3535,-140.023,-71.609,35418.5,23217.6,1738.22,356.391,-716.143,171.66,23212.6,-4421.87,3622.91,-46.7321,11.4988,-203.631,-11603.9,-12447.9,-7882.81,62.0439,-185.839,240.803,-19667.2,-1403.4,842.502,158.541,137.813,-117.316,-625.939,-8691.6,-3774.12,-69.6807,-192.733,-132.048,11572.2,990.12,2353.83,-53.4859,38.4757,48.958
