Time,RFoot_accel.x,RFoot_accel.y,RFoot_accel.z,RFoot_gyro.x,RFoot_gyro.y,RFoot_gyro.z,LFoot_accel.x,LFoot_accel.y,LFoot_accel.z,LFoot_gyro.x,LFoot_gyro.y,LFoot_gyro.z,RShank_accel.x,RShank_accel.y,RShank_accel.z,RShank_gyro.x,RShank_gyro.y,RShank_gyro.z,LShank_accel.x,LShank_accel.y,LShank_accel.z,LShank_gyro.x,LShank_gyro.y,LShank_gyro.z,RThigh_accel.x,RThigh_accel.y,RThigh_accel.z,RThigh_gyro.x,RThigh_gyro.y,RThigh_gyro.z,LThigh_accel.x,LThigh_accel.y,LThigh_accel.z,LThigh_gyro.x,LThigh_gyro.y,LThigh_gyro.z,Pelvis_accel.x,Pelvis_accel.y,Pelvis_accel.z,Pelvis_gyro.x,Pelvis_gyro.y,Pelvis_gyro.z
0.0,4487.99,-3063.29,8014.23,-3.09567,-3.13625,1.04552,4454.12,2794.86,8062.04,7.65918,0.06102,-0.82494,-48.9016,9634.47,-1236.33,0.355696,3.85468,-0.219418,667.086,-9993.4,-449.16,2.99966,10.6043,3.35287,-1373.6,9462.75,-2244.8,-1.85728,5.57865,4.82143,-3393.81,-9825.96,-561.226,8.04935,24.6733,-13.5359,8779.93,1110.91,4292.89,-3.9066,-1.51014,-3.79334
0.001,4479.94,-3059.52,8039.11,-3.02954,-3.01671,1.0722,4418.85,2846.55,8053.73,7.65589,0.0503495,-0.859,-56.6583,9644.92,-1239.08,0.372949,3.7517,-0.188374,653.664,-9991.6,-502.305,3.03568,10.2923,3.34884,-1378.52,9461.02,-2253.21,-1.71855,5.54663,4.84912,-3377.16,-9801.03,-526.841,8.01334,23.7657,-13.8045,8790.82,1122.84,4297.38,-3.9591,-1.51251,-3.82589
0.002,4471.89,-3055.75,8063.99,-2.96342,-2.89717,1.09888,4383.57,2898.23,8045.43,7.65261,0.039679,-0.893061,-64.415,9655.38,-1241.83,0.390203,3.64871,-0.157331,640.242,-9989.8,-555.45,3.0717,9.98023,3.3448,-1383.44,9459.29,-2261.62,-1.57983,5.51461,4.8768,-3360.51,-9776.1,-492.457,7.97733,22.8581,-14.0732,8801.71,1134.77,4301.88,-4.0116,-1.51489,-3.85844
0.003,4463.83,-3051.98,8088.87,-2.89729,-2.77763,1.12556,4348.3,2949.92,8037.13,7.64932,0.0290085,-0.927121,-72.1717,9665.84,-1244.58,0.407456,3.54572,-0.126288,626.82,-9988.0,-608.595,3.10772,9.66819,3.34077,-1388.36,9457.56,-2270.03,-1.4411,5.48259,4.90448,-3343.86,-9751.18,-458.072,7.94132,21.9505,-14.3418,8812.59,1146.7,4306.37,-4.0641,-1.51726,-3.89099
0.004,4455.78,-3048.21,8113.75,-2.83116,-2.65808,1.15225,4313.03,3001.61,8028.83,7.64604,0.018338,-0.961182,-79.9284,9676.29,-1247.34,0.42471,3.44273,-0.0952443,613.398,-9986.2,-661.74,3.14375,9.35616,3.33673,-1393.28,9455.83,-2278.44,-1.30237,5.45057,4.93217,-3327.21,-9726.25,-423.688,7.90532,21.0429,-14.6105,8823.48,1158.63,4310.86,-4.1166,-1.51964,-3.92354
0.005,4472.98,-3049.4,8122.26,-2.70192,-2.56742,1.17181,4289.31,3042.08,8017.84,7.59677,-0.0169497,-0.988445,-84.0708,9680.49,-1251.19,0.384873,3.33193,-0.0571028,607.372,-9972.08,-679.748,3.13783,9.11565,3.40071,-1409.85,9441.61,-2265.55,-1.22399,5.41461,4.9359,-3300.62,-9702.18,-416.312,7.55276,20.1959,-14.7482,8831.95,1163.95,4308.99,-4.14396,-1.61579,-3.931
0.006,4510.37,-3054.56,8117.66,-2.52218,-2.49986,1.18569,4274.81,3073.56,8004.7,7.51073,-0.0719312,-1.01027,-85.3219,9679.69,-1255.93,0.299364,3.21487,-0.0132829,607.262,-9948.11,-669.647,3.09836,8.93239,3.51911,-1435.76,9417.4,-2235.61,-1.19389,5.3755,4.92047,-3266.06,-9678.78,-430.543,6.94698,19.3976,-14.7811,8838.48,1164.0,4302.03,-4.15122,-1.78698,-3.9184
0.007,4547.76,-3059.73,8113.07,-2.34244,-2.43229,1.19956,4260.32,3105.05,7991.56,7.42469,-0.126913,-1.03209,-86.573,9678.89,-1260.67,0.213856,3.09782,0.0305371,607.153,-9924.13,-659.546,3.0589,8.74912,3.63751,-1461.66,9393.19,-2205.68,-1.16379,5.3364,4.90504,-3231.51,-9655.38,-444.774,6.34119,18.5992,-14.8141,8845.01,1164.04,4295.07,-4.15847,-1.95817,-3.90579
0.008,4585.15,-3064.89,8108.48,-2.1627,-2.36473,1.21343,4245.83,3136.54,7978.42,7.33865,-0.181894,-1.05392,-87.8241,9678.08,-1265.4,0.128347,2.98077,0.0743571,607.044,-9900.16,-649.444,3.01943,8.56585,3.75591,-1487.56,9368.97,-2175.75,-1.13368,5.29729,4.88961,-3196.96,-9631.98,-459.006,5.7354,17.8008,-14.8471,8851.54,1164.09,4288.11,-4.16573,-2.12936,-3.89318
0.009,4619.88,-3071.78,8102.73,-2.00165,-2.28549,1.22686,4235.87,3160.95,7968.93,7.25262,-0.226667,-1.07823,-86.9604,9677.73,-1270.16,0.0540292,2.86215,0.115052,608.448,-9877.71,-642.718,2.98262,8.38509,3.86668,-1513.0,9345.4,-2146.47,-1.10886,5.25777,4.87866,-3159.09,-9607.09,-478.402,5.12923,17.0426,-14.8745,8857.63,1167.22,4281.4,-4.16967,-2.29688,-3.88284
0.01,4633.3,-3092.58,8087.72,-1.99011,-2.11288,1.23668,4262.13,3128.77,7988.72,7.16664,-0.189771,-1.12248,-69.1793,9680.98,-1275.1,0.0692359,2.73104,0.130746,621.961,-9867.44,-662.988,2.96708,8.22446,3.91636,-1534.73,9326.93,-2122.41,-1.12622,5.21499,4.90357,-3094.77,-9570.23,-539.12,4.52002,16.6062,-14.8576,8860.26,1195.03,4276.65,-4.14705,-2.43511,-3.89061
0.011,4646.72,-3113.38,8072.71,-1.97858,-1.94027,1.2465,4288.38,3096.58,8008.51,7.08065,-0.152875,-1.16673,-51.3981,9684.22,-1280.04,0.0844426,2.59993,0.14644,635.475,-9857.18,-683.259,2.95155,8.06382,3.96605,-1556.45,9308.47,-2098.36,-1.14359,5.1722,4.92849,-3030.44,-9533.38,-599.838,3.91082,16.1697,-14.8407,8862.88,1222.85,4271.9,-4.12443,-2.57334,-3.89838
0.012,4660.14,-3134.18,8057.7,-1.96704,-1.76766,1.25632,4314.64,3064.4,8028.3,6.99467,-0.115979,-1.21098,-33.617,9687.47,-1284.98,0.0996493,2.46881,0.162134,648.988,-9846.92,-703.53,2.93601,7.90319,4.01574,-1578.18,9290.0,-2074.3,-1.16095,5.12942,4.95341,-2966.11,-9496.52,-660.556,3.30161,15.7332,-14.8238,8865.5,1250.66,4267.15,-4.1018,-2.71157,-3.90615
0.013,4673.56,-3154.98,8042.69,-1.9555,-1.59504,1.26614,4340.9,3032.22,8048.09,6.90869,-0.0790826,-1.25522,-15.8358,9690.72,-1289.92,0.114856,2.3377,0.177829,662.501,-9836.66,-723.8,2.92047,7.74255,4.06543,-1599.9,9271.54,-2050.25,-1.17832,5.08664,4.97833,-2901.78,-9459.66,-721.274,2.69241,15.2968,-14.8068,8868.13,1278.48,4262.4,-4.07918,-2.8498,-3.91392
0.014,4660.07,-3150.83,8047.97,-2.02422,-1.54903,1.24494,4375.84,3009.93,8056.96,6.84034,-0.00477829,-1.27705,-6.90372,9702.17,-1302.64,0.137,2.24693,0.187204,640.596,-9830.21,-735.892,2.89783,7.75251,4.13496,-1619.3,9263.15,-2042.27,-1.11195,5.07964,4.97217,-2847.35,-9444.7,-797.443,2.22875,15.2437,-14.7526,8864.73,1268.84,4265.18,-4.05314,-2.87172,-3.91535
0.015,4633.12,-3134.2,8063.4,-2.13306,-1.56632,1.20822,4415.12,2992.59,8060.36,6.78082,0.0882301,-1.28765,-2.39617,9717.72,-1319.26,0.162613,2.17634,0.19342,600.981,-9825.67,-743.893,2.87164,7.84777,4.21441,-1637.53,9259.81,-2042.34,-1.00372,5.09054,4.95049,-2797.87,-9440.7,-881.337,1.83787,15.3824,-14.6796,8858.31,1240.48,4271.71,-4.02538,-2.83548,-3.91361
0.016,4606.17,-3117.56,8078.82,-2.2419,-1.5836,1.17151,4454.4,2975.24,8063.77,6.7213,0.181239,-1.29826,2.11138,9733.28,-1335.87,0.188225,2.10576,0.199636,561.366,-9821.14,-751.895,2.84545,7.94303,4.29386,-1655.77,9256.46,-2042.41,-0.895492,5.10144,4.9288,-2748.4,-9436.69,-965.232,1.44699,15.5211,-14.6067,8851.89,1212.12,4278.25,-3.99763,-2.79925,-3.91186
0.017,4579.23,-3100.93,8094.25,-2.35074,-1.60088,1.1348,4493.68,2957.9,8067.17,6.66178,0.274247,-1.30887,6.61893,9748.84,-1352.49,0.213838,2.03517,0.205851,521.751,-9816.6,-759.897,2.81925,8.03829,4.37331,-1674.0,9253.12,-2042.48,-0.787263,5.11234,4.90711,-2698.92,-9432.68,-1049.13,1.05611,15.6597,-14.5337,8845.48,1183.76,4284.78,-3.96987,-2.76302,-3.91012
0.018,4563.09,-3087.44,8105.66,-2.41148,-1.59782,1.08413,4523.49,2946.1,8068.3,6.60434,0.328429,-1.31404,6.75195,9758.95,-1362.43,0.216397,1.97768,0.209519,491.481,-9812.83,-757.314,2.79577,8.07964,4.40862,-1689.6,9252.17,-2046.04,-0.694596,5.08123,4.86757,-2658.87,-9433.04,-1131.11,0.734178,15.9218,-14.4784,8842.31,1160.62,4287.37,-3.9622,-2.75035,-3.90152
0.019,4584.77,-3084.94,8103.03,-2.30388,-1.52354,0.984608,4520.19,2953.71,8061.46,6.55418,0.24672,-1.30019,-8.4259,9750.02,-1349.0,0.138272,1.96605,0.204268,493.918,-9811.74,-717.687,2.78177,7.9323,4.28941,-1695.95,9259.58,-2061.84,-0.6564,4.90306,4.76557,-2651.8,-9448.67,-1206.42,0.653588,16.6162,-14.4845,8850.53,1155.76,4276.17,-4.02485,-2.82014,-3.86892
0.02,4606.45,-3082.44,8100.4,-2.19627,-1.44926,0.88509,4516.88,2961.32,8054.62,6.50402,0.165011,-1.28634,-23.6038,9741.1,-1335.57,0.0601457,1.95441,0.199016,496.355,-9810.66,-678.06,2.76777,7.78495,4.1702,-1702.3,9266.99,-2077.64,-0.618204,4.72489,4.66356,-2644.74,-9464.3,-1281.73,0.572997,17.3105,-14.4906,8858.74,1150.9,4264.97,-4.08751,-2.88993,-3.83633
0.021,4628.13,-3079.93,8097.77,-2.08867,-1.37498,0.785572,4513.58,2968.93,8047.77,6.45387,0.0833023,-1.27249,-38.7816,9732.17,-1322.14,-0.0179801,1.94278,0.193765,498.792,-9809.57,-638.433,2.75377,7.63761,4.05098,-1708.65,9274.41,-2093.43,-0.580008,4.54673,4.56155,-2637.67,-9479.94,-1357.04,0.492406,18.0048,-14.4967,8866.96,1146.04,4253.77,-4.15016,-2.95972,-3.80373
0.022,4649.81,-3077.43,8095.13,-1.98106,-1.3007,0.686054,4510.27,2976.54,8040.93,6.40371,0.00159322,-1.25864,-53.9595,9723.24,-1308.71,-0.0961059,1.93114,0.188513,501.229,-9808.48,-598.806,2.73977,7.49027,3.93177,-1715.0,9281.82,-2109.23,-0.541812,4.36856,4.45954,-2630.61,-9495.57,-1432.35,0.411815,18.6992,-14.5028,8875.17,1141.18,4242.57,-4.21281,-3.02951,-3.77114
0.023,4630.16,-3066.39,8082.78,-2.02931,-1.21727,0.660079,4492.74,2977.26,8042.18,6.36338,-0.0535017,-1.2725,-60.0613,9725.13,-1281.81,-0.136324,1.87576,0.211575,497.372,-9824.31,-575.378,2.72577,7.18164,3.91625,-1723.49,9279.3,-2113.3,-0.462419,4.18121,4.3901,-2647.24,-9499.58,-1492.09,0.41047,19.6173,-14.5842,8863.08,1142.23,4250.34,-4.18443,-3.13881,-3.73516
0.024,4598.71,-3052.9,8067.65,-2.1221,-1.13123,0.655115,4471.15,2976.01,8045.75,6.32585,-0.100993,-1.29429,-63.57,9730.11,-1251.05,-0.165712,1.80787,0.242725,491.718,-9844.98,-556.578,2.71177,6.82694,3.93034,-1732.59,9273.95,-2114.01,-0.371255,3.99123,4.32996,-2670.64,-9500.27,-1547.38,0.431765,20.5994,-14.6871,8845.18,1144.97,4263.54,-4.13004,-3.2594,-3.69822
0.025,4567.26,-3039.42,8052.52,-2.21488,-1.0452,0.650151,4449.57,2974.76,8049.31,6.28832,-0.148484,-1.31608,-67.0787,9735.09,-1220.29,-0.1951,1.73999,0.273876,486.063,-9865.64,-537.779,2.69777,6.47224,3.94444,-1741.7,9268.59,-2114.72,-0.280091,3.80125,4.26981,-2694.04,-9500.96,-1602.67,0.453061,21.5814,-14.79,8827.29,1147.71,4276.75,-4.07566,-3.37999,-3.66127
0.026,4535.81,-3025.94,8037.39,-2.30767,-0.959157,0.645188,4427.98,2973.51,8052.87,6.25079,-0.195974,-1.33787,-70.5873,9740.07,-1189.54,-0.224488,1.6721,0.305027,480.408,-9886.31,-518.979,2.68377,6.11753,3.95854,-1750.8,9263.24,-2115.43,-0.188928,3.61128,4.20967,-2717.45,-9501.65,-1657.96,0.474356,22.5635,-14.8929,8809.39,1150.44,4289.95,-4.02127,-3.50058,-3.62432
0.027,4514.13,-3014.63,8021.96,-2.34138,-0.9212,0.662944,4407.65,2973.57,8056.34,6.26617,-0.244082,-1.37144,-72.278,9743.41,-1173.53,-0.250796,1.58099,0.338071,477.673,-9903.04,-515.188,2.67938,5.76904,3.98371,-1752.93,9258.0,-2112.73,-0.116324,3.43166,4.14023,-2733.79,-9503.72,-1707.66,0.482165,23.6177,-15.0107,8791.71,1149.99,4297.43,-3.95432,-3.57289,-3.57648
0.028,4511.98,-3007.67,8005.93,-2.25696,-0.979406,0.726139,4389.86,2976.22,8059.6,6.38737,-0.293423,-1.42857,-70.3326,9743.48,-1187.01,-0.270944,1.44342,0.374901,480.775,-9911.89,-541.414,2.6942,5.43296,4.03103,-1741.12,9253.0,-2103.22,-0.080839,3.27277,4.05221,-2736.03,-9508.55,-1746.19,0.463,24.816,-15.1583,8774.47,1143.14,4293.48,-3.86223,-3.54864,-3.50683
0.029,4509.83,-3000.71,7989.89,-2.17254,-1.03761,0.789335,4372.06,2978.87,8062.86,6.50856,-0.342764,-1.4857,-68.3871,9743.56,-1200.49,-0.291092,1.30585,0.411731,483.877,-9920.73,-567.64,2.70902,5.09688,4.07834,-1729.31,9248.0,-2093.7,-0.0453544,3.11388,3.96418,-2738.27,-9513.38,-1784.73,0.443836,26.0143,-15.3058,8757.23,1136.29,4289.54,-3.77014,-3.52439,-3.43718
0.03,4507.69,-2993.74,7973.86,-2.08812,-1.09582,0.85253,4354.27,2981.52,8066.13,6.62976,-0.392105,-1.54283,-66.4417,9743.63,-1213.98,-0.311239,1.16828,0.448561,486.979,-9929.58,-593.866,2.72385,4.7608,4.12566,-1717.5,9243.0,-2084.19,-0.00986982,2.95499,3.87616,-2740.51,-9518.21,-1823.26,0.424671,27.2127,-15.4534,8739.98,1129.44,4285.59,-3.67805,-3.50014,-3.36753
0.031,4505.54,-2986.78,7957.83,-2.0037,-1.15402,0.915726,4336.47,2984.17,8069.39,6.75095,-0.441446,-1.59996,-64.4963,9743.71,-1227.46,-0.331387,1.03071,0.485391,490.082,-9938.43,-620.092,2.73867,4.42472,4.17298,-1705.68,9238.0,-2074.67,0.0256148,2.79609,3.78814,-2742.75,-9523.04,-1861.79,0.405507,28.411,-15.6009,8722.74,1122.59,4281.64,-3.58595,-3.47589,-3.29788
0.032,4501.03,-3025.14,7969.14,-2.10919,-1.08521,0.980934,4343.64,3001.31,8076.24,6.71302,-0.439905,-1.62676,-54.2622,9725.17,-1238.37,-0.389036,0.903793,0.446425,478.685,-9952.98,-649.013,2.81851,4.30188,4.12493,-1698.15,9240.47,-2073.43,0.0499329,2.65677,3.66063,-2747.53,-9534.91,-1887.02,0.529668,29.7913,-15.7778,8722.65,1108.69,4260.82,-3.6068,-3.49194,-3.21612
0.033,4496.21,-3069.16,7983.86,-2.23842,-1.00051,1.04639,4353.92,3020.25,8083.54,6.65521,-0.432004,-1.64977,-42.992,9704.31,-1248.96,-0.451373,0.778203,0.397984,465.475,-9968.24,-678.271,2.90647,4.2057,4.06497,-1691.16,9243.88,-2073.23,0.0728553,2.5199,3.52819,-2752.64,-9547.66,-1910.59,0.671746,31.1944,-15.9584,8724.71,1093.91,4237.9,-3.64177,-3.51303,-3.13285
0.034,4491.4,-3113.19,7998.59,-2.36765,-0.915813,1.11185,4364.21,3039.19,8090.85,6.59739,-0.424103,-1.67277,-31.7219,9683.45,-1259.55,-0.513709,0.652614,0.349544,452.266,-9983.51,-707.528,2.99444,4.10952,4.005,-1684.16,9247.29,-2073.03,0.0957777,2.38303,3.39574,-2757.75,-9560.4,-1934.16,0.813824,32.5975,-16.139,8726.76,1079.13,4214.97,-3.67674,-3.53412,-3.04958
0.035,4486.59,-3157.21,8013.31,-2.49688,-0.831116,1.17731,4374.5,3058.14,8098.15,6.53957,-0.416203,-1.69578,-20.4517,9662.59,-1270.14,-0.576046,0.527024,0.301104,439.057,-9998.77,-736.786,3.0824,4.01333,3.94504,-1677.17,9250.69,-2072.84,0.1187,2.24616,3.2633,-2762.86,-9573.14,-1957.72,0.955902,34.0006,-16.3196,8728.82,1064.35,4192.05,-3.7117,-3.55521,-2.96631
0.036,4489.34,-3181.5,8017.31,-2.52873,-0.776913,1.14703,4377.56,3073.84,8104.15,6.42189,-0.417448,-1.73377,-21.0264,9653.0,-1273.91,-0.591339,0.401308,0.277775,446.445,-9988.89,-753.985,3.08992,4.01309,3.95428,-1666.21,9260.36,-2069.57,0.147814,2.11903,3.14592,-2766.94,-9580.63,-1976.93,1.16846,35.4036,-16.477,8749.33,1055.16,4179.41,-3.71675,-3.60633,-2.92159
0.037,4501.55,-3181.11,8007.89,-2.43885,-0.760827,0.997066,4371.61,3085.5,8108.51,6.22938,-0.430128,-1.79049,-36.4072,9657.5,-1269.14,-0.547828,0.275432,0.285837,479.581,-9947.56,-756.111,2.99689,4.13277,4.05002,-1650.29,9277.85,-2062.49,0.184668,2.00407,3.04738,-2769.76,-9581.54,-1990.68,1.46911,36.8065,-16.6054,8792.92,1052.95,4179.65,-3.68439,-3.69499,-2.92504
0.038,4513.76,-3180.73,7998.47,-2.34897,-0.744741,0.847102,4365.66,3097.16,8112.88,6.03687,-0.442807,-1.84721,-51.788,9662.01,-1264.36,-0.504317,0.149556,0.293899,512.717,-9906.24,-758.237,2.90386,4.25244,4.14576,-1634.37,9295.33,-2055.4,0.221522,1.88912,2.94883,-2772.57,-9582.45,-2004.43,1.76977,38.2094,-16.7337,8836.5,1050.73,4179.89,-3.65202,-3.78366,-2.92849
0.039,4525.97,-3180.35,7989.06,-2.2591,-0.728655,0.697139,4359.71,3108.81,8117.24,5.84436,-0.455486,-1.90393,-67.1688,9666.51,-1259.59,-0.460806,0.0236802,0.301961,545.853,-9864.92,-760.363,2.81083,4.37212,4.2415,-1618.45,9312.82,-2048.32,0.258376,1.77416,2.85028,-2775.39,-9583.36,-2018.18,2.07042,39.6123,-16.8621,8880.09,1048.52,4180.13,-3.61966,-3.87232,-2.93195
0.04,4538.18,-3179.97,7979.64,-2.16922,-0.712568,0.547175,4353.75,3120.47,8121.61,5.65185,-0.468166,-1.96066,-82.5496,9671.02,-1254.82,-0.417295,-0.102196,0.310023,578.988,-9823.6,-762.49,2.7178,4.4918,4.33723,-1602.53,9330.31,-2041.23,0.29523,1.65921,2.75174,-2778.2,-9584.28,-2031.92,2.37107,41.0153,-16.9904,8923.67,1046.31,4180.36,-3.5873,-3.96098,-2.9354
0.041,4529.59,-3161.86,7990.18,-2.05379,-0.675395,0.606847,4348.87,3125.64,8123.85,5.68737,-0.456939,-1.97612,-89.8632,9672.17,-1264.84,-0.380429,-0.268414,0.335671,589.854,-9826.25,-746.613,2.70009,4.55205,4.30869,-1591.8,9334.62,-2037.63,0.316073,1.5127,2.77149,-2783.5,-9570.38,-2016.37,2.79823,42.2791,-17.0433,8919.08,1038.7,4166.68,-3.53339,-3.87222,-2.92811
0.042,4521.01,-3143.74,8000.71,-1.93835,-0.638222,0.666518,4343.98,3130.8,8126.08,5.72289,-0.445712,-1.99159,-97.1767,9673.32,-1274.87,-0.343564,-0.434633,0.36132,600.72,-9828.9,-730.736,2.68239,4.61229,4.28015,-1581.08,9338.92,-2034.03,0.336915,1.36619,2.79125,-2788.79,-9556.48,-2000.82,3.22538,43.543,-17.0962,8914.48,1031.09,4153.0,-3.47947,-3.78346,-2.92082
0.043,4512.43,-3125.62,8011.25,-1.82292,-0.601048,0.72619,4339.1,3135.97,8128.32,5.7584,-0.434485,-2.00706,-104.49,9674.47,-1284.89,-0.306698,-0.600851,0.386969,611.586,-9831.55,-714.859,2.66469,4.67254,4.25161,-1570.35,9343.23,-2030.43,0.357758,1.21968,2.811,-2794.09,-9542.59,-1985.27,3.65253,44.8068,-17.1491,8909.88,1023.49,4139.32,-3.42556,-3.6947,-2.91353
0.044,4503.84,-3107.51,8021.79,-1.70749,-0.563875,0.785861,4334.21,3141.14,8130.56,5.79392,-0.423258,-2.02252,-111.804,9675.63,-1294.92,-0.269833,-0.76707,0.412618,622.452,-9834.2,-698.982,2.64698,4.73279,4.22306,-1559.62,9347.54,-2026.83,0.3786,1.07317,2.83076,-2799.38,-9528.69,-1969.72,4.07968,46.0707,-17.202,8905.28,1015.88,4125.64,-3.37164,-3.60594,-2.90624
0.045,4510.5,-3096.24,8032.59,-1.63849,-0.501109,0.774607,4335.44,3129.21,8115.74,5.7554,-0.333642,-1.97875,-108.448,9678.13,-1292.73,-0.283363,-0.852038,0.429085,626.576,-9840.14,-681.888,2.65306,4.72228,4.23326,-1555.39,9350.32,-2026.46,0.386733,0.896128,2.84923,-2783.19,-9501.8,-1965.14,4.46669,47.3792,-17.2208,8891.75,1027.76,4127.47,-3.32455,-3.50156,-2.79929
0.046,4529.35,-3090.46,8043.6,-1.60663,-0.41787,0.706612,4341.57,3103.61,8087.28,5.65765,-0.181315,-1.88759,-96.5565,9681.71,-1280.76,-0.337209,-0.872007,0.438206,625.306,-9848.71,-663.82,2.67817,4.65517,4.27445,-1556.36,9351.89,-2028.68,0.384698,0.69466,2.86668,-2749.81,-9464.5,-1969.36,4.82158,48.7233,-17.2125,8871.08,1055.22,4141.71,-3.28291,-3.38469,-2.6126
0.047,4548.2,-3084.67,8054.62,-1.57477,-0.334631,0.638617,4347.69,3078.0,8058.81,5.55991,-0.0289874,-1.79643,-84.6652,9685.28,-1268.8,-0.391055,-0.891976,0.447327,624.036,-9857.28,-645.752,2.70328,4.58806,4.31564,-1557.33,9353.46,-2030.89,0.382663,0.493192,2.88413,-2716.43,-9427.21,-1973.57,5.17648,50.0675,-17.2041,8850.41,1082.69,4155.95,-3.24128,-3.26782,-2.4259
0.048,4567.05,-3078.89,8065.63,-1.54291,-0.251391,0.570621,4353.81,3052.4,8030.34,5.46216,0.12334,-1.70527,-72.7738,9688.86,-1256.84,-0.444901,-0.911944,0.456449,622.766,-9865.85,-627.684,2.72839,4.52095,4.35683,-1558.3,9355.02,-2033.1,0.380628,0.291724,2.90158,-2683.05,-9389.92,-1977.78,5.53137,51.4116,-17.1958,8829.74,1110.15,4170.18,-3.19964,-3.15095,-2.23921
0.049,4583.48,-3074.87,8074.83,-1.5256,-0.169621,0.501009,4358.78,3029.81,8004.2,5.34494,0.25569,-1.62172,-61.4091,9692.54,-1245.7,-0.49082,-0.932307,0.471705,623.93,-9872.64,-613.546,2.75605,4.45306,4.39212,-1559.18,9357.04,-2037.39,0.380671,0.0929603,2.90939,-2653.77,-9355.37,-1984.47,5.87823,52.7577,-17.1822,8813.51,1134.31,4181.27,-3.16025,-3.04747,-2.07239
0.05,4580.58,-3085.03,8069.49,-1.62467,-0.0996027,0.418457,4354.45,3031.35,7996.59,5.07199,0.228224,-1.59909,-54.2579,9697.05,-1241.11,-0.473315,-0.955825,0.536042,644.565,-9865.21,-630.845,2.8041,4.3789,4.3802,-1559.4,9362.68,-2058.27,0.397337,-0.0841645,2.84014,-2657.34,-9342.76,-2010.98,6.16077,54.1196,-17.1268,8832.78,1131.98,4167.16,-3.13878,-3.05114,-2.06456
0.051,4577.67,-3095.18,8064.15,-1.72374,-0.0295843,0.335905,4350.13,3032.89,7988.99,4.79904,0.200758,-1.57647,-47.1067,9701.56,-1236.52,-0.455811,-0.979343,0.600379,665.2,-9857.77,-648.143,2.85216,4.30474,4.36827,-1559.62,9368.33,-2079.14,0.414004,-0.261289,2.77089,-2660.91,-9330.16,-2037.48,6.44331,55.4814,-17.0715,8852.04,1129.66,4153.05,-3.11731,-3.05482,-2.05672
0.052,4574.77,-3105.34,8058.8,-1.82281,0.0404341,0.253353,4345.81,3034.42,7981.39,4.52609,0.173292,-1.55384,-39.9555,9706.07,-1231.94,-0.438307,-1.00286,0.664716,685.835,-9850.33,-665.441,2.90021,4.23058,4.35635,-1559.85,9373.97,-2100.02,0.43067,-0.438414,2.70164,-2664.47,-9317.56,-2063.98,6.72585,56.8432,-17.0161,8871.31,1127.33,4138.94,-3.09584,-3.05849,-2.04889
0.053,4571.87,-3115.5,8053.46,-1.92188,0.110452,0.170801,4341.48,3035.96,7973.79,4.25315,0.145826,-1.53121,-32.8043,9710.58,-1227.35,-0.420802,-1.02638,0.729053,706.47,-9842.9,-682.74,2.94826,4.15642,4.34443,-1560.07,9379.61,-2120.89,0.447337,-0.615539,2.63239,-2668.04,-9304.95,-2090.48,7.00839,58.2051,-16.9607,8890.58,1125.0,4124.83,-3.07437,-3.06217,-2.04105
0.054,4572.21,-3111.22,8043.56,-1.89751,0.141182,0.196873,4340.89,3075.3,7984.33,4.11424,0.0883618,-1.49695,-27.0211,9711.68,-1236.32,-0.372767,-1.04043,0.785507,698.896,-9839.79,-714.111,3.01407,4.1931,4.36622,-1567.16,9384.26,-2127.66,0.495422,-0.733158,2.60088,-2678.77,-9292.63,-2103.52,7.20669,59.6292,-16.7899,8895.23,1120.26,4115.32,-3.15345,-3.09115,-1.978
0.055,4574.16,-3099.72,8031.38,-1.81141,0.152267,0.277258,4342.16,3133.54,8003.93,4.04237,0.0158985,-1.45687,-21.922,9711.07,-1252.08,-0.309466,-1.04976,0.83802,677.217,-9838.85,-752.52,3.08876,4.28521,4.40486,-1577.69,9388.42,-2127.38,0.559217,-0.821024,2.58825,-2693.09,-9280.46,-2109.83,7.36286,61.0846,-16.5613,8892.58,1114.31,4108.11,-3.2828,-3.13278,-1.88734
0.056,4576.11,-3088.23,8019.19,-1.72532,0.163353,0.357644,4343.43,3191.78,8023.54,3.97049,-0.0565648,-1.4168,-16.8229,9710.46,-1267.83,-0.246165,-1.05908,0.890532,655.539,-9837.91,-790.929,3.16344,4.37731,4.4435,-1588.23,9392.58,-2127.09,0.623012,-0.90889,2.57561,-2707.41,-9268.28,-2116.14,7.51902,62.5399,-16.3327,8889.92,1108.35,4100.9,-3.41216,-3.17442,-1.79669
0.057,4578.07,-3076.73,8007.01,-1.63923,0.174438,0.438029,4344.7,3250.03,8043.15,3.89861,-0.129028,-1.37672,-11.7238,9709.85,-1283.58,-0.182864,-1.0684,0.943045,633.86,-9836.97,-829.337,3.23813,4.46942,4.48213,-1598.76,9396.73,-2126.81,0.686807,-0.996756,2.56297,-2721.73,-9256.1,-2122.45,7.67519,63.9953,-16.1041,8887.27,1102.4,4093.68,-3.54151,-3.21605,-1.70603
0.058,4578.6,-3072.38,7996.57,-1.54161,0.181757,0.504285,4347.01,3294.53,8058.05,3.85195,-0.183781,-1.32093,-9.9062,9708.18,-1297.02,-0.121693,-1.07289,0.986561,612.201,-9830.77,-855.603,3.32262,4.60268,4.52685,-1606.31,9400.87,-2127.77,0.759396,-1.0774,2.5415,-2731.18,-9244.19,-2124.56,7.78864,65.451,-15.9071,8879.1,1102.41,4089.77,-3.65684,-3.27383,-1.62697
0.059,4574.19,-3093.05,7992.21,-1.40366,0.175894,0.52109,4352.93,3290.96,8056.5,3.89355,-0.176548,-1.21014,-19.5737,9702.79,-1302.36,-0.0679777,-1.06046,0.998588,590.608,-9806.13,-839.371,3.44141,4.87999,4.59283,-1603.42,9404.96,-2133.1,0.862762,-1.13277,2.4891,-2723.59,-9233.19,-2111.98,7.75257,66.9081,-15.8205,8851.64,1123.31,4097.37,-3.72308,-3.38813,-1.58848
0.06,4569.77,-3113.72,7987.86,-1.26571,0.170031,0.537895,4358.85,3287.39,8054.94,3.93515,-0.169315,-1.09936,-29.2413,9697.4,-1307.7,-0.0142624,-1.04803,1.01061,569.016,-9781.5,-823.138,3.56021,5.1573,4.65882,-1600.54,9409.06,-2138.44,0.966129,-1.18814,2.4367,-2715.99,-9222.19,-2099.4,7.7165,68.3653,-15.7339,8824.17,1144.22,4104.98,-3.78932,-3.50242,-1.55
0.061,4565.35,-3134.39,7983.5,-1.12777,0.164168,0.554699,4364.77,3283.81,8053.39,3.97675,-0.162082,-0.988576,-38.9088,9692.01,-1313.04,0.0394529,-1.0356,1.02264,547.423,-9756.87,-806.906,3.679,5.43461,4.7248,-1597.66,9413.15,-2143.77,1.06949,-1.24351,2.3843,-2708.4,-9211.19,-2086.82,7.68043,69.8224,-15.6473,8796.71,1165.12,4112.58,-3.85557,-3.61671,-1.51152
0.062,4560.94,-3155.05,7979.15,-0.98982,0.158304,0.571504,4370.69,3280.24,8051.84,4.01835,-0.154849,-0.877792,-48.5764,9686.63,-1318.37,0.0931682,-1.02317,1.03467,525.831,-9732.23,-790.674,3.7978,5.71192,4.79079,-1594.77,9417.24,-2149.1,1.17286,-1.29888,2.3319,-2700.8,-9200.19,-2074.24,7.64435,71.2795,-15.5606,8769.24,1186.02,4120.19,-3.9218,-3.73101,-1.47303
0.063,4559.75,-3158.34,7982.86,-0.915949,0.156945,0.580078,4381.66,3228.69,8049.56,4.10915,-0.136172,-0.788831,-58.4925,9684.94,-1315.0,0.137529,-1.07161,0.999775,544.07,-9736.31,-762.998,3.85053,5.76305,4.69533,-1590.54,9401.14,-2153.24,1.18506,-1.29368,2.35525,-2674.16,-9183.79,-2040.4,7.59083,72.4903,-15.5522,8765.56,1196.63,4109.58,-4.04819,-3.83159,-1.43172
0.064,4559.49,-3156.67,7988.88,-0.860385,0.156872,0.5863,4394.06,3163.44,8047.08,4.214,-0.114226,-0.706105,-68.4796,9684.32,-1309.15,0.179218,-1.13745,0.951478,573.689,-9748.59,-732.053,3.88438,5.74956,4.55375,-1585.92,9379.28,-2157.04,1.17122,-1.27119,2.40024,-2642.07,-9165.85,-2000.49,7.53233,73.6306,-15.5661,8768.68,1204.29,4093.77,-4.19176,-3.92826,-1.38961
0.065,4559.22,-3154.99,7994.9,-0.804822,0.156799,0.592523,4406.47,3098.18,8044.6,4.31885,-0.09228,-0.623379,-78.4667,9683.69,-1303.29,0.220907,-1.20329,0.903181,603.308,-9760.87,-701.107,3.91823,5.73607,4.41217,-1581.31,9357.42,-2160.84,1.15738,-1.2487,2.44523,-2609.99,-9147.91,-1960.57,7.47383,74.771,-15.58,8771.8,1211.95,4077.96,-4.33533,-4.02493,-1.3475
0.066,4558.96,-3153.31,8000.92,-0.749258,0.156726,0.598745,4418.87,3032.92,8042.11,4.42371,-0.0703339,-0.540653,-88.4538,9683.07,-1297.43,0.262595,-1.26912,0.854883,632.927,-9773.15,-670.162,3.95209,5.72258,4.27059,-1576.69,9335.56,-2164.64,1.14353,-1.2262,2.49022,-2577.91,-9129.97,-1920.66,7.41532,75.9113,-15.5939,8774.92,1219.61,4062.15,-4.4789,-4.1216,-1.30538
0.067,4563.11,-3146.34,8013.45,-0.730374,0.18261,0.582991,4431.75,2980.78,8040.31,4.50607,-0.0449287,-0.490813,-92.7291,9681.33,-1290.75,0.257725,-1.3052,0.789415,646.783,-9788.38,-635.841,4.0116,5.64541,4.19876,-1569.85,9321.06,-2166.71,1.13122,-1.22027,2.52253,-2568.83,-9120.17,-1866.77,7.45763,76.8586,-15.634,8778.92,1224.52,4052.56,-4.58137,-4.18177,-1.25524
0.068,4576.1,-3128.78,8038.99,-0.784849,0.26041,0.523286,4445.58,2954.9,8039.85,4.54344,-0.0126051,-0.506749,-85.5808,9677.35,-1282.42,0.159737,-1.28177,0.689605,629.111,-9809.49,-594.768,4.12244,5.44087,4.26642,-1558.56,9321.26,-2165.29,1.12196,-1.24746,2.52949,-2605.78,-9126.64,-1784.94,7.70155,77.4197,-15.7267,8784.7,1223.93,4055.41,-4.60163,-4.16894,-1.18905
0.069,4589.08,-3111.22,8064.54,-0.839324,0.338209,0.46358,4459.41,2929.01,8039.39,4.5808,0.0197185,-0.522684,-78.4324,9673.38,-1274.1,0.0617488,-1.25834,0.589795,611.439,-9830.61,-553.695,4.23327,5.23632,4.33409,-1547.26,9321.47,-2163.88,1.11271,-1.27466,2.53645,-2642.73,-9133.11,-1703.1,7.94548,77.9808,-15.8194,8790.48,1223.35,4058.26,-4.62188,-4.15611,-1.12286
0.07,4602.07,-3093.66,8090.08,-0.893798,0.416009,0.403875,4473.24,2903.12,8038.93,4.61817,0.0520421,-0.53862,-71.2841,9669.41,-1265.77,-0.0362392,-1.2349,0.489986,593.767,-9851.73,-512.622,4.34411,5.03178,4.40175,-1535.97,9321.68,-2162.47,1.10346,-1.30186,2.54341,-2679.68,-9139.59,-1621.27,8.18941,78.5419,-15.9121,8796.26,1222.76,4061.12,-4.64214,-4.14329,-1.05667
0.071,4615.06,-3076.11,8115.62,-0.948273,0.493808,0.344169,4487.07,2877.23,8038.47,4.65554,0.0843657,-0.554555,-64.1357,9665.44,-1257.45,-0.134227,-1.21147,0.390176,576.095,-9872.85,-471.549,4.45494,4.82723,4.46941,-1524.68,9321.88,-2161.05,1.09421,-1.32905,2.55037,-2716.62,-9146.06,-1539.44,8.43333,79.103,-16.0048,8802.04,1222.17,4063.97,-4.6624,-4.13046,-0.99048
0.072,4591.21,-3069.24,8097.92,-1.04063,0.493895,0.324812,4483.14,2906.08,8029.45,4.52841,0.0381385,-0.572172,-44.7244,9670.71,-1247.2,-0.169015,-1.1522,0.436751,542.267,-9870.98,-495.384,4.46616,4.81045,4.49885,-1513.2,9333.79,-2143.63,1.07485,-1.28754,2.51329,-2739.88,-9153.48,-1443.24,8.8527,78.7958,-16.0016,8804.07,1230.2,4062.64,-4.6496,-4.25562,-0.99843
0.073,4562.75,-3063.71,8074.82,-1.13773,0.484268,0.310498,4476.99,2941.78,8019.36,4.38072,-0.0179076,-0.589999,-23.7802,9677.13,-1236.71,-0.195902,-1.08846,0.501624,506.419,-9866.23,-527.332,4.46492,4.81714,4.52351,-1501.7,9347.15,-2124.21,1.05424,-1.23744,2.47071,-2761.42,-9161.01,-1345.26,9.29399,78.38,-15.9865,8805.64,1239.31,4060.79,-4.63267,-4.39803,-1.01565
0.074,4534.3,-3058.17,8051.72,-1.23482,0.474641,0.296184,4470.84,2977.48,8009.27,4.23302,-0.0739537,-0.607827,-2.83604,9683.55,-1226.22,-0.222789,-1.02472,0.566496,470.57,-9861.49,-559.281,4.46368,4.82384,4.54816,-1490.2,9360.52,-2104.79,1.03363,-1.18734,2.42813,-2782.97,-9168.55,-1247.27,9.73528,77.9642,-15.9714,8807.21,1248.41,4058.93,-4.61574,-4.54044,-1.03287
0.075,4505.84,-3052.64,8028.62,-1.33191,0.465014,0.28187,4464.69,3013.18,7999.17,4.08533,-0.13,-0.625654,18.1081,9689.98,-1215.73,-0.249677,-0.960979,0.631369,434.722,-9856.75,-591.229,4.46245,4.83053,4.57282,-1478.7,9373.88,-2085.36,1.01302,-1.13723,2.38555,-2804.51,-9176.08,-1149.28,10.1766,77.5484,-15.9562,8808.78,1257.52,4057.08,-4.59881,-4.68285,-1.05008
0.076,4498.28,-3048.68,8015.54,-1.41191,0.436669,0.283138,4447.27,3053.05,7989.09,3.92039,-0.146055,-0.62037,29.5968,9691.05,-1206.17,-0.273156,-0.888039,0.7211,412.168,-9846.88,-627.926,4.39705,4.85912,4.59772,-1476.46,9383.29,-2066.84,0.952986,-1.10198,2.37356,-2806.58,-9173.56,-1048.62,10.5819,76.7476,-15.9079,8812.43,1270.96,4056.31,-4.62714,-4.78003,-1.01962
0.077,4516.85,-3046.69,8014.99,-1.47052,0.384926,0.303884,4415.76,3098.13,7979.03,3.73389,-0.11212,-0.586195,29.266,9685.44,-1197.78,-0.292375,-0.803602,0.841903,406.231,-9830.62,-670.559,4.25144,4.9151,4.62292,-1485.78,9387.75,-2049.45,0.843678,-1.08527,2.39982,-2784.3,-9158.47,-944.628,10.9423,75.4657,-15.8181,8818.69,1289.83,4056.89,-4.71203,-4.82068,-0.929556
0.078,4535.41,-3044.69,8014.45,-1.52914,0.333183,0.324629,4384.24,3143.21,7968.97,3.54739,-0.078186,-0.552021,28.9352,9679.82,-1189.39,-0.311594,-0.719165,0.962706,400.294,-9814.35,-713.191,4.10584,4.97108,4.64813,-1495.11,9392.2,-2032.06,0.734371,-1.06857,2.42607,-2762.02,-9143.37,-840.632,11.3028,74.1837,-15.7283,8824.94,1308.7,4057.48,-4.79693,-4.86133,-0.839492
0.079,4553.97,-3042.69,8013.9,-1.58776,0.281441,0.345375,4352.73,3188.29,7958.91,3.36088,-0.0442517,-0.517847,28.6044,9674.21,-1181.0,-0.330813,-0.634728,1.08351,394.357,-9798.09,-755.824,3.96023,5.02706,4.67333,-1504.44,9396.66,-2014.67,0.625064,-1.05187,2.45232,-2739.74,-9128.28,-736.637,11.6632,72.9017,-15.6385,8831.2,1327.57,4058.06,-4.88182,-4.90197,-0.749428
0.08,4572.53,-3040.7,8013.35,-1.64638,0.229698,0.36612,4321.22,3233.37,7948.85,3.17438,-0.0103174,-0.483673,28.2736,9668.59,-1172.61,-0.350032,-0.550291,1.20431,388.42,-9781.83,-798.457,3.81462,5.08304,4.69854,-1513.76,9401.12,-1997.28,0.515757,-1.03516,2.47858,-2717.47,-9113.19,-632.641,12.0236,71.6197,-15.5487,8837.46,1346.44,4058.64,-4.96672,-4.94262,-0.659364
0.081,4591.21,-3079.14,8017.17,-1.5727,0.253115,0.340648,4293.82,3259.15,7950.59,2.97938,0.0918499,-0.508393,19.5694,9669.76,-1189.73,-0.346245,-0.561151,1.20924,406.282,-9787.25,-811.501,3.6841,5.21222,4.66332,-1526.52,9395.43,-2023.22,0.331823,-1.04028,2.39741,-2742.63,-9093.01,-568.264,12.1674,69.6474,-15.038,8809.29,1353.17,4049.47,-4.91089,-4.86475,-0.679067
0.082,4609.88,-3117.59,8020.99,-1.49902,0.276532,0.315175,4266.42,3284.94,7952.33,2.78439,0.194017,-0.533113,10.8653,9670.93,-1206.85,-0.342458,-0.572011,1.21417,424.144,-9792.67,-824.545,3.55357,5.3414,4.6281,-1539.27,9389.75,-2049.15,0.147889,-1.0454,2.31624,-2767.8,-9072.83,-503.887,12.3112,67.6751,-14.5272,8781.13,1359.89,4040.31,-4.85506,-4.78689,-0.698771
0.083,4628.56,-3156.04,8024.81,-1.42535,0.299949,0.289703,4239.01,3310.72,7954.07,2.58939,0.296185,-0.557833,2.16111,9672.1,-1223.97,-0.338672,-0.582871,1.2191,442.006,-9798.09,-837.589,3.42304,5.47058,4.59288,-1552.02,9384.06,-2075.09,-0.0360451,-1.05051,2.23508,-2792.97,-9052.65,-439.51,12.455,65.7028,-14.0165,8752.96,1366.62,4031.14,-4.79923,-4.70902,-0.718474
0.084,4647.24,-3194.49,8028.63,-1.35167,0.323367,0.264231,4211.61,3336.5,7955.81,2.39439,0.398352,-0.582553,-6.54304,9673.27,-1241.09,-0.334885,-0.59373,1.22403,459.868,-9803.51,-850.633,3.29251,5.59976,4.55766,-1564.77,9378.38,-2101.03,-0.219979,-1.05563,2.15391,-2818.13,-9032.47,-375.133,12.5988,63.7305,-13.5058,8724.79,1373.34,4021.97,-4.7434,-4.63116,-0.738177
0.085,4639.05,-3202.29,8033.9,-1.27687,0.335162,0.230468,4204.06,3346.4,7958.4,2.17542,0.422307,-0.572845,-8.79345,9675.47,-1256.37,-0.302322,-0.536307,1.17839,475.848,-9808.74,-851.226,3.19029,5.66782,4.50216,-1562.61,9368.82,-2110.79,-0.30445,-1.00926,2.10492,-2832.18,-8994.75,-325.072,12.6157,61.508,-12.8811,8726.6,1360.95,4005.83,-4.69593,-4.53632,-0.733938
0.086,4609.36,-3185.56,8040.35,-1.20118,0.337661,0.190074,4212.39,3343.6,7961.68,1.93727,0.383692,-0.535595,-5.88085,9678.49,-1270.17,-0.246737,-0.424256,1.09228,490.323,-9813.81,-841.857,3.11071,5.68697,4.43044,-1548.52,9356.15,-2107.59,-0.309351,-0.921696,2.08166,-2837.33,-8943.0,-286.465,12.5311,59.0855,-12.1653,8752.37,1333.26,3984.12,-4.65515,-4.4279,-0.710544
0.087,4579.67,-3168.83,8046.79,-1.12548,0.340159,0.149679,4220.71,3340.8,7964.95,1.69913,0.345077,-0.498345,-2.96825,9681.51,-1283.98,-0.191152,-0.312205,1.00618,504.799,-9818.88,-832.488,3.03113,5.70613,4.35872,-1534.44,9343.48,-2104.4,-0.314252,-0.834134,2.05841,-2842.48,-8891.25,-247.857,12.4465,56.6629,-11.4495,8778.15,1305.56,3962.41,-4.61436,-4.31948,-0.687149
0.088,4549.98,-3152.11,8053.23,-1.04978,0.342658,0.109285,4229.04,3338.0,7968.23,1.46098,0.306462,-0.461095,-0.0556583,9684.54,-1297.78,-0.135567,-0.200154,0.920074,519.274,-9823.94,-823.12,2.95154,5.72529,4.287,-1520.35,9330.81,-2101.21,-0.319153,-0.746571,2.03516,-2847.63,-8839.5,-209.25,12.3618,54.2404,-10.7336,8803.93,1277.87,3940.7,-4.57357,-4.21106,-0.663755
0.089,4523.23,-3136.53,8056.61,-0.9891,0.352383,0.0800442,4239.22,3334.27,7970.82,1.22264,0.26705,-0.414994,2.98693,9686.31,-1309.19,-0.0940598,-0.0879157,0.84124,532.38,-9830.29,-813.56,2.87957,5.73991,4.21773,-1503.79,9320.83,-2100.16,-0.331398,-0.664223,2.01807,-2854.7,-8790.23,-173.473,12.2546,51.8077,-10.0179,8826.74,1256.05,3921.03,-4.54693,-4.10615,-0.635796
0.09,4520.01,-3130.19,8035.51,-1.0485,0.419923,0.140036,4264.3,3323.07,7967.94,0.982705,0.221269,-0.298087,7.06943,9678.06,-1301.48,-0.165172,0.0258261,0.820568,534.535,-9846.8,-802.473,2.86845,5.71832,4.16814,-1467.48,9332.32,-2116.19,-0.402402,-0.623593,2.05026,-2877.18,-8760.72,-160.339,11.9665,49.2937,-9.30306,8825.8,1281.25,3917.68,-4.63338,-4.02939,-0.571319
0.091,4516.8,-3123.85,8014.41,-1.10791,0.487462,0.200027,4289.37,3311.87,7965.05,0.742769,0.175488,-0.181181,11.1519,9669.82,-1293.77,-0.236284,0.139568,0.799897,536.691,-9863.31,-791.385,2.85734,5.69674,4.11855,-1431.16,9343.82,-2132.22,-0.473406,-0.582963,2.08246,-2899.66,-8731.21,-147.206,11.6784,46.7796,-8.58823,8824.87,1306.45,3914.34,-4.71984,-3.95263,-0.506842
0.092,4513.58,-3117.51,7993.3,-1.16731,0.555001,0.260018,4314.45,3300.67,7962.17,0.502833,0.129707,-0.0642743,15.2344,9661.58,-1286.06,-0.307397,0.25331,0.779225,538.847,-9879.82,-780.297,2.84622,5.67515,4.06896,-1394.84,9355.32,-2148.25,-0.54441,-0.542333,2.11466,-2922.14,-8701.7,-134.072,11.3903,44.2656,-7.87339,8823.94,1331.65,3910.99,-4.80629,-3.87586,-0.442365
0.093,4510.37,-3111.16,7972.2,-1.22671,0.62254,0.320009,4339.52,3289.47,7959.29,0.262897,0.0839257,0.0526322,19.3169,9653.34,-1278.35,-0.378509,0.367051,0.758553,541.002,-9896.34,-769.209,2.8351,5.65356,4.01937,-1358.52,9366.82,-2164.28,-0.615414,-0.501703,2.14686,-2944.61,-8672.19,-120.939,11.1022,41.7516,-7.15856,8823.01,1356.85,3907.65,-4.89275,-3.7991,-0.377887
0.094,4520.62,-3103.23,7968.15,-1.26296,0.658131,0.331684,4357.01,3273.5,7966.12,0.0665797,0.0662138,0.118397,22.1317,9649.11,-1271.15,-0.365823,0.435877,0.714892,530.399,-9908.91,-759.352,2.8594,5.64594,4.02385,-1347.54,9369.3,-2161.65,-0.652481,-0.475573,2.11941,-2984.5,-8674.74,-149.554,10.6902,39.6342,-6.56342,8833.11,1349.5,3911.5,-4.91074,-3.76582,-0.371841
0.095,4537.61,-3094.5,7972.64,-1.28763,0.677748,0.3192,4370.7,3255.14,7977.82,-0.107928,0.0625366,0.158591,24.3127,9646.88,-1264.21,-0.311239,0.482246,0.659736,513.417,-9919.52,-750.111,2.9014,5.6453,4.05537,-1349.24,9367.26,-2149.69,-0.672579,-0.456692,2.06213,-3033.09,-8693.32,-199.042,10.2162,37.7152,-6.02814,8848.73,1325.88,3918.94,-4.8945,-3.75428,-0.395009
0.096,4554.6,-3085.77,7977.13,-1.3123,0.697365,0.306716,4384.4,3236.78,7989.51,-0.282435,0.0588593,0.198785,26.4936,9644.65,-1257.26,-0.256655,0.528614,0.60458,496.435,-9930.13,-740.869,2.9434,5.64467,4.08689,-1350.93,9365.23,-2137.72,-0.692678,-0.437811,2.00485,-3081.67,-8711.9,-248.531,9.74218,35.7961,-5.49286,8864.35,1302.26,3926.38,-4.87825,-3.74274,-0.418178
0.097,4571.58,-3077.04,7981.61,-1.33697,0.716982,0.294232,4398.09,3218.42,8001.21,-0.456942,0.0551821,0.238979,28.6746,9642.43,-1250.32,-0.20207,0.574982,0.549424,479.453,-9940.73,-731.627,2.98541,5.64404,4.1184,-1352.62,9363.2,-2125.76,-0.712776,-0.418931,1.94757,-3130.26,-8730.49,-298.02,9.2682,33.8771,-4.95757,8879.97,1278.64,3933.83,-4.86201,-3.7312,-0.441347
0.098,4585.05,-3073.19,7985.0,-1.3386,0.728504,0.303857,4405.74,3200.78,8007.95,-0.625212,0.0550138,0.274241,31.6736,9643.31,-1244.36,-0.144414,0.60363,0.503675,465.472,-9946.65,-720.887,3.00113,5.65438,4.12762,-1354.76,9362.32,-2114.23,-0.700074,-0.395971,1.90272,-3186.43,-8747.84,-352.576,8.76094,32.1005,-4.44785,8890.59,1258.61,3949.93,-4.86095,-3.7066,-0.452994
0.099,4586.21,-3086.45,7984.54,-1.25958,0.711691,0.390864,4392.24,3185.65,7997.35,-0.771653,0.0671264,0.29224,37.5362,9655.06,-1241.82,-0.0760042,0.570253,0.49085,461.997,-9936.16,-704.903,2.92491,5.70316,4.05881,-1358.49,9365.44,-2104.21,-0.572571,-0.358733,1.90135,-3269.13,-8760.9,-424.865,8.13724,30.8225,-4.02758,8883.69,1251.18,3996.35,-4.91307,-3.63628,-0.424316
0.1,4587.36,-3099.71,7984.08,-1.18056,0.694879,0.477871,4378.75,3170.52,7986.76,-0.918094,0.079239,0.310239,43.3988,9666.81,-1239.29,-0.00759474,0.536876,0.478025,458.523,-9925.67,-688.918,2.84868,5.75193,3.98999,-1362.23,9368.56,-2094.19,-0.445067,-0.321496,1.89999,-3351.82,-8773.96,-497.154,7.51354,29.5444,-3.60731,8876.8,1243.75,4042.77,-4.96519,-3.56597,-0.395638
0.101,4588.52,-3112.97,7983.61,-1.10154,0.678067,0.564878,4365.25,3155.38,7976.17,-1.06454,0.0913516,0.328237,49.2613,9678.57,-1236.75,0.0608147,0.503499,0.465201,455.048,-9915.18,-672.934,2.77245,5.80071,3.92117,-1365.96,9371.68,-2084.17,-0.317563,-0.284259,1.89862,-3434.52,-8787.02,-569.444,6.88985,28.2664,-3.18704,8869.9,1236.32,4089.18,-5.0173,-3.49566,-0.36696
0.102,4589.67,-3126.23,7983.15,-1.02252,0.661254,0.651885,4351.75,3140.25,7965.58,-1.21098,0.103464,0.346236,55.1239,9690.32,-1234.21,0.129224,0.470122,0.452376,451.573,-9904.69,-656.949,2.69622,5.84948,3.85235,-1369.69,9374.8,-2074.15,-0.190059,-0.247021,1.89726,-3517.22,-8800.08,-641.733,6.26615,26.9884,-2.76677,8863.0,1228.89,4135.6,-5.06942,-3.42534,-0.338282
0.103,4582.1,-3138.71,7981.95,-0.96791,0.654911,0.674599,4340.02,3134.63,7977.46,-1.3997,0.11333,0.28828,53.0378,9700.41,-1230.21,0.158615,0.349242,0.404293,451.077,-9901.97,-645.211,2.62237,5.78515,3.68601,-1373.04,9373.32,-2076.31,-0.212958,-0.244037,1.89918,-3572.65,-8805.69,-716.124,5.80173,26.1542,-2.52469,8871.71,1245.1,4118.61,-5.01497,-3.40034,-0.39183
0.104,4572.02,-3150.98,7980.53,-0.920279,0.651558,0.678943,4328.79,3131.74,7995.77,-1.60051,0.122553,0.208622,48.6806,9710.02,-1225.78,0.176857,0.203362,0.346136,451.432,-9901.47,-634.685,2.5492,5.68851,3.49181,-1376.28,9370.53,-2081.94,-0.278828,-0.250839,1.90204,-3620.29,-8809.16,-791.115,5.38282,25.4469,-2.33352,8884.88,1268.06,4083.5,-4.93009,-3.38827,-0.468871
0.105,4561.95,-3163.25,7979.11,-0.872647,0.648206,0.683287,4317.57,3128.84,8014.08,-1.80132,0.131776,0.128964,44.3234,9719.63,-1221.35,0.1951,0.0574815,0.28798,451.787,-9900.98,-624.159,2.47603,5.59186,3.2976,-1379.52,9367.74,-2087.58,-0.344699,-0.257641,1.90491,-3667.93,-8812.64,-866.106,4.96391,24.7396,-2.14235,8898.04,1291.03,4048.39,-4.8452,-3.37621,-0.545912
0.106,4551.88,-3175.51,7977.7,-0.825015,0.644854,0.687631,4306.35,3125.94,8032.38,-2.00213,0.140999,0.0493056,39.9662,9729.25,-1216.92,0.213342,-0.0883988,0.229823,452.142,-9900.48,-613.633,2.40287,5.49522,3.1034,-1382.76,9364.95,-2093.22,-0.410569,-0.264443,1.90777,-3715.56,-8816.11,-941.097,4.545,24.0323,-1.95117,8911.21,1314.0,4013.29,-4.76031,-3.36414,-0.622953
0.107,4540.11,-3176.65,7980.49,-0.79027,0.669142,0.678705,4302.31,3121.72,8041.19,-2.16801,0.115204,0.00366402,33.5358,9725.64,-1216.72,0.213942,-0.216719,0.184538,450.349,-9899.54,-598.495,2.32061,5.3796,2.96474,-1386.33,9363.78,-2095.16,-0.434884,-0.281465,1.91485,-3749.33,-8836.0,-996.655,4.18678,23.4182,-1.81509,8912.59,1329.27,3993.3,-4.67472,-3.34809,-0.706696
0.108,4524.94,-3155.55,7991.69,-0.781299,0.74871,0.643238,4312.65,3114.84,8030.98,-2.26405,0.0193705,0.0260555,22.9591,9695.58,-1225.0,0.179255,-0.30992,0.164998,444.26,-9897.69,-574.133,2.22016,5.22605,2.93719,-1390.54,9365.83,-2089.72,-0.376089,-0.318927,1.93034,-3755.36,-8888.72,-1013.35,3.94993,22.9904,-1.78918,8890.41,1329.15,4003.55,-4.58773,-3.32406,-0.803844
0.109,4509.76,-3134.45,8002.89,-0.772329,0.828278,0.607771,4322.98,3107.96,8020.78,-2.36009,-0.0764629,0.048447,12.3823,9665.52,-1233.27,0.144568,-0.403122,0.145457,438.172,-9895.85,-549.77,2.11972,5.07249,2.90964,-1394.76,9367.88,-2084.28,-0.317293,-0.35639,1.94583,-3761.39,-8941.44,-1030.04,3.71308,22.5626,-1.76326,8868.23,1329.03,4013.8,-4.50074,-3.30002,-0.900992
0.11,4494.59,-3113.34,8014.1,-0.763359,0.907846,0.572305,4333.32,3101.09,8010.58,-2.45613,-0.172296,0.0708385,1.80558,9635.47,-1241.54,0.109881,-0.496323,0.125917,432.083,-9894.01,-525.408,2.01927,4.91893,2.88209,-1398.97,9369.93,-2078.84,-0.258497,-0.393853,1.96132,-3767.41,-8994.16,-1046.73,3.47624,22.1348,-1.73735,8846.05,1328.91,4024.05,-4.41374,-3.27599,-0.99814
0.111,4479.42,-3092.24,8025.3,-0.754388,0.987413,0.536838,4343.66,3094.21,8000.38,-2.55217,-0.26813,0.0932299,-8.77116,9605.41,-1249.81,0.0751944,-0.589524,0.106376,425.994,-9892.16,-501.046,1.91883,4.76538,2.85454,-1403.19,9371.99,-2073.4,-0.199701,-0.431315,1.97682,-3773.44,-9046.87,-1063.42,3.23939,21.7071,-1.71144,8823.87,1328.79,4034.31,-4.32675,-3.25196,-1.09529
0.112,4474.19,-3103.77,8035.9,-0.728733,0.996247,0.491848,4351.95,3077.98,8003.35,-2.59241,-0.325465,0.105441,-10.6773,9591.0,-1264.71,0.127354,-0.605363,0.169268,420.775,-9891.3,-493.532,1.83284,4.57424,2.79632,-1393.44,9373.18,-2083.15,-0.22487,-0.410846,1.9416,-3785.93,-9084.32,-1046.6,3.06862,21.2629,-1.76967,8830.18,1324.91,4052.02,-4.22145,-3.27868,-1.1708
0.113,4470.21,-3119.37,8046.42,-0.700992,0.996239,0.445668,4359.98,3060.59,8007.98,-2.62568,-0.377989,0.11638,-11.4996,9578.55,-1280.44,0.190369,-0.611531,0.242464,415.664,-9890.57,-488.125,1.74866,4.37841,2.73426,-1381.96,9374.26,-2094.79,-0.260535,-0.383136,1.90005,-3799.23,-9119.85,-1025.59,2.90611,20.8167,-1.83842,8840.05,1320.55,4070.67,-4.11386,-3.31175,-1.24362
0.114,4466.23,-3134.98,8056.94,-0.67325,0.99623,0.399488,4368.02,3043.2,8012.6,-2.65895,-0.430512,0.127318,-12.3219,9566.1,-1296.17,0.253383,-0.617699,0.31566,410.553,-9889.83,-482.718,1.66448,4.18258,2.6722,-1370.47,9375.35,-2106.44,-0.296201,-0.355425,1.8585,-3812.52,-9155.38,-1004.58,2.7436,20.3705,-1.90718,8849.92,1316.19,4089.31,-4.00627,-3.34481,-1.31643
0.115,4462.25,-3150.58,8067.46,-0.645509,0.996222,0.353308,4376.05,3025.8,8017.23,-2.69222,-0.483036,0.138257,-13.1442,9553.65,-1311.89,0.316398,-0.623867,0.388856,405.442,-9889.09,-477.31,1.5803,3.98674,2.61014,-1358.98,9376.43,-2118.09,-0.331866,-0.327715,1.81695,-3825.82,-9190.92,-983.572,2.58109,19.9243,-1.97593,8859.79,1311.84,4107.96,-3.89868,-3.37788,-1.38924
0.116,4471.46,-3162.14,8071.76,-0.619887,1.00084,0.361754,4385.79,3018.84,8021.35,-2.72782,-0.498563,0.122403,-13.1987,9553.18,-1318.09,0.360615,-0.643451,0.387887,395.766,-9888.26,-475.389,1.54955,3.81251,2.57603,-1363.01,9384.92,-2128.5,-0.360882,-0.265482,1.75865,-3844.12,-9203.47,-970.81,2.39708,19.3746,-1.96854,8871.18,1303.19,4111.95,-3.75673,-3.33267,-1.44411
0.117,4497.18,-3168.64,8068.29,-0.596913,1.01124,0.438485,4397.65,3024.91,8024.87,-2.76634,-0.467844,0.0730565,-12.2932,9567.68,-1312.36,0.381335,-0.679805,0.29421,380.385,-9887.3,-477.827,1.58559,3.66529,2.57686,-1386.46,9402.68,-2137.36,-0.381586,-0.160095,1.67944,-3868.68,-9187.32,-968.357,2.1862,18.6955,-1.86598,8884.5,1289.17,4097.61,-3.57185,-3.18963,-1.47656
0.118,4522.89,-3175.14,8064.82,-0.57394,1.02163,0.515215,4409.52,3030.97,8028.38,-2.80486,-0.437125,0.0237106,-11.3877,9582.17,-1306.64,0.402054,-0.716159,0.200533,365.003,-9886.34,-480.264,1.62163,3.51806,2.57768,-1409.9,9420.43,-2146.22,-0.402291,-0.0547079,1.60023,-3893.23,-9171.16,-965.904,1.97532,18.0164,-1.76342,8897.81,1275.15,4083.28,-3.38696,-3.04659,-1.50901
0.119,4548.61,-3181.64,8061.35,-0.550966,1.03203,0.591945,4421.38,3037.04,8031.89,-2.84338,-0.406407,-0.0256354,-10.4823,9596.67,-1300.91,0.422774,-0.752513,0.106856,349.622,-9885.39,-482.702,1.65767,3.37084,2.5785,-1433.34,9438.19,-2155.09,-0.422995,0.050679,1.52101,-3917.79,-9155.0,-963.45,1.76444,17.3372,-1.66085,8911.12,1261.14,4068.94,-3.20208,-2.90355,-1.54146
0.12,4574.32,-3188.14,8057.88,-0.527992,1.04243,0.668676,4433.25,3043.11,8035.41,-2.8819,-0.375688,-0.0749813,-9.57681,9611.17,-1295.19,0.443493,-0.788867,0.0131791,334.24,-9884.43,-485.139,1.69371,3.22362,2.57932,-1456.78,9455.94,-2163.95,-0.443699,0.156066,1.4418,-3942.34,-9138.84,-960.997,1.55356,16.6581,-1.55829,8924.44,1247.12,4054.61,-3.01719,-2.76051,-1.57392
0.121,4573.3,-3162.19,8048.88,-0.523938,1.08148,0.651606,4412.38,3042.85,8039.44,-2.90104,-0.376913,-0.0428004,-9.57681,9618.77,-1287.42,0.429597,-0.824018,0.0507591,333.207,-9902.0,-480.915,1.60274,3.09589,2.52249,-1437.93,9442.03,-2164.32,-0.399508,0.230064,1.40932,-3892.71,-9126.71,-937.296,1.31955,15.771,-1.50185,8935.55,1255.34,4055.65,-2.84783,-2.66874,-1.66396
0.122,4572.28,-3136.23,8039.87,-0.519884,1.12052,0.634536,4391.5,3042.6,8043.47,-2.92019,-0.378139,-0.0106195,-9.57681,9626.37,-1279.66,0.415701,-0.85917,0.0883391,332.173,-9919.58,-476.691,1.51177,2.96816,2.46566,-1419.08,9428.11,-2164.7,-0.355317,0.304062,1.37685,-3843.07,-9114.58,-913.595,1.08553,14.8838,-1.4454,8946.66,1263.56,4056.69,-2.67847,-2.57697,-1.75401
0.123,4571.25,-3110.28,8030.86,-0.515831,1.15957,0.617466,4370.63,3042.34,8047.5,-2.93933,-0.379364,0.0215615,-9.57681,9633.98,-1271.9,0.401805,-0.894321,0.125919,331.139,-9937.15,-472.467,1.4208,2.84042,2.40883,-1400.24,9414.19,-2165.08,-0.311126,0.37806,1.34438,-3793.44,-9102.45,-889.894,0.85152,13.9966,-1.38896,8957.77,1271.78,4057.73,-2.50912,-2.4852,-1.84406
0.124,4570.23,-3084.33,8021.85,-0.511777,1.19862,0.600397,4349.75,3042.08,8051.52,-2.95847,-0.380589,0.0537424,-9.57681,9641.58,-1264.14,0.387908,-0.929472,0.163499,330.105,-9954.72,-468.242,1.32983,2.71269,2.352,-1381.39,9400.28,-2165.45,-0.266935,0.452057,1.31191,-3743.8,-9090.33,-866.193,0.617507,13.1095,-1.33251,8968.89,1280.0,4058.77,-2.33976,-2.39343,-1.93411
0.125,4562.59,-3072.24,8019.38,-0.486823,1.20408,0.588585,4349.0,3036.92,8050.8,-3.01803,-0.435064,0.0583323,-22.7044,9638.17,-1258.56,0.345169,-0.972073,0.178508,337.148,-9967.89,-460.891,1.23596,2.60424,2.22563,-1382.35,9387.77,-2153.87,-0.284727,0.464561,1.31252,-3717.85,-9073.24,-848.243,0.395586,12.113,-1.24448,8963.94,1276.51,4044.01,-2.30504,-2.30639,-1.93005
0.126,4549.67,-3071.25,8022.15,-0.44515,1.18266,0.58098,4364.33,3027.83,8046.27,-3.10993,-0.532138,0.0408494,-46.334,9625.96,-1254.74,0.279356,-1.02063,0.17546,350.652,-9977.53,-451.037,1.13977,2.51122,2.04362,-1399.15,9376.38,-2132.71,-0.352106,0.427869,1.33959,-3710.84,-9052.19,-834.894,0.18334,11.0292,-1.13118,8946.14,1263.66,4016.61,-2.37804,-2.22312,-1.8507
0.127,4536.74,-3070.25,8024.92,-0.403477,1.16125,0.573375,4379.66,3018.74,8041.73,-3.20183,-0.629212,0.0233665,-69.9637,9613.75,-1250.92,0.213543,-1.06919,0.172412,364.155,-9987.16,-441.184,1.04358,2.41819,1.86161,-1415.95,9365.0,-2111.56,-0.419485,0.391177,1.36667,-3703.84,-9031.14,-821.545,-0.0289056,9.94529,-1.01788,8928.34,1250.8,3989.21,-2.45103,-2.13986,-1.77135
0.128,4523.81,-3069.26,8027.69,-0.361804,1.13984,0.565771,4394.99,3009.65,8037.2,-3.29373,-0.726286,0.00588363,-93.5933,9601.54,-1247.1,0.147729,-1.11775,0.169364,377.659,-9996.8,-431.33,0.947395,2.32517,1.6796,-1432.75,9353.61,-2090.41,-0.486864,0.354485,1.39374,-3696.84,-9010.08,-808.197,-0.241152,8.86143,-0.904573,8910.54,1237.95,3961.81,-2.52403,-2.0566,-1.692
0.129,4514.46,-3068.15,8029.88,-0.31627,1.12465,0.551882,4410.93,3001.66,8033.76,-3.38103,-0.812332,-0.0202802,-113.052,9590.68,-1243.33,0.0928592,-1.1624,0.164367,391.57,-10003.8,-421.866,0.853292,2.21969,1.51923,-1449.26,9342.8,-2072.16,-0.538377,0.334863,1.41323,-3686.63,-8994.52,-795.753,-0.455653,7.79067,-0.777871,8898.42,1224.39,3939.52,-2.60821,-1.96909,-1.61634
0.13,4533.69,-3066.1,8027.44,-0.23985,1.15928,0.487719,4431.65,3002.43,8039.03,-3.43161,-0.810161,-0.115892,-99.1412,9590.62,-1240.06,0.125533,-1.17579,0.143778,408.745,-9989.68,-415.516,0.775877,2.01463,1.53199,-1463.47,9336.56,-2077.19,-0.462965,0.451801,1.37202,-3650.83,-9022.91,-790.55,-0.688196,6.82468,-0.543971,8931.78,1205.14,3958.07,-2.78188,-1.84756,-1.57021
0.131,4552.92,-3064.05,8024.99,-0.16343,1.19391,0.423557,4452.37,3003.21,8044.3,-3.48218,-0.807989,-0.211504,-85.2306,9590.56,-1236.79,0.158208,-1.18917,0.12319,425.92,-9975.56,-409.166,0.698462,1.80956,1.54475,-1477.68,9330.31,-2082.22,-0.387554,0.56874,1.33081,-3615.04,-9051.29,-785.347,-0.920739,5.8587,-0.310072,8965.13,1185.89,3976.62,-2.95554,-1.72604,-1.52409
0.132,4572.16,-3062.0,8022.55,-0.0870106,1.22855,0.359395,4473.09,3003.98,8049.58,-3.53275,-0.805817,-0.307115,-71.3199,9590.5,-1233.52,0.190882,-1.20255,0.102602,443.095,-9961.44,-402.816,0.621047,1.60449,1.55751,-1491.89,9324.07,-2087.25,-0.312142,0.685678,1.28961,-3579.24,-9079.67,-780.145,-1.15328,4.89272,-0.0761726,8998.49,1166.64,3995.17,-3.1292,-1.60452,-1.47797
0.133,4591.39,-3059.95,8020.11,-0.0105908,1.26318,0.295232,4493.81,3004.76,8054.85,-3.58332,-0.803646,-0.402727,-57.4093,9590.44,-1230.25,0.223556,-1.21594,0.0820133,460.269,-9947.32,-396.466,0.543632,1.39943,1.57027,-1506.1,9317.83,-2092.29,-0.23673,0.802616,1.2484,-3543.44,-9108.05,-774.942,-1.38582,3.92674,0.157727,9031.84,1147.39,4013.72,-3.30286,-1.48299,-1.43184
0.134,4594.22,-3064.01,8020.79,-0.0213834,1.29252,0.268846,4488.91,3003.25,8059.86,-3.52891,-0.800985,-0.449059,-45.6446,9598.54,-1238.19,0.180744,-1.19182,0.158766,451.937,-9935.63,-397.436,0.470739,1.27172,1.48821,-1499.87,9326.71,-2094.43,-0.182037,0.850049,1.23034,-3523.78,-9120.96,-776.714,-1.61258,2.98325,0.418715,9035.3,1131.96,4026.37,-3.38641,-1.47104,-1.49193
0.135,4588.86,-3071.12,8023.05,-0.0757821,1.31922,0.261347,4471.2,3000.61,8064.74,-3.422,-0.798079,-0.470751,-34.9529,9610.72,-1251.74,0.10019,-1.14895,0.284188,430.851,-9925.16,-402.066,0.400108,1.18269,1.35873,-1483.41,9343.17,-2095.14,-0.137704,0.862728,1.22386,-3512.18,-9126.15,-781.975,-1.83645,2.05102,0.693247,9023.8,1118.43,4036.08,-3.42489,-1.51386,-1.60511
0.136,4583.49,-3078.24,8025.3,-0.130181,1.34593,0.253849,4453.48,2997.96,8069.62,-3.31509,-0.795174,-0.492444,-24.2611,9622.9,-1265.29,0.019635,-1.10609,0.409611,409.765,-9914.69,-406.695,0.329476,1.09366,1.22926,-1466.96,9359.62,-2095.85,-0.0933711,0.875408,1.21737,-3500.58,-9131.33,-787.235,-2.06031,1.11878,0.967779,9012.31,1104.9,4045.79,-3.46338,-1.55668,-1.7183
0.137,4578.12,-3085.36,8027.56,-0.18458,1.37263,0.246351,4435.77,2995.32,8074.5,-3.20818,-0.792268,-0.514136,-13.5694,9635.08,-1278.83,-0.0609197,-1.06322,0.535033,388.679,-9904.23,-411.324,0.258844,1.00463,1.09978,-1450.51,9376.07,-2096.55,-0.049038,0.888088,1.21089,-3488.99,-9136.52,-792.495,-2.28418,0.186543,1.24231,9000.82,1091.38,4055.49,-3.50187,-1.59951,-1.83148
0.138,4574.0,-3092.21,8032.94,-0.252115,1.39266,0.238904,4424.76,2992.76,8080.4,-3.10415,-0.801246,-0.526859,0.323229,9645.99,-1291.59,-0.122343,-1.03929,0.618851,369.882,-9895.85,-413.357,0.189375,0.901938,0.97128,-1438.3,9385.15,-2095.03,-0.027918,0.895766,1.19953,-3476.11,-9133.86,-803.671,-2.52148,-0.695653,1.52309,8990.08,1086.14,4065.43,-3.54087,-1.64805,-1.90377
0.139,4574.24,-3098.14,8049.27,-0.365626,1.38936,0.231641,4437.22,2990.49,8089.89,-3.01019,-0.851817,-0.508191,25.419,9652.48,-1301.59,-0.116806,-1.08166,0.557051,359.099,-9894.78,-406.302,0.123977,0.751423,0.8462,-1440.93,9368.42,-2085.71,-0.0880443,0.885941,1.1711,-3458.73,-9103.76,-835.55,-2.80581,-1.40271,1.82572,8982.0,1109.94,4076.19,-3.58167,-1.71661,-1.83293
0.14,4574.47,-3104.07,8065.6,-0.479138,1.38605,0.224378,4449.67,2988.22,8099.38,-2.91624,-0.902389,-0.489523,50.5147,9658.97,-1311.59,-0.11127,-1.12403,0.495251,348.316,-9893.71,-399.247,0.0585786,0.600908,0.721121,-1443.57,9351.68,-2076.39,-0.148171,0.876115,1.14268,-3441.36,-9073.67,-867.429,-3.09014,-2.10977,2.12835,8973.93,1133.74,4086.95,-3.62247,-1.78517,-1.76209
0.141,4574.71,-3110.0,8081.92,-0.592649,1.38275,0.217114,4462.13,2985.95,8108.88,-2.82228,-0.95296,-0.470855,75.6105,9665.46,-1321.59,-0.105733,-1.16639,0.433452,337.533,-9892.64,-392.192,-0.00681987,0.450393,0.596042,-1446.21,9334.95,-2067.07,-0.208297,0.866289,1.11425,-3423.98,-9043.57,-899.308,-3.37447,-2.81682,2.43098,8965.85,1157.53,4097.71,-3.66327,-1.85372,-1.69125
0.142,4574.95,-3115.93,8098.25,-0.706161,1.37944,0.209851,4474.58,2983.68,8118.37,-2.72833,-1.00353,-0.452186,100.706,9671.95,-1331.58,-0.100197,-1.20876,0.371652,326.75,-9891.57,-385.136,-0.0722183,0.299877,0.470962,-1448.85,9318.21,-2057.75,-0.268423,0.856464,1.08582,-3406.61,-9013.47,-931.187,-3.6588,-3.52388,2.73362,8957.77,1181.33,4108.47,-3.70408,-1.92228,-1.62041
0.143,4570.79,-3112.45,8103.27,-0.765043,1.3782,0.202832,4478.72,2971.45,8118.64,-2.71416,-1.06497,-0.408813,80.7967,9686.9,-1340.42,-0.0665417,-1.22924,0.363781,325.412,-9909.29,-387.8,-0.0660122,0.13394,0.33946,-1457.23,9321.67,-2058.96,-0.188561,0.862586,1.04721,-3379.89,-9007.38,-938.527,-4.06626,-3.87769,2.95048,8964.54,1169.89,4123.36,-3.65315,-1.87858,-1.6015
0.144,4565.37,-3106.29,8105.06,-0.808317,1.37755,0.195884,4480.48,2956.38,8116.28,-2.72279,-1.1295,-0.358381,48.0286,9704.27,-1348.92,-0.0248531,-1.24347,0.371318,326.772,-9932.39,-393.24,-0.0393475,-0.0364047,0.206123,-1467.25,9330.89,-2063.19,-0.0687019,0.873266,1.00568,-3350.5,-9008.14,-938.855,-4.5089,-4.13058,3.14283,8975.56,1148.39,4139.43,-3.57601,-1.8028,-1.59741
0.145,4559.95,-3100.12,8106.85,-0.851591,1.37689,0.188935,4482.24,2941.31,8113.92,-2.73142,-1.19404,-0.307949,15.2605,9721.64,-1357.42,0.0168355,-1.2577,0.378855,328.133,-9955.49,-398.681,-0.0126829,-0.206749,0.0727855,-1477.28,9340.11,-2067.41,0.0511571,0.883945,0.964157,-3321.11,-9008.9,-939.183,-4.95154,-4.38346,3.33519,8986.58,1126.89,4155.5,-3.49888,-1.72703,-1.59333
0.146,4554.53,-3093.95,8108.64,-0.894865,1.37624,0.181986,4484.0,2926.24,8111.56,-2.74005,-1.25858,-0.257518,-17.5077,9739.01,-1365.92,0.0585241,-1.27193,0.386392,329.493,-9978.59,-404.121,0.0139817,-0.377093,-0.0605519,-1487.3,9349.33,-2071.63,0.171016,0.894625,0.92263,-3291.72,-9009.66,-939.511,-5.39418,-4.63635,3.52754,8997.6,1105.39,4171.56,-3.42174,-1.65126,-1.58924
0.147,4553.84,-3093.34,8103.75,-0.906695,1.37492,0.204062,4478.4,2913.67,8111.09,-2.7473,-1.30307,-0.256403,-33.4112,9750.45,-1368.04,0.0590839,-1.27768,0.390357,328.58,-9990.15,-413.548,-0.00122285,-0.524075,-0.17232,-1494.7,9353.89,-2074.52,0.300112,0.913554,0.888298,-3282.29,-9015.62,-953.303,-5.7274,-4.89987,3.7457,9005.79,1084.82,4183.88,-3.35591,-1.59967,-1.54649
0.148,4562.62,-3103.84,8085.52,-0.855639,1.37226,0.284189,4458.1,2906.12,8114.4,-2.75179,-1.30746,-0.353922,-15.5854,9750.05,-1357.4,-0.0226138,-1.26646,0.387178,323.121,-9978.66,-430.951,-0.100166,-0.62433,-0.240948,-1496.86,9349.13,-2074.74,0.447684,0.94898,0.868356,-3312.75,-9031.98,-994.021,-5.84178,-5.18465,4.01544,9008.35,1066.1,4188.7,-3.31268,-1.59647,-1.4264
0.149,4571.4,-3114.34,8067.28,-0.804582,1.3696,0.364315,4437.8,2898.56,8117.72,-2.75627,-1.31184,-0.451441,2.24029,9749.64,-1346.76,-0.104312,-1.25525,0.383998,317.662,-9967.17,-448.353,-0.199108,-0.724585,-0.309576,-1499.01,9344.36,-2074.96,0.595255,0.984407,0.848414,-3343.22,-9048.34,-1034.74,-5.95617,-5.46943,4.28518,9010.9,1047.38,4193.51,-3.26945,-1.59327,-1.3063
0.15,4580.18,-3124.85,8049.04,-0.753526,1.36694,0.444442,4417.5,2891.01,8121.03,-2.76076,-1.31623,-0.548961,20.066,9749.23,-1336.11,-0.186009,-1.24403,0.380819,312.203,-9955.68,-465.755,-0.298051,-0.82484,-0.378204,-1501.17,9339.59,-2075.18,0.742826,1.01983,0.828472,-3373.68,-9064.69,-1075.46,-6.07055,-5.75422,4.55493,9013.46,1028.65,4198.33,-3.22622,-1.59008,-1.18621
0.151,4588.95,-3135.35,8030.8,-0.702469,1.36429,0.524568,4397.19,2883.46,8124.34,-2.76525,-1.32062,-0.64648,37.8918,9748.83,-1325.47,-0.267707,-1.23281,0.37764,306.744,-9944.19,-483.157,-0.396994,-0.925095,-0.446833,-1503.32,9334.82,-2075.4,0.890398,1.05526,0.80853,-3404.14,-9081.05,-1116.17,-6.18494,-6.039,4.82467,9016.01,1009.93,4203.15,-3.18299,-1.58688,-1.06611
0.152,4592.57,-3144.4,8027.42,-0.682922,1.4207,0.517445,4394.94,2912.73,8117.36,-2.81182,-1.30483,-0.64219,40.5412,9719.32,-1302.78,-0.294652,-1.12815,0.334578,324.226,-9932.92,-491.011,-0.439355,-0.98368,-0.497498,-1488.35,9354.1,-2084.15,0.932904,1.05734,0.764931,-3411.61,-9106.47,-1136.13,-6.22586,-5.84832,4.97544,9035.17,999.866,4176.5,-3.24911,-1.6105,-1.12164
0.153,4595.54,-3153.26,8025.9,-0.667314,1.4845,0.499417,4394.95,2946.59,8109.08,-2.86365,-1.28652,-0.625174,41.2935,9686.18,-1278.58,-0.314752,-1.0118,0.286531,344.575,-9921.68,-497.671,-0.474644,-1.03706,-0.545918,-1471.23,9376.38,-2093.95,0.962276,1.05524,0.718374,-3416.19,-9133.02,-1153.48,-6.2576,-5.59821,5.11133,9056.4,990.882,4145.92,-3.3289,-1.63749,-1.19911
0.154,4598.5,-3162.13,8024.38,-0.651706,1.5483,0.481388,4394.95,2980.46,8100.8,-2.91548,-1.26821,-0.608158,42.0459,9653.03,-1254.38,-0.334853,-0.895448,0.238484,364.925,-9910.45,-504.332,-0.509932,-1.09043,-0.594338,-1454.12,9398.66,-2103.76,0.991649,1.05315,0.671817,-3420.78,-9159.57,-1170.84,-6.28934,-5.34809,5.24722,9077.64,981.898,4115.33,-3.40869,-1.66447,-1.27659
0.155,4601.47,-3171.0,8022.86,-0.636098,1.6121,0.463359,4394.96,3014.33,8092.53,-2.96731,-1.24989,-0.591142,42.7982,9619.89,-1230.18,-0.354953,-0.779099,0.190437,385.274,-9899.21,-510.992,-0.545221,-1.14381,-0.642757,-1437.0,9420.94,-2113.57,1.02102,1.05106,0.62526,-3425.37,-9186.12,-1188.2,-6.32107,-5.09798,5.38312,9098.87,972.914,4084.75,-3.48848,-1.69145,-1.35406
0.156,4604.42,-3169.9,8024.76,-0.608134,1.64217,0.456825,4390.51,3040.12,8079.54,-2.97392,-1.26735,-0.604239,42.7253,9615.45,-1231.69,-0.360987,-0.704034,0.180108,407.693,-9894.3,-517.496,-0.581893,-1.24803,-0.657284,-1440.51,9422.34,-2112.51,1.05203,1.03395,0.589477,-3406.11,-9201.59,-1210.54,-6.26399,-4.7017,5.43291,9105.13,977.845,4080.37,-3.52738,-1.71878,-1.35531
0.157,4607.33,-3156.34,8030.95,-0.564726,1.6301,0.464659,4380.5,3055.81,8060.66,-2.92399,-1.32951,-0.654977,41.6208,9646.89,-1265.34,-0.349436,-0.680576,0.216926,432.699,-9897.31,-523.806,-0.620294,-1.41579,-0.629443,-1469.79,9397.64,-2097.88,1.08508,0.998071,0.567161,-3357.05,-9203.22,-1239.12,-6.09586,-4.12269,5.37508,9092.66,1000.17,4108.72,-3.51517,-1.74653,-1.26127
0.158,4610.24,-3142.79,8037.14,-0.521317,1.61803,0.472492,4370.49,3071.5,8041.78,-2.87406,-1.39167,-0.705714,40.5163,9678.33,-1298.99,-0.337886,-0.657117,0.253744,457.705,-9900.32,-530.115,-0.658696,-1.58356,-0.601602,-1499.08,9372.95,-2083.25,1.11814,0.962194,0.544845,-3307.99,-9204.84,-1267.71,-5.92774,-3.54369,5.31724,9080.19,1022.5,4137.08,-3.50296,-1.77428,-1.16723
0.159,4613.15,-3129.24,8043.32,-0.477908,1.60595,0.480326,4360.48,3087.2,8022.9,-2.82413,-1.45383,-0.756452,39.4117,9709.77,-1332.64,-0.326335,-0.633659,0.290562,482.71,-9903.32,-536.425,-0.697097,-1.75133,-0.573762,-1528.36,9348.25,-2068.62,1.15119,0.926317,0.522529,-3258.92,-9206.47,-1296.29,-5.75962,-2.96469,5.25941,9067.72,1044.82,4165.43,-3.49075,-1.80204,-1.07319
0.16,4616.06,-3115.69,8049.51,-0.4345,1.59388,0.48816,4350.47,3102.89,8004.02,-2.7742,-1.51599,-0.807189,38.3072,9741.21,-1366.29,-0.314785,-0.6102,0.32738,507.716,-9906.33,-542.734,-0.735499,-1.9191,-0.545921,-1557.65,9323.55,-2053.99,1.18424,0.89044,0.500213,-3209.86,-9208.1,-1324.87,-5.5915,-2.38568,5.20158,9055.25,1067.15,4193.79,-3.47854,-1.82979,-0.979146
0.161,4593.69,-3112.48,8057.17,-0.450003,1.57849,0.494338,4359.6,3077.97,7992.01,-2.66341,-1.51673,-0.777906,29.1127,9735.52,-1351.41,-0.394624,-0.621917,0.39468,508.852,-9900.85,-543.675,-0.84526,-2.01084,-0.575932,-1549.36,9329.87,-2060.21,1.27029,0.782132,0.41959,-3189.7,-9235.07,-1354.3,-5.21263,-2.01317,5.25111,9045.5,1053.31,4176.69,-3.64309,-1.76138,-1.0197
0.162,4571.33,-3109.28,8064.82,-0.465507,1.56311,0.500516,4368.72,3053.06,7980.0,-2.55263,-1.51747,-0.748623,19.9182,9729.83,-1336.52,-0.474462,-0.633634,0.461981,509.988,-9895.38,-544.616,-0.955021,-2.10258,-0.605942,-1541.06,9336.18,-2066.44,1.35633,0.673824,0.338967,-3169.55,-9262.05,-1383.73,-4.83376,-1.64066,5.30064,9035.74,1039.46,4159.6,-3.80764,-1.69297,-1.06025
0.163,4548.97,-3106.08,8072.48,-0.481011,1.54772,0.506694,4377.85,3028.15,7967.99,-2.44185,-1.51821,-0.71934,10.7237,9724.14,-1321.64,-0.554301,-0.64535,0.529282,511.123,-9889.9,-545.557,-1.06478,-2.19432,-0.635952,-1532.77,9342.49,-2072.66,1.44238,0.565517,0.258343,-3149.39,-9289.02,-1413.16,-4.4549,-1.26815,5.35018,9025.98,1025.62,4142.5,-3.97219,-1.62457,-1.1008
0.164,4526.6,-3102.88,8080.14,-0.496515,1.53234,0.512871,4386.97,3003.24,7955.98,-2.33106,-1.51895,-0.690056,1.5292,9718.45,-1306.75,-0.63414,-0.657067,0.596582,512.259,-9884.43,-546.498,-1.17454,-2.28607,-0.665962,-1524.47,9348.81,-2078.89,1.52843,0.457209,0.17772,-3129.23,-9315.99,-1442.59,-4.07603,-0.895636,5.39971,9016.23,1011.78,4125.41,-4.13674,-1.55616,-1.14136
0.165,4506.77,-3097.15,8083.06,-0.534914,1.53252,0.491728,4391.64,2989.65,7956.0,-2.3393,-1.53948,-0.666469,3.30011,9711.07,-1299.07,-0.690654,-0.650189,0.605677,518.842,-9876.63,-553.514,-1.2076,-2.3702,-0.692042,-1508.83,9355.39,-2075.66,1.60177,0.364846,0.106795,-3128.64,-9333.22,-1446.35,-3.77335,-0.551747,5.34852,9015.21,1007.5,4111.51,-4.19434,-1.53187,-1.15893
0.166,4488.95,-3089.4,8082.2,-0.591629,1.54516,0.448729,4392.74,2985.12,7965.65,-2.44276,-1.57584,-0.647438,13.8433,9702.33,-1297.14,-0.728509,-0.628435,0.568208,529.784,-9866.98,-565.391,-1.17928,-2.44825,-0.714976,-1487.31,9362.18,-2064.88,1.66493,0.285238,0.0436283,-3143.71,-9342.66,-1429.58,-3.53162,-0.230757,5.21676,9021.18,1010.88,4100.17,-4.16639,-1.54289,-1.15811
0.167,4471.14,-3081.64,8081.34,-0.648344,1.5578,0.40573,4393.84,2980.59,7975.29,-2.54621,-1.6122,-0.628407,24.3866,9693.59,-1295.22,-0.766365,-0.606682,0.530738,540.725,-9857.32,-577.267,-1.15097,-2.5263,-0.73791,-1465.79,9368.97,-2054.09,1.7281,0.20563,-0.0195382,-3158.78,-9352.1,-1412.81,-3.2899,0.0902325,5.08499,9027.16,1014.26,4088.83,-4.13843,-1.55391,-1.15729
0.168,4453.32,-3073.89,8080.48,-0.705059,1.57043,0.36273,4394.94,2976.06,7984.94,-2.64967,-1.64856,-0.609377,34.9298,9684.85,-1293.29,-0.80422,-0.584928,0.493269,551.667,-9847.67,-589.143,-1.12266,-2.60435,-0.760844,-1444.27,9375.76,-2043.3,1.79126,0.126022,-0.0827048,-3173.85,-9361.54,-1396.04,-3.04817,0.411222,4.95322,9033.13,1017.64,4077.5,-4.11047,-1.56493,-1.15648
0.169,4435.59,-3067.55,8076.9,-0.751482,1.58188,0.318639,4394.91,2976.01,7993.9,-2.75769,-1.69077,-0.592904,41.8843,9674.97,-1289.83,-0.834263,-0.557148,0.447092,559.359,-9837.89,-600.719,-1.10477,-2.65921,-0.775257,-1424.31,9378.72,-2035.77,1.84599,0.0639713,-0.134911,-3184.58,-9370.07,-1381.79,-2.82662,0.721511,4.82969,9035.04,1021.85,4070.77,-4.08084,-1.55535,-1.14951
0.17,4418.54,-3072.45,8051.56,-0.715575,1.58378,0.265814,4385.75,3011.78,7997.36,-2.90228,-1.77972,-0.596895,20.1284,9655.99,-1274.04,-0.801806,-0.481157,0.33126,541.063,-9827.12,-609.897,-1.17029,-2.52863,-0.721493,-1416.84,9350.99,-2054.23,1.83323,0.142382,-0.0994357,-3160.55,-9371.36,-1387.7,-2.76653,0.946189,4.77204,9004.42,1032.68,4100.94,-4.0378,-1.38092,-1.09329
0.171,4401.48,-3077.36,8026.21,-0.679667,1.58568,0.212989,4376.6,3047.54,8000.83,-3.04687,-1.86867,-0.600887,-1.62739,9637.01,-1258.26,-0.76935,-0.405167,0.215428,522.765,-9816.34,-619.074,-1.23582,-2.39805,-0.66773,-1409.37,9323.25,-2072.68,1.82047,0.220793,-0.0639603,-3136.52,-9372.64,-1393.61,-2.70643,1.17087,4.71439,8973.81,1043.51,4131.12,-3.99476,-1.2065,-1.03708
0.172,4384.42,-3082.27,8000.86,-0.643759,1.58758,0.160164,4367.44,3083.31,8004.29,-3.19146,-1.95762,-0.604878,-23.3832,9618.03,-1242.47,-0.736893,-0.329176,0.0995956,504.469,-9805.57,-628.252,-1.30134,-2.26747,-0.613966,-1401.9,9295.52,-2091.14,1.8077,0.299203,-0.028485,-3112.5,-9373.92,-1399.52,-2.64633,1.39555,4.65673,8943.2,1054.35,4161.29,-3.95172,-1.03208,-0.980872
0.173,4367.36,-3087.17,7975.51,-0.607852,1.58948,0.107339,4358.29,3119.07,8007.76,-3.33604,-2.04658,-0.60887,-45.1391,9599.05,-1226.69,-0.704436,-0.253185,-0.0162366,486.171,-9794.79,-637.43,-1.36687,-2.13688,-0.560202,-1394.44,9267.78,-2109.6,1.79494,0.377614,0.00699042,-3088.47,-9375.2,-1405.43,-2.58623,1.62023,4.59908,8912.58,1065.18,4191.46,-3.90869,-0.857652,-0.924661
0.174,4367.09,-3089.53,7967.37,-0.574268,1.58043,0.138584,4352.37,3133.97,8018.42,-3.41413,-2.1209,-0.60355,-23.2727,9605.76,-1236.55,-0.682114,-0.107119,-0.0812143,496.981,-9803.84,-643.196,-1.39237,-2.14164,-0.549583,-1396.85,9277.96,-2123.54,1.77223,0.492867,0.0251462,-3061.6,-9379.22,-1395.99,-2.40129,1.96201,4.49715,8906.26,1074.19,4186.85,-3.83823,-0.833521,-0.852413
0.175,4375.22,-3090.6,7967.83,-0.541847,1.56589,0.211863,4348.07,3138.42,8032.69,-3.45896,-2.18791,-0.593575,20.4047,9625.3,-1259.23,-0.664858,0.0739856,-0.120765,522.343,-9822.81,-647.256,-1.39785,-2.21407,-0.560537,-1404.21,9307.1,-2135.21,1.74454,0.62654,0.0346422,-3033.3,-9384.61,-1378.87,-2.15392,2.36236,4.37309,8912.09,1082.27,4164.86,-3.75407,-0.884538,-0.772145
0.176,4383.34,-3091.68,7968.29,-0.509426,1.55135,0.285143,4343.77,3142.88,8046.95,-3.50379,-2.25492,-0.5836,64.0821,9644.84,-1281.92,-0.647603,0.25509,-0.160316,547.706,-9841.77,-651.317,-1.40333,-2.28649,-0.57149,-1411.56,9336.23,-2146.88,1.71686,0.760214,0.0441382,-3005.01,-9390.0,-1361.76,-1.90655,2.7627,4.24903,8917.92,1090.36,4142.86,-3.66991,-0.935554,-0.691878
0.177,4391.46,-3092.75,7968.74,-0.477005,1.53681,0.358422,4339.47,3147.34,8061.22,-3.54862,-2.32193,-0.573625,107.76,9664.39,-1304.6,-0.630347,0.436195,-0.199866,573.069,-9860.73,-655.377,-1.40881,-2.35892,-0.582443,-1418.91,9365.37,-2158.55,1.68917,0.893887,0.0536342,-2976.71,-9395.39,-1344.65,-1.65919,3.16304,4.12497,8923.75,1098.44,4120.86,-3.58574,-0.98657,-0.61161
0.178,4400.81,-3095.27,7971.89,-0.477688,1.50153,0.414778,4337.23,3151.14,8070.21,-3.57311,-2.35047,-0.57849,138.921,9679.76,-1319.26,-0.61659,0.568004,-0.242307,594.866,-9875.94,-658.029,-1.4126,-2.41958,-0.573512,-1425.6,9387.55,-2165.52,1.6795,1.00288,0.055873,-2957.84,-9399.83,-1340.38,-1.47885,3.55812,3.99457,8925.5,1103.11,4109.85,-3.57615,-1.01097,-0.547456
0.179,4414.41,-3102.85,7984.46,-0.594235,1.39366,0.411901,4342.18,3152.66,8060.76,-3.5264,-2.24437,-0.635296,126.278,9680.55,-1305.83,-0.615077,0.527278,-0.294864,604.186,-9877.98,-655.752,-1.41043,-2.43906,-0.494985,-1429.92,9385.38,-2156.03,1.73288,1.02549,0.0327114,-2971.92,-9400.94,-1381.09,-1.53312,3.93477,3.84197,8912.99,1095.82,4137.29,-3.82752,-0.942236,-0.539698
0.18,4428.02,-3110.42,7997.02,-0.710782,1.28578,0.409023,4347.14,3154.17,8051.31,-3.47969,-2.13827,-0.692102,113.636,9681.34,-1292.39,-0.613563,0.486553,-0.347421,613.506,-9880.03,-653.475,-1.40827,-2.45854,-0.416458,-1434.24,9383.21,-2146.55,1.78627,1.04811,0.00954974,-2986.0,-9402.05,-1421.8,-1.58738,4.31142,3.68937,8900.49,1088.53,4164.74,-4.0789,-0.873498,-0.531939
0.181,4441.63,-3118.0,8009.58,-0.827329,1.17791,0.406146,4352.09,3155.68,8041.86,-3.43298,-2.03217,-0.748907,100.993,9682.13,-1278.96,-0.61205,0.445828,-0.399978,622.826,-9882.08,-651.198,-1.40611,-2.47801,-0.337932,-1438.57,9381.05,-2137.06,1.83965,1.07072,-0.0136119,-3000.08,-9403.16,-1462.51,-1.64165,4.68808,3.53677,8887.98,1081.24,4192.19,-4.33028,-0.80476,-0.524181
0.182,4455.24,-3125.57,8022.14,-0.943876,1.07004,0.403269,4357.05,3157.19,8032.41,-3.38626,-1.92607,-0.805713,88.3497,9682.92,-1265.53,-0.610536,0.405102,-0.452535,632.146,-9884.13,-648.921,-1.40394,-2.49749,-0.259405,-1442.89,9378.88,-2127.57,1.89303,1.09333,-0.0367735,-3014.16,-9404.27,-1503.22,-1.69592,5.06473,3.38418,8875.47,1073.94,4219.63,-4.58166,-0.736021,-0.516422
0.183,4462.0,-3123.83,8023.74,-0.997517,1.02335,0.401736,4361.57,3162.6,8026.71,-3.36969,-1.88443,-0.75588,71.7235,9677.57,-1242.0,-0.668762,0.371294,-0.400082,635.418,-9879.92,-649.547,-1.46938,-2.33231,-0.241065,-1438.53,9387.79,-2134.6,1.97691,0.980126,-0.0270731,-3028.06,-9405.84,-1496.28,-1.70035,5.56431,3.24088,8871.5,1088.58,4201.1,-4.62887,-0.675103,-0.399384
0.184,4466.81,-3119.43,8022.2,-1.03319,0.994151,0.400588,4365.97,3169.12,8022.09,-3.36172,-1.86122,-0.675579,53.9592,9670.46,-1215.59,-0.744056,0.339461,-0.317627,636.962,-9873.92,-651.001,-1.55413,-2.11437,-0.239921,-1431.7,9399.87,-2146.34,2.06951,0.828111,-0.00798356,-3041.91,-9407.54,-1475.73,-1.69054,6.09901,3.10023,8869.97,1109.49,4169.43,-4.61776,-0.616419,-0.251122
0.185,4471.63,-3115.03,8020.66,-1.06885,0.964949,0.39944,4370.37,3175.64,8017.47,-3.35375,-1.83802,-0.595278,36.1949,9663.36,-1189.17,-0.81935,0.307628,-0.235173,638.507,-9867.92,-652.456,-1.63889,-1.89644,-0.238778,-1424.86,9411.95,-2158.08,2.16211,0.676096,0.011106,-3055.76,-9409.24,-1455.18,-1.68073,6.63372,2.95959,8868.45,1130.4,4137.76,-4.60664,-0.557735,-0.102861
0.186,4476.44,-3110.62,8019.12,-1.10452,0.935747,0.398292,4374.77,3182.16,8012.85,-3.34578,-1.81481,-0.514977,18.4306,9656.25,-1162.76,-0.894643,0.275795,-0.152718,640.051,-9861.93,-653.91,-1.72364,-1.6785,-0.237634,-1418.03,9424.03,-2169.82,2.2547,0.524081,0.0301955,-3069.61,-9410.94,-1434.64,-1.67092,7.16842,2.81894,8866.92,1151.31,4106.09,-4.59553,-0.499051,0.045401
0.187,4485.46,-3103.64,8019.44,-1.11935,0.92025,0.408582,4382.85,3179.76,8015.81,-3.31753,-1.79823,-0.491038,5.4284,9644.31,-1158.01,-0.959916,0.296171,-0.154332,637.237,-9861.24,-651.727,-1.77567,-1.51935,-0.241539,-1420.15,9433.5,-2175.05,2.31725,0.429656,0.0560854,-3078.89,-9405.64,-1415.93,-1.72125,7.58922,2.65396,8863.0,1167.82,4091.31,-4.52963,-0.426376,0.0986948
0.188,4502.89,-3091.48,8023.48,-1.0925,0.932166,0.441748,4398.27,3159.53,8033.92,-3.24874,-1.79494,-0.579823,1.95055,9622.71,-1196.6,-1.00515,0.420964,-0.324083,625.708,-9871.16,-642.267,-1.76227,-1.47778,-0.255539,-1440.18,9437.75,-2167.26,2.3197,0.450412,0.0955758,-3079.04,-9386.35,-1400.9,-1.89189,7.78221,2.4403,8854.29,1175.53,4110.3,-4.35418,-0.325716,-0.0379468
0.189,4520.32,-3079.33,8027.52,-1.06564,0.944081,0.474913,4413.69,3139.3,8052.03,-3.17995,-1.79164,-0.668609,-1.5273,9601.11,-1235.2,-1.05037,0.545757,-0.493835,614.178,-9881.08,-632.808,-1.74886,-1.43621,-0.26954,-1460.21,9442.0,-2159.46,2.32214,0.471168,0.135066,-3079.19,-9367.06,-1385.87,-2.06252,7.9752,2.22665,8845.58,1183.25,4129.29,-4.17874,-0.225056,-0.174588
0.19,4537.75,-3067.17,8031.56,-1.03879,0.955997,0.508079,4429.11,3119.07,8070.14,-3.11115,-1.78835,-0.757394,-5.00516,9579.51,-1273.79,-1.0956,0.67055,-0.663587,602.648,-9891.0,-623.348,-1.73546,-1.39463,-0.283541,-1480.24,9446.25,-2151.67,2.32459,0.491924,0.174557,-3079.34,-9347.76,-1370.84,-2.23315,8.16819,2.013,8836.87,1190.96,4148.29,-4.00329,-0.124397,-0.31123
0.191,4555.17,-3055.02,8035.6,-1.01194,0.967912,0.541244,4444.53,3098.84,8088.25,-3.04236,-1.78505,-0.84618,-8.48301,9557.9,-1312.39,-1.14083,0.795343,-0.833339,591.119,-9900.92,-613.889,-1.72206,-1.35306,-0.297542,-1500.27,9450.5,-2143.87,2.32704,0.51268,0.214047,-3079.49,-9328.47,-1355.81,-2.40378,8.36119,1.79934,8828.16,1198.68,4167.28,-3.82784,-0.0237374,-0.447872
0.192,4560.06,-3059.93,8028.41,-1.04594,0.947847,0.509168,4460.71,3069.05,8088.19,-2.99499,-1.80953,-0.929455,-0.923936,9576.48,-1309.69,-1.04551,0.829674,-0.773216,599.296,-9885.41,-619.837,-1.63945,-1.42595,-0.25532,-1492.28,9427.96,-2144.86,2.20906,0.553609,0.234158,-3109.68,-9345.05,-1289.36,-2.31923,8.12793,1.81046,8821.42,1219.08,4166.96,-3.87268,-0.035039,-0.398723
0.193,4563.39,-3066.99,8019.82,-1.08756,0.923785,0.468935,4476.99,3038.07,8085.86,-2.9503,-1.83748,-1.01204,8.01475,9600.08,-1301.83,-0.932614,0.852696,-0.684359,609.936,-9866.73,-627.711,-1.5482,-1.51315,-0.20607,-1480.79,9402.07,-2146.94,2.07603,0.597058,0.251847,-3143.62,-9366.12,-1216.48,-2.20279,7.84139,1.84969,8814.93,1241.08,4164.23,-3.94505,-0.0603357,-0.326351
0.194,4566.71,-3074.04,8011.23,-1.12917,0.899722,0.428703,4493.27,3007.09,8083.53,-2.9056,-1.86542,-1.09463,16.9534,9623.68,-1293.98,-0.81972,0.875719,-0.595502,620.577,-9848.04,-635.586,-1.45695,-1.60035,-0.15682,-1469.29,9376.18,-2149.02,1.943,0.640508,0.269536,-3177.55,-9387.18,-1143.59,-2.08635,7.55486,1.88891,8808.44,1263.07,4161.49,-4.01742,-0.0856324,-0.253978
0.195,4570.03,-3081.09,8002.63,-1.17078,0.87566,0.388471,4509.55,2976.11,8081.2,-2.86091,-1.89337,-1.17721,25.8921,9647.28,-1286.12,-0.706826,0.898742,-0.506645,631.217,-9829.35,-643.46,-1.3657,-1.68755,-0.107571,-1457.8,9350.3,-2151.1,1.80997,0.683958,0.287225,-3211.49,-9408.25,-1070.71,-1.9699,7.26832,1.92813,8801.95,1285.06,4158.76,-4.08979,-0.110929,-0.181606
0.196,4568.31,-3096.59,7996.7,-1.16693,0.850572,0.375862,4509.88,2957.79,8072.12,-2.76272,-1.91327,-1.21484,32.9445,9665.23,-1279.16,-0.658114,0.894512,-0.465864,626.765,-9828.13,-631.95,-1.28867,-1.65321,-0.0725479,-1454.18,9349.67,-2136.98,1.73791,0.667733,0.297857,-3216.03,-9411.9,-1001.23,-1.93951,6.75829,1.94649,8805.68,1296.41,4163.94,-4.10698,-0.0542695,-0.160574
0.197,4560.3,-3122.64,7994.09,-1.10625,0.824201,0.39778,4490.27,2955.3,8054.62,-2.59765,-1.92311,-1.19626,37.6389,9676.11,-1273.3,-0.68963,0.856215,-0.485179,603.446,-9848.74,-596.21,-1.22943,-1.46695,-0.055309,-1460.4,9380.63,-2102.62,1.74205,0.576914,0.299668,-3183.82,-9393.8,-936.019,-2.01668,5.96889,1.93878,8822.17,1294.44,4179.01,-4.05518,0.104836,-0.203718
0.198,4552.28,-3148.7,7991.49,-1.04558,0.797831,0.419699,4470.65,2952.81,8037.12,-2.43258,-1.93295,-1.17768,42.3333,9686.99,-1267.45,-0.721145,0.817917,-0.504494,580.127,-9869.36,-560.469,-1.17019,-1.28069,-0.03807,-1466.63,9411.58,-2068.25,1.7462,0.486094,0.301479,-3151.6,-9375.69,-870.805,-2.09384,5.1795,1.93106,8838.67,1292.48,4194.09,-4.00338,0.263941,-0.246861
0.199,4544.26,-3174.75,7988.88,-0.984902,0.771461,0.441618,4451.04,2950.32,8019.62,-2.26752,-1.9428,-1.1591,47.0277,9697.87,-1261.6,-0.752661,0.77962,-0.523809,556.808,-9889.97,-524.729,-1.11095,-1.09442,-0.020831,-1472.85,9442.54,-2033.89,1.75034,0.395275,0.303289,-3119.39,-9357.59,-805.59,-2.17101,4.3901,1.92335,8855.17,1290.52,4209.16,-3.95158,0.423046,-0.290005
0.2,4536.24,-3200.81,7986.27,-0.924226,0.74509,0.463537,4431.43,2947.83,8002.12,-2.10245,-1.95264,-1.14053,51.7221,9708.74,-1255.75,-0.784177,0.741323,-0.543125,533.489,-9910.58,-488.988,-1.05171,-0.908161,-0.00359207,-1479.07,9473.49,-1999.52,1.75449,0.304456,0.3051,-3087.17,-9339.48,-740.375,-2.24818,3.6007,1.91563,8871.66,1288.56,4224.23,-3.89978,0.582151,-0.333149
0.201,4526.71,-3196.76,7992.36,-0.838675,0.709623,0.52749,4443.76,2939.25,8005.2,-1.95884,-1.9099,-1.0135,26.0111,9716.48,-1261.7,-0.773006,0.686421,-0.716278,547.496,-9886.1,-529.15,-1.0089,-0.658573,-0.00278385,-1463.12,9453.64,-2041.29,1.84289,0.363736,0.207947,-3082.6,-9330.78,-750.463,-2.45559,2.63224,2.00168,8855.55,1282.34,4225.44,-3.87484,0.661261,-0.260958
0.202,4517.18,-3192.72,7998.46,-0.753125,0.674155,0.591444,4456.1,2930.68,8008.28,-1.81524,-1.86716,-0.88647,0.300126,9724.22,-1267.66,-0.761835,0.631518,-0.889431,561.503,-9861.61,-569.312,-0.966088,-0.408985,-0.00197564,-1447.17,9433.8,-2083.05,1.9313,0.423016,0.110795,-3078.03,-9322.07,-760.551,-2.663,1.66379,2.08772,8839.43,1276.12,4226.64,-3.84989,0.740371,-0.188767
0.203,4507.64,-3188.67,8004.55,-0.667575,0.638688,0.655397,4468.44,2922.11,8011.36,-1.67163,-1.82441,-0.759442,-25.4108,9731.96,-1273.61,-0.750664,0.576616,-1.06258,575.509,-9837.12,-609.474,-0.923277,-0.159397,-0.00116742,-1431.21,9413.95,-2124.82,2.0197,0.482296,0.0136421,-3073.46,-9313.37,-770.639,-2.87041,0.69533,2.17376,8823.32,1269.9,4227.84,-3.82494,0.819482,-0.116577
0.204,4498.11,-3184.62,8010.64,-0.582024,0.603221,0.719351,4480.77,2913.53,8014.44,-1.52802,-1.78167,-0.632415,-51.1218,9739.7,-1279.57,-0.739493,0.521713,-1.23574,589.516,-9812.64,-649.636,-0.880467,0.0901912,-0.000359207,-1415.26,9394.1,-2166.59,2.1081,0.541576,-0.0835106,-3068.89,-9304.66,-780.727,-3.07783,-0.273127,2.25981,8807.21,1263.68,4229.04,-3.79999,0.898592,-0.044386
0.205,4491.91,-3174.64,8015.02,-0.562316,0.581065,0.701263,4488.37,2911.9,8024.54,-1.43097,-1.77392,-0.647388,-59.0265,9741.55,-1291.68,-0.659903,0.563074,-1.32385,584.94,-9825.24,-644.38,-0.860545,0.236409,-0.0373992,-1408.53,9367.99,-2186.4,2.08547,0.559588,-0.0384057,-3070.33,-9311.24,-780.27,-3.27986,-1.09874,2.26917,8789.27,1279.14,4225.4,-3.71527,0.957731,-0.0226155
0.206,4488.38,-3159.92,8018.04,-0.595282,0.569558,0.617543,4492.17,2915.82,8040.25,-1.37117,-1.79415,-0.775963,-52.6861,9738.68,-1308.73,-0.525577,0.681445,-1.34392,565.498,-9867.5,-602.79,-0.858934,0.29993,-0.104718,-1409.17,9336.86,-2188.65,1.974,0.544587,0.120505,-3076.59,-9330.04,-771.377,-3.47759,-1.81008,2.2172,8769.88,1311.95,4217.9,-3.58272,1.00089,-0.0411813
0.207,4484.84,-3145.19,8021.06,-0.628247,0.558051,0.533822,4495.96,2919.73,8055.97,-1.31136,-1.81439,-0.904538,-46.3457,9735.82,-1325.77,-0.391251,0.799815,-1.36399,546.056,-9909.76,-561.2,-0.857323,0.363451,-0.172036,-1409.82,9305.73,-2190.9,1.86253,0.529586,0.279416,-3082.85,-9348.83,-762.484,-3.67532,-2.52142,2.16523,8750.49,1344.76,4210.4,-3.45017,1.04406,-0.0597471
0.208,4481.31,-3130.46,8024.07,-0.661213,0.546544,0.450102,4499.76,2923.65,8071.68,-1.25155,-1.83463,-1.03311,-40.0053,9732.95,-1342.81,-0.256925,0.918186,-1.38407,526.614,-9952.03,-519.61,-0.855712,0.426972,-0.239355,-1410.46,9274.61,-2193.14,1.75106,0.514585,0.438327,-3089.11,-9367.63,-753.59,-3.87306,-3.23276,2.11325,8731.1,1377.58,4202.89,-3.31762,1.08722,-0.0783129
0.209,4481.14,-3116.82,8027.96,-0.701481,0.536163,0.370778,4501.66,2928.76,8085.97,-1.20105,-1.83538,-1.13893,-32.8125,9729.68,-1354.94,-0.150684,1.02977,-1.39593,513.476,-9985.5,-484.582,-0.852753,0.480501,-0.290186,-1412.48,9250.34,-2193.58,1.64759,0.50917,0.575,-3093.56,-9382.52,-754.077,-4.07338,-3.92334,2.08278,8715.54,1407.65,4195.73,-3.17933,1.13119,-0.0918195
0.21,4507.94,-3111.88,8038.83,-0.800163,0.534787,0.326626,4488.34,2943.45,8088.78,-1.22504,-1.68033,-1.06267,-18.8007,9723.22,-1327.74,-0.269128,1.0871,-1.34209,550.772,-9948.65,-502.051,-0.839007,0.454094,-0.209116,-1425.44,9280.96,-2179.53,1.60812,0.580441,0.533772,-3083.55,-9366.07,-829.606,-4.29448,-4.44785,2.22429,8730.59,1415.8,4191.31,-2.99512,1.18166,-0.0648516
0.211,4534.74,-3106.94,8049.7,-0.898845,0.53341,0.282473,4475.03,2958.15,8091.6,-1.24903,-1.52527,-0.986404,-4.78882,9716.76,-1300.53,-0.387572,1.14443,-1.28825,588.068,-9911.8,-519.52,-0.825261,0.427687,-0.128046,-1438.41,9311.58,-2165.48,1.56866,0.651712,0.492544,-3073.54,-9349.62,-905.135,-4.51558,-4.97236,2.36581,8745.64,1423.95,4186.88,-2.81092,1.23213,-0.0378838
0.212,4561.53,-3101.99,8060.57,-0.997527,0.532034,0.23832,4461.71,2972.84,8094.41,-1.27302,-1.37021,-0.910141,9.22301,9710.3,-1273.33,-0.506016,1.20175,-1.2344,625.364,-9874.95,-536.989,-0.811516,0.401281,-0.0469768,-1451.37,9342.21,-2151.43,1.52919,0.722983,0.451316,-3063.54,-9333.18,-980.664,-4.73667,-5.49687,2.50732,8760.69,1432.1,4182.46,-2.62671,1.28261,-0.010916
0.213,4588.33,-3097.05,8071.43,-1.09621,0.530658,0.194168,4448.4,2987.53,8097.23,-1.29701,-1.21515,-0.833879,23.2348,9703.84,-1246.13,-0.624461,1.25908,-1.18056,662.659,-9838.1,-554.458,-0.79777,0.374874,0.0340929,-1464.34,9372.83,-2137.38,1.48973,0.794254,0.410087,-3053.53,-9316.73,-1056.19,-4.95777,-6.02138,2.64884,8775.74,1440.25,4178.03,-2.44251,1.33308,0.0160518
0.214,4611.78,-3093.85,8071.59,-1.12962,0.563187,0.19171,4440.6,3002.72,8087.05,-1.34007,-1.12803,-0.765791,19.4198,9690.87,-1256.9,-0.573607,1.31524,-1.1347,647.655,-9829.48,-574.322,-0.766293,0.347589,0.0966072,-1476.12,9385.52,-2136.92,1.59126,0.781844,0.366847,-3042.43,-9304.64,-1112.26,-5.07494,-6.10848,2.70135,8779.69,1448.65,4183.53,-2.31319,1.36889,-0.0623526
0.215,4633.55,-3091.53,8066.38,-1.1304,0.612669,0.210099,4435.56,3018.15,8070.37,-1.39265,-1.07488,-0.70179,6.69136,9674.64,-1286.66,-0.438105,1.37082,-1.09283,606.499,-9834.97,-595.384,-0.725951,0.319864,0.149844,-1487.3,9389.26,-2143.26,1.76328,0.727594,0.3226,-3030.77,-9294.74,-1158.59,-5.14015,-5.97689,2.70935,8778.09,1457.19,4193.99,-2.2113,1.39738,-0.193443
0.216,4655.33,-3089.2,8061.18,-1.13118,0.662151,0.228489,4430.53,3033.59,8053.68,-1.44524,-1.02174,-0.637789,-6.03709,9658.41,-1316.42,-0.302603,1.42641,-1.05096,565.344,-9840.46,-616.446,-0.685608,0.292139,0.203081,-1498.48,9393.0,-2149.6,1.93531,0.673345,0.278354,-3019.11,-9284.84,-1204.92,-5.20536,-5.84529,2.71736,8776.48,1465.73,4204.45,-2.10942,1.42587,-0.324534
0.217,4677.1,-3086.88,8055.98,-1.13196,0.711633,0.246878,4425.49,3049.02,8037.0,-1.49782,-0.968587,-0.573788,-18.7655,9642.18,-1346.18,-0.167101,1.48199,-1.00909,524.189,-9845.96,-637.508,-0.645266,0.264414,0.256317,-1509.66,9396.73,-2155.95,2.10734,0.619095,0.234107,-3007.45,-9274.94,-1251.25,-5.27058,-5.7137,2.72536,8774.88,1474.27,4214.91,-2.00753,1.45436,-0.455624
0.218,4690.54,-3082.95,8051.16,-1.12119,0.758888,0.267957,4416.42,3060.32,8025.67,-1.54359,-0.95889,-0.539576,-35.1462,9634.12,-1369.29,-0.0830324,1.49781,-0.961295,501.157,-9851.6,-648.852,-0.623952,0.241322,0.281978,-1519.9,9391.07,-2167.64,2.18904,0.609101,0.204459,-2996.29,-9277.85,-1298.26,-5.32188,-5.45556,2.6935,8774.56,1477.18,4223.84,-1.92079,1.50163,-0.517043
0.219,4674.77,-3073.4,8047.7,-1.07001,0.798347,0.298449,4393.23,3057.15,8033.04,-1.5655,-1.10127,-0.609624,-64.3096,9654.62,-1369.08,-0.178984,1.37446,-0.892752,541.555,-9857.78,-626.186,-0.669241,0.234443,0.211121,-1526.81,9352.52,-2198.07,1.95462,0.754,0.225906,-2986.83,-9325.65,-1347.64,-5.3245,-4.75452,2.52211,8778.75,1460.39,4227.44,-1.88706,1.61468,-0.334608
0.22,4659.01,-3063.85,8044.24,-1.01883,0.837806,0.32894,4370.04,3053.97,8040.42,-1.58742,-1.24365,-0.679672,-93.473,9675.12,-1368.88,-0.274935,1.25111,-0.824209,581.953,-9863.96,-603.52,-0.71453,0.227564,0.140264,-1533.71,9313.98,-2228.51,1.72019,0.898899,0.247353,-2977.37,-9373.44,-1397.02,-5.32711,-4.05349,2.35072,8782.94,1443.6,4231.03,-1.85332,1.72773,-0.152173
0.221,4643.24,-3054.29,8040.77,-0.967657,0.877266,0.359432,4346.85,3050.79,8047.79,-1.60933,-1.38603,-0.749721,-122.636,9695.62,-1368.68,-0.370886,1.12775,-0.755666,622.351,-9870.14,-580.853,-0.759819,0.220685,0.0694078,-1540.62,9275.43,-2258.94,1.48576,1.0438,0.2688,-2967.91,-9421.23,-1446.39,-5.32973,-3.35245,2.17932,8787.13,1426.81,4234.63,-1.81959,1.84078,0.0302623
0.222,4627.48,-3044.74,8037.31,-0.916479,0.916725,0.389924,4323.66,3047.62,8055.17,-1.63125,-1.52841,-0.819769,-151.8,9716.11,-1368.48,-0.466838,1.0044,-0.687123,662.749,-9876.33,-558.187,-0.805108,0.213805,-0.0014489,-1547.53,9236.89,-2289.37,1.25133,1.1887,0.290247,-2958.45,-9469.03,-1495.77,-5.33235,-2.65142,2.00793,8791.33,1410.02,4238.22,-1.78585,1.95383,0.212697
0.223,4623.66,-3060.47,8033.96,-0.921576,0.953411,0.461429,4304.79,3047.19,8080.18,-1.55917,-1.42816,-0.779157,-162.037,9723.77,-1352.36,-0.488407,0.984837,-0.681218,657.044,-9893.35,-562.959,-0.901074,0.334032,0.161616,-1558.79,9253.54,-2283.48,1.31006,1.20184,0.108992,-2944.79,-9467.13,-1531.44,-5.18573,-1.82854,1.81858,8800.04,1384.77,4224.48,-1.7743,2.01134,0.314836
0.224,4623.25,-3083.43,8030.63,-0.94275,0.989304,0.544653,4287.16,3047.55,8110.24,-1.46024,-1.25857,-0.706928,-166.867,9727.76,-1331.7,-0.488724,0.994925,-0.69321,638.168,-9913.46,-575.571,-1.01152,0.490574,0.391515,-1571.29,9285.97,-2267.2,1.45256,1.17733,-0.130178,-2929.94,-9451.04,-1563.19,-4.99648,-0.970844,1.62409,8810.05,1357.09,4205.79,-1.76908,2.05297,0.394033
0.225,4622.84,-3106.39,8027.31,-0.963924,1.0252,0.627876,4269.52,3047.91,8140.3,-1.36132,-1.08899,-0.634699,-171.696,9731.75,-1311.03,-0.489042,1.00501,-0.705202,619.292,-9933.58,-588.183,-1.12196,0.647116,0.621414,-1583.79,9318.39,-2250.93,1.59506,1.15283,-0.369349,-2915.09,-9434.96,-1594.94,-4.80722,-0.113151,1.42961,8820.06,1329.42,4187.1,-1.76387,2.0946,0.473231
0.226,4622.43,-3129.34,8023.99,-0.985098,1.06109,0.711099,4251.89,3048.26,8170.35,-1.26239,-0.919405,-0.56247,-176.526,9735.74,-1290.37,-0.489359,1.0151,-0.717193,600.415,-9953.69,-600.794,-1.23241,0.803658,0.851313,-1596.29,9350.82,-2234.65,1.73756,1.12833,-0.608519,-2900.24,-9418.87,-1626.69,-4.61796,0.744542,1.23513,8830.07,1301.74,4168.41,-1.75865,2.13623,0.552428
0.227,4622.11,-3152.73,8020.17,-0.992828,1.08783,0.772206,4260.4,3047.44,8180.16,-1.15869,-0.837223,-0.53437,-172.527,9734.5,-1285.45,-0.494364,0.973132,-0.702512,586.252,-9957.72,-604.727,-1.26082,0.897596,0.965848,-1603.94,9365.02,-2220.61,1.81135,1.09815,-0.757346,-2885.55,-9416.88,-1647.76,-4.44149,1.57015,1.05981,8830.47,1283.47,4155.95,-1.71817,2.17862,0.585702
0.228,4621.97,-3176.98,8015.37,-0.973667,1.09627,0.789081,4321.2,3044.25,8149.46,-1.04545,-0.929842,-0.594528,-150.87,9722.81,-1312.02,-0.508743,0.827049,-0.634484,581.515,-9929.57,-591.299,-1.12518,0.866324,0.849654,-1601.88,9342.75,-2211.04,1.74772,1.05662,-0.725486,-2871.18,-9443.09,-1647.47,-4.2906,2.3316,0.922837,8811.66,1284.0,4155.99,-1.60716,2.22252,0.527132
0.229,4621.82,-3201.23,8010.56,-0.954507,1.10471,0.805955,4382.0,3041.05,8118.76,-0.932219,-1.02246,-0.654685,-129.212,9711.12,-1338.58,-0.523123,0.680967,-0.566455,576.778,-9901.42,-577.872,-0.989531,0.835052,0.733459,-1599.83,9320.49,-2201.47,1.68409,1.01509,-0.693627,-2856.82,-9469.29,-1647.18,-4.13971,3.09305,0.785859,8792.84,1284.54,4156.02,-1.49614,2.26642,0.468561
0.23,4621.67,-3225.48,8005.76,-0.935347,1.11314,0.82283,4442.8,3037.86,8088.05,-0.818984,-1.11508,-0.714842,-107.555,9699.42,-1365.15,-0.537503,0.534884,-0.498427,572.041,-9873.27,-564.445,-0.853885,0.80378,0.617265,-1597.77,9298.23,-2191.9,1.62046,0.973567,-0.661768,-2842.45,-9495.5,-1646.89,-3.98881,3.8545,0.648882,8774.03,1285.07,4156.05,-1.38513,2.31032,0.40999
0.231,4621.53,-3249.73,8000.96,-0.916187,1.12158,0.839704,4503.6,3034.67,8057.35,-0.705749,-1.2077,-0.775,-85.8981,9687.73,-1391.72,-0.551882,0.388802,-0.430399,567.304,-9845.11,-551.018,-0.718239,0.772507,0.50107,-1595.72,9275.96,-2182.32,1.55682,0.932041,-0.629909,-2828.08,-9521.71,-1646.6,-3.83792,4.61595,0.511904,8755.21,1285.61,4156.08,-1.27411,2.35421,0.351419
0.232,4600.11,-3249.19,7986.72,-0.799928,1.10269,0.854408,4510.67,3013.58,8070.56,-0.666339,-1.24288,-0.837144,-69.0716,9683.39,-1375.54,-0.581652,0.409048,-0.398714,559.345,-9817.45,-543.367,-0.624866,0.704387,0.482109,-1562.82,9284.53,-2196.09,1.42995,0.90201,-0.807066,-2809.78,-9553.02,-1589.41,-3.67032,4.91013,0.189309,8766.25,1285.7,4182.0,-1.18028,2.43635,0.451081
0.233,4576.03,-3245.56,7971.31,-0.671533,1.08039,0.86884,4511.02,2990.26,8089.26,-0.636156,-1.27088,-0.899536,-52.8489,9679.96,-1354.02,-0.613345,0.450086,-0.371572,550.983,-9789.85,-536.439,-0.536778,0.631661,0.475302,-1526.07,9296.96,-2212.77,1.29516,0.873416,-1.01035,-2790.98,-9584.97,-1525.1,-3.50062,5.1459,-0.156488,8781.03,1285.75,4211.16,-1.08859,2.52327,0.570521
0.234,4551.95,-3241.93,7955.89,-0.543138,1.05808,0.883272,4511.37,2966.94,8107.95,-0.605974,-1.29888,-0.961928,-36.6262,9676.54,-1332.5,-0.645038,0.491123,-0.344431,542.621,-9762.25,-529.51,-0.448689,0.558934,0.468495,-1489.33,9309.38,-2229.45,1.16038,0.844822,-1.21364,-2772.19,-9616.92,-1460.79,-3.33093,5.38167,-0.502285,8795.8,1285.79,4240.31,-0.996903,2.61019,0.689961
0.235,4527.88,-3238.29,7940.48,-0.414742,1.03578,0.897704,4511.72,2943.62,8126.65,-0.575792,-1.32688,-1.02432,-20.4035,9673.12,-1310.97,-0.676731,0.532161,-0.317289,534.259,-9734.64,-522.582,-0.360601,0.486208,0.461688,-1452.58,9321.81,-2246.13,1.02559,0.816229,-1.41692,-2753.39,-9648.87,-1396.48,-3.16124,5.61744,-0.848082,8810.57,1285.84,4269.46,-0.905217,2.69711,0.809402
0.236,4512.92,-3235.92,7935.03,-0.349475,1.01868,0.882291,4509.62,2924.67,8138.06,-0.55287,-1.29074,-1.03707,-14.9833,9668.48,-1301.33,-0.740116,0.565497,-0.299664,527.774,-9739.96,-506.645,-0.269447,0.416033,0.435501,-1447.99,9335.01,-2252.23,0.952971,0.851816,-1.46015,-2761.22,-9656.66,-1335.34,-2.93821,5.64386,-1.08439,8826.35,1278.73,4279.13,-0.841747,2.82632,0.87328
0.237,4509.36,-3235.13,7942.04,-0.363118,1.00809,0.829569,4504.44,2911.2,8140.36,-0.539022,-1.17441,-0.987764,-23.0661,9662.32,-1306.52,-0.843118,0.589206,-0.293934,523.636,-9786.42,-479.446,-0.17446,0.349048,0.385089,-1483.62,9349.2,-2245.11,0.958048,0.96763,-1.30331,-2802.34,-9634.23,-1278.15,-2.64851,5.40857,-1.18383,8843.39,1262.68,4264.44,-0.813547,3.00839,0.867707
0.238,4505.8,-3234.34,7949.05,-0.376762,0.997499,0.776848,4499.27,2897.73,8142.66,-0.525174,-1.05808,-0.93846,-31.1488,9656.16,-1311.72,-0.946119,0.612914,-0.288204,519.497,-9832.87,-452.247,-0.0794742,0.282064,0.334677,-1519.25,9363.38,-2237.98,0.963125,1.08344,-1.14647,-2843.46,-9611.8,-1220.97,-2.35881,5.17329,-1.28327,8860.42,1246.63,4249.75,-0.785346,3.19046,0.862133
0.239,4502.24,-3233.55,7956.06,-0.390405,0.98691,0.724127,4494.1,2884.25,8144.97,-0.511326,-0.941751,-0.889155,-39.2316,9650.0,-1316.92,-1.04912,0.636623,-0.282475,515.359,-9879.33,-425.049,0.0155121,0.215079,0.284265,-1554.87,9377.56,-2230.85,0.968202,1.19926,-0.98963,-2884.58,-9589.37,-1163.78,-2.06912,4.93801,-1.38271,8877.46,1230.58,4235.06,-0.757146,3.37253,0.85656
0.24,4498.68,-3232.76,7963.07,-0.404049,0.97632,0.671406,4488.93,2870.78,8147.27,-0.497478,-0.825422,-0.839851,-47.3144,9643.84,-1322.12,-1.15212,0.660332,-0.276745,511.22,-9925.79,-397.85,0.110498,0.148094,0.233853,-1590.5,9391.75,-2223.73,0.973279,1.31507,-0.832791,-2925.7,-9566.94,-1106.59,-1.77942,4.70272,-1.48215,8894.49,1214.53,4220.37,-0.728946,3.5546,0.850986
0.241,4514.48,-3226.58,7980.99,-0.450433,0.941453,0.612742,4473.68,2886.65,8117.26,-0.283858,-0.757451,-0.864622,-45.2107,9643.84,-1308.15,-1.13121,0.622576,-0.384113,509.172,-9924.69,-462.251,-0.0218934,0.342756,0.318531,-1601.78,9375.92,-2226.4,1.01344,1.25544,-0.837054,-2941.61,-9523.99,-1093.86,-1.80992,4.14344,-1.54343,8887.27,1197.69,4224.04,-0.592566,3.51536,0.741717
0.242,4530.28,-3220.39,7998.9,-0.496817,0.906586,0.554078,4458.43,2902.53,8087.26,-0.070237,-0.689479,-0.889393,-43.1069,9643.84,-1294.18,-1.1103,0.584821,-0.491482,507.124,-9923.59,-526.653,-0.154285,0.537419,0.403209,-1613.06,9360.1,-2229.06,1.0536,1.19581,-0.841318,-2957.52,-9481.04,-1081.14,-1.84042,3.58416,-1.60471,8880.04,1180.85,4227.71,-0.456186,3.47612,0.632448
0.243,4546.08,-3214.2,8016.82,-0.543201,0.871719,0.495414,4443.18,2918.4,8057.26,0.143384,-0.621508,-0.914164,-41.0031,9643.84,-1280.22,-1.08939,0.547065,-0.59885,505.076,-9922.5,-591.054,-0.286677,0.732081,0.487887,-1624.34,9344.28,-2231.73,1.09375,1.13618,-0.845581,-2973.43,-9438.09,-1068.41,-1.87092,3.02488,-1.66598,8872.82,1164.02,4231.37,-0.319806,3.43688,0.52318
0.244,4561.87,-3208.02,8034.73,-0.589585,0.836852,0.43675,4427.94,2934.28,8027.26,0.357004,-0.553537,-0.938935,-38.8994,9643.84,-1266.25,-1.06848,0.509309,-0.706219,503.029,-9921.4,-655.455,-0.419068,0.926743,0.572565,-1635.62,9328.46,-2234.4,1.13391,1.07654,-0.849845,-2989.34,-9395.14,-1055.68,-1.90143,2.46559,-1.72726,8865.6,1147.18,4235.04,-0.183426,3.39764,0.413911
0.245,4579.34,-3196.85,8049.95,-0.624963,0.795453,0.395266,4415.64,2971.95,8016.86,0.484917,-0.525526,-0.907081,-38.01,9644.5,-1267.64,-1.09332,0.498333,-0.691483,503.12,-9919.73,-683.278,-0.50887,1.18287,0.607783,-1614.24,9342.43,-2240.29,1.07899,1.10006,-0.82994,-2964.89,-9378.46,-1058.43,-1.98094,2.02416,-1.66122,8861.04,1134.31,4237.88,-0.0810895,3.39879,0.394366
0.246,4598.15,-3181.71,8063.01,-0.651537,0.748828,0.367525,4405.7,3027.06,8022.13,0.544264,-0.529483,-0.829927,-38.0922,9645.67,-1281.29,-1.15475,0.508781,-0.579064,504.923,-9917.61,-681.838,-0.564598,1.48816,0.603433,-1566.74,9380.24,-2248.75,0.947995,1.1901,-0.790699,-2908.16,-9382.79,-1073.58,-2.09966,1.67701,-1.49332,8858.6,1124.6,4240.05,-0.00598749,3.43227,0.446599
0.247,4616.95,-3166.56,8076.07,-0.67811,0.702204,0.339784,4395.77,3082.17,8027.41,0.60361,-0.53344,-0.752774,-38.1744,9646.84,-1294.95,-1.21618,0.519228,-0.466645,506.726,-9915.48,-680.398,-0.620327,1.79345,0.599083,-1519.24,9418.06,-2257.22,0.817003,1.28013,-0.751459,-2851.43,-9387.12,-1088.72,-2.21837,1.32986,-1.32542,8856.17,1114.89,4242.23,0.0691146,3.46574,0.498832
0.248,4635.76,-3151.41,8089.13,-0.704683,0.65558,0.312043,4385.83,3137.29,8032.69,0.662957,-0.537397,-0.67562,-38.2566,9648.01,-1308.61,-1.27762,0.529676,-0.354226,508.529,-9913.36,-678.958,-0.676055,2.09874,0.594733,-1471.74,9455.87,-2265.69,0.686011,1.37017,-0.712219,-2794.7,-9391.45,-1103.86,-2.33709,0.982705,-1.15753,8853.73,1105.19,4244.4,0.144217,3.49921,0.551066
0.249,4652.14,-3137.47,8099.68,-0.726929,0.619511,0.281302,4378.86,3183.0,8038.4,0.713458,-0.542453,-0.605592,-39.6918,9650.5,-1317.99,-1.3287,0.535143,-0.257093,511.679,-9910.79,-677.674,-0.718508,2.36502,0.589114,-1429.92,9486.36,-2275.81,0.561629,1.458,-0.69503,-2745.09,-9392.32,-1117.85,-2.4572,0.651826,-0.996534,8850.54,1094.83,4244.59,0.219095,3.53613,0.600295
0.25,4649.14,-3133.15,8090.15,-0.714547,0.667888,0.226564,4395.56,3153.54,8047.53,0.693201,-0.556301,-0.592574,-51.9511,9663.55,-1293.15,-1.29696,0.500772,-0.282253,525.611,-9904.63,-677.641,-0.65475,2.31922,0.573344,-1433.51,9458.29,-2299.2,0.490124,1.52812,-0.854253,-2752.47,-9365.47,-1122.63,-2.58844,0.45114,-0.890804,8841.26,1079.31,4228.93,0.292185,3.60066,0.625497
0.251,4646.13,-3128.82,8080.61,-0.702165,0.716265,0.171827,4412.27,3124.09,8056.66,0.672944,-0.570149,-0.579556,-64.2104,9676.58,-1268.31,-1.26522,0.4664,-0.307413,539.542,-9898.48,-677.609,-0.590993,2.27342,0.557574,-1437.11,9430.22,-2322.6,0.418619,1.59825,-1.01348,-2759.86,-9338.63,-1127.4,-2.71967,0.250455,-0.785074,8831.99,1063.79,4213.26,0.365276,3.66518,0.650699
0.252,4643.13,-3124.5,8071.08,-0.689784,0.764642,0.117089,4428.98,3094.63,8065.79,0.652688,-0.583997,-0.566538,-76.4697,9689.63,-1243.47,-1.23348,0.432029,-0.332573,553.474,-9892.32,-677.576,-0.527236,2.22762,0.541804,-1440.7,9402.14,-2345.99,0.347114,1.66838,-1.1727,-2767.24,-9311.78,-1132.18,-2.85091,0.049769,-0.679344,8822.71,1048.27,4197.59,0.438366,3.72971,0.675901
0.253,4640.12,-3120.18,8061.54,-0.677402,0.813019,0.0623511,4445.68,3065.17,8074.92,0.632431,-0.597845,-0.553519,-88.729,9702.66,-1218.63,-1.20174,0.397658,-0.357733,567.405,-9886.17,-677.543,-0.463478,2.18182,0.526034,-1444.3,9374.07,-2369.38,0.275609,1.73851,-1.33192,-2774.63,-9284.93,-1136.95,-2.98215,-0.150917,-0.573614,8813.44,1032.75,4181.93,0.511456,3.79423,0.701103
0.254,4622.27,-3114.93,8046.24,-0.615068,0.808568,0.0709894,4447.28,3074.51,8074.26,0.542646,-0.627835,-0.637962,-93.707,9708.47,-1217.1,-1.14978,0.331235,-0.370073,566.866,-9878.31,-685.228,-0.493069,2.09385,0.55059,-1448.41,9364.2,-2368.4,0.214631,1.889,-1.36077,-2781.97,-9281.39,-1175.13,-3.02323,-0.255743,-0.490423,8807.44,1040.68,4192.32,0.528671,3.8805,0.778472
0.255,4596.99,-3109.22,8028.06,-0.527756,0.777703,0.111316,4441.33,3103.24,8068.7,0.418097,-0.665896,-0.771135,-95.0444,9710.65,-1227.22,-1.08771,0.248787,-0.376002,559.092,-9869.6,-696.771,-0.569335,1.9848,0.595309,-1452.78,9363.44,-2355.23,0.158916,2.07968,-1.32444,-2789.29,-9289.5,-1230.0,-3.01924,-0.312639,-0.4185,8803.09,1060.33,4215.73,0.517947,3.97764,0.881925
0.256,4571.71,-3103.51,8009.87,-0.440445,0.746838,0.151642,4435.38,3131.98,8063.15,0.293548,-0.703957,-0.904307,-96.3818,9712.83,-1237.33,-1.02564,0.166339,-0.381932,551.318,-9860.89,-708.314,-0.6456,1.87575,0.640029,-1457.15,9362.68,-2342.06,0.103201,2.27035,-1.28811,-2796.6,-9297.6,-1284.87,-3.01525,-0.369535,-0.346577,8798.73,1079.98,4239.14,0.507224,4.07478,0.985378
0.257,4546.43,-3097.79,7991.69,-0.353134,0.715973,0.191968,4429.42,3160.72,8057.59,0.169,-0.742018,-1.03748,-97.7192,9715.01,-1247.45,-0.963575,0.0838909,-0.387861,543.544,-9852.18,-719.857,-0.721865,1.76669,0.684749,-1461.53,9361.92,-2328.89,0.047486,2.46102,-1.25177,-2803.92,-9305.71,-1339.74,-3.01126,-0.426432,-0.274654,8794.37,1099.64,4262.56,0.4965,4.17192,1.08883
0.258,4525.33,-3093.11,7975.86,-0.29769,0.688953,0.240785,4423.9,3181.95,8052.22,0.0440718,-0.76727,-1.12058,-94.0034,9716.84,-1259.11,-0.916399,0.025731,-0.401527,535.077,-9840.15,-727.858,-0.769437,1.71729,0.719357,-1462.09,9358.48,-2315.03,-0.00512773,2.63122,-1.23546,-2808.89,-9315.9,-1383.63,-2.97741,-0.44209,-0.205173,8796.92,1116.57,4282.82,0.494762,4.26759,1.15856
0.259,4518.89,-3092.06,7968.27,-0.353783,0.675387,0.319317,4419.87,3176.94,8047.49,-0.0821824,-0.747689,-1.0284,-72.6011,9717.47,-1276.13,-0.921345,0.0525798,-0.442272,524.188,-9816.51,-723.463,-0.716584,1.87666,0.718575,-1449.35,9345.67,-2298.78,-0.0468878,2.72975,-1.28919,-2805.66,-9333.38,-1389.05,-2.83904,-0.313415,-0.144241,8823.63,1123.98,4292.05,0.524471,4.35813,1.11027
0.26,4512.45,-3091.0,7960.69,-0.409876,0.661822,0.397848,4415.85,3171.94,8042.76,-0.208437,-0.728107,-0.936229,-51.1989,9718.1,-1293.15,-0.926292,0.0794287,-0.483017,513.299,-9792.87,-719.069,-0.66373,2.03602,0.717793,-1436.61,9332.85,-2282.52,-0.0886478,2.82828,-1.34292,-2802.43,-9350.86,-1394.46,-2.70067,-0.18474,-0.0833093,8850.34,1131.4,4301.29,0.55418,4.44866,1.06197
0.261,4506.0,-3089.95,7953.1,-0.465969,0.648257,0.47638,4411.82,3166.93,8038.03,-0.334691,-0.708526,-0.844055,-29.7966,9718.73,-1310.17,-0.931238,0.106278,-0.523762,502.409,-9769.22,-714.674,-0.610877,2.19538,0.717011,-1423.87,9320.04,-2266.26,-0.130408,2.92681,-1.39666,-2799.21,-9368.34,-1399.88,-2.5623,-0.0560646,-0.0223774,8877.05,1138.82,4310.52,0.583889,4.5392,1.01367
0.262,4499.56,-3088.89,7945.51,-0.522062,0.634692,0.554912,4407.8,3161.92,8033.3,-0.460945,-0.688944,-0.751882,-8.39438,9719.36,-1327.19,-0.936184,0.133126,-0.564506,491.52,-9745.58,-710.279,-0.558024,2.35475,0.716229,-1411.13,9307.22,-2250.01,-0.172168,3.02534,-1.45039,-2795.98,-9385.83,-1405.3,-2.42392,0.0726105,0.0385545,8903.76,1146.23,4319.76,0.613598,4.62974,0.965375
0.263,4487.99,-3086.02,7964.87,-0.532486,0.682567,0.531038,4393.07,3150.85,8037.91,-0.489932,-0.63425,-0.720867,-3.93628,9711.57,-1319.55,-0.973943,0.0813042,-0.519521,513.45,-9778.76,-703.099,-0.464819,2.2917,0.621171,-1420.77,9314.33,-2249.63,-0.192402,3.19731,-1.36666,-2798.36,-9407.76,-1390.42,-2.40892,0.14102,0.165379,8912.89,1142.85,4320.73,0.703928,4.69846,1.04386
0.264,4474.94,-3082.63,7991.91,-0.529861,0.747996,0.477904,4375.28,3138.04,8045.19,-0.491129,-0.569524,-0.707327,-4.31937,9701.38,-1304.86,-1.02108,0.00700464,-0.450041,544.758,-9828.17,-695.123,-0.360086,2.16511,0.499177,-1436.81,9327.14,-2253.8,-0.206486,3.39025,-1.24365,-2802.35,-9430.96,-1369.74,-2.42915,0.192211,0.31103,8917.0,1136.37,4319.33,0.811579,4.76095,1.15858
0.265,4461.9,-3079.24,8018.96,-0.527236,0.813425,0.424771,4357.49,3125.24,8052.46,-0.492326,-0.504798,-0.693787,-4.70245,9691.18,-1290.17,-1.06821,-0.0672949,-0.380562,576.065,-9877.59,-687.147,-0.255352,2.03852,0.377183,-1452.84,9339.95,-2257.96,-0.22057,3.58319,-1.12064,-2806.34,-9454.16,-1349.06,-2.44939,0.243402,0.456682,8921.1,1129.9,4317.94,0.919229,4.82343,1.27329
0.266,4448.86,-3075.85,8046.01,-0.524612,0.878855,0.371637,4339.7,3112.43,8059.74,-0.493522,-0.440072,-0.680247,-5.08553,9680.99,-1275.48,-1.11534,-0.141595,-0.311082,607.372,-9927.0,-679.171,-0.150619,1.91193,0.255189,-1468.88,9352.76,-2262.13,-0.234654,3.77614,-0.997635,-2810.32,-9477.36,-1328.38,-2.46963,0.294593,0.602333,8925.21,1123.42,4316.55,1.02688,4.88592,1.388
0.267,4443.42,-3074.92,8062.57,-0.502932,0.911963,0.296039,4333.71,3104.11,8064.56,-0.535398,-0.377995,-0.675374,-9.91263,9672.95,-1268.49,-1.16795,-0.193778,-0.250189,623.492,-9954.75,-670.494,-0.116708,1.83678,0.21103,-1476.69,9365.57,-2259.57,-0.27154,3.94662,-0.933807,-2808.37,-9491.46,-1314.39,-2.49923,0.350943,0.709805,8926.8,1111.36,4318.37,1.12434,4.93307,1.46088
0.268,4453.16,-3078.89,8058.16,-0.443142,0.880429,0.175511,4351.31,3104.77,8064.45,-0.658631,-0.321217,-0.687836,-23.6278,9669.21,-1276.9,-1.23151,-0.201729,-0.206471,609.239,-9939.16,-660.417,-0.22444,1.86454,0.322542,-1468.03,9378.38,-2243.59,-0.35403,4.07218,-0.988338,-2794.55,-9487.36,-1313.78,-2.54757,0.41761,0.740918,8923.37,1088.12,4326.6,1.20142,4.94953,1.4501
0.269,4462.91,-3082.87,8053.74,-0.383353,0.848896,0.054984,4368.91,3105.42,8064.34,-0.781864,-0.264439,-0.700298,-37.3429,9665.47,-1285.32,-1.29507,-0.20968,-0.162752,594.985,-9923.57,-650.339,-0.332173,1.89229,0.434053,-1459.37,9391.19,-2227.6,-0.436519,4.19774,-1.04287,-2780.73,-9483.26,-1313.17,-2.59591,0.484277,0.772032,8919.94,1064.88,4334.83,1.27851,4.96599,1.43931
0.27,4472.66,-3086.84,8049.33,-0.323563,0.817362,-0.0655435,4386.51,3106.07,8064.23,-0.905096,-0.207662,-0.71276,-51.058,9661.73,-1293.74,-1.35863,-0.217631,-0.119034,580.731,-9907.98,-640.261,-0.439906,1.92005,0.545564,-1450.71,9404.01,-2211.62,-0.519009,4.3233,-1.0974,-2766.91,-9479.17,-1312.56,-2.64424,0.550944,0.803145,8916.51,1041.65,4343.06,1.35559,4.98244,1.42852
0.271,4482.41,-3090.82,8044.91,-0.263773,0.785828,-0.186071,4404.11,3106.72,8064.13,-1.02833,-0.150884,-0.725222,-64.7731,9657.98,-1302.15,-1.42219,-0.225582,-0.0753156,566.478,-9892.39,-630.183,-0.547639,1.9478,0.657075,-1442.05,9416.82,-2195.63,-0.601498,4.44886,-1.15193,-2753.09,-9475.07,-1311.95,-2.69258,0.617611,0.834258,8913.08,1018.41,4351.29,1.43268,4.9989,1.41773
0.272,4495.3,-3080.72,8024.87,-0.225064,0.734226,-0.13791,4413.98,3122.76,8064.9,-0.997377,-0.207163,-0.694185,-58.5427,9664.88,-1297.57,-1.37793,-0.209399,-0.146361,555.948,-9892.8,-642.748,-0.453132,1.93828,0.667002,-1435.51,9404.11,-2213.58,-0.623547,4.68139,-1.12339,-2746.79,-9448.67,-1312.1,-2.74105,0.656001,0.859224,8913.88,1028.23,4349.68,1.53797,4.96803,1.4128
0.273,4508.59,-3068.87,8002.89,-0.18899,0.680115,-0.068662,4422.88,3140.73,8065.79,-0.947152,-0.277575,-0.657712,-49.8191,9673.11,-1291.37,-1.3202,-0.1902,-0.231752,545.884,-9895.21,-658.143,-0.333345,1.92411,0.664231,-1429.23,9388.21,-2235.78,-0.63804,4.9273,-1.08447,-2741.43,-9419.48,-1312.35,-2.78953,0.690857,0.883422,8915.22,1042.17,4346.84,1.64679,4.93124,1.40861
0.274,4521.87,-3057.02,7980.9,-0.152916,0.626004,0.000585496,4431.78,3158.7,8066.68,-0.896926,-0.347986,-0.621239,-41.0955,9681.34,-1285.16,-1.26247,-0.171,-0.317142,535.821,-9897.63,-673.539,-0.213558,1.90993,0.661461,-1422.95,9372.3,-2257.98,-0.652534,5.1732,-1.04555,-2736.07,-9390.29,-1312.6,-2.83801,0.725712,0.907619,8916.55,1056.12,4344.01,1.75562,4.89445,1.40441
0.275,4535.16,-3045.17,7958.91,-0.116842,0.571893,0.069833,4440.68,3176.67,8067.57,-0.8467,-0.418398,-0.584765,-32.3719,9689.57,-1278.95,-1.20474,-0.1518,-0.402533,525.757,-9900.04,-688.934,-0.0937703,1.89575,0.65869,-1416.67,9356.4,-2280.18,-0.667027,5.4191,-1.00663,-2730.71,-9361.1,-1312.84,-2.8865,0.760568,0.931817,8917.88,1070.07,4341.17,1.86444,4.85766,1.40021
0.276,4535.08,-3043.12,7948.49,-0.0757205,0.575845,0.136735,4439.7,3176.3,8067.21,-0.867039,-0.46058,-0.574258,-25.1013,9697.61,-1275.42,-1.1459,-0.149371,-0.435555,514.902,-9897.62,-697.007,-0.0437439,1.89884,0.692219,-1417.09,9351.28,-2285.57,-0.69954,5.57285,-1.03671,-2742.93,-9335.22,-1308.55,-2.89101,0.839386,0.926416,8913.72,1082.37,4340.79,1.93896,4.83474,1.42203
0.277,4518.29,-3053.35,7952.53,-0.028289,0.652376,0.200704,4426.38,3153.01,8065.31,-0.975581,-0.467475,-0.596208,-19.6469,9705.44,-1275.24,-1.08568,-0.167905,-0.403116,503.058,-9889.15,-695.927,-0.0809183,1.92353,0.771124,-1425.89,9359.64,-2269.95,-0.754579,5.61141,-1.15304,-2777.12,-9313.47,-1298.56,-2.84058,0.973158,0.884019,8902.7,1092.59,4343.48,1.9706,4.82916,1.47637
0.278,4501.5,-3063.57,7956.57,0.0191424,0.728906,0.264674,4413.06,3129.72,8063.41,-1.08412,-0.47437,-0.618158,-14.1925,9713.26,-1275.06,-1.02546,-0.186439,-0.370677,491.214,-9880.68,-694.847,-0.118093,1.94821,0.850029,-1434.68,9367.99,-2254.33,-0.809618,5.64997,-1.26938,-2811.31,-9291.72,-1288.58,-2.79015,1.10693,0.841622,8891.68,1102.82,4346.16,2.00225,4.82358,1.53071
0.279,4484.72,-3073.79,7960.62,0.0665739,0.805437,0.328643,4399.74,3106.43,8061.5,-1.19267,-0.481265,-0.640108,-8.73815,9721.08,-1274.87,-0.965235,-0.204973,-0.338239,479.37,-9872.21,-693.768,-0.155267,1.97289,0.928933,-1443.47,9376.34,-2238.7,-0.864657,5.68853,-1.38572,-2845.5,-9269.98,-1278.6,-2.73971,1.2407,0.799225,8880.66,1113.05,4348.85,2.03389,4.81801,1.58505
0.28,4467.93,-3084.01,7964.66,0.114005,0.881967,0.392613,4386.42,3083.14,8059.6,-1.30121,-0.48816,-0.662058,-3.28378,9728.9,-1274.69,-0.905013,-0.223507,-0.3058,467.526,-9863.74,-692.688,-0.192442,1.99757,1.00784,-1452.27,9384.7,-2223.08,-0.919696,5.72709,-1.50205,-2879.69,-9248.23,-1268.62,-2.68928,1.37447,0.756828,8869.64,1123.28,4351.53,2.06554,4.81243,1.63939
0.281,4473.63,-3090.41,7964.7,0.10957,0.916926,0.400381,4370.2,3067.04,8065.47,-1.31049,-0.462526,-0.638485,-13.6042,9698.09,-1290.15,-0.873751,-0.242852,-0.359404,486.697,-9870.03,-675.98,-0.258111,1.89136,0.963903,-1465.54,9379.33,-2233.3,-0.96255,5.65023,-1.29297,-2905.55,-9272.78,-1261.86,-2.60134,1.56864,0.72308,8857.38,1121.32,4337.08,2.08294,4.78519,1.596
0.282,4479.33,-3096.82,7964.75,0.105135,0.951885,0.40815,4353.98,3050.94,8071.35,-1.31976,-0.436891,-0.614912,-23.9247,9667.29,-1305.61,-0.842489,-0.262198,-0.413009,505.867,-9876.32,-659.273,-0.32378,1.78514,0.919967,-1478.82,9373.97,-2243.51,-1.0054,5.57337,-1.08388,-2931.41,-9297.33,-1255.11,-2.5134,1.7628,0.689332,8845.13,1119.36,4322.63,2.10034,4.75795,1.5526
0.283,4485.04,-3103.22,7964.79,0.1007,0.986844,0.415919,4337.76,3034.83,8077.22,-1.32904,-0.411257,-0.591339,-34.2451,9636.48,-1321.07,-0.811226,-0.281544,-0.466613,525.037,-9882.61,-642.565,-0.389449,1.67892,0.876032,-1492.1,9368.61,-2253.72,-1.04826,5.49651,-0.874789,-2957.27,-9321.87,-1248.35,-2.42546,1.95696,0.655584,8832.87,1117.4,4308.18,2.11774,4.73071,1.50921
0.284,4490.74,-3109.62,7964.83,0.0962647,1.0218,0.423687,4321.54,3018.73,8083.09,-1.33832,-0.385623,-0.567766,-44.5656,9605.67,-1336.54,-0.779964,-0.300889,-0.520218,544.207,-9888.89,-625.857,-0.455118,1.57271,0.832097,-1505.38,9363.25,-2263.94,-1.09111,5.41965,-0.665701,-2983.13,-9346.42,-1241.6,-2.33753,2.15113,0.621836,8820.62,1115.44,4293.73,2.13514,4.70347,1.46582
0.285,4494.28,-3106.72,7968.01,0.112639,0.958572,0.359625,4319.38,3009.32,8079.74,-1.40712,-0.401962,-0.563462,-49.3536,9597.86,-1339.14,-0.727842,-0.401016,-0.510959,558.656,-9903.99,-610.121,-0.400883,1.48703,0.828041,-1522.16,9358.57,-2246.13,-1.15229,5.44454,-0.659504,-3003.52,-9346.87,-1227.52,-2.33149,2.2506,0.652019,8814.95,1115.46,4285.04,2.14068,4.71682,1.4644
0.286,4496.09,-3096.39,7973.7,0.145662,0.81679,0.238097,4328.46,3005.28,8069.0,-1.52354,-0.451879,-0.574573,-49.7157,9608.46,-1331.45,-0.659032,-0.565769,-0.45141,569.329,-9926.13,-595.162,-0.250726,1.4178,0.85589,-1541.76,9354.44,-2205.9,-1.22813,5.55084,-0.815619,-3019.55,-9328.03,-1207.58,-2.39098,2.27432,0.733347,8814.55,1117.07,4280.94,2.13672,4.76264,1.49657
0.287,4497.91,-3086.06,7979.38,0.178685,0.675008,0.11657,4337.53,3001.23,8058.27,-1.63996,-0.501797,-0.585684,-50.0778,9619.05,-1323.77,-0.590222,-0.730521,-0.39186,580.001,-9948.27,-580.203,-0.10057,1.34856,0.883738,-1561.35,9350.31,-2165.67,-1.30396,5.65714,-0.971735,-3035.57,-9309.2,-1187.64,-2.45047,2.29803,0.814676,8814.16,1118.68,4276.84,2.13276,4.80845,1.52874
0.288,4499.72,-3075.73,7985.06,0.211707,0.533227,-0.00495726,4346.61,2997.18,8047.53,-1.75638,-0.551715,-0.596795,-50.4399,9629.64,-1316.08,-0.521412,-0.895273,-0.332311,590.674,-9970.41,-565.243,0.0495873,1.27932,0.911586,-1580.94,9346.18,-2125.44,-1.3798,5.76343,-1.12785,-3051.59,-9290.37,-1167.69,-2.50996,2.32175,0.896005,8813.76,1120.28,4272.74,2.1288,4.85427,1.5609
0.289,4503.45,-3064.97,7992.55,0.244943,0.41985,-0.105234,4358.5,2991.85,8036.54,-1.86066,-0.587736,-0.60821,-47.8845,9639.3,-1309.04,-0.471975,-1.02816,-0.281509,599.217,-9988.61,-549.948,0.178716,1.20313,0.936047,-1597.79,9340.04,-2090.84,-1.43682,5.85888,-1.25776,-3065.58,-9273.88,-1146.21,-2.56698,2.3317,0.973845,8815.07,1121.49,4267.54,2.13261,4.89683,1.59817
0.29,4522.46,-3050.82,8014.43,0.279889,0.533712,-0.0355094,4392.93,2976.3,8023.57,-1.8678,-0.512588,-0.622058,-21.9888,9641.51,-1307.09,-0.577514,-0.906079,-0.300686,590.728,-9975.22,-531.966,0.139619,1.07131,0.933405,-1592.67,9317.78,-2101.28,-1.34326,5.86756,-1.17805,-3063.26,-9276.19,-1112.4,-2.60419,2.2315,1.02378,8830.04,1119.51,4253.5,2.19854,4.91334,1.67628
0.291,4541.48,-3036.67,8036.31,0.314834,0.647574,0.0342156,4427.36,2960.75,8010.59,-1.87495,-0.437439,-0.635906,3.90695,9643.72,-1305.14,-0.683054,-0.784003,-0.319864,582.239,-9961.82,-513.983,0.100522,0.939493,0.930762,-1587.56,9295.52,-2111.73,-1.2497,5.87624,-1.09833,-3060.94,-9278.51,-1078.58,-2.6414,2.1313,1.07372,8845.02,1117.53,4239.46,2.26446,4.92985,1.75438
0.292,4560.49,-3022.52,8058.2,0.34978,0.761436,0.103941,4461.79,2945.2,7997.61,-1.88209,-0.362291,-0.649754,29.8027,9645.93,-1303.2,-0.788594,-0.661926,-0.339042,573.75,-9948.43,-496.0,0.0614253,0.807676,0.92812,-1582.44,9273.26,-2122.17,-1.15615,5.88492,-1.01862,-3058.61,-9280.82,-1044.77,-2.67862,2.0311,1.12366,8859.99,1115.55,4225.43,2.33039,4.94635,1.83249
0.293,4579.5,-3008.37,8080.08,0.384726,0.875298,0.173666,4496.21,2929.64,7984.63,-1.88924,-0.287142,-0.663602,55.6984,9648.13,-1301.25,-0.894134,-0.53985,-0.358219,565.261,-9935.04,-478.017,0.0223284,0.675859,0.925477,-1577.32,9251.0,-2132.61,-1.06259,5.8936,-0.938904,-3056.29,-9283.13,-1010.96,-2.71583,1.93091,1.1736,8874.97,1113.57,4211.39,2.39632,4.96286,1.91059
0.294,4590.91,-3017.09,8089.0,0.421808,0.998749,0.20147,4486.11,2940.47,7994.35,-1.89162,-0.347207,-0.57207,64.43,9655.36,-1303.25,-0.96503,-0.470049,-0.328226,548.091,-9924.02,-476.649,-0.0241078,0.620621,0.911826,-1577.2,9262.62,-2138.03,-1.01763,6.0123,-0.905706,-3062.18,-9295.16,-992.806,-2.80012,1.82964,1.23368,8879.51,1117.69,4218.58,2.43083,4.94302,1.90261
0.295,4598.52,-3037.25,8091.43,0.459958,1.12699,0.208315,4453.75,2964.48,8015.43,-1.89162,-0.474879,-0.427849,64.5795,9665.09,-1307.22,-1.0186,-0.426386,-0.273647,526.581,-9914.2,-483.588,-0.0742137,0.603672,0.89267,-1579.57,9291.19,-2140.94,-0.99697,6.18601,-0.895765,-3072.17,-9312.03,-982.488,-2.90795,1.72784,1.29884,8878.83,1124.84,4236.38,2.44962,4.905,1.85158
0.296,4606.13,-3057.41,8093.86,0.498109,1.25524,0.21516,4421.39,2988.49,8036.5,-1.89162,-0.60255,-0.283627,64.7289,9674.83,-1311.2,-1.07218,-0.382723,-0.219069,505.07,-9904.36,-490.527,-0.12432,0.586723,0.873514,-1581.94,9319.75,-2143.85,-0.976308,6.35971,-0.885825,-3082.16,-9328.91,-972.17,-3.01577,1.62604,1.36399,8878.15,1132.0,4254.18,2.46841,4.86698,1.80055
0.297,4613.73,-3077.57,8096.3,0.536259,1.38348,0.222005,4389.03,3012.51,8057.57,-1.89162,-0.730222,-0.139406,64.8784,9684.56,-1315.17,-1.12575,-0.33906,-0.16449,483.559,-9894.54,-497.467,-0.174425,0.569773,0.854358,-1584.32,9348.31,-2146.75,-0.955647,6.53342,-0.875884,-3092.15,-9345.79,-961.852,-3.1236,1.52424,1.42914,8877.47,1139.16,4271.98,2.4872,4.82896,1.74952
0.298,4620.63,-3092.17,8096.25,0.540011,1.4837,0.218081,4366.32,3025.86,8071.15,-1.90343,-0.83076,-0.0524537,61.0766,9692.03,-1318.73,-1.15577,-0.300205,-0.119243,466.266,-9889.14,-503.705,-0.221463,0.532589,0.857299,-1591.27,9366.59,-2151.97,-0.959323,6.67973,-0.879464,-3099.65,-9359.08,-958.077,-3.22785,1.38665,1.49117,8873.23,1143.12,4286.06,2.50491,4.81378,1.70676
0.299,4625.03,-3087.3,8087.49,0.423366,1.48584,0.17647,4377.39,3001.87,8058.51,-1.9566,-0.836331,-0.165944,43.4454,9691.56,-1320.82,-1.10333,-0.278179,-0.106656,463.733,-9899.28,-507.492,-0.257762,0.424578,0.937581,-1614.25,9348.9,-2165.29,-1.04818,6.73019,-0.930368,-3098.48,-9359.8,-977.203,-3.31957,1.1238,1.54228,8856.54,1135.86,4287.16,2.51879,4.87856,1.69289
0.3,4629.43,-3082.44,8078.74,0.306721,1.48798,0.134858,4388.46,2977.89,8045.87,-2.00976,-0.841901,-0.279434,25.8142,9691.08,-1322.92,-1.05089,-0.256152,-0.0940699,461.201,-9909.41,-511.278,-0.294061,0.316568,1.01786,-1637.24,9331.2,-2178.6,-1.13704,6.78065,-0.981272,-3097.31,-9360.52,-996.328,-3.4113,0.860944,1.59338,8839.85,1128.6,4288.25,2.53268,4.94334,1.67903
0.301,4633.83,-3077.58,8069.98,0.190076,1.49012,0.0932462,4399.54,2953.91,8033.23,-2.06292,-0.847472,-0.392925,8.18304,9690.61,-1325.02,-0.998455,-0.234126,-0.0814834,458.669,-9919.54,-515.065,-0.33036,0.208558,1.09815,-1660.23,9313.5,-2191.92,-1.2259,6.83111,-1.03218,-3096.14,-9361.24,-1015.45,-3.50302,0.598089,1.64448,8823.15,1121.34,4289.34,2.54656,5.00812,1.66517
0.302,4638.23,-3072.71,8061.23,0.0734313,1.49226,0.0516346,4410.61,2929.93,8020.58,-2.11609,-0.853042,-0.506415,-9.44815,9690.14,-1327.12,-0.946018,-0.212099,-0.0688968,456.136,-9929.68,-518.851,-0.366659,0.100548,1.17843,-1683.21,9295.81,-2205.23,-1.31476,6.88157,-1.08308,-3094.97,-9361.96,-1034.58,-3.59475,0.335234,1.69559,8806.46,1114.08,4290.44,2.56044,5.0729,1.65131
0.303,4633.0,-3068.07,8050.36,0.0344701,1.47116,-0.0232395,4403.57,2943.6,8016.61,-2.15013,-0.85428,-0.482558,-8.56977,9683.42,-1320.64,-0.909671,-0.14701,-0.0563668,468.074,-9935.64,-514.048,-0.42761,-0.0230904,1.16321,-1694.7,9309.28,-2198.01,-1.31453,6.72991,-1.08519,-3085.32,-9364.43,-1029.55,-3.73393,0.0175822,1.73935,8804.39,1119.52,4299.6,2.58848,5.13209,1.68432
0.304,4625.02,-3063.49,8038.89,0.0177043,1.44342,-0.107617,4391.36,2968.03,8015.11,-2.1787,-0.85428,-0.419459,-2.40294,9674.92,-1311.72,-0.877923,-0.0696169,-0.0438529,484.146,-9940.4,-506.791,-0.495605,-0.151194,1.12071,-1702.89,9331.66,-2184.91,-1.28886,6.5205,-1.07336,-3073.26,-9367.39,-1017.62,-3.88667,-0.315726,1.78102,8806.5,1128.59,4311.06,2.62056,5.18967,1.73073
0.305,4617.04,-3058.91,8027.41,0.000938461,1.41568,-0.191995,4379.14,2992.45,8013.61,-2.20727,-0.85428,-0.35636,3.76389,9666.42,-1302.79,-0.846174,0.00777622,-0.0313391,500.219,-9945.16,-499.534,-0.5636,-0.279297,1.0782,-1711.09,9354.04,-2171.82,-1.26319,6.31109,-1.06153,-3061.19,-9370.35,-1005.69,-4.03941,-0.649033,1.82269,8808.61,1137.65,4322.52,2.65264,5.24725,1.77714
0.306,4609.06,-3054.33,8015.94,-0.0158274,1.38794,-0.276372,4366.93,3016.88,8012.11,-2.23585,-0.85428,-0.293261,9.93072,9657.92,-1293.86,-0.814426,0.0851693,-0.0188252,516.291,-9949.93,-492.277,-0.631594,-0.407401,1.0357,-1719.29,9376.42,-2158.72,-1.23752,6.10169,-1.0497,-3049.13,-9373.31,-993.756,-4.19215,-0.982341,1.86436,8810.71,1146.71,4333.98,2.68472,5.30483,1.82354
0.307,4609.66,-3057.43,8007.41,-0.0791419,1.34575,-0.310826,4358.33,3033.01,8013.93,-2.24609,-0.858789,-0.300264,8.68417,9660.43,-1290.01,-0.79326,0.144876,-0.0394123,527.608,-9952.27,-488.369,-0.650228,-0.504193,0.997275,-1720.89,9387.72,-2149.47,-1.22189,5.94214,-1.04642,-3047.2,-9367.51,-979.071,-4.33029,-1.33129,1.90284,8810.62,1155.84,4340.68,2.71565,5.32069,1.87463
0.308,4627.44,-3075.89,8004.79,-0.235554,1.27468,-0.245432,4356.97,3032.56,8022.4,-2.21967,-0.872317,-0.447468,-7.38917,9684.96,-1296.28,-0.79326,0.169211,-0.126201,529.414,-9949.76,-491.16,-0.570139,-0.538365,0.967018,-1709.29,9376.86,-2147.89,-1.22636,5.88229,-1.06027,-3065.56,-9344.18,-958.878,-4.43923,-1.71152,1.93496,8806.13,1165.08,4337.83,2.7443,5.25309,1.93506
0.309,4645.22,-3094.35,8002.17,-0.391966,1.20361,-0.180038,4355.61,3032.1,8030.87,-2.19326,-0.885845,-0.594672,-23.4625,9709.48,-1302.55,-0.79326,0.193545,-0.21299,531.221,-9947.26,-493.95,-0.490049,-0.572537,0.936761,-1697.69,9365.99,-2146.31,-1.23084,5.82245,-1.07411,-3083.91,-9320.85,-938.685,-4.54816,-2.09176,1.96708,8801.63,1174.32,4334.99,2.77295,5.18549,1.99549
0.31,4663.0,-3112.82,7999.55,-0.548378,1.13254,-0.114643,4354.24,3031.64,8039.34,-2.16684,-0.899372,-0.741876,-39.5358,9734.01,-1308.82,-0.79326,0.217879,-0.299779,533.028,-9944.75,-496.741,-0.40996,-0.606709,0.906505,-1686.1,9355.13,-2144.73,-1.23531,5.76261,-1.08795,-3102.27,-9297.52,-918.492,-4.65709,-2.47199,1.9992,8797.13,1183.57,4332.14,2.80159,5.11789,2.05592
0.311,4680.78,-3131.28,7996.92,-0.70479,1.06147,-0.0492491,4352.88,3031.18,8047.8,-2.14043,-0.9129,-0.88908,-55.6092,9758.53,-1315.1,-0.79326,0.242214,-0.386568,534.834,-9942.25,-499.531,-0.329871,-0.640881,0.876248,-1674.5,9344.27,-2143.15,-1.23978,5.70277,-1.10179,-3120.62,-9274.19,-898.3,-4.76603,-2.85222,2.03132,8792.64,1192.81,4329.3,2.83024,5.05029,2.11635
0.312,4671.53,-3133.18,8001.23,-0.712024,1.12591,0.0176347,4377.46,3043.49,8040.29,-2.12501,-0.926713,-0.834629,-56.3154,9767.58,-1321.62,-0.809464,0.27488,-0.358544,528.238,-9937.19,-496.778,-0.315588,-0.671079,0.871375,-1669.11,9334.01,-2125.85,-1.26543,5.58237,-1.11454,-3122.87,-9259.87,-924.994,-4.81486,-3.26925,2.11743,8775.55,1187.51,4320.81,2.89629,5.03495,2.12164
0.313,4658.9,-3133.02,8006.39,-0.70061,1.20729,0.0847048,4405.29,3057.4,8030.78,-2.11096,-0.94056,-0.754972,-55.1008,9774.7,-1328.18,-0.827694,0.308589,-0.316168,520.59,-9931.82,-493.332,-0.30953,-0.700781,0.869675,-1664.5,9323.82,-2106.59,-1.29371,5.4544,-1.12715,-3123.1,-9246.67,-957.548,-4.85618,-3.69087,2.21029,8756.89,1180.39,4311.62,2.96701,5.02615,2.12003
0.314,4646.27,-3132.85,8011.56,-0.689197,1.28867,0.151775,4433.12,3071.3,8021.27,-2.09691,-0.954408,-0.675314,-53.8861,9781.81,-1334.74,-0.845923,0.342297,-0.273793,512.943,-9926.44,-489.885,-0.303472,-0.730482,0.867975,-1659.9,9313.64,-2087.33,-1.322,5.32643,-1.13976,-3123.34,-9233.48,-990.103,-4.8975,-4.1125,2.30315,8738.23,1173.27,4302.42,3.03772,5.01734,2.11843
0.315,4633.64,-3132.69,8016.73,-0.677783,1.37005,0.218845,4460.94,3085.21,8011.76,-2.08286,-0.968256,-0.595657,-52.6715,9788.93,-1341.3,-0.864153,0.376005,-0.231417,505.296,-9921.07,-486.439,-0.297415,-0.760183,0.866275,-1655.29,9303.45,-2068.06,-1.35029,5.19846,-1.15237,-3123.57,-9220.28,-1022.66,-4.93882,-4.53412,2.396,8719.57,1166.15,4293.23,3.10844,5.00853,2.11683
0.316,4625.0,-3134.73,8021.72,-0.660378,1.41641,0.236306,4476.47,3085.75,8007.38,-2.06894,-0.963849,-0.581657,-53.1288,9792.64,-1340.94,-0.894994,0.401018,-0.179291,500.183,-9914.47,-493.005,-0.310254,-0.814019,0.860708,-1661.5,9296.81,-2051.9,-1.26243,4.9962,-1.16535,-3132.56,-9206.7,-1047.47,-5.00641,-4.97105,2.52536,8703.25,1168.77,4284.73,3.13988,5.00132,2.0697
0.317,4621.33,-3139.54,8026.51,-0.635484,1.41898,0.191757,4476.63,3069.6,8009.42,-2.05521,-0.936621,-0.649731,-55.6762,9792.09,-1331.91,-0.9416,0.415162,-0.114978,498.237,-9906.35,-512.086,-0.346713,-0.898023,0.850305,-1681.24,9294.61,-2039.61,-1.0294,4.70107,-1.17879,-3152.5,-9192.65,-1062.62,-5.10684,-5.42711,2.70033,8689.83,1183.56,4277.1,3.12223,4.9961,1.96568
0.318,4617.66,-3144.35,8031.3,-0.61059,1.42156,0.147207,4476.78,3053.45,8011.47,-2.04147,-0.909394,-0.717804,-58.2235,9791.54,-1322.89,-0.988205,0.429306,-0.0506638,496.292,-9898.22,-531.168,-0.383173,-0.982027,0.839903,-1700.99,9292.4,-2027.33,-0.796362,4.40595,-1.19222,-3172.45,-9178.6,-1077.76,-5.20727,-5.88317,2.87531,8676.42,1198.35,4269.47,3.10457,4.99089,1.86166
0.319,4613.99,-3149.15,8036.08,-0.585696,1.42413,0.102658,4476.94,3037.3,8013.51,-2.02773,-0.882167,-0.785877,-60.7709,9790.98,-1313.87,-1.03481,0.44345,0.01365,494.346,-9890.1,-550.25,-0.419633,-1.06603,0.8295,-1720.73,9290.2,-2015.04,-0.563326,4.11083,-1.20566,-3192.39,-9164.54,-1092.9,-5.3077,-6.33922,3.05028,8663.0,1213.14,4261.84,3.08691,4.98567,1.75764
0.32,4610.32,-3153.96,8040.87,-0.560802,1.4267,0.058108,4477.09,3021.15,8015.55,-2.01399,-0.854939,-0.85395,-63.3182,9790.43,-1304.84,-1.08142,0.457594,0.0779638,492.4,-9881.97,-569.331,-0.456093,-1.15004,0.819098,-1740.47,9287.99,-2002.75,-0.330291,3.81571,-1.2191,-3212.33,-9150.49,-1108.05,-5.40813,-6.79528,3.22526,8649.59,1227.93,4254.21,3.06925,4.98045,1.65362
0.321,4596.39,-3151.87,8053.17,-0.389351,1.43273,0.101312,4471.68,2993.42,7996.24,-2.0398,-0.909394,-0.826881,-57.4093,9767.23,-1300.65,-1.0715,0.534912,0.067987,483.975,-9876.34,-565.206,-0.456522,-1.23404,0.840743,-1705.71,9296.05,-2021.57,-0.2385,3.61099,-1.33859,-3220.25,-9155.5,-1093.82,-5.40475,-7.23749,3.2842,8672.7,1222.02,4253.35,2.95231,5.03096,1.57351
0.322,4582.47,-3149.77,8065.48,-0.217901,1.43876,0.144516,4466.27,2965.69,7976.92,-2.06561,-0.963849,-0.799811,-51.5004,9744.02,-1296.46,-1.06158,0.61223,0.0580103,475.549,-9870.71,-561.081,-0.456952,-1.31804,0.862389,-1670.95,9304.12,-2040.38,-0.14671,3.40627,-1.45808,-3228.18,-9160.51,-1079.59,-5.40138,-7.67971,3.34313,8695.82,1216.11,4252.49,2.83537,5.08147,1.49339
