Time,RFoot_accel.x,RFoot_accel.y,RFoot_accel.z,RFoot_gyro.x,RFoot_gyro.y,RFoot_gyro.z,LFoot_accel.x,LFoot_accel.y,LFoot_accel.z,LFoot_gyro.x,LFoot_gyro.y,LFoot_gyro.z,RShank_accel.x,RShank_accel.y,RShank_accel.z,RShank_gyro.x,RShank_gyro.y,RShank_gyro.z,LShank_accel.x,LShank_accel.y,LShank_accel.z,LShank_gyro.x,LShank_gyro.y,LShank_gyro.z,RThigh_accel.x,RThigh_accel.y,RThigh_accel.z,RThigh_gyro.x,RThigh_gyro.y,RThigh_gyro.z,LThigh_accel.x,LThigh_accel.y,LThigh_accel.z,LThigh_gyro.x,LThigh_gyro.y,LThigh_gyro.z,Pelvis_accel.x,Pelvis_accel.y,Pelvis_accel.z,Pelvis_gyro.x,Pelvis_gyro.y,Pelvis_gyro.z
0.0,4515.07,-3366.77,7824.64,2.17529,1.31605,-1.05054,3933.3,2632.25,7988.38,-7.71726,13.0849,9.29626,-103.815,9544.92,-2019.38,-3.78714,-2.17858,-1.48787,-374.264,-9639.71,-182.388,-2.87528,20.4556,7.04461,-1375.96,9354.85,-2571.21,-1.63255,1.1615,1.06732,-3656.52,-9233.38,-1217.85,-5.38353,3.31268,-0.775088,9168.0,1411.73,3799.28,-6.31331,-3.87883,4.39615
0.001,4508.9,-3379.4,7827.15,2.22624,1.31319,-1.04263,3948.34,2668.13,7981.76,-8.49406,13.2542,9.36186,-102.458,9566.02,-1998.14,-3.79477,-2.34605,-1.55664,-278.355,-9597.69,-123.161,-2.96495,20.4356,6.98738,-1401.68,9326.13,-2567.04,-1.64311,1.09956,1.07409,-3624.08,-9220.31,-1181.49,-5.60932,3.35443,-0.518144,9145.69,1407.49,3808.0,-6.31359,-3.72629,4.21612
0.002,4502.72,-3392.02,7829.67,2.27719,1.31034,-1.03472,3963.38,2704.0,7975.13,-9.27086,13.4235,9.42746,-101.1,9587.12,-1976.9,-3.80241,-2.51352,-1.6254,-182.445,-9555.68,-63.934,-3.05461,20.4155,6.93015,-1427.4,9297.4,-2562.88,-1.65366,1.03762,1.08086,-3591.63,-9207.24,-1145.13,-5.8351,3.39617,-0.261201,9123.38,1403.26,3816.71,-6.31386,-3.57374,4.0361
0.003,4496.55,-3404.65,7832.18,2.32814,1.30749,-1.02681,3978.42,2739.88,7968.5,-10.0477,13.5928,9.49306,-99.7429,9608.22,-1955.67,-3.81004,-2.68098,-1.69417,-86.5361,-9513.67,-4.70709,-3.14428,20.3955,6.87292,-1453.11,9268.67,-2558.71,-1.66422,0.975677,1.08763,-3559.18,-9194.17,-1108.78,-6.06088,3.43792,-0.00425767,9101.07,1399.02,3825.43,-6.31414,-3.4212,3.85608
0.004,4490.37,-3417.27,7834.69,2.37909,1.30464,-1.0189,3993.46,2775.75,7961.87,-10.8245,13.7621,9.55867,-98.3854,9629.32,-1934.43,-3.81768,-2.84845,-1.76293,9.37325,-9471.65,54.5199,-3.23394,20.3754,6.81569,-1478.83,9239.95,-2554.54,-1.67478,0.913737,1.09441,-3526.73,-9181.1,-1072.42,-6.28667,3.47967,0.252686,9078.76,1394.79,3834.15,-6.31441,-3.26866,3.67605
0.005,4486.34,-3415.97,7834.13,2.45882,1.33515,-0.99807,4042.93,2812.34,7954.37,-11.4272,13.8715,9.49107,-121.984,9636.66,-1917.86,-3.78986,-3.10378,-1.74249,81.8303,-9477.25,98.0905,-3.3634,19.81,6.68668,-1488.7,9228.69,-2538.73,-1.69962,0.882372,1.09064,-3517.14,-9157.51,-1061.07,-6.46115,3.43065,0.538968,9071.87,1391.39,3843.18,-6.25246,-3.12025,3.42617
0.006,4484.01,-3403.54,7831.1,2.56157,1.39235,-0.966899,4119.94,2849.49,7946.15,-11.8906,13.9331,9.31692,-165.546,9633.01,-1905.01,-3.73369,-3.42939,-1.65068,135.526,-9520.95,129.136,-3.5247,18.8082,6.50026,-1485.9,9231.4,-2513.59,-1.7359,0.875469,1.07845,-3525.85,-9125.49,-1069.73,-6.59459,3.30903,0.848721,9077.3,1388.67,3852.46,-6.14073,-2.97514,3.12041
0.007,4481.69,-3391.11,7828.08,2.66432,1.44955,-0.935728,4196.95,2886.64,7937.94,-12.354,13.9946,9.14277,-209.109,9629.35,-1892.16,-3.67753,-3.75501,-1.55888,189.221,-9564.65,160.182,-3.686,17.8065,6.31383,-1483.1,9234.11,-2488.45,-1.77217,0.868565,1.06626,-3534.55,-9093.48,-1078.39,-6.72803,3.1874,1.15847,9082.74,1385.95,3861.75,-6.02899,-2.83004,2.81464
0.008,4479.36,-3378.68,7825.06,2.76708,1.50675,-0.904557,4273.96,2923.79,7929.72,-12.8174,14.0561,8.96862,-252.672,9625.7,-1879.32,-3.62136,-4.08063,-1.46707,242.916,-9608.34,191.228,-3.8473,16.8047,6.12741,-1480.29,9236.83,-2463.31,-1.80845,0.861661,1.05407,-3543.25,-9061.46,-1087.05,-6.86147,3.06577,1.46823,9088.18,1383.23,3871.03,-5.91726,-2.68494,2.50887
0.009,4478.49,-3367.36,7824.23,2.8754,1.55716,-0.890376,4347.3,2960.94,7921.73,-13.2872,14.1022,8.79898,-289.759,9619.38,-1868.12,-3.57978,-4.3824,-1.39552,276.991,-9650.94,211.899,-3.94721,15.8419,5.90738,-1480.01,9240.71,-2442.84,-1.82993,0.83125,1.05183,-3554.21,-9034.88,-1096.8,-7.01671,2.93411,1.75725,9094.55,1382.39,3880.62,-5.81059,-2.54762,2.21929
0.01,4489.27,-3364.89,7841.0,3.02827,1.55318,-1.01211,4391.31,2998.1,7915.5,-13.8075,14.0243,8.66545,-275.043,9591.77,-1870.07,-3.65489,-4.49344,-1.48604,154.105,-9684.77,149.573,-3.55606,15.1906,5.41848,-1499.9,9253.91,-2459.75,-1.73303,0.612779,1.12917,-3583.18,-9051.69,-1115.21,-7.34629,2.72217,1.88039,9108.44,1396.57,3892.64,-5.74441,-2.47264,2.05919
0.011,4500.05,-3362.43,7857.77,3.18115,1.54921,-1.13385,4435.32,3035.26,7909.26,-14.3278,13.9464,8.53192,-260.327,9564.15,-1872.03,-3.73001,-4.60448,-1.57656,31.2187,-9718.59,87.2466,-3.16491,14.5392,4.92959,-1519.79,9267.11,-2476.66,-1.63614,0.394309,1.20651,-3612.15,-9068.5,-1133.63,-7.67588,2.51024,2.00353,9122.32,1410.74,3904.66,-5.67824,-2.39765,1.89908
0.012,4510.82,-3359.96,7874.54,3.33403,1.54524,-1.25559,4479.32,3072.42,7903.03,-14.8481,13.8685,8.39839,-245.611,9536.53,-1873.98,-3.80512,-4.71552,-1.66708,-91.6674,-9752.41,24.9206,-2.77376,13.8879,4.44069,-1539.68,9280.31,-2493.57,-1.53924,0.175839,1.28385,-3641.12,-9085.32,-1152.04,-8.00546,2.2983,2.12668,9136.2,1424.92,3916.68,-5.61206,-2.32267,1.73898
0.013,4521.6,-3357.49,7891.31,3.48691,1.54127,-1.37733,4523.33,3109.58,7896.79,-15.3685,13.7906,8.26486,-230.895,9508.92,-1875.93,-3.88024,-4.82655,-1.7576,-214.554,-9786.23,-37.4054,-2.38261,13.2366,3.95179,-1559.57,9293.51,-2510.48,-1.44234,-0.0426312,1.36119,-3670.08,-9102.13,-1170.46,-8.33504,2.08636,2.24982,9150.09,1439.1,3928.7,-5.54588,-2.24768,1.57887
0.014,4518.15,-3359.08,7909.25,3.59062,1.57439,-1.44527,4542.48,3135.33,7972.63,-15.6008,13.5968,8.11972,-214.761,9498.74,-1884.34,-3.90219,-5.02002,-1.72293,-326.352,-9834.4,-70.8797,-2.15334,13.4508,3.71545,-1586.49,9285.62,-2517.86,-1.36074,-0.21829,1.3548,-3693.72,-9122.4,-1188.91,-8.54131,1.94437,2.58011,9147.67,1442.24,3941.8,-5.49386,-2.19003,1.42747
0.015,4507.59,-3362.69,7927.77,3.66975,1.62606,-1.48633,4549.19,3155.36,8089.49,-15.6893,13.3451,7.96877,-197.918,9497.29,-1895.97,-3.89757,-5.25471,-1.62565,-432.606,-9889.75,-89.9281,-2.00501,14.0976,3.60537,-1616.92,9267.19,-2520.49,-1.28679,-0.372542,1.30654,-3714.68,-9144.39,-1207.38,-8.68591,1.83734,3.01398,9137.09,1439.87,3955.45,-5.44892,-2.14105,1.28041
0.016,4497.02,-3366.3,7946.29,3.74888,1.67773,-1.52738,4555.91,3175.39,8206.35,-15.7777,13.0934,7.81782,-181.075,9495.84,-1907.6,-3.89294,-5.4894,-1.52838,-538.86,-9945.09,-108.977,-1.85668,14.7445,3.4953,-1647.36,9248.75,-2523.12,-1.21284,-0.526795,1.25828,-3735.65,-9166.39,-1225.84,-8.83051,1.73031,3.44785,9126.52,1437.49,3969.09,-5.40397,-2.09207,1.13336
0.017,4486.46,-3369.91,7964.81,3.82801,1.72939,-1.56843,4562.63,3195.43,8323.22,-15.8661,12.8417,7.66687,-164.232,9494.38,-1919.23,-3.88831,-5.72409,-1.43111,-645.114,-10000.4,-128.025,-1.70835,15.3914,3.38522,-1677.79,9230.31,-2525.75,-1.13888,-0.681047,1.21003,-3756.61,-9188.38,-1244.31,-8.97512,1.62328,3.88172,9115.95,1435.12,3982.73,-5.35903,-2.04308,0.986311
0.018,4479.12,-3373.93,7976.14,3.8832,1.77776,-1.58457,4554.04,3196.31,8434.35,-15.8412,12.7416,7.58824,-153.148,9493.03,-1932.81,-3.87544,-5.95489,-1.33536,-710.517,-10042.9,-168.736,-1.69107,16.0902,3.29211,-1698.98,9211.75,-2526.57,-1.06779,-0.872194,1.14348,-3770.17,-9212.39,-1265.77,-9.0602,1.55579,4.27633,9107.59,1430.89,3993.48,-5.32082,-1.99099,0.823596
0.019,4483.08,-3379.42,7962.32,3.85461,1.81456,-1.51352,4491.88,3130.16,8525.42,-15.4198,13.1725,7.76271,-162.222,9492.02,-1953.21,-3.83376,-6.1721,-1.24493,-632.943,-10040.4,-285.267,-2.13247,16.9709,3.25836,-1687.83,9192.76,-2521.08,-1.00671,-1.19247,1.01293,-3757.82,-9243.43,-1297.71,-8.93698,1.6267,4.53355,9106.97,1420.15,3994.1,-5.30618,-1.92798,0.606062
0.02,4487.03,-3384.91,7948.5,3.82601,1.85137,-1.44246,4429.72,3064.01,8616.48,-14.9985,13.6034,7.93718,-171.296,9491.01,-1973.62,-3.79207,-6.38931,-1.15449,-555.369,-10037.9,-401.798,-2.57388,17.8516,3.22462,-1676.68,9173.76,-2515.59,-0.945631,-1.51274,0.882384,-3745.48,-9274.48,-1329.66,-8.81376,1.6976,4.79078,9106.35,1409.41,3994.72,-5.29154,-1.86497,0.388528
0.021,4490.99,-3390.39,7934.69,3.79742,1.88817,-1.3714,4367.56,2997.86,8707.55,-14.5771,14.0342,8.11164,-180.37,9490.0,-1994.02,-3.75038,-6.60651,-1.06406,-477.796,-10035.4,-518.329,-3.01528,18.7323,3.19087,-1665.53,9154.77,-2510.11,-0.88455,-1.83302,0.751835,-3733.13,-9305.53,-1361.6,-8.69054,1.76851,5.048,9105.73,1398.67,3995.34,-5.2769,-1.80197,0.170993
0.022,4494.94,-3395.88,7920.87,3.76883,1.92497,-1.30034,4305.4,2931.71,8798.61,-14.1557,14.4651,8.28611,-189.444,9488.99,-2014.42,-3.70869,-6.82372,-0.973624,-400.222,-10032.9,-634.86,-3.45668,19.6129,3.15713,-1654.38,9135.77,-2504.62,-0.823469,-2.1533,0.621285,-3720.78,-9336.58,-1393.54,-8.56732,1.83941,5.30522,9105.11,1387.92,3995.96,-5.26226,-1.73896,-0.0465412
0.023,4506.28,-3379.21,7916.23,3.72339,2.01726,-1.23425,4168.4,2810.22,8756.01,-13.5546,14.8064,8.85267,-211.96,9505.09,-2008.57,-3.67576,-6.99061,-0.925481,-200.451,-10043.4,-656.346,-3.83809,19.348,2.70184,-1646.76,9131.27,-2471.96,-0.704579,-2.48234,0.502995,-3700.76,-9361.56,-1448.94,-8.43675,2.15892,5.60769,9105.04,1376.95,3997.9,-5.23081,-1.6591,-0.224397
0.024,4519.73,-3356.2,7914.2,3.67315,2.12539,-1.16958,4010.02,2672.91,8675.21,-12.9021,15.1222,9.53127,-238.317,9526.08,-1995.21,-3.64533,-7.14312,-0.88942,34.2341,-10057.6,-650.676,-4.20236,18.7558,2.12611,-1640.16,9130.91,-2431.55,-0.569172,-2.8139,0.388208,-3678.55,-9384.82,-1511.03,-8.30408,2.54945,5.92308,9105.13,1365.9,4000.21,-5.19455,-1.57442,-0.390916
0.025,4533.18,-3333.2,7912.18,3.6229,2.23353,-1.10491,3851.64,2535.61,8594.42,-12.2496,15.4379,10.2099,-264.673,9547.06,-1981.85,-3.61489,-7.29562,-0.85336,268.919,-10071.8,-645.007,-4.56663,18.1635,1.55038,-1633.55,9130.54,-2391.14,-0.433765,-3.14545,0.273421,-3656.34,-9408.08,-1573.12,-8.17142,2.93998,6.23847,9105.21,1354.86,4002.52,-5.1583,-1.48975,-0.557435
0.026,4546.63,-3310.19,7910.16,3.57266,2.34167,-1.04024,3693.26,2398.31,8513.62,-11.5971,15.7537,10.8885,-291.03,9568.05,-1968.49,-3.58446,-7.44813,-0.8173,503.603,-10086.0,-639.337,-4.9309,17.5713,0.974648,-1626.94,9130.18,-2350.73,-0.298358,-3.477,0.158634,-3634.13,-9431.33,-1635.22,-8.03875,3.33052,6.55386,9105.3,1343.81,4004.84,-5.12205,-1.40507,-0.723954
0.027,4552.43,-3290.09,7907.57,3.54709,2.41375,-1.02486,3572.69,2364.58,8422.53,-11.3994,15.8921,11.4097,-301.02,9583.19,-1967.86,-3.58147,-7.54803,-0.788495,644.347,-10087.4,-582.073,-4.98709,16.7785,0.539937,-1631.01,9123.04,-2325.89,-0.194696,-3.78848,0.0516809,-3623.38,-9449.36,-1677.08,-7.87293,3.768,6.88278,9112.04,1334.52,4004.62,-5.05827,-1.35002,-0.841112
0.028,4542.95,-3275.79,7903.84,3.57088,2.41375,-1.10806,3527.75,2537.99,8310.85,-12.1112,15.6758,11.6163,-278.278,9586.62,-1992.69,-3.63337,-7.5427,-0.774198,597.208,-10063.3,-421.62,-4.42709,15.5844,0.387268,-1656.41,9102.33,-2332.2,-0.154526,-4.05981,-0.0396032,-3635.53,-9456.92,-1678.49,-7.6408,4.29938,7.23875,9132.07,1328.73,3999.34,-4.93947,-1.3542,-0.859548
0.029,4533.46,-3261.49,7900.11,3.59467,2.41374,-1.19126,3482.82,2711.4,8199.18,-12.8229,15.4596,11.823,-255.535,9590.06,-2017.52,-3.68527,-7.53738,-0.759902,550.068,-10039.3,-261.166,-3.86709,14.3904,0.234598,-1681.81,9081.62,-2338.52,-0.114355,-4.33114,-0.130887,-3647.69,-9464.47,-1679.89,-7.40866,4.83075,7.59473,9152.11,1322.94,3994.06,-4.82066,-1.35838,-0.877984
0.03,4523.98,-3247.19,7896.38,3.61846,2.41373,-1.27446,3437.88,2884.82,8087.5,-13.5347,15.2434,12.0296,-232.793,9593.49,-2042.35,-3.73717,-7.53205,-0.745605,502.929,-10015.2,-100.713,-3.3071,13.1964,0.0819282,-1707.21,9060.91,-2344.83,-0.0741845,-4.60246,-0.222171,-3659.84,-9472.03,-1681.29,-7.17653,5.36212,7.95071,9172.14,1317.16,3988.77,-4.70185,-1.36257,-0.89642
0.031,4514.5,-3232.89,7892.65,3.64224,2.41372,-1.35766,3392.95,3058.23,7975.82,-14.2465,15.0271,12.2362,-210.051,9596.92,-2067.18,-3.78907,-7.52673,-0.731308,455.79,-9991.15,59.74,-2.7471,12.0024,-0.0707415,-1732.62,9040.21,-2351.14,-0.034014,-4.87379,-0.313455,-3672.0,-9479.59,-1682.69,-6.94439,5.8935,8.30669,9192.17,1311.37,3983.49,-4.58305,-1.36675,-0.914857
0.032,4516.81,-3256.18,7906.22,3.66046,2.39587,-1.28514,3543.04,3366.57,7927.63,-15.0371,14.7119,11.7968,-211.163,9577.54,-2048.63,-3.87206,-7.62945,-0.639329,347.469,-10006.2,173.163,-2.66737,11.2417,-0.180531,-1740.48,9047.83,-2367.36,0.100367,-5.12053,-0.354901,-3632.87,-9523.8,-1651.31,-6.89151,6.20815,8.55228,9215.53,1320.7,3983.21,-4.50119,-1.38476,-0.957617
0.033,4520.6,-3284.17,7921.94,3.67798,2.3758,-1.19315,3717.51,3691.77,7887.37,-15.8376,14.3842,11.2766,-215.257,9555.31,-2024.66,-3.95893,-7.74568,-0.53764,231.501,-10026.1,280.708,-2.64767,10.5352,-0.284961,-1746.15,9059.0,-2384.82,0.246524,-5.36419,-0.390117,-3587.33,-9572.59,-1615.82,-6.86104,6.49571,8.78406,9239.31,1331.93,3983.55,-4.42394,-1.40449,-1.00342
0.034,4524.39,-3312.15,7937.67,3.6955,2.35572,-1.10116,3891.98,4016.97,7847.11,-16.6381,14.0566,10.7564,-219.351,9533.07,-2000.7,-4.0458,-7.86191,-0.435951,115.532,-10046.0,388.253,-2.62798,9.82869,-0.389391,-1751.82,9070.16,-2402.28,0.392681,-5.60786,-0.425333,-3541.79,-9621.38,-1580.34,-6.83056,6.78326,9.01585,9263.08,1343.15,3983.89,-4.3467,-1.42422,-1.04922
0.035,4528.17,-3340.14,7953.4,3.71302,2.33565,-1.00917,4066.46,4342.17,7806.85,-17.4385,13.7289,10.2362,-223.445,9510.84,-1976.73,-4.13267,-7.97813,-0.334262,-0.435897,-10065.9,495.798,-2.60828,9.12217,-0.49382,-1757.49,9081.33,-2419.74,0.538838,-5.85152,-0.460549,-3496.25,-9670.18,-1544.86,-6.80009,7.07082,9.24764,9286.86,1354.37,3984.23,-4.26945,-1.44395,-1.09502
0.036,4530.7,-3353.55,7963.7,3.66676,2.35443,-0.974564,4261.03,4487.92,7788.27,-18.0169,13.4173,9.68042,-216.656,9501.09,-1962.49,-4.16135,-8.05881,-0.229573,-143.462,-10074.3,539.318,-2.46667,8.51851,-0.469022,-1767.2,9085.68,-2433.9,0.722535,-6.04646,-0.536527,-3446.76,-9699.75,-1515.15,-6.81227,7.28288,9.44792,9302.73,1361.46,3983.58,-4.22961,-1.44258,-1.17393
0.037,4531.65,-3348.75,7967.23,3.54079,2.42179,-1.01168,4480.72,4409.34,7796.79,-18.3175,13.1258,9.08022,-196.264,9506.94,-1960.42,-4.11728,-8.09503,-0.121137,-320.311,-10068.3,502.81,-2.17266,8.04343,-0.282687,-1781.95,9081.52,-2443.95,0.953156,-6.1805,-0.663455,-3392.35,-9705.29,-1492.67,-6.87775,7.40057,9.60881,9308.72,1363.38,3981.69,-4.23651,-1.41483,-1.29422
0.038,4532.6,-3343.94,7970.76,3.41482,2.48914,-1.0488,4700.42,4330.77,7805.31,-18.6181,12.8343,8.48002,-175.871,9512.79,-1958.35,-4.07322,-8.13126,-0.0126999,-497.161,-10062.2,466.301,-1.87865,7.56834,-0.0963531,-1796.7,9077.36,-2453.99,1.18378,-6.31453,-0.790384,-3337.93,-9710.84,-1470.19,-6.94324,7.51826,9.7697,9314.71,1365.31,3979.79,-4.2434,-1.38707,-1.41451
0.039,4533.56,-3339.13,7974.29,3.28885,2.5565,-1.08592,4920.11,4252.19,7813.83,-18.9188,12.5427,7.87983,-155.478,9518.65,-1956.28,-4.02916,-8.16748,0.0957368,-674.01,-10056.2,429.792,-1.58464,7.09325,0.0899813,-1811.45,9073.2,-2464.03,1.4144,-6.44857,-0.917313,-3283.51,-9716.39,-1447.7,-7.00873,7.63596,9.93059,9320.7,1367.23,3977.9,-4.2503,-1.35932,-1.5348
0.04,4534.51,-3334.33,7977.82,3.16288,2.62386,-1.12304,5139.81,4173.62,7822.35,-19.2194,12.2512,7.27963,-135.086,9524.5,-1954.21,-3.98509,-8.20371,0.204174,-850.859,-10050.1,393.283,-1.29064,6.61816,0.276316,-1826.2,9069.04,-2474.07,1.64502,-6.5826,-1.04424,-3229.09,-9721.93,-1425.22,-7.07421,7.75365,10.0915,9326.7,1369.15,3976.01,-4.2572,-1.33157,-1.65509
0.041,4534.83,-3315.22,7974.56,3.08774,2.64143,-1.21854,5227.75,3903.54,7876.25,-19.2479,11.9064,6.9965,-142.52,9532.2,-1974.84,-3.97018,-8.10915,0.247216,-916.126,-10073.8,323.264,-1.06469,7.43587,0.335163,-1845.77,9074.77,-2484.29,1.70455,-6.73868,-1.19371,-3217.78,-9702.99,-1372.76,-6.98826,7.80315,10.345,9313.16,1345.75,3981.24,-4.28236,-1.32852,-1.77693
0.042,4535.15,-3296.11,7971.29,3.01259,2.65899,-1.31404,5315.7,3633.47,7930.15,-19.2764,11.5617,6.71336,-149.953,9539.9,-1995.47,-3.95526,-8.01458,0.290258,-981.393,-10097.4,253.245,-0.838752,8.25359,0.39401,-1865.34,9080.5,-2494.5,1.76408,-6.89477,-1.34318,-3206.48,-9684.04,-1320.3,-6.90232,7.85264,10.5985,9299.63,1322.34,3986.47,-4.30752,-1.32547,-1.89877
0.043,4535.47,-3277.01,7968.03,2.93745,2.67656,-1.40954,5403.64,3363.39,7984.05,-19.3049,11.2169,6.43023,-157.387,9547.6,-2016.09,-3.94034,-7.92002,0.3333,-1046.66,-10121.1,183.227,-0.61281,9.0713,0.452858,-1884.91,9086.23,-2504.72,1.8236,-7.05085,-1.49266,-3195.17,-9665.1,-1267.84,-6.81637,7.90214,10.852,9286.09,1298.93,3991.7,-4.33268,-1.32242,-2.02061
0.044,4535.8,-3257.9,7964.76,2.8623,2.69412,-1.50504,5491.59,3093.32,8037.94,-19.3334,10.8722,6.1471,-164.821,9555.3,-2036.72,-3.92543,-7.82546,0.376343,-1111.93,-10144.7,113.208,-0.386869,9.88901,0.511705,-1904.48,9091.96,-2514.93,1.88313,-7.20693,-1.64213,-3183.87,-9646.15,-1215.38,-6.73042,7.95164,11.1055,9272.56,1275.52,3996.93,-4.35784,-1.31938,-2.14245
0.045,4545.37,-3253.42,7964.46,2.79838,2.72772,-1.51696,5468.87,2894.82,8082.07,-19.3054,10.5692,6.03721,-165.384,9550.93,-2056.16,-3.9994,-7.76446,0.442187,-1088.67,-10169.7,115.963,-0.469229,10.3895,0.444522,-1897.09,9101.15,-2527.72,1.98648,-7.39678,-1.71881,-3148.28,-9658.96,-1164.55,-6.64434,7.93498,11.314,9254.09,1261.7,4003.33,-4.40467,-1.34901,-2.25041
0.046,4562.35,-3260.64,7966.53,2.74344,2.77414,-1.46202,5357.63,2753.6,8118.38,-19.2323,10.2996,6.06593,-160.451,9536.91,-2074.65,-4.14449,-7.73032,0.526273,-994.598,-10195.6,176.937,-0.798232,10.6362,0.276513,-1868.12,9113.09,-2542.57,2.1249,-7.61364,-1.73726,-3093.28,-9697.17,-1115.03,-6.55817,7.86539,11.4864,9231.67,1255.55,4010.66,-4.46884,-1.4048,-2.34727
0.047,4579.34,-3267.86,7968.6,2.68849,2.82056,-1.40707,5246.38,2612.37,8154.69,-19.1592,10.03,6.09465,-155.517,9522.89,-2093.14,-4.28957,-7.69618,0.610359,-900.525,-10221.6,237.912,-1.12723,10.8829,0.108505,-1839.15,9125.04,-2557.42,2.26331,-7.8305,-1.75572,-3038.27,-9735.38,-1065.5,-6.47199,7.79581,11.6588,9209.26,1249.4,4017.99,-4.53301,-1.46059,-2.44412
0.048,4596.32,-3275.08,7970.67,2.63355,2.86698,-1.35212,5135.14,2471.15,8191.0,-19.086,9.7604,6.12336,-150.584,9508.88,-2111.63,-4.43466,-7.66204,0.694444,-806.452,-10247.5,298.886,-1.45624,11.1296,-0.0595034,-1810.18,9136.99,-2572.27,2.40172,-8.04737,-1.77417,-2983.26,-9773.58,-1015.97,-6.38582,7.72622,11.8312,9186.84,1243.25,4025.32,-4.59718,-1.51638,-2.54098
0.049,4610.94,-3282.26,7971.03,2.57497,2.91652,-1.30238,5019.29,2344.15,8224.77,-18.9823,9.50914,6.14886,-142.94,9496.71,-2126.83,-4.56725,-7.60172,0.767696,-709.555,-10270.6,358.068,-1.76733,11.2677,-0.240871,-1784.03,9148.81,-2583.92,2.53361,-8.25375,-1.79672,-2933.29,-9806.69,-970.92,-6.30328,7.67355,11.9912,9166.11,1237.3,4032.88,-4.66406,-1.58659,-2.63004
0.05,4606.68,-3289.11,7957.67,2.48738,2.99102,-1.29428,4866.68,2330.99,8238.2,-18.6336,9.40445,6.14864,-113.607,9499.34,-2115.62,-4.59983,-7.33193,0.754278,-590.067,-10270.9,402.906,-1.93519,10.536,-0.529113,-1780.42,9159.59,-2570.01,2.61332,-8.37632,-1.85209,-2923.64,-9798.94,-961.688,-6.24991,7.75619,12.0511,9158.8,1233.05,4042.25,-4.75267,-1.7722,-2.65678
0.051,4602.43,-3295.96,7944.32,2.39978,3.06552,-1.28617,4714.06,2317.84,8251.62,-18.2848,9.29976,6.14842,-84.2747,9501.97,-2104.42,-4.63242,-7.06215,0.740859,-470.579,-10271.1,447.745,-2.10304,9.80443,-0.817356,-1776.82,9170.38,-2556.1,2.69302,-8.49889,-1.90746,-2913.99,-9791.2,-952.456,-6.19653,7.83883,12.1111,9151.5,1228.79,4051.62,-4.84128,-1.95781,-2.68351
0.052,4598.17,-3302.81,7930.96,2.31219,3.14002,-1.27807,4561.45,2304.68,8265.05,-17.9361,9.19507,6.1482,-54.9421,9504.6,-2093.21,-4.66501,-6.79236,0.72744,-351.091,-10271.3,492.584,-2.2709,9.07282,-1.1056,-1773.22,9181.16,-2542.19,2.77272,-8.62146,-1.96283,-2904.34,-9783.46,-943.224,-6.14315,7.92147,12.1711,9144.2,1224.54,4060.99,-4.92988,-2.14342,-2.71025
0.053,4593.91,-3309.66,7917.6,2.22459,3.21452,-1.26996,4408.83,2291.52,8278.48,-17.5873,9.09038,6.14798,-25.6096,9507.23,-2082.01,-4.69759,-6.52258,0.714021,-231.603,-10271.6,537.423,-2.43875,8.34121,-1.39384,-1769.61,9191.94,-2528.28,2.85243,-8.74403,-2.0182,-2894.7,-9775.71,-933.992,-6.08977,8.00412,12.231,9136.89,1220.28,4070.36,-5.01849,-2.32903,-2.73699
0.054,4590.62,-3310.71,7906.41,2.17086,3.28288,-1.34855,4332.67,2305.18,8290.7,-17.2347,8.98843,6.13187,-45.3836,9519.46,-2067.64,-4.70384,-6.42685,0.747477,-158.818,-10244.2,559.412,-2.56904,7.78731,-1.73325,-1773.29,9197.93,-2527.34,2.76915,-8.77979,-2.02196,-2853.61,-9766.51,-940.604,-6.04215,8.24673,12.32,9134.73,1207.43,4070.48,-5.10353,-2.47644,-2.79217
0.055,4587.8,-3308.87,7896.3,2.13407,3.34816,-1.47048,4294.73,2332.26,8302.32,-16.8802,8.88786,6.10781,-89.7108,9536.5,-2051.7,-4.69691,-6.41815,0.804371,-109.384,-10202.9,569.975,-2.68055,7.32226,-2.09825,-1780.61,9201.51,-2532.87,2.60439,-8.77213,-1.99991,-2796.81,-9756.57,-955.137,-5.9974,8.56933,12.4234,9135.14,1190.28,4065.98,-5.18679,-2.60475,-2.86158
0.056,4584.98,-3307.03,7886.19,2.09727,3.41344,-1.59242,4256.8,2359.33,8313.94,-16.5257,8.78729,6.08375,-134.038,9553.53,-2035.75,-4.68999,-6.40945,0.861264,-59.9508,-10161.7,580.538,-2.79206,6.85722,-2.46324,-1787.93,9205.1,-2538.41,2.43963,-8.76447,-1.97786,-2740.01,-9746.64,-969.67,-5.95266,8.89193,12.5267,9135.55,1173.13,4061.48,-5.27005,-2.73306,-2.931
0.057,4582.17,-3305.18,7876.07,2.06047,3.47872,-1.71435,4218.87,2386.41,8325.57,-16.1712,8.68672,6.05969,-178.365,9570.56,-2019.8,-4.68306,-6.40075,0.918157,-10.5173,-10120.4,591.101,-2.90357,6.39217,-2.82824,-1795.25,9208.69,-2543.95,2.27487,-8.75681,-1.95581,-2683.21,-9736.71,-984.203,-5.90791,9.21453,12.6301,9135.96,1155.97,4056.98,-5.35331,-2.86137,-3.00041
0.058,4577.04,-3302.76,7879.67,2.00585,3.51498,-1.80831,4193.22,2407.6,8332.39,-15.8492,8.60318,5.99826,-210.475,9579.93,-2006.36,-4.70974,-6.36666,0.977133,27.6868,-10082.5,592.718,-3.03833,5.98332,-3.12966,-1802.44,9211.35,-2546.19,2.13752,-8.76206,-1.90506,-2631.57,-9722.79,-995.003,-5.89965,9.61013,12.68,9138.73,1139.82,4054.47,-5.415,-2.98527,-3.09083
0.059,4563.85,-3298.33,7931.25,1.88882,3.44966,-1.80436,4210.57,2408.21,8322.43,-15.641,8.57925,5.80602,-199.821,9562.49,-2001.66,-4.85404,-6.24374,1.04339,26.5882,-10056.2,563.024,-3.25445,5.77114,-3.20853,-1809.16,9210.8,-2536.93,2.0961,-8.81248,-1.7538,-2598.01,-9694.92,-992.734,-6.01906,10.2612,12.5425,9149.81,1127.14,4058.91,-5.40121,-3.09371,-3.25478
0.06,4550.65,-3293.89,7982.82,1.77179,3.38434,-1.80041,4227.92,2408.81,8312.46,-15.4328,8.55531,5.61378,-189.167,9545.04,-1996.96,-4.99834,-6.12082,1.10966,25.4895,-10030.0,533.33,-3.47057,5.55896,-3.28741,-1815.88,9210.26,-2527.67,2.05468,-8.8629,-1.60255,-2564.44,-9667.06,-990.465,-6.13848,10.9123,12.4051,9160.89,1114.46,4063.34,-5.38741,-3.20216,-3.41873
0.061,4537.46,-3289.46,8034.4,1.65476,3.31902,-1.79645,4245.27,2409.42,8302.49,-15.2246,8.53138,5.42154,-178.514,9527.6,-1992.26,-5.14263,-5.9979,1.17592,24.3909,-10003.7,503.636,-3.6867,5.34678,-3.36628,-1822.61,9209.71,-2518.41,2.01326,-8.91331,-1.4513,-2530.88,-9639.19,-988.196,-6.25789,11.5634,12.2677,9171.97,1101.78,4067.78,-5.37361,-3.31061,-3.58269
0.062,4524.27,-3285.03,8085.98,1.53774,3.25369,-1.7925,4262.62,2410.02,8292.53,-15.0164,8.50745,5.2293,-167.86,9510.15,-1987.56,-5.28693,-5.87498,1.24218,23.2922,-9977.46,473.942,-3.90282,5.1346,-3.44516,-1829.33,9209.16,-2509.15,1.97184,-8.96373,-1.30004,-2497.32,-9611.33,-985.927,-6.37731,12.2145,12.1302,9183.05,1089.11,4072.22,-5.35981,-3.41905,-3.74664
0.063,4540.13,-3274.6,8083.48,1.39516,3.29932,-1.79051,4291.31,2433.69,8295.76,-14.8878,8.57416,5.05415,-154.938,9514.03,-1968.68,-5.37304,-5.82774,1.24454,21.3287,-9953.83,439.269,-3.98118,5.1511,-3.49963,-1815.18,9208.53,-2486.58,1.95633,-9.03087,-1.22468,-2472.32,-9615.72,-969.477,-6.40462,12.9318,12.0991,9181.54,1086.63,4094.12,-5.37953,-3.55806,-3.85743
0.064,4564.31,-3262.46,8065.54,1.24529,3.37666,-1.78907,4323.24,2463.95,8302.76,-14.782,8.66676,4.88389,-141.368,9524.0,-1945.75,-5.44252,-5.80212,1.22865,19.1181,-9930.96,403.174,-4.02018,5.23295,-3.54713,-1795.07,9207.86,-2460.22,1.94824,-9.10278,-1.17099,-2449.78,-9629.32,-948.975,-6.40561,13.668,12.0983,9176.44,1087.07,4121.02,-5.40882,-3.7058,-3.95302
0.065,4588.48,-3250.33,8047.6,1.09542,3.45399,-1.78764,4355.17,2494.21,8309.77,-14.6762,8.75936,4.71364,-127.799,9533.97,-1922.82,-5.512,-5.7765,1.21275,16.9075,-9908.08,367.078,-4.05917,5.31479,-3.59463,-1774.96,9207.2,-2433.86,1.94014,-9.17469,-1.11731,-2427.23,-9642.92,-928.473,-6.40661,14.4042,12.0976,9171.33,1087.51,4147.91,-5.43811,-3.85353,-4.04862
0.066,4612.66,-3238.19,8029.66,0.945543,3.53132,-1.7862,4387.1,2524.47,8316.77,-14.5703,8.85197,4.54338,-114.229,9543.95,-1899.89,-5.58148,-5.75088,1.19686,14.6969,-9885.2,330.982,-4.09817,5.39664,-3.64213,-1754.85,9206.54,-2407.5,1.93204,-9.2466,-1.06362,-2404.69,-9656.52,-907.971,-6.4076,15.1404,12.0968,9166.23,1087.95,4174.8,-5.46741,-4.00127,-4.14422
0.067,4630.8,-3226.14,8014.61,0.83728,3.60464,-1.769,4414.92,2541.64,8321.69,-14.4172,8.94586,4.41172,-108.46,9548.04,-1881.3,-5.64034,-5.77322,1.2275,10.0514,-9860.43,308.514,-4.13553,5.51505,-3.67536,-1740.09,9210.93,-2389.25,1.88163,-9.33952,-1.02847,-2384.57,-9660.16,-888.977,-6.34913,15.8516,12.1118,9156.54,1092.45,4189.79,-5.52988,-4.1324,-4.20967
0.068,4636.87,-3214.24,8005.34,0.812234,3.66993,-1.72028,4434.53,2532.64,8322.44,-14.1695,9.04231,4.35729,-118.295,9540.39,-1871.4,-5.67795,-5.89147,1.35124,0.53582,-9831.86,313.298,-4.16963,5.7066,-3.68004,-1736.0,9225.44,-2387.23,1.74658,-9.47445,-1.03038,-2369.31,-9643.87,-873.0,-6.17173,16.5128,12.1583,9137.69,1105.04,4180.96,-5.65873,-4.23034,-4.21483
0.069,4642.95,-3202.35,7996.07,0.787188,3.73522,-1.67156,4454.14,2523.63,8323.19,-13.9219,9.13877,4.30285,-128.13,9532.73,-1861.49,-5.71557,-6.00972,1.47497,-8.97973,-9803.29,318.083,-4.20372,5.89815,-3.68473,-1731.91,9239.95,-2385.2,1.61153,-9.60939,-1.0323,-2354.05,-9627.58,-857.024,-5.99432,17.174,12.2047,9118.84,1117.64,4172.13,-5.78758,-4.32828,-4.21999
0.07,4649.03,-3190.45,7986.81,0.762143,3.80052,-1.62284,4473.75,2514.63,8323.94,-13.6742,9.23523,4.24841,-137.965,9525.08,-1851.59,-5.75318,-6.12797,1.59871,-18.4953,-9774.72,322.868,-4.23782,6.0897,-3.68941,-1727.82,9254.46,-2383.18,1.47649,-9.74432,-1.03421,-2338.79,-9611.29,-841.047,-5.81692,17.8352,12.2511,9099.98,1130.24,4163.3,-5.91643,-4.42621,-4.22514
0.071,4655.11,-3178.56,7977.54,0.737097,3.86581,-1.57412,4493.36,2505.63,8324.69,-13.4266,9.33168,4.19398,-147.8,9517.43,-1841.69,-5.7908,-6.24622,1.72244,-28.0108,-9746.15,327.653,-4.27192,6.28125,-3.6941,-1723.73,9268.97,-2381.16,1.34144,-9.87925,-1.03613,-2323.53,-9595.01,-825.07,-5.63951,18.4965,12.2976,9081.13,1142.84,4154.47,-6.04527,-4.52415,-4.2303
0.072,4636.58,-3179.98,7973.01,0.626691,3.85726,-1.57133,4499.23,2460.2,8338.27,-13.2473,9.31483,4.24783,-157.163,9516.97,-1845.43,-5.77193,-6.40264,1.69832,-27.1039,-9735.49,304.434,-4.4667,6.11419,-3.68473,-1723.31,9297.82,-2371.65,1.26201,-10.0531,-0.919097,-2349.54,-9604.98,-794.559,-5.49432,18.892,12.2252,9061.61,1138.08,4157.4,-6.11292,-4.58847,-4.35031
0.073,4614.98,-3183.07,7969.07,0.505614,3.83948,-1.57429,4503.38,2410.23,8353.46,-13.0766,9.2838,4.31523,-166.467,9517.41,-1850.87,-5.746,-6.56384,1.65572,-24.8942,-9727.07,277.715,-4.68157,5.90231,-3.67361,-1723.34,9328.45,-2361.2,1.18954,-10.2318,-0.787202,-2380.7,-9618.24,-762.233,-5.35315,19.2544,12.1379,9042.01,1131.15,4161.81,-6.17291,-4.64859,-4.48467
0.074,4593.38,-3186.15,7965.12,0.384538,3.8217,-1.57725,4507.54,2360.26,8368.64,-12.9059,9.25278,4.38262,-175.771,9517.85,-1856.32,-5.72007,-6.72505,1.61312,-22.6845,-9718.64,250.996,-4.89645,5.69043,-3.66249,-1723.38,9359.09,-2350.75,1.11706,-10.4105,-0.655306,-2411.87,-9631.5,-729.906,-5.21199,19.6168,12.0507,9022.41,1124.22,4166.22,-6.23291,-4.70871,-4.61902
0.075,4571.77,-3189.24,7961.18,0.263461,3.80392,-1.58021,4511.69,2310.29,8383.83,-12.7352,9.22176,4.45002,-185.074,9518.29,-1861.77,-5.69415,-6.88625,1.57052,-20.4748,-9710.22,224.277,-5.11132,5.47854,-3.65137,-1723.41,9389.72,-2340.31,1.04459,-10.5892,-0.52341,-2443.04,-9644.75,-697.579,-5.07082,19.9792,11.9634,9002.81,1117.29,4170.63,-6.29291,-4.76883,-4.75338
0.076,4554.65,-3194.33,7961.13,0.201068,3.80271,-1.61156,4492.31,2225.32,8421.98,-12.73,9.3088,4.57948,-189.624,9525.83,-1857.44,-5.69756,-7.06601,1.57257,6.13282,-9720.74,211.788,-5.28073,5.21662,-3.67358,-1725.22,9414.6,-2327.71,0.958107,-10.7966,-0.42673,-2463.85,-9647.97,-664.714,-5.00399,20.2145,11.9683,8975.99,1111.12,4169.62,-6.38678,-4.79343,-4.84943
0.077,4543.13,-3201.93,7965.93,0.212028,3.82221,-1.6784,4443.54,2096.62,8488.86,-12.9315,9.54341,4.78654,-188.229,9542.26,-1840.89,-5.73765,-7.26898,1.63043,63.2378,-9754.93,217.087,-5.39332,4.89214,-3.73745,-1729.25,9432.27,-2312.42,0.854118,-11.0396,-0.37407,-2471.7,-9638.63,-631.177,-5.03009,20.2911,12.0882,8940.14,1105.9,4161.86,-6.52301,-4.77364,-4.89757
0.078,4531.6,-3209.53,7970.73,0.222988,3.84171,-1.74524,4394.77,1967.92,8555.74,-13.133,9.77802,4.99359,-186.835,9558.68,-1824.34,-5.77774,-7.47195,1.68829,120.343,-9789.13,222.386,-5.5059,4.56766,-3.80133,-1733.28,9449.94,-2297.13,0.750129,-11.2827,-0.321409,-2479.56,-9629.28,-597.64,-5.05618,20.3677,12.2082,8904.29,1100.69,4154.1,-6.65924,-4.75386,-4.94572
0.079,4520.08,-3217.12,7975.54,0.233949,3.86121,-1.81208,4345.99,1839.22,8622.61,-13.3345,10.0126,5.20064,-185.44,9575.11,-1807.79,-5.81783,-7.67492,1.74615,177.448,-9823.32,227.684,-5.61849,4.24317,-3.86521,-1737.31,9467.61,-2281.85,0.64614,-11.5258,-0.268749,-2487.41,-9619.94,-564.103,-5.08228,20.4443,12.3281,8868.44,1095.47,4146.33,-6.79547,-4.73407,-4.99387
0.08,4508.55,-3224.72,7980.34,0.244909,3.88071,-1.87892,4297.22,1710.52,8689.49,-13.536,10.2472,5.4077,-184.046,9591.53,-1791.24,-5.85792,-7.87788,1.80401,234.553,-9857.52,232.983,-5.73107,3.91869,-3.92908,-1741.33,9485.28,-2266.56,0.542151,-11.7689,-0.216089,-2495.27,-9610.6,-530.566,-5.10837,20.5209,12.4481,8832.59,1090.25,4138.57,-6.9317,-4.71428,-5.04202
0.081,4502.71,-3241.69,7994.38,0.229198,3.90086,-1.88267,4201.35,1578.75,8724.54,-12.1726,10.3385,5.74466,-183.133,9586.39,-1807.38,-5.85388,-7.97418,1.79948,251.647,-9886.71,263.333,-5.73624,3.59619,-4.04333,-1739.7,9481.11,-2250.45,0.351172,-12.0623,-0.18625,-2521.25,-9588.99,-495.471,-5.15126,20.3808,12.444,8831.04,1118.34,4141.54,-6.98259,-4.70657,-5.14809
0.082,4496.86,-3258.66,8008.43,0.213487,3.92102,-1.88643,4105.48,1446.99,8759.59,-10.8093,10.4298,6.08163,-182.22,9581.24,-1823.52,-5.84984,-8.07048,1.79496,268.741,-9915.9,293.683,-5.7414,3.27368,-4.15759,-1738.06,9476.94,-2234.35,0.160193,-12.3557,-0.156411,-2547.24,-9567.38,-460.375,-5.19416,20.2406,12.44,8829.49,1146.44,4144.52,-7.03348,-4.69886,-5.25416
0.083,4491.02,-3275.63,8022.47,0.197776,3.94117,-1.89018,4009.61,1315.22,8794.64,-9.44592,10.5211,6.4186,-181.307,9576.09,-1839.66,-5.8458,-8.16678,1.79043,285.835,-9945.09,324.032,-5.74657,2.95118,-4.27184,-1736.42,9472.77,-2218.24,-0.0307864,-12.6491,-0.126572,-2573.23,-9545.77,-425.279,-5.23705,20.1005,12.4359,8827.94,1174.53,4147.49,-7.08437,-4.69114,-5.36023
0.084,4485.17,-3292.61,8036.51,0.182065,3.96133,-1.89394,3913.74,1183.46,8829.69,-8.08256,10.6123,6.75557,-180.395,9570.95,-1855.8,-5.84176,-8.26308,1.7859,302.929,-9974.28,354.382,-5.75173,2.62868,-4.38609,-1734.79,9468.61,-2202.13,-0.221766,-12.9425,-0.0967327,-2599.21,-9524.16,-390.183,-5.27994,19.9604,12.4319,8826.39,1202.62,4150.47,-7.13526,-4.68343,-5.4663
0.085,4493.69,-3297.56,8047.25,0.0754088,3.99913,-1.90184,3866.15,1219.74,8753.36,-7.46793,10.3087,6.60343,-180.65,9577.21,-1861.53,-5.84627,-8.3131,1.78664,322.728,-9988.4,414.617,-5.59288,2.16812,-4.48121,-1721.06,9472.54,-2198.2,-0.362593,-13.1809,0.0157441,-2636.35,-9515.11,-376.467,-5.38761,19.7578,12.4458,8820.14,1221.41,4155.42,-7.20409,-4.65536,-5.56282
0.086,4513.7,-3292.9,8055.34,-0.104003,4.05105,-1.91307,3857.18,1390.47,8587.91,-7.45227,9.6892,6.05999,-181.841,9592.6,-1858.93,-5.85761,-8.32609,1.7916,344.691,-9990.45,498.76,-5.30281,1.59711,-4.56102,-1697.65,9482.96,-2204.01,-0.4633,-13.3755,0.194331,-2682.4,-9516.1,-379.855,-5.54711,19.5053,12.474,8810.15,1232.76,4161.96,-7.28727,-4.611,-5.65169
0.087,4533.71,-3288.25,8063.44,-0.283415,4.10297,-1.92429,3848.21,1561.19,8422.46,-7.43662,9.06969,5.51656,-183.032,9607.99,-1856.33,-5.86895,-8.33908,1.79656,366.654,-9992.51,582.904,-5.01274,1.02611,-4.64083,-1674.24,9493.39,-2209.83,-0.564007,-13.5701,0.372918,-2728.46,-9517.1,-383.243,-5.7066,19.2528,12.5023,8800.15,1244.11,4168.5,-7.37045,-4.56664,-5.74056
0.088,4553.72,-3283.59,8071.53,-0.462826,4.15489,-1.93551,3839.25,1731.92,8257.01,-7.42097,8.45017,4.97313,-184.222,9623.38,-1853.73,-5.88029,-8.35208,1.80151,388.616,-9994.56,667.047,-4.72267,0.455105,-4.72065,-1650.83,9503.81,-2215.64,-0.664714,-13.7646,0.551505,-2774.51,-9518.09,-386.631,-5.8661,19.0003,12.5306,8790.15,1255.45,4175.04,-7.45364,-4.52228,-5.82943
0.089,4573.73,-3277.93,8077.88,-0.63858,4.1975,-1.94109,3839.53,1935.87,8112.75,-7.37583,7.8895,4.40739,-185.617,9634.96,-1849.7,-5.89566,-8.37567,1.8179,407.781,-9996.92,743.704,-4.47878,-0.111549,-4.80135,-1629.79,9512.3,-2220.95,-0.753182,-13.9461,0.717038,-2819.57,-9518.38,-391.557,-6.01876,18.7474,12.5721,8779.53,1264.48,4182.42,-7.54474,-4.48171,-5.92336
0.09,4593.77,-3264.29,8070.3,-0.785063,4.16569,-1.90151,3913.82,2405.56,8137.96,-7.09484,7.79955,3.66313,-188.644,9616.07,-1834.16,-5.94328,-8.48402,1.92577,404.559,-10001.6,760.473,-4.60431,-0.643403,-4.88919,-1627.72,9505.41,-2222.21,-0.743737,-14.0231,0.778148,-2856.67,-9513.06,-408.784,-6.11675,18.4916,12.719,8763.94,1254.88,4196.51,-7.69919,-4.47145,-6.05769
0.091,4613.8,-3250.64,8062.73,-0.931546,4.13387,-1.86193,3988.12,2875.25,8163.17,-6.81385,7.70959,2.91887,-191.672,9597.19,-1818.63,-5.9909,-8.59237,2.03364,401.338,-10006.4,777.243,-4.72984,-1.17526,-4.97702,-1625.66,9498.52,-2223.48,-0.734292,-14.1001,0.839257,-2893.77,-9507.74,-426.012,-6.21474,18.2359,12.8659,8748.35,1245.29,4210.6,-7.85364,-4.46118,-6.19202
0.092,4633.84,-3236.99,8055.15,-1.07803,4.10206,-1.82235,4062.41,3344.95,8188.38,-6.53286,7.61964,2.17461,-194.699,9578.3,-1803.1,-6.03851,-8.70072,2.1415,398.116,-10011.1,794.013,-4.85537,-1.70711,-5.06485,-1623.59,9491.63,-2224.75,-0.724846,-14.1771,0.900367,-2930.86,-9502.42,-443.239,-6.31273,17.9801,13.0128,8732.76,1235.69,4224.7,-8.00808,-4.45092,-6.32635
0.093,4653.88,-3223.34,8047.57,-1.22451,4.07025,-1.78277,4136.7,3814.64,8213.59,-6.25186,7.52968,1.43035,-197.726,9559.41,-1787.56,-6.08613,-8.80907,2.24937,394.895,-10015.8,810.782,-4.98089,-2.23896,-5.15269,-1621.52,9484.74,-2226.02,-0.715401,-14.2541,0.961476,-2967.96,-9497.1,-460.467,-6.41072,17.7243,13.1597,8717.16,1226.1,4238.79,-8.16253,-4.44065,-6.46068
0.094,4657.95,-3220.8,8051.67,-1.33249,4.03038,-1.74925,4233.41,3837.21,8225.91,-5.51231,7.32844,1.34265,-199.845,9567.16,-1783.91,-6.08687,-8.87903,2.24753,332.627,-9979.94,720.702,-5.35181,-2.13153,-5.14302,-1615.26,9464.92,-2224.37,-0.70624,-14.3046,1.00067,-2975.98,-9490.74,-477.582,-6.46245,17.4796,13.2687,8710.58,1220.99,4234.38,-8.3117,-4.39315,-6.5498
0.095,4654.04,-3223.81,8061.61,-1.42121,3.98648,-1.71876,4341.34,3636.22,8231.79,-4.54347,7.07155,1.58322,-201.51,9588.24,-1786.2,-6.06417,-8.92979,2.19083,240.836,-9923.75,577.196,-5.84543,-1.70446,-5.0846,-1606.91,9438.64,-2221.27,-0.697221,-14.342,1.02891,-2969.46,-9483.86,-494.64,-6.49104,17.2405,13.3588,8708.5,1218.13,4220.71,-8.45821,-4.32702,-6.61632
0.096,4650.13,-3226.83,8071.55,-1.50993,3.94258,-1.68827,4449.26,3435.23,8237.66,-3.57464,6.81466,1.82379,-203.175,9609.31,-1788.49,-6.04148,-8.98056,2.13413,149.045,-9867.55,433.69,-6.33905,-1.27739,-5.02618,-1598.55,9412.36,-2218.17,-0.688203,-14.3793,1.05715,-2962.94,-9476.98,-511.699,-6.51963,17.0014,13.4488,8706.42,1215.26,4207.05,-8.60473,-4.2609,-6.68284
0.097,4646.21,-3229.84,8081.49,-1.59866,3.89869,-1.65778,4557.19,3234.24,8243.54,-2.6058,6.55777,2.06436,-204.841,9630.38,-1790.78,-6.01878,-9.03133,2.07743,57.2545,-9811.36,290.185,-6.83267,-0.850322,-4.96776,-1590.2,9386.08,-2215.06,-0.679184,-14.4166,1.08539,-2956.42,-9470.1,-528.757,-6.54823,16.7623,13.5389,8704.33,1212.39,4193.39,-8.75125,-4.19478,-6.74935
0.098,4635.59,-3231.2,8086.68,-1.67553,3.84745,-1.6242,4659.0,3019.55,8245.65,-1.90369,6.31253,2.23539,-201.035,9649.0,-1791.03,-5.99824,-9.0873,2.0436,-25.1968,-9763.26,167.999,-7.25127,-0.297249,-4.83121,-1576.29,9362.09,-2214.56,-0.659918,-14.4414,1.10915,-2946.79,-9468.42,-550.112,-6.5414,16.5781,13.5843,8705.5,1213.42,4184.21,-8.90732,-4.09921,-6.79598
0.099,4601.47,-3226.79,8075.25,-1.71095,3.7705,-1.57981,4739.42,2756.88,8234.59,-2.13515,6.10806,2.16302,-178.084,9658.99,-1784.16,-5.98523,-9.16148,2.08977,-74.9599,-9743.48,120.431,-7.4073,0.69683,-4.42121,-1542.95,9346.13,-2223.13,-0.604786,-14.4223,1.11727,-2926.27,-9484.96,-586.503,-6.41062,16.5865,13.4734,8718.03,1228.04,4190.72,-9.09682,-3.9006,-6.773
0.1,4567.35,-3222.38,8063.82,-1.74637,3.69355,-1.53541,4819.84,2494.21,8223.54,-2.3666,5.90358,2.09065,-155.132,9668.98,-1777.28,-5.97221,-9.23567,2.13594,-124.723,-9723.7,72.864,-7.56332,1.69091,-4.0112,-1509.61,9330.17,-2231.71,-0.549654,-14.4032,1.12539,-2905.74,-9501.49,-622.895,-6.27983,16.5948,13.3624,8730.56,1242.67,4197.24,-9.28633,-3.70199,-6.75002
0.101,4533.23,-3217.97,8052.39,-1.78179,3.6166,-1.49101,4900.27,2231.55,8212.48,-2.59805,5.6991,2.01829,-132.181,9678.98,-1770.4,-5.9592,-9.30985,2.18211,-174.486,-9703.91,25.2966,-7.71935,2.68499,-3.6012,-1476.27,9314.22,-2240.29,-0.494523,-14.3842,1.1335,-2885.21,-9518.03,-659.286,-6.14904,16.6032,13.2515,8743.09,1257.29,4203.75,-9.47583,-3.50339,-6.72703
0.102,4499.11,-3213.56,8040.97,-1.8172,3.53966,-1.44661,4980.69,1968.88,8201.43,-2.82951,5.49463,1.94592,-109.229,9688.97,-1763.53,-5.94619,-9.38404,2.22829,-224.249,-9684.13,-22.2707,-7.87538,3.67907,-3.19119,-1442.93,9298.26,-2248.86,-0.439391,-14.3651,1.14162,-2864.69,-9534.56,-695.678,-6.01826,16.6115,13.1406,8755.62,1271.92,4210.26,-9.66533,-3.30478,-6.70405
0.103,4461.72,-3231.81,8022.93,-1.72797,3.4095,-1.40114,4956.54,1996.04,8208.85,-2.48688,5.16734,1.66073,-84.2029,9677.14,-1762.72,-5.98864,-9.45021,2.21469,-147.87,-9733.51,31.4794,-7.80397,3.64278,-3.00423,-1402.85,9294.9,-2253.95,-0.351469,-14.3834,1.18649,-2830.37,-9539.09,-702.112,-5.82985,16.5383,13.0625,8752.89,1274.71,4207.89,-9.85332,-3.19726,-6.73863
0.104,4423.38,-3256.52,8003.01,-1.60313,3.26414,-1.35535,4902.52,2106.01,8221.55,-1.98022,4.80497,1.31473,-58.584,9659.09,-1763.66,-6.04693,-9.5141,2.18402,-35.4509,-9802.65,114.177,-7.66759,3.3121,-2.881,-1360.84,9295.15,-2258.04,-0.254177,-14.4123,1.24186,-2792.11,-9540.18,-699.986,-5.62497,16.4417,12.9937,8745.79,1274.11,4202.97,-10.0409,-3.11578,-6.78964
0.105,4385.05,-3281.24,7983.09,-1.47828,3.11878,-1.30957,4848.5,2215.98,8234.26,-1.47357,4.4426,0.968734,-32.965,9641.03,-1764.59,-6.10523,-9.57799,2.15334,76.9685,-9871.78,196.876,-7.53121,2.98142,-2.75776,-1318.83,9295.39,-2262.14,-0.156885,-14.4413,1.29724,-2753.85,-9541.27,-697.861,-5.4201,16.3452,12.925,8738.7,1273.52,4198.06,-10.2284,-3.03429,-6.84066
0.106,4346.71,-3305.95,7963.17,-1.35344,2.97342,-1.26379,4794.48,2325.95,8246.96,-0.966914,4.08023,0.622738,-7.34604,9622.98,-1765.53,-6.16352,-9.64188,2.12267,189.388,-9940.92,279.574,-7.39483,2.65074,-2.63453,-1276.82,9295.63,-2266.23,-0.0595926,-14.4703,1.35261,-2715.59,-9542.36,-695.735,-5.21522,16.2486,12.8562,8731.61,1272.92,4193.14,-10.416,-2.9528,-6.89168
0.107,4327.73,-3327.53,7953.19,-1.27209,2.8602,-1.25337,4711.82,2431.25,8258.76,-0.477832,3.75019,0.296455,15.7807,9605.15,-1765.63,-6.20111,-9.68701,2.07606,283.703,-9992.72,331.855,-7.27221,2.25477,-2.61353,-1250.87,9299.5,-2275.41,0.0439973,-14.4589,1.41004,-2683.0,-9548.97,-693.793,-5.05716,16.1712,12.7864,8724.8,1284.46,4190.7,-10.5524,-2.82658,-6.92908
0.108,4347.43,-3342.86,7963.1,-1.27773,2.81123,-1.31368,4571.89,2527.2,8268.76,-0.0238923,3.48479,0.00959769,33.923,9587.77,-1764.07,-6.19729,-9.69465,1.99756,341.811,-10009.8,323.303,-7.17713,1.7282,-2.79702,-1257.05,9310.59,-2294.76,0.160183,-14.3667,1.47161,-2661.76,-9566.59,-692.216,-4.99273,16.1319,12.7146,8718.57,1320.26,4193.2,-10.5867,-2.61088,-6.93925
0.109,4367.14,-3358.18,7973.01,-1.28338,2.76227,-1.37399,4431.96,2623.16,8278.77,0.430047,3.2194,-0.27726,52.0653,9570.4,-1762.52,-6.19348,-9.70229,1.91906,399.919,-10027.0,314.751,-7.08205,1.20163,-2.98051,-1263.23,9321.68,-2314.11,0.276369,-14.2746,1.53318,-2640.51,-9584.22,-690.639,-4.9283,16.0926,12.6428,8712.34,1356.07,4195.7,-10.6209,-2.39518,-6.94942
0.11,4386.84,-3373.5,7982.92,-1.28903,2.71331,-1.4343,4292.03,2719.12,8288.77,0.883987,2.954,-0.564117,70.2076,9553.02,-1760.96,-6.18966,-9.70993,1.84057,458.026,-10044.1,306.199,-6.98697,0.675063,-3.164,-1269.41,9332.77,-2333.46,0.392554,-14.1824,1.59474,-2619.27,-9601.84,-689.062,-4.86387,16.0532,12.571,8706.11,1391.87,4198.2,-10.6551,-2.17948,-6.95959
0.111,4406.55,-3388.82,7992.83,-1.29467,2.66435,-1.49461,4152.1,2815.07,8298.77,1.33793,2.6886,-0.850975,88.35,9535.64,-1759.4,-6.18584,-9.71756,1.76207,516.134,-10061.2,297.647,-6.89188,0.148496,-3.34748,-1275.59,9343.86,-2352.81,0.50874,-14.0902,1.65631,-2598.02,-9619.47,-687.485,-4.79944,16.0139,12.4992,8699.87,1427.67,4200.7,-10.6893,-1.96378,-6.96976
0.112,4430.69,-3363.15,8014.61,-1.33019,2.59228,-1.52082,4115.92,2843.97,8288.95,1.57458,2.54027,-1.05093,92.804,9527.18,-1758.49,-6.13762,-9.6752,1.7179,460.864,-10056.8,253.562,-6.9264,0.413312,-3.32232,-1275.33,9362.06,-2352.66,0.520559,-14.0465,1.65739,-2577.78,-9632.13,-693.562,-4.77977,16.0634,12.3893,8694.06,1442.2,4197.42,-10.9349,-1.75901,-7.01503
0.113,4455.38,-3332.36,8037.87,-1.36944,2.51734,-1.54276,4092.7,2864.48,8276.64,1.78407,2.40656,-1.24003,95.547,9519.82,-1757.65,-6.08385,-9.62659,1.67803,391.422,-10049.8,205.036,-6.97712,0.777051,-3.27107,-1274.25,9381.14,-2350.08,0.519332,-14.0088,1.65091,-2557.67,-9644.16,-700.595,-4.76569,16.124,12.2746,8688.3,1454.07,4193.4,-11.2069,-1.55559,-7.06469
0.114,4480.07,-3301.57,8061.14,-1.4087,2.44239,-1.5647,4069.49,2885.0,8264.33,1.99357,2.27286,-1.42912,98.29,9512.47,-1756.81,-6.03008,-9.57798,1.63816,321.981,-10042.7,156.509,-7.02783,1.14079,-3.21983,-1273.18,9400.23,-2347.49,0.518104,-13.9712,1.64443,-2537.55,-9656.2,-707.629,-4.75161,16.1845,12.16,8682.54,1465.94,4189.39,-11.4789,-1.35218,-7.11434
0.115,4504.76,-3270.78,8084.4,-1.44795,2.36744,-1.58665,4046.27,2905.51,8252.03,2.20306,2.13915,-1.61822,101.033,9505.12,-1755.97,-5.97631,-9.52937,1.59828,252.539,-10035.6,107.983,-7.07855,1.50453,-3.16858,-1272.11,9419.31,-2344.91,0.516877,-13.9335,1.63795,-2517.44,-9668.23,-714.663,-4.73753,16.2451,12.0453,8676.78,1477.81,4185.38,-11.7509,-1.14877,-7.16399
0.116,4521.01,-3252.42,8094.46,-1.45698,2.30674,-1.57608,4062.73,2913.31,8234.37,2.28541,1.97287,-1.77337,94.9248,9496.06,-1763.08,-5.86755,-9.44143,1.53923,207.492,-10021.7,67.3156,-7.19062,1.85788,-3.07845,-1266.39,9432.94,-2352.98,0.536618,-13.8583,1.66834,-2493.86,-9672.05,-732.995,-4.74965,16.3381,11.9361,8676.67,1494.89,4180.14,-11.924,-1.0033,-7.23673
0.117,4526.71,-3249.61,8088.01,-1.42822,2.26386,-1.52486,4128.78,2905.23,8210.02,2.20884,1.76587,-1.88609,77.7524,9484.86,-1780.12,-5.69006,-9.30434,1.45621,192.939,-9999.3,36.4731,-7.37939,2.19825,-2.93971,-1254.84,9439.76,-2374.36,0.582568,-13.7363,1.74482,-2465.95,-9665.59,-765.45,-4.79452,16.4717,11.8335,8683.62,1518.48,4173.36,-11.9735,-0.93026,-7.33832
0.118,4532.41,-3246.79,8081.56,-1.39946,2.22097,-1.47365,4194.82,2897.14,8185.68,2.13228,1.55886,-1.9988,60.5799,9473.66,-1797.16,-5.51257,-9.16725,1.37318,178.387,-9976.87,5.6306,-7.56817,2.53861,-2.80097,-1243.29,9446.57,-2395.75,0.628519,-13.6143,1.8213,-2438.03,-9659.13,-797.905,-4.83939,16.6052,11.7309,8690.56,1542.07,4166.58,-12.023,-0.85722,-7.43991
0.119,4538.11,-3243.98,8075.11,-1.3707,2.17809,-1.42243,4260.87,2889.06,8161.33,2.05571,1.35186,-2.11152,43.4075,9462.46,-1814.21,-5.33507,-9.03016,1.29015,163.834,-9954.44,-25.2119,-7.75694,2.87898,-2.66223,-1231.74,9453.38,-2417.14,0.67447,-13.4923,1.89778,-2410.12,-9652.67,-830.36,-4.88426,16.7388,11.6283,8697.51,1565.65,4159.8,-12.0724,-0.78418,-7.5415
0.12,4543.81,-3241.17,8068.65,-1.34194,2.1352,-1.37122,4326.92,2880.97,8136.99,1.97914,1.14486,-2.22424,26.2351,9451.27,-1831.25,-5.15758,-8.89307,1.20713,149.281,-9932.01,-56.0543,-7.94572,3.21934,-2.5235,-1220.19,9460.19,-2438.53,0.72042,-13.3703,1.97426,-2382.21,-9646.21,-862.815,-4.92913,16.8723,11.5257,8704.45,1589.24,4153.02,-12.1219,-0.711139,-7.64309
0.121,4543.76,-3242.18,8055.04,-1.35579,2.09344,-1.43356,4355.59,2881.5,8128.72,1.98895,0.995923,-2.33198,16.421,9469.09,-1833.84,-5.08487,-8.64858,1.15739,162.004,-9917.76,-84.9618,-7.90772,3.2997,-2.39608,-1231.72,9454.36,-2447.96,0.796944,-13.2837,2.02239,-2353.38,-9636.4,-890.199,-5.04504,16.9863,11.3375,8701.68,1591.55,4174.67,-12.3306,-0.538918,-7.5691
0.122,4543.71,-3243.2,8041.43,-1.36963,2.05167,-1.49591,4384.26,2882.03,8120.45,1.99877,0.846987,-2.43972,6.60696,9486.92,-1836.44,-5.01216,-8.4041,1.10765,174.728,-9903.51,-113.869,-7.86973,3.38006,-2.26866,-1243.25,9448.53,-2457.38,0.873467,-13.1972,2.07053,-2324.55,-9626.59,-917.582,-5.16096,17.1003,11.1492,8698.9,1593.86,4196.32,-12.5392,-0.366697,-7.4951
0.123,4543.66,-3244.22,8027.81,-1.38347,2.0099,-1.55825,4412.93,2882.57,8112.19,2.00859,0.698052,-2.54747,-3.20712,9504.74,-1839.03,-4.93945,-8.15961,1.05791,187.451,-9889.27,-142.777,-7.83173,3.46042,-2.14124,-1254.78,9442.7,-2466.81,0.949991,-13.1106,2.11866,-2295.72,-9616.78,-944.965,-5.27687,17.2143,10.961,8696.13,1596.17,4217.97,-12.7479,-0.194475,-7.42111
0.124,4543.61,-3245.24,8014.2,-1.39731,1.96813,-1.6206,4441.6,2883.1,8103.92,2.0184,0.549116,-2.65521,-13.0212,9522.57,-1841.62,-4.86674,-7.91512,1.00817,200.174,-9875.02,-171.684,-7.79374,3.54078,-2.01382,-1266.31,9436.87,-2476.24,1.02651,-13.024,2.16679,-2266.89,-9606.97,-972.348,-5.39279,17.3283,10.7728,8693.35,1598.48,4239.61,-12.9566,-0.0222539,-7.34712
0.125,4537.06,-3245.77,8005.27,-1.43105,1.91944,-1.6519,4463.62,2892.89,8106.53,2.01712,0.437967,-2.68572,-17.1155,9543.07,-1851.28,-4.84865,-7.69643,0.934623,188.366,-9876.54,-185.077,-7.74975,3.51269,-1.90484,-1272.57,9428.75,-2471.32,1.06204,-13.0545,2.19472,-2229.39,-9608.04,-989.66,-5.55487,17.433,10.5823,8690.9,1592.15,4242.97,-13.0871,0.120906,-7.26324
0.126,4525.31,-3245.9,8000.07,-1.4807,1.86521,-1.65836,4480.32,2910.1,8117.85,2.00694,0.357049,-2.65444,-16.6339,9565.7,-1866.61,-4.87425,-7.49837,0.842028,156.932,-9890.67,-186.057,-7.70097,3.39783,-1.81061,-1274.62,9418.79,-2454.91,1.06477,-13.1785,2.20648,-2184.97,-9617.8,-998.914,-5.75387,17.5303,10.3901,8688.69,1578.92,4231.69,-13.155,0.240817,-7.17143
0.127,4513.56,-3246.04,7994.88,-1.53035,1.81099,-1.66483,4497.02,2927.31,8129.17,1.99677,0.27613,-2.62316,-16.1523,9588.34,-1881.93,-4.89985,-7.30031,0.749434,125.498,-9904.8,-187.037,-7.65219,3.28298,-1.71637,-1276.66,9408.82,-2438.5,1.0675,-13.3025,2.21824,-2140.54,-9627.57,-1008.17,-5.95288,17.6275,10.1979,8686.48,1565.68,4220.41,-13.223,0.360728,-7.07964
0.128,4501.81,-3246.18,7989.68,-1.58001,1.75676,-1.67129,4513.72,2944.52,8140.49,1.98659,0.195211,-2.59189,-15.6707,9610.98,-1897.25,-4.92545,-7.10226,0.656839,94.0646,-9918.92,-188.018,-7.6034,3.16812,-1.62214,-1278.7,9398.86,-2422.1,1.07023,-13.4266,2.23,-2096.12,-9637.34,-1017.42,-6.15189,17.7247,10.0057,8684.28,1552.45,4209.13,-13.291,0.480639,-6.98783
0.129,4491.44,-3249.63,7985.6,-1.61805,1.71338,-1.6763,4526.93,2959.8,8150.31,1.97201,0.111908,-2.58094,-14.0583,9629.44,-1910.58,-4.94719,-6.91955,0.571511,64.6557,-9932.92,-187.693,-7.56325,3.05804,-1.52967,-1282.01,9389.33,-2406.61,1.08299,-13.547,2.25687,-2055.22,-9646.49,-1026.6,-6.33296,17.8142,9.83176,8683.56,1542.11,4199.71,-13.3405,0.580634,-6.90568
0.13,4492.1,-3279.58,7990.48,-1.5632,1.7568,-1.66966,4512.24,2959.65,8148.19,1.92223,0.00953155,-2.73262,-3.39892,9614.48,-1907.93,-4.93798,-6.85966,0.544311,51.4467,-9945.84,-176.923,-7.5921,2.98612,-1.45129,-1295.4,9383.24,-2398.47,1.17607,-13.6381,2.40461,-2042.5,-9650.78,-1035.17,-6.37051,17.8415,9.80398,8694.75,1554.93,4205.12,-13.2426,0.521294,-6.90065
0.131,4492.76,-3309.54,7995.35,-1.50836,1.80021,-1.66302,4497.56,2959.49,8146.07,1.87244,-0.0928447,-2.88429,7.26042,9599.52,-1905.27,-4.92877,-6.79976,0.517111,38.2377,-9958.75,-166.153,-7.62095,2.91421,-1.37291,-1308.79,9377.16,-2390.33,1.26915,-13.7291,2.55235,-2029.78,-9655.08,-1043.75,-6.40806,17.8687,9.77619,8705.94,1567.75,4210.53,-13.1447,0.461955,-6.89563
0.132,4493.42,-3339.5,8000.23,-1.45351,1.84363,-1.65639,4482.87,2959.33,8143.94,1.82265,-0.195221,-3.03597,17.9198,9584.56,-1902.62,-4.91956,-6.73987,0.489911,25.0286,-9971.67,-155.384,-7.6498,2.8423,-1.29453,-1322.18,9371.08,-2382.19,1.36223,-13.8202,2.7001,-2017.07,-9659.37,-1052.32,-6.44562,17.896,9.74841,8717.13,1580.57,4215.94,-13.0468,0.402616,-6.89061
0.133,4494.08,-3369.46,8005.1,-1.39867,1.88704,-1.64975,4468.19,2959.18,8141.82,1.77286,-0.297597,-3.18765,28.5791,9569.6,-1899.96,-4.91035,-6.67998,0.462711,11.8196,-9984.59,-144.614,-7.67864,2.77039,-1.21615,-1335.57,9365.0,-2374.05,1.45531,-13.9113,2.84784,-2004.35,-9663.66,-1060.89,-6.48317,17.9233,9.72063,8728.32,1593.39,4221.35,-12.9489,0.343277,-6.88559
0.134,4491.85,-3382.4,8007.31,-1.33945,1.93732,-1.65246,4447.5,2946.16,8141.44,1.74167,-0.383249,-3.13852,29.355,9555.73,-1895.37,-4.93309,-6.64954,0.426235,19.7645,-9991.41,-127.177,-7.61228,2.80763,-1.16114,-1353.08,9362.35,-2366.51,1.56084,-14.0152,2.88351,-1994.87,-9645.21,-1061.35,-6.42814,17.878,9.66488,8738.53,1607.77,4231.73,-12.9463,0.266289,-6.85542
0.135,4488.17,-3386.82,8008.2,-1.27804,1.99104,-1.65984,4423.8,2926.71,8141.93,1.71977,-0.460539,-2.98899,25.1891,9542.39,-1889.8,-4.97181,-6.63382,0.38512,38.2863,-9995.19,-106.406,-7.4983,2.89946,-1.11783,-1372.65,9361.42,-2359.28,1.67259,-14.1255,2.86316,-1987.0,-9615.39,-1057.76,-6.32681,17.7966,9.59515,8748.24,1622.93,4244.6,-12.9913,0.180477,-6.81268
0.136,4484.49,-3391.25,8009.08,-1.21664,2.04476,-1.66721,4400.1,2907.26,8142.42,1.69787,-0.537828,-2.83945,21.0232,9529.06,-1884.23,-5.01053,-6.6181,0.344005,56.8081,-9998.96,-85.6354,-7.38433,2.99128,-1.07451,-1392.22,9360.5,-2352.05,1.78434,-14.2358,2.84281,-1979.13,-9585.58,-1054.17,-6.22549,17.7152,9.52543,8757.95,1638.09,4257.47,-13.0362,0.0946646,-6.76993
0.137,4480.8,-3395.68,8009.96,-1.15524,2.09848,-1.67459,4376.41,2887.81,8142.91,1.67597,-0.615117,-2.68991,16.8573,9515.73,-1878.67,-5.04925,-6.60239,0.302891,75.3299,-10002.7,-64.8647,-7.27035,3.0831,-1.03119,-1411.79,9359.57,-2344.82,1.89609,-14.3461,2.82245,-1971.27,-9555.76,-1050.58,-6.12417,17.6337,9.4557,8767.67,1653.24,4270.33,-13.0812,0.00885243,-6.72719
0.138,4481.01,-3395.01,8008.98,-1.11146,2.11969,-1.68174,4358.57,2871.54,8145.34,1.63581,-0.668053,-2.57645,13.4701,9508.67,-1878.58,-5.08494,-6.59843,0.275379,90.7357,-10004.0,-51.9195,-7.16789,3.1627,-0.995552,-1428.19,9357.32,-2338.06,1.98775,-14.4532,2.80215,-1966.58,-9534.5,-1050.65,-6.04083,17.5501,9.38872,8775.56,1668.98,4279.44,-13.099,-0.0559997,-6.70965
0.139,4494.82,-3376.5,8001.49,-1.12934,2.02711,-1.68809,4361.22,2866.43,8154.6,1.5317,-0.635751,-2.58925,12.8085,9523.61,-1897.69,-5.11001,-6.63565,0.295479,95.2356,-9996.64,-66.3635,-7.10572,3.19947,-0.986773,-1433.5,9350.43,-2332.95,2.00913,-14.5493,2.78199,-1973.02,-9543.15,-1063.55,-6.02043,17.4591,9.3314,8777.07,1686.74,4275.41,-13.0217,-0.0474914,-6.78033
0.14,4508.62,-3358.0,7994.0,-1.14723,1.93453,-1.69445,4363.88,2861.32,8163.85,1.42759,-0.603448,-2.60205,12.1468,9538.55,-1916.79,-5.13507,-6.67288,0.315578,99.7355,-9989.26,-80.8076,-7.04355,3.23625,-0.977995,-1438.82,9343.55,-2327.83,2.0305,-14.6454,2.76184,-1979.47,-9551.8,-1076.45,-6.00002,17.368,9.27407,8778.58,1704.49,4271.37,-12.9443,-0.0389831,-6.851
0.141,4522.43,-3339.49,7986.51,-1.16512,1.84196,-1.7008,4366.53,2856.2,8173.11,1.32349,-0.571146,-2.61485,11.4852,9553.48,-1935.89,-5.16013,-6.7101,0.335678,104.235,-9981.87,-95.2516,-6.98139,3.27303,-0.969216,-1444.13,9336.66,-2322.71,2.05188,-14.7415,2.74168,-1985.91,-9560.45,-1089.35,-5.97962,17.2769,9.21675,8780.09,1722.25,4267.34,-12.867,-0.0304748,-6.92168
0.142,4536.24,-3320.98,7979.02,-1.183,1.74938,-1.70715,4369.18,2851.09,8182.37,1.21938,-0.538844,-2.62765,10.8236,9568.42,-1954.99,-5.1852,-6.74732,0.355778,108.735,-9974.49,-109.696,-6.91922,3.30981,-0.960438,-1449.44,9329.77,-2317.59,2.07326,-14.8376,2.72153,-1992.35,-9569.1,-1102.25,-5.95922,17.1858,9.15942,8781.6,1740.01,4263.3,-12.7896,-0.0219665,-6.99235
0.143,4545.45,-3306.69,7979.27,-1.18215,1.70291,-1.73836,4387.67,2856.07,8176.18,1.14365,-0.541786,-2.71982,0.918636,9581.06,-1953.51,-5.25336,-6.79071,0.406633,114.611,-9950.31,-139.262,-6.88902,3.31528,-0.994952,-1454.23,9314.58,-2318.33,2.13156,-14.8752,2.72173,-2027.39,-9569.7,-1121.92,-6.00673,17.1106,9.06023,8784.77,1734.24,4266.4,-12.6319,0.0466914,-7.03842
0.144,4553.33,-3293.59,7981.73,-1.17594,1.66961,-1.77667,4410.67,2863.93,8165.57,1.07602,-0.554798,-2.83466,-11.6273,9593.06,-1946.15,-5.33383,-6.83587,0.466276,120.879,-9921.33,-173.149,-6.86797,3.31181,-1.04184,-1458.86,9297.02,-2320.75,2.20041,-14.8962,2.72774,-2070.59,-9568.01,-1143.52,-6.07365,17.0399,8.94908,8788.42,1721.76,4271.54,-12.4512,0.132535,-7.07747
0.145,4561.23,-3280.5,7984.18,-1.16973,1.63632,-1.81498,4433.68,2871.79,8154.97,1.00839,-0.567811,-2.9495,-24.1732,9605.05,-1938.78,-5.4143,-6.88102,0.525919,127.148,-9892.36,-207.036,-6.84691,3.30834,-1.08872,-1463.49,9279.46,-2323.16,2.26926,-14.9171,2.73376,-2113.8,-9566.32,-1165.12,-6.14057,16.9691,8.83793,8792.06,1709.27,4276.69,-12.2705,0.218378,-7.11652
0.146,4569.12,-3267.41,7986.64,-1.16352,1.60302,-1.85329,4456.69,2879.65,8144.36,0.940768,-0.580823,-3.06434,-36.7191,9617.04,-1931.42,-5.49478,-6.92618,0.585562,133.417,-9863.38,-240.922,-6.82585,3.30487,-1.1356,-1468.12,9261.89,-2325.57,2.33811,-14.9381,2.73977,-2157.0,-9564.63,-1186.72,-6.20749,16.8984,8.72677,8795.71,1696.78,4281.83,-12.0897,0.304222,-7.15556
0.147,4573.9,-3260.88,7987.69,-1.16718,1.58978,-1.87594,4470.78,2891.46,8137.64,0.896418,-0.560334,-3.10181,-52.6982,9626.02,-1921.23,-5.54679,-6.97589,0.649032,141.364,-9838.38,-264.114,-6.81838,3.27998,-1.13897,-1477.22,9245.53,-2327.11,2.40488,-14.9661,2.76101,-2192.84,-9556.69,-1205.46,-6.23515,16.8716,8.60972,8792.82,1679.21,4285.95,-11.9633,0.338925,-7.13594
0.148,4572.47,-3267.48,7985.92,-1.1906,1.61664,-1.86725,4467.03,2911.18,8138.7,0.898621,-0.472842,-2.98455,-75.5437,9628.97,-1905.38,-5.5419,-7.03472,0.720157,152.67,-9821.31,-265.916,-6.83807,3.21227,-1.0553,-1495.26,9231.57,-2326.9,2.46747,-15.0082,2.81271,-2213.93,-9536.24,-1218.46,-6.18427,16.9326,8.48086,8776.87,1651.47,4288.03,-11.9455,0.27135,-6.99898
0.149,4571.05,-3274.08,7984.14,-1.21401,1.6435,-1.85856,4463.28,2930.91,8139.76,0.900824,-0.385349,-2.86728,-98.3891,9631.92,-1889.53,-5.53701,-7.09355,0.791282,163.976,-9804.24,-267.719,-6.85776,3.14455,-0.971624,-1513.3,9217.61,-2326.69,2.53006,-15.0503,2.86441,-2235.02,-9515.8,-1231.46,-6.1334,16.9937,8.35201,8760.91,1623.72,4290.12,-11.9277,0.203774,-6.86202
0.15,4569.62,-3280.69,7982.37,-1.23742,1.67036,-1.84988,4459.53,2950.63,8140.82,0.903027,-0.297857,-2.75002,-121.235,9634.87,-1873.69,-5.53212,-7.15238,0.862408,175.281,-9787.17,-269.521,-6.87746,3.07683,-0.887953,-1531.34,9203.66,-2326.48,2.59265,-15.0924,2.9161,-2256.11,-9495.35,-1244.46,-6.08253,17.0547,8.22315,8744.96,1595.98,4292.2,-11.9099,0.136198,-6.72506
0.151,4568.19,-3287.29,7980.6,-1.26084,1.69722,-1.84119,4455.78,2970.35,8141.87,0.90523,-0.210365,-2.63275,-144.08,9637.81,-1857.84,-5.52723,-7.21121,0.933533,186.587,-9770.1,-271.323,-6.89715,3.00911,-0.804282,-1549.38,9189.7,-2326.27,2.65524,-15.1345,2.9678,-2277.21,-9474.91,-1257.46,-6.03165,17.1157,8.09429,8729.0,1568.23,4294.28,-11.8921,0.0686217,-6.5881
0.152,4558.73,-3295.05,7971.15,-1.22979,1.68261,-1.81389,4432.06,2999.17,8138.55,0.690216,-0.309051,-2.47202,-151.591,9630.0,-1832.53,-5.579,-7.36466,0.942741,189.729,-9790.28,-280.635,-6.9278,2.82583,-0.770274,-1566.15,9195.08,-2315.51,2.61295,-15.2601,2.90185,-2293.82,-9470.25,-1260.73,-5.89717,17.2658,8.05211,8728.08,1588.04,4297.14,-11.8496,0.0171246,-6.679
0.153,4548.27,-3302.95,7960.74,-1.19194,1.66281,-1.78427,4405.84,3029.12,8134.68,0.448049,-0.431009,-2.30584,-157.185,9620.84,-1806.04,-5.63786,-7.52995,0.944211,191.851,-9815.11,-290.886,-6.95983,2.62809,-0.742474,-1582.76,9202.87,-2303.44,2.55755,-15.3961,2.82119,-2309.87,-9467.55,-1262.78,-5.75224,17.4271,8.02077,8729.05,1613.79,4300.1,-11.8039,-0.0323626,-6.79837
0.154,4537.81,-3310.86,7950.33,-1.15409,1.64302,-1.75464,4379.63,3059.07,8130.8,0.205883,-0.552967,-2.13967,-162.779,9611.68,-1779.54,-5.69672,-7.69523,0.94568,193.972,-9839.95,-301.136,-6.99185,2.43036,-0.714675,-1599.37,9210.66,-2291.37,2.50215,-15.5321,2.74053,-2325.92,-9464.86,-1264.84,-5.60731,17.5884,7.98942,8730.01,1639.54,4303.06,-11.7582,-0.0818497,-6.91775
0.155,4527.34,-3318.76,7939.92,-1.11624,1.62322,-1.72502,4353.41,3089.02,8126.93,-0.0362836,-0.674926,-1.9735,-168.373,9602.52,-1753.05,-5.75558,-7.86051,0.947149,196.094,-9864.78,-311.387,-7.02388,2.23263,-0.686875,-1615.99,9218.46,-2279.29,2.44675,-15.6681,2.65987,-2341.97,-9462.17,-1266.89,-5.46238,17.7497,7.95808,8730.98,1665.3,4306.02,-11.7125,-0.131337,-7.03712
0.156,4520.19,-3318.36,7931.88,-1.07722,1.62763,-1.73013,4346.71,3099.99,8121.14,-0.24782,-0.727718,-1.87002,-176.839,9596.8,-1731.14,-5.80133,-8.0236,0.972181,193.431,-9880.15,-322.244,-6.99759,2.02079,-0.641971,-1624.26,9224.79,-2279.23,2.42155,-15.7897,2.53125,-2365.69,-9459.81,-1268.32,-5.31382,17.8858,7.87314,8729.24,1665.23,4302.38,-11.6571,-0.150533,-7.05954
0.157,4517.19,-3307.57,7926.8,-1.03674,1.66229,-1.77866,4364.42,3087.23,8112.94,-0.42107,-0.694051,-1.84491,-188.895,9595.41,-1714.95,-5.83069,-8.18395,1.02667,184.788,-9883.7,-333.86,-6.89841,1.7913,-0.575686,-1622.11,9229.3,-2294.17,2.43408,-15.8931,2.34267,-2399.0,-9457.87,-1268.95,-5.16073,17.9904,7.72122,8724.14,1632.88,4290.51,-11.5895,-0.131867,-6.96075
0.158,4514.19,-3296.77,7921.72,-0.996259,1.69695,-1.8272,4382.13,3074.46,8104.73,-0.59432,-0.660385,-1.8198,-200.952,9594.01,-1698.77,-5.86005,-8.34431,1.08115,176.144,-9887.25,-345.476,-6.79923,1.56182,-0.509402,-1619.96,9233.81,-2309.11,2.44661,-15.9965,2.15409,-2432.3,-9455.92,-1269.58,-5.00763,18.095,7.5693,8719.03,1600.54,4278.64,-11.522,-0.1132,-6.86196
0.159,4511.19,-3285.98,7916.64,-0.95578,1.73161,-1.87573,4399.83,3061.7,8096.53,-0.76757,-0.626719,-1.79469,-213.009,9592.61,-1682.58,-5.88941,-8.50466,1.13564,167.501,-9890.8,-357.091,-6.70005,1.33233,-0.443117,-1617.8,9238.32,-2324.05,2.45915,-16.1,1.96551,-2465.6,-9453.98,-1270.21,-4.85454,18.1996,7.41738,8713.92,1568.2,4266.76,-11.4544,-0.0945329,-6.76318
0.16,4508.19,-3275.19,7911.56,-0.9153,1.76627,-1.92426,4417.54,3048.93,8088.33,-0.94082,-0.593053,-1.76958,-225.065,9591.21,-1666.39,-5.91877,-8.66501,1.19013,158.858,-9894.35,-368.707,-6.60087,1.10285,-0.376833,-1615.65,9242.83,-2338.99,2.47168,-16.2034,1.77693,-2498.91,-9452.04,-1270.84,-4.70145,18.3043,7.26545,8708.81,1535.85,4254.89,-11.3868,-0.0758661,-6.66439
0.161,4498.2,-3288.34,7910.87,-0.898838,1.7204,-1.94988,4351.37,3095.37,8096.41,-0.998157,-0.535688,-1.74583,-210.627,9601.92,-1678.32,-5.86389,-8.81839,1.27966,137.808,-9878.97,-364.569,-6.44687,1.05461,-0.319504,-1625.35,9241.64,-2355.08,2.50932,-16.1492,1.73547,-2518.5,-9461.84,-1282.26,-4.65999,18.4085,7.13363,8706.11,1520.21,4280.0,-11.3541,-0.170177,-6.65989
0.162,4488.22,-3301.48,7910.19,-0.882376,1.67452,-1.97549,4285.21,3141.81,8104.49,-1.05549,-0.478322,-1.72209,-196.188,9612.63,-1690.24,-5.80901,-8.97178,1.36919,116.757,-9863.58,-360.431,-6.29287,1.00638,-0.262176,-1635.05,9240.45,-2371.17,2.54697,-16.095,1.69402,-2538.1,-9471.64,-1293.68,-4.61853,18.5127,7.0018,8703.41,1504.56,4305.12,-11.3213,-0.264488,-6.6554
0.163,4478.23,-3314.63,7909.51,-0.865913,1.62864,-2.0011,4219.05,3188.25,8112.57,-1.11283,-0.420957,-1.69834,-181.75,9623.35,-1702.17,-5.75413,-9.12516,1.45872,95.7066,-9848.21,-356.293,-6.13887,0.958149,-0.204848,-1644.75,9239.25,-2387.26,2.58461,-16.0409,1.65256,-2557.7,-9481.44,-1305.1,-4.57707,18.6169,6.86998,8700.71,1488.91,4330.24,-11.2885,-0.358799,-6.6509
0.164,4468.24,-3327.77,7908.83,-0.849451,1.58277,-2.02671,4152.89,3234.69,8120.64,-1.17017,-0.363592,-1.67459,-167.311,9634.06,-1714.09,-5.69925,-9.27855,1.54825,74.6561,-9832.82,-352.155,-5.98487,0.909917,-0.147519,-1654.45,9238.06,-2403.35,2.62225,-15.9867,1.6111,-2577.3,-9491.25,-1316.52,-4.53561,18.7212,6.73815,8698.0,1473.26,4355.35,-11.2558,-0.45311,-6.64641
0.165,4465.95,-3330.7,7924.1,-0.808114,1.5814,-2.03969,4148.26,3224.59,8122.43,-1.26537,-0.420578,-1.68196,-163.174,9638.91,-1721.46,-5.65885,-9.41478,1.57947,69.6092,-9824.55,-351.393,-5.81577,0.874296,-0.0918429,-1664.96,9248.02,-2414.99,2.61757,-15.8968,1.52709,-2581.54,-9494.89,-1313.22,-4.56784,18.7657,6.62119,8710.13,1458.57,4355.99,-11.116,-0.529247,-6.64526
0.166,4469.83,-3325.45,7952.12,-0.746877,1.61565,-2.04257,4192.85,3169.26,8119.18,-1.39085,-0.569046,-1.71423,-167.278,9639.07,-1725.18,-5.63004,-9.5373,1.56405,77.365,-9821.97,-353.332,-5.63459,0.848764,-0.0374881,-1676.11,9266.91,-2423.08,2.57904,-15.7784,1.40902,-2573.49,-9493.61,-1298.13,-4.65901,18.7625,6.51613,8734.13,1444.66,4337.04,-10.8906,-0.590846,-6.64678
0.167,4473.7,-3320.2,7980.15,-0.685641,1.6499,-2.04544,4237.45,3113.93,8115.93,-1.51634,-0.717514,-1.74649,-171.383,9639.22,-1728.89,-5.60123,-9.65982,1.54863,85.1209,-9819.38,-355.271,-5.45341,0.823232,0.0168668,-1687.27,9285.79,-2431.17,2.54051,-15.66,1.29096,-2565.44,-9492.32,-1283.04,-4.75018,18.7594,6.41106,8758.13,1430.74,4318.09,-10.6652,-0.652444,-6.6483
0.168,4477.58,-3314.95,8008.18,-0.624404,1.68415,-2.04832,4282.05,3058.6,8112.69,-1.64182,-0.865981,-1.77875,-175.487,9639.38,-1732.61,-5.57243,-9.78234,1.53321,92.8767,-9816.8,-357.21,-5.27223,0.797701,0.0712216,-1698.42,9304.67,-2439.26,2.50198,-15.5416,1.1729,-2557.4,-9491.04,-1267.95,-4.84136,18.7562,6.306,8782.12,1416.82,4299.14,-10.4398,-0.714043,-6.64983
0.169,4482.45,-3309.9,8034.02,-0.569239,1.71581,-2.04863,4321.95,3007.77,8109.72,-1.78355,-1.00315,-1.79321,-178.606,9639.11,-1735.39,-5.54883,-9.91216,1.51987,101.074,-9815.8,-358.446,-5.10703,0.766191,0.137164,-1709.69,9320.96,-2446.0,2.45927,-15.432,1.05824,-2548.72,-9488.42,-1253.87,-4.93225,18.7395,6.19313,8804.95,1399.61,4278.64,-10.2297,-0.774965,-6.65674
0.17,4495.29,-3306.4,8042.32,-0.562649,1.72679,-2.02844,4324.29,2992.93,8109.04,-2.05524,-1.04997,-1.66521,-173.849,9635.38,-1730.7,-5.56693,-10.1004,1.52324,112.798,-9827.52,-354.056,-5.06963,0.686861,0.295803,-1721.83,9316.56,-2442.0,2.38315,-15.393,0.970815,-2535.03,-9475.13,-1247.87,-5.02085,18.6145,6.0178,8818.44,1356.03,4245.75,-10.1424,-0.830471,-6.70674
0.171,4508.12,-3302.89,8050.61,-0.556058,1.73778,-2.00825,4326.64,2978.09,8108.36,-2.32692,-1.09678,-1.53722,-169.091,9631.65,-1726.01,-5.58504,-10.2886,1.52661,124.522,-9839.23,-349.666,-5.03223,0.60753,0.454442,-1733.98,9312.16,-2438.0,2.30703,-15.3541,0.88339,-2521.34,-9461.83,-1241.87,-5.10945,18.4894,5.84247,8831.93,1312.44,4212.85,-10.0552,-0.885978,-6.75674
0.172,4520.96,-3299.39,8058.91,-0.549468,1.74876,-1.98806,4328.98,2963.25,8107.68,-2.59861,-1.14359,-1.40922,-164.334,9627.91,-1721.32,-5.60314,-10.4768,1.52997,136.247,-9850.95,-345.275,-4.99484,0.5282,0.613081,-1746.13,9307.76,-2434.0,2.23091,-15.3151,0.795964,-2507.64,-9448.54,-1235.87,-5.19805,18.3644,5.66715,8845.42,1268.86,4179.96,-9.96789,-0.941484,-6.80674
0.173,4533.79,-3295.89,8067.21,-0.542877,1.75974,-1.96787,4331.32,2948.42,8106.99,-2.8703,-1.1904,-1.28123,-159.576,9624.18,-1716.62,-5.62125,-10.6651,1.53334,147.971,-9862.67,-340.885,-4.95744,0.448869,0.771721,-1758.28,9303.36,-2429.99,2.15479,-15.2762,0.708538,-2493.95,-9435.25,-1229.87,-5.28665,18.2394,5.49182,8858.91,1225.27,4147.07,-9.88062,-0.99699,-6.85675
0.174,4536.08,-3297.36,8069.78,-0.55688,1.7922,-1.88722,4323.92,2939.12,8107.41,-2.91016,-1.24077,-1.22668,-159.722,9619.61,-1719.95,-5.61756,-10.7709,1.56147,146.773,-9872.3,-336.346,-4.94098,0.366425,0.891265,-1749.65,9298.55,-2433.19,2.05162,-15.308,0.671526,-2485.31,-9423.87,-1230.65,-5.44256,18.1938,5.35899,8835.0,1221.21,4134.77,-9.78841,-0.993474,-6.85139
0.175,4533.11,-3301.32,8069.49,-0.58118,1.83539,-1.77634,4311.64,2932.6,8108.37,-2.83412,-1.29292,-1.20887,-162.319,9614.61,-1727.28,-5.60298,-10.8354,1.60198,139.114,-9880.9,-331.732,-4.93497,0.282424,0.991263,-1730.63,9293.53,-2439.99,1.93493,-15.3751,0.659722,-2479.2,-9413.43,-1234.81,-5.63213,18.1879,5.24741,8792.39,1236.91,4132.77,-9.69373,-0.960447,-6.81837
0.176,4530.13,-3305.28,8069.19,-0.60548,1.87859,-1.66547,4299.37,2926.08,8109.33,-2.75808,-1.34507,-1.19105,-164.916,9609.62,-1734.62,-5.58839,-10.9,1.6425,131.454,-9889.51,-327.118,-4.92897,0.198423,1.09126,-1711.61,9288.51,-2446.79,1.81825,-15.4423,0.647917,-2473.08,-9403.0,-1238.97,-5.8217,18.182,5.13583,8749.78,1252.62,4130.78,-9.59906,-0.92742,-6.78534
0.177,4527.15,-3309.24,8068.9,-0.629779,1.92178,-1.55459,4287.09,2919.56,8110.28,-2.68204,-1.39723,-1.17324,-167.513,9604.63,-1741.95,-5.57381,-10.9646,1.68301,123.795,-9898.11,-322.503,-4.92297,0.114422,1.19126,-1692.59,9283.5,-2453.58,1.70156,-15.5095,0.636113,-2466.97,-9392.57,-1243.13,-6.01127,18.1761,5.02425,8707.17,1268.32,4128.78,-9.50438,-0.894393,-6.75231
0.178,4526.57,-3311.23,8069.23,-0.663495,1.94483,-1.47551,4283.47,2916.92,8107.4,-2.66928,-1.43364,-1.15938,-171.463,9601.29,-1750.09,-5.5631,-10.9805,1.72754,113.014,-9905.16,-325.312,-4.90989,0.0150663,1.25735,-1677.11,9278.59,-2462.72,1.59153,-15.5352,0.628385,-2460.39,-9386.94,-1242.5,-6.18268,18.1508,4.92115,8673.65,1273.99,4128.58,-9.42906,-0.896416,-6.72022
0.179,4534.44,-3306.29,8071.72,-0.730166,1.89741,-1.50772,4310.15,2927.84,8091.05,-2.878,-1.41495,-1.15938,-180.145,9603.7,-1761.02,-5.56595,-10.8261,1.78614,91.31,-9906.77,-354.099,-4.87202,-0.138032,1.20477,-1674.0,9274.08,-2480.05,1.50482,-15.4158,0.634926,-2452.16,-9398.1,-1225.12,-6.29052,18.0579,4.84773,8671.92,1244.57,4134.69,-9.42148,-1.02112,-6.69138
0.18,4542.3,-3301.35,8074.21,-0.796838,1.84998,-1.53993,4336.83,2938.76,8074.69,-3.08672,-1.39626,-1.15938,-188.827,9606.12,-1771.95,-5.5688,-10.6718,1.84474,69.6057,-9908.39,-382.886,-4.83414,-0.291131,1.15219,-1670.9,9269.57,-2497.37,1.41811,-15.2964,0.641467,-2443.93,-9409.26,-1207.73,-6.39836,17.965,4.77431,8670.2,1215.14,4140.8,-9.41391,-1.14582,-6.66255
0.181,4550.17,-3296.41,8076.71,-0.863509,1.80256,-1.57214,4363.52,2949.68,8058.34,-3.29544,-1.37757,-1.15938,-197.509,9608.54,-1782.88,-5.57166,-10.5174,1.90334,47.9014,-9910.01,-411.674,-4.79627,-0.444229,1.09961,-1667.79,9265.06,-2514.7,1.3314,-15.177,0.648008,-2435.71,-9420.42,-1190.34,-6.5062,17.8721,4.70089,8668.47,1185.71,4146.91,-9.40634,-1.27052,-6.63371
0.182,4558.03,-3291.47,8079.2,-0.930181,1.75513,-1.60435,4390.2,2960.59,8041.99,-3.50416,-1.35889,-1.15938,-206.191,9610.96,-1793.81,-5.57451,-10.3631,1.96194,26.1972,-9911.63,-440.461,-4.7584,-0.597328,1.04702,-1664.69,9260.56,-2532.02,1.24469,-15.0575,0.65455,-2427.48,-9431.58,-1172.95,-6.61404,17.7792,4.62747,8666.74,1156.29,4153.02,-9.39876,-1.39522,-6.60488
0.183,4563.5,-3293.48,8066.9,-1.04139,1.78971,-1.63594,4404.66,2946.54,8041.48,-3.74442,-1.3235,-1.01396,-203.307,9594.24,-1794.09,-5.63387,-10.2786,2.01533,17.8146,-9920.66,-424.857,-4.73309,-0.749243,1.11688,-1655.13,9266.61,-2537.43,1.21582,-14.8599,0.599828,-2410.34,-9439.91,-1160.22,-6.55249,17.4614,4.50056,8698.86,1153.51,4153.14,-9.1857,-1.36981,-6.62721
0.184,4568.29,-3297.47,8050.38,-1.16531,1.84772,-1.66735,4415.64,2925.34,8045.51,-3.99367,-1.28334,-0.826992,-197.119,9572.05,-1791.33,-5.70938,-10.2142,2.06723,13.2382,-9931.8,-396.57,-4.71138,-0.90082,1.22171,-1643.72,9275.68,-2539.44,1.20349,-14.6399,0.527603,-2390.64,-9447.43,-1148.82,-6.44256,17.0793,4.35837,8740.64,1158.34,4151.55,-8.91392,-1.30151,-6.66417
0.185,4573.08,-3301.47,8033.85,-1.28924,1.90573,-1.69876,4426.61,2904.15,8049.53,-4.24293,-1.24318,-0.640023,-190.93,9549.86,-1788.57,-5.78489,-10.1497,2.11914,8.66182,-9942.94,-368.283,-4.68966,-1.0524,1.32654,-1632.32,9284.74,-2541.45,1.19115,-14.4199,0.455377,-2370.95,-9454.95,-1137.41,-6.33262,16.6972,4.21617,8782.43,1163.18,4149.96,-8.64214,-1.2332,-6.70112
0.186,4577.86,-3305.46,8017.32,-1.41317,1.96374,-1.73017,4437.58,2882.95,8053.55,-4.49219,-1.20302,-0.453055,-184.741,9527.67,-1785.81,-5.86039,-10.0852,2.17104,4.08545,-9954.09,-339.996,-4.66794,-1.20397,1.43138,-1620.91,9293.81,-2543.45,1.17881,-14.2,0.383152,-2351.26,-9462.48,-1126.01,-6.22269,16.3151,4.07397,8824.21,1168.01,4148.37,-8.37036,-1.1649,-6.73808
0.187,4583.89,-3314.24,7998.67,-1.48147,1.99431,-1.73278,4435.29,2869.05,8054.46,-4.67015,-1.17498,-0.296919,-176.662,9514.04,-1783.47,-5.86961,-10.0228,2.20687,-2.49701,-9957.93,-315.629,-4.65574,-1.30657,1.52376,-1607.16,9297.21,-2541.54,1.11665,-14.007,0.330931,-2335.11,-9467.54,-1117.94,-6.12225,15.9353,3.9659,8840.59,1170.7,4142.81,-8.15312,-1.12215,-6.7286
0.188,4592.41,-3332.59,7975.77,-1.4385,1.97,-1.67779,4406.46,2869.73,8049.13,-4.7055,-1.17119,-0.202448,-164.801,9517.54,-1781.98,-5.74626,-9.96436,2.21056,-13.0916,-9947.16,-299.101,-4.66257,-1.31121,1.59122,-1588.71,9289.28,-2531.79,0.95484,-13.8683,0.318718,-2326.06,-9467.69,-1116.54,-6.04081,15.5601,3.92607,8806.15,1169.07,4129.34,-8.04496,-1.13052,-6.62625
0.189,4600.92,-3350.95,7952.88,-1.39553,1.94569,-1.62279,4377.63,2870.41,8043.8,-4.74085,-1.16739,-0.107977,-152.94,9521.04,-1780.48,-5.62291,-9.90595,2.21425,-23.6863,-9936.39,-282.572,-4.66939,-1.31585,1.65869,-1570.27,9281.34,-2522.04,0.793031,-13.7295,0.306506,-2317.01,-9467.84,-1115.14,-5.95937,15.185,3.88624,8771.71,1167.45,4115.86,-7.9368,-1.13888,-6.52391
0.19,4609.44,-3369.3,7929.98,-1.35255,1.92138,-1.56779,4348.8,2871.09,8038.47,-4.7762,-1.1636,-0.0135064,-141.079,9524.54,-1778.98,-5.49955,-9.84753,2.21793,-34.2809,-9925.63,-266.044,-4.67621,-1.32049,1.72615,-1551.82,9273.41,-2512.29,0.631222,-13.5907,0.294294,-2307.95,-9467.99,-1113.74,-5.87793,14.8098,3.84641,8737.26,1165.83,4102.39,-7.82863,-1.14724,-6.42156
0.191,4617.96,-3387.65,7907.08,-1.30958,1.89707,-1.5128,4319.98,2871.77,8033.14,-4.81156,-1.1598,0.0809643,-129.218,9528.04,-1777.48,-5.3762,-9.78911,2.22162,-44.8755,-9914.86,-249.516,-4.68304,-1.32513,1.79362,-1533.38,9265.47,-2502.54,0.469413,-13.452,0.282081,-2298.9,-9468.14,-1112.35,-5.79649,14.4346,3.80658,8702.82,1164.21,4088.91,-7.72047,-1.1556,-6.31921
0.192,4617.97,-3382.33,7906.42,-1.33733,1.89821,-1.48604,4320.57,2866.77,8037.39,-5.0423,-1.1368,0.00725854,-116.126,9545.94,-1791.27,-5.29547,-9.66194,2.1951,-43.3306,-9902.79,-250.711,-4.47783,-1.25983,1.86399,-1524.74,9258.74,-2504.24,0.415763,-13.1674,0.206065,-2312.9,-9468.08,-1135.24,-5.76275,14.2127,3.75806,8698.31,1160.25,4096.06,-7.6574,-0.980622,-6.1621
0.193,4616.91,-3374.06,7908.54,-1.37392,1.90254,-1.46281,4324.85,2861.06,8042.83,-5.29747,-1.1114,-0.0874693,-102.88,9565.64,-1806.96,-5.22008,-9.52616,2.1648,-40.2682,-9890.56,-254.122,-4.24612,-1.18578,1.93472,-1517.32,9252.17,-2507.36,0.375634,-12.8645,0.122074,-2329.78,-9468.0,-1161.18,-5.73496,14.01,3.70845,8697.54,1155.99,4105.8,-7.59997,-0.782723,-5.99814
0.194,4615.86,-3365.78,7910.67,-1.41051,1.90686,-1.43959,4329.13,2855.35,8048.27,-5.55263,-1.086,-0.182197,-89.6342,9585.34,-1822.66,-5.14468,-9.39039,2.1345,-37.2058,-9878.33,-257.533,-4.01441,-1.11173,2.00545,-1509.91,9245.59,-2510.49,0.335504,-12.5617,0.0380821,-2346.65,-9467.92,-1187.11,-5.70718,13.8073,3.65884,8696.77,1151.74,4115.53,-7.54255,-0.584823,-5.83418
0.195,4614.8,-3357.51,7912.79,-1.4471,1.91119,-1.41636,4333.41,2849.64,8053.71,-5.8078,-1.06059,-0.276925,-76.3883,9605.04,-1838.35,-5.06929,-9.25462,2.1042,-34.1434,-9866.1,-260.943,-3.7827,-1.03768,2.07619,-1502.49,9239.01,-2513.61,0.295375,-12.2588,-0.0459095,-2363.53,-9467.83,-1213.04,-5.6794,13.6046,3.60923,8696.0,1147.48,4125.26,-7.48512,-0.386924,-5.67023
0.196,4603.16,-3347.17,7921.56,-1.46045,1.93609,-1.37431,4335.14,2848.93,8077.51,-5.92452,-1.10254,-0.287629,-62.0358,9608.58,-1845.38,-5.0707,-9.1187,2.10231,-16.3109,-9857.97,-261.077,-3.62419,-1.02736,2.11874,-1495.31,9235.94,-2521.44,0.234385,-11.9864,-0.129791,-2385.2,-9467.2,-1229.58,-5.68096,13.4596,3.5151,8696.05,1127.78,4126.64,-7.38691,-0.345066,-5.50513
0.197,4578.28,-3334.25,7938.66,-1.44477,1.98671,-1.30873,4333.69,2854.48,8124.27,-5.86817,-1.22868,-0.193303,-46.3002,9591.92,-1841.57,-5.16812,-8.98257,2.13593,19.9843,-9854.96,-257.115,-3.55717,-1.09671,2.12606,-1488.44,9237.26,-2535.14,0.14732,-11.752,-0.213535,-2412.86,-9465.87,-1234.36,-5.71919,13.3867,3.36533,8697.14,1088.77,4117.58,-7.23772,-0.498261,-5.33861
0.198,4553.4,-3321.33,7955.75,-1.42908,2.03734,-1.24315,4332.25,2860.03,8171.03,-5.81183,-1.35481,-0.0989769,-30.5647,9575.25,-1837.76,-5.26554,-8.84645,2.16956,56.2795,-9851.95,-253.153,-3.49014,-1.16606,2.13339,-1481.56,9238.58,-2548.84,0.0602558,-11.5175,-0.297279,-2440.52,-9464.54,-1239.14,-5.75742,13.3138,3.21556,8698.23,1049.75,4108.51,-7.08853,-0.651456,-5.17209
0.199,4528.51,-3308.41,7972.84,-1.41339,2.08796,-1.17757,4330.8,2865.59,8217.79,-5.75548,-1.48095,-0.00465092,-14.8291,9558.59,-1833.95,-5.36296,-8.71033,2.20318,92.5746,-9848.94,-249.191,-3.42312,-1.23541,2.14071,-1474.68,9239.9,-2562.54,-0.0268088,-11.2831,-0.381023,-2468.19,-9463.21,-1243.93,-5.79565,13.2409,3.06579,8699.32,1010.74,4099.45,-6.93934,-0.80465,-5.00557
0.2,4503.63,-3295.49,7989.93,-1.39771,2.13858,-1.11199,4329.35,2871.14,8264.55,-5.69913,-1.60708,0.0896751,0.906466,9541.93,-1830.13,-5.46039,-8.57421,2.2368,128.87,-9845.93,-245.229,-3.3561,-1.30476,2.14804,-1467.81,9241.22,-2576.24,-0.113873,-11.0487,-0.464767,-2495.85,-9461.89,-1248.71,-5.83388,13.168,2.91601,8700.41,971.728,4090.38,-6.79016,-0.957845,-4.83906
0.201,4505.31,-3314.74,7992.76,-1.37154,2.08508,-1.10999,4325.15,2878.67,8248.54,-5.57724,-1.56444,0.0452074,-5.41164,9542.03,-1834.02,-5.4489,-8.49182,2.2519,127.013,-9854.51,-228.948,-3.44589,-1.27085,2.14526,-1449.32,9259.35,-2576.22,-0.180929,-10.8779,-0.444291,-2511.41,-9476.41,-1227.37,-5.78262,13.0056,2.81663,8680.26,946.302,4110.31,-6.74576,-1.05671,-4.6996
0.202,4506.98,-3333.99,7995.6,-1.34538,2.03159,-1.108,4320.94,2886.21,8232.54,-5.45534,-1.52179,0.000739617,-11.7297,9542.13,-1837.91,-5.43742,-8.40943,2.267,125.156,-9863.11,-212.668,-3.53569,-1.23693,2.14249,-1430.84,9277.49,-2576.21,-0.247984,-10.7071,-0.423816,-2526.98,-9490.93,-1206.03,-5.73136,12.8432,2.71724,8660.12,920.876,4130.24,-6.70135,-1.15558,-4.56014
0.203,4508.66,-3353.24,7998.43,-1.31921,1.97809,-1.10601,4316.74,2893.74,8216.53,-5.33344,-1.47914,-0.0437281,-18.0478,9542.23,-1841.8,-5.42594,-8.32703,2.28211,123.3,-9871.7,-196.387,-3.62548,-1.20302,2.13971,-1412.35,9295.62,-2576.19,-0.315039,-10.5363,-0.40334,-2542.55,-9505.46,-1184.69,-5.6801,12.6808,2.61786,8639.97,895.45,4150.17,-6.65695,-1.25445,-4.42068
0.204,4510.33,-3372.49,8001.26,-1.29305,1.9246,-1.10402,4312.54,2901.28,8200.53,-5.21154,-1.4365,-0.0881959,-24.366,9542.33,-1845.69,-5.41446,-8.24464,2.29721,121.443,-9880.29,-180.106,-3.71528,-1.1691,2.13693,-1393.87,9313.75,-2576.17,-0.382094,-10.3655,-0.382865,-2558.12,-9519.98,-1163.35,-5.62884,12.5184,2.51847,8619.82,870.024,4170.1,-6.61255,-1.35332,-4.28122
0.205,4508.13,-3388.06,7996.73,-1.22779,1.87369,-1.14234,4300.28,2878.69,8189.35,-5.18967,-1.39402,-0.0952131,-29.1225,9551.23,-1836.93,-5.39882,-8.15298,2.28848,104.774,-9880.18,-166.002,-3.71523,-1.23648,2.20595,-1386.11,9333.85,-2559.97,-0.473788,-10.2032,-0.3845,-2567.55,-9533.03,-1143.71,-5.56223,12.255,2.50535,8623.23,862.101,4180.31,-6.63048,-1.30685,-4.16494
0.206,4502.82,-3400.69,7986.32,-1.13126,1.82485,-1.21292,4281.59,2831.99,8182.02,-5.24782,-1.35169,-0.0722699,-32.6297,9567.17,-1818.04,-5.37985,-8.05389,2.26069,76.256,-9873.13,-153.64,-3.64331,-1.38488,2.33239,-1386.92,9355.53,-2530.81,-0.585195,-10.0477,-0.403823,-2572.07,-9544.9,-1125.44,-5.48334,11.9106,2.56125,8645.47,868.181,4182.76,-6.69827,-1.14412,-4.06721
0.207,4497.51,-3413.32,7975.9,-1.03473,1.77602,-1.28349,4262.91,2785.3,8174.69,-5.30597,-1.30935,-0.0493267,-36.137,9583.11,-1799.16,-5.36088,-7.9548,2.2329,47.7377,-9866.08,-141.278,-3.5714,-1.53329,2.45884,-1387.73,9377.2,-2501.65,-0.696601,-9.89223,-0.423147,-2576.59,-9556.77,-1107.16,-5.40445,11.5663,2.61715,8667.71,874.261,4185.2,-6.76606,-0.981389,-3.96947
0.208,4492.2,-3425.95,7965.49,-0.938194,1.72718,-1.35407,4244.21,2738.61,8167.36,-5.36412,-1.26702,-0.0263834,-39.6443,9599.05,-1780.28,-5.34192,-7.85571,2.20511,19.2194,-9859.02,-128.915,-3.49948,-1.68169,2.58528,-1388.54,9398.88,-2472.5,-0.808007,-9.73674,-0.442471,-2581.11,-9568.64,-1088.89,-5.32556,11.2219,2.67305,8689.95,880.341,4187.64,-6.83384,-0.818657,-3.87174
0.209,4487.16,-3434.84,7956.49,-0.845682,1.68069,-1.42605,4232.67,2696.83,8161.04,-5.3913,-1.24526,-0.00583975,-41.2514,9613.98,-1763.49,-5.32125,-7.74586,2.17337,-3.72017,-9856.35,-112.807,-3.42833,-1.80009,2.70302,-1388.74,9418.3,-2446.07,-0.925633,-9.57588,-0.441336,-2588.24,-9578.0,-1070.78,-5.26246,10.8711,2.74245,8708.78,880.611,4191.33,-6.90777,-0.693705,-3.77721
0.21,4484.22,-3413.83,7958.8,-0.785328,1.65295,-1.50928,4278.23,2694.4,8162.79,-5.17071,-1.38815,-0.00449211,-27.657,9620.8,-1763.41,-5.28697,-7.54986,2.11011,17.97,-9888.76,-66.7364,-3.36339,-1.67842,2.75113,-1384.0,9419.68,-2441.41,-1.09302,-9.37203,-0.276537,-2616.18,-9567.28,-1054.03,-5.32561,10.4683,2.91987,8700.28,834.405,4205.0,-7.03084,-0.870992,-3.70829
0.211,4481.27,-3392.82,7961.11,-0.724975,1.6252,-1.59251,4323.8,2691.97,8164.54,-4.95012,-1.53104,-0.00314448,-14.0627,9627.63,-1763.32,-5.2527,-7.35386,2.04685,39.6601,-9921.17,-20.6654,-3.29846,-1.55674,2.79925,-1379.27,9421.07,-2436.76,-1.2604,-9.16818,-0.111738,-2644.13,-9556.56,-1037.27,-5.38875,10.0655,3.0973,8691.79,788.198,4218.66,-7.15391,-1.04828,-3.63937
0.212,4478.33,-3371.8,7963.42,-0.664621,1.59746,-1.67574,4369.37,2689.54,8166.29,-4.72954,-1.67394,-0.00179685,-0.468312,9634.45,-1763.24,-5.21842,-7.15786,1.98359,61.3503,-9953.58,25.4057,-3.23352,-1.43507,2.84736,-1374.54,9422.46,-2432.11,-1.42778,-8.96433,0.0530613,-2672.08,-9545.84,-1020.51,-5.4519,9.66262,3.27472,8683.29,741.992,4232.33,-7.27698,-1.22557,-3.57045
0.213,4475.39,-3350.79,7965.73,-0.604267,1.56972,-1.75897,4414.94,2687.11,8168.04,-4.50895,-1.81683,-0.000449211,13.126,9641.27,-1763.16,-5.18414,-6.96186,1.92033,83.0404,-9985.98,71.4767,-3.16858,-1.3134,2.89547,-1369.8,9423.84,-2427.46,-1.59516,-8.76048,0.21786,-2700.02,-9535.12,-1003.76,-5.51505,9.2598,3.45215,8674.8,695.785,4245.99,-7.40004,-1.40286,-3.50153
0.214,4481.06,-3351.86,7966.59,-0.525903,1.6016,-1.74945,4423.79,2667.52,8171.47,-4.42912,-1.87739,-0.0974756,14.857,9639.11,-1774.87,-5.15651,-6.78722,1.90389,96.3983,-9974.77,76.0232,-3.11762,-1.36014,2.91412,-1366.44,9422.29,-2424.17,-1.72274,-8.52641,0.32387,-2721.86,-9531.5,-1011.48,-5.56013,8.93407,3.47821,8675.77,689.239,4217.35,-7.36658,-1.40596,-3.48636
0.215,4491.04,-3363.96,7966.72,-0.438534,1.6633,-1.69355,4414.28,2639.36,8175.73,-4.41968,-1.8968,-0.243689,10.6562,9632.46,-1792.48,-5.13219,-6.62326,1.91084,105.59,-9941.75,59.8073,-3.07366,-1.49108,2.91805,-1363.76,9419.27,-2421.57,-1.83041,-8.27724,0.400484,-2740.63,-9531.42,-1031.43,-5.59619,8.64689,3.42858,8681.48,702.521,4167.56,-7.25484,-1.32198,-3.49806
0.216,4501.01,-3376.06,7966.85,-0.351165,1.72499,-1.63765,4404.77,2611.19,8179.99,-4.41023,-1.9162,-0.389903,6.45549,9625.8,-1810.09,-5.10788,-6.45929,1.9178,114.782,-9908.72,43.5914,-3.02969,-1.62203,2.92198,-1361.07,9416.26,-2418.96,-1.93808,-8.02806,0.477098,-2759.41,-9531.35,-1051.38,-5.63224,8.35971,3.37895,8687.19,715.804,4117.76,-7.1431,-1.23799,-3.50976
0.217,4510.99,-3388.17,7966.98,-0.263795,1.78669,-1.58176,4395.25,2583.03,8184.25,-4.40079,-1.9356,-0.536116,2.25474,9619.15,-1827.7,-5.08357,-6.29533,1.92476,123.974,-9875.7,27.3756,-2.98573,-1.75297,2.92591,-1358.39,9413.24,-2416.36,-2.04575,-7.77889,0.553712,-2778.18,-9531.28,-1071.33,-5.6683,8.07253,3.32933,8692.9,729.087,4067.97,-7.03136,-1.154,-3.52146
0.218,4515.15,-3397.78,7965.13,-0.1891,1.83385,-1.50242,4388.47,2562.09,8187.12,-4.3547,-1.96569,-0.644946,-3.28201,9612.43,-1838.61,-5.07693,-6.15432,1.93435,128.051,-9856.96,12.5228,-2.96408,-1.84876,2.9399,-1356.89,9410.81,-2410.01,-2.14796,-7.52971,0.60608,-2795.26,-9530.8,-1095.33,-5.69929,7.78167,3.28777,8701.87,731.69,4035.19,-6.91053,-1.06067,-3.50632
0.219,4498.94,-3398.7,7956.32,-0.158765,1.83015,-1.34105,4391.25,2566.42,8185.15,-4.18036,-2.03318,-0.622937,-13.4948,9605.49,-1826.08,-5.13213,-6.09366,1.95313,114.229,-9888.21,2.44072,-3.02054,-1.82155,2.98913,-1359.48,9410.43,-2390.6,-2.23101,-7.28054,0.573584,-2806.4,-9528.91,-1133.53,-5.71257,7.47791,3.27444,8722.22,696.916,4061.98,-6.75789,-0.934614,-3.39725
0.22,4482.74,-3399.61,7947.52,-0.128431,1.82646,-1.17967,4394.03,2570.76,8183.19,-4.00603,-2.10067,-0.600927,-23.7075,9598.55,-1813.54,-5.18733,-6.03299,1.97192,100.407,-9919.46,-7.64133,-3.07699,-1.79433,3.03836,-1362.08,9410.05,-2371.18,-2.31407,-7.03136,0.541089,-2817.53,-9527.01,-1171.73,-5.72586,7.17415,3.26112,8742.57,662.141,4088.77,-6.60525,-0.808558,-3.28819
0.221,4466.53,-3400.53,7938.72,-0.0980959,1.82276,-1.0183,4396.81,2575.09,8181.22,-3.8317,-2.16816,-0.578918,-33.9202,9591.61,-1801.0,-5.24253,-5.97233,1.9907,86.5849,-9950.71,-17.7234,-3.13345,-1.76711,3.08758,-1364.67,9409.67,-2351.77,-2.39713,-6.78219,0.508594,-2828.67,-9525.12,-1209.93,-5.73914,6.87038,3.24779,8762.93,627.366,4115.55,-6.4526,-0.682501,-3.17912
0.222,4450.33,-3401.44,7929.92,-0.0677611,1.81906,-0.856929,4399.59,2579.43,8179.25,-3.65736,-2.23565,-0.556908,-44.133,9584.67,-1788.47,-5.29773,-5.91166,2.00949,72.7628,-9981.96,-27.8054,-3.1899,-1.7399,3.13681,-1367.27,9409.3,-2332.35,-2.48019,-6.53301,0.476099,-2839.81,-9523.23,-1248.13,-5.75242,6.56662,3.23446,8783.28,592.591,4142.34,-6.29996,-0.556445,-3.07005
0.223,4446.15,-3392.15,7931.97,-0.0530695,1.79383,-0.831869,4396.14,2604.44,8186.21,-3.58383,-2.27293,-0.604132,-39.191,9575.73,-1770.47,-5.25828,-5.77458,2.02823,66.0859,-9983.76,-46.007,-3.26668,-1.65116,3.06413,-1365.34,9404.75,-2320.9,-2.60594,-6.30518,0.433114,-2847.68,-9530.09,-1253.93,-5.78414,6.54449,3.17444,8794.88,588.902,4129.79,-6.15483,-0.401003,-3.00801
0.224,4445.41,-3379.95,7937.13,-0.0428474,1.76243,-0.845756,4390.91,2635.35,8195.71,-3.53909,-2.30159,-0.671136,-29.919,9566.22,-1750.92,-5.19179,-5.61566,2.04696,61.4505,-9977.15,-66.5284,-3.34925,-1.54485,2.95662,-1362.12,9399.0,-2311.73,-2.74388,-6.08345,0.387133,-2854.61,-9539.45,-1250.49,-5.82114,6.60282,3.10108,8803.97,594.094,4106.02,-6.01183,-0.237164,-2.95941
0.225,4444.67,-3367.75,7942.29,-0.0326254,1.73104,-0.859643,4385.67,2666.26,8205.22,-3.49436,-2.33024,-0.738141,-20.6471,9556.72,-1731.36,-5.12531,-5.45674,2.0657,56.815,-9970.54,-87.0498,-3.43183,-1.43854,2.84912,-1358.9,9393.26,-2302.55,-2.88183,-5.86171,0.341151,-2861.55,-9548.82,-1247.04,-5.85814,6.66116,3.02771,8813.06,599.286,4082.24,-5.86884,-0.0733255,-2.91082
0.226,4443.92,-3355.54,7947.44,-0.0224033,1.69965,-0.873531,4380.44,2697.17,8214.72,-3.44962,-2.35889,-0.805145,-11.3751,9547.21,-1711.8,-5.05882,-5.29781,2.08443,52.1796,-9963.92,-107.571,-3.51441,-1.33223,2.74161,-1355.68,9387.52,-2293.38,-3.01977,-5.63998,0.29517,-2868.49,-9558.18,-1243.59,-5.89514,6.71949,2.95434,8822.15,604.479,4058.46,-5.72585,0.090513,-2.86222
0.227,4450.13,-3344.41,7955.6,-0.035148,1.65911,-0.889804,4369.07,2724.72,8215.04,-3.37866,-2.39177,-0.85015,-5.11323,9534.88,-1697.05,-5.01584,-5.22579,2.09347,53.0318,-9960.52,-115.469,-3.61031,-1.254,2.69646,-1353.66,9380.79,-2287.51,-3.1208,-5.41677,0.264581,-2879.84,-9560.05,-1246.79,-5.88993,6.79946,2.83574,8834.29,607.327,4053.63,-5.65857,0.230751,-2.75422
0.228,4470.22,-3335.41,7969.73,-0.0938263,1.60027,-0.910848,4345.43,2745.52,8196.97,-3.25523,-2.43312,-0.851155,-4.87154,9516.9,-1691.92,-5.01987,-5.32757,2.08313,64.8595,-9963.56,-98.1205,-3.73286,-1.23194,2.77603,-1354.04,9372.1,-2288.24,-3.148,-5.1906,0.264775,-2900.04,-9546.93,-1263.29,-5.80029,6.92269,2.62667,8852.53,605.488,4086.71,-5.74273,0.323788,-2.52741
0.229,4490.32,-3326.42,7983.87,-0.152505,1.54143,-0.931893,4321.79,2766.32,8178.91,-3.13181,-2.47446,-0.852159,-4.62984,9498.92,-1686.78,-5.02391,-5.42936,2.07279,76.6872,-9966.6,-80.7718,-3.8554,-1.20987,2.8556,-1354.42,9363.41,-2288.98,-3.1752,-4.96443,0.26497,-2920.24,-9533.82,-1279.79,-5.71066,7.04592,2.4176,8870.78,603.648,4119.79,-5.82688,0.416825,-2.3006
0.23,4510.41,-3317.42,7998.01,-0.211183,1.4826,-0.952937,4298.16,2787.13,8160.85,-3.00839,-2.5158,-0.853164,-4.38815,9480.94,-1681.65,-5.02794,-5.53114,2.06245,88.5149,-9969.64,-63.4231,-3.97795,-1.18781,2.93517,-1354.81,9354.72,-2289.71,-3.2024,-4.73826,0.265165,-2940.44,-9520.7,-1296.29,-5.62102,7.16916,2.20853,8889.02,601.809,4152.86,-5.91104,0.509862,-2.07379
0.231,4530.51,-3308.43,8012.15,-0.269861,1.42376,-0.973982,4274.52,2807.93,8142.78,-2.88496,-2.55714,-0.854168,-4.14645,9462.96,-1676.51,-5.03197,-5.63292,2.05211,100.343,-9972.68,-46.0744,-4.1005,-1.16575,3.01474,-1355.19,9346.03,-2290.45,-3.2296,-4.51209,0.26536,-2960.64,-9507.58,-1312.79,-5.53138,7.29239,1.99946,8907.26,599.969,4185.94,-5.99519,0.602899,-1.84698
0.232,4529.84,-3299.92,8041.19,-0.256972,1.37425,-0.929624,4272.82,2791.17,8133.04,-2.77277,-2.61109,-0.891082,-21.7296,9489.23,-1674.59,-5.05107,-5.68551,1.97453,95.9887,-9984.24,-57.6203,-4.08618,-1.20916,2.94744,-1365.98,9345.84,-2284.61,-3.20404,-4.30278,0.273326,-2968.77,-9484.92,-1310.67,-5.3008,7.28763,1.76633,8919.46,586.867,4188.13,-5.83512,0.611549,-1.5462
0.233,4526.58,-3291.48,8072.1,-0.235138,1.3259,-0.877092,4273.86,2769.72,8124.34,-2.66197,-2.66661,-0.932483,-41.5408,9521.03,-1673.07,-5.07206,-5.73195,1.88854,89.6122,-9996.87,-72.7781,-4.05475,-1.26075,2.86177,-1378.06,9346.71,-2277.96,-3.17188,-4.09557,0.282262,-2975.4,-9461.07,-1306.21,-5.0526,7.26687,1.53019,8930.89,572.358,4186.45,-5.64453,0.60965,-1.23617
0.234,4523.32,-3283.03,8103.0,-0.213303,1.27756,-0.82456,4274.9,2748.26,8115.64,-2.55118,-2.72213,-0.973885,-61.3521,9552.83,-1671.54,-5.09304,-5.77839,1.80256,83.2357,-10009.5,-87.9358,-4.02333,-1.31235,2.77611,-1390.15,9347.59,-2271.3,-3.13973,-3.88836,0.291199,-2982.03,-9437.23,-1301.75,-4.8044,7.24611,1.29405,8942.33,557.848,4184.77,-5.45393,0.607752,-0.926145
0.235,4520.06,-3274.59,8133.91,-0.191468,1.22921,-0.772027,4275.95,2726.81,8106.94,-2.44038,-2.77765,-1.01529,-81.1633,9584.63,-1670.02,-5.11402,-5.82484,1.71657,76.8592,-10022.1,-103.094,-3.9919,-1.36394,2.69045,-1402.24,9348.46,-2264.65,-3.10757,-3.68116,0.300135,-2988.66,-9413.38,-1297.3,-4.5562,7.22535,1.05791,8953.77,543.338,4183.1,-5.26333,0.605853,-0.616117
0.236,4516.27,-3270.48,8135.84,-0.164143,1.24538,-0.740413,4295.15,2709.62,8106.93,-2.34238,-2.86881,-1.07467,-89.8971,9607.26,-1670.27,-5.08622,-5.8628,1.65447,58.6911,-10025.2,-120.261,-3.96768,-1.41154,2.68261,-1411.56,9352.68,-2257.44,-3.14909,-3.50521,0.313534,-3003.07,-9403.3,-1290.74,-4.38353,7.12013,0.851949,8956.43,540.989,4177.98,-4.91979,0.502039,-0.365092
0.237,4511.82,-3271.8,8101.57,-0.129953,1.3422,-0.734947,4337.06,2697.76,8117.78,-2.26037,-3.00452,-1.15652,-84.784,9618.43,-1672.74,-4.99743,-5.89017,1.62223,25.7835,-10016.3,-139.94,-3.95246,-1.45415,2.77207,-1417.43,9361.09,-2249.56,-3.28271,-3.36833,0.332511,-3027.21,-9410.42,-1281.55,-4.30525,6.90935,0.683719,8948.1,553.842,4168.54,-4.38505,0.27083,-0.187822
0.238,4507.37,-3273.12,8067.3,-0.0957637,1.43902,-0.72948,4378.97,2685.91,8128.64,-2.17836,-3.14023,-1.23838,-79.671,9629.59,-1675.2,-4.90863,-5.91755,1.58998,-7.12406,-10007.4,-159.62,-3.93723,-1.49677,2.86152,-1423.3,9369.5,-2241.68,-3.41633,-3.23146,0.351488,-3051.35,-9417.55,-1272.36,-4.22698,6.69857,0.515488,8939.77,566.694,4159.11,-3.85032,0.0396213,-0.0105522
0.239,4502.91,-3274.44,8033.03,-0.0615743,1.53584,-0.724014,4420.88,2674.05,8139.49,-2.09635,-3.27594,-1.32024,-74.5579,9640.76,-1677.66,-4.81984,-5.94492,1.55774,-40.0316,-9998.56,-179.299,-3.92201,-1.53938,2.95097,-1429.17,9377.91,-2233.79,-3.54994,-3.09459,0.370464,-3075.48,-9424.68,-1263.18,-4.14871,6.48778,0.347258,8931.44,579.546,4149.68,-3.31559,-0.191587,0.166718
0.24,4498.46,-3275.76,7998.76,-0.0273848,1.63266,-0.718548,4462.79,2662.19,8150.34,-2.01434,-3.41165,-1.40209,-69.4448,9651.93,-1680.13,-4.73105,-5.97229,1.5255,-72.9392,-9989.68,-198.979,-3.90679,-1.58199,3.04042,-1435.04,9386.32,-2225.91,-3.68356,-2.95772,0.389441,-3099.62,-9431.81,-1253.99,-4.07044,6.277,0.179028,8923.12,592.399,4140.25,-2.78086,-0.422796,0.343988
0.241,4505.6,-3279.27,7990.66,0.0327314,1.56635,-0.678465,4462.15,2660.08,8159.48,-2.02738,-3.30223,-1.37521,-92.9348,9653.26,-1695.51,-4.61602,-6.00781,1.60576,-61.9747,-9972.29,-193.027,-3.97475,-1.61033,2.96084,-1427.09,9399.11,-2198.29,-3.69917,-3.0006,0.388321,-3130.17,-9410.41,-1287.09,-3.93639,6.1274,0.119022,8985.01,588.219,4150.75,-2.70884,-0.420164,0.641785
0.242,4512.73,-3282.77,7982.57,0.0928475,1.50004,-0.638382,4461.51,2657.98,8168.62,-2.04041,-3.19281,-1.34833,-116.425,9654.59,-1710.89,-4.50099,-6.04333,1.68602,-51.0101,-9954.89,-187.076,-4.04271,-1.63867,2.88126,-1419.13,9411.91,-2170.67,-3.71477,-3.04349,0.387202,-3160.73,-9389.01,-1320.2,-3.80235,5.9778,0.0590158,9046.91,584.04,4161.26,-2.63683,-0.417532,0.939582
0.243,4519.87,-3286.28,7974.47,0.152964,1.43372,-0.598299,4460.87,2655.87,8177.76,-2.05344,-3.08339,-1.32145,-139.915,9655.92,-1726.28,-4.38596,-6.07885,1.76627,-40.0455,-9937.5,-181.124,-4.11067,-1.66701,2.80168,-1411.18,9424.7,-2143.06,-3.73038,-3.08638,0.386082,-3191.28,-9367.62,-1353.3,-3.6683,5.8282,-0.000990439,9108.81,579.861,4171.77,-2.56481,-0.4149,1.23738
0.244,4527.01,-3289.79,7966.38,0.21308,1.36741,-0.558216,4460.23,2653.76,8186.9,-2.06647,-2.97397,-1.29458,-163.405,9657.25,-1741.66,-4.27093,-6.11437,1.84653,-29.0809,-9920.11,-175.173,-4.17864,-1.69535,2.7221,-1403.22,9437.49,-2115.44,-3.74599,-3.12926,0.384962,-3221.83,-9346.22,-1386.41,-3.53425,5.6786,-0.0609967,9170.7,575.682,4182.27,-2.4928,-0.412268,1.53518
0.245,4522.28,-3292.68,7964.37,0.229739,1.29288,-0.515649,4442.63,2682.63,8178.92,-2.05276,-2.90507,-1.29011,-161.418,9634.47,-1745.18,-4.20337,-6.1456,1.8873,-32.3699,-9919.21,-175.951,-4.11032,-1.64027,2.73148,-1412.95,9443.39,-2108.06,-3.70367,-3.18286,0.355184,-3229.75,-9335.61,-1409.41,-3.36664,5.5915,-0.0474139,9191.84,574.055,4196.67,-2.50646,-0.487545,1.69695
0.246,4508.05,-3295.09,7967.24,0.211633,1.21177,-0.471096,4411.47,2736.27,8157.23,-2.01765,-2.8686,-1.30356,-139.05,9592.42,-1739.19,-4.17379,-6.17339,1.89648,-47.0617,-9931.5,-182.115,-3.93299,-1.51845,2.81203,-1436.84,9443.79,-2116.87,-3.61503,-3.24503,0.302478,-3219.54,-9333.64,-1424.34,-3.17217,5.55441,0.02504,9180.38,574.472,4214.19,-2.58867,-0.625149,1.74992
0.247,4493.83,-3297.5,7970.11,0.193526,1.13065,-0.426542,4380.31,2789.92,8135.54,-1.98254,-2.83213,-1.31702,-116.682,9550.36,-1733.21,-4.14421,-6.20118,1.90566,-61.7535,-9943.79,-188.278,-3.75566,-1.39664,2.89258,-1460.72,9444.19,-2125.68,-3.52638,-3.30719,0.249773,-3209.34,-9331.68,-1439.26,-2.9777,5.51732,0.0974939,9168.92,574.888,4231.7,-2.67088,-0.762754,1.80288
0.248,4479.6,-3299.91,7972.98,0.17542,1.04954,-0.381988,4349.15,2843.56,8113.86,-1.94743,-2.79566,-1.33048,-94.3139,9508.31,-1727.23,-4.11463,-6.22897,1.91484,-76.4454,-9956.07,-194.441,-3.57833,-1.27482,2.97313,-1484.6,9444.59,-2134.49,-3.43774,-3.36936,0.197068,-3199.14,-9329.71,-1454.19,-2.78324,5.48022,0.169948,9157.46,575.305,4249.22,-2.75309,-0.900358,1.85584
0.249,4467.17,-3300.55,7974.52,0.157162,0.970966,-0.362373,4323.29,2890.26,8096.4,-1.8851,-2.77784,-1.34261,-72.8978,9472.51,-1721.57,-4.09064,-6.25907,1.9084,-87.0236,-9962.94,-197.934,-3.4265,-1.17867,3.03421,-1502.64,9443.65,-2140.49,-3.35254,-3.43579,0.153449,-3191.11,-9329.56,-1463.61,-2.5899,5.45363,0.265936,9148.79,578.752,4265.19,-2.86518,-1.04945,1.90569
0.25,4469.08,-3287.08,7965.39,0.137698,0.912683,-0.542262,4339.81,2881.37,8112.83,-1.60497,-2.9092,-1.34413,-59.0976,9486.83,-1718.51,-4.11137,-6.30759,1.77696,-64.6932,-9926.45,-180.073,-3.47873,-1.28784,2.93952,-1473.87,9432.05,-2124.0,-3.29496,-3.53629,0.182525,-3200.4,-9343.94,-1429.03,-2.40562,5.51103,0.550198,9162.48,606.445,4268.8,-3.21635,-1.2904,1.93061
0.251,4471.0,-3273.62,7956.27,0.118234,0.8544,-0.722152,4356.33,2872.49,8129.26,-1.32485,-3.04056,-1.34566,-45.2974,9501.15,-1715.44,-4.1321,-6.35611,1.64551,-42.3628,-9889.96,-162.211,-3.53095,-1.39701,2.84482,-1445.1,9420.45,-2107.51,-3.23737,-3.6368,0.211601,-3209.7,-9358.33,-1394.44,-2.22133,5.56843,0.834461,9176.16,634.138,4272.42,-3.56752,-1.53136,1.95552
0.252,4472.91,-3260.15,7947.15,0.0987693,0.796118,-0.902041,4372.84,2863.61,8145.69,-1.04472,-3.17192,-1.34719,-31.4972,9515.47,-1712.37,-4.15283,-6.40463,1.51407,-20.0324,-9853.48,-144.349,-3.58318,-1.50618,2.75012,-1416.33,9408.85,-2091.01,-3.17979,-3.7373,0.240677,-3218.99,-9372.72,-1359.86,-2.03705,5.62583,1.11872,9189.85,661.831,4276.03,-3.91869,-1.77232,1.98044
0.253,4474.83,-3246.68,7938.03,0.079305,0.737835,-1.08193,4389.36,2854.72,8162.12,-0.764595,-3.30328,-1.34871,-17.697,9529.79,-1709.31,-4.17356,-6.45316,1.38263,2.29797,-9816.99,-126.487,-3.6354,-1.61535,2.65543,-1387.56,9397.25,-2074.52,-3.1222,-3.83781,0.269754,-3228.29,-9387.11,-1325.28,-1.85277,5.68323,1.40299,9203.54,689.523,4279.65,-4.26986,-2.01328,2.00535
0.254,4472.92,-3243.49,7935.81,0.056091,0.673938,-1.13458,4373.1,2824.03,8162.69,-0.669131,-3.31055,-1.37942,-16.9766,9538.15,-1701.85,-4.199,-6.56957,1.33998,10.2796,-9817.19,-121.825,-3.62092,-1.67337,2.61841,-1377.24,9404.25,-2057.29,-3.08195,-3.88145,0.332218,-3258.37,-9402.08,-1285.56,-1.78131,5.61309,1.72235,9209.08,726.013,4262.01,-4.63864,-2.11613,2.0147
0.255,4469.09,-3245.44,7937.04,0.0310022,0.607235,-1.12362,4340.44,2782.44,8155.32,-0.665998,-3.25579,-1.42472,-22.7961,9543.52,-1692.2,-4.22679,-6.71994,1.34174,11.0868,-9835.74,-123.763,-3.57309,-1.70583,2.61024,-1376.15,9420.56,-2039.7,-3.05036,-3.89667,0.411376,-3298.84,-9417.34,-1243.29,-1.76626,5.47918,2.05927,9210.56,766.901,4233.75,-5.01623,-2.14993,2.01627
0.256,4465.27,-3247.39,7938.27,0.00591336,0.540532,-1.11266,4307.78,2740.85,8147.96,-0.662865,-3.20102,-1.47003,-28.6156,9548.89,-1682.54,-4.25459,-6.87031,1.34349,11.894,-9854.3,-125.701,-3.52526,-1.73829,2.60207,-1375.06,9436.86,-2022.1,-3.01877,-3.91189,0.490534,-3339.32,-9432.6,-1201.01,-1.75121,5.34526,2.39619,9212.03,807.789,4205.49,-5.39381,-2.18373,2.01784
0.257,4461.45,-3249.34,7939.5,-0.0191755,0.473828,-1.10169,4275.12,2699.25,8140.59,-0.659732,-3.14626,-1.51533,-34.4351,9554.26,-1672.89,-4.28238,-7.02068,1.34524,12.7013,-9872.85,-127.639,-3.47743,-1.77074,2.59391,-1373.97,9453.17,-2004.5,-2.98719,-3.9271,0.569692,-3379.79,-9447.86,-1158.73,-1.73617,5.21135,2.73311,9213.51,848.677,4177.22,-5.7714,-2.21753,2.0194
0.258,4462.17,-3251.52,7942.22,-0.0347569,0.409059,-1.05251,4252.27,2661.54,8139.11,-0.638929,-3.09443,-1.5771,-46.4976,9560.59,-1665.27,-4.2959,-7.17065,1.33518,12.2642,-9886.95,-116.606,-3.45953,-1.822,2.55536,-1374.73,9468.97,-1988.93,-2.9587,-3.9596,0.638543,-3417.29,-9466.05,-1125.49,-1.75007,5.05855,3.07157,9216.27,887.631,4154.52,-6.11955,-2.23575,2.0199
0.259,4478.82,-3254.48,7950.14,-0.0170628,0.351061,-0.869561,4263.76,2637.43,8158.24,-0.556283,-3.05289,-1.69652,-80.4108,9570.25,-1664.78,-4.2595,-7.31921,1.28378,7.47209,-9885.48,-60.1719,-3.54638,-1.93907,2.41047,-1381.95,9483.01,-1980.43,-2.94107,-4.05259,0.67132,-3444.37,-9494.5,-1123.91,-1.86529,4.83969,3.41545,9223.56,919.816,4151.27,-6.36472,-2.19944,2.01664
0.26,4495.46,-3257.45,7958.06,0.000631324,0.293062,-0.68661,4275.24,2613.31,8177.37,-0.473637,-3.01135,-1.81593,-114.324,9579.91,-1664.29,-4.2231,-7.46778,1.23237,2.67998,-9884.02,-3.73783,-3.63324,-2.05614,2.26559,-1389.17,9497.05,-1971.94,-2.92344,-4.14558,0.704097,-3471.45,-9522.96,-1122.33,-1.9805,4.62082,3.75933,9230.85,952.001,4148.01,-6.60988,-2.16312,2.01339
0.261,4512.11,-3260.41,7965.98,0.0183255,0.235064,-0.503659,4286.73,2589.19,8196.49,-0.390991,-2.9698,-1.93535,-148.237,9589.57,-1663.8,-4.1867,-7.61635,1.18097,-2.11214,-9882.55,52.6962,-3.72009,-2.17321,2.12071,-1396.4,9511.09,-1963.44,-2.90581,-4.23857,0.736874,-3498.54,-9551.41,-1120.75,-2.09572,4.40196,4.10321,9238.13,984.186,4144.76,-6.85504,-2.1268,2.01014
0.262,4528.75,-3263.38,7973.9,0.0360196,0.177065,-0.320709,4298.21,2565.08,8215.62,-0.308344,-2.92826,-2.05476,-182.15,9599.23,-1663.3,-4.1503,-7.76492,1.12956,-6.90425,-9881.08,109.13,-3.80694,-2.29027,1.97583,-1403.62,9525.13,-1954.95,-2.88818,-4.33156,0.769651,-3525.62,-9579.86,-1119.17,-2.21094,4.18309,4.44709,9245.42,1016.37,4141.51,-7.10021,-2.09048,2.00689
0.263,4528.32,-3273.45,7978.92,-0.0279254,0.210476,-0.377638,4306.57,2553.96,8213.22,-0.0617256,-2.89276,-2.10284,-174.825,9628.32,-1668.39,-4.10742,-7.99056,1.01947,-17.7755,-9895.81,115.619,-3.79268,-2.45285,1.91586,-1418.09,9530.67,-1963.9,-2.83395,-4.39662,1.025,-3543.19,-9577.76,-1131.21,-2.35288,3.9367,4.8019,9221.35,1028.53,4135.04,-7.06823,-2.03435,1.92784
0.264,4523.02,-3285.56,7983.11,-0.115196,0.270003,-0.503104,4314.03,2546.55,8204.66,0.231743,-2.85898,-2.13054,-155.716,9662.97,-1675.08,-4.0627,-8.23822,0.892612,-30.3836,-9915.16,107.837,-3.74952,-2.62843,1.88016,-1434.63,9533.77,-1977.85,-2.76926,-4.45369,1.34394,-3558.04,-9566.93,-1147.13,-2.50245,3.68245,5.15984,9188.33,1034.96,4127.65,-6.95707,-1.97255,1.82713
0.265,4517.71,-3297.66,7987.31,-0.202466,0.329531,-0.62857,4321.49,2539.14,8196.11,0.525211,-2.82521,-2.15823,-136.608,9697.62,-1681.76,-4.01797,-8.48588,0.765753,-42.9917,-9934.51,100.056,-3.70635,-2.80402,1.84445,-1451.17,9536.87,-1991.79,-2.70456,-4.51076,1.66288,-3572.89,-9556.1,-1163.05,-2.65203,3.4282,5.51777,9155.3,1041.39,4120.27,-6.84592,-1.91075,1.72642
0.266,4512.41,-3309.77,7991.51,-0.289737,0.389058,-0.754036,4328.94,2531.74,8187.55,0.818679,-2.79143,-2.18593,-117.5,9732.26,-1688.44,-3.97325,-8.73353,0.638893,-55.5999,-9953.87,92.2745,-3.66319,-2.9796,1.80875,-1467.7,9539.98,-2005.73,-2.63987,-4.56783,1.98182,-3587.74,-9545.27,-1178.98,-2.8016,3.17395,5.8757,9122.27,1047.83,4112.88,-6.73476,-1.84895,1.62571
0.267,4503.41,-3318.6,7989.3,-0.334453,0.417675,-0.805385,4355.56,2531.61,8174.7,0.990881,-2.79432,-2.21689,-104.6,9746.0,-1690.25,-3.92218,-8.94715,0.570533,-77.1075,-9965.02,87.25,-3.66605,-3.12829,1.74813,-1480.59,9547.52,-2013.66,-2.5862,-4.66995,2.20038,-3600.3,-9529.21,-1190.31,-2.9342,3.01032,6.09393,9092.45,1071.44,4112.41,-6.54612,-1.8666,1.57238
0.268,4487.05,-3320.87,7974.29,-0.294061,0.38447,-0.708502,4420.5,2546.02,8153.27,0.920552,-2.87054,-2.2544,-104.118,9717.94,-1682.29,-3.85841,-9.09267,0.619172,-116.414,-9959.77,87.7393,-3.76093,-3.22319,1.63769,-1486.18,9563.94,-2009.57,-2.55455,-4.86218,2.21818,-3608.28,-9502.68,-1192.45,-3.03285,3.02795,6.03276,9069.01,1129.41,4125.76,-6.20253,-2.04316,1.61384
0.269,4470.68,-3323.14,7959.28,-0.253669,0.351265,-0.611619,4485.43,2560.44,8131.84,0.850223,-2.94676,-2.29191,-103.636,9689.87,-1674.34,-3.79465,-9.23819,0.667811,-155.721,-9954.52,88.2286,-3.85581,-3.31809,1.52724,-1491.76,9580.36,-2005.47,-2.52291,-5.0544,2.23597,-3616.27,-9476.15,-1194.6,-3.1315,3.04558,5.97159,9045.58,1187.39,4139.12,-5.85894,-2.21971,1.6553
0.27,4454.31,-3325.41,7944.27,-0.213278,0.31806,-0.514735,4550.37,2574.86,8110.4,0.779893,-3.02297,-2.32942,-103.154,9661.81,-1666.38,-3.73088,-9.38371,0.71645,-195.027,-9949.27,88.7179,-3.9507,-3.41299,1.41679,-1497.35,9596.78,-2001.37,-2.49127,-5.24662,2.25377,-3624.25,-9449.62,-1196.74,-3.23016,3.06321,5.91042,9022.16,1245.36,4152.47,-5.51536,-2.39627,1.69676
0.271,4437.94,-3327.69,7929.27,-0.172886,0.284856,-0.417852,4615.3,2589.28,8088.97,0.709564,-3.09919,-2.36693,-102.673,9633.74,-1658.43,-3.66711,-9.52923,0.765089,-234.334,-9944.02,89.2072,-4.04558,-3.50789,1.30635,-1502.94,9613.19,-1997.28,-2.45963,-5.43884,2.27156,-3632.23,-9423.09,-1198.89,-3.32881,3.08084,5.84925,8998.72,1303.34,4165.83,-5.17177,-2.57282,1.73821
0.272,4432.98,-3324.65,7950.61,-0.106746,0.273749,-0.428593,4614.97,2630.42,8084.53,0.783026,-3.11001,-2.49339,-117.409,9638.36,-1658.6,-3.69786,-9.69403,0.787251,-263.883,-9948.32,78.8161,-4.21304,-3.47623,1.21832,-1508.64,9608.95,-1981.61,-2.56395,-5.67245,2.3846,-3597.53,-9362.19,-1249.31,-3.45293,3.21807,5.80893,8998.11,1336.48,4173.15,-4.59789,-2.78298,1.72305
0.273,4429.43,-3320.95,7976.5,-0.0373887,0.265405,-0.452788,4606.49,2674.9,8082.22,0.874463,-3.11266,-2.63098,-134.047,9647.07,-1659.8,-3.74042,-9.86124,0.806103,-292.213,-9953.81,67.0649,-4.38956,-3.42875,1.13309,-1514.35,9602.12,-1964.49,-2.68527,-5.91123,2.50954,-3557.5,-9296.99,-1305.78,-3.58023,3.37026,5.77123,9000.34,1366.52,4179.73,-3.99523,-2.99734,1.70081
0.274,4425.89,-3317.25,8002.38,0.0319691,0.25706,-0.476983,4598.0,2719.39,8079.91,0.965899,-3.1153,-2.76856,-150.685,9655.78,-1660.99,-3.78297,-10.0284,0.824955,-320.543,-9959.31,55.3137,-4.56609,-3.38128,1.04787,-1520.06,9595.29,-1947.38,-2.80659,-6.15,2.63448,-3517.47,-9231.79,-1362.24,-3.70753,3.52244,5.73352,9002.57,1396.56,4186.3,-3.39257,-3.21171,1.67856
0.275,4422.34,-3313.55,8028.27,0.101327,0.248716,-0.501178,4589.52,2763.87,8077.6,1.05734,-3.11795,-2.90615,-167.323,9664.49,-1662.18,-3.82553,-10.1957,0.843807,-348.872,-9964.8,43.5625,-4.74261,-3.3338,0.962647,-1525.77,9588.46,-1930.26,-2.92791,-6.38878,2.75943,-3477.44,-9166.6,-1418.71,-3.83484,3.67462,5.69581,9004.8,1426.59,4192.87,-2.78991,-3.42607,1.65632
0.276,4424.47,-3304.16,8026.87,0.165383,0.24408,-0.555183,4587.66,2796.62,8078.52,1.11557,-3.19151,-2.91103,-163.387,9669.5,-1658.43,-3.81435,-10.3992,0.839116,-353.448,-9969.42,32.6949,-4.89173,-3.27754,0.90319,-1540.02,9573.39,-1919.88,-2.95703,-6.6634,2.81368,-3440.12,-9116.78,-1454.82,-3.9673,3.58545,5.70955,8998.79,1446.6,4205.26,-2.33163,-3.5955,1.69121
0.277,4433.67,-3287.63,7991.35,0.222814,0.24408,-0.646452,4594.08,2814.71,8083.49,1.13231,-3.35371,-2.75005,-133.734,9669.9,-1648.52,-3.73599,-10.6481,0.804996,-328.331,-9972.93,22.9318,-5.00658,-3.21031,0.875943,-1564.94,9548.02,-1917.91,-2.87089,-6.98282,2.77959,-3406.17,-9086.2,-1465.51,-4.1062,3.19459,5.78761,8982.46,1454.05,4224.91,-2.05382,-3.70876,1.79749
0.278,4442.88,-3271.11,7955.83,0.280244,0.24408,-0.73772,4600.51,2832.8,8088.46,1.14904,-3.51592,-2.58906,-104.08,9670.29,-1638.6,-3.65762,-10.897,0.770877,-303.214,-9976.45,13.1687,-5.12143,-3.14308,0.848696,-1589.87,9522.65,-1915.94,-2.78475,-7.30224,2.74549,-3372.23,-9055.61,-1476.2,-4.24511,2.80373,5.86567,8966.13,1461.5,4244.56,-1.77601,-3.82202,1.90378
0.279,4452.09,-3254.59,7920.31,0.337674,0.24408,-0.828989,4606.93,2850.9,8093.42,1.16578,-3.67813,-2.42807,-74.426,9670.68,-1628.68,-3.57926,-11.1459,0.736757,-278.097,-9979.97,3.40567,-5.23628,-3.07584,0.821448,-1614.79,9497.29,-1913.96,-2.69861,-7.62166,2.71139,-3338.28,-9025.03,-1486.89,-4.38401,2.41286,5.94372,8949.8,1468.95,4264.22,-1.49821,-3.93528,2.01007
0.28,4461.3,-3238.07,7884.79,0.395104,0.24408,-0.920258,4613.36,2868.99,8098.39,1.18251,-3.84033,-2.26708,-44.7722,9671.07,-1618.77,-3.5009,-11.3948,0.702638,-252.981,-9983.49,-6.3574,-5.35113,-3.00861,0.794201,-1639.72,9471.92,-1911.99,-2.61247,-7.94107,2.67729,-3304.34,-8994.44,-1497.58,-4.52292,2.022,6.02178,8933.47,1476.4,4283.87,-1.2204,-4.04854,2.11636
0.281,4453.24,-3244.19,7917.55,0.535078,0.183732,-0.96908,4617.74,2882.27,8069.73,1.0936,-3.69554,-2.41904,-71.4415,9664.0,-1627.41,-3.47051,-11.6473,0.730193,-262.636,-9973.76,-53.3345,-5.32313,-3.00821,0.638232,-1641.79,9437.84,-1906.92,-2.5526,-8.23403,2.67279,-3252.71,-9026.31,-1500.32,-4.19803,1.44891,6.30001,8916.11,1474.16,4251.9,-1.20815,-4.19872,2.3041
0.282,4445.18,-3250.31,7950.3,0.675051,0.123385,-1.0179,4622.13,2895.56,8041.08,1.00468,-3.55074,-2.57101,-98.1108,9656.92,-1636.06,-3.44012,-11.8999,0.757749,-272.291,-9964.03,-100.312,-5.29513,-3.00781,0.482262,-1643.86,9403.76,-1901.84,-2.49272,-8.52699,2.66828,-3201.09,-9058.17,-1503.06,-3.87314,0.875822,6.57823,8898.75,1471.92,4219.94,-1.1959,-4.34889,2.49183
0.283,4437.12,-3256.43,7983.05,0.815024,0.0630368,-1.06673,4626.51,2908.85,8012.43,0.91576,-3.40594,-2.72297,-124.78,9649.84,-1644.71,-3.40972,-12.1524,0.785305,-281.946,-9954.29,-147.289,-5.26713,-3.00741,0.326293,-1645.93,9369.68,-1896.76,-2.43285,-8.81994,2.66378,-3149.47,-9090.04,-1505.8,-3.54825,0.302732,6.85646,8881.39,1469.68,4187.98,-1.18364,-4.49907,2.67957
0.284,4429.07,-3262.55,8015.8,0.954997,0.00268906,-1.11555,4630.9,2922.14,7983.77,0.826842,-3.26115,-2.87494,-151.449,9642.76,-1653.36,-3.37933,-12.4049,0.812861,-291.601,-9944.56,-194.266,-5.23913,-3.00702,0.170323,-1648.0,9335.6,-1891.68,-2.37297,-9.1129,2.65928,-3097.85,-9121.91,-1508.54,-3.22336,-0.270358,7.13469,8864.04,1467.44,4156.01,-1.17139,-4.64925,2.8673
0.285,4424.76,-3267.52,8015.22,1.1766,0.0662359,-1.10609,4628.05,2929.92,7980.47,0.765087,-3.22514,-2.88659,-177.552,9638.94,-1662.44,-3.2345,-12.6691,0.83526,-290.584,-9934.77,-223.681,-5.20966,-2.93492,0.0590754,-1657.47,9309.9,-1908.61,-2.2594,-9.44464,2.66669,-3061.92,-9161.29,-1507.18,-2.90348,-0.766316,7.42309,8859.38,1469.32,4134.24,-1.14616,-4.70248,2.97771
0.286,4423.46,-3271.56,7987.98,1.46352,0.228899,-1.05001,4619.42,2933.3,7997.46,0.725064,-3.27617,-2.78599,-203.202,9637.74,-1671.85,-2.99811,-12.9427,0.853534,-281.031,-9924.92,-239.046,-5.17903,-2.80547,-0.0163953,-1672.86,9290.9,-1943.13,-2.10285,-9.8074,2.68364,-3038.55,-9206.69,-1502.54,-2.58761,-1.20057,7.71962,8864.89,1474.5,4120.62,-1.11056,-4.67815,3.02626
0.287,4422.16,-3275.61,7960.74,1.75043,0.391561,-0.993937,4610.79,2936.68,8014.45,0.685041,-3.3272,-2.68538,-228.852,9636.54,-1681.26,-2.76172,-13.2163,0.871807,-271.479,-9915.08,-254.412,-5.14839,-2.67601,-0.091866,-1688.25,9271.91,-1977.66,-1.94631,-10.1702,2.70059,-3015.18,-9252.09,-1497.9,-2.27173,-1.63482,8.01616,8870.4,1479.67,4107.0,-1.07495,-4.65383,3.0748
0.288,4420.85,-3279.66,7933.5,2.03735,0.554224,-0.937859,4602.17,2940.06,8031.44,0.645017,-3.37822,-2.58478,-254.502,9635.34,-1690.67,-2.52533,-13.4899,0.890081,-261.926,-9905.24,-269.777,-5.11775,-2.54656,-0.167337,-1703.64,9252.91,-2012.19,-1.78977,-10.5329,2.71754,-2991.81,-9297.5,-1493.25,-1.95585,-2.06908,8.3127,8875.91,1484.85,4093.38,-1.03935,-4.6295,3.12334
0.289,4418.08,-3286.1,7906.79,2.33041,0.698429,-0.899522,4590.94,2941.81,8047.13,0.584051,-3.42547,-2.49574,-276.428,9630.23,-1698.45,-2.31732,-13.7547,0.889391,-251.177,-9898.89,-283.253,-5.08779,-2.42571,-0.259394,-1715.76,9233.51,-2040.22,-1.62548,-10.8864,2.74258,-2962.83,-9342.53,-1492.36,-1.66335,-2.45459,8.5906,8881.79,1488.34,4081.33,-1.0185,-4.61685,3.17917
0.29,4403.54,-3311.66,7884.32,2.67264,0.694972,-1.00311,4558.9,2930.52,8052.34,0.355537,-3.44246,-2.49919,-268.571,9593.88,-1693.2,-2.33632,-13.9495,0.736991,-230.86,-9920.44,-281.614,-5.06324,-2.3737,-0.484147,-1701.72,9210.88,-2016.25,-1.39912,-11.1655,2.83239,-2888.96,-9384.66,-1521.42,-1.55779,-2.45022,8.71942,8890.57,1478.37,4081.84,-1.11579,-4.69766,3.29322
0.291,4389.0,-3337.22,7861.85,3.01488,0.691515,-1.10671,4526.87,2919.23,8057.55,0.127024,-3.45946,-2.50264,-260.713,9557.52,-1687.94,-2.35533,-14.1443,0.584592,-210.544,-9941.99,-279.974,-5.03868,-2.32169,-0.7089,-1687.69,9188.24,-1992.28,-1.17276,-11.4446,2.92219,-2815.1,-9426.79,-1550.49,-1.45224,-2.44585,8.84825,8899.35,1468.4,4082.35,-1.21308,-4.77847,3.40728
0.292,4374.46,-3362.78,7839.39,3.35711,0.688059,-1.2103,4494.83,2907.94,8062.76,-0.10149,-3.47645,-2.50609,-252.856,9521.17,-1682.68,-2.37433,-14.3391,0.432192,-190.228,-9963.54,-278.334,-5.01413,-2.26967,-0.933653,-1673.65,9165.6,-1968.31,-0.946403,-11.7237,3.01199,-2741.23,-9468.92,-1579.55,-1.34668,-2.44148,8.97707,8908.13,1458.43,4082.86,-1.31037,-4.85927,3.52133
0.293,4359.92,-3388.35,7816.92,3.69935,0.684602,-1.31389,4462.8,2896.65,8067.97,-0.330003,-3.49344,-2.50954,-244.998,9484.82,-1677.42,-2.39333,-14.5339,0.279792,-169.911,-9985.08,-276.695,-4.98958,-2.21766,-1.15841,-1659.61,9142.96,-1944.35,-0.720046,-12.0028,3.10179,-2667.36,-9511.05,-1608.62,-1.24113,-2.43711,9.10589,8916.91,1448.46,4083.37,-1.40765,-4.94008,3.63539
0.294,4361.83,-3408.54,7821.13,3.88634,0.631633,-1.27338,4447.75,2898.72,8077.23,-0.392004,-3.5144,-2.5861,-231.763,9470.81,-1692.64,-2.38174,-14.7836,0.220981,-142.299,-9983.27,-273.579,-5.00515,-2.21944,-1.24901,-1649.9,9139.41,-1931.48,-0.370745,-12.1596,3.06667,-2632.34,-9549.62,-1616.37,-1.13605,-2.12846,9.01707,8905.64,1427.01,4067.85,-1.47556,-4.91417,3.69424
0.295,4371.98,-3426.06,7838.69,3.99571,0.553907,-1.1608,4441.2,2907.46,8088.52,-0.370749,-3.53735,-2.69921,-215.84,9467.98,-1718.09,-2.35486,-15.0606,0.208963,-111.038,-9969.78,-269.725,-5.0408,-2.24812,-1.27255,-1642.35,9145.4,-1924.17,0.0400284,-12.2552,2.96908,-2616.74,-9586.42,-1613.47,-1.03121,-1.66767,8.81942,8884.36,1399.83,4044.3,-1.52877,-4.83491,3.72549
0.296,4382.13,-3443.58,7856.25,4.10508,0.476181,-1.04823,4434.65,2916.21,8099.81,-0.349493,-3.5603,-2.81233,-199.917,9465.15,-1743.55,-2.32797,-15.3377,0.196946,-79.7778,-9956.29,-265.872,-5.07644,-2.2768,-1.29609,-1634.8,9151.39,-1916.86,0.450801,-12.3509,2.87149,-2601.13,-9623.21,-1610.56,-0.926373,-1.20688,8.62177,8863.07,1372.66,4020.76,-1.58198,-4.75564,3.75673
0.297,4392.27,-3461.09,7873.81,4.21445,0.398455,-0.935654,4428.1,2924.95,8111.1,-0.328238,-3.58324,-2.92545,-183.993,9462.33,-1769.0,-2.30109,-15.6147,0.184928,-48.5173,-9942.8,-262.018,-5.11208,-2.30548,-1.31962,-1627.25,9157.39,-1909.54,0.861574,-12.4466,2.7739,-2585.53,-9660.0,-1607.66,-0.821534,-0.746084,8.42413,8841.78,1345.48,3997.22,-1.6352,-4.67637,3.78798
0.298,4400.43,-3470.85,7887.46,4.3124,0.372866,-0.850971,4415.87,2931.72,8120.95,-0.339803,-3.5821,-3.00327,-171.169,9462.13,-1782.59,-2.24648,-15.8408,0.173241,-18.8643,-9934.22,-262.888,-5.14139,-2.31056,-1.34654,-1625.67,9164.03,-1914.58,1.21857,-12.5284,2.674,-2580.18,-9678.47,-1609.68,-0.765781,-0.166771,8.15638,8820.11,1318.94,3978.7,-1.69749,-4.58702,3.83184
0.299,4401.59,-3453.46,7887.41,4.37035,0.529753,-0.863908,4383.8,2931.59,8125.77,-0.466242,-3.49664,-2.95755,-169.188,9471.15,-1754.65,-2.09485,-15.8883,0.162708,5.16254,-9942.83,-280.291,-5.14849,-2.23305,-1.38529,-1645.02,9172.93,-1962.83,1.38735,-12.5616,2.56604,-2610.68,-9632.82,-1628.96,-0.881827,0.827368,7.64331,8797.06,1294.64,3977.79,-1.79159,-4.46235,3.91986
0.3,4402.75,-3436.07,7887.37,4.42831,0.686641,-0.876846,4351.73,2931.46,8130.58,-0.59268,-3.41118,-2.91182,-167.207,9480.18,-1726.72,-1.94322,-15.9359,0.152176,29.1894,-9951.45,-297.694,-5.15559,-2.15554,-1.42405,-1664.36,9181.84,-2011.08,1.55613,-12.5948,2.45808,-2641.19,-9587.16,-1648.23,-0.997872,1.82151,7.13024,8774.02,1270.33,3976.89,-1.8857,-4.33769,4.00787
0.301,4403.91,-3418.68,7887.32,4.48626,0.843529,-0.889783,4319.66,2931.33,8135.4,-0.719118,-3.32572,-2.8661,-165.227,9489.2,-1698.78,-1.79159,-15.9834,0.141643,53.2162,-9960.06,-315.097,-5.16269,-2.07803,-1.4628,-1683.71,9190.74,-2059.33,1.7249,-12.628,2.35012,-2671.7,-9541.51,-1667.51,-1.11392,2.81564,6.61717,8750.98,1246.03,3975.98,-1.9798,-4.21302,4.09589
0.302,4405.07,-3401.29,7887.27,4.54421,1.00042,-0.902721,4287.59,2931.19,8140.22,-0.845557,-3.24027,-2.82038,-163.246,9498.22,-1670.85,-1.63996,-16.031,0.131111,77.243,-9968.67,-332.5,-5.16979,-2.00052,-1.50156,-1703.05,9199.65,-2107.57,1.89368,-12.6612,2.24216,-2702.2,-9495.85,-1686.78,-1.22996,3.80978,6.1041,8727.94,1221.73,3975.07,-2.0739,-4.08836,4.1839
0.303,4419.37,-3365.74,7901.95,4.68971,0.966801,-0.937113,4283.67,2957.19,8134.57,-0.985858,-3.27691,-2.8664,-141.643,9492.75,-1651.76,-1.51507,-16.245,0.204646,79.7918,-9960.96,-330.626,-5.16048,-2.00508,-1.53979,-1719.95,9215.74,-2128.56,1.97174,-12.6118,2.16021,-2724.39,-9447.32,-1697.15,-1.2615,4.93799,5.62391,8737.88,1189.56,3987.89,-2.10745,-4.15393,4.23919
0.304,4437.42,-3325.0,7920.83,4.86021,0.878755,-0.977636,4287.8,2990.64,8125.93,-1.13012,-3.34843,-2.93864,-114.433,9483.13,-1635.21,-1.39783,-16.5065,0.302201,76.204,-9948.59,-323.243,-5.14648,-2.03308,-1.57786,-1736.15,9233.88,-2141.76,2.02387,-12.5387,2.0857,-2744.19,-9397.97,-1704.96,-1.26889,6.1045,5.15311,8757.24,1155.15,4004.64,-2.1237,-4.27385,4.28512
0.305,4455.47,-3284.26,7939.71,5.03071,0.79071,-1.01816,4291.93,3024.1,8117.3,-1.27438,-3.41995,-3.01087,-87.223,9473.5,-1618.65,-1.28059,-16.7681,0.399756,72.6162,-9936.21,-315.861,-5.13248,-2.06108,-1.61594,-1752.36,9252.03,-2154.96,2.076,-12.4657,2.01118,-2764.0,-9348.61,-1712.78,-1.27627,7.27102,4.68231,8776.6,1120.74,4021.39,-2.13995,-4.39378,4.33106
0.306,4473.53,-3243.52,7958.6,5.20122,0.702664,-1.05868,4296.06,3057.56,8108.66,-1.41865,-3.49148,-3.08311,-60.0133,9463.89,-1602.1,-1.16335,-17.0297,0.497311,69.0285,-9923.83,-308.478,-5.11848,-2.08908,-1.65402,-1768.56,9270.17,-2168.16,2.12813,-12.3927,1.93666,-2783.8,-9299.26,-1720.59,-1.28366,8.43753,4.21151,8795.97,1086.33,4038.14,-2.1562,-4.5137,4.377
0.307,4481.28,-3214.04,7968.28,5.30177,0.675893,-1.08234,4295.8,3073.37,8096.51,-1.57006,-3.53575,-3.08542,-50.7376,9466.28,-1587.32,-1.08997,-17.2219,0.599408,64.0236,-9911.29,-298.583,-5.09783,-2.11708,-1.7148,-1789.69,9292.4,-2180.34,2.10513,-12.3418,1.9619,-2815.03,-9235.28,-1708.99,-1.32488,9.4819,3.84717,8808.71,1052.97,4055.26,-2.11657,-4.54747,4.40112
0.308,4468.42,-3207.08,7959.55,5.26243,0.77167,-1.07227,4286.76,3053.88,8077.34,-1.73577,-3.52551,-2.94789,-77.3302,9492.7,-1576.1,-1.10431,-17.2752,0.710592,56.1844,-9898.42,-283.664,-5.06388,-2.14508,-1.82098,-1820.66,9322.8,-2190.5,1.93185,-12.3354,2.18663,-2869.08,-9142.03,-1658.56,-1.43378,10.282,3.69574,8808.21,1021.7,4073.11,-1.96517,-4.40891,4.3816
0.309,4455.57,-3200.11,7950.83,5.22309,0.867447,-1.06219,4277.73,3034.39,8058.18,-1.90149,-3.51527,-2.81036,-103.923,9519.11,-1564.88,-1.11865,-17.3286,0.821775,48.3453,-9885.55,-268.745,-5.02992,-2.17308,-1.92716,-1851.64,9353.2,-2200.65,1.75857,-12.3289,2.41137,-2923.14,-9048.78,-1608.12,-1.54267,11.082,3.54431,8807.71,990.429,4090.96,-1.81378,-4.27035,4.36209
0.31,4442.71,-3193.15,7942.11,5.18375,0.963224,-1.05212,4268.7,3014.91,8039.01,-2.0672,-3.50503,-2.67283,-130.515,9545.53,-1553.65,-1.13298,-17.382,0.932958,40.5062,-9872.68,-253.826,-4.99597,-2.20108,-2.03335,-1882.62,9383.6,-2210.81,1.58529,-12.3224,2.6361,-2977.19,-8955.53,-1557.69,-1.65157,11.8821,3.39288,8807.21,959.16,4108.81,-1.66238,-4.13179,4.34257
0.311,4429.86,-3186.19,7933.38,5.14441,1.059,-1.04205,4259.66,2995.42,8019.85,-2.23291,-3.49479,-2.5353,-157.108,9571.95,-1542.43,-1.14732,-17.4353,1.04414,32.6671,-9859.81,-238.907,-4.96202,-2.22908,-2.13953,-1913.6,9414.0,-2220.97,1.41201,-12.316,2.86084,-3031.24,-8862.29,-1507.25,-1.76046,12.6822,3.24146,8806.71,927.892,4126.66,-1.51098,-3.99323,4.32306
0.312,4425.82,-3199.77,7959.19,5.13717,0.970875,-1.06344,4290.87,2983.53,8016.43,-2.34061,-3.44559,-2.52152,-165.189,9562.1,-1578.52,-1.07186,-17.4886,0.997026,6.15012,-9856.26,-231.773,-4.90252,-2.2192,-2.06908,-1898.56,9408.9,-2203.25,1.33798,-12.4798,2.9412,-3106.06,-8798.46,-1470.25,-1.97214,12.896,3.31383,8787.07,934.975,4130.56,-1.51573,-4.11365,4.20057
0.313,4422.88,-3215.92,7989.31,5.13394,0.859762,-1.08876,4327.1,2972.58,8014.97,-2.44105,-3.39152,-2.5232,-170.955,9547.72,-1620.52,-0.985169,-17.5418,0.930123,-22.7016,-9853.87,-225.611,-4.83982,-2.20459,-1.97656,-1877.76,9399.38,-2182.04,1.27636,-12.665,3.00352,-3183.47,-8738.32,-1434.93,-2.19667,13.0365,3.41418,8765.04,946.852,4132.72,-1.54,-4.26645,4.06521
0.314,4419.94,-3232.07,8019.43,5.13071,0.748648,-1.11408,4363.33,2961.64,8013.52,-2.5415,-3.33745,-2.52488,-176.722,9533.34,-1662.51,-0.898481,-17.5951,0.863219,-51.5532,-9851.48,-219.449,-4.77713,-2.18998,-1.88404,-1856.96,9389.85,-2160.83,1.21474,-12.8501,3.06583,-3260.88,-8678.17,-1399.61,-2.42121,13.1771,3.51453,8743.01,958.73,4134.88,-1.56427,-4.41925,3.92985
0.315,4417.0,-3248.22,8049.55,5.12748,0.637534,-1.1394,4399.57,2950.69,8012.06,-2.64194,-3.28337,-2.52657,-182.488,9518.95,-1704.51,-0.811793,-17.6483,0.796316,-80.4049,-9849.09,-213.287,-4.71443,-2.17537,-1.79151,-1836.16,9380.32,-2139.63,1.15313,-13.0352,3.12815,-3338.28,-8618.02,-1364.3,-2.64574,13.3176,3.61487,8720.98,970.607,4137.04,-1.58854,-4.57205,3.79448
0.316,4422.7,-3251.57,8062.83,5.05525,0.584881,-1.13058,4430.79,2932.19,8018.41,-2.76155,-3.25852,-2.469,-192.54,9521.6,-1734.75,-0.749036,-17.6052,0.813741,-107.125,-9855.29,-210.081,-4.68345,-2.13359,-1.72457,-1827.82,9378.48,-2130.18,1.25011,-13.2519,3.1638,-3410.94,-8581.44,-1327.5,-2.93703,13.1466,3.79899,8705.9,960.324,4135.36,-1.59203,-4.75209,3.66143
0.317,4439.17,-3238.94,8055.07,4.89678,0.605302,-1.07909,4455.75,2904.23,8034.51,-2.9051,-3.2702,-2.33736,-207.949,9545.54,-1750.3,-0.716195,-17.4417,0.936575,-131.181,-9872.22,-210.57,-4.69211,-2.05784,-1.68961,-1835.06,9386.26,-2135.42,1.54535,-13.508,3.16611,-3477.66,-8574.3,-1288.87,-3.31178,12.586,4.08781,8699.52,922.341,4128.88,-1.56955,-4.9662,3.53125
0.318,4455.65,-3226.3,8047.31,4.73831,0.625723,-1.02759,4480.71,2876.28,8050.62,-3.04865,-3.28188,-2.20573,-223.358,9569.48,-1765.84,-0.683354,-17.2781,1.05941,-155.237,-9889.15,-211.059,-4.70077,-1.98209,-1.65465,-1842.29,9394.04,-2140.66,1.84058,-13.7641,3.16842,-3544.38,-8567.16,-1250.23,-3.68652,12.0254,4.37663,8693.15,884.357,4122.4,-1.54707,-5.18031,3.40108
0.319,4472.12,-3213.66,8039.56,4.57983,0.646145,-0.9761,4505.67,2848.32,8066.72,-3.1922,-3.29357,-2.0741,-238.767,9593.42,-1781.38,-0.650513,-17.1146,1.18224,-179.292,-9906.08,-211.548,-4.70943,-1.90635,-1.61969,-1849.52,9401.82,-2145.9,2.13582,-14.0202,3.17073,-3611.09,-8560.02,-1211.6,-4.06127,11.4649,4.66546,8686.77,846.373,4115.92,-1.5246,-5.39441,3.2709
0.32,4488.6,-3201.03,8031.8,4.42136,0.666566,-0.924608,4530.63,2820.37,8082.83,-3.33575,-3.30525,-1.94246,-254.176,9617.36,-1796.92,-0.617672,-16.9511,1.30508,-203.348,-9923.01,-212.036,-4.71809,-1.8306,-1.58473,-1856.75,9409.6,-2151.14,2.43106,-14.2763,3.17304,-3677.81,-8552.88,-1172.97,-4.43602,10.9043,4.95428,8680.39,808.39,4109.43,-1.50212,-5.60852,3.14072
0.321,4542.68,-3203.64,8018.86,4.41508,0.627569,-1.0293,4560.92,2827.46,8101.54,-3.27795,-3.25045,-1.88646,-241.845,9641.55,-1778.24,-0.576819,-16.7966,1.39183,-177.901,-9933.62,-228.107,-4.76928,-1.75856,-1.67712,-1903.03,9314.79,-2114.65,2.93074,-14.679,3.03328,-3696.15,-8582.74,-1169.78,-4.7101,10.024,5.29816,8682.77,792.352,4108.54,-1.4037,-5.72712,3.14324
0.322,4596.76,-3206.24,8005.92,4.4088,0.588573,-1.13399,4591.21,2834.55,8120.25,-3.22014,-3.19565,-1.83047,-229.514,9665.74,-1759.57,-0.535966,-16.642,1.47858,-152.454,-9944.23,-244.178,-4.82048,-1.68653,-1.7695,-1949.32,9219.98,-2078.16,3.43042,-15.0818,2.89352,-3714.48,-8612.61,-1166.59,-4.98418,9.14366,5.64204,8685.14,776.315,4107.65,-1.30529,-5.84572,3.14575
0.323,4650.83,-3208.85,7992.98,4.40252,0.549576,-1.23868,4621.5,2841.63,8138.96,-3.16234,-3.14086,-1.77447,-217.184,9689.94,-1740.89,-0.495113,-16.4874,1.56533,-127.007,-9954.84,-260.248,-4.87168,-1.61449,-1.86189,-1995.6,9125.17,-2041.68,3.9301,-15.4846,2.75376,-3732.81,-8642.48,-1163.4,-5.25826,8.26335,5.98591,8687.52,760.278,4106.76,-1.20688,-5.96432,3.14827
0.324,4704.91,-3211.46,7980.04,4.39623,0.510579,-1.34337,4651.79,2848.72,8157.67,-3.10453,-3.08606,-1.71847,-204.853,9714.13,-1722.22,-0.45426,-16.3329,1.65208,-101.56,-9965.45,-276.319,-4.92288,-1.54245,-1.95427,-2041.88,9030.36,-2005.19,4.42977,-15.8874,2.61401,-3751.15,-8672.34,-1160.21,-5.53234,7.38304,6.32979,8689.9,744.24,4105.87,-1.10847,-6.08292,3.15078
0.325,4728.03,-3215.02,7976.44,4.22107,0.432655,-1.28667,4642.87,2856.2,8161.01,-3.1683,-3.06378,-1.73539,-194.379,9707.07,-1735.84,-0.405592,-16.1646,1.70757,-89.4446,-9967.03,-289.68,-4.9746,-1.46141,-2.03061,-2110.9,8948.86,-1996.95,4.89836,-16.1937,2.45307,-3779.0,-8721.25,-1168.37,-5.84385,6.5548,6.66837,8690.09,732.373,4103.01,-1.04494,-6.15324,3.16539
0.326,4726.38,-3219.35,7980.32,3.9108,0.323591,-1.10086,4602.59,2864.0,8152.05,-3.32932,-3.06751,-1.81066,-185.39,9675.02,-1775.32,-0.350673,-15.9852,1.73805,-87.9941,-9961.39,-300.873,-5.02675,-1.37316,-2.09413,-2198.11,8878.01,-2011.31,5.34208,-16.4229,2.27519,-3814.47,-8785.38,-1185.61,-6.18531,5.76822,7.00271,8688.55,723.842,4098.58,-1.00932,-6.18492,3.18968
