Time,RFoot_accel.x,RFoot_accel.y,RFoot_accel.z,RFoot_gyro.x,RFoot_gyro.y,RFoot_gyro.z,LFoot_accel.x,LFoot_accel.y,LFoot_accel.z,LFoot_gyro.x,LFoot_gyro.y,LFoot_gyro.z,RShank_accel.x,RShank_accel.y,RShank_accel.z,RShank_gyro.x,RShank_gyro.y,RShank_gyro.z,LShank_accel.x,LShank_accel.y,LShank_accel.z,LShank_gyro.x,LShank_gyro.y,LShank_gyro.z,RThigh_accel.x,RThigh_accel.y,RThigh_accel.z,RThigh_gyro.x,RThigh_gyro.y,RThigh_gyro.z,LThigh_accel.x,LThigh_accel.y,LThigh_accel.z,LThigh_gyro.x,LThigh_gyro.y,LThigh_gyro.z,Pelvis_accel.x,Pelvis_accel.y,Pelvis_accel.z,Pelvis_gyro.x,Pelvis_gyro.y,Pelvis_gyro.z
0.0,4432.84,-3234.06,8048.27,-0.241162,0.848998,0.525411,4444.51,2842.66,8100.93,-0.864217,-0.632374,-0.98519,-502.111,9573.63,-1700.58,-1.82775,0.511259,0.209291,410.441,-9841.53,-488.116,-1.34153,-0.32739,0.991853,-2106.64,9202.0,-2460.98,-0.305924,2.3413,-0.408723,-3622.95,-9219.71,-1304.89,-4.61896,-0.782994,-0.409565,8628.93,1268.84,4587.11,-0.000457443,1.09973,1.34141
0.001,4431.07,-3236.8,8058.92,-0.334311,0.810353,0.477648,4451.52,2829.85,8123.36,-0.873956,-0.614533,-0.983194,-510.609,9584.31,-1710.12,-1.90053,0.423735,0.268598,404.853,-9863.82,-489.411,-1.24106,-0.253352,0.897599,-2110.96,9191.87,-2469.29,-0.282909,2.26295,-0.385879,-3628.12,-9207.85,-1307.5,-4.56116,-0.79668,-0.393644,8671.96,1255.86,4552.62,-0.123798,1.11303,1.36849
0.002,4429.29,-3239.53,8069.57,-0.427461,0.771708,0.429885,4458.52,2817.04,8145.78,-0.883695,-0.596692,-0.981198,-519.108,9594.99,-1719.67,-1.9733,0.336211,0.327905,399.264,-9886.1,-490.706,-1.14059,-0.179313,0.803345,-2115.28,9181.74,-2477.61,-0.259893,2.1846,-0.363035,-3633.29,-9195.99,-1310.11,-4.50336,-0.810366,-0.377724,8715.0,1242.89,4518.12,-0.247138,1.12633,1.39557
0.003,4427.52,-3242.27,8080.23,-0.520611,0.733063,0.382121,4465.52,2804.23,8168.2,-0.893434,-0.57885,-0.979203,-527.606,9605.67,-1729.21,-2.04608,0.248687,0.387212,393.675,-9908.39,-492.001,-1.04013,-0.105275,0.709091,-2119.59,9171.61,-2485.92,-0.236877,2.10626,-0.34019,-3638.46,-9184.14,-1312.72,-4.44555,-0.824052,-0.361803,8758.03,1229.91,4483.63,-0.370479,1.13963,1.42265
0.004,4425.75,-3245.01,8090.88,-0.61376,0.694418,0.334358,4472.52,2791.43,8190.63,-0.903172,-0.561009,-0.977207,-536.104,9616.35,-1738.75,-2.11886,0.161163,0.446518,388.086,-9930.68,-493.295,-0.939657,-0.0312365,0.614837,-2123.91,9161.49,-2494.24,-0.213862,2.02791,-0.317346,-3643.64,-9172.28,-1315.33,-4.38775,-0.837738,-0.345883,8801.07,1216.93,4449.14,-0.493819,1.15293,1.44973
0.005,4426.65,-3231.05,8081.77,-0.701902,0.67649,0.304671,4467.9,2795.46,8178.81,-0.901269,-0.545385,-0.983527,-532.451,9618.65,-1743.28,-2.18864,0.13395,0.46716,380.997,-9939.83,-496.951,-0.962904,0.00237008,0.595939,-2123.97,9163.22,-2490.09,-0.211323,2.01175,-0.323711,-3630.91,-9166.13,-1308.73,-4.30944,-0.865556,-0.31215,8819.03,1207.24,4430.36,-0.540328,1.15338,1.42472
0.006,4429.71,-3203.74,8056.85,-0.786038,0.675135,0.289443,4453.99,2812.95,8139.61,-0.890051,-0.531535,-0.9965,-519.077,9614.24,-1743.8,-2.25602,0.154984,0.456869,372.708,-9938.48,-502.495,-1.08512,0.0036313,0.637325,-2120.61,9174.45,-2475.98,-0.225167,2.04533,-0.353445,-3603.87,-9164.54,-1294.76,-4.21471,-0.904679,-0.264166,8816.92,1200.17,4424.17,-0.52537,1.14355,1.35803
0.007,4432.76,-3176.43,8031.93,-0.870173,0.67378,0.274216,4440.09,2830.45,8100.4,-0.878833,-0.517685,-1.00947,-505.703,9609.84,-1744.32,-2.3234,0.176019,0.446578,364.419,-9937.13,-508.039,-1.20734,0.00489252,0.678712,-2117.25,9185.68,-2461.87,-0.239011,2.07892,-0.383179,-3576.83,-9162.94,-1280.79,-4.11998,-0.943801,-0.216183,8814.81,1193.09,4417.97,-0.510413,1.13372,1.29134
0.008,4435.81,-3149.12,8007.01,-0.954309,0.672425,0.258989,4426.18,2847.95,8061.2,-0.867616,-0.503836,-1.02244,-492.328,9605.44,-1744.84,-2.39078,0.197054,0.436287,356.129,-9935.78,-513.583,-1.32956,0.00615374,0.720098,-2113.89,9196.9,-2447.75,-0.252854,2.1125,-0.412912,-3549.79,-9161.35,-1266.82,-4.02525,-0.982924,-0.1682,8812.71,1186.02,4411.78,-0.495456,1.12389,1.22466
0.009,4439.72,-3125.72,7985.86,-1.02478,0.668206,0.248434,4414.29,2865.1,8026.08,-0.86047,-0.49435,-1.02679,-478.612,9601.23,-1744.01,-2.44196,0.194113,0.426721,349.308,-9932.66,-518.489,-1.43214,0.0112141,0.7523,-2112.13,9208.15,-2432.89,-0.265079,2.15188,-0.428898,-3528.1,-9160.6,-1253.74,-3.95117,-1.00945,-0.138758,8805.17,1181.96,4407.46,-0.475008,1.13526,1.17318
0.01,4450.43,-3133.6,7994.85,-0.985947,0.64108,0.27525,4418.6,2879.53,8023.71,-0.885899,-0.519779,-0.962078,-462.163,9598.63,-1732.36,-2.36355,-0.000628641,0.422949,354.23,-9915.39,-518.289,-1.3776,0.0466679,0.71103,-2123.14,9219.55,-2412.08,-0.264351,2.23762,-0.334903,-3549.2,-9166.57,-1247.86,-4.04228,-0.935244,-0.257647,8754.13,1201.92,4418.19,-0.410635,1.31617,1.2434
0.011,4461.15,-3141.49,8003.85,-0.947114,0.613954,0.302067,4422.91,2893.96,8021.33,-0.911327,-0.545208,-0.897371,-445.714,9596.03,-1720.7,-2.28513,-0.195371,0.419177,359.152,-9898.13,-518.09,-1.32306,0.0821216,0.669761,-2134.16,9230.94,-2391.27,-0.263624,2.32336,-0.240909,-3570.3,-9172.55,-1241.98,-4.13339,-0.861032,-0.376537,8703.1,1221.89,4428.92,-0.346262,1.49708,1.31363
0.012,4471.86,-3149.37,8012.85,-0.90828,0.586829,0.328883,4427.21,2908.38,8018.96,-0.936756,-0.570636,-0.832663,-429.265,9593.43,-1709.05,-2.20672,-0.390112,0.415405,364.074,-9880.86,-517.89,-1.26852,0.117575,0.628491,-2145.18,9242.34,-2370.45,-0.262896,2.40909,-0.146914,-3591.41,-9178.52,-1236.09,-4.22449,-0.786821,-0.495426,8652.07,1241.86,4439.64,-0.281889,1.678,1.38385
0.013,4482.58,-3157.25,8021.84,-0.869446,0.559703,0.3557,4431.52,2922.81,8016.58,-0.962185,-0.596065,-0.767956,-412.816,9590.83,-1697.4,-2.12831,-0.584854,0.411633,368.996,-9863.6,-517.69,-1.21399,0.153029,0.587221,-2156.19,9253.74,-2349.64,-0.262168,2.49483,-0.0529187,-3612.51,-9184.49,-1230.21,-4.3156,-0.71261,-0.614315,8601.04,1261.83,4450.37,-0.217517,1.85891,1.45407
0.014,4488.39,-3167.84,8025.64,-0.938401,0.57785,0.291766,4441.41,2911.46,8024.77,-0.989128,-0.614199,-0.832354,-419.784,9595.38,-1700.72,-2.09415,-0.671219,0.39586,367.1,-9874.48,-509.621,-1.19877,0.176002,0.603513,-2156.31,9245.09,-2344.63,-0.226897,2.55252,0.00232537,-3618.62,-9178.3,-1237.7,-4.35749,-0.639271,-0.732643,8599.35,1265.54,4457.16,-0.259689,1.76061,1.53621
0.015,4491.75,-3179.77,8026.83,-1.06125,0.618633,0.182455,4454.11,2887.22,8038.25,-1.01683,-0.628686,-0.961304,-438.462,9603.5,-1711.54,-2.08211,-0.703394,0.374087,361.794,-9899.42,-497.616,-1.2032,0.192734,0.648587,-2150.99,9226.4,-2347.53,-0.174353,2.59619,0.0381941,-3617.23,-9166.02,-1251.88,-4.37479,-0.566367,-0.85069,8622.33,1261.12,4461.98,-0.355133,1.52269,1.6243
0.016,4495.11,-3191.71,8028.02,-1.1841,0.659416,0.0731453,4466.8,2862.99,8051.73,-1.04453,-0.643172,-1.09025,-457.139,9611.62,-1722.35,-2.07007,-0.73557,0.352315,356.489,-9924.37,-485.612,-1.20764,0.209467,0.69366,-2145.67,9207.72,-2350.42,-0.12181,2.63986,0.0740627,-3615.85,-9153.75,-1266.06,-4.39208,-0.493462,-0.968737,8645.31,1256.7,4466.81,-0.450577,1.28478,1.71239
0.017,4498.46,-3203.64,8029.22,-1.30695,0.700199,-0.0361648,4479.49,2838.75,8065.21,-1.07223,-0.657659,-1.2192,-475.816,9619.75,-1733.16,-2.05803,-0.767745,0.330542,351.183,-9949.32,-473.607,-1.21208,0.226199,0.738734,-2140.34,9189.03,-2353.31,-0.0692666,2.68353,0.109931,-3614.46,-9141.47,-1280.25,-4.40937,-0.420558,-1.08678,8668.29,1252.28,4471.63,-0.546022,1.04687,1.80048
0.018,4495.86,-3212.89,8032.95,-1.3844,0.728963,-0.106077,4484.59,2825.27,8075.12,-1.06733,-0.672004,-1.32065,-485.772,9626.09,-1740.27,-2.04572,-0.77754,0.30708,351.443,-9967.21,-465.391,-1.22151,0.242324,0.789104,-2133.48,9177.24,-2351.92,-0.0204259,2.71756,0.148565,-3611.41,-9131.87,-1289.36,-4.40018,-0.320923,-1.14845,8686.24,1242.46,4473.5,-0.631165,0.870915,1.84156
0.019,4472.38,-3212.7,8045.57,-1.30295,0.715661,-0.0380959,4463.1,2849.41,8072.5,-0.948363,-0.685853,-1.32581,-465.201,9626.22,-1734.45,-2.03247,-0.709003,0.277707,371.182,-9960.42,-470.436,-1.24842,0.256324,0.858011,-2121.22,9189.59,-2335.51,0.0154551,2.71785,0.196878,-3602.53,-9131.61,-1280.73,-4.29828,-0.127726,-1.01278,8686.58,1213.73,4465.04,-0.680253,0.911834,1.71809
0.02,4448.91,-3212.52,8058.2,-1.2215,0.702359,0.0298851,4441.61,2873.55,8069.89,-0.829392,-0.699703,-1.33097,-444.631,9626.34,-1728.62,-2.01921,-0.640465,0.248334,390.92,-9953.62,-475.481,-1.27532,0.270325,0.926917,-2108.96,9201.94,-2319.11,0.0513362,2.71813,0.24519,-3593.66,-9131.36,-1272.11,-4.19639,0.065471,-0.877113,8686.91,1185.01,4456.59,-0.72934,0.952752,1.59462
0.021,4425.44,-3212.33,8070.82,-1.14005,0.689057,0.0978662,4420.13,2897.69,8067.28,-0.710421,-0.713553,-1.33613,-424.06,9626.46,-1722.8,-2.00595,-0.571928,0.218961,410.659,-9946.83,-480.526,-1.30223,0.284325,0.995824,-2096.7,9214.29,-2302.7,0.0872172,2.71841,0.293502,-3584.78,-9131.11,-1263.49,-4.0945,0.258668,-0.741445,8687.25,1156.28,4448.13,-0.778428,0.993671,1.47115
0.022,4401.96,-3212.15,8083.44,-1.0586,0.675755,0.165847,4398.64,2921.83,8064.67,-0.591449,-0.727403,-1.34129,-403.489,9626.59,-1716.97,-1.9927,-0.503391,0.189587,430.397,-9940.03,-485.571,-1.32913,0.298325,1.06473,-2084.44,9226.64,-2286.29,0.123098,2.7187,0.341814,-3575.91,-9130.85,-1254.86,-3.99261,0.451865,-0.605777,8687.58,1127.56,4439.67,-0.827516,1.03459,1.34768
0.023,4416.72,-3193.77,8059.36,-1.10321,0.704153,0.140233,4414.71,2915.45,8043.48,-0.645956,-0.70986,-1.30058,-394.153,9622.57,-1712.1,-1.93983,-0.52138,0.18306,422.118,-9923.6,-481.365,-1.34664,0.220093,1.14474,-2084.36,9229.37,-2288.59,0.133852,2.62595,0.340519,-3573.44,-9136.34,-1244.63,-3.95633,0.553071,-0.488801,8691.74,1137.18,4448.87,-0.792496,1.0646,1.24737
0.024,4442.39,-3170.19,8024.79,-1.18383,0.744464,0.0878764,4441.51,2900.36,8017.0,-0.750026,-0.683348,-1.24677,-388.025,9617.38,-1707.49,-1.87565,-0.564092,0.18306,405.835,-9904.4,-474.515,-1.36147,0.115508,1.22792,-2087.75,9229.35,-2296.24,0.137427,2.50662,0.325051,-3572.81,-9143.48,-1233.93,-3.93879,0.627994,-0.377167,8696.99,1157.76,4463.11,-0.733446,1.09149,1.15367
0.025,4468.07,-3146.61,7990.22,-1.26445,0.784775,0.0355201,4468.3,2885.27,7990.51,-0.854097,-0.656835,-1.19295,-381.898,9612.18,-1702.88,-1.81146,-0.606804,0.18306,389.551,-9885.21,-467.665,-1.37629,0.0109237,1.31109,-2091.15,9229.33,-2303.88,0.141002,2.38729,0.309583,-3572.17,-9150.62,-1223.24,-3.92126,0.702917,-0.265532,8702.24,1178.33,4477.35,-0.674396,1.11839,1.05997
0.026,4493.74,-3123.03,7955.65,-1.34507,0.825086,-0.0168361,4495.1,2870.18,7964.02,-0.958168,-0.630323,-1.13913,-375.771,9606.98,-1698.27,-1.74728,-0.649516,0.18306,373.267,-9866.02,-460.816,-1.39112,-0.093661,1.39427,-2094.55,9229.31,-2311.53,0.144577,2.26797,0.294115,-3571.53,-9157.76,-1212.55,-3.90372,0.77784,-0.153897,8707.49,1198.91,4491.59,-0.615345,1.14528,0.966279
0.027,4511.22,-3106.23,7944.12,-1.37952,0.843116,-0.0171693,4497.89,2866.05,7954.35,-0.992085,-0.612464,-1.08479,-369.86,9603.35,-1693.57,-1.71247,-0.703602,0.184539,370.607,-9855.77,-464.238,-1.40567,-0.178307,1.4329,-2098.34,9225.25,-2325.72,0.160152,2.18165,0.309019,-3578.61,-9163.35,-1211.64,-3.87484,0.840687,-0.106248,8706.48,1203.66,4495.72,-0.604995,1.1675,0.892292
0.028,4512.33,-3102.98,7978.68,-1.32161,0.816582,0.0865434,4452.64,2883.83,7978.31,-0.885691,-0.611913,-1.02939,-364.38,9602.84,-1688.65,-1.73641,-0.780434,0.188977,395.194,-9863.43,-488.204,-1.41967,-0.223075,1.38243,-2102.94,9213.11,-2353.01,0.199726,2.16138,0.38467,-3601.1,-9165.84,-1230.32,-3.82326,0.879382,-0.186571,8692.96,1176.73,4479.64,-0.692044,1.18037,0.857725
0.029,4513.43,-3099.74,8013.24,-1.2637,0.790049,0.190256,4407.4,2901.62,8002.27,-0.779298,-0.611363,-0.97399,-358.899,9602.34,-1683.74,-1.76034,-0.857267,0.193414,419.781,-9871.09,-512.17,-1.43367,-0.267843,1.33197,-2107.54,9200.97,-2380.3,0.239301,2.1411,0.460321,-3623.6,-9168.33,-1249.0,-3.77169,0.918078,-0.266893,8679.43,1149.8,4463.57,-0.779093,1.19323,0.823158
0.03,4514.53,-3096.49,8047.8,-1.20579,0.763515,0.293969,4362.16,2919.4,8026.23,-0.672905,-0.610812,-0.91859,-353.419,9601.84,-1678.83,-1.78428,-0.9341,0.197852,444.368,-9878.75,-536.136,-1.44767,-0.312611,1.2815,-2112.14,9188.84,-2407.6,0.278875,2.12083,0.535972,-3646.1,-9170.83,-1267.68,-3.72011,0.956773,-0.347216,8665.91,1122.87,4447.49,-0.866142,1.2061,0.78859
0.031,4515.63,-3093.24,8082.37,-1.14788,0.736982,0.397682,4316.91,2937.18,8050.19,-0.566511,-0.610261,-0.863191,-347.939,9601.34,-1673.92,-1.80822,-1.01093,0.202289,468.955,-9886.41,-560.102,-1.46167,-0.357379,1.23103,-2116.73,9176.7,-2434.89,0.318449,2.10055,0.611623,-3668.59,-9173.32,-1286.36,-3.66853,0.995468,-0.427539,8652.39,1095.94,4431.41,-0.953192,1.21897,0.754023
0.032,4486.54,-3121.32,8076.64,-1.02396,0.742481,0.299004,4338.17,2922.15,8045.46,-0.748361,-0.57368,-0.880831,-341.754,9614.58,-1682.16,-1.8149,-0.998709,0.170118,433.885,-9882.64,-549.822,-1.32935,-0.363106,1.17564,-2110.68,9178.63,-2427.51,0.231884,2.12025,0.613523,-3648.4,-9172.25,-1269.21,-3.62075,1.06634,-0.380259,8647.5,1109.97,4431.16,-0.939228,1.2132,0.792324
0.033,4453.67,-3153.31,8065.89,-0.891796,0.751985,0.175027,4367.74,2903.01,8037.14,-0.96624,-0.532595,-0.907601,-335.48,9629.53,-1692.05,-1.81942,-0.975353,0.13337,391.358,-9877.43,-535.262,-1.17873,-0.363954,1.11964,-2103.29,9182.31,-2415.79,0.12955,2.14495,0.606204,-3622.86,-9170.73,-1247.58,-3.57343,1.14124,-0.317028,8643.69,1129.12,4432.88,-0.912638,1.2051,0.839734
0.034,4420.81,-3185.3,8055.13,-0.759628,0.761488,0.0510507,4397.31,2883.88,8028.82,-1.18412,-0.491511,-0.934371,-329.206,9644.49,-1701.94,-1.82394,-0.951997,0.0966229,348.831,-9872.23,-520.701,-1.02812,-0.364802,1.06364,-2095.9,9186.0,-2404.07,0.0272171,2.16965,0.598884,-3597.33,-9169.21,-1225.94,-3.52612,1.21614,-0.253798,8639.88,1148.27,4434.61,-0.886048,1.197,0.887144
0.035,4387.95,-3217.28,8044.37,-0.62746,0.770992,-0.0729259,4426.87,2864.74,8020.5,-1.402,-0.450426,-0.961141,-322.932,9659.45,-1711.82,-1.82845,-0.928641,0.0598754,306.305,-9867.02,-506.14,-0.877504,-0.365649,1.00764,-2088.51,9189.68,-2392.36,-0.0751162,2.19435,0.591565,-3571.79,-9167.7,-1204.31,-3.47881,1.29104,-0.190568,8636.07,1167.42,4436.33,-0.859458,1.1889,0.934553
0.036,4376.49,-3230.41,8035.63,-0.566059,0.738011,-0.0434178,4441.46,2860.77,8023.57,-1.4805,-0.433619,-0.975967,-323.939,9662.81,-1715.34,-1.86221,-0.923593,-0.00957852,288.174,-9861.84,-489.544,-0.847885,-0.347353,0.995158,-2076.87,9190.76,-2385.86,-0.161485,2.21421,0.565361,-3559.76,-9169.41,-1190.6,-3.44399,1.34971,-0.155986,8639.15,1188.81,4439.52,-0.901723,1.14587,0.942969
0.037,4391.78,-3219.96,8029.42,-0.593114,0.651924,0.177946,4437.32,2875.76,8040.88,-1.38477,-0.447159,-0.975865,-334.046,9651.68,-1710.9,-1.93252,-0.941429,-0.119915,300.537,-9856.7,-470.402,-0.969507,-0.305128,1.03708,-2059.93,9188.58,-2385.87,-0.227899,2.22803,0.515551,-3564.6,-9175.17,-1186.78,-3.42479,1.38812,-0.157214,8650.85,1213.0,4444.55,-1.03006,1.05917,0.902642
0.038,4407.08,-3209.5,8023.2,-0.62017,0.565837,0.39931,4433.18,2890.76,8058.18,-1.28905,-0.460699,-0.975762,-344.152,9640.54,-1706.46,-2.00283,-0.959265,-0.230252,312.901,-9851.55,-451.261,-1.09113,-0.262903,1.079,-2042.99,9186.41,-2385.88,-0.294313,2.24186,0.465741,-3569.44,-9180.92,-1182.97,-3.40559,1.42653,-0.158442,8662.55,1237.19,4449.57,-1.15839,0.972464,0.862315
0.039,4422.37,-3199.05,8016.99,-0.647225,0.479751,0.620674,4429.04,2905.75,8075.49,-1.19332,-0.474238,-0.975659,-354.259,9629.41,-1702.01,-2.07314,-0.977101,-0.340589,325.265,-9846.4,-432.119,-1.21275,-0.220677,1.12092,-2026.05,9184.23,-2385.89,-0.360726,2.25568,0.41593,-3574.29,-9186.68,-1179.15,-3.38638,1.46493,-0.15967,8674.25,1261.38,4454.6,-1.28673,0.885762,0.821988
0.04,4437.66,-3188.6,8010.77,-0.674281,0.393664,0.842038,4424.9,2920.75,8092.79,-1.0976,-0.487778,-0.975557,-364.366,9618.28,-1697.57,-2.14345,-0.994937,-0.450926,337.629,-9841.25,-412.978,-1.33438,-0.178452,1.16284,-2009.11,9182.05,-2385.9,-0.42714,2.2695,0.36612,-3579.13,-9192.44,-1175.34,-3.36718,1.50334,-0.160898,8685.95,1285.57,4459.63,-1.41506,0.79906,0.781661
0.041,4452.69,-3188.05,8030.22,-0.693971,0.501058,0.780732,4439.93,2914.29,8106.48,-1.06928,-0.473516,-0.950126,-346.99,9604.12,-1705.16,-2.1994,-0.952335,-0.457142,365.088,-9853.61,-426.678,-1.24644,-0.12033,1.20007,-2005.7,9186.08,-2396.57,-0.39886,2.321,0.383088,-3585.45,-9194.7,-1168.77,-3.31909,1.61091,-0.0177022,8675.68,1288.5,4433.69,-1.44572,0.805673,0.755359
0.042,4467.71,-3187.5,8049.66,-0.71366,0.608453,0.719426,4454.95,2907.83,8120.17,-1.04096,-0.459254,-0.924695,-329.615,9589.96,-1712.75,-2.25535,-0.909733,-0.463359,392.547,-9865.96,-440.378,-1.15851,-0.0622085,1.2373,-2002.29,9190.11,-2407.25,-0.370579,2.37249,0.400056,-3591.76,-9196.96,-1162.2,-3.27101,1.71849,0.125494,8665.41,1291.44,4407.76,-1.47638,0.812287,0.729057
0.043,4482.74,-3186.96,8069.1,-0.73335,0.715847,0.65812,4469.97,2901.38,8133.87,-1.01264,-0.444991,-0.899264,-312.239,9575.8,-1720.34,-2.3113,-0.867132,-0.469575,420.006,-9878.31,-454.078,-1.07058,-0.00408678,1.27453,-1998.88,9194.14,-2417.93,-0.342299,2.42399,0.417025,-3598.08,-9199.23,-1155.63,-3.22292,1.82606,0.26869,8655.14,1294.38,4381.83,-1.50704,0.8189,0.702755
0.044,4497.76,-3186.41,8088.55,-0.75304,0.823242,0.596814,4484.99,2894.92,8147.56,-0.984322,-0.430729,-0.873833,-294.864,9561.63,-1727.93,-2.36725,-0.82453,-0.475792,447.465,-9890.66,-467.778,-0.982651,0.0540349,1.31176,-1995.46,9198.16,-2428.61,-0.314019,2.47549,0.433993,-3604.4,-9201.49,-1149.06,-3.17483,1.93364,0.411886,8644.87,1297.32,4355.9,-1.5377,0.825513,0.676453
0.045,4500.82,-3196.85,8097.74,-0.81479,0.786606,0.493989,4492.52,2890.57,8145.2,-0.935079,-0.402759,-0.929965,-284.445,9560.69,-1729.33,-2.37053,-0.786841,-0.460585,445.58,-9891.58,-472.663,-1.02712,0.135416,1.2892,-1994.05,9212.02,-2429.88,-0.282229,2.56823,0.451784,-3599.55,-9207.14,-1141.3,-3.05836,1.94814,0.453826,8642.94,1291.55,4350.94,-1.59106,0.797614,0.660611
0.046,4494.31,-3216.08,8098.73,-0.910188,0.634747,0.357949,4494.05,2887.91,8130.01,-0.869097,-0.363822,-1.05135,-279.59,9570.33,-1725.76,-2.33167,-0.753083,-0.428241,420.221,-9883.36,-470.496,-1.1775,0.235405,1.21882,-1994.23,9233.75,-2423.63,-0.247632,2.69396,0.470234,-3585.76,-9215.48,-1132.58,-2.88718,1.88819,0.414761,8647.67,1278.81,4362.75,-1.66257,0.742105,0.653136
0.047,4487.79,-3235.31,8099.73,-1.00559,0.482888,0.221909,4495.58,2885.25,8114.82,-0.803114,-0.324886,-1.17273,-274.736,9579.96,-1722.2,-2.2928,-0.719326,-0.395897,394.861,-9875.14,-468.329,-1.32788,0.335394,1.14843,-1994.41,9255.47,-2417.39,-0.213035,2.81969,0.488685,-3571.98,-9223.83,-1123.86,-2.716,1.82824,0.375696,8652.4,1266.08,4374.56,-1.73409,0.686595,0.645661
0.048,4481.28,-3254.54,8100.72,-1.10098,0.331028,0.085869,4497.12,2882.59,8099.63,-0.737131,-0.285949,-1.29411,-269.881,9589.6,-1718.64,-2.25394,-0.685568,-0.363552,369.502,-9866.91,-466.162,-1.47827,0.435383,1.07804,-1994.59,9277.2,-2411.14,-0.178438,2.94543,0.507135,-3558.19,-9232.18,-1115.14,-2.54483,1.76829,0.336631,8657.13,1253.34,4386.37,-1.80561,0.631086,0.638186
0.049,4473.32,-3265.67,8102.97,-1.17543,0.201286,-0.0267996,4495.81,2877.83,8084.71,-0.686124,-0.258835,-1.40017,-266.744,9599.89,-1715.05,-2.21802,-0.653965,-0.339221,349.573,-9859.85,-462.253,-1.5977,0.513492,1.03128,-1993.55,9297.41,-2404.67,-0.147262,3.06292,0.523958,-3547.79,-9238.85,-1108.36,-2.39451,1.71983,0.310882,8662.1,1244.84,4397.28,-1.88863,0.577131,0.637528
0.05,4453.78,-3212.01,8115.28,-1.08232,0.248484,0.047503,4471.76,2856.31,8071.91,-0.754927,-0.326296,-1.38364,-277.349,9615.46,-1711.22,-2.20557,-0.639601,-0.378996,373.086,-9862.13,-444.412,-1.46948,0.416561,1.17349,-1982.77,9305.53,-2396.41,-0.143453,3.11448,0.527767,-3564.38,-9232.1,-1117.11,-2.41104,1.76327,0.391658,8668.9,1270.25,4400.97,-2.06368,0.535609,0.691399
0.051,4434.23,-3158.34,8127.6,-0.9892,0.295681,0.121806,4447.71,2834.78,8059.12,-0.823729,-0.393758,-1.36711,-287.953,9631.03,-1707.38,-2.19311,-0.625237,-0.418771,396.599,-9864.41,-426.571,-1.34127,0.319631,1.31571,-1971.99,9313.65,-2388.15,-0.139643,3.16605,0.531577,-3580.98,-9225.35,-1125.87,-2.42758,1.80671,0.472433,8675.7,1295.66,4404.65,-2.23872,0.494088,0.745271
0.052,4414.69,-3104.68,8139.91,-0.896083,0.342878,0.196108,4423.66,2813.26,8046.32,-0.892532,-0.461219,-1.35057,-298.557,9646.59,-1703.55,-2.18066,-0.610873,-0.458546,420.112,-9866.68,-408.73,-1.21306,0.2227,1.45792,-1961.2,9321.77,-2379.9,-0.135834,3.21761,0.535386,-3597.58,-9218.61,-1134.63,-2.44411,1.85014,0.553209,8682.5,1321.06,4408.34,-2.41377,0.452566,0.799142
0.053,4395.15,-3051.01,8152.22,-0.802966,0.390075,0.270411,4399.61,2791.73,8033.53,-0.961334,-0.52868,-1.33404,-309.162,9662.16,-1699.71,-2.16821,-0.596509,-0.498321,443.625,-9868.96,-390.888,-1.08484,0.125769,1.60014,-1950.42,9329.89,-2371.64,-0.132025,3.26918,0.539196,-3614.17,-9211.86,-1143.39,-2.46064,1.89358,0.633985,8689.29,1346.47,4412.03,-2.58882,0.411045,0.853014
0.054,4386.65,-3030.81,8151.11,-0.835003,0.463848,0.282556,4394.58,2794.75,8046.54,-1.01969,-0.560022,-1.2673,-321.892,9674.75,-1689.81,-2.16324,-0.557881,-0.509972,436.684,-9879.51,-389.798,-1.0586,0.0473036,1.64038,-1937.48,9339.82,-2365.78,-0.164283,3.30082,0.558923,-3621.91,-9204.31,-1148.08,-2.41604,1.92267,0.766695,8693.18,1343.42,4421.9,-2.66481,0.417776,0.947052
0.055,4383.67,-3027.34,8143.29,-0.929615,0.550908,0.263623,4399.06,2810.05,8072.47,-1.07282,-0.573304,-1.17546,-335.687,9685.84,-1676.86,-2.16202,-0.507121,-0.50756,414.516,-9894.2,-397.082,-1.08334,-0.0219294,1.62964,-1923.47,9350.64,-2361.11,-0.214576,3.32251,0.586611,-3625.22,-9196.37,-1150.75,-2.34086,1.94459,0.925373,8695.61,1326.15,4434.87,-2.69128,0.448633,1.06117
0.056,4380.7,-3023.87,8135.47,-1.02423,0.637968,0.244691,4403.54,2825.35,8098.39,-1.12595,-0.586587,-1.08362,-349.481,9696.94,-1663.92,-2.16079,-0.45636,-0.505149,392.347,-9908.89,-404.366,-1.10808,-0.0911624,1.6189,-1909.45,9361.47,-2356.43,-0.264869,3.3442,0.614298,-3628.52,-9188.42,-1153.41,-2.26569,1.9665,1.08405,8698.04,1308.87,4447.84,-2.71774,0.479489,1.17529
0.057,4377.72,-3020.39,8127.65,-1.11884,0.725028,0.225758,4408.02,2840.64,8124.32,-1.17908,-0.599869,-0.991777,-363.275,9708.04,-1650.98,-2.15957,-0.4056,-0.502737,370.179,-9923.58,-411.651,-1.13282,-0.160395,1.60816,-1895.44,9372.29,-2351.76,-0.315162,3.36589,0.641985,-3631.83,-9180.47,-1156.08,-2.19051,1.98842,1.24273,8700.47,1291.6,4460.8,-2.7442,0.510346,1.28941
0.058,4382.3,-3025.04,8121.23,-1.17795,0.763191,0.223643,4412.98,2846.15,8143.86,-1.22055,-0.609894,-0.926959,-375.377,9713.84,-1641.98,-2.15971,-0.36861,-0.509625,353.105,-9934.54,-421.309,-1.17433,-0.199404,1.58029,-1885.15,9380.19,-2345.62,-0.369102,3.38448,0.673748,-3626.83,-9171.34,-1159.86,-2.11847,2.02194,1.34161,8703.38,1275.14,4471.42,-2.75254,0.509771,1.37301
0.059,4413.3,-3058.08,8119.68,-1.11279,0.630217,0.280392,4419.62,2817.37,8141.09,-1.22124,-0.608518,-0.956722,-381.553,9701.11,-1646.78,-2.16466,-0.379814,-0.54906,353.861,-9932.47,-439.275,-1.27452,-0.13263,1.49249,-1887.9,9377.84,-2334.3,-0.435805,3.39221,0.719773,-3592.8,-9158.03,-1167.57,-2.05737,2.09607,1.23121,8708.02,1261.53,4473.82,-2.69746,0.399185,1.34978
0.06,4444.31,-3091.12,8118.13,-1.04764,0.497243,0.33714,4426.25,2788.59,8138.31,-1.22193,-0.607143,-0.986486,-387.73,9688.38,-1651.58,-2.1696,-0.391019,-0.588495,354.617,-9930.4,-457.241,-1.3747,-0.0658548,1.40469,-1890.65,9375.48,-2322.99,-0.502509,3.39994,0.765798,-3558.76,-9144.73,-1175.28,-1.99627,2.1702,1.1208,8712.65,1247.92,4476.21,-2.64239,0.288598,1.32654
0.061,4475.32,-3124.16,8116.57,-0.98248,0.364268,0.393889,4432.89,2759.81,8135.54,-1.22262,-0.605767,-1.01625,-393.907,9675.64,-1656.37,-2.17455,-0.402223,-0.627929,355.372,-9928.33,-475.207,-1.47489,0.000919949,1.31689,-1893.4,9373.13,-2311.67,-0.569212,3.40767,0.811823,-3524.73,-9131.43,-1182.99,-1.93517,2.24434,1.0104,8717.29,1234.31,4478.61,-2.58731,0.178011,1.30331
0.062,4506.33,-3157.2,8115.02,-0.917323,0.231294,0.450638,4439.52,2731.03,8132.76,-1.2233,-0.604391,-1.04601,-400.083,9662.91,-1661.17,-2.17949,-0.413428,-0.667364,356.128,-9926.26,-493.173,-1.57508,0.0676947,1.22909,-1896.15,9370.77,-2300.36,-0.635915,3.4154,0.857848,-3490.69,-9118.12,-1190.7,-1.87407,2.31847,0.899998,8721.92,1220.7,4481.01,-2.53223,0.0674242,1.28008
0.063,4521.68,-3157.31,8097.37,-0.884868,0.229309,0.420091,4431.8,2771.65,8136.33,-1.22543,-0.588828,-1.10146,-403.506,9643.66,-1680.96,-2.12105,-0.419587,-0.743826,374.291,-9922.64,-478.579,-1.54896,0.116667,1.28727,-1901.16,9357.1,-2283.94,-0.657181,3.41228,0.917069,-3494.34,-9130.97,-1201.43,-1.84576,2.38078,0.82309,8704.81,1216.97,4473.3,-2.53987,0.00932787,1.32262
0.064,4532.56,-3148.0,8075.12,-0.861755,0.26475,0.364603,4419.97,2832.1,8141.71,-1.22796,-0.569211,-1.16424,-406.141,9622.55,-1705.03,-2.04449,-0.424304,-0.830868,397.427,-9918.59,-454.683,-1.48677,0.160552,1.38716,-1906.81,9340.2,-2266.07,-0.665464,3.40605,0.980061,-3508.75,-9151.3,-1213.02,-1.82683,2.43971,0.755753,8681.48,1216.05,4462.69,-2.56544,-0.0337712,1.38397
0.065,4543.43,-3138.69,8052.87,-0.838642,0.300191,0.309115,4408.14,2892.56,8147.09,-1.2305,-0.549595,-1.22702,-408.777,9601.45,-1729.1,-1.96794,-0.429021,-0.917909,420.564,-9914.53,-430.786,-1.42457,0.204438,1.48704,-1912.46,9323.3,-2248.2,-0.673747,3.39982,1.04305,-3523.17,-9171.62,-1224.62,-1.80789,2.49864,0.688415,8658.16,1215.13,4452.09,-2.591,-0.0768702,1.44531
0.066,4554.31,-3129.38,8030.62,-0.81553,0.335631,0.253626,4396.31,2953.01,8152.47,-1.23303,-0.529978,-1.28981,-411.413,9580.34,-1753.17,-1.89138,-0.433739,-1.00495,443.7,-9910.47,-406.89,-1.36237,0.248323,1.58693,-1918.11,9306.39,-2230.33,-0.68203,3.3936,1.10604,-3537.58,-9191.94,-1236.21,-1.78896,2.55757,0.621078,8634.84,1214.21,4441.49,-2.61656,-0.119969,1.50665
0.067,4552.13,-3126.46,8016.41,-0.802497,0.358007,0.206008,4386.46,2988.1,8152.1,-1.18244,-0.551666,-1.32091,-417.921,9566.98,-1766.57,-1.84888,-0.447403,-1.07355,449.998,-9902.5,-394.339,-1.35679,0.294092,1.68511,-1924.29,9300.32,-2220.89,-0.712739,3.39329,1.1665,-3546.36,-9195.4,-1238.88,-1.7552,2.58651,0.594782,8624.29,1209.99,4438.29,-2.63823,-0.189554,1.52359
0.068,4523.84,-3136.32,8018.26,-0.809624,0.354253,0.174129,4380.54,2972.45,8140.22,-1.02561,-0.655964,-1.28865,-432.175,9569.11,-1758.63,-1.87451,-0.478961,-1.10525,422.62,-9886.7,-404.478,-1.46444,0.343628,1.77987,-1931.53,9315.88,-2228.29,-0.788298,3.40481,1.22187,-3543.89,-9165.13,-1223.69,-1.69182,2.55546,0.650569,8639.29,1199.18,4449.87,-2.65211,-0.31211,1.4517
0.069,4495.55,-3146.17,8020.11,-0.81675,0.350499,0.14225,4374.62,2956.8,8128.35,-0.868779,-0.760263,-1.25638,-446.43,9571.25,-1750.69,-1.90013,-0.510519,-1.13695,395.242,-9870.91,-414.618,-1.5721,0.393163,1.87463,-1938.77,9331.45,-2235.7,-0.863857,3.41633,1.27725,-3541.42,-9134.86,-1208.49,-1.62844,2.52442,0.706357,8654.28,1188.37,4461.46,-2.66598,-0.434667,1.37981
0.07,4467.26,-3156.03,8021.96,-0.823877,0.346746,0.11037,4368.7,2941.16,8116.47,-0.711948,-0.864561,-1.22412,-460.684,9573.38,-1742.75,-1.92575,-0.542077,-1.16865,367.863,-9855.11,-424.757,-1.67976,0.442699,1.96939,-1946.01,9347.01,-2243.11,-0.939416,3.42785,1.33262,-3538.95,-9104.59,-1193.3,-1.56506,2.49338,0.762144,8669.28,1177.55,4473.04,-2.67986,-0.557223,1.30792
0.071,4438.97,-3165.89,8023.81,-0.831003,0.342992,0.0784912,4362.78,2925.51,8104.59,-0.555117,-0.968859,-1.19186,-474.938,9575.52,-1734.81,-1.95138,-0.573635,-1.20035,340.485,-9839.31,-434.896,-1.78742,0.492235,2.06415,-1953.25,9362.58,-2250.51,-1.01498,3.43937,1.38799,-3536.48,-9074.32,-1178.1,-1.50167,2.46234,0.817932,8684.28,1166.74,4484.63,-2.69374,-0.679779,1.23603
0.072,4436.43,-3162.27,8035.65,-0.801306,0.399351,0.178748,4399.8,2918.34,8105.31,-0.674233,-0.983433,-1.26979,-456.875,9577.03,-1719.24,-1.9973,-0.643416,-1.21531,339.527,-9852.1,-431.687,-1.61104,0.531749,2.07899,-1952.52,9361.75,-2261.72,-1.03983,3.40871,1.4032,-3513.88,-9080.86,-1173.93,-1.57774,2.61126,0.796733,8675.72,1181.6,4486.16,-2.69214,-0.796503,1.09899
0.073,4437.11,-3156.97,8048.74,-0.767005,0.463225,0.295522,4442.19,2912.23,8107.6,-0.827843,-0.986792,-1.36149,-434.773,9578.47,-1702.73,-2.04576,-0.717975,-1.22819,341.871,-9868.46,-426.808,-1.39917,0.57001,2.08385,-1950.79,9358.88,-2273.4,-1.05834,3.37278,1.41339,-3488.75,-9091.99,-1171.14,-1.67124,2.78269,0.765912,8664.21,1199.67,4486.44,-2.6886,-0.912497,0.953802
0.074,4437.8,-3151.67,8061.83,-0.732705,0.527098,0.412295,4484.57,2906.12,8109.89,-0.981452,-0.99015,-1.4532,-412.671,9579.9,-1686.21,-2.09422,-0.792534,-1.24106,344.215,-9884.83,-421.93,-1.18729,0.608272,2.0887,-1949.06,9356.01,-2285.09,-1.07685,3.33685,1.42358,-3463.63,-9103.13,-1168.34,-1.76473,2.95411,0.73509,8652.71,1217.74,4486.72,-2.68506,-1.02849,0.808614
0.075,4438.48,-3146.37,8074.92,-0.698404,0.590972,0.529069,4526.96,2900.01,8112.18,-1.13506,-0.993509,-1.5449,-390.569,9581.34,-1669.69,-2.14268,-0.867093,-1.25394,346.559,-9901.19,-417.051,-0.975419,0.646533,2.09355,-1947.34,9353.13,-2296.77,-1.09536,3.30092,1.43377,-3438.5,-9114.26,-1165.55,-1.85823,3.12553,0.704268,8641.2,1235.81,4487.0,-2.68152,-1.14449,0.663426
0.076,4433.25,-3142.73,8082.46,-0.683761,0.64054,0.575479,4539.6,2896.22,8104.36,-1.21988,-0.946213,-1.6066,-370.232,9583.37,-1658.11,-2.16621,-0.904152,-1.26763,349.612,-9902.98,-415.712,-0.819231,0.738633,2.10629,-1945.07,9343.19,-2296.42,-1.11023,3.25186,1.43557,-3420.4,-9125.5,-1170.6,-1.89749,3.21691,0.646049,8632.78,1244.68,4487.02,-2.64138,-1.24835,0.555681
0.077,4420.64,-3141.16,8083.07,-0.693691,0.672227,0.533935,4515.04,2895.31,8083.93,-1.21871,-0.835598,-1.63079,-352.103,9586.15,-1652.71,-2.15858,-0.894338,-1.28235,353.553,-9886.55,-418.796,-0.732651,0.898031,2.1289,-1942.12,9324.41,-2281.05,-1.12055,3.18639,1.42689,-3411.09,-9136.87,-1185.45,-1.86895,3.20823,0.553584,8628.22,1242.05,4486.73,-2.55548,-1.33704,0.494739
0.078,4408.02,-3139.59,8083.69,-0.70362,0.703914,0.492391,4490.49,2894.41,8063.49,-1.21754,-0.724983,-1.65498,-333.973,9588.94,-1647.3,-2.15096,-0.884523,-1.29708,357.493,-9870.12,-421.881,-0.646071,1.05743,2.15151,-1939.17,9305.62,-2265.67,-1.13086,3.12092,1.4182,-3401.77,-9148.24,-1200.3,-1.84042,3.19956,0.461118,8623.66,1239.41,4486.44,-2.46958,-1.42574,0.433796
0.079,4395.4,-3138.02,8084.3,-0.713549,0.735601,0.450847,4465.94,2893.51,8043.05,-1.21637,-0.614369,-1.67917,-315.844,9591.72,-1641.89,-2.14333,-0.874708,-1.3118,361.433,-9853.69,-424.965,-0.559491,1.21683,2.17411,-1936.23,9286.84,-2250.3,-1.14118,3.05545,1.40952,-3392.45,-9159.61,-1215.16,-1.81188,3.19089,0.368653,8619.09,1236.78,4486.15,-2.38368,-1.51444,0.372854
0.08,4382.79,-3136.45,8084.91,-0.723478,0.767288,0.409303,4441.39,2892.6,8022.62,-1.2152,-0.503754,-1.70336,-297.714,9594.5,-1636.49,-2.1357,-0.864894,-1.32652,365.373,-9837.26,-428.049,-0.472911,1.37622,2.19672,-1933.28,9268.06,-2234.92,-1.1515,2.98998,1.40083,-3383.13,-9170.98,-1230.01,-1.78334,3.18221,0.276188,8614.53,1234.15,4485.86,-2.29778,-1.60314,0.311912
0.081,4386.28,-3147.38,8090.66,-0.713834,0.812206,0.309822,4413.92,2893.18,8027.95,-1.20135,-0.546594,-1.68951,-294.362,9605.5,-1645.94,-2.12283,-0.886519,-1.38416,386.653,-9843.19,-439.096,-0.668916,1.55526,2.22046,-1945.27,9264.35,-2241.33,-1.21451,2.96993,1.46862,-3387.61,-9203.07,-1237.28,-1.8574,3.37305,0.268963,8610.4,1221.09,4465.19,-2.20621,-1.52834,0.422811
0.082,4389.78,-3158.31,8096.4,-0.70419,0.857124,0.210341,4386.45,2893.76,8033.28,-1.1875,-0.589433,-1.67566,-291.01,9616.51,-1655.39,-2.10996,-0.908145,-1.4418,407.932,-9849.11,-450.144,-0.864922,1.7343,2.24421,-1957.25,9260.64,-2247.74,-1.27752,2.94988,1.53641,-3392.09,-9235.17,-1244.55,-1.93147,3.56388,0.261739,8606.26,1208.04,4444.53,-2.11463,-1.45355,0.53371
0.083,4393.27,-3169.23,8102.14,-0.694546,0.902043,0.110861,4358.98,2894.35,8038.61,-1.17365,-0.632273,-1.66181,-287.658,9627.51,-1664.84,-2.0971,-0.929771,-1.49944,429.211,-9855.03,-461.191,-1.06093,1.91334,2.26795,-1969.24,9256.93,-2254.14,-1.34053,2.92983,1.60419,-3396.57,-9267.26,-1251.82,-2.00553,3.75471,0.254515,8602.13,1194.99,4423.86,-2.02306,-1.37875,0.644609
0.084,4396.76,-3180.16,8107.89,-0.684902,0.946961,0.0113798,4331.51,2894.93,8043.95,-1.1598,-0.675113,-1.64796,-284.306,9638.51,-1674.29,-2.08423,-0.951397,-1.55707,450.49,-9860.96,-472.238,-1.25693,2.09237,2.29169,-1981.23,9253.22,-2260.55,-1.40355,2.90978,1.67198,-3401.05,-9299.35,-1259.09,-2.07959,3.94555,0.247291,8597.99,1181.94,4403.19,-1.93149,-1.30396,0.755508
0.085,4385.79,-3179.33,8100.79,-0.690829,0.95295,-0.0109674,4324.47,2893.57,8050.15,-1.14282,-0.718662,-1.63098,-286.496,9633.51,-1684.79,-2.0704,-0.964097,-1.59447,457.702,-9869.21,-492.95,-1.41695,2.24549,2.35907,-1992.29,9247.66,-2273.14,-1.41686,2.90801,1.7221,-3400.39,-9302.3,-1259.71,-2.07923,4.13166,0.200673,8596.25,1181.62,4399.96,-1.87504,-1.32545,0.773958
0.086,4363.26,-3169.1,8083.42,-0.709214,0.927795,0.0283922,4333.77,2890.66,8057.04,-1.12333,-0.762779,-1.61149,-293.121,9615.71,-1696.13,-2.05581,-0.969656,-1.61566,453.66,-9879.33,-521.392,-1.54818,2.37787,2.46136,-2002.62,9240.61,-2290.68,-1.39042,2.92086,1.75807,-3395.62,-9281.94,-1255.01,-2.01934,4.31399,0.12254,8596.42,1191.48,4410.66,-1.84669,-1.42396,0.718448
0.087,4340.72,-3158.88,8066.04,-0.727599,0.902641,0.0677518,4343.06,2887.75,8063.93,-1.10384,-0.806895,-1.592,-299.745,9597.91,-1707.47,-2.04122,-0.975215,-1.63685,449.617,-9889.45,-549.835,-1.67941,2.51025,2.56364,-2012.95,9233.55,-2308.21,-1.36397,2.9337,1.79405,-3390.85,-9261.57,-1250.31,-1.95945,4.49633,0.0444066,8596.59,1201.34,4421.37,-1.81834,-1.52248,0.662939
0.088,4318.18,-3148.65,8048.67,-0.745984,0.877486,0.107111,4352.36,2884.84,8070.82,-1.08434,-0.851012,-1.5725,-306.37,9580.11,-1718.81,-2.02663,-0.980774,-1.65804,445.575,-9899.56,-578.278,-1.81064,2.64262,2.66593,-2023.28,9226.5,-2325.75,-1.33753,2.94655,1.83003,-3386.08,-9241.21,-1245.61,-1.89956,4.67866,-0.0337265,8596.76,1211.2,4432.08,-1.78999,-1.62099,0.60743
0.089,4300.47,-3140.56,8033.9,-0.768283,0.849344,0.143581,4359.25,2883.44,8079.53,-1.06103,-0.884582,-1.54867,-313.957,9561.8,-1730.55,-2.01441,-0.973364,-1.6694,442.895,-9907.4,-601.578,-1.91445,2.7599,2.76151,-2033.07,9218.24,-2342.85,-1.30633,2.95952,1.86277,-3385.15,-9223.31,-1244.16,-1.84593,4.86519,-0.102185,8597.05,1221.35,4441.08,-1.7732,-1.70753,0.554657
0.09,4321.41,-3149.62,8039.89,-0.821895,0.797299,0.156931,4346.8,2894.06,8102.75,-1.00708,-0.833774,-1.49014,-329.252,9539.46,-1745.54,-2.02118,-0.862197,-1.60209,451.116,-9897.0,-583.739,-1.79886,2.75635,2.80343,-2038.51,9200.34,-2356.42,-1.23707,2.97345,1.86962,-3414.88,-9225.2,-1268.71,-1.84239,5.08534,-0.0932441,8598.38,1233.82,4436.49,-1.84883,-1.6983,0.523781
0.091,4342.35,-3158.68,8045.88,-0.875506,0.745254,0.170281,4334.35,2904.68,8125.97,-0.953142,-0.782967,-1.43161,-344.547,9517.12,-1760.54,-2.02795,-0.75103,-1.53478,459.336,-9886.59,-565.9,-1.68328,2.75281,2.84536,-2043.95,9182.43,-2369.99,-1.16781,2.98737,1.87647,-3444.6,-9227.08,-1293.27,-1.83885,5.30549,-0.0843035,8599.7,1246.28,4431.9,-1.92445,-1.68906,0.492905
0.092,4363.28,-3167.74,8051.87,-0.929117,0.69321,0.183631,4321.91,2915.3,8149.19,-0.8992,-0.73216,-1.37307,-359.841,9494.78,-1775.53,-2.03471,-0.639863,-1.46748,467.557,-9876.18,-548.062,-1.56769,2.74926,2.88729,-2049.38,9164.52,-2383.57,-1.09855,3.0013,1.88332,-3474.33,-9228.96,-1317.82,-1.83532,5.52564,-0.0753629,8601.02,1258.75,4427.3,-2.00008,-1.67982,0.462029
0.093,4384.22,-3176.8,8057.86,-0.982729,0.641165,0.196981,4309.46,2925.93,8172.41,-0.845258,-0.681352,-1.31454,-375.136,9472.44,-1790.52,-2.04148,-0.528696,-1.40017,475.777,-9865.78,-530.223,-1.4521,2.74571,2.92921,-2054.82,9146.61,-2397.14,-1.02929,3.01522,1.89017,-3504.06,-9230.84,-1342.37,-1.83178,5.74578,-0.0664223,8602.35,1271.22,4422.71,-2.07571,-1.67058,0.431153
0.094,4393.96,-3193.02,8052.37,-1.03561,0.681775,0.17291,4306.03,2939.68,8165.26,-0.871242,-0.660687,-1.3168,-392.224,9475.85,-1792.98,-2.05762,-0.44064,-1.34516,469.333,-9873.48,-529.338,-1.32649,2.7702,2.92275,-2055.89,9137.98,-2412.5,-0.978518,2.98281,1.94342,-3505.02,-9230.86,-1361.02,-1.70603,5.97624,-0.125364,8612.38,1278.54,4414.83,-2.06198,-1.62899,0.4299
0.095,4398.09,-3212.82,8041.14,-1.08813,0.768713,0.13013,4307.12,2955.0,8142.93,-0.937189,-0.655093,-1.34945,-410.208,9492.12,-1789.18,-2.07845,-0.364139,-1.29631,455.556,-9890.23,-536.93,-1.19588,2.80871,2.89209,-2054.77,9133.99,-2428.77,-0.936987,2.92723,2.01987,-3491.59,-9229.94,-1376.71,-1.51917,6.21186,-0.218247,8626.77,1283.31,4405.3,-2.00356,-1.57123,0.443458
0.096,4402.23,-3232.63,8029.9,-1.14065,0.855651,0.0873497,4308.21,2970.31,8120.61,-1.00314,-0.649499,-1.3821,-428.192,9508.39,-1785.38,-2.09928,-0.287638,-1.24745,441.778,-9906.99,-544.523,-1.06526,2.84722,2.86143,-2053.65,9130.01,-2445.03,-0.895456,2.87165,2.09632,-3478.17,-9229.02,-1392.4,-1.33232,6.44748,-0.311131,8641.15,1288.07,4395.78,-1.94514,-1.51346,0.457016
0.097,4406.37,-3252.43,8018.67,-1.19317,0.942589,0.0445694,4309.29,2985.63,8098.28,-1.06908,-0.643905,-1.41476,-446.177,9524.67,-1781.58,-2.12011,-0.211137,-1.1986,428.001,-9923.74,-552.115,-0.934642,2.88573,2.83077,-2052.53,9126.02,-2461.29,-0.853925,2.81606,2.17278,-3464.75,-9228.1,-1408.08,-1.14546,6.68309,-0.404014,8655.54,1292.83,4386.26,-1.88673,-1.45569,0.470574
0.098,4409.12,-3263.01,8012.06,-1.19136,1.0117,0.0102033,4312.36,2997.57,8081.78,-1.12567,-0.64911,-1.45082,-459.316,9543.24,-1778.32,-2.13302,-0.134484,-1.16664,414.15,-9938.51,-563.399,-0.842716,2.96661,2.81412,-2057.79,9125.77,-2472.6,-0.785422,2.76538,2.23473,-3458.45,-9225.5,-1421.09,-1.03196,6.8768,-0.464843,8666.04,1295.29,4379.04,-1.85671,-1.38609,0.466864
0.099,4407.01,-3241.3,8021.65,-0.999385,1.01842,0.00528656,4322.34,2997.71,8085.69,-1.14951,-0.692108,-1.49881,-455.497,9569.89,-1776.91,-2.11821,-0.0572986,-1.19382,400.041,-9946.34,-587.602,-0.886205,3.1958,2.84653,-2085.34,9138.6,-2466.55,-0.622513,2.73187,2.24596,-3477.12,-9216.98,-1424.69,-1.1752,6.92384,-0.413485,8662.98,1289.7,4379.9,-1.9261,-1.27507,0.402716
0.1,4404.9,-3219.6,8031.24,-0.807409,1.02515,0.000369853,4332.33,2997.85,8089.59,-1.17334,-0.735107,-1.5468,-451.678,9596.53,-1775.5,-2.10341,0.0198872,-1.22101,385.932,-9954.17,-611.804,-0.929694,3.42498,2.87894,-2112.9,9151.43,-2460.5,-0.459604,2.69835,2.25719,-3495.78,-9208.47,-1428.29,-1.31845,6.97087,-0.362126,8659.93,1284.11,4380.75,-1.99548,-1.16405,0.338567
0.101,4402.8,-3197.89,8040.83,-0.615433,1.03187,-0.00454685,4342.31,2997.99,8093.5,-1.19717,-0.778105,-1.59479,-447.859,9623.17,-1774.09,-2.0886,0.097073,-1.24819,371.822,-9962.0,-636.007,-0.973184,3.65417,2.91135,-2140.46,9164.26,-2454.45,-0.296696,2.66483,2.26841,-3514.44,-9199.96,-1431.89,-1.46169,7.0179,-0.310767,8656.87,1278.52,4381.6,-2.06487,-1.05303,0.274418
0.102,4400.69,-3176.19,8050.42,-0.423457,1.03859,-0.00946356,4352.29,2998.13,8097.4,-1.22101,-0.821104,-1.64278,-444.04,9649.81,-1772.68,-2.07379,0.174259,-1.27538,357.713,-9969.83,-660.21,-1.01667,3.88336,2.94376,-2168.01,9177.09,-2448.41,-0.133787,2.63131,2.27964,-3533.1,-9191.45,-1435.49,-1.60494,7.06493,-0.259409,8653.81,1272.92,4382.46,-2.13426,-0.942016,0.21027
0.103,4406.88,-3181.36,8043.67,-0.336455,0.987155,-0.0555058,4398.83,2998.66,8091.12,-1.17739,-0.789513,-1.58834,-430.01,9648.68,-1769.39,-2.02727,0.238315,-1.30968,344.186,-9982.83,-655.828,-1.01304,3.95512,2.99438,-2195.49,9178.37,-2441.8,0.0444145,2.62386,2.24523,-3555.01,-9171.93,-1402.95,-1.60676,7.2035,-0.119709,8645.7,1252.57,4380.75,-2.19269,-0.833737,0.238358
0.104,4415.45,-3194.22,8032.26,-0.279447,0.919101,-0.113298,4455.82,2999.3,8081.93,-1.11449,-0.736611,-1.50463,-413.062,9639.6,-1765.57,-1.97169,0.29862,-1.34601,330.825,-9997.29,-643.278,-0.995933,3.9819,3.05019,-2222.95,9176.35,-2435.03,0.226985,2.62386,2.19777,-3577.85,-9149.26,-1360.09,-1.56816,7.36822,0.0452312,8636.15,1227.99,4378.31,-2.24798,-0.726241,0.2928
0.105,4424.01,-3207.08,8020.86,-0.222438,0.851047,-0.171091,4512.81,2999.94,8072.73,-1.0516,-0.68371,-1.42093,-396.114,9630.53,-1761.75,-1.91611,0.358925,-1.38234,317.465,-10011.8,-630.729,-0.978831,4.00868,3.10601,-2250.41,9174.33,-2428.26,0.409556,2.62386,2.15031,-3600.69,-9126.59,-1317.23,-1.52957,7.53294,0.210171,8626.6,1203.41,4375.88,-2.30328,-0.618745,0.347242
0.106,4432.58,-3219.94,8009.45,-0.165429,0.782992,-0.228883,4569.79,3000.58,8063.54,-0.988707,-0.630808,-1.33722,-379.166,9621.46,-1757.93,-1.86052,0.41923,-1.41867,304.104,-10026.2,-618.18,-0.961729,4.03546,3.16182,-2277.87,9172.31,-2421.48,0.592126,2.62386,2.10286,-3623.54,-9103.93,-1274.37,-1.49098,7.69766,0.375112,8617.05,1178.83,4373.44,-2.35857,-0.511248,0.401684
0.107,4434.99,-3222.0,8006.82,-0.176988,0.786199,-0.259478,4598.26,3000.07,8051.35,-0.98884,-0.566065,-1.28142,-372.297,9615.21,-1752.63,-1.83962,0.464065,-1.4487,292.095,-10028.0,-601.91,-0.961414,4.02232,3.17111,-2307.14,9170.02,-2417.72,0.697021,2.57228,2.05217,-3647.03,-9086.26,-1254.67,-1.46505,7.75275,0.412323,8620.58,1152.74,4370.56,-2.4074,-0.409651,0.393212
0.108,4425.1,-3202.47,8021.75,-0.325685,0.931927,-0.235677,4569.71,2997.27,8033.16,-1.11503,-0.477639,-1.28142,-385.584,9614.6,-1744.36,-1.88809,0.477961,-1.46616,282.789,-10004.4,-578.2,-0.994671,3.92936,3.08732,-2340.02,9167.18,-2419.99,0.646564,2.41755,1.99501,-3671.84,-9078.6,-1281.3,-1.46446,7.58859,0.194077,8650.28,1123.62,4366.82,-2.4433,-0.319851,0.258914
0.109,4415.21,-3182.94,8036.68,-0.474382,1.07765,-0.211876,4541.15,2994.46,8014.97,-1.24122,-0.389213,-1.28142,-398.871,9613.99,-1736.09,-1.93656,0.491857,-1.48361,273.483,-9980.88,-554.49,-1.02793,3.83639,3.00354,-2372.91,9164.34,-2422.25,0.596106,2.26282,1.93785,-3696.65,-9070.94,-1307.93,-1.46387,7.42442,-0.024169,8679.98,1094.5,4363.08,-2.47921,-0.23005,0.124616
0.11,4405.32,-3163.41,8051.61,-0.623079,1.22338,-0.188075,4512.6,2991.66,7996.78,-1.3674,-0.300787,-1.28142,-412.159,9613.38,-1727.83,-1.98503,0.505753,-1.50106,264.177,-9957.3,-530.78,-1.06119,3.74342,2.91976,-2405.8,9161.5,-2424.51,0.545649,2.10809,1.88069,-3721.46,-9063.27,-1334.56,-1.46328,7.26026,-0.242415,8709.68,1065.37,4359.33,-2.51511,-0.14025,-0.00968185
0.111,4395.44,-3143.88,8066.54,-0.771776,1.36911,-0.164274,4484.04,2988.85,7978.6,-1.49359,-0.212362,-1.28142,-425.446,9612.77,-1719.56,-2.0335,0.519649,-1.51852,254.871,-9933.73,-507.07,-1.09444,3.65046,2.83598,-2438.69,9158.66,-2426.77,0.495191,1.95336,1.82353,-3746.27,-9055.61,-1361.19,-1.46269,7.0961,-0.460661,8739.38,1036.25,4355.59,-2.55101,-0.0504496,-0.14398
0.112,4416.3,-3154.46,8073.66,-0.748773,1.32238,-0.193089,4462.59,2983.49,7996.19,-1.49816,-0.281106,-1.26815,-460.953,9622.21,-1726.24,-2.0746,0.560563,-1.489,244.645,-9928.65,-512.166,-1.08675,3.50703,2.73576,-2452.58,9146.11,-2428.37,0.475934,1.86398,1.59702,-3741.76,-9051.56,-1350.12,-1.4156,7.06527,-0.399895,8741.32,1036.04,4353.77,-2.62437,-0.0161303,-0.21255
0.113,4441.01,-3168.79,8079.79,-0.704306,1.2516,-0.228482,4442.03,2977.8,8018.25,-1.48752,-0.369498,-1.25322,-499.238,9632.91,-1734.8,-2.11477,0.604854,-1.45361,234.304,-9925.87,-520.863,-1.07393,3.3573,2.63349,-2464.09,9132.34,-2429.9,0.460577,1.78277,1.34935,-3733.58,-9047.95,-1334.33,-1.3627,7.05111,-0.304253,8739.79,1039.45,4352.2,-2.70242,0.0112538,-0.272903
0.114,4465.73,-3183.12,8085.92,-0.65984,1.18081,-0.263875,4421.47,2972.12,8040.32,-1.47688,-0.457889,-1.23829,-537.522,9643.61,-1743.35,-2.15495,0.649144,-1.41822,223.962,-9923.1,-529.559,-1.06111,3.20757,2.53121,-2475.6,9118.57,-2431.43,0.44522,1.70155,1.10168,-3725.41,-9044.35,-1318.54,-1.3098,7.03695,-0.208611,8738.26,1042.85,4350.63,-2.78047,0.0386379,-0.333257
0.115,4490.44,-3197.46,8092.06,-0.615373,1.11003,-0.299267,4400.9,2966.44,8062.38,-1.46624,-0.54628,-1.22336,-575.806,9654.31,-1751.9,-2.19512,0.693435,-1.38282,213.621,-9920.32,-538.255,-1.04829,3.05784,2.42894,-2487.12,9104.8,-2432.95,0.429863,1.62034,0.854007,-3717.23,-9040.74,-1302.76,-1.2569,7.0228,-0.112969,8736.74,1046.26,4349.06,-2.85852,0.066022,-0.39361
0.116,4502.17,-3202.6,8093.7,-0.594702,1.06126,-0.322203,4389.22,2961.22,8070.9,-1.49527,-0.555155,-1.17198,-598.53,9660.34,-1754.11,-2.23688,0.717861,-1.29632,195.704,-9917.33,-546.831,-1.05299,2.91824,2.35304,-2484.5,9085.93,-2426.63,0.459825,1.58791,0.594778,-3721.08,-9029.91,-1299.55,-1.2638,7.00411,-0.0534693,8735.27,1050.64,4356.96,-2.90717,0.061857,-0.421852
0.117,4497.68,-3196.26,8089.72,-0.603776,1.04003,-0.329566,4388.64,2956.6,8062.48,-1.57386,-0.464635,-1.07503,-601.802,9660.54,-1748.41,-2.28061,0.717454,-1.14592,168.316,-9914.07,-555.255,-1.07959,2.79132,2.31012,-2464.22,9060.66,-2410.5,0.546436,1.61644,0.321102,-3739.96,-9010.04,-1312.05,-1.34543,6.97976,-0.0391483,8733.87,1056.24,4376.72,-2.91906,0.0182557,-0.409953
0.118,4493.19,-3189.92,8085.74,-0.612849,1.01879,-0.33693,4388.05,2951.98,8054.06,-1.65245,-0.374115,-0.978078,-605.075,9660.73,-1742.7,-2.32434,0.717047,-0.99552,140.928,-9910.81,-563.679,-1.10619,2.66439,2.26719,-2443.93,9035.4,-2394.36,0.633046,1.64498,0.0474265,-3758.84,-8990.17,-1324.56,-1.42707,6.95541,-0.0248273,8732.48,1061.83,4396.47,-2.93095,-0.0253457,-0.398054
0.119,4488.7,-3183.57,8081.77,-0.621923,0.997556,-0.344293,4387.47,2947.35,8045.64,-1.73104,-0.283595,-0.881129,-608.347,9660.92,-1736.99,-2.36807,0.71664,-0.84512,113.54,-9907.55,-572.102,-1.13278,2.53746,2.22427,-2423.65,9010.13,-2378.23,0.719657,1.67352,-0.226249,-3777.72,-8970.29,-1337.07,-1.5087,6.93106,-0.0105063,8731.08,1067.43,4416.22,-2.94283,-0.0689471,-0.386155
0.12,4484.22,-3177.23,8077.79,-0.630997,0.97632,-0.351657,4386.89,2942.73,8037.22,-1.80964,-0.193074,-0.78418,-611.62,9661.11,-1731.28,-2.41179,0.716233,-0.694721,86.1527,-9904.29,-580.526,-1.15938,2.41054,2.18134,-2403.37,8984.87,-2362.09,0.806268,1.70206,-0.499925,-3796.61,-8950.42,-1349.58,-1.59033,6.9067,0.0038147,8729.68,1073.03,4435.98,-2.95472,-0.112548,-0.374256
0.121,4483.73,-3180.92,8081.34,-0.561067,0.972923,-0.341181,4392.64,2923.45,8041.23,-1.84605,-0.195056,-0.715714,-592.758,9662.66,-1723.47,-2.43571,0.581334,-0.632984,100.881,-9892.05,-587.424,-1.09992,2.37616,2.14448,-2372.66,8966.29,-2355.16,0.907905,1.68979,-0.494838,-3793.03,-8956.69,-1345.01,-1.61516,6.9871,0.0351475,8741.13,1066.78,4430.7,-2.92286,-0.0776097,-0.344967
0.122,4483.24,-3184.6,8084.9,-0.491137,0.969526,-0.330706,4398.38,2904.16,8045.24,-1.88246,-0.197038,-0.647248,-573.897,9664.21,-1715.67,-2.45963,0.446436,-0.571248,115.608,-9879.81,-594.321,-1.04046,2.34178,2.10761,-2341.95,8947.71,-2348.23,1.00954,1.67752,-0.489752,-3789.46,-8962.95,-1340.44,-1.63999,7.06749,0.0664802,8752.57,1060.54,4425.42,-2.89099,-0.0426709,-0.315677
0.123,4482.75,-3188.29,8088.45,-0.421207,0.96613,-0.320231,4404.13,2884.88,8049.25,-1.91887,-0.199019,-0.578782,-555.036,9665.76,-1707.86,-2.48356,0.311537,-0.509511,130.336,-9867.57,-601.218,-0.980995,2.3074,2.07074,-2311.24,8929.13,-2341.3,1.11118,1.66526,-0.484666,-3785.89,-8969.21,-1335.88,-1.66481,7.14789,0.097813,8764.02,1054.29,4420.13,-2.85912,-0.00773213,-0.286387
0.124,4482.26,-3191.98,8092.01,-0.351277,0.962733,-0.309756,4409.87,2865.59,8053.25,-1.95528,-0.201001,-0.510317,-536.175,9667.31,-1700.05,-2.50748,0.176638,-0.447774,145.064,-9855.33,-608.115,-0.921534,2.27302,2.03388,-2280.54,8910.56,-2334.37,1.21282,1.65299,-0.47958,-3782.32,-8975.47,-1331.31,-1.68964,7.22828,0.129146,8775.46,1048.05,4414.85,-2.82725,0.0272067,-0.257098
0.125,4478.29,-3200.77,8094.04,-0.335769,0.967281,-0.301167,4411.48,2857.12,8047.52,-1.95593,-0.194659,-0.507275,-529.148,9664.12,-1698.3,-2.48595,0.0310985,-0.427444,154.396,-9848.08,-605.291,-0.825317,2.25459,1.97125,-2259.28,8901.7,-2340.08,1.30882,1.66493,-0.423149,-3788.01,-8978.32,-1336.93,-1.6792,7.27047,0.199787,8768.29,1055.56,4415.34,-2.85152,0.0373931,-0.260654
0.126,4471.52,-3213.66,8094.85,-0.363798,0.978184,-0.294089,4409.79,2857.29,8033.98,-1.92796,-0.181657,-0.556572,-531.588,9657.13,-1701.39,-2.42807,-0.122954,-0.440238,159.412,-9844.82,-594.69,-0.699695,2.24891,1.88801,-2245.58,8900.61,-2355.91,1.40031,1.69623,-0.325641,-3801.12,-8978.44,-1350.72,-1.64054,7.2821,0.301876,8746.24,1074.08,4420.46,-2.9207,0.0277777,-0.290488
0.127,4464.76,-3226.54,8095.66,-0.391827,0.989087,-0.28701,4408.09,2857.47,8020.44,-1.89999,-0.168655,-0.60587,-534.028,9650.15,-1704.48,-2.37018,-0.277007,-0.453032,164.428,-9841.55,-584.09,-0.574073,2.24323,1.80477,-2231.89,8899.52,-2371.73,1.49179,1.72753,-0.228134,-3814.23,-8978.56,-1364.5,-1.60188,7.29373,0.403964,8724.19,1092.61,4425.57,-2.98988,0.0181624,-0.320322
0.128,4457.99,-3239.43,8096.47,-0.419857,0.99999,-0.279931,4406.4,2857.64,8006.9,-1.87203,-0.155653,-0.655167,-536.469,9643.17,-1707.57,-2.3123,-0.43106,-0.465826,169.444,-9838.28,-573.489,-0.448452,2.23756,1.72153,-2218.19,8898.44,-2387.55,1.58328,1.75882,-0.130627,-3827.33,-8978.68,-1378.28,-1.56322,7.30536,0.506053,8702.14,1111.13,4430.68,-3.05906,0.008547,-0.350156
0.129,4451.8,-3249.75,8096.87,-0.451251,1.01729,-0.272193,4405.88,2858.66,7997.9,-1.85765,-0.158292,-0.695823,-539.178,9636.61,-1710.35,-2.2568,-0.572709,-0.468601,172.429,-9835.64,-561.716,-0.334062,2.22237,1.64688,-2207.5,8898.14,-2401.21,1.66899,1.79192,-0.0457403,-3838.38,-8979.13,-1389.27,-1.5307,7.31251,0.592558,8683.71,1127.63,4435.74,-3.14082,-0.00930964,-0.382569
0.13,4450.13,-3239.57,8093.98,-0.509566,1.0858,-0.259176,4414.8,2866.46,8025.24,-1.95198,-0.286056,-0.667344,-544.039,9633.43,-1710.58,-2.22038,-0.615129,-0.391224,159.158,-9837.97,-540.569,-0.309533,2.13105,1.64093,-2220.85,8904.18,-2397.57,1.70849,1.83935,-0.0618153,-3832.93,-8982.24,-1377.93,-1.54734,7.28381,0.554399,8694.29,1128.04,4440.44,-3.3233,-0.0930964,-0.435612
0.131,4448.46,-3229.4,8091.09,-0.56788,1.1543,-0.24616,4423.73,2874.25,8052.57,-2.04632,-0.413821,-0.638865,-548.9,9630.25,-1710.82,-2.18396,-0.65755,-0.313846,145.887,-9840.31,-519.423,-0.285004,2.03973,1.63498,-2234.21,8910.22,-2393.93,1.74799,1.88679,-0.0778903,-3827.48,-8985.36,-1366.58,-1.56398,7.25511,0.516239,8704.88,1128.45,4445.15,-3.50577,-0.176883,-0.488655
0.132,4446.8,-3219.23,8088.2,-0.626195,1.22281,-0.233143,4432.65,2882.04,8079.9,-2.14065,-0.541586,-0.610386,-553.762,9627.07,-1711.05,-2.14753,-0.69997,-0.236469,132.616,-9842.64,-498.276,-0.260475,1.94842,1.62904,-2247.56,8916.26,-2390.29,1.78749,1.93422,-0.0939654,-3822.03,-8988.47,-1355.24,-1.58062,7.22641,0.47808,8715.46,1128.85,4449.85,-3.68825,-0.26067,-0.541698
0.133,4445.13,-3209.05,8085.31,-0.68451,1.29131,-0.220127,4441.57,2889.83,8107.23,-2.23498,-0.66935,-0.581908,-558.623,9623.89,-1711.29,-2.11111,-0.74239,-0.159092,119.345,-9844.97,-477.129,-0.235946,1.8571,1.62309,-2260.92,8922.3,-2386.65,1.82698,1.98166,-0.11004,-3816.58,-8991.59,-1343.9,-1.59726,7.19771,0.439921,8726.05,1129.26,4454.55,-3.87072,-0.344457,-0.594741
0.134,4441.2,-3202.21,8079.09,-0.717345,1.325,-0.231734,4453.76,2890.81,8117.06,-2.28537,-0.663711,-0.590881,-559.361,9625.43,-1718.58,-2.07847,-0.831573,-0.109772,124.03,-9854.94,-464.456,-0.231941,1.74989,1.59519,-2278.46,8940.39,-2401.35,1.84787,2.00905,-0.14007,-3813.04,-9001.72,-1339.17,-1.63626,7.15245,0.554615,8742.93,1128.27,4449.73,-3.87576,-0.475243,-0.590744
0.135,4436.13,-3197.03,8071.21,-0.73744,1.34127,-0.255654,4467.59,2888.37,8118.13,-2.31379,-0.591369,-0.61858,-558.038,9629.33,-1729.4,-2.04771,-0.944136,-0.0744806,137.693,-9868.73,-456.02,-0.238197,1.63472,1.55632,-2298.09,8964.5,-2425.23,1.85945,2.02642,-0.177076,-3810.47,-9015.37,-1337.75,-1.68643,7.09891,0.745736,8762.95,1126.59,4440.16,-3.79209,-0.629528,-0.558228
0.136,4431.06,-3191.85,8063.32,-0.757535,1.35754,-0.279573,4481.41,2885.94,8119.2,-2.34221,-0.519028,-0.646278,-556.715,9633.22,-1740.21,-2.01695,-1.0567,-0.0391894,151.356,-9882.52,-447.585,-0.244453,1.51955,1.51745,-2317.72,8988.62,-2449.1,1.87103,2.0438,-0.214082,-3807.9,-9029.01,-1336.33,-1.73661,7.04537,0.936856,8782.97,1124.9,4430.58,-3.70842,-0.783813,-0.525711
0.137,4426.0,-3186.68,8055.44,-0.77763,1.37381,-0.303493,4495.24,2883.51,8120.28,-2.37063,-0.446686,-0.673977,-555.392,9637.12,-1751.03,-1.98619,-1.16926,-0.00389824,165.019,-9896.31,-439.149,-0.250709,1.40438,1.47857,-2337.36,9012.73,-2472.97,1.88261,2.06117,-0.251088,-3805.33,-9042.65,-1334.91,-1.78678,6.99183,1.12798,8803.0,1123.21,4421.0,-3.62475,-0.938099,-0.493194
0.138,4420.92,-3179.95,8050.0,-0.789734,1.37897,-0.328706,4500.95,2883.65,8121.82,-2.36297,-0.391503,-0.699139,-552.679,9636.58,-1756.52,-1.97211,-1.27903,0.0261938,178.521,-9909.12,-433.403,-0.258992,1.29439,1.45297,-2354.28,9048.01,-2492.5,1.89162,2.07468,-0.261168,-3809.4,-9049.32,-1335.18,-1.82741,6.90725,1.27244,8819.51,1126.54,4409.69,-3.56709,-1.04791,-0.475277
0.139,4415.79,-3167.82,8053.11,-0.773866,1.34527,-0.358446,4478.26,2892.76,8125.02,-2.229,-0.396371,-0.715423,-545.101,9620.55,-1743.35,-2.01639,-1.37901,0.038089,191.46,-9918.53,-437.072,-0.27437,1.20252,1.47382,-2361.71,9122.36,-2496.83,1.89162,2.07468,-0.177007,-3836.73,-9031.57,-1341.35,-1.83461,6.714,1.25358,8823.73,1147.43,4392.29,-3.60051,-1.00205,-0.508455
0.14,4410.66,-3155.69,8056.22,-0.757998,1.31156,-0.388186,4455.57,2901.87,8128.21,-2.09504,-0.40124,-0.731707,-537.523,9604.52,-1730.18,-2.06068,-1.47898,0.0499842,204.4,-9927.93,-440.741,-0.289748,1.11065,1.49466,-2369.14,9196.72,-2501.15,1.89162,2.07468,-0.0928448,-3864.06,-9013.81,-1347.52,-1.84181,6.52076,1.23473,8827.96,1168.32,4374.89,-3.63393,-0.956189,-0.541633
0.141,4405.53,-3143.57,8059.34,-0.742131,1.27785,-0.417925,4432.88,2910.98,8131.4,-1.96108,-0.406109,-0.747991,-529.945,9588.48,-1717.01,-2.10496,-1.57896,0.0618795,217.34,-9937.33,-444.41,-0.305126,1.01878,1.5155,-2376.57,9271.08,-2505.48,1.89162,2.07468,-0.00868303,-3891.38,-8996.06,-1353.69,-1.84902,6.32751,1.21587,8832.18,1189.21,4357.49,-3.66735,-0.91033,-0.574811
0.142,4400.41,-3131.44,8062.45,-0.726263,1.24415,-0.447665,4410.19,2920.09,8134.6,-1.82711,-0.410977,-0.764275,-522.367,9572.45,-1703.84,-2.14924,-1.67893,0.0737747,230.279,-9946.74,-448.08,-0.320504,0.926913,1.53635,-2384.01,9345.44,-2509.81,1.89162,2.07468,0.0754788,-3918.71,-8978.31,-1359.86,-1.85622,6.13427,1.19701,8836.41,1210.11,4340.09,-3.70076,-0.864471,-0.607989
0.143,4407.11,-3130.15,8071.11,-0.705149,1.17831,-0.476258,4399.65,2925.19,8134.71,-1.84499,-0.379809,-0.739411,-519.155,9555.71,-1701.14,-2.20747,-1.70631,0.118482,237.075,-9956.05,-462.659,-0.358084,0.780712,1.5496,-2392.73,9417.62,-2502.28,1.70483,1.88145,0.199739,-3915.15,-8968.27,-1353.51,-2.00996,5.94977,1.1639,8837.17,1218.22,4350.0,-3.78539,-0.824081,-0.667205
0.144,4417.19,-3131.96,8081.35,-0.682537,1.1033,-0.504524,4392.58,2929.14,8133.95,-1.90625,-0.338344,-0.702791,-517.19,9538.76,-1701.44,-2.26969,-1.71294,0.172564,242.116,-9965.33,-480.355,-0.402007,0.618988,1.56069,-2401.81,9489.19,-2491.35,1.46468,1.63301,0.335457,-3902.76,-8960.44,-1343.58,-2.20557,5.76777,1.12672,8836.94,1222.68,4367.7,-3.88466,-0.785254,-0.73386
0.145,4427.26,-3133.77,8091.59,-0.659925,1.02829,-0.532789,4385.51,2933.09,8133.18,-1.96751,-0.29688,-0.666171,-515.226,9521.81,-1701.73,-2.33191,-1.71957,0.226646,247.156,-9974.62,-498.051,-0.445931,0.457263,1.57177,-2410.9,9560.75,-2480.43,1.22452,1.38458,0.471174,-3890.38,-8952.61,-1333.64,-2.40118,5.58577,1.08954,8836.72,1227.15,4385.4,-3.98392,-0.746427,-0.800516
0.146,4437.34,-3135.59,8101.83,-0.637312,0.953272,-0.561055,4378.44,2937.05,8132.41,-2.02878,-0.255415,-0.629551,-513.261,9504.87,-1702.03,-2.39413,-1.72621,0.280728,252.197,-9983.9,-515.748,-0.489854,0.295539,1.58286,-2419.99,9632.31,-2469.51,0.984362,1.13614,0.606892,-3877.99,-8944.79,-1323.71,-2.59679,5.40378,1.05235,8836.49,1231.61,4403.11,-4.08318,-0.7076,-0.867171
0.147,4447.67,-3140.81,8110.45,-0.622308,0.90461,-0.565282,4372.22,2939.25,8134.83,-2.05582,-0.250267,-0.589274,-513.276,9497.41,-1694.05,-2.41676,-1.75577,0.325059,255.898,-9988.03,-527.109,-0.498065,0.164491,1.5787,-2433.82,9686.13,-2446.26,0.779987,0.815285,0.716514,-3875.64,-8943.53,-1310.96,-2.72008,5.22075,1.09839,8837.91,1241.81,4412.81,-4.15936,-0.633039,-0.911067
0.148,4458.5,-3152.85,8115.82,-0.62252,0.908649,-0.521434,4367.67,2937.94,8143.6,-2.01441,-0.317751,-0.541682,-517.248,9508.93,-1669.53,-2.36022,-1.83117,0.34989,256.921,-9981.84,-525.8,-0.434851,0.0947943,1.54403,-2457.13,9704.44,-2398.36,0.647174,0.349604,0.773943,-3893.37,-8955.43,-1292.58,-2.69876,5.03566,1.31087,8842.59,1263.47,4406.54,-4.18937,-0.487012,-0.909445
0.149,4469.33,-3164.89,8121.19,-0.622732,0.912689,-0.477586,4363.13,2936.63,8152.38,-1.97301,-0.385236,-0.49409,-521.22,9520.45,-1645.02,-2.30368,-1.90657,0.37472,257.943,-9975.65,-524.491,-0.371637,0.0250975,1.50936,-2480.44,9722.76,-2350.47,0.514361,-0.116078,0.831373,-3911.11,-8967.33,-1274.21,-2.67744,4.85056,1.52334,8847.28,1285.13,4400.26,-4.21938,-0.340984,-0.907823
0.15,4480.17,-3176.93,8126.56,-0.622944,0.916729,-0.433738,4358.58,2935.33,8161.15,-1.9316,-0.45272,-0.446499,-525.192,9531.97,-1620.5,-2.24714,-1.98197,0.399551,258.965,-9969.46,-523.183,-0.308423,-0.0445992,1.4747,-2503.75,9741.07,-2302.57,0.381548,-0.58176,0.888802,-3928.84,-8979.23,-1255.83,-2.65612,4.66547,1.73582,8851.97,1306.8,4393.98,-4.24939,-0.194957,-0.906201
0.151,4491.0,-3188.97,8131.93,-0.623156,0.920769,-0.38989,4354.04,2934.02,8169.93,-1.8902,-0.520204,-0.398907,-529.164,9543.49,-1595.98,-2.1906,-2.05737,0.424381,259.987,-9963.27,-521.874,-0.24521,-0.114296,1.44003,-2527.06,9759.38,-2254.67,0.248736,-1.04744,0.946232,-3946.57,-8991.13,-1237.45,-2.63479,4.48038,1.9483,8856.66,1328.46,4387.7,-4.27939,-0.0489294,-0.904579
0.152,4487.93,-3169.49,8136.73,-0.57861,1.00937,-0.41688,4370.6,2938.97,8157.24,-1.9177,-0.488117,-0.406814,-518.889,9540.71,-1590.24,-2.05316,-2.12032,0.410969,263.787,-9944.24,-508.85,-0.216509,-0.11555,1.40212,-2517.59,9716.6,-2212.92,0.354099,-1.43628,0.957354,-3930.48,-9014.03,-1233.6,-2.73287,4.36563,1.9055,8844.64,1341.46,4376.9,-4.35216,0.0882497,-0.915729
0.153,4483.12,-3146.07,8141.45,-0.528469,1.10854,-0.452725,4389.79,2944.69,8141.87,-1.95382,-0.443584,-0.421659,-506.834,9536.15,-1586.86,-1.90561,-2.18171,0.392777,267.933,-9923.59,-494.361,-0.192122,-0.108249,1.36381,-2504.01,9666.18,-2171.92,0.489235,-1.81552,0.962689,-3910.17,-9038.31,-1231.57,-2.84587,4.25968,1.83079,8830.54,1353.38,4365.54,-4.43028,0.224323,-0.928476
0.154,4478.31,-3122.65,8146.17,-0.478328,1.20771,-0.488569,4408.99,2950.42,8126.5,-1.98993,-0.39905,-0.436503,-494.778,9531.59,-1583.47,-1.75806,-2.2431,0.374584,272.08,-9902.95,-479.872,-0.167735,-0.100948,1.3255,-2490.44,9615.76,-2130.93,0.624371,-2.19476,0.968023,-3889.85,-9062.58,-1229.53,-2.95886,4.15373,1.75608,8816.44,1365.3,4354.17,-4.50839,0.360396,-0.941223
0.155,4473.51,-3099.23,8150.89,-0.428187,1.30688,-0.524414,4428.19,2956.15,8111.13,-2.02605,-0.354517,-0.451348,-482.722,9527.03,-1580.08,-1.6105,-2.30449,0.356392,276.226,-9882.31,-465.383,-0.143348,-0.0936464,1.28719,-2476.86,9565.34,-2089.94,0.759507,-2.574,0.973357,-3869.53,-9086.86,-1227.5,-3.07186,4.04778,1.68137,8802.34,1377.22,4342.81,-4.58651,0.496469,-0.953969
0.156,4471.93,-3083.72,8152.72,-0.427472,1.34999,-0.557122,4439.78,2953.56,8097.56,-2.04269,-0.351892,-0.447284,-480.708,9534.18,-1581.27,-1.53264,-2.33036,0.305117,288.52,-9869.64,-458.808,-0.137862,-0.073272,1.2767,-2459.16,9493.66,-2061.73,0.936051,-2.84722,1.01848,-3855.3,-9099.66,-1220.16,-3.10965,3.95469,1.63033,8793.83,1374.46,4344.14,-4.64191,0.590004,-0.93817
0.157,4474.41,-3078.09,8150.96,-0.48854,1.32303,-0.585909,4441.87,2940.58,8086.25,-2.035,-0.401653,-0.419585,-491.244,9555.98,-1588.18,-1.54187,-2.31184,0.212487,310.997,-9866.93,-462.126,-0.156003,-0.036556,1.30099,-2436.29,9395.41,-2049.5,1.16436,-2.98793,1.11334,-3848.67,-9098.12,-1206.18,-3.05342,3.87767,1.60887,8792.33,1353.34,4361.34,-4.66892,0.630366,-0.886687
0.158,4476.88,-3072.46,8149.19,-0.549609,1.29606,-0.614697,4443.97,2927.6,8074.94,-2.0273,-0.451415,-0.391886,-501.78,9577.79,-1595.09,-1.55111,-2.29332,0.119857,333.474,-9864.23,-465.444,-0.174145,0.000159907,1.32528,-2413.42,9297.15,-2037.26,1.39266,-3.12864,1.2082,-3842.04,-9096.58,-1192.2,-2.9972,3.80065,1.58742,8790.82,1332.23,4378.54,-4.69593,0.670728,-0.835205
0.159,4479.35,-3066.83,8147.42,-0.610677,1.2691,-0.643484,4446.06,2914.62,8063.63,-2.0196,-0.501176,-0.364188,-512.317,9599.59,-1602.0,-1.56035,-2.2748,0.0272278,355.951,-9861.53,-468.761,-0.192286,0.0368758,1.34958,-2390.55,9198.9,-2025.03,1.62097,-3.26935,1.30306,-3835.41,-9095.03,-1178.22,-2.94097,3.72363,1.56597,8789.32,1311.12,4395.74,-4.72294,0.71109,-0.783722
0.16,4481.82,-3061.21,8145.65,-0.671746,1.24214,-0.672271,4448.15,2901.63,8052.32,-2.0119,-0.550937,-0.336489,-522.853,9621.39,-1608.9,-1.56959,-2.25628,-0.0654018,378.428,-9858.83,-472.079,-0.210427,0.0735918,1.37387,-2367.69,9100.65,-2012.79,1.84927,-3.41006,1.39792,-3828.78,-9093.49,-1164.24,-2.88474,3.64661,1.54451,8787.81,1290.0,4412.94,-4.74995,0.751452,-0.73224
0.161,4485.74,-3070.58,8119.76,-0.667566,1.20136,-0.589039,4446.82,2909.78,8040.08,-2.05349,-0.498993,-0.360592,-510.548,9626.18,-1600.02,-1.54428,-2.25231,-0.0678887,390.554,-9877.56,-470.06,-0.212112,0.12175,1.43545,-2366.99,9043.73,-2039.35,1.83633,-3.5215,1.52399,-3802.59,-9102.75,-1163.08,-2.90021,3.52569,1.48121,8774.95,1297.56,4429.01,-4.71377,0.747597,-0.781245
0.162,4489.67,-3079.96,8093.87,-0.663387,1.16058,-0.505807,4445.49,2917.92,8027.83,-2.09507,-0.447049,-0.384695,-498.243,9630.98,-1591.15,-1.51898,-2.24834,-0.0703756,402.68,-9896.28,-468.04,-0.213797,0.169908,1.49702,-2366.3,8986.8,-2065.92,1.82338,-3.63293,1.65006,-3776.41,-9112.02,-1161.91,-2.91568,3.40476,1.41791,8762.09,1305.11,4445.07,-4.67758,0.743742,-0.83025
0.163,4493.59,-3089.34,8067.98,-0.659208,1.1198,-0.422575,4444.15,2926.06,8015.58,-2.13665,-0.395104,-0.408798,-485.939,9635.77,-1582.27,-1.49367,-2.24436,-0.0728625,414.805,-9915.01,-466.021,-0.215482,0.218066,1.5586,-2365.6,8929.88,-2092.48,1.81043,-3.74436,1.77612,-3750.22,-9121.28,-1160.75,-2.93115,3.28384,1.35461,8749.23,1312.67,4461.13,-4.64139,0.739888,-0.879255
0.164,4497.51,-3098.72,8042.09,-0.655029,1.07901,-0.339342,4442.82,2934.2,8003.34,-2.17824,-0.34316,-0.432901,-473.634,9640.56,-1573.39,-1.46837,-2.24039,-0.0753494,426.931,-9933.74,-464.002,-0.217167,0.266224,1.62017,-2364.91,8872.96,-2119.05,1.79748,-3.8558,1.90219,-3724.04,-9130.55,-1159.58,-2.94661,3.16292,1.29131,8736.37,1320.22,4477.19,-4.6052,0.736033,-0.92826
0.165,4497.75,-3109.19,8035.53,-0.683668,1.0934,-0.250752,4432.04,2937.94,8002.86,-2.20268,-0.308903,-0.501948,-460.406,9651.73,-1574.3,-1.50142,-2.18771,-0.0615672,425.212,-9941.79,-465.643,-0.243723,0.29744,1.625,-2340.05,8848.99,-2159.34,1.54206,-3.9014,1.97549,-3722.73,-9123.38,-1155.25,-2.94108,3.06377,1.24282,8726.51,1323.35,4474.1,-4.58613,0.691402,-0.947959
0.166,4495.05,-3120.54,8044.43,-0.738562,1.15193,-0.157876,4413.7,2938.15,8011.8,-2.2134,-0.288795,-0.606949,-446.438,9668.01,-1583.05,-1.58117,-2.09606,-0.0347695,412.416,-9941.29,-470.212,-0.290177,0.3151,1.58444,-2295.86,8851.4,-2210.61,1.09268,-3.89435,2.00657,-3741.32,-9103.06,-1148.37,-2.91873,2.98203,1.20617,8719.06,1322.95,4455.69,-4.58075,0.614151,-0.944212
0.167,4492.35,-3131.9,8053.33,-0.793455,1.21046,-0.0649993,4395.36,2938.36,8020.74,-2.22412,-0.268687,-0.71195,-432.471,9684.29,-1591.8,-1.66091,-2.0044,-0.00797193,399.621,-9940.79,-474.781,-0.33663,0.332761,1.54387,-2251.67,8853.81,-2261.88,0.643292,-3.88729,2.03765,-3759.92,-9082.75,-1141.5,-2.89639,2.90029,1.16953,8711.6,1322.54,4437.28,-4.57537,0.536899,-0.940465
0.168,4489.65,-3143.25,8062.23,-0.848349,1.26898,0.0278772,4377.03,2938.58,8029.68,-2.23484,-0.248579,-0.816951,-418.504,9700.58,-1600.56,-1.74066,-1.91275,0.0188257,386.825,-9940.29,-479.35,-0.383084,0.350422,1.5033,-2207.48,8856.22,-2313.15,0.193906,-3.88024,2.06873,-3778.51,-9062.43,-1134.63,-2.87405,2.81856,1.13288,8704.14,1322.14,4418.86,-4.56998,0.459648,-0.936718
0.169,4486.59,-3154.63,8069.7,-0.895262,1.31671,0.119455,4362.03,2934.67,8037.77,-2.2457,-0.234911,-0.90331,-405.021,9714.4,-1608.52,-1.809,-1.8256,0.0485283,373.374,-9938.31,-482.195,-0.422838,0.374504,1.46412,-2163.16,8861.74,-2362.46,-0.255296,-3.83929,2.06892,-3793.68,-9048.05,-1131.25,-2.86747,2.74484,1.09396,8699.35,1321.83,4402.76,-4.56956,0.389332,-0.934766
0.17,4480.65,-3166.25,8065.72,-0.878323,1.27801,0.200643,4373.77,2897.79,8039.08,-2.2577,-0.272766,-0.840528,-395.415,9708.61,-1610.21,-1.78615,-1.7745,0.101471,354.685,-9924.44,-471.24,-0.408999,0.44996,1.43604,-2117.82,8892.17,-2395.99,-0.703027,-3.5272,1.82196,-3781.44,-9081.14,-1155.77,-2.987,2.73533,1.03676,8715.83,1322.32,4405.21,-4.6088,0.374501,-0.94718
0.171,4474.72,-3177.87,8061.75,-0.861385,1.23932,0.281831,4385.51,2860.91,8040.38,-2.2697,-0.310621,-0.777746,-385.808,9702.81,-1611.89,-1.76329,-1.7234,0.154413,335.996,-9910.58,-460.285,-0.39516,0.525416,1.40796,-2072.47,8922.6,-2429.52,-1.15076,-3.21511,1.57499,-3769.21,-9114.23,-1180.3,-3.10653,2.72582,0.979557,8732.32,1322.81,4407.65,-4.64804,0.35967,-0.959593
0.172,4468.78,-3189.49,8057.77,-0.844447,1.20062,0.36302,4397.24,2824.04,8041.69,-2.2817,-0.348476,-0.714964,-376.201,9697.02,-1613.58,-1.74044,-1.67229,0.207356,317.306,-9896.71,-449.331,-0.381321,0.600872,1.37988,-2027.13,8953.02,-2463.05,-1.59849,-2.90301,1.32803,-3756.97,-9147.32,-1204.82,-3.22605,2.71631,0.922357,8748.81,1323.3,4410.09,-4.68728,0.344839,-0.972006
0.173,4462.85,-3201.11,8053.79,-0.827509,1.16193,0.444208,4408.98,2787.16,8042.99,-2.29371,-0.386331,-0.652182,-366.594,9691.22,-1615.26,-1.71758,-1.62119,0.260299,298.617,-9882.84,-438.376,-0.367482,0.676328,1.3518,-1981.78,8983.45,-2496.58,-2.04622,-2.59092,1.08107,-3744.73,-9180.4,-1229.35,-3.34558,2.70681,0.865158,8765.29,1323.79,4412.53,-4.72652,0.330008,-0.98442
0.174,4453.22,-3192.11,8048.84,-0.79458,1.09695,0.418266,4412.75,2791.47,8046.3,-2.27188,-0.417416,-0.66725,-361.836,9679.11,-1621.02,-1.72454,-1.57503,0.224985,301.429,-9887.69,-439.092,-0.3739,0.80856,1.34821,-1933.56,9010.62,-2526.76,-2.19328,-2.18868,0.828259,-3725.46,-9188.83,-1232.18,-3.35425,2.66828,0.880545,8767.53,1322.98,4420.87,-4.76482,0.30769,-1.08215
0.175,4441.75,-3172.79,8043.39,-0.753655,1.01882,0.338758,4412.55,2816.37,8050.62,-2.23314,-0.445114,-0.721244,-359.501,9663.85,-1628.81,-1.74641,-1.53135,0.145544,314.992,-9901.89,-445.644,-0.390446,0.969181,1.35686,-1883.91,9036.16,-2555.28,-2.19,-1.74137,0.572524,-3702.68,-9184.92,-1224.16,-3.3075,2.61526,0.932226,8762.64,1321.53,4432.16,-4.80266,0.28163,-1.22254
0.176,4430.28,-3153.48,8037.94,-0.71273,0.940695,0.25925,4412.34,2841.27,8054.93,-2.1944,-0.472813,-0.775238,-357.166,9648.58,-1636.6,-1.76827,-1.48767,0.0661023,328.556,-9916.09,-452.196,-0.406992,1.1298,1.36552,-1834.25,9061.69,-2583.79,-2.18673,-1.29406,0.316788,-3679.89,-9181.02,-1216.14,-3.26074,2.56223,0.983907,8757.75,1320.08,4443.45,-4.84051,0.255569,-1.36293
0.177,4418.81,-3134.17,8032.49,-0.671806,0.86257,0.179743,4412.14,2866.17,8059.24,-2.15566,-0.500512,-0.829233,-354.832,9633.32,-1644.39,-1.79014,-1.44399,-0.0133392,342.119,-9930.3,-458.748,-0.423537,1.29042,1.37417,-1784.59,9087.23,-2612.3,-2.18345,-0.846743,0.0610531,-3657.1,-9177.12,-1208.13,-3.21399,2.5092,1.03559,8752.87,1318.63,4454.74,-4.87835,0.229508,-1.50332
0.178,4413.67,-3118.74,8030.68,-0.652306,0.799225,0.0908312,4413.9,2892.36,8070.14,-2.12514,-0.529085,-0.88392,-351.85,9622.76,-1653.54,-1.80015,-1.41113,-0.065629,356.547,-9935.84,-468.281,-0.449979,1.42604,1.38997,-1748.73,9111.75,-2628.98,-2.07041,-0.427961,-0.178878,-3636.49,-9168.77,-1201.84,-3.16699,2.4611,1.07081,8747.72,1317.24,4466.01,-4.9122,0.186826,-1.61682
0.179,4430.67,-3116.88,8041.6,-0.707793,0.787612,-0.0309949,4422.54,2923.09,8104.08,-2.12343,-0.560717,-0.941035,-346.603,9628.69,-1667.42,-1.76869,-1.41611,-0.0228879,374.001,-9911.08,-488.249,-0.511054,1.47416,1.43074,-1761.13,9132.75,-2604.2,-1.57319,-0.109036,-0.363495,-3623.5,-9144.88,-1201.63,-3.11915,2.43023,1.04843,8741.67,1316.05,4477.22,-4.93212,0.0859721,-1.63621
0.18,4447.68,-3115.03,8052.51,-0.763281,0.775999,-0.152821,4431.17,2953.81,8138.03,-2.12171,-0.592349,-0.99815,-341.357,9634.62,-1681.29,-1.73722,-1.42109,0.0198531,391.455,-9886.32,-508.216,-0.57213,1.52229,1.47152,-1773.53,9153.75,-2579.43,-1.07596,0.209888,-0.548111,-3610.51,-9121.0,-1201.42,-3.0713,2.39936,1.02605,8735.62,1314.86,4488.44,-4.95204,-0.0148821,-1.65559
0.181,4464.68,-3113.18,8063.43,-0.818769,0.764385,-0.274647,4439.81,2984.53,8171.97,-2.11999,-0.623981,-1.05526,-336.11,9640.54,-1695.17,-1.70576,-1.42608,0.0625942,408.909,-9861.55,-528.184,-0.633206,1.57041,1.5123,-1785.93,9174.74,-2554.66,-0.578738,0.528813,-0.732728,-3597.53,-9097.11,-1201.21,-3.02346,2.3685,1.00367,8729.56,1313.67,4499.65,-4.97195,-0.115736,-1.67498
0.182,4481.69,-3111.33,8074.34,-0.874257,0.752772,-0.396473,4448.45,3015.25,8205.92,-2.11827,-0.655614,-1.11238,-330.863,9646.47,-1709.05,-1.67429,-1.43106,0.105335,426.363,-9836.79,-548.151,-0.694281,1.61853,1.55307,-1798.33,9195.74,-2529.88,-0.081513,0.847737,-0.917344,-3584.54,-9073.22,-1200.99,-2.97562,2.33763,0.981293,8723.51,1312.49,4510.87,-4.99187,-0.216591,-1.69437
0.183,4490.6,-3116.18,8083.87,-0.92555,0.781376,-0.354007,4433.42,3001.05,8205.17,-2.08216,-0.663434,-1.17237,-343.175,9636.67,-1697.48,-1.66114,-1.30215,0.169374,423.339,-9830.39,-546.054,-0.7228,1.68612,1.59854,-1832.86,9191.74,-2499.45,0.397484,1.03278,-1.06939,-3580.12,-9081.79,-1199.22,-2.97067,2.3839,1.00974,8726.3,1302.71,4524.97,-4.99864,-0.312992,-1.74042
0.184,4497.19,-3122.96,8093.01,-0.975645,0.821471,-0.264601,4411.63,2974.01,8194.51,-2.03621,-0.664451,-1.23318,-360.503,9622.38,-1678.64,-1.65323,-1.13499,0.239498,414.464,-9829.24,-537.653,-0.742016,1.75928,1.64534,-1873.71,9180.6,-2467.4,0.871274,1.17957,-1.21212,-3578.15,-9099.64,-1197.01,-2.97797,2.45222,1.05271,8731.61,1290.48,4539.91,-5.00164,-0.408121,-1.79408
0.185,4503.79,-3129.73,8102.15,-1.02574,0.861566,-0.175194,4389.84,2946.97,8183.86,-1.99027,-0.665467,-1.29399,-377.831,9608.09,-1659.81,-1.64531,-0.967825,0.309622,405.589,-9828.09,-529.253,-0.761233,1.83244,1.69215,-1914.56,9169.45,-2435.36,1.34506,1.32636,-1.35485,-3576.19,-9117.48,-1194.8,-2.98527,2.52054,1.09567,8736.93,1278.25,4554.84,-5.00465,-0.50325,-1.84775
0.186,4510.39,-3136.5,8111.28,-1.07584,0.901662,-0.085788,4368.05,2919.94,8173.2,-1.94432,-0.666484,-1.3548,-395.158,9593.8,-1640.97,-1.6374,-0.800661,0.379745,396.714,-9826.93,-520.852,-0.780449,1.90559,1.73895,-1955.41,9158.31,-2403.31,1.81885,1.47316,-1.49758,-3574.22,-9135.33,-1192.58,-2.99257,2.58885,1.13864,8742.24,1266.02,4569.77,-5.00766,-0.598379,-1.90142
0.187,4513.04,-3141.67,8117.8,-1.12126,0.91361,-0.0261353,4351.59,2893.44,8160.74,-1.9395,-0.650148,-1.35019,-412.706,9577.91,-1634.33,-1.65413,-0.67999,0.382459,392.744,-9830.25,-506.193,-0.780638,1.96481,1.79678,-1986.09,9160.06,-2377.91,2.29847,1.58447,-1.56203,-3568.83,-9144.01,-1191.3,-2.96283,2.70885,1.2206,8747.97,1256.6,4582.06,-4.99619,-0.646311,-1.93518
0.188,4507.81,-3143.64,8119.1,-1.15734,0.869264,-0.02599,4345.79,2868.03,8144.68,-2.01691,-0.599106,-1.21472,-430.695,9558.83,-1652.07,-1.72017,-0.652304,0.250353,398.582,-9842.5,-479.02,-0.742771,1.99614,1.87664,-1996.4,9187.62,-2365.79,2.78974,1.62484,-1.4699,-3556.59,-9134.35,-1191.89,-2.85899,2.9322,1.38055,8754.53,1252.79,4589.07,-4.95576,-0.599848,-1.92914
0.189,4502.57,-3145.61,8120.4,-1.19342,0.824918,-0.0258448,4339.98,2842.61,8128.62,-2.09432,-0.548064,-1.07925,-448.683,9539.75,-1669.81,-1.7862,-0.624618,0.118247,404.42,-9854.75,-451.848,-0.704903,2.02748,1.95651,-2006.72,9215.18,-2353.68,3.28101,1.66521,-1.37777,-3544.36,-9124.69,-1192.47,-2.75515,3.15556,1.5405,8761.08,1248.98,4596.08,-4.91534,-0.553385,-1.92311
0.19,4497.34,-3147.58,8121.69,-1.2295,0.780572,-0.0256996,4334.18,2817.2,8112.55,-2.17173,-0.497022,-0.943781,-466.671,9520.67,-1687.56,-1.85223,-0.596932,-0.0138587,410.259,-9867.0,-424.675,-0.667036,2.05881,2.03638,-2017.04,9242.74,-2341.56,3.77228,1.70558,-1.28565,-3532.13,-9115.03,-1193.06,-2.65131,3.37891,1.70045,8767.64,1245.16,4603.09,-4.87491,-0.506922,-1.91707
0.191,4492.1,-3149.55,8122.99,-1.26558,0.736225,-0.0255544,4328.37,2791.78,8096.49,-2.24914,-0.44598,-0.808312,-484.659,9501.59,-1705.3,-1.91826,-0.569246,-0.145965,416.097,-9879.26,-397.502,-0.629169,2.09014,2.11625,-2027.35,9270.3,-2329.45,4.26355,1.74595,-1.19352,-3519.89,-9105.37,-1193.64,-2.54747,3.60227,1.8604,8774.2,1241.35,4610.1,-4.83448,-0.460459,-1.91104
0.192,4481.62,-3148.05,8119.83,-1.28416,0.684783,-0.0187893,4320.21,2787.95,8096.46,-2.24629,-0.478103,-0.83142,-466.976,9512.78,-1695.94,-1.90554,-0.584392,-0.220572,431.692,-9877.35,-383.738,-0.635772,2.21101,2.16896,-2069.14,9296.73,-2310.7,4.46744,1.61016,-1.04491,-3547.77,-9108.56,-1206.95,-2.50273,3.65178,1.86865,8778.4,1238.33,4598.05,-4.76912,-0.473396,-1.86831
0.193,4470.49,-3146.12,8116.12,-1.30055,0.632454,-0.0111967,4311.75,2786.8,8098.44,-2.23341,-0.520621,-0.87435,-444.833,9527.75,-1683.19,-1.88298,-0.604892,-0.287991,448.506,-9873.67,-371.649,-0.647934,2.34308,2.21827,-2114.86,9323.02,-2291.12,4.63541,1.45234,-0.88925,-3580.67,-9113.35,-1221.85,-2.46538,3.67957,1.85795,8782.31,1235.42,4583.61,-4.70064,-0.493758,-1.82099
0.194,4459.35,-3144.19,8112.41,-1.31694,0.580124,-0.00360407,4303.3,2785.66,8100.41,-2.22053,-0.56314,-0.917281,-422.691,9542.72,-1670.44,-1.86042,-0.625393,-0.35541,465.32,-9870.0,-359.561,-0.660095,2.47514,2.26758,-2160.59,9349.31,-2271.54,4.80338,1.29452,-0.733587,-3613.56,-9118.14,-1236.75,-2.42803,3.70735,1.84725,8786.22,1232.5,4569.18,-4.63216,-0.514119,-1.77367
0.195,4448.22,-3142.26,8108.69,-1.33333,0.527795,0.00398853,4294.84,2784.52,8102.39,-2.20765,-0.605659,-0.960211,-400.548,9557.7,-1657.69,-1.83786,-0.645893,-0.42283,482.134,-9866.32,-347.473,-0.672257,2.6072,2.3169,-2206.31,9375.6,-2251.96,4.97134,1.1367,-0.577923,-3646.46,-9122.92,-1251.66,-2.39068,3.73513,1.83655,8790.13,1229.58,4554.74,-4.56369,-0.534481,-1.72635
0.196,4438.46,-3139.37,8099.42,-1.31917,0.501909,0.0465841,4300.89,2797.91,8105.39,-2.20557,-0.613861,-1.01816,-395.739,9568.91,-1649.38,-1.81497,-0.692152,-0.467855,489.375,-9864.7,-348.578,-0.644303,2.67872,2.33005,-2240.44,9399.17,-2234.02,4.93169,0.944427,-0.34413,-3654.35,-9127.55,-1255.72,-2.33906,3.7942,1.82017,8788.48,1226.92,4549.94,-4.51811,-0.537496,-1.65231
0.197,4430.42,-3135.26,8083.2,-1.2668,0.509078,0.132933,4325.08,2829.48,8109.67,-2.21698,-0.579168,-1.09487,-412.597,9575.41,-1646.6,-1.79167,-0.770607,-0.484887,484.649,-9865.65,-366.173,-0.566206,2.67456,2.298,-2260.09,9419.35,-2218.12,4.63251,0.709085,-0.0126747,-3631.0,-9131.99,-1246.24,-2.2696,3.89236,1.79671,8779.86,1224.59,4557.18,-4.50116,-0.518827,-1.54485
0.198,4422.38,-3131.15,8066.97,-1.21443,0.516246,0.219283,4349.26,2861.04,8113.95,-2.22838,-0.544475,-1.17158,-429.455,9581.92,-1643.83,-1.76837,-0.849063,-0.501918,479.924,-9866.6,-383.769,-0.488108,2.6704,2.26595,-2279.73,9439.54,-2202.22,4.33333,0.473743,0.31878,-3607.65,-9136.42,-1236.76,-2.20014,3.99053,1.77325,8771.25,1222.26,4564.41,-4.48422,-0.500158,-1.43739
0.199,4414.35,-3127.04,8050.75,-1.16206,0.523415,0.305632,4373.45,2892.61,8118.22,-2.23979,-0.509782,-1.24829,-446.313,9588.42,-1641.05,-1.74506,-0.927518,-0.51895,475.198,-9867.55,-401.365,-0.410011,2.66624,2.23391,-2299.37,9459.72,-2186.33,4.03416,0.238401,0.650235,-3584.3,-9140.85,-1227.28,-2.13068,4.08869,1.74979,8762.63,1219.93,4571.65,-4.46727,-0.48149,-1.32993
0.2,4406.31,-3122.93,8034.53,-1.10969,0.530584,0.391981,4397.64,2924.17,8122.5,-2.2512,-0.475088,-1.32501,-463.171,9594.92,-1638.28,-1.72176,-1.00597,-0.535982,470.473,-9868.5,-418.961,-0.331913,2.66208,2.20186,-2319.01,9479.9,-2170.43,3.73498,0.00305908,0.98169,-3560.95,-9145.29,-1217.8,-2.06122,4.18686,1.72633,8754.01,1217.59,4578.89,-4.45032,-0.462821,-1.22247
0.201,4415.46,-3115.0,8034.57,-1.05042,0.58011,0.382009,4401.81,2933.6,8102.11,-2.30785,-0.440851,-1.28321,-457.925,9614.02,-1627.21,-1.79527,-0.972129,-0.582657,443.577,-9865.63,-429.196,-0.473162,2.72198,2.19725,-2267.35,9491.22,-2160.01,3.257,-0.251813,1.2017,-3570.96,-9158.54,-1233.96,-1.99879,4.42907,1.66071,8752.7,1218.45,4566.49,-4.50584,-0.468016,-1.27608
0.202,4424.61,-3107.08,8034.6,-0.991141,0.629636,0.372037,4405.98,2943.02,8081.72,-2.3645,-0.406613,-1.24141,-452.679,9633.12,-1616.14,-1.86879,-0.938284,-0.629332,416.681,-9862.77,-439.431,-0.614411,2.78188,2.19264,-2215.69,9502.54,-2149.59,2.77902,-0.506685,1.42171,-3580.97,-9171.79,-1250.12,-1.93636,4.67127,1.59509,8751.39,1219.3,4554.1,-4.56135,-0.473212,-1.32969
0.203,4433.76,-3099.15,8034.64,-0.931866,0.679162,0.362065,4410.15,2952.45,8061.33,-2.42115,-0.372375,-1.19961,-447.433,9652.21,-1605.06,-1.9423,-0.90444,-0.676007,389.785,-9859.9,-449.666,-0.755659,2.84178,2.18804,-2164.03,9513.85,-2139.18,2.30104,-0.761557,1.64171,-3590.98,-9185.05,-1266.28,-1.87393,4.91348,1.52948,8750.07,1220.16,4541.7,-4.61686,-0.478407,-1.3833
0.204,4442.91,-3091.22,8034.67,-0.872591,0.728688,0.352092,4414.32,2961.87,8040.93,-2.4778,-0.338138,-1.15781,-442.187,9671.31,-1593.99,-2.01582,-0.870595,-0.722681,362.889,-9857.04,-459.901,-0.896908,2.90169,2.18343,-2112.36,9525.17,-2128.76,1.82306,-1.01643,1.86172,-3600.99,-9198.3,-1282.44,-1.8115,5.15569,1.46386,8748.76,1221.02,4529.3,-4.67237,-0.483603,-1.43691
0.205,4447.56,-3094.52,8040.64,-0.878613,0.733131,0.324541,4420.93,2958.89,8032.31,-2.47491,-0.381586,-1.12895,-431.857,9668.46,-1599.45,-2.03474,-0.872417,-0.718842,351.632,-9861.91,-465.051,-0.927805,2.90262,2.17744,-2080.84,9519.61,-2126.02,1.37766,-1.36914,2.05288,-3595.31,-9198.82,-1278.34,-1.77081,5.26289,1.43175,8752.11,1216.55,4524.67,-4.71248,-0.582213,-1.48779
0.206,4448.6,-3106.8,8051.35,-0.936873,0.701507,0.282925,4429.51,2946.0,8033.11,-2.42439,-0.487183,-1.11045,-417.462,9648.06,-1618.13,-2.00999,-0.902772,-0.674591,352.886,-9872.97,-466.134,-0.870421,2.85638,2.17034,-2065.42,9500.55,-2129.42,0.958327,-1.80011,2.22095,-3577.07,-9189.13,-1258.05,-1.74751,5.26207,1.42645,8759.19,1207.83,4526.23,-4.74028,-0.755555,-1.5365
0.207,4449.65,-3119.08,8062.06,-0.995133,0.669884,0.24131,4438.08,2933.1,8033.91,-2.37386,-0.592781,-1.09195,-403.066,9627.65,-1636.82,-1.98524,-0.933127,-0.63034,354.139,-9884.04,-467.218,-0.813036,2.81014,2.16324,-2050.0,9481.48,-2132.82,0.53899,-2.23109,2.38903,-3558.82,-9179.45,-1237.75,-1.72422,5.26126,1.42114,8766.27,1199.11,4527.8,-4.76808,-0.928897,-1.5852
0.208,4450.69,-3131.36,8072.77,-1.05339,0.63826,0.199695,4446.66,2920.21,8034.71,-2.32333,-0.698378,-1.07345,-388.67,9607.25,-1655.5,-1.96049,-0.963482,-0.586089,355.393,-9895.1,-468.301,-0.755652,2.7639,2.15614,-2034.59,9462.42,-2136.23,0.119653,-2.66206,2.5571,-3540.58,-9169.77,-1217.45,-1.70092,5.26045,1.41584,8773.36,1190.4,4529.37,-4.79587,-1.10224,-1.6339
0.209,4450.71,-3143.25,8082.05,-1.10903,0.610851,0.161549,4453.28,2910.23,8037.18,-2.27572,-0.787626,-1.05764,-376.655,9589.92,-1672.58,-1.93858,-1.00039,-0.536533,354.548,-9904.03,-470.962,-0.703162,2.7131,2.1579,-2018.59,9442.73,-2139.0,-0.273953,-3.04945,2.70651,-3520.84,-9160.96,-1199.81,-1.68501,5.25552,1.40502,8778.96,1182.53,4532.4,-4.82137,-1.26596,-1.66785
0.21,4442.54,-3152.11,8079.81,-1.14368,0.617161,0.151161,4444.28,2923.66,8052.99,-2.25138,-0.746077,-1.06335,-383.684,9597.17,-1676.87,-1.93929,-1.08975,-0.444536,336.915,-9895.89,-486.245,-0.689823,2.62592,2.23046,-1997.96,9418.11,-2136.71,-0.461709,-3.08813,2.7066,-3489.1,-9159.2,-1203.44,-1.72815,5.21768,1.35,8772.74,1181.51,4547.03,-4.82844,-1.35271,-1.58375
0.211,4434.37,-3160.97,8077.58,-1.17832,0.623471,0.140774,4435.27,2937.08,8068.81,-2.22705,-0.704529,-1.06906,-390.713,9604.42,-1681.16,-1.94,-1.17911,-0.352538,319.281,-9887.74,-501.529,-0.676484,2.53874,2.30302,-1977.34,9393.48,-2134.42,-0.649464,-3.1268,2.70668,-3457.36,-9157.43,-1207.06,-1.77129,5.17985,1.29498,8766.52,1180.48,4561.67,-4.83552,-1.43946,-1.49966
0.212,4426.2,-3169.83,8075.34,-1.21297,0.629781,0.130386,4426.27,2950.5,8084.63,-2.20272,-0.662981,-1.07477,-397.742,9611.67,-1685.45,-1.94071,-1.26848,-0.260541,301.648,-9879.6,-516.813,-0.663145,2.45156,2.37558,-1956.71,9368.86,-2132.13,-0.837219,-3.16548,2.70677,-3425.61,-9155.67,-1210.69,-1.81442,5.14201,1.23996,8760.31,1179.46,4576.31,-4.8426,-1.52621,-1.41556
0.213,4418.03,-3178.69,8073.11,-1.24762,0.636091,0.119998,4417.27,2963.93,8100.45,-2.17838,-0.621432,-1.08048,-404.771,9618.93,-1689.74,-1.94142,-1.35784,-0.168543,284.015,-9871.45,-532.096,-0.649806,2.36438,2.44814,-1936.08,9344.23,-2129.84,-1.02497,-3.20416,2.70686,-3393.87,-9153.91,-1214.32,-1.85756,5.10417,1.18494,8754.09,1178.44,4590.95,-4.84968,-1.61296,-1.33146
0.214,4410.25,-3175.76,8068.29,-1.26975,0.659739,0.130773,4413.66,2964.05,8107.42,-2.14478,-0.596193,-1.1155,-415.708,9623.28,-1681.48,-1.92046,-1.3306,-0.156817,295.372,-9874.15,-531.807,-0.664027,2.38283,2.51548,-1937.29,9317.11,-2154.88,-1.08053,-3.2191,2.654,-3391.23,-9154.35,-1211.06,-1.90617,5.07304,1.19564,8743.05,1172.74,4595.12,-4.81312,-1.60081,-1.27797
0.215,4402.67,-3166.93,8062.17,-1.28562,0.692057,0.152129,4412.75,2957.53,8109.97,-2.10655,-0.579108,-1.16518,-428.599,9626.19,-1666.94,-1.88865,-1.24506,-0.185226,321.225,-9882.27,-523.732,-0.692027,2.45411,2.58021,-1949.41,9288.75,-2193.57,-1.06999,-3.22217,2.57468,-3403.15,-9155.9,-1204.34,-1.95752,5.04525,1.23921,8729.59,1164.72,4594.04,-4.75474,-1.53922,-1.23978
0.216,4395.09,-3158.11,8056.06,-1.3015,0.724375,0.173484,4411.84,2951.01,8112.52,-2.06832,-0.562024,-1.21485,-441.491,9629.1,-1652.4,-1.85684,-1.15953,-0.213635,347.078,-9890.39,-515.657,-0.720028,2.52538,2.64494,-1961.53,9260.38,-2232.26,-1.05945,-3.22523,2.49535,-3415.06,-9157.46,-1197.63,-2.00886,5.01747,1.28277,8716.13,1156.69,4592.97,-4.69636,-1.47763,-1.20158
0.217,4387.52,-3149.29,8049.94,-1.31737,0.756693,0.19484,4410.93,2944.49,8115.07,-2.03008,-0.544939,-1.26453,-454.382,9632.01,-1637.86,-1.82504,-1.07399,-0.242044,372.931,-9898.51,-507.581,-0.748028,2.59665,2.70967,-1973.65,9232.01,-2270.95,-1.04891,-3.2283,2.41603,-3426.97,-9159.01,-1190.91,-2.0602,4.98969,1.32634,8702.68,1148.66,4591.9,-4.63798,-1.41604,-1.16339
0.218,4381.01,-3144.0,8044.1,-1.3279,0.778755,0.201473,4409.14,2937.36,8115.04,-2.00571,-0.540034,-1.30067,-467.519,9632.25,-1626.31,-1.80134,-1.01573,-0.279067,386.969,-9903.24,-499.666,-0.778553,2.67192,2.73459,-1984.72,9203.19,-2303.73,-0.980705,-3.20211,2.32224,-3442.49,-9160.22,-1190.63,-2.08934,4.97578,1.35961,8689.91,1139.19,4589.1,-4.58121,-1.36872,-1.12982
0.219,4378.25,-3151.11,8039.24,-1.31971,0.764919,0.156574,4404.28,2928.08,8105.95,-2.02984,-0.577758,-1.28946,-481.514,9623.15,-1625.24,-1.80602,-1.05296,-0.346243,359.651,-9896.12,-492.309,-0.817915,2.7612,2.62016,-1992.11,9172.77,-2315.82,-0.710677,-3.07349,2.17785,-3470.62,-9160.22,-1212.89,-2.04074,5.01045,1.35685,8679.53,1124.65,4580.25,-4.53005,-1.37133,-1.11247
0.22,4375.49,-3158.22,8034.37,-1.31152,0.751084,0.111675,4399.42,2918.81,8096.86,-2.05398,-0.615482,-1.27825,-495.509,9614.05,-1624.16,-1.8107,-1.09018,-0.413418,332.333,-9889.01,-484.952,-0.857277,2.85048,2.50574,-1999.5,9142.36,-2327.91,-0.440648,-2.94488,2.03346,-3498.76,-9160.22,-1235.14,-1.99214,5.04511,1.35409,8669.15,1110.12,4571.4,-4.47889,-1.37394,-1.09511
0.221,4372.73,-3165.32,8029.5,-1.30333,0.737249,0.0667768,4394.56,2909.53,8087.77,-2.07811,-0.653206,-1.26703,-509.504,9604.96,-1623.09,-1.81538,-1.1274,-0.480593,305.016,-9881.89,-477.596,-0.896639,2.93976,2.39131,-2006.89,9111.94,-2340.0,-0.17062,-2.81626,1.88907,-3526.89,-9160.22,-1257.39,-1.94354,5.07978,1.35132,8658.77,1095.59,4562.55,-4.42772,-1.37655,-1.07775
0.222,4369.97,-3172.43,8024.64,-1.29514,0.723414,0.0218782,4389.69,2900.26,8078.69,-2.10224,-0.690931,-1.25582,-523.499,9595.86,-1622.02,-1.82006,-1.16462,-0.547769,277.698,-9874.78,-470.239,-0.936001,3.02904,2.27689,-2014.28,9081.52,-2352.09,0.099409,-2.68765,1.74467,-3555.02,-9160.22,-1279.64,-1.89494,5.11444,1.34856,8648.39,1081.06,4553.69,-4.37656,-1.37916,-1.06039
0.223,4378.49,-3174.2,8024.61,-1.29004,0.775515,0.00862069,4399.84,2893.16,8074.38,-2.10045,-0.750385,-1.25415,-513.234,9596.84,-1612.71,-1.79533,-1.16292,-0.616736,278.771,-9885.09,-477.111,-0.905037,2.96041,2.33977,-2033.58,9069.4,-2374.95,0.340169,-2.47617,1.74416,-3564.15,-9161.27,-1292.27,-1.8657,5.23906,1.32226,8647.25,1064.38,4551.21,-4.35258,-1.37117,-1.04937
0.224,4390.23,-3174.45,8025.98,-1.28582,0.846455,0.00440348,4414.28,2886.69,8071.45,-2.09124,-0.816048,-1.25521,-496.038,9600.7,-1601.05,-1.76219,-1.15009,-0.686215,287.955,-9900.39,-488.049,-0.853979,2.84666,2.45331,-2056.29,9062.5,-2400.89,0.572567,-2.24102,1.78475,-3567.85,-9162.63,-1302.15,-1.84199,5.38937,1.28924,8648.76,1047.09,4550.55,-4.33637,-1.36014,-1.04016
0.225,4401.97,-3174.7,8027.34,-1.28161,0.917396,0.000186267,4428.71,2880.21,8068.52,-2.08204,-0.881711,-1.25627,-478.843,9604.56,-1589.39,-1.72905,-1.13726,-0.755695,297.139,-9915.69,-498.987,-0.802921,2.73291,2.56686,-2079.0,9055.6,-2426.83,0.804964,-2.00586,1.82534,-3571.56,-9163.99,-1312.02,-1.81828,5.53969,1.25622,8650.26,1029.8,4549.89,-4.32016,-1.34912,-1.03095
0.226,4413.71,-3174.95,8028.71,-1.27739,0.988336,-0.00403095,4443.14,2873.73,8065.58,-2.07283,-0.947374,-1.25733,-461.647,9608.42,-1577.73,-1.69592,-1.12443,-0.825174,306.323,-9930.99,-509.924,-0.751862,2.61916,2.6804,-2101.71,9048.71,-2452.77,1.03736,-1.77071,1.86593,-3575.26,-9165.34,-1321.9,-1.79458,5.69,1.22319,8651.77,1012.51,4549.22,-4.30395,-1.3381,-1.02174
0.227,4422.35,-3174.54,8030.38,-1.27068,1.02898,-0.0175531,4448.07,2869.94,8065.56,-2.07052,-0.994336,-1.26409,-456.898,9605.37,-1575.84,-1.62813,-1.19804,-0.898628,313.122,-9940.99,-514.193,-0.726232,2.53564,2.74464,-2117.42,9056.5,-2480.65,1.21161,-1.50649,1.87069,-3575.86,-9166.41,-1337.96,-1.82208,5.80902,1.20103,8649.54,1005.96,4549.62,-4.32529,-1.27901,-1.02436
0.228,4424.79,-3172.82,8032.67,-1.25899,1.00902,-0.0496849,4433.98,2871.52,8071.37,-2.08199,-1.0039,-1.28225,-477.043,9588.52,-1593.48,-1.49104,-1.44451,-0.980033,315.15,-9940.38,-505.123,-0.751455,2.51257,2.71029,-2119.14,9093.67,-2512.4,1.26958,-1.18416,1.80379,-3570.28,-9166.9,-1366.37,-1.95203,5.86544,1.2006,8639.85,1020.89,4552.14,-4.42173,-1.12377,-1.05065
0.229,4427.23,-3171.1,8034.96,-1.24731,0.98906,-0.0818169,4419.88,2873.09,8077.18,-2.09346,-1.01346,-1.30041,-497.188,9571.67,-1611.12,-1.35396,-1.69099,-1.06144,317.178,-9939.77,-496.054,-0.776678,2.4895,2.67594,-2120.86,9130.83,-2544.15,1.32754,-0.861825,1.7369,-3564.69,-9167.38,-1394.78,-2.08197,5.92186,1.20018,8630.16,1035.83,4554.66,-4.51817,-0.968543,-1.07695
0.23,4429.67,-3169.39,8037.25,-1.23562,0.969101,-0.113949,4405.79,2874.67,8082.99,-2.10493,-1.02302,-1.31857,-517.334,9554.82,-1628.76,-1.21688,-1.93746,-1.14284,319.206,-9939.16,-486.985,-0.801901,2.46643,2.64159,-2122.57,9168.0,-2575.89,1.3855,-0.53949,1.67,-3559.11,-9167.87,-1423.19,-2.21191,5.97829,1.19975,8620.47,1050.77,4557.18,-4.61461,-0.813312,-1.10324
0.231,4432.11,-3167.67,8039.54,-1.22393,0.949143,-0.146081,4391.7,2876.24,8088.8,-2.1164,-1.03258,-1.33673,-537.479,9537.97,-1646.4,-1.07979,-2.18394,-1.22424,321.235,-9938.55,-477.915,-0.827124,2.44336,2.60724,-2124.29,9205.17,-2607.64,1.44346,-0.217155,1.6031,-3553.52,-9168.36,-1451.6,-2.34186,6.03471,1.19932,8610.78,1065.71,4559.7,-4.71105,-0.658081,-1.12953
0.232,4435.42,-3157.76,8040.78,-1.20445,0.891457,-0.149167,4393.8,2872.87,8093.03,-2.05814,-0.963812,-1.31189,-531.058,9550.57,-1661.12,-1.19738,-2.16978,-1.13544,319.634,-9937.13,-473.681,-0.769871,2.27848,2.56285,-2149.41,9229.17,-2602.84,1.35892,0.163857,1.55065,-3554.51,-9160.01,-1442.2,-2.36414,6.06992,1.1537,8602.96,1072.15,4561.45,-4.8373,-0.570129,-1.17954
0.233,4438.83,-3146.83,8041.89,-1.184,0.829055,-0.148622,4397.92,2868.88,8097.07,-1.99116,-0.885251,-1.28168,-521.315,9566.86,-1675.48,-1.3468,-2.12305,-1.02536,317.58,-9935.6,-470.05,-0.702308,2.09588,2.51719,-2177.45,9251.53,-2593.47,1.25656,0.552204,1.5,-3556.32,-9150.55,-1428.07,-2.37297,6.10247,1.10243,8595.37,1077.53,4563.11,-4.96728,-0.490588,-1.23251
0.234,4442.24,-3135.91,8042.99,-1.16355,0.766653,-0.148077,4402.04,2864.89,8101.11,-1.92418,-0.80669,-1.25147,-511.573,9583.14,-1689.84,-1.49622,-2.07631,-0.915279,315.526,-9934.07,-466.419,-0.634745,1.91327,2.47154,-2205.49,9273.89,-2584.09,1.1542,0.940551,1.44936,-3558.13,-9141.1,-1413.94,-2.38179,6.13502,1.05115,8587.78,1082.91,4564.76,-5.09725,-0.411046,-1.28549
0.235,4445.65,-3124.98,8044.1,-1.1431,0.704251,-0.147532,4406.16,2860.89,8105.15,-1.8572,-0.72813,-1.22127,-501.83,9599.43,-1704.2,-1.64564,-2.02958,-0.805199,313.473,-9932.54,-462.789,-0.567182,1.73067,2.42589,-2233.53,9296.25,-2574.72,1.05183,1.3289,1.39871,-3559.94,-9131.64,-1399.81,-2.39062,6.16757,0.999882,8580.18,1088.29,4566.42,-5.22723,-0.331505,-1.33846
0.236,4455.43,-3126.84,8041.92,-1.14018,0.660698,-0.13334,4409.0,2862.13,8110.3,-1.82837,-0.696585,-1.21584,-494.763,9603.63,-1710.3,-1.68437,-1.99307,-0.769447,308.317,-9939.45,-473.25,-0.53103,1.58566,2.42057,-2234.84,9300.05,-2560.97,0.995136,1.64714,1.37251,-3561.98,-9122.59,-1391.19,-2.35828,6.19038,0.95151,8572.96,1090.15,4572.04,-5.32674,-0.252702,-1.31991
0.237,4473.16,-3144.7,8035.64,-1.1592,0.640706,-0.102088,4410.24,2869.88,8116.84,-1.84724,-0.72381,-1.24138,-491.039,9592.74,-1706.07,-1.58473,-1.96934,-0.826606,299.284,-9956.91,-501.326,-0.534139,1.48766,2.46568,-2202.72,9280.65,-2541.76,0.995516,1.87776,1.37686,-3564.29,-9114.04,-1389.47,-2.27449,6.20099,0.906764,8566.21,1087.61,4582.61,-5.38816,-0.174823,-1.21196
0.238,4490.9,-3162.56,8029.35,-1.17821,0.620715,-0.0708361,4411.48,2877.64,8123.38,-1.86611,-0.751035,-1.26693,-487.315,9581.84,-1701.84,-1.4851,-1.94562,-0.883765,290.251,-9974.36,-529.401,-0.537249,1.38966,2.51079,-2170.6,9261.26,-2522.55,0.995896,2.10837,1.3812,-3566.59,-9105.49,-1387.74,-2.1907,6.2116,0.862018,8559.45,1085.08,4593.17,-5.44958,-0.0969441,-1.10401
0.239,4508.64,-3180.42,8023.07,-1.19722,0.600723,-0.0395843,4412.72,2885.4,8129.92,-1.88498,-0.77826,-1.29247,-483.591,9570.95,-1697.62,-1.38546,-1.92189,-0.940924,281.217,-9991.82,-557.477,-0.540359,1.29165,2.5559,-2138.49,9241.86,-2503.33,0.996276,2.33899,1.38555,-3568.9,-9096.94,-1386.02,-2.1069,6.22222,0.817272,8552.69,1082.54,4603.74,-5.511,-0.0190651,-0.996052
0.24,4526.37,-3198.28,8016.79,-1.21623,0.580732,-0.00833255,4413.95,2893.16,8136.46,-1.90385,-0.805485,-1.31802,-479.867,9560.05,-1693.39,-1.28583,-1.89816,-0.998083,272.184,-10009.3,-585.553,-0.543469,1.19365,2.60101,-2106.37,9222.47,-2484.12,0.996656,2.5696,1.3899,-3571.21,-9088.39,-1384.29,-2.02311,6.23283,0.772526,8545.93,1080.0,4614.31,-5.57242,0.0588139,-0.888099
0.241,4511.08,-3199.67,8027.27,-1.18247,0.594603,-0.0106862,4417.31,2909.2,8135.75,-1.92484,-0.854545,-1.29104,-468.912,9565.26,-1705.37,-1.40777,-1.89669,-0.870255,260.301,-9976.17,-576.504,-0.354027,1.31309,2.66973,-2090.4,9216.0,-2481.74,0.91948,2.68481,1.47928,-3571.73,-9086.05,-1385.82,-2.08346,6.1447,0.89717,8550.8,1086.51,4607.1,-5.58736,0.233464,-0.88989
0.242,4495.8,-3201.06,8037.74,-1.14871,0.608475,-0.0130397,4420.66,2925.24,8135.05,-1.94584,-0.903605,-1.26407,-457.957,9570.47,-1717.35,-1.52971,-1.89522,-0.742426,248.418,-9943.06,-567.455,-0.164585,1.43253,2.73845,-2074.44,9209.54,-2479.37,0.842304,2.80001,1.56866,-3572.26,-9083.7,-1387.34,-2.14381,6.05656,1.02181,8555.67,1093.03,4599.89,-5.60229,0.408115,-0.891681
0.243,4480.51,-3202.45,8048.22,-1.11494,0.622347,-0.0153933,4424.01,2941.27,8134.35,-1.96684,-0.952665,-1.2371,-447.002,9575.67,-1729.33,-1.65165,-1.89375,-0.614598,236.535,-9909.95,-558.406,0.0248562,1.55197,2.80716,-2058.47,9203.07,-2476.99,0.765128,2.91522,1.65804,-3572.78,-9081.36,-1388.87,-2.20416,5.96843,1.14646,8560.53,1099.54,4592.68,-5.61722,0.582765,-0.893472
0.244,4465.22,-3203.83,8058.69,-1.08118,0.636219,-0.0177469,4427.36,2957.31,8133.64,-1.98784,-1.00172,-1.21012,-436.046,9580.88,-1741.31,-1.77359,-1.89227,-0.48677,224.651,-9876.84,-549.357,0.214298,1.67141,2.87588,-2042.5,9196.61,-2474.61,0.687952,3.03042,1.74742,-3573.3,-9079.02,-1390.39,-2.26451,5.88029,1.2711,8565.4,1106.06,4585.47,-5.63215,0.757416,-0.895262
0.245,4458.69,-3194.38,8066.85,-1.10769,0.662396,0.0146427,4431.31,2964.48,8132.21,-1.9802,-0.987708,-1.19707,-428.905,9582.5,-1750.12,-1.7868,-1.82168,-0.505912,231.904,-9882.09,-549.333,0.292519,1.77342,2.91645,-2037.62,9191.36,-2470.96,0.640593,3.09305,1.80021,-3579.1,-9077.26,-1396.76,-2.27188,5.85085,1.26846,8572.57,1101.99,4574.14,-5.64944,0.912311,-0.909053
0.246,4459.17,-3176.24,8073.15,-1.18243,0.698419,0.0748269,4435.74,2964.55,8130.18,-1.94966,-0.923231,-1.19514,-424.814,9581.24,-1756.39,-1.71303,-1.69577,-0.64263,254.466,-9918.03,-556.53,0.281763,1.86148,2.93451,-2041.6,9187.08,-2466.29,0.617087,3.11362,1.82371,-3589.12,-9075.96,-1407.01,-2.23686,5.86836,1.16398,8581.59,1089.46,4559.52,-5.66862,1.0514,-0.932445
0.247,4459.64,-3158.1,8079.45,-1.25716,0.734442,0.135011,4440.16,2964.63,8128.16,-1.91911,-0.858753,-1.19322,-420.722,9579.98,-1762.66,-1.63927,-1.56987,-0.779348,277.029,-9953.97,-563.727,0.271007,1.94954,2.95257,-2045.58,9182.8,-2461.61,0.593581,3.13419,1.84722,-3599.13,-9074.66,-1417.26,-2.20184,5.88587,1.0595,8590.61,1076.93,4544.9,-5.6878,1.19049,-0.955836
0.248,4460.11,-3139.97,8085.76,-1.33189,0.770464,0.195195,4444.59,2964.7,8126.14,-1.88857,-0.794276,-1.19129,-416.631,9578.72,-1768.94,-1.5655,-1.44397,-0.916066,299.591,-9989.9,-570.924,0.260251,2.03759,2.97062,-2049.56,9178.52,-2456.94,0.570074,3.15476,1.87073,-3609.15,-9073.36,-1427.51,-2.16683,5.90338,0.955024,8599.63,1064.4,4530.28,-5.70698,1.32958,-0.979227
0.249,4460.39,-3123.61,8091.55,-1.3952,0.809486,0.243413,4447.8,2963.48,8124.31,-1.86545,-0.732043,-1.18555,-410.741,9577.58,-1771.11,-1.48062,-1.31378,-1.02494,320.835,-10020.5,-573.675,0.238742,2.12078,2.97203,-2053.06,9174.79,-2452.93,0.544284,3.18161,1.88917,-3621.21,-9073.0,-1433.98,-2.13806,5.92071,0.860915,8606.52,1052.68,4518.22,-5.72118,1.45714,-0.992637
0.25,4459.1,-3121.51,8093.31,-1.36717,0.872499,0.195897,4441.28,2951.94,8124.07,-1.90173,-0.687767,-1.14927,-390.452,9577.4,-1740.53,-1.30681,-1.14931,-0.911046,331.54,-10008.1,-540.853,0.131202,2.16501,2.84021,-2052.66,9175.41,-2454.19,0.500217,3.25873,1.86714,-3649.57,-9080.22,-1410.32,-2.15925,5.93661,0.849753,8596.38,1047.4,4526.71,-5.69551,1.49245,-0.926195
0.251,4457.8,-3119.4,8095.07,-1.33914,0.935512,0.148382,4434.75,2940.4,8123.82,-1.93801,-0.643491,-1.11299,-370.163,9577.22,-1709.94,-1.133,-0.984841,-0.797154,342.245,-9995.79,-508.031,0.023663,2.20925,2.70839,-2052.26,9176.03,-2455.45,0.45615,3.33584,1.8451,-3677.93,-9087.43,-1386.65,-2.18045,5.95251,0.838591,8586.25,1042.12,4535.19,-5.66984,1.52776,-0.859753
0.252,4456.5,-3117.29,8096.83,-1.31111,0.998525,0.100866,4428.23,2928.86,8123.58,-1.97429,-0.599215,-1.07671,-349.874,9577.05,-1679.36,-0.959185,-0.82037,-0.683261,352.949,-9983.44,-475.209,-0.0838764,2.25348,2.57656,-2051.86,9176.65,-2456.72,0.412083,3.41296,1.82307,-3706.29,-9094.65,-1362.98,-2.20165,5.9684,0.82743,8576.12,1036.85,4543.68,-5.64418,1.56307,-0.793311
0.253,4455.21,-3115.19,8098.59,-1.28307,1.06154,0.053351,4421.71,2917.32,8123.33,-2.01057,-0.554938,-1.04043,-329.585,9576.87,-1648.77,-0.785375,-0.655898,-0.569369,363.654,-9971.09,-442.387,-0.191416,2.29771,2.44474,-2051.46,9177.27,-2457.98,0.368016,3.49008,1.80104,-3734.66,-9101.86,-1339.31,-2.22285,5.9843,0.816268,8565.98,1031.57,4552.16,-5.61851,1.59838,-0.726869
0.254,4447.02,-3123.83,8101.73,-1.2353,1.09811,0.0453235,4396.73,2909.43,8122.03,-2.00818,-0.554664,-1.03884,-324.508,9570.05,-1634.29,-0.719006,-0.515753,-0.507688,367.445,-9953.19,-438.439,-0.238803,2.36751,2.44274,-2043.48,9179.51,-2465.23,0.331254,3.4765,1.71588,-3739.15,-9111.49,-1328.06,-2.20142,6.0101,0.824418,8565.77,1032.55,4559.66,-5.54086,1.54383,-0.701958
0.255,4435.39,-3137.84,8105.57,-1.17766,1.12146,0.05704,4362.52,2903.38,8120.19,-1.98645,-0.576391,-1.0546,-327.037,9559.91,-1627.87,-0.706357,-0.387771,-0.472112,367.779,-9932.5,-448.928,-0.256114,2.45009,2.50565,-2031.7,9182.55,-2475.48,0.298144,3.41759,1.59916,-3731.72,-9122.31,-1323.01,-2.15867,6.04086,0.842223,8570.51,1036.65,4566.66,-5.43723,1.44434,-0.697813
0.256,4423.76,-3151.86,8109.4,-1.12002,1.14481,0.0687565,4328.31,2897.33,8118.36,-1.96472,-0.598118,-1.07035,-329.566,9549.76,-1621.45,-0.693707,-0.259789,-0.436536,368.113,-9911.81,-459.417,-0.273425,2.53267,2.56855,-2019.92,9185.6,-2485.72,0.265034,3.35867,1.48244,-3724.28,-9133.14,-1317.96,-2.11592,6.07161,0.860029,8575.26,1040.75,4573.66,-5.3336,1.34485,-0.693668
0.257,4412.13,-3165.87,8113.23,-1.06238,1.16816,0.080473,4294.1,2891.28,8116.52,-1.943,-0.619844,-1.08611,-332.096,9539.62,-1615.02,-0.681058,-0.131807,-0.40096,368.447,-9891.12,-469.906,-0.290737,2.61525,2.63146,-2008.14,9188.64,-2495.97,0.231924,3.29975,1.36572,-3716.85,-9143.97,-1312.91,-2.07317,6.10236,0.877835,8580.0,1044.85,4580.66,-5.22996,1.24536,-0.689522
0.258,4405.38,-3176.72,8115.54,-1.01985,1.1815,0.0830051,4269.09,2888.76,8113.83,-1.92979,-0.62899,-1.09024,-335.26,9538.9,-1616.36,-0.679946,-0.0539218,-0.387475,371.829,-9874.71,-486.715,-0.316374,2.69208,2.68374,-2006.62,9188.41,-2497.97,0.195023,3.25488,1.28165,-3709.17,-9152.64,-1311.09,-2.01544,6.14061,0.879411,8584.47,1049.53,4586.69,-5.10999,1.15341,-0.682789
0.259,4415.67,-3176.48,8112.48,-1.03022,1.15982,0.0533914,4276.26,2898.63,8108.14,-1.9464,-0.594103,-1.05368,-340.649,9571.14,-1644.87,-0.719214,-0.151376,-0.451308,385.878,-9873.27,-525.643,-0.371152,2.74876,2.69882,-2041.02,9176.67,-2471.1,0.144854,3.25917,1.31186,-3700.63,-9153.75,-1320.59,-1.90533,6.20512,0.824182,8587.94,1056.21,4589.29,-4.93283,1.08785,-0.666998
0.26,4425.96,-3176.24,8109.43,-1.04059,1.13814,0.0237778,4283.43,2908.49,8102.45,-1.96301,-0.559216,-1.01713,-346.038,9603.37,-1673.38,-0.758482,-0.24883,-0.515141,399.927,-9871.83,-564.572,-0.425931,2.80544,2.7139,-2075.42,9164.93,-2444.23,0.0946849,3.26345,1.34207,-3692.09,-9154.86,-1330.09,-1.79521,6.26964,0.768953,8591.42,1062.9,4591.9,-4.75568,1.02229,-0.651206
0.261,4436.25,-3176.01,8106.37,-1.05097,1.11645,-0.0058358,4290.59,2918.35,8096.76,-1.97962,-0.524328,-0.98058,-351.427,9635.61,-1701.88,-0.797749,-0.346285,-0.578974,413.976,-9870.39,-603.5,-0.480709,2.86212,2.72899,-2109.82,9153.19,-2417.36,0.044516,3.26773,1.37228,-3683.55,-9155.97,-1339.59,-1.68509,6.33415,0.713724,8594.9,1069.58,4594.5,-4.57852,0.956723,-0.635415
0.262,4446.54,-3175.77,8103.32,-1.06134,1.09477,-0.0354494,4297.76,2928.22,8091.06,-1.99623,-0.489441,-0.944027,-356.816,9667.84,-1730.39,-0.837017,-0.443739,-0.642807,428.025,-9868.96,-642.429,-0.535487,2.9188,2.74407,-2144.22,9141.45,-2390.49,-0.00565294,3.27202,1.40249,-3675.01,-9157.08,-1349.08,-1.57497,6.39866,0.658495,8598.38,1076.26,4597.11,-4.40136,0.891161,-0.619624
0.263,4443.55,-3182.82,8099.48,-1.04049,1.01271,-0.0509549,4316.28,2943.0,8079.22,-2.02852,-0.420781,-0.938916,-407.561,9665.74,-1724.88,-0.960647,-0.31473,-0.556383,436.969,-9860.09,-646.367,-0.491633,3.01244,2.7987,-2179.73,9165.82,-2381.59,-0.0775296,3.30333,1.42771,-3672.47,-9152.24,-1353.03,-1.5613,6.50304,0.612918,8612.21,1073.71,4608.41,-4.24831,0.907134,-0.583733
0.264,4436.76,-3191.96,8095.41,-1.01071,0.913389,-0.0624294,4338.05,2959.18,8065.62,-2.06528,-0.342471,-0.942787,-471.265,9653.82,-1709.64,-1.10838,-0.121018,-0.427028,444.454,-9849.09,-640.307,-0.419597,3.11664,2.86463,-2215.55,9200.52,-2377.82,-0.155609,3.34237,1.4515,-3671.65,-9145.69,-1355.39,-1.57519,6.6188,0.570098,8629.01,1068.52,4622.2,-4.10215,0.946403,-0.542099
0.265,4429.97,-3201.11,8091.35,-0.980933,0.814071,-0.0739039,4359.82,2975.36,8052.02,-2.10204,-0.264161,-0.946659,-534.969,9641.91,-1694.4,-1.25611,0.0726945,-0.297673,451.939,-9838.1,-634.247,-0.347562,3.22084,2.93056,-2251.37,9235.21,-2374.06,-0.233687,3.38141,1.47529,-3670.82,-9139.14,-1357.75,-1.58908,6.73457,0.527277,8645.81,1063.33,4635.99,-3.95598,0.985672,-0.500465
0.266,4423.18,-3210.25,8087.29,-0.951155,0.714753,-0.0853784,4381.59,2991.54,8038.42,-2.1388,-0.185851,-0.950531,-598.672,9629.99,-1679.17,-1.40384,0.266407,-0.168318,459.425,-9827.1,-628.188,-0.275526,3.32505,2.9965,-2287.19,9269.9,-2370.29,-0.311766,3.42045,1.49909,-3670.0,-9132.6,-1360.11,-1.60297,6.85033,0.484457,8662.61,1058.14,4649.77,-3.80982,1.02494,-0.458832
0.267,4419.5,-3218.73,8085.27,-0.930924,0.667835,-0.0841728,4393.56,3002.16,8030.96,-2.1637,-0.127842,-0.943609,-644.355,9620.13,-1667.06,-1.50407,0.41134,-0.0983975,449.544,-9830.47,-629.02,-0.177388,3.32899,3.00961,-2311.19,9283.04,-2377.56,-0.364745,3.4909,1.48134,-3676.15,-9127.0,-1365.06,-1.62083,6.95132,0.440023,8678.19,1057.4,4654.77,-3.70239,1.01721,-0.429206
0.268,4422.05,-3225.88,8087.37,-0.929783,0.725714,-0.057607,4385.95,3001.67,8035.77,-2.16489,-0.110436,-0.915102,-653.996,9614.38,-1661.19,-1.50928,0.458714,-0.147347,404.93,-9862.57,-643.635,-0.0270446,3.1324,2.9171,-2311.57,9253.07,-2406.92,-0.367525,3.62417,1.3805,-3696.23,-9123.28,-1375.18,-1.64661,7.02277,0.392361,8691.34,1065.53,4642.19,-3.67242,0.915483,-0.423597
0.269,4424.6,-3233.04,8089.46,-0.928643,0.783594,-0.0310411,4378.34,3001.17,8040.59,-2.16608,-0.0930301,-0.886594,-663.637,9608.63,-1655.33,-1.5145,0.506088,-0.196296,360.317,-9894.67,-658.25,0.123299,2.93581,2.82459,-2311.95,9223.1,-2436.27,-0.370305,3.75744,1.27967,-3716.31,-9119.57,-1385.3,-1.67239,7.09422,0.3447,8704.49,1073.66,4629.6,-3.64245,0.813754,-0.417989
0.27,4427.16,-3240.19,8091.55,-0.927502,0.841474,-0.00447523,4370.73,3000.67,8045.4,-2.16726,-0.0756241,-0.858087,-673.279,9602.88,-1649.47,-1.51971,0.553462,-0.245245,315.704,-9926.77,-672.866,0.273642,2.73922,2.73207,-2312.32,9193.13,-2465.63,-0.373084,3.89071,1.17883,-3736.4,-9115.85,-1395.42,-1.69817,7.16566,0.297038,8717.64,1081.8,4617.02,-3.61248,0.712026,-0.41238
0.271,4429.71,-3247.35,8093.64,-0.926362,0.899353,0.0220906,4363.12,3000.18,8050.21,-2.16845,-0.0582181,-0.829579,-682.92,9597.14,-1643.61,-1.52492,0.600836,-0.294195,271.091,-9958.86,-687.481,0.423986,2.54263,2.63956,-2312.7,9163.16,-2494.98,-0.375864,4.02398,1.078,-3756.48,-9112.14,-1405.54,-1.72395,7.23711,0.249376,8730.79,1089.93,4604.44,-3.58252,0.610298,-0.406771
0.272,4435.98,-3230.97,8091.66,-0.943574,0.966267,0.0127119,4374.51,2992.4,8055.54,-2.21362,-0.0866403,-0.757293,-662.341,9626.72,-1654.23,-1.47719,0.60692,-0.179941,235.436,-9970.83,-685.555,0.49587,2.60869,2.64947,-2320.68,9155.63,-2474.21,-0.302106,3.8962,1.08987,-3768.21,-9102.06,-1410.5,-1.753,7.289,0.254935,8723.35,1091.02,4580.09,-3.55084,0.507666,-0.467308
0.273,4442.71,-3211.64,8089.18,-0.96308,1.03431,-0.00115983,4388.28,2983.72,8060.92,-2.26429,-0.120791,-0.679535,-637.984,9660.72,-1666.9,-1.42283,0.607843,-0.0452873,200.902,-9980.29,-681.561,0.557947,2.70757,2.67219,-2329.61,9150.9,-2447.18,-0.218781,3.73579,1.11584,-3778.91,-9091.19,-1414.83,-1.78246,7.33845,0.267147,8713.34,1091.22,4554.28,-3.51894,0.404922,-0.536113
0.274,4449.45,-3192.32,8086.69,-0.982587,1.10235,-0.0150316,4402.05,2975.04,8066.31,-2.31496,-0.154942,-0.601777,-613.628,9694.72,-1679.58,-1.36848,0.608765,0.0893666,166.367,-9989.74,-677.567,0.620023,2.80645,2.69491,-2338.55,9146.17,-2420.14,-0.135456,3.57538,1.1418,-3789.6,-9080.32,-1419.15,-1.81192,7.38791,0.279359,8703.32,1091.43,4528.47,-3.48705,0.302177,-0.604918
0.275,4456.18,-3173.0,8084.21,-1.00209,1.1704,-0.0289034,4415.81,2966.36,8071.7,-2.36563,-0.189093,-0.524019,-589.272,9728.73,-1692.25,-1.31413,0.609688,0.22402,131.833,-9999.19,-673.574,0.6821,2.90533,2.71763,-2347.48,9141.44,-2393.11,-0.0521308,3.41498,1.16777,-3800.3,-9069.44,-1423.47,-1.84137,7.43736,0.291571,8693.31,1091.64,4502.66,-3.45515,0.199432,-0.673724
0.276,4453.8,-3156.2,8080.33,-1.02282,1.18842,0.0168124,4433.8,2961.6,8071.69,-2.40828,-0.209006,-0.502521,-573.714,9740.61,-1683.09,-1.20445,0.579634,0.323886,103.986,-9986.75,-658.085,0.695791,3.00902,2.70638,-2351.22,9135.37,-2377.84,0.000846727,3.24302,1.14444,-3810.28,-9064.67,-1426.73,-1.85277,7.48614,0.310701,8689.42,1088.37,4494.87,-3.49132,0.208642,-0.672432
0.277,4440.04,-3142.54,8074.7,-1.04507,1.14392,0.137012,4457.07,2961.75,8064.95,-2.44092,-0.211124,-0.551347,-569.156,9724.84,-1646.64,-1.02563,0.51086,0.380265,84.4992,-9946.93,-628.226,0.649,3.11872,2.65268,-2348.49,9127.62,-2377.27,0.01589,3.05662,1.05949,-3819.37,-9067.53,-1428.66,-1.8416,7.53407,0.33848,8693.16,1080.76,4509.6,-3.61256,0.357796,-0.583518
0.278,4426.27,-3128.89,8069.08,-1.06732,1.09942,0.257213,4480.34,2961.89,8058.21,-2.47356,-0.213241,-0.600173,-564.598,9709.07,-1610.18,-0.846812,0.442086,0.436645,65.0121,-9907.11,-598.368,0.602208,3.22842,2.59898,-2345.76,9119.86,-2376.71,0.0309334,2.87023,0.974541,-3828.46,-9070.39,-1430.58,-1.83042,7.58201,0.366259,8696.91,1073.15,4524.33,-3.73381,0.506949,-0.494604
0.279,4412.51,-3115.24,8063.45,-1.08957,1.05491,0.377413,4503.61,2962.04,8051.46,-2.5062,-0.215358,-0.648999,-560.04,9693.31,-1573.73,-0.667991,0.373312,0.493025,45.525,-9867.29,-568.51,0.555417,3.33812,2.54529,-2343.02,9112.11,-2376.14,0.0459767,2.68383,0.889591,-3837.54,-9073.25,-1432.51,-1.81925,7.62994,0.394038,8700.66,1065.53,4539.06,-3.85505,0.656103,-0.40569
0.28,4398.74,-3101.58,8057.83,-1.11182,1.01041,0.497613,4526.88,2962.18,8044.72,-2.53884,-0.217476,-0.697824,-555.481,9677.54,-1537.27,-0.48917,0.304539,0.549405,26.0379,-9827.47,-538.651,0.508625,3.44782,2.49159,-2340.29,9104.36,-2375.58,0.06102,2.49743,0.804642,-3846.63,-9076.11,-1434.43,-1.80807,7.67788,0.421817,8704.4,1057.92,4553.8,-3.9763,0.805256,-0.316776
0.281,4413.68,-3103.32,8054.31,-1.13957,0.895272,0.475602,4505.74,2965.47,8042.55,-2.53651,-0.155852,-0.605537,-558.392,9698.58,-1560.84,-0.611742,0.237359,0.577963,62.602,-9855.44,-519.657,0.561782,3.50054,2.4579,-2363.58,9098.29,-2370.05,0.261721,2.41193,0.729322,-3869.5,-9074.79,-1438.27,-1.80496,7.68845,0.404615,8683.7,1075.86,4542.31,-4.02379,0.92274,-0.334842
0.282,4428.61,-3105.07,8050.8,-1.16731,0.780133,0.453591,4484.6,2968.75,8040.38,-2.53418,-0.0942283,-0.51325,-561.302,9719.62,-1584.41,-0.734314,0.170179,0.606521,99.166,-9883.41,-500.662,0.614939,3.55326,2.42421,-2386.87,9092.22,-2364.52,0.462422,2.32643,0.654002,-3892.38,-9073.48,-1442.11,-1.80185,7.69903,0.387412,8663.0,1093.81,4530.83,-4.07129,1.04022,-0.352907
0.283,4443.54,-3106.81,8047.28,-1.19506,0.664993,0.43158,4463.47,2972.03,8038.2,-2.53185,-0.0326047,-0.420963,-564.212,9740.67,-1607.98,-0.856885,0.102999,0.63508,135.73,-9911.39,-481.668,0.668096,3.60598,2.39052,-2410.16,9086.15,-2359.0,0.663123,2.24093,0.578681,-3915.25,-9072.16,-1445.95,-1.79874,7.7096,0.370209,8642.3,1111.75,4519.35,-4.11878,1.15771,-0.370973
0.284,4458.47,-3108.55,8043.77,-1.2228,0.549854,0.409569,4442.33,2975.32,8036.03,-2.52952,0.029019,-0.328676,-567.123,9761.71,-1631.55,-0.979457,0.0358197,0.663638,172.294,-9939.36,-462.674,0.721253,3.6587,2.35684,-2433.45,9080.08,-2353.47,0.863825,2.15543,0.503361,-3938.12,-9070.84,-1449.79,-1.79562,7.72018,0.353006,8621.6,1129.69,4507.87,-4.16628,1.27519,-0.389038
0.285,4464.66,-3112.8,8042.05,-1.26498,0.519803,0.355441,4434.81,2960.32,8040.39,-2.52155,0.0722978,-0.251466,-555.976,9752.54,-1638.46,-1.00484,0.0570189,0.720463,171.757,-9953.4,-448.92,0.752912,3.56615,2.29802,-2443.9,9074.88,-2335.36,0.931463,1.96641,0.438056,-3953.9,-9063.36,-1444.77,-1.78446,7.70905,0.33239,8618.19,1142.28,4495.92,-4.21997,1.33691,-0.394749
0.286,4463.87,-3119.06,8041.78,-1.31872,0.557822,0.27562,4438.18,2930.69,8049.97,-2.50905,0.100901,-0.186319,-533.582,9719.22,-1632.06,-0.952481,0.148921,0.7999,141.54,-9956.3,-439.359,0.767372,3.35738,2.21909,-2444.08,9070.38,-2307.18,0.892651,1.69458,0.380764,-3963.99,-9050.94,-1432.66,-1.76685,7.68055,0.309045,8628.62,1150.59,4483.58,-4.27861,1.35402,-0.390575
0.287,4463.08,-3125.32,8041.5,-1.37245,0.595841,0.195799,4441.54,2901.06,8059.56,-2.49656,0.129504,-0.121171,-511.188,9685.89,-1625.66,-0.900119,0.240823,0.879338,111.323,-9959.19,-429.797,0.781832,3.14861,2.14017,-2444.27,9065.89,-2279.0,0.853839,1.42275,0.323471,-3974.08,-9038.53,-1420.55,-1.74925,7.65206,0.2857,8639.06,1158.9,4471.25,-4.33725,1.37114,-0.386402
0.288,4462.29,-3131.58,8041.23,-1.42619,0.63386,0.115978,4444.91,2871.43,8069.15,-2.48407,0.158107,-0.0560232,-488.795,9652.57,-1619.26,-0.847756,0.332726,0.958776,81.1054,-9962.09,-420.236,0.796292,2.93984,2.06125,-2444.45,9061.39,-2250.82,0.815028,1.15092,0.266179,-3984.17,-9026.11,-1408.43,-1.73164,7.62356,0.262354,8649.49,1167.21,4458.92,-4.39589,1.38825,-0.382228
0.289,4460.58,-3137.37,8042.68,-1.47579,0.667975,0.0419439,4448.39,2842.49,8078.57,-2.46835,0.182764,-0.00426324,-468.494,9621.27,-1613.45,-0.808583,0.402065,1.0219,57.182,-9964.62,-412.884,0.801775,2.74163,1.98534,-2442.14,9059.54,-2228.14,0.783331,0.899523,0.199742,-3992.62,-9012.43,-1397.95,-1.71273,7.59519,0.246938,8659.8,1171.84,4449.3,-4.46639,1.40238,-0.373433
0.29,4451.54,-3139.36,8057.99,-1.49231,0.670857,0.0142003,4452.71,2819.15,8086.71,-2.42686,0.17586,-0.0596056,-464.934,9606.21,-1612.36,-0.874917,0.290899,0.954519,83.6098,-9964.15,-423.214,0.735443,2.62792,1.93352,-2419.85,9078.8,-2249.51,0.808561,0.811559,0.0601531,-3987.98,-8988.61,-1400.54,-1.68336,7.5678,0.294955,8669.2,1147.04,4461.33,-4.63178,1.39263,-0.32767
0.291,4442.5,-3141.34,8073.3,-1.50883,0.67374,-0.0135432,4457.03,2795.81,8094.84,-2.38536,0.168957,-0.114948,-461.375,9591.15,-1611.27,-0.941251,0.179733,0.887136,110.038,-9963.69,-433.544,0.669111,2.51421,1.8817,-2397.57,9098.05,-2270.89,0.83379,0.723596,-0.079436,-3983.34,-8964.79,-1403.12,-1.65399,7.54042,0.342972,8678.6,1122.24,4473.36,-4.79716,1.38288,-0.281907
0.292,4433.46,-3143.33,8088.61,-1.52535,0.676622,-0.0412867,4461.35,2772.46,8102.98,-2.34387,0.162053,-0.17029,-457.816,9576.09,-1610.17,-1.00759,0.0685676,0.819754,136.465,-9963.23,-443.874,0.602779,2.40051,1.82988,-2375.29,9117.31,-2292.26,0.85902,0.635632,-0.219025,-3978.7,-8940.96,-1405.7,-1.62462,7.51304,0.390989,8688.0,1097.44,4485.39,-4.96254,1.37313,-0.236143
0.293,4424.43,-3145.32,8103.91,-1.54187,0.679505,-0.0690303,4465.67,2749.12,8111.12,-2.30238,0.155149,-0.225633,-454.257,9561.03,-1609.08,-1.07392,-0.0425981,0.752372,162.893,-9962.77,-454.203,0.536447,2.2868,1.77807,-2353.0,9136.57,-2313.63,0.884249,0.547669,-0.358614,-3974.07,-8917.14,-1408.29,-1.59525,7.48566,0.439007,8697.4,1072.63,4497.42,-5.12792,1.36338,-0.19038
0.294,4418.35,-3143.64,8112.08,-1.50234,0.696567,-0.0609796,4457.05,2755.74,8118.33,-2.26017,0.11507,-0.291091,-447.354,9550.19,-1608.32,-1.08769,-0.153764,0.722028,175.045,-9964.16,-462.415,0.518508,2.12974,1.70102,-2350.52,9145.49,-2321.88,0.847479,0.497627,-0.417596,-3984.03,-8914.94,-1396.24,-1.56255,7.45336,0.515123,8701.56,1069.09,4493.07,-5.21361,1.43006,-0.226541
0.295,4413.75,-3140.13,8116.69,-1.43478,0.720719,-0.0350318,4441.95,2777.34,8125.07,-2.21761,0.0584033,-0.361606,-438.779,9541.46,-1607.72,-1.07517,-0.26493,0.710203,180.059,-9966.47,-469.569,0.524766,1.95102,1.61136,-2357.94,9149.24,-2323.57,0.779708,0.466547,-0.436275,-4001.29,-8923.56,-1376.89,-1.52817,7.4186,0.605289,8703.12,1076.18,4480.52,-5.25945,1.53494,-0.303666
0.296,4409.15,-3136.62,8121.29,-1.36721,0.744871,-0.00908402,4426.86,2798.94,8131.81,-2.17505,0.00173692,-0.432122,-430.204,9532.73,-1607.11,-1.06266,-0.376095,0.698378,185.073,-9968.78,-476.723,0.531023,1.77229,1.5217,-2365.36,9152.99,-2325.26,0.711937,0.435466,-0.454954,-4018.55,-8932.17,-1357.53,-1.4938,7.38383,0.695455,8704.67,1083.26,4467.97,-5.3053,1.63982,-0.38079
0.297,4404.55,-3133.11,8125.89,-1.29965,0.769023,0.0168638,4411.76,2820.54,8138.54,-2.13248,-0.0549295,-0.502638,-421.628,9524.0,-1606.51,-1.05014,-0.487261,0.686553,190.087,-9971.1,-483.876,0.537281,1.59356,1.43203,-2372.77,9156.75,-2326.95,0.644166,0.404385,-0.473632,-4035.82,-8940.79,-1338.17,-1.45942,7.34907,0.785621,8706.22,1090.35,4455.42,-5.35114,1.7447,-0.457914
0.298,4402.85,-3129.48,8125.56,-1.23764,0.790142,0.0433153,4399.59,2838.25,8145.02,-2.09218,-0.0948288,-0.553199,-422.477,9519.54,-1608.02,-1.04121,-0.597475,0.682961,193.386,-9977.31,-480.406,0.517844,1.45088,1.36629,-2372.86,9161.19,-2325.01,0.597513,0.349546,-0.479989,-4051.02,-8950.1,-1317.83,-1.43777,7.30487,0.880443,8706.86,1099.96,4446.75,-5.4105,1.82448,-0.534494
0.299,4411.3,-3125.47,8107.99,-1.19509,0.800646,0.0715299,4397.65,2842.33,8150.55,-2.05977,-0.0760433,-0.53392,-456.311,9530.06,-1616.95,-1.04483,-0.704358,0.708183,190.68,-9997.18,-439.751,0.408476,1.43438,1.38428,-2347.3,9168.04,-2310.33,0.624771,0.211549,-0.443218,-4059.04,-8961.82,-1294.04,-1.46067,7.22763,0.991559,8704.31,1118.4,4451.65,-5.51716,1.81642,-0.609171
0.3,4419.75,-3121.45,8090.42,-1.15253,0.81115,0.0997445,4395.71,2846.4,8156.08,-2.02737,-0.0572578,-0.514641,-490.145,9540.58,-1625.87,-1.04845,-0.811242,0.733405,187.973,-10017.1,-399.097,0.299108,1.41787,1.40226,-2321.74,9174.9,-2295.66,0.65203,0.0735519,-0.406447,-4067.05,-8973.54,-1270.25,-1.48357,7.15038,1.10268,8701.76,1136.84,4456.56,-5.62382,1.80835,-0.683847
0.301,4428.2,-3117.44,8072.85,-1.10997,0.821654,0.127959,4393.77,2850.48,8161.61,-1.99497,-0.0384723,-0.495362,-523.978,9551.09,-1634.8,-1.05207,-0.918125,0.758627,185.267,-10036.9,-358.443,0.18974,1.40137,1.42024,-2296.17,9181.76,-2280.98,0.679289,-0.064445,-0.369676,-4075.07,-8985.27,-1246.46,-1.50646,7.07314,1.21379,8699.21,1155.29,4461.46,-5.73048,1.80029,-0.758524
0.302,4436.65,-3113.42,8055.28,-1.06741,0.832159,0.156174,4391.83,2854.56,8167.14,-1.96257,-0.0196869,-0.476083,-557.812,9561.61,-1643.72,-1.05568,-1.02501,0.783849,182.561,-10056.8,-317.788,0.0803718,1.38486,1.43822,-2270.61,9188.62,-2266.3,0.706548,-0.202442,-0.332906,-4083.08,-8996.99,-1222.67,-1.52936,6.9959,1.32491,8696.66,1173.73,4466.37,-5.83714,1.79223,-0.833201
0.303,4439.95,-3109.42,8039.52,-1.11898,0.820096,0.201958,4401.9,2850.58,8159.3,-1.96557,-0.00477423,-0.450289,-564.431,9554.49,-1653.35,-0.948738,-1.07562,0.77785,183.484,-10042.2,-336.843,0.165535,1.36805,1.38158,-2276.76,9179.44,-2263.96,0.754525,-0.236086,-0.311677,-4079.25,-8988.23,-1223.44,-1.59752,6.81406,1.36858,8701.41,1173.73,4472.7,-5.88444,1.76818,-0.916755
0.304,4441.79,-3105.43,8024.26,-1.19744,0.801585,0.252762,4415.4,2844.3,8147.63,-1.97868,0.00903187,-0.422633,-563.274,9542.34,-1663.18,-0.810203,-1.11014,0.762932,185.444,-10017.7,-372.958,0.306278,1.35115,1.30363,-2291.97,9165.69,-2265.14,0.808422,-0.239914,-0.29489,-4072.02,-8973.62,-1231.24,-1.6786,6.60234,1.39298,8708.26,1168.47,4479.43,-5.91478,1.73957,-1.00285
0.305,4443.63,-3101.44,8009.01,-1.2759,0.783075,0.303566,4428.9,2838.01,8135.96,-1.9918,0.022838,-0.394978,-562.117,9530.18,-1673.01,-0.671668,-1.14467,0.748013,187.404,-9993.2,-409.072,0.447021,1.33425,1.22567,-2307.17,9151.94,-2266.32,0.862318,-0.243743,-0.278103,-4064.8,-8959.01,-1239.04,-1.75969,6.39062,1.41738,8715.1,1163.21,4486.17,-5.94511,1.71095,-1.08894
0.306,4445.47,-3097.45,7993.75,-1.35436,0.764564,0.35437,4442.4,2831.73,8124.29,-2.00492,0.0366441,-0.367322,-560.961,9518.02,-1682.84,-0.533133,-1.1792,0.733095,189.364,-9968.71,-445.187,0.587764,1.31736,1.14771,-2322.38,9138.19,-2267.49,0.916215,-0.247571,-0.261315,-4057.57,-8944.4,-1246.84,-1.84078,6.17891,1.44179,8721.94,1157.95,4492.91,-5.97545,1.68233,-1.17503
0.307,4447.57,-3100.21,7986.33,-1.4014,0.760101,0.395734,4453.41,2832.95,8115.92,-2.01119,0.00150492,-0.37873,-551.651,9507.09,-1683.95,-0.455068,-1.18805,0.714282,192.692,-9956.31,-468.546,0.628442,1.30933,1.03795,-2321.44,9129.14,-2263.49,0.970602,-0.287118,-0.262153,-4057.84,-8932.48,-1249.36,-1.8844,5.96761,1.43707,8727.43,1151.98,4502.0,-5.9945,1.6345,-1.21654
0.308,4450.22,-3116.45,7994.58,-1.38562,0.78373,0.418216,4459.45,2849.17,8114.16,-2.00378,-0.131525,-0.468265,-526.034,9498.61,-1667.62,-0.497944,-1.14555,0.687679,198.755,-9968.05,-466.395,0.468992,1.31906,0.864553,-2288.2,9129.5,-2249.12,1.02597,-0.3981,-0.29824,-4073.1,-8925.96,-1241.31,-1.85309,5.75718,1.37413,8730.2,1144.59,4515.82,-5.99096,1.54823,-1.16891
0.309,4452.87,-3132.7,8002.82,-1.36983,0.80736,0.440698,4465.48,2865.4,8112.39,-1.99637,-0.264554,-0.5578,-500.418,9490.12,-1651.29,-0.54082,-1.10304,0.661077,204.818,-9979.8,-464.244,0.309542,1.32878,0.69116,-2254.97,9129.86,-2234.74,1.08134,-0.509082,-0.334328,-4088.36,-8919.44,-1233.27,-1.82177,5.54675,1.31118,8732.98,1137.2,4529.64,-5.98743,1.46196,-1.12127
0.31,4455.52,-3148.95,8011.06,-1.35405,0.83099,0.46318,4471.51,2881.62,8110.63,-1.98896,-0.397584,-0.647334,-474.801,9481.64,-1634.96,-0.583696,-1.06054,0.634474,210.882,-9991.54,-462.093,0.150091,1.3385,0.517767,-2221.73,9130.22,-2220.37,1.13671,-0.620064,-0.370415,-4103.62,-8912.92,-1225.22,-1.79046,5.33632,1.24824,8735.75,1129.81,4543.46,-5.98389,1.37569,-1.07363
0.311,4458.17,-3165.19,8019.3,-1.33826,0.854619,0.485662,4477.55,2897.85,8108.87,-1.98154,-0.530614,-0.736869,-449.185,9473.16,-1618.64,-0.626572,-1.01803,0.607872,216.945,-10003.3,-459.941,-0.00935912,1.34823,0.344375,-2188.5,9130.58,-2206.0,1.19208,-0.731046,-0.406503,-4118.88,-8906.4,-1217.18,-1.75915,5.12589,1.1853,8738.53,1122.43,4557.27,-5.98035,1.28942,-1.02599
0.312,4472.24,-3156.36,8027.07,-1.30483,0.801175,0.420479,4481.44,2897.42,8117.28,-1.91485,-0.573699,-0.740347,-455.749,9512.31,-1615.02,-0.669902,-1.09254,0.602201,217.954,-9990.56,-449.294,-0.0431205,1.28774,0.441021,-2199.24,9149.24,-2231.21,1.22506,-0.775745,-0.189924,-4110.98,-8915.45,-1206.32,-1.84258,4.9455,1.25073,8740.3,1143.84,4549.42,-6.02658,1.30237,-1.08354
0.313,4487.73,-3144.39,8034.78,-1.26919,0.738096,0.344338,4485.06,2894.9,8126.97,-1.84075,-0.605542,-0.733067,-466.336,9557.42,-1613.0,-0.713289,-1.18168,0.599146,218.332,-9974.77,-437.584,-0.0611707,1.21847,0.571423,-2215.49,9170.19,-2261.37,1.25523,-0.812159,0.0582386,-4100.18,-8926.44,-1195.11,-1.94036,4.76888,1.3322,8741.95,1168.85,4538.85,-6.07903,1.32772,-1.15424
0.314,4503.23,-3132.43,8042.49,-1.23354,0.675018,0.268197,4488.68,2892.39,8136.65,-1.76665,-0.637384,-0.725788,-476.923,9602.53,-1610.98,-0.756676,-1.27082,0.596091,218.71,-9958.99,-425.875,-0.0792209,1.1492,0.701824,-2231.73,9191.14,-2291.53,1.28541,-0.848573,0.306401,-4089.38,-8937.43,-1183.9,-2.03813,4.59225,1.41368,8743.59,1193.86,4528.29,-6.13148,1.35306,-1.22493
0.315,4518.72,-3120.46,8050.19,-1.1979,0.61194,0.192056,4492.3,2889.87,8146.34,-1.69255,-0.669227,-0.718509,-487.51,9647.64,-1608.96,-0.800062,-1.35996,0.593037,219.089,-9943.2,-414.165,-0.0972711,1.07993,0.832226,-2247.98,9212.09,-2321.69,1.31559,-0.884987,0.554563,-4078.59,-8948.43,-1172.7,-2.1359,4.41562,1.49516,8745.24,1218.88,4517.73,-6.18393,1.37841,-1.29563
0.316,4525.59,-3115.58,8049.19,-1.17623,0.630613,0.143367,4492.1,2883.42,8152.12,-1.62659,-0.645939,-0.697936,-480.816,9664.17,-1615.87,-0.801401,-1.41566,0.627133,229.141,-9930.07,-404.727,-0.10586,1.01081,0.864614,-2244.5,9220.13,-2331.29,1.28818,-0.968353,0.691218,-4069.34,-8953.41,-1163.94,-2.24996,4.20778,1.57822,8740.44,1227.85,4504.26,-6.18717,1.37605,-1.34786
0.317,4521.69,-3119.54,8037.29,-1.17202,0.751476,0.128992,4487.13,2872.03,8153.01,-1.57081,-0.553738,-0.660747,-452.52,9644.99,-1633.94,-0.750178,-1.42955,0.707668,251.285,-9920.26,-398.128,-0.102622,0.941854,0.774487,-2216.36,9212.03,-2315.19,1.18879,-1.11041,0.688489,-4062.05,-8950.89,-1158.24,-2.38438,3.9609,1.66326,8727.59,1216.79,4487.16,-6.1289,1.33905,-1.37701
0.318,4517.78,-3123.5,8025.4,-1.1678,0.872339,0.114616,4482.16,2860.65,8153.9,-1.51503,-0.461537,-0.623558,-424.224,9625.81,-1652.02,-0.698956,-1.44345,0.788203,273.429,-9910.44,-391.529,-0.0993841,0.872901,0.684359,-2188.22,9203.93,-2299.09,1.08939,-1.25246,0.685759,-4054.75,-8948.36,-1152.55,-2.5188,3.71403,1.7483,8714.75,1205.72,4470.06,-6.07063,1.30206,-1.40617
0.319,4513.88,-3127.47,8013.5,-1.16359,0.993202,0.100241,4477.19,2849.26,8154.78,-1.45924,-0.369336,-0.586369,-395.929,9606.63,-1670.1,-0.647733,-1.45735,0.868739,295.574,-9900.63,-384.93,-0.0961461,0.803949,0.594232,-2160.09,9195.82,-2282.99,0.989998,-1.39452,0.68303,-4047.45,-8945.84,-1146.85,-2.65321,3.46715,1.83335,8701.9,1194.66,4452.97,-6.01236,1.26507,-1.43532
0.32,4509.97,-3131.43,8001.61,-1.15938,1.11406,0.0858656,4472.22,2837.88,8155.67,-1.40346,-0.277135,-0.54918,-367.633,9587.45,-1688.17,-0.596511,-1.47124,0.949274,317.718,-9890.82,-378.33,-0.0929082,0.734996,0.504104,-2131.95,9187.72,-2266.9,0.890603,-1.53658,0.680301,-4040.15,-8943.32,-1141.15,-2.78763,3.22028,1.91839,8689.05,1183.59,4435.87,-5.95409,1.22807,-1.46448
0.321,4494.28,-3145.32,8018.49,-1.2378,1.09096,0.0744006,4466.07,2860.63,8128.29,-1.43454,-0.244051,-0.533638,-372.617,9586.32,-1695.34,-0.675218,-1.47332,0.883566,318.523,-9902.7,-391.489,-0.0823274,0.740842,0.518104,-2127.53,9214.08,-2266.38,0.86961,-1.62474,0.819285,-4035.94,-8957.54,-1152.7,-2.86076,2.87169,1.9045,8719.87,1184.78,4456.78,-5.85694,1.08317,-1.42133
