Time,RFoot_accel.x,RFoot_accel.y,RFoot_accel.z,RFoot_gyro.x,RFoot_gyro.y,RFoot_gyro.z,LFoot_accel.x,LFoot_accel.y,LFoot_accel.z,LFoot_gyro.x,LFoot_gyro.y,LFoot_gyro.z,RShank_accel.x,RShank_accel.y,RShank_accel.z,RShank_gyro.x,RShank_gyro.y,RShank_gyro.z,LShank_accel.x,LShank_accel.y,LShank_accel.z,LShank_gyro.x,LShank_gyro.y,LShank_gyro.z,RThigh_accel.x,RThigh_accel.y,RThigh_accel.z,RThigh_gyro.x,RThigh_gyro.y,RThigh_gyro.z,LThigh_accel.x,LThigh_accel.y,LThigh_accel.z,LThigh_gyro.x,LThigh_gyro.y,LThigh_gyro.z,Pelvis_accel.x,Pelvis_accel.y,Pelvis_accel.z,Pelvis_gyro.x,Pelvis_gyro.y,Pelvis_gyro.z
0.0,4386.07,-3118.9,8106.66,0.651888,1.03757,0.183758,4396.13,2744.22,8078.04,-0.542035,-0.912918,-0.552752,-140.492,9590.7,-1549.98,-1.29959,1.13818,-0.308128,284.437,-9895.77,-526.715,-0.402658,-0.244203,-0.207419,-1918.56,9273.53,-2181.92,-1.01702,5.3393,0.132184,-3494.53,-9179.54,-1199.45,-5.1867,-3.09494,-0.317908,9047.06,1258.25,4145.94,2.60142,1.33752,2.29771
0.001,4383.16,-3114.25,8114.45,0.570282,1.06177,0.185845,4400.35,2749.23,8078.71,-0.463595,-0.886772,-0.593914,-169.003,9589.45,-1563.72,-1.37109,1.046,-0.322025,279.014,-9882.41,-531.263,-0.438637,-0.180223,-0.226386,-1937.1,9248.38,-2193.91,-1.01953,5.45427,0.0701787,-3518.96,-9180.55,-1207.34,-5.32081,-3.08537,-0.516189,9042.2,1242.32,4127.83,2.527,1.37031,2.25228
0.002,4380.25,-3109.59,8122.23,0.488676,1.08598,0.187933,4404.58,2754.24,8079.38,-0.385156,-0.860625,-0.635075,-197.514,9588.2,-1577.45,-1.4426,0.953812,-0.335921,273.591,-9869.05,-535.811,-0.474616,-0.116242,-0.245352,-1955.64,9223.24,-2205.91,-1.02205,5.56924,0.00817297,-3543.39,-9181.57,-1215.23,-5.45492,-3.07581,-0.714469,9037.35,1226.38,4109.72,2.45257,1.4031,2.20685
0.003,4377.34,-3104.94,8130.02,0.40707,1.11018,0.190021,4408.8,2759.25,8080.05,-0.306716,-0.834479,-0.676236,-226.025,9586.95,-1591.19,-1.5141,0.861627,-0.349817,268.168,-9855.69,-540.359,-0.510595,-0.0522621,-0.264319,-1974.18,9198.09,-2217.9,-1.02456,5.68422,-0.0538328,-3567.82,-9182.58,-1223.12,-5.58903,-3.06624,-0.91275,9032.5,1210.45,4091.61,2.37815,1.43589,2.16142
0.004,4374.43,-3100.29,8137.81,0.325463,1.13438,0.192109,4413.03,2764.25,8080.72,-0.228276,-0.808332,-0.717398,-254.536,9585.7,-1604.92,-1.5856,0.769442,-0.363714,262.745,-9842.34,-544.907,-0.546574,0.0117181,-0.283286,-1992.72,9172.95,-2229.9,-1.02707,5.79919,-0.115839,-3592.25,-9183.59,-1231.01,-5.72313,-3.05667,-1.11103,9027.65,1194.51,4073.5,2.30373,1.46868,2.11599
0.005,4364.23,-3102.15,8134.49,0.32932,1.17609,0.240267,4414.51,2761.16,8093.66,-0.238168,-0.810405,-0.75108,-273.402,9592.64,-1605.53,-1.56013,0.72075,-0.375918,254.299,-9853.02,-546.966,-0.568519,0.0361328,-0.291232,-1987.51,9174.22,-2238.96,-0.926103,5.87197,-0.147596,-3593.37,-9174.0,-1241.14,-5.73927,-3.0824,-1.16411,9017.96,1192.57,4060.94,2.27419,1.42464,2.16984
0.006,4348.21,-3109.22,8122.3,0.401546,1.23181,0.325283,4413.79,2751.57,8116.41,-0.318723,-0.835053,-0.77878,-284.552,9606.12,-1595.64,-1.45708,0.706854,-0.38677,243.433,-9882.93,-547.034,-0.579237,0.0288949,-0.290362,-1963.31,9196.64,-2245.68,-0.742346,5.911,-0.155155,-3575.84,-9155.92,-1253.05,-5.66102,-3.13637,-1.10103,9004.39,1201.82,4052.82,2.28056,1.31913,2.30311
0.007,4332.19,-3116.29,8110.1,0.473772,1.28753,0.410299,4413.07,2741.99,8139.16,-0.399279,-0.859701,-0.80648,-295.701,9619.6,-1585.75,-1.35403,0.692958,-0.397621,232.567,-9912.85,-547.103,-0.589955,0.021657,-0.289492,-1939.11,9219.06,-2252.4,-0.558589,5.95002,-0.162713,-3558.31,-9137.84,-1264.97,-5.58277,-3.19034,-1.03795,8990.82,1211.07,4044.71,2.28693,1.21362,2.43637
0.008,4316.17,-3123.35,8097.9,0.545999,1.34326,0.495314,4412.35,2732.41,8161.92,-0.479835,-0.884348,-0.834179,-306.851,9633.09,-1575.85,-1.25098,0.679061,-0.408473,221.702,-9942.76,-547.171,-0.600673,0.0144191,-0.288622,-1914.91,9241.47,-2259.12,-0.374832,5.98904,-0.170272,-3540.78,-9119.76,-1276.89,-5.50452,-3.24431,-0.974863,8977.25,1220.32,4036.59,2.2933,1.1081,2.56964
0.009,4304.52,-3130.55,8087.85,0.612416,1.38501,0.558964,4409.83,2723.43,8181.34,-0.552351,-0.900172,-0.861599,-314.238,9646.83,-1565.86,-1.15899,0.666741,-0.41398,212.793,-9967.47,-546.958,-0.611385,-0.00396948,-0.292121,-1896.34,9263.7,-2261.65,-0.223505,6.0153,-0.172728,-3523.26,-9109.17,-1287.13,-5.43029,-3.31066,-0.924801,8965.53,1227.51,4027.8,2.31499,1.01443,2.6833
0.01,4327.89,-3138.84,8095.01,0.632358,1.315,0.451684,4392.83,2719.28,8174.18,-0.56054,-0.845402,-0.886783,-291.52,9662.68,-1555.04,-1.15544,0.667025,-0.376734,219.536,-9950.54,-544.499,-0.622045,-0.111564,-0.330568,-1922.81,9284.42,-2230.69,-0.331618,5.93943,-0.134366,-3505.82,-9158.5,-1284.04,-5.38815,-3.47602,-0.978902,8968.57,1218.25,4013.56,2.45924,1.01545,2.64014
0.011,4351.26,-3147.12,8102.17,0.6523,1.245,0.344404,4375.83,2715.13,8167.02,-0.568729,-0.790631,-0.911967,-268.802,9678.53,-1544.23,-1.1519,0.667309,-0.339487,226.279,-9933.6,-542.04,-0.632706,-0.219158,-0.369016,-1949.27,9305.14,-2199.72,-0.439731,5.86357,-0.0960041,-3488.38,-9207.84,-1280.94,-5.34602,-3.64138,-1.033,8971.61,1208.99,3999.32,2.6035,1.01647,2.59697
0.012,4374.63,-3155.4,8109.33,0.672242,1.17499,0.237124,4358.84,2710.98,8159.85,-0.576918,-0.735861,-0.937151,-246.084,9694.38,-1533.42,-1.14835,0.667594,-0.302241,233.022,-9916.66,-539.58,-0.643367,-0.326752,-0.407464,-1975.74,9325.86,-2168.76,-0.547843,5.7877,-0.0576421,-3470.95,-9257.17,-1277.84,-5.30388,-3.80674,-1.0871,8974.64,1199.73,3985.08,2.74775,1.01749,2.55381
0.013,4398.0,-3163.68,8116.5,0.692184,1.10499,0.129845,4341.84,2706.83,8152.69,-0.585107,-0.68109,-0.962335,-223.365,9710.23,-1522.61,-1.14481,0.667878,-0.264995,239.765,-9899.73,-537.121,-0.654028,-0.434346,-0.445912,-2002.21,9346.58,-2137.8,-0.655956,5.71183,-0.0192801,-3453.51,-9306.51,-1274.75,-5.26174,-3.9721,-1.1412,8977.68,1190.46,3970.85,2.89201,1.01852,2.51064
0.014,4398.64,-3163.38,8132.42,0.701638,1.0899,0.121216,4359.32,2705.68,8151.24,-0.519965,-0.638631,-0.958757,-231.9,9708.48,-1512.32,-1.11943,0.759091,-0.170725,255.378,-9895.21,-546.105,-0.677933,-0.438841,-0.472295,-1999.69,9342.59,-2132.01,-0.730998,5.67749,-0.0677856,-3467.56,-9292.88,-1273.78,-5.23822,-3.98058,-1.09641,8987.37,1179.79,3968.17,2.90954,1.06096,2.45647
0.015,4387.92,-3158.79,8152.72,0.705848,1.10226,0.161914,4394.04,2706.04,8152.65,-0.418158,-0.602327,-0.940798,-256.061,9697.94,-1502.29,-1.08313,0.895768,-0.0479446,275.427,-9896.91,-560.811,-0.708461,-0.391786,-0.492647,-1982.69,9326.26,-2138.8,-0.789505,5.66391,-0.159725,-3497.37,-9247.78,-1273.89,-5.22399,-3.91063,-1.00216,9000.39,1168.41,3971.28,2.8637,1.12411,2.3968
0.016,4377.2,-3154.2,8173.02,0.710058,1.11462,0.202611,4428.76,2706.39,8154.06,-0.316351,-0.566022,-0.92284,-280.222,9687.39,-1492.27,-1.04684,1.03245,0.0748363,295.476,-9898.61,-575.517,-0.738989,-0.344731,-0.512999,-1965.69,9309.92,-2145.6,-0.848012,5.65033,-0.251664,-3527.17,-9202.67,-1273.99,-5.20977,-3.84067,-0.907915,9013.4,1157.03,3974.39,2.81786,1.18726,2.33713
0.017,4366.48,-3149.61,8193.32,0.714268,1.12698,0.243308,4463.47,2706.74,8155.47,-0.214545,-0.529718,-0.904882,-304.383,9676.84,-1482.24,-1.01054,1.16912,0.197617,315.525,-9900.31,-590.223,-0.769516,-0.297676,-0.533351,-1948.69,9293.59,-2152.39,-0.906519,5.63675,-0.343603,-3556.98,-9157.57,-1274.1,-5.19555,-3.77072,-0.813669,9026.42,1145.65,3977.49,2.77203,1.25041,2.27746
0.018,4359.04,-3144.66,8207.61,0.70256,1.13351,0.279026,4489.42,2708.27,8153.79,-0.14632,-0.513213,-0.918005,-324.201,9670.92,-1472.36,-0.984055,1.27335,0.284917,328.777,-9902.15,-607.054,-0.796901,-0.266009,-0.54827,-1936.86,9281.77,-2155.12,-0.941278,5.60358,-0.388254,-3573.68,-9124.74,-1276.13,-5.17617,-3.693,-0.773521,9033.64,1135.0,3982.61,2.72849,1.27512,2.21871
0.019,4363.08,-3138.43,8200.84,0.63514,1.11964,0.297317,4484.66,2713.9,8141.29,-0.195631,-0.566003,-1.03991,-328.821,9681.15,-1462.98,-0.99189,1.264,0.248033,318.239,-9904.48,-631.32,-0.813282,-0.288201,-0.544174,-1943.16,9285.77,-2143.6,-0.892923,5.50184,-0.267395,-3544.53,-9134.9,-1284.93,-5.13876,-3.5881,-0.922717,9020.61,1126.93,3994.77,2.69301,1.16531,2.1632
0.02,4367.13,-3132.2,8194.07,0.567719,1.10576,0.315608,4479.91,2719.54,8128.78,-0.244943,-0.618793,-1.16182,-333.441,9691.38,-1453.6,-0.999725,1.25465,0.211149,307.702,-9906.81,-655.587,-0.829664,-0.310392,-0.540079,-1949.45,9289.77,-2132.08,-0.844568,5.4001,-0.146536,-3515.39,-9145.05,-1293.73,-5.10135,-3.4832,-1.07191,9007.58,1118.85,4006.93,2.65753,1.0555,2.10769
0.021,4371.17,-3125.97,8187.3,0.500299,1.09189,0.333898,4475.15,2725.17,8116.28,-0.294255,-0.671584,-1.28373,-338.061,9701.61,-1444.22,-1.00756,1.2453,0.174264,297.164,-9909.15,-679.854,-0.846046,-0.332584,-0.535983,-1955.74,9293.77,-2120.56,-0.796213,5.29836,-0.0256767,-3486.24,-9155.21,-1302.53,-5.06394,-3.3783,-1.22111,8994.55,1110.77,4019.09,2.62205,0.945685,2.05218
0.022,4375.22,-3119.75,8180.53,0.432878,1.07802,0.352189,4470.39,2730.8,8103.78,-0.343566,-0.724374,-1.40564,-342.681,9711.84,-1434.84,-1.0154,1.23595,0.13738,286.626,-9911.48,-704.12,-0.862428,-0.354775,-0.531888,-1962.04,9297.77,-2109.04,-0.747858,5.19662,0.0951824,-3457.09,-9165.36,-1311.33,-5.02653,-3.2734,-1.37031,8981.52,1102.69,4031.25,2.58657,0.835872,1.99667
0.023,4387.5,-3127.57,8160.82,0.398157,1.04731,0.388377,4461.55,2727.59,8086.76,-0.328368,-0.738407,-1.20115,-337.597,9705.38,-1440.96,-0.98602,1.26334,0.0518758,300.199,-9913.06,-689.026,-0.896041,-0.338036,-0.550654,-1968.2,9305.96,-2117.22,-0.807834,5.16324,0.119731,-3437.55,-9152.32,-1322.46,-5.1194,-3.3598,-1.39851,8970.98,1120.81,4016.06,2.58532,0.854048,2.06345
0.024,4402.13,-3139.41,8137.4,0.372778,1.01179,0.429678,4451.53,2721.84,8068.44,-0.294739,-0.741367,-0.903409,-329.741,9694.14,-1451.5,-0.946013,1.30122,-0.0475201,320.66,-9914.43,-662.685,-0.934577,-0.310175,-0.575951,-1974.33,9315.34,-2131.03,-0.898761,5.1494,0.116762,-3420.76,-9132.64,-1334.26,-5.2495,-3.50085,-1.39215,8961.15,1146.4,3993.06,2.59385,0.908793,2.16518
0.025,4416.77,-3151.25,8113.98,0.347398,0.976274,0.470979,4441.52,2716.1,8050.12,-0.26111,-0.744326,-0.605664,-321.884,9682.9,-1462.04,-0.906006,1.3391,-0.146916,341.121,-9915.8,-636.344,-0.973113,-0.282313,-0.601249,-1980.47,9324.72,-2144.84,-0.989688,5.13556,0.113793,-3403.98,-9112.97,-1346.05,-5.3796,-3.64191,-1.38578,8951.32,1172.0,3970.07,2.60238,0.963539,2.26691
0.026,4431.4,-3163.08,8090.57,0.322019,0.940754,0.512281,4431.51,2710.36,8031.8,-0.22748,-0.747286,-0.307918,-314.027,9671.66,-1472.59,-0.866,1.37699,-0.246312,361.582,-9917.17,-610.004,-1.01165,-0.254452,-0.626546,-1986.6,9334.11,-2158.65,-1.08062,5.12171,0.110825,-3387.19,-9093.29,-1357.85,-5.5097,-3.78296,-1.37942,8941.49,1197.6,3947.07,2.61091,1.01828,2.36863
0.027,4438.4,-3172.34,8071.55,0.306951,0.930982,0.515783,4424.87,2712.51,8023.43,-0.228144,-0.708274,-0.157243,-295.576,9663.88,-1479.28,-0.830681,1.43068,-0.312894,378.665,-9919.07,-594.547,-1.04507,-0.20767,-0.662196,-1992.13,9335.73,-2170.75,-1.12177,5.09554,0.11245,-3376.36,-9083.1,-1367.46,-5.5607,-3.82006,-1.31932,8928.5,1207.21,3932.22,2.57633,1.0254,2.42503
0.028,4430.13,-3176.45,8061.34,0.312505,0.972706,0.443689,4425.0,2730.47,8034.94,-0.297393,-0.585321,-0.300709,-255.934,9663.02,-1478.26,-0.804737,1.51596,-0.313848,388.993,-9922.0,-600.858,-1.06826,-0.123049,-0.718551,-1996.46,9321.85,-2179.44,-1.06337,5.04472,0.123263,-3377.45,-9091.87,-1372.67,-5.45347,-3.64924,-1.15176,8909.22,1184.86,3933.69,2.45553,0.937255,2.39076
0.029,4421.87,-3180.56,8051.13,0.31806,1.01443,0.371594,4425.13,2748.42,8046.46,-0.366642,-0.462368,-0.444174,-216.293,9662.15,-1477.25,-0.778793,1.60125,-0.314803,399.321,-9924.94,-607.169,-1.09144,-0.0384286,-0.774906,-2000.8,9307.97,-2188.13,-1.00497,4.99389,0.134076,-3378.54,-9100.65,-1377.88,-5.34625,-3.47842,-0.9842,8889.94,1162.51,3935.16,2.33472,0.849111,2.3565
0.03,4413.6,-3184.67,8040.91,0.323614,1.05615,0.2995,4425.26,2766.37,8057.98,-0.435892,-0.339415,-0.587639,-176.652,9661.29,-1476.23,-0.752849,1.68654,-0.315757,409.649,-9927.88,-613.48,-1.11463,0.0461922,-0.831261,-2005.14,9294.08,-2196.82,-0.946565,4.94306,0.144889,-3379.63,-9109.42,-1383.09,-5.23903,-3.30761,-0.816638,8870.66,1140.16,3936.63,2.21392,0.760967,2.32223
0.031,4405.34,-3188.77,8030.7,0.329168,1.09788,0.227406,4425.39,2784.33,8069.5,-0.505141,-0.216462,-0.731105,-137.011,9660.42,-1475.22,-0.726906,1.77182,-0.316712,419.977,-9930.82,-619.792,-1.13782,0.130813,-0.887616,-2009.48,9280.2,-2205.51,-0.888164,4.89224,0.155703,-3380.72,-9118.19,-1388.3,-5.13181,-3.13679,-0.649075,8851.38,1117.81,3938.1,2.09312,0.672823,2.28796
0.032,4411.12,-3169.32,8037.27,0.311735,1.1862,0.207065,4417.29,2794.97,8076.58,-0.573296,-0.24548,-0.771944,-154.242,9646.12,-1470.0,-0.711671,1.73227,-0.257038,408.721,-9918.82,-607.416,-1.15899,0.0930121,-0.852824,-2008.1,9268.11,-2212.64,-0.866522,4.75787,0.240196,-3381.7,-9127.88,-1370.07,-5.09736,-3.13167,-0.713279,8840.35,1121.17,3934.46,2.04446,0.718554,2.20177
0.033,4418.66,-3146.93,8045.94,0.291429,1.28035,0.193193,4408.15,2804.71,8083.1,-0.641315,-0.293495,-0.799956,-178.582,9630.15,-1464.27,-0.697774,1.67711,-0.189785,394.767,-9904.96,-592.704,-1.17991,0.0399085,-0.806639,-2006.02,9256.25,-2219.58,-0.849475,4.61306,0.3339,-3382.66,-9137.69,-1348.91,-5.07202,-3.14726,-0.806453,8830.36,1127.75,3930.18,2.00482,0.781021,2.10908
0.034,4426.2,-3124.53,8054.61,0.271123,1.3745,0.179321,4399.02,2814.44,8089.62,-0.709333,-0.34151,-0.827967,-202.923,9614.18,-1458.53,-0.683878,1.62195,-0.122532,380.813,-9891.09,-577.992,-1.20083,-0.0131952,-0.760454,-2003.93,9244.38,-2226.51,-0.832427,4.46826,0.427604,-3383.62,-9147.51,-1327.74,-5.04668,-3.16285,-0.899627,8820.37,1134.32,3925.9,1.96517,0.843487,2.01639
0.035,4433.74,-3102.13,8063.29,0.250818,1.46865,0.16545,4389.9,2824.18,8096.14,-0.777352,-0.389525,-0.855979,-227.263,9598.2,-1452.8,-0.669982,1.56679,-0.0552792,366.858,-9877.22,-563.281,-1.22174,-0.0662988,-0.714269,-2001.84,9232.52,-2233.45,-0.815379,4.32345,0.521308,-3384.58,-9157.32,-1306.58,-5.02133,-3.17844,-0.992801,8810.37,1140.9,3921.62,1.92553,0.905953,1.9237
0.036,4442.06,-3094.4,8068.53,0.247633,1.50829,0.172337,4388.55,2825.3,8102.29,-0.83796,-0.399686,-0.829503,-255.645,9593.59,-1453.03,-0.663845,1.5778,-0.0244491,356.967,-9862.6,-554.185,-1.19074,-0.0801188,-0.671562,-2009.17,9229.5,-2238.59,-0.757078,4.21305,0.594105,-3384.46,-9165.6,-1290.73,-5.01213,-3.10771,-1.04868,8802.69,1155.08,3924.26,1.94691,0.905208,1.86805
0.037,4451.34,-3105.0,8069.51,0.265851,1.47981,0.205173,4396.92,2815.65,8107.96,-0.889306,-0.362529,-0.734917,-289.08,9603.19,-1460.7,-0.667408,1.67151,-0.0391473,352.153,-9847.03,-552.108,-1.09485,-0.0448341,-0.633202,-2028.28,9237.53,-2241.49,-0.647209,4.14566,0.640769,-3382.99,-9171.97,-1281.51,-5.0231,-2.92907,-1.05795,8797.92,1178.76,3935.55,2.04456,0.825448,1.85869
0.038,4460.63,-3115.59,8070.48,0.284069,1.45132,0.238008,4405.3,2806.0,8113.63,-0.940653,-0.325371,-0.640331,-322.514,9612.79,-1468.38,-0.670971,1.76522,-0.0538456,347.339,-9831.46,-550.031,-0.998947,-0.00954938,-0.594843,-2047.39,9245.57,-2244.4,-0.537339,4.07828,0.687432,-3381.52,-9178.34,-1272.29,-5.03406,-2.75044,-1.06722,8793.14,1202.45,3946.83,2.14221,0.745689,1.84932
0.039,4469.91,-3126.19,8071.45,0.302287,1.42283,0.270844,4413.68,2796.35,8119.31,-0.991999,-0.288214,-0.545745,-355.949,9622.39,-1476.06,-0.674534,1.85893,-0.0685438,342.525,-9815.88,-547.955,-0.903049,0.0257353,-0.556484,-2066.5,9253.6,-2247.3,-0.42747,4.01089,0.734096,-3380.05,-9184.71,-1263.07,-5.04503,-2.5718,-1.07649,8788.37,1226.13,3958.11,2.23986,0.66593,1.83996
0.04,4479.19,-3136.79,8072.42,0.320505,1.39434,0.303679,4422.05,2786.7,8124.98,-1.04334,-0.251057,-0.451159,-389.383,9631.98,-1483.74,-0.678096,1.95264,-0.0832421,337.711,-9800.31,-545.878,-0.80715,0.06102,-0.518124,-2085.61,9261.64,-2250.2,-0.317601,3.9435,0.780759,-3378.57,-9191.08,-1253.85,-5.056,-2.39316,-1.08576,8783.59,1249.81,3969.4,2.33751,0.58617,1.8306
0.041,4480.28,-3157.94,8085.03,0.375494,1.42208,0.346956,4423.56,2807.4,8123.96,-1.05425,-0.163194,-0.49773,-389.536,9629.08,-1498.76,-0.754228,1.94559,-0.0370536,348.329,-9819.59,-553.149,-0.814302,0.0828209,-0.522075,-2083.66,9250.38,-2254.6,-0.359441,3.81472,0.725232,-3373.28,-9157.54,-1268.0,-5.02254,-2.23922,-0.880283,8775.25,1246.98,3974.5,2.28357,0.590537,1.81791
0.042,4481.37,-3179.09,8097.65,0.430482,1.44982,0.390232,4425.07,2828.09,8122.94,-1.06516,-0.075331,-0.544301,-389.689,9626.18,-1513.78,-0.830359,1.93855,0.00913487,358.946,-9838.88,-560.42,-0.821453,0.104622,-0.526025,-2081.7,9239.13,-2258.99,-0.401282,3.68593,0.669705,-3367.99,-9124.0,-1282.15,-4.98907,-2.08529,-0.674806,8766.91,1244.15,3979.6,2.22964,0.594903,1.80522
0.043,4482.46,-3200.24,8110.26,0.485471,1.47757,0.433509,4426.58,2848.79,8121.92,-1.07607,0.0125319,-0.590872,-389.842,9623.28,-1528.8,-0.906491,1.9315,0.0553233,369.564,-9858.16,-567.69,-0.828605,0.126423,-0.529976,-2079.75,9227.88,-2263.39,-0.443122,3.55714,0.614178,-3362.7,-9090.47,-1296.3,-4.95561,-1.93135,-0.46933,8758.57,1241.31,3984.71,2.17571,0.599269,1.79253
0.044,4483.55,-3221.39,8122.87,0.54046,1.50531,0.476785,4428.09,2869.49,8120.9,-1.08697,0.100395,-0.637443,-389.996,9620.37,-1543.82,-0.982622,1.92445,0.101512,380.182,-9877.44,-574.961,-0.835756,0.148224,-0.533927,-2077.8,9216.62,-2267.78,-0.484962,3.42836,0.558651,-3357.4,-9056.93,-1310.45,-4.92215,-1.77741,-0.263853,8750.23,1238.48,3989.81,2.12177,0.603635,1.77984
0.045,4480.9,-3234.88,8130.61,0.554482,1.48883,0.467001,4415.27,2883.39,8125.49,-1.08943,0.0366747,-0.642752,-385.269,9619.46,-1548.56,-1.00381,1.89956,0.13462,381.08,-9887.51,-587.322,-0.907592,0.163598,-0.539274,-2077.87,9216.15,-2265.06,-0.474595,3.39779,0.50468,-3358.31,-9055.25,-1329.92,-4.85758,-1.61927,-0.237447,8755.12,1240.91,3985.54,2.08065,0.684604,1.79502
0.046,4475.26,-3242.24,8134.44,0.535732,1.43698,0.414766,4391.0,2891.84,8134.56,-1.08513,-0.148312,-0.615052,-376.64,9620.15,-1545.07,-0.981053,1.86038,0.157263,374.203,-9890.21,-603.754,-1.03118,0.17383,-0.545738,-2079.55,9224.31,-2256.65,-0.422462,3.44579,0.451954,-3364.18,-9079.05,-1353.64,-4.76813,-1.45777,-0.354298,8770.58,1247.56,3973.78,2.04977,0.826855,1.83249
0.047,4469.62,-3249.59,8138.28,0.516981,1.38513,0.362532,4366.72,2900.3,8143.63,-1.08083,-0.333299,-0.587353,-368.01,9620.84,-1541.58,-0.958292,1.82121,0.179907,367.327,-9892.92,-620.186,-1.15476,0.184062,-0.552203,-2081.24,9232.46,-2248.23,-0.370329,3.49379,0.399227,-3370.05,-9102.85,-1377.36,-4.67868,-1.29626,-0.47115,8786.05,1254.2,3962.02,2.01889,0.969107,1.86997
0.048,4463.99,-3256.95,8142.12,0.498231,1.33328,0.310298,4342.45,2908.76,8152.7,-1.07653,-0.518285,-0.559653,-359.38,9621.52,-1538.1,-0.935532,1.78204,0.20255,360.45,-9895.62,-636.619,-1.27835,0.194295,-0.558667,-2082.92,9240.62,-2239.82,-0.318196,3.5418,0.3465,-3375.92,-9126.65,-1401.07,-4.58923,-1.13476,-0.588001,8801.51,1260.84,3950.26,1.98802,1.11136,1.90744
0.049,4457.89,-3260.97,8145.56,0.476294,1.28207,0.261581,4323.96,2914.28,8161.82,-1.07755,-0.672707,-0.531763,-351.931,9623.17,-1536.58,-0.916194,1.74413,0.233295,353.811,-9896.91,-650.705,-1.3802,0.195836,-0.559734,-2082.71,9246.42,-2231.82,-0.264249,3.57847,0.284418,-3379.45,-9144.54,-1421.99,-4.50801,-0.978854,-0.680902,8817.76,1268.5,3940.16,1.93873,1.23601,1.94104
0.05,4448.17,-3238.29,8145.88,0.428859,1.23598,0.241,4351.71,2896.34,8171.35,-1.12112,-0.582606,-0.502351,-353.922,9632.53,-1550.79,-0.924242,1.71634,0.328852,349.073,-9886.87,-646.02,-1.30824,0.12785,-0.51762,-2067.35,9233.35,-2227.07,-0.195785,3.5245,0.14749,-3364.29,-9115.14,-1420.5,-4.49266,-0.867724,-0.582205,8840.28,1284.28,3943.4,1.74216,1.21985,1.94372
0.051,4438.44,-3215.6,8146.2,0.381424,1.1899,0.220418,4379.47,2878.41,8180.89,-1.16469,-0.492506,-0.472939,-355.914,9641.88,-1565.0,-0.93229,1.68854,0.424408,344.336,-9876.83,-641.336,-1.23628,0.0598643,-0.475505,-2051.99,9220.28,-2222.33,-0.127321,3.47053,0.0105615,-3349.13,-9085.74,-1419.01,-4.47731,-0.756595,-0.483508,8862.8,1300.05,3946.63,1.54559,1.20369,1.94639
0.052,4428.71,-3192.92,8146.51,0.333989,1.14381,0.199837,4407.23,2860.47,8190.43,-1.20826,-0.402406,-0.443527,-357.905,9651.24,-1579.22,-0.940339,1.66075,0.519965,339.598,-9866.79,-636.651,-1.16432,-0.00812167,-0.433391,-2036.63,9207.21,-2217.59,-0.0588566,3.41655,-0.126367,-3333.97,-9056.34,-1417.52,-4.46196,-0.645466,-0.38481,8885.32,1315.83,3949.87,1.34902,1.18753,1.94907
0.053,4418.99,-3170.23,8146.83,0.286554,1.09772,0.179256,4434.98,2842.53,8199.96,-1.25182,-0.312305,-0.414116,-359.897,9660.59,-1593.43,-0.948387,1.63296,0.615521,334.86,-9856.75,-631.967,-1.09235,-0.0761077,-0.391276,-2021.27,9194.14,-2212.85,0.00960755,3.36258,-0.263295,-3318.81,-9026.94,-1416.04,-4.44661,-0.534337,-0.286113,8907.84,1331.6,3953.1,1.15245,1.17138,1.95175
0.054,4421.22,-3154.76,8140.67,0.22952,1.09514,0.18803,4445.73,2826.27,8198.07,-1.19112,-0.261902,-0.386385,-367.461,9670.96,-1596.81,-0.961765,1.59567,0.634544,340.876,-9860.66,-620.209,-1.0271,-0.100492,-0.398854,-2028.34,9197.13,-2214.43,0.0659345,3.2514,-0.380965,-3335.86,-9060.07,-1405.41,-4.42081,-0.429692,-0.192095,8906.55,1339.51,3948.84,1.12327,1.21754,1.90886
0.055,4429.44,-3142.89,8131.27,0.167688,1.1143,0.211481,4447.96,2810.84,8190.46,-1.07827,-0.231347,-0.359495,-377.812,9681.84,-1594.78,-0.977809,1.55363,0.6153,352.268,-9871.56,-604.914,-0.965202,-0.103075,-0.431278,-2046.62,9208.16,-2219.16,0.116193,3.11161,-0.489006,-3369.02,-9124.45,-1390.23,-4.38978,-0.328288,-0.100417,8893.34,1343.47,3940.83,1.17778,1.29485,1.84319
0.056,4437.65,-3131.01,8121.88,0.105855,1.13346,0.234933,4450.2,2795.42,8182.86,-0.965429,-0.200792,-0.332606,-388.162,9692.72,-1592.74,-0.993852,1.51159,0.596056,363.659,-9882.46,-589.619,-0.903303,-0.105657,-0.463702,-2064.89,9219.19,-2223.9,0.166451,2.97183,-0.597046,-3402.18,-9188.84,-1375.04,-4.35876,-0.226885,-0.0087395,8880.14,1347.44,3932.82,1.2323,1.37217,1.77752
0.057,4445.87,-3119.14,8112.48,0.0440231,1.15262,0.258384,4452.44,2780.0,8175.25,-0.852585,-0.170238,-0.305716,-398.513,9703.6,-1590.7,-1.0099,1.46955,0.576812,375.051,-9893.36,-574.324,-0.841404,-0.10824,-0.496126,-2083.17,9230.21,-2228.63,0.21671,2.83204,-0.705087,-3435.33,-9253.22,-1359.85,-4.32773,-0.125481,0.0829385,8866.93,1351.41,3924.81,1.28681,1.44949,1.71185
0.058,4452.08,-3111.15,8104.36,0.00209636,1.15082,0.276453,4455.43,2764.83,8168.12,-0.777996,-0.15397,-0.298889,-400.321,9712.46,-1582.08,-1.00653,1.41925,0.560241,383.163,-9902.55,-562.9,-0.787452,-0.0942788,-0.513877,-2097.0,9234.94,-2232.76,0.270936,2.70536,-0.816931,-3455.48,-9302.56,-1343.54,-4.29522,-0.040438,0.145065,8858.83,1359.39,3925.44,1.31511,1.54584,1.68077
0.059,4451.3,-3116.75,8100.69,0.0298397,1.07569,0.275679,4461.08,2750.58,8162.65,-0.837301,-0.187709,-0.362279,-372.23,9714.27,-1550.44,-0.935214,1.34008,0.553023,379.794,-9905.77,-565.024,-0.761316,-0.0224117,-0.480275,-2095.27,9217.6,-2234.76,0.339049,2.62451,-0.942086,-3430.1,-9299.23,-1323.3,-4.25748,-0.0126557,0.103761,8868.6,1381.42,3956.34,1.25168,1.7088,1.77077
0.06,4450.52,-3122.34,8097.03,0.057583,1.00055,0.274906,4466.72,2736.32,8157.19,-0.896606,-0.221447,-0.42567,-344.14,9716.08,-1518.79,-0.863901,1.2609,0.545805,376.425,-9908.99,-567.148,-0.73518,0.0494554,-0.446672,-2093.53,9200.26,-2236.76,0.407162,2.54367,-1.06724,-3404.73,-9295.91,-1303.07,-4.21974,0.0151266,0.0624567,8878.37,1403.45,3987.23,1.18824,1.87177,1.86077
0.061,4449.74,-3127.94,8093.36,0.0853263,0.925419,0.274133,4472.36,2722.07,8151.73,-0.955911,-0.255185,-0.489061,-316.05,9717.89,-1487.14,-0.792588,1.18173,0.538588,373.056,-9912.21,-569.272,-0.709044,0.121323,-0.41307,-2091.79,9182.92,-2238.76,0.475275,2.46283,-1.1924,-3379.35,-9292.58,-1282.84,-4.182,0.0429089,0.0211527,8888.14,1425.48,4018.13,1.1248,2.03473,1.95077
0.062,4448.96,-3133.54,8089.69,0.11307,0.850285,0.273359,4478.01,2707.81,8146.27,-1.01522,-0.288923,-0.552452,-287.96,9719.69,-1455.49,-0.721276,1.10255,0.53137,369.686,-9915.43,-571.396,-0.682908,0.19319,-0.379467,-2090.06,9165.58,-2240.76,0.543388,2.38198,-1.31755,-3353.98,-9289.25,-1262.6,-4.14426,0.0706911,-0.0201514,8897.91,1447.51,4049.02,1.06137,2.19769,2.04078
0.063,4442.32,-3123.95,8101.27,0.083565,0.778882,0.309998,4468.22,2729.94,8152.23,-1.08497,-0.295324,-0.59937,-297.074,9713.08,-1462.67,-0.713521,1.09148,0.489674,365.567,-9911.14,-560.31,-0.675885,0.204779,-0.344321,-2075.8,9189.85,-2229.62,0.566561,2.29029,-1.24738,-3349.08,-9280.15,-1254.51,-4.18558,0.0999855,0.00783816,8904.46,1440.68,4067.37,0.993302,2.13361,2.11544
0.064,4434.01,-3110.03,8117.2,0.0377039,0.708546,0.357326,4454.03,2762.46,8161.47,-1.1577,-0.293913,-0.641582,-316.818,9704.06,-1480.93,-0.723925,1.09986,0.438127,361.234,-9904.69,-545.45,-0.674323,0.199145,-0.308734,-2057.96,9226.01,-2214.72,0.576894,2.1955,-1.12139,-3350.04,-9269.4,-1249.89,-4.24948,0.129712,0.0556259,8910.08,1425.6,4082.12,0.923912,2.00467,2.18572
0.065,4425.7,-3096.11,8133.13,-0.00815717,0.63821,0.404655,4439.83,2794.98,8170.71,-1.23043,-0.292502,-0.683794,-336.562,9695.04,-1499.2,-0.734329,1.10825,0.38658,356.901,-9898.25,-530.59,-0.672761,0.193512,-0.273147,-2040.12,9262.17,-2199.83,0.587227,2.10072,-0.995407,-3351.0,-9258.65,-1245.27,-4.31339,0.159438,0.103414,8915.7,1410.53,4096.87,0.854522,1.87572,2.25601
0.066,4417.39,-3082.19,8149.06,-0.0540183,0.567874,0.451983,4425.64,2827.5,8179.94,-1.30317,-0.291091,-0.726006,-356.307,9686.01,-1517.47,-0.744733,1.11663,0.335032,352.567,-9891.81,-515.73,-0.671198,0.187879,-0.23756,-2022.28,9298.34,-2184.93,0.59756,2.00593,-0.869422,-3351.96,-9247.9,-1240.65,-4.37729,0.189165,0.151201,8921.32,1395.46,4111.63,0.785133,1.74677,2.32629
0.067,4408.33,-3071.38,8152.87,-0.066984,0.532167,0.479389,4421.5,2838.89,8189.79,-1.34092,-0.309578,-0.781073,-369.009,9681.28,-1528.37,-0.777891,1.12992,0.313613,348.777,-9892.03,-500.948,-0.672314,0.186684,-0.225679,-2015.44,9330.03,-2171.69,0.636915,1.93249,-0.791069,-3350.15,-9250.44,-1233.01,-4.40699,0.220066,0.17955,8925.46,1389.56,4122.98,0.78364,1.63265,2.4008
0.068,4397.78,-3066.78,8132.43,-0.0141589,0.56572,0.46695,4437.45,2808.02,8200.86,-1.3087,-0.367859,-0.861851,-367.626,9685.13,-1524.53,-0.856557,1.153,0.352449,346.072,-9905.61,-486.324,-0.678784,0.194365,-0.26121,-2030.61,9352.8,-2161.75,0.734316,1.90173,-0.80798,-3342.78,-9279.57,-1219.34,-4.36827,0.253316,0.169021,8926.64,1401.99,4127.55,0.917942,1.54819,2.48377
0.069,4387.24,-3062.19,8111.98,0.0386662,0.599273,0.454512,4453.41,2777.14,8211.94,-1.27649,-0.426141,-0.942629,-366.244,9688.97,-1520.68,-0.935223,1.17608,0.391285,343.367,-9919.18,-471.701,-0.685255,0.202046,-0.296741,-2045.77,9375.57,-2151.82,0.831717,1.87098,-0.824891,-3335.41,-9308.7,-1205.67,-4.32956,0.286566,0.158492,8927.82,1414.43,4132.12,1.05224,1.46373,2.56674
0.07,4376.69,-3057.59,8091.54,0.0914912,0.632826,0.442073,4469.37,2746.27,8223.01,-1.24427,-0.484423,-1.02341,-364.862,9692.82,-1516.83,-1.01389,1.19916,0.430121,340.662,-9932.75,-457.077,-0.691725,0.209727,-0.332272,-2060.93,9398.34,-2141.88,0.929117,1.84022,-0.841802,-3328.05,-9337.83,-1191.99,-4.29084,0.319816,0.147963,8929.01,1426.86,4136.69,1.18655,1.37927,2.64971
0.071,4366.14,-3053.0,8071.1,0.144316,0.666379,0.429635,4485.33,2715.4,8234.09,-1.21206,-0.542704,-1.10419,-363.48,9696.67,-1512.99,-1.09255,1.22224,0.468957,337.957,-9946.33,-442.453,-0.698196,0.217409,-0.367803,-2076.1,9421.1,-2131.94,1.02652,1.80947,-0.858712,-3320.68,-9366.96,-1178.32,-4.25212,0.353066,0.137434,8930.19,1439.3,4141.25,1.32085,1.29481,2.73268
0.072,4359.3,-3064.59,8073.88,0.148983,0.65094,0.435019,4491.59,2711.49,8216.17,-1.02808,-0.551237,-1.00448,-348.858,9683.1,-1524.1,-1.02748,1.10158,0.476549,351.444,-9943.78,-453.958,-0.720355,0.234773,-0.374584,-2066.95,9420.74,-2132.02,0.988612,1.78568,-0.816179,-3310.78,-9359.64,-1187.92,-4.2448,0.366584,0.0523549,8936.08,1435.06,4135.1,1.22728,1.32123,2.87693
0.073,4352.93,-3078.21,8079.57,0.147631,0.629377,0.442631,4496.64,2710.96,8194.63,-0.825124,-0.553551,-0.88221,-332.581,9667.37,-1537.08,-0.944447,0.96296,0.480236,366.956,-9939.23,-468.731,-0.744475,0.253347,-0.377771,-2054.77,9417.49,-2133.34,0.933792,1.76277,-0.766216,-3300.57,-9347.76,-1200.42,-4.24141,0.377635,-0.0420428,8942.55,1428.74,4127.6,1.10523,1.36151,3.02883
0.074,4346.55,-3091.82,8085.26,0.146278,0.607813,0.450243,4501.69,2710.42,8173.09,-0.622171,-0.555865,-0.759942,-316.303,9651.63,-1550.05,-0.861409,0.824337,0.483923,382.468,-9934.67,-483.503,-0.768596,0.271921,-0.380959,-2042.59,9414.24,-2134.66,0.878972,1.73985,-0.716252,-3290.36,-9335.88,-1212.92,-4.23803,0.388686,-0.136441,8949.03,1422.42,4120.11,0.983182,1.4018,3.18074
0.075,4340.18,-3105.44,8090.94,0.144926,0.58625,0.457855,4506.74,2709.89,8151.55,-0.419218,-0.558178,-0.637674,-300.026,9635.89,-1563.03,-0.778372,0.685715,0.487609,397.98,-9930.11,-498.275,-0.792716,0.290496,-0.384146,-2030.41,9410.99,-2135.99,0.824153,1.71693,-0.666289,-3280.15,-9324.0,-1225.43,-4.23464,0.399736,-0.230838,8955.5,1416.09,4112.62,0.861132,1.44208,3.33265
0.076,4339.62,-3111.83,8100.74,0.0994716,0.569722,0.49859,4496.43,2716.1,8144.9,-0.369514,-0.568865,-0.584223,-290.639,9628.5,-1567.64,-0.742062,0.587272,0.52091,409.197,-9922.56,-512.973,-0.809594,0.305298,-0.392047,-2022.2,9413.04,-2137.9,0.759907,1.65423,-0.598145,-3275.26,-9320.84,-1222.65,-4.12284,0.449261,-0.358312,8960.4,1415.41,4108.98,0.714124,1.43933,3.33772
0.077,4346.34,-3109.2,8115.69,-0.00110909,0.559489,0.580729,4466.91,2730.76,8156.85,-0.51137,-0.590018,-0.616791,-289.864,9631.55,-1561.78,-0.764163,0.539054,0.591229,415.046,-9911.29,-527.579,-0.817418,0.315386,-0.405841,-2018.93,9421.72,-2140.54,0.68388,1.54178,-0.507276,-3277.03,-9328.58,-1200.76,-3.87553,0.546878,-0.52713,8963.32,1421.77,4110.16,0.535919,1.38281,3.15926
0.078,4353.06,-3106.56,8130.63,-0.10169,0.549256,0.662867,4437.4,2745.42,8168.81,-0.653226,-0.61117,-0.649359,-289.089,9634.59,-1555.92,-0.786263,0.490835,0.661548,420.895,-9900.01,-542.184,-0.825243,0.325474,-0.419634,-2015.67,9430.41,-2143.19,0.607853,1.42933,-0.416406,-3278.8,-9336.31,-1178.88,-3.62823,0.644495,-0.695948,8966.24,1428.13,4111.34,0.357714,1.32628,2.98079
0.079,4359.78,-3103.93,8145.57,-0.20227,0.539023,0.745005,4407.88,2760.07,8180.76,-0.795082,-0.632323,-0.681927,-288.314,9637.64,-1550.06,-0.808363,0.442617,0.731866,426.744,-9888.73,-556.79,-0.833068,0.335562,-0.433428,-2012.4,9439.09,-2145.84,0.531826,1.31688,-0.325537,-3280.57,-9344.05,-1156.99,-3.38092,0.742112,-0.864766,8969.16,1434.49,4112.52,0.179509,1.26975,2.80233
0.08,4366.49,-3101.3,8160.51,-0.302851,0.52879,0.827143,4378.37,2774.73,8192.72,-0.936938,-0.653475,-0.714495,-287.538,9640.69,-1544.2,-0.830464,0.394399,0.802185,432.593,-9877.46,-571.396,-0.840893,0.345651,-0.447221,-2009.14,9447.78,-2148.48,0.455799,1.20443,-0.234668,-3282.34,-9351.79,-1135.11,-3.13361,0.839728,-1.03358,8972.09,1440.85,4113.7,0.00130451,1.21323,2.62386
0.081,4364.52,-3102.78,8153.87,-0.304147,0.515697,0.817939,4392.0,2765.65,8197.66,-0.9161,-0.690993,-0.757122,-279.471,9639.5,-1550.82,-0.88689,0.374307,0.836352,423.124,-9879.27,-569.94,-0.808557,0.411318,-0.412893,-2003.69,9436.85,-2156.81,0.488077,1.13573,-0.109569,-3290.89,-9364.42,-1128.4,-3.16139,0.773579,-0.991689,8943.54,1431.33,4122.85,0.0278796,1.06293,2.62356
0.082,4362.55,-3104.27,8147.22,-0.305444,0.502604,0.808735,4405.63,2756.58,8202.6,-0.895263,-0.72851,-0.799748,-271.403,9638.3,-1557.45,-0.943317,0.354214,0.870519,413.654,-9881.08,-568.484,-0.776222,0.476986,-0.378564,-1998.25,9425.92,-2165.14,0.520355,1.06702,0.0155306,-3299.44,-9377.06,-1121.7,-3.18918,0.707429,-0.949793,8914.99,1421.8,4132.0,0.0544548,0.912634,2.62327
0.083,4360.57,-3105.75,8140.58,-0.30674,0.48951,0.79953,4419.27,2747.5,8207.54,-0.874426,-0.766027,-0.842375,-263.336,9637.11,-1564.07,-0.999743,0.334122,0.904686,404.184,-9882.89,-567.029,-0.743886,0.542653,-0.344236,-1992.81,9414.98,-2173.47,0.552633,0.998313,0.14063,-3308.0,-9389.7,-1114.99,-3.21696,0.64128,-0.907897,8886.45,1412.28,4141.16,0.0810299,0.762338,2.62297
0.084,4358.6,-3107.24,8133.94,-0.308036,0.476417,0.790326,4432.9,2738.43,8212.47,-0.853589,-0.803545,-0.885001,-255.268,9635.91,-1570.69,-1.05617,0.31403,0.938852,394.715,-9884.71,-565.573,-0.71155,0.608321,-0.309908,-1987.37,9404.05,-2181.8,0.584911,0.929607,0.265729,-3316.55,-9402.33,-1108.29,-3.24474,0.575131,-0.866002,8857.9,1402.76,4150.31,0.107605,0.612042,2.62268
0.085,4358.93,-3104.22,8127.68,-0.270566,0.446992,0.751297,4429.77,2723.24,8204.26,-0.759592,-0.806052,-0.903682,-254.295,9628.94,-1567.59,-1.0713,0.307332,0.901565,381.508,-9889.18,-565.634,-0.725666,0.588978,-0.274513,-1985.05,9391.26,-2194.84,0.529384,0.883221,0.367567,-3312.2,-9403.56,-1113.91,-3.26641,0.581259,-0.909264,8850.82,1400.11,4143.83,0.10375,0.522854,2.61385
0.086,4361.11,-3097.6,8121.72,-0.202083,0.404502,0.688408,4413.22,2703.15,8185.52,-0.607067,-0.780552,-0.903207,-258.998,9617.33,-1556.71,-1.05338,0.311349,0.807115,365.312,-9895.78,-566.907,-0.776943,0.501628,-0.238265,-1985.23,9376.98,-2211.64,0.403612,0.854689,0.450795,-3297.54,-9395.66,-1129.4,-3.28318,0.645209,-1.02065,8860.91,1402.96,4124.84,0.0755505,0.482551,2.5982
0.087,4363.29,-3090.99,8115.77,-0.133599,0.362013,0.62552,4396.67,2683.07,8166.79,-0.454542,-0.755052,-0.902732,-263.701,9605.73,-1545.83,-1.03547,0.315366,0.712665,349.115,-9902.38,-568.181,-0.82822,0.414277,-0.202018,-1985.42,9362.7,-2228.43,0.27784,0.826158,0.534023,-3282.88,-9387.76,-1144.89,-3.29995,0.70916,-1.13204,8871.0,1405.8,4105.86,0.0473511,0.442248,2.58255
0.088,4365.46,-3084.37,8109.81,-0.0651158,0.319523,0.562631,4380.12,2662.98,8148.05,-0.302017,-0.729552,-0.902257,-268.403,9594.13,-1534.95,-1.01756,0.319383,0.618214,332.918,-9908.98,-569.455,-0.879497,0.326926,-0.165771,-1985.61,9348.41,-2245.23,0.152068,0.797626,0.617252,-3268.21,-9379.87,-1160.37,-3.31673,0.77311,-1.24343,8881.08,1408.65,4086.87,0.0191517,0.401945,2.5669
0.089,4368.5,-3077.66,8104.58,-0.00740525,0.288054,0.508244,4364.69,2648.5,8132.16,-0.182704,-0.709639,-0.908611,-273.394,9584.38,-1525.52,-0.99994,0.324962,0.53655,320.074,-9914.6,-570.119,-0.932219,0.241871,-0.133852,-1982.88,9336.4,-2259.97,0.0391368,0.778341,0.702057,-3255.71,-9373.34,-1174.76,-3.33308,0.834585,-1.34212,8888.55,1410.2,4073.47,-0.0102116,0.366186,2.54494
0.09,4378.37,-3070.27,8105.13,-0.0358781,0.344758,0.521872,4358.23,2678.83,8139.07,-0.329083,-0.734417,-0.9696,-280.687,9589.5,-1527.62,-0.984699,0.343042,0.557172,334.051,-9912.39,-565.901,-0.9965,0.175185,-0.136561,-1956.86,9342.48,-2258.22,0.0289322,0.833025,0.799476,-3260.49,-9377.73,-1180.35,-3.34609,0.876258,-1.3392,8875.05,1401.28,4104.7,-0.0488853,0.366778,2.47259
0.091,4388.24,-3062.88,8105.69,-0.0643509,0.401461,0.5355,4351.76,2709.17,8145.98,-0.475461,-0.759195,-1.03059,-287.981,9594.63,-1529.71,-0.969458,0.361122,0.577794,348.027,-9910.18,-561.683,-1.06078,0.1085,-0.13927,-1930.85,9348.56,-2256.47,0.0187276,0.887709,0.896895,-3265.27,-9382.12,-1185.94,-3.3591,0.917931,-1.33629,8861.54,1392.36,4135.93,-0.0875591,0.36737,2.40024
0.092,4398.12,-3055.49,8106.24,-0.0928238,0.458165,0.549128,4345.3,2739.5,8152.89,-0.62184,-0.783974,-1.09158,-295.274,9599.75,-1531.81,-0.954216,0.379202,0.598415,362.004,-9907.97,-557.465,-1.12506,0.0418136,-0.141979,-1904.83,9354.65,-2254.71,0.00852305,0.942394,0.994314,-3270.05,-9386.51,-1191.53,-3.3721,0.959603,-1.33338,8848.03,1383.44,4167.16,-0.126233,0.367962,2.3279
0.093,4407.99,-3048.1,8106.79,-0.121297,0.514868,0.562756,4338.84,2769.83,8159.8,-0.768218,-0.808752,-1.15257,-302.568,9604.88,-1533.91,-0.938975,0.397282,0.619037,375.98,-9905.76,-553.247,-1.18934,-0.0248724,-0.144688,-1878.81,9360.73,-2252.96,-0.00168153,0.997078,1.09173,-3274.83,-9390.91,-1197.12,-3.38511,1.00128,-1.33046,8834.53,1374.52,4198.39,-0.164907,0.368554,2.25555
0.094,4413.72,-3054.42,8119.38,-0.133151,0.590256,0.581792,4347.9,2771.7,8159.21,-0.785426,-0.791256,-1.20886,-296.761,9606.54,-1546.33,-0.934457,0.439239,0.591839,389.886,-9897.54,-547.427,-1.20976,0.000571477,-0.142058,-1865.31,9356.38,-2258.95,-0.0615928,0.956058,1.19952,-3265.53,-9377.01,-1188.56,-3.44318,1.05525,-1.33663,8830.87,1377.41,4207.45,-0.159294,0.377509,2.14434
0.095,4417.38,-3067.6,8137.99,-0.136696,0.674987,0.603531,4364.72,2759.35,8154.86,-0.738048,-0.752623,-1.26281,-284.404,9606.46,-1563.91,-0.935302,0.493135,0.540731,403.757,-9886.32,-540.804,-1.20826,0.0720803,-0.136759,-1858.07,9346.82,-2268.81,-0.146357,0.867186,1.31248,-3249.19,-9353.98,-1172.92,-3.52377,1.11537,-1.34734,8832.13,1386.21,4205.44,-0.131538,0.390647,2.0137
0.096,4421.04,-3080.78,8156.6,-0.140241,0.759718,0.62527,4381.53,2746.99,8150.51,-0.690671,-0.71399,-1.31675,-272.048,9606.38,-1581.49,-0.936147,0.54703,0.489623,417.628,-9875.09,-534.182,-1.20675,0.143589,-0.13146,-1850.83,9337.26,-2278.66,-0.231122,0.778315,1.42545,-3232.84,-9330.95,-1157.29,-3.60436,1.17549,-1.35805,8833.39,1395.01,4203.42,-0.103782,0.403784,1.88307
0.097,4424.71,-3093.97,8175.21,-0.143787,0.844449,0.647009,4398.35,2734.64,8146.16,-0.643293,-0.675357,-1.3707,-259.691,9606.31,-1599.07,-0.936992,0.600926,0.438515,431.498,-9863.87,-527.559,-1.20524,0.215098,-0.126161,-1843.59,9327.7,-2288.52,-0.315887,0.689443,1.53841,-3216.5,-9307.92,-1141.65,-3.68495,1.23562,-1.36876,8834.66,1403.81,4201.4,-0.0760264,0.416922,1.75244
0.098,4430.74,-3106.41,8189.68,-0.122677,0.912793,0.654272,4411.98,2725.82,8147.73,-0.597799,-0.641852,-1.40439,-247.671,9606.75,-1614.79,-0.945527,0.667549,0.413431,445.015,-9858.3,-523.553,-1.20184,0.284519,-0.114064,-1838.3,9318.45,-2298.22,-0.365345,0.620232,1.61557,-3201.17,-9288.75,-1129.29,-3.704,1.31376,-1.3915,8836.62,1404.81,4196.13,-0.0490606,0.426942,1.65233
0.099,4445.1,-3116.26,8189.67,-0.0152744,0.923781,0.610872,4414.45,2729.37,8170.03,-0.5589,-0.626292,-1.36721,-236.826,9608.98,-1623.97,-0.980976,0.778719,0.479428,457.295,-9872.49,-528.707,-1.19178,0.346632,-0.0781743,-1839.87,9310.29,-2307.34,-0.291229,0.619834,1.56744,-3189.38,-9283.12,-1128.42,-3.50764,1.45496,-1.45637,8841.05,1378.52,4179.5,-0.0248601,0.426054,1.6591
0.1,4459.46,-3126.11,8189.66,0.0921281,0.934769,0.567472,4416.92,2732.93,8192.34,-0.520001,-0.610732,-1.33002,-225.982,9611.22,-1633.16,-1.01643,0.889889,0.545425,469.574,-9886.68,-533.86,-1.18173,0.408745,-0.0422842,-1841.44,9302.14,-2316.46,-0.217114,0.619435,1.5193,-3177.59,-9277.49,-1127.54,-3.31127,1.59616,-1.52125,8845.47,1352.23,4162.87,-0.000659622,0.425165,1.66587
0.101,4473.81,-3135.96,8189.65,0.199531,0.945757,0.524071,4419.4,2736.48,8214.64,-0.481102,-0.595173,-1.29283,-215.137,9613.46,-1642.35,-1.05187,1.00106,0.611423,481.853,-9900.87,-539.013,-1.17167,0.470858,-0.00639412,-1843.01,9293.98,-2325.59,-0.142998,0.619037,1.47116,-3165.8,-9271.86,-1126.66,-3.11491,1.73736,-1.58612,8849.9,1325.93,4146.24,0.0235409,0.424276,1.67264
0.102,4488.17,-3145.81,8189.64,0.306933,0.956745,0.480671,4421.87,2740.04,8236.94,-0.442202,-0.579613,-1.25564,-204.293,9615.7,-1651.53,-1.08732,1.11223,0.67742,494.132,-9915.06,-544.166,-1.16161,0.532971,0.029496,-1844.58,9285.83,-2334.71,-0.0688831,0.618639,1.42302,-3154.01,-9266.23,-1125.78,-2.91855,1.87856,-1.65099,8854.32,1299.64,4129.61,0.0477414,0.423387,1.6794
0.103,4475.66,-3138.0,8180.6,0.321142,0.92223,0.471266,4412.16,2765.15,8238.9,-0.462882,-0.617327,-1.25665,-220.085,9627.39,-1646.99,-1.14111,1.1979,0.655897,494.753,-9916.19,-541.154,-1.15219,0.586631,0.0666498,-1839.97,9280.38,-2332.15,-0.0969831,0.798798,1.38857,-3170.73,-9266.68,-1132.25,-2.83605,2.01626,-1.65678,8858.72,1296.02,4132.61,0.0210437,0.420463,1.60696
0.104,4455.47,-3125.14,8168.97,0.308724,0.874714,0.471574,4398.97,2796.43,8235.03,-0.500583,-0.670261,-1.26858,-243.488,9641.79,-1638.52,-1.20013,1.27628,0.609369,492.042,-9913.58,-535.81,-1.14295,0.637876,0.104165,-1833.61,9275.69,-2326.25,-0.154287,1.03055,1.35803,-3195.61,-9268.87,-1140.82,-2.78608,2.15297,-1.64569,8863.11,1298.88,4141.22,-0.0201964,0.416958,1.51189
0.105,4435.29,-3112.28,8157.35,0.296306,0.827198,0.471882,4385.77,2827.71,8231.17,-0.538284,-0.723196,-1.2805,-266.891,9656.19,-1630.06,-1.25915,1.35466,0.56284,489.332,-9910.98,-530.465,-1.1337,0.68912,0.141679,-1827.24,9271.01,-2320.35,-0.211592,1.26229,1.3275,-3220.48,-9271.06,-1149.39,-2.73611,2.28969,-1.6346,8867.49,1301.74,4149.84,-0.0614365,0.413452,1.41682
0.106,4415.1,-3099.42,8145.72,0.283888,0.779682,0.47219,4372.58,2858.98,8227.3,-0.575986,-0.77613,-1.29243,-290.293,9670.58,-1621.59,-1.31817,1.43304,0.516311,486.622,-9908.38,-525.12,-1.12446,0.740365,0.179194,-1820.88,9266.32,-2314.45,-0.268896,1.49404,1.29696,-3245.36,-9273.24,-1157.96,-2.68614,2.4264,-1.6235,8871.88,1304.6,4158.45,-0.102677,0.409947,1.32175
0.107,4393.45,-3087.93,8140.46,0.264091,0.74495,0.470042,4362.27,2871.22,8219.56,-0.574764,-0.841213,-1.28871,-304.249,9672.49,-1611.3,-1.34214,1.48346,0.463967,488.516,-9898.05,-525.376,-1.1168,0.790024,0.232567,-1819.5,9261.56,-2311.25,-0.369311,1.68221,1.30497,-3262.1,-9281.55,-1162.17,-2.67778,2.51195,-1.62847,8871.34,1305.32,4158.43,-0.188889,0.449639,1.23603
0.108,4368.86,-3079.18,8147.94,0.229538,0.735786,0.46298,4357.73,2845.37,8204.05,-0.495694,-0.930591,-1.25371,-299.312,9649.4,-1597.36,-1.296,1.47796,0.399993,499.618,-9872.31,-536.83,-1.11232,0.836512,0.317654,-1828.11,9256.65,-2313.46,-0.555948,1.78322,1.39008,-3262.59,-9302.08,-1157.64,-2.75262,2.49519,-1.66554,8860.96,1301.75,4141.15,-0.365044,0.575726,1.16901
0.109,4344.28,-3070.43,8155.41,0.194985,0.726622,0.455919,4353.19,2819.53,8188.54,-0.416625,-1.01997,-1.21872,-294.374,9626.31,-1583.42,-1.24986,1.47245,0.336018,510.721,-9846.56,-548.285,-1.10783,0.882999,0.402741,-1836.72,9251.74,-2315.68,-0.742584,1.88423,1.4752,-3263.07,-9322.6,-1153.11,-2.82747,2.47843,-1.70262,8850.57,1298.17,4123.88,-0.5412,0.701813,1.10199
0.11,4319.69,-3061.68,8162.89,0.160432,0.717458,0.448857,4348.65,2793.69,8173.03,-0.337556,-1.10935,-1.18372,-289.437,9603.23,-1569.48,-1.20372,1.46694,0.272044,521.824,-9820.81,-559.74,-1.10334,0.929486,0.487829,-1845.33,9246.83,-2317.89,-0.929221,1.98523,1.56031,-3263.56,-9343.13,-1148.58,-2.90231,2.46168,-1.73969,8840.18,1294.6,4106.6,-0.717356,0.8279,1.03498
0.111,4295.1,-3052.93,8170.36,0.125879,0.708295,0.441796,4344.11,2767.84,8157.52,-0.258487,-1.19873,-1.14872,-284.5,9580.14,-1555.54,-1.15758,1.46143,0.20807,532.926,-9795.06,-571.194,-1.09886,0.975974,0.572916,-1853.94,9241.92,-2320.1,-1.11586,2.08624,1.64542,-3264.04,-9363.66,-1144.04,-2.97716,2.44492,-1.77677,8829.79,1291.02,4089.32,-0.893512,0.953987,0.967958
0.112,4312.71,-3059.28,8165.94,0.0780158,0.690257,0.46272,4369.11,2769.35,8159.84,-0.211556,-1.14409,-1.13553,-289.391,9572.92,-1562.99,-1.25711,1.44607,0.203018,532.143,-9813.91,-576.594,-1.18534,1.00108,0.594948,-1848.55,9252.17,-2339.31,-1.14292,2.17499,1.67316,-3245.31,-9341.1,-1152.14,-2.88669,2.54536,-1.72092,8809.15,1278.54,4093.06,-0.788771,1.07713,0.919946
0.113,4335.58,-3067.52,8160.04,0.0284885,0.67111,0.487142,4397.8,2774.27,8164.38,-0.168643,-1.07145,-1.12508,-295.511,9567.67,-1573.11,-1.37484,1.42947,0.205331,529.875,-9838.32,-581.236,-1.28319,1.02351,0.609098,-1841.42,9264.31,-2360.65,-1.15004,2.26219,1.69373,-3224.17,-9313.14,-1161.81,-2.77556,2.66045,-1.65344,8787.22,1264.95,4099.43,-0.648917,1.1999,0.87431
0.114,4358.46,-3075.76,8154.14,-0.0210387,0.651963,0.511564,4426.5,2779.19,8168.94,-0.12573,-0.998808,-1.11462,-301.63,9562.43,-1583.22,-1.49258,1.41286,0.207644,527.607,-9862.74,-585.879,-1.38105,1.04594,0.623248,-1834.28,9276.46,-2381.99,-1.15716,2.3494,1.71429,-3203.03,-9285.19,-1171.49,-2.66444,2.77555,-1.58597,8765.29,1251.36,4105.8,-0.509064,1.32267,0.828674
0.115,4381.34,-3084.0,8148.24,-0.070566,0.632817,0.535986,4455.19,2784.12,8173.48,-0.0828169,-0.926168,-1.10417,-307.75,9557.18,-1593.34,-1.61031,1.39626,0.209957,525.338,-9887.16,-590.521,-1.4789,1.06837,0.637398,-1827.14,9288.6,-2403.33,-1.16428,2.43661,1.73486,-3181.89,-9257.24,-1181.16,-2.55331,2.89064,-1.5185,8743.36,1237.76,4112.16,-0.36921,1.44544,0.783038
0.116,4394.48,-3086.68,8137.33,-0.0865588,0.599953,0.550526,4469.39,2785.75,8178.61,-0.10629,-0.869183,-1.0968,-307.989,9567.56,-1601.57,-1.64973,1.37174,0.22673,515.763,-9898.58,-596.546,-1.48375,1.10493,0.650692,-1819.98,9290.22,-2416.23,-1.18431,2.55118,1.74252,-3178.27,-9241.53,-1192.64,-2.47151,3.0539,-1.48892,8746.83,1242.56,4111.57,-0.334928,1.50658,0.723971
0.117,4395.45,-3082.41,8120.17,-0.0606335,0.549942,0.552711,4465.48,2783.27,8184.45,-0.212746,-0.831767,-1.09328,-300.875,9597.46,-1607.45,-1.59126,1.33732,0.261577,497.055,-9893.74,-604.298,-1.37235,1.15916,0.662916,-1812.78,9278.68,-2418.57,-1.22049,2.69993,1.73403,-3196.56,-9241.11,-1206.38,-2.42638,3.27737,-1.50669,8782.04,1270.35,4102.29,-0.432609,1.49068,0.648116
0.118,4396.42,-3078.14,8103.01,-0.0347083,0.499931,0.554897,4461.58,2780.78,8190.29,-0.319202,-0.794351,-1.08977,-293.762,9627.37,-1613.32,-1.53279,1.3029,0.296425,478.347,-9888.89,-612.05,-1.26095,1.21338,0.675141,-1805.59,9267.14,-2420.92,-1.25666,2.84868,1.72554,-3214.85,-9240.7,-1220.12,-2.38125,3.50084,-1.52446,8817.24,1298.13,4093.01,-0.530289,1.47478,0.572261
0.119,4397.4,-3073.87,8085.86,-0.00878298,0.449921,0.557082,4457.67,2778.3,8196.13,-0.425659,-0.756935,-1.08626,-286.649,9657.27,-1619.2,-1.47432,1.26848,0.331272,459.64,-9884.05,-619.802,-1.14954,1.26761,0.687365,-1798.39,9255.6,-2423.27,-1.29284,2.99743,1.71705,-3233.14,-9240.28,-1233.86,-2.33611,3.72431,-1.54223,8852.45,1325.92,4083.72,-0.62797,1.45889,0.496406
0.12,4398.37,-3069.6,8068.7,0.0171423,0.39991,0.559268,4453.76,2775.82,8201.97,-0.532115,-0.719519,-1.08274,-279.536,9687.18,-1625.08,-1.41585,1.23406,0.36612,440.932,-9879.21,-627.554,-1.03814,1.32183,0.699589,-1791.2,9244.06,-2425.61,-1.32901,3.14619,1.70856,-3251.43,-9239.87,-1247.59,-2.29098,3.94778,-1.56001,8887.66,1353.7,4074.44,-0.725651,1.44299,0.420551
0.121,4406.58,-3073.54,8072.64,-0.0394477,0.429808,0.517653,4441.31,2774.31,8189.64,-0.481037,-0.787395,-1.06526,-288.604,9677.39,-1621.13,-1.3423,1.18607,0.408929,436.266,-9885.55,-618.569,-1.06566,1.41249,0.779227,-1805.75,9250.83,-2424.81,-1.30749,3.22343,1.68669,-3250.14,-9249.31,-1249.79,-2.3877,4.00687,-1.58375,8892.66,1342.04,4043.29,-0.718297,1.52137,0.383841
0.122,4414.79,-3077.48,8076.58,-0.0960378,0.459705,0.476039,4428.86,2772.8,8177.31,-0.429958,-0.855271,-1.04778,-297.673,9667.6,-1617.18,-1.26876,1.13808,0.451739,431.599,-9891.88,-609.583,-1.09318,1.50315,0.858864,-1820.3,9257.61,-2424.01,-1.28596,3.30067,1.66482,-3248.86,-9258.75,-1251.98,-2.48441,4.06595,-1.60748,8897.67,1330.38,4012.15,-0.710943,1.59974,0.34713
0.123,4423.01,-3081.42,8080.52,-0.152628,0.489603,0.434425,4416.41,2771.29,8164.99,-0.37888,-0.923147,-1.03029,-306.742,9657.81,-1613.23,-1.19522,1.09008,0.494548,426.933,-9898.22,-600.598,-1.1207,1.5938,0.938501,-1834.85,9264.38,-2423.2,-1.26444,3.37792,1.64295,-3247.57,-9268.19,-1254.18,-2.58112,4.12504,-1.63122,8902.67,1318.72,3981.0,-0.703588,1.67812,0.310419
0.124,4431.22,-3085.36,8084.46,-0.209218,0.519501,0.392811,4403.96,2769.77,8152.66,-0.327802,-0.991024,-1.01281,-315.811,9648.02,-1609.28,-1.12167,1.04209,0.537358,422.267,-9904.56,-591.612,-1.14822,1.68446,1.01814,-1849.4,9271.15,-2422.4,-1.24291,3.45516,1.62107,-3246.29,-9277.63,-1256.37,-2.67784,4.18412,-1.65496,8907.67,1307.06,3949.86,-0.696234,1.75649,0.273709
0.125,4433.57,-3101.64,8095.43,-0.208225,0.535625,0.341552,4403.25,2775.29,8153.89,-0.294674,-1.02392,-1.00008,-323.779,9641.49,-1600.86,-1.16494,1.01962,0.575228,425.424,-9908.36,-593.249,-1.20501,1.74976,1.0491,-1868.21,9270.02,-2416.48,-1.21982,3.52931,1.6054,-3255.97,-9269.01,-1250.83,-2.74794,4.22206,-1.65454,8892.54,1300.11,3955.3,-0.718072,1.82236,0.162502
0.126,4431.22,-3127.77,8112.03,-0.161165,0.540732,0.282578,4411.94,2786.42,8165.95,-0.275907,-1.02884,-0.991148,-330.867,9637.56,-1588.87,-1.30165,1.01757,0.609147,434.839,-9910.14,-603.382,-1.28522,1.79477,1.04112,-1890.43,9262.55,-2406.48,-1.19548,3.60099,1.59468,-3274.43,-9245.94,-1239.1,-2.79674,4.24308,-1.63479,8861.29,1296.92,3990.01,-0.763265,1.87823,-0.0083007
0.127,4428.87,-3153.91,8128.63,-0.114106,0.545838,0.223603,4420.62,2797.55,8178.02,-0.25714,-1.03376,-0.982216,-337.954,9633.63,-1576.87,-1.43836,1.01552,0.643066,444.254,-9911.92,-613.516,-1.36543,1.83978,1.03314,-1912.64,9255.09,-2396.47,-1.17114,3.67266,1.58396,-3292.89,-9222.86,-1227.37,-2.84555,4.26411,-1.61504,8830.04,1293.74,4024.72,-0.808457,1.9341,-0.179104
0.128,4426.52,-3180.05,8145.24,-0.0670463,0.550945,0.164628,4429.3,2808.68,8190.09,-0.238373,-1.03868,-0.973284,-345.041,9629.7,-1564.88,-1.57507,1.01348,0.676985,453.67,-9913.69,-623.65,-1.44564,1.8848,1.02516,-1934.86,9247.63,-2386.47,-1.1468,3.74434,1.57324,-3311.35,-9199.79,-1215.64,-2.89435,4.28513,-1.5953,8798.8,1290.56,4059.42,-0.85365,1.98997,-0.349907
0.129,4425.05,-3201.91,8160.08,-0.0224042,0.553801,0.113322,4435.52,2817.05,8200.52,-0.216579,-1.0449,-0.96824,-351.082,9624.94,-1553.38,-1.69652,1.00035,0.700397,463.097,-9916.33,-632.174,-1.5066,1.91463,1.01944,-1957.83,9239.42,-2376.65,-1.13566,3.80959,1.57176,-3329.2,-9180.89,-1204.9,-2.93981,4.30911,-1.57519,8773.26,1286.35,4086.52,-0.901959,2.05552,-0.493765
0.13,4430.68,-3189.57,8160.88,0.00289896,0.538653,0.123364,4421.98,2803.31,8197.93,-0.170572,-1.06156,-0.994295,-348.752,9613.54,-1545.84,-1.69589,0.898658,0.639758,472.624,-9925.82,-627.822,-1.41356,1.82307,1.03179,-1986.85,9225.29,-2368.27,-1.23011,3.82343,1.64422,-3342.12,-9195.41,-1202.1,-2.95845,4.35674,-1.55218,8793.41,1273.91,4052.73,-0.975204,2.19854,-0.422063
0.131,4436.3,-3177.23,8161.69,0.0282021,0.523505,0.133406,4408.44,2789.57,8195.33,-0.124565,-1.07823,-1.02035,-346.422,9602.14,-1538.31,-1.69526,0.796961,0.57912,482.15,-9935.32,-623.47,-1.32053,1.73151,1.04413,-2015.86,9211.16,-2359.9,-1.32456,3.83727,1.71668,-3355.04,-9209.92,-1199.29,-2.9771,4.40436,-1.52917,8813.55,1261.48,4018.94,-1.04845,2.34156,-0.350362
0.132,4441.93,-3164.88,8162.49,0.0535052,0.508357,0.143448,4394.9,2775.83,8192.73,-0.0785573,-1.0949,-1.04641,-344.092,9590.73,-1530.78,-1.69463,0.695265,0.518481,491.677,-9944.82,-619.118,-1.22749,1.63995,1.05648,-2044.87,9197.04,-2351.52,-1.41901,3.85112,1.78914,-3367.97,-9224.43,-1196.49,-2.99574,4.45198,-1.50616,8833.7,1249.05,3985.15,-1.12169,2.48458,-0.278661
0.133,4447.55,-3152.54,8163.29,0.0788084,0.493209,0.15349,4381.37,2762.09,8190.13,-0.0325499,-1.11156,-1.07246,-341.763,9579.33,-1523.24,-1.69399,0.593568,0.457842,501.203,-9954.32,-614.765,-1.13446,1.54839,1.06882,-2073.89,9182.91,-2343.15,-1.51346,3.86496,1.8616,-3380.89,-9238.95,-1193.69,-3.01438,4.49961,-1.48315,8853.85,1236.62,3951.36,-1.19494,2.62759,-0.20696
0.134,4449.15,-3149.29,8171.82,0.0980603,0.54792,0.140044,4386.4,2760.46,8178.15,-0.0397568,-1.091,-1.09321,-348.217,9585.71,-1526.74,-1.7089,0.53724,0.469814,495.668,-9962.19,-618.229,-1.0918,1.60469,1.04704,-2092.5,9179.06,-2340.62,-1.53745,3.85944,1.9155,-3384.42,-9244.25,-1191.0,-2.99419,4.51246,-1.51979,8864.91,1241.56,3945.33,-1.26474,2.70863,-0.18306
0.135,4448.72,-3150.58,8184.21,0.114287,0.63756,0.114853,4400.72,2764.88,8161.46,-0.0735708,-1.05183,-1.1113,-359.064,9600.97,-1535.75,-1.73158,0.503596,0.518091,482.602,-9969.26,-625.601,-1.07434,1.7349,1.0082,-2105.92,9180.36,-2341.01,-1.5262,3.84424,1.96012,-3383.25,-9244.94,-1188.37,-2.95458,4.50793,-1.58625,8871.44,1255.18,3953.16,-1.33282,2.75868,-0.18306
0.136,4448.3,-3151.87,8196.61,0.130513,0.7272,0.0896631,4415.05,2769.31,8144.78,-0.107385,-1.01265,-1.1294,-369.911,9616.24,-1544.76,-1.75426,0.469952,0.566368,469.537,-9976.32,-632.972,-1.05688,1.86512,0.969362,-2119.33,9181.66,-2341.39,-1.51495,3.82903,2.00474,-3382.08,-9245.63,-1185.73,-2.91498,4.50341,-1.65272,8877.96,1268.81,3961.0,-1.4009,2.80873,-0.18306
0.137,4447.88,-3153.17,8209.0,0.146739,0.816839,0.0644728,4429.37,2773.74,8128.1,-0.141199,-0.97348,-1.14749,-380.758,9631.5,-1553.77,-1.77694,0.436308,0.614645,456.471,-9983.39,-640.344,-1.03941,1.99534,0.930523,-2132.75,9182.96,-2341.78,-1.50371,3.81383,2.04936,-3380.91,-9246.33,-1183.1,-2.87537,4.49888,-1.71919,8884.49,1282.43,3968.84,-1.46898,2.85878,-0.18306
0.138,4441.4,-3156.08,8217.29,0.151455,0.889055,0.0395854,4440.02,2779.96,8115.93,-0.180481,-0.952917,-1.17031,-387.928,9639.3,-1562.51,-1.80323,0.398201,0.679475,443.352,-9989.71,-641.798,-1.04669,2.09707,0.898012,-2142.01,9183.7,-2340.5,-1.47998,3.79365,2.08712,-3385.29,-9243.02,-1182.35,-2.88153,4.47664,-1.76591,8893.97,1290.12,3977.43,-1.51072,2.86637,-0.18306
0.139,4413.71,-3164.65,8211.23,0.115881,0.900287,0.0157578,4437.8,2792.49,8119.54,-0.2389,-0.997487,-1.20968,-382.226,9620.94,-1570.3,-1.84218,0.344476,0.802243,430.048,-9993.41,-622.542,-1.14057,2.09909,0.887655,-2136.74,9182.47,-2333.38,-1.41255,3.75605,2.1009,-3409.07,-9225.74,-1188.17,-3.04787,4.39241,-1.74352,8913.78,1277.01,3988.66,-1.46029,2.72537,-0.18306
0.14,4386.01,-3173.21,8205.17,0.0803082,0.911519,-0.0080698,4435.58,2805.02,8123.16,-0.297319,-1.04206,-1.24905,-376.524,9602.58,-1578.09,-1.88113,0.29075,0.925011,416.744,-9997.11,-603.287,-1.23445,2.10111,0.877297,-2131.47,9181.25,-2326.27,-1.34512,3.71844,2.11467,-3432.86,-9208.45,-1193.98,-3.2142,4.30818,-1.72113,8933.59,1263.9,3999.89,-1.40986,2.58437,-0.18306
0.141,4358.32,-3181.78,8199.1,0.0447351,0.92275,-0.0318974,4433.36,2817.55,8126.77,-0.355739,-1.08663,-1.28841,-370.823,9584.22,-1585.87,-1.92008,0.237025,1.04778,403.439,-10000.8,-584.031,-1.32833,2.10313,0.866939,-2126.2,9180.02,-2319.15,-1.27769,3.68084,2.12844,-3456.65,-9191.16,-1199.8,-3.38054,4.22396,-1.69875,8953.4,1250.79,4011.13,-1.35943,2.44336,-0.18306
0.142,4330.63,-3190.35,8193.04,0.00916194,0.933982,-0.055725,4431.14,2830.07,8130.39,-0.414158,-1.1312,-1.32778,-365.121,9565.87,-1593.66,-1.95903,0.183299,1.17055,390.135,-10004.5,-564.775,-1.4222,2.10514,0.856582,-2120.93,9178.8,-2312.03,-1.21027,3.64323,2.14222,-3480.44,-9173.87,-1205.62,-3.54688,4.13973,-1.67636,8973.21,1237.68,4022.36,-1.309,2.30236,-0.18306
0.143,4334.35,-3188.02,8155.57,-0.0203201,0.864552,0.00371431,4440.06,2821.26,8136.15,-0.413972,-1.10729,-1.28088,-360.853,9560.86,-1593.23,-1.91964,0.131751,1.27711,379.918,-9987.94,-574.212,-1.43932,2.08201,0.845194,-2121.63,9170.59,-2301.81,-1.22232,3.60063,2.18972,-3485.08,-9173.04,-1208.74,-3.62878,3.97078,-1.70929,8974.87,1228.55,4021.86,-1.412,2.17628,-0.19598
0.144,4347.05,-3182.58,8109.12,-0.0480619,0.772075,0.0869441,4452.16,2806.35,8142.52,-0.397042,-1.06381,-1.20933,-356.996,9559.67,-1590.46,-1.85787,0.0808249,1.37904,370.583,-9965.56,-591.847,-1.4345,2.05169,0.833512,-2124.03,9160.4,-2290.7,-1.25709,3.55661,2.24687,-3484.25,-9176.92,-1211.1,-3.68655,3.77763,-1.75802,8971.34,1220.55,4018.02,-1.55883,2.05448,-0.212591
0.145,4359.75,-3177.13,8062.68,-0.0758037,0.679599,0.170174,4464.26,2791.43,8148.89,-0.380112,-1.02033,-1.13778,-353.138,9558.48,-1587.69,-1.7961,0.0298987,1.48097,361.248,-9943.19,-609.481,-1.42969,2.02137,0.82183,-2126.43,9150.21,-2279.59,-1.29186,3.51258,2.30401,-3483.41,-9180.79,-1213.45,-3.74432,3.58448,-1.80675,8967.82,1212.56,4014.18,-1.70566,1.93267,-0.229201
0.146,4372.45,-3171.69,8016.23,-0.103545,0.587122,0.253404,4476.36,2776.52,8155.26,-0.363182,-0.976855,-1.06623,-349.281,9557.29,-1584.91,-1.73433,-0.0210275,1.58291,351.913,-9920.82,-627.116,-1.42487,1.99105,0.810148,-2128.83,9140.01,-2268.48,-1.32662,3.46856,2.36115,-3482.58,-9184.67,-1215.8,-3.80209,3.39133,-1.85548,8964.29,1204.56,4010.34,-1.85249,1.81086,-0.245812
0.147,4386.13,-3168.84,7986.06,-0.10952,0.547948,0.294167,4477.12,2767.07,8163.47,-0.330528,-0.938504,-1.01536,-347.748,9564.1,-1579.99,-1.67423,-0.0854153,1.66503,343.072,-9905.5,-638.282,-1.39639,1.96948,0.825584,-2132.44,9135.39,-2257.9,-1.35697,3.39307,2.39874,-3485.56,-9186.1,-1217.0,-3.84509,3.2196,-1.86405,8967.12,1197.81,4012.5,-1.947,1.72378,-0.280863
0.148,4401.77,-3171.19,7988.44,-0.0719619,0.61538,0.249995,4455.2,2768.53,8175.33,-0.266427,-0.910403,-1.00587,-350.865,9586.94,-1570.77,-1.61745,-0.176726,1.70752,335.221,-9904.3,-636.51,-1.32058,1.96538,0.895254,-2138.48,9141.9,-2248.37,-1.37849,3.25466,2.39722,-3496.16,-9182.65,-1215.87,-3.85855,3.09071,-1.79231,8982.67,1193.55,4026.66,-1.93685,1.70615,-0.352795
0.149,4417.41,-3173.53,7990.82,-0.0344033,0.682813,0.205824,4433.27,2769.98,8187.19,-0.202325,-0.882302,-0.996369,-353.981,9609.78,-1561.55,-1.56067,-0.268037,1.75001,327.37,-9903.1,-634.739,-1.24476,1.96129,0.964924,-2144.52,9148.42,-2238.84,-1.40001,3.11624,2.3957,-3506.76,-9179.21,-1214.75,-3.87201,2.96183,-1.72056,8998.21,1189.29,4040.83,-1.9267,1.68852,-0.424726
0.15,4433.06,-3175.88,7993.19,0.00315528,0.750245,0.161653,4411.35,2771.44,8199.05,-0.138223,-0.854202,-0.986872,-357.098,9632.62,-1552.33,-1.5039,-0.359348,1.7925,319.519,-9901.9,-632.967,-1.16895,1.95719,1.03459,-2150.56,9154.93,-2229.31,-1.42152,2.97783,2.39417,-3517.35,-9175.75,-1213.63,-3.88547,2.83294,-1.64882,9013.75,1185.03,4054.99,-1.91656,1.67089,-0.496658
0.151,4448.7,-3178.22,7995.57,0.0407139,0.817677,0.117482,4389.43,2772.9,8210.92,-0.0741215,-0.826101,-0.977375,-360.215,9655.45,-1543.11,-1.44712,-0.450659,1.835,311.667,-9900.69,-631.195,-1.09314,1.9531,1.10426,-2156.6,9161.44,-2219.78,-1.44304,2.83942,2.39265,-3527.95,-9172.3,-1212.5,-3.89893,2.70406,-1.57707,9029.3,1180.76,4069.16,-1.90641,1.65326,-0.568589
0.152,4439.98,-3177.94,8012.59,0.0433727,0.842186,0.0693829,4391.97,2778.14,8195.97,-0.0130121,-0.874915,-0.996196,-360.991,9651.94,-1525.86,-1.47328,-0.58006,1.77872,313.338,-9906.05,-626.844,-1.14043,1.96351,1.01282,-2158.54,9170.65,-2211.09,-1.48585,2.73412,2.34883,-3531.13,-9172.36,-1214.58,-3.96241,2.56796,-1.47177,9036.83,1192.91,4041.8,-2.14155,1.51325,-0.553813
0.153,4428.22,-3177.33,8031.44,0.041669,0.86133,0.0207926,4397.58,2783.84,8177.68,0.0477233,-0.933344,-1.01856,-361.475,9645.13,-1507.6,-1.50982,-0.714222,1.7101,316.199,-9912.22,-622.171,-1.20312,1.97573,0.901244,-2159.97,9180.19,-2202.51,-1.53133,2.63296,2.29972,-3533.37,-9172.84,-1217.06,-4.03215,2.43097,-1.36227,9043.36,1207.11,4009.26,-2.40734,1.35795,-0.528198
0.154,4416.46,-3176.73,8050.3,0.0399654,0.880474,-0.0277976,4403.18,2789.55,8159.38,0.108459,-0.991773,-1.04092,-361.959,9638.32,-1489.35,-1.54635,-0.848385,1.64148,319.06,-9918.39,-617.497,-1.2658,1.98795,0.789664,-2161.39,9189.73,-2193.93,-1.5768,2.5318,2.25061,-3535.62,-9173.33,-1219.54,-4.10189,2.29398,-1.25277,9049.9,1221.3,3976.72,-2.67314,1.20265,-0.502583
0.155,4404.7,-3176.12,8069.15,0.0382617,0.899617,-0.0763878,4408.78,2795.25,8141.09,0.169194,-1.0502,-1.06328,-362.443,9631.51,-1471.09,-1.58289,-0.982547,1.57285,321.922,-9924.57,-612.824,-1.32849,2.00018,0.678085,-2162.82,9199.27,-2185.35,-1.62228,2.43064,2.2015,-3537.87,-9173.82,-1222.02,-4.17164,2.15698,-1.14328,9056.43,1235.5,3944.17,-2.93893,1.04735,-0.476968
0.156,4404.98,-3171.82,8081.71,0.0249851,0.913254,-0.118146,4409.8,2792.95,8127.39,0.196846,-1.05376,-1.09015,-364.993,9623.41,-1466.93,-1.59637,-1.06169,1.54224,334.18,-9919.16,-609.146,-1.35622,1.97432,0.637171,-2173.74,9200.56,-2180.89,-1.60502,2.33856,2.1586,-3532.45,-9173.32,-1221.46,-4.21749,2.01721,-1.05251,9052.6,1239.74,3920.35,-3.1051,1.0003,-0.497525
0.157,4420.3,-3162.91,8086.43,-0.00275765,0.920007,-0.151364,4405.09,2780.64,8119.43,0.183144,-0.988739,-1.12266,-370.127,9613.68,-1480.41,-1.58105,-1.07205,1.55915,358.184,-9899.28,-606.713,-1.34026,1.90085,0.684589,-2196.54,9191.54,-2181.58,-1.50936,2.25782,2.12345,-3517.44,-9171.58,-1217.1,-4.2335,1.87397,-0.985173,9035.82,1231.54,3907.43,-3.14674,1.08857,-0.575795
0.158,4435.63,-3154.0,8091.14,-0.0305004,0.92676,-0.184583,4400.38,2768.32,8111.46,0.169443,-0.923716,-1.15517,-375.261,9603.96,-1493.89,-1.56572,-1.08242,1.57605,382.189,-9879.4,-604.279,-1.32431,1.82739,0.732007,-2219.35,9182.52,-2182.28,-1.41369,2.17709,2.08829,-3502.43,-9169.85,-1212.74,-4.2495,1.73074,-0.917832,9019.04,1223.34,3894.51,-3.18837,1.17683,-0.654066
0.159,4450.95,-3145.09,8095.85,-0.0582432,0.933513,-0.217801,4395.66,2756.01,8103.5,0.155741,-0.858693,-1.18768,-380.395,9594.23,-1507.36,-1.55039,-1.09278,1.59295,406.194,-9859.52,-601.845,-1.30835,1.75393,0.779425,-2242.15,9173.5,-2182.97,-1.31802,2.09635,2.05314,-3487.42,-9168.11,-1208.38,-4.26551,1.5875,-0.850491,9002.27,1215.13,3881.6,-3.23,1.26509,-0.732337
0.16,4466.28,-3136.19,8100.56,-0.085986,0.940266,-0.251019,4390.95,2743.69,8095.54,0.142039,-0.793669,-1.2202,-385.529,9584.51,-1520.84,-1.53507,-1.10314,1.60986,430.198,-9839.63,-599.412,-1.29239,1.68046,0.826843,-2264.95,9164.48,-2183.67,-1.22236,2.01562,2.01799,-3472.41,-9166.37,-1204.02,-4.28151,1.44426,-0.78315,8985.49,1206.93,3868.68,-3.27164,1.35336,-0.810608
0.161,4445.92,-3131.46,8110.13,-0.0155757,0.948378,-0.223926,4391.39,2734.72,8090.22,0.0916391,-0.848495,-1.23519,-373.684,9597.86,-1525.05,-1.4848,-1.10884,1.6664,387.444,-9849.62,-596.213,-1.21333,1.72412,0.871314,-2261.74,9168.32,-2173.99,-1.16401,1.86639,2.01627,-3474.61,-9148.18,-1188.88,-4.36166,1.39939,-0.785446,8972.56,1219.45,3888.99,-3.31327,1.29191,-0.970355
0.162,4425.56,-3126.74,8119.69,0.0548347,0.95649,-0.196833,4391.82,2725.74,8084.9,0.0412392,-0.903321,-1.25018,-361.84,9611.22,-1529.27,-1.43453,-1.11454,1.72295,344.69,-9859.61,-593.014,-1.13427,1.76777,0.915784,-2258.54,9172.16,-2164.32,-1.10567,1.71717,2.01455,-3476.8,-9129.98,-1173.74,-4.4418,1.35451,-0.787743,8959.64,1231.97,3909.31,-3.3549,1.23047,-1.1301
0.163,4405.21,-3122.02,8129.25,0.125245,0.964603,-0.16974,4392.26,2716.77,8079.57,-0.00916068,-0.958147,-1.26517,-349.995,9624.58,-1533.48,-1.38426,-1.12024,1.77949,301.936,-9869.59,-589.814,-1.0552,1.81143,0.960255,-2255.34,9176.0,-2154.65,-1.04732,1.56794,2.01283,-3479.0,-9111.79,-1158.6,-4.52195,1.30964,-0.79004,8946.71,1244.49,3929.63,-3.39654,1.16902,-1.28985
0.164,4384.85,-3117.29,8138.81,0.195655,0.972715,-0.142647,4392.7,2707.79,8074.25,-0.0595606,-1.01297,-1.28016,-338.15,9637.93,-1537.7,-1.33399,-1.12595,1.83603,259.182,-9879.58,-586.615,-0.976139,1.85508,1.00473,-2252.13,9179.85,-2144.98,-0.988978,1.41872,2.01111,-3481.19,-9093.6,-1143.45,-4.6021,1.26477,-0.792337,8933.78,1257.01,3949.95,-3.43817,1.10758,-1.4496
0.165,4374.53,-3116.15,8139.46,0.177964,0.965257,-0.127439,4395.43,2707.41,8073.64,-0.0896546,-1.04808,-1.33191,-321.388,9639.32,-1526.56,-1.33075,-1.19032,1.90804,241.7,-9885.09,-583.931,-1.10437,1.91284,1.00437,-2239.87,9188.44,-2142.35,-0.96586,1.26589,2.01471,-3491.73,-9087.28,-1137.17,-4.6646,1.23369,-0.806799,8931.19,1267.97,3956.2,-3.48846,1.0392,-1.48551
0.166,4372.23,-3117.88,8132.99,0.089791,0.945342,-0.12174,4400.01,2713.91,8076.8,-0.103504,-1.0674,-1.41308,-300.691,9631.12,-1503.13,-1.36514,-1.30163,1.99241,244.435,-9887.02,-581.658,-1.39843,1.98188,0.96815,-2220.36,9200.84,-2145.36,-0.970923,1.11017,2.02259,-3508.93,-9090.47,-1137.96,-4.71299,1.21363,-0.830992,8936.86,1277.68,3951.2,-3.54567,0.965279,-1.42235
0.167,4369.94,-3119.61,8126.52,0.00161817,0.925428,-0.11604,4404.58,2720.41,8079.96,-0.117353,-1.08673,-1.49424,-279.994,9622.93,-1479.7,-1.39953,-1.41294,2.07678,247.17,-9888.95,-579.385,-1.69249,2.05092,0.931931,-2200.85,9213.23,-2148.37,-0.975986,0.954453,2.03046,-3526.13,-9093.66,-1138.76,-4.76137,1.19358,-0.855186,8942.52,1287.4,3946.2,-3.60288,0.891357,-1.35919
0.168,4367.64,-3121.34,8120.05,-0.0865547,0.905513,-0.11034,4409.16,2726.9,8083.12,-0.131202,-1.10605,-1.5754,-259.297,9614.73,-1456.27,-1.43391,-1.52425,2.16114,249.905,-9890.88,-577.112,-1.98655,2.11996,0.895712,-2181.34,9225.63,-2151.38,-0.981049,0.798736,2.03833,-3543.33,-9096.84,-1139.56,-4.80976,1.17352,-0.87938,8948.19,1297.11,3941.2,-3.66009,0.817435,-1.29603
0.169,4366.79,-3123.51,8114.39,-0.177815,0.876874,-0.0989606,4412.8,2733.72,8086.11,-0.142301,-1.12499,-1.64589,-242.036,9607.23,-1436.59,-1.45889,-1.62352,2.24104,252.372,-9892.72,-575.196,-2.21718,2.17136,0.863286,-2164.83,9236.71,-2153.79,-0.980709,0.640892,2.0505,-3558.43,-9099.83,-1143.37,-4.84933,1.14927,-0.893669,8952.71,1303.67,3934.87,-3.71856,0.749638,-1.2349
0.17,4377.47,-3129.15,8115.3,-0.293776,0.778438,-0.0421384,4408.99,2743.1,8087.74,-0.131394,-1.14077,-1.63104,-252.256,9605.31,-1446.93,-1.40859,-1.62643,2.28516,252.698,-9893.82,-576.131,-1.94035,2.08167,0.861208,-2172.34,9237.3,-2151.41,-0.937153,0.466027,2.09713,-3556.71,-9101.22,-1171.24,-4.81835,1.09145,-0.82872,8948.03,1285.03,3917.89,-3.78716,0.730849,-1.19
0.171,4388.16,-3134.79,8116.21,-0.409738,0.680002,0.0146838,4405.19,2752.48,8089.38,-0.120488,-1.15656,-1.61618,-262.476,9603.39,-1457.26,-1.35829,-1.62934,2.32929,253.024,-9894.92,-577.067,-1.66351,1.99198,0.859129,-2179.85,9237.9,-2149.03,-0.893596,0.291163,2.14376,-3554.99,-9102.6,-1199.11,-4.78738,1.03364,-0.763771,8943.36,1266.39,3900.91,-3.85576,0.712059,-1.1451
0.172,4398.84,-3140.44,8117.11,-0.525699,0.581565,0.071506,4401.38,2761.86,8091.01,-0.109581,-1.17235,-1.60133,-272.695,9601.47,-1467.59,-1.30799,-1.63225,2.37341,253.35,-9896.02,-578.002,-1.38668,1.90229,0.857051,-2187.36,9238.49,-2146.65,-0.850039,0.116298,2.19039,-3553.26,-9103.98,-1226.98,-4.75641,0.975822,-0.698822,8938.69,1247.75,3883.93,-3.92435,0.69327,-1.10021
0.173,4409.53,-3146.08,8118.02,-0.64166,0.483129,0.128328,4397.57,2771.24,8092.64,-0.0986746,-1.18814,-1.58648,-282.915,9599.55,-1477.92,-1.25769,-1.63516,2.41753,253.677,-9897.12,-578.938,-1.10984,1.8126,0.854973,-2194.87,9239.08,-2144.27,-0.806483,-0.0585665,2.23701,-3551.54,-9105.37,-1254.85,-4.72543,0.918005,-0.633873,8934.01,1229.1,3866.96,-3.99295,0.674481,-1.05531
0.174,4415.33,-3144.28,8123.75,-0.628983,0.483153,0.134481,4401.12,2768.98,8100.98,-0.0682495,-1.15985,-1.56397,-289.115,9597.93,-1480.57,-1.27411,-1.63554,2.37666,253.785,-9884.72,-572.168,-1.0838,1.79884,0.809018,-2203.18,9236.76,-2137.63,-0.778536,-0.281787,2.25806,-3546.48,-9102.44,-1268.21,-4.71099,0.866964,-0.539425,8924.6,1220.08,3856.88,-3.98776,0.671106,-1.0329
0.175,4418.7,-3138.76,8131.89,-0.551986,0.532407,0.1153,4408.34,2760.9,8112.67,-0.0280653,-1.10952,-1.53763,-293.304,9596.46,-1479.37,-1.32388,-1.63466,2.29328,253.785,-9865.57,-561.546,-1.18315,1.82304,0.741125,-2211.9,9233.0,-2128.87,-0.758394,-0.529186,2.26632,-3539.76,-9097.35,-1274.31,-4.70482,0.819311,-0.430228,8912.81,1215.86,3850.26,-3.94566,0.67544,-1.02175
0.176,4422.07,-3133.23,8140.03,-0.474989,0.581661,0.0961185,4415.57,2752.82,8124.37,0.012119,-1.0592,-1.5113,-297.492,9594.99,-1478.18,-1.37366,-1.63377,2.2099,253.785,-9846.42,-550.923,-1.2825,1.84725,0.673232,-2220.62,9229.23,-2120.11,-0.738252,-0.776585,2.27457,-3533.04,-9092.26,-1280.41,-4.69865,0.771658,-0.32103,8901.03,1211.65,3843.63,-3.90357,0.679773,-1.01059
0.177,4425.44,-3127.71,8148.16,-0.397992,0.630915,0.0769371,4422.79,2744.74,8136.06,0.0523032,-1.00887,-1.48496,-301.681,9593.52,-1476.99,-1.42344,-1.63289,2.12652,253.785,-9827.28,-540.301,-1.38184,1.87145,0.605339,-2229.34,9225.46,-2111.35,-0.71811,-1.02398,2.28283,-3526.32,-9087.18,-1286.51,-4.69248,0.724004,-0.211833,8889.25,1207.43,3837.01,-3.86147,0.684106,-0.999434
0.178,4427.57,-3121.78,8150.82,-0.353426,0.691577,0.0704539,4431.25,2738.72,8145.94,0.0843282,-0.968569,-1.46217,-305.398,9593.7,-1472.69,-1.48057,-1.63711,2.05651,262.39,-9808.99,-532.08,-1.47448,1.89647,0.546263,-2235.99,9224.11,-2105.27,-0.683975,-1.27167,2.2708,-3520.94,-9086.04,-1289.8,-4.68453,0.675958,-0.122323,8879.94,1207.27,3832.73,-3.8364,0.663838,-1.01139
0.179,4425.4,-3114.43,8134.27,-0.42237,0.792165,0.108414,4444.03,2739.94,8149.49,0.087796,-0.963356,-1.45179,-307.459,9599.63,-1457.53,-1.56348,-1.65919,2.03329,301.11,-9793.7,-532.263,-1.54361,1.92436,0.51805,-2235.42,9231.22,-2108.55,-0.600866,-1.52035,2.18779,-3520.27,-9098.74,-1283.24,-4.67035,0.626536,-0.101716,8879.33,1221.28,3836.66,-3.87091,0.557465,-1.10425
0.18,4423.23,-3107.07,8117.72,-0.491313,0.892753,0.146374,4456.81,2741.16,8153.03,0.0912638,-0.958144,-1.44141,-309.521,9605.57,-1442.38,-1.64638,-1.68127,2.01007,339.83,-9778.41,-532.446,-1.61275,1.95224,0.489837,-2234.85,9238.33,-2111.83,-0.517757,-1.76903,2.10478,-3519.59,-9111.45,-1276.69,-4.65618,0.577115,-0.0811098,8878.71,1235.3,3840.6,-3.90543,0.451092,-1.19711
0.181,4421.06,-3099.72,8101.17,-0.560256,0.993341,0.184334,4469.59,2742.38,8156.57,0.0947316,-0.952931,-1.43103,-311.583,9611.51,-1427.23,-1.72928,-1.70335,1.98684,378.55,-9763.13,-532.629,-1.68188,1.98012,0.461623,-2234.29,9245.44,-2115.11,-0.434648,-2.01772,2.02177,-3518.91,-9124.15,-1270.14,-4.642,0.527693,-0.0605033,8878.1,1249.31,3844.53,-3.93994,0.344719,-1.28997
0.182,4418.89,-3092.37,8084.62,-0.6292,1.09393,0.222295,4482.37,2743.6,8160.11,0.0981994,-0.947718,-1.42065,-313.644,9617.45,-1412.07,-1.81218,-1.72544,1.96362,417.27,-9747.84,-532.812,-1.75102,2.008,0.43341,-2233.72,9252.55,-2118.4,-0.351539,-2.2664,1.93876,-3518.24,-9136.85,-1263.58,-4.62782,0.478271,-0.0398969,8877.48,1263.33,3848.47,-3.97445,0.238346,-1.38282
0.183,4411.37,-3086.3,8071.1,-0.596877,1.06083,0.211001,4469.21,2745.77,8157.98,0.0923288,-0.973125,-1.40506,-329.388,9618.73,-1423.82,-1.78278,-1.67998,2.05181,419.726,-9745.77,-559.457,-1.70439,2.02235,0.425924,-2224.23,9256.39,-2117.25,-0.20279,-2.48467,1.83903,-3515.8,-9147.39,-1259.39,-4.59925,0.439779,-0.0874321,8869.66,1267.69,3846.42,-3.9958,0.244949,-1.39769
0.184,4402.33,-3080.59,8058.46,-0.53562,0.989533,0.185635,4448.63,2748.22,8154.24,0.08379,-1.00728,-1.38798,-349.041,9618.69,-1443.26,-1.72129,-1.61524,2.17184,411.821,-9747.49,-593.663,-1.62469,2.03283,0.42436,-2212.19,9259.31,-2114.84,-0.0352866,-2.69426,1.73451,-3512.86,-9157.31,-1255.87,-4.56657,0.404409,-0.154436,8859.79,1269.3,3842.66,-4.01339,0.283831,-1.39027
0.185,4393.28,-3074.89,8045.81,-0.474364,0.918237,0.16027,4428.06,2750.66,8150.5,0.0752513,-1.04144,-1.3709,-368.693,9618.65,-1462.71,-1.6598,-1.55049,2.29186,403.915,-9749.2,-627.869,-1.54499,2.04331,0.422796,-2200.16,9262.22,-2112.43,0.132217,-2.90385,1.62999,-3509.92,-9167.23,-1252.35,-4.53388,0.36904,-0.221441,8849.91,1270.9,3838.91,-4.03098,0.322713,-1.38286
0.186,4384.23,-3069.18,8033.16,-0.413108,0.846941,0.134904,4407.48,2753.1,8146.76,0.0667125,-1.07559,-1.35383,-388.346,9618.6,-1482.15,-1.59831,-1.48574,2.41189,396.01,-9750.91,-662.074,-1.46528,2.05379,0.421231,-2188.12,9265.13,-2110.01,0.299721,-3.11344,1.52548,-3506.98,-9177.15,-1248.83,-4.5012,0.33367,-0.288445,8840.03,1272.51,3835.15,-4.04856,0.361595,-1.37544
0.187,4377.92,-3072.49,8032.99,-0.401767,0.782685,0.127943,4390.83,2757.59,8148.58,0.0592099,-1.09655,-1.3352,-394.417,9617.75,-1497.43,-1.53597,-1.44096,2.50702,386.167,-9759.45,-684.759,-1.43526,2.02653,0.403949,-2180.86,9265.55,-2105.2,0.468313,-3.32837,1.46465,-3500.19,-9180.6,-1250.6,-4.45466,0.311605,-0.337745,8832.02,1276.36,3838.6,-4.06568,0.399075,-1.38181
0.188,4377.08,-3093.84,8057.76,-0.490257,0.732509,0.15779,4382.0,2766.18,8161.54,0.0537796,-1.09112,-1.31348,-373.326,9615.28,-1504.41,-1.47191,-1.43611,2.55236,372.448,-9781.64,-684.404,-1.5046,1.9238,0.355228,-2183.14,9261.0,-2095.58,0.639084,-3.55401,1.49122,-3485.7,-9171.12,-1262.93,-4.3804,0.316146,-0.351636,8827.73,1284.71,3856.45,-4.08187,0.43375,-1.41577
0.189,4376.24,-3115.18,8082.53,-0.578747,0.682333,0.187638,4373.18,2774.76,8174.5,0.0483493,-1.08569,-1.29176,-352.235,9612.81,-1511.38,-1.40786,-1.43126,2.59771,358.729,-9803.83,-684.048,-1.57394,1.82106,0.306508,-2185.42,9256.45,-2085.96,0.809854,-3.77965,1.51778,-3471.2,-9161.63,-1275.27,-4.30614,0.320688,-0.365527,8823.44,1293.06,3874.29,-4.09805,0.468425,-1.44973
0.19,4375.4,-3136.52,8107.31,-0.667238,0.632157,0.217485,4364.36,2783.35,8187.46,0.042919,-1.08026,-1.27004,-331.144,9610.35,-1518.35,-1.34381,-1.42641,2.64305,345.01,-9826.02,-683.692,-1.64328,1.71832,0.257788,-2187.7,9251.9,-2076.34,0.980624,-4.00529,1.54435,-3456.71,-9152.14,-1287.6,-4.23187,0.32523,-0.379418,8819.15,1301.4,3892.14,-4.11423,0.503101,-1.48369
0.191,4374.56,-3157.86,8132.08,-0.755728,0.581981,0.247333,4355.53,2791.94,8200.42,0.0374887,-1.07483,-1.24831,-310.053,9607.88,-1525.33,-1.27975,-1.42157,2.68839,331.291,-9848.2,-683.336,-1.71262,1.61559,0.209068,-2189.99,9247.34,-2066.73,1.15139,-4.23093,1.57092,-3442.22,-9142.65,-1299.94,-4.15761,0.329771,-0.393309,8814.85,1309.75,3909.98,-4.13042,0.537776,-1.51765
0.192,4389.22,-3152.43,8139.41,-0.70904,0.580568,0.242324,4364.42,2807.35,8195.1,-0.0148923,-1.06192,-1.22626,-304.367,9611.74,-1521.04,-1.23368,-1.37776,2.66019,345.784,-9853.4,-659.402,-1.76347,1.67801,0.284963,-2174.58,9250.7,-2070.49,1.20403,-4.35249,1.60428,-3428.08,-9143.9,-1295.36,-4.13169,0.467447,-0.318851,8821.61,1315.02,3917.34,-4.12344,0.53145,-1.64784
0.193,4405.81,-3143.65,8144.55,-0.645455,0.585251,0.232959,4375.53,2823.62,8187.51,-0.0731422,-1.04807,-1.20416,-300.607,9616.4,-1515.33,-1.18984,-1.32909,2.62278,363.803,-9856.48,-632.52,-1.81201,1.76108,0.376436,-2156.96,9255.04,-2075.92,1.2419,-4.46104,1.63849,-3413.99,-9146.49,-1288.67,-4.11181,0.621763,-0.23335,8829.75,1319.9,3923.4,-4.11357,0.52,-1.79006
0.194,4422.41,-3134.88,8149.7,-0.581869,0.589934,0.223593,4386.63,2839.89,8179.91,-0.131392,-1.03422,-1.18207,-296.846,9621.05,-1509.63,-1.14601,-1.28042,2.58538,381.821,-9859.56,-605.638,-1.86055,1.84415,0.467909,-2139.34,9259.39,-2081.36,1.27977,-4.56959,1.6727,-3399.91,-9149.07,-1281.98,-4.09193,0.77608,-0.147849,8837.9,1324.78,3929.45,-4.1037,0.508549,-1.93227
0.195,4439.0,-3126.1,8154.85,-0.518284,0.594616,0.214227,4397.73,2856.16,8172.32,-0.189642,-1.02037,-1.15997,-293.086,9625.71,-1503.93,-1.10218,-1.23175,2.54798,399.84,-9862.63,-578.757,-1.90909,1.92722,0.559382,-2121.73,9263.74,-2086.79,1.31764,-4.67814,1.70691,-3385.82,-9151.66,-1275.29,-4.07206,0.930397,-0.0623484,8846.04,1329.67,3935.5,-4.09382,0.497099,-2.07449
0.196,4446.72,-3127.03,8152.82,-0.52481,0.579049,0.216162,4410.35,2861.25,8166.89,-0.232041,-1.01408,-1.16252,-287.808,9629.18,-1499.42,-1.04949,-1.18188,2.55013,406.249,-9858.05,-569.487,-1.91331,2.00341,0.607525,-2104.48,9269.11,-2092.7,1.30664,-4.78237,1.67627,-3374.86,-9156.25,-1274.14,-4.06361,1.05815,0.0263343,8848.9,1337.47,3938.09,-4.08096,0.495143,-2.15782
0.197,4443.34,-3140.09,8141.82,-0.618976,0.538168,0.23222,4424.87,2852.35,8164.17,-0.254627,-1.01724,-1.19589,-280.634,9631.16,-1496.4,-0.985715,-1.13049,2.60172,398.146,-9843.9,-582.234,-1.86212,2.07101,0.601506,-2087.69,9275.78,-2099.19,1.23455,-4.88119,1.56456,-3367.83,-9163.33,-1279.93,-4.06945,1.15271,0.118994,8845.17,1348.92,3936.36,-4.06434,0.505055,-2.16755
0.198,4439.97,-3153.15,8130.82,-0.713142,0.497287,0.248279,4439.38,2843.46,8161.45,-0.277214,-1.0204,-1.22926,-273.459,9633.15,-1493.39,-0.921943,-1.0791,2.65332,390.042,-9829.75,-594.98,-1.81093,2.1386,0.595486,-2070.9,9282.45,-2105.69,1.16245,-4.98001,1.45286,-3360.79,-9170.42,-1285.71,-4.07529,1.24726,0.211654,8841.43,1360.38,3934.62,-4.04772,0.514967,-2.17727
0.199,4436.59,-3166.21,8119.82,-0.807308,0.456407,0.264338,4453.9,2834.57,8158.73,-0.2998,-1.02356,-1.26263,-266.285,9635.14,-1490.37,-0.858172,-1.02771,2.70491,381.939,-9815.6,-607.727,-1.75975,2.2062,0.589467,-2054.11,9289.12,-2112.19,1.09036,-5.07883,1.34115,-3353.75,-9177.5,-1291.5,-4.08113,1.34182,0.304313,8837.7,1371.83,3932.89,-4.03111,0.524879,-2.187
0.2,4433.21,-3179.27,8108.82,-0.901474,0.415526,0.280397,4468.41,2825.68,8156.01,-0.322386,-1.02672,-1.296,-259.111,9637.12,-1487.35,-0.7944,-0.97632,2.75651,373.835,-9801.44,-620.473,-1.70856,2.27379,0.583448,-2037.32,9295.79,-2118.68,1.01826,-5.17765,1.22945,-3346.72,-9184.59,-1297.28,-4.08697,1.43637,0.396973,8833.96,1383.28,3931.16,-4.01449,0.534791,-2.19672
0.201,4420.8,-3171.44,8124.48,-0.832213,0.470963,0.197217,4455.79,2814.44,8151.22,-0.255639,-1.04284,-1.32597,-242.128,9633.63,-1474.47,-0.85857,-1.00138,2.7619,353.947,-9804.28,-634.231,-1.70414,2.32169,0.52082,-2040.92,9291.5,-2117.01,0.982668,-5.21958,1.17249,-3349.44,-9180.24,-1297.82,-4.01745,1.44337,0.33444,8856.54,1369.25,3931.41,-3.9934,0.443757,-2.19672
0.202,4408.39,-3163.62,8140.15,-0.762952,0.526401,0.114037,4443.17,2803.2,8146.44,-0.188892,-1.05896,-1.35594,-225.146,9630.13,-1461.58,-0.922739,-1.02644,2.76729,334.059,-9807.11,-647.989,-1.69971,2.36959,0.458191,-2044.52,9287.22,-2115.33,0.947072,-5.2615,1.11554,-3352.15,-9175.88,-1298.36,-3.94793,1.45037,0.271906,8879.12,1355.21,3931.66,-3.97231,0.352724,-2.19672
0.203,4395.98,-3155.79,8155.81,-0.693691,0.581838,0.0308563,4430.54,2791.95,8141.66,-0.122144,-1.07508,-1.3859,-208.163,9626.63,-1448.7,-0.986908,-1.0515,2.77268,314.17,-9809.95,-661.746,-1.69529,2.41749,0.395563,-2048.12,9282.94,-2113.65,0.911476,-5.30342,1.05859,-3354.87,-9171.53,-1298.89,-3.87841,1.45737,0.209372,8901.69,1341.17,3931.91,-3.95121,0.26169,-2.19672
0.204,4383.58,-3147.97,8171.47,-0.624431,0.637276,-0.0523239,4417.92,2780.71,8136.87,-0.0553971,-1.0912,-1.41587,-191.181,9623.13,-1435.82,-1.05108,-1.07656,2.77806,294.282,-9812.79,-675.504,-1.69086,2.46539,0.332935,-2051.72,9278.65,-2111.98,0.87588,-5.34535,1.00163,-3357.59,-9167.17,-1299.43,-3.8089,1.46436,0.146839,8924.27,1327.13,3932.16,-3.93012,0.170656,-2.19672
0.205,4373.74,-3139.94,8168.11,-0.605427,0.658223,-0.0947726,4408.55,2771.04,8132.35,-0.0235767,-1.05896,-1.44673,-191.141,9616.46,-1438.73,-1.11245,-1.11559,2.76378,293.0,-9830.84,-663.378,-1.66847,2.53822,0.30607,-2053.9,9274.62,-2118.34,0.875441,-5.3486,0.946653,-3356.14,-9168.53,-1302.03,-3.73316,1.56081,0.104711,8935.48,1310.98,3944.05,-3.97631,0.150425,-2.20167
0.206,4365.97,-3131.76,8149.54,-0.626629,0.651578,-0.104636,4401.79,2762.62,8128.03,-0.0196978,-0.988051,-1.47831,-204.656,9607.24,-1454.29,-1.17159,-1.1658,2.73375,306.603,-9861.07,-630.544,-1.63171,2.63099,0.307816,-2054.94,9270.79,-2131.13,0.903128,-5.32091,0.893252,-3351.35,-9174.46,-1306.27,-3.65246,1.72882,0.0789082,8937.59,1293.15,3965.26,-4.07633,0.186836,-2.21057
0.207,4358.2,-3123.57,8130.96,-0.647831,0.644933,-0.114499,4395.02,2754.2,8123.71,-0.0158188,-0.917138,-1.50989,-218.17,9598.02,-1469.85,-1.23073,-1.21601,2.70373,320.206,-9891.3,-597.711,-1.59494,2.72375,0.309561,-2055.98,9266.95,-2143.93,0.930814,-5.29323,0.83985,-3346.56,-9180.39,-1310.51,-3.57175,1.89683,0.0531054,8939.71,1275.31,3986.47,-4.17635,0.223247,-2.21947
0.208,4350.42,-3115.38,8112.39,-0.669033,0.638287,-0.124363,4388.25,2745.78,8119.39,-0.0119399,-0.846225,-1.54147,-231.685,9588.8,-1485.41,-1.28987,-1.26622,2.6737,333.809,-9921.52,-564.878,-1.55818,2.81652,0.311307,-2057.02,9263.12,-2156.72,0.958501,-5.26554,0.786449,-3341.77,-9186.33,-1314.75,-3.49104,2.06484,0.0273025,8941.83,1257.47,4007.67,-4.27637,0.259658,-2.22837
0.209,4342.89,-3109.17,8095.41,-0.678876,0.631826,-0.127797,4385.06,2738.75,8115.21,-0.0107736,-0.780804,-1.56832,-244.713,9580.91,-1499.58,-1.33858,-1.3064,2.64837,345.572,-9947.17,-536.168,-1.52864,2.90475,0.315087,-2055.31,9261.05,-2167.83,0.993069,-5.23871,0.747141,-3336.69,-9192.97,-1320.57,-3.41269,2.23484,0.00892449,8942.18,1240.98,4027.49,-4.37562,0.279642,-2.24141
0.21,4337.25,-3118.7,8091.21,-0.597849,0.626835,-0.0797974,4410.44,2742.82,8112.1,-0.0313085,-0.759313,-1.5574,-253.842,9583.64,-1502.57,-1.30383,-1.26644,2.66053,342.62,-9936.2,-540.45,-1.55687,2.95672,0.335137,-2031.58,9273.17,-2165.48,1.0827,-5.21877,0.820572,-3329.27,-9205.38,-1338.94,-3.35321,2.42074,0.0499446,8928.38,1235.23,4036.23,-4.46873,0.168218,-2.28756
0.211,4331.61,-3128.24,8087.01,-0.516821,0.621845,-0.0317977,4435.82,2746.88,8109.0,-0.0518435,-0.737822,-1.54647,-262.972,9586.37,-1505.56,-1.26909,-1.22647,2.67269,339.668,-9925.22,-544.732,-1.5851,3.00869,0.355188,-2007.85,9285.29,-2163.12,1.17232,-5.19883,0.894004,-3321.86,-9217.78,-1357.32,-3.29374,2.60663,0.0909647,8914.58,1229.48,4044.97,-4.56184,0.0567928,-2.33372
0.212,4325.97,-3137.78,8082.81,-0.435794,0.616854,0.0162019,4461.2,2750.95,8105.89,-0.0723785,-0.716331,-1.53555,-272.102,9589.1,-1508.55,-1.23434,-1.1865,2.68486,336.716,-9914.24,-549.014,-1.61334,3.06065,0.375238,-1984.12,9297.4,-2160.76,1.26195,-5.17888,0.967436,-3314.44,-9230.18,-1375.7,-3.23426,2.79253,0.131985,8900.79,1223.73,4053.7,-4.65495,-0.0546318,-2.37987
0.213,4320.34,-3147.32,8078.61,-0.354766,0.611864,0.0642015,4486.58,2755.02,8102.79,-0.0929134,-0.69484,-1.52463,-281.231,9591.83,-1511.55,-1.19959,-1.14653,2.69702,333.764,-9903.26,-553.296,-1.64157,3.11262,0.395289,-1960.39,9309.51,-2158.41,1.35157,-5.15894,1.04087,-3307.02,-9242.58,-1394.08,-3.17478,2.97842,0.173005,8886.99,1217.98,4062.44,-4.74806,-0.166057,-2.42602
0.214,4331.7,-3144.14,8083.97,-0.361278,0.625557,0.163264,4495.47,2763.61,8105.7,-0.151056,-0.704187,-1.49735,-271.042,9604.18,-1518.05,-1.17456,-1.08606,2.7078,343.077,-9895.6,-574.945,-1.742,3.13031,0.427106,-1942.71,9318.57,-2162.24,1.4266,-5.17449,1.07808,-3309.49,-9247.29,-1406.88,-3.05739,3.11252,0.1606,8880.88,1210.81,4055.92,-4.73989,-0.178364,-2.4621
0.215,4351.56,-3134.61,8094.09,-0.411558,0.648593,0.287857,4496.1,2774.48,8111.62,-0.228003,-0.728952,-1.46189,-251.193,9621.33,-1526.31,-1.15439,-1.01535,2.71789,358.523,-9889.59,-605.276,-1.87853,3.13086,0.464807,-1928.05,9326.08,-2169.17,1.49433,-5.20778,1.09718,-3316.9,-9248.17,-1416.89,-2.91105,3.22072,0.121483,8878.62,1202.93,4041.76,-4.68109,-0.141113,-2.49314
0.216,4371.43,-3125.07,8104.22,-0.461838,0.671629,0.41245,4496.74,2785.34,8117.54,-0.30495,-0.753717,-1.42644,-231.344,9638.49,-1534.57,-1.13422,-0.944637,2.72797,373.969,-9883.58,-635.607,-2.01506,3.13141,0.502508,-1913.4,9333.6,-2176.09,1.56205,-5.24107,1.11628,-3324.31,-9249.05,-1426.9,-2.7647,3.32893,0.082366,8876.36,1195.05,4027.6,-4.62229,-0.103862,-2.52419
0.217,4391.29,-3115.54,8114.35,-0.512119,0.694665,0.537044,4497.37,2796.2,8123.46,-0.381896,-0.778482,-1.39098,-211.495,9655.65,-1542.83,-1.11405,-0.873924,2.73806,389.415,-9877.57,-665.939,-2.15158,3.13196,0.540208,-1898.75,9341.12,-2183.02,1.62978,-5.27437,1.13538,-3331.72,-9249.93,-1436.91,-2.61836,3.43713,0.0432489,8874.09,1187.17,4013.44,-4.56349,-0.0666108,-2.55523
0.218,4410.07,-3108.84,8121.22,-0.554174,0.708383,0.631091,4493.9,2808.71,8125.35,-0.448774,-0.782,-1.36289,-197.923,9672.18,-1551.35,-1.10437,-0.806572,2.72586,401.273,-9871.82,-688.593,-2.2284,3.11378,0.55936,-1885.77,9346.55,-2188.35,1.68376,-5.31742,1.13849,-3336.28,-9249.1,-1443.79,-2.49759,3.55528,0.00809336,8875.76,1183.07,3999.47,-4.53137,-0.0307418,-2.5781
0.219,4425.04,-3112.08,8116.73,-0.567444,0.689486,0.618227,4476.03,2826.98,8113.16,-0.480407,-0.711151,-1.36055,-206.321,9686.53,-1560.8,-1.13143,-0.750988,2.63565,400.576,-9866.97,-684.377,-2.09621,3.03007,0.513593,-1878.66,9344.67,-2188.13,1.68964,-5.3946,1.08563,-3330.86,-9242.29,-1439.7,-2.4663,3.70828,-0.0131968,8891.2,1192.24,3986.13,-4.59258,0.000289613,-2.57236
0.22,4440.01,-3115.31,8112.23,-0.580713,0.670589,0.605362,4458.16,2845.25,8100.96,-0.512041,-0.640303,-1.35822,-214.719,9700.88,-1570.25,-1.15849,-0.695404,2.54545,399.879,-9862.12,-680.16,-1.96403,2.94635,0.467826,-1871.55,9342.79,-2187.9,1.69551,-5.47179,1.03277,-3325.43,-9235.47,-1435.62,-2.43501,3.86127,-0.0344869,8906.64,1201.41,3972.8,-4.6538,0.0313211,-2.56662
0.221,4454.99,-3118.54,8107.74,-0.593982,0.651693,0.592498,4440.29,2863.52,8088.77,-0.543675,-0.569455,-1.35589,-223.116,9715.23,-1579.7,-1.18555,-0.639819,2.45525,399.182,-9857.28,-675.944,-1.83184,2.86264,0.422058,-1864.44,9340.92,-2187.67,1.70138,-5.54897,0.979906,-3320.01,-9228.66,-1431.53,-2.40373,4.01427,-0.055777,8922.08,1210.58,3959.46,-4.71502,0.0623525,-2.56088
0.222,4469.96,-3121.78,8103.24,-0.607251,0.632796,0.579634,4422.42,2881.79,8076.57,-0.575309,-0.498606,-1.35355,-231.514,9729.58,-1589.15,-1.21261,-0.584235,2.36505,398.485,-9852.43,-671.728,-1.69966,2.77892,0.376291,-1857.33,9339.04,-2187.44,1.70725,-5.62616,0.927047,-3314.58,-9221.84,-1427.45,-2.37244,4.16726,-0.0770671,8937.52,1219.75,3946.12,-4.77624,0.0933839,-2.55514
0.223,4478.4,-3131.18,8100.64,-0.637737,0.643736,0.516871,4419.23,2883.59,8070.99,-0.502003,-0.534219,-1.31492,-233.852,9731.15,-1583.42,-1.25105,-0.600102,2.42985,396.421,-9866.59,-657.854,-1.68986,2.86898,0.377124,-1842.52,9330.17,-2182.47,1.70227,-5.53187,0.927875,-3297.31,-9217.86,-1408.22,-2.32299,4.38016,-0.0614511,8945.5,1211.15,3958.03,-4.80655,0.124797,-2.62452
0.224,4484.98,-3142.34,8098.57,-0.673143,0.6632,0.439852,4420.24,2880.67,8067.3,-0.398715,-0.600248,-1.26591,-234.458,9729.08,-1573.34,-1.29274,-0.636384,2.53892,393.967,-9886.18,-641.222,-1.71503,3.00869,0.391271,-1825.5,9319.3,-2176.15,1.69419,-5.38859,0.944042,-3276.65,-9214.69,-1384.66,-2.26835,4.61017,-0.0352904,8951.34,1197.49,3977.14,-4.82803,0.156318,-2.71536
0.225,4491.56,-3153.5,8096.51,-0.708548,0.682664,0.362833,4421.24,2877.76,8063.61,-0.295426,-0.666278,-1.2169,-235.065,9727.01,-1563.27,-1.33443,-0.672665,2.648,391.513,-9905.78,-624.589,-1.7402,3.1484,0.405419,-1808.48,9308.43,-2169.83,1.68611,-5.2453,0.960209,-3256.0,-9211.52,-1361.11,-2.21371,4.84018,-0.00912977,8957.18,1183.82,3996.26,-4.84951,0.18784,-2.80621
0.226,4498.14,-3164.66,8094.45,-0.743953,0.702128,0.285813,4422.25,2874.85,8059.92,-0.192137,-0.732308,-1.16789,-235.671,9724.94,-1553.19,-1.37612,-0.708947,2.75708,389.059,-9925.37,-607.957,-1.76537,3.28811,0.419567,-1791.47,9297.56,-2163.51,1.67802,-5.10202,0.976377,-3235.34,-9208.35,-1337.55,-2.15906,5.07019,0.0170309,8963.03,1170.15,4015.37,-4.87099,0.219361,-2.89705
0.227,4495.28,-3177.03,8098.96,-0.729672,0.71639,0.190799,4419.41,2865.82,8061.87,-0.108268,-0.780718,-1.13222,-239.424,9716.0,-1542.74,-1.40845,-0.732868,2.83995,381.2,-9928.39,-598.257,-1.78579,3.38232,0.445098,-1782.56,9292.81,-2159.61,1.67348,-4.9569,0.982721,-3228.76,-9208.4,-1322.13,-2.11657,5.2653,0.0338233,8969.68,1163.58,4025.71,-4.88118,0.261805,-2.95535
0.228,4473.54,-3191.82,8116.62,-0.616019,0.720245,0.0597965,4408.87,2844.59,8075.12,-0.0632361,-0.793887,-1.12321,-249.469,9693.33,-1531.52,-1.42208,-0.732066,2.87042,362.53,-9898.29,-602.424,-1.79669,3.38551,0.493397,-1789.86,9300.32,-2160.54,1.67603,-4.8081,0.969421,-3250.32,-9214.91,-1322.98,-2.09836,5.3906,0.0318793,8977.96,1171.2,4018.48,-4.86882,0.326093,-2.94855
0.229,4451.8,-3206.6,8134.27,-0.502366,0.724101,-0.0712064,4398.33,2823.35,8088.37,-0.0182046,-0.807057,-1.11421,-259.513,9670.66,-1520.3,-1.43571,-0.731265,2.90088,343.861,-9868.19,-606.59,-1.80759,3.38871,0.541696,-1797.17,9307.82,-2161.47,1.67859,-4.6593,0.95612,-3271.88,-9221.42,-1323.83,-2.08016,5.5159,0.0299353,8986.25,1178.81,4011.25,-4.85646,0.390382,-2.94175
0.23,4430.07,-3221.39,8151.93,-0.388713,0.727956,-0.202209,4387.78,2802.11,8101.62,0.0268269,-0.820226,-1.1052,-269.558,9648.0,-1509.08,-1.44934,-0.730464,2.93135,325.191,-9838.09,-610.757,-1.81849,3.39191,0.589995,-1804.48,9315.33,-2162.4,1.68114,-4.5105,0.94282,-3293.44,-9227.92,-1324.68,-2.06196,5.6412,0.0279913,8994.53,1186.43,4004.02,-4.84409,0.45467,-2.93495
0.231,4408.33,-3236.17,8169.59,-0.27506,0.731812,-0.333212,4377.24,2780.88,8114.87,0.0718584,-0.833396,-1.09619,-279.603,9625.33,-1497.86,-1.46297,-0.729662,2.96181,306.522,-9807.99,-614.923,-1.82939,3.39511,0.638294,-1811.78,9322.83,-2163.33,1.68369,-4.3617,0.929519,-3315.0,-9234.43,-1325.53,-2.04376,5.7665,0.0260473,9002.81,1194.04,3996.79,-4.83173,0.518959,-2.92815
0.232,4414.73,-3210.06,8170.54,-0.246558,0.700012,-0.277701,4370.37,2767.93,8119.58,0.0480233,-0.795819,-1.18462,-280.184,9636.48,-1508.12,-1.41371,-0.785597,2.82728,286.183,-9829.53,-607.466,-1.8336,3.33578,0.630758,-1803.31,9339.7,-2169.03,1.68889,-4.21959,0.928065,-3317.35,-9233.35,-1325.77,-2.07273,5.90364,0.00630255,9013.11,1198.68,3995.01,-4.87585,0.528008,-2.85245
0.233,4424.64,-3178.82,8169.41,-0.228699,0.663755,-0.198875,4363.95,2756.02,8123.22,0.0155799,-0.751899,-1.28523,-279.583,9651.86,-1521.06,-1.35659,-0.848623,2.67212,265.636,-9857.52,-598.555,-1.83697,3.26863,0.616243,-1792.86,9357.73,-2175.34,1.69442,-4.07833,0.928091,-3317.31,-9231.31,-1325.94,-2.1076,6.04226,-0.0156672,9023.66,1202.95,3993.92,-4.92703,0.530153,-2.76813
0.234,4434.55,-3147.59,8168.28,-0.21084,0.627499,-0.12005,4357.53,2744.12,8126.86,-0.0168635,-0.707979,-1.38584,-278.981,9667.24,-1534.0,-1.29948,-0.911649,2.51697,245.089,-9885.51,-589.645,-1.84034,3.20148,0.601727,-1782.41,9375.75,-2181.65,1.69995,-3.93707,0.928116,-3317.27,-9229.28,-1326.11,-2.14247,6.18088,-0.037637,9034.2,1207.22,3992.83,-4.97821,0.532297,-2.68381
0.235,4444.47,-3116.36,8167.15,-0.192982,0.591242,-0.0412246,4351.11,2732.21,8130.5,-0.0493069,-0.664058,-1.48644,-278.38,9682.61,-1546.94,-1.24236,-0.974675,2.36181,224.542,-9913.5,-580.734,-1.84371,3.13434,0.587212,-1771.96,9393.78,-2187.95,1.70549,-3.79581,0.928142,-3317.23,-9227.24,-1326.28,-2.17735,6.3195,-0.0596068,9044.75,1211.49,3991.74,-5.02939,0.534442,-2.59949
0.236,4442.68,-3105.96,8166.72,-0.161322,0.59608,0.0627565,4356.53,2721.21,8133.08,-0.0393968,-0.651812,-1.53838,-275.564,9678.77,-1551.47,-1.17357,-0.994525,2.26234,217.104,-9928.06,-577.416,-1.84695,3.10376,0.585118,-1758.72,9400.38,-2201.17,1.71605,-3.6812,0.932973,-3321.73,-9221.05,-1325.32,-2.17841,6.43052,-0.0511986,9040.41,1210.07,3988.88,-5.03288,0.560166,-2.53903
0.237,4426.25,-3121.59,8167.16,-0.112413,0.652285,0.198182,4376.77,2711.34,8134.34,0.0234553,-0.679157,-1.52948,-269.98,9650.91,-1545.48,-1.0902,-0.960404,2.23245,226.054,-9925.83,-581.087,-1.85002,3.1189,0.598549,-1742.0,9392.68,-2223.04,1.7329,-3.59993,0.94381,-3331.91,-9209.67,-1322.96,-2.13721,6.50704,-0.0048177,9017.46,1201.57,3983.82,-4.97675,0.615366,-2.50837
0.238,4409.83,-3137.23,8167.61,-0.0635032,0.70849,0.333608,4397.0,2701.48,8135.59,0.0863074,-0.706502,-1.52058,-264.396,9623.05,-1539.5,-1.00682,-0.926283,2.20257,235.004,-9923.59,-584.758,-1.8531,3.13404,0.611981,-1725.28,9384.99,-2244.91,1.74975,-3.51865,0.954646,-3342.09,-9198.29,-1320.59,-2.09601,6.58356,0.0415632,8994.51,1193.06,3978.75,-4.92062,0.670565,-2.47772
0.239,4393.4,-3152.86,8168.05,-0.0145935,0.764695,0.469034,4417.23,2691.61,8136.84,0.149159,-0.733847,-1.51168,-258.812,9595.19,-1533.52,-0.923444,-0.892161,2.17269,243.954,-9921.36,-588.429,-1.85617,3.14918,0.625412,-1708.55,9377.3,-2266.77,1.7666,-3.43738,0.965483,-3352.27,-9186.91,-1318.23,-2.0548,6.66008,0.087944,8971.56,1184.55,3973.69,-4.86448,0.725765,-2.44706
0.24,4376.98,-3168.5,8168.49,0.0343161,0.8209,0.60446,4437.46,2681.75,8138.09,0.212012,-0.761192,-1.50278,-253.228,9567.33,-1527.53,-0.840069,-0.85804,2.14281,252.904,-9919.13,-592.1,-1.85924,3.16432,0.638843,-1691.83,9369.6,-2288.64,1.78345,-3.3561,0.97632,-3362.45,-9175.53,-1315.86,-2.0136,6.7366,0.134325,8948.61,1176.04,3968.63,-4.80835,0.780965,-2.41641
0.241,4407.74,-3194.27,8150.17,-0.0462606,0.791303,0.607112,4432.92,2680.08,8136.97,0.253559,-0.782136,-1.43926,-251.503,9565.06,-1521.37,-0.825659,-0.750916,2.19435,276.357,-9934.32,-602.165,-1.84298,3.21145,0.638236,-1692.68,9353.23,-2286.06,1.66598,-3.3561,1.00194,-3358.61,-9182.63,-1298.21,-1.92734,6.78992,0.147544,8937.3,1156.68,3974.79,-4.7741,0.883745,-2.41944
0.242,4438.5,-3220.04,8131.84,-0.126837,0.761705,0.609764,4428.37,2678.41,8135.85,0.295107,-0.803081,-1.37575,-249.778,9562.8,-1515.2,-0.811251,-0.643792,2.24589,299.81,-9949.52,-612.231,-1.82672,3.25858,0.637628,-1693.54,9336.87,-2283.48,1.54851,-3.3561,1.02755,-3354.77,-9189.74,-1280.56,-1.84109,6.84324,0.160763,8926.0,1137.31,3980.95,-4.73985,0.986526,-2.42247
0.243,4469.27,-3245.81,8113.52,-0.207414,0.732108,0.612415,4423.83,2676.74,8134.73,0.336655,-0.824026,-1.31223,-248.053,9560.53,-1509.03,-0.796841,-0.536668,2.29743,323.264,-9964.72,-622.296,-1.81046,3.30571,0.63702,-1694.39,9320.5,-2280.91,1.43104,-3.3561,1.05317,-3350.93,-9196.84,-1262.91,-1.75483,6.89656,0.173983,8914.7,1117.95,3987.1,-4.70559,1.08931,-2.42551
0.244,4500.03,-3271.58,8095.19,-0.287991,0.702511,0.615067,4419.28,2675.07,8133.6,0.378203,-0.844971,-1.24871,-246.327,9558.26,-1502.86,-0.782432,-0.429543,2.34897,346.717,-9979.91,-632.361,-1.7942,3.35284,0.636413,-1695.24,9304.14,-2278.33,1.31357,-3.3561,1.07878,-3347.08,-9203.94,-1245.25,-1.66857,6.94989,0.187202,8903.4,1098.59,3993.26,-4.67134,1.19209,-2.42854
0.245,4517.9,-3260.46,8083.74,-0.30824,0.666237,0.594638,4414.75,2673.4,8132.18,0.388696,-0.858162,-1.26276,-244.081,9568.6,-1497.33,-0.811579,-0.425927,2.35823,351.563,-9970.54,-633.446,-1.78313,3.34571,0.656436,-1691.85,9297.54,-2276.43,1.23253,-3.23112,1.05556,-3348.86,-9211.56,-1232.96,-1.62854,6.98479,0.188955,8907.19,1082.43,3993.83,-4.60923,1.28016,-2.43888
0.246,4525.45,-3219.82,8077.79,-0.280228,0.624623,0.555744,4410.24,2671.72,8130.5,0.374344,-0.865149,-1.33887,-241.419,9589.01,-1492.31,-0.875569,-0.505118,2.33366,341.524,-9941.51,-627.346,-1.77621,3.29519,0.692964,-1685.06,9298.76,-2275.07,1.18062,-3.00616,0.99326,-3355.14,-9219.59,-1224.96,-1.6255,7.00496,0.181535,8923.06,1068.83,3989.92,-4.52483,1.35647,-2.45506
0.247,4533.01,-3179.19,8071.83,-0.252216,0.583009,0.51685,4405.73,2670.05,8128.83,0.359992,-0.872137,-1.41498,-238.756,9609.43,-1487.29,-0.939559,-0.584309,2.30909,331.486,-9912.47,-621.245,-1.76929,3.24466,0.729492,-1678.27,9299.99,-2273.71,1.12871,-2.7812,0.930962,-3361.41,-9227.63,-1216.96,-1.62246,7.02513,0.174114,8938.94,1055.23,3986.01,-4.44042,1.43278,-2.47125
0.248,4540.57,-3138.55,8065.88,-0.224204,0.541395,0.477957,4401.22,2668.37,8127.15,0.345641,-0.879124,-1.49108,-236.093,9629.84,-1482.27,-1.00355,-0.663499,2.28452,321.447,-9883.44,-615.145,-1.76236,3.19413,0.76602,-1671.48,9301.21,-2272.36,1.0768,-2.55624,0.868664,-3367.68,-9235.66,-1208.95,-1.61942,7.0453,0.166694,8954.81,1041.63,3982.1,-4.35602,1.50909,-2.48743
0.249,4544.57,-3102.62,8060.1,-0.196086,0.508216,0.440166,4398.84,2667.46,8125.0,0.338615,-0.887664,-1.56643,-235.494,9647.27,-1478.05,-1.05838,-0.730504,2.25764,312.95,-9857.19,-607.082,-1.75494,3.14935,0.792833,-1665.48,9302.24,-2271.06,1.02359,-2.32603,0.813081,-3375.96,-9241.9,-1203.49,-1.61804,7.05529,0.160672,8968.59,1030.85,3977.89,-4.27528,1.58001,-2.49457
0.25,4520.13,-3104.37,8055.74,-0.167125,0.54252,0.411205,4413.48,2672.65,8119.04,0.390191,-0.90862,-1.63568,-251.405,9640.81,-1480.3,-1.0399,-0.700024,2.21224,316.794,-9853.14,-583.313,-1.74349,3.15062,0.741921,-1665.8,9301.7,-2270.23,0.959928,-2.05376,0.811216,-3400.32,-9233.81,-1218.38,-1.62998,6.98389,0.165839,8965.62,1042.7,3971.31,-4.22379,1.60776,-2.4293
0.251,4495.69,-3106.12,8051.39,-0.138164,0.576824,0.382244,4428.12,2677.84,8113.08,0.441767,-0.929577,-1.70492,-267.316,9634.36,-1482.55,-1.02142,-0.669544,2.16685,320.638,-9849.1,-559.544,-1.73204,3.15189,0.69101,-1666.13,9301.15,-2269.39,0.896265,-1.7815,0.809352,-3424.68,-9225.73,-1233.26,-1.64192,6.91248,0.171005,8962.66,1054.54,3964.73,-4.1723,1.63552,-2.36403
0.252,4471.25,-3107.88,8047.04,-0.109203,0.611129,0.353283,4442.76,2683.03,8107.11,0.493343,-0.950533,-1.77417,-283.227,9627.9,-1484.8,-1.00294,-0.639064,2.12145,324.482,-9845.05,-535.775,-1.72059,3.15316,0.640098,-1666.45,9300.61,-2268.56,0.832603,-1.50924,0.807487,-3449.04,-9217.64,-1248.14,-1.65386,6.84108,0.176172,8959.69,1066.39,3958.15,-4.12081,1.66327,-2.29877
0.253,4446.81,-3109.63,8042.68,-0.080242,0.645433,0.324322,4457.4,2688.23,8101.15,0.544919,-0.97149,-1.84342,-299.138,9621.44,-1487.05,-0.984467,-0.608584,2.07605,328.326,-9841.01,-512.005,-1.70914,3.15443,0.589186,-1666.77,9300.07,-2267.73,0.76894,-1.23697,0.805622,-3473.4,-9209.55,-1263.02,-1.6658,6.76967,0.181338,8956.72,1078.23,3951.57,-4.06932,1.69103,-2.2335
0.254,4423.19,-3112.56,8049.71,-0.111803,0.67608,0.304703,4457.56,2686.84,8102.34,0.600635,-0.992123,-1.87894,-303.462,9613.8,-1478.98,-0.98956,-0.56118,2.04003,328.301,-9854.14,-504.264,-1.72352,3.13958,0.535,-1666.64,9300.65,-2271.21,0.6469,-0.980798,0.815626,-3478.59,-9206.7,-1266.86,-1.6546,6.68105,0.177136,8959.5,1079.0,3950.99,-4.04935,1.70662,-2.17484
0.255,4400.0,-3116.07,8062.42,-0.173625,0.7049,0.289755,4450.47,2682.15,8107.12,0.658422,-1.01259,-1.89759,-301.991,9605.57,-1465.75,-1.00644,-0.505316,2.00869,326.341,-9875.85,-504.538,-1.75081,3.11666,0.479176,-1666.27,9301.8,-2276.85,0.495672,-0.732667,0.831563,-3474.2,-9206.48,-1265.16,-1.63182,6.58381,0.16825,8965.16,1074.23,3953.41,-4.04515,1.71613,-2.11949
0.256,4376.8,-3119.59,8075.14,-0.235447,0.733719,0.274807,4443.38,2677.47,8111.89,0.716208,-1.03307,-1.91625,-300.521,9597.33,-1452.52,-1.02332,-0.449451,1.97735,324.381,-9897.56,-504.811,-1.7781,3.09374,0.423352,-1665.9,9302.95,-2282.48,0.344444,-0.484536,0.847501,-3469.81,-9206.25,-1263.47,-1.60905,6.48657,0.159364,8970.81,1069.45,3955.83,-4.04094,1.72564,-2.06414
0.257,4353.6,-3123.11,8087.85,-0.297269,0.762538,0.25986,4436.3,2672.79,8116.67,0.773995,-1.05354,-1.93491,-299.05,9589.1,-1439.29,-1.0402,-0.393587,1.94602,322.421,-9919.28,-505.084,-1.80538,3.07082,0.367528,-1665.53,9304.09,-2288.12,0.193215,-0.236405,0.863439,-3465.42,-9206.03,-1261.78,-1.58627,6.38934,0.150478,8976.46,1064.68,3958.25,-4.03673,1.73515,-2.0088
0.258,4341.31,-3123.19,8097.05,-0.337766,0.796868,0.25665,4429.22,2669.22,8121.6,0.81787,-1.07254,-1.93347,-291.507,9582.4,-1430.14,-1.04389,-0.366584,1.93183,326.357,-9939.22,-505.869,-1.81572,3.04678,0.32455,-1666.08,9310.27,-2286.77,0.0646593,-0.00295234,0.872758,-3463.88,-9208.49,-1260.87,-1.5845,6.29009,0.136459,8981.38,1057.57,3956.43,-4.0329,1.74777,-1.9604
0.259,4367.18,-3111.23,8093.94,-0.303628,0.850484,0.294526,4422.19,2669.52,8127.08,0.813056,-1.08639,-1.86169,-262.709,9581.08,-1435.27,-1.00143,-0.440596,1.97767,350.926,-9952.97,-508.449,-1.76669,3.01882,0.326532,-1669.82,9334.05,-2260.99,0.0154558,0.179128,0.858915,-3472.33,-9220.38,-1262.7,-1.65624,6.18381,0.104473,8983.74,1042.28,3939.76,-4.03037,1.77127,-1.93634
0.26,4393.05,-3099.27,8090.84,-0.269491,0.904101,0.332402,4415.16,2669.83,8132.56,0.808242,-1.10024,-1.78991,-233.911,9579.75,-1440.4,-0.958973,-0.514609,2.0235,375.495,-9966.72,-511.028,-1.71767,2.99087,0.328514,-1673.56,9357.83,-2235.21,-0.0337478,0.361208,0.845072,-3480.78,-9232.27,-1264.53,-1.72797,6.07752,0.0724875,8986.1,1026.99,3923.1,-4.02784,1.79477,-1.91229
0.261,4418.92,-3087.3,8087.73,-0.235353,0.957717,0.370278,4408.13,2670.13,8138.04,0.803428,-1.11409,-1.71813,-205.113,9578.43,-1445.54,-0.916515,-0.588622,2.06934,400.065,-9980.47,-513.607,-1.66865,2.96291,0.330495,-1677.31,9381.61,-2209.43,-0.0829513,0.543288,0.831229,-3489.22,-9244.16,-1266.36,-1.79971,5.97124,0.0405018,8988.45,1011.7,3906.43,-4.02531,1.81827,-1.88823
0.262,4444.79,-3075.34,8084.62,-0.201215,1.01133,0.408154,4401.1,2670.44,8143.52,0.798614,-1.12793,-1.64635,-176.314,9577.1,-1450.67,-0.874057,-0.662635,2.11517,424.634,-9994.21,-516.187,-1.61962,2.93495,0.332477,-1681.05,9405.4,-2183.65,-0.132155,0.725368,0.817385,-3497.67,-9256.05,-1268.19,-1.87145,5.86495,0.00851608,8990.81,996.411,3889.76,-4.02278,1.84178,-1.86417
0.263,4431.09,-3068.91,8072.56,-0.161262,0.954508,0.367559,4398.11,2690.14,8136.21,0.813281,-1.1534,-1.61972,-182.555,9579.42,-1463.95,-0.852133,-0.591029,2.06305,421.505,-9975.92,-536.929,-1.6442,2.87861,0.376474,-1703.65,9395.74,-2182.73,-0.139405,0.8735,0.831876,-3497.68,-9256.79,-1265.55,-1.90585,5.70477,-0.0453288,8992.94,990.934,3883.67,-4.01932,1.89105,-1.81538
0.264,4406.09,-3064.06,8057.94,-0.119648,0.866128,0.304543,4396.27,2715.39,8125.25,0.833513,-1.18218,-1.60599,-198.806,9582.77,-1479.55,-0.836077,-0.477818,1.98295,410.462,-9948.46,-562.861,-1.68981,2.81416,0.432476,-1731.63,9376.53,-2188.9,-0.134669,1.01193,0.854461,-3495.28,-9254.34,-1261.63,-1.92957,5.52918,-0.105419,8995.0,988.26,3880.62,-4.0156,1.94768,-1.75951
0.265,4381.08,-3059.21,8043.33,-0.0780338,0.777747,0.241528,4394.44,2740.65,8114.29,0.853745,-1.21096,-1.59227,-215.057,9586.12,-1495.15,-0.820021,-0.364607,1.90284,399.42,-9921.01,-588.793,-1.73542,2.74971,0.488478,-1759.62,9357.32,-2195.07,-0.129933,1.15036,0.877047,-3492.88,-9251.89,-1257.71,-1.95329,5.35359,-0.16551,8997.06,985.586,3877.56,-4.01188,2.00431,-1.70365
0.266,4356.08,-3054.36,8028.71,-0.0364197,0.689367,0.178512,4392.61,2765.9,8103.32,0.873977,-1.23975,-1.57854,-231.309,9589.48,-1510.75,-0.803964,-0.251396,1.82274,388.377,-9893.55,-614.725,-1.78103,2.68527,0.54448,-1787.61,9338.11,-2201.25,-0.125197,1.2888,0.899632,-3490.48,-9249.44,-1253.79,-1.97701,5.178,-0.2256,8999.13,982.912,3874.5,-4.00816,2.06094,-1.64778
0.267,4344.84,-3061.77,8019.42,-0.0565018,0.646555,0.157451,4391.12,2786.79,8096.8,0.884495,-1.24497,-1.58235,-244.169,9593.17,-1526.6,-0.79326,-0.177196,1.77467,375.587,-9873.0,-634.89,-1.81087,2.66292,0.59125,-1803.74,9317.45,-2213.21,-0.149703,1.44567,0.907017,-3484.04,-9243.44,-1253.18,-2.0023,5.02272,-0.248207,8999.69,982.863,3876.9,-3.9932,2.10605,-1.60701
0.268,4361.15,-3093.73,8020.78,-0.199976,0.694882,0.220301,4390.31,2798.98,8099.16,0.875585,-1.20307,-1.62125,-250.247,9597.53,-1542.96,-0.79326,-0.181018,1.79067,359.302,-9866.24,-643.522,-1.80917,2.72476,0.619557,-1796.18,9293.89,-2236.76,-0.232691,1.63943,0.884,-3469.51,-9230.33,-1259.19,-2.03074,4.90806,-0.195849,8997.27,988.061,3890.22,-3.95578,2.1281,-1.59644
0.269,4377.46,-3125.69,8022.14,-0.343451,0.743209,0.28315,4389.51,2811.16,8101.52,0.866675,-1.16116,-1.66015,-256.324,9601.89,-1559.31,-0.79326,-0.18484,1.80667,343.016,-9859.48,-652.154,-1.80747,2.78661,0.647863,-1788.61,9270.34,-2260.3,-0.31568,1.83319,0.860983,-3454.98,-9217.23,-1265.2,-2.05918,4.7934,-0.143491,8994.84,993.259,3903.54,-3.91835,2.15016,-1.58586
0.27,4393.77,-3157.64,8023.5,-0.486925,0.791537,0.345999,4388.71,2823.34,8103.89,0.857766,-1.11926,-1.69905,-262.402,9606.25,-1575.67,-0.79326,-0.188663,1.82267,326.731,-9852.72,-660.785,-1.80577,2.84846,0.67617,-1781.05,9246.78,-2283.85,-0.398668,2.02694,0.837967,-3440.46,-9204.12,-1271.21,-2.08762,4.67873,-0.0911324,8992.42,998.458,3916.86,-3.88093,2.17221,-1.57529
0.271,4410.08,-3189.6,8024.86,-0.6304,0.839864,0.408848,4387.91,2835.52,8106.25,0.848856,-1.07736,-1.73795,-268.479,9610.61,-1592.03,-0.79326,-0.192485,1.83867,310.446,-9845.96,-669.417,-1.80407,2.9103,0.704477,-1773.48,9223.23,-2307.39,-0.481656,2.2207,0.81495,-3425.93,-9191.01,-1277.22,-2.11606,4.56407,-0.0387741,8989.99,1003.66,3930.18,-3.8435,2.19427,-1.56471
0.272,4398.51,-3179.34,8032.54,-0.568173,0.763898,0.418093,4377.93,2826.77,8099.17,0.788996,-1.00162,-1.67239,-250.509,9614.21,-1592.25,-0.76388,-0.0856223,1.85068,311.699,-9853.37,-671.592,-1.71347,2.89559,0.669356,-1770.35,9241.24,-2293.22,-0.502053,2.27316,0.779767,-3431.0,-9184.94,-1275.86,-2.17708,4.48112,-0.0358475,8983.08,990.866,3934.62,-3.6949,2.20265,-1.50186
0.273,4383.46,-3163.8,8041.01,-0.480233,0.672396,0.420638,4366.81,2815.41,8090.92,0.722767,-0.92165,-1.59377,-229.533,9617.7,-1590.45,-0.730827,0.0350758,1.8622,315.144,-9862.55,-672.96,-1.61176,2.8713,0.626305,-1767.77,9264.45,-2274.33,-0.514627,2.30796,0.743063,-3438.53,-9179.74,-1273.58,-2.24218,4.40214,-0.0390998,8975.61,975.828,3937.95,-3.53239,2.20933,-1.43247
0.274,4368.41,-3148.26,8049.47,-0.392293,0.580894,0.423182,4355.69,2804.04,8082.66,0.656538,-0.84168,-1.51514,-208.558,9621.2,-1588.65,-0.697774,0.155774,1.87371,318.588,-9871.74,-674.328,-1.51004,2.84701,0.583255,-1765.19,9287.66,-2255.44,-0.5272,2.34276,0.70636,-3446.05,-9174.55,-1271.29,-2.30728,4.32315,-0.0423522,8968.13,960.789,3941.27,-3.36989,2.216,-1.36308
0.275,4353.36,-3132.72,8057.94,-0.304353,0.489392,0.425726,4344.57,2792.67,8074.41,0.590309,-0.761711,-1.43652,-187.582,9624.7,-1586.85,-0.664721,0.276472,1.88522,322.033,-9880.92,-675.696,-1.40832,2.82272,0.540205,-1762.6,9310.87,-2236.54,-0.539773,2.37756,0.669656,-3453.57,-9169.35,-1269.01,-2.37237,4.24416,-0.0456045,8960.66,945.75,3944.59,-3.20738,2.22268,-1.29369
0.276,4355.17,-3120.11,8070.76,-0.230348,0.515441,0.415136,4341.85,2785.85,8074.58,0.538254,-0.730922,-1.39817,-173.659,9626.93,-1587.62,-0.662625,0.35799,1.89162,322.349,-9884.27,-675.587,-1.36369,2.78189,0.495169,-1760.4,9316.59,-2224.13,-0.561895,2.39748,0.699949,-3463.81,-9171.39,-1277.91,-2.45664,4.12878,-0.00748598,8960.1,931.293,3947.53,-3.08313,2.23558,-1.26676
0.277,4378.05,-3111.18,8089.0,-0.173761,0.688429,0.388127,4349.64,2784.71,8085.3,0.503916,-0.761609,-1.41017,-168.551,9627.56,-1591.61,-0.699226,0.390532,1.89162,318.753,-9880.3,-673.635,-1.39042,2.72037,0.447652,-1758.65,9300.43,-2219.82,-0.595952,2.39879,0.813989,-3477.44,-9182.47,-1300.81,-2.56486,3.96789,0.0823462,8968.19,917.561,3949.99,-3.00668,2.25628,-1.29288
0.278,4400.94,-3102.24,8107.25,-0.117175,0.861418,0.361119,4357.43,2783.57,8096.01,0.469578,-0.792297,-1.42217,-163.444,9628.2,-1595.6,-0.735827,0.423075,1.89162,315.157,-9876.34,-671.682,-1.41715,2.65885,0.400135,-1756.91,9284.28,-2215.51,-0.630009,2.40011,0.928028,-3491.08,-9193.55,-1323.71,-2.67309,3.807,0.172178,8976.27,903.83,3952.45,-2.93024,2.27698,-1.319
0.279,4423.82,-3093.3,8125.49,-0.0605884,1.03441,0.33411,4365.22,2782.44,8106.73,0.43524,-0.822984,-1.43418,-158.336,9628.84,-1599.59,-0.772427,0.455617,1.89162,311.561,-9872.38,-669.729,-1.44387,2.59733,0.352617,-1755.17,9268.12,-2211.2,-0.664067,2.40143,1.04207,-3504.72,-9204.63,-1346.61,-2.78132,3.64611,0.262011,8984.36,890.098,3954.91,-2.8538,2.29768,-1.34513
0.28,4446.7,-3084.36,8143.74,-0.00400186,1.20739,0.307101,4373.01,2781.3,8117.45,0.400902,-0.853672,-1.44618,-153.229,9629.48,-1603.58,-0.809028,0.48816,1.89162,307.965,-9868.42,-667.776,-1.4706,2.53581,0.3051,-1753.43,9251.97,-2206.89,-0.698124,2.40275,1.15611,-3518.36,-9215.71,-1369.5,-2.88954,3.48522,0.351843,8992.44,876.367,3957.36,-2.77735,2.31838,-1.37125
0.281,4424.6,-3108.85,8112.98,-0.0576866,1.00563,0.224773,4377.11,2780.62,8118.68,0.438588,-0.863214,-1.5211,-155.901,9633.93,-1595.87,-0.81921,0.510861,1.83487,312.676,-9872.19,-656.495,-1.54319,2.57262,0.368613,-1751.83,9247.87,-2199.74,-0.700406,2.40175,1.2022,-3505.6,-9209.64,-1364.81,-2.91602,3.32031,0.27799,9005.51,874.755,3955.09,-2.74979,2.36008,-1.30098
0.282,4402.5,-3133.34,8082.23,-0.111371,0.803858,0.142445,4381.21,2779.94,8119.91,0.476274,-0.872757,-1.59603,-158.573,9638.39,-1588.16,-0.829392,0.533562,1.77811,317.386,-9875.96,-645.214,-1.61579,2.60944,0.432126,-1750.23,9243.77,-2192.6,-0.702687,2.40075,1.24829,-3492.85,-9203.56,-1360.11,-2.94249,3.1554,0.204137,9018.58,873.144,3952.82,-2.72222,2.40178,-1.2307
0.283,4380.4,-3157.83,8051.48,-0.165056,0.60209,0.0601172,4385.31,2779.27,8121.14,0.51396,-0.8823,-1.67096,-161.245,9642.84,-1580.45,-0.839573,0.556263,1.72136,322.097,-9879.74,-633.933,-1.68838,2.64625,0.495639,-1748.63,9239.67,-2185.45,-0.704968,2.39975,1.29438,-3480.09,-9197.49,-1355.41,-2.96896,2.99049,0.130284,9031.65,871.533,3950.55,-2.69466,2.44347,-1.16043
0.284,4358.3,-3182.31,8020.72,-0.218741,0.400322,-0.0222107,4389.41,2778.59,8122.38,0.551647,-0.891843,-1.74589,-163.917,9647.29,-1572.74,-0.849755,0.578964,1.66461,326.807,-9883.51,-622.652,-1.76098,2.68306,0.559152,-1747.03,9235.58,-2178.31,-0.70725,2.39875,1.34048,-3467.34,-9191.41,-1350.72,-2.99544,2.82558,0.0564314,9044.72,869.922,3948.27,-2.66709,2.48517,-1.09015
0.285,4350.82,-3198.64,8019.51,-0.273035,0.325372,0.00940625,4391.02,2782.1,8113.3,0.590211,-0.892193,-1.78561,-174.454,9644.77,-1567.28,-0.873475,0.623689,1.63918,329.602,-9879.94,-613.168,-1.80186,2.71339,0.624691,-1747.34,9244.37,-2173.01,-0.687507,2.42286,1.31564,-3470.78,-9182.42,-1329.53,-3.08852,2.63957,0.0200319,9052.51,880.952,3937.97,-2.63091,2.4594,-0.999439
0.286,4355.04,-3208.44,8041.95,-0.327816,0.351876,0.132179,4390.63,2788.95,8095.99,0.629477,-0.885188,-1.79718,-191.282,9636.67,-1563.6,-0.908026,0.686032,1.6388,330.864,-9870.5,-605.121,-1.81737,2.73855,0.691851,-1749.18,9263.48,-2169.19,-0.650144,2.46708,1.23407,-3487.19,-9171.09,-1295.15,-3.23488,2.4367,0.0135953,9056.08,902.095,3921.25,-2.58784,2.37965,-0.892375
0.287,4359.26,-3218.24,8064.38,-0.382598,0.378381,0.254952,4390.25,2795.81,8078.67,0.668743,-0.878184,-1.80875,-208.11,9628.56,-1559.93,-0.942577,0.748375,1.63842,332.127,-9861.06,-597.075,-1.83289,2.76371,0.759011,-1751.03,9282.59,-2165.37,-0.612782,2.51129,1.15249,-3503.6,-9159.76,-1260.78,-3.38124,2.23382,0.00715855,9059.65,923.238,3904.52,-2.54477,2.29991,-0.785309
0.288,4363.48,-3228.04,8086.81,-0.437379,0.404885,0.377725,4389.87,2802.66,8061.35,0.708009,-0.871179,-1.82032,-224.938,9620.46,-1556.25,-0.977128,0.810718,1.63804,333.389,-9851.61,-589.028,-1.8484,2.78887,0.826172,-1752.88,9301.7,-2161.55,-0.57542,2.5555,1.07092,-3520.0,-9148.42,-1226.4,-3.52761,2.03094,0.000721858,9063.22,944.381,3887.8,-2.5017,2.22017,-0.678244
0.289,4368.41,-3235.52,8106.63,-0.473855,0.436128,0.47935,4390.78,2808.64,8047.42,0.742353,-0.861664,-1.82514,-239.835,9616.01,-1554.68,-1.01247,0.867363,1.63665,335.367,-9842.49,-582.775,-1.85834,2.81114,0.877421,-1755.27,9318.97,-2158.19,-0.537594,2.59814,0.983929,-3534.37,-9139.04,-1195.83,-3.67633,1.83043,-0.0067416,9066.17,965.002,3873.05,-2.4615,2.13665,-0.583664
0.29,4379.04,-3224.43,8105.59,-0.363887,0.505284,0.411799,4402.04,2807.65,8060.56,0.73731,-0.832066,-1.77603,-239.293,9640.87,-1569.92,-1.05416,0.878425,1.62718,343.074,-9835.93,-590.871,-1.82366,2.81028,0.801389,-1762.05,9321.49,-2158.51,-0.496065,2.6282,0.853604,-3532.44,-9145.2,-1195.72,-3.84399,1.64888,-0.0224191,9064.15,981.448,3874.14,-2.44429,2.02295,-0.588963
0.291,4389.68,-3213.34,8104.55,-0.253919,0.574441,0.344247,4413.31,2806.66,8073.71,0.732268,-0.802468,-1.72692,-238.751,9665.72,-1585.16,-1.09585,0.889488,1.61771,350.781,-9829.38,-598.968,-1.78898,2.80942,0.725357,-1768.83,9324.01,-2158.83,-0.454535,2.65825,0.723279,-3530.51,-9151.36,-1195.61,-4.01164,1.46734,-0.0380966,9062.13,997.894,3875.22,-2.42708,1.90926,-0.594262
0.292,4400.31,-3202.25,8103.51,-0.14395,0.643597,0.276695,4424.57,2805.67,8086.85,0.727226,-0.77287,-1.67781,-238.209,9690.57,-1600.4,-1.13754,0.90055,1.60824,358.489,-9822.82,-607.064,-1.7543,2.80856,0.649325,-1775.62,9326.53,-2159.15,-0.413005,2.68831,0.592955,-3528.58,-9157.53,-1195.51,-4.1793,1.28579,-0.0537741,9060.1,1014.34,3876.31,-2.40987,1.79556,-0.599561
0.293,4410.94,-3191.16,8102.47,-0.033982,0.712753,0.209143,4435.83,2804.68,8099.99,0.722183,-0.743272,-1.6287,-237.667,9715.42,-1615.63,-1.17922,0.911613,1.59877,366.196,-9816.26,-615.16,-1.71963,2.8077,0.573293,-1782.4,9329.05,-2159.46,-0.371476,2.71837,0.46263,-3526.65,-9163.69,-1195.4,-4.34695,1.10425,-0.0694517,9058.08,1030.79,3877.39,-2.39266,1.68186,-0.60486
0.294,4410.4,-3171.64,8103.44,0.0283622,0.771426,0.222246,4441.33,2797.68,8117.13,0.76294,-0.709389,-1.6123,-231.479,9693.33,-1601.46,-1.12611,0.9153,1.50735,376.157,-9828.64,-628.078,-1.68984,2.79222,0.545347,-1778.54,9330.42,-2148.17,-0.329946,2.78383,0.432535,-3527.38,-9166.7,-1201.02,-4.45646,0.939495,-0.0542119,9053.09,1034.09,3882.64,-2.38933,1.63535,-0.553519
0.295,4404.27,-3147.89,8105.43,0.0668944,0.824857,0.275677,4443.94,2787.68,8136.26,0.826597,-0.673362,-1.61225,-222.467,9647.78,-1572.57,-1.0256,0.9153,1.37495,387.246,-9850.48,-643.408,-1.66249,2.76942,0.541444,-1769.35,9331.2,-2131.07,-0.288416,2.867,0.452555,-3529.43,-9168.15,-1209.51,-4.53689,0.783143,-0.0235136,9046.61,1030.82,3889.96,-2.39294,1.62242,-0.473859
0.296,4398.15,-3124.14,8107.42,0.105426,0.878288,0.329108,4446.56,2777.68,8155.4,0.890253,-0.637336,-1.61221,-213.456,9602.22,-1543.68,-0.92509,0.9153,1.24256,398.335,-9872.33,-658.737,-1.63514,2.74663,0.53754,-1760.17,9331.99,-2113.98,-0.246887,2.95017,0.472576,-3531.49,-9169.59,-1218.0,-4.61732,0.626791,0.00718479,9040.14,1027.56,3897.29,-2.39654,1.6095,-0.394199
0.297,4392.02,-3100.4,8109.41,0.143959,0.931719,0.382539,4449.17,2767.67,8174.53,0.953909,-0.60131,-1.61216,-204.445,9556.66,-1514.8,-0.824578,0.9153,1.11016,409.423,-9894.17,-674.067,-1.60779,2.72384,0.533637,-1750.98,9332.77,-2096.88,-0.205357,3.03333,0.492597,-3533.54,-9171.04,-1226.5,-4.69774,0.470438,0.0378831,9033.66,1024.29,3904.61,-2.40015,1.59657,-0.314538
0.298,4389.32,-3087.63,8109.83,0.155218,0.966788,0.418254,4448.18,2762.56,8186.87,1.00678,-0.590805,-1.61507,-198.608,9521.97,-1494.78,-0.761336,0.909959,1.0026,416.021,-9910.29,-685.679,-1.58652,2.69424,0.54869,-1749.48,9332.88,-2084.74,-0.157149,3.08033,0.50214,-3527.68,-9171.12,-1230.89,-4.75165,0.335876,0.0507735,9026.12,1021.02,3913.14,-2.37353,1.57476,-0.221464
0.299,4398.62,-3113.29,8104.72,0.0710206,0.937592,0.391964,4434.58,2774.55,8175.45,1.0219,-0.669628,-1.62835,-203.881,9525.32,-1505.79,-0.828534,0.885927,0.98192,406.902,-9906.35,-684.279,-1.58652,2.64085,0.630089,-1774.85,9330.64,-2089.92,-0.0855684,3.00076,0.475012,-3494.11,-9166.47,-1220.95,-4.71271,0.277577,0.00133566,9014.83,1017.76,3925.91,-2.24114,1.52181,-0.0814384
0.3,4407.92,-3138.94,8099.62,-0.0131764,0.908397,0.365674,4420.98,2786.54,8164.03,1.03702,-0.748452,-1.64162,-209.154,9528.67,-1516.81,-0.895733,0.861894,0.961245,397.782,-9902.41,-682.879,-1.58652,2.58745,0.711488,-1800.21,9328.4,-2095.11,-0.0139876,2.92118,0.447884,-3460.54,-9161.82,-1211.01,-4.67377,0.219278,-0.0481022,9003.54,1014.49,3938.67,-2.10875,1.46887,0.0585869
0.301,4417.23,-3164.59,8094.52,-0.0973734,0.879201,0.339385,4407.38,2798.53,8152.61,1.05214,-0.827275,-1.65489,-214.428,9532.02,-1527.82,-0.962932,0.837861,0.94057,388.663,-9898.47,-681.479,-1.58652,2.53405,0.792887,-1825.58,9326.15,-2100.29,0.0575932,2.8416,0.420756,-3426.98,-9157.17,-1201.07,-4.63483,0.160979,-0.09754,8992.25,1011.22,3951.43,-1.97636,1.41593,0.198612
0.302,4426.53,-3190.25,8089.42,-0.18157,0.850005,0.313095,4393.77,2810.52,8141.19,1.06727,-0.906098,-1.66817,-219.701,9535.37,-1538.84,-1.03013,0.813828,0.919894,379.544,-9894.54,-680.079,-1.58652,2.48065,0.874286,-1850.95,9323.91,-2105.48,0.129174,2.76202,0.393628,-3393.41,-9152.52,-1191.14,-4.5959,0.102681,-0.146978,8980.97,1007.95,3964.2,-1.84397,1.36299,0.338638
0.303,4425.67,-3183.32,8091.45,-0.278799,0.792982,0.316093,4387.53,2820.31,8126.91,1.02754,-0.951582,-1.63376,-217.143,9558.19,-1533.4,-1.05439,0.739494,0.839496,372.871,-9890.21,-671.011,-1.55656,2.40996,0.83516,-1847.88,9337.35,-2101.99,0.0914904,2.6653,0.451957,-3390.49,-9154.4,-1197.88,-4.52493,0.010071,-0.164742,8964.72,1013.16,3979.36,-1.71862,1.25168,0.362534
0.304,4421.91,-3167.08,8095.51,-0.37975,0.728009,0.32746,4383.39,2829.47,8111.81,0.972143,-0.98754,-1.58573,-212.348,9586.58,-1523.25,-1.06638,0.650788,0.742033,366.896,-9885.77,-659.752,-1.51804,2.33432,0.761597,-1836.69,9355.26,-2096.02,0.0225884,2.56368,0.534702,-3396.32,-9158.15,-1209.39,-4.44482,-0.0923418,-0.173456,8947.05,1020.78,3995.21,-1.59528,1.12369,0.35325
0.305,4418.14,-3150.85,8099.56,-0.480702,0.663035,0.338826,4379.25,2838.63,8096.71,0.916746,-1.0235,-1.53771,-207.553,9614.96,-1513.11,-1.07837,0.562082,0.64457,360.922,-9881.33,-648.493,-1.47952,2.25869,0.688035,-1825.5,9373.17,-2090.06,-0.0463136,2.46206,0.617447,-3402.16,-9161.91,-1220.9,-4.3647,-0.194755,-0.182171,8929.38,1028.41,4011.06,-1.47194,0.995697,0.343967
0.306,4414.38,-3134.61,8103.62,-0.581653,0.598062,0.350193,4375.11,2847.78,8081.61,0.861348,-1.05946,-1.48968,-202.758,9643.34,-1502.97,-1.09037,0.473375,0.547107,354.948,-9876.89,-637.233,-1.441,2.18306,0.614472,-1814.31,9391.09,-2084.09,-0.115216,2.36043,0.700192,-3407.99,-9165.66,-1232.42,-4.28458,-0.297167,-0.190886,8911.71,1036.03,4026.91,-1.3486,0.867708,0.334684
0.307,4414.03,-3126.45,8105.22,-0.614012,0.562458,0.345435,4370.08,2850.26,8074.9,0.794399,-1.07708,-1.43458,-194.15,9658.55,-1496.0,-1.10248,0.406513,0.490357,348.425,-9874.93,-632.638,-1.38401,2.10127,0.562595,-1804.22,9399.66,-2077.02,-0.178776,2.26159,0.750278,-3415.47,-9172.04,-1237.57,-4.27194,-0.3999,-0.228142,8899.14,1041.22,4035.92,-1.26359,0.773415,0.305814
0.308,4420.5,-3134.43,8101.9,-0.509186,0.585592,0.30843,4363.27,2839.38,8084.97,0.704344,-1.05805,-1.36533,-177.916,9647.41,-1495.39,-1.11483,0.383337,0.515032,340.804,-9877.93,-641.372,-1.29008,2.00716,0.55409,-1796.31,9389.56,-2067.72,-0.231654,2.16828,0.735043,-3426.23,-9183.68,-1230.01,-4.39423,-0.503272,-0.32248,8896.77,1041.52,4031.25,-1.25523,0.746512,0.237773
0.309,4426.98,-3142.42,8098.58,-0.40436,0.608726,0.271424,4356.47,2828.51,8095.04,0.61429,-1.03902,-1.29609,-161.683,9636.27,-1494.79,-1.12718,0.360161,0.539706,333.183,-9880.94,-650.105,-1.19616,1.91306,0.545584,-1788.4,9379.46,-2058.42,-0.284532,2.07498,0.719808,-3436.99,-9195.31,-1222.46,-4.51652,-0.606645,-0.416819,8894.4,1041.82,4026.57,-1.24688,0.71961,0.169732
0.31,4433.46,-3150.4,8095.26,-0.299534,0.63186,0.234419,4349.67,2817.63,8105.11,0.524236,-1.01998,-1.22684,-145.449,9625.13,-1494.18,-1.13952,0.336985,0.564381,325.562,-9883.94,-658.839,-1.10223,1.81896,0.537078,-1780.49,9369.35,-2049.12,-0.337409,1.98167,0.704573,-3447.75,-9206.95,-1214.9,-4.63881,-0.710017,-0.511158,8892.03,1042.12,4021.9,-1.23852,0.692707,0.10169
0.311,4439.94,-3158.39,8091.93,-0.194707,0.654994,0.197413,4342.86,2806.75,8115.18,0.434181,-1.00095,-1.15759,-129.216,9614.0,-1493.57,-1.15187,0.313809,0.589056,317.941,-9886.94,-667.572,-1.00831,1.72486,0.528572,-1772.59,9359.25,-2039.82,-0.390287,1.88837,0.689338,-3458.51,-9218.58,-1207.34,-4.7611,-0.813389,-0.605497,8889.66,1042.42,4017.23,-1.23017,0.665804,0.0336491
0.312,4415.77,-3156.74,8073.59,-0.179016,0.613907,0.236763,4355.89,2804.18,8119.33,0.442813,-0.986521,-1.16643,-147.697,9624.41,-1503.2,-1.13222,0.298882,0.606603,333.57,-9885.33,-661.617,-0.978938,1.60088,0.546562,-1770.26,9344.35,-2046.48,-0.411565,1.8379,0.681363,-3456.53,-9214.65,-1225.89,-4.79851,-0.940599,-0.658759,8895.27,1049.12,4015.74,-1.19697,0.653315,0.0849323
0.313,4387.78,-3153.88,8053.38,-0.174466,0.564791,0.285657,4371.41,2802.64,8122.75,0.46378,-0.972672,-1.18502,-170.518,9637.52,-1514.11,-1.10857,0.284986,0.62326,352.104,-9883.13,-653.826,-0.957636,1.47316,0.567864,-1768.64,9328.85,-2055.13,-0.428893,1.79279,0.674296,-3452.96,-9208.76,-1247.69,-4.82531,-1.07079,-0.706887,8901.89,1056.62,4014.66,-1.16066,0.642626,0.151131
0.314,4359.78,-3151.03,8033.16,-0.169916,0.515675,0.334551,4386.92,2801.11,8126.17,0.484747,-0.958823,-1.20362,-193.339,9650.62,-1525.02,-1.08492,0.27109,0.639916,370.638,-9880.93,-646.035,-0.936334,1.34544,0.589166,-1767.01,9313.35,-2063.79,-0.446222,1.74768,0.667229,-3449.38,-9202.88,-1269.49,-4.85211,-1.20098,-0.755014,8908.51,1064.12,4013.57,-1.12436,0.631938,0.21733
0.315,4331.78,-3148.17,8012.94,-0.165366,0.46656,0.383445,4402.43,2799.57,8129.58,0.505715,-0.944974,-1.22221,-216.159,9663.73,-1535.94,-1.06127,0.257194,0.656572,389.173,-9878.73,-638.244,-0.915032,1.21772,0.610468,-1765.39,9297.86,-2072.44,-0.46355,1.70257,0.660163,-3445.8,-9197.0,-1291.3,-4.87891,-1.33117,-0.803142,8915.12,1071.62,4012.48,-1.08805,0.62125,0.283529
0.316,4324.88,-3153.6,8008.72,-0.136688,0.459171,0.469074,4411.25,2799.31,8135.1,0.512963,-0.942996,-1.24353,-233.877,9676.51,-1539.81,-1.04705,0.198206,0.660729,400.164,-9878.62,-633.695,-0.91808,1.12131,0.633914,-1763.88,9291.12,-2077.31,-0.437441,1.60935,0.634464,-3445.96,-9185.78,-1301.91,-4.9124,-1.4256,-0.822412,8919.85,1080.63,4014.16,-1.02725,0.609847,0.350443
0.317,4344.36,-3169.38,8024.48,-0.0778495,0.503941,0.600622,4411.72,2800.62,8143.26,0.503061,-0.955859,-1.26826,-245.215,9688.89,-1534.89,-1.04462,0.0828521,0.64926,401.724,-9881.1,-633.198,-0.951564,1.06401,0.660041,-1762.53,9295.34,-2077.47,-0.357037,1.456,0.585475,-3450.79,-9167.88,-1298.54,-4.95423,-1.47535,-0.80561,8922.22,1091.53,4019.29,-0.935829,0.597549,0.418251
0.318,4363.83,-3185.16,8040.25,-0.0190114,0.548711,0.73217,4412.18,2801.94,8151.41,0.493159,-0.968721,-1.29299,-256.553,9701.27,-1529.96,-1.04219,-0.0325017,0.637792,403.285,-9883.58,-632.7,-0.985048,1.00672,0.686168,-1761.18,9299.57,-2077.62,-0.276633,1.30265,0.536487,-3455.62,-9149.98,-1295.16,-4.99607,-1.52509,-0.788809,8924.59,1102.43,4024.42,-0.844407,0.585251,0.48606
0.319,4383.31,-3200.94,8056.02,0.0398267,0.593481,0.863717,4412.64,2803.26,8159.56,0.483258,-0.981583,-1.31771,-267.891,9713.64,-1525.04,-1.03977,-0.147856,0.626323,404.846,-9886.06,-632.203,-1.01853,0.949423,0.712295,-1759.83,9303.79,-2077.77,-0.196229,1.1493,0.487499,-3460.45,-9132.08,-1291.79,-5.03791,-1.57483,-0.772008,8926.96,1113.33,4029.55,-0.752986,0.572954,0.553868
0.32,4402.78,-3216.73,8071.78,0.0986647,0.63825,0.995265,4413.11,2804.58,8167.71,0.473356,-0.994446,-1.34244,-279.229,9726.02,-1520.12,-1.03734,-0.263209,0.614855,406.407,-9888.54,-631.706,-1.05202,0.892128,0.738422,-1758.48,9308.01,-2077.92,-0.115824,0.995952,0.43851,-3465.28,-9114.19,-1288.42,-5.07975,-1.62457,-0.755206,8929.33,1124.23,4034.68,-0.661564,0.560656,0.621676
0.321,4384.95,-3201.56,8067.61,0.0293078,0.710735,0.887135,4411.3,2826.48,8167.73,0.476299,-0.958979,-1.26123,-246.695,9736.0,-1488.37,-0.947399,-0.182694,0.678051,401.975,-9896.1,-627.91,-0.992152,0.870983,0.755704,-1767.36,9311.14,-2081.88,-0.100349,0.960932,0.37988,-3475.58,-9142.48,-1286.19,-5.04485,-1.59582,-0.727424,8926.08,1141.83,4042.94,-0.589332,0.48046,0.674343
