Time,RFoot_accel.x,RFoot_accel.y,RFoot_accel.z,RFoot_gyro.x,RFoot_gyro.y,RFoot_gyro.z,LFoot_accel.x,LFoot_accel.y,LFoot_accel.z,LFoot_gyro.x,LFoot_gyro.y,LFoot_gyro.z,RShank_accel.x,RShank_accel.y,RShank_accel.z,RShank_gyro.x,RShank_gyro.y,RShank_gyro.z,LShank_accel.x,LShank_accel.y,LShank_accel.z,LShank_gyro.x,LShank_gyro.y,LShank_gyro.z,RThigh_accel.x,RThigh_accel.y,RThigh_accel.z,RThigh_gyro.x,RThigh_gyro.y,RThigh_gyro.z,LThigh_accel.x,LThigh_accel.y,LThigh_accel.z,LThigh_gyro.x,LThigh_gyro.y,LThigh_gyro.z,Pelvis_accel.x,Pelvis_accel.y,Pelvis_accel.z,Pelvis_gyro.x,Pelvis_gyro.y,Pelvis_gyro.z
3.33,4723.39,-212.129,9988.96,-167.904,281.086,160.533,3484.37,3580.02,8319.45,-2.07273,3.03889,8.70715,677.073,8332.24,307.268,76.5719,-5.08991,309.318,1397.29,-9397.04,-2264.89,-9.6085,-3.9063,42.0101,-5324.38,5352.56,-2965.53,-15.609,83.9067,94.3369,767.576,-9744.09,-229.043,-29.0413,-33.0221,82.8912,6843.67,-578.009,2346.33,22.4874,7.25432,14.6565
3.3305,4798.04,-248.235,10008.7,-168.144,281.55,159.927,3491.08,3591.68,8321.49,-2.13164,3.02103,8.76818,688.402,8377.65,276.856,76.5191,-6.11093,310.255,1360.62,-9413.53,-2277.25,-9.50655,-3.82157,42.2952,-5329.52,5324.63,-2971.47,-15.0896,82.3941,93.7572,767.1,-9734.48,-268.457,-28.8789,-33.0821,82.9738,6858.31,-553.104,2333.63,22.6703,7.4182,14.452
3.331,4872.69,-284.341,10028.5,-168.383,282.014,159.32,3497.8,3603.33,8323.53,-2.19055,3.00318,8.82922,699.732,8423.06,246.445,76.4664,-7.13194,311.192,1323.95,-9430.01,-2289.61,-9.4046,-3.73683,42.5803,-5334.67,5296.7,-2977.41,-14.5701,80.8815,93.1774,766.623,-9724.86,-307.87,-28.7165,-33.1422,83.0564,6872.94,-528.199,2320.93,22.8532,7.58209,14.2474
3.3315,4947.35,-320.447,10048.2,-168.623,282.478,158.713,3504.52,3614.99,8325.57,-2.24946,2.98533,8.89025,711.061,8468.47,216.033,76.4137,-8.15296,312.129,1287.28,-9446.5,-2301.97,-9.30265,-3.6521,42.8654,-5339.82,5268.76,-2983.35,-14.0507,79.3688,92.5977,766.147,-9715.25,-347.284,-28.5541,-33.2022,83.139,6887.58,-503.294,2308.23,23.036,7.74598,14.0429
3.332,5022.0,-356.553,10068.0,-168.862,282.942,158.107,3511.24,3626.64,8327.61,-2.30837,2.96748,8.95128,722.391,8513.88,185.621,76.3609,-9.17398,313.066,1250.6,-9462.98,-2314.33,-9.20071,-3.56736,43.1505,-5344.96,5240.83,-2989.29,-13.5312,77.8562,92.0179,765.671,-9705.63,-386.697,-28.3917,-33.2623,83.2216,6902.22,-478.389,2295.53,23.2189,7.90986,13.8383
3.3325,5096.65,-392.66,10087.7,-169.102,283.407,157.5,3517.96,3638.3,8329.65,-2.36728,2.94962,9.01232,733.72,8559.29,155.21,76.3082,-10.195,314.002,1213.93,-9479.46,-2326.69,-9.09876,-3.48263,43.4356,-5350.11,5212.9,-2995.23,-13.0118,76.3436,91.4381,765.195,-9696.02,-426.111,-28.2293,-33.3223,83.3042,6916.86,-453.484,2282.83,23.4018,8.07375,13.6338
3.333,5171.31,-428.766,10107.5,-169.341,283.871,156.893,3524.67,3649.96,8331.69,-2.42619,2.93177,9.07335,745.049,8604.7,124.798,76.2555,-11.216,314.939,1177.26,-9495.95,-2339.05,-8.99681,-3.3979,43.7207,-5355.26,5184.96,-3001.17,-12.4923,74.8309,90.8584,764.718,-9686.4,-465.525,-28.0669,-33.3824,83.3868,6931.5,-428.58,2270.13,23.5847,8.23763,13.4292
3.3335,5242.75,-467.556,10125.4,-169.528,284.421,156.273,3525.37,3667.23,8327.01,-2.45896,2.92414,9.14334,757.662,8647.2,94.4329,76.2132,-12.1906,315.83,1137.66,-9514.36,-2347.43,-8.87225,-3.35195,43.9649,-5365.09,5154.37,-3002.38,-11.9875,73.3662,90.3175,767.744,-9672.53,-506.317,-27.9262,-33.3277,83.4648,6951.07,-398.181,2261.53,23.7639,8.43049,13.2516
3.334,5307.78,-511.714,10139.5,-169.609,285.141,155.625,3514.02,3695.76,8308.9,-2.43947,2.93696,9.23125,772.84,8683.87,64.1615,76.1919,-13.0724,316.628,1092.19,-9536.63,-2347.82,-8.70247,-3.38359,44.1273,-5384.3,5118.47,-2994.13,-11.5119,71.9973,89.8541,777.773,-9650.15,-549.865,-27.8291,-33.0436,83.5335,6980.53,-356.794,2261.12,23.9358,8.68128,13.128
3.3345,5372.81,-555.873,10153.5,-169.691,285.862,154.977,3502.67,3724.28,8290.79,-2.41997,2.94977,9.31915,788.017,8720.54,33.8901,76.1706,-13.9542,317.426,1046.72,-9558.89,-2348.21,-8.53269,-3.41524,44.2897,-5403.5,5082.57,-2985.87,-11.0363,70.6284,89.3908,787.803,-9627.77,-593.414,-27.732,-32.7595,83.6023,7009.99,-315.407,2260.72,24.1077,8.93207,13.0043
3.335,5437.84,-600.031,10167.6,-169.773,286.583,154.329,3491.31,3752.8,8272.68,-2.40047,2.96259,9.40706,803.195,8757.21,3.61861,76.1493,-14.8359,318.224,1001.25,-9581.16,-2348.6,-8.36291,-3.44688,44.4521,-5422.71,5046.66,-2977.62,-10.5608,69.2594,88.9275,797.832,-9605.39,-636.962,-27.635,-32.4754,83.6711,7039.45,-274.02,2260.31,24.2796,9.18286,12.8807
3.3355,5502.88,-644.189,10181.7,-169.854,287.304,153.681,3479.96,3781.33,8254.58,-2.38098,2.97541,9.49496,818.373,8793.88,-26.6528,76.128,-15.7177,319.022,955.783,-9603.43,-2348.99,-8.19312,-3.47852,44.6145,-5441.91,5010.76,-2969.36,-10.0852,67.8905,88.4642,807.861,-9583.01,-680.511,-27.5379,-32.1913,83.7398,7068.91,-232.633,2259.91,24.4515,9.43365,12.7571
3.336,5567.91,-688.348,10195.8,-169.936,288.024,153.033,3468.61,3809.85,8236.47,-2.36148,2.98822,9.58287,833.551,8830.55,-56.9243,76.1067,-16.5995,319.82,910.314,-9625.7,-2349.39,-8.02334,-3.51016,44.7769,-5461.12,4974.86,-2961.11,-9.60959,66.5216,88.0009,817.891,-9560.63,-724.06,-27.4408,-31.9072,83.8086,7098.37,-191.247,2259.5,24.6235,9.68444,12.6334
3.3365,5632.94,-732.506,10209.9,-170.017,288.745,152.385,3457.26,3838.38,8218.36,-2.34198,3.00104,9.67077,848.729,8867.22,-87.1957,76.0854,-17.4812,320.618,864.845,-9647.96,-2349.78,-7.85356,-3.5418,44.9393,-5480.33,4938.95,-2952.85,-9.13401,65.1527,87.5376,827.92,-9538.25,-767.608,-27.3437,-31.6231,83.8773,7127.83,-149.86,2259.09,24.7954,9.93523,12.5098
3.337,5697.97,-776.664,10224.0,-170.099,289.466,151.737,3445.91,3866.9,8200.25,-2.32249,3.01385,9.75868,863.906,8903.89,-117.467,76.0641,-18.363,321.416,819.376,-9670.23,-2350.17,-7.68377,-3.57344,45.1017,-5499.53,4903.05,-2944.6,-8.65842,63.7837,87.0743,837.949,-9515.87,-811.157,-27.2466,-31.339,83.9461,7157.29,-108.473,2258.69,24.9673,10.186,12.3862
3.3375,5763.0,-820.823,10238.1,-170.18,290.187,151.089,3434.56,3895.42,8182.14,-2.30299,3.02667,9.84658,879.084,8940.56,-147.739,76.0428,-19.2448,322.214,773.908,-9692.5,-2350.56,-7.51399,-3.60508,45.2642,-5518.74,4867.15,-2936.35,-8.18284,62.4148,86.611,847.979,-9493.49,-854.705,-27.1495,-31.0549,84.0149,7186.75,-67.0862,2258.28,25.1392,10.4368,12.2625
3.338,5835.83,-847.44,10249.8,-170.188,290.934,150.439,3434.57,3921.32,8172.19,-2.34863,3.02936,9.95126,897.081,8972.12,-172.367,76.0247,-20.0846,322.95,731.204,-9719.01,-2349.43,-7.38339,-3.68526,45.421,-5543.5,4831.73,-2927.63,-7.76954,61.1742,86.2004,856.462,-9483.17,-878.695,-27.0713,-30.6765,84.1142,7210.98,-31.5099,2261.64,25.2499,10.6388,12.134
3.3385,5918.42,-852.131,10258.7,-170.105,291.714,149.786,3448.79,3943.94,8172.42,-2.47568,3.01939,10.0769,918.603,8997.29,-189.941,76.0107,-20.8719,323.607,691.958,-9750.81,-2346.38,-7.30178,-3.8261,45.5708,-5575.21,4796.93,-2918.33,-7.43409,60.0939,85.8558,863.013,-9487.92,-878.236,-27.0169,-30.1802,84.2518,7228.67,-3.19654,2269.7,25.284,10.7799,11.9993
3.339,6001.01,-856.822,10267.6,-170.021,292.494,149.133,3463.01,3966.56,8172.65,-2.60274,3.00943,10.2026,940.124,9022.46,-207.514,75.9967,-21.6593,324.264,652.711,-9782.62,-2343.34,-7.22016,-3.96695,45.7207,-5606.92,4762.13,-2909.03,-7.09865,59.0136,85.5111,869.565,-9492.68,-877.776,-26.9624,-29.6839,84.3894,7246.37,25.1168,2277.75,25.3182,10.921,11.8646
3.3395,6083.6,-861.513,10276.4,-169.937,293.275,148.48,3477.22,3989.18,8172.88,-2.72979,2.99946,10.3282,961.645,9047.63,-225.088,75.9827,-22.4467,324.922,613.465,-9814.42,-2340.29,-7.13854,-4.10779,45.8705,-5638.63,4727.33,-2899.73,-6.7632,57.9333,85.1665,876.116,-9497.43,-877.317,-26.9079,-29.1876,84.527,7264.07,53.4301,2285.81,25.3523,11.062,11.7299
3.34,6166.19,-866.204,10285.3,-169.854,294.055,147.827,3491.44,4011.8,8173.11,-2.85684,2.9895,10.4539,983.166,9072.79,-242.662,75.9687,-23.234,325.579,574.218,-9846.23,-2337.25,-7.05693,-4.24864,46.0204,-5670.34,4692.53,-2890.43,-6.42776,56.853,84.8218,882.667,-9502.19,-876.857,-26.8535,-28.6913,84.6646,7281.76,81.7434,2293.87,25.3864,11.2031,11.5953
3.3405,6248.78,-870.895,10294.2,-169.77,294.835,147.174,3505.66,4034.42,8173.34,-2.9839,2.97953,10.5796,1004.69,9097.96,-260.236,75.9547,-24.0214,326.236,534.971,-9878.04,-2334.2,-6.97531,-4.38948,46.1702,-5702.04,4657.73,-2881.13,-6.09231,55.7727,84.4772,889.218,-9506.94,-876.398,-26.799,-28.195,84.8023,7299.46,110.057,2301.92,25.4205,11.3441,11.4606
3.341,6331.36,-875.586,10303.0,-169.686,295.615,146.521,3519.88,4057.04,8173.57,-3.11095,2.96956,10.7052,1026.21,9123.13,-277.81,75.9407,-24.8087,326.893,495.725,-9909.84,-2331.15,-6.89369,-4.53033,46.32,-5733.75,4622.92,-2871.83,-5.75687,54.6924,84.1326,895.769,-9511.7,-875.939,-26.7445,-27.6987,84.9399,7317.16,138.37,2309.98,25.4547,11.4852,11.3259
3.3415,6413.95,-880.278,10311.9,-169.603,296.395,145.868,3534.1,4079.66,8173.8,-3.23801,2.9596,10.8309,1047.73,9148.3,-295.384,75.9268,-25.5961,327.551,456.478,-9941.65,-2328.11,-6.81208,-4.67117,46.4699,-5765.46,4588.12,-2862.53,-5.42142,53.6121,83.7879,902.321,-9516.45,-875.479,-26.6901,-27.2024,85.0775,7334.85,166.683,2318.04,25.4888,11.6263,11.1912
3.342,6496.54,-884.969,10320.8,-169.519,297.176,145.215,3548.31,4102.27,8174.03,-3.36506,2.94963,10.9565,1069.25,9173.47,-312.958,75.9128,-26.3835,328.208,417.232,-9973.46,-2325.06,-6.73046,-4.81202,46.6197,-5797.17,4553.32,-2853.23,-5.08598,52.5319,83.4433,908.872,-9521.21,-875.02,-26.6356,-26.7061,85.2151,7352.55,194.997,2326.09,25.5229,11.7673,11.0565
3.3425,6553.72,-941.111,10355.7,-169.383,297.921,144.137,3562.57,4108.65,8167.87,-3.51277,2.9542,11.0654,1093.04,9201.38,-336.208,75.9688,-27.1262,328.796,387.0,-9999.27,-2318.01,-6.53998,-5.03567,46.7204,-5828.81,4527.83,-2842.03,-4.79486,51.6071,83.2008,917.876,-9519.16,-873.243,-26.6234,-26.189,85.3449,7367.92,225.706,2334.84,25.5034,11.8561,10.9677
3.343,6590.57,-1038.41,10411.5,-169.207,298.638,142.718,3576.86,4102.02,8156.59,-3.677,2.97039,11.1608,1118.64,9231.47,-364.0,76.0809,-27.8332,329.329,363.981,-10020.3,-2307.76,-6.2624,-5.32558,46.7817,-5860.38,4509.79,-2829.3,-4.53921,50.8067,83.0401,928.842,-9511.68,-870.412,-26.6451,-25.6553,85.4684,7381.43,258.331,2344.13,25.441,11.9031,10.9156
3.3435,6627.42,-1135.72,10467.3,-169.03,299.355,141.299,3591.16,4095.39,8145.31,-3.84124,2.98658,11.2563,1144.24,9261.56,-391.792,76.193,-28.5402,329.862,340.961,-10041.3,-2297.51,-5.98483,-5.61548,46.8431,-5891.96,4491.75,-2816.57,-4.28355,50.0064,82.8794,939.808,-9504.19,-867.582,-26.6668,-25.1216,85.5919,7394.94,290.957,2353.42,25.3785,11.9501,10.8634
3.344,6664.27,-1233.02,10523.1,-168.853,300.072,139.881,3605.45,4088.76,8134.02,-4.00547,3.00277,11.3517,1169.84,9291.65,-419.583,76.3052,-29.2472,330.395,317.942,-10062.4,-2287.26,-5.70725,-5.90538,46.9044,-5923.53,4473.7,-2803.84,-4.0279,49.2061,82.7187,950.775,-9496.71,-864.751,-26.6885,-24.5878,85.7154,7408.45,323.582,2362.71,25.3161,11.9971,10.8113
3.3445,6701.13,-1330.32,10578.9,-168.676,300.79,138.462,3619.74,4082.13,8122.74,-4.16971,3.01896,11.4471,1195.44,9321.74,-447.375,76.4173,-29.9542,330.928,294.923,-10083.4,-2277.01,-5.42968,-6.19529,46.9658,-5955.1,4455.66,-2791.11,-3.77225,48.4057,82.558,961.741,-9489.22,-861.921,-26.7101,-24.0541,85.8389,7421.96,356.208,2372.01,25.2536,12.0441,10.7592
3.345,6737.98,-1427.62,10634.7,-168.499,301.507,137.043,3634.03,4075.5,8111.46,-4.33394,3.03515,11.5425,1221.04,9351.83,-475.167,76.5294,-30.6612,331.461,271.903,-10104.4,-2266.76,-5.1521,-6.48519,47.0271,-5986.68,4437.62,-2778.38,-3.5166,47.6054,82.3973,972.707,-9481.73,-859.09,-26.7318,-23.5204,85.9624,7435.46,388.833,2381.3,25.1911,12.0911,10.707
3.3455,6774.83,-1524.93,10690.4,-168.322,302.224,135.624,3648.32,4068.87,8100.18,-4.49818,3.05133,11.638,1246.64,9381.92,-502.958,76.6415,-31.3682,331.994,248.884,-10125.4,-2256.51,-4.87453,-6.7751,47.0885,-6018.25,4419.58,-2765.64,-3.26094,46.805,82.2366,983.673,-9474.25,-856.26,-26.7535,-22.9867,86.086,7448.97,421.459,2390.59,25.1287,12.1381,10.6549
3.346,6811.68,-1622.23,10746.2,-168.145,302.941,134.205,3662.61,4062.24,8088.9,-4.66241,3.06752,11.7334,1272.24,9412.01,-530.75,76.7536,-32.0752,332.527,225.865,-10146.5,-2246.26,-4.59695,-7.065,47.1498,-6049.83,4401.54,-2752.91,-3.00529,46.0047,82.076,994.64,-9466.76,-853.429,-26.7751,-22.4529,86.2095,7462.48,454.084,2399.89,25.0662,12.1852,10.6028
3.3465,6848.53,-1719.53,10802.0,-167.968,303.658,132.787,3676.9,4055.61,8077.62,-4.82665,3.08371,11.8288,1297.84,9442.1,-558.542,76.8657,-32.7822,333.06,202.845,-10167.5,-2236.0,-4.31938,-7.3549,47.2111,-6081.4,4383.5,-2740.18,-2.74964,45.2043,81.9153,1005.61,-9459.28,-850.599,-26.7968,-21.9192,86.333,7475.99,486.71,2409.18,25.0038,12.2322,10.5506
3.347,6893.19,-1749.48,10820.9,-167.775,304.417,131.576,3676.77,4042.67,8086.06,-4.91534,3.10295,11.9529,1312.73,9469.94,-563.404,77.0318,-33.4188,333.534,182.648,-10170.8,-2228.39,-4.15794,-7.73059,47.2057,-6103.67,4370.1,-2717.85,-2.56569,44.6368,81.8587,1001.72,-9447.34,-847.633,-26.7638,-21.4441,86.4529,7490.39,516.034,2423.7,24.95,12.3073,10.4975
3.3475,6941.74,-1745.75,10821.3,-167.574,305.198,130.468,3669.42,4026.58,8104.34,-4.96625,3.12371,12.0914,1322.26,9496.66,-556.802,77.2248,-34.0203,333.979,163.863,-10165.2,-2222.09,-4.05457,-8.14918,47.1669,-6121.27,4359.03,-2690.72,-2.4176,44.1857,81.8543,990.413,-9433.18,-844.6,-26.7036,-20.9984,86.571,7505.23,543.708,2440.84,24.9005,12.3966,10.4438
3.348,6990.3,-1742.02,10821.7,-167.373,305.978,129.361,3662.07,4010.49,8122.63,-5.01717,3.14447,12.2298,1331.8,9523.38,-550.2,77.4179,-34.6219,334.424,145.077,-10159.6,-2215.79,-3.9512,-8.56776,47.1282,-6138.88,4347.97,-2663.59,-2.2695,43.7346,81.8499,979.104,-9419.02,-841.567,-26.6433,-20.5527,86.689,7520.08,571.381,2457.98,24.8511,12.4858,10.3902
3.3485,7038.86,-1738.29,10822.2,-167.172,306.758,128.253,3654.72,3994.4,8140.92,-5.06809,3.16522,12.3682,1341.33,9550.11,-543.597,77.6109,-35.2234,334.869,126.291,-10154.0,-2209.5,-3.84783,-8.98634,47.0894,-6156.48,4336.9,-2636.46,-2.12141,43.2836,81.8454,967.795,-9404.85,-838.534,-26.583,-20.1069,86.8071,7534.92,599.055,2475.12,24.8016,12.5751,10.3365
3.349,7087.42,-1734.57,10822.6,-166.971,307.538,127.146,3647.37,3978.31,8159.21,-5.11901,3.18598,12.5067,1350.87,9576.83,-536.995,77.804,-35.8249,335.314,107.506,-10148.5,-2203.2,-3.74446,-9.40493,47.0506,-6174.09,4325.83,-2609.33,-1.97331,42.8325,81.841,956.486,-9390.69,-835.501,-26.5227,-19.6612,86.9252,7549.76,626.728,2492.26,24.7521,12.6643,10.2828
3.3495,7135.98,-1730.84,10823.0,-166.77,308.318,126.039,3640.02,3962.22,8177.5,-5.16993,3.20674,12.6451,1360.4,9603.55,-530.393,77.997,-36.4264,335.759,88.7201,-10142.9,-2196.9,-3.64109,-9.82351,47.0118,-6191.7,4314.76,-2582.2,-1.82521,42.3814,81.8365,945.177,-9376.53,-832.467,-26.4624,-19.2155,87.0433,7564.6,654.402,2509.4,24.7027,12.7536,10.2292
3.35,7184.54,-1727.11,10823.4,-166.569,309.098,124.931,3632.67,3946.13,8195.78,-5.22085,3.2275,12.7835,1369.94,9630.27,-523.791,78.19,-37.0279,336.204,69.9345,-10137.3,-2190.6,-3.53772,-10.2421,46.973,-6209.3,4303.69,-2555.07,-1.67712,41.9303,81.8321,933.867,-9362.37,-829.434,-26.4021,-18.7697,87.1613,7579.45,682.076,2526.54,24.6532,12.8428,10.1755
3.3505,7233.09,-1723.38,10823.9,-166.368,309.879,123.824,3625.31,3930.04,8214.07,-5.27177,3.24825,12.922,1379.47,9656.99,-517.188,78.3831,-37.6294,336.649,51.1489,-10131.7,-2184.31,-3.43436,-10.6607,46.9343,-6226.91,4292.63,-2527.93,-1.52902,41.4792,81.8277,922.558,-9348.2,-826.401,-26.3418,-18.324,87.2794,7594.29,709.749,2543.68,24.6037,12.9321,10.1219
3.351,7281.65,-1719.65,10824.3,-166.167,310.659,122.717,3617.96,3913.95,8232.36,-5.32269,3.26901,13.0604,1389.01,9683.71,-510.586,78.5761,-38.2309,337.094,32.3632,-10126.1,-2178.01,-3.33099,-11.0793,46.8955,-6244.52,4281.56,-2500.8,-1.38093,41.0282,81.8232,911.249,-9334.04,-823.368,-26.2816,-17.8783,87.3975,7609.13,737.423,2560.82,24.5543,13.0213,10.0682
3.3515,7331.07,-1717.69,10851.3,-166.098,311.374,121.814,3606.44,3894.29,8240.73,-5.30384,3.24221,13.1519,1392.35,9711.96,-508.937,78.7643,-38.7313,337.484,31.754,-10125.2,-2174.54,-3.2292,-11.443,46.8704,-6255.94,4272.0,-2471.77,-1.26705,40.8451,81.8618,901.275,-9337.08,-813.905,-26.2041,-17.6362,87.5624,7623.83,744.03,2573.62,24.5109,13.0781,10.0614
3.352,7380.74,-1716.24,10885.8,-166.067,312.07,120.969,3593.73,3873.62,8246.26,-5.26506,3.20182,13.2299,1393.91,9740.65,-508.704,78.951,-39.2028,337.859,36.3379,-10125.6,-2171.87,-3.12787,-11.7911,46.8493,-6265.6,4262.87,-2442.19,-1.16294,40.7386,81.9127,891.682,-9345.04,-802.605,-26.1216,-17.4524,87.7406,7638.48,744.619,2585.18,24.4692,13.1256,10.0681
3.3525,7430.41,-1714.78,10920.4,-166.035,312.766,120.125,3581.01,3852.95,8251.79,-5.22628,3.16143,13.3079,1395.48,9769.33,-508.471,79.1378,-39.6742,338.234,40.9219,-10126.1,-2169.21,-3.02654,-12.1392,46.8282,-6275.26,4253.74,-2412.62,-1.05883,40.6321,81.9636,882.089,-9352.99,-791.305,-26.0392,-17.2685,87.9189,7653.13,745.208,2596.75,24.4276,13.1732,10.0748
3.353,7480.08,-1713.33,10954.9,-166.003,313.462,119.28,3568.29,3832.28,8257.32,-5.1875,3.12104,13.386,1397.05,9798.02,-508.237,79.3245,-40.1457,338.608,45.5058,-10126.5,-2166.54,-2.9252,-12.4873,46.807,-6284.93,4244.62,-2383.04,-0.954727,40.5256,82.0145,872.496,-9360.95,-780.005,-25.9568,-17.0847,88.0972,7667.78,745.797,2608.31,24.386,13.2207,10.0814
3.3535,7529.75,-1711.87,10989.5,-165.972,314.158,118.435,3555.58,3811.61,8262.85,-5.14872,3.08066,13.464,1398.62,9826.71,-508.004,79.5113,-40.6171,338.983,50.0898,-10126.9,-2163.88,-2.82387,-12.8355,46.7859,-6294.59,4235.49,-2353.47,-0.85062,40.4191,82.0654,862.903,-9368.91,-768.705,-25.8744,-16.9009,88.2754,7682.42,746.385,2619.87,24.3443,13.2682,10.0881
3.354,7579.42,-1710.42,11024.1,-165.94,314.854,117.591,3542.86,3790.94,8268.38,-5.10994,3.04027,13.5421,1400.19,9855.4,-507.771,79.6981,-41.0886,339.358,54.6738,-10127.3,-2161.22,-2.72254,-13.1836,46.7647,-6304.25,4226.36,-2323.89,-0.746513,40.3126,82.1163,853.31,-9376.86,-757.405,-25.792,-16.717,88.4537,7697.07,746.974,2631.43,24.3027,13.3157,10.0947
3.3545,7629.08,-1708.96,11058.6,-165.908,315.55,116.746,3530.15,3770.27,8273.91,-5.07116,2.99988,13.6201,1401.76,9884.08,-507.537,79.8848,-41.56,339.732,59.2577,-10127.7,-2158.55,-2.6212,-13.5317,46.7436,-6313.91,4217.24,-2294.31,-0.642406,40.2061,82.1672,843.717,-9384.82,-746.105,-25.7095,-16.5332,88.632,7711.73,747.563,2643.0,24.2611,13.3632,10.1014
3.355,7678.75,-1707.51,11093.2,-165.876,316.247,115.902,3517.43,3749.6,8279.44,-5.03238,2.95949,13.6982,1403.33,9912.77,-507.304,80.0716,-42.0315,340.107,63.8417,-10128.1,-2155.89,-2.51987,-13.8798,46.7225,-6323.57,4208.11,-2264.74,-0.538299,40.0995,82.2181,834.124,-9392.78,-734.804,-25.6271,-16.3493,88.8102,7726.38,748.152,2654.56,24.2194,13.4107,10.108
3.3555,7728.42,-1706.05,11127.7,-165.845,316.943,115.057,3504.72,3728.93,8284.97,-4.9936,2.9191,13.7762,1404.9,9941.46,-507.071,80.2583,-42.5029,340.482,68.4257,-10128.5,-2153.22,-2.41854,-14.2279,46.7013,-6333.23,4198.98,-2235.16,-0.434192,39.993,82.269,824.531,-9400.73,-723.504,-25.5447,-16.1655,88.9885,7741.02,748.74,2666.12,24.1778,13.4583,10.1147
3.356,7756.34,-1708.63,11145.0,-165.896,317.551,114.316,3505.92,3719.43,8289.34,-4.99011,2.83866,13.8957,1404.65,10001.9,-495.193,80.373,-42.916,340.71,65.616,-10117.8,-2139.77,-2.42406,-14.448,46.75,-6346.64,4198.53,-2215.76,-0.395593,40.0813,82.315,831.031,-9399.03,-680.044,-25.6404,-16.2594,89.1371,7749.65,756.224,2680.85,24.2317,13.4379,10.0754
3.3565,7781.55,-1711.7,11160.0,-165.957,318.148,113.589,3508.86,3711.32,8293.57,-4.99103,2.75321,14.0204,1404.17,10066.3,-481.86,80.4787,-43.3218,340.919,61.8822,-10105.6,-2124.96,-2.44294,-14.6521,46.8074,-6360.52,4199.16,-2197.63,-0.365182,40.1938,82.3604,839.544,-9396.11,-632.564,-25.7583,-16.3881,89.2819,7757.52,764.57,2695.98,24.2975,13.409,10.0304
3.357,7806.75,-1714.78,11175.1,-166.019,318.745,112.861,3511.81,3703.22,8297.79,-4.99195,2.66776,14.1452,1403.69,10130.8,-468.527,80.5843,-43.7276,341.128,58.1484,-10093.4,-2110.16,-2.46182,-14.8563,46.8648,-6374.41,4199.79,-2179.5,-0.334772,40.3064,82.4057,848.056,-9393.2,-585.083,-25.8763,-16.5167,89.4267,7765.38,772.916,2711.1,24.3633,13.3801,9.98542
3.3575,7831.95,-1717.86,11190.2,-166.08,319.342,112.133,3514.75,3695.11,8302.02,-4.99287,2.58231,14.2699,1403.21,10195.2,-455.194,80.69,-44.1334,341.338,54.4146,-10081.2,-2095.35,-2.4807,-15.0604,46.9222,-6388.29,4200.43,-2161.37,-0.304361,40.419,82.4511,856.568,-9390.28,-537.603,-25.9942,-16.6454,89.5716,7773.25,781.262,2726.23,24.4292,13.3512,9.94042
3.358,7857.16,-1720.94,11205.2,-166.142,319.939,111.405,3517.7,3687.01,8306.25,-4.99378,2.49686,14.3946,1402.73,10259.6,-441.86,80.7957,-44.5392,341.547,50.6807,-10069.0,-2080.54,-2.49958,-15.2645,46.9796,-6402.17,4201.06,-2143.24,-0.27395,40.5315,82.4965,865.08,-9387.37,-490.123,-26.1122,-16.774,89.7164,7781.12,789.608,2741.35,24.495,13.3223,9.89541
3.3585,7882.36,-1724.02,11220.3,-166.203,320.536,110.677,3520.64,3678.9,8310.47,-4.9947,2.41141,14.5193,1402.25,10324.1,-428.527,80.9013,-44.945,341.757,46.9469,-10056.8,-2065.74,-2.51846,-15.4687,47.037,-6416.05,4201.69,-2125.11,-0.24354,40.6441,82.5419,873.592,-9384.45,-442.643,-26.2302,-16.9027,89.8612,7788.99,797.954,2756.48,24.5608,13.2935,9.8504
3.359,7907.57,-1727.09,11235.4,-166.265,321.134,109.95,3523.59,3670.8,8314.7,-4.99562,2.32596,14.644,1401.77,10388.5,-415.194,81.007,-45.3509,341.966,43.2131,-10044.6,-2050.93,-2.53734,-15.6728,47.0944,-6429.94,4202.32,-2106.98,-0.213129,40.7566,82.5873,882.105,-9381.54,-395.162,-26.3481,-17.0313,90.006,7796.86,806.3,2771.6,24.6266,13.2646,9.80539
3.3595,7932.77,-1730.17,11250.4,-166.326,321.731,109.222,3526.53,3662.69,8318.93,-4.99654,2.24051,14.7687,1401.29,10452.9,-401.861,81.1127,-45.7567,342.175,39.4793,-10032.4,-2036.13,-2.55622,-15.8769,47.1518,-6443.82,4202.95,-2088.85,-0.182719,40.8692,82.6327,890.617,-9378.62,-347.682,-26.4661,-17.1599,90.1509,7804.73,814.646,2786.73,24.6925,13.2357,9.76039
3.36,7957.97,-1733.25,11265.5,-166.388,322.328,108.494,3529.47,3654.59,8323.15,-4.99746,2.15506,14.8934,1400.82,10517.3,-388.528,81.2183,-46.1625,342.385,35.7455,-10020.2,-2021.32,-2.5751,-16.081,47.2092,-6457.7,4203.59,-2070.73,-0.152308,40.9818,82.6781,899.129,-9375.71,-300.202,-26.584,-17.2886,90.2957,7812.59,822.992,2801.85,24.7583,13.2068,9.71538
3.3605,8006.45,-1739.03,11284.6,-166.3,322.863,107.704,3533.87,3646.61,8330.91,-4.94836,2.1398,14.9004,1410.5,10590.8,-366.571,81.3456,-46.4924,342.604,53.5871,-9997.24,-2013.37,-2.61102,-16.19,47.2793,-6456.15,4203.51,-2055.04,-0.215512,41.2361,82.6874,897.904,-9356.74,-302.687,-26.5445,-17.5727,90.4037,7813.19,839.703,2806.64,24.8559,13.2675,9.70688
3.361,8054.93,-1744.81,11303.7,-166.212,323.399,106.915,3538.27,3638.62,8338.68,-4.89927,2.12453,14.9074,1420.18,10664.2,-344.614,81.4729,-46.8224,342.823,71.4288,-9974.28,-2005.41,-2.64695,-16.299,47.3493,-6454.61,4203.43,-2039.35,-0.278716,41.4905,82.6967,896.679,-9337.76,-305.172,-26.5049,-17.8569,90.5117,7813.79,856.414,2811.43,24.9535,13.3282,9.69838
3.3615,8103.4,-1750.59,11322.9,-166.125,323.935,106.125,3542.67,3630.64,8346.44,-4.85018,2.10926,14.9144,1429.86,10737.7,-322.657,81.6001,-47.1524,343.041,89.2704,-9951.32,-1997.45,-2.68287,-16.408,47.4193,-6453.06,4203.36,-2023.67,-0.34192,41.7448,82.706,895.454,-9318.79,-307.657,-26.4653,-18.141,90.6197,7814.39,873.124,2816.22,25.0511,13.3888,9.68989
3.362,8151.88,-1756.37,11342.0,-166.037,324.47,105.335,3547.07,3622.66,8354.2,-4.80108,2.094,14.9214,1439.54,10811.1,-300.7,81.7274,-47.4824,343.26,107.112,-9928.37,-1989.5,-2.71879,-16.517,47.4893,-6451.51,4203.28,-2007.98,-0.405124,41.9992,82.7153,894.229,-9299.82,-310.142,-26.4257,-18.4251,90.7277,7814.98,889.835,2821.01,25.1487,13.4495,9.68139
3.3625,8200.36,-1762.16,11361.1,-165.949,325.006,104.546,3551.47,3614.68,8361.96,-4.75199,2.07873,14.9284,1449.22,10884.5,-278.743,81.8547,-47.8124,343.479,124.954,-9905.41,-1981.54,-2.75472,-16.626,47.5593,-6449.97,4203.21,-1992.3,-0.468329,42.2535,82.7246,893.004,-9280.85,-312.627,-26.3862,-18.7093,90.8357,7815.58,906.546,2825.79,25.2463,13.5102,9.6729
3.363,8248.83,-1767.94,11380.3,-165.862,325.541,103.756,3555.86,3606.7,8369.73,-4.7029,2.06346,14.9354,1458.9,10958.0,-256.787,81.9819,-48.1423,343.698,142.795,-9882.45,-1973.58,-2.79064,-16.735,47.6293,-6448.42,4203.13,-1976.61,-0.531533,42.5079,82.7339,891.779,-9261.88,-315.112,-26.3466,-18.9934,90.9437,7816.18,923.257,2830.58,25.3438,13.5709,9.6644
3.3635,8297.31,-1773.72,11399.4,-165.774,326.077,102.966,3560.26,3598.72,8377.49,-4.6538,2.0482,14.9424,1468.57,11031.4,-234.83,82.1092,-48.4723,343.917,160.637,-9859.5,-1965.63,-2.82657,-16.844,47.6994,-6446.88,4203.05,-1960.93,-0.594737,42.7622,82.7432,890.554,-9242.91,-317.597,-26.307,-19.2775,91.0518,7816.77,939.968,2835.37,25.4414,13.6315,9.6559
3.364,8345.79,-1779.5,11418.5,-165.686,326.612,102.177,3564.66,3590.74,8385.25,-4.60471,2.03293,14.9494,1478.25,11104.9,-212.873,82.2365,-48.8023,344.136,178.479,-9836.54,-1957.67,-2.86249,-16.953,47.7694,-6445.33,4202.98,-1945.24,-0.657941,43.0166,82.7525,889.328,-9223.94,-320.082,-26.2675,-19.5617,91.1598,7817.37,956.678,2840.16,25.539,13.6922,9.6474
3.3645,8396.06,-1791.81,11436.6,-165.611,327.131,101.415,3571.24,3581.43,8393.44,-4.55143,2.0165,14.959,1490.09,11177.9,-191.203,82.3623,-49.1066,344.341,194.059,-9814.1,-1949.59,-2.89347,-17.0594,47.8519,-6443.8,4202.35,-1930.7,-0.725344,43.2627,82.7593,885.425,-9208.15,-322.01,-26.2441,-19.8564,91.2639,7818.47,973.025,2844.37,25.6232,13.7495,9.63625
3.365,8460.75,-1856.31,11446.6,-165.633,327.51,100.878,3595.29,3561.46,8405.03,-4.46469,1.99074,14.9898,1519.13,11248.3,-171.825,82.4773,-49.2057,344.435,191.553,-9795.79,-1940.56,-2.88491,-17.145,48.0339,-6442.38,4197.31,-1925.33,-0.826338,43.4431,82.7465,860.096,-9217.91,-319.483,-26.3507,-20.2365,91.3367,7823.55,986.457,2844.01,25.6001,13.7795,9.60387
3.3655,8525.43,-1920.82,11456.7,-165.655,327.89,100.341,3619.34,3541.49,8416.63,-4.37794,1.96499,15.0205,1548.16,11318.7,-152.447,82.5922,-49.3047,344.528,189.046,-9777.47,-1931.52,-2.87634,-17.2306,48.216,-6440.95,4192.27,-1919.97,-0.927332,43.6235,82.7337,834.768,-9227.66,-316.955,-26.4572,-20.6166,91.4096,7828.63,999.888,2843.65,25.5769,13.8096,9.57148
3.366,8590.11,-1985.33,11466.7,-165.677,328.269,99.8037,3643.39,3521.52,8428.22,-4.2912,1.93924,15.0513,1577.2,11389.0,-133.069,82.7071,-49.4038,344.621,186.54,-9759.16,-1922.48,-2.86778,-17.3162,48.3981,-6439.53,4187.23,-1914.6,-1.02833,43.8039,82.7209,809.439,-9237.42,-314.428,-26.5638,-20.9966,91.4825,7833.71,1013.32,2843.29,25.5538,13.8397,9.53909
3.3665,8654.79,-2049.83,11476.7,-165.699,328.649,99.2666,3667.44,3501.55,8439.81,-4.20446,1.91348,15.082,1606.24,11459.4,-113.692,82.822,-49.5028,344.715,184.033,-9740.84,-1913.45,-2.85921,-17.4017,48.5801,-6438.11,4182.19,-1909.23,-1.12932,43.9843,82.7081,784.11,-9247.17,-311.901,-26.6704,-21.3767,91.5554,7838.8,1026.75,2842.92,25.5307,13.8697,9.5067
3.367,8719.48,-2114.34,11486.7,-165.721,329.029,98.7295,3691.49,3481.58,8451.41,-4.11771,1.88773,15.1128,1635.28,11529.7,-94.3141,82.9369,-49.6019,344.808,181.527,-9722.53,-1904.41,-2.85065,-17.4873,48.7622,-6436.68,4177.15,-1903.87,-1.23031,44.1647,82.6952,758.782,-9256.93,-309.373,-26.7769,-21.7568,91.6282,7843.88,1040.18,2842.56,25.5075,13.8998,9.47432
3.3675,8784.16,-2178.85,11496.8,-165.743,329.408,98.1923,3715.54,3461.62,8463.0,-4.03097,1.86198,15.1435,1664.32,11600.1,-74.9364,83.0518,-49.7009,344.901,179.02,-9704.21,-1895.38,-2.84209,-17.5729,48.9442,-6435.26,4172.11,-1898.5,-1.33131,44.3451,82.6824,733.453,-9266.68,-306.846,-26.8835,-22.1368,91.7011,7848.96,1053.62,2842.2,25.4844,13.9299,9.44193
3.368,8848.84,-2243.35,11506.8,-165.765,329.788,97.6552,3739.59,3441.65,8474.59,-3.94422,1.83622,15.1743,1693.36,11670.4,-55.5588,83.1668,-49.7999,344.995,176.514,-9685.9,-1886.34,-2.83352,-17.6585,49.1263,-6433.84,4167.07,-1893.13,-1.4323,44.5255,82.6696,708.124,-9276.43,-304.318,-26.99,-22.5169,91.774,7854.04,1067.05,2841.83,25.4613,13.9599,9.40954
3.3685,8913.53,-2307.86,11516.8,-165.787,330.167,97.1181,3763.65,3421.68,8486.19,-3.85748,1.81047,15.205,1722.4,11740.8,-36.1811,83.2817,-49.899,345.088,174.007,-9667.58,-1877.31,-2.82496,-17.744,49.3084,-6432.41,4162.03,-1887.76,-1.53329,44.7059,82.6568,682.796,-9286.19,-301.791,-27.0966,-22.897,91.8469,7859.13,1080.48,2841.47,25.4381,13.99,9.37715
3.369,8974.93,-2369.92,11525.9,-165.792,330.502,96.687,3783.95,3405.53,8495.21,-3.76721,1.77022,15.2197,1747.22,11810.9,-15.5247,83.4035,-49.939,345.19,168.951,-9654.98,-1869.09,-2.81943,-17.8448,49.4822,-6432.29,4156.72,-1879.23,-1.64222,44.8459,82.6632,655.591,-9296.24,-294.885,-27.2058,-23.2903,91.9119,7865.31,1092.69,2838.81,25.4042,14.0103,9.34177
3.3695,9024.87,-2423.44,11531.8,-165.738,330.679,96.6269,3791.13,3402.74,8495.22,-3.66459,1.67921,15.1783,1757.26,11880.3,9.60682,83.5498,-49.7726,345.321,154.969,-9662.36,-1863.74,-2.82451,-17.9988,49.6274,-6436.74,4150.48,-1859.59,-1.7789,44.8444,82.7368,621.821,-9307.33,-272.654,-27.3245,-23.73,91.9497,7875.32,1100.61,2828.09,25.3326,13.9964,9.29588
3.37,9074.81,-2476.96,11537.6,-165.683,330.855,96.5669,3798.3,3399.95,8495.24,-3.56198,1.58821,15.1369,1767.3,11949.7,34.7384,83.696,-49.6061,345.452,140.988,-9669.74,-1858.4,-2.82959,-18.1528,49.7726,-6441.18,4144.24,-1839.96,-1.91558,44.8428,82.8105,588.051,-9318.42,-250.423,-27.4432,-24.1697,91.9874,7885.33,1108.53,2817.38,25.2609,13.9825,9.24999
3.3705,9124.75,-2530.47,11543.5,-165.629,331.032,96.5068,3805.48,3397.16,8495.26,-3.45936,1.49721,15.0955,1777.34,12019.1,59.8699,83.8422,-49.4396,345.583,127.006,-9677.12,-1853.05,-2.83467,-18.3068,49.9177,-6445.62,4138.0,-1820.32,-2.05225,44.8413,82.8841,554.282,-9329.51,-228.191,-27.5619,-24.6094,92.0252,7895.34,1116.45,2806.66,25.1893,13.9687,9.2041
3.371,9174.69,-2583.99,11549.3,-165.575,331.209,96.4467,3812.66,3394.37,8495.28,-3.35675,1.4062,15.0541,1787.38,12088.4,85.0015,83.9885,-49.2731,345.714,113.024,-9684.5,-1847.7,-2.83975,-18.4608,50.0629,-6450.06,4131.75,-1800.69,-2.18893,44.8397,82.9578,520.512,-9340.6,-205.96,-27.6806,-25.0491,92.0629,7905.36,1124.37,2795.95,25.1177,13.9548,9.15821
3.3715,9224.63,-2637.51,11555.2,-165.521,331.386,96.3867,3819.84,3391.58,8495.3,-3.25413,1.3152,15.0128,1797.43,12157.8,110.133,84.1347,-49.1066,345.845,99.0426,-9691.88,-1842.35,-2.84484,-18.6148,50.208,-6454.51,4125.51,-1781.05,-2.32561,44.8382,83.0315,486.742,-9351.69,-183.729,-27.7992,-25.4888,92.1006,7915.37,1132.3,2785.23,25.046,13.9409,9.11233
3.372,9274.57,-2691.02,11561.1,-165.467,331.563,96.3266,3827.02,3388.79,8495.32,-3.15151,1.2242,14.9714,1807.47,12227.2,135.265,84.2809,-48.9401,345.975,85.0609,-9699.26,-1837.01,-2.84992,-18.7689,50.3532,-6458.95,4119.27,-1761.42,-2.46229,44.8366,83.1051,452.972,-9362.78,-161.498,-27.9179,-25.9284,92.1384,7925.38,1140.22,2774.52,24.9744,13.927,9.06644
3.3725,9324.51,-2744.54,11566.9,-165.412,331.739,96.2666,3834.2,3386.0,8495.34,-3.0489,1.1332,14.93,1817.51,12296.6,160.396,84.4272,-48.7737,346.106,71.0793,-9706.64,-1831.66,-2.855,-18.9229,50.4984,-6463.39,4113.03,-1741.78,-2.59897,44.8351,83.1788,419.203,-9373.87,-139.267,-28.0366,-26.3681,92.1761,7935.39,1148.14,2763.8,24.9028,13.9131,9.02055
3.373,9374.45,-2798.06,11572.8,-165.358,331.916,96.2065,3841.38,3383.21,8495.36,-2.94628,1.04219,14.8886,1827.55,12366.0,185.528,84.5734,-48.6072,346.237,57.0976,-9714.01,-1826.31,-2.86008,-19.0769,50.6435,-6467.84,4106.78,-1722.15,-2.73565,44.8335,83.2524,385.433,-9384.96,-117.036,-28.1553,-26.8078,92.2139,7945.41,1156.06,2753.08,24.8312,13.8993,8.97466
3.3735,9422.17,-2846.74,11585.7,-165.142,332.027,96.2752,3840.12,3380.16,8498.35,-2.83476,0.944976,14.8746,1843.2,12436.8,210.114,84.7348,-48.3451,346.342,49.8014,-9724.95,-1823.14,-2.8723,-19.2007,50.7805,-6474.51,4100.52,-1698.95,-2.90655,44.76,83.3386,355.674,-9392.79,-100.774,-28.2802,-27.2684,92.2827,7959.58,1159.97,2749.49,24.8017,13.8504,8.96275
3.374,9465.47,-2885.75,11612.8,-164.603,332.004,96.6013,3821.99,3376.57,8507.29,-2.70542,0.835332,14.9156,1870.08,12510.7,233.61,84.9267,-47.8917,346.396,55.8762,-9743.0,-1824.32,-2.8988,-19.2643,50.901,-6485.67,4094.19,-1668.62,-3.14588,44.5424,83.4497,333.939,-9394.12,-96.4509,-28.4175,-27.7707,92.4138,7982.09,1155.84,2760.13,24.8564,13.7314,9.01879
3.3745,9508.76,-2924.75,11639.8,-164.063,331.982,96.9275,3803.87,3372.97,8516.23,-2.57609,0.725689,14.9566,1896.96,12584.5,257.105,85.1185,-47.4384,346.449,61.9509,-9761.05,-1825.49,-2.9253,-19.3278,51.0215,-6496.82,4087.87,-1638.3,-3.38522,44.3248,83.5607,312.203,-9395.44,-92.1279,-28.5549,-28.2731,92.5449,8004.6,1151.71,2770.78,24.9112,13.6125,9.07482
3.375,9552.05,-2963.76,11666.8,-163.524,331.96,97.2536,3785.74,3369.38,8525.17,-2.44675,0.616045,14.9976,1923.84,12658.4,280.601,85.3103,-46.985,346.502,68.0257,-9779.1,-1826.67,-2.9518,-19.3914,51.1421,-6507.97,4081.55,-1607.97,-3.62455,44.1073,83.6718,290.467,-9396.76,-87.8048,-28.6922,-28.7754,92.676,8027.11,1147.58,2781.42,24.966,13.4936,9.13086
3.3755,9595.34,-3002.77,11693.9,-162.985,331.938,97.5798,3767.61,3365.79,8534.1,-2.31741,0.506402,15.0386,1950.72,12732.2,304.097,85.5021,-46.5317,346.555,74.1004,-9797.15,-1827.84,-2.9783,-19.4549,51.2626,-6519.12,4075.23,-1577.64,-3.86389,43.8897,83.7829,268.731,-9398.09,-83.4818,-28.8296,-29.2777,92.8071,8049.61,1143.46,2792.07,25.0207,13.3746,9.18689
3.376,9638.63,-3041.78,11720.9,-162.445,331.915,97.9059,3749.49,3362.2,8543.04,-2.18808,0.396758,15.0796,1977.6,12806.1,327.592,85.6939,-46.0784,346.608,80.1752,-9815.2,-1829.02,-3.0048,-19.5185,51.3832,-6530.27,4068.91,-1547.32,-4.10323,43.6721,83.894,246.995,-9399.41,-79.1588,-28.9669,-29.7801,92.9381,8072.12,1139.33,2802.71,25.0755,13.2557,9.24293
3.3765,9681.93,-3080.79,11748.0,-161.906,331.893,98.2321,3731.36,3358.61,8551.98,-2.05874,0.287115,15.1205,2004.48,12879.9,351.088,85.8857,-45.625,346.661,86.2499,-9833.25,-1830.19,-3.0313,-19.5821,51.5037,-6541.42,4062.59,-1516.99,-4.34256,43.4546,84.0051,225.26,-9400.74,-74.8358,-29.1042,-30.2824,93.0692,8094.63,1135.2,2813.36,25.1303,13.1367,9.29896
3.377,9725.22,-3119.8,11775.0,-161.367,331.871,98.5582,3713.23,3355.01,8560.92,-1.9294,0.177471,15.1615,2031.36,12953.8,374.584,86.0776,-45.1717,346.714,92.3247,-9851.3,-1831.37,-3.0578,-19.6456,51.6242,-6552.57,4056.26,-1486.66,-4.5819,43.237,84.1162,203.524,-9402.06,-70.5128,-29.2416,-30.7847,93.2003,8117.14,1131.07,2824.0,25.185,13.0178,9.355
3.3775,9768.51,-3158.81,11802.0,-160.827,331.848,98.8844,3695.1,3351.42,8569.86,-1.80007,0.067828,15.2025,2058.23,13027.7,398.08,86.2694,-44.7183,346.767,98.3995,-9869.35,-1832.54,-3.0843,-19.7092,51.7448,-6563.72,4049.94,-1456.34,-4.82123,43.0194,84.2272,181.788,-9403.38,-66.1898,-29.3789,-31.2871,93.3314,8139.64,1126.95,2834.65,25.2398,12.8989,9.41103
3.378,9810.27,-3179.1,11826.4,-160.273,331.624,99.3402,3683.74,3342.57,8579.61,-1.70128,-0.0422885,15.1666,2076.91,13107.0,429.194,86.4896,-44.2228,346.852,98.7125,-9887.45,-1831.84,-3.08197,-19.7841,51.8617,-6574.89,4037.51,-1427.52,-5.04352,42.7687,84.3633,149.619,-9413.43,-63.4843,-29.4852,-31.7684,93.3937,8156.71,1117.9,2843.79,25.3131,12.7954,9.44439
3.3785,9850.1,-3176.01,11847.3,-159.699,331.148,99.9581,3680.84,3327.14,8590.4,-1.64067,-0.152996,15.0347,2085.32,13193.3,469.832,86.7453,-43.6746,346.976,91.8235,-9905.61,-1828.8,-3.04362,-19.8733,51.9741,-6586.1,4017.45,-1400.58,-5.2445,42.4765,84.5307,104.407,-9434.39,-62.8008,-29.5525,-32.2233,93.37,8166.97,1102.72,2851.06,25.4096,12.7113,9.44939
3.379,9889.93,-3172.91,11868.2,-159.125,330.672,100.576,3677.94,3311.72,8601.18,-1.58006,-0.263704,14.9028,2093.74,13279.6,510.471,87.001,-43.1264,347.099,84.9344,-9923.77,-1825.77,-3.00526,-19.9625,52.0865,-6597.3,3997.39,-1373.64,-5.44549,42.1844,84.698,59.1955,-9455.36,-62.1172,-29.6199,-32.6783,93.3463,8177.24,1087.54,2858.32,25.5061,12.6272,9.45439
3.3795,9929.76,-3169.82,11889.1,-158.551,330.197,101.194,3675.03,3296.29,8611.97,-1.51945,-0.374412,14.7709,2102.15,13365.9,551.109,87.2567,-42.5781,347.223,78.0454,-9941.94,-1822.73,-2.96691,-20.0517,52.1989,-6608.51,3977.33,-1346.71,-5.64647,41.8922,84.8653,13.984,-9476.32,-61.4337,-29.6873,-33.1333,93.3226,8187.5,1072.36,2865.59,25.6025,12.5431,9.4594
3.38,9969.59,-3166.72,11910.0,-157.977,329.721,101.812,3672.13,3280.86,8622.75,-1.45884,-0.48512,14.6389,2110.57,13452.2,591.747,87.5123,-42.0299,347.347,71.1563,-9960.1,-1819.69,-2.92855,-20.1409,52.3113,-6619.71,3957.27,-1319.77,-5.84745,41.6,85.0327,-31.2276,-9497.28,-60.7501,-29.7546,-33.5883,93.2989,8197.77,1057.17,2872.86,25.699,12.459,9.4644
3.3805,10009.4,-3163.63,11930.9,-157.403,329.245,102.43,3669.23,3265.43,8633.54,-1.39823,-0.595828,14.507,2118.99,13538.5,632.385,87.768,-41.4817,347.471,64.2673,-9978.26,-1816.65,-2.8902,-20.2301,52.4237,-6630.92,3937.2,-1292.83,-6.04843,41.3078,85.2,-76.4391,-9518.24,-60.0666,-29.822,-34.0433,93.2752,8208.03,1041.99,2880.12,25.7955,12.375,9.4694
3.381,10049.3,-3160.54,11951.8,-156.829,328.769,103.048,3666.32,3250.01,8644.32,-1.33763,-0.706535,14.3751,2127.4,13624.8,673.024,88.0237,-40.9335,347.595,57.3783,-9996.42,-1813.61,-2.85184,-20.3193,52.5361,-6642.12,3917.14,-1265.9,-6.24941,41.0156,85.3673,-121.651,-9539.2,-59.3831,-29.8894,-34.4983,93.2515,8218.3,1026.81,2887.39,25.892,12.2909,9.4744
3.3815,10089.1,-3157.44,11972.7,-156.255,328.293,103.666,3663.42,3234.58,8655.11,-1.27702,-0.817243,14.2431,2135.82,13711.1,713.662,88.2794,-40.3852,347.718,50.4892,-10014.6,-1810.57,-2.81349,-20.4085,52.6485,-6653.32,3897.08,-1238.96,-6.45039,40.7235,85.5347,-166.862,-9560.16,-58.6995,-29.9567,-34.9533,93.2278,8228.56,1011.63,2894.66,25.9884,12.2068,9.47941
3.382,10128.9,-3154.35,11993.6,-155.682,327.817,104.284,3660.52,3219.15,8665.89,-1.21641,-0.927951,14.1112,2144.23,13797.4,754.3,88.5351,-39.837,347.842,43.6002,-10032.7,-1807.53,-2.77513,-20.4977,52.7609,-6664.53,3877.02,-1212.03,-6.65137,40.4313,85.702,-212.074,-9581.13,-58.016,-30.0241,-35.4083,93.2041,8238.83,996.445,2901.93,26.0849,12.1227,9.48441
3.3825,10155.0,-3153.55,12007.0,-155.034,327.131,105.074,3659.17,3227.32,8670.77,-1.08293,-1.02783,14.0873,2158.18,13869.7,787.973,88.8023,-39.2356,347.912,48.0766,-10058.6,-1810.85,-2.75732,-20.5164,52.9258,-6680.21,3858.46,-1188.76,-6.81609,40.1515,85.9423,-244.141,-9597.69,-52.816,-30.0851,-35.8577,93.2365,8243.62,979.07,2900.31,26.1697,12.0665,9.47556
3.383,10170.2,-3154.6,12014.5,-154.328,326.279,106.004,3659.07,3254.36,8670.92,-0.891162,-1.11905,14.1499,2176.54,13930.6,816.074,89.0788,-38.5917,347.938,61.6453,-10090.5,-1819.25,-2.75595,-20.4787,53.1326,-6699.46,3841.11,-1168.42,-6.95181,39.8815,86.2408,-265.693,-9610.74,-44.0027,-30.141,-36.3026,93.3137,8244.02,959.941,2891.58,26.2451,12.0327,9.45564
3.3835,10185.4,-3155.65,12022.1,-153.621,325.426,106.933,3658.97,3281.4,8671.08,-0.699391,-1.21027,14.2125,2194.9,13991.5,844.175,89.3553,-37.9478,347.965,75.2141,-10122.5,-1827.64,-2.75458,-20.4411,53.3395,-6718.72,3823.76,-1148.09,-7.08752,39.6116,86.5394,-287.246,-9623.78,-35.1895,-30.197,-36.7474,93.3909,8244.42,940.812,2882.85,26.3206,11.9989,9.43572
3.384,10200.5,-3156.7,12029.6,-152.915,324.573,107.862,3658.87,3308.44,8671.23,-0.50762,-1.30149,14.275,2213.26,14052.4,872.275,89.6318,-37.3039,347.991,88.7829,-10154.4,-1836.04,-2.75321,-20.4034,53.5463,-6737.97,3806.41,-1127.75,-7.22323,39.3416,86.838,-308.798,-9636.82,-26.3763,-30.2529,-37.1923,93.4681,8244.83,921.683,2874.12,26.396,11.9651,9.4158
3.3845,10215.7,-3157.75,12037.1,-152.208,323.72,108.791,3658.77,3335.48,8671.39,-0.315849,-1.39271,14.3376,2231.62,14113.4,900.376,89.9083,-36.66,348.017,102.352,-10186.4,-1844.44,-2.75184,-20.3657,53.7532,-6757.23,3789.06,-1107.42,-7.35895,39.0717,87.1366,-330.35,-9649.87,-17.563,-30.3088,-37.6372,93.5453,8245.23,902.554,2865.39,26.4715,11.9313,9.39587
3.385,10230.8,-3158.8,12044.6,-151.502,322.867,109.72,3658.67,3362.52,8671.54,-0.124078,-1.48393,14.4002,2249.98,14174.3,928.477,90.1848,-36.0161,348.043,115.92,-10218.3,-1852.83,-2.75047,-20.3281,53.96,-6776.49,3771.71,-1087.08,-7.49466,38.8017,87.4351,-351.902,-9662.91,-8.74982,-30.3647,-38.0821,93.6226,8245.64,883.424,2856.66,26.5469,11.8975,9.37595
3.3855,10246.0,-3159.85,12052.1,-150.795,322.014,110.649,3658.57,3389.56,8671.7,0.0676932,-1.57515,14.4628,2268.34,14235.2,956.577,90.4613,-35.3722,348.07,129.489,-10250.3,-1861.23,-2.7491,-20.2904,54.1669,-6795.74,3754.36,-1066.75,-7.63037,38.5318,87.7337,-373.454,-9675.96,0.0634134,-30.4207,-38.527,93.6998,8246.04,864.296,2847.93,26.6223,11.8637,9.35603
3.386,10261.1,-3160.9,12059.6,-150.089,321.161,111.579,3658.47,3416.6,8671.85,0.259464,-1.66637,14.5253,2286.7,14296.1,984.678,90.7378,-34.7283,348.096,143.058,-10282.2,-1869.63,-2.74773,-20.2527,54.3738,-6815.0,3737.01,-1046.41,-7.76609,38.2618,88.0323,-395.006,-9689.0,8.87664,-30.4766,-38.9718,93.777,8246.44,845.167,2839.2,26.6978,11.8299,9.3361
3.3865,10276.3,-3161.95,12067.2,-149.382,320.308,112.508,3658.37,3443.65,8672.0,0.451235,-1.75759,14.5879,2305.06,14357.1,1012.78,91.0143,-34.0844,348.122,156.627,-10314.2,-1878.02,-2.74636,-20.215,54.5806,-6834.25,3719.66,-1026.08,-7.9018,37.9919,88.3309,-416.559,-9702.05,17.6899,-30.5325,-39.4167,93.8542,8246.85,826.037,2830.47,26.7732,11.7961,9.31618
3.387,10282.1,-3177.46,12088.7,-148.542,319.2,113.602,3662.11,3442.07,8681.63,0.63583,-1.896,14.5984,2324.98,14419.7,1027.55,91.2992,-33.3059,348.112,159.881,-10342.7,-1883.36,-2.77836,-20.2247,54.679,-6853.66,3696.81,-1011.83,-7.96838,37.8241,88.6232,-451.137,-9727.31,27.851,-30.5215,-39.8791,93.8511,8258.39,816.791,2821.56,26.8946,11.743,9.27696
3.3875,10283.1,-3200.21,12117.3,-147.634,317.964,114.779,3667.76,3426.18,8696.0,0.816836,-2.05801,14.5828,2345.69,14483.2,1035.65,91.5883,-32.4601,348.082,157.977,-10369.5,-1887.17,-2.82706,-20.2581,54.7232,-6873.13,3671.21,-1000.63,-8.00039,37.7074,88.9123,-492.227,-9758.68,38.686,-30.4771,-40.3503,93.8078,8275.5,812.486,2812.57,27.039,11.6803,9.22809
3.388,10284.2,-3222.96,12145.8,-146.727,316.728,115.957,3673.42,3410.3,8710.36,0.997842,-2.22001,14.5672,2366.4,14546.8,1043.76,91.8774,-31.6143,348.053,156.073,-10396.3,-1890.97,-2.87575,-20.2915,54.7673,-6892.61,3645.61,-989.435,-8.03239,37.5907,89.2015,-533.318,-9790.05,49.521,-30.4327,-40.8215,93.7645,8292.6,808.181,2803.58,27.1833,11.6175,9.17922
3.3885,10285.2,-3245.7,12174.4,-145.819,315.492,117.134,3679.07,3394.41,8724.72,1.17885,-2.38202,14.5516,2387.11,14610.3,1051.87,92.1665,-30.7686,348.024,154.169,-10423.1,-1894.78,-2.92445,-20.3248,54.8115,-6912.08,3620.0,-978.235,-8.0644,37.474,89.4906,-574.409,-9821.41,60.356,-30.3883,-41.2927,93.7212,8309.71,803.876,2794.58,27.3277,11.5548,9.13035
3.389,10286.3,-3268.45,12203.0,-144.912,314.256,118.311,3684.73,3378.52,8739.09,1.35985,-2.54402,14.536,2407.82,14673.8,1059.97,92.4556,-29.9228,347.995,152.266,-10449.9,-1898.59,-2.97314,-20.3582,54.8556,-6931.56,3594.4,-967.035,-8.09641,37.3573,89.7798,-615.5,-9852.78,71.191,-30.3438,-41.7639,93.6779,8326.82,799.57,2785.59,27.4721,11.492,9.08148
3.3895,10287.4,-3291.2,12231.5,-144.004,313.02,119.488,3690.38,3362.64,8753.45,1.54086,-2.70603,14.5204,2428.53,14737.3,1068.08,92.7447,-29.077,347.965,150.362,-10476.7,-1902.39,-3.02184,-20.3916,54.8998,-6951.03,3568.8,-955.835,-8.12842,37.2406,90.0689,-656.59,-9884.15,82.026,-30.2994,-42.2351,93.6346,8343.93,795.265,2776.59,27.6165,11.4293,9.03261
3.39,10288.4,-3313.95,12260.1,-143.097,311.784,120.665,3696.04,3346.75,8767.82,1.72187,-2.86804,14.5048,2449.24,14800.8,1076.18,93.0338,-28.2312,347.936,148.458,-10503.5,-1906.2,-3.07053,-20.4249,54.944,-6970.51,3543.19,-944.635,-8.16043,37.1239,90.3581,-697.681,-9915.52,92.861,-30.255,-42.7062,93.5913,8361.03,790.96,2767.6,27.7608,11.3665,8.98374
3.3905,10289.5,-3336.7,12288.7,-142.189,310.548,121.842,3701.69,3330.87,8782.18,1.90287,-3.03004,14.4892,2469.95,14864.3,1084.29,93.3229,-27.3854,347.907,146.555,-10530.3,-1910.01,-3.11923,-20.4583,54.9881,-6989.98,3517.59,-933.435,-8.19244,37.0072,90.6472,-738.772,-9946.88,103.696,-30.2105,-43.1774,93.5479,8378.14,786.655,2758.61,27.9052,11.3038,8.93487
3.391,10290.6,-3359.44,12317.2,-141.282,309.312,123.02,3707.35,3314.98,8796.54,2.08388,-3.19205,14.4736,2490.66,14927.9,1092.39,93.612,-26.5396,347.877,144.651,-10557.1,-1913.81,-3.16792,-20.4916,55.0323,-7009.46,3491.99,-922.235,-8.22445,36.8905,90.9364,-779.863,-9978.25,114.531,-30.1661,-43.6486,93.5046,8395.25,782.35,2749.61,28.0496,11.241,8.886
3.3915,10292.5,-3411.71,12342.0,-140.292,307.776,124.37,3701.15,3314.43,8809.95,2.20752,-3.34693,14.5208,2502.99,14996.1,1113.16,93.9077,-25.6555,347.892,152.199,-10560.7,-1905.55,-3.25542,-20.4493,55.0733,-7004.91,3478.95,-909.827,-8.17444,36.9692,91.1777,-792.398,-10000.4,117.181,-30.1342,-44.1574,93.5359,8416.76,771.827,2749.11,28.0982,11.1993,8.89759
3.392,10294.7,-3472.41,12365.8,-139.279,306.155,125.771,3691.58,3318.25,8823.08,2.31476,-3.49979,14.5859,2512.94,15065.6,1137.54,94.2052,-24.7604,347.92,162.449,-10557.7,-1893.83,-3.35399,-20.3854,55.1134,-6993.51,3469.51,-897.074,-8.10101,37.1038,91.4053,-796.775,-10019.8,117.493,-30.1058,-44.6769,93.5885,8439.52,759.526,2751.05,28.1195,11.1635,8.92646
3.3925,10297.0,-3533.11,12389.5,-138.266,304.535,127.171,3682.0,3322.08,8836.21,2.42201,-3.65264,14.651,2522.88,15135.1,1161.92,94.5027,-23.8654,347.948,172.698,-10554.7,-1882.12,-3.45257,-20.3215,55.1536,-6982.11,3460.07,-884.321,-8.02757,37.2383,91.6329,-801.152,-10039.3,117.805,-30.0774,-45.1965,93.6411,8462.29,747.226,2752.98,28.1408,11.1278,8.95532
3.393,10299.2,-3593.81,12413.2,-137.252,302.914,128.571,3672.42,3325.91,8849.34,2.52925,-3.80549,14.7161,2532.82,15204.7,1186.3,94.8002,-22.9703,347.975,182.947,-10551.7,-1870.4,-3.55114,-20.2575,55.1937,-6970.71,3450.62,-871.568,-7.95414,37.3729,91.8605,-805.529,-10058.7,118.117,-30.049,-45.716,93.6937,8485.05,734.926,2754.91,28.1621,11.092,8.98419
3.3935,10301.4,-3654.52,12436.9,-136.239,301.293,129.971,3662.85,3329.73,8862.47,2.6365,-3.95834,14.7812,2542.76,15274.2,1210.68,95.0977,-22.0752,348.003,193.196,-10548.7,-1858.69,-3.64972,-20.1936,55.2338,-6959.31,3441.18,-858.815,-7.8807,37.5074,92.0881,-809.907,-10078.2,118.428,-30.0207,-46.2355,93.7462,8507.82,722.626,2756.84,28.1834,11.0563,9.01305
3.394,10303.6,-3715.22,12460.6,-135.226,299.673,131.372,3653.27,3333.56,8875.6,2.74374,-4.11119,14.8463,2552.71,15343.7,1235.07,95.3952,-21.1802,348.03,203.446,-10545.7,-1846.97,-3.74829,-20.1297,55.274,-6947.91,3431.74,-846.061,-7.80726,37.642,92.3157,-814.284,-10097.6,118.74,-29.9923,-46.755,93.7988,8530.58,710.326,2758.77,28.2046,11.0205,9.04191
3.3945,10305.8,-3775.92,12484.4,-134.212,298.052,132.772,3643.69,3337.39,8888.73,2.85099,-4.26404,14.9114,2562.65,15413.3,1259.45,95.6927,-20.2851,348.058,213.695,-10542.7,-1835.26,-3.84687,-20.0657,55.3141,-6936.5,3422.29,-833.308,-7.73383,37.7765,92.5434,-818.661,-10117.1,119.052,-29.9639,-47.2746,93.8514,8553.35,698.026,2760.7,28.2259,10.9848,9.07078
3.395,10308.1,-3836.62,12508.1,-133.199,296.431,134.172,3634.12,3341.21,8901.86,2.95823,-4.41689,14.9765,2572.59,15482.8,1283.83,95.9902,-19.39,348.086,223.944,-10539.7,-1823.54,-3.94545,-20.0018,55.3542,-6925.1,3412.85,-820.555,-7.66039,37.911,92.771,-823.038,-10136.5,119.364,-29.9355,-47.7941,93.904,8576.11,685.726,2762.63,28.2472,10.9491,9.09964
3.3955,10310.3,-3897.32,12531.8,-132.186,294.81,135.573,3624.54,3345.04,8914.99,3.06547,-4.56975,15.0416,2582.53,15552.3,1308.21,96.2877,-18.4949,348.113,234.194,-10536.7,-1811.83,-4.04402,-19.9379,55.3944,-6913.7,3403.41,-807.802,-7.58696,38.0456,92.9986,-827.415,-10156.0,119.675,-29.9071,-48.3136,93.9566,8598.88,673.426,2764.56,28.2685,10.9133,9.12851
3.396,10323.0,-3945.73,12571.8,-131.118,292.98,137.081,3601.3,3340.98,8915.49,3.28212,-4.69836,15.0985,2597.65,15632.6,1300.09,96.438,-17.609,348.01,254.257,-10525.9,-1812.44,-4.1585,-19.8453,55.5985,-6895.0,3406.63,-769.694,-7.5354,38.3724,93.234,-827.95,-10174.6,118.281,-29.7883,-48.7434,93.9754,8613.0,659.802,2759.92,28.359,10.8222,9.11859
3.3965,10337.1,-3992.6,12613.8,-130.044,291.123,138.604,3576.35,3335.94,8914.41,3.51244,-4.82395,15.1544,2613.41,15714.3,1287.91,96.57,-16.7241,347.891,275.547,-10514.2,-1814.58,-4.27498,-19.7492,55.8232,-6875.39,3411.43,-728.416,-7.48658,38.7232,93.4705,-828.006,-10193.1,116.674,-29.6581,-49.1619,93.99,8626.03,646.012,2754.46,28.4581,10.7242,9.10383
3.397,10351.2,-4039.48,12655.8,-128.969,289.266,140.126,3551.4,3330.9,8913.33,3.74276,-4.94953,15.2103,2629.17,15795.9,1275.73,96.7019,-15.8393,347.771,296.837,-10502.4,-1816.73,-4.39145,-19.6531,56.0478,-6855.78,3416.23,-687.139,-7.43776,39.074,93.7069,-828.061,-10211.7,115.067,-29.5279,-49.5804,94.0046,8639.07,632.222,2749.0,28.5573,10.6261,9.08907
3.3975,10365.3,-4086.35,12697.9,-127.895,287.41,141.649,3526.45,3325.85,8912.25,3.97308,-5.07512,15.2661,2644.93,15877.5,1263.54,96.8339,-14.9544,347.652,318.128,-10490.7,-1818.88,-4.50792,-19.557,56.2725,-6836.16,3421.04,-645.861,-7.38893,39.4248,93.9433,-828.117,-10230.2,113.459,-29.3977,-49.9989,94.0192,8652.1,618.433,2743.54,28.6564,10.5281,9.07431
3.398,10379.3,-4133.22,12739.9,-126.82,285.553,143.171,3501.5,3320.81,8911.17,4.2034,-5.2007,15.322,2660.69,15959.1,1251.36,96.9659,-14.0696,347.533,339.418,-10479.0,-1821.03,-4.62439,-19.4609,56.4972,-6816.55,3425.84,-604.584,-7.34011,39.7756,94.1797,-828.172,-10248.8,111.852,-29.2675,-50.4174,94.0338,8665.14,604.643,2738.08,28.7556,10.4301,9.05955
3.3985,10393.4,-4180.1,12781.9,-125.746,283.696,144.694,3476.55,3315.77,8910.1,4.43372,-5.32629,15.3779,2676.45,16040.8,1239.18,97.0978,-13.1847,347.413,360.708,-10467.2,-1823.17,-4.74086,-19.3648,56.7218,-6796.94,3430.64,-563.306,-7.29129,40.1264,94.4162,-828.227,-10267.3,110.244,-29.1373,-50.8359,94.0484,8678.17,590.853,2732.62,28.8547,10.332,9.04478
3.399,10407.5,-4226.97,12824.0,-124.672,281.839,146.216,3451.6,3310.73,8909.02,4.66404,-5.45187,15.4338,2692.21,16122.4,1227.0,97.2297,-12.2999,347.294,381.998,-10455.5,-1825.32,-4.85733,-19.2687,56.9465,-6777.33,3435.45,-522.029,-7.24246,40.4772,94.6526,-828.283,-10285.8,108.637,-29.0071,-51.2544,94.063,8691.21,577.064,2727.16,28.9538,10.234,9.03002
3.3995,10421.5,-4273.84,12866.0,-123.597,279.983,147.738,3426.66,3305.68,8907.94,4.89435,-5.57746,15.4896,2707.97,16204.0,1214.81,97.3617,-11.4151,347.175,403.288,-10443.8,-1827.47,-4.9738,-19.1726,57.1711,-6757.72,3440.25,-480.751,-7.19364,40.828,94.889,-828.338,-10304.4,107.03,-28.8769,-51.6729,94.0776,8704.24,563.274,2721.69,29.053,10.136,9.01526
3.4,10435.6,-4320.71,12908.0,-122.523,278.126,149.261,3401.71,3300.64,8906.86,5.12467,-5.70304,15.5455,2723.73,16285.6,1202.63,97.4936,-10.5302,347.055,424.578,-10432.0,-1829.62,-5.09027,-19.0765,57.3958,-6738.1,3445.05,-439.474,-7.14482,41.1788,95.1255,-828.394,-10322.9,105.422,-28.7467,-52.0914,94.0922,8717.28,549.484,2716.23,29.1521,10.0379,9.0005
3.4005,10469.5,-4350.41,12919.4,-121.53,276.391,150.931,3412.54,3296.79,8918.4,5.31293,-5.9753,15.6076,2726.06,16360.4,1206.64,97.6668,-9.60107,347.001,397.644,-10440.0,-1830.79,-5.15329,-19.0205,57.4951,-6704.83,3473.52,-384.722,-7.40302,41.5479,95.3038,-811.722,-10332.3,89.5913,-28.5456,-52.5479,94.0853,8710.69,534.501,2703.29,29.2456,10.054,8.94842
3.401,10503.4,-4380.1,12930.8,-120.537,274.657,152.601,3423.37,3292.94,8929.95,5.50119,-6.24755,15.6696,2728.39,16435.3,1210.66,97.84,-8.67193,346.948,370.709,-10448.0,-1831.96,-5.21631,-18.9645,57.5943,-6671.55,3502.0,-329.97,-7.66123,41.917,95.4821,-795.05,-10341.7,73.7605,-28.3446,-53.0043,94.0783,8704.1,519.518,2690.34,29.3391,10.0701,8.89634
3.4015,10537.3,-4409.79,12942.2,-119.545,272.922,154.272,3434.21,3289.09,8941.49,5.68944,-6.51981,15.7317,2730.73,16510.1,1214.67,98.0131,-7.74278,346.894,343.775,-10456.0,-1833.13,-5.27933,-18.9084,57.6936,-6638.27,3530.47,-275.217,-7.91943,42.2861,95.6605,-778.378,-10351.1,57.9297,-28.1435,-53.4608,94.0714,8697.51,504.535,2677.4,29.4326,10.0862,8.84426
3.402,10571.2,-4439.48,12953.5,-118.552,271.188,155.942,3445.04,3285.24,8953.03,5.8777,-6.79206,15.7938,2733.06,16584.9,1218.68,98.1863,-6.81364,346.841,316.84,-10463.9,-1834.3,-5.34234,-18.8524,57.7928,-6604.99,3558.95,-220.465,-8.17763,42.6552,95.8388,-761.706,-10360.5,42.0988,-27.9424,-53.9173,94.0645,8690.92,489.552,2664.45,29.5261,10.1023,8.79218
3.4025,10605.1,-4469.17,12964.9,-117.559,269.453,157.612,3455.88,3281.4,8964.57,6.06595,-7.06432,15.8558,2735.4,16659.7,1222.69,98.3594,-5.88449,346.787,289.905,-10471.9,-1835.47,-5.40536,-18.7964,57.8921,-6571.71,3587.42,-165.713,-8.43584,43.0243,96.0171,-745.034,-10369.9,26.268,-27.7414,-54.3738,94.0576,8684.33,474.569,2651.51,29.6196,10.1184,8.7401
3.403,10639.0,-4498.86,12976.3,-116.567,267.719,159.283,3466.71,3277.55,8976.12,6.25421,-7.33657,15.9179,2737.73,16734.5,1226.71,98.5326,-4.95535,346.733,262.971,-10479.9,-1836.64,-5.46838,-18.7404,57.9913,-6538.44,3615.89,-110.961,-8.69404,43.3934,96.1955,-728.362,-10379.2,10.4372,-27.5403,-54.8302,94.0506,8677.74,459.585,2638.56,29.7131,10.1345,8.68802
3.4035,10672.9,-4528.55,12987.7,-115.574,265.984,160.953,3477.54,3273.7,8987.66,6.44247,-7.60882,15.98,2740.06,16809.3,1230.72,98.7057,-4.0262,346.68,236.036,-10487.8,-1837.81,-5.53139,-18.6844,58.0906,-6505.16,3644.37,-56.2089,-8.95225,43.7625,96.3738,-711.69,-10388.6,-5.39367,-27.3393,-55.2867,94.0437,8671.15,444.602,2625.62,29.8067,10.1506,8.63594
3.404,10706.8,-4558.24,12999.1,-114.581,264.249,162.623,3488.38,3269.85,8999.2,6.63072,-7.88108,16.042,2742.4,16884.1,1234.73,98.8789,-3.09706,346.626,209.101,-10495.8,-1838.98,-5.59441,-18.6284,58.1899,-6471.88,3672.84,-1.45676,-9.21045,44.1315,96.5521,-695.018,-10398.0,-21.2245,-27.1382,-55.7432,94.0368,8664.56,429.619,2612.67,29.9002,10.1667,8.58386
3.4045,10747.0,-4592.71,13007.1,-113.599,262.561,164.316,3500.22,3266.48,9009.31,6.81807,-8.1403,16.0868,2742.55,16956.7,1238.96,99.0306,-2.14588,346.556,183.116,-10505.0,-1840.22,-5.65637,-18.5721,58.3015,-6438.1,3703.01,55.0638,-9.51302,44.4913,96.7255,-680.651,-10408.7,-38.8132,-26.9369,-56.1698,94.0283,8660.55,414.592,2601.99,30.0012,10.1726,8.52316
3.405,10838.5,-4665.43,12988.1,-112.701,261.237,166.186,3520.13,3266.93,9007.98,6.99812,-8.29523,15.9934,2725.28,17011.1,1244.89,99.011,-1.01839,346.355,164.725,-10524.0,-1842.0,-5.70988,-18.5137,58.512,-6400.28,3746.79,125.731,-10.1705,44.7767,96.8595,-684.728,-10429.2,-70.4647,-26.7335,-56.357,94.0074,8677.25,399.216,2609.45,30.1622,10.0973,8.3935
3.4055,10929.9,-4738.15,12969.0,-111.802,259.914,168.057,3540.05,3267.37,9006.65,7.17817,-8.45017,15.9,2708.01,17065.6,1250.83,98.9914,0.1091,346.155,146.333,-10543.1,-1843.78,-5.76338,-18.4553,58.7225,-6362.45,3790.56,196.399,-10.828,45.062,96.9934,-688.804,-10449.8,-102.116,-26.5301,-56.5443,93.9864,8693.95,383.84,2616.9,30.3233,10.0221,8.26383
3.406,11021.3,-4810.87,12950.0,-110.903,258.59,169.927,3559.96,3267.82,9005.31,7.35822,-8.60511,15.8066,2690.74,17120.1,1256.77,98.9718,1.23659,345.954,127.942,-10562.1,-1845.55,-5.81689,-18.3969,58.933,-6324.63,3834.34,267.067,-11.4855,45.3474,97.1274,-692.88,-10470.3,-133.768,-26.3267,-56.7316,93.9654,8710.65,368.465,2624.36,30.4844,9.94683,8.13417
3.4065,11112.7,-4883.59,12931.0,-110.005,257.267,171.798,3579.87,3268.27,9003.98,7.53827,-8.76004,15.7132,2673.47,17174.6,1262.7,98.9522,2.36408,345.754,109.551,-10581.1,-1847.33,-5.87039,-18.3385,59.1436,-6286.81,3878.11,337.734,-12.143,45.6327,97.2613,-696.957,-10490.9,-165.419,-26.1232,-56.9189,93.9445,8727.35,353.089,2631.81,30.6455,9.87158,8.0045
3.407,11204.1,-4956.31,12912.0,-109.106,255.943,173.668,3599.78,3268.72,9002.65,7.71832,-8.91498,15.6198,2656.2,17229.1,1268.64,98.9326,3.49156,345.553,91.1594,-10600.2,-1849.11,-5.9239,-18.2801,59.3541,-6248.99,3921.89,408.402,-12.8005,45.9181,97.3953,-701.033,-10511.5,-197.071,-25.9198,-57.1062,93.9235,8744.05,337.713,2639.27,30.8065,9.79632,7.87484
3.4075,11295.5,-5029.03,12892.9,-108.208,254.62,175.538,3619.7,3269.17,9001.31,7.89837,-9.06992,15.5264,2638.93,17283.6,1274.58,98.913,4.61905,345.353,72.7681,-10619.2,-1850.89,-5.9774,-18.2217,59.5646,-6211.16,3965.66,479.07,-13.458,46.2034,97.5293,-705.109,-10532.0,-228.722,-25.7164,-57.2934,93.9026,8760.75,322.337,2646.72,30.9676,9.72106,7.74517
3.408,11386.9,-5101.75,12873.9,-107.309,253.297,177.409,3639.61,3269.62,8999.98,8.07842,-9.22485,15.433,2621.66,17338.0,1280.52,98.8934,5.74654,345.152,54.3767,-10638.2,-1852.67,-6.03091,-18.1633,59.7751,-6173.34,4009.44,549.737,-14.1155,46.4887,97.6632,-709.186,-10552.6,-260.374,-25.513,-57.4807,93.8816,8777.45,306.961,2654.18,31.1287,9.6458,7.61551
3.4085,11478.3,-5174.47,12854.9,-106.41,251.973,179.279,3659.52,3270.06,8998.65,8.25847,-9.37979,15.3396,2604.39,17392.5,1286.45,98.8738,6.87403,344.952,35.9854,-10657.3,-1854.44,-6.08441,-18.1049,59.9856,-6135.52,4053.21,620.405,-14.773,46.7741,97.7971,-713.262,-10573.2,-292.025,-25.3096,-57.668,93.8606,8794.15,291.585,2661.63,31.2898,9.57055,7.48584
3.409,11583.1,-5259.72,12851.2,-105.487,250.679,181.198,3677.45,3268.03,8995.23,8.45517,-9.54777,15.2788,2591.29,17449.8,1284.74,98.8849,8.13291,344.733,19.6308,-10674.3,-1855.38,-6.11807,-18.0441,60.1793,-6098.62,4096.05,691.766,-15.487,47.0065,97.8932,-713.903,-10591.8,-324.189,-25.0814,-57.851,93.8378,8804.77,275.675,2669.17,31.4221,9.47864,7.3451
3.4095,11734.9,-5388.82,12901.1,-104.474,249.486,183.284,3688.44,3257.33,8984.5,8.71012,-9.7614,15.332,2592.79,17517.1,1256.27,99.0034,9.85167,344.45,10.4048,-10684.5,-1853.38,-6.08222,-17.9747,60.3143,-6064.92,4135.6,765.552,-16.3987,47.0537,97.8567,-702.522,-10603.7,-358.143,-24.7666,-58.0191,93.8086,8794.11,257.899,2677.01,31.4537,9.32844,7.16558
3.41,11886.6,-5517.93,12951.0,-103.462,248.293,185.371,3699.43,3246.63,8973.76,8.96508,-9.97503,15.3853,2594.29,17584.4,1227.8,99.1219,11.5704,344.166,1.17885,-10694.7,-1851.38,-6.04638,-17.9053,60.4492,-6031.23,4175.15,839.339,-17.3104,47.1008,97.8201,-691.141,-10615.6,-392.096,-24.4518,-58.1872,93.7794,8783.46,240.123,2684.84,31.4853,9.17825,6.98606
3.4105,12038.4,-5647.03,13000.9,-102.449,247.1,187.457,3710.41,3235.93,8963.03,9.22003,-10.1887,15.4385,2595.79,17651.7,1199.33,99.2405,13.2892,343.883,-8.04712,-10704.9,-1849.38,-6.01053,-17.8359,60.5841,-5997.53,4214.7,913.125,-18.2222,47.148,97.7836,-679.759,-10627.5,-426.05,-24.1369,-58.3553,93.7502,8772.81,222.348,2692.68,31.5169,9.02806,6.80655
3.411,12190.1,-5776.14,13050.8,-101.437,245.907,189.544,3721.4,3225.23,8952.3,9.47498,-10.4023,15.4918,2597.29,17718.9,1170.86,99.359,15.0079,343.6,-17.2731,-10715.1,-1847.38,-5.97469,-17.7665,60.719,-5963.84,4254.25,986.912,-19.1339,47.1952,97.747,-668.378,-10639.4,-460.004,-23.8221,-58.5234,93.7209,8762.15,204.572,2700.52,31.5485,8.87787,6.62703
3.4115,12341.9,-5905.24,13100.7,-100.425,244.714,191.631,3732.39,3214.53,8941.57,9.72993,-10.6159,15.545,2598.78,17786.2,1142.39,99.4775,16.7267,343.316,-26.4991,-10725.3,-1845.38,-5.93885,-17.6972,60.8539,-5930.15,4293.8,1060.7,-20.0456,47.2423,97.7105,-656.997,-10651.3,-493.958,-23.5073,-58.6915,93.6917,8751.5,186.796,2708.35,31.5801,8.72767,6.44751
3.412,12493.6,-6034.35,13150.6,-99.4123,243.521,193.717,3743.38,3203.83,8930.84,9.98489,-10.8295,15.5982,2600.28,17853.5,1113.92,99.5961,18.4455,343.033,-35.725,-10735.4,-1843.38,-5.903,-17.6278,60.9888,-5896.45,4333.35,1134.48,-20.9573,47.2895,97.6739,-645.615,-10663.2,-527.912,-23.1925,-58.8596,93.6625,8740.84,169.02,2716.19,31.6117,8.57748,6.26799
3.4125,12645.4,-6163.45,13200.4,-98.3999,242.328,195.804,3754.37,3193.13,8920.11,10.2398,-11.0432,15.6515,2601.78,17920.8,1085.45,99.7146,20.1642,342.75,-44.951,-10745.6,-1841.38,-5.86716,-17.5584,61.1238,-5862.76,4372.9,1208.27,-21.869,47.3367,97.6374,-634.234,-10675.2,-561.866,-22.8777,-59.0276,93.6333,8730.19,151.244,2724.02,31.6433,8.42729,6.08848
3.413,12797.1,-6292.56,13250.3,-97.3876,241.135,197.89,3765.35,3182.43,8909.38,10.4948,-11.2568,15.7047,2603.28,17988.0,1056.98,99.8331,21.883,342.466,-54.177,-10755.8,-1839.38,-5.83131,-17.489,61.2587,-5829.07,4412.45,1282.06,-22.7808,47.3838,97.6009,-622.853,-10687.1,-595.82,-22.5629,-59.1957,93.6041,8719.54,133.468,2731.86,31.6749,8.2771,5.90896
3.4135,12951.6,-6418.77,13299.4,-96.2914,240.014,200.067,3776.64,3173.12,8906.7,10.7592,-11.4547,15.7357,2607.5,18050.3,1011.29,100.117,23.7751,342.18,-63.0749,-10764.1,-1838.51,-5.82527,-17.4643,61.3801,-5795.68,4452.57,1354.43,-23.7062,47.3669,97.538,-612.334,-10692.3,-631.522,-22.2242,-59.2995,93.5586,8710.06,117.013,2733.52,31.7421,8.11832,5.73953
3.414,13111.7,-6539.19,13346.6,-95.0275,239.039,202.426,3788.53,3166.58,8920.14,11.0427,-11.6212,15.7223,2617.19,18102.4,931.144,100.732,26.0139,341.888,-71.3168,-10768.6,-1839.9,-5.87884,-17.529,61.4746,-5762.91,4493.84,1423.95,-24.6592,47.2219,97.4226,-603.541,-10684.1,-670.72,-21.8378,-59.2748,93.4808,8702.92,103.199,2722.85,31.8807,7.94238,5.59029
3.4145,13271.8,-6659.61,13393.8,-93.7636,238.064,204.784,3800.42,3160.05,8933.58,11.3261,-11.7877,15.7088,2626.87,18154.5,850.999,101.346,28.2527,341.597,-79.5587,-10773.2,-1841.3,-5.9324,-17.5937,61.5691,-5730.14,4535.1,1493.48,-25.6122,47.0768,97.3072,-594.747,-10675.9,-709.918,-21.4514,-59.25,93.403,8695.79,89.3851,2712.17,32.0193,7.76645,5.44105
3.415,13431.9,-6780.02,13441.1,-92.4998,237.089,207.142,3812.3,3153.52,8947.01,11.6096,-11.9542,15.6954,2636.56,18206.6,770.855,101.961,30.4915,341.305,-87.8005,-10777.7,-1842.69,-5.98596,-17.6584,61.6636,-5697.36,4576.37,1563.01,-26.5651,46.9317,97.1918,-585.954,-10667.7,-749.116,-21.0651,-59.2252,93.3251,8688.65,75.5713,2701.5,32.1579,7.59051,5.29181
3.4155,13591.9,-6900.44,13488.3,-91.2359,236.113,209.5,3824.19,3146.99,8960.45,11.893,-12.1207,15.6819,2646.24,18258.7,690.71,102.576,32.7304,341.013,-96.0424,-10782.2,-1844.09,-6.03953,-17.7231,61.7581,-5664.59,4617.63,1632.54,-27.5181,46.7866,97.0764,-577.16,-10659.4,-788.314,-20.6787,-59.2004,93.2473,8681.51,61.7575,2690.82,32.2965,7.41457,5.14257
3.416,13752.0,-7020.86,13535.6,-89.972,235.138,211.858,3836.08,3140.45,8973.89,12.1765,-12.2872,15.6685,2655.93,18310.8,610.566,103.19,34.9692,340.721,-104.284,-10786.7,-1845.49,-6.09309,-17.7878,61.8526,-5631.82,4658.9,1702.07,-28.4711,46.6415,96.9611,-568.366,-10651.2,-827.512,-20.2923,-59.1756,93.1695,8674.38,47.9437,2680.15,32.4351,7.23863,4.99333
3.4165,13912.1,-7141.28,13582.8,-88.7082,234.163,214.216,3847.96,3133.92,8987.32,12.4599,-12.4537,15.655,2665.61,18363.0,530.421,103.805,37.208,340.429,-112.526,-10791.3,-1846.88,-6.14665,-17.8525,61.9471,-5599.05,4700.17,1771.6,-29.4241,46.4965,96.8457,-559.573,-10643.0,-866.71,-19.9059,-59.1509,93.0916,8667.24,34.1299,2669.47,32.5737,7.06269,4.84409
3.417,14072.1,-7261.7,13630.1,-87.4443,233.188,216.574,3859.85,3127.39,9000.76,12.7434,-12.6202,15.6416,2675.3,18415.1,450.277,104.42,39.4468,340.137,-120.768,-10795.8,-1848.28,-6.20022,-17.9172,62.0416,-5566.27,4741.43,1841.13,-30.377,46.3514,96.7303,-550.779,-10634.8,-905.908,-19.5196,-59.1261,93.0138,8660.11,20.3162,2658.79,32.7123,6.88675,4.69485
3.4175,14232.2,-7382.12,13677.3,-86.1804,232.213,218.933,3871.74,3120.85,9014.2,13.0268,-12.7867,15.6281,2684.98,18467.2,370.132,105.034,41.6856,339.845,-129.01,-10800.3,-1849.67,-6.25378,-17.9819,62.1361,-5533.5,4782.7,1910.66,-31.33,46.2063,96.6149,-541.986,-10626.6,-945.106,-19.1332,-59.1013,92.936,8652.97,6.50238,2648.12,32.8509,6.71082,4.54561
3.418,14396.1,-7476.95,13714.0,-84.7488,231.267,221.439,3871.09,3116.57,9030.05,13.2924,-12.987,15.6088,2684.42,18530.9,273.946,105.802,44.0613,339.633,-136.55,-10807.9,-1842.82,-6.24358,-18.0793,62.242,-5504.71,4822.5,1973.77,-32.2799,45.9806,96.4891,-537.288,-10623.7,-983.532,-18.7736,-58.9592,92.8423,8639.47,-0.962824,2642.73,32.9713,6.5059,4.34459
3.4185,14564.7,-7539.79,13737.4,-83.1075,230.359,224.13,3854.78,3115.11,9048.92,13.5356,-13.2298,15.5821,2671.05,18609.1,157.708,106.761,46.6081,339.52,-143.213,-10819.2,-1825.64,-6.15368,-18.2174,62.362,-5480.89,4860.48,2028.87,-33.2259,45.654,96.3504,-537.71,-10627.2,-1020.99,-18.4475,-58.6703,92.729,8618.01,-0.492318,2643.94,33.0689,6.26476,4.07885
3.419,14733.4,-7602.64,13760.8,-81.4662,229.45,226.822,3838.47,3113.64,9067.79,13.7789,-13.4725,15.5555,2657.68,18687.3,41.47,107.719,49.1549,339.407,-149.876,-10830.6,-1808.46,-6.06378,-18.3555,62.4821,-5457.07,4898.45,2083.97,-34.1719,45.3274,96.2118,-538.131,-10630.8,-1058.45,-18.1215,-58.3815,92.6157,8596.55,-0.0218116,2645.15,33.1665,6.02362,3.81311
3.4195,14902.0,-7665.48,13784.2,-79.8249,228.542,229.513,3822.16,3112.18,9086.67,14.0221,-13.7152,15.5288,2644.31,18765.5,-74.768,108.678,51.7017,339.295,-156.539,-10842.0,-1791.29,-5.97388,-18.4936,62.6021,-5433.24,4936.42,2139.07,-35.1179,45.0008,96.0731,-538.553,-10634.3,-1095.91,-17.7954,-58.0926,92.5023,8575.09,0.448695,2646.37,33.2641,5.78249,3.54736
3.42,15070.7,-7728.33,13807.6,-78.1836,227.634,232.205,3805.85,3110.71,9105.54,14.2654,-13.9579,15.5021,2630.94,18843.7,-191.006,109.637,54.2485,339.182,-163.202,-10853.4,-1774.11,-5.88398,-18.6317,62.7221,-5409.42,4974.39,2194.17,-36.0639,44.6743,95.9344,-538.974,-10637.9,-1133.38,-17.4693,-57.8038,92.389,8553.63,0.919201,2647.58,33.3618,5.54135,3.28162
3.4205,15239.3,-7791.17,13831.0,-76.5423,226.725,234.896,3789.54,3109.25,9124.41,14.5086,-14.2006,15.4755,2617.57,18921.9,-307.244,110.595,56.7953,339.069,-169.865,-10864.7,-1756.94,-5.79409,-18.7698,62.8422,-5385.6,5012.37,2249.26,-37.01,44.3477,95.7957,-539.396,-10641.4,-1170.84,-17.1432,-57.5149,92.2757,8532.17,1.38971,2648.79,33.4594,5.30021,3.01588
3.421,15408.0,-7854.02,13854.5,-74.901,225.817,237.587,3773.23,3107.78,9143.28,14.7519,-14.4433,15.4488,2604.2,19000.1,-423.482,111.554,59.342,338.956,-176.529,-10876.1,-1739.76,-5.70419,-18.9079,62.9622,-5361.78,5050.34,2304.36,-37.956,44.0211,95.657,-539.817,-10645.0,-1208.3,-16.8172,-57.2261,92.1623,8510.71,1.86021,2650.01,33.557,5.05907,2.75014
3.4215,15576.6,-7916.87,13877.9,-73.2597,224.908,240.279,3756.92,3106.31,9162.16,14.9951,-14.686,15.4221,2590.83,19078.3,-539.72,112.512,61.8888,338.843,-183.192,-10887.5,-1722.59,-5.61429,-19.046,63.0822,-5337.96,5088.31,2359.46,-38.902,43.6946,95.5183,-540.239,-10648.5,-1245.76,-16.4911,-56.9372,92.049,8489.25,2.33072,2651.22,33.6546,4.81793,2.48439
3.422,15745.3,-7979.71,13901.3,-71.6184,224.0,242.97,3740.61,3104.85,9181.03,15.2384,-14.9287,15.3955,2577.46,19156.4,-655.958,113.471,64.4356,338.73,-189.855,-10898.8,-1705.41,-5.52439,-19.1841,63.2023,-5314.14,5126.29,2414.56,-39.848,43.368,95.3797,-540.661,-10652.1,-1283.22,-16.165,-56.6484,91.9357,8467.79,2.80123,2652.43,33.7522,4.57679,2.21865
3.4225,15902.7,-8012.98,13915.6,-69.7682,223.039,245.724,3723.29,3112.37,9192.42,15.5427,-15.2016,15.4256,2540.61,19253.8,-763.355,114.376,67.1004,338.592,-192.037,-10905.2,-1697.11,-5.49571,-19.3571,63.3295,-5296.59,5162.16,2459.53,-40.6984,42.8963,95.1575,-524.331,-10653.8,-1313.27,-15.8426,-56.2512,91.8024,8455.19,5.37188,2650.39,33.8256,4.35184,1.96585
3.423,16051.0,-8022.6,13922.6,-67.751,222.037,248.526,3705.16,3127.07,9197.82,15.896,-15.4985,15.5011,2484.99,19366.5,-863.678,115.239,69.8597,338.433,-190.636,-10907.7,-1695.91,-5.516,-19.558,63.4624,-5284.07,5196.36,2496.41,-41.4723,42.3085,94.8685,-494.6,-10654.0,-1337.39,-15.5231,-55.7672,91.6532,8449.69,9.62265,2645.74,33.8796,4.13985,1.72341
3.4235,16199.3,-8032.22,13929.6,-65.7338,221.035,251.329,3687.04,3141.78,9203.22,16.2493,-15.7954,15.5766,2429.36,19479.2,-964.002,116.101,72.619,338.273,-189.234,-10910.1,-1694.71,-5.53629,-19.7589,63.5953,-5271.54,5230.55,2533.29,-42.2462,41.7207,94.5796,-464.87,-10654.1,-1361.51,-15.2036,-55.2832,91.504,8444.19,13.8734,2641.08,33.9335,3.92785,1.48097
3.424,16347.7,-8041.83,13936.6,-63.7166,220.033,254.132,3668.91,3156.49,9208.62,16.6025,-16.0923,15.6521,2373.74,19592.0,-1064.33,116.963,75.3783,338.114,-187.832,-10912.5,-1693.51,-5.55658,-19.9598,63.7281,-5259.01,5264.75,2570.16,-43.0201,41.133,94.2906,-435.139,-10654.3,-1385.64,-14.8841,-54.7993,91.3548,8438.68,18.1242,2636.43,33.9875,3.71586,1.23853
3.4245,16496.0,-8051.45,13943.6,-61.6994,219.031,256.935,3650.78,3171.19,9214.02,16.9558,-16.3893,15.7276,2318.11,19704.7,-1164.65,117.825,78.1375,337.955,-186.43,-10915.0,-1692.31,-5.57687,-20.1607,63.861,-5246.49,5298.95,2607.04,-43.794,40.5452,94.0016,-405.408,-10654.5,-1409.76,-14.5646,-54.3153,91.2055,8433.18,22.375,2631.78,34.0414,3.50386,0.996086
3.425,16644.3,-8061.06,13950.6,-59.6823,218.029,259.738,3632.66,3185.9,9219.42,17.309,-16.6862,15.8031,2262.49,19817.4,-1264.97,118.688,80.8968,337.796,-185.029,-10917.4,-1691.11,-5.59717,-20.3617,63.9939,-5233.96,5333.14,2643.92,-44.5679,39.9574,93.7127,-375.678,-10654.7,-1433.88,-14.2451,-53.8314,91.0563,8427.67,26.6257,2627.13,34.0954,3.29187,0.753643
3.4255,16792.7,-8070.68,13957.6,-57.6651,217.027,262.541,3614.53,3200.61,9224.82,17.6623,-16.9831,15.8786,2206.86,19930.1,-1365.3,119.55,83.6561,337.637,-183.627,-10919.8,-1689.91,-5.61746,-20.5626,64.1268,-5221.43,5367.34,2680.79,-45.3418,39.3696,93.4237,-345.947,-10654.8,-1458.0,-13.9256,-53.3474,90.9071,8422.17,30.8765,2622.48,34.1493,3.07987,0.511201
3.426,16941.0,-8080.29,13964.6,-55.6479,216.025,265.343,3596.4,3215.31,9230.22,18.0155,-17.28,15.9541,2151.23,20042.8,-1465.62,120.412,86.4153,337.478,-182.225,-10922.3,-1688.71,-5.63775,-20.7635,64.2597,-5208.9,5401.54,2717.67,-46.1157,38.7819,93.1348,-316.216,-10655.0,-1482.12,-13.6061,-52.8635,90.7579,8416.66,35.1273,2617.82,34.2033,2.86788,0.268759
3.4265,17089.3,-8089.91,13971.6,-53.6307,215.023,268.146,3578.28,3230.02,9235.62,18.3688,-17.577,16.0296,2095.61,20155.5,-1565.95,121.274,89.1746,337.319,-180.823,-10924.7,-1687.51,-5.65804,-20.9644,64.3926,-5196.38,5435.73,2754.55,-46.8896,38.1941,92.8458,-286.485,-10655.2,-1506.25,-13.2866,-52.3795,90.6087,8411.16,39.3781,2613.17,34.2572,2.65588,0.0263169
3.427,17210.5,-8112.19,13956.8,-51.559,214.009,270.789,3572.5,3226.25,9239.96,18.7342,-17.8538,16.08,2037.41,20257.9,-1665.48,122.055,92.0149,337.205,-185.828,-10934.1,-1688.72,-5.6101,-21.1392,64.5421,-5184.3,5466.59,2775.12,-47.2719,37.4505,92.4124,-270.031,-10666.9,-1520.83,-12.9713,-51.9179,90.492,8403.03,44.8855,2592.96,34.3227,2.46995,-0.20716
3.4275,17318.1,-8140.81,13931.0,-49.4601,212.99,273.352,3572.9,3213.24,9243.77,19.1056,-18.1205,16.1178,1977.93,20355.2,-1764.62,122.795,94.8957,337.114,-194.035,-10947.0,-1691.12,-5.52804,-21.3009,64.6999,-5172.44,5495.77,2787.53,-47.4584,36.6291,91.9067,-260.215,-10684.3,-1530.65,-12.6582,-51.4675,90.3916,8393.59,51.0212,2564.98,34.394,2.29706,-0.436154
3.428,17425.6,-8169.43,13905.2,-47.3612,211.97,275.915,3573.29,3200.23,9247.58,19.477,-18.3872,16.1556,1918.45,20452.4,-1863.77,123.535,97.7765,337.024,-202.242,-10959.9,-1693.53,-5.44597,-21.4626,64.8577,-5160.59,5524.96,2799.94,-47.645,35.8077,91.4011,-250.399,-10701.7,-1540.46,-12.345,-51.0171,90.2912,8384.14,57.1569,2536.99,34.4652,2.12417,-0.665147
3.4285,17533.2,-8198.04,13879.4,-45.2623,210.951,278.479,3573.69,3187.22,9251.38,19.8484,-18.6539,16.1935,1858.97,20549.6,-1962.91,124.275,100.657,336.933,-210.449,-10972.8,-1695.93,-5.36391,-21.6243,65.0155,-5148.74,5554.14,2812.35,-47.8315,34.9862,90.8954,-240.583,-10719.1,-1550.28,-12.0319,-50.5667,90.1907,8374.7,63.2926,2509.0,34.5365,1.95127,-0.894141
3.429,17640.8,-8226.66,13853.6,-43.1633,209.931,281.042,3574.09,3174.22,9255.19,20.2199,-18.9207,16.2313,1799.49,20646.9,-2062.05,125.015,103.538,336.842,-218.656,-10985.7,-1698.34,-5.28185,-21.7861,65.1733,-5136.88,5583.33,2824.77,-48.0181,34.1648,90.3898,-230.767,-10736.5,-1560.1,-11.7187,-50.1163,90.0903,8365.26,69.4283,2481.02,34.6077,1.77838,-1.12314
3.4295,17748.3,-8255.28,13827.8,-41.0644,208.912,283.605,3574.48,3161.21,9259.0,20.5913,-19.1874,16.2691,1740.0,20744.1,-2161.19,125.755,106.419,336.752,-226.864,-10998.6,-1700.74,-5.19978,-21.9478,65.3311,-5125.03,5612.51,2837.18,-48.2046,33.3434,89.8841,-220.951,-10753.9,-1569.91,-11.4056,-49.6659,89.9899,8355.82,75.564,2453.03,34.679,1.60549,-1.35213
3.43,17855.9,-8283.9,13802.0,-38.9655,207.892,286.168,3574.88,3148.2,9262.8,20.9627,-19.4541,16.307,1680.52,20841.3,-2260.33,126.495,109.3,336.661,-235.071,-11011.5,-1703.15,-5.11772,-22.1095,65.4889,-5113.17,5641.69,2849.59,-48.3911,32.5219,89.3785,-211.135,-10771.3,-1579.73,-11.0924,-49.2155,89.8895,8346.38,81.6997,2425.04,34.7502,1.4326,-1.58112
3.4305,17963.5,-8312.51,13776.2,-36.8666,206.873,288.731,3575.28,3135.19,9266.61,21.3341,-19.7208,16.3448,1621.04,20938.6,-2359.48,127.235,112.18,336.57,-243.278,-11024.4,-1705.55,-5.03566,-22.2712,65.6467,-5101.32,5670.88,2862.01,-48.5777,31.7005,88.8728,-201.319,-10788.7,-1589.54,-10.7793,-48.7651,89.7891,8336.94,87.8354,2397.06,34.8215,1.2597,-1.81012
3.431,18071.0,-8341.13,13750.4,-34.7677,205.853,291.294,3575.67,3122.18,9270.42,21.7056,-19.9876,16.3827,1561.56,21035.8,-2458.62,127.975,115.061,336.48,-251.485,-11037.3,-1707.96,-4.9536,-22.433,65.8045,-5089.47,5700.06,2874.42,-48.7642,30.879,88.3672,-191.503,-10806.1,-1599.36,-10.4661,-48.3147,89.6887,8327.5,93.9711,2369.07,34.8927,1.08681,-2.03911
3.4315,18148.0,-8386.02,13714.9,-32.85,204.727,293.603,3572.31,3112.12,9274.32,22.0148,-20.3491,16.3237,1540.53,21098.7,-2551.56,128.617,117.915,336.27,-264.276,-11052.3,-1715.51,-4.88174,-22.6225,65.9378,-5068.15,5722.66,2871.0,-48.3904,29.9173,87.654,-187.411,-10813.6,-1602.71,-10.2119,-47.8852,89.5569,8315.45,97.9632,2353.56,34.9322,0.923324,-2.26364
3.432,18216.1,-8435.55,13676.6,-30.9842,203.57,295.838,3567.87,3102.91,9278.24,22.3064,-20.7377,16.237,1530.49,21151.8,-2642.74,129.231,120.76,336.026,-278.378,-11068.0,-1724.53,-4.81279,-22.82,66.064,-5044.13,5743.38,2863.06,-47.8565,28.9155,86.8816,-184.955,-10818.3,-1604.21,-9.97456,-47.4616,89.4162,8302.67,101.343,2341.62,34.9626,0.762526,-2.48689
3.4325,18284.3,-8485.09,13638.3,-29.1183,202.412,298.074,3563.43,3093.69,9282.17,22.5979,-21.1263,16.1504,1520.44,21204.9,-2733.91,129.845,123.606,335.782,-292.479,-11083.7,-1733.55,-4.74385,-23.0174,66.1902,-5020.11,5764.1,2855.12,-47.3226,27.9136,86.1092,-182.498,-10823.0,-1605.71,-9.73719,-47.0381,89.2754,8289.88,104.722,2329.68,34.993,0.601728,-2.71014
3.433,18352.4,-8534.62,13600.0,-27.2524,201.255,300.31,3559.0,3084.47,9286.1,22.8894,-21.5149,16.0637,1510.4,21258.0,-2825.09,130.459,126.451,335.538,-306.58,-11099.4,-1742.57,-4.67491,-23.2149,66.3164,-4996.08,5784.82,2847.18,-46.7887,26.9118,85.3368,-180.041,-10827.7,-1607.2,-9.49982,-46.6146,89.1347,8277.09,108.102,2317.74,35.0233,0.440931,-2.93339
3.4335,18420.6,-8584.15,13561.7,-25.3866,200.098,302.546,3554.56,3075.26,9290.02,23.181,-21.9035,15.977,1500.36,21311.1,-2916.26,131.073,129.297,335.294,-320.681,-11115.2,-1751.59,-4.60597,-23.4124,66.4426,-4972.06,5805.54,2839.24,-46.2548,25.91,84.5644,-177.585,-10832.4,-1608.7,-9.26245,-46.191,88.9939,8264.3,111.482,2305.8,35.0537,0.280133,-3.15664
3.434,18488.8,-8633.69,13523.4,-23.5207,198.94,304.781,3550.12,3066.04,9293.95,23.4725,-22.2921,15.8904,1490.31,21364.2,-3007.43,131.687,132.143,335.05,-334.782,-11130.9,-1760.61,-4.53702,-23.6098,66.5688,-4948.04,5826.26,2831.3,-45.7209,24.9081,83.7919,-175.128,-10837.0,-1610.2,-9.02508,-45.7675,88.8532,8251.51,114.861,2293.86,35.0841,0.119335,-3.37989
3.4345,18556.9,-8683.22,13485.0,-21.6548,197.783,307.017,3545.68,3056.82,9297.87,23.764,-22.6807,15.8037,1480.27,21417.2,-3098.61,132.301,134.988,334.806,-348.883,-11146.6,-1769.63,-4.46808,-23.8073,66.695,-4924.02,5846.98,2823.36,-45.187,23.9063,83.0195,-172.672,-10841.7,-1611.7,-8.78771,-45.3439,88.7124,8238.73,118.241,2281.92,35.1145,-0.0414623,-3.60314
3.435,18625.1,-8732.76,13446.7,-19.789,196.626,309.253,3541.24,3047.6,9301.8,24.0555,-23.0693,15.7171,1470.23,21470.3,-3189.78,132.915,137.834,334.562,-362.984,-11162.3,-1778.65,-4.39914,-24.0048,66.8212,-4900.0,5867.7,2815.42,-44.6531,22.9044,82.2471,-170.215,-10846.4,-1613.2,-8.55034,-44.9204,88.5717,8225.94,121.62,2269.98,35.1449,-0.20226,-3.82639
3.4355,18693.3,-8782.29,13408.4,-17.9231,195.469,311.488,3536.8,3038.39,9305.72,24.3471,-23.4579,15.6304,1460.18,21523.4,-3280.96,133.529,140.679,334.318,-377.085,-11178.0,-1787.67,-4.3302,-24.2023,66.9474,-4875.98,5888.42,2807.48,-44.1192,21.9026,81.4747,-167.759,-10851.1,-1614.7,-8.31297,-44.4968,88.431,8213.15,125.0,2258.04,35.1753,-0.363058,-4.04964
3.436,18723.8,-8782.65,13338.2,-16.5028,194.169,313.376,3541.48,3075.78,9313.2,25.1236,-23.8629,15.7781,1422.42,21550.3,-3381.53,134.296,143.626,333.901,-367.529,-11193.6,-1798.44,-4.21807,-24.3978,67.1412,-4815.7,5924.37,2765.71,-43.1002,20.8778,80.4089,-169.683,-10862.3,-1600.19,-8.06556,-44.2188,88.2801,8207.01,149.709,2237.76,35.1765,-0.569334,-4.26666
3.4365,18749.8,-8776.86,13264.0,-15.1382,192.851,315.219,3547.29,3119.0,9321.12,25.9607,-24.27,15.955,1381.2,21573.9,-3483.27,135.083,146.585,333.461,-355.015,-11209.1,-1809.43,-4.10054,-24.5931,67.3435,-4750.88,5962.22,2719.71,-42.0205,19.8501,79.3063,-172.155,-10874.4,-1583.67,-7.8169,-43.9589,88.1279,8201.71,177.085,2216.44,35.174,-0.781296,-4.4829
3.437,18775.7,-8771.07,13189.8,-13.7736,191.534,317.063,3553.11,3162.23,9329.04,26.7979,-24.677,16.1319,1339.97,21597.4,-3585.02,135.869,149.544,333.022,-342.502,-11224.7,-1820.42,-3.98301,-24.7884,67.5457,-4686.07,6000.07,2673.72,-40.9409,18.8224,78.2038,-174.627,-10886.4,-1567.15,-7.56824,-43.6991,87.9758,8196.4,204.461,2195.12,35.1716,-0.993257,-4.69913
3.4375,18801.6,-8765.28,13115.5,-12.409,190.216,318.907,3558.92,3205.45,9336.96,27.635,-25.0841,16.3089,1298.75,21621.0,-3686.76,136.656,152.503,332.583,-329.988,-11240.3,-1831.41,-3.86548,-24.9836,67.748,-4621.25,6037.93,2627.72,-39.8612,17.7947,77.1013,-177.098,-10898.5,-1550.64,-7.31958,-43.4392,87.8236,8191.09,231.836,2173.8,35.1691,-1.20522,-4.91537
3.438,18827.5,-8759.49,13041.3,-11.0444,188.899,320.751,3564.74,3248.67,9344.88,28.4721,-25.4911,16.4858,1257.52,21644.6,-3788.51,137.443,155.462,332.144,-317.474,-11255.8,-1842.4,-3.74795,-25.1789,67.9503,-4556.43,6075.78,2581.72,-38.7815,16.767,75.9988,-179.57,-10910.5,-1534.12,-7.07092,-43.1793,87.6715,8185.78,259.212,2152.48,35.1666,-1.41718,-5.13161
3.4385,18853.4,-8753.7,12967.1,-9.67979,187.581,322.594,3570.55,3291.89,9352.8,29.3093,-25.8982,16.6627,1216.29,21668.2,-3890.26,138.23,158.421,331.704,-304.961,-11271.4,-1853.39,-3.63043,-25.3742,68.1525,-4491.62,6113.64,2535.72,-37.7019,15.7394,74.8963,-182.042,-10922.6,-1517.6,-6.82226,-42.9195,87.5193,8180.48,286.587,2131.16,35.1642,-1.62914,-5.34784
3.439,18879.3,-8747.91,12892.9,-8.31519,186.264,324.438,3576.37,3335.11,9360.72,30.1464,-26.3052,16.8396,1175.07,21691.8,-3992.0,139.016,161.38,331.265,-292.447,-11286.9,-1864.38,-3.5129,-25.5695,68.3548,-4426.8,6151.49,2489.73,-36.6222,14.7117,73.7938,-184.514,-10934.6,-1501.09,-6.5736,-42.6596,87.3672,8175.17,313.963,2109.84,35.1617,-1.8411,-5.56408
3.4395,18905.2,-8742.13,12818.7,-6.95059,184.946,326.282,3582.18,3378.34,9368.64,30.9835,-26.7123,17.0166,1133.84,21715.3,-4093.75,139.803,164.339,330.826,-279.934,-11302.5,-1875.37,-3.39537,-25.7648,68.557,-4361.99,6189.35,2443.73,-35.5425,13.684,72.6913,-186.985,-10946.7,-1484.57,-6.32494,-42.3997,87.215,8169.86,341.338,2088.53,35.1593,-2.05307,-5.78032
3.44,18931.1,-8736.34,12744.5,-5.58598,183.629,328.126,3587.99,3421.56,9376.56,31.8207,-27.1193,17.1935,1092.62,21738.9,-4195.49,140.59,167.298,330.386,-267.42,-11318.1,-1886.36,-3.27784,-25.96,68.7593,-4297.17,6227.2,2397.73,-34.4628,12.6563,71.5888,-189.457,-10958.7,-1468.05,-6.07628,-42.1399,87.0629,8164.55,368.714,2067.21,35.1568,-2.26503,-5.99655
3.4405,18917.3,-8553.22,12734.8,-5.14991,181.909,329.588,3559.71,3357.51,9397.6,32.3159,-27.6153,17.1538,1017.97,21778.3,-4380.23,141.639,170.351,329.638,-259.455,-11337.3,-1909.44,-3.41431,-26.2364,68.9427,-4209.57,6301.29,2331.0,-33.4867,11.7327,70.2016,-161.66,-10960.7,-1456.91,-5.8463,-42.0527,86.9896,8145.94,392.519,2080.24,35.0969,-2.65796,-6.12329
3.441,18903.5,-8370.1,12725.2,-4.71384,180.19,331.05,3531.42,3293.46,9418.64,32.8111,-28.1112,17.1142,943.32,21817.7,-4564.96,142.689,173.403,328.89,-251.49,-11356.5,-1932.51,-3.55078,-26.5127,69.1261,-4121.97,6375.38,2264.28,-32.5106,10.8091,68.8144,-133.863,-10962.6,-1445.77,-5.61632,-41.9655,86.9162,8127.34,416.324,2093.27,35.0369,-3.05088,-6.25002
3.4415,18889.7,-8186.98,12715.6,-4.27777,178.47,332.513,3503.13,3229.4,9439.68,33.3063,-28.6071,17.0746,868.671,21857.1,-4749.69,143.738,176.456,328.142,-243.524,-11375.6,-1955.58,-3.68724,-26.789,69.3095,-4034.37,6449.46,2197.55,-31.5345,9.88545,67.4272,-106.066,-10964.5,-1434.62,-5.38635,-41.8783,86.8429,8108.73,440.129,2106.3,34.9769,-3.44381,-6.37675
3.442,18875.9,-8003.86,12706.0,-3.84169,176.751,333.975,3474.84,3165.35,9460.72,33.8015,-29.1031,17.0349,794.023,21896.5,-4934.42,144.788,179.509,327.394,-235.559,-11394.8,-1978.66,-3.82371,-27.0653,69.4929,-3946.77,6523.55,2130.82,-30.5584,8.96184,66.04,-78.2684,-10966.5,-1423.48,-5.15637,-41.791,86.7696,8090.12,463.934,2119.33,34.917,-3.83674,-6.50348
3.4425,18862.2,-7820.75,12696.4,-3.40562,175.031,335.438,3446.55,3101.3,9481.76,34.2967,-29.599,16.9953,719.375,21935.9,-5119.15,145.837,182.561,326.646,-227.594,-11414.0,-2001.73,-3.96018,-27.3416,69.6763,-3859.17,6597.64,2064.09,-29.5823,8.03822,64.6528,-50.4712,-10968.4,-1412.34,-4.92639,-41.7038,86.6963,8071.51,487.739,2132.36,34.857,-4.22967,-6.63022
3.443,18848.4,-7637.63,12686.8,-2.96955,173.312,336.9,3418.27,3037.25,9502.8,34.7919,-30.095,16.9556,644.727,21975.3,-5303.88,146.886,185.614,325.897,-219.629,-11433.2,-2024.81,-4.09665,-27.618,69.8598,-3771.57,6671.72,1997.36,-28.6062,7.1146,63.2656,-22.674,-10970.4,-1401.19,-4.69641,-41.6166,86.623,8052.9,511.544,2145.39,34.797,-4.6226,-6.75695
3.4435,18834.6,-7454.51,12677.2,-2.53348,171.592,338.363,3389.98,2973.2,9523.84,35.287,-30.5909,16.916,570.079,22014.7,-5488.61,147.936,188.667,325.149,-211.664,-11452.4,-2047.88,-4.23311,-27.8943,70.0432,-3683.97,6745.81,1930.64,-27.6301,6.19099,61.8784,5.12321,-10972.3,-1390.05,-4.46644,-41.5294,86.5497,8034.3,535.349,2158.42,34.737,-5.01553,-6.88368
3.444,18820.8,-7271.39,12667.6,-2.0974,169.873,339.825,3361.69,2909.15,9544.88,35.7822,-31.0869,16.8763,495.431,22054.1,-5673.34,148.985,191.719,324.401,-203.698,-11471.6,-2070.95,-4.36958,-28.1706,70.2266,-3596.37,6819.9,1863.91,-26.6539,5.26737,60.4912,32.9204,-10974.2,-1378.91,-4.23646,-41.4422,86.4763,8015.69,559.154,2171.45,34.6771,-5.40846,-7.01041
3.4445,18808.0,-7072.27,12654.2,-1.72335,168.138,341.246,3339.4,2867.26,9557.98,36.2321,-31.552,16.8344,415.474,22096.4,-5838.38,149.914,194.679,323.652,-198.945,-11487.9,-2098.67,-4.51052,-28.4847,70.3856,-3505.94,6899.59,1798.44,-25.748,4.38292,59.1241,59.1006,-10979.5,-1368.82,-4.01368,-41.363,86.4121,7998.19,582.742,2179.54,34.5988,-5.79084,-7.12943
3.445,18802.5,-6745.12,12610.9,-1.84546,166.279,342.328,3365.11,3002.75,9507.54,36.3191,-31.7707,16.7739,293.053,22162.4,-5845.87,149.876,196.895,322.894,-219.886,-11481.2,-2163.57,-4.68724,-29.1008,70.3498,-3392.87,7024.09,1743.03,-25.4038,3.81182,57.9185,72.3449,-11011.6,-1367.23,-3.84844,-41.3475,86.4208,7989.6,604.6,2148.11,34.3743,-6.08883,-7.18676
3.4455,18797.1,-6417.96,12567.6,-1.96757,164.421,343.41,3390.82,3138.23,9457.09,36.4061,-31.9894,16.7135,170.632,22228.4,-5853.36,149.838,199.112,322.136,-240.826,-11474.5,-2228.47,-4.86395,-29.717,70.3139,-3279.81,7148.59,1687.63,-25.0595,3.24072,56.713,85.5891,-11043.7,-1365.64,-3.6832,-41.332,86.4294,7981.0,626.458,2116.67,34.1498,-6.38682,-7.24409
3.446,18791.7,-6090.81,12524.3,-2.08969,162.563,344.492,3416.53,3273.71,9406.65,36.4931,-32.2081,16.653,48.2108,22294.4,-5860.84,149.8,201.328,321.379,-261.767,-11467.9,-2293.37,-5.04067,-30.3332,70.2781,-3166.74,7273.08,1632.22,-24.7152,2.66962,55.5074,98.8334,-11075.7,-1364.04,-3.51796,-41.3166,86.4381,7972.41,648.316,2085.24,33.9253,-6.68481,-7.30141
3.4465,18786.3,-5763.65,12481.0,-2.2118,160.704,345.574,3442.24,3409.2,9356.21,36.5802,-32.4268,16.5925,-74.2104,22360.5,-5868.33,149.762,203.545,320.621,-282.708,-11461.2,-2358.26,-5.21739,-30.9493,70.2423,-3053.67,7397.58,1576.81,-24.371,2.09852,54.3018,112.078,-11107.8,-1362.45,-3.35272,-41.3011,86.4467,7963.81,670.174,2053.81,33.7007,-6.9828,-7.35874
3.447,18780.9,-5436.5,12437.7,-2.33391,158.846,346.657,3467.95,3544.68,9305.77,36.6672,-32.6455,16.5321,-196.632,22426.5,-5875.82,149.724,205.761,319.863,-303.648,-11454.5,-2423.16,-5.3941,-31.5655,70.2064,-2940.61,7522.08,1521.41,-24.0267,1.52742,53.0962,125.322,-11139.9,-1360.85,-3.18748,-41.2856,86.4554,7955.22,692.031,2022.38,33.4762,-7.28079,-7.41607
3.4475,18775.5,-5109.35,12394.4,-2.45602,156.988,347.739,3493.66,3680.17,9255.33,36.7542,-32.8642,16.4716,-319.053,22492.5,-5883.3,149.686,207.978,319.106,-324.589,-11447.9,-2488.06,-5.57082,-32.1817,70.1706,-2827.54,7646.58,1466.0,-23.6825,0.956314,51.8906,138.566,-11172.0,-1359.26,-3.02224,-41.2702,86.4641,7946.62,713.889,1990.94,33.2517,-7.57879,-7.4734
3.448,18770.1,-4782.19,12351.1,-2.57813,155.129,348.821,3519.37,3815.65,9204.89,36.8412,-33.0829,16.4112,-441.474,22558.5,-5890.79,149.648,210.194,318.348,-345.53,-11441.2,-2552.95,-5.74753,-32.7978,70.1347,-2714.48,7771.08,1410.6,-23.3382,0.385213,50.685,151.811,-11204.0,-1357.67,-2.857,-41.2547,86.4727,7938.03,735.747,1959.51,33.0271,-7.87678,-7.53072
3.4485,18764.7,-4455.04,12307.8,-2.70024,153.271,349.903,3545.08,3951.13,9154.45,36.9283,-33.3016,16.3507,-563.895,22624.5,-5898.28,149.61,212.411,317.59,-366.471,-11434.5,-2617.85,-5.92425,-33.414,70.0989,-2601.41,7895.58,1355.19,-22.9939,-0.185889,49.4794,165.055,-11236.1,-1356.07,-2.69176,-41.2392,86.4813,7929.43,757.605,1928.08,32.8026,-8.17477,-7.58805
3.449,18787.7,-4170.16,12229.7,-2.86587,151.578,350.816,3565.99,4090.21,9121.42,37.0534,-33.5551,16.492,-673.423,22679.2,-5864.27,149.371,214.484,316.812,-382.749,-11429.1,-2676.0,-5.99571,-33.9874,70.1235,-2484.05,8020.79,1298.7,-22.7729,-0.590762,48.3282,176.124,-11264.4,-1346.0,-2.54715,-41.2141,86.4917,7924.77,783.449,1890.58,32.6034,-8.48165,-7.66894
3.4495,18910.3,-4033.24,12029.7,-3.18378,150.466,351.136,3570.1,4241.86,9149.35,37.3119,-33.9303,17.3392,-737.824,22694.3,-5685.05,148.43,216.058,315.96,-382.711,-11428.1,-2710.5,-5.69876,-34.4109,70.3599,-2351.67,8148.48,1238.42,-22.9833,-0.413837,47.3674,179.582,-11279.7,-1306.25,-2.47479,-41.1555,86.5078,7933.88,823.245,1831.87,32.4925,-8.81963,-7.8323
3.45,19032.9,-3896.32,11829.6,-3.50169,149.353,351.456,3574.21,4393.51,9177.28,37.5705,-34.3056,18.1864,-802.226,22709.4,-5505.82,147.488,217.632,315.108,-382.674,-11427.2,-2745.01,-5.40182,-34.8344,70.5963,-2219.29,8276.18,1178.13,-23.1937,-0.236912,46.4065,183.04,-11295.0,-1266.49,-2.40242,-41.0968,86.524,7942.99,863.041,1773.16,32.3816,-9.15761,-7.99565
3.4505,19155.5,-3759.4,11629.6,-3.8196,148.24,351.776,3578.32,4545.16,9205.21,37.829,-34.6809,19.0336,-866.627,22724.5,-5326.6,146.547,219.205,314.256,-382.636,-11426.2,-2779.52,-5.10488,-35.2578,70.8327,-2086.91,8403.87,1117.84,-23.404,-0.0599873,45.4456,186.497,-11310.3,-1226.74,-2.33006,-41.0381,86.5402,7952.1,902.837,1714.44,32.2708,-9.49559,-8.15901
3.451,19278.1,-3622.49,11429.6,-4.1375,147.128,352.096,3582.43,4696.81,9233.14,38.0875,-35.0561,19.8809,-931.028,22739.6,-5147.37,145.605,220.779,313.404,-382.598,-11425.2,-2814.03,-4.80793,-35.6813,71.069,-1954.53,8531.56,1057.56,-23.6144,0.116938,44.4847,189.955,-11325.6,-1186.99,-2.25769,-40.9795,86.5564,7961.21,942.633,1655.73,32.1599,-9.83357,-8.32236
3.4515,19400.7,-3485.57,11229.6,-4.45541,146.015,352.416,3586.53,4848.46,9261.07,38.346,-35.4314,20.7281,-995.429,22754.7,-4968.15,144.663,222.353,312.552,-382.56,-11424.2,-2848.53,-4.51099,-36.1048,71.3054,-1822.15,8659.26,997.274,-23.8248,0.293863,43.5238,193.413,-11340.9,-1147.23,-2.18532,-40.9208,86.5725,7970.32,982.429,1597.01,32.049,-10.1715,-8.48572
3.452,19523.3,-3348.65,11029.6,-4.77332,144.902,352.736,3590.64,5000.11,9289.0,38.6046,-35.8067,21.5753,-1059.83,22769.8,-4788.92,143.722,223.926,311.7,-382.522,-11423.2,-2883.04,-4.21404,-36.5283,71.5418,-1689.77,8786.95,936.988,-24.0352,0.470788,42.5629,196.87,-11356.2,-1107.48,-2.11296,-40.8621,86.5887,7979.43,1022.22,1538.3,31.9382,-10.5095,-8.64908
3.4525,19645.9,-3211.73,10829.6,-5.09123,143.79,353.056,3594.75,5151.76,9316.93,38.8631,-36.1819,22.4226,-1124.23,22784.9,-4609.69,142.78,225.5,310.848,-382.484,-11422.3,-2917.55,-3.9171,-36.9518,71.7782,-1557.39,8914.65,876.703,-24.2455,0.647713,41.6021,200.328,-11371.4,-1067.72,-2.04059,-40.8035,86.6049,7988.54,1062.02,1479.59,31.8273,-10.8475,-8.81243
3.453,19768.5,-3074.82,10629.6,-5.40914,142.677,353.376,3598.86,5303.41,9344.86,39.1216,-36.5572,23.2698,-1188.63,22800.0,-4430.47,141.839,227.074,309.996,-382.446,-11421.3,-2952.06,-3.62016,-37.3753,72.0145,-1425.01,9042.34,816.417,-24.4559,0.824638,40.6412,203.786,-11386.7,-1027.97,-1.96822,-40.7448,86.621,7997.65,1101.82,1420.87,31.7164,-11.1855,-8.97579
3.4535,19918.9,-3056.21,10465.8,-5.77795,141.668,353.479,3602.57,5355.47,9364.57,39.4296,-36.9379,24.0149,-1254.97,22802.1,-4302.88,141.183,228.671,309.059,-377.431,-11438.7,-2971.63,-3.23386,-37.6021,72.3072,-1295.46,9167.9,754.194,-24.7041,1.22867,39.7921,209.532,-11406.8,-997.202,-1.87534,-40.7283,86.6218,8002.26,1141.87,1366.5,31.6308,-11.4653,-9.09794
3.454,20125.1,-3274.24,10374.5,-6.24854,140.864,353.146,3605.48,5208.36,9367.83,39.8365,-37.3295,24.5556,-1325.19,22778.2,-4278.55,141.1,230.316,307.951,-362.46,-11493.0,-2961.32,-2.66886,-37.4353,72.7125,-1171.56,9289.19,688.094,-25.0279,2.08693,39.1665,219.857,-11436.6,-984.404,-1.74141,-40.796,86.5917,7997.85,1182.42,1320.8,31.5956,-11.6288,-9.13771
3.4545,20331.3,-3492.26,10283.2,-6.71912,140.061,352.814,3608.39,5061.26,9371.1,40.2434,-37.7211,25.0964,-1395.42,22754.2,-4254.22,141.017,231.962,306.843,-347.488,-11547.3,-2951.01,-2.10386,-37.2685,73.1179,-1047.66,9410.49,621.994,-25.3517,2.94518,38.5409,230.181,-11466.3,-971.605,-1.60748,-40.8637,86.5615,7993.45,1222.97,1275.11,31.5605,-11.7923,-9.17747
3.455,20537.5,-3710.29,10191.9,-7.18971,139.258,352.481,3611.3,4914.15,9374.36,40.6502,-38.1127,25.6372,-1465.64,22730.3,-4229.9,140.933,233.607,305.735,-332.517,-11601.6,-2940.7,-1.53887,-37.1017,73.5232,-923.759,9531.78,555.895,-25.6756,3.80343,37.9153,240.506,-11496.1,-958.806,-1.47355,-40.9315,86.5314,7989.05,1263.53,1229.41,31.5253,-11.9558,-9.21723
3.4555,20743.7,-3928.31,10100.6,-7.6603,138.455,352.149,3614.21,4767.04,9377.63,41.0571,-38.5042,26.1779,-1535.86,22706.3,-4205.57,140.85,235.253,304.628,-317.546,-11655.9,-2930.39,-0.973868,-36.935,73.9285,-799.859,9653.07,489.795,-25.9994,4.66169,37.2897,250.831,-11525.9,-946.007,-1.33962,-40.9992,86.5013,7984.65,1304.08,1183.71,31.4901,-12.1193,-9.25699
3.456,20950.0,-4146.34,10009.3,-8.13089,137.652,351.816,3617.12,4619.94,9380.89,41.464,-38.8958,26.7187,-1606.08,22682.4,-4181.24,140.767,236.898,303.52,-302.575,-11710.2,-2920.09,-0.408869,-36.7682,74.3338,-675.96,9774.37,423.695,-26.3232,5.51994,36.6642,261.155,-11555.6,-933.208,-1.20569,-41.067,86.4712,7980.25,1344.64,1138.02,31.4549,-12.2828,-9.29675
3.4565,21156.2,-4364.36,9918.04,-8.60148,136.849,351.484,3620.03,4472.83,9384.15,41.8709,-39.2874,27.2595,-1676.3,22658.4,-4156.92,140.683,238.543,302.412,-287.604,-11764.5,-2909.78,0.156129,-36.6014,74.7391,-552.061,9895.66,357.595,-26.6471,6.3782,36.0386,271.48,-11585.4,-920.409,-1.07176,-41.1347,86.4411,7975.85,1385.19,1092.32,31.4198,-12.4463,-9.33651
3.457,21362.4,-4582.39,9826.75,-9.07207,136.046,351.151,3622.94,4325.72,9387.41,42.2778,-39.679,27.8002,-1746.52,22634.5,-4132.59,140.6,240.189,301.304,-272.633,-11818.8,-2899.47,0.721127,-36.4347,75.1444,-428.162,10017.0,291.496,-26.9709,7.23645,35.413,281.804,-11615.1,-907.61,-0.937828,-41.2024,86.4109,7971.44,1425.75,1046.63,31.3846,-12.6098,-9.37627
3.4575,21568.6,-4800.41,9735.45,-9.54266,135.243,350.819,3625.85,4178.62,9390.68,42.6847,-40.0705,28.341,-1816.74,22610.5,-4108.27,140.516,241.834,300.197,-257.662,-11873.1,-2889.16,1.28613,-36.2679,75.5497,-304.262,10138.2,225.396,-27.2947,8.0947,34.7874,292.129,-11644.9,-894.811,-0.803899,-41.2702,86.3808,7967.04,1466.3,1000.93,31.3494,-12.7732,-9.41603
3.458,21761.9,-5041.56,9672.84,-9.74942,134.455,350.343,3636.87,4043.5,9393.22,42.8366,-40.4839,28.55,-1889.87,22576.8,-4175.33,140.672,243.815,299.006,-225.178,-11918.6,-2853.8,1.77354,-36.007,75.8665,-179.074,10250.8,180.074,-27.7057,9.1432,34.3049,307.199,-11656.7,-880.1,-0.799993,-41.3725,86.3187,7980.48,1502.85,967.841,31.3231,-12.9258,-9.43362
3.4585,21939.3,-5311.6,9646.08,-9.62638,133.686,349.689,3658.04,3923.37,9394.86,42.6697,-40.9246,28.3442,-1966.63,22530.7,-4356.65,141.126,246.214,297.713,-170.803,-11953.2,-2787.12,2.16397,-35.6283,76.0726,-52.2758,10352.3,160.724,-28.2257,10.4295,34.0011,328.2,-11646.2,-862.998,-0.958617,-41.5179,86.2167,8016.2,1534.41,950.508,31.3077,-13.0645,-9.42349
3.459,22116.6,-5581.65,9619.32,-9.50335,132.917,349.034,3679.21,3803.23,9396.5,42.5028,-41.3653,28.1384,-2043.39,22484.7,-4537.96,141.58,248.614,296.419,-116.427,-11987.8,-2720.43,2.55441,-35.2496,76.2788,74.5228,10453.8,141.374,-28.7457,11.7158,33.6973,349.201,-11635.7,-845.895,-1.11724,-41.6634,86.1147,8051.93,1565.96,933.176,31.2923,-13.2033,-9.41335
3.4595,22293.9,-5851.7,9592.56,-9.38032,132.149,348.38,3700.38,3683.1,9398.14,42.336,-41.8059,27.9326,-2120.15,22438.6,-4719.27,142.035,251.013,295.126,-62.052,-12022.3,-2653.75,2.94484,-34.871,76.4849,201.321,10555.3,122.024,-29.2657,13.0021,33.3935,370.202,-11625.2,-828.793,-1.27587,-41.8089,86.0127,8087.65,1597.51,915.843,31.2769,-13.3421,-9.40322
3.46,22471.2,-6121.74,9565.8,-9.25729,131.38,347.725,3721.55,3562.97,9399.78,42.1691,-42.2466,27.7268,-2196.92,22392.6,-4900.58,142.489,253.413,293.832,-7.67679,-12056.9,-2587.07,3.33527,-34.4923,76.6911,328.12,10656.8,102.673,-29.7857,14.2884,33.0897,391.203,-11614.7,-811.691,-1.43449,-41.9544,85.9106,8123.38,1629.06,898.511,31.2616,-13.4809,-9.39309
3.4605,22648.5,-6391.79,9539.04,-9.13425,130.611,347.071,3742.71,3442.83,9401.42,42.0023,-42.6873,27.521,-2273.68,22346.5,-5081.9,142.943,255.812,292.539,46.6985,-12091.5,-2520.38,3.72571,-34.1136,76.8972,454.919,10758.3,83.3234,-30.3057,15.5747,32.786,412.204,-11604.2,-794.589,-1.59311,-42.0999,85.8086,8159.1,1660.62,881.178,31.2462,-13.6197,-9.38296
3.461,22825.9,-6661.83,9512.29,-9.01122,129.843,346.416,3763.88,3322.7,9403.06,41.8354,-43.1279,27.3152,-2350.44,22300.5,-5263.21,143.397,258.212,291.245,101.074,-12126.1,-2453.7,4.11614,-33.735,77.1033,581.717,10859.9,63.9733,-30.8257,16.861,32.4822,433.205,-11593.7,-777.487,-1.75174,-42.2454,85.7066,8194.83,1692.17,863.845,31.2308,-13.7585,-9.37282
3.4615,23003.2,-6931.88,9485.53,-8.88819,129.074,345.761,3785.05,3202.57,9404.7,41.6685,-43.5686,27.1094,-2427.2,22254.4,-5444.52,143.852,260.611,289.952,155.449,-12160.6,-2387.02,4.50658,-33.3563,77.3095,708.516,10961.4,44.6233,-31.3457,18.1473,32.1784,454.206,-11583.2,-760.384,-1.91036,-42.3908,85.6046,8230.56,1723.72,846.513,31.2154,-13.8972,-9.36269
3.462,23180.5,-7201.93,9458.77,-8.76515,128.305,345.107,3806.22,3082.43,9406.34,41.5017,-44.0092,26.9036,-2503.96,22208.4,-5625.84,144.306,263.01,288.658,209.824,-12195.2,-2320.34,4.89701,-32.9776,77.5156,835.315,11062.9,25.2732,-31.8657,19.4336,31.8746,475.207,-11572.7,-743.282,-2.06899,-42.5363,85.5026,8266.28,1755.27,829.18,31.2,-14.036,-9.35256
3.4625,23347.0,-7321.99,9405.74,-8.1122,127.708,344.544,3815.55,3091.17,9401.88,41.2414,-44.5156,26.7701,-2609.76,22211.0,-5764.53,144.592,265.267,287.249,247.913,-12195.0,-2263.4,5.19751,-32.6413,77.7455,973.741,11185.7,33.7733,-32.6008,20.785,31.7724,492.443,-11560.2,-734.329,-2.26194,-42.6876,85.4596,8286.28,1787.6,816.069,31.1368,-14.1539,-9.29858
3.463,23504.8,-7322.06,9331.68,-7.03532,127.247,344.055,3815.42,3203.0,9392.55,40.9063,-45.0745,26.6942,-2738.79,22252.5,-5869.13,144.743,267.409,285.748,272.973,-12167.0,-2214.27,5.42606,-32.3387,77.9944,1121.47,11325.4,64.5536,-33.508,22.1886,31.8314,506.666,-11546.0,-731.895,-2.48237,-42.8435,85.464,8293.69,1820.55,806.335,31.0352,-14.2551,-9.20953
3.4635,23662.5,-7322.13,9257.62,-5.95843,126.786,343.565,3815.29,3314.84,9383.21,40.5712,-45.6333,26.6184,-2867.81,22294.1,-5973.73,144.894,269.552,284.247,298.032,-12139.0,-2165.14,5.65462,-32.0362,78.2433,1269.2,11465.2,95.3339,-34.4151,23.5921,31.8904,520.889,-11531.9,-729.461,-2.70279,-42.9994,85.4684,8301.1,1853.51,796.602,30.9336,-14.3563,-9.12048
3.464,23820.3,-7322.2,9183.56,-4.88155,126.325,343.076,3815.16,3426.67,9373.87,40.2361,-46.1922,26.5426,-2996.84,22335.6,-6078.34,145.046,271.694,282.745,323.092,-12111.0,-2116.01,5.88317,-31.7336,78.4921,1416.93,11604.9,126.114,-35.3222,24.9957,31.9495,535.112,-11517.7,-727.027,-2.92321,-43.1553,85.4728,8308.51,1886.46,786.868,30.832,-14.4575,-9.03142
3.4645,23978.1,-7322.27,9109.5,-3.80466,125.864,342.586,3815.03,3538.51,9364.54,39.901,-46.7511,26.4668,-3125.87,22377.2,-6182.94,145.197,273.836,281.244,348.152,-12083.0,-2066.88,6.11173,-31.4311,78.741,1564.66,11744.7,156.894,-36.2294,26.3992,32.0085,549.335,-11503.5,-724.593,-3.14363,-43.3111,85.4771,8315.93,1919.41,777.134,30.7305,-14.5587,-8.94237
3.465,24135.9,-7322.34,9035.45,-2.72778,125.403,342.097,3814.89,3650.34,9355.2,39.5659,-47.31,26.3909,-3254.89,22418.7,-6287.54,145.348,275.979,279.743,373.211,-12054.9,-2017.75,6.34028,-31.1285,78.9899,1712.39,11884.4,187.675,-37.1365,27.8028,32.0675,563.558,-11489.3,-722.159,-3.36405,-43.467,85.4815,8323.34,1952.36,767.401,30.6289,-14.6599,-8.85332
3.4655,24293.6,-7322.42,8961.39,-1.6509,124.942,341.607,3814.76,3762.17,9345.86,39.2308,-47.8689,26.3151,-3383.92,22460.2,-6392.14,145.5,278.121,278.242,398.271,-12026.9,-1968.62,6.56884,-30.826,79.2388,1860.12,12024.2,218.455,-38.0437,29.2064,32.1265,577.781,-11475.2,-719.725,-3.58448,-43.6229,85.4859,8330.75,1985.32,757.667,30.5273,-14.7611,-8.76427
3.466,24451.4,-7322.49,8887.33,-0.574011,124.482,341.118,3814.63,3874.01,9336.53,38.8957,-48.4277,26.2393,-3512.95,22501.8,-6496.74,145.651,280.263,276.741,423.331,-11998.9,-1919.48,6.79739,-30.5235,79.4877,2007.85,12164.0,249.235,-38.9508,30.6099,32.1856,592.004,-11461.0,-717.291,-3.8049,-43.7788,85.4902,8338.16,2018.27,747.933,30.4257,-14.8623,-8.67521
3.4665,24609.2,-7322.56,8813.27,0.502874,124.021,340.628,3814.5,3985.84,9327.19,38.5606,-48.9866,26.1635,-3641.97,22543.3,-6601.34,145.802,282.406,275.239,448.39,-11970.9,-1870.35,7.02595,-30.2209,79.7366,2155.57,12303.7,280.016,-39.858,32.0135,32.2446,606.227,-11446.8,-714.857,-4.02532,-43.9347,85.4946,8345.57,2051.22,738.2,30.3241,-14.9635,-8.58616
3.467,24787.9,-7188.77,8721.39,1.97337,123.722,340.466,3787.77,4076.16,9344.12,38.4582,-49.6139,26.3219,-3799.73,22571.2,-6617.37,145.68,283.94,273.503,453.736,-11951.6,-1826.69,7.26564,-29.9247,80.0735,2348.2,12447.6,337.229,-41.2919,33.6305,32.5771,630.067,-11433.1,-694.241,-4.10426,-44.0115,85.4401,8369.16,2072.41,742.38,30.2627,-15.1,-8.50016
3.4675,24977.1,-6988.04,8620.6,3.64068,123.504,340.466,3747.74,4155.73,9374.19,38.4721,-50.2754,26.5974,-3971.85,22592.2,-6589.12,145.422,285.171,271.648,449.224,-11936.8,-1785.76,7.5109,-29.6317,80.4545,2563.28,12593.6,407.66,-42.9893,35.3542,33.0464,658.715,-11419.5,-664.534,-4.11246,-44.0487,85.3562,8400.83,2087.72,753.518,30.2214,-15.2542,-8.41569
3.468,25166.3,-6787.32,8519.81,5.30798,123.286,340.467,3707.72,4235.3,9404.26,38.4861,-50.9369,26.8729,-4143.97,22613.2,-6560.86,145.163,286.403,269.794,444.713,-11921.9,-1744.83,7.75617,-29.3386,80.8354,2778.35,12739.6,478.09,-44.6867,37.078,33.5156,687.363,-11405.9,-634.826,-4.12067,-44.086,85.2722,8432.49,2103.03,764.656,30.1801,-15.4084,-8.33122
3.4685,25355.5,-6586.6,8419.02,6.97528,123.069,340.468,3667.69,4314.87,9434.33,38.5,-51.5984,27.1484,-4316.1,22634.3,-6532.6,144.904,287.634,267.939,440.201,-11907.0,-1703.9,8.00143,-29.0456,81.2164,2993.43,12885.5,548.52,-46.3841,38.8017,33.9849,716.012,-11392.3,-605.119,-4.12887,-44.1232,85.1883,8464.16,2118.34,775.793,30.1388,-15.5626,-8.24675
3.469,25544.7,-6385.88,8318.24,8.64259,122.851,340.468,3627.67,4394.44,9464.4,38.5139,-52.2598,27.424,-4488.22,22655.3,-6504.34,144.645,288.865,266.085,435.69,-11892.1,-1662.97,8.24669,-28.7525,81.5974,3208.5,13031.5,618.951,-48.0815,40.5255,34.4542,744.66,-11378.7,-575.412,-4.13707,-44.1605,85.1043,8495.83,2133.65,786.931,30.0975,-15.7168,-8.16228
3.4695,25733.9,-6185.16,8217.45,10.3099,122.633,340.469,3587.64,4474.0,9494.47,38.5278,-52.9213,27.6995,-4660.34,22676.3,-6476.09,144.387,290.096,264.23,431.178,-11877.2,-1622.04,8.49196,-28.4595,81.9783,3423.58,13177.5,689.381,-49.7789,42.2492,34.9234,773.308,-11365.2,-545.704,-4.14527,-44.1977,85.0204,8527.5,2148.96,798.069,30.0562,-15.871,-8.07781
3.47,25923.1,-5984.43,8116.66,11.9772,122.416,340.469,3547.62,4553.57,9524.54,38.5418,-53.5828,27.975,-4832.46,22697.3,-6447.83,144.128,291.327,262.376,426.666,-11862.3,-1581.11,8.73722,-28.1665,82.3593,3638.65,13323.4,759.812,-51.4763,43.973,35.3927,801.957,-11351.6,-515.997,-4.15348,-44.2349,84.9365,8559.17,2164.26,809.206,30.0149,-16.0252,-7.99334
3.4705,26112.3,-5783.71,8015.87,13.6445,122.198,340.47,3507.59,4633.14,9554.6,38.5557,-54.2443,28.2506,-5004.58,22718.4,-6419.57,143.869,292.558,260.522,422.155,-11847.4,-1540.17,8.98248,-27.8734,82.7402,3853.73,13469.4,830.242,-53.1737,45.6967,35.862,830.605,-11338.0,-486.29,-4.16168,-44.2722,84.8525,8590.83,2179.57,820.344,29.9736,-16.1794,-7.90887
3.471,26301.5,-5582.99,7915.08,15.3118,121.98,340.471,3467.57,4712.71,9584.67,38.5696,-54.9058,28.5261,-5176.7,22739.4,-6391.32,143.61,293.789,258.667,417.643,-11832.6,-1499.24,9.22775,-27.5804,83.1212,4068.81,13615.4,900.672,-54.8711,47.4205,36.3312,859.253,-11324.4,-456.582,-4.16988,-44.3094,84.7686,8622.5,2194.88,831.482,29.9323,-16.3336,-7.8244
3.4715,26524.7,-5409.18,7789.72,17.1617,121.714,340.454,3456.13,4661.74,9598.35,38.5892,-55.5897,28.6594,-5370.16,22768.4,-6378.76,143.138,294.379,256.678,406.086,-11840.7,-1447.45,9.55487,-27.1763,83.4817,4327.69,13712.1,1019.4,-56.9543,49.6015,37.1843,888.98,-11309.2,-418.476,-4.2054,-44.3451,84.6695,8658.57,2197.91,822.592,29.9111,-16.3923,-7.57126
3.472,26757.7,-5243.06,7657.34,19.0638,121.434,340.432,3452.87,4573.46,9607.35,38.6105,-56.28,28.752,-5569.72,22799.8,-6370.68,142.604,294.785,254.65,392.516,-11855.4,-1392.54,9.90539,-26.7405,83.8364,4599.09,13794.7,1151.92,-59.1477,51.9132,38.1471,919.013,-11293.4,-377.969,-4.24872,-44.3804,84.5662,8695.9,2197.43,807.981,29.8957,-16.4236,-7.26993
3.4725,26990.6,-5076.94,7524.96,20.9659,121.155,340.41,3449.61,4485.19,9616.34,38.6318,-56.9703,28.8446,-5769.27,22831.2,-6362.61,142.07,295.192,252.622,378.945,-11870.1,-1337.64,10.2559,-26.3046,84.191,4870.49,13877.3,1284.44,-61.3411,54.225,39.1099,949.047,-11277.7,-337.463,-4.29204,-44.4156,84.4628,8733.22,2196.96,793.37,29.8802,-16.4549,-6.96861
3.473,27223.5,-4910.82,7392.58,22.868,120.875,340.388,3446.34,4396.92,9625.34,38.653,-57.6606,28.9372,-5968.83,22862.5,-6354.53,141.536,295.598,250.593,365.375,-11884.8,-1282.73,10.6064,-25.8688,84.5457,5141.9,13960.0,1416.97,-63.5346,56.5367,40.0726,979.081,-11262.0,-296.956,-4.33536,-44.4508,84.3595,8770.55,2196.48,778.758,29.8648,-16.4863,-6.66728
3.4735,27456.5,-4744.7,7260.2,24.7701,120.595,340.366,3443.08,4308.65,9634.33,38.6743,-58.3509,29.0299,-6168.38,22893.9,-6346.46,141.003,296.005,248.565,351.804,-11899.5,-1227.83,10.9569,-25.433,84.9003,5413.3,14042.6,1549.49,-65.728,58.8484,41.0354,1009.12,-11246.3,-256.45,-4.37868,-44.4861,84.2561,8807.87,2196.0,764.147,29.8493,-16.5176,-6.36595
3.474,27689.4,-4578.58,7127.82,26.6722,120.315,340.344,3439.82,4220.38,9643.33,38.6956,-59.0413,29.1225,-6367.94,22925.2,-6338.38,140.469,296.411,246.537,338.234,-11914.2,-1172.93,11.3074,-24.9972,85.255,5684.7,14125.2,1682.01,-67.9214,61.1601,41.9981,1039.15,-11230.5,-215.944,-4.422,-44.5213,84.1527,8845.2,2195.52,749.536,29.8339,-16.5489,-6.06463
3.4745,27922.3,-4412.46,6995.44,28.5743,120.036,340.322,3436.55,4132.11,9652.32,38.7168,-59.7316,29.2151,-6567.49,22956.6,-6330.31,139.935,296.818,244.509,324.664,-11928.9,-1118.02,11.658,-24.5614,85.6096,5956.1,14207.9,1814.54,-70.1149,63.4718,42.9609,1069.18,-11214.8,-175.437,-4.46532,-44.5566,84.0494,8882.52,2195.04,734.924,29.8184,-16.5803,-5.7633
3.475,28155.3,-4246.35,6863.05,30.4764,119.756,340.3,3433.29,4043.84,9661.32,38.7381,-60.4219,29.3078,-6767.05,22987.9,-6322.24,139.401,297.224,242.481,311.093,-11943.7,-1063.12,12.0085,-24.1256,85.9643,6227.5,14290.5,1947.06,-72.3083,65.7836,43.9237,1099.22,-11199.1,-134.931,-4.50864,-44.5918,83.946,8919.85,2194.56,720.313,29.803,-16.6116,-5.46198
3.4755,28388.2,-4080.23,6730.67,32.3784,119.476,340.278,3430.02,3955.57,9670.31,38.7594,-61.1122,29.4004,-6966.6,23019.3,-6314.16,138.867,297.63,240.453,297.523,-11958.4,-1008.21,12.359,-23.6897,86.3189,6498.91,14373.1,2079.58,-74.5017,68.0953,44.8864,1129.25,-11183.3,-94.4243,-4.55196,-44.6271,83.8426,8957.17,2194.09,705.702,29.7875,-16.6429,-5.16065
3.476,28558.7,-3987.08,6566.81,34.6107,118.995,339.812,3456.41,3880.33,9673.45,38.4407,-61.832,29.1242,-7178.67,23074.1,-6329.67,137.957,297.267,238.582,299.484,-11978.7,-965.708,12.692,-23.3881,86.661,6798.57,14380.7,2210.68,-75.9637,71.0161,46.1643,1188.83,-11155.1,-89.1897,-4.68225,-44.5809,83.7979,8987.48,2191.22,696.766,29.7215,-16.4919,-4.953
3.4765,28721.5,-3903.06,6399.01,36.8842,118.489,339.291,3486.5,3806.72,9675.86,38.0796,-62.5555,28.8018,-7392.29,23131.8,-6348.13,137.0,296.808,236.731,303.387,-11999.7,-924.751,13.0229,-23.1032,87.0015,7101.77,14378.8,2341.6,-77.3342,74.013,47.4816,1252.11,-11125.2,-88.364,-4.82341,-44.5246,83.7605,9016.91,2188.06,688.541,29.6493,-16.3181,-4.75707
3.477,28884.2,-3819.04,6231.21,39.1577,117.982,338.769,3516.59,3733.11,9678.27,37.7184,-63.2789,28.4795,-7605.92,23189.6,-6366.59,136.043,296.349,234.88,307.29,-12020.7,-883.794,13.3538,-22.8183,87.342,7404.98,14376.9,2472.52,-78.7048,77.01,48.7988,1315.38,-11095.4,-87.5383,-4.96458,-44.4683,83.7231,9046.33,2184.9,680.315,29.577,-16.1443,-4.56114
3.4775,29046.9,-3735.02,6063.41,41.4312,117.476,338.248,3546.68,3659.49,9680.68,37.3573,-64.0024,28.1572,-7819.55,23247.3,-6385.05,135.086,295.89,233.029,311.192,-12041.7,-842.837,13.6846,-22.5335,87.6824,7708.18,14375.1,2603.44,-80.0753,80.0069,50.1161,1378.66,-11065.5,-86.7127,-5.10574,-44.412,83.6856,9075.76,2181.74,672.089,29.5047,-15.9705,-4.3652
3.478,29209.7,-3650.99,5895.61,43.7047,116.969,337.726,3576.77,3585.88,9683.08,36.9961,-64.7259,27.8349,-8033.18,23305.0,-6403.51,134.129,295.43,231.178,315.095,-12062.8,-801.88,14.0155,-22.2486,88.0229,8011.38,14373.2,2734.36,-81.4458,83.0039,51.4334,1441.93,-11035.7,-85.887,-5.2469,-44.3557,83.6482,9105.19,2178.58,663.864,29.4325,-15.7966,-4.16927
3.4785,29372.4,-3566.97,5727.81,45.9782,116.463,337.205,3606.86,3512.27,9685.49,36.635,-65.4494,27.5125,-8246.81,23362.8,-6421.97,133.172,294.971,229.327,318.997,-12083.8,-760.922,14.3464,-21.9637,88.3634,8314.58,14371.4,2865.28,-82.8164,86.0008,52.7506,1505.21,-11005.8,-85.0613,-5.38806,-44.2994,83.6108,9134.62,2175.42,655.638,29.3602,-15.6228,-3.97333
3.479,29535.1,-3482.95,5560.0,48.2517,115.957,336.683,3636.95,3438.66,9687.9,36.2738,-66.1728,27.1902,-8460.44,23420.5,-6440.43,132.215,294.512,227.476,322.9,-12104.8,-719.965,14.6772,-21.6788,88.7039,8617.78,14369.5,2996.2,-84.1869,88.9977,54.0679,1568.48,-10976.0,-84.2356,-5.52922,-44.2431,83.5734,9164.04,2172.26,647.413,29.2879,-15.449,-3.7774
3.4795,29697.9,-3398.93,5392.2,50.5252,115.45,336.162,3667.04,3365.05,9690.31,35.9127,-66.8963,26.8679,-8674.07,23478.2,-6458.88,131.257,294.053,225.625,326.803,-12125.8,-679.008,15.0081,-21.394,89.0444,8920.98,14367.7,3127.12,-85.5574,91.9947,55.3852,1631.76,-10946.1,-83.4099,-5.67038,-44.1868,83.536,9193.47,2169.1,639.187,29.2157,-15.2752,-3.58147
3.48,29860.6,-3314.91,5224.4,52.7987,114.944,335.64,3697.13,3291.44,9692.72,35.5515,-67.6198,26.5456,-8887.7,23536.0,-6477.34,130.3,293.593,223.774,330.705,-12146.8,-638.051,15.339,-21.1091,89.3848,9224.18,14365.8,3258.04,-86.9279,94.9916,56.7025,1695.03,-10916.3,-82.5843,-5.81154,-44.1305,83.4986,9222.9,2165.94,630.961,29.1434,-15.1014,-3.38553
3.4805,29859.5,-3220.25,4961.18,55.0472,114.523,334.454,3704.36,3377.56,9691.59,34.9906,-68.3905,26.3893,-9154.03,23542.0,-6513.44,129.293,292.28,222.143,351.946,-12149.5,-633.36,15.5438,-21.0683,89.7428,9556.78,14237.7,3183.32,-85.768,99.0955,57.7814,1725.0,-10912.3,-74.8739,-5.87122,-43.8835,83.4822,9252.79,2179.15,659.9,28.5158,-15.1831,-3.0538
3.481,29858.3,-3125.6,4697.96,57.2956,114.102,333.268,3711.59,3463.68,9690.47,34.4296,-69.1613,26.233,-9420.36,23548.1,-6549.54,128.285,290.966,220.511,373.186,-12152.1,-628.669,15.7486,-21.0276,90.1007,9889.39,14109.7,3108.6,-84.6079,103.199,58.8603,1754.96,-10908.3,-67.1636,-5.93091,-43.6365,83.4659,9282.68,2192.36,688.839,27.8883,-15.2648,-2.72207
3.4815,29857.2,-3030.94,4434.74,59.5441,113.681,332.082,3718.82,3549.8,9689.35,33.8687,-69.932,26.0767,-9686.69,23554.1,-6585.64,127.277,289.653,218.88,394.426,-12154.7,-623.979,15.9535,-20.9868,90.4586,10222.0,13981.6,3033.88,-83.448,107.303,59.9392,1784.93,-10904.3,-59.4532,-5.99059,-43.3895,83.4495,9312.57,2205.57,717.778,27.2607,-15.3465,-2.39034
3.482,29856.0,-2936.29,4171.52,61.7926,113.26,330.895,3726.06,3635.92,9688.22,33.3078,-70.7028,25.9204,-9953.02,23560.2,-6621.74,126.27,288.339,217.249,415.667,-12157.4,-619.288,16.1583,-20.9461,90.8166,10554.6,13853.5,2959.16,-82.288,111.407,61.0181,1814.9,-10900.3,-51.7429,-6.05027,-43.1425,83.4332,9342.46,2218.78,746.717,26.6331,-15.4282,-2.05861
3.4825,29854.9,-2841.63,3908.3,64.0411,112.84,329.709,3733.29,3722.04,9687.1,32.7468,-71.4735,25.7641,-10219.4,23566.2,-6657.84,125.262,287.026,215.617,436.907,-12160.0,-614.597,16.3631,-20.9053,91.1745,10887.2,13725.5,2884.45,-81.128,115.511,62.097,1844.87,-10896.3,-44.0326,-6.10995,-42.8955,83.4169,9372.35,2231.99,775.656,26.0056,-15.5099,-1.72688
3.483,29853.7,-2746.98,3645.08,66.2896,112.419,328.523,3740.52,3808.16,9685.98,32.1859,-72.2443,25.6078,-10485.7,23572.3,-6693.94,124.254,285.712,213.986,458.147,-12162.6,-609.906,16.5679,-20.8645,91.5324,11219.8,13597.4,2809.73,-79.968,119.615,63.176,1874.83,-10892.3,-36.3222,-6.16963,-42.6485,83.4005,9402.24,2245.21,804.594,25.378,-15.5916,-1.39515
3.4835,29852.6,-2652.32,3381.86,68.5381,111.998,327.337,3747.75,3894.28,9684.85,31.6249,-73.0151,25.4515,-10752.0,23578.3,-6730.05,123.247,284.399,212.354,479.387,-12165.3,-605.215,16.7728,-20.8238,91.8904,11552.4,13469.3,2735.01,-78.808,123.719,64.2549,1904.8,-10888.3,-28.6119,-6.22931,-42.4015,83.3842,9432.13,2258.42,833.533,24.7504,-15.6733,-1.06342
3.484,29851.4,-2557.67,3118.64,70.7866,111.577,326.151,3754.98,3980.4,9683.73,31.064,-73.7858,25.2952,-11018.3,23584.4,-6766.15,122.239,283.085,210.723,500.628,-12167.9,-600.524,16.9776,-20.783,92.2483,11885.0,13341.2,2660.29,-77.648,127.823,65.3338,1934.77,-10884.3,-20.9015,-6.28899,-42.1545,83.3679,9462.02,2271.63,862.472,24.1229,-15.7549,-0.731694
3.4845,29822.1,-2454.19,2891.45,72.7377,111.047,324.852,3756.78,4065.76,9683.68,30.5258,-74.5731,25.1713,-11299.0,23581.8,-6803.57,121.303,281.709,209.162,521.477,-12169.6,-598.911,17.1814,-20.7325,92.619,12228.7,13202.2,2570.29,-76.025,132.049,66.3258,1964.64,-10881.0,-14.8209,-6.3547,-41.8845,83.3516,9490.47,2281.53,896.737,23.4239,-15.8391,-0.395355
3.485,29567.6,-2280.14,2952.57,72.3102,109.649,322.656,3715.14,4145.08,9692.22,30.1699,-75.4924,25.3068,-11694.5,23510.0,-6851.6,120.937,279.826,208.169,539.197,-12163.5,-621.92,17.377,-20.6038,93.0921,12661.5,12975.1,2358.09,-70.6983,137.259,66.6226,1993.71,-10882.9,-21.7777,-6.46866,-41.4311,83.3358,9507.4,2264.96,973.606,22.1541,-15.9429,-0.0221504
3.4855,29313.0,-2106.08,3013.68,71.8828,108.251,320.46,3673.51,4224.4,9700.76,29.8141,-76.4117,25.4423,-12089.9,23438.3,-6899.64,120.571,277.944,207.176,556.917,-12157.4,-644.928,17.5727,-20.4752,93.5652,13094.3,12748.1,2145.89,-65.3716,142.468,66.9194,2022.78,-10884.8,-28.7345,-6.58262,-40.9776,83.3199,9524.33,2248.39,1050.48,20.8843,-16.0467,0.351055
3.486,29058.4,-1932.03,3074.8,71.4553,106.853,318.263,3631.88,4303.73,9709.3,29.4582,-77.331,25.5778,-12485.4,23366.5,-6947.67,120.206,276.062,206.182,574.637,-12151.3,-667.937,17.7683,-20.3465,94.0382,13527.1,12521.1,1933.69,-60.0449,147.678,67.2162,2051.86,-10886.7,-35.6913,-6.69658,-40.5242,83.3041,9541.26,2231.82,1127.35,19.6145,-16.1505,0.72426
3.4865,28803.8,-1757.98,3135.91,71.0278,105.454,316.067,3590.25,4383.05,9717.83,29.1023,-78.2503,25.7133,-12880.9,23294.7,-6995.7,119.84,274.179,205.189,592.357,-12145.2,-690.945,17.9639,-20.2179,94.5113,13959.9,12294.0,1721.49,-54.7182,152.887,67.513,2080.93,-10888.6,-42.6481,-6.81054,-40.0708,83.2883,9558.19,2215.25,1204.22,18.3447,-16.2542,1.09747
3.487,28549.3,-1583.92,3197.02,70.6003,104.056,313.871,3548.61,4462.37,9726.37,28.7465,-79.1696,25.8488,-13276.3,23222.9,-7043.73,119.474,272.297,204.196,610.077,-12139.2,-713.954,18.1595,-20.0892,94.9844,14392.7,12067.0,1509.29,-49.3915,158.097,67.8098,2110.0,-10890.5,-49.6049,-6.9245,-39.6174,83.2725,9575.12,2198.68,1281.08,17.0749,-16.358,1.47067
3.4875,28294.7,-1409.87,3258.14,70.1728,102.658,311.674,3506.98,4541.69,9734.91,28.3906,-80.0889,25.9843,-13671.8,23151.2,-7091.76,119.108,270.415,203.202,627.797,-12133.1,-736.963,18.3551,-19.9605,95.4574,14825.5,11840.0,1297.09,-44.0648,163.306,68.1067,2139.08,-10892.4,-56.5617,-7.03846,-39.1639,83.2567,9592.05,2182.11,1357.95,15.8051,-16.4618,1.84388
3.488,28040.1,-1235.82,3319.25,69.7454,101.26,309.478,3465.35,4621.02,9743.45,28.0347,-81.0082,26.1198,-14067.3,23079.4,-7139.79,118.743,268.532,202.209,645.517,-12127.0,-759.971,18.5507,-19.8319,95.9305,15258.2,11612.9,1084.89,-38.7381,168.515,68.4035,2168.15,-10894.3,-63.5185,-7.15242,-38.7105,83.2408,9608.98,2165.54,1434.82,14.5353,-16.5656,2.21708
3.4885,27785.6,-1061.76,3380.37,69.3179,99.8614,307.282,3423.72,4700.34,9751.99,27.6789,-81.9275,26.2553,-14462.7,23007.6,-7187.83,118.377,266.65,201.216,663.237,-12120.9,-782.98,18.7463,-19.7032,96.4036,15691.0,11385.9,872.695,-33.4114,173.725,68.7003,2197.22,-10896.2,-70.4754,-7.26638,-38.257,83.225,9625.91,2148.97,1511.69,13.2655,-16.6694,2.59029
3.489,27466.3,-798.791,3490.97,67.3784,97.9659,304.688,3395.64,4751.65,9758.08,27.3154,-82.8167,26.3567,-14905.8,22927.4,-7234.67,118.153,264.235,200.379,681.352,-12118.0,-805.666,18.9152,-19.5165,96.88,16130.6,11154.2,681.966,-27.6425,178.704,68.6962,2229.9,-10897.5,-76.3247,-7.37533,-37.7865,83.2014,9647.15,2125.77,1595.7,11.9537,-16.8597,3.01006
3.4895,26920.8,-224.602,3774.8,60.147,94.3303,300.704,3415.03,4704.95,9755.62,26.9253,-83.6006,26.339,-15515.4,22817.9,-7277.37,118.422,259.958,200.092,700.85,-12126.3,-827.223,18.9904,-19.1264,97.3684,16594.0,10906.1,566.38,-20.3257,182.878,67.639,2275.19,-10896.9,-78.2981,-7.46671,-37.2562,83.1502,9683.5,2079.37,1704.68,10.495,-17.3531,3.59283
3.49,26375.3,349.587,4058.63,52.9156,90.6947,296.719,3434.42,4658.24,9753.15,26.5352,-84.3844,26.3214,-16125.0,22708.3,-7320.06,118.692,255.68,199.804,720.347,-12134.6,-848.78,19.0657,-18.7363,97.8567,17057.3,10658.1,450.795,-13.009,187.052,66.5817,2320.48,-10896.3,-80.2714,-7.55808,-36.7258,83.099,9719.85,2032.96,1813.65,9.03627,-17.8464,4.17559
3.4905,25829.8,923.776,4342.46,45.6842,87.0592,292.734,3453.81,4611.53,9750.68,26.1451,-85.1682,26.3037,-16734.7,22598.7,-7362.76,118.962,251.402,199.517,739.845,-12142.8,-870.337,19.1409,-18.3462,98.345,17520.7,10410.1,335.21,-5.69227,191.226,65.5245,2365.76,-10895.6,-82.2447,-7.64946,-36.1954,83.0479,9756.2,1986.55,1922.63,7.57757,-18.3398,4.75836
3.491,25284.3,1497.96,4626.29,38.4527,83.4236,288.749,3473.2,4564.83,9748.22,25.755,-85.952,26.286,-17344.3,22489.1,-7405.46,119.232,247.124,199.23,759.342,-12151.1,-891.894,19.2161,-17.9561,98.8334,17984.0,10162.1,219.624,1.62446,195.399,64.4673,2411.05,-10895.0,-84.2181,-7.74084,-35.6651,82.9967,9792.55,1940.14,2031.61,6.11887,-18.8331,5.34112
3.4915,24738.8,2072.15,4910.12,31.2213,79.788,284.765,3492.59,4518.12,9745.75,25.3649,-86.7359,26.2683,-17953.9,22379.6,-7448.15,119.502,242.846,198.942,778.84,-12159.3,-913.451,19.2914,-17.566,99.3217,18447.4,9914.04,104.039,8.9412,199.573,63.4101,2456.34,-10894.3,-86.1914,-7.83222,-35.1347,82.9455,9828.9,1893.73,2140.58,4.66017,-19.3264,5.92389
3.492,24193.3,2646.34,5193.94,23.9899,76.1524,280.78,3511.98,4471.41,9743.29,24.9748,-87.5197,26.2506,-18563.6,22270.0,-7490.85,119.772,238.569,198.655,798.337,-12167.6,-935.008,19.3666,-17.1759,99.81,18910.8,9666.01,-11.5466,16.2579,203.747,62.3529,2501.63,-10893.7,-88.1648,-7.9236,-34.6043,82.8944,9865.24,1847.32,2249.56,3.20147,-19.8198,6.50665
3.4925,23647.7,3220.53,5477.77,16.7585,72.5168,276.795,3531.37,4424.7,9740.82,24.5847,-88.3035,26.233,-19173.2,22160.4,-7533.55,120.042,234.291,198.367,817.835,-12175.8,-956.565,19.4418,-16.7858,100.298,19374.1,9417.98,-127.132,23.5747,207.921,61.2956,2546.92,-10893.1,-90.1381,-8.01498,-34.074,82.8432,9901.59,1800.91,2358.54,1.74276,-20.3131,7.08942
3.493,23102.2,3794.72,5761.6,9.52706,68.8812,272.81,3550.76,4378.0,9738.35,24.1946,-89.0874,26.2153,-19782.8,22050.8,-7576.24,120.312,230.013,198.08,837.333,-12184.1,-978.122,19.5171,-16.3957,100.787,19837.5,9169.95,-242.717,30.8914,212.095,60.2384,2592.21,-10892.4,-92.1114,-8.10636,-33.5436,82.792,9937.94,1754.5,2467.51,0.284063,-20.8065,7.67218
3.4935,22648.9,4560.96,5727.79,1.92132,65.9953,268.646,3576.36,4324.17,9748.19,23.8414,-89.9189,26.1638,-20317.3,21970.4,-7485.23,119.681,224.607,197.928,857.5,-12192.8,-995.393,19.5122,-15.9231,101.293,20303.1,8958.46,-323.141,37.6356,215.258,58.6866,2635.94,-10894.0,-102.893,-8.21184,-32.9874,82.7631,9977.18,1720.91,2554.11,-0.82813,-21.2635,8.07635
3.494,22380.1,5711.31,5058.68,-6.43308,64.6089,264.122,3614.39,4256.1,9782.62,23.562,-90.8458,26.0447,-20701.4,21948.3,-7126.82,117.249,216.943,198.046,879.005,-12202.5,-1004.09,19.347,-15.2855,101.834,20773.4,8820.05,-333.24,43.2349,216.399,56.1456,2676.54,-10900.0,-131.293,-8.34553,-32.3796,82.7788,10022.2,1712.94,2595.95,-1.24731,-21.6479,8.12333
3.4945,22111.2,6861.66,4389.57,-14.7875,63.2224,259.599,3652.41,4188.03,9817.06,23.2826,-91.7728,25.9257,-21085.5,21926.1,-6768.4,114.816,209.279,198.164,900.511,-12212.2,-1012.79,19.1818,-14.6478,102.375,21243.6,8681.63,-343.338,48.8341,217.54,53.6046,2717.14,-10906.0,-159.692,-8.47922,-31.7718,82.7945,10067.2,1704.97,2637.79,-1.66648,-22.0323,8.17031
3.495,21842.3,8012.01,3720.46,-23.1419,61.8359,255.075,3690.44,4119.96,9851.49,23.0033,-92.6997,25.8066,-21469.6,21904.0,-6409.98,112.384,201.615,198.282,922.017,-12221.8,-1021.49,19.0166,-14.0102,102.916,21713.9,8543.22,-353.437,54.4334,218.681,51.0636,2757.74,-10912.0,-188.091,-8.61291,-31.164,82.8101,10112.2,1697.0,2679.63,-2.08566,-22.4167,8.21728
3.4955,21573.5,9162.35,3051.35,-31.4963,60.4495,250.552,3728.46,4051.89,9885.93,22.7239,-93.6266,25.6875,-21853.7,21881.9,-6051.56,109.952,193.951,198.399,943.523,-12231.5,-1030.19,18.8514,-13.3725,103.457,22184.1,8404.8,-363.536,60.0326,219.822,48.5226,2798.35,-10918.0,-216.49,-8.7466,-30.5562,82.8258,10157.2,1689.03,2721.46,-2.50483,-22.8012,8.26426
3.496,21304.6,10312.7,2382.24,-39.8507,59.063,246.028,3766.49,3983.82,9920.37,22.4445,-94.5536,25.5684,-22237.8,21859.7,-5693.14,107.52,186.287,198.517,965.028,-12241.2,-1038.89,18.6863,-12.7349,103.999,22654.4,8266.39,-373.635,65.6319,220.963,45.9816,2838.95,-10924.0,-244.889,-8.8803,-29.9483,82.8415,10202.3,1681.06,2763.3,-2.92401,-23.1856,8.31124
3.4965,21035.8,11463.0,1713.13,-48.2051,57.6766,241.505,3804.51,3915.75,9954.8,22.1652,-95.4805,25.4493,-22621.9,21837.6,-5334.73,105.088,178.624,198.635,986.534,-12250.8,-1047.59,18.5211,-12.0972,104.54,23124.6,8127.97,-383.734,71.2311,222.104,43.4406,2879.55,-10930.0,-273.288,-9.01399,-29.3405,82.8572,10247.3,1673.08,2805.14,-3.34318,-23.57,8.35822
3.497,20766.9,12613.4,1044.02,-56.5595,56.2901,236.981,3842.54,3847.68,9989.24,21.8858,-96.4074,25.3303,-23006.0,21815.4,-4976.31,102.656,170.96,198.753,1008.04,-12260.5,-1056.29,18.3559,-11.4596,105.081,23594.9,7989.56,-393.833,76.8304,223.245,40.8996,2920.16,-10936.0,-301.688,-9.14768,-28.7327,82.8728,10292.3,1665.11,2846.98,-3.76236,-23.9544,8.40519
3.4975,20498.0,13763.7,374.914,-64.9139,54.9037,232.458,3880.56,3779.61,10023.7,21.6064,-97.3344,25.2112,-23390.1,21793.3,-4617.89,100.224,163.296,198.871,1029.55,-12270.2,-1064.99,18.1907,-10.8219,105.622,24065.1,7851.15,-403.932,82.4296,224.386,38.3587,2960.76,-10942.0,-330.087,-9.28137,-28.1249,82.8885,10337.3,1657.14,2888.81,-4.18153,-24.3388,8.45217
3.498,20522.0,14682.8,-232.596,-71.3501,54.3211,228.383,3907.13,3727.5,10045.4,21.3636,-98.1743,25.0824,-23707.6,21706.2,-4186.99,97.7634,154.815,197.948,1048.59,-12271.9,-1066.27,17.9929,-10.1763,106.159,24517.1,7795.58,-379.805,85.6718,224.672,35.45,2999.87,-10951.2,-371.24,-9.3854,-27.5214,82.9092,10357.3,1659.38,2915.13,-4.453,-24.5879,8.49064
