Time,RFoot_accel.x,RFoot_accel.y,RFoot_accel.z,RFoot_gyro.x,RFoot_gyro.y,RFoot_gyro.z,LFoot_accel.x,LFoot_accel.y,LFoot_accel.z,LFoot_gyro.x,LFoot_gyro.y,LFoot_gyro.z,RShank_accel.x,RShank_accel.y,RShank_accel.z,RShank_gyro.x,RShank_gyro.y,RShank_gyro.z,LShank_accel.x,LShank_accel.y,LShank_accel.z,LShank_gyro.x,LShank_gyro.y,LShank_gyro.z,RThigh_accel.x,RThigh_accel.y,RThigh_accel.z,RThigh_gyro.x,RThigh_gyro.y,RThigh_gyro.z,LThigh_accel.x,LThigh_accel.y,LThigh_accel.z,LThigh_gyro.x,LThigh_gyro.y,LThigh_gyro.z,Pelvis_accel.x,Pelvis_accel.y,Pelvis_accel.z,Pelvis_gyro.x,Pelvis_gyro.y,Pelvis_gyro.z
4.38,17383.7,-8063.94,10565.0,-48.611,195.249,255.746,3709.5,3726.14,8543.09,-0.366397,4.58154,14.7525,2526.6,18883.1,-4218.05,133.749,162.461,329.622,436.739,-10240.5,-2060.07,-3.19386,-36.3723,60.7024,-5305.12,5091.13,4751.98,-70.9677,158.018,51.7166,-1455.78,-10145.3,-117.92,-26.4564,-78.1809,75.2612,8031.58,1201.53,2296.97,67.823,7.48593,9.38772
4.3805,17435.9,-8033.44,10488.3,-48.5576,193.276,257.665,3692.7,3747.03,8536.2,-0.222846,4.44192,14.8618,2475.95,19033.8,-4257.32,135.038,166.357,328.778,432.652,-10241.1,-2071.09,-3.26918,-36.1948,60.7525,-5244.02,5183.61,4846.74,-71.7831,158.633,51.7798,-1434.64,-10150.7,-126.058,-26.413,-78.5591,75.184,8025.5,1210.28,2301.74,67.831,7.20204,9.28134
4.381,17488.0,-8002.93,10411.5,-48.5042,191.302,259.583,3675.89,3767.92,8529.32,-0.079295,4.30231,14.9712,2425.31,19184.5,-4296.59,136.327,170.254,327.935,428.565,-10241.8,-2082.11,-3.34449,-36.0172,60.8027,-5182.93,5276.09,4941.49,-72.5984,159.247,51.8429,-1413.5,-10156.1,-134.197,-26.3697,-78.9373,75.1067,8019.43,1219.04,2306.51,67.8391,6.91815,9.17497
4.3815,17540.1,-7972.43,10334.7,-48.4509,189.329,261.502,3659.09,3788.81,8522.43,0.064256,4.16269,15.0805,2374.66,19335.1,-4335.86,137.616,174.15,327.091,424.478,-10242.5,-2093.13,-3.41981,-35.8396,60.8529,-5121.83,5368.56,5036.24,-73.4137,159.861,51.9061,-1392.36,-10161.4,-142.336,-26.3263,-79.3155,75.0295,8013.35,1227.79,2311.28,67.8471,6.63426,9.06859
4.382,17592.3,-7941.92,10257.9,-48.3975,187.355,263.42,3642.28,3809.69,8515.54,0.207807,4.02308,15.1898,2324.01,19485.8,-4375.13,138.905,178.046,326.248,420.391,-10243.1,-2104.15,-3.49513,-35.6621,60.903,-5060.73,5461.04,5130.99,-74.2291,160.475,51.9692,-1371.22,-10166.8,-150.474,-26.2829,-79.6937,74.9522,8007.28,1236.54,2316.05,67.8551,6.35037,8.96221
4.3825,17649.0,-7909.08,10195.4,-47.9582,185.371,265.53,3641.9,3814.32,8512.26,0.330312,3.87173,15.2249,2263.51,19636.9,-4405.59,140.026,181.718,325.308,419.355,-10239.8,-2109.49,-3.58809,-35.4654,60.9542,-4986.72,5548.74,5218.17,-75.0432,160.894,51.9766,-1346.45,-10167.8,-156.796,-26.2405,-79.9736,74.9362,8010.55,1239.59,2313.94,67.812,6.05901,8.84281
4.383,17709.3,-7874.37,10144.4,-47.2102,183.379,267.793,3654.67,3805.95,8511.87,0.43598,3.71099,15.2006,2195.13,19788.2,-4429.01,141.013,185.21,324.291,420.759,-10233.2,-2110.29,-3.69516,-35.2536,61.0062,-4902.39,5632.6,5299.3,-75.8563,161.156,51.9393,-1318.78,-10165.4,-161.663,-26.1988,-80.1748,74.969,8021.31,1238.08,2306.33,67.7278,5.76167,8.713
4.3835,17769.6,-7839.66,10093.3,-46.4621,181.387,270.056,3667.43,3797.57,8511.47,0.541647,3.55026,15.1763,2126.76,19939.6,-4452.44,141.999,188.702,323.274,422.163,-10226.7,-2111.09,-3.80224,-35.0417,61.0582,-4818.06,5716.47,5380.42,-76.6695,161.418,51.9021,-1291.12,-10163.0,-166.531,-26.1571,-80.376,75.0019,8032.06,1236.57,2298.73,67.6436,5.46434,8.58318
4.384,17829.9,-7804.95,10042.2,-45.7141,179.395,272.319,3680.2,3789.19,8511.08,0.647315,3.38952,15.152,2058.38,20091.0,-4475.86,142.985,192.194,322.257,423.567,-10220.2,-2111.89,-3.90932,-34.8299,61.1101,-4733.72,5800.33,5461.55,-77.4826,161.681,51.8648,-1263.45,-10160.6,-171.398,-26.1154,-80.5773,75.0348,8042.82,1235.07,2291.12,67.5595,5.167,8.45337
4.3845,17890.2,-7770.23,9991.12,-44.966,177.402,274.581,3692.96,3780.82,8510.69,0.752983,3.22879,15.1276,1990.0,20242.4,-4499.28,143.972,195.686,321.241,424.971,-10213.6,-2112.7,-4.01639,-34.618,61.1621,-4649.39,5884.2,5542.67,-78.2957,161.943,51.8275,-1235.78,-10158.2,-176.266,-26.0737,-80.7785,75.0676,8053.57,1233.56,2283.51,67.4753,4.86966,8.32355
4.385,17950.5,-7735.52,9940.04,-44.218,175.41,276.844,3705.73,3772.44,8510.3,0.858651,3.06805,15.1033,1921.62,20393.8,-4522.71,144.958,199.178,320.224,426.375,-10207.1,-2113.5,-4.12347,-34.4062,61.2141,-4565.06,5968.07,5623.79,-79.1088,162.205,51.7903,-1208.12,-10155.8,-181.134,-26.032,-80.9798,75.1005,8064.33,1232.05,2275.91,67.3911,4.57232,8.19374
4.3855,18010.8,-7700.81,9888.95,-43.4699,173.418,279.107,3718.49,3764.07,8509.91,0.964319,2.90732,15.079,1853.24,20545.2,-4546.13,145.945,202.67,319.207,427.78,-10200.6,-2114.3,-4.23055,-34.1943,61.2661,-4480.72,6051.93,5704.92,-79.922,162.468,51.753,-1180.45,-10153.4,-186.001,-25.9904,-81.181,75.1333,8075.08,1230.55,2268.3,67.307,4.27499,8.06392
4.386,18071.1,-7666.1,9837.87,-42.7219,171.425,281.37,3731.26,3755.69,8509.52,1.06999,2.74658,15.0547,1784.86,20696.5,-4569.55,146.931,206.162,318.19,429.184,-10194.0,-2115.1,-4.33762,-33.9825,61.3181,-4396.39,6135.8,5786.04,-80.7351,162.73,51.7157,-1152.78,-10150.9,-190.869,-25.9487,-81.3822,75.1662,8085.84,1229.04,2260.69,67.2228,3.97765,7.93411
4.3865,18131.4,-7631.39,9786.79,-41.9738,169.433,283.633,3744.02,3747.31,8509.12,1.17565,2.58585,15.0304,1716.48,20847.9,-4592.98,147.918,209.654,317.173,430.588,-10187.5,-2115.9,-4.4447,-33.7706,61.3701,-4312.06,6219.66,5867.17,-81.5482,162.992,51.6785,-1125.12,-10148.5,-195.737,-25.907,-81.5834,75.1991,8096.59,1227.53,2253.09,67.1386,3.68031,7.80429
4.387,18251.8,-7632.58,9756.81,-41.2124,167.402,285.936,3749.75,3733.55,8510.87,1.24597,2.46106,15.0147,1622.12,20990.7,-4623.54,148.664,212.891,316.073,436.725,-10189.9,-2126.71,-4.51751,-33.5111,61.4753,-4222.57,6315.35,5935.04,-82.2833,162.82,51.7119,-1104.49,-10147.5,-203.667,-25.8328,-81.7163,75.2718,8095.56,1237.5,2249.51,67.1069,3.40834,7.73389
4.3875,18402.3,-7651.73,9737.37,-40.4442,165.353,288.259,3751.95,3717.1,8513.68,1.2986,2.35424,15.0032,1514.76,21129.1,-4657.68,149.289,216.001,314.931,445.228,-10196.8,-2142.53,-4.5732,-33.2277,61.6071,-4130.51,6416.96,5996.29,-82.9793,162.431,51.7807,-1087.37,-10147.1,-213.129,-25.7424,-81.815,75.3645,8088.65,1253.19,2247.95,67.1013,3.14905,7.69319
4.388,18552.9,-7670.87,9717.94,-39.6761,163.303,290.582,3754.16,3700.65,8516.49,1.35124,2.24743,14.9917,1407.4,21267.6,-4691.82,149.915,219.111,313.79,453.732,-10203.7,-2158.35,-4.62888,-32.9443,61.7389,-4038.45,6518.56,6057.54,-83.6754,162.042,51.8495,-1070.26,-10146.8,-222.591,-25.652,-81.9137,75.4571,8081.72,1268.89,2246.39,67.0957,2.88976,7.65248
4.3885,18703.4,-7690.02,9698.51,-38.9079,161.253,292.906,3756.37,3684.2,8519.31,1.40387,2.14061,14.9801,1300.04,21406.0,-4725.95,150.541,222.22,312.648,462.235,-10210.6,-2174.16,-4.68456,-32.6609,61.8707,-3946.39,6620.16,6118.79,-84.3715,161.652,51.9183,-1053.15,-10146.4,-232.053,-25.5615,-82.0123,75.5498,8074.8,1284.59,2244.83,67.0901,2.63047,7.61178
4.389,18853.9,-7709.16,9679.07,-38.1398,159.204,295.229,3758.57,3667.75,8522.12,1.45651,2.0338,14.9686,1192.68,21544.5,-4760.09,151.167,225.33,311.507,470.739,-10217.4,-2189.98,-4.74024,-32.3775,62.0025,-3854.33,6721.76,6180.03,-85.0675,161.263,51.9871,-1036.04,-10146.1,-241.514,-25.4711,-82.111,75.6425,8067.88,1300.29,2243.27,67.0845,2.37118,7.57108
4.3895,19004.4,-7728.31,9659.64,-37.3716,157.154,297.552,3760.78,3651.3,8524.93,1.50914,1.92698,14.9571,1085.32,21682.9,-4794.23,151.793,228.44,310.365,479.242,-10224.3,-2205.8,-4.79593,-32.0942,62.1343,-3762.27,6823.37,6241.28,-85.7636,160.874,52.0559,-1018.92,-10145.7,-250.976,-25.3807,-82.2097,75.7351,8060.96,1315.99,2241.71,67.079,2.11189,7.53038
4.39,19155.0,-7747.45,9640.21,-36.6034,155.104,299.875,3762.99,3634.84,8527.74,1.56177,1.82017,14.9456,977.964,21821.4,-4828.37,152.419,231.549,309.224,487.746,-10231.2,-2221.61,-4.85161,-31.8108,62.2661,-3670.22,6924.97,6302.53,-86.4596,160.484,52.1246,-1001.81,-10145.4,-260.438,-25.2902,-82.3083,75.8278,8054.04,1331.69,2240.15,67.0734,1.8526,7.48968
4.3905,19305.5,-7766.6,9620.78,-35.8353,153.055,302.199,3765.19,3618.39,8530.56,1.61441,1.71335,14.9341,870.606,21959.9,-4862.51,153.044,234.659,308.082,496.249,-10238.1,-2237.43,-4.90729,-31.5274,62.3979,-3578.16,7026.57,6363.78,-87.1557,160.095,52.1934,-984.699,-10145.0,-269.9,-25.1998,-82.407,75.9205,8047.12,1347.39,2238.59,67.0678,1.59332,7.44898
4.391,19456.0,-7785.74,9601.34,-35.0671,151.005,304.522,3767.4,3601.94,8533.37,1.66704,1.60654,14.9226,763.247,22098.3,-4896.64,153.67,237.769,306.941,504.753,-10245.0,-2253.25,-4.96297,-31.244,62.5297,-3486.1,7128.17,6425.03,-87.8517,159.706,52.2622,-967.587,-10144.7,-279.361,-25.1094,-82.5057,76.0132,8040.2,1363.09,2237.03,67.0622,1.33403,7.40828
4.3915,19656.1,-7796.04,9570.11,-34.3828,149.257,307.017,3760.69,3592.05,8539.1,1.79224,1.4707,15.0017,607.654,22221.0,-4951.83,154.088,240.722,305.841,505.183,-10248.4,-2267.29,-5.01052,-30.9388,62.6463,-3383.11,7218.96,6481.36,-88.497,158.77,52.3213,-956.54,-10146.1,-299.677,-25.0211,-82.5411,76.1436,8036.73,1376.09,2214.54,67.0098,1.0921,7.36713
4.392,19870.3,-7803.81,9535.51,-33.7224,147.596,309.562,3751.43,3584.04,8545.66,1.93817,1.32657,15.1066,438.281,22339.2,-5013.03,154.446,243.63,304.752,503.306,-10250.9,-2280.83,-5.05574,-30.6274,62.7585,-3277.01,7306.65,6536.3,-89.1278,157.678,52.3775,-947.226,-10148.1,-323.094,-24.9333,-82.5585,76.2849,8034.25,1388.32,2186.08,66.944,0.855133,7.32586
4.3925,20084.5,-7811.59,9500.91,-33.062,145.935,312.107,3742.17,3576.03,8552.22,2.08411,1.18244,15.2115,268.907,22457.4,-5074.23,154.804,246.539,303.664,501.43,-10253.4,-2294.37,-5.10096,-30.3159,62.8707,-3170.9,7394.34,6591.23,-89.7586,156.586,52.4338,-937.912,-10150.0,-346.511,-24.8456,-82.5759,76.4261,8031.76,1400.55,2157.61,66.8781,0.618166,7.28459
4.393,20298.7,-7819.36,9466.31,-32.4016,144.273,314.652,3732.91,3568.02,8558.78,2.23004,1.03831,15.3164,99.533,22575.6,-5135.44,155.163,249.447,302.576,499.553,-10255.9,-2307.91,-5.14617,-30.0045,62.983,-3064.8,7482.04,6646.16,-90.3894,155.494,52.49,-928.598,-10152.0,-369.928,-24.7579,-82.5933,76.5674,8029.28,1412.78,2129.15,66.8123,0.3812,7.24331
4.3935,20512.8,-7827.13,9431.7,-31.7411,142.612,317.197,3723.65,3560.01,8565.35,2.37597,0.894182,15.4213,-69.8409,22693.9,-5196.64,155.521,252.355,301.487,497.677,-10258.4,-2321.45,-5.19139,-29.6931,63.0952,-2958.7,7569.73,6701.09,-91.0202,154.402,52.5463,-919.284,-10153.9,-393.345,-24.6702,-82.6107,76.7086,8026.79,1425.01,2100.68,66.7465,0.144234,7.20204
4.394,20727.0,-7834.9,9397.1,-31.0807,140.951,319.742,3714.39,3552.0,8571.91,2.5219,0.750053,15.5262,-239.215,22812.1,-5257.84,155.879,255.264,300.399,495.8,-10260.9,-2334.99,-5.23661,-29.3816,63.2074,-2852.59,7657.43,6756.02,-91.651,153.31,52.6025,-909.97,-10155.9,-416.762,-24.5825,-82.628,76.8499,8024.31,1437.24,2072.21,66.6807,-0.0927329,7.16077
4.3945,20941.2,-7842.68,9362.5,-30.4203,139.289,322.286,3705.13,3543.98,8578.47,2.66783,0.605924,15.6311,-408.588,22930.3,-5319.04,156.237,258.172,299.31,493.923,-10263.4,-2348.53,-5.28183,-29.0702,63.3197,-2746.49,7745.12,6810.96,-92.2818,152.218,52.6588,-900.656,-10157.8,-440.179,-24.4948,-82.6454,76.9911,8021.82,1449.47,2043.75,66.6148,-0.329699,7.11949
4.395,21155.4,-7850.45,9327.9,-29.7599,137.628,324.831,3695.87,3535.97,8585.03,2.81377,0.461794,15.736,-577.962,23048.5,-5380.24,156.595,261.08,298.222,492.047,-10265.9,-2362.07,-5.32705,-28.7588,63.4319,-2640.38,7832.81,6865.89,-92.9126,151.126,52.7151,-891.342,-10159.8,-463.596,-24.4071,-82.6628,77.1324,8019.34,1461.7,2015.28,66.549,-0.566666,7.07822
4.3955,21369.6,-7858.22,9293.3,-29.0995,135.967,327.376,3686.61,3527.96,8591.59,2.9597,0.317665,15.8409,-747.336,23166.7,-5441.45,156.953,263.988,297.134,490.17,-10268.3,-2375.61,-5.37227,-28.4473,63.5441,-2534.28,7920.51,6920.82,-93.5434,150.035,52.7713,-882.028,-10161.8,-487.013,-24.3194,-82.6802,77.2736,8016.85,1473.92,1986.82,66.4832,-0.803632,7.03695
4.396,21665.5,-7878.1,9202.86,-27.7673,135.173,329.831,3689.05,3530.36,8597.98,3.1078,0.0889146,15.8501,-957.835,23234.7,-5483.87,157.212,266.557,296.185,478.983,-10276.2,-2370.95,-5.49296,-28.143,63.5707,-2442.7,7995.27,6948.62,-93.99,148.566,52.732,-869.052,-10167.4,-498.955,-24.176,-82.573,77.4599,8028.1,1500.79,1973.29,66.2486,-1.05148,6.97761
4.3965,21971.5,-7899.49,9105.45,-26.3511,134.488,332.275,3692.94,3534.07,8604.35,3.25617,-0.150413,15.8473,-1173.47,23296.5,-5523.94,157.458,269.083,295.253,466.631,-10284.8,-2364.01,-5.62308,-27.8395,63.5867,-2352.93,8068.42,6973.02,-94.4136,147.051,52.6807,-855.619,-10173.5,-509.463,-24.0256,-82.4502,77.6518,8041.07,1529.48,1961.62,65.9928,-1.30069,6.91601
4.397,22277.5,-7920.88,9008.03,-24.935,133.803,334.719,3696.84,3537.77,8610.72,3.40455,-0.389742,15.8445,-1389.11,23358.3,-5564.01,157.704,271.609,294.322,454.28,-10293.4,-2357.08,-5.7532,-27.5361,63.6026,-2263.16,8141.57,6997.42,-94.8371,145.536,52.6295,-842.186,-10179.7,-519.971,-23.8753,-82.3274,77.8437,8054.04,1558.17,1949.96,65.7371,-1.5499,6.85441
4.3975,22583.5,-7942.27,8910.62,-23.5188,133.118,337.163,3700.74,3541.48,8617.09,3.55292,-0.62907,15.8417,-1604.75,23420.0,-5604.09,157.95,274.135,293.39,441.928,-10302.0,-2350.15,-5.88332,-27.2326,63.6185,-2173.39,8214.72,7021.82,-95.2607,144.02,52.5782,-828.753,-10185.8,-530.479,-23.725,-82.2046,78.0356,8067.01,1586.86,1938.29,65.4813,-1.79911,6.79282
4.398,22889.6,-7963.66,8813.2,-22.1026,132.433,339.607,3704.63,3545.18,8623.46,3.7013,-0.868398,15.8389,-1820.39,23481.8,-5644.16,158.196,276.661,292.458,429.577,-10310.6,-2343.21,-6.01344,-26.9292,63.6344,-2083.62,8287.87,7046.23,-95.6843,142.505,52.527,-815.32,-10191.9,-540.987,-23.5746,-82.0818,78.2275,8079.98,1615.55,1926.63,65.2256,-2.04832,6.73122
4.3985,23195.6,-7985.05,8715.79,-20.6864,131.749,342.051,3708.53,3548.88,8629.83,3.84967,-1.10773,15.8361,-2036.03,23543.6,-5684.23,158.442,279.186,291.527,417.225,-10319.2,-2336.28,-6.14356,-26.6257,63.6504,-1993.85,8361.02,7070.63,-96.1078,140.99,52.4757,-801.887,-10198.0,-551.495,-23.4243,-81.959,78.4194,8092.95,1644.25,1914.96,64.9698,-2.29754,6.66962
4.399,23501.6,-8006.44,8618.37,-19.2703,131.064,344.496,3712.43,3552.59,8636.2,3.99805,-1.34705,15.8333,-2251.67,23605.3,-5724.31,158.687,281.712,290.595,404.874,-10327.7,-2329.34,-6.27368,-26.3223,63.6663,-1904.08,8434.17,7095.03,-96.5314,139.474,52.4245,-788.453,-10204.1,-562.003,-23.2739,-81.8362,78.6113,8105.92,1672.94,1903.3,64.7141,-2.54675,6.60803
4.3995,23807.6,-8027.83,8520.96,-17.8541,130.379,346.94,3716.32,3556.29,8642.57,4.14642,-1.58638,15.8305,-2467.31,23667.1,-5764.38,158.933,284.238,289.663,392.522,-10336.3,-2322.41,-6.4038,-26.0189,63.6822,-1814.31,8507.32,7119.44,-96.955,137.959,52.3732,-775.02,-10210.3,-572.51,-23.1236,-81.7135,78.8032,8118.89,1701.63,1891.63,64.4583,-2.79596,6.54643
4.4,24113.7,-8049.22,8423.54,-16.4379,129.694,349.384,3720.22,3560.0,8648.94,4.2948,-1.82571,15.8278,-2682.95,23728.8,-5804.46,159.179,286.764,288.732,380.171,-10344.9,-2315.48,-6.53393,-25.7154,63.6982,-1724.54,8580.47,7143.84,-97.3786,136.444,52.322,-761.587,-10216.4,-583.018,-22.9733,-81.5907,78.9951,8131.85,1730.32,1879.97,64.2026,-3.04517,6.48483
4.4005,24459.5,-8120.27,8335.7,-14.6694,129.551,351.939,3727.47,3560.52,8655.44,4.41223,-2.00482,15.7803,-2915.03,23699.5,-5833.63,159.272,288.693,287.831,358.354,-10358.3,-2302.26,-6.68094,-25.4837,63.7979,-1673.5,8673.47,7179.58,-97.5885,134.251,52.1521,-750.423,-10214.1,-589.116,-22.7272,-81.3076,79.157,8110.61,1753.39,1853.77,64.0197,-3.22765,6.46949
4.401,24805.3,-8191.32,8247.85,-12.9009,129.408,354.495,3734.73,3561.04,8661.93,4.52966,-2.18392,15.7329,-3147.12,23670.1,-5862.81,159.364,290.622,286.931,336.537,-10371.7,-2289.05,-6.82796,-25.252,63.8977,-1622.45,8766.48,7215.33,-97.7985,132.057,51.9822,-739.26,-10211.9,-595.213,-22.4812,-81.0245,79.3188,8089.37,1776.45,1827.56,63.8368,-3.41013,6.45416
4.4015,25151.1,-8262.36,8160.0,-11.1324,129.266,357.05,3741.98,3561.56,8668.43,4.6471,-2.36303,15.6855,-3379.2,23640.7,-5891.98,159.457,292.551,286.03,314.72,-10385.1,-2275.84,-6.97498,-25.0203,63.9974,-1571.4,8859.48,7251.07,-98.0084,129.864,51.8122,-728.096,-10209.7,-601.311,-22.2352,-80.7414,79.4806,8068.13,1799.51,1801.36,63.6539,-3.59261,6.43882
4.402,25496.8,-8333.41,8072.15,-9.36387,129.123,359.605,3749.23,3562.08,8674.92,4.76453,-2.54213,15.6381,-3611.28,23611.3,-5921.16,159.55,294.48,285.13,292.903,-10398.6,-2262.62,-7.122,-24.7886,64.0972,-1520.36,8952.48,7286.81,-98.2184,127.671,51.6423,-716.932,-10207.4,-607.408,-21.9892,-80.4583,79.6424,8046.89,1822.58,1775.16,63.471,-3.7751,6.42348
4.4025,25842.6,-8404.46,7984.3,-7.59536,128.98,362.161,3756.49,3562.6,8681.42,4.88196,-2.72124,15.5907,-3843.36,23582.0,-5950.33,159.642,296.408,284.229,271.086,-10412.0,-2249.41,-7.26902,-24.5569,64.1969,-1469.31,9045.49,7322.56,-98.4284,125.478,51.4724,-705.768,-10205.2,-613.506,-21.7431,-80.1752,79.8043,8025.65,1845.64,1748.95,63.2881,-3.95758,6.40814
4.403,26188.4,-8475.51,7896.45,-5.82685,128.838,364.716,3763.74,3563.12,8687.92,4.9994,-2.90034,15.5433,-4075.44,23552.6,-5979.51,159.735,298.337,283.329,249.269,-10425.4,-2236.2,-7.41604,-24.3252,64.2967,-1418.26,9138.49,7358.3,-98.6383,123.285,51.3025,-694.604,-10202.9,-619.603,-21.4971,-79.8921,79.9661,8004.41,1868.71,1722.75,63.1052,-4.14006,6.3928
4.4035,26534.2,-8546.56,7808.6,-4.05834,128.695,367.272,3771.0,3563.64,8694.41,5.11683,-3.07945,15.4959,-4307.52,23523.2,-6008.68,159.827,300.266,282.428,227.452,-10438.8,-2222.99,-7.56305,-24.0935,64.3964,-1367.22,9231.49,7394.04,-98.8483,121.091,51.1326,-683.44,-10200.7,-625.701,-21.2511,-79.609,80.1279,7983.17,1891.77,1696.55,62.9223,-4.32254,6.37746
4.404,26880.0,-8617.6,7720.76,-2.28983,128.552,369.827,3778.25,3564.16,8700.91,5.23426,-3.25855,15.4485,-4539.6,23493.8,-6037.86,159.92,302.195,281.527,205.635,-10452.2,-2209.77,-7.71007,-23.8618,64.4962,-1316.17,9324.5,7429.79,-99.0583,118.898,50.9627,-672.276,-10198.4,-631.798,-21.0051,-79.3259,80.2897,7961.93,1914.83,1670.34,62.7394,-4.50503,6.36212
4.4045,27213.9,-8687.76,7641.49,-0.438676,128.423,372.314,3785.61,3564.96,8705.19,5.36272,-3.43535,15.412,-4768.58,23456.5,-6068.35,160.003,304.069,280.619,184.447,-10464.3,-2196.47,-7.85277,-23.6418,64.5952,-1270.48,9417.7,7461.52,-99.2224,116.575,50.7304,-661.653,-10197.7,-637.985,-20.7475,-79.0344,80.4588,7943.83,1939.18,1643.49,62.5636,-4.66989,6.35073
4.405,27451.8,-8750.82,7630.87,2.07361,128.398,374.255,3793.79,3568.02,8691.75,5.57939,-3.5937,15.4637,-4972.74,23355.2,-6109.4,160.012,305.504,279.645,168.286,-10466.4,-2182.5,-7.96085,-23.5159,64.6884,-1267.63,9512.51,7461.14,-99.0196,113.212,49.9994,-655.353,-10209.1,-644.884,-20.3973,-78.6758,80.6864,7950.87,1973.79,1611.48,62.4444,-4.69382,6.37086
4.4055,27689.8,-8813.87,7620.26,4.5859,128.374,376.195,3801.97,3571.07,8678.3,5.79607,-3.75206,15.5153,-5176.91,23253.9,-6150.45,160.021,306.939,278.671,152.126,-10468.4,-2168.52,-8.06893,-23.39,64.7817,-1264.78,9607.33,7460.75,-98.8169,109.85,49.2683,-649.053,-10220.5,-651.782,-20.0471,-78.3172,80.9139,7957.9,2008.4,1579.46,62.3252,-4.71775,6.391
4.406,27927.8,-8876.93,7609.65,7.09819,128.349,378.135,3810.15,3574.13,8664.86,6.01274,-3.91041,15.5669,-5381.07,23152.6,-6191.5,160.029,308.374,277.697,135.965,-10470.4,-2154.55,-8.17701,-23.264,64.8749,-1261.93,9702.14,7460.37,-98.6141,106.487,48.5372,-642.753,-10232.0,-658.681,-19.6969,-77.9586,81.1415,7964.94,2043.02,1547.44,62.2061,-4.74168,6.41114
4.4065,28165.7,-8939.98,7599.03,9.61048,128.325,380.075,3818.32,3577.18,8651.41,6.22941,-4.06876,15.6185,-5585.23,23051.3,-6232.55,160.038,309.809,276.723,119.805,-10472.4,-2140.57,-8.28509,-23.1381,64.9681,-1259.08,9796.95,7459.99,-98.4114,103.125,47.8061,-636.453,-10243.4,-665.579,-19.3468,-77.6,81.369,7971.98,2077.63,1515.43,62.0869,-4.76561,6.43128
4.407,28403.7,-9003.04,7588.42,12.1228,128.3,382.015,3826.5,3580.24,8637.97,6.44609,-4.22711,15.6702,-5789.4,22950.0,-6273.6,160.047,311.243,275.749,103.644,-10474.4,-2126.6,-8.39317,-23.0122,65.0613,-1256.22,9891.76,7459.61,-98.2086,99.7619,47.075,-630.154,-10254.8,-672.478,-18.9966,-77.2414,81.5965,7979.02,2112.24,1483.41,61.9677,-4.78954,6.45141
4.4075,28641.7,-9066.09,7577.8,14.6351,128.276,383.956,3834.68,3583.29,8624.53,6.66276,-4.38547,15.7218,-5993.56,22848.7,-6314.65,160.055,312.678,274.776,87.4839,-10476.4,-2112.62,-8.50125,-22.8862,65.1545,-1253.37,9986.58,7459.22,-98.0059,96.3993,46.3439,-623.854,-10266.2,-679.377,-18.6464,-76.8828,81.8241,7986.06,2146.85,1451.39,61.8486,-4.81347,6.47155
4.408,28879.7,-9129.15,7567.19,17.1473,128.251,385.896,3842.86,3586.35,8611.08,6.87943,-4.54382,15.7734,-6197.72,22747.4,-6355.69,160.064,314.113,273.802,71.3234,-10478.4,-2098.65,-8.60933,-22.7603,65.2477,-1250.52,10081.4,7458.84,-97.8031,93.0367,45.6129,-617.554,-10277.6,-686.275,-18.2962,-76.5242,82.0516,7993.09,2181.46,1419.38,61.7294,-4.8374,6.49169
4.4085,29117.6,-9192.2,7556.57,19.6596,128.227,387.836,3851.04,3589.4,8597.64,7.0961,-4.70217,15.825,-6401.89,22646.1,-6396.74,160.073,315.548,272.828,55.1629,-10480.4,-2084.67,-8.71741,-22.6343,65.3409,-1247.67,10176.2,7458.46,-97.6004,89.6741,44.8818,-611.254,-10289.1,-693.174,-17.946,-76.1656,82.2791,8000.13,2216.07,1387.36,61.6102,-4.86133,6.51182
4.409,29316.1,-9234.07,7532.6,22.0746,128.199,389.586,3855.06,3589.41,8591.09,7.32153,-4.87406,15.8627,-6589.49,22542.4,-6438.57,160.11,316.897,271.793,39.1056,-10484.6,-2069.13,-8.82397,-22.5316,65.4206,-1251.14,10286.3,7445.66,-97.3829,86.1977,43.9921,-604.939,-10296.4,-694.118,-17.6126,-75.823,82.4985,8003.23,2247.38,1360.61,61.4714,-4.8846,6.53973
4.4095,29376.4,-9201.79,7461.86,24.149,128.158,390.671,3844.52,3578.75,8608.7,7.5776,-5.09331,15.8512,-6719.16,22430.5,-6483.11,160.245,317.942,270.546,23.4093,-10496.6,-2048.11,-8.92515,-22.5099,65.4529,-1276.74,10450.0,7389.39,-97.1138,82.3233,42.5474,-598.573,-10289.7,-674.22,-17.3376,-75.5364,82.6892,7992.56,2267.13,1352.27,61.264,-4.90556,6.59482
4.41,29436.7,-9169.51,7391.13,26.2234,128.117,391.756,3833.97,3568.09,8626.3,7.83367,-5.31257,15.8397,-6848.82,22318.5,-6527.65,160.38,318.987,269.299,7.71303,-10508.5,-2027.08,-9.02634,-22.4883,65.4851,-1302.33,10613.7,7333.13,-96.8447,78.4489,41.1027,-592.206,-10282.9,-654.322,-17.0627,-75.2498,82.8799,7981.9,2286.88,1343.94,61.0565,-4.92651,6.64991
4.4105,29497.0,-9137.22,7320.39,28.2978,128.075,392.84,3823.43,3557.44,8643.91,8.08975,-5.53182,15.8283,-6978.49,22206.6,-6572.18,160.515,320.033,268.051,-7.98325,-10520.5,-2006.06,-9.12753,-22.4666,65.5173,-1327.93,10777.4,7276.86,-96.5756,74.5744,39.658,-585.84,-10276.1,-634.424,-16.7877,-74.9632,83.0706,7971.23,2306.63,1335.61,60.8491,-4.94746,6.70501
4.411,29557.2,-9104.94,7249.66,30.3722,128.034,393.925,3812.89,3546.78,8661.51,8.34582,-5.75107,15.8168,-7108.15,22094.6,-6616.72,160.65,321.078,266.804,-23.6795,-10532.5,-1985.04,-9.22872,-22.445,65.5496,-1353.53,10941.1,7220.6,-96.3066,70.7,38.2132,-579.474,-10269.3,-614.526,-16.5128,-74.6766,83.2613,7960.56,2326.38,1327.27,60.6417,-4.96841,6.7601
4.4115,29617.5,-9072.66,7178.92,32.4466,127.993,395.01,3802.34,3536.12,8679.11,8.60189,-5.97033,15.8054,-7237.82,21982.7,-6661.26,160.785,322.124,265.557,-39.3758,-10544.4,-1964.01,-9.32991,-22.4233,65.5818,-1379.12,11104.8,7164.33,-96.0375,66.8256,36.7685,-573.107,-10262.5,-594.628,-16.2378,-74.39,83.452,7949.89,2346.13,1318.94,60.4342,-4.98936,6.81519
4.412,29677.8,-9040.37,7108.18,34.521,127.952,396.094,3791.8,3525.46,8696.72,8.85796,-6.18958,15.7939,-7367.48,21870.7,-6705.8,160.92,323.169,264.31,-55.0721,-10556.4,-1942.99,-9.4311,-22.4017,65.614,-1404.72,11268.4,7108.07,-95.7684,62.9511,35.3238,-566.741,-10255.8,-574.73,-15.9629,-74.1034,83.6426,7939.22,2365.88,1310.61,60.2268,-5.01031,6.87029
4.4125,29738.1,-9008.09,7037.45,36.5954,127.911,397.179,3781.26,3514.81,8714.32,9.11403,-6.40884,15.7824,-7497.14,21758.8,-6750.34,161.055,324.214,263.062,-70.7684,-10568.4,-1921.96,-9.53229,-22.38,65.6463,-1430.31,11432.1,7051.8,-95.4993,59.0767,33.8791,-560.374,-10249.0,-554.832,-15.6879,-73.8168,83.8333,7928.55,2385.63,1302.27,60.0193,-5.03127,6.92538
4.413,29798.3,-8975.81,6966.71,38.6698,127.87,398.264,3770.71,3504.15,8731.93,9.3701,-6.62809,15.771,-7626.81,21646.8,-6794.88,161.19,325.26,261.815,-86.4647,-10580.3,-1900.94,-9.63347,-22.3584,65.6785,-1455.91,11595.8,6995.54,-95.2302,55.2023,32.4344,-554.008,-10242.2,-534.934,-15.413,-73.5302,84.024,7917.88,2405.38,1293.94,59.8119,-5.05222,6.98047
4.4135,29795.7,-8899.4,6875.38,40.3345,127.783,399.184,3764.61,3491.07,8745.46,9.63459,-6.84965,15.7604,-7746.85,21555.1,-6854.49,161.369,326.215,260.458,-100.009,-10594.7,-1879.33,-9.71422,-22.3569,65.734,-1460.89,11785.8,6897.62,-95.3448,51.8514,30.8879,-544.027,-10236.5,-517.638,-15.1499,-73.176,84.235,7918.09,2427.81,1295.39,59.5823,-5.10178,7.01514
4.414,29667.3,-8734.73,6742.86,41.1795,127.605,399.774,3767.38,3473.16,8750.84,9.91589,-7.07582,15.7517,-7847.63,21503.7,-6944.26,161.635,326.991,258.881,-109.248,-10613.7,-1856.54,-9.75408,-22.3959,65.8358,-1424.63,12028.5,6716.41,-96.2268,49.5478,29.1379,-526.817,-10233.1,-505.548,-14.9106,-72.6863,84.4866,7940.05,2455.57,1316.41,59.3084,-5.20857,7.00897
4.4145,29538.9,-8570.06,6610.33,42.0246,127.426,400.365,3770.14,3455.25,8756.22,10.1972,-7.30199,15.7429,-7948.42,21452.3,-7034.04,161.901,327.767,257.304,-118.487,-10632.8,-1833.75,-9.79394,-22.4349,65.9376,-1388.38,12271.2,6535.2,-97.1088,47.2442,27.3878,-509.606,-10229.6,-493.459,-14.6713,-72.1967,84.7381,7962.02,2483.34,1337.44,59.0345,-5.31536,7.00279
4.415,29410.5,-8405.39,6477.8,42.8696,127.248,400.955,3772.91,3437.34,8761.6,10.4785,-7.52816,15.7342,-8049.21,21400.9,-7123.81,162.168,328.543,255.727,-127.726,-10651.8,-1810.97,-9.83381,-22.4739,66.0395,-1352.12,12513.9,6353.99,-97.9908,44.9406,25.6378,-492.396,-10226.1,-481.369,-14.432,-71.707,84.9897,7983.98,2511.11,1358.46,58.7606,-5.42215,6.99662
4.4155,29282.1,-8240.73,6345.28,43.7147,127.07,401.546,3775.68,3419.43,8766.99,10.7598,-7.75432,15.7254,-8150.0,21349.5,-7213.58,162.434,329.318,254.15,-136.965,-10670.9,-1788.18,-9.87367,-22.5129,66.1413,-1315.86,12756.6,6172.78,-98.8727,42.637,23.8878,-475.186,-10222.6,-469.279,-14.1927,-71.2174,85.2412,8005.94,2538.88,1379.48,58.4867,-5.52894,6.99044
4.416,29153.7,-8076.06,6212.75,44.5597,126.891,402.136,3778.45,3401.51,8772.37,11.0411,-7.98049,15.7167,-8250.78,21298.1,-7303.35,162.7,330.094,252.573,-146.204,-10689.9,-1765.39,-9.91353,-22.5519,66.2431,-1279.61,12999.3,5991.56,-99.7547,40.3333,22.1377,-457.976,-10219.1,-457.189,-13.9534,-70.7278,85.4928,8027.91,2566.64,1400.5,58.2128,-5.63573,6.98427
4.4165,29025.2,-7911.39,6080.23,45.4048,126.713,402.727,3781.22,3383.6,8777.75,11.3224,-8.20666,15.7079,-8351.57,21246.7,-7393.12,162.966,330.87,250.996,-155.443,-10708.9,-1742.6,-9.95339,-22.5909,66.345,-1243.35,13242.0,5810.35,-100.637,38.0297,20.3877,-440.765,-10215.6,-445.099,-13.7141,-70.2381,85.7444,8049.87,2594.41,1421.53,57.9389,-5.74252,6.9781
4.417,28896.8,-7746.72,5947.7,46.2499,126.535,403.317,3783.99,3365.69,8783.14,11.6037,-8.43283,15.6992,-8452.36,21195.3,-7482.9,163.232,331.646,249.419,-164.682,-10728.0,-1719.82,-9.99325,-22.6299,66.4468,-1207.09,13484.7,5629.14,-101.519,35.7261,18.6376,-423.555,-10212.2,-433.009,-13.4747,-69.7485,85.9959,8071.83,2622.18,1442.55,57.665,-5.84931,6.97192
4.4175,28768.4,-7582.06,5815.18,47.0949,126.356,403.907,3786.76,3347.78,8788.52,11.885,-8.659,15.6904,-8553.14,21143.9,-7572.67,163.499,332.422,247.842,-173.921,-10747.0,-1697.03,-10.0331,-22.6689,66.5486,-1170.84,13727.4,5447.93,-102.401,33.4225,16.8876,-406.345,-10208.7,-420.919,-13.2354,-69.2588,86.2475,8093.8,2649.95,1463.57,57.3911,-5.9561,6.96575
4.418,28565.7,-7262.03,5800.62,47.6796,125.563,404.498,3792.93,3330.15,8795.63,12.1628,-8.88849,15.6933,-8659.89,21149.2,-7618.63,163.38,332.717,246.327,-187.662,-10761.7,-1672.22,-10.0701,-22.727,66.6356,-1090.53,13938.2,5314.12,-103.697,31.862,15.3845,-395.41,-10203.3,-411.513,-13.0588,-68.8374,86.438,8103.11,2677.49,1496.3,56.9997,-6.16191,6.98664
4.4185,28270.0,-6747.8,5933.52,47.9387,124.0,405.089,3803.35,3312.88,8804.91,12.4362,-9.12215,15.7107,-8774.07,21225.4,-7609.82,162.782,332.413,244.888,-207.031,-10770.9,-1644.89,-10.1034,-22.8088,66.7041,-955.163,14109.2,5239.57,-105.51,31.2303,14.1899,-392.32,-10195.4,-405.463,-12.9604,-68.5012,86.5521,8096.62,2704.75,1543.67,56.4616,-6.49149,7.04135
4.419,27974.4,-6233.57,6066.43,48.1979,122.438,405.679,3813.77,3295.6,8814.18,12.7097,-9.35581,15.7281,-8888.26,21301.6,-7601.01,162.184,332.108,243.45,-226.399,-10780.1,-1617.56,-10.1367,-22.8906,66.7726,-819.797,14280.1,5165.01,-107.324,30.5987,12.9954,-389.23,-10187.6,-399.413,-12.8621,-68.165,86.6663,8090.12,2732.0,1591.03,55.9234,-6.82107,7.09606
4.4195,27678.8,-5719.34,6199.33,48.4571,120.875,406.27,3824.19,3278.33,8823.45,12.9831,-9.58946,15.7456,-9002.45,21377.7,-7592.2,161.585,331.804,242.012,-245.768,-10789.2,-1590.23,-10.17,-22.9724,66.8411,-684.43,14451.0,5090.46,-109.137,29.9671,11.8009,-386.139,-10179.8,-393.362,-12.7637,-67.8288,86.7804,8083.63,2759.26,1638.4,55.3852,-7.15065,7.15078
4.42,27383.1,-5205.11,6332.23,48.7163,119.313,406.861,3834.62,3261.06,8832.73,13.2565,-9.82312,15.763,-9116.63,21453.9,-7583.39,160.987,331.499,240.573,-265.137,-10798.4,-1562.9,-10.2034,-23.0542,66.9096,-549.063,14622.0,5015.91,-110.951,29.3354,10.6064,-383.049,-10172.0,-387.312,-12.6653,-67.4926,86.8946,8077.14,2786.52,1685.77,54.847,-7.48023,7.20549
4.4205,27087.5,-4690.89,6465.14,48.9754,117.75,407.451,3845.04,3243.78,8842.0,13.5299,-10.0568,15.7804,-9230.82,21530.0,-7574.58,160.389,331.195,239.135,-284.506,-10807.6,-1535.57,-10.2367,-23.136,66.9781,-413.697,14792.9,4941.35,-112.764,28.7038,9.41183,-379.959,-10164.2,-381.261,-12.567,-67.1564,87.0088,8070.64,2813.78,1733.13,54.3089,-7.80981,7.2602
4.421,26791.9,-4176.66,6598.04,49.2346,116.188,408.042,3855.46,3226.51,8851.28,13.8033,-10.2904,15.7979,-9345.0,21606.2,-7565.78,159.79,330.89,237.697,-303.875,-10816.8,-1508.24,-10.27,-23.2179,67.0465,-278.33,14963.8,4866.8,-114.578,28.0722,8.2173,-376.869,-10156.3,-375.211,-12.4686,-66.8202,87.1229,8064.15,2841.03,1780.5,53.7707,-8.13939,7.31492
4.4215,26496.2,-3662.43,6730.94,49.4938,114.625,408.633,3865.88,3209.24,8860.55,14.0767,-10.5241,15.8153,-9459.19,21682.3,-7556.97,159.192,330.586,236.258,-323.243,-10826.0,-1480.91,-10.3033,-23.2997,67.115,-142.964,15134.8,4792.24,-116.391,27.4406,7.02278,-373.779,-10148.5,-369.16,-12.3703,-66.484,87.2371,8057.65,2868.29,1827.86,53.2325,-8.46897,7.36963
4.422,26200.6,-3148.2,6863.85,49.753,113.063,409.223,3876.31,3191.96,8869.83,14.3502,-10.7577,15.8327,-9573.38,21758.5,-7548.16,158.594,330.281,234.82,-342.612,-10835.1,-1453.58,-10.3366,-23.3815,67.1835,-7.59687,15305.7,4717.69,-118.205,26.8089,5.82825,-370.688,-10140.7,-363.11,-12.2719,-66.1478,87.3512,8051.16,2895.55,1875.23,52.6944,-8.79854,7.42435
4.4225,25950.5,-2650.83,6696.44,49.9876,112.087,409.295,3880.04,3173.01,8883.89,14.6486,-11.0259,15.7921,-9658.77,21854.3,-7406.64,157.006,329.131,233.45,-347.833,-10840.6,-1433.29,-10.3174,-23.4279,67.2714,134.317,15370.3,4658.16,-119.699,27.051,5.30222,-359.741,-10144.5,-357.657,-12.2262,-65.8083,87.4724,8058.09,2910.76,1909.39,52.2305,-9.21138,7.45842
4.423,25737.0,-2166.95,6288.79,50.2026,111.58,408.951,3878.41,3152.71,8901.79,14.9672,-11.3217,15.7051,-9721.14,21965.8,-7158.96,154.628,327.304,232.136,-341.734,-10843.1,-1418.64,-10.2562,-23.4461,67.3749,281.468,15349.8,4610.65,-120.939,27.992,5.311,-342.509,-10157.7,-352.682,-12.2227,-65.4662,87.5992,8075.77,2916.33,1932.98,51.826,-9.69081,7.47599
4.4235,25523.4,-1683.07,5881.14,50.4177,111.073,408.607,3876.79,3132.41,8919.69,15.2857,-11.6175,15.618,-9783.51,22077.2,-6911.27,152.249,325.478,230.821,-335.636,-10845.6,-1403.99,-10.1949,-23.4642,67.4783,428.619,15329.3,4563.13,-122.179,28.9331,5.31977,-325.277,-10171.0,-347.707,-12.2192,-65.124,87.7259,8093.44,2921.9,1956.57,51.4215,-10.1702,7.49356
4.424,25309.8,-1199.19,5473.48,50.6327,110.566,408.264,3875.17,3112.11,8937.58,15.6043,-11.9132,15.531,-9845.88,22188.7,-6663.59,149.871,323.651,229.506,-329.537,-10848.1,-1389.34,-10.1336,-23.4823,67.5818,575.771,15308.9,4515.62,-123.419,29.8741,5.32855,-308.045,-10184.2,-342.732,-12.2157,-64.7819,87.8527,8111.12,2927.48,1980.16,51.017,-10.6497,7.51113
4.4245,25096.2,-715.315,5065.83,50.8478,110.059,407.92,3873.54,3091.81,8955.48,15.9228,-12.209,15.444,-9908.25,22300.2,-6415.91,147.492,321.825,228.192,-323.439,-10850.6,-1374.69,-10.0724,-23.5004,67.6852,722.922,15288.4,4468.1,-124.659,30.8151,5.33732,-290.812,-10197.4,-337.758,-12.2122,-64.4398,87.9795,8128.79,2933.05,2003.76,50.6125,-11.1291,7.5287
4.425,24882.7,-231.436,4658.18,51.0628,109.551,407.576,3871.92,3071.51,8973.38,16.2414,-12.5048,15.357,-9970.62,22411.6,-6168.22,145.114,319.998,226.877,-317.34,-10853.1,-1360.04,-10.0111,-23.5186,67.7887,870.073,15267.9,4420.59,-125.899,31.7562,5.3461,-273.58,-10210.6,-332.783,-12.2087,-64.0976,88.1062,8146.47,2938.62,2027.35,50.208,-11.6085,7.54627
4.4255,24669.1,252.443,4250.52,51.2778,109.044,407.232,3870.3,3051.21,8991.28,16.5599,-12.8005,15.2699,-10033.0,22523.1,-5920.54,142.735,318.171,225.562,-311.242,-10855.7,-1345.38,-9.94984,-23.5367,67.8921,1017.22,15247.4,4373.08,-127.139,32.6972,5.35487,-256.348,-10223.8,-327.808,-12.2052,-63.7555,88.233,8164.14,2944.19,2050.94,49.8035,-12.088,7.56384
4.426,24455.5,736.323,3842.87,51.4929,108.537,406.888,3868.67,3030.91,9009.17,16.8784,-13.0963,15.1829,-10095.4,22634.6,-5672.85,140.357,316.345,224.248,-305.143,-10858.2,-1330.73,-9.88858,-23.5548,67.9956,1164.38,15226.9,4325.56,-128.379,33.6382,5.36365,-239.115,-10237.0,-322.833,-12.2017,-63.4134,88.3598,8181.82,2949.76,2074.53,49.3991,-12.5674,7.58141
4.4265,24241.9,1220.2,3435.22,51.7079,108.03,406.545,3867.05,3010.61,9027.07,17.197,-13.3921,15.0959,-10157.7,22746.1,-5425.17,137.978,314.518,222.933,-299.045,-10860.7,-1316.08,-9.82732,-23.5729,68.0991,1311.53,15206.4,4278.05,-129.618,34.5792,5.37242,-221.883,-10250.2,-317.858,-12.1982,-63.0713,88.4865,8199.49,2955.34,2098.13,48.9946,-13.0468,7.59898
4.427,24165.2,1391.17,3163.92,50.9106,107.236,405.292,3853.81,3003.19,9033.43,17.5527,-13.7337,14.9477,-10184.5,22774.7,-5198.74,135.458,312.085,221.643,-288.384,-10874.0,-1311.62,-9.75786,-23.6457,68.1767,1404.95,15091.8,4239.63,-130.21,36.8717,6.19044,-206.599,-10268.1,-320.983,-12.1852,-62.738,88.5593,8201.67,2963.86,2113.89,48.6864,-13.536,7.5568
4.4275,24156.8,1405.68,2960.8,49.607,106.297,403.586,3834.75,3002.21,9034.01,17.9269,-14.0982,14.769,-10193.5,22762.0,-4982.93,132.866,309.348,220.366,-275.442,-10892.6,-1312.25,-9.68431,-23.7458,68.2413,1471.5,14930.0,4205.75,-130.476,39.8399,7.41309,-192.289,-10288.3,-328.157,-12.1675,-62.4091,88.6051,8196.09,2973.86,2125.73,48.4264,-14.0301,7.48476
4.428,24148.4,1420.18,2757.69,48.3035,105.359,401.879,3815.7,3001.23,9034.6,18.3012,-14.4626,14.5903,-10202.4,22749.2,-4767.12,130.275,306.612,219.089,-262.5,-10911.3,-1312.88,-9.61076,-23.8459,68.306,1538.05,14768.2,4171.87,-130.743,42.8082,8.63574,-177.979,-10308.5,-335.332,-12.1498,-62.0802,88.6509,8190.52,2983.86,2137.58,48.1664,-14.5241,7.41271
4.4285,24140.1,1434.69,2554.57,47.0,104.42,400.172,3796.65,3000.26,9035.18,18.6754,-14.8271,14.4116,-10211.4,22736.5,-4551.31,127.683,303.875,217.812,-249.558,-10930.0,-1313.51,-9.53721,-23.9459,68.3707,1604.6,14606.4,4137.99,-131.01,45.7764,9.85839,-163.668,-10328.8,-342.507,-12.1321,-61.7513,88.6967,8184.94,2993.85,2149.42,47.9065,-15.0182,7.34066
4.429,24131.7,1449.2,2351.45,45.6964,103.481,398.465,3777.6,2999.28,9035.76,19.0497,-15.1916,14.2329,-10220.3,22723.7,-4335.5,125.091,301.138,216.535,-236.617,-10948.7,-1314.14,-9.46366,-24.046,68.4354,1671.16,14444.7,4104.12,-131.276,48.7446,11.081,-149.358,-10349.0,-349.681,-12.1145,-61.4224,88.7425,8179.36,3003.85,2161.27,47.6465,-15.5122,7.26862
4.4295,24123.3,1463.71,2148.33,44.3929,102.543,396.758,3758.55,2998.3,9036.35,19.4239,-15.5561,14.0542,-10229.3,22711.0,-4119.7,122.5,298.402,215.258,-223.675,-10967.4,-1314.77,-9.39011,-24.1461,68.5001,1737.71,14282.9,4070.24,-131.543,51.7128,12.3037,-135.048,-10369.2,-356.856,-12.0968,-61.0936,88.7882,8173.79,3013.85,2173.11,47.3865,-16.0063,7.19657
4.43,24115.0,1478.22,1945.21,43.0894,101.604,395.052,3739.5,2997.32,9036.93,19.7982,-15.9206,13.8755,-10238.3,22698.3,-3903.89,119.908,295.665,213.981,-210.733,-10986.1,-1315.4,-9.31656,-24.2462,68.5647,1804.26,14121.1,4036.36,-131.81,54.681,13.5263,-120.738,-10389.4,-364.03,-12.0791,-60.7647,88.834,8168.21,3023.85,2184.96,47.1265,-16.5003,7.12452
4.4305,24106.6,1492.73,1742.1,41.7858,100.666,393.345,3720.44,2996.35,9037.52,20.1724,-16.2851,13.6968,-10247.2,22685.5,-3688.08,117.317,292.928,212.704,-197.791,-11004.8,-1316.03,-9.24301,-24.3462,68.6294,1870.81,13959.3,4002.49,-132.077,57.6492,14.749,-106.428,-10409.6,-371.205,-12.0614,-60.4358,88.8798,8162.64,3033.85,2196.8,46.8665,-16.9944,7.05248
4.431,24098.2,1507.24,1538.98,40.4823,99.7272,391.638,3701.39,2995.37,9038.1,20.5467,-16.6496,13.5181,-10256.2,22672.8,-3472.27,114.725,290.191,211.427,-184.849,-11023.5,-1316.66,-9.16946,-24.4463,68.6941,1937.37,13797.6,3968.61,-132.343,60.6174,15.9716,-92.1175,-10429.9,-378.38,-12.0437,-60.1069,88.9256,8157.06,3043.85,2208.65,46.6065,-17.4885,6.98043
4.4315,24057.2,1506.67,1486.39,39.4063,97.8626,389.2,3681.65,2998.63,9056.95,21.105,-17.1114,13.3982,-10261.6,22546.6,-3479.63,113.157,287.457,210.45,-181.002,-11031.3,-1320.52,-9.03252,-24.515,68.8054,2062.21,13579.3,4002.9,-131.642,64.7852,17.8776,-47.1045,-10439.4,-375.713,-11.9896,-59.7653,88.9482,8167.59,3065.4,2199.2,46.3978,-17.8799,6.98444
4.432,24006.8,1501.79,1476.81,38.3953,95.7335,386.552,3661.72,3003.09,9081.02,21.7159,-17.6012,13.2951,-10265.9,22388.1,-3550.75,111.881,284.723,209.559,-179.754,-11036.0,-1325.29,-8.87746,-24.5747,68.93,2203.71,13344.9,4056.66,-130.664,69.2958,19.9789,6.68069,-10445.9,-370.234,-11.9251,-59.4201,88.9642,8182.72,3090.26,2183.67,46.2038,-18.2421,7.01018
4.4325,23956.4,1496.91,1467.22,37.3844,93.6043,383.905,3641.79,3007.55,9105.09,22.3267,-18.0909,13.192,-10270.2,22229.6,-3621.87,110.605,281.99,208.668,-178.506,-11040.8,-1330.07,-8.7224,-24.6343,69.0547,2345.21,13110.5,4110.43,-129.686,73.8063,22.0801,60.4659,-10452.5,-364.755,-11.8605,-59.0748,88.9802,8197.84,3115.11,2168.14,46.0098,-18.6043,7.03591
4.433,23906.0,1492.03,1457.64,36.3734,91.4752,381.257,3621.85,3012.02,9129.16,22.9376,-18.5806,13.0889,-10274.5,22071.0,-3692.99,109.329,279.256,207.778,-177.258,-11045.5,-1334.84,-8.56735,-24.694,69.1793,2486.72,12876.0,4164.19,-128.708,78.3169,24.1814,114.251,-10459.0,-359.276,-11.796,-58.7296,88.9963,8212.97,3139.97,2152.6,45.8157,-18.9664,7.06165
4.4335,23855.6,1487.15,1448.06,35.3624,89.3461,378.61,3601.92,3016.48,9153.22,23.5485,-19.0703,12.9858,-10278.9,21912.5,-3764.1,108.053,276.522,206.887,-176.01,-11050.2,-1339.61,-8.41229,-24.7537,69.3039,2628.22,12641.6,4217.95,-127.73,82.8274,26.2826,168.036,-10465.5,-353.797,-11.7315,-58.3843,89.0123,8228.09,3164.83,2137.07,45.6217,-19.3286,7.08739
4.434,23805.2,1482.27,1438.48,34.3515,87.2169,375.962,3581.99,3020.95,9177.29,24.1594,-19.56,12.8827,-10283.2,21754.0,-3835.22,106.777,273.788,205.996,-174.762,-11054.9,-1344.39,-8.25723,-24.8134,69.4286,2769.72,12407.2,4271.72,-126.752,87.338,28.3838,221.821,-10472.0,-348.318,-11.667,-58.0391,89.0283,8243.22,3189.68,2121.54,45.4277,-19.6908,7.11313
4.4345,23754.8,1477.39,1428.89,33.3405,85.0878,373.315,3562.06,3025.41,9201.36,24.7703,-20.0497,12.7797,-10287.5,21595.4,-3906.34,105.501,271.055,205.106,-173.514,-11059.7,-1349.16,-8.10218,-24.8731,69.5532,2911.22,12172.8,4325.48,-125.774,91.8485,30.4851,275.607,-10478.5,-342.839,-11.6024,-57.6939,89.0443,8258.34,3214.54,2106.01,45.2337,-20.0529,7.13887
4.435,23704.4,1472.51,1419.31,32.3295,82.9587,370.667,3542.12,3029.88,9225.43,25.3811,-20.5394,12.6766,-10291.8,21436.9,-3977.46,104.225,268.321,204.215,-172.266,-11064.4,-1353.94,-7.94712,-24.9327,69.6778,3052.72,11938.4,4379.25,-124.796,96.359,32.5863,329.392,-10485.0,-337.36,-11.5379,-57.3486,89.0603,8273.47,3239.39,2090.47,45.0396,-20.4151,7.1646
4.4355,23654.0,1467.63,1409.73,31.3185,80.8295,368.019,3522.19,3034.34,9249.5,25.992,-21.0291,12.5735,-10296.2,21278.4,-4048.58,102.949,265.587,203.324,-171.018,-11069.1,-1358.71,-7.79207,-24.9924,69.8025,3194.22,11703.9,4433.01,-123.818,100.87,34.6875,383.177,-10491.5,-331.881,-11.4734,-57.0034,89.0763,8288.6,3264.25,2074.94,44.8456,-20.7773,7.19034
4.436,23617.7,1582.2,1209.81,30.4906,79.0488,364.395,3495.2,3063.36,9243.17,26.3699,-21.5275,12.3596,-10367.6,21022.2,-4190.79,102.549,263.233,202.341,-149.394,-11067.5,-1428.02,-7.84232,-25.2508,69.7909,3424.63,11454.7,4495.36,-121.552,105.3,37.1083,433.065,-10503.7,-346.584,-11.3708,-56.7631,89.0342,8302.43,3268.33,2049.85,44.4135,-20.9313,7.29992
4.4365,23583.1,1711.69,986.102,29.6855,77.3115,360.649,3467.33,3095.44,9233.04,26.7188,-22.0269,12.132,-10447.4,20753.9,-4341.89,102.257,260.925,201.346,-125.222,-11065.1,-1505.4,-7.91825,-25.5341,69.7624,3666.16,11203.6,4558.79,-119.125,109.721,39.5691,482.466,-10516.5,-363.809,-11.2633,-56.5358,88.9849,8316.1,3269.81,2023.55,43.9517,-21.0594,7.41997
4.437,23548.5,1841.19,762.393,28.8805,75.5743,356.902,3439.46,3127.53,9222.91,27.0676,-22.5264,11.9043,-10527.3,20485.6,-4492.98,101.966,258.618,200.35,-101.05,-11062.7,-1582.77,-7.99417,-25.8173,69.7339,3907.69,10952.5,4622.22,-116.698,114.142,42.0298,531.868,-10529.4,-381.035,-11.1559,-56.3086,88.9356,8329.77,3271.29,1997.26,43.4899,-21.1875,7.54003
4.4375,23513.9,1970.68,538.684,28.0754,73.837,353.156,3411.58,3159.61,9212.79,27.4164,-23.0258,11.6766,-10607.1,20217.3,-4644.08,101.675,256.31,199.355,-76.8786,-11060.3,-1660.15,-8.07009,-26.1006,69.7053,4149.22,10701.3,4685.65,-114.271,118.563,44.4906,581.269,-10542.2,-398.26,-11.0485,-56.0814,88.8862,8343.44,3272.77,1970.97,43.0281,-21.3155,7.66008
4.438,23479.3,2100.18,314.975,27.2703,72.0998,349.409,3383.71,3191.69,9202.66,27.7652,-23.5253,11.449,-10686.9,19949.0,-4795.18,101.383,254.003,198.36,-52.7069,-11057.9,-1737.52,-8.14601,-26.3839,69.6768,4390.75,10450.2,4749.07,-111.844,122.984,46.9513,630.67,-10555.1,-415.486,-10.9411,-55.8542,88.8369,8357.11,3274.25,1944.68,42.5663,-21.4436,7.78014
4.4385,23444.7,2229.67,91.2666,26.4652,70.3625,345.663,3355.84,3223.78,9192.53,28.1141,-24.0247,11.2213,-10766.8,19680.7,-4946.27,101.092,251.696,197.365,-28.5351,-11055.5,-1814.9,-8.22194,-26.6671,69.6483,4632.27,10199.1,4812.5,-109.417,127.405,49.4121,680.071,-10567.9,-432.711,-10.8337,-55.6269,88.7876,8370.78,3275.73,1918.39,42.1044,-21.5717,7.90019
4.439,23410.1,2359.17,-132.442,25.6602,68.6253,341.916,3327.97,3255.86,9182.4,28.4629,-24.5242,10.9936,-10846.6,19412.3,-5097.37,100.8,249.388,196.37,-4.3634,-11053.1,-1892.27,-8.29786,-26.9504,69.6197,4873.8,9948.01,4875.93,-106.99,131.826,51.8728,729.473,-10580.8,-449.937,-10.7263,-55.3997,88.7382,8384.45,3277.21,1892.1,41.6426,-21.6997,8.02025
4.4395,23375.5,2488.66,-356.151,24.8551,66.8881,338.17,3300.1,3287.95,9172.27,28.8117,-25.0236,10.766,-10926.4,19144.0,-5248.46,100.509,247.081,195.375,19.8083,-11050.7,-1969.65,-8.37378,-27.2336,69.5912,5115.33,9696.89,4939.35,-104.563,136.246,54.3335,778.874,-10593.6,-467.162,-10.6189,-55.1725,88.6889,8398.12,3278.69,1865.81,41.1808,-21.8278,8.1403
4.44,23340.9,2618.16,-579.86,24.05,65.1508,334.423,3272.22,3320.03,9162.15,29.1605,-25.523,10.5383,-11006.3,18875.7,-5399.56,100.218,244.773,194.38,43.9801,-11048.3,-2047.02,-8.4497,-27.5169,69.5627,5356.86,9445.78,5002.78,-102.136,140.667,56.7943,828.275,-10606.4,-484.388,-10.5115,-54.9453,88.6396,8411.79,3280.17,1839.52,40.719,-21.9559,8.26035
4.4405,23230.9,2819.98,-720.599,22.5161,63.5483,329.873,3294.51,3522.77,9092.92,28.9573,-25.7136,10.7152,-11258.6,18592.1,-5447.61,100.747,242.71,192.937,36.5205,-11039.5,-2126.63,-8.09965,-28.0226,69.5832,5744.13,9163.42,4765.68,-95.906,143.988,58.732,875.286,-10590.9,-515.574,-10.49,-54.6979,88.6032,8433.62,3262.89,1870.61,39.7458,-21.8404,8.53432
4.441,23120.9,3021.8,-861.338,20.9821,61.9458,325.322,3316.79,3725.52,9023.69,28.754,-25.9043,10.8921,-11510.9,18308.5,-5495.66,101.276,240.647,191.495,29.0609,-11030.7,-2206.24,-7.74959,-28.5283,69.6037,6131.41,8881.05,4528.57,-89.6759,147.309,60.6697,922.298,-10575.4,-546.761,-10.4685,-54.4505,88.5668,8455.45,3245.6,1901.69,38.7726,-21.725,8.80829
4.4415,23010.9,3223.62,-1002.08,19.4482,60.3432,320.771,3339.08,3928.26,8954.46,28.5507,-26.0949,11.069,-11763.2,18024.9,-5543.71,101.806,238.583,190.053,21.6013,-11022.0,-2285.85,-7.39954,-29.034,69.6242,6518.69,8598.69,4291.47,-83.4457,150.629,62.6074,969.309,-10559.9,-577.948,-10.447,-54.2031,88.5305,8477.28,3228.32,1932.78,37.7995,-21.6096,9.08225
4.442,22900.9,3425.44,-1142.82,17.9143,58.7407,316.221,3361.36,4131.01,8885.24,28.3474,-26.2855,11.2459,-12015.5,17741.3,-5591.76,102.335,236.52,188.611,14.1417,-11013.2,-2365.46,-7.04948,-29.5397,69.6447,6905.97,8316.33,4054.36,-77.2156,153.95,64.5451,1016.32,-10544.3,-609.134,-10.4256,-53.9557,88.4941,8499.1,3211.04,1963.86,36.8263,-21.4942,9.35622
4.4425,22790.9,3627.26,-1283.56,16.3804,57.1382,311.67,3383.65,4333.75,8816.01,28.1442,-26.4761,11.4228,-12267.9,17457.7,-5639.81,102.864,234.456,187.169,6.68206,-11004.5,-2445.07,-6.69942,-30.0454,69.6652,7293.25,8033.97,3817.26,-70.9854,157.271,66.4828,1063.33,-10528.8,-640.321,-10.4041,-53.7083,88.4578,8520.93,3193.76,1994.95,35.8531,-21.3787,9.63019
4.443,22681.0,3829.08,-1424.29,14.8464,55.5356,307.119,3405.93,4536.49,8746.78,27.9409,-26.6667,11.5997,-12520.2,17174.1,-5687.86,103.394,232.393,185.727,-0.77755,-10995.7,-2524.68,-6.34937,-30.5511,69.6857,7680.53,7751.6,3580.16,-64.7553,160.591,68.4206,1110.34,-10513.3,-671.507,-10.3826,-53.4609,88.4214,8542.76,3176.47,2026.03,34.8799,-21.2633,9.90415
4.4435,22571.0,4030.9,-1565.03,13.3125,53.9331,302.569,3428.22,4739.24,8677.55,27.7376,-26.8573,11.7766,-12772.5,16890.5,-5735.91,103.923,230.33,184.284,-8.23715,-10986.9,-2604.29,-5.99931,-31.0568,69.7062,8067.8,7469.24,3343.05,-58.5251,163.912,70.3583,1157.36,-10497.8,-702.694,-10.3611,-53.2136,88.3851,8564.59,3159.19,2057.12,33.9068,-21.1479,10.1781
4.444,22461.0,4232.71,-1705.77,11.7786,52.3306,298.018,3450.5,4941.98,8608.33,27.5344,-27.0479,11.9536,-13024.8,16606.9,-5783.96,104.452,228.266,182.842,-15.6968,-10978.2,-2683.9,-5.64926,-31.5625,69.7267,8455.08,7186.88,3105.95,-52.295,167.233,72.296,1204.37,-10482.2,-733.881,-10.3396,-52.9662,88.3487,8586.42,3141.91,2088.21,32.9336,-21.0325,10.4521
4.4445,22332.4,4447.37,-1767.62,9.61558,50.5631,293.336,3472.52,5130.28,8549.05,27.3715,-27.2464,12.222,-13307.4,16339.3,-5833.15,105.062,226.126,181.402,-19.3169,-10969.7,-2757.84,-5.2527,-31.9567,69.8035,8849.97,6907.83,2882.48,-45.6594,170.313,74.1187,1251.19,-10466.7,-768.4,-10.3421,-52.7019,88.3017,8607.91,3123.04,2125.42,31.89,-20.9294,10.7552
4.445,22054.7,4764.69,-1198.33,2.42019,47.4764,287.605,3492.4,5203.0,8569.36,27.5322,-27.5082,13.223,-13831.6,16200.4,-5891.41,106.319,223.374,179.982,7.77905,-10963.6,-2786.45,-4.48411,-31.4585,70.331,9305.71,6655.31,2768.13,-35.7808,171.474,75.0214,1296.55,-10451.3,-829.584,-10.5358,-52.3026,88.1696,8626.72,3091.48,2211.63,30.283,-20.9252,11.2912
4.4455,21777.0,5082.01,-629.034,-4.77519,44.3897,281.875,3512.28,5275.73,8589.67,27.6928,-27.77,14.2241,-14355.9,16061.4,-5949.66,107.577,220.622,178.561,34.875,-10957.6,-2815.06,-3.71552,-30.9603,70.8584,9761.45,6402.79,2653.78,-25.9022,172.635,75.924,1341.91,-10435.8,-890.768,-10.7295,-51.9033,88.0376,8645.54,3059.93,2297.84,28.6759,-20.921,11.8272
4.446,21499.4,5399.33,-59.7412,-11.9706,41.303,276.144,3532.16,5348.45,8609.98,27.8534,-28.0318,15.2251,-14880.2,15922.5,-6007.92,108.834,217.869,177.14,61.9709,-10951.5,-2843.67,-2.94693,-30.4622,71.3859,10217.2,6150.27,2539.42,-16.0236,173.795,76.8267,1387.26,-10420.4,-951.952,-10.9232,-51.5039,87.9055,8664.35,3028.38,2384.05,27.0689,-20.9168,12.3633
4.4465,21221.7,5716.65,509.551,-19.166,38.2164,270.413,3552.04,5421.17,8630.29,28.0141,-28.2936,16.2261,-15404.5,15783.5,-6066.18,110.091,215.117,175.719,89.0668,-10945.5,-2872.28,-2.17834,-29.964,71.9134,10672.9,5897.75,2425.07,-6.14501,174.956,77.7294,1432.62,-10405.0,-1013.14,-11.1169,-51.1046,87.7735,8683.16,2996.82,2470.26,25.4618,-20.9126,12.8993
4.447,20944.0,6033.97,1078.84,-26.3613,35.1297,264.682,3571.92,5493.89,8650.6,28.1747,-28.5554,17.2271,-15928.7,15644.6,-6124.44,111.348,212.365,174.298,116.163,-10939.4,-2900.89,-1.40976,-29.4658,72.4408,11128.7,5645.24,2310.72,3.7336,176.117,78.6321,1477.98,-10389.5,-1074.32,-11.3106,-50.7053,87.6414,8701.97,2965.27,2556.47,23.8548,-20.9084,13.4353
4.4475,20666.3,6351.29,1648.14,-33.5567,32.043,258.952,3591.8,5566.62,8670.91,28.3353,-28.8172,18.2281,-16453.0,15505.6,-6182.7,112.605,209.612,172.877,143.259,-10933.3,-2929.5,-0.641169,-28.9676,72.9683,11584.4,5392.72,2196.37,13.6122,177.277,79.5347,1523.33,-10374.1,-1135.5,-11.5044,-50.306,87.5094,8720.79,2933.72,2642.68,22.2477,-20.9041,13.9713
4.448,20388.7,6668.61,2217.43,-40.7521,28.9563,253.221,3611.68,5639.34,8691.22,28.496,-29.079,19.2291,-16977.3,15366.7,-6240.96,113.862,206.86,171.456,170.355,-10927.3,-2958.11,0.127419,-28.4695,73.4958,12040.2,5140.2,2082.01,23.4908,178.438,80.4374,1568.69,-10358.6,-1196.69,-11.6981,-49.9067,87.3773,8739.6,2902.16,2728.9,20.6407,-20.8999,14.5074
4.4485,20111.0,6985.93,2786.72,-47.9475,25.8696,247.49,3631.55,5712.06,8711.53,28.6566,-29.3408,20.2302,-17501.6,15227.7,-6299.21,115.119,204.107,170.035,197.45,-10921.2,-2986.72,0.896006,-27.9713,74.0232,12495.9,4887.68,1967.66,33.3694,179.598,81.3401,1614.05,-10343.2,-1257.87,-11.8918,-49.5074,87.2453,8758.41,2870.61,2815.11,19.0336,-20.8957,15.0434
4.449,19789.3,7441.85,3240.12,-56.2106,22.5008,241.594,3651.81,5714.63,8730.86,28.7541,-29.6382,21.0278,-18024.1,15165.8,-6317.02,115.789,200.503,168.736,238.677,-10923.9,-2991.99,1.66647,-27.3236,74.5607,12947.2,4663.17,1859.19,43.4267,180.052,81.8423,1660.41,-10327.7,-1322.15,-12.1355,-49.0984,87.0839,8783.39,2833.23,2887.49,17.5997,-20.8767,15.4959
4.4495,19313.6,8382.86,3287.91,-68.2109,18.1447,235.118,3673.37,5471.68,8746.77,28.6308,-30.0603,21.1138,-18540.6,15373.6,-6193.25,114.408,193.916,167.861,329.361,-10957.2,-2915.55,2.44352,-26.1524,75.1329,13383.1,4536.71,1771.33,54.1095,178.028,80.9431,1710.3,-10311.9,-1397.24,-12.5541,-48.6557,86.8202,8829.95,2775.44,2911.45,16.7715,-20.8058,15.6563
4.45,18837.9,9323.87,3335.7,-80.2113,13.7886,228.641,3694.93,5228.72,8762.67,28.5074,-30.4824,21.1997,-19057.1,15581.4,-6069.48,113.026,187.329,166.987,420.045,-10990.4,-2839.11,3.22056,-24.9813,75.7051,13819.0,4410.25,1683.46,64.7922,176.005,80.0438,1760.19,-10296.1,-1472.34,-12.9728,-48.2129,86.5564,8876.51,2717.66,2935.42,15.9434,-20.7349,15.8166
4.4505,18362.3,10264.9,3383.48,-92.2116,9.43254,222.165,3716.5,4985.77,8778.58,28.384,-30.9045,21.2857,-19573.7,15789.2,-5945.7,111.645,180.743,166.113,510.728,-11023.7,-2762.67,3.99761,-23.8102,76.2773,14254.9,4283.78,1595.6,75.4749,173.982,79.1446,1810.08,-10280.3,-1547.44,-13.3915,-47.7702,86.2926,8923.08,2659.88,2959.39,15.1152,-20.664,15.9769
4.451,17886.6,11205.9,3431.27,-104.212,5.07645,215.689,3738.06,4742.81,8794.49,28.2606,-31.3266,21.3716,-20090.2,15997.0,-5821.93,110.263,174.156,165.238,601.412,-11057.0,-2686.23,4.77466,-22.639,76.8496,14690.8,4157.32,1507.73,86.1577,171.959,78.2453,1859.97,-10264.5,-1622.53,-13.8101,-47.3275,86.0288,8969.64,2602.09,2983.36,14.2871,-20.5931,16.1372
4.4515,17410.9,12146.9,3479.05,-116.212,0.720362,209.212,3759.62,4499.86,8810.39,28.1372,-31.7487,21.4576,-20606.7,16204.8,-5698.16,108.882,167.569,164.364,692.096,-11090.2,-2609.8,5.5517,-21.4679,77.4218,15126.7,4030.85,1419.87,96.8404,169.936,77.3461,1909.85,-10248.8,-1697.63,-14.2288,-46.8847,85.7651,9016.2,2544.31,3007.33,13.4589,-20.5222,16.2975
4.452,16935.2,13087.9,3526.84,-128.212,-3.63572,202.736,3781.19,4256.91,8826.3,28.0139,-32.1708,21.5435,-21123.2,16412.6,-5574.39,107.5,160.982,163.489,782.78,-11123.5,-2533.36,6.32875,-20.2968,77.994,15562.6,3904.39,1332.0,107.523,167.912,76.4468,1959.74,-10233.0,-1772.73,-14.6474,-46.442,85.5013,9062.76,2486.53,3031.29,12.6308,-20.4513,16.4579
4.4525,16459.5,14028.9,3574.63,-140.213,-7.99181,196.26,3802.75,4013.95,8842.21,27.8905,-32.5929,21.6295,-21639.7,16620.4,-5450.62,106.119,154.395,162.615,873.464,-11156.8,-2456.92,7.10579,-19.1256,78.5662,15998.4,3777.92,1244.14,118.206,165.889,75.5475,2009.63,-10217.2,-1847.83,-15.0661,-45.9993,85.2375,9109.32,2428.74,3055.26,11.8026,-20.3803,16.6182
4.453,15983.8,14969.9,3622.41,-152.213,-12.3479,189.784,3824.31,3771.0,8858.11,27.7671,-33.015,21.7154,-22156.2,16828.2,-5326.84,104.737,147.808,161.741,964.148,-11190.0,-2380.48,7.88284,-17.9545,79.1385,16434.3,3651.46,1156.27,128.889,163.866,74.6483,2059.52,-10201.4,-1922.92,-15.4848,-45.5565,84.9737,9155.88,2370.96,3079.23,10.9745,-20.3094,16.7785
4.4535,15776.3,16007.3,3289.34,-161.057,-14.7692,184.311,3848.38,3565.03,8875.96,27.5113,-33.4691,21.5792,-22579.9,17027.7,-5050.65,102.258,139.964,160.4,1047.5,-11204.0,-2307.25,8.50375,-16.7909,79.6542,16861.6,3598.22,1062.33,138.28,161.023,73.1744,2105.15,-10188.6,-2003.82,-15.9318,-45.0533,84.7364,9189.35,2319.77,3083.3,10.4193,-20.1739,16.849
4.454,16105.1,17237.3,2194.54,-163.587,-13.3211,180.847,3877.45,3433.02,8897.7,26.9907,-33.9871,20.9985,-22817.7,17210.7,-4469.61,97.5822,129.602,158.125,1116.17,-11179.4,-2240.44,8.81238,-15.6423,80.0568,17271.8,3691.43,956.218,145.088,156.541,70.5512,2142.25,-10181.6,-2096.3,-16.4357,-44.4291,84.552,9196.65,2281.76,3047.58,10.4099,-19.9091,16.74
4.4545,16434.0,18467.3,1099.74,-166.118,-11.873,177.382,3906.53,3301.02,8919.43,26.4701,-34.5051,20.4179,-23055.6,17393.6,-3888.56,92.9067,119.241,155.85,1184.84,-11154.8,-2173.63,9.12101,-14.4938,80.4595,17682.0,3784.65,850.109,151.896,152.06,67.9279,2179.36,-10174.7,-2188.78,-16.9396,-43.8048,84.3675,9203.95,2243.76,3011.86,10.4005,-19.6442,16.631
4.455,16762.8,19697.4,4.94781,-168.648,-10.4249,173.918,3935.6,3169.01,8941.17,25.9495,-35.0232,19.8372,-23293.5,17576.5,-3307.52,88.2312,108.88,153.576,1253.52,-11130.1,-2106.82,9.42965,-13.3452,80.8622,18092.2,3877.86,744.001,158.704,147.578,65.3047,2216.46,-10167.8,-2281.26,-17.4435,-43.1806,84.183,9211.25,2205.75,2976.14,10.3912,-19.3794,16.522
4.4555,17091.6,20927.4,-1089.85,-171.178,-8.97676,170.453,3964.68,3037.01,8962.9,25.4289,-35.5412,19.2566,-23531.3,17759.4,-2726.48,83.5556,98.5193,151.301,1322.19,-11105.5,-2040.01,9.73828,-12.1967,81.2649,18502.3,3971.07,637.893,165.512,143.096,62.6815,2253.56,-10160.8,-2373.75,-17.9474,-42.5564,83.9986,9218.54,2167.75,2940.41,10.3818,-19.1146,16.413
4.456,17420.4,22157.4,-2184.65,-173.709,-7.52864,166.988,3993.75,2905.0,8984.64,24.9084,-36.0593,18.676,-23769.2,17942.4,-2145.44,78.8801,88.1582,149.026,1390.87,-11080.9,-1973.19,10.0469,-11.0481,81.6676,18912.5,4064.29,531.784,172.32,138.614,60.0583,2290.67,-10153.9,-2466.23,-18.4513,-41.9321,83.8141,9225.84,2129.74,2904.69,10.3724,-18.8498,16.3039
4.4565,17749.2,23387.4,-3279.44,-176.239,-6.08052,163.524,4022.83,2773.0,9006.37,24.3878,-36.5773,18.0953,-24007.1,18125.3,-1564.4,74.2046,77.7971,146.752,1459.54,-11056.2,-1906.38,10.3556,-9.89957,82.0702,19322.7,4157.5,425.676,179.128,134.132,57.4351,2327.77,-10147.0,-2558.71,-18.9552,-41.3079,83.6297,9233.14,2091.74,2868.97,10.3631,-18.585,16.1949
4.457,18078.0,24617.5,-4374.24,-178.77,-4.6324,160.059,4051.9,2640.99,9028.11,23.8672,-37.0954,17.5147,-24245.0,18308.2,-983.354,69.5291,67.4361,144.477,1528.22,-11031.6,-1839.57,10.6642,-8.75101,82.4729,19732.9,4250.71,319.568,185.936,129.65,54.8118,2364.87,-10140.0,-2651.2,-19.4591,-40.6836,83.4452,9240.44,2053.73,2833.25,10.3537,-18.3201,16.0859
4.4575,18406.8,25847.5,-5469.04,-181.3,-3.18428,156.595,4080.98,2508.99,9049.84,23.3466,-37.6134,16.9341,-24482.8,18491.2,-402.312,64.8536,57.075,142.202,1596.89,-11007.0,-1772.76,10.9728,-7.60246,82.8756,20143.1,4343.92,213.459,192.745,125.168,52.1886,2401.98,-10133.1,-2743.68,-19.963,-40.0594,83.2608,9247.73,2015.73,2797.53,10.3443,-18.0553,15.9769
4.458,19017.3,26263.3,-6064.21,-182.352,-1.80822,153.591,4102.57,2469.58,9072.0,22.8697,-38.1524,16.4688,-24674.6,18607.7,7.41507,60.0742,46.8832,139.381,1626.18,-10994.8,-1730.69,11.1361,-6.63423,83.3201,20483.4,4496.94,61.1296,196.638,120.816,48.9268,2450.1,-10134.6,-2837.67,-20.2828,-39.291,83.0271,9252.36,1979.54,2764.18,10.3507,-17.8406,15.8053
4.4585,19980.0,25661.2,-6034.87,-181.557,-0.522224,151.163,4114.8,2545.93,9094.7,22.4476,-38.7176,16.1476,-24808.7,18641.3,202.999,55.165,36.9028,135.878,1606.22,-10998.2,-1719.56,11.1177,-5.89141,83.8168,20736.5,4724.7,-148.976,196.887,116.627,44.8667,2511.99,-10146.5,-2933.53,-20.3724,-38.3422,82.732,9253.65,1945.62,2733.79,10.3768,-17.6884,15.5557
4.459,20942.6,25059.2,-6005.52,-180.762,0.763769,148.735,4127.03,2622.27,9117.39,22.0255,-39.2828,15.8265,-24942.8,18674.8,398.583,50.2558,26.9225,132.374,1586.27,-11001.6,-1708.43,11.0992,-5.1486,84.3135,20989.6,4952.46,-359.082,197.136,112.438,40.8066,2573.89,-10158.5,-3029.4,-20.4619,-37.3935,82.4369,9254.94,1911.71,2703.41,10.4029,-17.5362,15.306
4.4595,21905.2,24457.1,-5976.17,-179.967,2.04976,146.306,4139.27,2698.62,9140.08,21.6034,-39.8479,15.5054,-25076.9,18708.4,594.167,45.3466,16.9421,128.871,1566.32,-11005.1,-1697.3,11.0808,-4.40578,84.8102,21242.6,5180.22,-569.188,197.385,108.249,36.7465,2635.78,-10170.4,-3125.26,-20.5515,-36.4447,82.1418,9256.24,1877.79,2673.03,10.429,-17.384,15.0564
4.46,22867.8,23855.1,-5946.83,-179.172,3.33576,143.878,4151.5,2774.97,9162.78,21.1813,-40.4131,15.1843,-25211.0,18742.0,789.751,40.4374,6.96179,125.367,1546.36,-11008.5,-1686.17,11.0624,-3.66297,85.3069,21495.7,5407.98,-779.293,197.634,104.059,32.6864,2697.68,-10182.4,-3221.13,-20.6411,-35.496,81.8466,9257.53,1843.87,2642.64,10.4551,-17.2318,14.8067
4.4605,23830.5,23253.0,-5917.48,-178.377,4.62175,141.45,4163.74,2851.31,9185.47,20.7591,-40.9783,14.8632,-25345.1,18775.6,985.335,35.5282,-3.01855,121.864,1526.41,-11011.9,-1675.04,11.0439,-2.92015,85.8036,21748.8,5635.73,-989.399,197.883,99.87,28.6263,2759.57,-10194.3,-3316.99,-20.7307,-34.5473,81.5515,9258.82,1809.96,2612.26,10.4812,-17.0797,14.557
4.461,24793.1,22651.0,-5888.14,-177.582,5.90774,139.022,4175.97,2927.66,9208.16,20.337,-41.5435,14.5421,-25479.3,18809.1,1180.92,30.619,-12.9989,118.36,1506.45,-11015.3,-1663.91,11.0255,-2.17734,86.3003,22001.9,5863.5,-1199.5,198.132,95.6808,24.5662,2821.47,-10206.3,-3412.86,-20.8202,-33.5985,81.2564,9260.11,1776.04,2581.88,10.5074,-16.9275,14.3074
4.4615,25755.7,22048.9,-5858.79,-176.787,7.19373,136.594,4188.21,3004.01,9230.86,19.9149,-42.1087,14.2209,-25613.4,18842.7,1376.5,25.7098,-22.9792,114.857,1486.5,-11018.7,-1652.78,11.0071,-1.43452,86.797,22255.0,6091.25,-1409.61,198.381,91.4915,20.5061,2883.36,-10218.3,-3508.72,-20.9098,-32.6498,80.9613,9261.4,1742.12,2551.5,10.5335,-16.7753,14.0577
4.462,26718.3,21446.8,-5829.44,-175.992,8.47973,134.166,4200.44,3080.35,9253.55,19.4928,-42.6738,13.8998,-25747.5,18876.3,1572.09,20.8006,-32.9596,111.353,1466.55,-11022.1,-1641.65,10.9886,-0.691704,87.2937,22508.0,6319.01,-1619.72,198.63,87.3023,16.446,2945.26,-10230.2,-3604.59,-20.9994,-31.7011,80.6662,9262.69,1708.2,2521.11,10.5596,-16.6231,13.8081
4.4625,27564.9,20262.4,-5868.33,-175.326,9.77571,129.682,4197.9,3157.63,9287.89,19.1006,-43.349,13.7495,-25838.1,18837.3,1359.26,17.0075,-40.7533,108.666,1432.62,-11026.6,-1627.62,11.0737,-0.110716,87.854,22770.1,6725.05,-1724.08,196.98,83.2822,12.9775,3008.19,-10236.8,-3664.24,-20.8809,-30.7354,80.4069,9286.78,1686.96,2490.39,10.5759,-16.493,13.6081
4.463,28318.5,18611.9,-5961.8,-174.762,11.0797,123.553,4183.54,3235.66,9331.55,18.7324,-44.1122,13.7358,-25893.9,18740.4,819.702,14.1073,-46.7977,106.632,1387.52,-11032.0,-1611.29,11.2416,0.340811,88.4654,23039.5,7273.71,-1743.86,193.813,79.3973,9.98234,3071.95,-10239.2,-3694.92,-20.596,-29.7563,80.1764,9329.09,1675.86,2459.4,10.5843,-16.3805,13.4479
4.4635,29072.2,16961.5,-6055.27,-174.198,12.3837,117.424,4169.18,3313.68,9375.21,18.3643,-44.8754,13.7221,-25949.7,18643.4,280.145,11.2071,-52.8421,104.598,1342.43,-11037.4,-1594.95,11.4094,0.792338,89.0768,23308.8,7822.37,-1763.64,190.645,75.5125,6.98715,3135.72,-10241.6,-3725.6,-20.3111,-28.7771,79.9458,9371.41,1664.75,2428.41,10.5928,-16.268,13.2877
4.464,29825.9,15311.1,-6148.74,-173.634,13.6877,111.295,4154.81,3391.71,9418.87,17.9961,-45.6385,13.7085,-26005.5,18546.5,-259.413,8.30697,-58.8865,102.564,1297.33,-11042.7,-1578.61,11.5773,1.24387,89.6881,23578.1,8371.03,-1783.42,187.477,71.6277,3.99196,3199.48,-10244.0,-3756.28,-20.0262,-27.798,79.7152,9413.72,1653.65,2397.42,10.6013,-16.1555,13.1275
4.4645,30579.5,13660.7,-6242.21,-173.07,14.9916,105.166,4140.45,3469.74,9462.52,17.6279,-46.4017,13.6948,-26061.4,18449.5,-798.97,5.40679,-64.931,100.53,1252.23,-11048.1,-1562.27,11.7451,1.69539,90.2995,23847.4,8919.7,-1803.2,184.309,67.7429,0.996764,3263.24,-10246.3,-3786.97,-19.7413,-26.8188,79.4847,9456.04,1642.54,2366.43,10.6097,-16.043,12.9674
4.465,31333.2,12010.2,-6335.68,-172.506,16.2956,99.0377,4126.09,3547.76,9506.18,17.2597,-47.1649,13.6811,-26117.2,18352.6,-1338.53,2.50661,-70.9754,98.4957,1207.13,-11053.5,-1545.93,11.913,2.14692,90.9108,24116.8,9468.36,-1822.98,181.141,63.858,-1.99843,3327.01,-10248.7,-3817.65,-19.4564,-25.8396,79.2541,9498.36,1631.44,2335.44,10.6182,-15.9305,12.8072
4.4655,32086.9,10359.8,-6429.15,-171.942,17.5996,92.9089,4111.73,3625.79,9549.84,16.8916,-47.928,13.6674,-26173.0,18255.7,-1878.08,-0.393565,-77.0198,96.4616,1162.03,-11058.9,-1529.59,12.0808,2.59845,91.5222,24386.1,10017.0,-1842.76,177.973,59.9732,-4.99362,3390.77,-10251.1,-3848.33,-19.1715,-24.8605,79.0236,9540.67,1620.33,2304.45,10.6267,-15.8179,12.647
4.466,32840.5,8709.37,-6522.62,-171.378,18.9036,86.7801,4097.37,3703.82,9593.5,16.5234,-48.6912,13.6537,-26228.8,18158.7,-2417.64,-3.29374,-83.0642,94.4275,1116.94,-11064.2,-1513.25,12.2487,3.04997,92.1335,24655.4,10565.7,-1862.54,174.805,56.0884,-7.98881,3454.53,-10253.5,-3879.01,-18.8866,-23.8813,78.793,9582.99,1609.23,2273.46,10.6351,-15.7054,12.4868
4.4665,33594.2,7058.94,-6616.09,-170.814,20.2076,80.6513,4083.01,3781.84,9637.16,16.1552,-49.4544,13.64,-26284.6,18061.8,-2957.2,-6.19392,-89.1086,92.3934,1071.84,-11069.6,-1496.92,12.4165,3.5015,92.7449,24924.7,11114.3,-1882.32,171.637,52.2035,-10.984,3518.3,-10255.8,-3909.69,-18.6017,-22.9022,78.5625,9625.3,1598.12,2242.47,10.6436,-15.5929,12.3266
4.467,34005.5,6072.94,-6706.61,-169.143,21.8243,72.9152,4040.44,3834.47,9659.57,15.7522,-50.2411,13.6252,-26316.7,17738.1,-3256.88,-7.7574,-93.779,90.3689,1035.14,-11120.2,-1497.34,12.5716,3.62887,93.1909,25011.7,11650.0,-1801.79,167.472,47.9037,-12.1757,3586.74,-10267.8,-3919.94,-18.2936,-21.8998,78.379,9660.21,1587.2,2237.84,10.6259,-15.425,12.1275
4.4675,34245.7,5419.16,-6795.65,-166.919,23.5973,64.3753,3983.77,3874.41,9671.35,15.3319,-51.0395,13.6098,-26337.0,17301.2,-3436.62,-8.65253,-97.7624,88.3491,1002.65,-11193.5,-1506.14,12.7202,3.59416,93.5542,25007.5,12179.1,-1671.12,162.807,43.3965,-12.4656,3657.52,-10284.6,-3919.97,-17.974,-20.8858,78.2192,9691.42,1576.36,2246.38,10.5952,-15.2295,11.9088
4.468,34485.9,4765.38,-6884.69,-164.695,25.3704,55.8355,3927.09,3914.35,9683.13,14.9115,-51.8379,13.5944,-26357.3,16864.2,-3616.36,-9.54766,-101.746,86.3293,970.152,-11266.8,-1514.94,12.8688,3.55945,93.9175,25003.4,12708.2,-1540.45,158.143,38.8892,-12.7555,3728.29,-10301.4,-3920.01,-17.6543,-19.8718,78.0593,9722.63,1565.52,2254.92,10.5645,-15.0339,11.6902
4.4685,34726.1,4111.59,-6973.72,-162.471,27.1435,47.2957,3870.42,3954.28,9694.91,14.4911,-52.6363,13.579,-26377.5,16427.3,-3796.1,-10.4428,-105.729,84.3095,937.658,-11340.1,-1523.73,13.0175,3.52474,94.2808,24999.2,13237.3,-1409.78,153.478,34.3819,-13.0454,3799.07,-10318.3,-3920.04,-17.3347,-18.8579,77.8994,9753.84,1554.68,2263.46,10.5339,-14.8383,11.4715
4.469,34966.3,3457.81,-7062.76,-160.247,28.9166,38.7558,3813.75,3994.22,9706.69,14.0707,-53.4347,13.5636,-26397.8,15990.3,-3975.84,-11.3379,-109.713,82.2897,905.163,-11413.4,-1532.53,13.1661,3.49003,94.6441,24995.0,13766.5,-1279.11,148.813,29.8746,-13.3353,3869.85,-10335.1,-3920.07,-17.015,-17.8439,77.7395,9785.04,1543.85,2272.01,10.5032,-14.6427,11.2529
4.4695,35206.5,2804.02,-7151.8,-158.023,30.6897,30.216,3757.08,4034.16,9718.47,13.6503,-54.2331,13.5482,-26418.1,15553.3,-4155.59,-12.2331,-113.696,80.2699,872.668,-11486.7,-1541.33,13.3147,3.45532,95.0074,24990.8,14295.6,-1148.43,144.149,25.3673,-13.6252,3940.63,-10351.9,-3920.11,-16.6953,-16.8299,77.5797,9816.25,1533.01,2280.55,10.4725,-14.4471,11.0343
4.47,35446.7,2150.24,-7240.84,-155.799,32.4627,21.6762,3700.4,4074.09,9730.26,13.2299,-55.0315,13.5328,-26438.4,15116.4,-4335.33,-13.1282,-117.679,78.2501,840.174,-11560.0,-1550.13,13.4634,3.42062,95.3707,24986.6,14824.7,-1017.76,139.484,20.86,-13.9151,4011.41,-10368.7,-3920.14,-16.3757,-15.8159,77.4198,9847.46,1522.17,2289.09,10.4418,-14.2515,10.8156
4.4705,35686.8,1496.45,-7329.88,-153.575,34.2358,13.1363,3643.73,4114.03,9742.04,12.8096,-55.83,13.5174,-26458.6,14679.4,-4515.07,-14.0233,-121.663,76.2303,807.679,-11633.3,-1558.93,13.612,3.38591,95.734,24982.4,15353.8,-887.089,134.82,16.3527,-14.205,4082.19,-10385.5,-3920.17,-16.056,-14.8019,77.2599,9878.67,1511.33,2297.63,10.4111,-14.056,10.597
4.471,35927.0,842.669,-7418.92,-151.351,36.0089,4.59649,3587.06,4153.96,9753.82,12.3892,-56.6284,13.502,-26478.9,14242.5,-4694.81,-14.9184,-125.646,74.2105,775.184,-11706.5,-1567.73,13.7606,3.3512,96.0973,24978.3,15882.9,-756.417,130.155,11.8454,-14.4949,4152.97,-10402.3,-3920.21,-15.7364,-13.788,77.1001,9909.87,1500.5,2306.17,10.3804,-13.8604,10.3784
4.4715,35771.8,1148.15,-7504.23,-148.306,37.7475,-2.71836,3540.35,4205.51,9765.26,12.1345,-57.4613,13.6162,-26408.7,13821.4,-4570.25,-15.187,-129.215,70.9022,776.407,-11769.5,-1598.25,13.9433,3.17161,96.4915,24714.2,16197.4,-543.695,124.675,6.53531,-13.3696,4216.39,-10420.4,-3894.11,-15.3745,-12.7858,77.0006,9914.61,1500.75,2288.68,10.303,-13.7493,10.357
4.472,35503.5,1727.71,-7588.46,-145.028,39.4762,-9.6832,3496.49,4260.36,9776.6,11.9271,-58.3041,13.7674,-26312.6,13404.9,-4358.75,-15.2765,-132.666,67.2258,787.264,-11829.4,-1634.98,14.1357,2.95062,96.8945,24375.9,16450.5,-307.532,118.963,0.995816,-11.8399,4277.72,-10439.0,-3860.56,-15.0006,-11.7869,76.9184,9911.78,1504.17,2263.75,10.2123,-13.6625,10.3919
4.4725,35235.2,2307.27,-7672.7,-141.749,41.2049,-16.6481,3452.62,4315.22,9787.94,11.7198,-59.147,13.9186,-26216.6,12988.4,-4147.24,-15.366,-136.116,63.5493,798.12,-11889.4,-1671.7,14.328,2.72964,97.2975,24037.5,16703.7,-71.3681,113.25,-4.54367,-10.3103,4339.04,-10457.5,-3827.01,-14.6267,-10.788,76.8362,9908.95,1507.6,2238.82,10.1215,-13.5756,10.4269
4.473,34966.9,2886.83,-7756.94,-138.471,42.9336,-23.6129,3408.76,4370.08,9799.28,11.5124,-59.9898,14.0699,-26120.5,12571.9,-3935.74,-15.4555,-139.567,59.8729,808.977,-11949.3,-1708.43,14.5204,2.50865,97.7005,23699.2,16956.8,164.796,107.538,-10.0832,-8.7806,4400.37,-10476.0,-3793.45,-14.2529,-9.78919,76.754,9906.12,1511.02,2213.89,10.0308,-13.4887,10.4618
4.4735,34698.6,3466.39,-7841.18,-135.192,44.6623,-30.5777,3364.9,4424.93,9810.62,11.305,-60.8326,14.2211,-26024.4,12155.4,-3724.23,-15.545,-143.017,56.1964,819.834,-12009.3,-1745.15,14.7128,2.28767,98.1035,23360.9,17209.9,400.959,101.825,-15.6227,-7.25094,4461.69,-10494.5,-3759.9,-13.879,-8.79033,76.6719,9903.29,1514.45,2188.96,9.9401,-13.4018,10.4968
4.474,34430.4,4045.95,-7925.42,-131.914,46.391,-37.5426,3321.04,4479.79,9821.96,11.0977,-61.6754,14.3723,-25928.4,11738.9,-3512.73,-15.6344,-146.468,52.52,830.69,-12069.2,-1781.88,14.9052,2.06668,98.5065,23022.6,17463.1,637.123,96.1128,-21.1621,-5.72129,4523.02,-10513.0,-3726.34,-13.5051,-7.79148,76.5897,9900.46,1517.87,2164.02,9.84938,-13.315,10.5317
4.4745,34162.1,4625.51,-8009.65,-128.635,48.1197,-44.5074,3277.17,4534.65,9833.3,10.8903,-62.5182,14.5235,-25832.3,11322.4,-3301.23,-15.7239,-149.919,48.8436,841.547,-12129.2,-1818.6,15.0975,1.8457,98.9095,22684.2,17716.2,873.287,90.4002,-26.7016,-4.19164,4584.34,-10531.6,-3692.79,-13.1312,-6.79262,76.5075,9897.63,1521.29,2139.09,9.75866,-13.2281,10.5667
4.475,33893.8,5205.07,-8093.89,-125.356,49.8484,-51.4723,3233.31,4589.51,9844.64,10.683,-63.3611,14.6748,-25736.2,10905.9,-3089.72,-15.8134,-153.369,45.1671,852.404,-12189.1,-1855.33,15.2899,1.62471,99.3125,22345.9,17969.3,1109.45,84.6877,-32.2411,-2.66198,4645.67,-10550.1,-3659.23,-12.7573,-5.79376,76.4253,9894.8,1524.72,2114.16,9.66793,-13.1412,10.6016
4.4755,33625.5,5784.62,-8178.13,-122.078,51.5771,-58.4371,3189.45,4644.36,9855.98,10.4756,-64.2039,14.826,-25640.2,10489.4,-2878.22,-15.9029,-156.82,41.4907,863.26,-12249.1,-1892.05,15.4823,1.40373,99.7155,22007.6,18222.5,1345.61,78.9751,-37.7806,-1.13233,4706.99,-10568.6,-3625.68,-12.3834,-4.79491,76.3431,9891.97,1528.14,2089.23,9.57721,-13.0543,10.6366
4.476,33212.5,6521.65,-8173.46,-118.372,52.5479,-63.2623,3178.37,4656.45,9872.74,10.3726,-65.0223,14.9907,-25292.0,10409.6,-2786.71,-16.2959,-158.892,37.2943,874.652,-12265.2,-1970.39,15.533,1.36728,100.085,21460.7,18200.3,1414.83,73.4831,-43.3015,0.934609,4724.56,-10587.5,-3575.31,-12.0777,-3.86527,76.3211,9913.67,1544.9,2033.57,9.28823,-12.887,10.7782
4.4765,32781.4,7278.36,-8157.67,-114.613,53.4239,-67.8201,3171.39,4663.19,9890.18,10.2827,-65.8376,15.1572,-24912.2,10371.9,-2710.19,-16.7267,-160.792,33.033,886.111,-12275.8,-2053.92,15.566,1.35391,100.451,20887.8,18143.6,1463.18,68.0187,-48.82,3.06871,4736.66,-10606.4,-3522.84,-11.7806,-2.94429,76.3066,9938.43,1563.32,1974.07,8.97446,-12.7097,10.9331
4.477,32350.3,8035.07,-8141.89,-110.853,54.3,-72.3778,3164.41,4669.93,9907.62,10.1927,-66.6529,15.3236,-24532.5,10334.2,-2633.68,-17.1576,-162.693,28.7716,897.57,-12286.4,-2137.46,15.599,1.34053,100.816,20314.9,18087.0,1511.52,62.5542,-54.3386,5.20281,4748.76,-10625.3,-3470.37,-11.4834,-2.02331,76.2921,9963.19,1581.74,1914.57,8.66069,-12.5323,11.0881
4.4775,31919.3,8791.78,-8126.1,-107.094,55.176,-76.9355,3157.43,4676.67,9925.05,10.1028,-67.4683,15.4901,-24152.8,10296.4,-2557.17,-17.5885,-164.593,24.5103,909.029,-12297.1,-2220.99,15.632,1.32715,101.181,19742.0,18030.4,1559.87,57.0897,-59.8571,7.33691,4760.87,-10644.3,-3417.9,-11.1862,-1.10233,76.2777,9987.95,1600.16,1855.07,8.34692,-12.355,11.243
4.478,31488.2,9548.49,-8110.32,-103.334,56.0521,-81.4933,3150.44,4683.41,9942.49,10.0128,-68.2836,15.6565,-23773.0,10258.7,-2480.65,-18.0194,-166.493,20.2489,920.488,-12307.7,-2304.53,15.6651,1.31378,101.547,19169.0,17973.7,1608.22,51.6253,-65.3756,9.47101,4772.97,-10663.2,-3365.43,-10.8891,-0.181347,76.2632,10012.7,1618.58,1795.57,8.03315,-12.1776,11.3979
4.4785,31057.1,10305.2,-8094.53,-99.5751,56.9281,-86.051,3143.46,4690.15,9959.93,9.92291,-69.099,15.823,-23393.3,10221.0,-2404.14,-18.4502,-168.393,15.9875,931.947,-12318.3,-2388.06,15.6981,1.3004,101.912,18596.1,17917.1,1656.56,46.1608,-70.8942,11.6051,4785.07,-10682.1,-3312.96,-10.5919,0.739634,76.2487,10037.5,1637.0,1736.07,7.71938,-12.0003,11.5529
4.479,30626.0,11061.9,-8078.75,-95.8157,57.8041,-90.6087,3136.48,4696.89,9977.37,9.83296,-69.9143,15.9894,-23013.6,10183.2,-2327.63,-18.8811,-170.293,11.7262,943.406,-12329.0,-2471.6,15.7311,1.28702,102.278,18023.2,17860.5,1704.91,40.6964,-76.4127,13.7392,4797.17,-10701.0,-3260.49,-10.2948,1.66062,76.2342,10062.2,1655.42,1676.57,7.40561,-11.8229,11.7078
4.4795,30194.9,11818.6,-8062.96,-92.0564,58.6802,-95.1665,3129.5,4703.63,9994.8,9.74302,-70.7296,16.1558,-22633.8,10145.5,-2251.11,-19.312,-172.194,7.46484,954.865,-12339.6,-2555.14,15.7641,1.27365,102.643,17450.3,17803.8,1753.25,35.2319,-81.9312,15.8733,4809.27,-10720.0,-3208.02,-9.9976,2.5816,76.2197,10087.0,1673.84,1617.07,7.09185,-11.6456,11.8628
4.48,29763.8,12575.3,-8047.18,-88.297,59.5563,-99.7242,3122.52,4710.37,10012.2,9.65308,-71.545,16.3223,-22254.1,10107.8,-2174.6,-19.7429,-174.094,3.20348,966.324,-12350.2,-2638.67,15.7971,1.26027,103.008,16877.3,17747.2,1801.6,29.7675,-87.4498,18.0074,4821.37,-10738.9,-3155.55,-9.70044,3.50258,76.2053,10111.7,1692.26,1557.57,6.77808,-11.4682,12.0177
4.4805,29330.2,12774.5,-7940.73,-85.4853,59.3285,-103.444,3142.3,4729.81,10014.4,9.47402,-72.3163,16.5469,-21735.5,10318.5,-2149.46,-20.7063,-174.631,-0.50415,979.685,-12364.3,-2705.87,15.7917,1.11366,103.508,16284.9,17557.7,1717.14,26.7534,-91.8435,19.5525,4780.35,-10789.6,-3078.93,-9.69128,4.3169,76.1703,10138.3,1674.31,1496.69,6.58965,-11.1305,12.1819
4.481,28896.5,12973.6,-7834.27,-82.6735,59.1008,-107.164,3162.09,4749.25,10016.5,9.29495,-73.0875,16.7715,-21216.9,10529.3,-2124.31,-21.6696,-175.169,-4.21178,993.046,-12378.4,-2773.07,15.7863,0.967054,104.008,15692.4,17368.1,1632.68,23.7394,-96.2372,21.0976,4739.32,-10840.3,-3002.3,-9.68212,5.13121,76.1353,10164.8,1656.36,1435.82,6.40123,-10.7929,12.346
4.4815,28462.8,13172.8,-7727.82,-79.8617,58.8731,-110.884,3181.88,4768.69,10018.6,9.11589,-73.8588,16.9962,-20698.3,10740.0,-2099.16,-22.633,-175.707,-7.91942,1006.41,-12392.4,-2840.28,15.7809,0.820445,104.508,15099.9,17178.6,1548.22,20.7254,-100.631,22.6427,4698.29,-10891.0,-2925.67,-9.67296,5.94553,76.1003,10191.3,1638.41,1374.95,6.21281,-10.4552,12.5102
4.482,28029.2,13371.9,-7621.37,-77.05,58.6453,-114.604,3201.66,4788.13,10020.7,8.93683,-74.6301,17.2208,-20179.7,10950.8,-2074.02,-23.5964,-176.245,-11.6271,1019.77,-12406.5,-2907.48,15.7755,0.673836,105.008,14507.4,16989.1,1463.76,17.7114,-105.025,24.1877,4657.27,-10941.7,-2849.04,-9.6638,6.75985,76.0653,10217.8,1620.46,1314.08,6.02438,-10.1176,12.6743
4.4825,27595.5,13571.1,-7514.92,-74.2382,58.4176,-118.324,3221.45,4807.57,10022.8,8.75777,-75.4014,17.4454,-19661.0,11161.5,-2048.87,-24.5598,-176.782,-15.3347,1033.13,-12420.6,-2974.68,15.7701,0.527226,105.508,13914.9,16799.5,1379.3,14.6974,-109.418,25.7328,4616.24,-10992.4,-2772.41,-9.65464,7.57417,76.0303,10244.3,1602.51,1253.21,5.83596,-9.77991,12.8385
4.483,27161.9,13770.2,-7408.47,-71.4264,58.1899,-122.044,3241.23,4827.02,10024.9,8.5787,-76.1727,17.6701,-19142.4,11372.3,-2023.72,-25.5232,-177.32,-19.0423,1046.49,-12434.7,-3041.88,15.7646,0.380617,106.007,13322.4,16610.0,1294.83,11.6834,-113.812,27.2779,4575.22,-11043.1,-2695.79,-9.64548,8.38848,75.9952,10270.8,1584.56,1192.34,5.64753,-9.44225,13.0026
4.4835,26728.2,13969.4,-7302.02,-68.6147,57.9622,-125.764,3261.02,4846.46,10027.0,8.39964,-76.944,17.8947,-18623.8,11583.0,-1998.58,-26.4866,-177.858,-22.75,1059.85,-12448.7,-3109.08,15.7592,0.234008,106.507,12729.9,16420.5,1210.37,8.66934,-118.206,28.823,4534.19,-11093.9,-2619.16,-9.63632,9.2028,75.9602,10297.3,1566.61,1131.46,5.45911,-9.10459,13.1668
4.484,26294.5,14168.5,-7195.56,-65.8029,57.7344,-129.484,3280.8,4865.9,10029.2,8.22058,-77.7153,18.1193,-18105.2,11793.8,-1973.43,-27.45,-178.396,-26.4576,1073.21,-12462.8,-3176.29,15.7538,0.0873986,107.007,12137.4,16230.9,1125.91,5.65533,-122.6,30.3681,4493.16,-11144.6,-2542.53,-9.62716,10.0171,75.9252,10323.8,1548.66,1070.59,5.27069,-8.76693,13.3309
4.4845,25863.6,14314.5,-7087.25,-63.1396,57.4266,-133.252,3297.52,4889.37,10031.6,8.04337,-78.4916,18.357,-17594.4,12002.1,-1940.87,-28.435,-178.899,-30.0799,1085.12,-12475.5,-3243.66,15.7327,-0.0200014,107.512,11550.8,16037.4,1034.76,2.96739,-126.86,31.8088,4450.29,-11193.9,-2465.21,-9.61251,10.7968,75.8891,10349.6,1530.49,1014.0,5.11761,-8.43027,13.4923
4.485,25454.0,14035.5,-6963.99,-61.6638,56.4777,-137.409,3289.72,4945.13,10036.4,7.88101,-79.3085,18.6995,-17146.2,12190.6,-1849.0,-29.5931,-179.126,-33.0193,1085.41,-12476.9,-3312.42,15.5861,0.186272,108.055,11010.8,15811.5,890.1,2.88804,-130.058,32.4148,4392.63,-11232.2,-2382.33,-9.55394,11.2995,75.8435,10370.4,1510.52,991.645,5.24731,-8.10152,13.6309
4.4855,25044.4,13756.4,-6840.73,-60.188,55.5289,-141.565,3281.91,5000.9,10041.2,7.71864,-80.1254,19.0419,-16698.1,12379.1,-1757.13,-30.7511,-179.353,-35.9587,1085.71,-12478.4,-3381.18,15.4396,0.392545,108.599,10470.8,15585.6,745.439,2.8087,-133.256,33.0208,4334.97,-11270.5,-2299.45,-9.49536,11.8022,75.7979,10391.2,1490.55,969.289,5.377,-7.77277,13.7695
4.486,24634.9,13477.4,-6717.48,-58.7122,54.58,-145.721,3274.1,5056.66,10046.1,7.55627,-80.9423,19.3843,-16249.9,12567.6,-1665.26,-31.9091,-179.581,-38.8982,1086.0,-12479.8,-3449.94,15.293,0.598819,109.142,9930.86,15359.7,600.778,2.72935,-136.454,33.6267,4277.31,-11308.8,-2216.57,-9.43678,12.3048,75.7523,10411.9,1470.58,946.933,5.5067,-7.44403,13.9081
4.4865,24225.3,13198.3,-6594.22,-57.2365,53.6312,-149.878,3266.3,5112.42,10050.9,7.39391,-81.7592,19.7267,-15801.7,12756.1,-1573.39,-33.0672,-179.808,-41.8376,1086.29,-12481.3,-3518.69,15.1464,0.805092,109.685,9390.88,15133.8,456.117,2.65,-139.651,34.2327,4219.65,-11347.1,-2133.69,-9.3782,12.8075,75.7066,10432.7,1450.61,924.577,5.6364,-7.11528,14.0467
4.487,23815.8,12919.3,-6470.97,-55.7607,52.6823,-154.034,3258.49,5168.18,10055.7,7.23154,-82.5761,20.0691,-15353.5,12944.6,-1481.52,-34.2252,-180.035,-44.7771,1086.59,-12482.7,-3587.45,14.9999,1.01137,110.229,8850.9,14908.0,311.455,2.57066,-142.849,34.8387,4161.99,-11385.4,-2050.81,-9.31962,13.3102,75.661,10453.5,1430.64,902.221,5.7661,-6.78653,14.1853
4.4875,23406.2,12640.3,-6347.71,-54.2849,51.7334,-158.19,3250.69,5223.94,10060.6,7.06917,-83.393,20.4116,-14905.3,13133.1,-1389.65,-35.3832,-180.263,-47.7165,1086.88,-12484.1,-3656.21,14.8533,1.21764,110.772,8310.93,14682.1,166.794,2.49131,-146.047,35.4446,4104.33,-11423.6,-1967.93,-9.26105,13.8129,75.6154,10474.3,1410.68,879.865,5.89579,-6.45779,14.3239
4.488,22996.6,12361.2,-6224.46,-52.8091,50.7846,-162.347,3242.88,5279.71,10065.4,6.90681,-84.2099,20.754,-14457.1,13321.5,-1297.78,-36.5412,-180.49,-50.656,1087.17,-12485.6,-3724.97,14.7067,1.42391,111.316,7770.95,14456.2,22.1327,2.41196,-149.244,36.0506,4046.67,-11461.9,-1885.05,-9.20247,14.3155,75.5698,10495.0,1390.71,857.509,6.02549,-6.12904,14.4625
4.4885,22587.1,12082.2,-6101.2,-51.3334,49.8357,-166.503,3235.07,5335.47,10070.3,6.74444,-85.0268,21.0964,-14009.0,13510.0,-1205.92,-37.6993,-180.717,-53.5954,1087.47,-12487.0,-3793.72,14.5602,1.63019,111.859,7230.97,14230.3,-122.529,2.33262,-152.442,36.6566,3989.01,-11500.2,-1802.17,-9.14389,14.8182,75.5242,10515.8,1370.74,835.153,6.15519,-5.80029,14.6011
4.489,22199.8,11793.2,-5988.73,-50.0426,48.8916,-170.677,3227.45,5380.21,10077.5,6.62126,-85.8538,21.4621,-13609.3,13661.3,-1130.12,-38.8461,-180.895,-56.4359,1088.24,-12497.8,-3848.68,14.432,1.83931,112.428,6702.11,14017.2,-262.979,2.64313,-155.423,37.1596,3931.41,-11539.0,-1726.11,-9.10035,15.2419,75.4626,10541.1,1347.22,814.919,6.31546,-5.47204,14.7177
4.4895,21890.5,11469.7,-5914.01,-49.3993,47.9641,-174.913,3220.44,5386.4,10093.1,6.63525,-86.7161,21.9092,-13379.5,13682.4,-1110.58,-39.9539,-180.901,-58.9303,1090.7,-12541.0,-3855.36,14.3682,2.05842,113.084,6212.17,13849.0,-388.691,4.31817,-157.645,37.3023,3874.03,-11579.5,-1673.94,-9.10942,15.3894,75.345,10582.3,1311.26,802.116,6.58276,-5.14553,14.7575
4.49,21581.2,11146.2,-5839.28,-48.7559,47.0367,-179.149,3213.44,5392.59,10108.7,6.64923,-87.5784,22.3563,-13149.7,13703.5,-1091.05,-41.0616,-180.907,-61.4247,1093.16,-12584.2,-3862.03,14.3044,2.27753,113.74,5722.23,13680.7,-514.404,5.99321,-159.867,37.445,3816.66,-11619.9,-1621.76,-9.1185,15.5368,75.2274,10623.4,1275.31,789.313,6.85006,-4.81901,14.7973
4.4905,21271.9,10822.7,-5764.56,-48.1126,46.1092,-183.385,3206.44,5398.77,10124.3,6.66321,-88.4406,22.8035,-12919.9,13724.6,-1071.51,-42.1694,-180.913,-63.9191,1095.62,-12627.4,-3868.71,14.2405,2.49664,114.396,5232.29,13512.5,-640.116,7.66824,-162.088,37.5877,3759.28,-11660.4,-1569.59,-9.12757,15.6842,75.1097,10664.6,1239.35,776.509,7.11735,-4.4925,14.837
4.491,20962.6,10499.1,-5689.83,-47.4693,45.1818,-187.621,3199.44,5404.96,10139.9,6.67719,-89.3029,23.2506,-12690.0,13745.7,-1051.97,-43.2771,-180.918,-66.4134,1098.08,-12670.7,-3875.38,14.1767,2.71575,115.053,4742.35,13344.2,-765.829,9.34328,-164.31,37.7304,3701.9,-11700.9,-1517.41,-9.13665,15.8316,74.9921,10705.8,1203.4,763.706,7.38465,-4.16598,14.8768
4.4915,20653.3,10175.6,-5615.11,-46.826,44.2543,-191.856,3192.44,5411.15,10155.5,6.69118,-90.1652,23.6977,-12460.2,13766.8,-1032.44,-44.3849,-180.924,-68.9078,1100.55,-12713.9,-3882.06,14.1129,2.93486,115.709,4252.41,13176.0,-891.541,11.0183,-166.532,37.873,3644.52,-11741.3,-1465.24,-9.14572,15.9791,74.8745,10746.9,1167.45,750.903,7.65195,-3.83946,14.9165
4.492,20344.0,9852.09,-5540.38,-46.1827,43.3269,-196.092,3185.43,5417.33,10171.1,6.70516,-91.0275,24.1448,-12230.4,13787.8,-1012.9,-45.4927,-180.93,-71.4022,1103.01,-12757.1,-3888.73,14.0491,3.15397,116.365,3762.47,13007.7,-1017.25,12.6933,-168.754,38.0157,3587.14,-11781.8,-1413.06,-9.15479,16.1265,74.7568,10788.1,1131.49,738.099,7.91925,-3.51295,14.9563
4.4925,20034.6,9528.57,-5465.66,-45.5394,42.3994,-200.328,3178.43,5423.52,10186.7,6.71914,-91.8897,24.592,-12000.6,13808.9,-993.362,-46.6004,-180.936,-73.8966,1105.47,-12800.3,-3895.41,13.9853,3.37308,117.021,3272.53,12839.5,-1142.97,14.3684,-170.976,38.1584,3529.76,-11822.3,-1360.89,-9.16387,16.2739,74.6392,10829.2,1095.54,725.296,8.18655,-3.18643,14.996
4.493,19725.3,9205.05,-5390.93,-44.8961,41.4719,-204.564,3171.43,5429.71,10202.3,6.73312,-92.752,25.0391,-11770.8,13830.0,-973.825,-47.7082,-180.942,-76.3909,1107.93,-12843.5,-3902.08,13.9214,3.59219,117.678,2782.58,12671.2,-1268.68,16.0434,-173.198,38.3011,3472.38,-11862.7,-1308.71,-9.17294,16.4213,74.5216,10870.4,1059.58,712.493,8.45384,-2.85992,15.0358
4.4935,19462.9,8912.31,-5317.65,-44.4192,40.6676,-208.502,3174.38,5423.05,10218.1,6.75516,-93.634,25.47,-11602.2,13831.1,-986.945,-48.7323,-180.826,-78.701,1102.52,-12884.3,-3904.48,13.8558,3.83051,118.295,2317.29,12546.0,-1372.38,17.784,-175.259,38.4198,3407.05,-11901.3,-1263.14,-9.1547,16.4674,74.4044,10905.4,1030.91,704.21,8.76419,-2.54916,15.0276
4.494,19294.2,8681.15,-5247.25,-44.2754,40.1095,-211.843,3197.22,5390.7,10234.5,6.79329,-94.5557,25.8684,-11556.2,13792.3,-1065.38,-49.5894,-180.465,-80.6424,1081.37,-12920.1,-3898.34,13.7865,4.10722,118.835,1901.3,12506.8,-1432.06,19.6556,-177.0,38.4904,3325.8,-11936.1,-1230.78,-9.08182,16.3109,74.2881,10928.1,1016.8,704.967,9.16063,-2.26991,14.9237
4.4945,19125.6,8449.98,-5176.86,-44.1316,39.5514,-215.183,3220.06,5358.35,10250.8,6.83143,-95.4773,26.2668,-11510.2,13753.4,-1143.81,-50.4464,-180.105,-82.5839,1060.22,-12955.9,-3892.2,13.7173,4.38394,119.374,1485.31,12467.7,-1491.74,21.5273,-178.741,38.5611,3244.55,-11971.0,-1198.41,-9.00894,16.1543,74.1718,10950.8,1002.69,705.724,9.55706,-1.99066,14.8199
4.495,18956.9,8218.82,-5106.46,-43.9878,38.9934,-218.524,3242.9,5325.99,10267.1,6.86956,-96.3989,26.6652,-11464.1,13714.6,-1222.25,-51.3035,-179.745,-84.5254,1039.08,-12991.7,-3886.06,13.648,4.66065,119.914,1069.32,12428.5,-1551.41,23.3989,-180.482,38.6317,3163.31,-12005.8,-1166.04,-8.93607,15.9978,74.0554,10973.6,988.58,706.481,9.9535,-1.71141,14.716
4.4955,18788.3,7987.66,-5036.06,-43.8439,38.4353,-221.865,3265.74,5293.64,10283.4,6.9077,-97.3206,27.0636,-11418.1,13675.7,-1300.68,-52.1605,-179.385,-86.4668,1017.93,-13027.5,-3879.91,13.5787,4.93737,120.453,653.332,12389.3,-1611.09,25.2706,-182.223,38.7024,3082.06,-12040.6,-1133.67,-8.86319,15.8413,73.9391,10996.3,974.47,707.237,10.3499,-1.43216,14.6121
4.496,18619.6,7756.5,-4965.66,-43.7001,37.8772,-225.205,3288.58,5261.29,10299.7,6.94583,-98.2422,27.462,-11372.1,13636.9,-1379.12,-53.0176,-179.025,-88.4083,996.782,-13063.4,-3873.77,13.5094,5.21408,120.993,237.342,12350.1,-1670.77,27.1422,-183.964,38.773,3000.81,-12075.4,-1101.31,-8.79031,15.6847,73.8228,11019.0,960.36,707.994,10.7464,-1.15291,14.5082
4.4965,18451.0,7525.33,-4895.27,-43.5563,37.3191,-228.546,3311.42,5228.94,10316.0,6.98397,-99.1638,27.8604,-11326.1,13598.0,-1457.55,-53.8746,-178.665,-90.3497,975.634,-13099.2,-3867.63,13.4402,5.4908,121.533,-178.649,12310.9,-1730.45,29.0139,-185.705,38.8437,2919.56,-12110.3,-1068.94,-8.71743,15.5282,73.7065,11041.7,946.251,708.751,11.1428,-0.873662,14.4043
4.497,18282.3,7294.17,-4824.87,-43.4124,36.761,-231.887,3334.26,5196.59,10332.3,7.0221,-100.085,28.2589,-11280.0,13559.2,-1535.99,-54.7317,-178.305,-92.2912,954.487,-13135.0,-3861.48,13.3709,5.76751,122.072,-594.639,12271.8,-1790.12,30.8855,-187.446,38.9144,2838.32,-12145.1,-1036.57,-8.64456,15.3717,73.5902,11064.4,932.141,709.508,11.5393,-0.594413,14.3004
4.4975,18113.6,7063.01,-4754.47,-43.2686,36.203,-235.228,3357.1,5164.24,10348.6,7.06024,-101.007,28.6573,-11234.0,13520.4,-1614.42,-55.5887,-177.945,-94.2326,933.339,-13170.8,-3855.34,13.3016,6.04423,122.612,-1010.63,12232.6,-1849.8,32.7572,-189.187,38.985,2757.07,-12179.9,-1004.21,-8.57168,15.2151,73.4739,11087.1,918.031,710.265,11.9357,-0.315164,14.1965
4.498,18011.8,6849.18,-4670.12,-43.2884,35.686,-238.004,3376.09,5146.26,10362.4,7.13263,-101.969,29.0403,-11209.9,13459.0,-1696.98,-56.1958,-177.604,-95.9188,918.176,-13208.9,-3834.85,13.211,6.16626,123.106,-1398.83,12199.8,-1876.85,34.327,-190.642,39.241,2691.14,-12215.5,-979.391,-8.43981,14.9618,73.3317,11109.7,907.434,715.876,12.3804,-0.0533497,14.1022
4.4985,17993.4,6657.02,-4568.32,-43.5128,35.2203,-240.074,3390.29,5146.26,10373.1,7.24784,-102.982,29.4042,-11213.2,13369.4,-1784.69,-56.4904,-177.286,-97.2858,910.492,-13249.9,-3796.43,13.0936,6.09495,123.544,-1752.28,12175.1,-1863.12,35.5196,-191.739,39.7286,2644.35,-12252.0,-964.017,-8.2342,14.5873,73.1571,11132.1,901.227,727.554,12.8856,0.186672,14.0198
4.499,17975.0,6464.86,-4466.52,-43.7372,34.7546,-242.145,3404.48,5146.25,10383.7,7.36304,-103.995,29.768,-11216.6,13279.8,-1872.4,-56.785,-176.969,-98.6529,902.808,-13290.9,-3758.0,12.9762,6.02363,123.982,-2105.73,12150.3,-1849.39,36.7121,-192.837,40.2163,2597.56,-12288.5,-948.643,-8.0286,14.2129,72.9825,11154.5,895.021,739.233,13.3907,0.426694,13.9375
4.4995,17956.7,6272.7,-4364.72,-43.9616,34.289,-244.216,3418.68,5146.25,10394.4,7.47825,-105.008,30.1319,-11219.9,13190.2,-1960.12,-57.0797,-176.652,-100.02,895.124,-13332.0,-3719.58,12.8589,5.95231,124.42,-2459.18,12125.6,-1835.65,37.9047,-193.934,40.704,2550.78,-12325.0,-933.27,-7.82299,13.8384,72.8079,11176.9,888.814,750.911,13.8958,0.666716,13.8551
4.5,17938.3,6080.54,-4262.92,-44.186,33.8233,-246.286,3432.87,5146.24,10405.0,7.59346,-106.02,30.4958,-11223.3,13100.6,-2047.83,-57.3743,-176.334,-101.387,887.44,-13373.0,-3681.16,12.7415,5.88099,124.857,-2812.64,12100.8,-1821.92,39.0972,-195.032,41.1916,2503.99,-12361.5,-917.896,-7.61738,13.464,72.6333,11199.3,882.608,762.589,14.4009,0.906738,13.7727
4.5005,17919.9,5888.38,-4161.12,-44.4104,33.3577,-248.357,3447.06,5146.24,10415.7,7.70867,-107.033,30.8596,-11226.6,13011.0,-2135.54,-57.6689,-176.017,-102.754,879.756,-13414.0,-3642.73,12.6241,5.80968,125.295,-3166.09,12076.1,-1808.18,40.2898,-196.129,41.6793,2457.2,-12398.0,-902.523,-7.41177,13.0895,72.4587,11221.7,876.401,774.267,14.9061,1.14676,13.6904
4.501,17901.6,5696.22,-4059.32,-44.6348,32.892,-250.427,3461.26,5146.23,10426.4,7.82388,-108.046,31.2235,-11229.9,12921.4,-2223.25,-57.9636,-175.7,-104.121,872.072,-13455.0,-3604.31,12.5068,5.73836,125.733,-3519.54,12051.4,-1794.45,41.4823,-197.227,42.1669,2410.42,-12434.5,-887.149,-7.20616,12.7151,72.2842,11244.2,870.195,785.946,15.4112,1.38678,13.608
4.5015,17883.2,5504.06,-3957.52,-44.8592,32.4263,-252.498,3475.45,5146.22,10437.0,7.93909,-109.059,31.5873,-11233.3,12831.8,-2310.96,-58.2582,-175.382,-105.488,864.388,-13496.0,-3565.89,12.3894,5.66704,126.17,-3872.99,12026.6,-1780.72,42.6749,-198.324,42.6546,2363.63,-12471.0,-871.775,-7.00056,12.3406,72.1096,11266.6,863.988,797.624,15.9163,1.6268,13.5256
4.502,17864.8,5311.9,-3855.72,-45.0835,31.9607,-254.568,3489.64,5146.22,10447.7,8.05429,-110.071,31.9512,-11236.6,12742.2,-2398.68,-58.5528,-175.065,-106.855,856.704,-13537.0,-3527.47,12.272,5.59573,126.608,-4226.44,12001.9,-1766.98,43.8674,-199.422,43.1422,2316.84,-12507.5,-856.402,-6.79495,11.9662,71.935,11289.0,857.782,809.302,16.4214,1.86683,13.4433
4.5025,17894.9,5110.55,-3755.14,-45.2493,31.5316,-256.148,3493.06,5159.6,10454.6,8.21802,-111.116,32.4088,-11253.6,12642.7,-2466.18,-58.5921,-174.935,-108.113,844.508,-13559.9,-3492.98,12.1846,5.34387,127.01,-4519.76,12002.0,-1721.04,44.4938,-200.134,44.0009,2279.23,-12520.5,-838.221,-6.55522,11.593,71.7915,11321.6,852.35,816.832,16.9429,1.95315,13.333
4.503,17963.7,4901.86,-3655.55,-45.3682,31.1319,-257.334,3487.86,5183.68,10458.6,8.42055,-112.187,32.9415,-11281.5,12535.2,-2517.51,-58.4271,-174.954,-109.283,828.702,-13568.1,-3461.64,12.1212,4.9476,127.382,-4764.96,12022.1,-1649.32,44.6671,-200.538,45.1563,2248.94,-12514.6,-817.796,-6.2882,11.2208,71.6729,11362.5,847.538,821.045,17.4774,1.91652,13.2005
4.5035,18032.6,4693.16,-3555.95,-45.4871,30.7322,-258.52,3482.65,5207.76,10462.6,8.62308,-113.258,33.4742,-11309.4,12427.7,-2568.85,-58.2621,-174.973,-110.454,812.896,-13576.4,-3430.3,12.0577,4.55132,127.755,-5010.17,12042.2,-1577.59,44.8404,-200.942,46.3117,2218.66,-12508.7,-797.37,-6.02118,10.8486,71.5543,11403.3,842.726,825.257,18.0118,1.87988,13.0679
4.504,18101.4,4484.47,-3456.36,-45.606,30.3324,-259.707,3477.45,5231.85,10466.6,8.82562,-114.328,34.0069,-11337.4,12320.2,-2620.19,-58.0972,-174.992,-111.624,797.09,-13584.7,-3398.96,11.9942,4.15504,128.127,-5255.37,12062.3,-1505.87,45.0138,-201.346,47.4672,2188.38,-12502.9,-776.944,-5.75416,10.4764,71.4357,11444.1,837.914,829.469,18.5463,1.84325,12.9353
4.5045,18170.3,4275.77,-3356.76,-45.725,29.9327,-260.893,3472.24,5255.93,10470.6,9.02815,-115.399,34.5396,-11365.3,12212.7,-2671.52,-57.9322,-175.011,-112.795,781.284,-13593.0,-3367.62,11.9308,3.75877,128.5,-5500.57,12082.4,-1434.15,45.1871,-201.75,48.6226,2158.1,-12497.0,-756.518,-5.48713,10.1043,71.3171,11485.0,833.102,833.681,19.0808,1.80661,12.8028
4.505,18239.1,4067.07,-3257.17,-45.8439,29.5329,-262.079,3467.04,5280.02,10474.6,9.23068,-116.47,35.0723,-11393.2,12105.3,-2722.86,-57.7672,-175.03,-113.965,765.478,-13601.2,-3336.28,11.8673,3.36249,128.872,-5745.78,12102.5,-1362.43,45.3604,-202.154,49.778,2127.81,-12491.2,-736.092,-5.22011,9.73208,71.1985,11525.8,828.29,837.893,19.6153,1.76998,12.6702
4.5055,18308.0,3858.38,-3157.57,-45.9628,29.1332,-263.266,3461.83,5304.1,10478.6,9.43322,-117.541,35.605,-11421.1,11997.8,-2774.19,-57.6022,-175.049,-115.135,749.672,-13609.5,-3304.94,11.8038,2.96621,129.245,-5990.98,12122.6,-1290.71,45.5338,-202.558,50.9334,2097.53,-12485.3,-715.667,-4.95309,9.3599,71.0799,11566.6,823.478,842.105,20.1497,1.73335,12.5376
4.506,18376.8,3649.68,-3057.98,-46.0817,28.7334,-264.452,3456.63,5328.18,10482.6,9.63575,-118.611,36.1377,-11449.1,11890.3,-2825.53,-57.4372,-175.068,-116.306,733.867,-13617.8,-3273.6,11.7404,2.56994,129.617,-6236.18,12142.7,-1218.99,45.7071,-202.962,52.0889,2067.25,-12479.4,-695.241,-4.68607,8.98772,70.9613,11607.4,818.666,846.318,20.6842,1.69671,12.4051
4.5065,18445.7,3440.99,-2958.38,-46.2006,28.3337,-265.639,3451.43,5352.27,10486.6,9.83828,-119.682,36.6704,-11477.0,11782.8,-2876.86,-57.2722,-175.087,-117.476,718.061,-13626.1,-3242.25,11.6769,2.17366,129.99,-6481.39,12162.8,-1147.27,45.8804,-203.366,53.2443,2036.96,-12473.6,-674.815,-4.41905,8.61554,70.8427,11648.3,813.854,850.53,21.2187,1.66008,12.2725
4.507,18525.1,3196.9,-2888.42,-46.2437,28.1941,-266.503,3446.55,5380.37,10492.7,10.0528,-120.818,37.3322,-11487.1,11676.8,-2910.09,-56.9555,-175.425,-118.518,702.394,-13644.5,-3226.29,11.671,1.5447,130.402,-6674.65,12122.0,-1089.2,45.3017,-203.003,54.7891,2030.92,-12489.4,-663.565,-4.05368,8.20715,70.6868,11677.8,802.972,855.853,21.8793,1.56674,12.1032
4.5075,18609.8,2935.11,-2833.28,-46.249,28.1847,-267.206,3441.83,5410.48,10499.9,10.2734,-121.988,38.0584,-11488.2,11571.6,-2934.27,-56.5629,-175.922,-119.496,686.798,-13668.0,-3218.02,11.694,0.799394,130.835,-6841.95,12050.9,-1037.95,44.3469,-202.256,56.5287,2036.99,-12516.1,-656.902,-3.63913,7.78065,70.5122,11701.7,789.055,861.731,22.6029,1.44504,11.9156
4.508,18694.5,2673.32,-2778.13,-46.2542,28.1752,-267.909,3437.11,5440.6,10507.1,10.494,-123.157,38.7847,-11489.3,11466.4,-2958.45,-56.1703,-176.419,-120.473,671.202,-13691.5,-3209.75,11.7169,0.05409,131.268,-7009.24,11979.8,-986.696,43.3922,-201.509,58.2683,2043.06,-12542.8,-650.24,-3.22459,7.35415,70.3376,11725.6,775.137,867.609,23.3265,1.32334,11.728
4.5085,18779.2,2411.53,-2722.99,-46.2594,28.1658,-268.612,3432.39,5470.71,10514.3,10.7145,-124.326,39.511,-11490.4,11361.1,-2982.63,-55.7778,-176.917,-121.451,655.605,-13715.0,-3201.48,11.7398,-0.691214,131.701,-7176.54,11908.6,-935.445,42.4374,-200.762,60.0079,2049.13,-12569.5,-643.578,-2.81005,6.92765,70.163,11749.5,761.22,873.487,24.0501,1.20164,11.5404
4.509,18863.9,2149.74,-2667.84,-46.2647,28.1563,-269.315,3427.67,5500.82,10521.4,10.9351,-125.495,40.2373,-11491.6,11255.9,-3006.81,-55.3852,-177.414,-122.429,640.008,-13738.5,-3193.2,11.7628,-1.43652,132.134,-7343.83,11837.5,-884.194,41.4826,-200.015,61.7475,2055.2,-12596.2,-636.916,-2.39551,6.50116,69.9884,11773.4,747.303,879.365,24.7737,1.07994,11.3528
4.5095,18948.6,1887.95,-2612.7,-46.2699,28.1469,-270.017,3422.95,5530.93,10528.6,11.1556,-126.665,40.9635,-11492.7,11150.6,-3030.99,-54.9926,-177.911,-123.406,624.412,-13762.0,-3184.93,11.7857,-2.18182,132.567,-7511.13,11766.4,-832.943,40.5279,-199.267,63.4871,2061.27,-12622.9,-630.253,-1.98096,6.07466,69.8138,11797.3,733.385,885.244,25.4973,0.958237,11.1652
4.51,19033.3,1626.16,-2557.55,-46.2752,28.1374,-270.72,3418.23,5561.05,10535.8,11.3762,-127.834,41.6898,-11493.8,11045.4,-3055.17,-54.6,-178.409,-124.384,608.816,-13785.6,-3176.66,11.8087,-2.92712,133.0,-7678.43,11695.2,-781.691,39.5731,-198.52,65.2267,2067.34,-12649.6,-623.591,-1.56642,5.64816,69.6392,11821.2,719.468,891.122,26.221,0.836537,10.9776
4.5105,19118.0,1364.37,-2502.41,-46.2804,28.1279,-271.423,3413.51,5591.16,10543.0,11.5968,-129.003,42.4161,-11495.0,10940.1,-3079.34,-54.2074,-178.906,-125.362,593.219,-13809.1,-3168.39,11.8316,-3.67243,133.433,-7845.72,11624.1,-730.44,38.6184,-197.773,66.9663,2073.41,-12676.3,-616.929,-1.15188,5.22166,69.4646,11845.0,705.55,897.0,26.9446,0.714838,10.79
4.511,19202.7,1102.58,-2447.27,-46.2857,28.1185,-272.126,3408.8,5621.27,10550.1,11.8173,-130.172,43.1424,-11496.1,10834.9,-3103.52,-53.8148,-179.403,-126.339,577.623,-13832.6,-3160.11,11.8545,-4.41773,133.866,-8013.02,11553.0,-679.189,37.6636,-197.026,68.7059,2079.49,-12703.0,-610.267,-0.737337,4.79516,69.29,11868.9,691.633,902.878,27.6682,0.593138,10.6024
4.5115,19243.8,801.561,-2375.74,-46.3184,28.1262,-272.592,3410.54,5638.7,10559.8,12.0516,-131.367,43.8647,-11468.3,10778.7,-3126.96,-53.359,-180.182,-127.176,556.676,-13869.3,-3150.1,11.9354,-5.03848,134.254,-8100.54,11404.8,-651.171,36.0567,-194.842,70.3639,2083.19,-12705.9,-575.815,-0.392947,4.2504,69.1906,11895.6,684.731,901.852,28.5577,0.367764,10.5162
4.512,19272.5,489.332,-2299.52,-46.359,28.1388,-272.989,3414.14,5652.49,10570.1,12.2898,-132.569,44.586,-11432.3,10736.5,-3150.18,-52.885,-181.042,-127.972,534.2,-13909.9,-3139.6,12.0328,-5.62364,134.63,-8165.28,11234.6,-629.792,34.2634,-192.247,71.9986,2086.22,-12701.9,-533.424,-0.0686001,3.67186,69.1127,11923.1,679.833,898.854,29.4947,0.112769,10.4589
4.5125,19301.2,177.103,-2223.31,-46.3995,28.1514,-273.387,3417.74,5666.29,10580.5,12.528,-133.771,45.3072,-11396.3,10694.4,-3173.4,-52.411,-181.901,-128.769,511.724,-13950.4,-3129.09,12.1303,-6.2088,135.006,-8230.01,11064.3,-608.412,32.4701,-189.652,73.6333,2089.26,-12698.0,-491.033,0.255746,3.09331,69.0349,11950.6,674.935,895.855,30.4316,-0.142226,10.4017
4.513,19329.9,-135.126,-2147.1,-46.4401,28.1641,-273.784,3421.33,5680.09,10590.8,12.7662,-134.973,46.0285,-11360.2,10652.2,-3196.62,-51.937,-182.761,-129.565,489.249,-13991.0,-3118.59,12.2277,-6.79396,135.382,-8294.74,10894.1,-587.032,30.6768,-187.057,75.2681,2092.29,-12694.0,-448.642,0.580093,2.51477,68.957,11978.1,670.037,892.857,31.3685,-0.397221,10.3444
4.5135,19358.6,-447.354,-2070.89,-46.4807,28.1767,-274.182,3424.93,5693.89,10601.1,13.0044,-136.175,46.7497,-11324.2,10610.1,-3219.84,-51.463,-183.62,-130.361,466.773,-14031.5,-3108.09,12.3251,-7.37912,135.758,-8359.48,10723.9,-565.652,28.8836,-184.462,76.9028,2095.32,-12690.0,-406.251,0.904439,1.93622,68.8791,12005.7,665.14,889.858,32.3055,-0.652216,10.2871
4.514,19387.3,-759.583,-1994.67,-46.5212,28.1893,-274.579,3428.52,5707.68,10611.5,13.2426,-137.377,47.471,-11288.2,10567.9,-3243.06,-50.9891,-184.479,-131.158,444.297,-14072.1,-3097.58,12.4226,-7.96428,136.134,-8424.21,10553.7,-544.272,27.0903,-181.867,78.5375,2098.35,-12686.1,-363.86,1.22879,1.35768,68.8013,12033.2,660.242,886.859,33.2424,-0.907211,10.2299
4.5145,19416.0,-1071.81,-1918.46,-46.5618,28.2019,-274.977,3432.12,5721.48,10621.8,13.4809,-138.579,48.1922,-11252.1,10525.7,-3266.28,-50.5151,-185.339,-131.954,421.822,-14112.6,-3087.08,12.52,-8.54944,136.511,-8488.95,10383.5,-522.892,25.297,-179.272,80.1722,2101.39,-12682.1,-321.469,1.55313,0.77913,68.7234,12060.7,655.344,883.861,34.1794,-1.16221,10.1726
4.515,19444.7,-1384.04,-1842.25,-46.6024,28.2145,-275.374,3435.72,5735.28,10632.2,13.7191,-139.781,48.9135,-11216.1,10483.6,-3289.5,-50.0411,-186.198,-132.75,399.346,-14153.2,-3076.57,12.6175,-9.1346,136.887,-8553.68,10213.3,-501.513,23.5038,-176.677,81.8069,2104.42,-12678.1,-279.078,1.87748,0.200584,68.6456,12088.2,650.446,880.862,35.1163,-1.4172,10.1154
4.5155,19473.4,-1696.27,-1766.04,-46.643,28.2271,-275.771,3439.31,5749.07,10642.5,13.9573,-140.984,49.6347,-11180.1,10441.4,-3312.72,-49.5671,-187.058,-133.547,376.871,-14193.7,-3066.07,12.7149,-9.71976,137.263,-8618.42,10043.1,-480.133,21.7105,-174.082,83.4416,2107.45,-12674.2,-236.687,2.20183,-0.377961,68.5677,12115.7,645.548,877.864,36.0533,-1.6722,10.0581
4.516,19423.8,-1932.32,-1698.56,-46.6378,28.0631,-275.88,3432.21,5732.69,10661.8,14.1128,-142.193,50.3213,-11110.0,10433.1,-3330.58,-49.0253,-187.981,-134.085,379.593,-14239.4,-3033.31,12.8033,-10.3759,137.606,-8620.38,9843.53,-460.217,19.7106,-170.276,84.6104,2142.71,-12669.2,-175.978,2.41406,-1.06043,68.4348,12141.7,641.646,875.538,36.8584,-1.99908,10.0236
4.5165,19364.5,-2158.84,-1632.17,-46.6269,27.877,-275.953,3423.77,5712.53,10682.3,14.2579,-143.403,51.0035,-11035.7,10429.1,-3347.77,-48.4749,-188.913,-134.592,385.465,-14285.7,-2997.78,12.8905,-11.0409,137.946,-8614.5,9640.3,-440.484,17.6849,-166.318,85.721,2181.99,-12664.0,-112.978,2.61229,-1.75588,68.2949,12167.5,637.869,873.297,37.647,-2.33495,9.99183
4.517,19305.2,-2385.36,-1565.79,-46.616,27.691,-276.025,3415.33,5692.38,10702.8,14.4031,-144.613,51.6857,-10961.3,10425.1,-3364.96,-47.9246,-189.845,-135.099,391.337,-14332.0,-2962.24,12.9777,-11.7059,138.286,-8608.62,9437.07,-420.751,15.6592,-162.361,86.8316,2221.28,-12658.9,-49.9786,2.81051,-2.45133,68.1551,12193.3,634.091,871.055,38.4356,-2.67083,9.9601
4.5175,19245.9,-2611.88,-1499.4,-46.6051,27.5049,-276.098,3406.89,5672.22,10723.2,14.5483,-145.824,52.3679,-10887.0,10421.0,-3382.15,-47.3743,-190.777,-135.605,397.21,-14378.3,-2926.7,13.065,-12.3708,138.625,-8602.73,9233.84,-401.018,13.6336,-158.403,87.9422,2260.56,-12653.7,13.021,3.00874,-3.14679,68.0153,12219.2,630.314,868.814,39.2243,-3.0067,9.92836
4.518,19186.6,-2838.41,-1433.02,-46.5942,27.3188,-276.17,3398.45,5652.07,10743.7,14.6934,-147.034,53.0501,-10812.7,10417.0,-3399.34,-46.8239,-191.708,-136.112,403.082,-14424.5,-2891.17,13.1522,-13.0358,138.965,-8596.85,9030.62,-381.285,11.6079,-154.446,89.0527,2299.85,-12648.6,76.0205,3.20696,-3.84224,67.8755,12245.0,626.536,866.573,40.0129,-3.34257,9.89663
4.5185,19127.3,-3064.93,-1366.63,-46.5834,27.1327,-276.243,3390.01,5631.91,10764.2,14.8386,-148.244,53.7323,-10738.4,10413.0,-3416.53,-46.2736,-192.64,-136.618,408.954,-14470.8,-2855.63,13.2394,-13.7008,139.305,-8590.97,8827.39,-361.552,9.58217,-150.489,90.1633,2339.14,-12643.5,139.02,3.40519,-4.53769,67.7356,12270.8,622.759,864.331,40.8016,-3.67844,9.8649
4.519,19067.9,-3291.45,-1300.25,-46.5725,26.9466,-276.316,3381.57,5611.75,10784.6,14.9838,-149.454,54.4146,-10664.0,10408.9,-3433.72,-45.7232,-193.572,-137.125,414.826,-14517.1,-2820.1,13.3267,-14.3658,139.644,-8585.09,8624.16,-341.819,7.55648,-146.531,91.2739,2378.42,-12638.3,202.02,3.60341,-5.23315,67.5958,12296.7,618.982,862.09,41.5902,-4.01432,9.83316
4.5195,19008.6,-3517.98,-1233.86,-46.5616,26.7605,-276.388,3373.13,5591.6,10805.1,15.1289,-150.665,55.0968,-10589.7,10404.9,-3450.91,-45.1729,-194.504,-137.631,420.698,-14563.4,-2784.56,13.4139,-15.0308,139.984,-8579.2,8420.93,-322.086,5.53078,-142.574,92.3844,2417.71,-12633.2,265.019,3.80164,-5.9286,67.456,12322.5,615.204,859.849,42.3788,-4.35019,9.80143
4.52,18949.3,-3744.5,-1167.48,-46.5507,26.5744,-276.461,3364.69,5571.44,10825.5,15.2741,-151.875,55.779,-10515.4,10400.8,-3468.1,-44.6226,-195.435,-138.138,426.57,-14609.7,-2749.03,13.5012,-15.6958,140.324,-8573.32,8217.7,-302.353,3.50509,-138.616,93.495,2456.99,-12628.1,328.019,3.99986,-6.62406,67.3161,12348.3,611.427,857.607,43.1675,-4.68606,9.7697
4.5205,18823.3,-3855.05,-1128.26,-45.8471,26.1764,-275.835,3342.63,5557.69,10842.3,15.3311,-153.145,56.3694,-10429.1,10439.2,-3506.48,-44.2294,-196.212,-138.416,483.053,-14609.0,-2709.52,13.6277,-16.3388,140.807,-8558.66,7987.56,-247.737,2.11495,-134.527,93.4986,2486.27,-12603.3,352.802,4.10277,-7.31952,67.1623,12375.5,618.613,844.076,43.5742,-4.93295,9.81392
4.521,18697.2,-3965.6,-1089.04,-45.1435,25.7784,-275.21,3320.58,5543.94,10859.0,15.3881,-154.414,56.9598,-10342.7,10477.6,-3544.87,-43.8361,-196.989,-138.693,539.536,-14608.3,-2670.01,13.7543,-16.9817,141.29,-8544.0,7757.42,-193.12,0.72481,-130.437,93.5021,2515.55,-12578.5,377.585,4.20568,-8.01499,67.0084,12402.7,625.798,830.545,43.9809,-5.17984,9.85814
4.5215,18571.2,-4076.15,-1049.83,-44.44,25.3804,-274.585,3298.52,5530.19,10875.7,15.4451,-155.684,57.5502,-10256.4,10515.9,-3583.25,-43.4429,-197.765,-138.971,596.019,-14607.6,-2630.5,13.8808,-17.6247,141.773,-8529.33,7527.29,-138.503,-0.66533,-126.348,93.5057,2544.83,-12553.7,402.368,4.30858,-8.71045,66.8545,12430.0,632.984,817.014,44.3876,-5.42672,9.90237
4.522,18445.1,-4186.69,-1010.61,-43.7364,24.9824,-273.959,3276.46,5516.43,10892.4,15.5021,-156.954,58.1406,-10170.1,10554.3,-3621.63,-43.0497,-198.542,-139.249,652.502,-14606.9,-2590.99,14.0074,-18.2677,142.256,-8514.67,7297.15,-83.8865,-2.05547,-122.258,93.5092,2574.11,-12529.0,427.151,4.41149,-9.40592,66.7007,12457.2,640.17,803.483,44.7944,-5.67361,9.94659
4.5225,18319.1,-4297.24,-971.391,-43.0328,24.5845,-273.334,3254.41,5502.68,10909.1,15.5591,-158.223,58.7311,-10083.8,10592.6,-3660.01,-42.6565,-199.318,-139.526,708.985,-14606.2,-2551.48,14.1339,-18.9107,142.74,-8500.0,7067.01,-29.2698,-3.44561,-118.168,93.5127,2603.39,-12504.2,451.934,4.51439,-10.1014,66.5468,12484.4,647.356,789.952,45.2011,-5.9205,9.99081
4.523,18193.0,-4407.79,-932.174,-42.3292,24.1865,-272.708,3232.35,5488.93,10925.8,15.6161,-159.493,59.3215,-9997.46,10631.0,-3698.4,-42.2633,-200.095,-139.804,765.468,-14605.5,-2511.97,14.2605,-19.5537,143.223,-8485.34,6836.88,25.347,-4.83575,-114.079,93.5163,2632.67,-12479.4,476.717,4.6173,-10.7969,66.3929,12511.6,654.542,776.421,45.6078,-6.16739,10.035
4.5235,18067.0,-4518.34,-892.957,-41.6256,23.7885,-272.083,3210.29,5475.18,10942.5,15.6731,-160.762,59.9119,-9911.14,10669.4,-3736.78,-41.8701,-200.871,-140.082,821.951,-14604.8,-2472.46,14.387,-20.1966,143.706,-8470.68,6606.74,79.9637,-6.22589,-109.989,93.5198,2661.95,-12454.7,501.5,4.7202,-11.4923,66.2391,12538.8,661.728,762.89,46.0146,-6.41427,10.0793
4.524,17941.0,-4628.89,-853.739,-40.9221,23.3905,-271.458,3188.24,5461.43,10959.2,15.7301,-162.032,60.5023,-9824.82,10707.7,-3775.16,-41.4768,-201.648,-140.359,878.434,-14604.1,-2432.95,14.5136,-20.8396,144.189,-8456.01,6376.6,134.58,-7.61603,-105.9,93.5234,2691.23,-12429.9,526.283,4.82311,-12.1878,66.0852,12566.0,668.914,749.359,46.4213,-6.66116,10.1235
4.5245,17814.9,-4739.65,-820.533,-39.6575,22.9827,-270.751,3166.53,5447.53,10975.2,15.7928,-163.314,61.0936,-9734.97,10744.2,-3809.72,-41.1509,-202.394,-140.625,932.026,-14602.0,-2394.91,14.6319,-21.4627,144.665,-8444.53,6146.3,190.614,-8.85045,-101.925,93.4039,2721.04,-12408.7,552.333,4.90518,-12.8812,65.9247,12591.1,673.496,736.444,46.7948,-6.8905,10.1683
4.525,17688.5,-4852.15,-835.416,-33.9049,22.4966,-269.393,3147.59,5432.46,10985.3,15.9013,-164.694,61.6917,-9616.88,10765.6,-3813.69,-41.3629,-202.896,-140.8,962.493,-14589.5,-2368.67,14.6842,-21.9265,145.079,-8458.47,5914.63,257.982,-8.83906,-98.8651,92.2997,2755.11,-12415.7,588.516,4.82057,-13.5583,65.7114,12599.7,657.243,728.456,46.903,-6.97945,10.2174
4.5255,17562.1,-4964.65,-850.299,-28.1522,22.0106,-268.035,3128.66,5417.39,10995.4,16.0098,-166.074,62.2897,-9498.79,10786.9,-3817.66,-41.575,-203.398,-140.974,992.96,-14577.0,-2342.43,14.7366,-22.3904,145.493,-8472.42,5682.96,325.35,-8.82766,-95.8055,91.1955,2789.19,-12422.8,624.699,4.73596,-14.2355,65.4981,12608.2,640.991,720.467,47.0112,-7.06841,10.2665
4.526,17435.7,-5077.15,-865.181,-22.3996,21.5245,-266.677,3109.73,5402.31,11005.5,16.1182,-167.454,62.8878,-9380.7,10808.3,-3821.62,-41.7871,-203.9,-141.148,1023.43,-14564.5,-2316.18,14.789,-22.8542,145.908,-8486.36,5451.29,392.719,-8.81627,-92.746,90.0913,2823.26,-12429.8,660.883,4.65136,-14.9126,65.2848,12616.7,624.739,712.479,47.1193,-7.15736,10.3156
4.5265,17309.3,-5189.64,-880.064,-16.6469,21.0384,-265.32,3090.79,5387.24,11015.6,16.2267,-168.834,63.4859,-9262.61,10829.6,-3825.59,-41.9991,-204.402,-141.322,1053.89,-14552.0,-2289.94,14.8413,-23.318,146.322,-8500.31,5219.62,460.087,-8.80488,-89.6864,88.9872,2857.34,-12436.9,697.066,4.56675,-15.5897,65.0714,12625.3,608.487,704.49,47.2275,-7.24631,10.3648
4.527,17182.9,-5302.14,-894.947,-10.8943,20.5524,-263.962,3071.86,5372.17,11025.7,16.3352,-170.214,64.084,-9144.52,10851.0,-3829.56,-42.2112,-204.904,-141.496,1084.36,-14539.5,-2263.7,14.8937,-23.7819,146.737,-8514.25,4987.95,527.455,-8.79349,-86.6269,87.883,2891.41,-12443.9,733.249,4.48214,-16.2668,64.8581,12633.8,592.234,696.502,47.3356,-7.33526,10.4139
4.5275,17056.5,-5414.64,-909.83,-5.14167,20.0663,-262.604,3052.93,5357.1,11035.8,16.4437,-171.593,64.6821,-9026.43,10872.3,-3833.52,-42.4232,-205.406,-141.67,1114.83,-14527.0,-2237.46,14.9461,-24.2457,147.151,-8528.2,4756.28,594.823,-8.7821,-83.5673,86.7788,2925.48,-12451.0,769.432,4.39753,-16.944,64.6448,12642.3,575.982,688.513,47.4438,-7.42421,10.463
4.528,16930.1,-5527.13,-924.713,0.610967,19.5802,-261.246,3034.0,5342.03,11045.9,16.5522,-172.973,65.2802,-8908.35,10893.7,-3837.49,-42.6353,-205.908,-141.844,1145.3,-14514.5,-2211.21,14.9984,-24.7095,147.565,-8542.14,4524.61,662.192,-8.77071,-80.5078,85.6746,2959.56,-12458.0,805.616,4.31292,-17.6211,64.4315,12650.9,559.73,680.525,47.5519,-7.51317,10.5122
4.5285,16803.7,-5639.63,-939.595,6.3636,19.0942,-259.888,3015.06,5326.96,11056.0,16.6607,-174.353,65.8783,-8790.26,10915.1,-3841.46,-42.8473,-206.41,-142.019,1175.76,-14502.0,-2184.97,15.0508,-25.1734,147.98,-8556.09,4292.94,729.56,-8.75932,-77.4482,84.5704,2993.63,-12465.1,841.799,4.22832,-18.2982,64.2182,12659.4,543.478,672.536,47.6601,-7.60212,10.5613
4.529,16698.5,-5830.23,-951.197,14.534,18.1649,-258.573,2999.99,5309.39,11065.9,16.7679,-175.738,66.4694,-8636.92,10948.4,-3807.53,-43.5819,-206.667,-142.216,1204.27,-14493.0,-2160.5,15.0974,-25.6091,148.413,-8570.41,4078.22,791.416,-8.53636,-74.7393,83.3171,3030.67,-12462.9,874.464,4.12702,-18.991,63.9864,12664.2,528.474,668.206,47.6906,-7.6549,10.615
4.5295,16667.0,-6294.15,-951.315,31.1663,15.6842,-257.404,2998.44,5283.05,11075.1,16.8706,-177.137,67.0361,-8360.21,11023.5,-3641.0,-46.1452,-206.065,-142.494,1225.91,-14496.3,-2142.22,15.1236,-25.9462,148.912,-8586.03,3922.79,833.98,-7.57289,-73.2579,81.5414,3078.09,-12428.1,894.815,3.96731,-19.7387,63.6899,12656.0,517.837,676.68,47.4494,-7.58107,10.6846
4.53,16635.6,-6758.08,-951.433,47.7987,13.2035,-256.236,2996.89,5256.72,11084.3,16.9734,-178.536,67.6027,-8083.51,11098.7,-3474.47,-48.7085,-205.463,-142.772,1247.56,-14499.6,-2123.94,15.1499,-26.2833,149.411,-8601.66,3767.36,876.545,-6.60942,-71.7764,79.7658,3125.51,-12393.3,915.166,3.8076,-20.4864,63.3935,12647.8,507.2,685.154,47.2082,-7.50725,10.7543
4.5305,16604.1,-7222.01,-951.552,64.4311,10.7228,-255.068,2995.34,5230.39,11093.5,17.0761,-179.936,68.1694,-7806.8,11173.8,-3307.94,-51.2719,-204.861,-143.05,1269.21,-14502.9,-2105.66,15.1761,-26.6204,149.91,-8617.28,3611.93,919.109,-5.64595,-70.295,77.9901,3172.92,-12358.6,935.516,3.64789,-21.234,63.0971,12639.7,496.563,693.628,46.967,-7.43342,10.824
4.531,16572.7,-7685.94,-951.67,81.0635,8.24209,-253.9,2993.79,5204.06,11102.7,17.1788,-181.335,68.736,-7530.1,11249.0,-3141.41,-53.8352,-204.259,-143.328,1290.85,-14506.2,-2087.38,15.2024,-26.9576,150.409,-8632.91,3456.5,961.673,-4.68249,-68.8135,76.2145,3220.34,-12323.8,955.867,3.48818,-21.9817,62.8007,12631.5,485.926,702.102,46.7258,-7.3596,10.8936
4.5315,16541.3,-8149.87,-951.788,97.6959,5.76139,-252.732,2992.24,5177.73,11111.9,17.2815,-182.734,69.3027,-7253.39,11324.1,-2974.88,-56.3985,-203.657,-143.606,1312.5,-14509.5,-2069.1,15.2287,-27.2947,150.908,-8648.53,3301.07,1004.24,-3.71902,-67.332,74.4388,3267.76,-12289.0,976.218,3.32847,-22.7294,62.5043,12623.3,475.29,710.577,46.4846,-7.28577,10.9633
4.532,16509.8,-8613.79,-951.906,114.328,3.28069,-251.564,2990.69,5151.39,11121.2,17.3843,-184.134,69.8693,-6976.69,11399.2,-2808.35,-58.9618,-203.055,-143.884,1334.14,-14512.8,-2050.82,15.2549,-27.6318,151.407,-8664.16,3145.64,1046.8,-2.75555,-65.8506,72.6632,3315.17,-12254.3,996.569,3.16876,-23.477,62.2078,12615.1,464.653,719.051,46.2434,-7.21195,11.0329
4.5325,16478.4,-9077.72,-952.024,130.961,0.799995,-250.396,2989.14,5125.06,11130.4,17.487,-185.533,70.436,-6699.98,11474.4,-2641.82,-61.5252,-202.453,-144.162,1355.79,-14516.1,-2032.54,15.2812,-27.969,151.906,-8679.78,2990.21,1089.37,-1.79208,-64.3691,70.8876,3362.59,-12219.5,1016.92,3.00905,-24.2247,61.9114,12607.0,454.016,727.525,46.0022,-7.13812,11.1026
4.533,16446.9,-9541.65,-952.142,147.593,-1.6807,-249.228,2987.59,5098.73,11139.6,17.5897,-186.933,71.0026,-6423.28,11549.5,-2475.29,-64.0885,-201.851,-144.44,1377.43,-14519.4,-2014.26,15.3074,-28.3061,152.405,-8695.41,2834.78,1131.93,-0.828616,-62.8876,69.1119,3410.01,-12184.8,1037.27,2.84934,-24.9724,61.615,12598.8,443.379,735.999,45.761,-7.0643,11.1722
4.5335,16280.5,-10166.1,-679.2,165.415,-6.99521,-249.521,2992.45,5077.35,11161.1,17.7052,-188.376,71.5562,-5953.94,11614.7,-2255.32,-68.2554,-199.849,-145.178,1396.03,-14525.4,-1998.24,15.3402,-28.5979,152.943,-8703.53,2693.02,1143.97,0.259766,-61.8122,67.1701,3457.06,-12159.9,1056.03,2.68669,-25.6981,61.279,12580.3,425.058,789.99,45.2366,-6.9863,11.2186
4.534,15843.9,-11111.7,139.861,185.615,-17.9773,-252.734,3010.14,5065.86,11207.4,17.8462,-189.909,72.0834,-5099.34,11659.8,-1928.48,-75.6296,-195.045,-146.835,1408.53,-14537.0,-1986.76,15.386,-28.7991,153.557,-8696.67,2578.6,1094.95,1.59798,-61.5487,64.8958,3503.41,-12155.0,1071.62,2.51815,-26.3799,60.864,12541.3,391.367,935.016,44.1457,-6.89996,11.2185
4.5345,15407.3,-12057.2,958.923,205.815,-28.9595,-255.947,3027.83,5054.38,11253.7,17.9872,-191.441,72.6107,-4244.74,11705.0,-1601.63,-83.0037,-190.242,-148.492,1421.03,-14548.6,-1975.27,15.4318,-29.0003,154.172,-8689.81,2464.19,1045.93,2.93619,-61.2853,62.6215,3549.75,-12150.1,1087.21,2.3496,-27.0616,60.4489,12502.3,357.676,1080.04,43.0547,-6.81361,11.2183
4.535,14970.8,-13002.7,1777.99,226.015,-39.9416,-259.16,3045.51,5042.89,11300.0,18.1282,-192.973,73.1379,-3390.13,11750.1,-1274.79,-90.3778,-185.439,-150.149,1433.53,-14560.3,-1963.78,15.4776,-29.2015,154.786,-8682.95,2349.77,996.912,4.2744,-61.0219,60.3473,3596.09,-12145.1,1102.8,2.18106,-27.7434,60.0339,12463.3,323.985,1225.07,41.9638,-6.72726,11.2182
4.5355,14534.2,-13948.3,2597.05,246.215,-50.9237,-262.374,3063.2,5031.4,11346.3,18.2692,-194.505,73.6652,-2535.53,11795.3,-947.944,-97.7519,-180.636,-151.805,1446.02,-14571.9,-1952.3,15.5234,-29.4027,155.401,-8676.08,2235.36,947.894,5.61261,-60.7584,58.073,3642.44,-12140.2,1118.39,2.01252,-28.4252,59.6188,12424.2,290.294,1370.09,40.8729,-6.64092,11.2181
4.536,14097.6,-14893.8,3416.11,266.415,-61.9058,-265.587,3080.89,5019.92,11392.6,18.4102,-196.038,74.1924,-1680.93,11840.4,-621.1,-105.126,-175.833,-153.462,1458.52,-14583.5,-1940.81,15.5692,-29.6039,156.015,-8669.22,2120.94,898.875,6.95082,-60.495,55.7987,3688.78,-12135.2,1133.97,1.84397,-29.1069,59.2038,12385.2,256.603,1515.12,39.782,-6.55457,11.2179
4.5365,13661.1,-15839.4,4235.17,286.615,-72.888,-268.8,3098.58,5008.43,11438.9,18.5512,-197.57,74.7197,-826.331,11885.6,-294.256,-112.5,-171.03,-155.119,1471.02,-14595.1,-1929.32,15.615,-29.8051,156.63,-8662.36,2006.53,849.857,8.28903,-60.2316,53.5244,3735.12,-12130.3,1149.56,1.67543,-29.7887,58.7887,12346.2,222.912,1660.15,38.691,-6.46823,11.2178
4.537,13224.5,-16784.9,5054.23,306.815,-83.8701,-272.014,3116.27,4996.95,11485.1,18.6922,-199.102,75.2469,28.2706,11930.7,32.5887,-119.874,-166.226,-156.776,1483.52,-14606.7,-1917.83,15.6608,-30.0063,157.244,-8655.49,1892.11,800.838,9.62724,-59.9681,51.2502,3781.47,-12125.4,1165.15,1.50689,-30.4705,58.3736,12307.2,189.221,1805.17,37.6001,-6.38188,11.2176
4.5375,12788.0,-17730.4,5873.29,327.015,-94.8522,-275.227,3133.95,4985.46,11531.4,18.8332,-200.634,75.7742,882.872,11975.9,359.433,-127.248,-161.423,-158.433,1496.02,-14618.3,-1906.35,15.7066,-30.2075,157.858,-8648.63,1777.7,751.82,10.9655,-59.7047,48.9759,3827.81,-12120.4,1180.74,1.33834,-31.1522,57.9586,12268.1,155.53,1950.2,36.5092,-6.29553,11.2175
4.538,11709.5,-18358.9,7245.17,343.231,-108.997,-279.358,3148.2,4976.44,11593.0,19.0039,-202.308,76.3122,2256.72,12052.6,1229.04,-135.233,-158.384,-160.041,1514.08,-14643.4,-1874.28,15.7374,-30.4036,158.501,-8602.0,1760.88,664.127,11.6321,-59.2697,46.5712,3874.0,-12119.0,1170.45,1.02108,-31.9313,57.4909,12217.4,121.2,2196.33,35.0205,-6.34334,11.3394
4.5385,9828.63,-18590.9,9308.05,354.467,-127.096,-284.637,3158.14,4970.52,11673.6,19.2115,-204.157,76.8638,4279.63,12168.8,2777.1,-143.981,-157.551,-161.588,1539.1,-14685.4,-1816.49,15.7495,-30.5932,159.179,-8505.67,1866.07,528.089,11.4594,-58.6202,44.0035,3919.99,-12121.9,1127.81,0.517906,-32.8318,56.9574,12151.9,86.0719,2568.85,33.0345,-6.55883,11.6139
4.539,7947.78,-18823.0,11370.9,365.702,-145.195,-289.916,3168.09,4964.59,11754.3,19.4192,-206.006,77.4153,6302.53,12285.0,4325.16,-152.729,-156.718,-163.136,1564.12,-14727.4,-1758.69,15.7615,-30.7828,159.857,-8409.34,1971.26,392.052,11.2867,-57.9706,41.4358,3965.98,-12124.8,1085.18,0.0147347,-33.7324,56.424,12086.4,50.9437,2941.37,31.0485,-6.77432,11.8884
4.5395,6066.92,-19055.1,13433.8,376.938,-163.294,-295.194,3178.03,4958.66,11834.9,19.6268,-207.856,77.9668,8325.44,12401.2,5873.22,-161.477,-155.884,-164.683,1589.14,-14769.4,-1700.9,15.7736,-30.9724,160.535,-8313.01,2076.45,256.015,11.114,-57.3211,38.868,4011.98,-12127.8,1042.54,-0.488437,-34.633,55.8905,12021.0,15.8155,3313.89,29.0626,-6.98982,12.1629
4.54,4186.07,-19287.1,15496.7,388.174,-181.393,-300.473,3187.98,4952.73,11915.6,19.8345,-209.705,78.5184,10348.3,12517.4,7421.28,-170.225,-155.051,-166.23,1614.16,-14811.4,-1643.11,15.7856,-31.162,161.213,-8216.68,2181.64,119.978,10.9412,-56.6716,36.3003,4057.97,-12130.7,999.911,-0.991609,-35.5335,55.357,11955.5,-19.3128,3686.41,27.0766,-7.20531,12.4375
4.5405,2305.21,-19519.2,17559.6,399.409,-199.492,-305.752,3197.92,4946.8,11996.2,20.0422,-211.555,79.0699,12371.3,12633.7,8969.34,-178.973,-154.217,-167.777,1639.19,-14853.4,-1585.31,15.7977,-31.3516,161.891,-8120.35,2286.83,-16.0589,10.7685,-56.0221,33.7326,4103.96,-12133.6,957.276,-1.49478,-36.4341,54.8236,11890.0,-54.441,4058.93,25.0906,-7.4208,12.712
4.541,424.359,-19751.2,19622.5,410.645,-217.591,-311.031,3207.86,4940.87,12076.9,20.2498,-213.404,79.6214,14394.2,12749.9,10517.4,-187.721,-153.384,-169.325,1664.21,-14895.4,-1527.52,15.8097,-31.5412,162.568,-8024.01,2392.02,-152.096,10.5958,-55.3726,31.1649,4149.96,-12136.6,914.642,-1.99795,-37.3347,54.2901,11824.6,-89.5692,4431.45,23.1047,-7.6363,12.9865
4.5415,-1456.5,-19983.3,21685.4,421.88,-235.69,-316.309,3217.81,4934.94,12157.5,20.4575,-215.254,80.173,16417.1,12866.1,12065.5,-196.469,-152.551,-170.872,1689.23,-14937.4,-1469.73,15.8217,-31.7308,163.246,-7927.68,2497.21,-288.133,10.4231,-54.7231,28.5972,4195.95,-12139.5,872.007,-2.50112,-38.2352,53.7566,11759.1,-124.697,4803.97,21.1187,-7.85179,13.261
4.542,-3337.35,-20215.4,23748.2,433.116,-253.789,-321.588,3227.75,4929.01,12238.2,20.6651,-217.103,80.7245,18440.0,12982.3,13613.5,-205.217,-151.717,-172.419,1714.25,-14979.4,-1411.93,15.8338,-31.9205,163.924,-7831.35,2602.4,-424.17,10.2503,-54.0735,26.0294,4241.95,-12142.4,829.373,-3.00429,-39.1358,53.2232,11693.6,-159.826,5176.49,19.1327,-8.06728,13.5355
4.5425,-5358.96,-19547.0,24874.7,431.635,-268.186,-321.941,3218.33,4913.59,12330.4,20.7112,-219.11,81.194,20744.8,13358.7,14471.3,-202.922,-151.47,-172.18,1760.07,-15040.1,-1352.18,16.0563,-31.96,164.692,-7598.47,2853.46,-585.783,9.50572,-52.8317,23.9622,4300.74,-12147.7,735.829,-3.91575,-40.002,52.6804,11652.1,-185.711,5511.43,17.7656,-8.44845,13.8898
4.543,-7493.16,-18158.2,25252.1,419.98,-279.623,-318.353,3193.41,4890.58,12431.8,20.6279,-221.242,81.598,23275.2,13943.2,14777.0,-191.794,-151.692,-170.513,1822.52,-15115.9,-1290.85,16.4472,-31.8795,165.532,-7256.36,3221.21,-767.857,8.30359,-51.1159,22.2954,4369.78,-12154.8,601.558,-5.15382,-40.8408,52.13,11629.7,-204.201,5816.3,16.8934,-8.96215,14.3078
4.5435,-9627.37,-16769.4,25629.4,408.325,-291.059,-314.766,3168.5,4867.56,12533.2,20.5447,-223.374,82.0019,25805.5,14527.8,15082.6,-180.665,-151.914,-168.845,1884.97,-15191.7,-1229.53,16.8381,-31.7989,166.372,-6914.25,3588.96,-949.931,7.10146,-49.4001,20.6286,4438.82,-12161.9,467.287,-6.3919,-41.6795,51.5797,11607.3,-222.692,6121.17,16.0213,-9.47585,14.7258
4.544,-11761.6,-15380.6,26006.8,396.671,-302.496,-311.178,3143.58,4844.55,12634.7,20.4614,-225.506,82.4059,28335.9,15112.3,15388.2,-169.537,-152.135,-167.177,1947.42,-15267.4,-1168.2,17.2289,-31.7184,167.212,-6572.14,3956.71,-1132.0,5.89933,-47.6843,18.9617,4507.86,-12169.0,333.016,-7.62997,-42.5183,51.0294,11584.9,-241.182,6426.05,15.1491,-9.98956,15.1438
4.5445,-13895.8,-13991.8,26384.1,385.016,-313.932,-307.59,3118.66,4821.53,12736.1,20.3782,-227.638,82.8098,30866.2,15696.9,15693.8,-158.408,-152.357,-165.51,2009.88,-15343.2,-1106.88,17.6198,-31.6379,168.051,-6230.03,4324.46,-1314.08,4.6972,-45.9685,17.2949,4576.9,-12176.2,198.745,-8.86805,-43.357,50.4791,11562.5,-259.673,6730.92,14.277,-10.5033,15.5619
4.545,-16030.0,-12603.1,26761.5,373.361,-325.369,-304.002,3093.74,4798.52,12837.6,20.2949,-229.771,83.2138,33396.6,16281.4,15999.4,-147.28,-152.579,-163.842,2072.33,-15419.0,-1045.55,18.0107,-31.5573,168.891,-5887.92,4692.22,-1496.15,3.49507,-44.2527,15.6281,4645.94,-12183.3,64.4735,-10.1061,-44.1957,49.9287,11540.2,-278.164,7035.8,13.4049,-11.017,15.9799
4.5455,-18164.2,-11214.3,27138.8,361.706,-336.806,-300.415,3068.83,4775.51,12939.0,20.2117,-231.903,83.6177,35926.9,16866.0,16305.0,-136.151,-152.801,-162.175,2134.78,-15494.7,-984.225,18.4016,-31.4768,169.731,-5545.81,5059.97,-1678.23,2.29295,-42.5369,13.9613,4714.98,-12190.4,-69.7976,-11.3442,-45.0345,49.3784,11517.8,-296.654,7340.67,12.5327,-11.5307,16.3979
4.546,-20298.4,-9825.5,27516.2,350.052,-348.242,-296.827,3043.91,4752.49,13040.5,20.1284,-234.035,84.0216,38457.3,17450.5,16610.6,-125.023,-153.022,-160.507,2197.23,-15570.5,-922.899,18.7924,-31.3963,170.571,-5203.7,5427.72,-1860.3,1.09082,-40.8212,12.2945,4784.02,-12197.5,-204.069,-12.5823,-45.8732,48.8281,11495.4,-315.145,7645.54,11.6606,-12.0444,16.8159
4.5465,-22432.6,-8436.72,27893.5,338.397,-359.679,-293.239,3018.99,4729.48,13141.9,20.0452,-236.167,84.4256,40987.6,18035.1,16916.2,-113.894,-153.244,-158.84,2259.69,-15646.2,-861.574,19.1833,-31.3157,171.411,-4861.59,5795.47,-2042.37,-0.111312,-39.1054,10.6276,4853.06,-12204.6,-338.34,-13.8204,-46.712,48.2778,11473.0,-333.635,7950.42,10.7884,-12.5581,17.234
4.547,-23520.0,-6280.51,26657.3,318.893,-360.512,-283.187,2975.37,4700.64,13232.0,19.7319,-238.507,84.7352,41482.3,18966.0,16180.0,-104.377,-146.093,-156.294,2330.96,-15764.8,-822.795,19.6856,-31.1222,172.206,-4431.78,6070.99,-2019.81,-0.544909,-37.9424,8.8674,4932.06,-12250.8,-490.004,-15.4327,-47.5005,47.6337,11498.7,-306.659,8017.02,10.1821,-12.7474,17.5524
4.5475,-24084.1,-3740.58,24614.2,295.463,-356.043,-269.901,2922.39,4668.89,13316.5,19.3035,-240.95,84.9977,40959.0,20070.2,14922.9,-95.666,-135.256,-153.31,2406.64,-15904.8,-795.289,20.2436,-30.8722,172.98,-3958.13,6300.39,-1894.94,-0.594242,-37.0558,7.06045,5016.03,-12316.4,-650.366,-17.2322,-48.264,46.9427,11548.4,-256.95,7964.49,9.70859,-12.7745,17.8211
