Time,RFoot_accel.x,RFoot_accel.y,RFoot_accel.z,RFoot_gyro.x,RFoot_gyro.y,RFoot_gyro.z,LFoot_accel.x,LFoot_accel.y,LFoot_accel.z,LFoot_gyro.x,LFoot_gyro.y,LFoot_gyro.z,RShank_accel.x,RShank_accel.y,RShank_accel.z,RShank_gyro.x,RShank_gyro.y,RShank_gyro.z,LShank_accel.x,LShank_accel.y,LShank_accel.z,LShank_gyro.x,LShank_gyro.y,LShank_gyro.z,RThigh_accel.x,RThigh_accel.y,RThigh_accel.z,RThigh_gyro.x,RThigh_gyro.y,RThigh_gyro.z,LThigh_accel.x,LThigh_accel.y,LThigh_accel.z,LThigh_gyro.x,LThigh_gyro.y,LThigh_gyro.z,Pelvis_accel.x,Pelvis_accel.y,Pelvis_accel.z,Pelvis_gyro.x,Pelvis_gyro.y,Pelvis_gyro.z
3.78,4789.04,-3556.04,7958.26,12.4785,1.7195,-17.2956,10022.4,4511.15,11695.2,145.969,368.014,-50.2378,617.143,9757.53,-2354.37,-16.6855,-32.6187,-53.3936,-227.173,-14070.6,-1077.31,-34.1123,-133.276,-377.75,1153.72,9413.95,-1807.52,12.9537,-33.2979,-82.7463,-9043.1,-3260.69,-788.307,1.47325,-20.3113,-71.6719,8196.63,713.265,2996.67,-45.1988,7.06378,-10.2075
3.7805,4790.61,-3582.38,7938.68,12.6143,1.70142,-17.1236,10122.2,4624.2,11670.3,145.613,367.236,-49.5506,602.615,9738.55,-2392.51,-16.5544,-32.8878,-53.4841,-207.146,-14181.6,-1043.99,-34.2313,-134.258,-377.783,1120.35,9408.3,-1820.52,12.8944,-32.6886,-82.6402,-9048.93,-3257.8,-745.167,1.64852,-22.7145,-71.5688,8204.42,717.222,3012.53,-44.8879,6.84269,-10.2623
3.781,4792.18,-3608.72,7919.09,12.75,1.68334,-16.9517,10222.1,4737.26,11645.3,145.256,366.457,-48.8634,588.086,9719.56,-2430.65,-16.4233,-33.157,-53.5746,-187.119,-14292.5,-1010.68,-34.3504,-135.24,-377.816,1086.98,9402.65,-1833.51,12.8351,-32.0792,-82.534,-9054.76,-3254.9,-702.027,1.82379,-25.1176,-71.4657,8212.21,721.179,3028.39,-44.577,6.62159,-10.3172
3.7815,4793.76,-3635.07,7899.51,12.8857,1.66526,-16.7798,10321.9,4850.32,11620.4,144.9,365.679,-48.1761,573.557,9700.58,-2468.79,-16.2921,-33.4261,-53.6651,-167.092,-14403.4,-977.362,-34.4694,-136.222,-377.849,1053.61,9397.0,-1846.51,12.7758,-31.4699,-82.4279,-9060.59,-3252.01,-658.887,1.99907,-27.5207,-71.3626,8220.01,725.137,3044.24,-44.266,6.40049,-10.3721
3.782,4795.33,-3661.41,7879.92,13.0214,1.64717,-16.6078,10421.8,4963.37,11595.4,144.544,364.901,-47.4889,559.028,9681.6,-2506.94,-16.161,-33.6952,-53.7556,-147.065,-14514.4,-944.047,-34.5885,-137.205,-377.882,1020.24,9391.35,-1859.51,12.7164,-30.8606,-82.3218,-9066.42,-3249.11,-615.747,2.17434,-29.9238,-71.2595,8227.8,729.094,3060.1,-43.9551,6.17939,-10.427
3.7825,4808.95,-3716.56,7864.02,13.022,1.71735,-16.6891,10523.9,5090.12,11565.3,143.951,363.943,-46.9398,534.546,9671.29,-2529.15,-16.2137,-33.8201,-53.8851,-135.297,-14617.9,-913.888,-34.719,-137.804,-377.815,990.391,9389.2,-1870.28,12.7092,-30.2692,-82.2659,-9078.25,-3248.78,-578.43,2.55271,-32.2709,-71.257,8231.76,728.587,3063.73,-43.7368,5.97108,-10.4736
3.783,4832.21,-3794.75,7851.06,12.9146,1.85813,-16.9728,10627.8,5227.82,11531.0,143.167,362.843,-46.5012,502.101,9667.92,-2538.63,-16.4134,-33.8297,-54.0457,-130.135,-14715.5,-886.253,-34.8588,-138.097,-377.666,963.357,9389.85,-1879.28,12.7435,-29.6921,-82.2501,-9094.89,-3250.49,-545.771,3.09355,-34.5732,-71.3352,8232.65,724.507,3057.58,-43.5925,5.77298,-10.5137
3.7835,4855.46,-3872.94,7838.1,12.8072,1.99891,-17.2566,10731.6,5365.52,11496.6,142.384,361.742,-46.0626,469.656,9664.56,-2548.11,-16.6131,-33.8392,-54.2063,-124.973,-14813.1,-858.619,-34.9985,-138.389,-377.518,936.323,9390.49,-1888.28,12.7779,-29.1151,-82.2344,-9111.53,-3252.2,-513.113,3.63439,-36.8754,-71.4133,8233.54,720.428,3051.43,-43.4482,5.57488,-10.5538
3.784,4878.72,-3951.13,7825.15,12.6997,2.13968,-17.5404,10835.5,5503.22,11462.3,141.6,360.642,-45.6241,437.211,9661.19,-2557.59,-16.8127,-33.8488,-54.3668,-119.811,-14910.7,-830.985,-35.1383,-138.682,-377.37,909.289,9391.14,-1897.28,12.8123,-28.538,-82.2186,-9128.17,-3253.91,-480.454,4.17523,-39.1777,-71.4914,8234.44,716.349,3045.27,-43.304,5.37679,-10.5938
3.7845,4901.97,-4029.32,7812.19,12.5923,2.28046,-17.8242,10939.4,5640.92,11428.0,140.817,359.541,-45.1855,404.766,9657.83,-2567.07,-17.0124,-33.8583,-54.5274,-114.649,-15008.2,-803.35,-35.278,-138.975,-377.222,882.255,9391.78,-1906.27,12.8466,-27.961,-82.2029,-9144.81,-3255.62,-447.795,4.71607,-41.48,-71.5695,8235.33,712.269,3039.12,-43.1597,5.17869,-10.6339
3.785,4925.23,-4107.51,7799.23,12.4849,2.42124,-18.108,11043.3,5778.63,11393.7,140.033,358.441,-44.7469,372.321,9654.46,-2576.54,-17.2121,-33.8678,-54.688,-109.488,-15105.8,-775.716,-35.4178,-139.268,-377.074,855.221,9392.43,-1915.27,12.881,-27.3839,-82.1871,-9161.45,-3257.33,-415.136,5.25691,-43.7823,-71.6477,8236.22,708.19,3032.97,-43.0154,4.98059,-10.674
3.7855,4948.48,-4185.7,7786.27,12.3774,2.56202,-18.3918,11147.2,5916.33,11359.4,139.25,357.34,-44.3084,339.875,9651.1,-2586.02,-17.4118,-33.8774,-54.8486,-104.326,-15203.4,-748.082,-35.5575,-139.56,-376.926,828.187,9393.07,-1924.27,12.9153,-26.8068,-82.1714,-9178.09,-3259.04,-382.478,5.79775,-46.0846,-71.7258,8237.11,704.11,3026.82,-42.8711,4.78249,-10.714
3.786,4971.74,-4263.89,7773.31,12.27,2.7028,-18.6756,11251.0,6054.03,11325.0,138.467,356.24,-43.8698,307.43,9647.73,-2595.5,-17.6115,-33.8869,-55.0092,-99.1639,-15301.0,-720.448,-35.6973,-139.853,-376.777,801.153,9393.72,-1933.27,12.9497,-26.2298,-82.1557,-9194.73,-3260.75,-349.819,6.33859,-48.3868,-71.8039,8238.01,700.031,3020.66,-42.7269,4.5844,-10.7541
3.7865,4995.0,-4342.08,7760.36,12.1626,2.84358,-18.9593,11354.9,6191.73,11290.7,137.683,355.139,-43.4312,274.985,9644.36,-2604.98,-17.8112,-33.8964,-55.1698,-94.002,-15398.6,-692.813,-35.837,-140.146,-376.629,774.118,9394.36,-1942.27,12.9841,-25.6527,-82.1399,-9211.37,-3262.46,-317.16,6.87943,-50.6891,-71.882,8238.9,695.952,3014.51,-42.5826,4.3863,-10.7942
3.787,5023.6,-4350.59,7770.12,12.002,2.89803,-19.3615,11461.6,6325.08,11245.6,136.488,353.84,-43.2456,260.876,9656.32,-2587.47,-18.0105,-33.5981,-55.4233,-97.3656,-15487.4,-651.9,-36.0537,-140.007,-376.396,751.346,9402.67,-1949.69,13.0463,-25.1144,-82.1071,-9231.58,-3272.78,-289.962,7.61065,-52.4211,-72.1447,8250.02,694.76,3001.72,-42.3791,4.21939,-10.8137
3.7875,5054.89,-4324.25,7791.25,11.815,2.90931,-19.8228,11569.8,6456.26,11195.1,135.086,352.441,-43.1865,255.935,9675.93,-2556.47,-18.2097,-33.1458,-55.7232,-104.992,-15571.9,-604.348,-36.3088,-139.652,-376.121,730.705,9414.82,-1956.33,13.1226,-24.5955,-82.0657,-9253.58,-3287.4,-265.493,8.43707,-53.8679,-72.4995,8266.25,695.012,2985.62,-42.146,4.06808,-10.8229
3.788,5086.17,-4297.92,7812.38,11.6279,2.92059,-20.284,11677.9,6587.44,11144.6,133.685,351.042,-43.1274,250.994,9695.55,-2525.47,-18.4089,-32.6935,-56.0232,-112.618,-15656.3,-556.795,-36.5639,-139.298,-375.846,710.063,9426.96,-1962.97,13.1988,-24.0766,-82.0243,-9275.58,-3302.02,-241.024,9.26348,-55.3147,-72.8544,8282.48,695.263,2969.52,-41.9128,3.91676,-10.8321
3.7885,5117.46,-4271.59,7833.51,11.4409,2.93188,-20.7453,11786.0,6718.62,11094.1,132.284,349.642,-43.0682,246.053,9715.16,-2494.47,-18.6081,-32.2411,-56.3231,-120.245,-15740.8,-509.243,-36.819,-138.943,-375.571,689.422,9439.11,-1969.61,13.275,-23.5576,-81.9829,-9297.58,-3316.64,-216.555,10.0899,-56.7615,-73.2092,8298.71,695.515,2953.41,-41.6797,3.76544,-10.8413
3.789,5148.74,-4245.25,7854.64,11.2538,2.94316,-21.2066,11894.1,6849.8,11043.6,130.883,348.243,-43.0091,241.112,9734.77,-2463.48,-18.8074,-31.7888,-56.6231,-127.871,-15825.2,-461.69,-37.0741,-138.588,-375.296,668.78,9451.25,-1976.25,13.3512,-23.0387,-81.9415,-9319.59,-3331.26,-192.087,10.9163,-58.2083,-73.5641,8314.94,695.767,2937.31,-41.4466,3.61413,-10.8505
3.7895,5180.03,-4218.92,7875.77,11.0667,2.95444,-21.6679,12002.3,6980.98,10993.1,129.481,346.844,-42.95,236.171,9754.39,-2432.48,-19.0066,-31.3365,-56.9231,-135.497,-15909.7,-414.137,-37.3292,-138.234,-375.02,648.139,9463.4,-1982.89,13.4275,-22.5198,-81.9002,-9341.59,-3345.89,-167.618,11.7427,-59.6551,-73.9189,8331.17,696.019,2921.21,-41.2134,3.46281,-10.8597
3.79,5211.31,-4192.59,7896.9,10.8797,2.96573,-22.1292,12110.4,7112.16,10942.6,128.08,345.445,-42.8909,231.23,9774.0,-2401.48,-19.2058,-30.8842,-57.223,-143.123,-15994.1,-366.585,-37.5843,-137.879,-374.745,627.497,9475.54,-1989.53,13.5037,-22.0009,-81.8588,-9363.59,-3360.51,-143.149,12.5691,-61.1019,-74.2738,8347.4,696.27,2905.1,-40.9803,3.3115,-10.8689
3.7905,5242.6,-4166.25,7918.02,10.6926,2.97701,-22.5905,12218.5,7243.34,10892.1,126.679,344.046,-42.8317,226.289,9793.62,-2370.48,-19.405,-30.4319,-57.523,-150.75,-16078.6,-319.032,-37.8394,-137.524,-374.47,606.856,9487.69,-1996.17,13.5799,-21.4819,-81.8174,-9385.59,-3375.13,-118.681,13.3955,-62.5487,-74.6287,8363.63,696.522,2889.0,-40.7472,3.16018,-10.8782
3.791,5273.88,-4139.92,7939.15,10.5056,2.9883,-23.0518,12326.7,7374.52,10841.6,125.277,342.647,-42.7726,221.348,9813.23,-2339.48,-19.6042,-29.9796,-57.8229,-158.376,-16163.0,-271.48,-38.0945,-137.17,-374.195,586.215,9499.83,-2002.81,13.6561,-20.963,-81.776,-9407.59,-3389.75,-94.2119,14.222,-63.9955,-74.9835,8379.86,696.774,2872.9,-40.5141,3.00886,-10.8874
3.7915,5304.85,-4042.84,7947.86,10.5696,2.93951,-23.1642,12447.3,7499.73,10796.2,123.381,341.136,-43.2378,230.06,9848.77,-2293.12,-19.7128,-29.5802,-58.0647,-161.082,-16234.2,-211.572,-38.36,-136.361,-373.866,569.813,9513.45,-1996.26,13.7612,-20.5447,-81.7465,-9412.94,-3390.62,-55.5276,15.1938,-64.4082,-75.604,8398.65,693.436,2877.04,-40.317,2.80176,-10.8471
3.792,5335.72,-3925.55,7953.01,10.7053,2.87356,-23.1769,12571.4,7623.23,10752.3,121.342,339.593,-43.8527,242.673,9888.86,-2242.37,-19.7954,-29.196,-58.2898,-162.382,-16301.5,-148.135,-38.6283,-135.422,-373.521,554.622,9527.49,-1985.94,13.8745,-20.1552,-81.7203,-9413.53,-3387.56,-12.7818,16.2071,-64.5254,-76.3004,8418.18,689.073,2886.97,-40.1303,2.57872,-10.7927
3.7925,5366.6,-3808.25,7958.16,10.841,2.80762,-23.1896,12695.6,7746.74,10708.5,119.304,338.051,-44.4677,255.286,9928.95,-2191.63,-19.8781,-28.8117,-58.5149,-163.683,-16368.9,-84.6981,-38.8967,-134.484,-373.176,539.432,9541.52,-1975.62,13.9879,-19.7657,-81.6941,-9414.12,-3384.5,29.9641,17.2204,-64.6425,-76.9968,8437.7,684.71,2896.9,-39.9436,2.35568,-10.7382
3.793,5397.47,-3690.96,7963.32,10.9767,2.74167,-23.2023,12819.7,7870.24,10664.6,117.265,336.508,-45.0826,267.898,9969.04,-2140.88,-19.9608,-28.4275,-58.74,-164.983,-16436.3,-21.2609,-39.1651,-133.545,-372.832,524.242,9555.56,-1965.31,14.1012,-19.3762,-81.668,-9414.71,-3381.44,72.71,18.2338,-64.7597,-77.6932,8457.23,680.347,2906.83,-39.7568,2.13263,-10.6838
3.7935,5428.35,-3573.66,7968.47,11.1124,2.67572,-23.215,12943.8,7993.74,10620.7,115.227,334.966,-45.6975,280.511,10009.1,-2090.13,-20.0435,-28.0432,-58.9651,-166.283,-16503.6,42.1763,-39.4335,-132.607,-372.487,509.051,9569.59,-1954.99,14.2145,-18.9867,-81.6418,-9415.3,-3378.38,115.456,19.2471,-64.8769,-78.3896,8476.75,675.984,2916.76,-39.5701,1.90959,-10.6294
3.794,5459.22,-3456.37,7973.62,11.2481,2.60978,-23.2277,13068.0,8117.25,10576.9,113.189,333.423,-46.3125,293.123,10049.2,-2039.39,-20.1262,-27.6589,-59.1902,-167.584,-16571.0,105.614,-39.7018,-131.668,-372.143,493.861,9583.63,-1944.67,14.3279,-18.5971,-81.6156,-9415.89,-3375.32,158.202,20.2605,-64.9941,-79.086,8496.28,671.621,2926.69,-39.3834,1.68655,-10.5749
3.7945,5490.1,-3339.07,7978.77,11.3838,2.54383,-23.2404,13192.1,8240.75,10533.0,111.15,331.88,-46.9274,305.736,10089.3,-1988.64,-20.2089,-27.2747,-59.4153,-168.884,-16638.4,169.051,-39.9702,-130.73,-371.798,478.67,9597.67,-1934.35,14.4412,-18.2076,-81.5895,-9416.48,-3372.26,200.948,21.2738,-65.1113,-79.7824,8515.81,667.257,2936.61,-39.1967,1.46351,-10.5205
3.795,5520.97,-3221.78,7983.93,11.5195,2.47788,-23.2531,13316.3,8364.25,10489.1,109.112,330.338,-47.5424,318.349,10129.4,-1937.89,-20.2915,-26.8904,-59.6404,-170.184,-16705.7,232.488,-40.2386,-129.791,-371.454,463.48,9611.7,-1924.03,14.5545,-17.8181,-81.5633,-9417.07,-3369.2,243.693,22.2872,-65.2284,-80.4788,8535.33,662.894,2946.54,-39.0099,1.24047,-10.4661
3.7955,5551.85,-3104.48,7989.08,11.6552,2.41193,-23.2658,13440.4,8487.76,10445.3,107.074,328.795,-48.1573,330.961,10169.5,-1887.15,-20.3742,-26.5062,-59.8655,-171.485,-16773.1,295.925,-40.5069,-128.853,-371.109,448.29,9625.74,-1913.71,14.6678,-17.4286,-81.5371,-9417.66,-3366.14,286.439,23.3005,-65.3456,-81.1752,8554.86,658.531,2956.47,-38.8232,1.01742,-10.4116
3.796,5543.87,-3046.66,8001.51,11.8521,2.32098,-23.1191,13587.3,8599.47,10409.1,104.583,327.18,-49.3614,343.062,10211.9,-1833.71,-20.555,-26.3134,-60.0488,-188.166,-16805.0,353.66,-40.9342,-127.299,-370.645,444.188,9634.85,-1901.35,14.7194,-17.2339,-81.486,-9365.3,-3375.03,344.605,24.2427,-64.3418,-82.3095,8547.11,648.58,2965.64,-38.7052,0.85749,-10.3708
3.7965,5531.03,-2996.27,8014.85,12.0565,2.2269,-22.9525,13737.1,8709.71,10374.0,102.036,325.556,-50.6392,355.099,10254.5,-1779.93,-20.7481,-26.1446,-60.2269,-206.769,-16832.6,410.682,-41.3813,-125.667,-370.166,441.473,9643.35,-1888.74,14.7632,-17.0635,-81.4318,-9306.33,-3385.4,404.697,25.176,-63.1979,-83.4986,8535.96,637.931,2974.71,-38.5957,0.705446,-10.3316
3.797,5518.2,-2945.89,8028.18,12.261,2.13282,-22.7859,13886.8,8819.95,10338.8,99.4888,323.932,-51.9169,367.136,10297.2,-1726.15,-20.9411,-25.9758,-60.405,-225.373,-16860.1,467.704,-41.8284,-124.036,-369.688,438.757,9651.85,-1876.13,14.8071,-16.8932,-81.3776,-9247.36,-3395.78,464.79,26.1093,-62.054,-84.6876,8524.81,627.282,2983.78,-38.4863,0.553401,-10.2924
3.7975,5505.37,-2895.5,8041.52,12.4655,2.03874,-22.6193,14036.6,8930.19,10303.7,96.9416,322.307,-53.1947,379.173,10339.9,-1672.37,-21.1342,-25.807,-60.5831,-243.976,-16887.6,524.726,-42.2755,-122.405,-369.209,436.042,9660.35,-1863.52,14.8509,-16.7229,-81.3234,-9188.39,-3406.16,524.883,27.0426,-60.91,-85.8766,8513.66,616.632,2992.85,-38.3768,0.401357,-10.2532
3.798,5492.53,-2845.11,8054.86,12.67,1.94466,-22.4527,14186.3,9040.42,10268.5,94.3945,320.683,-54.4725,391.21,10382.5,-1618.6,-21.3273,-25.6382,-60.7611,-262.58,-16915.1,581.747,-42.7226,-120.773,-368.73,433.326,9668.85,-1850.91,14.8948,-16.5525,-81.2692,-9129.42,-3416.54,584.976,27.9759,-59.7661,-87.0656,8502.5,605.983,3001.92,-38.2674,0.249312,-10.2141
3.7985,5479.7,-2794.73,8068.2,12.8744,1.85058,-22.2861,14336.1,9150.66,10233.4,91.8474,319.059,-55.7502,403.247,10425.2,-1564.82,-21.5203,-25.4694,-60.9392,-281.184,-16942.7,638.769,-43.1697,-119.142,-368.251,430.611,9677.34,-1838.3,14.9386,-16.3822,-81.2149,-9070.44,-3426.91,645.068,28.9092,-58.6222,-88.2546,8491.35,595.334,3010.99,-38.158,0.097268,-10.1749
3.799,5466.86,-2744.34,8081.53,13.0789,1.7565,-22.1195,14485.8,9260.9,10198.2,89.3002,317.435,-57.028,415.284,10467.9,-1511.04,-21.7134,-25.3006,-61.1173,-299.787,-16970.2,695.791,-43.6168,-117.511,-367.773,427.895,9685.84,-1825.68,14.9824,-16.2119,-81.1607,-9011.47,-3437.29,705.161,29.8425,-57.4782,-89.4437,8480.2,584.685,3020.06,-38.0485,-0.0547764,-10.1357
3.7995,5454.03,-2693.95,8094.87,13.2834,1.66242,-21.9529,14635.6,9371.14,10163.1,86.7531,315.811,-58.3057,427.321,10510.5,-1457.26,-21.9064,-25.1318,-61.2954,-318.391,-16997.7,752.813,-44.0639,-115.879,-367.294,425.18,9694.34,-1813.07,15.0263,-16.0415,-81.1065,-8952.5,-3447.67,765.254,30.7758,-56.3343,-90.6327,8469.05,574.035,3029.13,-37.9391,-0.206821,-10.0965
3.8,5441.19,-2643.57,8108.21,13.4879,1.56834,-21.7862,14785.3,9481.38,10127.9,84.2059,314.186,-59.5835,439.358,10553.2,-1403.49,-22.0995,-24.963,-61.4735,-336.994,-17025.2,809.835,-44.511,-114.248,-366.815,422.464,9702.84,-1800.46,15.0701,-15.8712,-81.0523,-8893.53,-3458.05,825.347,31.7091,-55.1904,-91.8217,8457.9,563.386,3038.2,-37.8296,-0.358865,-10.0574
3.8005,5404.63,-2675.53,8126.76,13.6454,1.39931,-21.7,14906.7,9581.99,10112.7,81.22,312.304,-61.3585,430.377,10563.2,-1371.48,-22.2021,-24.878,-61.6766,-383.67,-17049.5,798.775,-45.479,-111.872,-366.24,414.275,9715.68,-1780.5,14.9525,-15.8897,-81.0036,-8784.73,-3484.96,881.305,32.3851,-53.1217,-93.3795,8470.86,554.353,3021.98,-37.613,-0.513545,-10.049
3.801,5368.07,-2707.5,8145.32,13.8029,1.23028,-21.6138,15028.1,9682.6,10097.5,78.234,310.421,-63.1335,421.395,10573.2,-1339.48,-22.3047,-24.793,-61.8797,-430.346,-17073.7,787.714,-46.4471,-109.496,-365.665,406.086,9728.52,-1760.53,14.8348,-15.9083,-80.9549,-8675.94,-3511.87,937.263,33.061,-51.0531,-94.9374,8483.83,545.32,3005.76,-37.3964,-0.668226,-10.0406
3.8015,5331.51,-2739.47,8163.88,13.9605,1.06125,-21.5275,15149.4,9783.21,10082.3,75.2481,308.538,-64.9085,412.414,10583.3,-1307.48,-22.4073,-24.7081,-62.0829,-477.022,-17097.9,776.654,-47.4152,-107.12,-365.089,397.897,9741.35,-1740.57,14.7172,-15.9268,-80.9061,-8567.15,-3538.78,993.222,33.7369,-48.9844,-96.4952,8496.8,536.286,2989.54,-37.1797,-0.822906,-10.0323
3.802,5294.95,-2771.43,8182.43,14.118,0.892225,-21.4413,15270.8,9883.82,10067.0,72.2621,306.655,-66.6835,403.433,10593.3,-1275.48,-22.5099,-24.6231,-62.286,-523.698,-17122.1,765.594,-48.3832,-104.744,-364.514,389.708,9754.19,-1720.61,14.5995,-15.9453,-80.8574,-8458.36,-3565.69,1049.18,34.4129,-46.9158,-98.053,8509.77,527.253,2973.32,-36.9631,-0.977586,-10.0239
3.8025,5258.39,-2803.4,8200.99,14.2756,0.723195,-21.355,15392.2,9984.44,10051.8,69.2762,304.772,-68.4585,394.452,10603.3,-1243.47,-22.6126,-24.5381,-62.4891,-570.374,-17146.4,754.534,-49.3513,-102.368,-363.939,381.52,9767.03,-1700.64,14.4818,-15.9639,-80.8087,-8349.57,-3592.6,1105.14,35.0888,-44.8471,-99.6109,8522.73,518.22,2957.1,-36.7465,-1.13227,-10.0155
3.803,5221.83,-2835.36,8219.55,14.4331,0.554166,-21.2688,15513.5,10085.0,10036.6,66.2902,302.89,-70.2335,385.471,10613.3,-1211.47,-22.7152,-24.4531,-62.6923,-617.05,-17170.6,743.473,-50.3194,-99.9919,-363.364,373.331,9779.87,-1680.68,14.3642,-15.9824,-80.76,-8240.78,-3619.51,1161.1,35.7647,-42.7785,-101.169,8535.7,509.186,2940.88,-36.5298,-1.28695,-10.0072
3.8035,5185.26,-2867.33,8238.1,14.5906,0.385137,-21.1825,15634.9,10185.7,10021.4,63.3043,301.007,-72.0085,376.49,10623.4,-1179.47,-22.8178,-24.3681,-62.8954,-663.726,-17194.8,732.413,-51.2874,-97.6159,-362.789,365.142,9792.71,-1660.71,14.2465,-16.0009,-80.7113,-8131.98,-3646.42,1217.05,36.4407,-40.7098,-102.727,8548.67,500.153,2924.66,-36.3132,-1.44163,-9.99882
3.804,5148.7,-2899.3,8256.66,14.7482,0.216107,-21.0963,15756.3,10286.3,10006.1,60.3183,299.124,-73.7835,367.509,10633.4,-1147.46,-22.9204,-24.2831,-63.0985,-710.402,-17219.0,721.353,-52.2555,-95.2399,-362.214,356.953,9805.54,-1640.75,14.1289,-16.0194,-80.6626,-8023.19,-3673.33,1273.01,37.1166,-38.6412,-104.284,8561.64,491.12,2908.44,-36.0966,-1.59631,-9.99045
3.8045,5114.56,-2929.66,8274.44,14.8956,0.0399702,-21.0197,15873.5,10380.4,9992.02,57.3158,297.187,-75.6077,358.494,10643.7,-1116.55,-23.0111,-24.2074,-63.2974,-756.334,-17240.9,704.192,-53.2682,-92.802,-361.611,348.837,9819.22,-1619.66,14.0064,-16.0598,-80.6081,-7909.76,-3699.81,1328.26,37.7364,-36.5433,-105.84,8573.63,481.494,2891.32,-35.8991,-1.75985,-9.9868
3.805,5099.73,-2947.21,8285.97,14.9617,-0.193031,-21.0202,15957.0,10422.3,9986.89,54.1807,294.811,-77.8256,349.21,10656.3,-1094.39,-23.006,-24.2054,-63.4621,-796.316,-17243.6,638.228,-54.6378,-89.8689,-360.792,341.309,9839.6,-1589.54,13.8455,-16.2747,-80.5076,-7759.25,-3722.9,1377.86,37.907,-34.2115,-107.382,8577.85,467.131,2866.99,-35.8544,-1.99425,-10.0208
3.8055,5084.9,-2964.76,8297.51,15.0277,-0.426032,-21.0206,16040.6,10464.2,9981.75,51.0456,292.436,-80.0434,339.926,10668.8,-1072.22,-23.0009,-24.2034,-63.6267,-836.298,-17246.3,572.263,-56.0073,-86.9359,-359.973,333.781,9859.98,-1559.41,13.6845,-16.4895,-80.407,-7608.74,-3745.99,1427.46,38.0776,-31.8797,-108.923,8582.06,452.767,2842.66,-35.8097,-2.22865,-10.0548
3.806,5070.07,-2982.31,8309.04,15.0938,-0.659032,-21.0211,16124.2,10506.1,9976.62,47.9105,290.061,-82.2613,330.641,10681.4,-1050.06,-22.9958,-24.2014,-63.7914,-876.28,-17249.1,506.299,-57.3769,-84.0028,-359.154,326.252,9880.36,-1529.29,13.5235,-16.7044,-80.3065,-7458.23,-3769.08,1477.06,38.2482,-29.5479,-110.464,8586.28,438.403,2818.33,-35.765,-2.46305,-10.0888
3.8065,5055.24,-2999.86,8320.58,15.1599,-0.892033,-21.0215,16207.8,10548.0,9971.48,44.7754,287.686,-84.4791,321.357,10693.9,-1027.89,-22.9907,-24.1995,-63.956,-916.262,-17251.8,440.334,-58.7465,-81.0698,-358.334,318.724,9900.75,-1499.17,13.3626,-16.9193,-80.2059,-7307.72,-3792.16,1526.66,38.4188,-27.2161,-112.005,8590.5,424.039,2794.0,-35.7203,-2.69745,-10.1228
3.807,5040.41,-3017.41,8332.11,15.226,-1.12503,-21.022,16291.4,10589.9,9966.35,41.6403,285.311,-86.697,312.072,10706.5,-1005.72,-22.9856,-24.1975,-64.1207,-956.244,-17254.6,374.369,-60.116,-78.1367,-357.515,311.195,9921.13,-1469.04,13.2016,-17.1342,-80.1054,-7157.21,-3815.25,1576.26,38.5894,-24.8843,-113.547,8594.71,409.675,2769.67,-35.6756,-2.93185,-10.1568
3.8075,5025.58,-3034.96,8343.65,15.2921,-1.35804,-21.0225,16375.0,10631.8,9961.21,38.5052,282.936,-88.9148,302.788,10719.1,-983.557,-22.9805,-24.1955,-64.2854,-996.226,-17257.3,308.405,-61.4856,-75.2037,-356.696,303.667,9941.51,-1438.92,13.0407,-17.3491,-80.0048,-7006.7,-3838.34,1625.86,38.76,-22.5526,-115.088,8598.93,395.311,2745.34,-35.6309,-3.16625,-10.1908
3.808,5010.75,-3052.5,8355.18,15.3582,-1.59104,-21.0229,16458.5,10673.7,9956.08,35.3701,280.56,-91.1327,293.503,10731.6,-961.391,-22.9755,-24.1936,-64.45,-1036.21,-17260.0,242.44,-62.8552,-72.2706,-355.877,296.139,9961.89,-1408.8,12.8797,-17.564,-79.9043,-6856.19,-3861.43,1675.46,38.9306,-20.2208,-116.629,8603.14,380.948,2721.01,-35.5862,-3.40065,-10.2248
3.8085,4995.92,-3070.05,8366.72,15.4243,-1.82404,-21.0234,16542.1,10715.6,9950.94,32.235,278.185,-93.3505,284.219,10744.2,-939.225,-22.9704,-24.1916,-64.6147,-1076.19,-17262.8,176.476,-64.2248,-69.3376,-355.057,288.61,9982.27,-1378.67,12.7188,-17.7788,-79.8037,-6705.68,-3884.51,1725.06,39.1012,-17.889,-118.171,8607.36,366.584,2696.69,-35.5415,-3.63505,-10.2588
3.809,4986.5,-3079.63,8377.42,15.4962,-2.05919,-21.0119,16611.7,10744.6,9945.73,29.1633,275.698,-95.6338,278.336,10753.7,-918.377,-22.9644,-24.2059,-64.7631,-1114.3,-17270.2,112.172,-65.6138,-66.4091,-354.214,281.598,10001.0,-1347.93,12.5529,-18.0067,-79.71,-6552.75,-3909.71,1772.81,39.1077,-15.6785,-119.63,8614.62,356.436,2673.78,-35.4908,-3.86485,-10.2828
3.8095,4996.04,-3061.32,8385.19,15.5887,-2.3019,-20.9585,16632.2,10728.6,9940.27,26.3137,272.817,-98.1459,284.361,10752.7,-902.142,-22.9552,-24.2773,-64.8547,-1145.86,-17294.3,53.6821,-67.0709,-63.4965,-353.286,276.391,10013.9,-1315.02,12.3696,-18.2801,-79.6399,-6391.34,-3942.3,1814.09,38.5397,-13.8924,-120.801,8632.55,361.045,2655.86,-35.4189,-4.07852,-10.2718
3.81,5005.57,-3043.01,8392.96,15.6811,-2.54461,-20.9052,16652.7,10712.6,9934.8,23.4641,269.937,-100.658,290.386,10751.7,-885.907,-22.946,-24.3487,-64.9463,-1177.42,-17318.3,-4.80807,-68.528,-60.584,-352.359,271.184,10026.7,-1282.11,12.1864,-18.5535,-79.5699,-6229.94,-3974.88,1855.37,37.9717,-12.1062,-121.972,8650.48,365.654,2637.94,-35.347,-4.29219,-10.2608
3.8105,5015.11,-3024.69,8400.73,15.7735,-2.78731,-20.8518,16673.3,10696.6,9929.33,20.6145,267.057,-103.17,296.411,10750.8,-869.672,-22.9368,-24.4201,-65.0379,-1208.98,-17342.4,-63.2983,-69.9851,-57.6714,-351.431,265.977,10039.6,-1249.2,12.0031,-18.8269,-79.4999,-6068.53,-4007.46,1896.65,37.4038,-10.3201,-123.144,8668.41,370.263,2620.01,-35.2751,-4.50586,-10.2498
3.811,5024.64,-3006.38,8408.51,15.8659,-3.03002,-20.7984,16693.8,10680.6,9923.87,17.7649,264.176,-105.682,302.436,10749.8,-853.437,-22.9277,-24.4915,-65.1295,-1240.54,-17366.4,-121.788,-71.4422,-54.7588,-350.503,260.771,10052.5,-1216.29,11.8199,-19.1004,-79.4298,-5907.13,-4040.05,1937.93,36.8358,-8.53404,-124.315,8686.34,374.873,2602.09,-35.2032,-4.71953,-10.2388
3.8115,5034.18,-2988.06,8416.28,15.9583,-3.27272,-20.745,16714.3,10664.6,9918.4,14.9154,261.296,-108.194,308.461,10748.8,-837.202,-22.9185,-24.5629,-65.221,-1272.11,-17390.5,-180.279,-72.8992,-51.8463,-349.575,255.564,10065.4,-1183.38,11.6366,-19.3738,-79.3598,-5745.72,-4072.63,1979.21,36.2678,-6.74793,-125.487,8704.27,379.482,2584.17,-35.1313,-4.93321,-10.2278
3.812,5043.71,-2969.75,8424.05,16.0508,-3.51543,-20.6917,16734.9,10648.6,9912.93,12.0658,258.416,-110.706,314.486,10747.8,-820.966,-22.9093,-24.6343,-65.3126,-1303.67,-17414.5,-238.769,-74.3563,-48.9337,-348.647,250.357,10078.3,-1150.47,11.4534,-19.6472,-79.2898,-5584.32,-4105.22,2020.48,35.6998,-4.96182,-126.658,8722.2,384.091,2566.25,-35.0594,-5.14688,-10.2168
3.8125,5053.25,-2951.44,8431.82,16.1432,-3.75813,-20.6383,16755.4,10632.6,9907.46,9.21617,255.535,-113.219,320.511,10746.8,-804.731,-22.9001,-24.7057,-65.4042,-1335.23,-17438.6,-297.259,-75.8134,-46.0211,-347.72,245.15,10091.1,-1117.56,11.2701,-19.9206,-79.2197,-5422.92,-4137.8,2061.76,35.1319,-3.17572,-127.829,8740.13,388.7,2548.32,-34.9875,-5.36055,-10.2058
3.813,5062.78,-2933.12,8439.59,16.2356,-4.00084,-20.5849,16775.9,10616.5,9902.0,6.36658,252.655,-115.731,326.536,10745.8,-788.496,-22.891,-24.7771,-65.4958,-1366.79,-17462.7,-355.749,-77.2705,-43.1086,-346.792,239.943,10104.0,-1084.65,11.0869,-20.194,-79.1497,-5261.51,-4170.38,2103.04,34.5639,-1.38961,-129.001,8758.06,393.309,2530.4,-34.9156,-5.57422,-10.1948
3.8135,5070.5,-2916.98,8448.26,16.3736,-4.24994,-20.53,16776.6,10589.7,9896.72,3.6869,249.643,-118.262,334.341,10743.5,-772.124,-22.9096,-24.8088,-65.6392,-1394.96,-17505.0,-409.677,-78.6697,-40.3515,-345.846,231.092,10112.5,-1057.0,10.9386,-20.4439,-79.0682,-5112.83,-4207.87,2135.83,33.7542,0.0148374,-129.981,8768.96,395.402,2513.42,-34.8443,-5.76147,-10.2202
3.814,5074.58,-2905.2,8458.7,16.603,-4.51184,-20.4721,16737.8,10541.2,9891.84,1.34707,246.367,-120.833,345.709,10738.8,-755.478,-22.9838,-24.7612,-65.886,-1416.34,-17583.9,-454.48,-79.953,-37.9056,-344.862,214.953,10112.3,-1039.87,10.8604,-20.6468,-78.964,-4989.6,-4255.15,2151.65,32.4609,0.655963,-130.577,8765.78,392.462,2498.3,-34.7741,-5.89589,-10.3185
3.8145,5078.66,-2893.41,8469.15,16.8323,-4.77374,-20.4141,16699.0,10492.8,9886.95,-0.992771,243.092,-123.403,357.077,10734.0,-738.832,-23.0581,-24.7137,-66.1329,-1437.72,-17662.8,-499.284,-81.2364,-35.4596,-343.879,198.813,10112.1,-1022.73,10.7821,-20.8497,-78.8596,-4866.36,-4302.44,2167.47,31.1677,1.29709,-131.174,8762.6,389.522,2483.18,-34.704,-6.0303,-10.4167
3.815,5082.74,-2881.63,8479.6,17.0617,-5.03564,-20.3562,16660.1,10444.3,9882.06,-3.33261,239.816,-125.973,368.444,10729.2,-722.186,-23.1323,-24.6661,-66.3798,-1459.11,-17741.7,-544.087,-82.5198,-33.0137,-342.896,182.673,10111.9,-1005.6,10.7038,-21.0526,-78.7554,-4743.13,-4349.73,2183.28,29.8744,1.93821,-131.771,8759.42,386.582,2468.07,-34.6338,-6.16472,-10.515
3.8155,5086.82,-2869.84,8490.04,17.291,-5.29754,-20.2982,16621.3,10395.8,9877.17,-5.67245,236.541,-128.543,379.812,10724.4,-705.54,-23.2065,-24.6186,-66.6267,-1480.49,-17820.7,-588.89,-83.8031,-30.5677,-341.912,166.533,10111.7,-988.461,10.6255,-21.2556,-78.6511,-4619.9,-4397.01,2199.1,28.5811,2.57934,-132.368,8756.24,383.642,2452.95,-34.5637,-6.29914,-10.6132
3.816,5090.9,-2858.05,8500.49,17.5203,-5.55944,-20.2403,16582.4,10347.4,9872.29,-8.01229,233.265,-131.114,391.179,10719.6,-688.894,-23.2808,-24.571,-66.8736,-1501.87,-17899.6,-633.694,-85.0865,-28.1217,-340.929,150.394,10111.5,-971.326,10.5473,-21.4585,-78.5468,-4496.67,-4444.3,2214.92,27.2879,3.22046,-132.965,8753.06,380.702,2437.83,-34.4936,-6.43355,-10.7115
3.8165,5094.99,-2846.27,8510.93,17.7497,-5.82134,-20.1823,16543.6,10298.9,9867.4,-10.3521,229.99,-133.684,402.547,10714.8,-672.248,-23.355,-24.5235,-67.1204,-1523.25,-17978.5,-678.497,-86.3698,-25.6758,-339.946,134.254,10111.3,-954.19,10.469,-21.6614,-78.4425,-4373.43,-4491.58,2230.73,25.9946,3.86159,-133.561,8749.88,377.762,2422.72,-34.4234,-6.56797,-10.8097
3.817,5099.07,-2834.48,8521.38,17.979,-6.08324,-20.1244,16504.7,10250.4,9862.51,-12.692,226.714,-136.254,413.915,10710.0,-655.601,-23.4292,-24.4759,-67.3673,-1544.64,-18057.4,-723.3,-87.6532,-23.2298,-338.962,118.114,10111.1,-937.055,10.3907,-21.8643,-78.3382,-4250.2,-4538.87,2246.55,24.7014,4.50271,-134.158,8746.7,374.822,2407.6,-34.3533,-6.70238,-10.908
3.8175,5103.15,-2822.7,8531.83,18.2083,-6.34515,-20.0664,16465.9,10202.0,9857.62,-15.0318,223.439,-138.825,425.282,10705.2,-638.955,-23.5035,-24.4284,-67.6142,-1566.02,-18136.3,-768.104,-88.9365,-20.7839,-337.979,101.974,10110.9,-919.92,10.3124,-22.0672,-78.2339,-4126.97,-4586.15,2262.37,23.4081,5.14384,-134.755,8743.52,371.882,2392.49,-34.2831,-6.8368,-11.0063
3.818,5099.43,-2819.63,8548.99,18.3957,-6.62087,-20.0285,16419.4,10146.1,9861.67,-17.144,220.052,-141.415,441.293,10703.9,-622.517,-23.567,-24.3005,-67.8777,-1590.83,-18234.6,-832.951,-90.1043,-18.4622,-337.067,91.9358,10114.4,-903.725,10.2559,-22.2113,-78.0838,-4016.28,-4639.87,2263.83,21.9602,5.31829,-135.133,8738.29,375.817,2374.92,-34.2763,-6.9308,-11.0604
3.8185,5085.98,-2827.47,8574.56,18.5306,-6.91389,-20.0155,16363.3,10081.0,9876.88,-18.9717,216.526,-144.031,463.109,10706.9,-606.34,-23.617,-24.0721,-68.1619,-1619.93,-18357.2,-922.853,-91.1274,-16.2959,-336.244,89.5239,10122.5,-888.704,10.2264,-22.2817,-77.8764,-3921.26,-4701.61,2247.36,20.3189,4.9094,-135.238,8730.5,388.346,2354.28,-34.3486,-6.97427,-11.0595
3.819,5072.52,-2835.3,8600.13,18.6655,-7.2069,-20.0025,16307.2,10015.9,9892.08,-20.7993,213.0,-146.646,484.925,10710.0,-590.162,-23.667,-23.8437,-68.4461,-1649.03,-18479.7,-1012.75,-92.1506,-14.1296,-335.422,87.112,10130.6,-873.684,10.197,-22.3521,-77.6691,-3826.24,-4763.36,2230.88,18.6776,4.50051,-135.343,8722.71,400.876,2333.64,-34.4209,-7.01774,-11.0586
3.8195,5059.06,-2843.14,8625.69,18.8004,-7.49991,-19.9895,16251.1,9950.76,9907.29,-22.627,209.474,-149.262,506.74,10713.0,-573.984,-23.717,-23.6154,-68.7303,-1678.13,-18602.2,-1102.66,-93.1738,-11.9633,-334.599,84.7,10138.7,-858.664,10.1676,-22.4226,-77.4617,-3731.23,-4825.11,2214.41,17.0363,4.09162,-135.447,8714.92,413.405,2313.01,-34.4933,-7.06121,-11.0577
3.82,5045.61,-2850.98,8651.26,18.9353,-7.79292,-19.9765,16195.0,9885.65,9922.5,-24.4546,205.947,-151.877,528.556,10716.1,-557.806,-23.767,-23.387,-69.0146,-1707.23,-18724.8,-1192.56,-94.197,-9.79697,-333.776,82.2881,10146.8,-843.644,10.1381,-22.493,-77.2543,-3636.21,-4886.86,2197.93,15.395,3.68272,-135.552,8707.13,425.935,2292.37,-34.5656,-7.10469,-11.0568
3.8205,5032.15,-2858.81,8676.83,19.0702,-8.08593,-19.9635,16138.9,9820.53,9937.71,-26.2823,202.421,-154.493,550.372,10719.1,-541.628,-23.8171,-23.1587,-69.2988,-1736.33,-18847.3,-1282.46,-95.2201,-7.63066,-332.953,79.8762,10154.9,-828.624,10.1087,-22.5634,-77.047,-3541.2,-4948.6,2181.45,13.7537,3.27383,-135.657,8699.34,438.464,2271.74,-34.6379,-7.14816,-11.0558
3.821,5018.7,-2866.65,8702.39,19.2051,-8.37895,-19.9505,16082.8,9755.42,9952.92,-28.11,198.895,-157.108,572.188,10722.1,-525.451,-23.8671,-22.9303,-69.583,-1765.43,-18969.8,-1372.36,-96.2433,-5.46435,-332.131,77.4643,10163.0,-813.604,10.0792,-22.6339,-76.8396,-3446.18,-5010.35,2164.98,12.1124,2.86494,-135.761,8691.55,450.994,2251.1,-34.7102,-7.19163,-11.0549
3.8215,5005.24,-2874.49,8727.96,19.34,-8.67196,-19.9376,16026.7,9690.31,9968.13,-29.9376,195.369,-159.724,594.003,10725.2,-509.273,-23.9171,-22.7019,-69.8672,-1794.53,-19092.4,-1462.26,-97.2665,-3.29805,-331.308,75.0524,10171.2,-798.584,10.0498,-22.7043,-76.6323,-3351.16,-5072.1,2148.5,10.4711,2.45605,-135.866,8683.77,463.523,2230.47,-34.7825,-7.2351,-11.054
3.822,4991.78,-2882.32,8753.52,19.4749,-8.96497,-19.9246,15970.6,9625.19,9983.34,-31.7653,191.843,-162.34,615.819,10728.2,-493.095,-23.9671,-22.4736,-70.1515,-1823.62,-19214.9,-1552.17,-98.2897,-1.13174,-330.485,72.6405,10179.3,-783.564,10.0204,-22.7747,-76.4249,-3256.15,-5133.85,2132.03,8.82978,2.04716,-135.971,8675.98,476.052,2209.83,-34.8548,-7.27858,-11.0531
3.8225,4976.31,-2885.08,8777.99,19.5315,-9.31554,-19.9172,15929.9,9565.9,9995.4,-33.202,188.28,-165.002,635.832,10725.7,-488.887,-24.0039,-22.1546,-70.3863,-1851.9,-19343.4,-1658.53,-99.171,0.98942,-329.662,60.5242,10187.6,-760.777,10.0134,-22.8075,-76.2136,-3177.74,-5219.91,2105.17,7.19942,1.47385,-135.907,8673.96,485.319,2203.34,-34.9514,-7.41595,-11.0132
3.823,4959.23,-2883.78,8801.58,19.5255,-9.71216,-19.9142,15901.6,9511.28,10004.9,-34.326,184.688,-167.701,654.402,10718.6,-494.256,-24.03,-21.763,-70.5816,-1879.51,-19476.6,-1778.05,-99.9388,3.07447,-328.838,40.6445,10196.0,-731.776,10.0245,-22.8102,-75.999,-3112.63,-5325.43,2069.99,5.5778,0.769006,-135.709,8676.57,491.974,2208.16,-35.0673,-7.62846,-10.942
3.8235,4942.15,-2882.48,8825.17,19.5195,-10.1088,-19.9112,15873.2,9456.65,10014.5,-35.45,181.096,-170.4,672.972,10711.6,-499.624,-24.0561,-21.3715,-70.777,-1907.12,-19609.8,-1897.58,-100.707,5.15952,-328.015,20.7648,10204.5,-702.776,10.0356,-22.8129,-75.7845,-3047.51,-5430.96,2034.82,3.95618,0.0641634,-135.511,8679.18,498.63,2212.99,-35.1833,-7.84096,-10.8709
3.824,4925.06,-2881.18,8848.75,19.5135,-10.5054,-19.9083,15844.9,9402.03,10024.0,-36.574,177.505,-173.099,691.542,10704.6,-504.992,-24.0822,-20.98,-70.9723,-1934.73,-19743.0,-2017.1,-101.474,7.24457,-327.191,0.885107,10212.9,-673.776,10.0467,-22.8155,-75.57,-2982.39,-5536.48,1999.65,2.33456,-0.640679,-135.313,8681.79,505.286,2217.81,-35.2992,-8.05346,-10.7998
3.8245,4907.98,-2879.88,8872.34,19.5074,-10.902,-19.9053,15816.6,9347.4,10033.6,-37.698,173.913,-175.799,710.113,10697.5,-510.36,-24.1083,-20.5885,-71.1676,-1962.34,-19876.2,-2136.63,-102.242,9.32962,-326.368,-18.9946,10221.4,-644.775,10.0578,-22.8182,-75.3554,-2917.27,-5642.0,1964.48,0.712936,-1.34552,-135.115,8684.4,511.942,2222.64,-35.4151,-8.26597,-10.7287
3.825,4890.9,-2878.58,8895.93,19.5014,-11.2986,-19.9024,15788.3,9292.78,10043.1,-38.822,170.321,-178.498,728.683,10690.5,-515.728,-24.1344,-20.1969,-71.363,-1989.95,-20009.5,-2256.16,-103.01,11.4147,-325.544,-38.8743,10229.8,-615.775,10.0689,-22.8209,-75.1409,-2852.16,-5747.52,1929.31,-0.908684,-2.05036,-134.917,8687.0,518.597,2227.46,-35.531,-8.47847,-10.6576
3.8255,4873.81,-2877.28,8919.52,19.4954,-11.6952,-19.8994,15759.9,9238.15,10052.6,-39.946,166.729,-181.197,747.253,10683.5,-521.097,-24.1605,-19.8054,-71.5583,-2017.56,-20142.7,-2375.68,-103.778,13.4997,-324.72,-58.754,10238.3,-586.774,10.08,-22.8236,-74.9264,-2787.04,-5853.04,1894.14,-2.5303,-2.75521,-134.719,8689.61,525.253,2232.28,-35.647,-8.69097,-10.5865
3.826,4856.73,-2875.98,8943.1,19.4894,-12.0919,-19.8965,15731.6,9183.53,10062.2,-41.07,163.137,-183.897,765.823,10676.4,-526.465,-24.1866,-19.4139,-71.7536,-2045.17,-20275.9,-2495.21,-104.546,15.5848,-323.897,-78.6337,10246.7,-557.774,10.091,-22.8262,-74.7118,-2721.92,-5958.56,1858.96,-4.15192,-3.46005,-134.52,8692.22,531.909,2237.11,-35.7629,-8.90347,-10.5154
3.8265,4839.64,-2874.67,8966.69,19.4833,-12.4885,-19.8935,15703.3,9128.9,10071.7,-42.194,159.545,-186.596,784.394,10669.4,-531.833,-24.2128,-19.0224,-71.9489,-2072.78,-20409.1,-2614.73,-105.313,17.6698,-323.073,-98.5134,10255.2,-528.773,10.1021,-22.8289,-74.4973,-2656.81,-6064.08,1823.79,-5.77354,-4.16489,-134.322,8694.83,538.565,2241.93,-35.8788,-9.11598,-10.4443
3.827,4833.97,-2857.83,8980.89,19.5186,-12.9003,-19.8468,15717.5,9074.42,10065.2,-42.9097,156.094,-189.238,800.369,10665.5,-546.54,-24.1861,-18.6763,-72.1879,-2081.9,-20526.4,-2719.1,-106.015,19.7028,-322.26,-113.986,10256.0,-495.464,10.1318,-22.8343,-74.257,-2590.61,-6190.89,1787.71,-7.21151,-4.62428,-134.017,8691.51,545.84,2241.8,-35.942,-9.29926,-10.4308
3.8275,4834.01,-2833.21,8990.4,19.5745,-13.3197,-19.7782,15753.0,9020.01,10050.7,-43.4211,152.713,-191.853,815.046,10663.1,-565.915,-24.1331,-18.3529,-72.4486,-2081.76,-20635.7,-2815.88,-106.685,21.7097,-321.452,-127.254,10253.0,-459.999,10.1708,-22.8411,-74.0039,-2523.87,-6328.36,1751.17,-8.55766,-4.96094,-133.658,8685.24,553.424,2239.19,-35.9789,-9.46794,-10.4462
3.828,4834.05,-2808.59,8999.91,19.6304,-13.7391,-19.7096,15788.5,8965.6,10036.1,-43.9326,149.332,-194.467,829.724,10660.7,-585.291,-24.0801,-18.0296,-72.7093,-2081.63,-20744.9,-2912.67,-107.354,23.7166,-320.644,-140.523,10250.0,-424.535,10.2098,-22.8478,-73.7507,-2457.14,-6465.82,1714.63,-9.90381,-5.29761,-133.299,8678.96,561.009,2236.57,-36.0157,-9.63662,-10.4616
3.8285,4834.09,-2783.97,9009.42,19.6864,-14.1585,-19.6409,15824.1,8911.19,10021.6,-44.4441,145.951,-197.081,844.401,10658.3,-604.667,-24.0271,-17.7062,-72.97,-2081.5,-20854.2,-3009.45,-108.023,25.7235,-319.836,-153.791,10247.0,-389.07,10.2488,-22.8546,-73.4975,-2390.4,-6603.28,1678.09,-11.25,-5.63427,-132.941,8672.68,568.594,2233.96,-36.0525,-9.8053,-10.477
3.829,4834.13,-2759.35,9018.93,19.7423,-14.5779,-19.5723,15859.6,8856.78,10007.0,-44.9555,142.57,-199.696,859.079,10655.9,-624.043,-23.9741,-17.3829,-73.2308,-2081.36,-20963.5,-3106.24,-108.692,27.7304,-319.028,-167.06,10244.0,-353.606,10.2878,-22.8614,-73.2444,-2323.67,-6740.74,1641.55,-12.5961,-5.97093,-132.582,8666.4,576.178,2231.35,-36.0894,-9.97398,-10.4924
3.8295,4834.17,-2734.73,9028.44,19.7982,-14.9974,-19.5037,15895.1,8802.37,9992.47,-45.467,139.189,-202.31,873.756,10653.5,-643.419,-23.9211,-17.0595,-73.4915,-2081.23,-21072.8,-3203.02,-109.362,29.7373,-318.22,-180.328,10241.1,-318.141,10.3268,-22.8681,-72.9912,-2256.93,-6878.21,1605.01,-13.9422,-6.3076,-132.223,8660.13,583.763,2228.73,-36.1262,-10.1427,-10.5078
3.83,4834.21,-2710.11,9037.95,19.8541,-15.4168,-19.4351,15930.6,8747.96,9977.93,-45.9785,135.808,-204.924,888.434,10651.1,-662.794,-23.8681,-16.7362,-73.7522,-2081.09,-21182.1,-3299.8,-110.031,31.7443,-317.412,-193.597,10238.1,-282.677,10.3658,-22.8749,-72.738,-2190.2,-7015.67,1568.47,-15.2884,-6.64426,-131.864,8653.85,591.348,2226.12,-36.1631,-10.3113,-10.5232
3.8305,4834.24,-2685.49,9047.46,19.91,-15.8362,-19.3665,15966.1,8693.55,9963.38,-46.4899,132.427,-207.539,903.111,10648.7,-682.17,-23.8151,-16.4128,-74.013,-2080.96,-21291.3,-3396.59,-110.7,33.7512,-316.604,-206.865,10235.1,-247.212,10.4048,-22.8817,-72.4849,-2123.46,-7153.13,1531.93,-16.6345,-6.98092,-131.505,8647.57,598.933,2223.51,-36.1999,-10.48,-10.5386
3.831,4834.28,-2660.87,9056.97,19.966,-16.2556,-19.2979,16001.6,8639.14,9948.83,-47.0014,129.046,-210.153,917.789,10646.3,-701.546,-23.7621,-16.0895,-74.2737,-2080.83,-21400.6,-3493.37,-111.37,35.7581,-315.797,-220.134,10232.1,-211.748,10.4438,-22.8884,-72.2317,-2056.73,-7290.6,1495.39,-17.9807,-7.31758,-131.147,8641.3,606.517,2220.89,-36.2367,-10.6487,-10.554
3.8315,4835.65,-2652.92,9065.05,20.093,-16.6277,-19.1944,16093.8,8601.08,9944.19,-47.104,126.027,-212.545,910.101,10646.0,-706.265,-23.7027,-15.9199,-74.6399,-2108.73,-21497.6,-3625.3,-112.105,37.9623,-314.917,-228.117,10251.9,-167.892,10.4551,-23.0375,-71.9027,-1972.78,-7430.41,1473.61,-18.9867,-7.20351,-130.691,8637.91,604.892,2211.87,-36.3031,-10.8497,-10.4974
3.832,4837.4,-2649.74,9072.72,20.2404,-16.9863,-19.0809,16202.1,8567.7,9942.39,-47.0897,123.111,-214.873,896.023,10646.2,-706.797,-23.6414,-15.7943,-75.0363,-2144.65,-21591.0,-3767.27,-112.86,40.2229,-314.017,-234.589,10278.2,-121.638,10.4586,-23.2273,-71.5521,-1883.91,-7570.9,1456.04,-19.8954,-6.96066,-130.208,8635.35,600.635,2201.02,-36.3779,-11.06,-10.4201
3.8325,4839.16,-2646.56,9080.39,20.3878,-17.3449,-18.9675,16310.4,8534.32,9940.59,-47.0754,120.196,-217.202,881.945,10646.4,-707.328,-23.5801,-15.6687,-75.4327,-2180.57,-21684.5,-3909.24,-113.614,42.4834,-313.116,-241.061,10304.5,-75.384,10.462,-23.417,-71.2014,-1795.04,-7711.39,1438.47,-20.8042,-6.7178,-129.726,8632.8,596.379,2190.17,-36.4527,-11.2703,-10.3429
3.833,4840.91,-2643.37,9088.06,20.5352,-17.7034,-18.854,16418.7,8500.93,9938.78,-47.0611,117.281,-219.53,867.867,10646.7,-707.86,-23.5189,-15.543,-75.8291,-2216.49,-21777.9,-4051.21,-114.369,44.744,-312.216,-247.533,10330.8,-29.1302,10.4655,-23.6068,-70.8507,-1706.17,-7851.88,1420.91,-21.713,-6.47495,-129.243,8630.24,592.122,2179.32,-36.5275,-11.4805,-10.2657
3.8335,4842.66,-2640.19,9095.73,20.6826,-18.062,-18.7406,16527.0,8467.55,9936.98,-47.0468,114.365,-221.859,853.789,10646.9,-708.391,-23.4576,-15.4174,-76.2255,-2252.41,-21871.4,-4193.18,-115.123,47.0046,-311.316,-254.005,10357.1,17.1237,10.469,-23.7965,-70.5001,-1617.3,-7992.37,1403.34,-22.6217,-6.23209,-128.76,8627.68,587.866,2168.47,-36.6023,-11.6908,-10.1885
3.834,4844.41,-2637.01,9103.4,20.83,-18.4206,-18.6271,16635.3,8434.17,9935.18,-47.0325,111.45,-224.187,839.71,10647.1,-708.923,-23.3963,-15.2918,-76.6218,-2288.33,-21964.8,-4335.15,-115.878,49.2651,-310.416,-260.478,10383.4,63.3776,10.4724,-23.9862,-70.1494,-1528.43,-8132.86,1385.77,-23.5305,-5.98924,-128.277,8625.12,583.609,2157.62,-36.6771,-11.9011,-10.1113
3.8345,4846.16,-2633.82,9111.07,20.9774,-18.7792,-18.5137,16743.6,8400.78,9933.37,-47.0182,108.535,-226.515,825.632,10647.4,-709.455,-23.335,-15.1662,-77.0182,-2324.25,-22058.3,-4477.12,-116.632,51.5257,-309.515,-266.95,10409.7,109.631,10.4759,-24.176,-69.7988,-1439.57,-8273.34,1368.2,-24.4393,-5.74639,-127.794,8622.57,579.353,2146.77,-36.7519,-12.1114,-10.034
3.835,4847.91,-2630.64,9118.74,21.1248,-19.1378,-18.4002,16851.9,8367.4,9931.57,-47.0039,105.619,-228.844,811.554,10647.6,-709.986,-23.2738,-15.0405,-77.4146,-2360.17,-22151.7,-4619.09,-117.387,53.7863,-308.615,-273.422,10436.0,155.885,10.4793,-24.3657,-69.4481,-1350.7,-8413.83,1350.64,-25.348,-5.50353,-127.311,8620.01,575.096,2135.92,-36.8267,-12.3216,-9.95681
3.8355,4849.66,-2627.46,9126.4,21.2722,-19.4964,-18.2868,16960.2,8334.01,9929.76,-46.9896,102.704,-231.172,797.476,10647.8,-710.518,-23.2125,-14.9149,-77.811,-2396.09,-22245.2,-4761.06,-118.141,56.0468,-307.715,-279.894,10462.3,202.139,10.4828,-24.5555,-69.0974,-1261.83,-8554.32,1333.07,-26.2568,-5.26068,-126.828,8617.45,570.839,2125.07,-36.9015,-12.5319,-9.87959
3.836,4835.23,-2675.32,9135.74,21.3724,-19.9035,-18.2714,17127.7,8353.01,9897.51,-46.5083,100.458,-233.017,789.093,10658.0,-714.728,-23.2059,-14.7712,-78.1554,-2454.86,-22337.5,-4917.75,-119.004,58.947,-306.747,-278.485,10482.6,245.164,10.406,-24.8455,-68.7952,-1167.74,-8693.37,1341.04,-26.7512,-4.64789,-126.122,8614.55,573.846,2100.54,-36.9852,-12.6967,-9.81756
3.8365,4818.78,-2729.57,9145.29,21.4667,-20.3167,-18.2682,17302.7,8378.55,9861.44,-45.9685,98.2955,-234.802,781.421,10669.4,-719.398,-23.2062,-14.6252,-78.4933,-2516.49,-22429.6,-5076.28,-119.88,61.9272,-305.77,-276.091,10502.1,287.785,10.3191,-25.1481,-68.4989,-1073.01,-8832.23,1352.21,-27.1938,-3.98886,-125.388,8611.6,577.762,2074.3,-37.0699,-12.8558,-9.75744
3.837,4802.33,-2783.81,9154.84,21.5609,-20.7299,-18.2651,17477.6,8404.09,9825.38,-45.4288,96.1332,-236.587,773.749,10680.8,-724.067,-23.2065,-14.4793,-78.8312,-2578.13,-22521.8,-5234.81,-120.756,64.9074,-304.793,-273.697,10521.7,330.406,10.2323,-25.4506,-68.2027,-978.268,-8971.1,1363.38,-27.6363,-3.32983,-124.654,8608.66,581.677,2048.07,-37.1547,-13.0149,-9.69731
3.8375,4785.88,-2838.05,9164.39,21.6552,-21.1432,-18.262,17652.5,8429.63,9789.31,-44.8891,93.971,-238.372,766.077,10692.2,-728.737,-23.2068,-14.3333,-79.169,-2639.76,-22613.9,-5393.33,-121.631,67.8875,-303.817,-271.303,10541.3,373.027,10.1454,-25.7532,-67.9064,-883.53,-9109.97,1374.55,-28.0789,-2.6708,-123.919,8605.71,585.592,2021.83,-37.2395,-13.174,-9.63718
3.838,4769.43,-2892.3,9173.94,21.7495,-21.5564,-18.2589,17827.5,8455.18,9753.25,-44.3493,91.8087,-240.157,758.405,10703.7,-733.407,-23.2071,-14.1874,-79.5069,-2701.39,-22706.0,-5551.86,-122.507,70.8677,-302.84,-268.909,10560.9,415.648,10.0586,-26.0558,-67.6102,-788.792,-9248.83,1385.72,-28.5215,-2.01177,-123.185,8602.76,589.507,1995.59,-37.3242,-13.3332,-9.57706
3.8385,4752.98,-2946.54,9183.49,21.8438,-21.9696,-18.2558,18002.4,8480.72,9717.18,-43.8096,89.6464,-241.942,750.734,10715.1,-738.077,-23.2074,-14.0414,-79.8448,-2763.02,-22798.2,-5710.39,-123.383,73.8479,-301.864,-266.515,10580.4,458.27,9.97174,-26.3583,-67.3139,-694.055,-9387.7,1396.88,-28.9641,-1.35274,-122.451,8599.82,593.422,1969.35,-37.409,-13.4923,-9.51693
3.839,4736.52,-3000.78,9193.03,21.9381,-22.3828,-18.2526,18177.3,8506.26,9681.12,-43.2699,87.4841,-243.727,743.062,10726.5,-742.747,-23.2077,-13.8955,-80.1827,-2824.65,-22890.3,-5868.92,-124.259,76.828,-300.887,-264.121,10600.0,500.891,9.88489,-26.6609,-67.0177,-599.317,-9526.56,1408.05,-29.4066,-0.693705,-121.717,8596.87,597.338,1943.11,-37.4937,-13.6514,-9.4568
3.8395,4720.07,-3055.03,9202.58,22.0324,-22.796,-18.2495,18352.3,8531.81,9645.05,-42.7301,85.3218,-245.512,735.39,10737.9,-747.416,-23.2079,-13.7495,-80.5206,-2886.28,-22982.5,-6027.44,-125.135,79.8082,-299.91,-261.727,10619.6,543.512,9.79805,-26.9634,-66.7214,-504.579,-9665.43,1419.22,-29.8492,-0.0346743,-120.983,8593.93,601.253,1916.88,-37.5785,-13.8105,-9.39668
3.84,4703.62,-3109.27,9212.13,22.1267,-23.2092,-18.2464,18527.2,8557.35,9608.99,-42.1904,83.1596,-247.298,727.718,10749.3,-752.086,-23.2082,-13.6036,-80.8585,-2947.91,-23074.6,-6185.97,-126.011,82.7884,-298.934,-259.333,10639.1,586.133,9.7112,-27.266,-66.4252,-409.842,-9804.3,1430.39,-30.2918,0.624357,-120.248,8590.98,605.168,1890.64,-37.6633,-13.9696,-9.33655
3.8405,4699.35,-3144.93,9212.37,22.0259,-23.6808,-18.462,18776.1,8629.57,9545.59,-41.933,81.8921,-248.661,732.309,10775.0,-761.479,-23.2299,-13.326,-81.0773,-2984.81,-23098.9,-6291.32,-126.789,86.3501,-298.124,-241.509,10641.7,604.944,9.63642,-27.7278,-66.1675,-313.65,-9941.12,1449.14,-30.0833,1.69042,-119.367,8594.99,598.504,1869.18,-37.9564,-14.0043,-9.24861
3.841,4695.07,-3180.59,9212.62,21.9252,-24.1524,-18.6775,19025.0,8701.79,9482.2,-41.6757,80.6247,-250.025,736.899,10800.6,-770.872,-23.2517,-13.0485,-81.2961,-3021.72,-23123.3,-6396.68,-127.567,89.9118,-297.315,-223.686,10644.2,623.755,9.56164,-28.1897,-65.9099,-217.459,-10077.9,1467.88,-29.8748,2.75648,-118.486,8599.01,591.839,1847.72,-38.2495,-14.039,-9.16067
3.8415,4690.8,-3216.25,9212.86,21.8244,-24.624,-18.8931,19273.8,8774.02,9418.81,-41.4183,79.3573,-251.389,741.49,10826.3,-780.264,-23.2734,-12.771,-81.515,-3058.63,-23147.6,-6502.03,-128.344,93.4735,-296.505,-205.862,10646.7,642.566,9.48685,-28.6515,-65.6523,-121.267,-10214.8,1486.63,-29.6662,3.82254,-117.604,8603.02,585.175,1826.26,-38.5425,-14.0737,-9.07273
3.842,4686.53,-3251.92,9213.11,21.7236,-25.0956,-19.1087,19522.7,8846.24,9355.41,-41.161,78.0898,-252.752,746.081,10851.9,-789.657,-23.2951,-12.4935,-81.7338,-3095.53,-23171.9,-6607.39,-129.122,97.0352,-295.696,-188.039,10649.3,661.377,9.41207,-29.1134,-65.3947,-25.076,-10351.6,1505.37,-29.4577,4.8886,-116.723,8607.03,578.511,1804.8,-38.8356,-14.1084,-8.98479
3.8425,4682.25,-3287.58,9213.35,21.6229,-25.5672,-19.3243,19771.6,8918.46,9292.02,-40.9036,76.8224,-254.116,750.672,10877.6,-799.05,-23.3168,-12.2159,-81.9527,-3132.44,-23196.3,-6712.74,-129.9,100.597,-294.886,-170.215,10651.8,680.188,9.33729,-29.5752,-65.137,71.1154,-10488.4,1524.12,-29.2492,5.95466,-115.841,8611.05,571.847,1783.34,-39.1287,-14.1431,-8.89686
3.843,4677.98,-3323.24,9213.6,21.5221,-26.0388,-19.5398,20020.5,8990.68,9228.63,-40.6463,75.5549,-255.48,755.262,10903.3,-808.443,-23.3385,-11.9384,-82.1715,-3169.35,-23220.6,-6818.09,-130.678,104.159,-294.077,-152.392,10654.4,698.999,9.26251,-30.037,-64.8794,167.307,-10625.2,1542.87,-29.0407,7.02072,-114.96,8615.06,565.182,1761.88,-39.4218,-14.1778,-8.80892
3.8435,4673.71,-3358.9,9213.84,21.4213,-26.5105,-19.7554,20269.4,9062.91,9165.24,-40.3889,74.2875,-256.843,759.853,10928.9,-817.835,-23.3602,-11.6609,-82.3904,-3206.25,-23244.9,-6923.45,-131.455,107.72,-293.268,-134.568,10656.9,717.81,9.18773,-30.4989,-64.6218,263.498,-10762.0,1561.61,-28.8322,8.08678,-114.079,8619.07,558.518,1740.42,-39.7149,-14.2125,-8.72098
3.844,4669.43,-3394.56,9214.09,21.3205,-26.9821,-19.971,20518.3,9135.13,9101.84,-40.1316,73.0201,-258.207,764.444,10954.6,-827.228,-23.382,-11.3834,-82.6092,-3243.16,-23269.3,-7028.8,-132.233,111.282,-292.458,-116.745,10659.4,736.621,9.11295,-30.9607,-64.3641,359.69,-10898.9,1580.36,-28.6237,9.15284,-113.197,8623.08,551.854,1718.96,-40.008,-14.2472,-8.63304
3.8445,4665.55,-3421.97,9214.27,21.2273,-27.4538,-20.1666,20767.1,9211.17,9039.91,-39.8668,71.834,-259.529,768.943,10978.8,-835.21,-23.399,-11.0996,-82.8273,-3284.59,-23285.0,-7131.38,-133.043,114.865,-291.638,-98.3359,10660.4,752.105,9.04509,-31.4311,-64.1009,455.881,-11036.3,1601.18,-28.3182,10.3094,-112.321,8627.2,545.515,1699.71,-40.2963,-14.2843,-8.55501
3.845,4664.81,-3383.39,9213.95,21.1946,-27.9266,-20.2026,21015.3,9317.76,8989.68,-39.5423,71.2989,-260.515,772.709,10992.1,-831.907,-23.3785,-10.7658,-83.0391,-3362.22,-23231.8,-7211.76,-134.109,118.623,-290.733,-75.2452,10649.1,740.973,9.03267,-31.9697,-63.7932,552.078,-11178.5,1638.65,-27.2372,12.1904,-111.489,8632.14,541.781,1698.13,-40.5464,-14.3404,-8.55622
3.8455,4664.07,-3344.82,9213.63,21.1619,-28.3995,-20.2386,21263.5,9424.36,8939.44,-39.2178,70.7638,-261.502,776.475,11005.3,-828.603,-23.3579,-10.432,-83.2509,-3439.86,-23178.6,-7292.13,-135.175,122.38,-289.828,-52.1545,10637.8,729.841,9.02025,-32.5083,-63.4854,648.274,-11320.8,1676.11,-26.1562,14.0713,-110.656,8637.09,538.047,1696.56,-40.7964,-14.3966,-8.55743
3.846,4663.33,-3306.24,9213.31,21.1291,-28.8723,-20.2745,21511.7,9530.95,8889.21,-38.8933,70.2286,-262.489,780.241,11018.6,-825.299,-23.3374,-10.0982,-83.4627,-3517.49,-23125.4,-7372.51,-136.241,126.137,-288.923,-29.0639,10626.5,718.709,9.00783,-33.0468,-63.1776,744.471,-11463.0,1713.57,-25.0752,15.9523,-109.824,8642.03,534.313,1694.99,-41.0464,-14.4528,-8.55863
3.8465,4662.58,-3267.66,9212.98,21.0964,-29.3451,-20.3105,21759.9,9637.54,8838.97,-38.5688,69.6935,-263.475,784.007,11031.8,-821.995,-23.3169,-9.76445,-83.6746,-3595.12,-23072.1,-7452.88,-137.307,129.894,-288.018,-5.9732,10615.1,707.577,8.9954,-33.5854,-62.8698,840.667,-11605.3,1751.03,-23.9942,17.8332,-108.992,8646.97,530.578,1693.41,-41.2965,-14.509,-8.55984
3.847,4661.84,-3229.08,9212.66,21.0637,-29.818,-20.3465,22008.1,9744.13,8788.74,-38.2443,69.1584,-264.462,787.773,11045.1,-818.692,-23.2964,-9.43066,-83.8864,-3672.76,-23018.9,-7533.26,-138.374,133.652,-287.113,17.1175,10603.8,696.445,8.98298,-34.124,-62.562,936.864,-11747.5,1788.49,-22.9132,19.7142,-108.159,8651.92,526.844,1691.84,-41.5465,-14.5652,-8.56106
3.8475,4661.1,-3190.5,9212.34,21.0309,-30.2908,-20.3825,22256.3,9850.73,8738.5,-37.9198,68.6233,-265.449,791.539,11058.3,-815.388,-23.2759,-9.09687,-84.0982,-3750.39,-22965.7,-7613.63,-139.44,137.409,-286.208,40.2081,10592.5,685.313,8.97056,-34.6626,-62.2542,1033.06,-11889.8,1825.95,-21.8322,21.5951,-107.327,8656.86,523.11,1690.27,-41.7965,-14.6213,-8.56226
3.848,4660.36,-3151.93,9212.02,20.9982,-30.7636,-20.4184,22504.5,9957.32,8688.27,-37.5953,68.0882,-266.435,795.305,11071.5,-812.084,-23.2553,-8.76308,-84.31,-3828.02,-22912.5,-7694.01,-140.506,141.166,-285.303,63.2988,10581.2,674.181,8.95814,-35.2012,-61.9464,1129.26,-12032.0,1863.41,-20.7512,23.476,-106.494,8661.8,519.376,1688.69,-42.0465,-14.6775,-8.56347
3.8485,4659.61,-3113.35,9211.7,20.9655,-31.2365,-20.4544,22752.7,10063.9,8638.03,-37.2709,67.553,-267.422,799.071,11084.8,-808.781,-23.2348,-8.42929,-84.5218,-3905.66,-22859.3,-7774.39,-141.572,144.923,-284.398,86.3895,10569.9,663.049,8.94571,-35.7397,-61.6387,1225.45,-12174.3,1900.87,-19.6702,25.357,-105.662,8666.75,515.641,1687.12,-42.2966,-14.7337,-8.56468
3.849,4661.95,-3076.41,9214.56,20.9582,-31.7011,-20.4669,22998.9,10148.7,8584.46,-37.0103,67.2111,-268.365,802.067,11096.8,-803.937,-23.2332,-8.09252,-84.7522,-4007.38,-22790.7,-7839.18,-142.602,148.607,-283.417,110.434,10556.8,649.199,8.93897,-36.2859,-61.3523,1319.84,-12307.3,1941.64,-18.4831,27.4307,-104.81,8671.02,511.779,1685.52,-42.537,-14.7999,-8.56368
3.8495,4675.06,-3045.22,9228.57,21.0402,-32.137,-20.3971,23238.1,10157.4,8519.19,-36.9735,67.5453,-269.152,802.369,11104.6,-793.702,-23.2977,-7.74533,-85.0473,-4193.42,-22668.0,-7849.46,-143.504,152.034,-282.17,137.816,10537.7,625.832,8.95211,-36.8583,-61.1407,1407.91,-12407.9,1993.97,-16.9245,30.1794,-103.888,8672.96,507.466,1683.8,-42.7437,-14.901,-8.55491
3.85,4688.17,-3014.03,9242.58,21.1222,-32.5729,-20.3274,23477.3,10166.1,8453.92,-36.9366,67.8795,-269.94,802.671,11112.4,-783.467,-23.3623,-7.39814,-85.3424,-4379.47,-22545.3,-7859.73,-144.407,155.461,-280.922,165.198,10518.5,602.466,8.96525,-37.4307,-60.9291,1495.98,-12508.5,2046.31,-15.3659,32.928,-102.967,8674.89,503.153,1682.09,-42.9505,-15.0021,-8.54615
3.8505,4701.28,-2982.84,9256.59,21.2042,-33.0088,-20.2576,23716.5,10174.8,8388.66,-36.8998,68.2137,-270.727,802.973,11120.2,-773.232,-23.4268,-7.05094,-85.6375,-4565.51,-22422.6,-7870.01,-145.309,158.888,-279.675,192.58,10499.4,579.099,8.97838,-38.0032,-60.7176,1584.04,-12609.1,2098.64,-13.8073,35.6767,-102.045,8676.83,498.84,1680.38,-43.1572,-15.1032,-8.53739
3.851,4714.39,-2951.65,9270.6,21.2862,-33.4447,-20.1879,23955.7,10183.5,8323.39,-36.863,68.5479,-271.515,803.275,11128.0,-762.997,-23.4913,-6.70375,-85.9325,-4751.55,-22299.9,-7880.28,-146.211,162.315,-278.427,219.962,10480.3,555.733,8.99152,-38.5756,-60.506,1672.11,-12709.7,2150.97,-12.2487,38.4253,-101.124,8678.76,494.527,1678.67,-43.364,-15.2043,-8.52862
3.8515,4727.5,-2920.46,9284.61,21.3682,-33.8806,-20.1181,24194.9,10192.2,8258.12,-36.8261,68.8821,-272.303,803.577,11135.8,-752.762,-23.5559,-6.35655,-86.2276,-4937.59,-22177.3,-7890.56,-147.114,165.742,-277.18,247.344,10461.2,532.366,9.00466,-39.1481,-60.2945,1760.18,-12810.2,2203.31,-10.6901,41.174,-100.202,8680.7,490.214,1676.96,-43.5707,-15.3054,-8.51986
3.852,4740.61,-2889.27,9298.62,21.4502,-34.3165,-20.0483,24434.1,10200.8,8192.86,-36.7893,69.2163,-273.09,803.879,11143.6,-742.527,-23.6204,-6.00936,-86.5228,-5123.64,-22054.6,-7900.83,-148.016,169.169,-275.932,274.726,10442.0,509.0,9.01779,-39.7205,-60.0829,1848.25,-12910.8,2255.64,-9.13149,43.9226,-99.2805,8682.63,485.901,1675.24,-43.7775,-15.4066,-8.51109
3.8525,4753.72,-2858.08,9312.63,21.5322,-34.7523,-19.9786,24673.3,10209.5,8127.59,-36.7525,69.5505,-273.878,804.181,11151.3,-732.292,-23.6849,-5.66217,-86.8178,-5309.68,-21931.9,-7911.11,-148.918,172.596,-274.685,302.108,10422.9,485.633,9.03093,-40.2929,-59.8713,1936.31,-13011.4,2307.98,-7.57289,46.6712,-98.3589,8684.57,481.588,1673.53,-43.9842,-15.5077,-8.50233
3.853,4766.83,-2826.89,9326.64,21.6141,-35.1882,-19.9088,24912.5,10218.2,8062.32,-36.7156,69.8847,-274.665,804.483,11159.1,-722.057,-23.7495,-5.31497,-87.1129,-5495.72,-21809.2,-7921.38,-149.821,176.023,-273.437,329.49,10403.8,462.267,9.04407,-40.8654,-59.6598,2024.38,-13112.0,2360.31,-6.0143,49.4199,-97.4374,8686.5,477.275,1671.82,-44.191,-15.6088,-8.49356
3.8535,4778.97,-2810.68,9338.32,21.7103,-35.6214,-19.8516,25138.7,10152.5,7997.74,-36.6232,70.422,-275.68,805.144,11165.7,-713.11,-23.8638,-4.97983,-87.4223,-5701.35,-21697.5,-7919.64,-150.727,179.264,-272.085,349.441,10387.3,432.449,9.07873,-41.4021,-59.4738,2107.63,-13184.9,2409.74,-4.47623,52.1322,-96.547,8694.36,475.618,1677.17,-44.3052,-15.6715,-8.49823
3.854,4789.18,-2824.43,9345.34,21.8348,-36.0493,-19.8196,25338.8,9937.94,7934.52,-36.4195,71.3656,-277.147,806.524,11169.9,-706.736,-24.0777,-4.6688,-87.7603,-5946.16,-21607.6,-7893.88,-151.64,182.132,-270.523,354.531,10376.1,389.729,9.15646,-41.8674,-59.3392,2181.23,-13202.4,2453.35,-2.97923,54.7718,-95.7189,8714.06,479.271,1696.65,-44.2345,-15.6573,-8.52977
3.8545,4799.38,-2838.19,9352.36,21.9594,-36.4771,-19.7877,25538.9,9723.41,7871.29,-36.2158,72.3092,-278.614,807.904,11174.1,-700.363,-24.2916,-4.35778,-88.0983,-6190.96,-21517.7,-7868.11,-152.554,185.001,-268.961,359.621,10364.9,347.008,9.23418,-42.3326,-59.2045,2254.83,-13219.9,2496.96,-1.48223,57.4114,-94.8909,8733.76,482.924,1716.13,-44.1638,-15.6432,-8.5613
3.855,4809.58,-2851.94,9359.38,22.0839,-36.905,-19.7557,25739.0,9508.88,7808.07,-36.0121,73.2527,-280.082,809.283,11178.3,-693.989,-24.5055,-4.04675,-88.4363,-6435.77,-21427.8,-7842.35,-153.467,187.869,-267.4,364.711,10353.7,304.288,9.3119,-42.7979,-59.0699,2328.44,-13237.5,2540.57,0.0147676,60.051,-94.0628,8753.46,486.578,1735.61,-44.0931,-15.6291,-8.59283
3.8555,4819.79,-2865.69,9366.4,22.2085,-37.3328,-19.7237,25939.1,9294.34,7744.85,-35.8084,74.1963,-281.549,810.663,11182.5,-687.616,-24.7194,-3.73572,-88.7743,-6680.57,-21338.0,-7816.59,-154.381,190.737,-265.838,369.8,10342.5,261.567,9.38962,-43.2632,-58.9352,2402.04,-13255.0,2584.18,1.51177,62.6906,-93.2347,8773.16,490.231,1755.09,-44.0224,-15.6149,-8.62437
3.856,4829.99,-2879.45,9373.42,22.333,-37.7606,-19.6917,26139.2,9079.81,7681.63,-35.6046,75.1398,-283.016,812.043,11186.7,-681.242,-24.9333,-3.42469,-89.1123,-6925.38,-21248.1,-7790.82,-155.294,193.605,-264.276,374.89,10331.3,218.847,9.46734,-43.7285,-58.8005,2475.64,-13272.5,2627.79,3.00877,65.3302,-92.4066,8792.86,493.885,1774.57,-43.9517,-15.6008,-8.6559
3.8565,4840.2,-2893.2,9380.44,22.4575,-38.1885,-19.6597,26339.3,8865.28,7618.41,-35.4009,76.0834,-284.484,813.422,11190.9,-674.868,-25.1472,-3.11366,-89.4503,-7170.18,-21158.2,-7765.06,-156.208,196.474,-262.714,379.98,10320.1,176.127,9.54506,-44.1937,-58.6659,2549.25,-13290.0,2671.4,4.50577,67.9698,-91.5786,8812.56,497.538,1794.05,-43.881,-15.5866,-8.68743
3.857,4850.4,-2906.95,9387.46,22.5821,-38.6163,-19.6277,26539.4,8650.75,7555.19,-35.1972,77.0269,-285.951,814.802,11195.1,-668.495,-25.3611,-2.80264,-89.7883,-7414.99,-21068.3,-7739.29,-157.121,199.342,-261.152,385.07,10308.9,133.406,9.62278,-44.659,-58.5312,2622.85,-13307.5,2715.01,6.00277,70.6094,-90.7505,8832.25,501.191,1813.52,-43.8103,-15.5725,-8.71897
3.8575,4860.6,-2920.71,9394.48,22.7066,-39.0441,-19.5957,26739.5,8436.21,7491.97,-34.9935,77.9705,-287.419,816.182,11199.3,-662.121,-25.575,-2.49161,-90.1262,-7659.79,-20978.4,-7713.53,-158.035,202.21,-259.591,390.159,10297.7,90.6858,9.7005,-45.1243,-58.3966,2696.46,-13325.0,2758.62,7.49977,73.249,-89.9224,8851.95,504.845,1833.0,-43.7396,-15.5583,-8.7505
3.858,4865.23,-2938.27,9400.5,22.8267,-39.5319,-19.584,26905.8,8174.98,7456.21,-34.3386,78.9534,-288.911,813.208,11207.6,-663.816,-25.7781,-2.21563,-90.4334,-7925.25,-20922.5,-7629.24,-158.561,204.556,-258.022,400.696,10292.0,45.589,9.79826,-45.5297,-58.2502,2767.42,-13306.5,2817.12,8.8866,75.1602,-89.117,8869.47,505.751,1849.0,-43.6223,-15.5656,-8.78683
3.8585,4862.87,-2960.58,9405.25,22.9412,-40.0945,-19.5976,27030.1,7855.38,7454.78,-33.1197,79.9855,-290.435,804.791,11221.1,-675.596,-25.9676,-1.98347,-90.7021,-8216.53,-20909.1,-7471.81,-158.602,206.248,-256.445,418.043,10293.3,-2.47817,9.92105,-45.8602,-58.0892,2835.09,-13242.9,2894.23,10.1357,76.1608,-88.34,8884.24,503.224,1860.66,-43.4468,-15.5996,-8.82917
3.859,4860.52,-2982.9,9410.01,23.0557,-40.6571,-19.6113,27154.3,7535.77,7453.36,-31.9009,81.0176,-291.959,796.375,11234.7,-687.376,-26.1572,-1.75132,-90.9707,-8507.8,-20895.7,-7314.38,-158.643,207.941,-254.869,435.389,10294.6,-50.5453,10.0438,-46.1908,-57.9283,2902.76,-13179.2,2971.34,11.3848,77.1615,-87.563,8899.02,500.696,1872.31,-43.2713,-15.6336,-8.87151
3.8595,4858.17,-3005.21,9414.77,23.1703,-41.2198,-19.6249,27278.5,7216.16,7451.93,-30.682,82.0497,-293.483,787.959,11248.2,-699.156,-26.3467,-1.51916,-91.2394,-8799.08,-20882.3,-7156.94,-158.685,209.634,-253.292,452.736,10295.9,-98.6125,10.1666,-46.5213,-57.7673,2970.42,-13115.6,3048.46,12.6339,78.1621,-86.786,8913.8,498.169,1883.97,-43.0958,-15.6676,-8.91384
3.86,4855.82,-3027.53,9419.53,23.2848,-41.7824,-19.6385,27402.8,6896.56,7450.51,-29.4631,83.0818,-295.007,779.543,11261.7,-710.935,-26.5362,-1.287,-91.5081,-9090.36,-20868.9,-6999.51,-158.726,211.326,-251.715,470.082,10297.2,-146.68,10.2894,-46.8519,-57.6064,3038.09,-13052.0,3125.57,13.8831,79.1627,-86.009,8928.57,495.641,1895.62,-42.9202,-15.7016,-8.95618
3.8605,4853.46,-3049.84,9424.29,23.3993,-42.345,-19.6521,27527.0,6576.95,7449.08,-28.2442,84.1139,-296.53,771.127,11275.3,-722.715,-26.7258,-1.05484,-91.7767,-9381.63,-20855.5,-6842.07,-158.767,213.019,-250.138,487.429,10298.5,-194.747,10.4122,-47.1825,-57.4454,3105.76,-12988.4,3202.68,15.1322,80.1634,-85.2321,8943.35,493.114,1907.28,-42.7447,-15.7356,-8.99851
3.861,4851.11,-3072.16,9429.05,23.5138,-42.9077,-19.6657,27651.2,6257.35,7447.66,-27.0254,85.146,-298.054,762.711,11288.8,-734.495,-26.9153,-0.82268,-92.0454,-9672.91,-20842.1,-6684.64,-158.809,214.711,-248.561,504.775,10299.9,-242.814,10.535,-47.513,-57.2844,3173.43,-12924.7,3279.79,16.3813,81.164,-84.4551,8958.13,490.586,1918.93,-42.5692,-15.7696,-9.04085
3.8615,4848.76,-3094.47,9433.81,23.6284,-43.4703,-19.6794,27775.5,5937.74,7446.24,-25.8065,86.1781,-299.578,754.295,11302.3,-746.275,-27.1049,-0.590521,-92.314,-9964.18,-20828.6,-6527.2,-158.85,216.404,-246.984,522.122,10301.2,-290.881,10.6578,-47.8436,-57.1235,3241.09,-12861.1,3356.91,17.6304,82.1647,-83.6781,8972.91,488.059,1930.59,-42.3937,-15.8036,-9.08318
3.862,4846.41,-3116.79,9438.57,23.7429,-44.0329,-19.693,27899.7,5618.14,7444.81,-24.5876,87.2102,-301.102,745.879,11315.9,-758.055,-27.2944,-0.358362,-92.5827,-10255.5,-20815.2,-6369.77,-158.891,218.097,-245.408,539.468,10302.5,-338.948,10.7806,-48.1741,-56.9625,3308.76,-12797.5,3434.02,18.8795,83.1653,-82.9011,8987.68,485.531,1942.24,-42.2182,-15.8375,-9.12552
3.8625,4842.37,-3126.16,9440.76,23.8451,-44.6044,-19.6925,27968.0,5276.37,7419.23,-22.7692,88.2512,-302.457,734.93,11331.3,-780.982,-27.4627,-0.168066,-92.8651,-10498.9,-20813.7,-6124.31,-158.257,219.062,-243.92,556.789,10304.3,-383.194,10.8654,-48.4886,-56.8491,3374.54,-12707.1,3493.03,19.7405,83.0632,-82.2515,9002.11,495.753,1939.11,-41.9994,-15.8247,-9.21466
3.863,4836.99,-3125.18,9440.91,23.9375,-45.1829,-19.6809,27991.6,4916.86,7374.33,-20.4713,89.2993,-303.678,721.955,11348.3,-812.827,-27.6139,-0.0112591,-93.1583,-10704.0,-20821.6,-5808.43,-157.082,219.446,-242.503,574.089,10306.7,-424.383,10.9197,-48.7902,-56.7736,3438.81,-12595.2,3537.55,20.2911,82.0788,-81.7039,9016.25,516.173,1924.14,-41.7461,-15.7745,-9.34126
3.8635,4831.6,-3124.2,9441.05,24.0299,-45.7614,-19.6692,28015.1,4557.36,7329.43,-18.1734,90.3475,-304.899,708.98,11365.3,-844.672,-27.7651,0.145548,-93.4516,-10909.1,-20829.5,-5492.54,-155.907,219.83,-241.086,591.39,10309.0,-465.572,10.9739,-49.0918,-56.6981,3503.08,-12483.3,3582.07,20.8416,81.0945,-81.1563,9030.4,536.594,1909.18,-41.4928,-15.7242,-9.46785
3.864,4826.22,-3123.22,9441.19,24.1222,-46.3399,-19.6575,28038.7,4197.86,7284.53,-15.8755,91.3957,-306.119,696.005,11382.3,-876.518,-27.9163,0.302354,-93.7449,-11114.2,-20837.4,-5176.66,-154.732,220.214,-239.67,608.69,10311.3,-506.761,11.0282,-49.3933,-56.6227,3567.35,-12371.4,3626.6,21.3922,80.1101,-80.6087,9044.54,557.015,1894.21,-41.2395,-15.6739,-9.59444
3.8645,4820.83,-3122.24,9441.33,24.2146,-46.9184,-19.6458,28062.2,3838.36,7239.63,-13.5775,92.4438,-307.34,683.03,11399.3,-908.363,-28.0675,0.459161,-94.0382,-11319.3,-20845.3,-4860.78,-153.557,220.598,-238.253,625.99,10313.6,-547.95,11.0825,-49.6949,-56.5472,3631.62,-12259.5,3671.12,21.9427,79.1258,-80.0611,9058.69,577.435,1879.24,-40.9861,-15.6237,-9.72103
3.865,4815.45,-3121.27,9441.48,24.3069,-47.4968,-19.6342,28085.8,3478.86,7194.73,-11.2796,93.492,-308.56,670.055,11416.3,-940.208,-28.2187,0.615968,-94.3315,-11524.4,-20853.2,-4544.9,-152.382,220.982,-236.836,643.29,10315.9,-589.139,11.1368,-49.9965,-56.4718,3695.89,-12147.6,3715.64,22.4933,78.1414,-79.5135,9072.83,597.856,1864.28,-40.7328,-15.5734,-9.84762
3.8655,4810.07,-3120.29,9441.62,24.3993,-48.0753,-19.6225,28109.3,3119.36,7149.83,-8.9817,94.5401,-309.781,657.08,11433.3,-972.053,-28.3699,0.772774,-94.6247,-11729.5,-20861.1,-4229.01,-151.208,221.367,-235.42,660.591,10318.3,-630.328,11.1911,-50.2981,-56.3963,3760.16,-12035.8,3760.16,23.0438,77.1571,-78.9659,9086.98,618.276,1849.31,-40.4795,-15.5232,-9.97421
3.866,4804.68,-3119.31,9441.76,24.4917,-48.6538,-19.6108,28132.9,2759.86,7104.93,-6.68377,95.5882,-311.001,644.105,11450.3,-1003.9,-28.5211,0.929581,-94.918,-11934.6,-20869.0,-3913.13,-150.033,221.751,-234.003,677.891,10320.6,-671.517,11.2454,-50.5996,-56.3209,3824.43,-11923.9,3804.69,23.5944,76.1727,-78.4183,9101.12,638.697,1834.35,-40.2261,-15.4729,-10.1008
3.8665,4799.3,-3118.33,9441.9,24.584,-49.2323,-19.5991,28156.4,2400.36,7060.03,-4.38585,96.6364,-312.222,631.13,11467.2,-1035.74,-28.6723,1.08639,-95.2113,-12139.7,-20877.0,-3597.25,-148.858,222.135,-232.586,695.191,10322.9,-712.706,11.2997,-50.9012,-56.2454,3888.7,-11812.0,3849.21,24.1449,75.1884,-77.8707,9115.27,659.117,1819.38,-39.9728,-15.4226,-10.2274
3.867,4802.43,-3116.24,9446.79,24.615,-49.7833,-19.6333,28139.7,2061.29,7008.58,-1.56333,97.5775,-313.169,611.202,11487.4,-1060.29,-28.8603,1.2188,-95.4816,-12312.7,-20885.1,-3281.45,-147.491,221.597,-231.18,714.798,10321.1,-749.634,11.3491,-51.1728,-56.2059,3961.35,-11655.9,3860.48,23.9683,73.5712,-77.4959,9136.53,684.089,1798.14,-39.7554,-15.3411,-10.3876
3.8675,4809.82,-3113.61,9454.05,24.6153,-50.3206,-19.6903,28103.0,1732.44,6953.86,1.52147,98.4652,-313.979,587.798,11509.1,-1081.18,-29.0667,1.33903,-95.7403,-12469.8,-20893.4,-2965.69,-146.028,220.6,-229.779,735.559,10317.3,-784.431,11.396,-51.4294,-56.1843,4038.19,-11477.7,3855.13,23.4281,71.6377,-77.2076,9161.35,711.336,1773.75,-39.556,-15.244,-10.5647
3.868,4817.21,-3110.97,9461.31,24.6156,-50.8578,-19.7474,28066.2,1403.59,6899.14,4.60627,99.3528,-314.788,564.393,11530.8,-1102.08,-29.2731,1.45925,-95.9991,-12626.8,-20901.6,-2649.93,-144.565,219.602,-228.378,756.32,10313.5,-819.229,11.4429,-51.6859,-56.1628,4115.04,-11299.5,3849.78,22.8879,69.7041,-76.9193,9186.17,738.583,1749.37,-39.3566,-15.1468,-10.7418
3.8685,4824.6,-3108.33,9468.57,24.6159,-51.3951,-19.8045,28029.4,1074.74,6844.42,7.69107,100.24,-315.598,540.988,11552.5,-1122.97,-29.4794,1.57947,-96.2579,-12783.8,-20909.9,-2334.17,-143.102,218.604,-226.977,777.081,10309.7,-854.026,11.4898,-51.9425,-56.1413,4191.88,-11121.4,3844.42,22.3477,67.7706,-76.6309,9210.99,765.83,1724.99,-39.1571,-15.0497,-10.9189
3.869,4831.99,-3105.7,9475.83,24.6162,-51.9323,-19.8615,27992.6,745.885,6789.7,10.7759,101.128,-316.408,517.583,11574.2,-1143.87,-29.6858,1.69969,-96.5166,-12940.9,-20918.2,-2018.42,-141.639,217.606,-225.576,797.841,10305.9,-888.824,11.5368,-52.1991,-56.1197,4268.72,-10943.2,3839.07,21.8075,65.8371,-76.3426,9235.81,793.077,1700.6,-38.9577,-14.9525,-11.096
3.8695,4839.38,-3103.06,9483.09,24.6165,-52.4696,-19.9186,27955.8,417.034,6734.98,13.8607,102.016,-317.218,494.179,11595.9,-1164.76,-29.8922,1.81991,-96.7754,-13097.9,-20926.4,-1702.66,-140.176,216.608,-224.175,818.602,10302.0,-923.621,11.5837,-52.4556,-56.0982,4345.57,-10765.0,3833.71,21.2673,63.9035,-76.0543,9260.63,820.324,1676.22,-38.7583,-14.8554,-11.2731
3.87,4846.77,-3100.43,9490.35,24.6168,-53.0068,-19.9757,27919.0,88.1825,6680.27,16.9455,102.903,-318.028,470.774,11617.5,-1185.66,-30.0986,1.94013,-97.0342,-13254.9,-20934.7,-1386.9,-138.713,215.611,-222.774,839.363,10298.2,-958.419,11.6306,-52.7122,-56.0766,4422.41,-10586.8,3828.36,20.7271,61.97,-75.766,9285.45,847.571,1651.84,-38.5588,-14.7582,-11.4502
3.8705,4854.16,-3097.79,9497.61,24.6171,-53.5441,-20.0327,27882.2,-240.669,6625.55,20.0303,103.791,-318.837,447.369,11639.2,-1206.55,-30.3049,2.06035,-97.2929,-13412.0,-20942.9,-1071.14,-137.25,214.613,-221.373,860.124,10294.4,-993.216,11.6775,-52.9688,-56.0551,4499.25,-10408.6,3823.01,20.1869,60.0364,-75.4776,9310.27,874.818,1627.45,-38.3594,-14.6611,-11.6272
3.871,4861.55,-3095.15,9504.87,24.6174,-54.0813,-20.0898,27845.5,-569.52,6570.83,23.1151,104.679,-319.647,423.965,11660.9,-1227.44,-30.5113,2.18058,-97.5517,-13569.0,-20951.2,-755.38,-135.787,213.615,-219.972,880.885,10290.6,-1028.01,11.7244,-53.2254,-56.0336,4576.1,-10230.4,3817.65,19.6468,58.1029,-75.1893,9335.09,902.065,1603.07,-38.16,-14.5639,-11.8043
3.8715,4874.86,-3109.11,9507.36,24.6573,-54.6394,-20.185,27769.7,-869.766,6514.58,26.5725,105.138,-320.355,404.981,11668.8,-1244.11,-30.7028,2.28439,-97.7972,-13671.9,-20954.2,-466.787,-133.779,211.625,-218.309,906.415,10288.6,-1055.82,11.789,-53.3664,-55.9877,4656.04,-10054.7,3792.7,18.6564,56.2611,-74.9599,9357.79,938.785,1583.82,-37.9762,-14.4537,-12.0245
3.872,4889.86,-3127.82,9508.48,24.7085,-55.2035,-20.2911,27682.8,-1161.84,6457.9,30.1364,105.476,-321.033,387.261,11672.6,-1259.58,-30.8901,2.38351,-98.0389,-13759.4,-20955.6,-185.955,-131.615,209.353,-216.57,933.308,10287.0,-1081.62,11.8586,-53.4745,-55.9348,4736.88,-9879.69,3762.15,17.5374,54.4455,-74.7474,9379.88,978.212,1566.04,-37.797,-14.3396,-12.2569
3.8725,4904.87,-3146.52,9509.61,24.7598,-55.7676,-20.3972,27595.9,-1453.91,6401.22,33.7003,105.813,-321.711,369.54,11676.5,-1275.04,-31.0774,2.48263,-98.2807,-13846.9,-20957.0,94.8767,-129.452,207.08,-214.831,960.201,10285.5,-1107.42,11.9283,-53.5825,-55.882,4817.72,-9704.67,3731.61,16.4185,52.63,-74.5349,9401.98,1017.64,1548.26,-37.6177,-14.2256,-12.4893
3.873,4919.87,-3165.23,9510.73,24.811,-56.3317,-20.5033,27509.0,-1745.99,6344.54,37.2643,106.151,-322.389,351.82,11680.4,-1290.5,-31.2647,2.58175,-98.5224,-13934.3,-20958.5,375.708,-127.288,204.807,-213.092,987.093,10284.0,-1133.22,11.9979,-53.6906,-55.8292,4898.55,-9529.65,3701.06,15.2995,50.8144,-74.3223,9424.08,1057.07,1530.48,-37.4384,-14.1115,-12.7217
3.8735,4934.88,-3183.93,9511.86,24.8622,-56.8958,-20.6094,27422.1,-2038.06,6287.85,40.8282,106.488,-323.067,334.099,11684.2,-1305.96,-31.4519,2.68088,-98.7641,-14021.8,-20959.9,656.54,-125.124,202.534,-211.353,1013.99,10282.5,-1159.03,12.0675,-53.7987,-55.7763,4979.39,-9354.63,3670.51,14.1805,48.9988,-74.1098,9446.17,1096.49,1512.69,-37.2592,-13.9974,-12.9542
3.874,4949.88,-3202.64,9512.99,24.9135,-57.4598,-20.7155,27335.2,-2330.14,6231.17,44.3921,106.825,-323.745,316.379,11688.1,-1321.42,-31.6392,2.78,-99.0058,-14109.3,-20961.3,937.372,-122.96,200.261,-209.614,1040.88,10281.0,-1184.83,12.1372,-53.9067,-55.7235,5060.22,-9179.61,3639.96,13.0616,47.1832,-73.8972,9468.27,1135.92,1494.91,-37.0799,-13.8834,-13.1866
3.8745,4964.89,-3221.34,9514.11,24.9647,-58.0239,-20.8216,27248.3,-2622.21,6174.49,47.956,107.163,-324.423,298.658,11692.0,-1336.88,-31.8265,2.87912,-99.2475,-14196.8,-20962.7,1218.2,-120.797,197.989,-207.875,1067.77,10279.5,-1210.63,12.2068,-54.0148,-55.6706,5141.06,-9004.58,3609.41,11.9426,45.3677,-73.6847,9490.37,1175.35,1477.13,-36.9006,-13.7693,-13.419
3.875,4979.89,-3240.05,9515.24,25.0159,-58.588,-20.9276,27161.4,-2914.28,6117.81,51.5199,107.5,-325.101,280.938,11695.8,-1352.35,-32.0138,2.97824,-99.4892,-14284.2,-20964.2,1499.04,-118.633,195.716,-206.136,1094.66,10278.0,-1236.43,12.2765,-54.1228,-55.6178,5221.89,-8829.56,3578.86,10.8236,43.5521,-73.4722,9512.46,1214.78,1459.35,-36.7214,-13.6553,-13.6515
3.8755,4994.9,-3258.75,9516.36,25.0672,-59.1521,-21.0337,27074.5,-3206.36,6061.13,55.0838,107.838,-325.779,263.218,11699.7,-1367.81,-32.201,3.07737,-99.7309,-14371.7,-20965.6,1779.87,-116.469,193.443,-204.397,1121.56,10276.5,-1262.24,12.3461,-54.2309,-55.565,5302.73,-8654.54,3548.31,9.70466,41.7365,-73.2596,9534.56,1254.2,1441.57,-36.5421,-13.5412,-13.8839
3.876,5003.36,-3276.01,9510.71,25.1406,-59.7432,-21.1825,26980.2,-3377.5,5942.79,58.244,107.767,-326.262,250.191,11700.5,-1386.54,-32.3336,3.1322,-100.002,-14410.2,-21001.7,2065.85,-113.968,190.152,-202.684,1131.33,10271.0,-1291.64,12.3847,-54.2769,-55.5652,5377.71,-8550.12,3528.74,8.88767,40.3262,-72.9486,9565.31,1274.5,1444.4,-36.3971,-13.3746,-14.1653
3.8765,5011.01,-3293.07,9504.2,25.2169,-60.3377,-21.3365,26885.0,-3533.54,5816.74,61.3537,107.644,-326.721,237.752,11700.9,-1405.67,-32.4594,3.18149,-100.277,-14442.5,-21042.1,2352.47,-111.424,186.733,-200.973,1138.95,10265.0,-1321.49,12.4193,-54.3151,-55.5721,5451.97,-8454.53,3510.54,8.10843,38.9666,-72.6252,9597.15,1292.4,1449.82,-36.2564,-13.2013,-14.4528
3.877,5018.66,-3310.14,9497.7,25.2931,-60.9322,-21.4906,26789.8,-3689.57,5690.69,64.4635,107.522,-327.181,225.313,11701.3,-1424.81,-32.5851,3.23079,-100.553,-14474.8,-21082.5,2639.1,-108.881,183.314,-199.263,1146.58,10259.1,-1351.34,12.454,-54.3533,-55.5789,5526.22,-8358.94,3492.34,7.32919,37.607,-72.3018,9628.99,1310.3,1455.23,-36.1156,-13.028,-14.7403
3.8775,5026.3,-3327.21,9491.2,25.3693,-61.5267,-21.6447,26694.6,-3845.6,5564.64,67.5732,107.4,-327.64,212.874,11701.6,-1443.95,-32.7108,3.28008,-100.828,-14507.2,-21122.9,2925.73,-106.337,179.896,-197.553,1154.21,10253.1,-1381.19,12.4887,-54.3915,-55.5858,5600.47,-8263.34,3474.13,6.54996,36.2474,-71.9784,9660.82,1328.21,1460.64,-35.9749,-12.8548,-15.0278
3.878,5033.95,-3344.28,9484.69,25.4456,-62.1212,-21.7988,26599.3,-4001.63,5438.6,70.683,107.278,-328.099,200.434,11702.0,-1463.08,-32.8366,3.32938,-101.103,-14539.5,-21163.4,3212.35,-103.793,176.477,-195.843,1161.84,10247.1,-1411.04,12.5233,-54.4297,-55.5926,5674.73,-8167.75,3455.93,5.77072,34.8878,-71.655,9692.66,1346.11,1466.05,-35.8342,-12.6815,-15.3153
3.8785,5041.6,-3361.35,9478.19,25.5218,-62.7158,-21.9528,26504.1,-4157.67,5312.55,73.7927,107.155,-328.559,187.995,11702.4,-1482.22,-32.9623,3.37867,-101.378,-14571.9,-21203.8,3498.98,-101.25,173.058,-194.133,1169.46,10241.1,-1440.89,12.558,-54.4679,-55.5995,5748.98,-8072.16,3437.73,4.99148,33.5282,-71.3316,9724.5,1364.01,1471.47,-35.6934,-12.5082,-15.6028
3.879,5049.25,-3378.42,9471.69,25.5981,-63.3103,-22.1069,26408.9,-4313.7,5186.5,76.9025,107.033,-329.018,175.556,11702.8,-1501.36,-33.088,3.42797,-101.653,-14604.2,-21244.2,3785.6,-98.7061,169.64,-192.423,1177.09,10235.1,-1470.74,12.5927,-54.5061,-55.6063,5823.23,-7976.57,3419.53,4.21224,32.1686,-71.0083,9756.34,1381.92,1476.88,-35.5527,-12.335,-15.8903
3.8795,5056.89,-3395.49,9465.18,25.6743,-63.9048,-22.261,26313.7,-4469.73,5060.46,80.0122,106.911,-329.477,163.116,11703.2,-1520.49,-33.2137,3.47726,-101.928,-14636.5,-21284.6,4072.23,-96.1625,166.221,-190.713,1184.72,10229.2,-1500.6,12.6273,-54.5443,-55.6132,5897.49,-7880.97,3401.33,3.433,30.809,-70.6849,9788.17,1399.82,1482.29,-35.4119,-12.1617,-16.1778
3.88,5064.54,-3412.56,9458.68,25.7506,-64.4993,-22.415,26218.4,-4625.76,4934.41,83.122,106.789,-329.936,150.677,11703.6,-1539.63,-33.3395,3.52656,-102.203,-14668.9,-21325.0,4358.85,-93.6189,162.803,-189.003,1192.35,10223.2,-1530.45,12.662,-54.5825,-55.6201,5971.74,-7785.38,3383.12,2.65376,29.4494,-70.3615,9820.01,1417.72,1487.7,-35.2712,-11.9884,-16.4653
3.8805,5060.71,-3431.76,9465.06,25.8683,-65.0916,-22.6873,26131.2,-4529.8,4778.1,84.815,106.194,-329.795,155.464,11721.5,-1557.85,-33.5457,3.5516,-102.481,-14614.3,-21372.9,4518.73,-91.8564,159.415,-187.533,1197.53,10218.0,-1554.2,12.7734,-54.5406,-55.6059,6042.1,-7775.79,3317.3,1.90836,28.3272,-69.8344,9845.78,1445.47,1492.23,-35.1052,-11.8086,-16.6117
3.881,5056.89,-3450.96,9471.44,25.9861,-65.6838,-22.9596,26044.0,-4433.84,4621.8,86.5081,105.599,-329.654,160.251,11739.4,-1576.07,-33.7518,3.57663,-102.759,-14559.7,-21420.8,4678.61,-90.0939,156.027,-186.063,1202.71,10212.9,-1577.94,12.8848,-54.4987,-55.5918,6112.46,-7766.2,3251.47,1.16295,27.205,-69.3072,9871.55,1473.22,1496.76,-34.9392,-11.6288,-16.758
3.8815,5053.06,-3470.15,9477.83,26.1038,-66.2761,-23.2319,25956.7,-4337.88,4465.5,88.2011,105.004,-329.513,165.038,11757.3,-1594.29,-33.958,3.60166,-103.037,-14505.1,-21468.7,4838.49,-88.3314,152.64,-184.593,1207.88,10207.7,-1601.69,12.9962,-54.4567,-55.5776,6182.81,-7756.6,3185.64,0.417542,26.0829,-68.7801,9897.32,1500.96,1501.29,-34.7732,-11.449,-16.9044
3.882,5049.23,-3489.35,9484.21,26.2216,-66.8683,-23.5043,25869.5,-4241.92,4309.19,89.8942,104.409,-329.371,169.825,11775.2,-1612.5,-34.1642,3.6267,-103.315,-14450.5,-21516.5,4998.37,-86.5688,149.252,-183.123,1213.06,10202.5,-1625.44,13.1076,-54.4148,-55.5634,6253.17,-7747.01,3119.81,-0.327865,24.9607,-68.2529,9923.09,1528.71,1505.82,-34.6073,-11.2692,-17.0507
3.8825,5045.4,-3508.55,9490.59,26.3393,-67.4606,-23.7766,25782.3,-4145.96,4152.89,91.5873,103.814,-329.23,174.612,11793.1,-1630.72,-34.3704,3.65173,-103.593,-14396.0,-21564.4,5158.25,-84.8063,145.865,-181.653,1218.24,10197.4,-1649.19,13.219,-54.3729,-55.5493,6323.53,-7737.42,3053.98,-1.07327,23.8385,-67.7258,9948.86,1556.46,1510.34,-34.4413,-11.0895,-17.197
3.883,5041.58,-3527.75,9496.97,26.4571,-68.0529,-24.0489,25695.1,-4050.0,3996.58,93.2803,103.219,-329.089,179.398,11811.1,-1648.94,-34.5765,3.67677,-103.871,-14341.4,-21612.3,5318.14,-83.0438,142.477,-180.183,1223.42,10192.2,-1672.94,13.3304,-54.331,-55.5351,6393.88,-7727.83,2988.15,-1.81868,22.7163,-67.1987,9974.63,1584.2,1514.87,-34.2753,-10.9097,-17.3434
3.8835,5037.75,-3546.95,9503.35,26.5748,-68.6451,-24.3212,25607.8,-3954.04,3840.28,94.9734,102.624,-328.948,184.185,11829.0,-1667.16,-34.7827,3.7018,-104.149,-14286.8,-21660.2,5478.02,-81.2813,139.09,-178.713,1228.6,10187.1,-1696.69,13.4418,-54.2891,-55.521,6464.24,-7718.23,2922.33,-2.56409,21.5941,-66.6715,10000.4,1611.95,1519.4,-34.1093,-10.7299,-17.4897
3.884,5033.92,-3566.15,9509.74,26.6926,-69.2374,-24.5935,25520.6,-3858.08,3683.98,96.6665,102.029,-328.806,188.972,11846.9,-1685.38,-34.9889,3.72684,-104.427,-14232.2,-21708.0,5637.9,-79.5187,135.702,-177.243,1233.78,10181.9,-1720.44,13.5532,-54.2471,-55.5068,6534.6,-7708.64,2856.5,-3.30949,20.4719,-66.1444,10026.2,1639.7,1523.93,-33.9433,-10.5501,-17.6361
3.8845,5028.94,-3585.25,9517.34,26.8129,-69.8297,-24.8704,25436.9,-3739.64,3530.9,98.1157,101.397,-328.603,193.597,11865.5,-1703.06,-35.1973,3.74981,-104.705,-14175.7,-21746.4,5766.27,-77.8416,132.478,-175.822,1238.92,10177.8,-1743.82,13.6733,-54.1917,-55.4897,6609.73,-7703.04,2780.33,-4.12381,19.3382,-65.5879,10051.8,1666.7,1528.47,-33.7698,-10.3791,-17.7833
3.885,5014.74,-3603.64,9534.77,26.9534,-70.422,-25.1837,25381.4,-3441.42,3403.63,97.6148,100.464,-327.899,196.926,11889.7,-1716.45,-35.424,3.75624,-104.988,-14103.9,-21708.2,5642.59,-76.8478,130.564,-174.798,1243.72,10182.4,-1764.25,13.8627,-54.0282,-55.4484,6723.05,-7729.34,2621.5,-5.48942,18.1119,-64.7972,10075.8,1687.79,1533.08,-33.5357,-10.2786,-17.9375
3.8855,5000.54,-3622.02,9552.19,27.0939,-71.0144,-25.4971,25325.8,-3143.2,3276.37,97.1139,99.5303,-327.195,200.254,11913.8,-1729.83,-35.6507,3.76267,-105.27,-14032.1,-21670.1,5518.91,-75.854,128.65,-173.774,1248.52,10186.9,-1784.67,14.0521,-53.8647,-55.4072,6836.37,-7755.65,2462.67,-6.85503,16.8856,-64.0064,10099.9,1708.89,1537.68,-33.3017,-10.178,-18.0916
3.886,4986.34,-3640.41,9569.62,27.2344,-71.6068,-25.8105,25270.3,-2844.97,3149.1,96.6129,98.597,-326.492,203.582,11938.0,-1743.22,-35.8774,3.76911,-105.552,-13960.4,-21632.0,5395.23,-74.8603,126.736,-172.749,1253.32,10191.4,-1805.1,14.2415,-53.7012,-55.366,6949.69,-7781.95,2303.83,-8.22065,15.6593,-63.2156,10123.9,1729.98,1542.29,-33.0677,-10.0775,-18.2458
3.8865,4972.14,-3658.79,9587.04,27.3749,-72.1992,-26.1238,25214.8,-2546.75,3021.84,96.112,97.6637,-325.788,206.911,11962.1,-1756.61,-36.1041,3.77554,-105.834,-13888.6,-21593.9,5271.55,-73.8665,124.822,-171.725,1258.13,10196.0,-1825.53,14.4309,-53.5377,-55.3248,7063.01,-7808.26,2145.0,-9.58626,14.433,-62.4248,10148.0,1751.07,1546.9,-32.8337,-9.977,-18.4
3.887,4957.94,-3677.17,9604.47,27.5155,-72.7915,-26.4372,25159.2,-2248.53,2894.57,95.6111,96.7304,-325.085,210.239,11986.3,-1769.99,-36.3308,3.78198,-106.116,-13816.8,-21555.7,5147.87,-72.8727,122.908,-170.701,1262.93,10200.5,-1845.95,14.6202,-53.3742,-55.2835,7176.33,-7834.57,1986.16,-10.9519,13.2068,-61.634,10172.0,1772.16,1551.51,-32.5997,-9.87648,-18.5542
3.8875,4943.73,-3695.56,9621.89,27.656,-73.3839,-26.7506,25103.7,-1950.3,2767.31,95.1102,95.7972,-324.381,213.568,12010.4,-1783.38,-36.5575,3.78841,-106.399,-13745.0,-21517.6,5024.19,-71.8789,120.994,-169.677,1267.73,10205.1,-1866.38,14.8096,-53.2107,-55.2423,7289.65,-7860.87,1827.33,-12.3175,11.9805,-60.8433,10196.1,1793.25,1556.12,-32.3656,-9.77596,-18.7083
3.888,4929.53,-3713.94,9639.32,27.7965,-73.9762,-27.0639,25048.2,-1652.08,2640.04,94.6092,94.8639,-323.677,216.896,12034.6,-1796.76,-36.7842,3.79485,-106.681,-13673.3,-21479.5,4900.51,-70.8851,119.08,-168.653,1272.54,10209.6,-1886.81,14.999,-53.0472,-55.2011,7402.96,-7887.18,1668.49,-13.6831,10.7542,-60.0525,10220.1,1814.34,1560.73,-32.1316,-9.67544,-18.8625
3.8885,4915.33,-3732.33,9656.75,27.937,-74.5686,-27.3773,24992.7,-1353.85,2512.78,94.1083,93.9306,-322.974,220.225,12058.8,-1810.15,-37.0108,3.80128,-106.963,-13601.5,-21441.4,4776.83,-69.8913,117.166,-167.628,1277.34,10214.1,-1907.23,15.1884,-52.8837,-55.1599,7516.28,-7913.48,1509.66,-15.0487,9.52792,-59.2617,10244.2,1835.43,1565.33,-31.8976,-9.57492,-19.0167
3.889,4903.06,-3747.03,9673.16,28.0718,-75.1762,-27.6912,24932.3,-1072.23,2388.15,93.228,92.8933,-322.177,221.131,12079.7,-1822.89,-37.2217,3.81926,-107.247,-13523.5,-21380.2,4633.68,-68.8576,115.614,-166.568,1284.22,10219.1,-1926.16,15.3685,-52.7155,-55.1296,7638.67,-7936.52,1330.98,-16.6532,8.18762,-58.4074,10268.2,1852.26,1578.06,-31.6611,-9.48848,-19.1455
3.8895,4897.57,-3748.84,9686.01,28.1864,-75.837,-28.0071,24855.0,-848.709,2272.76,91.0197,91.492,-321.054,213.562,12089.2,-1833.39,-37.377,3.87766,-107.536,-13424.0,-21238.2,4422.38,-67.6842,115.329,-165.378,1298.37,10225.3,-1939.85,15.5158,-52.5307,-55.1377,7792.77,-7948.1,1082.83,-19.094,6.44824,-57.331,10291.9,1854.17,1619.21,-31.4162,-9.45131,-19.1855
3.89,4892.07,-3750.66,9698.87,28.3011,-76.4977,-28.3229,24777.7,-625.186,2157.37,88.8115,90.0907,-319.931,205.993,12098.8,-1843.89,-37.5324,3.93606,-107.825,-13324.4,-21096.3,4211.08,-66.5107,115.045,-164.189,1312.52,10231.6,-1953.54,15.6631,-52.346,-55.1458,7946.87,-7959.69,834.677,-21.5348,4.70886,-56.2545,10315.6,1856.08,1660.36,-31.1713,-9.41413,-19.2255
3.8905,4886.58,-3752.47,9711.73,28.4157,-77.1585,-28.6388,24700.4,-401.664,2041.98,86.6033,88.6893,-318.808,198.424,12108.4,-1854.39,-37.6878,3.99445,-108.115,-13224.9,-20954.3,3999.79,-65.3373,114.76,-163.0,1326.67,10237.8,-1967.23,15.8105,-52.1612,-55.1539,8100.97,-7971.27,586.527,-23.9756,2.96948,-55.178,10339.3,1857.98,1701.51,-30.9264,-9.37696,-19.2654
3.891,4881.08,-3754.28,9724.58,28.5304,-77.8193,-28.9547,24623.1,-178.142,1926.59,84.3951,87.288,-317.685,190.855,12117.9,-1864.89,-37.8431,4.05285,-108.404,-13125.3,-20812.4,3788.49,-64.1638,114.475,-161.811,1340.82,10244.1,-1980.92,15.9578,-51.9765,-55.162,8255.07,-7982.86,338.376,-26.4164,1.2301,-54.1015,10363.1,1859.89,1742.66,-30.6814,-9.33979,-19.3054
3.8915,4875.59,-3756.1,9737.44,28.645,-78.48,-29.2705,24545.8,45.3807,1811.2,82.1868,85.8867,-316.562,183.286,12127.5,-1875.39,-37.9985,4.11125,-108.693,-13025.8,-20670.4,3577.19,-62.9904,114.191,-160.622,1354.97,10250.3,-1994.61,16.1051,-51.7917,-55.1701,8409.17,-7994.44,90.2259,-28.8572,-0.509278,-53.025,10386.8,1861.8,1783.8,-30.4365,-9.30262,-19.3454
3.892,4870.09,-3757.91,9750.3,28.7597,-79.1408,-29.5864,24468.5,268.903,1695.81,79.9786,84.4854,-315.439,175.716,12137.0,-1885.89,-38.1539,4.16964,-108.982,-12926.2,-20528.5,3365.89,-61.8169,113.906,-159.432,1369.12,10256.6,-2008.3,16.2525,-51.607,-55.1782,8563.27,-8006.03,-157.924,-31.298,-2.24866,-51.9485,10410.5,1863.71,1824.95,-30.1916,-9.26545,-19.3854
3.8925,4864.6,-3759.72,9763.15,28.8743,-79.8015,-29.9022,24391.2,492.425,1580.42,77.7704,83.0841,-314.316,168.147,12146.6,-1896.39,-38.3092,4.22804,-109.272,-12826.7,-20386.5,3154.59,-60.6435,113.622,-158.243,1383.27,10262.9,-2021.99,16.3998,-51.4222,-55.1863,8717.38,-8017.61,-406.075,-33.7388,-3.98804,-50.872,10434.2,1865.61,1866.1,-29.9466,-9.22827,-19.4254
3.893,4859.1,-3761.54,9776.01,28.989,-80.4623,-30.2181,24314.0,715.948,1465.03,75.5622,81.6827,-313.194,160.578,12156.2,-1906.89,-38.4646,4.28644,-109.561,-12727.1,-20244.6,2943.3,-59.47,113.337,-157.054,1397.42,10269.1,-2035.68,16.5471,-51.2375,-55.1944,8871.48,-8029.2,-654.225,-36.1795,-5.72742,-49.7955,10457.9,1867.52,1907.25,-29.7017,-9.1911,-19.4654
3.8935,4856.81,-3763.49,9784.71,29.0904,-81.1285,-30.5363,24223.6,845.726,1354.53,73.0086,80.0688,-312.023,158.846,12165.6,-1914.27,-38.6536,4.35039,-109.822,-12631.6,-20080.3,2754.15,-58.3562,113.293,-155.717,1411.21,10274.2,-2044.42,16.6761,-51.0576,-55.2182,9018.68,-8049.55,-942.697,-38.8927,-7.72032,-48.7096,10476.2,1864.08,1952.73,-29.4686,-9.17051,-19.5282
3.894,4860.94,-3765.73,9785.11,29.1655,-81.8056,-30.8591,24107.1,788.017,1253.82,69.7642,78.0296,-310.758,168.786,12174.6,-1915.42,-38.91,4.42548,-110.025,-12544.2,-19871.1,2609.3,-57.3616,113.731,-154.085,1424.26,10277.1,-2043.26,16.7682,-50.8875,-55.2736,9152.08,-8087.45,-1311.81,-42.1508,-10.2203,-47.6047,10483.7,1849.93,2006.87,-29.2591,-9.18309,-19.6365
3.8945,4865.06,-3767.97,9785.51,29.2406,-82.4827,-31.1819,23990.6,730.307,1153.1,66.5198,75.9905,-309.493,178.726,12183.7,-1916.57,-39.1663,4.50056,-110.228,-12456.9,-19662.0,2464.46,-56.3669,114.169,-152.453,1437.32,10280.0,-2042.09,16.8604,-50.7174,-55.3291,9285.49,-8125.34,-1680.92,-45.4088,-12.7202,-46.4999,10491.1,1835.79,2061.01,-29.0496,-9.19567,-19.7449
3.895,4869.18,-3770.2,9785.91,29.3156,-83.1597,-31.5047,23874.1,672.598,1052.38,63.2754,73.9513,-308.228,188.667,12192.7,-1917.72,-39.4227,4.57564,-110.431,-12369.5,-19452.8,2319.61,-55.3723,114.607,-150.821,1450.38,10282.8,-2040.93,16.9526,-50.5473,-55.3845,9418.89,-8163.24,-2050.04,-48.6669,-15.2202,-45.395,10498.5,1821.64,2115.15,-28.8402,-9.20825,-19.8533
3.8955,4873.3,-3772.44,9786.31,29.3907,-83.8368,-31.8275,23757.7,614.889,951.666,60.0311,71.9121,-306.963,198.607,12201.8,-1918.87,-39.6791,4.65072,-110.634,-12282.1,-19243.7,2174.76,-54.3777,115.046,-149.188,1463.43,10285.7,-2039.77,17.0447,-50.3773,-55.4399,9552.29,-8201.13,-2419.15,-51.9249,-17.7201,-44.2902,10506.0,1807.5,2169.29,-28.6307,-9.22082,-19.9617
3.896,4877.42,-3774.68,9786.71,29.4657,-84.5139,-32.1504,23641.2,557.179,850.949,56.7867,69.873,-305.698,208.547,12210.9,-1920.02,-39.9354,4.7258,-110.837,-12194.8,-19034.5,2029.92,-53.383,115.484,-147.556,1476.49,10288.6,-2038.6,17.1369,-50.2072,-55.4953,9685.7,-8239.03,-2788.26,-55.183,-20.22,-43.1854,10513.4,1793.35,2223.43,-28.4212,-9.2334,-20.0701
3.8965,4881.55,-3776.91,9787.11,29.5408,-85.191,-32.4732,23524.7,499.47,750.231,53.5423,67.8338,-304.433,218.488,12219.9,-1921.16,-40.1918,4.80088,-111.04,-12107.4,-18825.4,1885.07,-52.3884,115.922,-145.924,1489.55,10291.4,-2037.44,17.2291,-50.0371,-55.5507,9819.1,-8276.92,-3157.38,-58.441,-22.72,-42.0805,10520.8,1779.21,2277.57,-28.2118,-9.24598,-20.1785
3.897,4885.67,-3779.15,9787.5,29.6159,-85.868,-32.796,23408.2,441.761,649.514,50.2979,65.7946,-303.168,228.428,12229.0,-1922.31,-40.4481,4.87597,-111.243,-12020.0,-18616.3,1740.22,-51.3938,116.36,-144.292,1502.6,10294.3,-2036.27,17.3212,-49.867,-55.6061,9952.51,-8314.82,-3526.49,-61.6991,-25.2199,-40.9757,10528.2,1765.06,2331.71,-28.0023,-9.25856,-20.2869
3.8975,4889.79,-3781.38,9787.9,29.6909,-86.5451,-33.1188,23291.7,384.051,548.797,47.0535,63.7555,-301.903,238.368,12238.0,-1923.46,-40.7045,4.95105,-111.446,-11932.7,-18407.1,1595.38,-50.3992,116.798,-142.66,1515.66,10297.2,-2035.11,17.4134,-49.6969,-55.6616,10085.9,-8352.71,-3895.6,-64.9571,-27.7199,-39.8708,10535.7,1750.92,2385.85,-27.7928,-9.27113,-20.3953
3.898,4893.55,-3794.8,9789.97,29.7431,-87.2472,-33.4254,23143.3,224.972,448.08,43.4085,61.4062,-300.418,243.547,12248.7,-1921.22,-40.8996,5.03463,-111.679,-11884.4,-18222.0,1412.45,-49.6979,117.65,-141.023,1525.16,10303.9,-2034.66,17.4872,-49.5264,-55.7167,10216.9,-8417.19,-4385.85,-68.0599,-29.8355,-38.7527,10550.9,1741.85,2450.45,-27.4787,-9.24726,-20.5048
3.8985,4896.87,-3822.18,9794.12,29.7668,-87.9806,-33.7118,22955.0,-60.8206,347.363,39.2628,58.6694,-298.658,242.775,12261.5,-1914.72,-41.018,5.12884,-111.949,-11885.0,-18067.1,1181.92,-49.3635,119.019,-139.381,1530.2,10315.5,-2035.09,17.5381,-49.3553,-55.7716,10344.8,-8514.9,-5027.53,-70.9688,-31.4707,-37.618,10575.7,1739.12,2528.14,-27.0339,-9.17784,-20.6158
3.899,4900.19,-3849.56,9798.27,29.7904,-88.714,-33.9982,22766.7,-346.613,246.645,35.117,55.9326,-296.897,242.002,12274.3,-1908.23,-41.1365,5.22306,-112.22,-11885.6,-17912.1,951.382,-49.029,120.388,-137.738,1535.25,10327.0,-2035.52,17.5891,-49.1842,-55.8264,10472.7,-8612.61,-5669.2,-73.8776,-33.106,-36.4833,10600.6,1736.39,2605.83,-26.589,-9.10842,-20.7267
3.8995,4903.51,-3876.95,9802.43,29.814,-89.4473,-34.2845,22578.4,-632.406,145.928,30.9712,53.1957,-295.137,241.23,12287.0,-1901.74,-41.255,5.31727,-112.49,-11886.2,-17757.1,720.849,-48.6945,121.757,-136.096,1540.29,10338.6,-2035.96,17.64,-49.0131,-55.8812,10600.5,-8710.32,-6310.88,-76.7864,-34.7412,-35.3486,10625.5,1733.66,2683.52,-26.1441,-9.03899,-20.8376
3.9,4906.83,-3904.33,9806.58,29.8377,-90.1807,-34.5709,22390.1,-918.198,45.2111,26.8254,50.4589,-293.377,240.457,12299.8,-1895.24,-41.3734,5.41148,-112.761,-11886.8,-17602.1,490.315,-48.3601,123.126,-134.454,1545.34,10350.2,-2036.39,17.6909,-48.842,-55.9361,10728.4,-8808.04,-6952.55,-79.6952,-36.3764,-34.2139,10650.4,1730.94,2761.2,-25.6993,-8.96957,-20.9485
3.9005,4910.15,-3931.71,9810.73,29.8613,-90.9141,-34.8573,22201.7,-1203.99,-55.5061,22.6797,47.722,-291.616,239.685,12312.5,-1888.75,-41.4919,5.50569,-113.031,-11887.4,-17447.1,259.782,-48.0256,124.495,-132.811,1550.38,10361.7,-2036.83,17.7418,-48.6709,-55.9909,10856.3,-8905.75,-7594.23,-82.604,-38.0116,-33.0792,10675.3,1728.21,2838.89,-25.2544,-8.90015,-21.0595
3.901,4913.46,-3959.09,9814.88,29.8849,-91.6475,-35.1436,22013.4,-1489.78,-156.223,18.5339,44.9852,-289.856,238.912,12325.3,-1882.26,-41.6104,5.59991,-113.302,-11888.0,-17292.1,29.2487,-47.6911,125.864,-131.169,1555.43,10373.3,-2037.26,17.7927,-48.4998,-56.0457,10984.2,-9003.46,-8235.9,-85.5129,-39.6469,-31.9444,10700.1,1725.48,2916.58,-24.8096,-8.83072,-21.1704
3.9015,4916.78,-3986.48,9819.03,29.9086,-92.3808,-35.43,21825.1,-1775.58,-256.94,14.3881,42.2484,-288.096,238.14,12338.0,-1875.77,-41.7288,5.69412,-113.572,-11888.6,-17137.1,-201.285,-47.3566,127.234,-129.526,1560.47,10384.9,-2037.69,17.8436,-48.3288,-56.1006,11112.1,-9101.17,-8877.58,-88.4217,-41.2821,-30.8097,10725.0,1722.75,2994.27,-24.3647,-8.7613,-21.2813
3.902,4920.1,-4013.86,9823.19,29.9322,-93.1142,-35.7163,21636.8,-2061.37,-357.658,10.2423,39.5115,-286.335,237.367,12350.8,-1869.27,-41.8473,5.78833,-113.843,-11889.2,-16982.1,-431.818,-47.0222,128.603,-127.884,1565.52,10396.4,-2038.13,17.8945,-48.1577,-56.1554,11240.0,-9198.88,-9519.25,-91.3305,-42.9173,-29.675,10749.9,1720.02,3071.95,-23.9198,-8.69188,-21.3922
3.9025,4926.39,-4026.77,9818.63,30.0169,-93.8843,-36.0828,21425.2,-2387.06,-364.713,7.15309,36.6557,-284.104,240.204,12359.3,-1860.74,-41.9422,5.87149,-114.146,-12004.8,-16875.1,-704.383,-46.7944,130.073,-126.485,1569.71,10407.6,-2039.79,17.9727,-47.9992,-56.2046,11371.8,-9322.79,-10170.0,-93.4188,-42.6005,-28.3429,10774.0,1716.19,3144.5,-23.1835,-8.65607,-21.4681
3.903,4935.06,-4028.1,9807.1,30.1505,-94.6839,-36.5132,21195.0,-2744.66,-296.838,4.9091,33.7046,-281.496,245.929,12364.4,-1850.57,-42.0183,5.9458,-114.475,-12212.4,-16806.6,-1010.57,-46.652,131.626,-125.282,1573.23,10418.4,-2042.43,18.0726,-47.8508,-56.2492,11506.6,-9467.66,-10828.1,-94.8506,-40.7221,-26.8527,10797.5,1711.48,3212.94,-22.2139,-8.64715,-21.5159
3.9035,4943.74,-4029.42,9795.58,30.2842,-95.4834,-36.9437,20964.8,-3102.27,-228.963,2.66511,30.7536,-278.887,251.654,12369.6,-1840.41,-42.0944,6.02011,-114.804,-12420.1,-16738.0,-1316.76,-46.5095,133.178,-124.078,1576.75,10429.3,-2045.08,18.1725,-47.7023,-56.2938,11641.4,-9612.53,-11486.2,-96.2825,-38.8437,-25.3626,10821.0,1706.77,3281.38,-21.2444,-8.63823,-21.5637
3.904,4952.41,-4030.75,9784.05,30.4178,-96.2829,-37.3742,20734.6,-3459.87,-161.089,0.421121,27.8026,-276.279,257.379,12374.7,-1830.24,-42.1704,6.09442,-115.133,-12627.8,-16669.5,-1622.95,-46.3671,134.73,-122.874,1580.27,10440.1,-2047.73,18.2725,-47.5539,-56.3385,11776.3,-9757.4,-12144.2,-97.7143,-36.9652,-23.8725,10844.6,1702.06,3349.81,-20.2748,-8.62931,-21.6115
3.9045,4961.08,-4032.08,9772.52,30.5514,-97.0825,-37.8047,20504.4,-3817.48,-93.2142,-1.82287,24.8515,-273.67,263.104,12379.8,-1820.08,-42.2465,6.16874,-115.462,-12835.4,-16600.9,-1929.14,-46.2247,136.282,-121.671,1583.79,10450.9,-2050.37,18.3724,-47.4055,-56.3831,11911.1,-9902.27,-12802.3,-99.1462,-35.0868,-22.3824,10868.1,1697.34,3418.25,-19.3052,-8.62039,-21.6593
3.905,4969.75,-4033.4,9761.0,30.6851,-97.882,-38.2351,20274.2,-4175.08,-25.3397,-4.06686,21.9005,-271.062,268.829,12384.9,-1809.91,-42.3226,6.24305,-115.791,-13043.1,-16532.4,-2235.34,-46.0822,137.834,-120.467,1587.31,10461.8,-2053.02,18.4724,-47.2571,-56.4277,12045.9,-10047.1,-13460.4,-100.578,-33.2084,-20.8923,10891.6,1692.63,3486.69,-18.3357,-8.61147,-21.7071
3.9055,4978.42,-4034.73,9749.47,30.8187,-98.6815,-38.6656,20044.0,-4532.69,42.5349,-6.31085,18.9494,-268.454,274.554,12390.1,-1799.75,-42.3987,6.31736,-116.12,-13250.8,-16463.8,-2541.53,-45.9398,139.386,-119.263,1590.83,10472.6,-2055.66,18.5723,-47.1086,-56.4723,12180.8,-10192.0,-14118.4,-102.01,-31.3299,-19.4021,10915.1,1687.92,3555.12,-17.3661,-8.60255,-21.7549
3.906,4987.09,-4036.06,9737.95,30.9523,-99.481,-39.0961,19813.8,-4890.29,110.41,-8.55483,15.9984,-265.845,280.278,12395.2,-1789.58,-42.4748,6.39167,-116.449,-13458.4,-16395.2,-2847.72,-45.7974,140.938,-118.059,1594.35,10483.4,-2058.31,18.6722,-46.9602,-56.517,12315.6,-10336.9,-14776.5,-103.442,-29.4515,-17.912,10938.6,1683.21,3623.56,-16.3966,-8.59363,-21.8027
3.9065,4995.77,-4037.39,9726.42,31.0859,-100.281,-39.5266,19583.6,-5247.9,178.284,-10.7988,13.0474,-263.237,286.003,12400.3,-1779.41,-42.5508,6.46598,-116.777,-13666.1,-16326.7,-3153.91,-45.655,142.49,-116.856,1597.87,10494.3,-2060.95,18.7722,-46.8118,-56.5616,12450.4,-10481.8,-15434.6,-104.874,-27.5731,-16.4219,10962.1,1678.49,3692.0,-15.427,-8.58471,-21.8505
3.907,4999.81,-4016.68,9723.21,31.2155,-101.042,-39.8313,19375.6,-5680.4,181.326,-8.7995,9.56434,-259.682,292.326,12411.5,-1754.15,-42.6691,6.6467,-117.061,-13912.7,-16317.3,-3097.62,-44.3217,141.014,-115.925,1602.92,10500.3,-2060.04,18.8501,-46.6367,-56.648,12593.8,-10651.4,-15863.2,-104.273,-23.4552,-14.9753,10972.8,1658.88,3719.9,-14.2993,-8.66304,-21.7837
3.9075,5001.55,-3984.96,9724.15,31.3431,-101.784,-40.0731,19178.7,-6150.35,151.951,-4.67852,5.81533,-255.654,298.947,12425.6,-1721.34,-42.8084,6.88062,-117.322,-14178.8,-16337.4,-2860.1,-42.393,138.024,-115.132,1608.75,10503.9,-2057.35,18.917,-46.4484,-56.7554,12741.5,-10833.3,-16177.1,-102.657,-18.2177,-13.5505,10977.0,1631.83,3727.54,-13.0926,-8.78499,-21.6596
3.908,5003.29,-3953.24,9725.09,31.4708,-102.526,-40.3149,18981.7,-6620.3,122.576,-0.557547,2.06633,-251.627,305.568,12439.8,-1688.53,-42.9478,7.11454,-117.583,-14444.8,-16357.5,-2622.58,-40.4643,135.034,-114.338,1614.57,10507.5,-2054.65,18.9839,-46.26,-56.8628,12889.1,-11015.3,-16490.9,-101.041,-12.9801,-12.1256,10981.2,1604.77,3735.18,-11.8858,-8.90694,-21.5355
3.9085,5005.02,-3921.52,9726.03,31.5984,-103.268,-40.5567,18784.8,-7090.25,93.2015,3.56343,-1.68268,-247.599,312.189,12453.9,-1655.72,-43.0871,7.34846,-117.844,-14710.9,-16377.7,-2385.05,-38.5356,132.043,-113.545,1620.4,10511.1,-2051.96,19.0508,-46.0717,-56.9702,13036.8,-11197.3,-16804.8,-99.4249,-7.74259,-10.7008,10985.4,1577.71,3742.82,-10.6791,-9.02889,-21.4114
3.909,5006.76,-3889.8,9726.97,31.726,-104.01,-40.7986,18587.9,-7560.2,63.8268,7.68441,-5.43168,-243.571,318.811,12468.1,-1622.91,-43.2265,7.58238,-118.105,-14977.0,-16397.8,-2147.53,-36.607,129.053,-112.751,1626.22,10514.8,-2049.27,19.1177,-45.8833,-57.0775,13184.4,-11379.3,-17118.7,-97.8088,-2.50504,-9.27598,10989.6,1550.65,3750.46,-9.47234,-9.15084,-21.2873
3.9095,5008.49,-3858.08,9727.92,31.8536,-104.752,-41.0404,18390.9,-8030.15,34.452,11.8054,-9.18069,-239.543,325.432,12482.3,-1590.1,-43.3658,7.8163,-118.366,-15243.1,-16417.9,-1910.01,-34.6783,126.063,-111.957,1632.04,10518.4,-2046.57,19.1846,-45.695,-57.1849,13332.1,-11561.2,-17432.6,-96.1926,2.73252,-7.85115,10993.8,1523.59,3758.1,-8.26559,-9.2728,-21.1632
3.91,5010.23,-3826.36,9728.86,31.9812,-105.494,-41.2822,18194.0,-8500.1,5.07728,15.9264,-12.9297,-235.516,332.053,12496.4,-1557.29,-43.5051,8.05022,-118.626,-15509.1,-16438.1,-1672.49,-32.7496,123.072,-111.164,1637.87,10522.0,-2043.88,19.2515,-45.5066,-57.2923,13479.7,-11743.2,-17746.5,-94.5764,7.97007,-6.42632,10998.0,1496.53,3765.74,-7.05884,-9.39475,-21.0391
3.9105,5011.97,-3794.64,9729.8,32.1088,-106.236,-41.524,17997.1,-8970.05,-24.2975,20.0473,-16.6787,-231.488,338.674,12510.6,-1524.48,-43.6445,8.28414,-118.887,-15775.2,-16458.2,-1434.97,-30.8209,120.082,-110.37,1643.69,10525.6,-2041.19,19.3184,-45.3183,-57.3996,13627.4,-11925.2,-18060.3,-92.9603,13.2076,-5.00149,11002.2,1469.47,3773.38,-5.85209,-9.5167,-20.9149
3.911,5013.7,-3762.92,9730.74,32.2364,-106.978,-41.7658,17800.2,-9440.0,-53.6722,24.1683,-20.4277,-227.46,345.296,12524.7,-1491.67,-43.7838,8.51806,-119.148,-16041.3,-16478.3,-1197.44,-28.8922,117.091,-109.576,1649.52,10529.2,-2038.5,19.3853,-45.1299,-57.507,13775.0,-12107.2,-18374.2,-91.3441,18.4452,-3.57666,11006.4,1442.42,3781.02,-4.64534,-9.63865,-20.7908
3.9115,5014.52,-3727.0,9732.05,32.3995,-107.685,-42.02,17877.6,-9797.71,-374.268,27.1487,-22.6842,-222.694,347.721,12527.2,-1451.75,-43.9114,8.74807,-119.381,-16124.8,-16418.1,-753.838,-26.4713,111.844,-108.495,1653.75,10531.5,-2026.08,19.3061,-44.8992,-57.6049,13914.3,-12298.3,-18353.5,-88.1257,24.4219,-2.50116,11000.0,1384.24,3720.3,-3.77283,-9.69124,-20.4985
3.912,5015.09,-3689.89,9733.47,32.5729,-108.382,-42.2776,18033.4,-10123.4,-778.07,29.8033,-24.5143,-217.718,348.948,12526.4,-1409.79,-44.0356,8.97695,-119.605,-16156.1,-16334.8,-251.352,-23.9097,105.952,-107.332,1657.53,10533.5,-2010.88,19.1851,-44.6564,-57.7002,14051.2,-12492.2,-18237.2,-84.4496,30.6097,-1.52546,10990.5,1317.17,3640.04,-2.99581,-9.72401,-20.158
3.9125,5015.65,-3652.78,9734.89,32.7462,-109.079,-42.5352,18189.2,-10449.0,-1181.87,32.4578,-26.3445,-212.742,350.175,12525.6,-1367.84,-44.1598,9.20584,-119.83,-16187.4,-16251.5,251.134,-21.3482,100.061,-106.169,1661.31,10535.5,-1995.69,19.0641,-44.4136,-57.7954,14188.0,-12686.0,-18120.9,-80.7734,36.7976,-0.549756,10981.0,1250.11,3559.78,-2.2188,-9.75678,-19.8175
3.913,5016.21,-3615.66,9736.31,32.9195,-109.777,-42.7928,18344.9,-10774.7,-1585.67,35.1124,-28.1746,-207.766,351.402,12524.8,-1325.88,-44.284,9.43472,-120.054,-16218.7,-16168.3,753.62,-18.7866,94.1687,-105.006,1665.09,10537.4,-1980.49,18.9431,-44.1708,-57.8906,14324.9,-12879.8,-18004.6,-77.0972,42.9855,0.425945,10971.5,1183.04,3479.52,-1.44178,-9.78955,-19.4771
3.9135,5016.77,-3578.55,9737.73,33.0928,-110.474,-43.0504,18500.7,-11100.3,-1989.47,37.7669,-30.0047,-202.79,352.63,12524.0,-1283.93,-44.4082,9.66361,-120.279,-16250.1,-16085.0,1256.11,-16.225,88.2768,-103.843,1668.87,10539.4,-1965.3,18.8221,-43.928,-57.9859,14461.8,-13073.6,-17888.2,-73.4211,49.1734,1.40164,10962.0,1115.97,3399.27,-0.664765,-9.82232,-19.1366
3.914,5017.33,-3541.44,9739.16,33.2661,-111.171,-43.308,18656.5,-11426.0,-2393.28,40.4214,-31.8348,-197.813,353.857,12523.2,-1241.98,-44.5325,9.89249,-120.504,-16281.4,-16001.7,1758.59,-13.6635,82.3849,-102.679,1672.65,10541.3,-1950.1,18.7011,-43.6852,-58.0811,14598.6,-13267.4,-17771.9,-69.7449,55.3613,2.37735,10952.5,1048.91,3319.01,0.11225,-9.85509,-18.7962
3.9145,5017.89,-3504.32,9740.58,33.4395,-111.868,-43.5656,18812.3,-11751.6,-2797.08,43.076,-33.6649,-192.837,355.084,12522.3,-1200.02,-44.6567,10.1214,-120.728,-16312.7,-15918.5,2261.08,-11.1019,76.493,-101.516,1676.43,10543.3,-1934.91,18.5801,-43.4424,-58.1763,14735.5,-13461.3,-17655.6,-66.0687,61.5492,3.35305,10943.0,981.84,3238.75,0.889265,-9.88786,-18.4557
3.915,5018.45,-3467.21,9742.0,33.6128,-112.566,-43.8232,18968.1,-12077.3,-3200.88,45.7305,-35.495,-187.861,356.311,12521.5,-1158.07,-44.7809,10.3503,-120.953,-16344.0,-15835.2,2763.56,-8.54035,70.6011,-100.353,1680.21,10545.2,-1919.71,18.4591,-43.1996,-58.2716,14872.4,-13655.1,-17539.3,-62.3926,67.737,4.32875,10933.5,914.774,3158.49,1.66628,-9.92063,-18.1153
3.9155,5019.01,-3430.1,9743.42,33.7861,-113.263,-44.0808,19123.9,-12402.9,-3604.68,48.3851,-37.3251,-182.885,357.538,12520.7,-1116.12,-44.9051,10.5791,-121.177,-16375.3,-15752.0,3266.05,-5.97879,64.7092,-99.1898,1683.99,10547.2,-1904.52,18.3381,-42.9568,-58.3668,15009.2,-13848.9,-17423.0,-58.7164,73.9249,5.30445,10924.0,847.707,3078.23,2.44329,-9.9534,-17.7748
3.916,5019.47,-3388.05,9754.74,33.8898,-114.008,-44.2594,19648.2,-11986.4,-3894.02,48.2683,-37.1414,-177.466,356.463,12512.4,-1079.7,-45.0955,10.7541,-121.434,-16462.5,-15538.7,3269.68,-5.74665,58.9805,-96.6326,1677.11,10555.2,-1893.81,18.0949,-42.74,-58.4279,15175.1,-13991.1,-16859.7,-54.599,78.4968,5.47057,10911.7,799.726,2983.31,2.82296,-9.87453,-17.5285
3.9165,5019.92,-3345.4,9767.29,33.9849,-114.76,-44.428,20218.5,-11477.2,-4169.06,47.8051,-36.706,-171.991,355.101,12503.2,-1043.98,-45.2942,10.9222,-121.696,-16556.6,-15309.2,3210.95,-5.80568,53.2721,-93.9012,1668.89,10564.1,-1883.66,17.8365,-42.5264,-58.4847,15344.5,-14126.8,-16240.5,-50.4263,82.8667,5.5355,10899.0,754.13,2886.55,3.15296,-9.7817,-17.294
3.917,5020.36,-3302.74,9779.85,34.08,-115.512,-44.5966,20788.9,-10967.9,-4444.09,47.3419,-36.2706,-166.517,353.739,12494.0,-1008.26,-45.4929,11.0904,-121.957,-16650.7,-15079.8,3152.22,-5.86472,47.5638,-91.1697,1660.67,10572.9,-1873.51,17.578,-42.3129,-58.5416,15514.0,-14262.5,-15621.3,-46.2537,87.2366,5.60044,10886.3,708.534,2789.8,3.48296,-9.68887,-17.0594
3.9175,5020.81,-3260.09,9792.41,34.175,-116.263,-44.7653,21359.2,-10458.7,-4719.13,46.8786,-35.8352,-161.042,352.377,12484.8,-972.54,-45.6916,11.2586,-122.218,-16744.8,-14850.3,3093.49,-5.92375,41.8554,-88.4383,1652.45,10581.8,-1863.36,17.3196,-42.0993,-58.5984,15683.4,-14398.2,-15002.1,-42.0811,91.6065,5.66537,10873.6,662.938,2693.04,3.81296,-9.59604,-16.8249
3.918,5021.25,-3217.43,9804.97,34.2701,-117.015,-44.9339,21929.5,-9949.42,-4994.16,46.4154,-35.3998,-155.568,351.015,12475.6,-936.82,-45.8902,11.4268,-122.479,-16838.9,-14620.8,3034.76,-5.98279,36.1471,-85.7069,1644.24,10590.6,-1853.21,17.0611,-41.8858,-58.6552,15852.9,-14534.0,-14382.9,-37.9085,95.9765,5.7303,10860.9,617.342,2596.28,4.14296,-9.50321,-16.5903
3.9185,5021.7,-3174.77,9817.52,34.3651,-117.767,-45.1026,22499.9,-9440.17,-5269.2,45.9522,-34.9643,-150.094,349.653,12466.3,-901.099,-46.0889,11.5949,-122.741,-16933.0,-14391.3,2976.03,-6.04182,30.4387,-82.9754,1636.02,10599.5,-1843.06,16.8027,-41.6722,-58.7121,16022.3,-14669.7,-13763.7,-33.7358,100.346,5.79523,10848.2,571.746,2499.53,4.47296,-9.41038,-16.3558
3.919,5022.14,-3132.12,9830.08,34.4602,-118.518,-45.2712,23070.2,-8930.92,-5544.23,45.489,-34.5289,-144.619,348.291,12457.1,-865.378,-46.2876,11.7631,-123.002,-17027.1,-14161.8,2917.31,-6.10085,24.7304,-80.244,1627.8,10608.3,-1832.91,16.5442,-41.4587,-58.7689,16191.8,-14805.4,-13144.5,-29.5632,104.716,5.86016,10835.5,526.15,2402.77,4.80296,-9.31755,-16.1212
3.9195,5022.59,-3089.46,9842.64,34.5553,-119.27,-45.4398,23640.5,-8421.67,-5819.27,45.0258,-34.0935,-139.145,346.929,12447.9,-829.658,-46.4863,11.9313,-123.263,-17121.2,-13932.3,2858.58,-6.15989,19.022,-77.5125,1619.58,10617.2,-1822.76,16.2858,-41.2451,-58.8257,16361.2,-14941.1,-12525.3,-25.3906,109.086,5.92509,10822.8,480.554,2306.02,5.13296,-9.22472,-15.8867
3.92,5023.04,-3046.81,9855.2,34.6503,-120.022,-45.6085,24210.9,-7912.42,-6094.3,44.5626,-33.6581,-133.671,345.567,12438.7,-793.937,-46.685,12.0995,-123.524,-17215.3,-13702.9,2799.85,-6.21892,13.3136,-74.7811,1611.37,10626.0,-1812.62,16.0273,-41.0316,-58.8826,16530.7,-15076.9,-11906.1,-21.218,113.456,5.99002,10810.1,434.958,2209.26,5.46296,-9.1319,-15.6522
3.9205,5027.01,-3028.03,9872.7,35.0504,-120.821,-45.6195,24777.5,-6940.67,-6223.92,43.4493,-31.6441,-127.904,350.371,12426.1,-776.585,-46.8916,12.0961,-123.817,-17357.0,-13547.5,2103.45,-6.43619,10.8495,-71.5803,1613.96,10625.0,-1807.26,15.7308,-40.9306,-58.8232,16680.3,-15150.8,-11032.3,-17.4402,114.619,5.24284,10792.3,421.043,2149.57,5.24542,-9.12101,-15.5881
3.921,5030.99,-3009.26,9890.21,35.4505,-121.621,-45.6306,25344.1,-5968.92,-6353.53,42.3359,-29.6301,-122.138,355.175,12413.5,-759.233,-47.0981,12.0927,-124.11,-17498.7,-13392.2,1407.05,-6.65346,8.38527,-68.3795,1616.55,10624.1,-1801.91,15.4344,-40.8296,-58.7638,16829.9,-15224.7,-10158.6,-13.6624,115.781,4.49566,10774.5,407.128,2089.88,5.02787,-9.11012,-15.5241
3.9215,5034.97,-2990.49,9907.72,35.8507,-122.421,-45.6416,25910.6,-4997.17,-6483.15,41.2226,-27.6161,-116.372,359.979,12400.9,-741.88,-47.3047,12.0894,-124.403,-17640.4,-13236.8,710.644,-6.87073,5.92108,-65.1787,1619.14,10623.1,-1796.55,15.1379,-40.7286,-58.7044,16979.5,-15298.7,-9284.85,-9.88459,116.944,3.74848,10756.7,393.213,2030.19,4.81033,-9.09923,-15.46
3.922,5038.95,-2971.72,9925.22,36.2508,-123.221,-45.6527,26477.2,-4025.42,-6612.76,40.1093,-25.6021,-110.606,364.783,12388.3,-724.528,-47.5113,12.086,-124.695,-17782.1,-13081.5,14.2429,-7.088,3.4569,-61.9779,1621.73,10622.1,-1791.2,14.8414,-40.6276,-58.645,17129.1,-15372.6,-8411.09,-6.1068,118.107,3.00131,10738.9,379.299,1970.51,4.59279,-9.08834,-15.3959
3.9225,5042.93,-2952.95,9942.73,36.6509,-124.02,-45.6638,27043.8,-3053.67,-6742.38,38.996,-23.588,-104.839,369.587,12375.7,-707.175,-47.7179,12.0826,-124.988,-17923.9,-12926.1,-682.158,-7.30527,0.992708,-58.7771,1624.32,10621.2,-1785.84,14.545,-40.5266,-58.5856,17278.7,-15446.5,-7537.34,-2.32901,119.269,2.25413,10721.1,365.384,1910.82,4.37524,-9.07746,-15.3319
3.923,5046.91,-2934.18,9960.24,37.051,-124.82,-45.6748,27610.4,-2081.92,-6872.0,37.8826,-21.574,-99.073,374.391,12363.1,-689.823,-47.9245,12.0793,-125.281,-18065.6,-12770.8,-1378.56,-7.52254,-1.47148,-55.5763,1626.91,10620.2,-1780.49,14.2485,-40.4256,-58.5262,17428.3,-15520.4,-6663.59,1.44879,120.432,1.50695,10703.3,351.469,1851.13,4.1577,-9.06657,-15.2678
3.9235,5050.89,-2915.41,9977.74,37.4511,-125.62,-45.6859,28177.0,-1110.17,-7001.61,36.7693,-19.56,-93.3067,379.195,12350.5,-672.471,-48.1311,12.0759,-125.574,-18207.3,-12615.5,-2074.96,-7.73981,-3.93567,-52.3755,1629.5,10619.2,-1775.13,13.952,-40.3246,-58.4668,17577.9,-15594.4,-5789.84,5.22658,121.595,0.759769,10685.5,337.554,1791.44,3.94016,-9.05568,-15.2038
3.924,5054.87,-2896.64,9995.25,37.8512,-126.42,-45.6969,28743.6,-138.42,-7131.23,35.656,-17.546,-87.5405,383.999,12337.8,-655.118,-48.3377,12.0725,-125.867,-18349.0,-12460.1,-2771.36,-7.95709,-6.39986,-49.1747,1632.09,10618.3,-1769.78,13.6556,-40.2236,-58.4074,17727.5,-15668.3,-4916.09,9.00437,122.758,0.0125897,10667.7,323.64,1731.75,3.72261,-9.04479,-15.1397
3.9245,5056.37,-2881.92,10011.5,38.2334,-127.227,-45.7156,29278.6,779.212,-7258.28,34.5099,-15.4377,-81.7967,388.635,12326.3,-639.447,-48.5334,12.0523,-126.16,-18483.5,-12298.5,-3449.7,-8.23694,-8.48879,-46.0109,1636.1,10616.0,-1764.41,13.362,-40.1242,-58.3401,17870.9,-15738.4,-4050.32,12.7987,123.595,-0.755964,10648.6,308.562,1676.57,3.48247,-9.04653,-15.09
3.925,5038.09,-2899.61,10018.0,38.4721,-128.097,-45.7955,29561.4,1263.9,-7364.81,33.1017,-12.575,-76.2328,391.929,12322.7,-637.224,-48.6426,11.8972,-126.459,-18560.5,-12086.8,-3983.51,-9.01752,-7.57566,-43.143,1651.55,10603.1,-1758.88,13.0921,-40.0374,-58.2094,17964.3,-15777.5,-3248.36,16.7251,121.835,-1.69551,10619.7,284.186,1657.42,3.06159,-9.14928,-15.1552
3.9255,5019.82,-2917.31,10024.6,38.7109,-128.968,-45.8753,29844.2,1748.59,-7471.34,31.6935,-9.71239,-70.6689,395.223,12319.2,-635.002,-48.7517,11.7421,-126.758,-18637.4,-11875.1,-4517.32,-9.7981,-6.66254,-40.2752,1667.0,10590.1,-1753.35,12.8221,-39.9506,-58.0787,18057.6,-15816.7,-2446.4,20.6515,120.075,-2.63506,10590.7,259.81,1638.26,2.64071,-9.25202,-15.2203
3.926,5001.54,-2935.0,10031.1,38.9497,-129.838,-45.9552,30126.9,2233.29,-7577.88,30.2853,-6.84973,-65.105,398.516,12315.7,-632.779,-48.8608,11.587,-127.057,-18714.4,-11663.3,-5051.13,-10.5787,-5.74941,-37.4073,1682.44,10577.2,-1747.83,12.5522,-39.8638,-57.948,18151.0,-15855.9,-1644.44,24.5779,118.314,-3.57461,10561.7,235.434,1619.11,2.21982,-9.35476,-15.2854
3.9265,4983.26,-2952.7,10037.6,39.1884,-130.709,-46.0351,30409.7,2717.98,-7684.41,28.8771,-3.98707,-59.5411,401.81,12312.2,-630.556,-48.9699,11.432,-127.356,-18791.3,-11451.6,-5584.94,-11.3593,-4.83629,-34.5394,1697.89,10564.3,-1742.3,12.2822,-39.777,-57.8172,18244.4,-15895.0,-842.477,28.5043,116.554,-4.51416,10532.7,211.059,1599.95,1.79894,-9.45751,-15.3506
3.927,4964.98,-2970.39,10044.1,39.4272,-131.579,-46.1149,30692.5,3202.67,-7790.94,27.4688,-1.12442,-53.9772,405.103,12308.6,-628.334,-49.079,11.2769,-127.655,-18868.3,-11239.9,-6118.76,-12.1398,-3.92316,-31.6715,1713.33,10551.3,-1736.78,12.0122,-39.6902,-57.6865,18337.8,-15934.2,-40.5165,32.4307,114.794,-5.45371,10503.7,186.683,1580.8,1.37805,-9.56025,-15.4157
3.9275,4946.7,-2988.09,10050.6,39.6659,-132.449,-46.1948,30975.2,3687.36,-7897.47,26.0606,1.73824,-48.4133,408.397,12305.1,-626.111,-49.1881,11.1218,-127.954,-18945.2,-11028.2,-6652.57,-12.9204,-3.01004,-28.8036,1728.78,10538.4,-1731.25,11.7423,-39.6034,-57.5558,18431.2,-15973.4,761.444,36.357,113.033,-6.39326,10474.7,162.307,1561.64,0.957171,-9.663,-15.4809
3.928,4928.42,-3005.78,10057.1,39.9047,-133.32,-46.2747,31258.0,4172.05,-8004.01,24.6524,4.6009,-42.8493,411.691,12301.6,-623.888,-49.2972,10.9667,-128.253,-19022.1,-10816.4,-7186.38,-13.701,-2.09691,-25.9357,1744.23,10525.5,-1725.73,11.4723,-39.5166,-57.4251,18524.6,-16012.5,1563.41,40.2834,111.273,-7.33281,10445.7,137.931,1542.49,0.536287,-9.76574,-15.546
3.9285,4910.14,-3023.48,10063.6,40.1434,-134.19,-46.3545,31540.8,4656.74,-8110.54,23.2442,7.46356,-37.2854,414.984,12298.1,-621.666,-49.4063,10.8116,-128.552,-19099.1,-10604.7,-7720.19,-14.4816,-1.18379,-23.0678,1759.67,10512.5,-1720.2,11.2023,-39.4298,-57.2944,18618.0,-16051.7,2365.37,44.2098,109.513,-8.27236,10416.7,113.555,1523.33,0.115403,-9.86848,-15.6111
3.929,4893.9,-3044.8,10066.4,40.3598,-135.063,-46.445,31749.0,4962.96,-8197.97,22.0569,10.245,-31.89,416.213,12296.9,-623.841,-49.5321,10.6664,-128.843,-19167.5,-10395.4,-8112.77,-15.3407,-0.278522,-20.2199,1773.18,10496.6,-1713.41,10.9296,-39.333,-57.1687,18682.2,-16070.8,3116.67,48.0631,107.242,-9.1433,10390.9,85.5795,1501.94,-0.168487,-9.92842,-15.6867
3.9295,4884.75,-3078.83,10056.2,40.4981,-135.945,-46.5729,31696.6,4644.51,-8218.56,21.643,12.7421,-27.084,410.213,12303.9,-641.411,-49.7161,10.5554,-129.106,-19205.8,-10194.7,-8011.04,-16.4747,0.599246,-17.4423,1779.88,10470.1,-1702.21,10.647,-39.2013,-57.0607,18644.2,-16019.4,3690.69,51.6605,103.186,-9.7741,10375.8,45.0075,1472.73,0.0270997,-9.83853,-15.7986
3.93,4875.61,-3112.85,10045.9,40.6364,-136.826,-46.7008,31644.2,4326.06,-8239.15,21.229,15.2392,-22.2781,404.214,12310.8,-658.981,-49.9002,10.4445,-129.369,-19244.1,-9993.87,-7909.32,-17.6087,1.47701,-14.6646,1786.59,10443.5,-1691.0,10.3645,-39.0695,-56.9528,18606.2,-15968.1,4264.71,55.2579,99.1309,-10.4049,10360.8,4.43548,1443.53,0.222686,-9.74865,-15.9105
3.9305,4866.47,-3146.87,10035.6,40.7747,-137.708,-46.8287,31591.7,4007.62,-8259.74,20.815,17.7363,-17.4721,398.215,12317.8,-676.551,-50.0842,10.3336,-129.632,-19282.4,-9793.09,-7807.59,-18.7427,2.35478,-11.887,1793.3,10417.0,-1679.79,10.0819,-38.9378,-56.8448,18568.3,-15916.8,4838.73,58.8552,95.0753,-11.0357,10345.8,-36.1365,1414.32,0.418273,-9.65876,-16.0225
3.931,4857.32,-3180.9,10025.4,40.913,-138.589,-46.9566,31539.3,3689.17,-8280.33,20.401,20.2334,-12.6662,392.215,12324.8,-694.121,-50.2682,10.2227,-129.895,-19320.7,-9592.31,-7705.86,-19.8767,3.23255,-9.1093,1800.0,10390.5,-1668.59,9.79937,-38.8061,-56.7368,18530.3,-15865.5,5412.75,62.4526,91.0197,-11.6665,10330.8,-76.7085,1385.11,0.61386,-9.56888,-16.1344
3.9315,4848.18,-3214.92,10015.1,41.0512,-139.471,-47.0844,31486.9,3370.72,-8300.92,19.9871,22.7305,-7.86022,386.216,12331.8,-711.691,-50.4523,10.1118,-130.159,-19359.0,-9391.53,-7604.13,-21.0107,4.11032,-6.33163,1806.71,10364.0,-1657.38,9.51682,-38.6743,-56.6289,18492.3,-15814.2,5986.77,66.05,86.9641,-12.2973,10315.7,-117.281,1355.9,0.809447,-9.47899,-16.2463
3.932,4839.04,-3248.94,10004.8,41.1895,-140.352,-47.2123,31434.4,3052.27,-8321.51,19.5731,25.2276,-3.05427,380.216,12338.8,-729.261,-50.6363,10.0008,-130.422,-19397.4,-9190.75,-7502.41,-22.1447,4.98809,-3.55397,1813.41,10337.5,-1646.17,9.23426,-38.5426,-56.5209,18454.3,-15762.9,6560.79,69.6474,82.9084,-12.9281,10300.7,-157.853,1326.69,1.00503,-9.3891,-16.3583
3.9325,4829.89,-3282.97,9994.56,41.3278,-141.234,-47.3402,31382.0,2733.83,-8342.1,19.1591,27.7247,1.75168,374.217,12345.7,-746.831,-50.8204,9.88991,-130.685,-19435.7,-8989.97,-7400.68,-23.2787,5.86585,-0.776309,1820.12,10310.9,-1634.97,8.95171,-38.4109,-56.4129,18416.4,-15711.6,7134.8,73.2447,78.8528,-13.5589,10285.7,-198.425,1297.49,1.20062,-9.29922,-16.4702
3.933,4820.75,-3316.99,9984.29,41.4661,-142.116,-47.4681,31329.6,2415.38,-8362.69,18.7451,30.2218,6.55763,368.217,12352.7,-764.401,-51.0044,9.77899,-130.948,-19474.0,-8789.19,-7298.95,-24.4128,6.74362,2.00135,1826.83,10284.4,-1623.76,8.66916,-38.2791,-56.3049,18378.4,-15660.2,7708.82,76.8421,74.7972,-14.1897,10270.7,-238.997,1268.28,1.39621,-9.20933,-16.5821
3.9335,4818.89,-3345.51,9975.71,41.5992,-142.982,-47.6232,31209.8,1990.89,-8337.44,18.6554,32.3543,11.0624,368.531,12360.7,-781.346,-51.1596,9.69633,-131.216,-19490.0,-8633.49,-7102.61,-25.3321,6.97691,4.9515,1839.57,10261.3,-1613.1,8.3825,-38.0953,-56.1913,18286.5,-15559.6,8163.68,79.696,70.4764,-14.6025,10255.8,-273.113,1241.08,1.78866,-9.04204,-16.6757
3.934,4831.61,-3363.03,9970.47,41.7218,-143.818,-47.8328,30955.4,1354.33,-8220.54,19.2142,33.7576,14.9648,381.472,12370.8,-797.041,-51.2571,9.6702,-131.492,-19461.5,-8567.95,-6717.02,-25.8219,5.92122,8.24663,1864.38,10244.8,-1603.52,8.08763,-37.8074,-56.0664,18086.9,-15360.5,8380.23,81.0628,65.6252,-14.579,10241.1,-294.317,1217.92,2.57486,-8.71992,-16.7327
3.9345,4844.32,-3380.54,9965.24,41.8444,-144.655,-48.0425,30700.9,717.771,-8103.63,19.773,35.1609,18.8672,394.413,12380.9,-812.736,-51.3545,9.64408,-131.768,-19433.0,-8502.42,-6331.43,-26.3118,4.86554,11.5417,1889.19,10228.4,-1593.94,7.79276,-37.5196,-55.9415,17887.2,-15161.3,8596.78,82.4296,60.7739,-14.5556,10226.3,-315.521,1194.75,3.36106,-8.39781,-16.7897
3.935,4857.04,-3398.06,9960.01,41.967,-145.491,-48.2521,30446.5,81.2095,-7986.73,20.3319,36.5641,22.7696,407.353,12391.0,-828.431,-51.452,9.61795,-132.045,-19404.4,-8436.88,-5945.84,-26.8017,3.80986,14.8369,1914.0,10211.9,-1584.36,7.49788,-37.2317,-55.8166,17687.5,-14962.1,8813.32,83.7965,55.9227,-14.5322,10211.6,-336.725,1171.59,4.14726,-8.07569,-16.8468
3.9355,4869.75,-3415.57,9954.78,42.0897,-146.327,-48.4618,30192.0,-555.352,-7869.82,20.8907,37.9674,26.6721,420.294,12401.1,-844.126,-51.5495,9.59182,-132.321,-19375.9,-8371.35,-5560.25,-27.2916,2.75417,18.132,1938.81,10195.5,-1574.78,7.20301,-36.9438,-55.6917,17487.8,-14762.9,9029.87,85.1633,51.0714,-14.5087,10196.9,-357.929,1148.43,4.93345,-7.75358,-16.9038
3.936,4882.47,-3433.09,9949.55,42.2123,-147.164,-48.6714,29937.6,-1191.91,-7752.92,21.4495,39.3707,30.5745,433.235,12411.2,-859.821,-51.6469,9.5657,-132.597,-19347.4,-8305.81,-5174.67,-27.7815,1.69849,21.4271,1963.62,10179.0,-1565.2,6.90814,-36.6559,-55.5668,17288.1,-14563.7,9246.42,86.5301,46.2202,-14.4853,10182.2,-379.133,1125.26,5.71965,-7.43146,-16.9608
3.9365,4895.18,-3450.6,9944.32,42.3349,-148.0,-48.881,29683.2,-1828.48,-7636.01,22.0083,40.774,34.4769,446.175,12421.3,-875.516,-51.7444,9.53957,-132.874,-19318.9,-8240.28,-4789.08,-28.2714,0.642806,24.7222,1988.43,10162.6,-1555.62,6.61326,-36.368,-55.4419,17088.5,-14364.5,9462.96,87.8969,41.3689,-14.4619,10167.5,-400.337,1102.1,6.50585,-7.10934,-17.0178
3.937,4907.9,-3468.11,9939.09,42.4575,-148.836,-49.0907,29428.7,-2465.04,-7519.11,22.5671,42.1773,38.3793,459.116,12431.4,-891.21,-51.8419,9.51344,-133.15,-19290.3,-8174.74,-4403.49,-28.7613,-0.412878,28.0174,2013.25,10146.2,-1546.04,6.31839,-36.0801,-55.317,16888.8,-14165.3,9679.51,89.2638,36.5177,-14.4384,10152.8,-421.542,1078.93,7.29204,-6.78723,-17.0748
3.9375,4920.61,-3485.63,9933.86,42.5802,-149.673,-49.3003,29174.3,-3101.6,-7402.2,23.1259,43.5806,42.2817,472.057,12441.5,-906.905,-51.9393,9.48732,-133.427,-19261.8,-8109.2,-4017.9,-29.2512,-1.46856,31.3125,2038.06,10129.7,-1536.46,6.02352,-35.7922,-55.1921,16689.1,-13966.1,9896.05,90.6306,31.6665,-14.415,10138.1,-442.746,1055.77,8.07824,-6.46511,-17.1318
3.938,4936.37,-3498.59,9933.3,42.6701,-150.526,-49.5704,28900.2,-3628.76,-7286.28,24.2516,44.5761,45.9023,492.101,12442.4,-935.492,-52.0229,9.51917,-133.761,-19220.1,-8120.28,-3698.48,-29.2661,-2.81494,34.7928,2069.5,10121.5,-1533.69,5.73578,-35.4618,-55.049,16442.8,-13737.0,9927.44,90.6447,27.3335,-14.1962,10125.2,-436.462,1040.85,8.77489,-6.18511,-17.1873
3.9385,4955.93,-3505.85,9938.57,42.7191,-151.402,-49.9161,28601.7,-4019.18,-7171.58,26.0861,45.062,49.1707,521.024,12432.0,-980.195,-52.0891,9.62351,-134.168,-19161.9,-8227.12,-3461.76,-28.6871,-4.52468,38.5046,2109.24,10123.6,-1539.43,5.45698,-35.0783,-54.8831,16138.3,-13470.3,9727.38,88.968,23.6485,-13.7332,10114.5,-395.82,1036.23,9.35959,-5.95773,-17.2411
3.939,4975.48,-3513.11,9943.84,42.7682,-152.277,-50.2618,28303.2,-4409.59,-7056.89,27.9206,45.5479,52.4391,549.947,12421.6,-1024.9,-52.1554,9.72785,-134.575,-19103.6,-8333.97,-3225.04,-28.1082,-6.23443,42.2165,2148.97,10125.6,-1545.18,5.17818,-34.6948,-54.7172,15833.8,-13203.7,9527.32,87.2913,19.9635,-13.2702,10103.8,-355.177,1031.62,9.94429,-5.73036,-17.2948
3.9395,4995.04,-3520.37,9949.11,42.8173,-153.153,-50.6075,28004.7,-4800.01,-6942.19,29.7551,46.0338,55.7075,578.87,12411.2,-1069.6,-52.2216,9.83219,-134.982,-19045.4,-8440.81,-2988.32,-27.5293,-7.94417,45.9283,2188.71,10127.7,-1550.92,4.89938,-34.3113,-54.5514,15529.3,-12937.1,9327.26,85.6146,16.2785,-12.8072,10093.1,-314.535,1027.01,10.529,-5.50299,-17.3485
3.94,5014.6,-3527.63,9954.38,42.8663,-154.028,-50.9532,27706.1,-5190.43,-6827.5,31.5896,46.5196,58.9759,607.794,12400.7,-1114.3,-52.2878,9.93653,-135.389,-18987.2,-8547.65,-2751.6,-26.9504,-9.65391,49.6401,2228.44,10129.7,-1556.66,4.62057,-33.9277,-54.3855,15224.7,-12670.4,9127.2,83.9379,12.5934,-12.3442,10082.4,-273.892,1022.39,11.1137,-5.27562,-17.4023
3.9405,5034.16,-3534.89,9959.65,42.9154,-154.904,-51.2989,27407.6,-5580.84,-6712.8,33.4241,47.0055,62.2443,636.717,12390.3,-1159.0,-52.354,10.0409,-135.796,-18928.9,-8654.5,-2514.88,-26.3714,-11.3637,53.352,2268.18,10131.8,-1562.41,4.34177,-33.5442,-54.2196,14920.2,-12403.8,8927.14,82.2612,8.90843,-11.8811,10071.7,-233.25,1017.78,11.6984,-5.04825,-17.456
3.941,5053.72,-3542.15,9964.92,42.9644,-155.779,-51.6446,27109.1,-5971.26,-6598.11,35.2585,47.4914,65.5127,665.64,12379.9,-1203.71,-52.4203,10.1452,-136.203,-18870.7,-8761.34,-2278.16,-25.7925,-13.0734,57.0638,2307.91,10133.9,-1568.15,4.06297,-33.1607,-54.0537,14615.7,-12137.1,8727.08,80.5845,5.22341,-11.4181,10061.0,-192.607,1013.16,12.2831,-4.82088,-17.5097
3.9415,5073.27,-3549.41,9970.19,43.0135,-156.654,-51.9903,26810.5,-6361.68,-6483.41,37.093,47.9773,68.7811,694.563,12369.5,-1248.41,-52.4865,10.2495,-136.61,-18812.5,-8868.18,-2041.44,-25.2136,-14.7831,60.7756,2347.65,10135.9,-1573.89,3.78416,-32.7771,-53.8878,14311.2,-11870.5,8527.02,78.9078,1.53838,-10.9551,10050.2,-151.965,1008.55,12.8678,-4.5935,-17.5635
3.942,5092.83,-3556.67,9975.46,43.0625,-157.53,-52.336,26512.0,-6752.09,-6368.72,38.9275,48.4632,72.0494,723.487,12359.0,-1293.11,-52.5527,10.3539,-137.017,-18754.2,-8975.02,-1804.72,-24.6347,-16.4929,64.4874,2387.39,10138.0,-1579.64,3.50536,-32.3936,-53.7219,14006.6,-11603.9,8326.96,77.2311,-2.14664,-10.4921,10039.5,-111.322,1003.94,13.4525,-4.36613,-17.6172
3.9425,5107.58,-3571.09,9979.93,43.0731,-158.456,-52.6832,26253.9,-6942.04,-6275.13,41.3619,48.7439,75.1624,730.667,12354.2,-1330.14,-52.5759,10.5404,-137.424,-18662.5,-9108.61,-1669.34,-23.7888,-17.7664,67.9577,2418.58,10139.9,-1584.89,3.19786,-31.9833,-53.5865,13675.6,-11366.4,8013.44,74.4225,-4.78438,-10.1273,10035.8,-54.6377,1001.37,13.6378,-4.28438,-17.6814
3.943,5118.47,-3591.25,9983.78,43.0529,-159.422,-53.0316,26028.1,-6971.6,-6198.44,44.2763,48.8604,78.151,720.454,12353.7,-1361.03,-52.5646,10.7926,-137.831,-18544.0,-9263.6,-1615.01,-22.7293,-18.691,71.2347,2442.95,10141.6,-1589.74,2.86739,-31.5515,-53.4755,13323.5,-11152.4,7609.15,70.7085,-6.58429,-9.84094,10037.5,14.8806,1000.44,13.5036,-4.31912,-17.7541
3.9435,5129.37,-3611.4,9987.62,43.0327,-160.389,-53.3799,25802.4,-7001.17,-6121.74,47.1908,48.977,81.1395,710.241,12353.3,-1391.91,-52.5533,11.0448,-138.239,-18425.5,-9418.58,-1560.69,-21.6698,-19.6156,74.5117,2467.32,10143.3,-1594.59,2.53692,-31.1196,-53.3645,12971.3,-10938.3,7204.86,66.9944,-8.38421,-9.55462,10039.3,84.3989,999.517,13.3694,-4.35386,-17.8267
3.944,5140.27,-3631.55,9991.46,43.0126,-161.355,-53.7283,25576.6,-7030.73,-6045.05,50.1052,49.0935,84.1281,700.028,12352.9,-1422.8,-52.542,11.2971,-138.646,-18307.0,-9573.56,-1506.36,-20.6103,-20.5402,77.7887,2491.69,10145.0,-1599.45,2.20646,-30.6878,-53.2535,12619.1,-10724.3,6800.56,63.2803,-10.1841,-9.2683,10041.1,153.917,998.59,13.2352,-4.3886,-17.8993
3.9445,5151.16,-3651.71,9995.3,42.9924,-162.321,-54.0767,25350.9,-7060.3,-5968.35,53.0196,49.2101,87.1167,689.815,12352.5,-1453.69,-52.5307,11.5493,-139.053,-18188.6,-9728.55,-1452.04,-19.5509,-21.4647,81.0658,2516.06,10146.7,-1604.3,1.87599,-30.256,-53.1424,12267.0,-10510.2,6396.27,59.5662,-11.984,-8.98197,10042.9,223.436,997.663,13.101,-4.42334,-17.9719
