Time,RFoot_accel.x,RFoot_accel.y,RFoot_accel.z,RFoot_gyro.x,RFoot_gyro.y,RFoot_gyro.z,LFoot_accel.x,LFoot_accel.y,LFoot_accel.z,LFoot_gyro.x,LFoot_gyro.y,LFoot_gyro.z,RShank_accel.x,RShank_accel.y,RShank_accel.z,RShank_gyro.x,RShank_gyro.y,RShank_gyro.z,LShank_accel.x,LShank_accel.y,LShank_accel.z,LShank_gyro.x,LShank_gyro.y,LShank_gyro.z,RThigh_accel.x,RThigh_accel.y,RThigh_accel.z,RThigh_gyro.x,RThigh_gyro.y,RThigh_gyro.z,LThigh_accel.x,LThigh_accel.y,LThigh_accel.z,LThigh_gyro.x,LThigh_gyro.y,LThigh_gyro.z,Pelvis_accel.x,Pelvis_accel.y,Pelvis_accel.z,Pelvis_gyro.x,Pelvis_gyro.y,Pelvis_gyro.z
3.94,3552.49,-217.181,9121.3,42.4492,30.463,-15.5609,8423.17,3445.29,7242.5,-63.5203,404.133,-154.051,1348.02,9807.91,437.52,-1.43456,-28.9437,-35.3067,-1235.75,-7173.47,1338.36,42.7587,8.00291,-333.346,2675.51,10184.3,614.985,6.61957,-76.1539,-88.4118,-4775.44,-5320.97,-788.168,-60.2441,-15.1137,-139.724,6783.02,-591.126,1198.72,-5.41957,-1.47273,-25.4774
3.9405,3533.16,-276.628,9114.75,41.7838,30.2696,-15.5447,8470.72,3339.06,7274.77,-64.3256,405.49,-154.304,1371.86,9801.03,424.826,-1.31613,-28.4047,-35.4477,-1273.42,-7195.48,1411.06,42.4357,6.69551,-334.21,2725.71,10231.0,607.763,6.55572,-76.149,-88.0942,-4760.44,-5317.71,-783.688,-59.6019,-13.4314,-139.678,6800.45,-579.191,1186.91,-5.66986,-0.944309,-25.3568
3.941,3513.82,-336.074,9108.2,41.1184,30.0762,-15.5286,8518.27,3232.83,7307.03,-65.1308,406.848,-154.557,1395.71,9794.16,412.131,-1.19769,-27.8656,-35.5887,-1311.09,-7217.48,1483.76,42.1128,5.38812,-335.074,2775.92,10277.7,600.541,6.49188,-76.1442,-87.7766,-4745.44,-5314.45,-779.208,-58.9597,-11.7491,-139.632,6817.88,-567.255,1175.09,-5.92014,-0.415886,-25.2362
3.9415,3494.49,-395.521,9101.64,40.453,29.8827,-15.5124,8565.82,3126.6,7339.3,-65.936,408.205,-154.81,1419.55,9787.28,399.436,-1.07925,-27.3265,-35.7297,-1348.77,-7239.49,1556.46,41.7898,4.08072,-335.938,2826.12,10324.4,593.319,6.42803,-76.1394,-87.459,-4730.45,-5311.19,-774.728,-58.3175,-10.0669,-139.585,6835.32,-555.32,1163.27,-6.17043,0.112537,-25.1155
3.942,3475.16,-454.968,9095.09,39.7875,29.6893,-15.4963,8613.37,3020.38,7371.57,-66.7412,409.563,-155.063,1443.39,9780.41,386.742,-0.960818,-26.7875,-35.8707,-1386.44,-7261.5,1629.16,41.4668,2.77333,-336.802,2876.33,10371.2,586.097,6.36419,-76.1346,-87.1414,-4715.45,-5307.94,-770.248,-57.6753,-8.38462,-139.539,6852.75,-543.385,1151.46,-6.42072,0.640959,-24.9949
3.9425,3480.14,-488.747,9090.84,39.0858,29.4803,-15.4897,8631.45,2916.2,7384.42,-67.2031,410.726,-155.212,1445.41,9773.55,378.171,-0.910911,-26.2433,-36.081,-1413.8,-7283.13,1647.8,41.0759,1.83373,-337.64,2912.59,10413.9,586.338,6.32173,-75.9155,-86.7665,-4698.87,-5313.63,-766.108,-56.9578,-6.34244,-139.601,6877.64,-524.38,1147.83,-6.76598,1.10713,-24.8118
3.943,3504.57,-501.993,9088.44,38.3551,29.2587,-15.4907,8625.96,2813.66,7381.74,-67.3902,411.734,-155.278,1429.98,9766.72,372.899,-0.915829,-25.6951,-36.3468,-1432.92,-7304.45,1623.19,40.6306,1.18836,-338.459,2937.71,10453.6,592.549,6.29637,-75.525,-86.3457,-4681.02,-5326.49,-762.241,-56.1802,-4.01231,-139.75,6908.49,-499.72,1150.76,-7.18721,1.5235,-24.5788
3.9435,3529.0,-515.239,9086.04,37.6243,29.0372,-15.4917,8620.47,2711.12,7379.06,-67.5773,412.742,-155.344,1414.55,9759.89,367.626,-0.920747,-25.1468,-36.6126,-1452.04,-7325.77,1598.58,40.1853,0.542996,-339.278,2962.82,10493.3,598.76,6.27101,-75.1345,-85.9249,-4663.16,-5339.35,-758.373,-55.4025,-1.68218,-139.899,6939.35,-475.059,1153.68,-7.60845,1.93988,-24.3458
3.944,3553.43,-528.484,9083.64,36.8935,28.8157,-15.4927,8614.98,2608.59,7376.38,-67.7644,413.75,-155.41,1399.12,9753.06,362.354,-0.925664,-24.5986,-36.8784,-1471.16,-7347.09,1573.97,39.74,-0.102369,-340.096,2987.93,10532.9,604.971,6.24565,-74.7439,-85.504,-4645.31,-5352.21,-754.506,-54.6249,0.647949,-140.048,6970.2,-450.399,1156.61,-8.02968,2.35625,-24.1128
3.9445,3577.86,-541.73,9081.24,36.1627,28.5942,-15.4937,8609.48,2506.05,7373.7,-67.9514,414.758,-155.475,1383.69,9746.23,357.082,-0.930582,-24.0503,-37.1442,-1490.28,-7368.41,1549.36,39.2947,-0.747734,-340.915,3013.05,10572.6,611.182,6.2203,-74.3534,-85.0832,-4627.46,-5365.06,-750.639,-53.8473,2.97808,-140.197,7001.06,-425.739,1159.53,-8.45092,2.77262,-23.8798
3.945,3602.29,-554.976,9078.84,35.432,28.3726,-15.4947,8603.99,2403.51,7371.02,-68.1385,415.766,-155.541,1368.26,9739.4,351.809,-0.9355,-23.5021,-37.41,-1509.4,-7389.73,1524.75,38.8494,-1.3931,-341.734,3038.16,10612.2,617.393,6.19494,-73.9629,-84.6624,-4609.61,-5377.92,-746.771,-53.0696,5.30821,-140.346,7031.91,-401.078,1162.46,-8.87215,3.189,-23.6467
3.9455,3626.72,-568.222,9076.45,34.7012,28.1511,-15.4957,8598.5,2300.97,7368.34,-68.3256,416.774,-155.607,1352.83,9732.57,346.537,-0.940417,-22.9538,-37.6758,-1528.52,-7411.05,1500.14,38.4041,-2.03846,-342.552,3063.27,10651.9,623.603,6.16958,-73.5724,-84.2416,-4591.76,-5390.78,-742.904,-52.292,7.63833,-140.495,7062.77,-376.418,1165.38,-9.29339,3.60537,-23.4137
3.946,3651.15,-581.468,9074.05,33.9704,27.9296,-15.4967,8593.01,2198.44,7365.66,-68.5127,417.782,-155.673,1337.4,9725.74,341.265,-0.945335,-22.4056,-37.9416,-1547.64,-7432.38,1475.53,37.9588,-2.68383,-343.371,3088.39,10691.6,629.814,6.14423,-73.1819,-83.8208,-4573.91,-5403.64,-739.036,-51.5143,9.96846,-140.644,7093.62,-351.758,1168.31,-9.71462,4.02174,-23.1807
3.9465,3675.58,-594.714,9071.65,33.2397,27.708,-15.4977,8587.52,2095.9,7362.98,-68.6998,418.79,-155.739,1321.97,9718.91,335.993,-0.950253,-21.8573,-38.2074,-1566.75,-7453.7,1450.92,37.5135,-3.32919,-344.19,3113.5,10731.2,636.025,6.11887,-72.7914,-83.4,-4556.06,-5416.5,-735.169,-50.7367,12.2986,-140.793,7124.47,-327.097,1171.23,-10.1359,4.43811,-22.9477
3.947,3707.87,-585.694,9065.18,32.5601,27.4411,-15.4265,8560.48,2007.97,7365.62,-68.686,419.593,-155.606,1290.36,9712.61,328.717,-0.996475,-21.3126,-38.5118,-1552.18,-7481.64,1429.36,37.1136,-3.64041,-345.01,3126.94,10772.8,634.824,6.14077,-72.1462,-82.9123,-4533.57,-5427.42,-737.634,-49.932,15.0328,-140.784,7158.94,-295.56,1179.4,-10.5797,4.7534,-22.6673
3.9475,3744.09,-565.542,9056.68,31.9062,27.1514,-15.3191,8522.67,1927.34,7370.92,-68.5717,420.294,-155.375,1250.68,9706.58,320.439,-1.06335,-20.7697,-38.8355,-1520.77,-7512.9,1409.34,36.7362,-3.78455,-345.83,3134.55,10815.5,629.916,6.18631,-71.3736,-82.3913,-4508.76,-5437.37,-743.266,-49.1139,17.969,-140.696,7195.21,-260.583,1190.2,-11.0349,5.01815,-22.3633
3.948,3780.3,-545.39,9048.18,31.2523,26.8618,-15.2117,8484.87,1846.72,7376.23,-68.4574,420.995,-155.143,1210.99,9700.54,312.161,-1.13023,-20.2268,-39.1592,-1489.35,-7544.16,1389.32,36.3589,-3.9287,-346.651,3142.15,10858.1,625.008,6.23185,-70.6011,-81.8702,-4483.96,-5447.32,-748.897,-48.2957,20.9052,-140.609,7231.48,-225.606,1201.0,-11.49,5.2829,-22.0593
3.9485,3816.52,-525.237,9039.69,30.5984,26.5721,-15.1044,8447.06,1766.09,7381.53,-68.3431,421.696,-154.911,1171.3,9694.51,303.884,-1.1971,-19.6839,-39.483,-1457.94,-7575.42,1369.3,35.9816,-4.07284,-347.472,3149.75,10900.7,620.101,6.27739,-69.8285,-81.3491,-4459.15,-5457.27,-754.529,-47.4776,23.8414,-140.521,7267.74,-190.63,1211.79,-11.9452,5.54764,-21.7552
3.949,3852.74,-505.085,9031.19,29.9445,26.2825,-14.997,8409.25,1685.47,7386.83,-68.2288,422.397,-154.679,1131.61,9688.48,295.606,-1.26398,-19.1409,-39.8067,-1426.52,-7606.67,1349.27,35.6043,-4.21698,-348.292,3157.36,10943.3,615.193,6.32293,-69.056,-80.828,-4434.35,-5467.22,-760.161,-46.6594,26.7776,-140.433,7304.01,-155.653,1222.59,-12.4004,5.81239,-21.4512
3.9495,3888.96,-484.933,9022.69,29.2906,25.9928,-14.8896,8371.45,1604.84,7392.13,-68.1145,423.099,-154.448,1091.92,9682.44,287.329,-1.33085,-18.598,-40.1304,-1395.1,-7637.93,1329.25,35.2269,-4.36113,-349.113,3164.96,10985.9,610.285,6.36847,-68.2834,-80.3069,-4409.54,-5477.17,-765.792,-45.8413,29.7138,-140.346,7340.28,-120.677,1233.38,-12.8555,6.07714,-21.1472
3.95,3925.18,-464.781,9014.19,28.6367,25.7032,-14.7822,8333.64,1524.22,7397.43,-68.0002,423.8,-154.216,1052.23,9676.41,279.051,-1.39773,-18.0551,-40.4541,-1363.69,-7669.19,1309.23,34.8496,-4.50527,-349.934,3172.56,11028.5,605.378,6.41401,-67.5109,-79.7858,-4384.74,-5487.12,-771.424,-45.0231,32.65,-140.258,7376.55,-85.7005,1244.18,-13.3107,6.34188,-20.8431
3.9505,3961.39,-444.628,9005.69,27.9828,25.4135,-14.6749,8295.84,1443.59,7402.73,-67.8858,424.501,-153.984,1012.54,9670.37,270.774,-1.4646,-17.5122,-40.7778,-1332.27,-7700.45,1289.2,34.4723,-4.64941,-350.754,3180.17,11071.1,600.47,6.45954,-66.7383,-79.2647,-4359.93,-5497.07,-777.055,-44.205,35.5862,-140.17,7412.82,-50.7239,1254.97,-13.7659,6.60663,-20.5391
3.951,3997.61,-424.476,8997.19,27.3289,25.1239,-14.5675,8258.03,1362.96,7408.03,-67.7715,425.202,-153.753,972.855,9664.34,262.496,-1.53148,-16.9692,-41.1016,-1300.86,-7731.71,1269.18,34.095,-4.79356,-351.575,3187.77,11113.7,595.562,6.50508,-65.9658,-78.7437,-4335.13,-5507.02,-782.687,-43.3868,38.5224,-140.082,7449.09,-15.7474,1265.77,-14.221,6.87138,-20.2351
3.9515,4019.94,-382.704,8993.72,26.6867,24.9342,-14.4479,8190.17,1324.95,7400.8,-67.441,425.7,-153.317,920.753,9668.49,271.183,-1.57121,-16.5533,-41.3608,-1245.24,-7771.69,1279.53,33.6381,-5.16675,-352.288,3188.51,11136.4,568.637,6.63154,-65.15,-78.1477,-4303.1,-5504.47,-774.971,-42.6887,41.7232,-139.94,7476.23,22.4675,1256.82,-14.5984,7.10494,-19.9115
3.952,4038.3,-334.755,8991.69,26.048,24.7731,-14.3247,8113.72,1299.1,7389.99,-67.0486,426.141,-152.822,865.104,9675.54,284.716,-1.60319,-16.1736,-41.6017,-1182.7,-7814.16,1298.55,33.1585,-5.60539,-352.97,3187.28,11153.5,535.421,6.78112,-64.3219,-77.5304,-4269.0,-5498.34,-763.441,-42.0249,44.9995,-139.782,7500.76,61.6076,1242.24,-14.9535,7.32959,-19.5823
3.9525,4056.66,-286.805,8989.66,25.4092,24.612,-14.2016,8037.28,1273.26,7379.18,-66.6563,426.581,-152.328,809.455,9682.6,298.25,-1.63517,-15.7939,-41.8425,-1120.16,-7856.63,1317.57,32.6789,-6.04403,-353.652,3186.06,11170.5,502.205,6.9307,-63.4939,-76.9131,-4234.91,-5492.22,-751.911,-41.3611,48.2759,-139.624,7525.29,100.748,1227.66,-15.3087,7.55424,-19.2531
3.953,4075.02,-238.856,8987.63,24.7705,24.4509,-14.0784,7960.83,1247.42,7368.38,-66.2639,427.022,-151.834,753.806,9689.65,311.784,-1.66715,-15.4142,-42.0834,-1057.62,-7899.11,1336.59,32.1993,-6.48266,-354.334,3184.83,11187.5,468.989,7.08028,-62.6658,-76.2958,-4200.81,-5486.1,-740.381,-40.6974,51.5522,-139.466,7549.82,139.888,1213.08,-15.6638,7.77888,-18.9239
3.9535,4093.37,-190.907,8985.6,24.1317,24.2898,-13.9553,7884.38,1221.57,7357.57,-65.8715,427.462,-151.339,698.157,9696.71,325.318,-1.69913,-15.0346,-42.3242,-995.088,-7941.58,1355.61,31.7197,-6.9213,-355.016,3183.6,11204.6,435.773,7.22985,-61.8377,-75.6785,-4166.72,-5479.98,-728.852,-40.0336,54.8286,-139.307,7574.35,179.028,1198.49,-16.019,8.00353,-18.5947
3.954,4111.73,-142.957,8983.57,23.493,24.1287,-13.8321,7807.94,1195.73,7346.76,-65.4792,427.903,-150.845,642.508,9703.76,338.851,-1.73111,-14.6549,-42.565,-932.551,-7984.05,1374.63,31.2401,-7.35994,-355.698,3182.38,11221.6,402.557,7.37943,-61.0096,-75.0612,-4132.62,-5473.85,-717.322,-39.3698,58.1049,-139.149,7598.88,218.168,1183.91,-16.3741,8.22818,-18.2655
3.9545,4130.09,-95.0082,8981.54,22.8542,23.9677,-13.709,7731.49,1169.89,7335.95,-65.0868,428.343,-150.351,586.859,9710.82,352.385,-1.76309,-14.2752,-42.8059,-870.014,-8026.53,1393.65,30.7605,-7.79858,-356.38,3181.15,11238.6,369.341,7.52901,-60.1815,-74.4439,-4098.53,-5467.73,-705.792,-38.706,61.3813,-138.991,7623.41,257.308,1169.33,-16.7292,8.45283,-17.9364
3.955,4148.45,-47.0589,8979.51,22.2155,23.8066,-13.5858,7655.04,1144.04,7325.14,-64.6945,428.784,-149.856,531.21,9717.87,365.919,-1.79507,-13.8955,-43.0467,-807.478,-8069.0,1412.68,30.2809,-8.23721,-357.062,3179.93,11255.7,336.125,7.67859,-59.3535,-73.8266,-4064.43,-5461.61,-694.262,-38.0422,64.6577,-138.833,7647.94,296.449,1154.75,-17.0844,8.67748,-17.6072
3.9555,4166.81,0.890427,8977.48,21.5767,23.6455,-13.4627,7578.6,1118.2,7314.33,-64.3021,429.224,-149.362,475.561,9724.92,379.452,-1.82705,-13.5159,-43.2876,-744.941,-8111.47,1431.7,29.8013,-8.67585,-357.744,3178.7,11272.7,302.909,7.82817,-58.5254,-73.2093,-4030.34,-5455.49,-682.733,-37.3784,67.934,-138.675,7672.47,335.589,1140.17,-17.4395,8.90213,-17.278
3.956,4151.43,18.8317,8981.31,21.0301,23.4829,-13.3946,7500.06,1150.17,7308.48,-63.8839,429.442,-148.733,426.608,9729.8,402.872,-1.72202,-13.5323,-43.3531,-655.459,-8157.85,1424.37,29.5619,-9.06223,-358.269,3166.41,11263.0,274.925,8.10541,-57.8182,-72.5414,-3998.42,-5447.56,-677.003,-36.7365,71.2238,-138.528,7702.53,375.671,1127.33,-17.7344,9.27182,-17.0012
3.9565,4131.83,33.022,8985.87,20.495,23.3201,-13.3334,7421.27,1189.36,7303.26,-63.4624,429.632,-148.086,378.491,9734.4,427.526,-1.59988,-13.5983,-43.3966,-562.609,-8204.71,1413.75,29.3525,-9.44207,-358.775,3152.73,11250.0,247.595,8.39861,-57.1262,-71.8672,-3966.78,-5439.41,-671.999,-36.0973,74.5154,-138.382,7733.29,415.87,1114.71,-18.0218,9.65963,-16.731
3.957,4112.24,47.2123,8990.44,19.9598,23.1574,-13.2721,7342.48,1228.55,7298.03,-63.041,429.822,-147.44,330.375,9739.0,452.181,-1.47773,-13.6643,-43.4402,-469.759,-8251.57,1403.13,29.143,-9.82192,-359.28,3139.05,11237.0,220.265,8.69181,-56.4341,-71.193,-3935.13,-5431.26,-666.995,-35.4581,77.8069,-138.236,7764.04,456.07,1102.09,-18.3091,10.0474,-16.4608
3.9575,4092.64,61.4026,8995.01,19.4247,22.9946,-13.2109,7263.68,1267.75,7292.81,-62.6195,430.012,-146.794,282.258,9743.6,476.836,-1.35558,-13.7303,-43.4838,-376.909,-8298.44,1392.51,28.9336,-10.2018,-359.786,3125.37,11224.0,192.935,8.98501,-55.7421,-70.5188,-3903.49,-5423.11,-661.991,-34.819,81.0984,-138.09,7794.79,496.27,1089.47,-18.5965,10.4353,-16.1906
3.958,4073.04,75.5929,8999.57,18.8896,22.8318,-13.1497,7184.89,1306.94,7287.59,-62.1981,430.202,-146.147,234.142,9748.2,501.491,-1.23343,-13.7962,-43.5274,-284.059,-8345.3,1381.89,28.7242,-10.5816,-360.292,3111.69,11211.0,165.605,9.27821,-55.05,-69.8446,-3871.84,-5414.96,-656.987,-34.1798,84.39,-137.943,7825.54,536.47,1076.85,-18.8838,10.8231,-15.9204
3.9585,4053.44,89.7832,9004.14,18.3545,22.6691,-13.0885,7106.09,1346.14,7282.36,-61.7766,430.393,-145.501,186.025,9752.8,526.145,-1.11129,-13.8622,-43.571,-191.209,-8392.16,1371.27,28.5148,-10.9615,-360.797,3098.01,11198.0,138.275,9.57141,-54.358,-69.1705,-3840.2,-5406.81,-651.983,-33.5406,87.6815,-137.797,7856.3,576.669,1064.24,-19.1712,11.2109,-15.6502
3.959,4033.85,103.974,9008.7,17.8193,22.5063,-13.0272,7027.3,1385.33,7277.14,-61.3551,430.583,-144.855,137.909,9757.4,550.8,-0.98914,-13.9282,-43.6146,-98.3593,-8439.02,1360.65,28.3053,-11.3413,-361.303,3084.33,11185.0,110.945,9.86461,-53.6659,-68.4963,-3808.55,-5398.66,-646.979,-32.9014,90.973,-137.651,7887.05,616.869,1051.62,-19.4585,11.5987,-15.38
3.9595,4014.25,118.164,9013.27,17.2842,22.3436,-12.966,6948.5,1424.53,7271.91,-60.9337,430.773,-144.209,89.7926,9762.0,575.455,-0.866993,-13.9942,-43.6582,-5.50929,-8485.88,1350.03,28.0959,-11.7211,-361.809,3070.65,11172.0,83.6149,10.1578,-52.9739,-67.8221,-3776.91,-5390.5,-641.975,-32.2623,94.2645,-137.505,7917.8,657.069,1039.0,-19.7459,11.9865,-15.1098
3.96,3994.65,132.354,9017.84,16.7491,22.1808,-12.9048,6869.71,1463.72,7266.69,-60.5122,430.963,-143.562,41.6762,9766.6,600.11,-0.744845,-14.0602,-43.7017,87.3407,-8532.75,1339.4,27.8865,-12.101,-362.314,3056.98,11159.0,56.2849,10.451,-52.2818,-67.1479,-3745.26,-5382.35,-636.971,-31.6231,97.5561,-137.359,7948.55,697.268,1026.38,-20.0332,12.3743,-14.8396
3.9605,3966.98,128.63,9006.17,16.2281,21.9548,-12.7698,6807.8,1522.25,7249.9,-60.1991,430.844,-142.938,17.6859,9777.25,602.276,-0.585905,-14.458,-43.7045,166.801,-8568.71,1296.99,27.9229,-12.2131,-362.685,3022.52,11129.0,41.3051,10.742,-51.8695,-66.6046,-3719.48,-5382.33,-599.445,-31.3188,100.6,-137.026,7975.77,733.475,1032.76,-20.2992,12.5892,-14.5655
3.961,3939.32,124.905,8994.5,15.7072,21.7288,-12.6348,6745.9,1580.77,7233.11,-59.886,430.725,-142.315,-6.30433,9787.91,604.443,-0.426965,-14.8558,-43.7073,246.262,-8604.68,1254.57,27.9592,-12.3252,-363.055,2988.06,11099.1,26.3253,11.033,-51.4572,-66.0613,-3693.7,-5382.3,-561.919,-31.0146,103.644,-136.693,8002.99,769.681,1039.13,-20.5652,12.804,-14.2913
3.9615,3911.65,121.181,8982.84,15.1863,21.5028,-12.4998,6683.99,1639.3,7216.33,-59.5729,430.606,-141.691,-30.2946,9798.57,606.61,-0.268025,-15.2536,-43.71,325.723,-8640.64,1212.16,27.9956,-12.4373,-363.426,2953.61,11069.2,11.3456,11.324,-51.0449,-65.518,-3667.91,-5382.28,-524.393,-30.7103,106.688,-136.36,8030.21,805.887,1045.51,-20.8312,13.0189,-14.0172
3.962,3883.98,117.457,8971.17,14.6653,21.2768,-12.3648,6622.09,1697.83,7199.54,-59.2598,430.487,-141.067,-54.2848,9809.23,608.777,-0.109085,-15.6515,-43.7128,405.184,-8676.61,1169.74,28.032,-12.5494,-363.796,2919.15,11039.3,-3.63421,11.615,-50.6325,-64.9748,-3642.13,-5382.25,-486.867,-30.4061,109.732,-136.027,8057.43,842.093,1051.88,-21.0972,13.2337,-13.7431
3.9625,3856.31,113.732,8959.51,14.1444,21.0507,-12.2298,6560.18,1756.36,7182.75,-58.9467,430.368,-140.443,-78.2751,9819.88,610.944,0.0498546,-16.0493,-43.7155,484.644,-8712.58,1127.33,28.0683,-12.6615,-364.167,2884.7,11009.4,-18.614,11.9061,-50.2202,-64.4315,-3616.35,-5382.22,-449.342,-30.1018,112.776,-135.694,8084.65,878.3,1058.26,-21.3632,13.4485,-13.469
3.963,3828.64,110.008,8947.84,13.6234,20.8247,-12.0947,6498.28,1814.88,7165.97,-58.6335,430.25,-139.82,-102.265,9830.54,613.111,0.208795,-16.4471,-43.7183,564.105,-8748.54,1084.91,28.1047,-12.7736,-364.537,2850.24,10979.5,-33.5938,12.1971,-49.8079,-63.8882,-3590.57,-5382.2,-411.816,-29.7975,115.82,-135.36,8111.87,914.506,1064.64,-21.6292,13.6634,-13.1948
3.9635,3800.97,106.283,8936.17,13.1025,20.5987,-11.9597,6436.37,1873.41,7149.18,-58.3204,430.131,-139.196,-126.256,9841.2,615.278,0.367735,-16.8449,-43.7211,643.566,-8784.51,1042.49,28.1411,-12.8857,-364.908,2815.79,10949.5,-48.5735,12.4881,-49.3956,-63.3449,-3564.78,-5382.17,-374.29,-29.4933,118.864,-135.027,8139.09,950.712,1071.01,-21.8951,13.8782,-12.9207
3.964,3773.3,102.559,8924.51,12.5815,20.3727,-11.8247,6374.47,1931.94,7132.39,-58.0073,430.012,-138.572,-150.246,9851.86,617.445,0.526675,-17.2428,-43.7238,723.027,-8820.48,1000.08,28.1774,-12.9978,-365.278,2781.33,10919.6,-63.5533,12.7791,-48.9833,-62.8016,-3539.0,-5382.15,-336.764,-29.189,121.908,-134.694,8166.31,986.918,1077.39,-22.1611,14.093,-12.6466
3.9645,3748.57,95.5262,8914.95,12.0724,20.1463,-11.6799,6315.04,1994.41,7113.78,-57.7114,429.862,-137.955,-174.684,9862.48,616.94,0.684396,-17.6486,-43.7329,801.126,-8857.37,958.31,28.2384,-13.0792,-365.636,2744.54,10886.6,-80.9792,13.0608,-48.6129,-62.2898,-3511.35,-5382.01,-299.061,-28.9118,124.885,-134.357,8191.41,1022.42,1083.53,-22.4458,14.2922,-12.3819
3.965,3747.38,62.027,8922.29,11.6574,19.9164,-11.4569,6275.47,2088.45,7080.55,-57.553,429.465,-137.388,-202.705,9872.79,595.055,0.832367,-18.1185,-43.7923,868.334,-8901.69,921.732,28.4959,-12.9146,-365.896,2689.06,10828.9,-117.974,13.2681,-48.5788,-62.0298,-3468.74,-5381.0,-259.938,-28.8515,127.327,-133.987,8199.6,1052.29,1087.81,-22.8795,14.366,-12.1923
3.9655,3746.18,28.5278,8929.62,11.2424,19.6865,-11.2339,6235.9,2182.48,7047.31,-57.3947,429.069,-136.821,-230.725,9883.11,573.171,0.980339,-18.5884,-43.8518,935.543,-8946.01,885.155,28.7534,-12.75,-366.156,2633.58,10771.1,-154.968,13.4754,-48.5446,-61.7698,-3426.13,-5379.99,-220.815,-28.7911,129.77,-133.616,8207.79,1082.17,1092.09,-23.3133,14.4398,-12.0027
3.966,3744.99,-4.97133,8936.95,10.8274,19.4565,-11.0109,6196.33,2276.52,7014.08,-57.2363,428.672,-136.254,-258.746,9893.42,551.286,1.12831,-19.0583,-43.9113,1002.75,-8990.34,848.577,29.011,-12.5854,-366.416,2578.1,10713.4,-191.963,13.6826,-48.5105,-61.5099,-3383.53,-5378.98,-181.692,-28.7307,132.212,-133.246,8215.98,1112.04,1096.37,-23.7471,14.5135,-11.8131
3.9665,3743.8,-38.4705,8944.29,10.4124,19.2266,-10.7879,6156.76,2370.56,6980.85,-57.078,428.275,-135.687,-286.766,9903.74,529.402,1.27628,-19.5282,-43.9707,1069.96,-9034.66,811.999,29.2685,-12.4208,-366.676,2522.62,10655.7,-228.958,13.8899,-48.4763,-61.2499,-3340.92,-5377.97,-142.569,-28.6703,134.655,-132.876,8224.17,1141.91,1100.65,-24.1808,14.5873,-11.6235
3.967,3742.6,-71.9697,8951.62,9.99745,18.9967,-10.5649,6117.19,2464.59,6947.61,-56.9196,427.879,-135.12,-314.787,9914.06,507.517,1.42425,-19.9981,-44.0302,1137.17,-9078.98,775.421,29.5261,-12.2562,-366.936,2467.14,10597.9,-265.952,14.0972,-48.4422,-60.9899,-3298.31,-5376.96,-103.446,-28.6099,137.097,-132.505,8232.36,1171.78,1104.92,-24.6146,14.6611,-11.4339
3.9675,3741.41,-105.469,8958.95,9.58247,18.7668,-10.3419,6077.62,2558.63,6914.38,-56.7613,427.482,-134.554,-342.807,9924.37,485.633,1.57222,-20.4681,-44.0896,1204.38,-9123.3,738.843,29.7836,-12.0916,-367.196,2411.66,10540.2,-302.947,14.3045,-48.408,-60.7299,-3255.71,-5375.95,-64.3228,-28.5496,139.54,-132.135,8240.55,1201.65,1109.2,-25.0484,14.7349,-11.2443
3.968,3740.21,-138.968,8966.29,9.16748,18.5369,-10.1189,6038.05,2652.67,6881.15,-56.6029,427.086,-133.987,-370.828,9934.69,463.748,1.7202,-20.938,-44.1491,1271.58,-9167.62,702.265,30.0411,-11.927,-367.456,2356.19,10482.5,-339.941,14.5118,-48.3739,-60.4699,-3213.1,-5374.94,-25.1997,-28.4892,141.982,-131.765,8248.74,1231.53,1113.48,-25.4821,14.8087,-11.0547
3.9685,3739.02,-172.467,8973.62,8.7525,18.307,-9.89593,5998.48,2746.71,6847.91,-56.4445,426.689,-133.42,-398.848,9945.0,441.864,1.86817,-21.4079,-44.2086,1338.79,-9211.95,665.687,30.2987,-11.7624,-367.716,2300.71,10424.7,-376.936,14.7191,-48.3397,-60.2099,-3170.49,-5373.93,13.9233,-28.4288,144.425,-131.394,8256.93,1261.4,1117.76,-25.9159,14.8824,-10.8651
3.969,3741.28,-208.511,8980.07,8.35412,18.0856,-9.68567,5967.77,2840.5,6819.64,-56.3288,426.212,-132.859,-422.893,9953.32,417.419,2.01414,-21.8394,-44.2656,1401.63,-9262.76,630.741,30.5774,-11.5578,-367.953,2245.72,10361.9,-417.23,14.8826,-48.3632,-60.019,-3132.8,-5368.24,57.1918,-28.3897,146.694,-130.999,8265.94,1287.21,1121.51,-26.4107,14.9244,-10.6619
3.9695,3755.63,-253.461,8983.45,8.01385,17.8939,-9.52002,5968.07,2933.43,6808.72,-56.362,425.453,-132.319,-433.019,9954.62,384.015,2.15314,-22.1367,-44.3144,1449.19,-9336.3,601.504,30.9306,-11.2129,-368.11,2192.46,10280.9,-469.072,14.8928,-48.5886,-60.07,-3112.33,-5346.18,114.97,-28.4252,148.358,-130.516,8277.83,1298.83,1123.37,-27.1191,14.8552,-10.4113
3.97,3769.98,-298.411,8986.83,7.67358,17.7022,-9.35437,5968.38,3026.36,6797.8,-56.3953,424.694,-131.779,-443.146,9955.92,350.61,2.29213,-22.434,-44.3632,1496.74,-9409.84,572.267,31.2837,-10.8681,-368.266,2139.21,10200.0,-520.913,14.903,-48.8139,-60.121,-3091.86,-5324.11,172.747,-28.4607,150.021,-130.032,8289.72,1310.45,1125.24,-27.8276,14.786,-10.1606
3.9705,3784.33,-343.361,8990.21,7.33331,17.5105,-9.18871,5968.68,3119.3,6786.89,-56.4285,423.935,-131.239,-453.273,9957.22,317.206,2.43113,-22.7313,-44.412,1544.29,-9483.39,543.03,31.6369,-10.5232,-368.422,2085.95,10119.1,-572.755,14.9132,-49.0392,-60.172,-3071.38,-5302.05,230.525,-28.4962,151.684,-129.549,8301.61,1322.06,1127.11,-28.536,14.7168,-9.90987
3.971,3798.68,-388.311,8993.58,6.99304,17.3188,-9.02306,5968.98,3212.23,6775.97,-56.4618,423.177,-130.699,-463.4,9958.53,283.801,2.57012,-23.0286,-44.4607,1591.85,-9556.93,513.793,31.99,-10.1783,-368.579,2032.69,10038.1,-624.597,14.9234,-49.2645,-60.2229,-3050.91,-5279.98,288.303,-28.5317,153.347,-129.066,8313.5,1333.68,1128.98,-29.2444,14.6476,-9.65918
3.9715,3813.03,-433.261,8996.96,6.65277,17.1272,-8.8574,5969.28,3305.16,6765.05,-56.495,422.418,-130.159,-473.527,9959.83,250.396,2.70911,-23.3259,-44.5095,1639.4,-9630.47,484.556,32.3432,-9.83346,-368.735,1979.44,9957.21,-676.438,14.9336,-49.4898,-60.2739,-3030.44,-5257.92,346.081,-28.5671,155.011,-128.582,8325.4,1345.29,1130.85,-29.9529,14.5784,-9.40849
3.972,3827.38,-478.211,9000.34,6.3125,16.9355,-8.69175,5969.58,3398.1,6754.13,-56.5283,421.659,-129.619,-483.654,9961.13,216.992,2.84811,-23.6232,-44.5583,1686.96,-9704.01,455.319,32.6963,-9.48859,-368.891,1926.18,9876.29,-728.28,14.9438,-49.7151,-60.3249,-3009.96,-5235.86,403.859,-28.6026,156.674,-128.099,8337.29,1356.91,1132.72,-30.6613,14.5092,-9.15781
3.9725,3841.72,-523.161,9003.72,5.97223,16.7438,-8.5261,5969.88,3491.03,6743.22,-56.5615,420.9,-129.079,-493.781,9962.43,183.587,2.9871,-23.9205,-44.607,1734.51,-9777.55,426.081,33.0495,-9.14372,-369.048,1872.92,9795.36,-780.122,14.954,-49.9404,-60.3759,-2989.49,-5213.79,461.637,-28.6381,158.337,-127.616,8349.18,1368.52,1134.59,-31.3697,14.44,-8.90712
3.973,3856.07,-568.112,9007.1,5.63196,16.5521,-8.36044,5970.18,3583.96,6732.3,-56.5948,420.141,-128.539,-503.908,9963.74,150.183,3.1261,-24.2178,-44.6558,1782.06,-9851.09,396.844,33.4026,-8.79885,-369.204,1819.67,9714.43,-831.964,14.9642,-50.1658,-60.4268,-2969.02,-5191.73,519.414,-28.6736,160.001,-127.132,8361.07,1380.14,1136.46,-32.0782,14.3707,-8.65643
3.9735,3867.15,-608.575,9007.92,5.31335,16.3717,-8.22141,5977.56,3674.69,6732.05,-56.6799,419.335,-128.031,-505.827,9963.08,116.044,3.26275,-24.4667,-44.6577,1817.61,-9929.1,369.117,33.7863,-8.3378,-369.352,1768.68,9633.13,-879.811,14.9072,-50.418,-60.5807,-2956.61,-5183.91,555.695,-28.6445,161.48,-126.607,8369.58,1393.78,1137.62,-32.7021,14.3186,-8.37735
3.974,3871.68,-640.064,9003.62,5.03809,16.2136,-8.1356,5999.07,3761.0,6753.15,-56.8687,418.435,-127.586,-491.33,9958.5,80.4367,3.39473,-24.6188,-44.5659,1829.14,-10016.0,344.41,34.2309,-7.64436,-369.483,1722.24,9551.09,-919.671,14.7157,-50.7242,-60.9403,-2960.33,-5204.59,548.983,-28.4863,162.591,-125.999,8371.32,1411.46,1137.36,-33.1568,14.3005,-8.0415
3.9745,3876.21,-671.553,8999.32,4.76282,16.0556,-8.0498,6020.58,3847.3,6774.24,-57.0575,417.535,-127.14,-476.833,9953.92,44.8295,3.5267,-24.7709,-44.474,1840.67,-10102.9,319.703,34.6756,-6.95093,-369.614,1675.79,9469.04,-959.531,14.5242,-51.0305,-61.2999,-2964.04,-5225.27,542.27,-28.3281,163.702,-125.39,8373.07,1429.14,1137.11,-33.6116,14.2825,-7.70564
3.975,3880.74,-703.042,8995.02,4.48756,15.8976,-7.96399,6042.09,3933.61,6795.34,-57.2464,416.635,-126.695,-462.337,9949.34,9.22234,3.65868,-24.9231,-44.3822,1852.2,-10189.9,294.996,35.1203,-6.25749,-369.745,1629.35,9387.0,-999.391,14.3327,-51.3367,-61.6595,-2967.76,-5245.95,535.558,-28.17,164.813,-124.782,8374.81,1446.81,1136.86,-34.0663,14.2645,-7.36979
3.9755,3885.27,-734.531,8990.72,4.21229,15.7396,-7.87819,6063.6,4019.92,6816.43,-57.4352,415.735,-126.25,-447.84,9944.77,-26.3848,3.79065,-25.0752,-44.2904,1863.73,-10276.8,270.288,35.5649,-5.56406,-369.876,1582.9,9304.96,-1039.25,14.1412,-51.6429,-62.0191,-2971.48,-5266.63,528.845,-28.0118,165.924,-124.174,8376.55,1464.49,1136.6,-34.5211,14.2464,-7.03394
3.976,3889.8,-766.02,8986.42,3.93703,15.5816,-7.79239,6085.11,4106.23,6837.53,-57.624,414.835,-125.804,-433.343,9940.19,-61.992,3.92263,-25.2273,-44.1985,1875.26,-10363.7,245.581,36.0096,-4.87062,-370.007,1536.46,9222.92,-1079.11,13.9497,-51.9491,-62.3787,-2975.2,-5287.31,522.133,-27.8536,167.035,-123.565,8378.3,1482.17,1136.35,-34.9759,14.2284,-6.69808
3.9765,3894.33,-797.509,8982.12,3.66176,15.4236,-7.70658,6106.62,4192.53,6858.62,-57.8128,413.935,-125.359,-418.847,9935.61,-97.5992,4.0546,-25.3794,-44.1067,1886.78,-10450.6,220.874,36.4542,-4.17719,-370.137,1490.01,9140.87,-1118.97,13.7582,-52.2553,-62.7383,-2978.91,-5307.99,515.42,-27.6954,168.146,-122.957,8380.04,1499.85,1136.09,-35.4306,14.2103,-6.36223
3.977,3898.86,-828.998,8977.82,3.3865,15.2656,-7.62078,6128.13,4278.84,6879.72,-58.0016,413.035,-124.914,-404.35,9931.03,-133.206,4.18658,-25.5316,-44.0148,1898.31,-10537.5,196.167,36.8989,-3.48375,-370.268,1443.57,9058.83,-1158.83,13.5667,-52.5615,-63.0979,-2982.63,-5328.66,508.707,-27.5372,169.256,-122.348,8381.78,1517.53,1135.84,-35.8854,14.1923,-6.02638
3.9775,3903.4,-860.487,8973.52,3.11124,15.1076,-7.53497,6149.64,4365.15,6900.81,-58.1905,412.135,-124.468,-389.853,9926.45,-168.814,4.31855,-25.6837,-43.923,1909.84,-10624.5,171.459,37.3436,-2.79032,-370.399,1397.12,8976.79,-1198.69,13.3752,-52.8677,-63.4575,-2986.35,-5349.34,501.995,-27.379,170.367,-121.74,8383.53,1535.21,1135.59,-36.3402,14.1742,-5.69052
3.978,3904.83,-896.991,8966.64,2.95541,14.9722,-7.48169,6183.57,4444.18,6927.02,-58.3495,411.176,-124.054,-366.349,9923.91,-207.169,4.41026,-25.7411,-43.8613,1901.87,-10706.1,145.334,37.8311,-2.0091,-370.482,1354.39,8901.53,-1231.58,13.1871,-53.1375,-63.8657,-2994.77,-5379.63,509.583,-27.1669,171.197,-121.158,8378.76,1553.08,1133.5,-36.7423,14.1476,-5.44985
3.9785,3902.41,-939.765,8956.52,2.9489,14.8652,-7.46904,6233.02,4514.13,6959.61,-58.4711,410.145,-123.679,-331.586,9923.9,-248.961,4.45162,-25.6802,-43.8372,1869.52,-10781.1,117.435,38.3723,-1.11816,-370.505,1316.29,8834.74,-1255.76,13.0033,-53.3618,-64.3345,-3009.08,-5421.92,535.046,-26.8872,171.675,-120.61,8365.86,1571.18,1129.14,-37.0786,14.1102,-5.32815
3.979,3899.99,-982.538,8946.41,2.94238,14.7582,-7.4564,6282.48,4584.07,6992.2,-58.5928,409.114,-123.303,-296.823,9923.89,-290.753,4.49299,-25.6192,-43.8132,1837.18,-10856.1,89.5357,38.9135,-0.227215,-370.529,1278.19,8767.95,-1279.94,12.8195,-53.5861,-64.8034,-3023.39,-5464.21,560.509,-26.6075,172.154,-120.062,8352.96,1589.28,1124.77,-37.415,14.0728,-5.20645
3.9795,3897.56,-1025.31,8936.29,2.93586,14.6512,-7.44375,6331.94,4654.02,7024.79,-58.7145,408.083,-122.928,-262.061,9923.88,-332.545,4.53435,-25.5583,-43.7891,1804.83,-10931.2,61.6368,39.4547,0.663729,-370.552,1240.09,8701.17,-1304.13,12.6357,-53.8105,-65.2722,-3037.7,-5506.5,585.972,-26.3278,172.632,-119.514,8340.06,1607.39,1120.4,-37.7514,14.0355,-5.08475
3.98,3895.14,-1068.09,8926.17,2.92934,14.5442,-7.43111,6381.39,4723.96,7057.38,-58.8362,407.051,-122.552,-227.298,9923.88,-374.337,4.57572,-25.4973,-43.7651,1772.48,-11006.2,33.7379,39.9959,1.55467,-370.575,1201.98,8634.38,-1328.31,12.4519,-54.0348,-65.741,-3052.01,-5548.79,611.435,-26.0482,173.11,-118.965,8327.17,1625.49,1116.04,-38.0877,13.9981,-4.96305
3.9805,3892.72,-1110.86,8916.06,2.92283,14.4372,-7.41846,6430.85,4793.91,7089.97,-58.9579,406.02,-122.177,-192.535,9923.87,-416.129,4.61708,-25.4363,-43.741,1740.14,-11081.2,5.83894,40.5371,2.44562,-370.598,1163.88,8567.59,-1352.49,12.2681,-54.2591,-66.2099,-3066.32,-5591.08,636.899,-25.7685,173.588,-118.417,8314.27,1643.59,1111.67,-38.4241,13.9607,-4.84135
3.981,3890.29,-1153.63,8905.94,2.91631,14.3302,-7.40582,6480.31,4863.85,7122.56,-59.0795,404.989,-121.801,-157.772,9923.86,-457.921,4.65845,-25.3754,-43.717,1707.79,-11156.2,-22.06,41.0783,3.33656,-370.621,1125.78,8500.8,-1376.67,12.0842,-54.4834,-66.6787,-3080.63,-5633.38,662.362,-25.4888,174.066,-117.869,8301.37,1661.7,1107.31,-38.7604,13.9233,-4.71965
3.9815,3887.87,-1196.41,8895.83,2.90979,14.2232,-7.39317,6529.76,4933.8,7155.15,-59.2012,403.958,-121.426,-123.009,9923.85,-499.713,4.69981,-25.3144,-43.6929,1675.44,-11231.2,-49.9589,41.6195,4.2275,-370.644,1087.68,8434.02,-1400.85,11.9004,-54.7078,-67.1476,-3094.94,-5675.67,687.825,-25.2091,174.545,-117.321,8288.47,1679.8,1102.94,-39.0968,13.8859,-4.59795
3.982,3885.44,-1239.18,8885.71,2.90327,14.1162,-7.38053,6579.22,5003.74,7187.74,-59.3229,402.927,-121.051,-88.2459,9923.84,-541.505,4.74118,-25.2534,-43.6689,1643.09,-11306.3,-77.8578,42.1607,5.11845,-370.668,1049.58,8367.23,-1425.03,11.7166,-54.9321,-67.6164,-3109.25,-5717.96,713.288,-24.9295,175.023,-116.772,8275.57,1697.9,1098.57,-39.4331,13.8486,-4.47625
3.9825,3883.05,-1274.28,8880.43,2.93607,13.9799,-7.4163,6653.0,5065.36,7237.21,-59.4658,401.848,-120.85,-65.4288,9919.01,-585.122,4.74339,-25.1399,-43.691,1593.62,-11387.8,-90.0914,42.6982,5.88154,-370.661,1030.48,8318.01,-1458.57,11.5223,-55.0617,-68.0677,-3131.0,-5742.45,736.279,-24.6339,175.346,-116.226,8271.61,1707.33,1093.37,-39.7638,13.7814,-4.38232
3.983,3880.7,-1303.23,8879.0,3.00031,13.8201,-7.49081,6746.25,5120.31,7300.19,-59.6258,400.732,-120.788,-52.1685,9910.32,-630.199,4.71429,-24.9844,-43.7499,1530.44,-11474.5,-89.7926,43.2325,6.54235,-370.631,1026.59,8282.86,-1499.59,11.3196,-55.1156,-68.5049,-3158.71,-5752.69,757.291,-24.3255,175.546,-115.68,8274.8,1709.83,1087.5,-40.09,13.6905,-4.3106
3.9835,3878.34,-1332.18,8877.58,3.06456,13.6603,-7.56531,6839.5,5175.26,7363.17,-59.7857,399.615,-120.727,-38.9082,9901.62,-675.276,4.68519,-24.8288,-43.8089,1467.26,-11561.2,-89.4939,43.7669,7.20315,-370.6,1022.7,8247.7,-1540.61,11.1169,-55.1695,-68.9422,-3186.42,-5762.94,778.303,-24.0171,175.746,-115.134,8277.99,1712.32,1081.64,-40.4161,13.5996,-4.23888
3.984,3875.98,-1361.13,8876.16,3.1288,13.5005,-7.63981,6932.75,5230.21,7426.15,-59.9456,398.498,-120.665,-25.6479,9892.93,-720.352,4.65609,-24.6732,-43.8679,1404.08,-11647.9,-89.1951,44.3013,7.86396,-370.57,1018.8,8212.54,-1581.63,10.9142,-55.2234,-69.3794,-3214.13,-5773.18,799.315,-23.7088,175.946,-114.588,8281.18,1714.82,1075.77,-40.7422,13.5086,-4.16715
3.9845,3873.62,-1390.08,8874.74,3.19305,13.3407,-7.71432,7025.99,5285.17,7489.13,-60.1055,397.382,-120.604,-12.3876,9884.24,-765.429,4.62699,-24.5177,-43.9269,1340.9,-11734.6,-88.8964,44.8357,8.52477,-370.539,1014.91,8177.38,-1622.65,10.7115,-55.2773,-69.8166,-3241.83,-5783.43,820.327,-23.4004,176.145,-114.042,8284.37,1717.31,1069.9,-41.0684,13.4177,-4.09543
3.985,3871.26,-1419.03,8873.32,3.25729,13.1809,-7.78882,7119.24,5340.12,7552.11,-60.2655,396.265,-120.542,0.872694,9875.54,-810.506,4.59788,-24.3621,-43.9859,1277.72,-11821.3,-88.5976,45.3701,9.18558,-370.509,1011.01,8142.23,-1663.67,10.5088,-55.3312,-70.2539,-3269.54,-5793.68,841.339,-23.0921,176.345,-113.497,8287.56,1719.81,1064.03,-41.3945,13.3267,-4.02371
3.9855,3868.9,-1447.98,8871.9,3.32154,13.0211,-7.86332,7212.49,5395.07,7615.09,-60.4254,395.148,-120.481,14.133,9866.85,-855.583,4.56878,-24.2065,-44.0449,1214.54,-11908.0,-88.2989,45.9045,9.84639,-370.479,1007.12,8107.07,-1704.69,10.3061,-55.385,-70.6911,-3297.25,-5803.92,862.351,-22.7837,176.545,-112.951,8290.75,1722.3,1058.16,-41.7207,13.2358,-3.95199
3.986,3866.54,-1476.93,8870.47,3.38578,12.8612,-7.93783,7305.74,5450.02,7678.07,-60.5853,394.032,-120.419,27.3933,9858.16,-900.66,4.53968,-24.051,-44.1038,1151.36,-11994.7,-88.0001,46.4389,10.5072,-370.448,1003.22,8071.91,-1745.71,10.1034,-55.4389,-71.1283,-3324.96,-5814.17,883.363,-22.4753,176.744,-112.405,8293.94,1724.8,1052.3,-42.0468,13.1449,-3.88027
3.9865,3864.18,-1505.89,8869.05,3.45003,12.7014,-8.01233,7398.98,5504.97,7741.05,-60.7453,392.915,-120.358,40.6536,9849.46,-945.737,4.51058,-23.8954,-44.1628,1088.18,-12081.5,-87.7014,46.9733,11.168,-370.418,999.33,8036.75,-1786.73,9.90065,-55.4928,-71.5656,-3352.67,-5824.41,904.375,-22.167,176.944,-111.859,8297.13,1727.29,1046.43,-42.3729,13.0539,-3.80855
3.987,3862.5,-1536.51,8869.55,3.63047,12.5932,-8.11477,7500.56,5545.24,7817.95,-60.8404,391.867,-120.647,47.8645,9842.13,-982.667,4.40405,-23.6417,-44.2189,987.508,-12160.6,-72.8209,47.3693,11.6199,-370.406,997.37,8014.89,-1825.84,9.72387,-55.3466,-72.0166,-3394.43,-5834.85,909.608,-21.9134,176.918,-111.265,8288.12,1750.35,1034.93,-42.566,12.8799,-3.73422
3.9875,3861.17,-1567.97,8871.0,3.86902,12.5108,-8.23117,7606.29,5578.17,7901.81,-60.9033,390.852,-121.112,52.0506,9835.47,-1015.52,4.25881,-23.3389,-44.2736,868.095,-12235.9,-50.6496,47.6962,11.9673,-370.403,996.378,7999.67,-1863.98,9.56006,-55.1004,-72.4745,-3443.21,-5845.39,906.951,-21.6871,176.778,-110.646,8273.01,1783.68,1020.62,-42.6926,12.6642,-3.65859
3.988,3859.83,-1599.44,8872.46,4.10757,12.4283,-8.34757,7712.03,5611.1,7985.66,-60.9661,389.838,-121.577,56.2367,9828.8,-1048.38,4.11357,-23.0361,-44.3283,748.681,-12311.3,-28.4783,48.0231,12.3148,-370.4,995.385,7984.45,-1902.13,9.39624,-54.8542,-72.9325,-3492.0,-5855.93,904.295,-21.4608,176.638,-110.027,8257.9,1817.02,1006.31,-42.8191,12.4486,-3.58296
3.9885,3858.49,-1630.9,8873.91,4.34611,12.3458,-8.46397,7817.77,5644.03,8069.52,-61.0289,388.823,-122.042,60.4228,9822.14,-1081.24,3.96833,-22.7334,-44.3829,629.268,-12386.6,-6.30699,48.35,12.6622,-370.397,994.392,7969.23,-1940.27,9.23243,-54.608,-73.3904,-3540.78,-5866.47,901.638,-21.2345,176.499,-109.409,8242.79,1850.36,992.001,-42.9457,12.2329,-3.50733
3.989,3857.15,-1662.36,8875.36,4.58466,12.2634,-8.58038,7923.5,5676.96,8153.38,-61.0918,387.809,-122.506,64.6089,9815.48,-1114.1,3.82309,-22.4306,-44.4376,509.854,-12462.0,15.8643,48.6769,13.0097,-370.395,993.399,7954.01,-1978.42,9.06862,-54.3617,-73.8484,-3589.57,-5877.01,898.981,-21.0083,176.359,-108.79,8227.68,1883.69,977.69,-43.0723,12.0173,-3.4317
3.9895,3855.82,-1693.83,8876.82,4.82321,12.1809,-8.69678,8029.24,5709.89,8237.24,-61.1546,386.794,-122.971,68.795,9808.82,-1146.95,3.67785,-22.1278,-44.4923,390.44,-12537.4,38.0356,49.0038,13.3571,-370.392,992.407,7938.79,-2016.57,8.9048,-54.1155,-74.3063,-3638.36,-5887.55,896.325,-20.782,176.219,-108.171,8212.57,1917.03,963.38,-43.1988,11.8016,-3.35608
3.99,3854.48,-1725.29,8878.27,5.06175,12.0985,-8.81318,8134.98,5742.82,8321.09,-61.2174,385.78,-123.436,72.9811,9802.16,-1179.81,3.53261,-21.825,-44.5469,271.027,-12612.7,60.207,49.3307,13.7046,-370.389,991.414,7923.57,-2054.71,8.74099,-53.8693,-74.7642,-3687.14,-5898.09,893.668,-20.5557,176.08,-107.553,8197.45,1950.37,949.07,-43.3254,11.586,-3.28045
3.9905,3853.14,-1756.75,8879.73,5.3003,12.016,-8.92958,8240.71,5775.75,8404.95,-61.2802,384.765,-123.901,77.1673,9795.5,-1212.67,3.38737,-21.5222,-44.6016,151.613,-12688.1,82.3783,49.6576,14.052,-370.386,990.421,7908.35,-2092.86,8.57717,-53.6231,-75.2222,-3735.93,-5908.62,891.011,-20.3295,175.94,-106.934,8182.34,1983.7,934.76,-43.4519,11.3703,-3.20482
3.991,3851.8,-1788.22,8881.18,5.53885,11.9336,-9.04599,8346.45,5808.69,8488.81,-61.3431,383.751,-124.366,81.3534,9788.84,-1245.53,3.24213,-21.2195,-44.6563,32.1996,-12763.4,104.55,49.9845,14.3995,-370.383,989.429,7893.13,-2131.0,8.41336,-53.3768,-75.6801,-3784.71,-5919.16,888.355,-20.1032,175.801,-106.315,8167.23,2017.04,920.449,-43.5785,11.1547,-3.12919
3.9915,3852.99,-1811.09,8889.25,5.80649,11.8269,-9.1664,8472.93,5830.35,8565.06,-61.2107,382.964,-125.114,84.9933,9790.82,-1266.5,3.09518,-20.9453,-44.753,-119.273,-12835.5,121.646,50.1858,14.5555,-370.508,997.916,7894.82,-2167.13,8.30118,-52.8801,-76.0442,-3825.35,-5944.47,909.384,-20.1134,175.438,-105.548,8165.35,1997.39,906.566,-43.7661,10.9384,-3.14628
3.992,3854.89,-1831.5,8899.22,6.08245,11.7134,-9.28797,8605.35,5848.79,8639.15,-61.0226,382.243,-125.944,88.4772,9795.26,-1284.07,2.94774,-20.6794,-44.8618,-279.906,-12906.7,137.292,50.3512,14.6569,-370.67,1009.11,7901.33,-2202.69,8.20375,-52.3118,-76.3815,-3863.67,-5974.0,937.182,-20.1913,175.012,-104.739,8167.24,1962.61,892.805,-43.9712,10.7221,-3.18987
3.9925,3856.8,-1851.91,8909.18,6.35841,11.5999,-9.40953,8737.76,5867.24,8713.23,-60.8345,381.522,-126.773,91.9611,9799.71,-1301.64,2.8003,-20.4134,-44.9706,-440.538,-12977.8,152.939,50.5167,14.7583,-370.831,1020.31,7907.85,-2238.24,8.10633,-51.7434,-76.7187,-3901.98,-6003.53,964.979,-20.2691,174.586,-103.93,8169.13,1927.82,879.044,-44.1763,10.5057,-3.23345
3.993,3858.7,-1872.33,8919.15,6.63436,11.4864,-9.53109,8870.17,5885.68,8787.32,-60.6464,380.8,-127.603,95.445,9804.15,-1319.21,2.65286,-20.1475,-45.0793,-601.171,-13049.0,168.585,50.6822,14.8597,-370.993,1031.5,7914.37,-2273.79,8.0089,-51.1751,-77.056,-3940.29,-6033.06,992.776,-20.3469,174.16,-103.121,8171.02,1893.03,865.283,-44.3813,10.2893,-3.27704
3.9935,3860.61,-1892.74,8929.11,6.91032,11.3728,-9.65265,9002.58,5904.13,8861.4,-60.4582,380.079,-128.432,98.9288,9808.6,-1336.78,2.50542,-19.8815,-45.1881,-761.804,-13120.2,184.232,50.8476,14.961,-371.154,1042.7,7920.88,-2309.34,7.91147,-50.6068,-77.3933,-3978.61,-6062.59,1020.57,-20.4248,173.733,-102.312,8172.91,1858.25,851.521,-44.5864,10.073,-3.32063
3.994,3862.51,-1913.15,8939.08,7.18628,11.2593,-9.77422,9134.99,5922.57,8935.49,-60.2701,379.357,-129.262,102.413,9813.04,-1354.35,2.35798,-19.6156,-45.2969,-922.436,-13191.4,199.878,51.0131,15.0624,-371.315,1053.9,7927.4,-2344.9,7.81404,-50.0385,-77.7305,-4016.92,-6092.12,1048.37,-20.5026,173.307,-101.503,8174.8,1823.46,837.76,-44.7915,9.85659,-3.36421
3.9945,3864.42,-1933.57,8949.04,7.46224,11.1458,-9.89578,9267.41,5941.01,9009.57,-60.082,378.636,-130.091,105.897,9817.49,-1371.92,2.21054,-19.3496,-45.4057,-1083.07,-13262.5,215.525,51.1785,15.1638,-371.477,1065.09,7933.92,-2380.45,7.71661,-49.4702,-78.0678,-4055.23,-6121.65,1076.17,-20.5804,172.881,-100.694,8176.69,1788.68,823.999,-44.9965,9.64022,-3.4078
3.995,3866.32,-1953.98,8959.01,7.7382,11.0323,-10.0173,9399.82,5959.46,9083.66,-59.8939,377.915,-130.921,109.38,9821.93,-1389.49,2.0631,-19.0837,-45.5144,-1243.7,-13333.7,231.171,51.344,15.2652,-371.638,1076.29,7940.44,-2416.0,7.61919,-48.9018,-78.4051,-4093.55,-6151.18,1103.97,-20.6583,172.455,-99.8855,8178.58,1753.89,810.238,-45.2016,9.42385,-3.45138
3.9955,3868.23,-1974.39,8968.97,8.01415,10.9187,-10.1389,9532.23,5977.9,9157.74,-59.7057,377.193,-131.75,112.864,9826.38,-1407.06,1.91566,-18.8177,-45.6232,-1404.33,-13404.9,246.818,51.5094,15.3665,-371.8,1087.48,7946.95,-2451.56,7.52176,-48.3335,-78.7424,-4131.86,-6180.71,1131.76,-20.7361,172.029,-99.0765,8180.47,1719.1,796.477,-45.4067,9.20748,-3.49497
3.996,3866.87,-1988.9,8969.28,8.17228,10.8282,-10.3877,9664.65,5984.88,9243.21,-59.297,376.739,-132.84,95.775,9827.62,-1422.55,1.77291,-18.5844,-45.7436,-1566.88,-13473.6,273.127,51.3809,15.296,-372.212,1106.12,7967.27,-2468.05,7.42082,-47.5759,-78.9933,-4163.79,-6187.63,1132.12,-21.0033,171.309,-98.1088,8181.39,1698.01,788.637,-45.4277,8.91843,-3.53213
3.9965,3865.1,-2002.67,8968.38,8.31568,10.7406,-10.6525,9797.08,5990.43,9330.1,-58.8607,376.319,-133.962,76.114,9828.45,-1437.78,1.63074,-18.3552,-45.8653,-1729.67,-13542.0,300.77,51.2156,15.2041,-372.656,1125.69,7989.32,-2482.17,7.31944,-46.7946,-79.2334,-4194.92,-6191.72,1129.05,-21.2942,170.553,-97.1213,8182.2,1678.63,781.538,-45.4257,8.6203,-3.56848
3.997,3863.34,-2016.44,8967.47,8.45908,10.6529,-10.9173,9929.5,5995.98,9416.99,-58.4244,375.898,-135.085,56.453,9829.29,-1453.0,1.48858,-18.126,-45.9871,-1892.46,-13610.4,328.413,51.0504,15.1121,-373.099,1145.26,8011.36,-2496.28,7.21806,-46.0133,-79.4734,-4226.04,-6195.82,1125.98,-21.5851,169.796,-96.1338,8183.01,1659.25,774.44,-45.4237,8.32217,-3.60484
3.9975,3861.58,-2030.21,8966.57,8.60247,10.5653,-11.182,10061.9,6001.52,9503.89,-57.9881,375.477,-136.207,36.792,9830.12,-1468.23,1.34642,-17.8968,-46.1089,-2055.25,-13678.8,356.056,50.8851,15.0202,-373.543,1164.82,8033.41,-2510.39,7.11668,-45.232,-79.7135,-4257.17,-6199.91,1122.92,-21.876,169.04,-95.1463,8183.81,1639.87,767.341,-45.4217,8.02404,-3.6412
3.998,3859.81,-2043.98,8965.67,8.74587,10.4777,-11.4468,10194.4,6007.07,9590.78,-57.5518,375.056,-137.33,17.1309,9830.96,-1483.45,1.20425,-17.6676,-46.2307,-2218.04,-13747.2,383.698,50.7198,14.9282,-373.986,1184.39,8055.46,-2524.51,7.0153,-44.4507,-79.9536,-4288.3,-6204.01,1119.85,-22.1669,168.284,-94.1588,8184.62,1620.5,760.242,-45.4197,7.72591,-3.67755
3.9985,3858.05,-2057.75,8964.77,8.88927,10.39,-11.7115,10326.8,6012.62,9677.67,-57.1155,374.636,-138.452,-2.53009,9831.79,-1498.68,1.06209,-17.4383,-46.3525,-2380.83,-13815.6,411.341,50.5545,14.8362,-374.43,1203.96,8077.5,-2538.62,6.91392,-43.6694,-80.1937,-4319.43,-6208.1,1116.78,-22.4577,167.527,-93.1713,8185.42,1601.12,753.143,-45.4177,7.42778,-3.71391
3.999,3856.28,-2071.52,8963.87,9.03267,10.3024,-11.9763,10459.2,6018.17,9764.56,-56.6792,374.215,-139.574,-22.1911,9832.63,-1513.91,0.919926,-17.2091,-46.4743,-2543.62,-13883.9,438.984,50.3892,14.7443,-374.873,1223.53,8099.55,-2552.73,6.81254,-42.8881,-80.4338,-4350.56,-6212.2,1113.71,-22.7486,166.771,-92.1839,8186.23,1581.74,746.044,-45.4157,7.12965,-3.75026
3.9995,3854.52,-2085.29,8962.96,9.17606,10.2147,-12.241,10591.6,6023.71,9851.45,-56.2429,373.794,-140.697,-41.8521,9833.46,-1529.13,0.777763,-16.9799,-46.5961,-2706.41,-13952.3,466.626,50.224,14.6523,-375.317,1243.09,8121.59,-2566.85,6.71116,-42.1068,-80.6739,-4381.69,-6216.29,1110.64,-23.0395,166.015,-91.1964,8187.03,1562.36,738.945,-45.4137,6.83152,-3.78662
4.0,3852.75,-2099.06,8962.06,9.31946,10.1271,-12.5058,10724.1,6029.26,9938.35,-55.8066,373.374,-141.819,-61.5131,9834.3,-1544.36,0.635599,-16.7507,-46.7179,-2869.19,-14020.7,494.269,50.0587,14.5603,-375.76,1262.66,8143.64,-2580.96,6.60979,-41.3255,-80.914,-4412.82,-6220.39,1107.57,-23.3304,165.258,-90.2089,8187.84,1542.98,731.846,-45.4117,6.53339,-3.82298
4.0005,3864.08,-2078.01,8964.7,9.5573,10.091,-12.6171,10829.8,6039.18,10007.0,-55.2551,373.146,-143.083,-69.8171,9835.5,-1552.04,0.541499,-16.5784,-46.867,-2986.94,-14084.7,518.841,49.5184,14.4505,-376.378,1284.04,8168.62,-2589.5,6.5547,-40.4417,-81.096,-4464.84,-6238.32,1081.51,-23.4917,164.285,-89.2003,8180.27,1527.58,708.582,-45.449,6.37019,-3.81245
4.001,3875.4,-2056.97,8967.34,9.79514,10.0549,-12.7284,10935.5,6049.09,10075.6,-54.7036,372.919,-144.347,-78.1212,9836.71,-1559.73,0.447399,-16.4061,-47.0161,-3104.68,-14148.7,543.413,48.9781,14.3407,-376.995,1305.42,8193.61,-2598.05,6.49962,-39.5578,-81.278,-4516.86,-6256.26,1055.45,-23.6529,163.312,-88.1918,8172.7,1512.18,685.318,-45.4863,6.20699,-3.80192
4.0015,3886.73,-2035.93,8969.98,10.033,10.0188,-12.8397,11041.3,6059.01,10144.2,-54.152,372.692,-145.611,-86.4252,9837.92,-1567.41,0.353299,-16.2339,-47.1652,-3222.42,-14212.7,567.985,48.4378,14.2309,-377.613,1326.79,8218.59,-2606.59,6.44454,-38.674,-81.46,-4568.88,-6274.19,1029.39,-23.8142,162.338,-87.1832,8165.14,1496.79,662.054,-45.5236,6.04379,-3.7914
4.002,3898.05,-2014.89,8972.61,10.2708,9.98264,-12.951,11147.0,6068.92,10212.8,-53.6005,372.465,-146.875,-94.7292,9839.13,-1575.09,0.259199,-16.0616,-47.3143,-3340.17,-14276.7,592.556,47.8974,14.1211,-378.231,1348.17,8243.57,-2615.14,6.38945,-37.7902,-81.6421,-4620.89,-6292.13,1003.33,-23.9755,161.365,-86.1747,8157.57,1481.39,638.79,-45.561,5.88059,-3.78087
4.0025,3909.37,-1993.84,8975.25,10.5087,9.94653,-13.0624,11252.7,6078.84,10281.4,-53.049,372.237,-148.138,-103.033,9840.33,-1582.78,0.165099,-15.8894,-47.4634,-3457.91,-14340.7,617.128,47.3571,14.0113,-378.848,1369.55,8268.56,-2623.68,6.33437,-36.9063,-81.8241,-4672.91,-6310.07,977.271,-24.1368,160.392,-85.1661,8150.0,1465.99,615.526,-45.5983,5.7174,-3.77035
4.003,3920.7,-1972.8,8977.89,10.7465,9.91041,-13.1737,11358.5,6088.75,10350.0,-52.4975,372.01,-149.402,-111.337,9841.54,-1590.46,0.070999,-15.7171,-47.6125,-3575.65,-14404.7,641.7,46.8168,13.9015,-379.466,1390.93,8293.54,-2632.23,6.27929,-36.0225,-82.0061,-4724.93,-6328.0,951.211,-24.2981,159.419,-84.1576,8142.44,1450.59,592.262,-45.6356,5.5542,-3.75982
4.0035,3932.02,-1951.76,8980.52,10.9844,9.8743,-13.285,11464.2,6098.67,10418.6,-51.946,371.783,-150.666,-119.641,9842.75,-1598.14,-0.0231009,-15.5448,-47.7616,-3693.4,-14468.7,666.272,46.2765,13.7917,-380.084,1412.3,8318.52,-2640.77,6.22421,-35.1387,-82.1881,-4776.95,-6345.94,925.151,-24.4593,158.445,-83.149,8134.87,1435.2,568.998,-45.6729,5.391,-3.74929
4.004,3943.35,-1930.72,8983.16,11.2222,9.83819,-13.3963,11569.9,6108.58,10487.2,-51.3945,371.556,-151.93,-127.945,9843.96,-1605.83,-0.117201,-15.3726,-47.9107,-3811.14,-14532.7,690.844,45.7362,13.6819,-380.701,1433.68,8343.51,-2649.31,6.16912,-34.2549,-82.3701,-4828.97,-6363.87,899.091,-24.6206,157.472,-82.1405,8127.3,1419.8,545.734,-45.7103,5.2278,-3.73877
4.0045,3952.8,-1910.95,8985.46,11.4596,9.80115,-13.5072,11674.7,6121.45,10553.9,-50.8424,371.342,-153.179,-136.562,9845.78,-1610.22,-0.205247,-15.2071,-48.0499,-3922.67,-14595.3,714.096,45.1819,13.5791,-381.329,1454.64,8371.23,-2656.72,6.12386,-33.3826,-82.5418,-4881.18,-6383.27,876.687,-24.7767,156.466,-81.1228,8121.04,1401.4,522.959,-45.7677,5.0636,-3.73876
4.005,3947.32,-1901.41,8985.04,11.6934,9.75674,-13.6143,11772.4,6157.98,10605.1,-50.286,371.238,-154.307,-147.68,9852.49,-1588.33,-0.244857,-15.0964,-48.1098,-3984.5,-14645.8,726.793,44.5155,13.532,-382.035,1472.3,8420.89,-2655.04,6.1572,-32.6027,-82.6306,-4934.98,-6414.32,883.528,-24.8911,155.198,-80.0318,8125.17,1358.97,504.096,-45.9857,4.89133,-3.8229
4.0055,3941.84,-1891.87,8984.62,11.9271,9.71233,-13.7214,11870.0,6194.51,10656.3,-49.7297,371.135,-155.435,-158.798,9859.21,-1566.43,-0.284468,-14.9856,-48.1697,-4046.32,-14696.4,739.489,43.8492,13.4849,-382.742,1489.95,8470.56,-2653.36,6.19054,-31.8227,-82.7193,-4988.78,-6445.38,890.37,-25.0055,153.93,-78.9409,8129.31,1316.55,485.232,-46.2038,4.71906,-3.90704
4.006,3936.36,-1882.33,8984.19,12.1609,9.66792,-13.8285,11967.6,6231.04,10707.5,-49.1733,371.031,-156.563,-169.917,9865.92,-1544.54,-0.324078,-14.8749,-48.2296,-4108.15,-14747.0,752.185,43.1829,13.4379,-383.448,1507.61,8520.22,-2651.68,6.22388,-31.0428,-82.8081,-5042.58,-6476.43,897.211,-25.12,152.662,-77.8499,8133.45,1274.12,466.369,-46.4219,4.5468,-3.99119
4.0065,3930.88,-1872.78,8983.77,12.3947,9.62351,-13.9357,12065.2,6267.57,10758.8,-48.617,370.927,-157.692,-181.035,9872.64,-1522.64,-0.363689,-14.7641,-48.2895,-4169.98,-14797.6,764.881,42.5165,13.3908,-384.155,1525.26,8569.88,-2650.0,6.25722,-30.2629,-82.8969,-5096.38,-6507.49,904.052,-25.2344,151.394,-76.759,8137.59,1231.7,447.506,-46.6399,4.37453,-4.07533
4.007,3925.4,-1863.24,8983.35,12.6284,9.5791,-14.0428,12162.8,6304.1,10810.0,-48.0606,370.824,-158.82,-192.153,9879.35,-1500.74,-0.403299,-14.6534,-48.3494,-4231.8,-14848.2,777.578,41.8502,13.3438,-384.861,1542.91,8619.55,-2648.32,6.29056,-29.483,-82.9856,-5150.18,-6538.54,910.893,-25.3488,150.126,-75.668,8141.73,1189.27,428.642,-46.858,4.20226,-4.15947
4.0075,3919.92,-1853.7,8982.93,12.8622,9.53469,-14.1499,12260.4,6340.63,10861.2,-47.5043,370.72,-159.948,-203.271,9886.07,-1478.85,-0.44291,-14.5426,-48.4093,-4293.63,-14898.8,790.274,41.1838,13.2967,-385.568,1560.57,8669.21,-2646.64,6.3239,-28.7031,-83.0744,-5203.98,-6569.6,917.734,-25.4633,148.858,-74.5771,8145.87,1146.85,409.779,-47.0761,4.03,-4.24361
4.008,3914.44,-1844.16,8982.51,13.096,9.49028,-14.257,12358.1,6377.15,10912.5,-46.9479,370.616,-161.076,-214.389,9892.78,-1456.95,-0.48252,-14.4319,-48.4692,-4355.45,-14949.4,802.97,40.5175,13.2497,-386.275,1578.22,8718.88,-2644.96,6.35724,-27.9232,-83.1632,-5257.78,-6600.65,924.575,-25.5777,147.59,-73.4861,8150.01,1104.42,390.916,-47.2942,3.85773,-4.32776
4.0085,3908.95,-1834.62,8982.09,13.3297,9.44587,-14.3642,12455.7,6413.68,10963.7,-46.3915,370.512,-162.205,-225.508,9899.5,-1435.06,-0.522131,-14.3211,-48.5291,-4417.28,-14999.9,815.667,39.8511,13.2026,-386.981,1595.87,8768.54,-2643.28,6.39058,-27.1432,-83.252,-5311.58,-6631.71,931.416,-25.6921,146.321,-72.3951,8154.15,1062.0,372.052,-47.5122,3.68547,-4.4119
4.009,3902.77,-1827.02,8982.44,13.5248,9.38405,-14.4828,12549.0,6453.84,11013.3,-45.8836,370.377,-163.274,-237.676,9903.28,-1415.52,-0.576893,-14.217,-48.5925,-4464.65,-15054.9,826.186,39.196,13.1607,-387.684,1611.91,8816.83,-2636.1,6.41346,-26.4147,-83.3301,-5358.54,-6663.5,934.861,-25.6978,145.028,-71.2918,8158.23,1016.09,358.798,-47.7371,3.52321,-4.50326
4.0095,3894.14,-1826.22,8985.48,13.5843,9.26131,-14.6417,12627.2,6506.71,11057.2,-45.5454,370.13,-164.136,-253.519,9896.81,-1404.26,-0.684683,-14.1357,-48.6683,-4461.4,-15125.3,829.087,38.5798,13.1366,-388.376,1622.27,8860.31,-2609.69,6.39975,-25.8659,-83.3713,-5381.59,-6697.86,926.42,-25.3229,143.648,-70.1452,8162.09,957.976,365.179,-47.986,3.396,-4.61991
4.01,3885.51,-1825.42,8988.52,13.6438,9.13856,-14.8006,12705.4,6559.58,11101.2,-45.2071,369.883,-164.998,-269.362,9890.33,-1393.0,-0.792474,-14.0545,-48.7441,-4458.16,-15195.7,831.987,37.9637,13.1126,-389.069,1632.63,8903.79,-2583.27,6.38603,-25.3171,-83.4124,-5404.64,-6732.22,917.978,-24.948,142.268,-68.9986,8165.95,899.865,371.559,-48.2348,3.26878,-4.73656
4.0105,3876.88,-1824.62,8991.56,13.7033,9.01582,-14.9595,12783.6,6612.44,11145.1,-44.8688,369.636,-165.861,-285.206,9883.85,-1381.73,-0.900264,-13.9733,-48.8199,-4454.92,-15266.1,834.888,37.3475,13.0886,-389.761,1642.99,8947.26,-2556.86,6.37231,-24.7684,-83.4535,-5427.69,-6766.58,909.536,-24.5731,140.888,-67.8519,8169.82,841.755,377.94,-48.4836,3.14156,-4.8532
4.011,3868.25,-1823.82,8994.61,13.7628,8.89307,-15.1184,12861.8,6665.31,11189.1,-44.5305,369.388,-166.723,-301.049,9877.38,-1370.47,-1.00805,-13.8921,-48.8957,-4451.68,-15336.5,837.788,36.7314,13.0645,-390.453,1653.35,8990.74,-2530.45,6.35859,-24.2196,-83.4946,-5450.74,-6800.94,901.095,-24.1982,139.508,-66.7053,8173.68,783.644,384.32,-48.7324,3.01435,-4.96985
4.0115,3859.61,-1823.02,8997.65,13.8223,8.77033,-15.2773,12940.0,6718.18,11233.0,-44.1923,369.141,-167.585,-316.892,9870.9,-1359.21,-1.11585,-13.8109,-48.9715,-4448.44,-15406.9,840.689,36.1152,13.0405,-391.145,1663.71,9034.22,-2504.03,6.34487,-23.6708,-83.5357,-5473.79,-6835.3,892.653,-23.8233,138.128,-65.5587,8177.54,725.533,390.7,-48.9812,2.88713,-5.08649
4.012,3850.98,-1822.22,9000.69,13.8819,8.64759,-15.4362,13018.2,6771.04,11276.9,-43.854,368.894,-168.448,-332.736,9864.43,-1347.95,-1.22364,-13.7296,-49.0472,-4445.2,-15477.3,843.589,35.4991,13.0164,-391.837,1674.07,9077.7,-2477.62,6.33116,-23.122,-83.5769,-5496.83,-6869.67,884.212,-23.4484,136.748,-64.412,8181.41,667.423,397.081,-49.2301,2.75992,-5.20314
4.0125,3842.35,-1821.42,9003.74,13.9414,8.52484,-15.5951,13096.5,6823.91,11320.9,-43.5157,368.647,-169.31,-348.579,9857.95,-1336.68,-1.33143,-13.6484,-49.123,-4441.96,-15547.6,846.489,34.8829,12.9924,-392.529,1684.44,9121.18,-2451.21,6.31744,-22.5733,-83.618,-5519.88,-6904.03,875.77,-23.0734,135.368,-63.2654,8185.27,609.312,403.461,-49.4789,2.6327,-5.31979
4.013,3833.72,-1820.62,9006.78,14.0009,8.4021,-15.754,13174.7,6876.78,11364.8,-43.1774,368.4,-170.172,-364.422,9851.47,-1325.42,-1.43922,-13.5672,-49.1988,-4438.71,-15618.0,849.39,34.2668,12.9683,-393.221,1694.8,9164.66,-2424.79,6.30372,-22.0245,-83.6591,-5542.93,-6938.39,867.328,-22.6985,133.988,-62.1188,8189.13,551.201,409.841,-49.7277,2.50549,-5.43643
4.0135,3827.49,-1808.84,9007.48,14.0571,8.27778,-15.9141,13241.9,6928.64,11408.8,-42.8865,368.09,-170.979,-381.284,9852.16,-1312.98,-1.54062,-13.4894,-49.283,-4422.96,-15692.0,846.875,33.7589,12.9563,-393.871,1696.25,9203.77,-2392.33,6.30566,-21.5675,-83.6596,-5569.92,-6970.64,861.589,-22.1538,132.546,-61.0753,8197.35,504.221,411.217,-49.9858,2.33448,-5.51787
4.014,3826.08,-1775.09,9003.5,14.1066,8.15029,-16.0765,13287.2,6978.5,11452.8,-42.6901,367.653,-171.675,-400.182,9867.18,-1298.18,-1.62926,-13.4184,-49.3841,-4382.19,-15773.2,833.53,33.4677,12.9682,-394.439,1679.87,9234.17,-2347.76,6.33893,-21.2939,-83.5788,-5604.82,-6998.67,861.254,-21.2692,130.978,-60.2381,8214.27,479.503,402.581,-50.2623,2.07591,-5.5289
4.0145,3824.66,-1741.34,8999.52,14.1562,8.02281,-16.239,13332.5,7028.35,11496.9,-42.4938,367.216,-172.37,-419.08,9882.2,-1283.39,-1.71789,-13.3474,-49.4852,-4341.42,-15854.4,820.184,33.1764,12.9801,-395.007,1663.5,9264.57,-2303.2,6.3722,-21.0204,-83.4981,-5639.71,-7026.7,860.919,-20.3847,129.41,-59.4009,8231.2,454.784,393.946,-50.5389,1.81733,-5.53993
4.015,3823.25,-1707.59,8995.55,14.2057,7.89532,-16.4015,13377.8,7078.21,11540.9,-42.2975,366.78,-173.066,-437.978,9897.21,-1268.59,-1.80653,-13.2765,-49.5864,-4300.65,-15935.6,806.839,32.8852,12.992,-395.574,1647.13,9294.97,-2258.63,6.40547,-20.7468,-83.4173,-5674.6,-7054.73,860.585,-19.5002,127.842,-58.5636,8248.12,430.065,385.311,-50.8154,1.55875,-5.55096
4.0155,3821.83,-1673.84,8991.57,14.2553,7.76783,-16.5639,13423.1,7128.06,11584.9,-42.1012,366.343,-173.761,-456.876,9912.23,-1253.79,-1.89516,-13.2055,-49.6875,-4259.88,-16016.8,793.493,32.5939,13.0039,-396.142,1630.76,9325.37,-2214.06,6.43874,-20.4732,-83.3365,-5709.49,-7082.76,860.25,-18.6157,126.274,-57.7264,8265.05,405.346,376.675,-51.092,1.30018,-5.56199
4.016,3820.42,-1640.1,8987.59,14.3048,7.64035,-16.7264,13468.5,7177.92,11629.0,-41.9048,365.906,-174.457,-475.774,9927.25,-1239.0,-1.9838,-13.1345,-49.7886,-4219.11,-16097.9,780.148,32.3026,13.0158,-396.709,1614.39,9355.77,-2169.5,6.472,-20.1997,-83.2558,-5744.38,-7110.79,859.915,-17.7312,124.706,-56.8892,8281.97,380.627,368.04,-51.3685,1.0416,-5.57302
4.0165,3819.01,-1606.35,8983.61,14.3544,7.51286,-16.8889,13513.8,7227.77,11673.0,-41.7085,365.47,-175.152,-494.672,9942.26,-1224.2,-2.07243,-13.0635,-49.8897,-4178.33,-16179.1,766.802,32.0114,13.0277,-397.277,1598.02,9386.17,-2124.93,6.50527,-19.9261,-83.175,-5779.28,-7138.82,859.58,-16.8467,123.138,-56.052,8298.89,355.908,359.405,-51.645,0.783022,-5.58404
4.017,3817.59,-1572.6,8979.63,14.4039,7.38538,-17.0513,13559.1,7277.63,11717.1,-41.5122,365.033,-175.848,-513.569,9957.28,-1209.4,-2.16107,-12.9925,-49.9908,-4137.56,-16260.3,753.457,31.7201,13.0396,-397.844,1581.65,9416.57,-2080.36,6.53854,-19.6526,-83.0943,-5814.17,-7166.85,859.245,-15.9622,121.571,-55.2148,8315.82,331.19,350.769,-51.9216,0.524445,-5.59507
4.0175,3816.18,-1538.85,8975.65,14.4535,7.25789,-17.2138,13604.4,7327.48,11761.1,-41.3158,364.596,-176.543,-532.467,9972.29,-1194.61,-2.24971,-12.9216,-50.0919,-4096.79,-16341.5,740.112,31.4289,13.0515,-398.412,1565.28,9446.96,-2035.8,6.57181,-19.379,-83.0135,-5849.06,-7194.88,858.91,-15.0776,120.003,-54.3776,8332.74,306.471,342.134,-52.1981,0.265868,-5.6061
4.018,3820.16,-1507.22,8973.42,14.4536,7.11412,-17.3057,13647.1,7374.19,11802.1,-41.1887,364.148,-177.206,-540.956,9978.5,-1174.04,-2.30848,-12.822,-50.2041,-4053.51,-16426.7,721.919,31.3137,13.1948,-398.882,1533.09,9472.67,-1989.14,6.56269,-19.2802,-82.9059,-5891.27,-7216.0,851.191,-14.0153,118.5,-53.5775,8345.88,281.86,335.815,-52.4181,0.0831115,-5.63033
4.0185,3830.89,-1478.24,8973.36,14.3919,6.95001,-17.3092,13686.6,7416.97,11839.5,-41.1481,363.684,-177.827,-536.432,9973.68,-1146.25,-2.32993,-12.6866,-50.3303,-4007.1,-16517.0,697.667,31.4187,13.5023,-399.23,1481.13,9492.52,-1939.88,6.5006,-19.3997,-82.7647,-5942.64,-7228.51,834.24,-12.7306,117.077,-52.8238,8354.29,257.384,332.391,-52.5672,-0.00486904,-5.67106
4.019,3841.61,-1449.25,8973.31,14.3302,6.78589,-17.3128,13726.1,7459.75,11876.8,-41.1074,363.22,-178.449,-531.908,9968.86,-1118.47,-2.35139,-12.5512,-50.4564,-3960.68,-16607.3,673.415,31.5238,13.8097,-399.578,1429.16,9512.37,-1890.62,6.43851,-19.5192,-82.6234,-5994.01,-7241.02,817.29,-11.4459,115.655,-52.0702,8362.7,232.909,328.968,-52.7164,-0.0928496,-5.71179
4.0195,3852.34,-1420.27,8973.26,14.2685,6.62178,-17.3163,13765.6,7502.53,11914.1,-41.0668,362.757,-179.07,-527.384,9964.05,-1090.68,-2.37284,-12.4159,-50.5826,-3914.26,-16697.5,649.162,31.6288,14.1172,-399.926,1377.2,9532.21,-1841.36,6.37641,-19.6387,-82.4822,-6045.38,-7253.52,800.339,-10.1611,114.233,-51.3165,8371.11,208.433,325.544,-52.8656,-0.18083,-5.75252
4.02,3863.07,-1391.29,8973.2,14.2068,6.45766,-17.3199,13805.1,7545.3,11951.4,-41.0262,362.293,-179.692,-522.86,9959.23,-1062.9,-2.39429,-12.2805,-50.7087,-3867.85,-16787.8,624.91,31.7338,14.4247,-400.275,1325.24,9552.06,-1792.1,6.31432,-19.7582,-82.341,-6096.75,-7266.02,783.389,-8.87644,112.811,-50.5629,8379.52,183.957,322.121,-53.0147,-0.268811,-5.79325
4.0205,3873.79,-1362.3,8973.15,14.1451,6.29355,-17.3235,13844.6,7588.08,11988.7,-40.9855,361.83,-180.313,-518.336,9954.41,-1035.11,-2.41574,-12.1451,-50.8349,-3821.43,-16878.1,600.658,31.8388,14.7321,-400.623,1273.28,9571.91,-1742.83,6.25223,-19.8777,-82.1998,-6148.12,-7278.53,766.438,-7.59174,111.389,-49.8093,8387.93,159.481,318.697,-53.1639,-0.356791,-5.83398
4.021,3884.52,-1333.32,8973.09,14.0835,6.12944,-17.327,13884.1,7630.86,12026.0,-40.9449,361.366,-180.935,-513.812,9949.6,-1007.33,-2.4372,-12.0097,-50.961,-3775.02,-16968.4,576.406,31.9438,15.0396,-400.971,1221.32,9591.75,-1693.57,6.19013,-19.9972,-82.0585,-6199.48,-7291.04,749.487,-6.30703,109.967,-49.0556,8396.34,135.006,315.273,-53.3131,-0.444772,-5.87471
4.0215,3895.25,-1304.34,8973.04,14.0218,5.96532,-17.3306,13923.6,7673.64,12063.3,-40.9043,360.902,-181.556,-509.288,9944.78,-979.54,-2.45865,-11.8744,-51.0871,-3728.6,-17058.6,552.154,32.0488,15.3471,-401.319,1169.36,9611.6,-1644.31,6.12804,-20.1167,-81.9173,-6250.85,-7303.54,732.537,-5.02232,108.545,-48.302,8404.75,110.53,311.85,-53.4622,-0.532752,-5.91544
4.022,3905.97,-1275.35,8972.99,13.9601,5.80121,-17.3341,13963.1,7716.41,12100.6,-40.8636,360.439,-182.178,-504.765,9939.96,-951.754,-2.4801,-11.739,-51.2133,-3682.18,-17148.9,527.902,32.1538,15.6545,-401.667,1117.4,9631.45,-1595.05,6.06595,-20.2362,-81.7761,-6302.22,-7316.04,715.586,-3.73762,107.123,-47.5483,8413.16,86.0543,308.426,-53.6114,-0.620733,-5.95617
4.0225,3911.7,-1249.02,8984.81,13.7787,5.64031,-17.3162,14006.9,7767.31,12131.8,-41.0048,360.014,-182.803,-508.848,9938.45,-922.937,-2.49349,-11.6807,-51.3148,-3653.12,-17246.1,498.018,32.3513,16.1599,-401.922,1067.33,9646.53,-1548.91,6.09597,-20.548,-81.6353,-6338.05,-7328.92,715.533,-2.3938,105.752,-47.0229,8411.9,52.9247,310.749,-53.8042,-0.706097,-6.02017
4.023,3913.43,-1224.8,9006.14,13.5015,5.48199,-17.2811,14054.2,7824.7,12158.0,-41.2916,359.621,-183.432,-519.818,9939.58,-893.294,-2.50044,-11.6839,-51.3966,-3637.93,-17348.8,463.628,32.6229,16.8236,-402.103,1018.76,9657.8,-1505.28,6.19969,-21.0136,-81.4949,-6361.44,-7342.1,728.998,-1.00269,104.424,-46.6801,8402.91,12.8719,317.669,-54.0319,-0.789367,-6.1028
4.0235,3915.15,-1200.58,9027.47,13.2243,5.32366,-17.246,14101.4,7882.09,12184.2,-41.5783,359.228,-184.06,-530.788,9940.71,-863.651,-2.50738,-11.6872,-51.4784,-3622.75,-17451.6,429.238,32.8945,17.4873,-402.284,970.204,9669.08,-1461.65,6.3034,-21.4792,-81.3544,-6384.83,-7355.28,742.464,0.388425,103.095,-46.3373,8393.92,-27.1809,324.589,-54.2596,-0.872637,-6.18543
4.024,3916.88,-1176.36,9048.8,12.9471,5.16534,-17.2109,14148.7,7939.48,12210.5,-41.865,358.834,-184.689,-541.758,9941.85,-834.008,-2.51433,-11.6905,-51.5601,-3607.57,-17554.3,394.849,33.1661,18.151,-402.465,921.643,9680.35,-1418.01,6.40712,-21.9448,-81.214,-6408.22,-7368.46,755.929,1.77954,101.767,-45.9945,8384.94,-67.2337,331.508,-54.4873,-0.955907,-6.26806
4.0245,3918.6,-1152.14,9070.13,12.67,5.00702,-17.1758,14196.0,7996.87,12236.7,-42.1517,358.441,-185.317,-552.728,9942.98,-804.365,-2.52127,-11.6938,-51.6419,-3592.38,-17657.1,360.459,33.4377,18.8147,-402.646,873.082,9691.63,-1374.38,6.51083,-22.4105,-81.0736,-6431.62,-7381.64,769.394,3.17065,100.438,-45.6518,8375.95,-107.287,338.428,-54.715,-1.03918,-6.35069
4.025,3920.33,-1127.92,9091.46,12.3928,4.84869,-17.1407,14243.2,8054.26,12262.9,-42.4384,358.048,-185.946,-563.698,9944.11,-774.722,-2.52822,-11.6971,-51.7237,-3577.2,-17759.8,326.069,33.7093,19.4784,-402.827,824.522,9702.9,-1330.75,6.61455,-22.8761,-80.9332,-6455.01,-7394.82,782.859,4.56176,99.1099,-45.309,8366.96,-147.339,345.348,-54.9427,-1.12245,-6.43332
4.0255,3922.06,-1103.71,9112.79,12.1156,4.69037,-17.1056,14290.5,8111.65,12289.1,-42.7251,357.655,-186.574,-574.668,9945.25,-745.078,-2.53516,-11.7003,-51.8055,-3562.01,-17862.5,291.679,33.9809,20.1421,-403.009,775.961,9714.18,-1287.12,6.71827,-23.3417,-80.7928,-6478.4,-7408.0,796.324,5.95287,97.7814,-44.9662,8357.97,-187.392,352.268,-55.1705,-1.20572,-6.51595
4.026,3923.78,-1079.49,9134.12,11.8384,4.53205,-17.0705,14337.8,8169.04,12315.4,-43.0118,357.261,-187.203,-585.637,9946.38,-715.435,-2.5421,-11.7036,-51.8873,-3546.83,-17965.3,257.29,34.2524,20.8058,-403.19,727.4,9725.45,-1243.48,6.82198,-23.8073,-80.6523,-6501.8,-7421.18,809.789,7.34398,96.4529,-44.6234,8348.98,-227.445,359.188,-55.3982,-1.28899,-6.59858
4.0265,3925.51,-1055.27,9155.44,11.5613,4.37373,-17.0354,14385.0,8226.43,12341.6,-43.2985,356.868,-187.831,-596.607,9947.51,-685.792,-2.54905,-11.7069,-51.9691,-3531.65,-18068.0,222.9,34.524,21.4695,-403.371,678.839,9736.73,-1199.85,6.9257,-24.2729,-80.5119,-6525.19,-7434.36,823.254,8.73509,95.1244,-44.2806,8339.99,-267.498,366.108,-55.6259,-1.37226,-6.68121
4.027,3928.62,-1016.24,9170.99,11.2493,4.17053,-16.9701,14459.0,8278.56,12359.7,-43.6437,356.56,-188.58,-598.741,9961.14,-658.659,-2.53715,-11.6529,-52.0238,-3551.94,-18174.0,181.507,34.9755,22.1954,-403.369,608.278,9742.74,-1159.35,7.07619,-24.8934,-80.3728,-6558.16,-7412.96,806.625,10.0648,93.8511,-44.1657,8346.4,-296.888,365.219,-55.7615,-1.57508,-6.79108
4.0275,3932.43,-969.812,9183.65,10.9199,3.94488,-16.8897,14546.4,8328.06,12373.7,-44.0181,356.293,-189.389,-596.457,9981.03,-632.78,-2.51583,-11.5702,-52.065,-3589.98,-18281.6,136.614,35.5169,22.9524,-403.275,526.717,9746.11,-1120.42,7.25008,-25.5914,-80.2344,-6595.92,-7374.26,774.948,11.3638,92.6054,-44.1648,8360.52,-320.947,360.427,-55.851,-1.83768,-6.91457
4.028,3936.23,-923.381,9196.31,10.5904,3.71924,-16.8092,14633.8,8377.56,12387.7,-44.3924,356.027,-190.198,-594.172,10000.9,-606.901,-2.4945,-11.4874,-52.1061,-3628.02,-18389.3,91.72,36.0583,23.7094,-403.182,445.155,9749.49,-1081.48,7.42397,-26.2894,-80.096,-6633.67,-7335.56,743.271,12.6627,91.3597,-44.1639,8374.63,-345.005,355.635,-55.9405,-2.10027,-7.03806
4.0285,3940.03,-876.949,9208.98,10.261,3.4936,-16.7288,14721.1,8427.05,12401.7,-44.7668,355.761,-191.007,-591.888,10020.8,-581.023,-2.47318,-11.4047,-52.1473,-3666.06,-18496.9,46.8263,36.5997,24.4664,-403.088,363.594,9752.87,-1042.55,7.59785,-26.9874,-79.9576,-6671.43,-7296.86,711.594,13.9617,90.114,-44.163,8388.75,-369.064,350.843,-56.03,-2.36287,-7.16155
4.029,3943.84,-830.518,9221.64,9.93161,3.26796,-16.6483,14808.5,8476.55,12415.8,-45.1412,355.495,-191.815,-589.603,10040.7,-555.144,-2.45186,-11.322,-52.1885,-3704.1,-18604.5,1.93255,37.1411,25.2234,-402.995,282.032,9756.24,-1003.61,7.77174,-27.6854,-79.8191,-6709.19,-7258.17,679.918,15.2607,88.8683,-44.1621,8402.86,-393.123,346.051,-56.1195,-2.62547,-7.28504
4.0295,3947.64,-784.087,9234.3,9.6022,3.04232,-16.5679,14895.9,8526.05,12429.8,-45.5156,355.228,-192.624,-587.319,10060.6,-529.265,-2.43053,-11.2393,-52.2297,-3742.14,-18712.2,-42.9612,37.6825,25.9804,-402.901,200.471,9759.62,-964.68,7.94563,-28.3833,-79.6807,-6746.95,-7219.47,648.241,16.5597,87.6226,-44.1613,8416.98,-417.182,341.259,-56.209,-2.88806,-7.40853
4.03,3951.44,-737.656,9246.96,9.27279,2.81668,-16.4874,14983.2,8575.55,12443.8,-45.89,354.962,-193.433,-585.035,10080.5,-503.387,-2.40921,-11.1566,-52.2708,-3780.18,-18819.8,-87.8549,38.2239,26.7375,-402.808,118.909,9762.99,-925.747,8.11952,-29.0813,-79.5423,-6784.71,-7180.77,616.564,17.8586,86.3769,-44.1604,8431.09,-441.241,336.466,-56.2985,-3.15066,-7.53202
4.0305,3955.25,-691.224,9259.62,8.94337,2.59104,-16.407,15070.6,8625.04,12457.8,-46.2643,354.696,-194.242,-582.75,10100.4,-477.508,-2.38789,-11.0739,-52.312,-3818.22,-18927.4,-132.749,38.7653,27.4945,-402.715,37.3474,9766.37,-886.813,8.2934,-29.7793,-79.4039,-6822.46,-7142.08,584.887,19.1576,85.1312,-44.1595,8445.21,-465.299,331.674,-56.388,-3.41325,-7.65551
4.031,3959.05,-644.793,9272.28,8.61396,2.3654,-16.3266,15158.0,8674.54,12471.9,-46.6387,354.43,-195.05,-580.466,10120.2,-451.629,-2.36656,-10.9912,-52.3532,-3856.26,-19035.0,-177.642,39.3067,28.2515,-402.621,-44.2141,9769.75,-847.879,8.46729,-30.4773,-79.2654,-6860.22,-7103.38,553.21,20.4566,83.8855,-44.1586,8459.33,-489.358,326.882,-56.4775,-3.67585,-7.779
4.0315,3952.28,-609.062,9277.99,8.32408,2.10544,-16.1194,15283.8,8707.71,12475.0,-46.7867,354.211,-196.108,-574.872,10136.9,-436.529,-2.25549,-10.9354,-52.4161,-3951.03,-19143.3,-187.545,39.9555,28.8753,-402.368,-114.188,9766.73,-805.05,8.54511,-31.3914,-79.1897,-6891.39,-7062.06,535.787,21.4509,82.7698,-44.3767,8481.61,-516.134,329.031,-56.394,-3.90954,-7.74789
4.032,3942.5,-576.387,9281.73,8.04551,1.83567,-15.876,15420.5,8736.21,12475.0,-46.87,354.006,-197.236,-568.333,10152.7,-424.508,-2.11878,-10.8874,-52.4852,-4062.0,-19251.8,-187.45,40.6351,29.4612,-402.069,-180.852,9761.9,-761.109,8.59547,-32.3672,-79.1317,-6920.67,-7020.0,522.435,22.3583,81.6913,-44.6574,8506.23,-543.686,333.163,-56.2612,-4.13498,-7.67261
4.0325,3932.71,-543.713,9285.46,7.76693,1.56591,-15.6326,15557.3,8764.71,12475.1,-46.9533,353.801,-198.364,-561.793,10168.5,-412.487,-1.98207,-10.8393,-52.5544,-4172.98,-19360.3,-187.355,41.3146,30.047,-401.77,-247.516,9757.06,-717.168,8.64584,-33.343,-79.0738,-6949.95,-6977.94,509.084,23.2656,80.6128,-44.9381,8530.85,-571.237,337.295,-56.1283,-4.36041,-7.59732
4.033,3922.93,-511.039,9289.19,7.48835,1.29614,-15.3892,15694.1,8793.21,12475.1,-47.0366,353.596,-199.493,-555.253,10184.3,-400.467,-1.84536,-10.7913,-52.6235,-4283.95,-19468.8,-187.26,41.9942,30.6328,-401.471,-314.179,9752.22,-673.227,8.69621,-34.3188,-79.0159,-6979.23,-6935.87,495.733,24.1729,79.5342,-45.2188,8555.47,-598.789,341.427,-55.9954,-4.58585,-7.52204
4.0335,3913.14,-478.364,9292.92,7.20977,1.02638,-15.1458,15830.9,8821.72,12475.1,-47.1199,353.39,-200.621,-548.714,10200.1,-388.446,-1.70864,-10.7432,-52.6926,-4394.92,-19577.3,-187.165,42.6737,31.2186,-401.172,-380.843,9747.39,-629.285,8.74658,-35.2946,-78.958,-7008.51,-6893.81,482.382,25.0802,78.4557,-45.4995,8580.08,-626.341,345.559,-55.8625,-4.81128,-7.44676
4.034,3903.36,-445.69,9296.66,6.93119,0.756613,-14.9024,15967.6,8850.22,12475.1,-47.2032,353.185,-201.749,-542.174,10215.9,-376.425,-1.57193,-10.6952,-52.7617,-4505.9,-19685.7,-187.071,43.3533,31.8044,-400.873,-447.507,9742.55,-585.344,8.79695,-36.2704,-78.9001,-7037.79,-6851.74,469.03,25.9875,77.3772,-45.7802,8604.7,-653.893,349.691,-55.7296,-5.03672,-7.37148
4.0345,3893.57,-413.016,9300.39,6.65261,0.486847,-14.659,16104.4,8878.72,12475.2,-47.2865,352.98,-202.878,-535.635,10231.6,-364.404,-1.43522,-10.6472,-52.8309,-4616.87,-19794.2,-186.976,44.0328,32.3903,-400.573,-514.17,9737.71,-541.403,8.84732,-37.2462,-78.8422,-7067.07,-6809.68,455.679,26.8948,76.2987,-46.0609,8629.32,-681.445,353.822,-55.5967,-5.26215,-7.2962
4.035,3883.79,-380.342,9304.12,6.37403,0.217082,-14.4155,16241.2,8907.22,12475.2,-47.3699,352.775,-204.006,-529.095,10247.4,-352.384,-1.29851,-10.5991,-52.9,-4727.84,-19902.7,-186.881,44.7124,32.9761,-400.274,-580.834,9732.88,-497.462,8.89769,-38.222,-78.7843,-7096.35,-6767.61,442.328,27.8021,75.2202,-46.3416,8653.94,-708.996,357.954,-55.4638,-5.48759,-7.22091
4.0355,3874.0,-347.667,9307.85,6.09545,-0.0526833,-14.1721,16378.0,8935.72,12475.2,-47.4532,352.57,-205.134,-522.556,10263.2,-340.363,-1.16179,-10.5511,-52.9691,-4838.82,-20011.2,-186.786,45.3919,33.5619,-399.975,-647.497,9728.04,-453.52,8.94805,-39.1978,-78.7264,-7125.63,-6725.55,428.977,28.7095,74.1416,-46.6223,8678.56,-736.548,362.086,-55.3309,-5.71302,-7.14563
4.036,3865.18,-343.139,9320.19,5.66612,-0.363214,-13.9553,16539.5,8919.75,12459.9,-47.244,352.168,-206.416,-523.315,10271.5,-310.923,-1.1028,-10.52,-53.0188,-5016.17,-20114.3,-162.248,45.9044,33.9254,-399.502,-713.375,9711.29,-439.547,8.9191,-40.2475,-78.7044,-7145.2,-6651.69,417.652,29.2019,73.3229,-47.1323,8680.22,-752.252,382.528,-55.1453,-6.11535,-7.12527
4.0365,3856.47,-342.129,9333.61,5.21796,-0.67884,-13.7418,16704.1,8898.22,12442.6,-46.9983,351.742,-207.717,-524.987,10278.8,-279.306,-1.05353,-10.4911,-53.0662,-5201.82,-20216.8,-134.654,46.3959,34.2611,-399.006,-779.154,9693.05,-429.319,8.88022,-41.3064,-78.6869,-7163.55,-6573.85,406.581,29.6424,72.5367,-47.6708,8679.02,-766.475,405.009,-54.9531,-6.53978,-7.11177
4.037,3847.77,-341.118,9347.02,4.76979,-0.994467,-13.5283,16868.7,8876.7,12425.3,-46.7525,351.315,-209.017,-526.659,10286.1,-247.689,-1.00425,-10.4622,-53.1135,-5387.47,-20319.2,-107.06,46.8875,34.5968,-398.511,-844.934,9674.8,-419.091,8.84135,-42.3653,-78.6694,-7181.91,-6496.02,395.51,30.083,71.7505,-48.2094,8677.82,-780.698,427.49,-54.7609,-6.96422,-7.09828
4.0375,3839.06,-340.108,9360.44,4.32162,-1.31009,-13.3148,17033.3,8855.17,12408.0,-46.5068,350.889,-210.318,-528.33,10293.5,-216.072,-0.95498,-10.4333,-53.1608,-5573.13,-20421.7,-79.4668,47.379,34.9325,-398.016,-910.713,9656.56,-408.863,8.80247,-43.4243,-78.6519,-7200.27,-6418.18,384.439,30.5235,70.9642,-48.748,8676.61,-794.921,449.971,-54.5687,-7.38865,-7.08478
4.038,3830.36,-339.098,9373.85,3.87346,-1.62572,-13.1013,17197.9,8833.64,12390.7,-46.2611,350.462,-211.619,-530.002,10300.8,-184.455,-0.905705,-10.4044,-53.2081,-5758.78,-20524.1,-51.8731,47.8706,35.2681,-397.52,-976.493,9638.32,-398.635,8.7636,-44.4832,-78.6344,-7218.62,-6340.34,373.367,30.9641,70.178,-49.2865,8675.41,-809.143,472.452,-54.3765,-7.81309,-7.07129
4.0385,3821.65,-338.088,9387.27,3.42529,-1.94135,-12.8878,17362.5,8812.11,12373.5,-46.0154,350.036,-212.919,-531.674,10308.1,-152.838,-0.856431,-10.3755,-53.2555,-5944.43,-20626.6,-24.2794,48.3621,35.6038,-397.025,-1042.27,9620.08,-388.407,8.72472,-45.5421,-78.6169,-7236.98,-6262.51,362.296,31.4046,69.3917,-49.8251,8674.2,-823.366,494.932,-54.1843,-8.23753,-7.05779
4.039,3812.95,-337.077,9400.69,2.97712,-2.25697,-12.6743,17527.1,8790.58,12356.2,-45.7696,349.61,-214.22,-533.345,10315.4,-121.22,-0.807156,-10.3466,-53.3028,-6130.08,-20729.0,3.31432,48.8537,35.9395,-396.53,-1108.05,9601.84,-378.179,8.68585,-46.601,-78.5993,-7255.33,-6184.67,351.225,31.8452,68.6055,-50.3637,8673.0,-837.589,517.413,-53.9921,-8.66196,-7.04429
4.0395,3804.24,-336.067,9414.1,2.52895,-2.5726,-12.4608,17691.7,8769.05,12338.9,-45.5239,349.183,-215.521,-535.017,10322.8,-89.6033,-0.757882,-10.3177,-53.3501,-6315.73,-20831.5,30.908,49.3452,36.2752,-396.034,-1173.83,9583.6,-367.951,8.64697,-47.66,-78.5818,-7273.69,-6106.83,340.154,32.2857,67.8193,-50.9022,8671.8,-851.812,539.894,-53.7999,-9.0864,-7.0308
4.04,3795.54,-335.057,9427.52,2.08079,-2.88822,-12.2473,17856.3,8747.52,12321.6,-45.2782,348.757,-216.821,-536.689,10330.1,-57.9861,-0.708608,-10.2887,-53.3974,-6501.38,-20934.0,58.5017,49.8368,36.6109,-395.539,-1239.61,9565.36,-357.723,8.6081,-48.7189,-78.5643,-7292.04,-6029.0,329.083,32.7263,67.033,-51.4408,8670.59,-866.035,562.375,-53.6077,-9.51084,-7.0173
4.0405,3796.52,-328.315,9433.86,1.75833,-3.26147,-12.0235,18021.0,8691.27,12297.6,-44.9392,347.999,-218.071,-544.121,10344.4,-59.9392,-0.551181,-10.314,-53.3979,-6693.46,-21032.8,92.7001,49.9901,36.7758,-395.106,-1283.7,9568.12,-362.457,8.50643,-49.7881,-78.5556,-7290.15,-5947.96,309.252,32.4821,66.5391,-51.8398,8646.09,-863.625,571.108,-53.4858,-9.97762,-7.01571
4.041,3797.5,-321.574,9440.21,1.43587,-3.63471,-11.7997,18185.8,8635.02,12273.5,-44.6003,347.241,-219.321,-551.552,10358.7,-61.8923,-0.393755,-10.3393,-53.3983,-6885.53,-21131.7,126.898,50.1434,36.9408,-394.672,-1327.78,9570.89,-367.192,8.40476,-50.8573,-78.5469,-7288.25,-5866.92,289.42,32.2379,66.0452,-52.2388,8621.58,-861.214,579.842,-53.3638,-10.4444,-7.01412
4.0415,3798.49,-314.832,9446.55,1.11341,-4.00796,-11.5759,18350.5,8578.77,12249.4,-44.2613,346.483,-220.57,-558.984,10373.1,-63.8454,-0.236329,-10.3645,-53.3987,-7077.6,-21230.6,161.097,50.2967,37.1057,-394.239,-1371.86,9573.65,-371.926,8.30309,-51.9265,-78.5382,-7286.35,-5785.89,269.589,31.9936,65.5512,-52.6378,8597.08,-858.804,588.575,-53.2419,-10.9112,-7.01252
4.042,3799.47,-308.091,9452.89,0.790947,-4.3812,-11.3521,18515.2,8522.52,12225.4,-43.9223,345.725,-221.82,-566.416,10387.4,-65.7984,-0.0789034,-10.3898,-53.3991,-7269.67,-21329.5,195.295,50.45,37.2707,-393.805,-1415.95,9576.41,-376.66,8.20142,-52.9957,-78.5295,-7284.45,-5704.85,249.758,31.7494,65.0573,-53.0368,8572.57,-856.394,597.309,-53.1199,-11.378,-7.01093
4.0425,3800.45,-301.349,9459.24,0.468487,-4.75444,-11.1283,18680.0,8466.28,12201.3,-43.5834,344.967,-223.07,-573.848,10401.7,-67.7515,0.0785226,-10.415,-53.3995,-7461.75,-21428.4,229.493,50.6032,37.4356,-393.371,-1460.03,9579.17,-381.394,8.09975,-54.0649,-78.5208,-7282.56,-5623.81,229.926,31.5052,64.5634,-53.4357,8548.07,-853.984,606.042,-52.998,-11.8448,-7.00934
4.043,3801.44,-294.608,9465.58,0.146027,-5.12769,-10.9045,18844.7,8410.03,12177.2,-43.2444,344.209,-224.319,-581.279,10416.0,-69.7046,0.235949,-10.4403,-53.3999,-7653.82,-21527.3,263.692,50.7565,37.6006,-392.938,-1504.12,9581.94,-386.128,7.99808,-55.1342,-78.5121,-7280.66,-5542.77,210.095,31.261,64.0695,-53.8347,8523.57,-851.573,614.775,-52.876,-12.3115,-7.00774
4.0435,3802.42,-287.866,9471.93,-0.176433,-5.50093,-10.6807,19009.4,8353.78,12153.2,-42.9054,343.451,-225.569,-588.711,10430.3,-71.6577,0.393375,-10.4656,-53.4004,-7845.89,-21626.2,297.89,50.9098,37.7655,-392.505,-1548.2,9584.7,-390.862,7.89641,-56.2034,-78.5034,-7278.76,-5461.73,190.264,31.0168,63.5755,-54.2337,8499.06,-849.163,623.509,-52.7541,-12.7783,-7.00615
4.044,3803.4,-281.125,9478.27,-0.498893,-5.87418,-10.4569,19174.1,8297.53,12129.1,-42.5665,342.693,-226.819,-596.143,10444.6,-73.6107,0.550801,-10.4908,-53.4008,-8037.97,-21725.1,332.089,51.0631,37.9304,-392.071,-1592.29,9587.46,-395.596,7.79473,-57.2726,-78.4948,-7276.86,-5380.7,170.433,30.7726,63.0816,-54.6327,8474.56,-846.753,632.242,-52.6321,-13.2451,-7.00456
4.0445,3803.53,-277.605,9484.58,-0.822845,-6.25243,-10.2443,19335.9,8240.95,12103.7,-42.2393,341.919,-228.026,-602.251,10458.9,-74.7533,0.698188,-10.5297,-53.4103,-8226.9,-21821.4,363.226,51.2014,38.0826,-391.654,-1632.95,9591.37,-401.542,7.68031,-58.3208,-78.492,-7271.81,-5300.33,152.036,30.4478,62.6064,-54.9896,8450.28,-845.361,641.01,-52.4998,-13.717,-6.99769
4.045,3796.85,-299.854,9490.66,-1.15873,-6.67077,-10.1214,19473.8,8181.76,12067.6,-42.0066,341.012,-228.897,-597.77,10472.3,-69.4113,0.765262,-10.678,-53.493,-8390.69,-21897.4,369.881,51.2199,38.1321,-391.373,-1646.21,9604.4,-417.176,7.46383,-59.2011,-78.5371,-7241.53,-5225.32,145.111,29.4786,62.2815,-55.0098,8427.8,-852.113,650.054,-52.2842,-14.2302,-6.94857
4.0455,3790.17,-322.104,9496.74,-1.49461,-7.0891,-9.99841,19611.8,8122.56,12031.5,-41.7738,340.105,-229.768,-593.29,10485.8,-64.0693,0.832336,-10.8262,-53.5756,-8554.49,-21973.4,376.535,51.2383,38.1817,-391.092,-1659.47,9617.44,-432.811,7.24735,-60.0815,-78.5822,-7211.24,-5150.3,138.186,28.5093,61.9565,-55.03,8405.33,-858.865,659.098,-52.0686,-14.7434,-6.89946
4.046,3783.49,-344.354,9502.82,-1.8305,-7.50744,-9.87546,19749.7,8063.36,11995.4,-41.541,339.198,-230.639,-588.809,10499.2,-58.7274,0.89941,-10.9744,-53.6583,-8718.28,-22049.3,383.19,51.2567,38.2313,-390.81,-1672.74,9630.48,-448.445,7.03088,-60.9618,-78.6273,-7180.96,-5075.29,131.262,27.5401,61.6315,-55.0501,8382.85,-865.618,668.141,-51.853,-15.2565,-6.85035
4.0465,3776.81,-366.604,9508.89,-2.16638,-7.92578,-9.75251,19887.6,8004.16,11959.3,-41.3083,338.291,-231.51,-584.328,10512.7,-53.3854,0.966484,-11.1226,-53.7409,-8882.08,-22125.3,389.844,51.2751,38.2808,-390.529,-1686.0,9643.52,-464.08,6.8144,-61.8421,-78.6724,-7150.67,-5000.28,124.337,26.5708,61.3065,-55.0703,8360.37,-872.37,677.185,-51.6374,-15.7697,-6.80124
4.047,3770.13,-388.853,9514.97,-2.50227,-8.34411,-9.62956,20025.5,7944.97,11923.2,-41.0755,337.384,-232.382,-579.847,10526.2,-48.0435,1.03356,-11.2708,-53.8236,-9045.87,-22201.3,396.498,51.2936,38.3304,-390.248,-1699.26,9656.56,-479.715,6.59792,-62.7225,-78.7175,-7120.39,-4925.26,117.413,25.6015,60.9815,-55.0905,8337.89,-879.122,686.229,-51.4218,-16.2828,-6.75212
4.0475,3763.45,-411.103,9521.05,-2.83815,-8.76245,-9.50661,20163.5,7885.77,11887.1,-40.8427,336.478,-233.253,-575.366,10539.6,-42.7015,1.10063,-11.419,-53.9062,-9209.67,-22277.3,403.153,51.312,38.38,-389.966,-1712.52,9669.59,-495.349,6.38145,-63.6028,-78.7626,-7090.1,-4850.25,110.488,24.6323,60.6565,-55.1107,8315.42,-885.874,695.273,-51.2062,-16.796,-6.70301
4.048,3756.77,-433.353,9527.12,-3.17403,-9.18079,-9.38366,20301.4,7826.57,11851.0,-40.6099,335.571,-234.124,-570.886,10553.1,-37.3596,1.16771,-11.5672,-53.9889,-9373.46,-22353.3,409.807,51.3304,38.4295,-389.685,-1725.79,9682.63,-510.984,6.16497,-64.4831,-78.8076,-7059.82,-4775.24,103.563,23.663,60.3315,-55.1309,8292.94,-892.627,704.316,-50.9906,-17.3092,-6.6539
4.0485,3750.09,-455.603,9533.2,-3.50992,-9.59913,-9.26071,20439.3,7767.37,11814.8,-40.3772,334.664,-234.995,-566.405,10566.5,-32.0176,1.23478,-11.7154,-54.0715,-9537.26,-22429.3,416.462,51.3488,38.4791,-389.404,-1739.05,9695.67,-526.618,5.94849,-65.3634,-78.8527,-7029.54,-4700.23,96.6389,22.6938,60.0065,-55.151,8270.46,-899.379,713.36,-50.775,-17.8223,-6.60479
4.049,3741.87,-476.195,9540.03,-3.84069,-10.0092,-9.13412,20572.4,7707.1,11776.1,-40.1666,333.739,-235.757,-560.622,10582.2,-32.5003,1.29103,-11.857,-54.148,-9691.82,-22493.5,418.191,51.3438,38.4862,-389.156,-1747.21,9710.3,-541.811,5.71891,-66.1817,-78.8771,-6993.85,-4629.62,87.107,21.5758,59.7338,-55.0574,8256.19,-911.373,721.252,-50.5874,-18.3347,-6.52479
4.0495,3728.23,-490.986,9549.5,-4.15355,-10.3905,-8.99478,20688.5,7643.08,11728.0,-40.0335,332.754,-236.136,-550.283,10605.8,-53.3695,1.30937,-11.9752,-54.2028,-9814.07,-22516.7,402.684,51.2564,38.3447,-389.026,-1737.51,9730.47,-555.457,5.44346,-66.7829,-78.829,-6939.28,-4574.45,68.4497,19.9372,59.6438,-54.5657,8270.63,-941.712,725.112,-50.4976,-18.8446,-6.33671
4.05,3714.6,-505.777,9558.97,-4.46641,-10.7717,-8.85545,20804.7,7579.05,11679.9,-39.9005,331.768,-236.516,-539.943,10629.3,-74.2387,1.32772,-12.0935,-54.2577,-9936.33,-22539.9,387.177,51.169,38.2031,-388.896,-1727.8,9750.65,-569.102,5.16802,-67.384,-78.7809,-6884.7,-4519.29,49.7924,18.2987,59.5539,-54.0739,8285.07,-972.052,728.973,-50.4078,-19.3545,-6.14863
4.0505,3700.96,-520.569,9568.44,-4.77928,-11.1529,-8.71611,20920.8,7515.03,11631.9,-39.7674,330.782,-236.895,-529.604,10652.8,-95.1079,1.34607,-12.2117,-54.3126,-10058.6,-22563.1,371.669,51.0816,38.0616,-388.766,-1718.1,9770.83,-582.748,4.89257,-67.9851,-78.7328,-6830.13,-4464.12,31.1351,16.6601,59.4639,-53.5822,8299.52,-1002.39,732.833,-50.318,-19.8644,-5.96054
4.051,3687.32,-535.36,9577.9,-5.09214,-11.5342,-8.57678,21037.0,7451.0,11583.8,-39.6344,329.797,-237.275,-519.265,10676.4,-115.977,1.36442,-12.33,-54.3674,-10180.8,-22586.2,356.162,50.9943,37.9201,-388.636,-1708.4,9791.01,-596.394,4.61713,-68.5863,-78.6847,-6775.56,-4408.95,12.4778,15.0216,59.374,-53.0904,8313.96,-1032.73,736.694,-50.2282,-20.3743,-5.77246
4.0515,3673.69,-550.151,9587.37,-5.40501,-11.9154,-8.43745,21153.1,7386.98,11535.7,-39.5013,328.811,-237.654,-508.925,10699.9,-136.846,1.38277,-12.4482,-54.4223,-10303.1,-22609.4,340.655,50.9069,37.7786,-388.507,-1698.7,9811.19,-610.04,4.34168,-69.1874,-78.6365,-6720.98,-4353.78,-6.17949,13.383,59.284,-52.5987,8328.4,-1063.07,740.554,-50.1384,-20.8841,-5.58438
4.052,3660.05,-564.942,9596.84,-5.71787,-12.2967,-8.29811,21269.3,7322.96,11487.7,-39.3683,327.826,-238.034,-498.586,10723.4,-157.715,1.40112,-12.5665,-54.4771,-10425.3,-22632.6,325.147,50.8195,37.637,-388.377,-1688.99,9831.37,-623.686,4.06624,-69.7885,-78.5884,-6666.41,-4298.62,-24.8368,11.7444,59.1941,-52.1069,8342.84,-1093.41,744.415,-50.0486,-21.394,-5.3963
4.0525,3646.41,-579.734,9606.31,-6.03073,-12.6779,-8.15878,21385.4,7258.93,11439.6,-39.2352,326.84,-238.413,-488.247,10746.9,-178.585,1.41946,-12.6847,-54.532,-10547.6,-22655.8,309.64,50.7321,37.4955,-388.247,-1679.29,9851.55,-637.331,3.7908,-70.3897,-78.5403,-6611.83,-4243.45,-43.4941,10.1059,59.1041,-51.6152,8357.28,-1123.75,748.275,-49.9588,-21.9039,-5.20821
4.053,3632.78,-594.525,9615.77,-6.3436,-13.0591,-8.01944,21501.6,7194.91,11391.5,-39.1022,325.854,-238.792,-477.907,10770.5,-199.454,1.43781,-12.8029,-54.5868,-10669.8,-22679.0,294.133,50.6448,37.354,-388.117,-1669.59,9871.72,-650.977,3.51535,-70.9908,-78.4922,-6557.26,-4188.28,-62.1514,8.46732,59.0142,-51.1234,8371.73,-1154.09,752.136,-49.869,-22.4137,-5.02013
4.0535,3623.96,-609.064,9624.35,-6.70688,-13.4525,-7.9188,21614.1,7140.59,11348.2,-39.057,324.839,-239.023,-469.146,10785.5,-218.514,1.44241,-12.9106,-54.6744,-10779.5,-22687.9,278.366,50.5989,37.1889,-387.914,-1649.2,9895.8,-660.305,3.22473,-71.571,-78.5051,-6486.64,-4144.42,-77.0434,6.68461,58.9183,-50.4721,8373.93,-1174.96,750.803,-49.7838,-22.9423,-4.86207
4.054,3624.78,-623.1,9631.14,-7.17099,-13.87,-7.89551,21719.6,7105.7,11314.3,-39.1877,323.765,-238.956,-463.54,10783.7,-233.958,1.4195,-12.9972,-54.8272,-10863.9,-22668.2,262.083,50.6359,36.9766,-387.565,-1607.43,9927.66,-660.995,2.90377,-72.1092,-78.6399,-6383.93,-4123.15,-84.4049,4.61358,58.8107,-49.5018,8351.66,-1176.91,739.084,-49.7079,-23.5083,-4.76404
4.0545,3625.61,-637.136,9637.92,-7.6351,-14.2876,-7.87223,21825.1,7070.8,11280.4,-39.3183,322.691,-238.888,-457.935,10781.8,-249.401,1.3966,-13.0838,-54.9801,-10948.4,-22648.6,245.799,50.673,36.7643,-387.215,-1565.66,9959.51,-661.685,2.58282,-72.6475,-78.7747,-6281.23,-4101.88,-91.7664,2.54255,58.703,-48.5314,8329.39,-1178.86,727.365,-49.632,-24.0743,-4.66601
4.055,3626.43,-651.171,9644.71,-8.09922,-14.7051,-7.84895,21930.6,7035.9,11246.5,-39.4489,321.616,-238.821,-452.329,10779.9,-264.844,1.37369,-13.1704,-55.133,-11032.8,-22629.0,229.515,50.71,36.5519,-386.865,-1523.89,9991.37,-662.375,2.26186,-73.1857,-78.9095,-6178.52,-4080.62,-99.1278,0.471515,58.5954,-47.561,8307.11,-1180.81,715.646,-49.556,-24.6403,-4.56798
4.0555,3627.26,-665.207,9651.5,-8.56333,-15.1227,-7.82567,22036.1,7001.0,11212.6,-39.5795,320.542,-238.754,-446.724,10778.0,-280.288,1.35078,-13.257,-55.2858,-11117.2,-22609.3,213.231,50.7471,36.3396,-386.516,-1482.13,10023.2,-663.065,1.9409,-73.7239,-79.0443,-6075.81,-4059.35,-106.489,-1.59952,58.4878,-46.5906,8284.84,-1182.76,703.927,-49.4801,-25.2063,-4.46995
4.056,3628.08,-679.243,9658.29,-9.02745,-15.5402,-7.80239,22141.6,6966.11,11178.7,-39.7101,319.468,-238.686,-441.118,10776.1,-295.731,1.32788,-13.3436,-55.4387,-11201.6,-22589.7,196.947,50.7841,36.1273,-386.166,-1440.36,10055.1,-663.755,1.61994,-74.2622,-79.1791,-5973.11,-4038.09,-113.851,-3.67055,58.3801,-45.6203,8262.57,-1184.7,692.208,-49.4041,-25.7722,-4.37192
4.0565,3628.9,-693.278,9665.08,-9.49156,-15.9578,-7.7791,22247.0,6931.21,11144.8,-39.8407,318.394,-238.619,-435.513,10774.2,-311.174,1.30497,-13.4301,-55.5916,-11286.1,-22570.0,180.664,50.8211,35.915,-385.817,-1398.59,10086.9,-664.446,1.29898,-74.8004,-79.3139,-5870.4,-4016.82,-121.212,-5.74158,58.2725,-44.6499,8240.3,-1186.65,680.489,-49.3282,-26.3382,-4.27389
4.057,3629.73,-707.314,9671.86,-9.95567,-16.3753,-7.75582,22352.5,6896.31,11110.9,-39.9713,317.319,-238.552,-429.907,10772.4,-326.618,1.28206,-13.5167,-55.7444,-11370.5,-22550.4,164.38,50.8582,35.7027,-385.467,-1356.82,10118.8,-665.136,0.978019,-75.3386,-79.4487,-5767.69,-3995.56,-128.574,-7.81261,58.1648,-43.6795,8218.03,-1188.6,668.771,-49.2523,-26.9042,-4.17586
4.0575,3630.55,-721.35,9678.65,-10.4198,-16.7929,-7.73254,22458.0,6861.42,11077.0,-40.1019,316.245,-238.484,-424.301,10770.5,-342.061,1.25916,-13.6033,-55.8973,-11454.9,-22530.8,148.096,50.8952,35.4904,-385.118,-1315.06,10150.7,-665.826,0.65706,-75.8769,-79.5835,-5664.99,-3974.29,-135.935,-9.88364,58.0572,-42.7091,8195.75,-1190.55,657.052,-49.1763,-27.4702,-4.07783
4.058,3631.39,-726.647,9680.18,-10.7998,-17.1803,-7.69577,22565.8,6850.09,11035.9,-40.3624,315.235,-238.25,-434.824,10775.2,-355.421,1.28931,-13.7381,-56.0425,-11536.4,-22503.3,121.61,50.9532,35.3152,-384.582,-1256.35,10183.2,-667.063,0.300074,-76.3394,-79.7214,-5548.11,-3968.04,-143.788,-12.0291,57.9985,-41.652,8183.01,-1191.87,650.391,-49.1434,-28.0579,-3.93093
4.0585,3632.25,-721.023,9675.13,-11.0747,-17.53,-7.64212,22676.3,6868.22,10985.7,-40.7853,314.304,-237.807,-465.508,10788.3,-366.178,1.38578,-13.9333,-56.1781,-11614.1,-22466.2,82.3701,51.0373,35.1864,-383.812,-1176.46,10216.7,-668.982,-0.101947,-76.7074,-79.863,-5413.5,-3980.56,-152.254,-14.2675,58.001,-40.4866,8182.17,-1192.42,650.053,-49.1642,-28.6726,-3.72294
4.059,3633.11,-715.398,9670.08,-11.3496,-17.8797,-7.58848,22786.9,6886.35,10935.6,-41.2082,313.373,-237.365,-496.191,10801.4,-376.934,1.48225,-14.1285,-56.3137,-11691.8,-22429.1,43.1305,51.1213,35.0577,-383.042,-1096.58,10250.2,-670.902,-0.503967,-77.0755,-80.0046,-5278.9,-3993.07,-160.72,-16.506,58.0035,-39.3211,8181.33,-1192.97,649.715,-49.185,-29.2874,-3.51494
4.0595,3633.96,-709.773,9665.03,-11.6245,-18.2294,-7.53483,22897.5,6904.48,10885.5,-41.6311,312.443,-236.922,-526.875,10814.5,-387.691,1.57872,-14.3236,-56.4493,-11769.5,-22391.9,3.89091,51.2054,34.9289,-382.272,-1016.69,10283.7,-672.822,-0.905988,-77.4435,-80.1463,-5144.3,-4005.59,-169.186,-18.7444,58.006,-38.1557,8180.49,-1193.51,649.378,-49.2058,-29.9022,-3.30695
4.06,3634.82,-704.148,9659.98,-11.8994,-18.5791,-7.48119,23008.1,6922.61,10835.3,-42.054,311.512,-236.479,-557.558,10827.6,-398.447,1.67519,-14.5188,-56.5849,-11847.3,-22354.8,-35.3487,51.2895,34.8001,-381.502,-936.806,10317.2,-674.742,-1.30801,-77.8115,-80.2879,-5009.69,-4018.11,-177.652,-20.9829,58.0084,-36.9902,8179.65,-1194.06,649.04,-49.2267,-30.517,-3.09895
4.0605,3635.68,-698.523,9654.93,-12.1743,-18.9288,-7.42755,23118.7,6940.74,10785.2,-42.4769,310.581,-236.037,-588.242,10840.6,-409.204,1.77166,-14.7139,-56.7205,-11925.0,-22317.6,-74.5883,51.3735,34.6713,-380.732,-856.92,10350.7,-676.661,-1.71003,-78.1795,-80.4296,-4875.09,-4030.62,-186.118,-23.2213,58.0109,-35.8248,8178.81,-1194.6,648.702,-49.2475,-31.1317,-2.89096
4.061,3636.53,-692.898,9649.88,-12.4492,-19.2785,-7.3739,23229.2,6958.87,10735.1,-42.8998,309.651,-235.594,-618.925,10853.7,-419.96,1.86813,-14.9091,-56.8561,-12002.7,-22280.5,-113.828,51.4576,34.5426,-379.962,-777.035,10384.2,-678.581,-2.11205,-78.5475,-80.5712,-4740.49,-4043.14,-194.584,-25.4598,58.0134,-34.6593,8177.97,-1195.15,648.364,-49.2683,-31.7465,-2.68296
4.0615,3637.39,-687.273,9644.84,-12.7241,-19.6282,-7.32026,23339.8,6977.0,10684.9,-43.3227,308.72,-235.151,-649.609,10866.8,-430.716,1.9646,-15.1043,-56.9917,-12080.4,-22243.4,-153.067,51.5417,34.4138,-379.192,-697.149,10417.7,-680.501,-2.51407,-78.9155,-80.7128,-4605.88,-4055.66,-203.05,-27.6982,58.0159,-33.4939,8177.13,-1195.7,648.027,-49.2891,-32.3613,-2.47497
4.062,3638.25,-681.648,9639.79,-12.999,-19.9779,-7.26661,23450.4,6995.13,10634.8,-43.7456,307.789,-234.709,-680.292,10879.9,-441.473,2.06107,-15.2994,-57.1273,-12158.1,-22206.2,-192.307,51.6257,34.285,-378.422,-617.263,10451.2,-682.421,-2.91609,-79.2835,-80.8545,-4471.28,-4068.17,-211.516,-29.9367,58.0184,-32.3284,8176.29,-1196.24,647.689,-49.3099,-32.976,-2.26697
4.0625,3648.98,-687.594,9642.52,-13.315,-20.3663,-7.25222,23560.6,7032.49,10567.2,-44.2372,306.974,-234.128,-703.43,10889.2,-456.395,2.08877,-15.5264,-57.2854,-12218.2,-22171.2,-237.814,51.7098,34.1883,-377.523,-538.491,10482.4,-703.3,-3.27204,-79.6179,-81.0258,-4330.69,-4095.98,-229.099,-32.0288,58.3061,-31.1607,8169.47,-1206.32,650.603,-49.3283,-33.5614,-2.01576
4.063,3667.62,-702.797,9651.48,-13.6638,-20.7858,-7.26921,23670.5,7085.24,10485.5,-44.7838,306.252,-233.437,-720.532,10895.6,-474.65,2.06146,-15.7788,-57.4614,-12264.3,-22137.8,-288.334,51.7939,34.1172,-376.519,-460.608,10511.7,-739.346,-3.59112,-79.9254,-81.221,-4185.31,-4136.02,-253.976,-34.004,58.822,-29.9913,8157.88,-1224.03,656.119,-49.3446,-34.1233,-1.72998
4.0635,3686.26,-718.001,9660.44,-14.0126,-21.2052,-7.28621,23780.4,7137.99,10403.9,-45.3304,305.529,-232.746,-737.634,10901.9,-492.904,2.03414,-16.0311,-57.6374,-12310.3,-22104.5,-338.855,51.8779,34.0461,-375.516,-382.726,10541.0,-775.392,-3.91021,-80.2329,-81.4161,-4039.92,-4176.05,-278.852,-35.9792,59.3378,-28.8219,8146.28,-1241.74,661.635,-49.361,-34.6851,-1.4442
4.064,3704.9,-733.204,9669.41,-14.3614,-21.6246,-7.30321,23890.3,7190.74,10322.2,-45.877,304.806,-232.055,-754.735,10908.3,-511.159,2.00682,-16.2835,-57.8134,-12356.4,-22071.1,-389.375,51.962,33.975,-374.513,-304.844,10570.3,-811.439,-4.22929,-80.5404,-81.6112,-3894.54,-4216.09,-303.728,-37.9543,59.8537,-27.6524,8134.68,-1259.45,667.152,-49.3773,-35.247,-1.15842
4.0645,3723.54,-748.407,9678.37,-14.7101,-22.0441,-7.3202,24000.2,7243.49,10240.6,-46.4236,304.084,-231.364,-771.837,10914.7,-529.414,1.97951,-16.5359,-57.9894,-12402.5,-22037.7,-439.896,52.0461,33.9039,-373.509,-226.961,10599.6,-847.485,-4.54838,-80.8479,-81.8063,-3749.16,-4256.13,-328.605,-39.9295,60.3695,-26.483,8123.09,-1277.15,672.668,-49.3937,-35.8088,-0.872636
4.065,3742.17,-763.61,9687.33,-15.0589,-22.4635,-7.3372,24110.1,7296.24,10159.0,-46.9702,303.361,-230.673,-788.939,10921.1,-547.668,1.95219,-16.7883,-58.1654,-12448.5,-22004.4,-490.416,52.1301,33.8328,-372.506,-149.079,10628.9,-883.531,-4.86747,-81.1555,-82.0014,-3603.77,-4296.17,-353.481,-41.9047,60.8854,-25.3136,8111.49,-1294.86,678.184,-49.41,-36.3707,-0.586855
4.0655,3760.81,-778.813,9696.29,-15.4077,-22.883,-7.3542,24220.0,7348.99,10077.3,-47.5168,302.638,-229.982,-806.04,10927.4,-565.923,1.92487,-17.0407,-58.3414,-12494.6,-21971.0,-540.937,52.2142,33.7618,-371.503,-71.1968,10658.2,-919.578,-5.18655,-81.463,-82.1966,-3458.39,-4336.2,-378.357,-43.8798,61.4012,-24.1441,8099.89,-1312.57,683.7,-49.4264,-36.9325,-0.301073
4.066,3779.45,-794.016,9705.25,-15.7565,-23.3024,-7.3712,24330.0,7401.74,9995.68,-48.0634,301.916,-229.291,-823.142,10933.8,-584.178,1.89755,-17.2931,-58.5174,-12540.6,-21937.7,-591.457,52.2983,33.6907,-370.499,6.68558,10687.5,-955.624,-5.50564,-81.7705,-82.3917,-3313.01,-4376.24,-403.233,-45.855,61.9171,-22.9747,8088.29,-1330.28,689.216,-49.4427,-37.4944,-0.0152909
4.0665,3798.09,-809.22,9714.21,-16.1053,-23.7218,-7.38819,24439.9,7454.5,9914.04,-48.61,301.193,-228.601,-840.243,10940.2,-602.432,1.87024,-17.5454,-58.6933,-12586.7,-21904.3,-641.978,52.3823,33.6196,-369.496,84.5679,10716.8,-991.67,-5.82472,-82.078,-82.5868,-3167.63,-4416.28,-428.11,-47.8302,62.433,-21.8053,8076.7,-1347.99,694.732,-49.4591,-38.0562,0.270491
4.067,3794.88,-805.838,9736.3,-17.0455,-24.3087,-7.47008,24539.5,7510.75,9815.36,-49.1576,300.481,-227.82,-843.449,10950.3,-605.898,2.04576,-17.8986,-58.8596,-12649.8,-21896.8,-694.788,52.4664,33.5771,-368.362,168.239,10751.9,-1005.92,-6.10295,-82.3543,-82.7072,-3018.92,-4461.92,-428.619,-49.4899,63.4947,-20.7256,8059.02,-1356.87,683.857,-49.4413,-38.4771,0.563251
4.0675,3780.74,-793.164,9764.94,-18.2814,-24.9792,-7.58441,24634.0,7568.76,9708.16,-49.7057,299.774,-226.995,-839.706,10962.2,-601.97,2.3227,-18.3021,-59.0211,-12721.6,-21902.3,-748.744,52.5505,33.5489,-367.162,254.806,10790.1,-1009.26,-6.36073,-82.615,-82.7901,-2868.56,-4510.36,-416.946,-50.992,64.8295,-19.6909,8038.3,-1361.33,664.785,-49.4064,-38.8274,0.8595
4.068,3766.6,-780.49,9793.59,-19.5173,-25.6497,-7.69873,24728.5,7626.77,9600.95,-50.2539,299.067,-226.169,-835.964,10974.2,-598.042,2.59964,-18.7056,-59.1825,-12793.3,-21907.8,-802.699,52.6345,33.5207,-365.963,341.372,10828.2,-1012.61,-6.61852,-82.8756,-82.8731,-2718.19,-4558.81,-405.272,-52.4941,66.1642,-18.6562,8017.58,-1365.8,645.713,-49.3715,-39.1777,1.15575
4.0685,3752.46,-767.816,9822.24,-20.7532,-26.3202,-7.81306,24823.0,7684.78,9493.75,-50.802,298.359,-225.344,-832.221,10986.1,-594.114,2.87658,-19.1091,-59.344,-12865.1,-21913.3,-856.654,52.7186,33.4924,-364.763,427.938,10866.4,-1015.95,-6.87631,-83.1363,-82.9561,-2567.82,-4607.25,-393.599,-53.9962,67.4989,-17.6215,7996.86,-1370.27,626.641,-49.3367,-39.5281,1.452
4.069,3738.33,-755.142,9850.89,-21.9892,-26.9907,-7.92739,24917.5,7742.79,9386.54,-51.3501,297.652,-224.519,-828.478,10998.1,-590.185,3.15352,-19.5126,-59.5054,-12936.8,-21918.8,-910.61,52.8027,33.4642,-363.564,514.504,10904.5,-1019.3,-7.1341,-83.397,-83.039,-2417.46,-4655.7,-381.925,-55.4983,68.8336,-16.5868,7976.15,-1374.74,607.569,-49.3018,-39.8784,1.74825
4.0695,3724.19,-742.468,9879.53,-23.2251,-27.6612,-8.04172,25012.0,7800.79,9279.34,-51.8983,296.945,-223.694,-824.736,11010.0,-586.257,3.43046,-19.9161,-59.6669,-13008.6,-21924.3,-964.565,52.8867,33.436,-362.365,601.07,10942.6,-1022.65,-7.39189,-83.6576,-83.122,-2267.09,-4704.15,-370.252,-57.0004,70.1683,-15.5521,7955.43,-1379.21,588.497,-49.2669,-40.2287,2.04449
4.07,3710.05,-729.793,9908.18,-24.461,-28.3317,-8.15605,25106.5,7858.8,9172.13,-52.4464,296.238,-222.868,-820.993,11022.0,-582.329,3.7074,-20.3196,-59.8283,-13080.3,-21929.7,-1018.52,52.9708,33.4078,-361.165,687.636,10980.8,-1025.99,-7.64968,-83.9183,-83.205,-2116.73,-4752.59,-358.578,-58.5025,71.5031,-14.5174,7934.71,-1383.67,569.425,-49.232,-40.5791,2.34074
4.0705,3695.91,-717.119,9936.83,-25.6969,-29.0022,-8.27038,25201.0,7916.81,9064.93,-52.9945,295.531,-222.043,-817.25,11033.9,-578.401,3.98434,-20.7232,-59.9897,-13152.1,-21935.2,-1072.48,53.0549,33.3796,-359.966,774.202,11018.9,-1029.34,-7.90747,-84.179,-83.288,-1966.36,-4801.04,-346.905,-60.0045,72.8378,-13.4827,7913.99,-1388.14,550.353,-49.1972,-40.9294,2.63699
4.071,3681.77,-704.445,9965.48,-26.9328,-29.6727,-8.38471,25295.5,7974.82,8957.73,-53.5427,294.824,-221.218,-813.508,11045.9,-574.473,4.26128,-21.1267,-60.1512,-13223.8,-21940.7,-1126.43,53.139,33.3514,-358.766,860.768,11057.0,-1032.68,-8.16526,-84.4396,-83.3709,-1816.0,-4849.48,-335.231,-61.5066,74.1725,-12.448,7893.27,-1392.61,531.281,-49.1623,-41.2798,2.93324
4.0715,3677.19,-702.539,9930.03,-27.4084,-29.9646,-8.3324,25379.2,8019.02,8836.6,-54.083,294.048,-220.336,-815.132,11044.1,-669.355,5.11751,-21.9218,-60.1658,-13270.8,-21948.9,-1177.48,53.0981,33.3935,-357.337,939.225,11083.0,-1028.19,-8.5025,-84.7344,-83.4787,-1665.45,-4920.06,-307.354,-62.2716,75.9481,-11.5918,7895.36,-1397.07,521.455,-49.0808,-41.5992,3.21496
4.072,3675.34,-703.708,9876.28,-27.6668,-30.1483,-8.23249,25459.7,8059.27,8711.49,-54.6211,293.252,-219.438,-818.29,11038.4,-792.468,6.13924,-22.8288,-60.1384,-13310.7,-21957.9,-1227.71,53.0216,33.4558,-355.843,1015.36,11105.5,-1021.46,-8.86243,-85.039,-83.5937,-1514.85,-4996.96,-274.846,-62.8259,77.8497,-10.7867,7903.97,-1401.53,514.27,-48.986,-41.9097,3.49253
4.0725,3673.5,-704.878,9822.53,-27.9252,-30.332,-8.13258,25540.2,8099.53,8586.38,-55.1591,292.457,-218.541,-821.447,11032.7,-915.582,7.16098,-23.7359,-60.111,-13350.5,-21966.9,-1277.93,52.9451,33.5181,-354.348,1091.5,11128.0,-1014.72,-9.22237,-85.3435,-83.7086,-1364.25,-5073.86,-242.339,-63.3802,79.7513,-9.9815,7912.59,-1405.99,507.086,-48.8912,-42.2203,3.7701
4.073,3671.65,-706.048,9768.78,-28.1836,-30.5157,-8.03267,25620.7,8139.78,8461.28,-55.6972,291.661,-217.643,-824.605,11027.0,-1038.7,8.18271,-24.6429,-60.0836,-13390.4,-21975.9,-1328.16,52.8685,33.5803,-352.853,1167.64,11150.4,-1007.99,-9.58231,-85.6481,-83.8235,-1213.65,-5150.75,-209.832,-63.9346,81.6529,-9.17634,7921.2,-1410.44,499.902,-48.7964,-42.5308,4.04766
4.0735,3669.8,-707.218,9715.03,-28.442,-30.6994,-7.93275,25701.3,8180.04,8336.17,-56.2352,290.865,-216.745,-827.763,11021.3,-1161.81,9.20445,-25.5499,-60.0562,-13430.3,-21984.9,-1378.38,52.792,33.6426,-351.358,1243.78,11172.9,-1001.25,-9.94224,-85.9526,-83.9384,-1063.05,-5227.65,-177.325,-64.4889,83.5545,-8.37119,7929.81,-1414.9,492.717,-48.7016,-42.8414,4.32523
4.074,3667.95,-708.388,9661.28,-28.7004,-30.8832,-7.83284,25781.8,8220.29,8211.06,-56.7733,290.07,-215.847,-830.92,11015.6,-1284.92,10.2262,-26.4569,-60.0289,-13470.2,-21993.9,-1428.61,52.7155,33.7048,-349.864,1319.92,11195.4,-994.518,-10.3022,-86.2572,-84.0533,-912.446,-5304.55,-144.818,-65.0432,85.4561,-7.56603,7938.42,-1419.36,485.533,-48.6069,-43.1519,4.6028
4.0745,3666.1,-709.558,9607.52,-28.9587,-31.0669,-7.73293,25862.3,8260.55,8085.96,-57.3114,289.274,-214.95,-834.078,11009.9,-1408.04,11.2479,-27.364,-60.0015,-13510.0,-22002.9,-1478.83,52.639,33.7671,-348.369,1396.06,11217.9,-987.784,-10.6621,-86.5617,-84.1682,-761.846,-5381.45,-112.31,-65.5976,87.3577,-6.76088,7947.03,-1423.82,478.348,-48.5121,-43.4625,4.88036
4.075,3664.25,-710.728,9553.77,-29.2171,-31.2506,-7.63301,25942.8,8300.8,7960.85,-57.8494,288.479,-214.052,-837.235,11004.2,-1531.15,12.2697,-28.271,-59.9741,-13549.9,-22011.9,-1529.06,52.5624,33.8293,-346.874,1472.2,11240.3,-981.05,-11.0221,-86.8662,-84.2831,-611.246,-5458.35,-79.8031,-66.1519,89.2593,-5.95572,7955.64,-1428.28,471.164,-48.4173,-43.773,5.15793
4.0755,3662.4,-711.897,9500.02,-29.4755,-31.4343,-7.5331,26023.3,8341.06,7835.74,-58.3875,287.683,-213.154,-840.393,10998.5,-1654.26,13.2914,-29.178,-59.9467,-13589.8,-22020.9,-1579.28,52.4859,33.8916,-345.38,1548.34,11262.8,-974.315,-11.382,-87.1708,-84.3981,-460.646,-5535.25,-47.2959,-66.7062,91.1609,-5.15057,7964.25,-1432.73,463.98,-48.3225,-44.0836,5.4355
4.076,3723.97,-978.06,9455.06,-28.4208,-31.2839,-8.06272,26104.7,8370.94,7677.57,-58.9846,286.741,-212.048,-906.099,10926.0,-1773.84,13.0612,-30.3273,-60.0286,-13666.4,-22036.8,-1639.46,52.2433,34.0644,-343.789,1609.79,11259.8,-973.238,-11.7019,-87.4628,-84.5974,-306.979,-5641.47,24.1965,-66.746,92.8827,-4.60893,7978.47,-1430.51,437.373,-48.2479,-44.2888,5.70541
4.0765,3793.47,-1277.35,9411.19,-27.202,-31.0917,-8.67104,26186.2,8399.52,7515.25,-59.5892,285.78,-210.915,-979.623,10845.1,-1892.97,12.6744,-31.507,-60.1241,-13747.7,-22053.7,-1700.89,51.9799,34.2511,-342.187,1669.39,11253.6,-972.867,-12.0167,-87.7532,-84.8072,-152.928,-5751.35,100.562,-66.7215,94.5821,-4.10022,7993.38,-1427.44,408.338,-48.1759,-44.4809,5.97437
4.077,3862.97,-1576.63,9367.32,-25.9832,-30.8995,-9.27935,26267.6,8428.1,7352.94,-60.1937,284.82,-209.783,-1053.15,10764.2,-2012.1,12.2877,-32.6866,-60.2196,-13828.9,-22070.5,-1762.31,51.7165,34.4377,-340.585,1729.0,11247.3,-972.497,-12.3316,-88.0436,-85.017,1.12242,-5861.24,176.927,-66.697,96.2814,-3.59152,8008.3,-1424.38,379.304,-48.1039,-44.673,6.24333
4.0775,3932.47,-1875.92,9323.45,-24.7644,-30.7074,-9.88767,26349.1,8456.69,7190.63,-60.7982,283.859,-208.65,-1126.67,10683.3,-2131.23,11.901,-33.8662,-60.3151,-13910.2,-22087.4,-1823.73,51.4531,34.6244,-338.983,1788.61,11241.1,-972.127,-12.6464,-88.334,-85.2269,155.173,-5971.13,253.293,-66.6725,97.9808,-3.08282,8023.22,-1421.31,350.269,-48.0319,-44.865,6.51229
4.078,4001.97,-2175.2,9279.58,-23.5456,-30.5152,-10.496,26430.6,8485.27,7028.32,-61.4027,282.899,-207.518,-1200.2,10602.4,-2250.36,11.5143,-35.0458,-60.4106,-13991.4,-22104.2,-1885.16,51.1897,34.8111,-337.381,1848.22,11234.9,-971.757,-12.9613,-88.6244,-85.4367,309.223,-6081.01,329.658,-66.648,99.6801,-2.57412,8038.14,-1418.25,321.234,-47.9598,-45.0571,6.78125
4.0785,4071.47,-2474.49,9235.71,-22.3268,-30.323,-11.1043,26512.1,8513.85,6866.01,-62.0072,281.938,-206.385,-1273.72,10521.5,-2369.49,11.1275,-36.2254,-60.5061,-14072.6,-22121.1,-1946.58,50.9263,34.9977,-335.779,1907.82,11228.7,-971.386,-13.2761,-88.9148,-85.6466,463.274,-6190.9,406.024,-66.6235,101.379,-2.06541,8053.05,-1415.18,292.2,-47.8878,-45.2492,7.0502
4.079,4140.97,-2773.78,9191.84,-21.108,-30.1309,-11.7126,26593.5,8542.44,6703.7,-62.6117,280.978,-205.253,-1347.25,10440.6,-2488.62,10.7408,-37.405,-60.6016,-14153.9,-22137.9,-2008.0,50.6629,35.1844,-334.177,1967.43,11222.4,-971.016,-13.591,-89.2052,-85.8564,617.324,-6300.78,482.389,-66.599,103.079,-1.55671,8067.97,-1412.12,263.165,-47.8158,-45.4413,7.31916
4.0795,4210.47,-3073.06,9147.98,-19.8891,-29.9387,-12.3209,26675.0,8571.02,6541.39,-63.2162,280.017,-204.12,-1420.77,10359.7,-2607.75,10.3541,-38.5846,-60.6971,-14235.1,-22154.8,-2069.42,50.3995,35.371,-332.574,2027.04,11216.2,-970.646,-13.9058,-89.4956,-86.0662,771.375,-6410.67,558.755,-66.5745,104.778,-1.04801,8082.89,-1409.05,234.13,-47.7438,-45.6333,7.58812
4.08,4279.97,-3372.35,9104.11,-18.6703,-29.7465,-12.9292,26756.5,8599.6,6379.07,-63.8207,279.057,-202.988,-1494.3,10278.9,-2726.89,9.96737,-39.7642,-60.7926,-14316.4,-22171.6,-2130.85,50.1361,35.5577,-330.972,2086.65,11210.0,-970.275,-14.2207,-89.786,-86.2761,925.425,-6520.55,635.12,-66.55,106.477,-0.539304,8097.81,-1405.99,205.096,-47.6717,-45.8254,7.85708
4.0805,4267.24,-3473.56,9202.09,-19.0478,-30.4459,-14.2243,26817.4,8622.73,6188.64,-64.4115,277.641,-201.526,-1465.86,10347.9,-2601.29,8.95265,-39.5306,-61.3662,-14386.8,-22190.7,-2253.22,49.5748,36.0786,-329.205,2122.73,11180.3,-1010.39,-14.4053,-89.9341,-86.4593,1107.08,-6605.0,735.912,-66.5773,106.966,-0.062461,8102.27,-1403.99,150.048,-47.6507,-45.6224,8.05871
4.081,4254.51,-3574.77,9300.07,-19.4252,-31.1452,-15.5194,26878.2,8645.85,5998.21,-65.0022,276.225,-200.064,-1437.43,10417.0,-2475.69,7.93792,-39.2969,-61.9398,-14457.2,-22209.8,-2375.6,49.0134,36.5995,-327.438,2158.81,11150.6,-1050.51,-14.5898,-90.0823,-86.6425,1288.73,-6689.45,836.703,-66.6046,107.455,0.414382,8106.73,-1401.99,95.0002,-47.6296,-45.4194,8.26033
4.0815,4241.79,-3675.97,9398.04,-19.8027,-31.8446,-16.8145,26939.1,8668.98,5807.78,-65.593,274.809,-198.602,-1409.0,10486.0,-2350.09,6.9232,-39.0633,-62.5134,-14527.6,-22229.0,-2497.97,48.4521,37.1203,-325.671,2194.9,11120.9,-1090.63,-14.7744,-90.2304,-86.8257,1470.39,-6773.9,937.494,-66.6319,107.944,0.891225,8111.19,-1399.99,39.9525,-47.6086,-45.2164,8.46196
4.082,4229.06,-3777.18,9496.02,-20.1802,-32.544,-18.1097,27000.0,8692.11,5617.35,-66.1837,273.393,-197.14,-1380.57,10555.1,-2224.5,5.90847,-38.8296,-63.087,-14598.1,-22248.1,-2620.34,47.8908,37.6412,-323.904,2230.98,11091.2,-1130.75,-14.959,-90.3785,-87.0088,1652.04,-6858.35,1038.29,-66.6593,108.433,1.36807,8115.65,-1397.99,-15.0953,-47.5875,-45.0133,8.66359
4.0825,4216.33,-3878.39,9594.0,-20.5576,-33.2433,-19.4048,27060.9,8715.23,5426.92,-66.7745,271.977,-195.678,-1352.13,10624.1,-2098.9,4.89375,-38.596,-63.6606,-14668.5,-22267.2,-2742.72,47.3294,38.1621,-322.137,2267.07,11061.5,-1170.86,-15.1436,-90.5266,-87.192,1833.69,-6942.81,1139.08,-66.6866,108.922,1.84491,8120.11,-1395.99,-70.143,-47.5664,-44.8103,8.86522
4.083,4203.6,-3979.6,9691.98,-20.9351,-33.9427,-20.6999,27121.7,8738.36,5236.49,-67.3652,270.561,-194.216,-1323.7,10693.2,-1973.3,3.87902,-38.3623,-64.2342,-14738.9,-22286.3,-2865.09,46.7681,38.683,-320.37,2303.15,11031.8,-1210.98,-15.3281,-90.6748,-87.3752,2015.35,-7027.26,1239.87,-66.7139,109.41,2.32175,8124.57,-1393.99,-125.191,-47.5454,-44.6073,9.06685
4.0835,4190.87,-4080.81,9789.96,-21.3125,-34.6421,-21.995,27182.6,8761.49,5046.06,-67.956,269.144,-192.754,-1295.27,10762.2,-1847.7,2.86429,-38.1286,-64.8078,-14809.3,-22305.4,-2987.47,46.2067,39.2039,-318.603,2339.23,11002.1,-1251.1,-15.5127,-90.8229,-87.5584,2197.0,-7111.71,1340.66,-66.7412,109.899,2.7986,8129.03,-1391.98,-180.238,-47.5243,-44.4043,9.26848
4.084,4178.15,-4182.02,9887.94,-21.69,-35.3414,-23.2901,27243.5,8784.61,4855.63,-68.5467,267.728,-191.292,-1266.84,10831.3,-1722.11,1.84957,-37.895,-65.3814,-14879.8,-22324.6,-3109.84,45.6454,39.7248,-316.836,2375.32,10972.5,-1291.22,-15.6973,-90.971,-87.7416,2378.65,-7196.16,1441.45,-66.7685,110.388,3.27544,8133.49,-1389.98,-235.286,-47.5033,-44.2013,9.4701
4.0845,4162.58,-4226.29,9971.05,-22.0504,-36.0164,-24.4406,27297.6,8804.64,4664.48,-69.1201,266.273,-189.809,-1227.6,10905.7,-1599.64,0.87274,-37.5782,-65.9316,-14950.3,-22340.8,-3231.59,45.0696,40.2543,-315.089,2410.84,10939.1,-1334.85,-15.848,-91.1227,-87.9192,2562.38,-7278.58,1538.44,-66.8092,110.724,3.77859,8137.75,-1387.92,-288.833,-47.4969,-43.9684,9.66459
4.085,4124.32,-3815.11,9935.23,-22.2744,-36.4961,-24.4346,27297.6,8799.92,4467.57,-69.5543,264.501,-188.16,-1101.92,11023.0,-1502.19,0.199086,-36.5968,-66.2946,-15021.4,-22334.0,-3348.34,44.3786,40.853,-313.5,2441.9,10876.3,-1406.58,-15.7274,-91.3032,-88.0523,2762.72,-7344.76,1604.97,-66.9576,109.841,4.49224,8140.41,-1385.39,-330.377,-47.6079,-43.4969,9.80198
4.0855,4086.06,-3403.92,9899.41,-22.4984,-36.9759,-24.4286,27297.6,8795.2,4270.67,-69.9885,262.73,-186.512,-976.237,11140.2,-1404.75,-0.474568,-35.6154,-66.6576,-15092.6,-22327.3,-3465.08,43.6876,41.4516,-311.911,2472.95,10813.5,-1478.31,-15.6069,-91.4837,-88.1854,2963.06,-7410.95,1671.51,-67.106,108.958,5.20588,8143.08,-1382.86,-371.92,-47.7189,-43.0254,9.93937
4.086,4047.8,-2992.74,9863.58,-22.7224,-37.4556,-24.4226,27297.6,8790.47,4073.77,-70.4227,260.958,-184.864,-850.556,11257.5,-1307.31,-1.14822,-34.634,-67.0207,-15163.8,-22320.5,-3581.82,42.9965,42.0503,-310.322,2504.01,10750.7,-1550.04,-15.4864,-91.6641,-88.3184,3163.39,-7477.13,1738.05,-67.2544,108.074,5.91952,8145.74,-1380.32,-413.463,-47.83,-42.5539,10.0768
4.0865,4009.53,-2581.55,9827.76,-22.9463,-37.9353,-24.4166,27297.6,8785.75,3876.86,-70.857,259.187,-183.216,-724.875,11374.8,-1209.87,-1.82188,-33.6526,-67.3837,-15234.9,-22313.8,-3698.57,42.3055,42.649,-308.733,2535.06,10687.9,-1621.77,-15.3658,-91.8446,-88.4515,3363.73,-7543.32,1804.59,-67.4028,107.191,6.63316,8148.41,-1377.79,-455.006,-47.941,-42.0824,10.2141
4.087,3971.27,-2170.37,9791.94,-23.1703,-38.415,-24.4106,27297.7,8781.02,3679.96,-71.2912,257.415,-181.567,-599.194,11492.1,-1112.43,-2.49553,-32.6712,-67.7467,-15306.1,-22307.0,-3815.31,41.6144,43.2477,-307.144,2566.11,10625.1,-1693.5,-15.2453,-92.025,-88.5846,3564.07,-7609.5,1871.13,-67.5512,106.308,7.3468,8151.07,-1375.26,-496.55,-48.052,-41.6109,10.3515
4.0875,3933.01,-1759.18,9756.11,-23.3943,-38.8948,-24.4046,27297.7,8776.3,3483.06,-71.7254,255.644,-179.919,-473.513,11609.3,-1014.98,-3.16918,-31.6898,-68.1097,-15377.3,-22300.3,-3932.05,40.9234,43.8464,-305.555,2597.17,10562.3,-1765.23,-15.1247,-92.2055,-88.7177,3764.4,-7675.69,1937.67,-67.6996,105.425,8.06044,8153.73,-1372.72,-538.093,-48.1631,-41.1394,10.4889
4.088,3894.75,-1348.0,9720.29,-23.6183,-39.3745,-24.3985,27297.7,8771.58,3286.15,-72.1596,253.872,-178.271,-347.833,11726.6,-917.542,-3.84284,-30.7084,-68.4728,-15448.4,-22293.5,-4048.8,40.2323,44.445,-303.966,2628.22,10499.5,-1836.96,-15.0042,-92.386,-88.8507,3964.74,-7741.87,2004.21,-67.848,104.541,8.77408,8156.4,-1370.19,-579.636,-48.2741,-40.6679,10.6263
4.0885,3856.49,-936.811,9684.47,-23.8423,-39.8542,-24.3925,27297.7,8766.85,3089.25,-72.5938,252.101,-176.623,-222.152,11843.9,-820.1,-4.51649,-29.727,-68.8358,-15519.6,-22286.8,-4165.54,39.5413,45.0437,-302.377,2659.28,10436.7,-1908.69,-14.8837,-92.5664,-88.9838,4165.07,-7808.06,2070.74,-67.9964,103.658,9.48773,8159.06,-1367.65,-621.179,-48.3851,-40.1964,10.7637
4.089,3829.43,-578.576,9658.64,-23.9839,-40.304,-24.216,27291.1,8755.29,2895.44,-72.9916,250.245,-174.968,-105.145,11933.4,-726.776,-5.08172,-28.9144,-69.1894,-15603.0,-22263.7,-4282.0,38.8872,45.6432,-300.772,2685.58,10372.4,-1977.67,-14.7192,-92.7101,-89.1265,4369.52,-7879.63,2131.72,-68.1363,102.525,10.2481,8163.9,-1367.5,-662.684,-48.4932,-39.6762,10.8742
4.0895,3841.58,-405.663,9667.82,-23.8374,-40.6492,-23.4424,27261.4,8719.8,2712.45,-73.2619,248.096,-173.292,-18.499,11925.7,-647.867,-5.26746,-28.6929,-69.5097,-15729.1,-22183.3,-4397.45,38.3625,46.2457,-299.112,2695.28,10302.5,-2037.06,-14.4008,-92.7252,-89.303,4588.34,-7970.08,2173.22,-68.2462,100.519,11.1719,8176.36,-1375.67,-704.052,-48.5913,-38.9858,10.8909
4.09,3853.74,-232.75,9677.0,-23.6908,-40.9944,-22.6688,27231.7,8684.31,2529.46,-73.5322,245.946,-171.617,68.1472,11918.1,-568.957,-5.4532,-28.4715,-69.83,-15855.3,-22102.9,-4512.9,37.8377,46.8482,-297.451,2704.97,10232.6,-2096.45,-14.0825,-92.7403,-89.4795,4807.15,-8060.53,2214.71,-68.3561,98.5133,12.0957,8188.81,-1383.83,-745.419,-48.6893,-38.2953,10.9076
4.0905,3865.89,-59.8378,9686.17,-23.5442,-41.3396,-21.8952,27201.9,8648.82,2346.48,-73.8025,243.797,-169.941,154.793,11910.4,-490.048,-5.63894,-28.25,-70.1503,-15981.4,-22022.5,-4628.34,37.3129,47.4507,-295.791,2714.67,10162.7,-2155.85,-13.7642,-92.7553,-89.656,5025.97,-8150.98,2256.21,-68.466,96.5072,13.0194,8201.27,-1392.0,-786.787,-48.7873,-37.6049,10.9243
4.091,3878.04,113.075,9695.35,-23.3977,-41.6848,-21.1216,27172.2,8613.33,2163.49,-74.0728,241.647,-168.265,241.44,11902.7,-411.139,-5.82468,-28.0285,-70.4706,-16107.6,-21942.2,-4743.79,36.7882,48.0532,-294.13,2724.36,10092.8,-2215.24,-13.4459,-92.7704,-89.8324,5244.79,-8241.42,2297.71,-68.576,94.5011,13.9432,8213.72,-1400.17,-828.155,-48.8853,-36.9145,10.941
4.0915,3890.2,285.987,9704.53,-23.2511,-42.03,-20.348,27142.5,8577.83,1980.5,-74.3431,239.498,-166.59,328.086,11895.1,-332.229,-6.01042,-27.807,-70.7909,-16233.7,-21861.8,-4859.24,36.2634,48.6557,-292.47,2734.06,10022.9,-2274.63,-13.1275,-92.7855,-90.0089,5463.61,-8331.87,2339.21,-68.6859,92.4951,14.867,8226.18,-1408.34,-869.523,-48.9833,-36.224,10.9577
4.092,3902.35,458.9,9713.7,-23.1045,-42.3752,-19.5745,27112.8,8542.34,1797.51,-74.6135,237.348,-164.914,414.732,11887.4,-253.32,-6.19615,-27.5855,-71.1113,-16359.9,-21781.4,-4974.69,35.7387,49.2582,-290.81,2743.75,9953.06,-2334.02,-12.8092,-92.8006,-90.1854,5682.43,-8422.32,2380.71,-68.7958,90.489,15.7908,8238.64,-1416.51,-910.89,-49.0813,-35.5336,10.9744
4.0925,3914.5,631.813,9722.88,-22.958,-42.7204,-18.8009,27083.1,8506.85,1614.52,-74.8838,235.199,-163.238,501.378,11879.7,-174.411,-6.38189,-27.364,-71.4316,-16486.0,-21701.0,-5090.14,35.2139,49.8606,-289.149,2753.45,9883.18,-2393.41,-12.4909,-92.8156,-90.3619,5901.25,-8512.76,2422.21,-68.9057,88.483,16.7146,8251.09,-1424.68,-952.258,-49.1794,-34.8431,10.9911
4.093,3926.66,804.725,9732.06,-22.8114,-43.0656,-18.0273,27053.3,8471.36,1431.54,-75.1541,233.049,-161.562,588.024,11872.1,-95.5013,-6.56763,-27.1426,-71.7519,-16612.1,-21620.7,-5205.59,34.6892,50.4631,-287.489,2763.14,9813.29,-2452.8,-12.1726,-92.8307,-90.5383,6120.06,-8603.21,2463.7,-69.0156,86.4769,17.6384,8263.55,-1432.84,-993.626,-49.2774,-34.1527,11.0078
4.0935,3929.82,878.682,9738.29,-22.6768,-43.4175,-17.356,27023.1,8416.83,1243.11,-75.3265,230.758,-159.922,654.237,11846.8,-28.0273,-6.6694,-27.0557,-72.1039,-16756.2,-21511.4,-5306.94,34.129,51.0191,-285.81,2770.81,9749.9,-2515.61,-11.9051,-92.6805,-90.7008,6350.17,-8702.58,2486.2,-68.9349,84.3057,18.5958,8281.44,-1441.04,-1032.09,-49.3469,-33.4314,11.032
4.094,3915.01,754.728,9738.63,-22.5663,-43.783,-16.8894,26991.9,8324.23,1043.82,-75.3032,228.185,-158.351,679.58,11786.5,16.5761,-6.60322,-27.2379,-72.5193,-16936.1,-21344.2,-5380.1,33.4978,51.4818,-284.097,2774.41,9699.48,-2585.26,-11.7396,-92.1998,-90.8353,6602.83,-8819.8,2470.68,-68.4727,81.8041,19.6205,8310.2,-1449.3,-1064.76,-49.3596,-32.6484,11.0713
4.0945,3900.19,630.774,9738.96,-22.4558,-44.1484,-16.4227,26960.6,8231.63,844.524,-75.2799,225.611,-156.78,704.924,11726.1,61.1795,-6.53704,-27.4202,-72.9346,-17116.0,-21177.0,-5453.26,32.8666,51.9446,-282.383,2778.01,9649.06,-2654.91,-11.574,-91.7191,-90.9698,6855.5,-8937.02,2455.16,-68.0105,79.3025,20.6451,8338.97,-1457.56,-1097.43,-49.3723,-31.8654,11.1106
4.095,3885.38,506.82,9739.3,-22.3453,-44.5138,-15.9561,26929.4,8139.04,645.23,-75.2565,223.037,-155.21,730.268,11665.8,105.783,-6.47086,-27.6025,-73.35,-17295.9,-21009.8,-5526.43,32.2355,52.4074,-280.669,2781.62,9598.64,-2724.56,-11.4084,-91.2384,-91.1042,7108.16,-9054.24,2439.65,-67.5484,76.801,21.6698,8367.73,-1465.82,-1130.09,-49.385,-31.0825,11.1498
4.0955,3870.56,382.866,9739.64,-22.2347,-44.8792,-15.4895,26898.2,8046.44,445.936,-75.2332,220.463,-153.639,755.611,11605.4,150.386,-6.40468,-27.7848,-73.7654,-17475.7,-20842.6,-5599.59,31.6043,52.8702,-278.955,2785.22,9548.22,-2794.21,-11.2428,-90.7577,-91.2387,7360.83,-9171.46,2424.13,-67.0862,74.2994,22.6944,8396.49,-1474.08,-1162.76,-49.3977,-30.2995,11.1891
4.096,3855.75,258.912,9739.98,-22.1242,-45.2447,-15.0228,26866.9,7953.84,246.643,-75.2099,217.889,-152.069,780.955,11545.0,194.99,-6.3385,-27.967,-74.1807,-17655.6,-20675.4,-5672.75,30.9732,53.333,-277.241,2788.83,9497.8,-2863.86,-11.0772,-90.277,-91.3732,7613.49,-9288.68,2408.62,-66.624,71.7978,23.7191,8425.25,-1482.34,-1195.43,-49.4104,-29.5165,11.2284
4.0965,3840.93,134.958,9740.32,-22.0137,-45.6101,-14.5562,26835.7,7861.24,47.3486,-75.1866,215.316,-150.498,806.299,11484.7,239.593,-6.27232,-28.1493,-74.5961,-17835.5,-20508.2,-5745.92,30.342,53.7958,-275.527,2792.43,9447.38,-2933.51,-10.9116,-89.7962,-91.5077,7866.16,-9405.9,2393.1,-66.1619,69.2963,24.7437,8454.02,-1490.6,-1228.1,-49.4231,-28.7336,11.2676
4.097,3826.12,11.0035,9740.66,-21.9032,-45.9755,-14.0895,26804.5,7768.64,-151.945,-75.1633,212.742,-148.927,831.642,11424.3,284.196,-6.20615,-28.3316,-75.0115,-18015.4,-20341.0,-5819.08,29.7108,54.2586,-273.813,2796.03,9396.96,-3003.16,-10.746,-89.3155,-91.6422,8118.82,-9523.12,2377.59,-65.6997,66.7947,25.7684,8482.78,-1498.85,-1260.76,-49.4358,-27.9506,11.3069
4.0975,3811.3,-112.951,9740.99,-21.7926,-46.341,-13.6229,26773.2,7676.04,-351.239,-75.14,210.168,-147.357,856.986,11364.0,328.8,-6.13997,-28.5139,-75.4268,-18195.3,-20173.8,-5892.24,29.0797,54.7213,-272.099,2799.64,9346.54,-3072.81,-10.5805,-88.8348,-91.7766,8371.49,-9640.34,2362.07,-65.2375,64.2931,26.793,8511.54,-1507.11,-1293.43,-49.4485,-27.1676,11.3462
4.098,3788.42,-237.618,9751.35,-21.7419,-46.794,-13.3944,26774.5,7572.53,-569.7,-74.9138,207.642,-145.847,854.47,11305.6,353.549,-6.05717,-28.5943,-75.8337,-18387.5,-19968.1,-5960.38,28.3974,55.0782,-270.224,2808.83,9310.48,-3109.37,-10.6521,-88.1953,-91.8623,8629.23,-9774.7,2346.81,-64.5809,61.8075,27.8073,8534.13,-1512.48,-1318.5,-49.4223,-26.3845,11.3176
4.0985,3755.46,-363.176,9774.22,-21.7659,-47.3565,-13.4637,26816.4,7455.39,-812.119,-74.434,205.175,-144.413,817.129,11249.8,353.482,-5.9536,-28.5473,-76.2299,-18595.1,-19714.5,-6022.24,27.6512,55.3026,-268.148,2825.01,9292.37,-3104.56,-11.0203,-87.3573,-91.8869,8893.32,-9930.48,2331.86,-63.6812,59.3419,28.8086,8549.0,-1514.22,-1334.08,-49.3475,-25.6011,11.2041
4.099,3722.49,-488.735,9797.1,-21.7899,-47.919,-13.533,26858.4,7338.24,-1054.54,-73.9542,202.708,-142.979,779.788,11193.9,353.414,-5.85003,-28.5003,-76.6261,-18802.6,-19460.9,-6084.09,26.905,55.527,-266.071,2841.18,9274.27,-3099.76,-11.3885,-86.5194,-91.9116,9157.41,-10086.3,2316.92,-62.7815,56.8763,29.8099,8563.87,-1515.97,-1349.65,-49.2727,-24.8178,11.0906
4.0995,3689.53,-614.293,9819.97,-21.8139,-48.4816,-13.6023,26900.3,7221.09,-1296.96,-73.4744,200.241,-141.545,742.447,11138.1,353.346,-5.74646,-28.4533,-77.0223,-19010.2,-19207.3,-6145.95,26.1587,55.7513,-263.995,2857.36,9256.16,-3094.96,-11.7567,-85.6814,-91.9362,9421.5,-10242.1,2301.98,-61.8817,54.4106,30.8111,8578.74,-1517.71,-1365.23,-49.198,-24.0344,10.9771
4.1,3656.56,-739.852,9842.85,-21.8379,-49.0441,-13.6716,26942.2,7103.94,-1539.38,-72.9947,197.774,-140.111,705.106,11082.3,353.279,-5.64289,-28.4063,-77.4186,-19217.8,-18953.7,-6207.8,25.4125,55.9757,-261.918,2873.53,9238.05,-3090.15,-12.1249,-84.8434,-91.9609,9685.6,-10397.8,2287.03,-60.982,51.945,31.8124,8593.61,-1519.46,-1380.8,-49.1232,-23.2511,10.8636
4.1005,3623.6,-865.41,9865.72,-21.8619,-49.6066,-13.7409,26984.1,6986.79,-1781.79,-72.5149,195.307,-138.678,667.765,11026.4,353.211,-5.53932,-28.3593,-77.8148,-19425.3,-18700.0,-6269.66,24.6663,56.2001,-259.842,2889.71,9219.94,-3085.35,-12.493,-84.0054,-91.9855,9949.69,-10553.6,2272.09,-60.0823,49.4794,32.8137,8608.48,-1521.21,-1396.38,-49.0484,-22.4677,10.7501
4.101,3590.63,-990.969,9888.59,-21.8859,-50.1691,-13.8101,27026.0,6869.65,-2024.21,-72.0351,192.84,-137.244,630.424,10970.6,353.143,-5.43574,-28.3123,-78.211,-19632.9,-18446.4,-6331.51,23.9201,56.4245,-257.765,2905.89,9201.83,-3080.55,-12.8612,-83.1675,-92.0102,10213.8,-10709.4,2257.15,-59.1826,47.0137,33.815,8623.35,-1522.95,-1411.95,-48.9736,-21.6843,10.6366
4.1015,3557.67,-1116.53,9911.47,-21.9099,-50.7317,-13.8794,27068.0,6752.5,-2266.63,-71.5553,190.373,-135.81,593.083,10914.8,353.076,-5.33217,-28.2653,-78.6072,-19840.5,-18192.8,-6393.37,23.1739,56.6489,-255.689,2922.06,9183.72,-3075.75,-13.2294,-82.3295,-92.0348,10477.9,-10865.2,2242.2,-58.2828,44.5481,34.8163,8638.22,-1524.7,-1427.53,-48.8988,-20.901,10.5231
4.102,3524.7,-1242.09,9934.34,-21.9339,-51.2942,-13.9487,27109.9,6635.35,-2509.05,-71.0756,187.906,-134.376,555.742,10858.9,353.008,-5.2286,-28.2183,-79.0034,-20048.1,-17939.2,-6455.22,22.4277,56.8733,-253.613,2938.24,9165.62,-3070.94,-13.5976,-81.4915,-92.0595,10742.0,-11021.0,2227.26,-57.3831,42.0825,35.8175,8653.08,-1526.44,-1443.1,-48.824,-20.1176,10.4096
4.1025,3508.41,-1258.88,9949.15,-22.039,-51.864,-13.9187,27193.4,6536.47,-2762.5,-70.4203,185.81,-132.946,527.01,10851.9,375.306,-5.15589,-27.8378,-79.4189,-20267.5,-17675.4,-6497.32,21.6198,56.9838,-251.258,2972.76,9148.51,-3052.6,-14.0084,-80.5313,-92.1006,11020.3,-11186.5,2211.49,-56.2003,39.8552,36.6912,8685.97,-1514.15,-1450.29,-48.6987,-19.3141,10.2876
4.103,3505.45,-1188.66,9957.49,-22.209,-52.4395,-13.8091,27310.1,6452.2,-3024.77,-69.6248,184.013,-131.519,505.166,10884.0,415.495,-5.10786,-27.1905,-79.8497,-20496.5,-17403.4,-6523.62,20.7626,57.0033,-248.682,3021.97,9132.22,-3023.42,-14.4534,-79.4732,-92.1551,11310.0,-11359.7,2195.07,-54.791,37.8186,37.4629,8733.28,-1490.64,-1450.78,-48.5328,-18.4943,10.1588
4.1035,3502.48,-1118.44,9965.83,-22.379,-53.0151,-13.6996,27426.9,6367.93,-3287.05,-68.8292,182.215,-130.093,483.321,10916.1,455.685,-5.05983,-26.5432,-80.2806,-20725.5,-17131.4,-6549.91,19.9053,57.0228,-246.106,3071.18,9115.92,-2994.24,-14.8983,-78.4151,-92.2095,11599.7,-11532.9,2178.64,-53.3818,35.782,38.2346,8780.58,-1467.12,-1451.26,-48.367,-17.6746,10.0299
4.104,3499.52,-1048.23,9974.17,-22.549,-53.5906,-13.5901,27543.6,6283.66,-3549.32,-68.0336,180.417,-128.666,461.477,10948.2,495.874,-5.01181,-25.8959,-80.7114,-20954.5,-16859.4,-6576.21,19.0481,57.0422,-243.529,3120.39,9099.63,-2965.06,-15.3433,-77.3571,-92.2639,11889.4,-11706.1,2162.21,-51.9725,33.7455,39.0062,8827.89,-1443.6,-1451.74,-48.2012,-16.8549,9.90111
4.1045,3496.56,-978.007,9982.52,-22.719,-54.1661,-13.4806,27660.4,6199.38,-3811.59,-67.2381,178.619,-127.239,439.633,10980.3,536.064,-4.96378,-25.2486,-81.1423,-21183.5,-16587.4,-6602.5,18.1908,57.0617,-240.953,3169.59,9083.33,-2935.88,-15.7882,-76.299,-92.3183,12179.1,-11879.4,2145.79,-50.5632,31.7089,39.7779,8875.19,-1420.09,-1452.22,-48.0353,-16.0352,9.77228
