Time,RFoot_accel.x,RFoot_accel.y,RFoot_accel.z,RFoot_gyro.x,RFoot_gyro.y,RFoot_gyro.z,LFoot_accel.x,LFoot_accel.y,LFoot_accel.z,LFoot_gyro.x,LFoot_gyro.y,LFoot_gyro.z,RShank_accel.x,RShank_accel.y,RShank_accel.z,RShank_gyro.x,RShank_gyro.y,RShank_gyro.z,LShank_accel.x,LShank_accel.y,LShank_accel.z,LShank_gyro.x,LShank_gyro.y,LShank_gyro.z,RThigh_accel.x,RThigh_accel.y,RThigh_accel.z,RThigh_gyro.x,RThigh_gyro.y,RThigh_gyro.z,LThigh_accel.x,LThigh_accel.y,LThigh_accel.z,LThigh_gyro.x,LThigh_gyro.y,LThigh_gyro.z,Pelvis_accel.x,Pelvis_accel.y,Pelvis_accel.z,Pelvis_gyro.x,Pelvis_gyro.y,Pelvis_gyro.z
2.74,4972.47,-2677.3,8450.58,-64.5991,-129.348,-46.287,5124.99,3594.28,7832.82,19.487,454.929,-118.928,2168.35,10705.7,-346.49,18.6674,-123.087,-9.88459,41.2338,-6746.0,-2746.0,-45.4968,6.64057,-396.029,2860.88,10259.3,1097.14,138.684,-191.872,-99.7394,-8417.75,-5938.42,1595.85,-58.137,235.289,-183.193,3497.23,1314.97,1880.04,-58.0132,28.291,-75.5389
2.741,4970.78,-2593.63,8387.37,-64.1246,-129.514,-46.1109,5129.8,3698.44,7841.65,21.5471,454.92,-118.287,2199.21,10595.9,-373.224,18.015,-121.262,-10.12,83.8882,-6814.42,-2741.44,-46.9735,4.39646,-398.608,2958.64,10127.7,930.74,141.581,-199.061,-98.3949,-8466.93,-5704.6,1657.66,-56.6319,235.416,-183.073,3439.32,1270.43,1875.95,-58.7722,28.0664,-74.8893
2.742,4969.09,-2509.97,8324.16,-63.65,-129.68,-45.9347,5134.6,3802.6,7850.47,23.6072,454.911,-117.646,2230.07,10486.2,-399.957,17.3627,-119.437,-10.3555,126.543,-6882.83,-2736.88,-48.4502,2.15235,-401.187,3056.41,9996.05,764.344,144.479,-206.249,-97.0503,-8516.1,-5470.79,1719.46,-55.1267,235.543,-182.953,3381.41,1225.89,1871.86,-59.5312,27.8418,-74.2396
2.743,4964.12,-2453.66,8256.38,-62.6884,-129.751,-45.6087,5212.39,3884.66,7863.49,25.3403,454.888,-117.098,2276.05,10350.3,-385.935,16.8187,-117.424,-10.6023,126.442,-6969.95,-2707.32,-49.9263,0.00864974,-403.462,3094.69,9786.45,578.508,146.539,-213.09,-96.307,-8577.16,-5268.96,1787.17,-53.4887,235.395,-182.253,3398.33,1147.8,1791.17,-59.8414,27.514,-73.689
2.744,4958.21,-2405.16,8187.28,-61.5877,-129.794,-45.2398,5311.03,3960.41,7877.71,26.98,454.862,-116.575,2326.33,10207.0,-360.267,16.3057,-115.359,-10.8525,114.126,-7062.41,-2670.63,-51.4022,-2.10636,-405.65,3115.98,9554.58,387.118,148.36,-219.833,-95.7355,-8641.62,-5076.28,1856.57,-51.8127,235.168,-181.387,3436.64,1060.13,1688.6,-60.0234,27.1567,-73.1668
2.745,4952.31,-2356.66,8118.19,-60.487,-129.837,-44.8709,5409.67,4036.16,7891.93,28.6197,454.835,-116.053,2376.62,10063.6,-334.6,15.7927,-113.293,-11.1027,101.81,-7154.87,-2633.93,-52.8781,-4.22137,-407.839,3137.26,9322.7,195.728,150.18,-226.575,-95.164,-8706.08,-4883.6,1925.96,-50.1367,234.941,-180.521,3474.95,972.459,1586.02,-60.2054,26.7994,-72.6447
2.746,4946.4,-2308.16,8049.1,-59.3863,-129.88,-44.502,5508.31,4111.9,7906.14,30.2593,454.808,-115.53,2426.91,9920.28,-308.933,15.2797,-111.228,-11.3528,89.4941,-7247.34,-2597.23,-54.354,-6.33637,-410.027,3158.55,9090.83,4.33734,152.001,-233.318,-94.5925,-8770.54,-4690.92,1995.36,-48.4607,234.714,-179.655,3513.26,884.788,1483.45,-60.3874,26.4421,-72.1225
2.747,4942.77,-2287.28,7979.06,-58.3923,-129.804,-44.1052,5610.25,4195.78,7926.73,31.5574,454.717,-115.084,2450.61,9780.26,-285.018,14.8058,-109.211,-11.6236,84.5387,-7345.03,-2549.7,-55.7927,-8.39009,-412.09,3157.63,8888.24,-199.655,153.532,-239.25,-94.6005,-8840.59,-4479.64,2055.0,-46.7056,234.294,-178.718,3525.14,802.524,1385.29,-60.4431,26.179,-71.5215
2.748,4943.7,-2321.65,7907.14,-57.6117,-129.489,-43.6525,5718.81,4295.9,7960.07,32.1723,454.496,-114.791,2421.14,9646.87,-264.609,14.4103,-107.292,-11.9356,94.3048,-7453.2,-2480.5,-57.1572,-10.3212,-413.902,3112.3,8744.23,-428.852,154.484,-243.561,-95.7677,-8921.84,-4231.17,2095.11,-44.7924,233.489,-177.639,3484.15,731.075,1295.96,-60.2461,26.1043,-70.7629
2.749,4944.63,-2356.02,7835.22,-56.8311,-129.174,-43.1998,5827.36,4396.03,7993.41,32.7872,454.275,-114.497,2391.67,9513.49,-244.199,14.0148,-105.373,-12.2476,104.071,-7561.37,-2411.3,-58.5216,-12.2524,-415.715,3066.97,8600.21,-658.049,155.435,-247.873,-96.9349,-9003.08,-3982.71,2135.22,-42.8792,232.684,-176.559,3443.16,659.626,1206.64,-60.0491,26.0297,-70.0043
2.75,4945.55,-2390.39,7763.3,-56.0505,-128.859,-42.7471,5935.91,4496.16,8026.75,33.4022,454.054,-114.204,2362.2,9380.11,-223.79,13.6192,-103.454,-12.5596,113.837,-7669.53,-2342.11,-59.8861,-14.1835,-417.527,3021.64,8456.2,-887.246,156.387,-252.185,-98.1022,-9084.32,-3734.24,2175.34,-40.966,231.879,-175.48,3402.17,588.176,1117.31,-59.8521,25.955,-69.2457
2.751,4946.48,-2424.76,7691.38,-55.2699,-128.545,-42.2944,6044.46,4596.28,8060.09,34.0171,453.833,-113.91,2332.73,9246.72,-203.381,13.2237,-101.535,-12.8716,123.603,-7777.7,-2272.91,-61.2505,-16.1147,-419.34,2976.31,8312.18,-1116.44,157.338,-256.497,-99.2694,-9165.56,-3485.77,2215.45,-39.0528,231.074,-174.4,3361.18,516.727,1027.99,-59.6551,25.8804,-68.4871
2.752,4938.86,-2472.17,7628.43,-54.3722,-128.338,-41.8389,6242.96,4729.99,8122.84,34.0801,453.565,-114.036,2245.88,9162.4,-201.604,12.7844,-99.6529,-13.2961,146.758,-7895.68,-2172.49,-62.3481,-17.5795,-420.863,2988.02,8128.03,-1394.36,157.148,-259.168,-100.181,-9238.26,-3283.78,2273.63,-36.8894,228.393,-172.657,3331.61,594.549,1035.47,-61.7427,25.6329,-68.0325
2.753,4930.17,-2521.2,7566.6,-53.4598,-128.145,-41.3831,6452.7,4867.89,8189.26,34.0741,453.29,-114.214,2151.85,9084.21,-202.156,12.3397,-97.776,-13.7347,171.587,-8014.89,-2068.16,-63.4122,-18.986,-422.35,3006.85,7938.85,-1678.38,156.816,-261.634,-101.06,-9309.9,-3087.6,2334.07,-34.6948,225.477,-170.83,3303.45,691.031,1055.06,-64.1157,25.3639,-67.616
2.754,4921.49,-2570.24,7504.77,-52.5475,-127.952,-40.9272,6662.44,5005.79,8255.68,34.0681,453.016,-114.392,2057.82,9006.02,-202.708,11.8949,-95.899,-14.1733,196.415,-8134.1,-1963.84,-64.4764,-20.3925,-423.837,3025.69,7749.68,-1962.39,156.484,-264.101,-101.94,-9381.54,-2891.42,2394.51,-32.5001,222.56,-169.004,3275.3,787.512,1074.64,-66.4888,25.0948,-67.1994
2.755,4912.8,-2619.27,7442.94,-51.6351,-127.758,-40.4714,6872.18,5143.69,8322.11,34.0621,452.741,-114.57,1963.79,8927.83,-203.261,11.4502,-94.0221,-14.6118,221.244,-8253.3,-1859.52,-65.5406,-21.799,-425.324,3044.53,7560.51,-2246.4,156.152,-266.567,-102.819,-9453.17,-2695.24,2454.96,-30.3055,219.644,-167.177,3247.15,883.993,1094.23,-68.8619,24.8257,-66.7829
2.756,4931.06,-2652.34,7380.79,-50.677,-127.565,-40.0169,7098.12,5323.83,8393.57,33.7836,452.553,-115.001,1869.92,8860.37,-195.758,10.9766,-92.1207,-15.0266,227.455,-8381.61,-1749.6,-66.4897,-22.6468,-426.751,3050.62,7405.73,-2561.83,155.883,-267.313,-103.584,-9529.37,-2531.96,2457.76,-28.112,215.69,-165.441,3211.04,909.283,1112.49,-71.0806,24.4122,-66.2235
2.757,4983.0,-2665.45,7318.23,-49.6616,-127.371,-39.5642,7344.32,5556.78,8471.32,33.1644,452.473,-115.747,1776.25,8806.32,-178.188,10.467,-90.1889,-15.4117,210.396,-8521.3,-1632.67,-67.2951,-22.7964,-428.106,3040.77,7293.94,-2916.55,155.693,-265.91,-104.207,-9611.28,-2409.78,2388.51,-25.92,210.438,-163.816,3164.99,845.585,1129.1,-73.1062,23.8181,-65.4856
2.758,5034.94,-2678.57,7255.68,-48.6462,-127.178,-39.1116,7590.51,5789.73,8549.08,32.5452,452.393,-116.493,1682.57,8752.27,-160.618,9.95744,-88.257,-15.7967,193.337,-8660.99,-1515.75,-68.1005,-22.9459,-429.46,3030.93,7182.15,-3271.27,155.504,-264.506,-104.83,-9693.19,-2287.61,2319.26,-23.7281,205.185,-162.191,3118.93,781.887,1145.72,-75.1317,23.224,-64.7477
2.759,5086.88,-2691.68,7193.13,-47.6308,-126.984,-38.6589,7836.71,6022.68,8626.83,31.926,452.313,-117.239,1588.9,8698.23,-143.048,9.44785,-86.3252,-16.1817,176.278,-8800.67,-1398.82,-68.9059,-23.0954,-430.814,3021.09,7070.36,-3625.99,155.315,-263.102,-105.453,-9775.1,-2165.43,2250.01,-21.5361,199.933,-160.566,3072.88,718.189,1162.33,-77.1573,22.6299,-64.0097
2.76,5138.82,-2704.79,7130.57,-46.6155,-126.791,-38.2062,8082.91,6255.62,8704.59,31.3068,452.233,-117.985,1495.23,8644.18,-125.478,8.93825,-84.3934,-16.5668,159.219,-8940.36,-1281.9,-69.7113,-23.245,-432.168,3011.25,6958.57,-3980.71,155.125,-261.698,-106.076,-9857.01,-2043.26,2180.76,-19.3441,194.681,-158.942,3026.82,654.49,1178.94,-79.1829,22.0358,-63.2718
2.761,5199.42,-2646.18,7042.84,-45.3136,-126.31,-37.5879,8350.51,6285.71,8802.61,30.934,451.912,-119.649,1420.04,8618.07,-119.513,8.47905,-82.3362,-16.8226,103.239,-9100.17,-1253.32,-70.6876,-22.1864,-433.6,3002.15,6890.96,-4185.44,153.119,-258.053,-107.598,-10142.6,-1811.57,2037.28,-17.7383,189.92,-157.65,3012.9,588.61,1238.37,-80.0251,21.0357,-62.4048
2.762,5260.02,-2587.57,6955.1,-44.0117,-125.83,-36.9697,8618.11,6315.8,8900.63,30.5612,451.591,-121.312,1344.85,8591.96,-113.549,8.01985,-80.279,-17.0784,47.2576,-9259.98,-1224.75,-71.6638,-21.1279,-435.032,2993.06,6823.34,-4390.18,151.113,-254.407,-109.119,-10428.2,-1579.89,1893.79,-16.1324,185.159,-156.358,2998.97,522.73,1297.8,-80.8673,20.0356,-61.5379
2.763,5320.62,-2528.96,6867.36,-42.7098,-125.349,-36.3515,8885.71,6345.89,8998.66,30.1884,451.269,-122.976,1269.67,8565.86,-107.584,7.56065,-78.2218,-17.3343,-8.72323,-9419.79,-1196.17,-72.64,-20.0694,-436.464,2983.97,6755.73,-4594.92,149.106,-250.762,-110.64,-10713.8,-1348.21,1750.31,-14.5266,180.397,-155.067,2985.05,456.849,1357.24,-81.7094,19.0354,-60.6709
2.764,5381.23,-2470.34,6779.63,-41.4078,-124.869,-35.7332,9153.31,6375.98,9096.68,29.8156,450.948,-124.639,1194.48,8539.75,-101.62,7.10145,-76.1646,-17.5901,-64.7041,-9579.6,-1167.6,-73.6162,-19.0108,-437.895,2974.87,6688.12,-4799.65,147.1,-247.116,-112.161,-10999.4,-1116.53,1606.83,-12.9208,175.636,-153.775,2971.12,390.969,1416.67,-82.5516,18.0353,-59.8039
2.765,5420.54,-2417.38,6685.3,-40.2387,-124.259,-35.1839,9467.47,6266.72,9156.72,29.6431,450.74,-127.009,1134.66,8516.64,-114.808,6.73432,-74.1044,-17.8057,-196.255,-9714.09,-1160.28,-74.6897,-17.8043,-439.312,3029.28,6644.05,-5042.18,144.971,-243.337,-113.197,-11276.8,-936.443,1624.07,-11.4554,173.274,-152.201,2975.39,367.624,1443.66,-83.6392,16.8935,-59.0515
2.766,5442.84,-2368.93,6585.69,-39.1758,-123.545,-34.6896,9818.88,6045.99,9186.38,29.6306,450.621,-129.943,1087.14,8495.92,-143.319,6.44086,-72.0419,-17.9892,-388.262,-9828.32,-1169.96,-75.8409,-16.4795,-440.717,3134.48,6618.82,-5314.93,142.745,-239.451,-113.845,-11547.6,-797.639,1769.9,-10.1023,172.83,-150.401,2994.2,378.307,1444.7,-84.9232,15.6383,-58.3907
2.767,5465.14,-2320.48,6486.08,-38.1129,-122.832,-34.1953,10170.3,5825.25,9216.03,29.6182,450.503,-132.877,1039.61,8475.2,-171.829,6.1474,-69.9794,-18.1727,-580.269,-9942.56,-1179.63,-76.9922,-15.1547,-442.121,3239.69,6593.6,-5587.68,140.518,-235.566,-114.493,-11818.4,-658.835,1915.72,-8.74923,172.387,-148.601,3013.02,388.989,1445.74,-86.2072,14.3831,-57.7299
2.768,5487.43,-2272.03,6386.47,-37.05,-122.118,-33.701,10521.7,5604.52,9245.68,29.6058,450.385,-135.812,992.088,8454.48,-200.339,5.85394,-67.9169,-18.3561,-772.276,-10056.8,-1189.31,-78.1434,-13.8298,-443.526,3344.89,6568.37,-5860.43,138.292,-231.68,-115.141,-12089.2,-520.031,2061.55,-7.39615,171.943,-146.801,3031.83,399.672,1446.77,-87.4912,13.1279,-57.0691
2.769,5511.66,-2230.39,6293.67,-35.9735,-121.381,-33.1946,10875.9,5380.48,9266.23,29.5317,450.312,-138.757,947.46,8429.4,-228.538,5.56169,-65.8806,-18.5475,-972.743,-10170.4,-1195.27,-79.2853,-12.562,-444.88,3445.17,6540.0,-6110.95,136.015,-227.599,-115.729,-12332.8,-392.046,2261.58,-5.74858,171.544,-145.016,3049.0,412.723,1451.48,-88.8327,11.8475,-56.3842
2.77,5551.4,-2243.21,6255.34,-34.7886,-120.45,-32.5923,11252.5,5129.93,9213.97,28.9648,450.606,-141.789,926.007,8369.45,-254.24,5.27915,-64.0536,-18.8022,-1240.9,-10279.1,-1171.42,-80.3522,-11.7507,-445.83,3506.03,6486.44,-6183.57,133.329,-221.954,-115.842,-12359.1,-350.61,2895.31,-1.7451,171.502,-143.349,3053.0,444.72,1485.55,-90.6346,10.3649,-55.506
2.771,5591.13,-2256.04,6217.0,-33.6037,-119.52,-31.9899,11629.1,4879.38,9161.71,28.398,450.9,-144.821,904.553,8309.49,-279.943,4.99661,-62.2266,-19.0568,-1509.05,-10387.8,-1147.58,-81.4193,-10.9393,-446.781,3566.89,6432.87,-6256.19,130.644,-216.31,-115.954,-12385.4,-309.174,3529.03,2.25838,171.46,-141.683,3057.0,476.718,1519.62,-92.4364,8.88239,-54.6279
2.772,5630.86,-2268.86,6178.66,-32.4189,-118.589,-31.3876,12005.8,4628.83,9109.45,27.8311,451.194,-147.854,883.1,8249.53,-305.645,4.71407,-60.3996,-19.3115,-1777.2,-10496.4,-1123.74,-82.4863,-10.128,-447.731,3627.75,6379.31,-6328.81,127.959,-210.666,-116.067,-12411.7,-267.739,4162.75,6.26186,171.418,-140.017,3061.0,508.715,1553.69,-94.2383,7.39985,-53.7497
2.773,5670.59,-2281.69,6140.33,-31.234,-117.658,-30.7853,12382.4,4378.29,9057.19,27.2642,451.488,-150.886,861.647,8189.57,-331.348,4.43153,-58.5726,-19.5662,-2045.36,-10605.1,-1099.9,-83.5532,-9.31664,-448.681,3688.61,6325.75,-6401.44,125.274,-205.021,-116.18,-12438.0,-226.303,4796.47,10.2653,171.377,-138.35,3065.01,540.712,1587.76,-96.0402,5.9173,-52.8715
2.774,5693.87,-2306.19,6092.04,-30.2516,-116.733,-30.2123,12745.1,4311.2,8902.36,26.7146,452.007,-153.456,842.548,8112.19,-353.61,4.29762,-56.6505,-19.9037,-2245.46,-10694.2,-1016.68,-84.4016,-9.09262,-449.048,3745.64,6327.48,-6450.87,122.344,-198.427,-115.924,-12282.6,-260.627,5449.6,16.2259,167.776,-138.356,3056.37,538.871,1621.43,-97.2478,4.0778,-51.9364
2.775,5708.92,-2336.53,6038.78,-29.3703,-115.81,-29.654,13101.0,4335.84,8696.24,26.1737,452.639,-155.795,824.625,8026.1,-374.152,4.23802,-54.681,-20.2827,-2411.54,-10773.5,-903.776,-85.1406,-9.16227,-449.123,3800.76,6356.86,-6488.7,119.292,-191.357,-115.485,-12036.4,-332.831,6112.45,23.1651,162.395,-139.198,3041.41,520.109,1654.9,-98.1583,2.05983,-50.9727
2.776,5723.98,-2366.86,5985.52,-28.4891,-114.887,-29.0958,13456.8,4360.49,8490.12,25.6327,453.271,-158.134,806.703,7940.01,-394.694,4.17842,-52.7115,-20.6616,-2577.63,-10852.8,-790.869,-85.8796,-9.23191,-449.198,3855.88,6386.24,-6526.54,116.24,-184.287,-115.046,-11790.2,-405.034,6775.3,30.1042,157.015,-140.04,3026.46,501.347,1688.37,-99.0688,0.041865,-50.009
2.777,5739.03,-2397.2,5932.26,-27.6079,-113.964,-28.5375,13812.6,4385.13,8284.0,25.0918,453.902,-160.473,788.781,7853.92,-415.236,4.11882,-50.742,-21.0406,-2743.71,-10932.2,-677.963,-86.6186,-9.30156,-449.273,3911.0,6415.62,-6564.37,113.188,-177.218,-114.606,-11543.9,-477.238,7438.14,37.0434,151.635,-140.882,3011.5,482.586,1721.84,-99.9793,-1.9761,-49.0453
2.778,5757.81,-2430.14,5880.56,-26.7199,-112.998,-28.0306,14135.0,4451.3,8098.15,24.5417,454.431,-162.608,775.596,7771.97,-436.583,4.0801,-48.7551,-21.4106,-2886.81,-11000.2,-566.7,-87.3609,-9.39723,-449.187,3959.68,6443.91,-6587.51,110.019,-170.065,-114.038,-11281.8,-501.601,7980.75,43.5426,144.881,-142.233,3006.29,477.267,1734.53,-101.005,-3.98575,-48.1175
2.779,5789.66,-2472.18,5834.31,-25.8083,-111.881,-27.7033,14340.4,4662.79,7983.27,23.9595,454.6,-164.029,778.99,7704.53,-460.75,4.11444,-46.7078,-21.7493,-2949.47,-11028.9,-461.192,-88.1147,-9.58402,-448.539,3985.77,6468.38,-6559.19,106.441,-162.621,-113.018,-10963.9,-358.521,8102.54,48.5021,133.322,-145.365,3035.19,518.997,1674.48,-102.432,-5.96628,-47.315
2.78,5821.5,-2514.23,5788.06,-24.8967,-110.765,-27.376,14545.8,4874.28,7868.39,23.3774,454.769,-165.449,782.384,7637.1,-484.916,4.14878,-44.6604,-22.0879,-3012.13,-11057.6,-355.683,-88.8684,-9.77081,-447.89,4011.86,6492.84,-6530.88,102.863,-155.177,-111.998,-10646.0,-215.441,8224.33,53.4617,121.763,-148.497,3064.1,560.727,1614.44,-103.859,-7.94681,-46.5125
2.781,5853.34,-2556.27,5741.81,-23.9852,-109.649,-27.0487,14751.2,5085.78,7753.52,22.7952,454.938,-166.869,785.778,7569.66,-509.082,4.18312,-42.613,-22.4266,-3074.79,-11086.3,-250.175,-89.6221,-9.9576,-447.242,4037.96,6517.31,-6502.57,99.2855,-147.732,-110.979,-10328.1,-72.361,8346.12,58.4212,110.203,-151.629,3093.0,602.457,1554.39,-105.286,-9.92733,-45.71
2.782,5885.19,-2598.32,5695.56,-23.0736,-108.532,-26.7214,14956.6,5297.27,7638.64,22.2131,455.107,-168.29,789.172,7502.22,-533.249,4.21747,-40.5657,-22.7652,-3137.45,-11115.0,-144.667,-90.3758,-10.1444,-446.594,4064.05,6541.78,-6474.25,95.7076,-140.288,-109.959,-10010.3,70.7189,8467.91,63.3808,98.6443,-154.761,3121.9,644.188,1494.34,-106.713,-11.9079,-44.9075
2.783,5881.39,-2599.88,5640.84,-22.189,-107.298,-26.4587,15029.2,5417.98,7531.12,21.0743,454.452,-169.899,754.692,7460.1,-536.562,4.21824,-38.7016,-23.2145,-3148.86,-11124.0,-85.8771,-91.3381,-10.0278,-445.882,4044.66,6529.07,-6509.21,92.5107,-132.707,-108.756,-9811.51,443.511,8202.03,63.6328,85.8956,-157.949,3140.17,736.854,1358.68,-108.32,-13.4465,-43.9517
2.784,5867.42,-2589.88,5583.7,-21.312,-106.03,-26.2144,15063.9,5512.75,7425.71,19.7765,453.561,-171.562,709.391,7425.21,-533.917,4.20941,-36.8899,-23.6954,-3145.62,-11127.4,-40.436,-92.3601,-9.82456,-445.151,4012.27,6505.75,-6562.23,89.4227,-125.087,-107.501,-9646.81,881.935,7825.37,62.5398,72.8071,-161.153,3155.4,844.073,1201.42,-109.978,-14.8588,-42.9521
2.785,5853.45,-2579.88,5526.55,-20.4351,-104.762,-25.9701,15098.6,5607.52,7320.3,18.4787,452.67,-173.225,664.09,7390.32,-531.272,4.20059,-35.0782,-24.1762,-3142.39,-11130.7,5.00519,-93.382,-9.6213,-444.421,3979.89,6482.42,-6615.26,86.3347,-117.466,-106.245,-9482.11,1320.36,7448.72,61.4469,59.7186,-164.357,3170.63,951.292,1044.15,-111.636,-16.2712,-41.9525
2.786,5839.47,-2569.88,5469.41,-19.5581,-103.495,-25.7258,15133.3,5702.29,7214.89,17.1809,451.779,-174.888,618.788,7355.42,-528.627,4.19177,-33.2664,-24.6571,-3139.15,-11134.1,50.4463,-94.4039,-9.41805,-443.69,3947.5,6459.1,-6668.29,83.2467,-109.846,-104.99,-9317.4,1758.78,7072.06,60.3539,46.6301,-167.562,3185.86,1058.51,886.889,-113.293,-17.6836,-40.9529
2.787,5830.52,-2546.95,5413.58,-18.634,-102.204,-25.4137,15165.0,5767.98,7110.16,15.5596,450.744,-176.578,565.358,7319.42,-516.303,4.13461,-31.472,-25.1228,-3119.16,-11155.5,83.7779,-95.4225,-8.85599,-442.905,3908.07,6441.74,-6707.88,80.3264,-101.994,-103.774,-9228.54,2212.7,6717.69,57.5672,34.2496,-170.16,3201.2,1134.74,753.334,-114.578,-18.9535,-40.0352
2.788,5831.6,-2498.15,5360.38,-17.6156,-100.869,-24.966,15190.7,5775.49,7006.78,13.2913,449.419,-178.322,495.67,7281.17,-484.619,3.98078,-29.7123,-25.5582,-3065.68,-11213.1,92.8901,-96.4344,-7.57631,-442.009,3854.56,6436.32,-6720.6,77.7416,-93.6796,-102.637,-9291.36,2697.59,6407.87,51.393,23.2848,-171.546,3216.76,1148.99,667.195,-115.117,-19.9387,-39.281
2.789,5832.67,-2449.35,5307.18,-16.5973,-99.5333,-24.5183,15216.5,5783.0,6903.4,11.0229,448.095,-180.067,425.982,7242.92,-452.935,3.82695,-27.9525,-25.9936,-3012.19,-11270.7,102.002,-97.4463,-6.29664,-441.113,3801.05,6430.9,-6733.32,75.1568,-85.3648,-101.5,-9354.17,3182.48,6098.06,45.2188,12.3201,-172.933,3232.33,1163.24,581.057,-115.655,-20.9239,-38.5268
2.79,5833.75,-2400.55,5253.98,-15.5789,-98.1979,-24.0706,15242.2,5790.51,6800.02,8.75463,446.77,-181.811,356.294,7204.68,-421.251,3.67312,-26.1927,-26.429,-2958.71,-11328.3,111.115,-98.4582,-5.01697,-440.217,3747.54,6425.48,-6746.04,72.572,-77.0501,-100.362,-9416.99,3667.37,5788.24,39.0445,1.35533,-174.32,3247.89,1177.49,494.919,-116.194,-21.9091,-37.7726
2.791,5834.83,-2351.75,5200.78,-14.5605,-96.8624,-23.6229,15267.9,5798.02,6696.63,6.48633,445.446,-183.555,286.606,7166.43,-389.567,3.51929,-24.4329,-26.8644,-2905.22,-11385.9,120.227,-99.4701,-3.73729,-439.321,3694.03,6420.06,-6758.76,69.9872,-68.7353,-99.225,-9479.81,4152.26,5478.42,32.8703,-9.60941,-175.706,3263.45,1191.74,408.78,-116.732,-22.8943,-37.0184
2.792,5857.04,-2324.17,5143.82,-13.5397,-95.4134,-23.1531,15280.1,5903.23,6538.62,3.71704,443.71,-185.244,239.79,7105.58,-344.955,3.36634,-22.9403,-27.3795,-2837.73,-11502.8,120.263,-100.082,-1.21203,-438.309,3631.74,6411.91,-6648.13,67.9581,-60.1194,-98.2539,-9562.64,4365.38,5347.81,26.3981,-17.2076,-175.233,3260.7,1259.68,391.81,-116.563,-23.6061,-36.4341
2.793,5881.89,-2299.24,5086.4,-12.5186,-93.9501,-22.6807,15290.7,6020.65,6373.77,0.885135,441.923,-186.927,195.833,7041.9,-298.728,3.21349,-21.4811,-27.9044,-2768.49,-11627.2,119.165,-100.644,1.46892,-437.282,3568.35,6403.42,-6522.08,65.9984,-51.4657,-97.3035,-9647.97,4544.53,5239.59,19.8887,-24.385,-174.528,3255.66,1334.32,383.485,-116.304,-24.2837,-35.871
2.794,5906.74,-2274.31,5028.97,-11.4975,-92.4869,-22.2082,15301.2,6138.07,6208.92,-1.94677,440.137,-188.61,151.876,6978.22,-252.5,3.06064,-20.0219,-28.4294,-2699.25,-11751.6,118.067,-101.206,4.14988,-436.256,3504.95,6394.93,-6396.03,64.0388,-42.8121,-96.3531,-9733.3,4723.67,5131.37,13.3792,-31.5624,-173.823,3250.62,1408.96,375.161,-116.046,-24.9614,-35.3079
2.795,5931.59,-2249.38,4971.55,-10.4764,-91.0236,-21.7357,15311.7,6255.49,6044.07,-4.77868,438.35,-190.292,107.919,6914.54,-206.272,2.90779,-18.5626,-28.9544,-2630.02,-11875.9,116.969,-101.768,6.83083,-435.229,3441.56,6386.43,-6269.98,62.0791,-34.1585,-95.4028,-9818.64,4902.82,5023.15,6.86979,-38.7398,-173.117,3245.58,1483.61,366.837,-115.788,-25.639,-34.7448
2.796,5966.23,-2219.7,4927.99,-9.60946,-89.5923,-21.2711,15385.6,6389.43,5904.71,-7.92526,436.33,-192.077,60.8087,6865.67,-198.273,2.82846,-17.1456,-29.5674,-2601.28,-12006.8,82.4797,-102.252,10.4246,-434.023,3383.62,6402.67,-6048.68,59.5427,-25.9759,-94.5516,-9808.2,4903.82,4963.68,2.54182,-44.9564,-172.194,3235.04,1542.17,386.794,-115.276,-26.3152,-34.092
2.797,6013.12,-2184.1,4901.77,-8.9353,-88.2011,-20.8162,15538.6,6544.03,5797.21,-11.4652,434.021,-193.988,9.75789,6835.32,-238.06,2.84103,-15.7814,-30.2904,-2623.18,-12145.8,6.25064,-102.64,15.1594,-432.593,3332.49,6449.83,-5708.32,56.2853,-18.3821,-93.8244,-9678.07,4682.13,4965.14,0.940699,-49.9721,-171.0,3217.61,1580.63,442.104,-114.447,-26.9893,-33.3273
2.798,6060.0,-2148.5,4875.54,-8.26113,-86.8098,-20.3614,15691.6,6698.62,5689.71,-15.0051,431.711,-195.9,-41.2929,6804.97,-277.847,2.8536,-14.4172,-31.0134,-2645.08,-12284.8,-69.9784,-103.028,19.8943,-431.163,3281.36,6496.99,-5367.96,53.0279,-10.7882,-93.0972,-9547.93,4460.44,4966.6,-0.660424,-54.9879,-169.805,3200.19,1619.09,497.414,-113.618,-27.6635,-32.5626
2.799,6106.88,-2112.89,4849.32,-7.58696,-85.4186,-19.9066,15844.7,6853.21,5582.2,-18.5451,429.401,-197.811,-92.3437,6774.62,-317.634,2.86617,-13.0529,-31.7364,-2666.98,-12423.8,-146.207,-103.415,24.6291,-429.732,3230.23,6544.15,-5027.59,49.7704,-3.19435,-92.37,-9417.79,4238.75,4968.06,-2.26155,-60.0036,-168.61,3182.76,1657.55,552.724,-112.789,-28.3377,-31.7978
2.8,6153.77,-2077.29,4823.09,-6.9128,-84.0273,-19.4517,15997.7,7007.8,5474.7,-22.085,427.092,-199.723,-143.395,6744.27,-357.422,2.87874,-11.6887,-32.4594,-2688.88,-12562.8,-222.436,-103.803,29.3639,-428.302,3179.1,6591.31,-4687.23,46.513,4.39951,-91.6428,-9287.66,4017.06,4969.52,-3.86267,-65.0193,-167.415,3165.34,1696.01,608.035,-111.96,-29.0118,-31.0331
2.801,6211.8,-2077.86,4842.23,-6.27254,-82.6626,-19.2488,16170.9,7097.86,5518.95,-25.7655,423.74,-201.661,-172.676,6732.23,-317.239,2.79706,-10.684,-33.4194,-2772.33,-12685.2,-353.099,-104.185,36.319,-426.656,3161.0,6638.5,-4192.98,43.045,9.1122,-90.4169,-8915.12,3590.53,4684.67,-1.62827,-69.6149,-166.486,3164.2,1716.15,659.426,-111.327,-29.6527,-30.1948
2.802,6269.83,-2078.43,4861.37,-5.63228,-81.2979,-19.0459,16344.1,7187.93,5563.21,-29.446,420.389,-203.599,-201.957,6720.19,-277.057,2.71538,-9.67934,-34.3794,-2855.78,-12807.7,-483.762,-104.566,43.2741,-425.011,3142.89,6685.68,-3698.72,39.577,13.8249,-89.1911,-8542.59,3164.0,4399.83,0.606119,-74.2106,-165.556,3163.07,1736.28,710.817,-110.695,-30.2936,-29.3564
2.803,6327.86,-2079.0,4880.5,-4.99202,-79.9332,-18.843,16517.3,7277.99,5607.47,-33.1265,417.037,-205.537,-231.239,6708.15,-236.875,2.63371,-8.67465,-35.3394,-2939.23,-12930.1,-614.424,-104.948,50.2292,-423.365,3124.79,6732.87,-3204.47,36.1089,18.5376,-87.9653,-8170.05,2737.47,4114.98,2.84051,-78.8062,-164.627,3161.94,1756.41,762.208,-110.063,-30.9345,-28.5181
2.804,6385.89,-2079.56,4899.64,-4.35176,-78.5685,-18.6401,16690.4,7368.05,5651.73,-36.807,413.686,-207.475,-260.52,6696.11,-196.693,2.55203,-7.66997,-36.2994,-3022.68,-13052.5,-745.087,-105.33,57.1844,-421.719,3106.68,6780.06,-2710.22,32.6409,23.2503,-86.7395,-7797.52,2310.94,3830.14,5.07491,-83.4018,-163.697,3160.8,1776.55,813.598,-109.43,-31.5754,-27.6798
2.805,6410.81,-2111.01,4916.26,-3.69408,-77.273,-18.3746,16842.3,7293.89,5753.59,-39.7237,409.852,-209.721,-262.424,6711.3,-181.366,2.44825,-6.77361,-37.23,-3168.11,-13219.7,-924.589,-105.888,65.1064,-420.184,3082.24,6815.84,-2239.89,29.7781,26.2415,-85.698,-7413.28,2002.4,3353.6,6.39885,-87.1148,-162.544,3148.45,1800.34,838.098,-109.089,-32.3929,-26.9167
2.806,6409.25,-2167.16,4930.88,-3.02247,-76.0328,-18.059,16977.0,7088.33,5901.53,-42.0292,405.631,-212.214,-242.425,6748.27,-185.922,2.32677,-5.96391,-38.1371,-3363.12,-13422.5,-1143.16,-106.588,73.802,-418.737,3052.71,6842.51,-1788.7,27.3995,27.8556,-84.8039,-7019.69,1788.25,2723.71,6.99444,-90.1216,-161.211,3127.12,1827.06,841.085,-108.98,-33.3518,-26.214
2.807,6407.68,-2223.31,4945.49,-2.35087,-74.7927,-17.7434,17111.7,6882.77,6049.47,-44.3347,401.411,-214.707,-222.426,6785.24,-190.479,2.2053,-5.15422,-39.0442,-3558.14,-13625.4,-1361.73,-107.288,82.4976,-417.29,3023.19,6869.17,-1337.51,25.0209,29.4697,-83.9098,-6626.1,1574.1,2093.83,7.59003,-93.1284,-159.878,3105.78,1853.78,844.072,-108.871,-34.3106,-25.5112
2.808,6406.12,-2279.46,4960.11,-1.67926,-73.5526,-17.4278,17246.5,6677.22,6197.42,-46.6403,397.191,-217.199,-202.426,6822.2,-195.035,2.08383,-4.34452,-39.9512,-3753.15,-13828.2,-1580.31,-107.988,91.1932,-415.844,2993.67,6895.83,-886.319,22.6423,31.0838,-83.0157,-6232.5,1359.94,1463.94,8.18562,-96.1352,-158.545,3084.45,1880.51,847.058,-108.762,-35.2694,-24.8084
2.809,6402.46,-2331.56,4972.45,-1.0466,-72.3089,-17.093,17381.6,6438.15,6336.71,-48.7081,392.957,-219.687,-186.887,6861.93,-198.271,1.96709,-3.53315,-40.8394,-3968.11,-14036.4,-1792.63,-108.684,99.8715,-414.438,2954.06,6916.11,-444.196,20.4557,32.3437,-82.1779,-5842.48,1174.42,838.662,8.26069,-98.762,-157.028,3057.12,1904.08,851.817,-108.658,-36.2496,-24.1214
2.81,6382.11,-2351.21,4966.58,-0.725481,-71.0374,-16.6039,17520.2,5930.94,6406.79,-48.8737,388.61,-222.136,-207.021,6923.75,-190.933,1.88826,-2.7085,-41.5763,-4342.54,-14286.7,-1954.94,-109.346,108.412,-413.366,2833.78,6885.38,-74.6189,19.8049,30.7701,-81.7908,-5481.1,1217.96,250.252,4.17158,-98.3484,-154.041,2981.74,1902.47,870.757,-108.588,-37.4002,-23.5602
2.811,6361.75,-2370.86,4960.72,-0.404366,-69.7658,-16.1149,17658.8,5423.74,6476.87,-49.0393,384.263,-224.585,-227.156,6985.56,-183.596,1.80944,-1.88384,-42.3132,-4716.97,-14537.0,-2117.26,-110.009,116.953,-412.293,2713.5,6854.65,294.958,19.1541,29.1966,-81.4038,-5119.72,1261.5,-338.157,0.082467,-97.9349,-151.053,2906.36,1900.86,889.696,-108.518,-38.5508,-22.9991
2.812,6341.39,-2390.51,4954.86,-0.0832517,-68.4942,-15.6259,17797.3,4916.54,6546.95,-49.2049,379.917,-227.034,-247.291,7047.38,-176.259,1.73061,-1.05918,-43.0502,-5091.4,-14787.4,-2279.57,-110.671,125.493,-411.22,2593.22,6823.92,664.535,18.5033,27.623,-81.0167,-4758.33,1305.03,-926.567,-4.00664,-97.5213,-148.065,2830.98,1899.25,908.636,-108.448,-39.7015,-22.438
2.813,6321.03,-2410.16,4949.0,0.237863,-67.2227,-15.1369,17935.9,4409.33,6617.02,-49.3705,375.57,-229.483,-267.426,7109.2,-168.922,1.65178,-0.234526,-43.7871,-5465.83,-15037.7,-2441.89,-111.333,134.034,-410.147,2472.93,6793.18,1034.11,17.8525,26.0495,-80.6296,-4396.95,1348.57,-1514.98,-8.09575,-97.1078,-145.077,2755.6,1897.64,927.575,-108.378,-40.8521,-21.8768
2.814,6303.26,-2347.1,4958.39,0.36816,-65.9984,-14.8182,18127.7,3957.25,6638.03,-48.8306,371.586,-231.57,-344.222,7169.3,-145.28,1.59797,0.511835,-44.4396,-5869.12,-15284.3,-2507.35,-111.644,141.316,-409.209,2322.23,6740.2,1278.09,18.6816,23.1888,-80.4394,-4009.3,1328.04,-1844.82,-14.3316,-94.5313,-141.279,2679.89,1889.48,936.436,-107.863,-41.9334,-21.4387
2.815,6286.78,-2242.67,4975.42,0.403048,-64.7979,-14.5847,18346.1,3532.73,6634.49,-47.9379,367.783,-233.476,-449.348,7228.55,-113.486,1.55668,1.21905,-45.0499,-6286.84,-15529.0,-2524.39,-111.779,147.969,-408.339,2156.33,6676.09,1459.28,20.2507,19.6846,-80.3478,-3608.51,1275.47,-2045.38,-21.6407,-90.8734,-137.074,2604.01,1878.03,940.258,-107.127,-42.98,-21.0622
2.816,6270.29,-2138.25,4992.45,0.437937,-63.5973,-14.3513,18564.5,3108.2,6630.96,-47.0453,363.98,-235.382,-554.475,7287.79,-81.6919,1.51538,1.92626,-45.6603,-6704.56,-15773.7,-2541.42,-111.914,154.621,-407.469,1990.42,6611.98,1640.46,21.8197,16.1804,-80.2561,-3207.72,1222.91,-2245.95,-28.9499,-87.2156,-132.87,2528.12,1866.59,944.08,-106.39,-44.0266,-20.6857
2.817,6253.81,-2033.82,5009.48,0.472825,-62.3967,-14.1178,18782.9,2683.68,6627.42,-46.1527,360.177,-237.288,-659.602,7347.04,-49.898,1.47408,2.63347,-46.2706,-7122.28,-16018.4,-2558.45,-112.05,161.274,-406.599,1824.51,6547.87,1821.64,23.3887,12.6762,-80.1644,-2806.94,1170.34,-2446.51,-36.2591,-83.5577,-128.666,2452.24,1855.14,947.902,-105.654,-45.0732,-20.3091
2.818,6248.68,-1922.67,5028.7,0.548594,-61.2505,-13.8664,19024.2,2344.05,6577.96,-45.187,356.647,-238.917,-753.009,7407.04,-16.2586,1.4124,3.30743,-46.9229,-7523.12,-16268.6,-2561.61,-111.961,167.343,-405.678,1647.66,6499.24,1955.99,25.3522,9.06544,-80.1445,-2405.52,1082.02,-2596.99,-43.3254,-79.8808,-124.609,2383.88,1842.97,940.652,-104.908,-46.0431,-19.9678
2.819,6283.3,-1787.99,5055.57,0.767441,-60.2945,-13.5525,19345.8,2301.51,6367.76,-43.9656,354.073,-239.577,-805.398,7469.69,23.84,1.27937,3.86497,-47.7223,-7864.89,-16538.2,-2516.18,-111.089,171.366,-404.581,1432.53,6504.79,1926.41,28.6963,5.08167,-80.3757,-2001.93,868.54,-2572.2,-49.5417,-76.1373,-121.068,2341.84,1828.24,894.648,-104.129,-46.7445,-19.7496
2.82,6317.92,-1653.31,5082.44,0.986288,-59.3385,-13.2386,19667.3,2258.98,6157.55,-42.7442,351.499,-240.237,-857.788,7532.34,63.9386,1.14634,4.42252,-48.5218,-8206.65,-16807.9,-2470.75,-110.216,175.389,-403.485,1217.4,6510.34,1896.83,32.0404,1.0979,-80.6068,-1598.33,655.06,-2547.41,-55.758,-72.3938,-117.528,2299.8,1813.51,848.644,-103.35,-47.4459,-19.5314
2.821,6352.53,-1518.63,5109.31,1.20514,-58.3825,-12.9247,19988.9,2216.44,5947.35,-41.5228,348.925,-240.897,-910.178,7594.98,104.037,1.01332,4.98006,-49.3212,-8548.42,-17077.5,-2425.32,-109.344,179.413,-402.388,1002.27,6515.9,1867.25,35.3845,-2.88586,-80.838,-1194.74,441.581,-2522.61,-61.9743,-68.6504,-113.987,2257.76,1798.78,802.641,-102.572,-48.1473,-19.3131
2.822,6387.15,-1383.95,5136.18,1.42398,-57.4265,-12.6108,20310.5,2173.91,5737.15,-40.3014,346.351,-241.558,-962.567,7657.63,144.136,0.880287,5.53761,-50.1206,-8890.19,-17347.2,-2379.89,-108.472,183.436,-401.291,787.146,6521.45,1837.68,38.7285,-6.86963,-81.0692,-791.141,228.102,-2497.82,-68.1906,-64.9069,-110.446,2215.72,1784.06,756.637,-101.793,-48.8487,-19.0949
2.823,6460.53,-1323.76,5173.96,1.78161,-56.6782,-11.9966,20686.5,2335.91,5586.5,-38.4742,344.431,-241.291,-937.022,7725.76,240.027,0.558764,6.04632,-50.963,-9196.95,-17543.4,-2335.09,-106.806,186.025,-399.619,554.018,6536.5,1691.28,42.1816,-10.2466,-81.4113,-479.304,-4.80044,-2511.27,-71.8165,-61.7243,-108.088,2194.84,1772.11,708.035,-100.81,-49.3408,-18.8285
2.824,6544.99,-1284.84,5214.85,2.17889,-55.9892,-11.2966,21078.2,2556.35,5452.87,-36.4739,342.697,-240.76,-889.21,7795.45,351.859,0.183386,6.54108,-51.8177,-9493.72,-17718.6,-2290.47,-104.913,188.204,-397.782,315.747,6554.27,1511.52,45.6658,-13.4501,-81.7852,-193.684,-243.252,-2535.65,-74.7022,-58.7019,-106.066,2180.01,1760.96,658.692,-99.7675,-49.7732,-18.5482
2.825,6629.45,-1245.93,5255.74,2.57617,-55.3002,-10.5967,21469.8,2776.8,5319.23,-34.4736,340.964,-240.229,-841.398,7865.15,463.691,-0.191993,7.03584,-52.6724,-9790.48,-17893.8,-2245.85,-103.021,190.384,-395.946,77.4761,6572.04,1331.75,49.15,-16.6537,-82.1591,91.937,-481.703,-2560.03,-77.588,-55.6796,-104.045,2165.18,1749.81,609.348,-98.7253,-50.2055,-18.268
2.826,6713.91,-1207.01,5296.63,2.97345,-54.6112,-9.89668,21861.5,2997.24,5185.6,-32.4734,339.231,-239.698,-793.586,7934.84,575.523,-0.567372,7.5306,-53.5271,-10087.2,-18069.0,-2201.23,-101.128,192.563,-394.109,-160.795,6589.8,1151.98,52.6342,-19.8573,-82.533,377.558,-720.155,-2584.41,-80.4737,-52.6572,-102.024,2150.35,1738.66,560.004,-97.6832,-50.6379,-17.9877
2.827,6779.81,-1199.45,5338.94,3.4437,-53.9007,-9.1688,22243.3,3149.44,5032.58,-30.6287,337.594,-239.037,-736.368,8006.07,651.276,-0.990311,7.95986,-54.3353,-10387.9,-18228.1,-2166.09,-99.0749,194.501,-392.102,-391.442,6633.94,984.109,55.7004,-22.8473,-82.9543,635.977,-942.665,-2642.72,-82.7263,-49.3873,-100.314,2135.31,1730.79,520.757,-96.5933,-51.1314,-17.618
2.828,6808.59,-1254.59,5384.1,4.05987,-53.1472,-8.38515,22605.5,3165.15,4840.77,-29.0951,336.151,-238.115,-660.338,8080.39,654.87,-1.50837,8.25812,-55.0503,-10696.3,-18355.0,-2149.91,-96.6996,195.957,-389.752,-606.843,6730.83,840.022,57.9305,-25.4103,-83.4706,839.993,-1133.29,-2768.86,-83.7124,-45.6224,-99.2292,2119.88,1729.49,501.703,-95.4078,-51.747,-17.0694
2.829,6837.37,-1309.73,5429.26,4.67604,-52.3937,-7.60149,22967.6,3180.86,4648.96,-27.5616,334.707,-237.194,-584.308,8154.7,658.463,-2.02643,8.55638,-55.7654,-11004.7,-18481.9,-2133.74,-94.3244,197.412,-387.402,-822.243,6827.72,695.935,60.1607,-27.9732,-83.9869,1044.01,-1323.92,-2895.01,-84.6985,-41.8575,-98.1439,2104.45,1728.2,482.649,-94.2223,-52.3626,-16.5208
2.83,6866.15,-1364.86,5474.41,5.29221,-51.6402,-6.81783,23329.7,3196.57,4457.16,-26.028,333.263,-236.272,-508.278,8229.01,662.057,-2.54449,8.85465,-56.4804,-11313.2,-18608.8,-2117.56,-91.9492,198.868,-385.052,-1037.64,6924.61,551.849,62.3908,-30.5362,-84.5032,1248.02,-1514.55,-3021.16,-85.6847,-38.0926,-97.0587,2089.01,1726.9,463.594,-93.0367,-52.9782,-15.9722
2.831,6894.93,-1420.0,5519.57,5.90838,-50.8868,-6.03417,23691.9,3212.28,4265.35,-24.4945,331.819,-235.35,-432.248,8303.33,665.651,-3.06255,9.15291,-57.1954,-11621.6,-18735.6,-2101.38,-89.5739,200.324,-382.702,-1253.04,7021.5,407.762,64.6209,-33.0991,-85.0195,1452.04,-1705.18,-3147.31,-86.6708,-34.3277,-95.9734,2073.58,1725.61,444.54,-91.8512,-53.5939,-15.4235
2.832,6879.51,-1466.31,5523.57,6.69395,-50.1352,-5.6683,23961.2,3197.88,4036.73,-23.8762,330.599,-233.882,-410.741,8330.0,651.4,-3.34227,9.73289,-57.7067,-11939.7,-18794.6,-2094.0,-87.2417,200.577,-380.268,-1414.61,7150.24,294.085,65.327,-35.4422,-85.5254,1699.36,-1899.48,-3230.27,-86.7743,-28.8169,-94.9595,2063.76,1724.46,411.266,-91.3752,-54.0075,-15.0891
2.833,6858.56,-1511.51,5522.43,7.5007,-49.3839,-5.35466,24218.9,3179.71,3803.5,-23.3724,329.407,-232.346,-396.049,8350.71,634.919,-3.5922,10.3481,-58.1925,-12259.1,-18845.1,-2087.71,-84.9148,200.679,-377.824,-1569.44,7282.95,184.208,65.8426,-37.7578,-86.0301,1952.09,-2094.23,-3307.83,-86.7675,-23.0879,-93.9546,2054.63,1723.33,376.216,-90.9879,-54.3958,-14.7813
2.834,6837.62,-1556.71,5521.29,8.30746,-48.6326,-5.04101,24476.7,3161.55,3570.27,-22.8685,328.215,-230.81,-381.357,8371.43,618.438,-3.84213,10.9633,-58.6783,-12578.4,-18895.6,-2081.43,-82.5879,200.781,-375.379,-1724.28,7415.67,74.3322,66.3582,-40.0734,-86.5348,2204.82,-2288.99,-3385.4,-86.7607,-17.3589,-92.9496,2045.51,1722.2,341.165,-90.6005,-54.7841,-14.4736
2.835,6816.67,-1601.92,5520.14,9.11421,-47.8813,-4.72737,24734.4,3143.38,3337.04,-22.3647,327.022,-229.274,-366.665,8392.14,601.956,-4.09205,11.5785,-59.1641,-12897.8,-18946.1,-2075.15,-80.2611,200.884,-372.935,-1879.11,7548.38,-35.544,66.8737,-42.389,-87.0394,2457.55,-2483.74,-3462.96,-86.7539,-11.6298,-91.9447,2036.39,1721.08,306.114,-90.2132,-55.1724,-14.1659
2.836,6805.18,-1618.17,5525.87,9.76197,-47.1519,-4.44935,24964.4,3134.1,3079.65,-22.251,325.906,-227.54,-369.167,8390.08,592.06,-4.28357,12.1598,-59.6922,-13230.0,-18918.7,-2067.51,-78.0401,200.363,-370.336,-2001.99,7685.84,-114.836,66.8829,-44.9603,-87.6374,2735.48,-2707.53,-3516.57,-85.9521,-5.01091,-90.9058,2035.96,1709.86,261.583,-90.0622,-55.4063,-13.8962
2.837,6805.49,-1598.25,5540.19,10.211,-46.4499,-4.21585,25159.8,3135.92,2792.04,-22.625,324.883,-225.558,-393.161,8359.54,590.396,-4.40207,12.6989,-60.273,-13578.5,-18793.9,-2058.18,-75.9516,199.065,-367.545,-2084.93,7829.22,-155.898,66.2589,-47.8512,-88.3519,3044.9,-2967.59,-3540.26,-84.1564,2.72033,-89.8243,2046.41,1686.03,205.202,-90.2067,-55.447,-13.6742
2.838,6805.8,-1578.33,5554.52,10.66,-45.7478,-3.98236,25355.2,3137.74,2504.43,-22.999,323.86,-223.577,-417.155,8329.0,588.731,-4.52057,13.238,-60.8538,-13926.9,-18669.1,-2048.85,-73.8631,197.766,-364.754,-2167.87,7972.61,-196.96,65.635,-50.7421,-89.0665,3354.33,-3227.66,-3563.94,-82.3607,10.4516,-88.743,2056.85,1662.19,148.821,-90.3512,-55.4878,-13.4521
2.839,6806.11,-1558.4,5568.84,11.109,-45.0458,-3.74886,25550.6,3139.57,2216.82,-23.373,322.837,-221.596,-441.149,8298.46,587.067,-4.63906,13.7771,-61.4346,-14275.4,-18544.4,-2039.52,-71.7747,196.468,-361.963,-2250.81,8115.99,-238.022,65.0111,-53.633,-89.7811,3663.75,-3487.72,-3587.62,-80.5649,18.1828,-87.6615,2067.29,1638.36,92.4392,-90.4956,-55.5285,-13.23
2.84,6806.42,-1538.48,5583.16,11.5581,-44.3437,-3.51537,25746.0,3141.39,1929.21,-23.7471,321.814,-219.615,-465.144,8267.92,585.402,-4.75756,14.3162,-62.0154,-14623.9,-18419.6,-2030.19,-69.6862,195.169,-359.171,-2333.74,8259.38,-279.084,64.3872,-56.5239,-90.4956,3973.18,-3747.78,-3611.3,-78.7692,25.9141,-86.5801,2077.74,1614.53,36.0579,-90.6401,-55.5693,-13.008
2.841,6807.65,-1489.66,5623.1,11.8044,-43.7993,-3.05465,25863.9,3193.41,1664.09,-24.1089,320.351,-216.777,-513.378,8287.74,524.68,-5.12899,14.3376,-63.019,-14928.3,-18300.8,-1972.26,-68.0917,193.163,-356.044,-2322.09,8419.01,-325.615,63.4254,-60.3333,-90.9981,4263.67,-3965.68,-3543.78,-75.6464,34.4341,-85.0626,2109.93,1604.16,-8.57301,-90.8534,-55.4677,-12.7586
2.842,6808.87,-1440.85,5663.04,12.0508,-43.2548,-2.59394,25981.8,3245.43,1398.97,-24.4708,318.888,-213.939,-561.613,8307.57,463.958,-5.50041,14.3591,-64.0227,-15232.7,-18182.0,-1914.33,-66.4972,191.156,-352.916,-2310.44,8578.65,-372.145,62.4635,-64.1427,-91.5006,4554.16,-4183.58,-3476.26,-72.5236,42.9542,-83.545,2142.13,1593.8,-53.2039,-91.0666,-55.366,-12.5092
2.843,6810.1,-1392.03,5702.97,12.2971,-42.7104,-2.13323,26099.7,3297.46,1133.85,-24.8327,317.425,-211.101,-609.848,8327.39,403.236,-5.87184,14.3805,-65.0263,-15537.1,-18063.2,-1856.4,-64.9027,189.15,-349.788,-2298.79,8738.28,-418.676,61.5017,-67.9521,-92.0032,4844.65,-4401.48,-3408.75,-69.4008,51.4743,-82.0275,2174.33,1583.43,-97.8348,-91.2799,-55.2644,-12.2598
2.844,6811.32,-1343.21,5742.91,12.5434,-42.166,-1.67251,26217.7,3349.48,868.731,-25.1946,315.961,-208.263,-658.083,8347.21,342.514,-6.24326,14.402,-66.03,-15841.5,-17944.4,-1798.47,-63.3082,187.143,-346.66,-2287.14,8897.92,-465.206,60.5399,-71.7616,-92.5057,5135.14,-4619.38,-3341.23,-66.278,59.9944,-80.5099,2206.52,1573.06,-142.466,-91.4932,-55.1628,-12.0104
2.845,6812.69,-1303.76,5791.51,12.671,-41.7673,-1.37273,26300.5,3336.09,555.995,-25.5361,314.3,-205.391,-692.752,8417.17,266.539,-6.65726,14.3126,-67.0662,-16133.8,-17748.5,-1734.57,-61.8791,185.08,-343.357,-2174.17,8992.31,-481.025,59.733,-76.0392,-93.1246,5389.38,-4790.45,-3224.17,-63.2884,68.1926,-79.4395,2268.42,1572.39,-166.492,-91.8177,-55.1246,-11.7921
2.846,6814.18,-1271.81,5847.03,12.7034,-41.4852,-1.20169,26355.2,3270.37,205.165,-25.8615,312.48,-202.492,-716.57,8527.26,178.362,-7.10532,14.1346,-68.1284,-16416.4,-17491.1,-1665.88,-60.5824,182.971,-339.914,-1980.17,9034.5,-472.274,59.05,-80.6915,-93.8367,5614.62,-4924.06,-3067.47,-60.4054,76.1333,-78.7268,2354.08,1579.47,-174.035,-92.2313,-55.1371,-11.5988
2.847,6815.67,-1239.85,5902.56,12.7359,-41.2031,-1.03064,26409.9,3204.65,-145.664,-26.1868,310.66,-199.593,-740.387,8637.34,90.1853,-7.55338,13.9567,-69.1907,-16699.1,-17233.6,-1597.19,-59.2857,180.861,-336.472,-1786.16,9076.69,-463.523,58.3671,-85.3438,-94.5487,5839.86,-5057.67,-2910.77,-57.5225,84.074,-78.0141,2439.74,1586.55,-181.579,-92.6448,-55.1496,-11.4054
2.848,6817.15,-1207.9,5958.08,12.7683,-40.921,-0.859601,26464.7,3138.93,-496.494,-26.5121,308.841,-196.695,-764.204,8747.42,2.00838,-8.00144,13.7787,-70.253,-16981.7,-16976.2,-1528.5,-57.989,178.752,-333.029,-1592.15,9118.89,-454.772,57.6841,-89.996,-95.2608,6065.1,-5191.28,-2754.07,-54.6395,92.0148,-77.3014,2525.41,1593.63,-189.122,-93.0584,-55.1621,-11.2121
2.849,6817.86,-1186.91,6010.71,12.7865,-40.6487,-0.719837,26520.1,3053.73,-836.967,-26.8648,306.931,-193.816,-791.076,8859.28,-89.1512,-8.45273,13.569,-71.3179,-17269.4,-16723.5,-1458.05,-56.6862,176.641,-329.542,-1388.76,9160.67,-456.849,57.1086,-94.6667,-95.8895,6273.58,-5305.55,-2595.0,-52.017,99.5684,-76.629,2612.31,1600.11,-199.836,-93.4861,-55.1481,-10.9917
2.85,6812.33,-1253.64,6040.12,12.6901,-40.4544,-0.830299,26581.4,2812.71,-1094.59,-27.4367,304.305,-191.099,-842.383,8985.39,-204.172,-8.92988,13.1056,-72.4036,-17597.5,-16509.6,-1373.55,-55.3348,174.516,-325.708,-1110.36,9199.18,-545.554,57.3922,-99.4848,-95.8516,6347.92,-5265.15,-2417.0,-51.478,104.025,-76.279,2709.16,1601.8,-235.916,-94.0271,-54.9215,-10.5555
2.851,6806.8,-1320.38,6069.53,12.5938,-40.2601,-0.940761,26642.8,2571.7,-1352.21,-28.0086,301.679,-188.382,-893.689,9111.49,-319.193,-9.40703,12.6421,-73.4893,-17925.6,-16295.6,-1289.05,-53.9834,172.39,-321.873,-831.966,9237.7,-634.258,57.6759,-104.303,-95.8137,6422.26,-5224.76,-2238.99,-50.939,108.482,-75.9291,2806.0,1603.49,-271.996,-94.5681,-54.6949,-10.1193
2.852,6801.27,-1387.11,6098.94,12.4974,-40.0657,-1.05122,26704.1,2330.68,-1609.83,-28.5805,299.053,-185.665,-944.996,9237.6,-434.214,-9.88418,12.1787,-74.5751,-18253.6,-16081.6,-1204.55,-52.632,170.264,-318.039,-553.566,9276.21,-722.963,57.9596,-109.121,-95.7758,6496.6,-5184.36,-2060.99,-50.3999,112.939,-75.5792,2902.85,1605.18,-308.076,-95.109,-54.4683,-9.68303
2.853,6795.74,-1453.84,6128.36,12.4011,-39.8714,-1.16168,26765.5,2089.67,-1867.45,-29.1523,296.427,-182.948,-996.302,9363.7,-549.236,-10.3613,11.7153,-75.6608,-18581.7,-15867.6,-1120.05,-51.2806,168.138,-314.204,-275.167,9314.72,-811.668,58.2433,-113.939,-95.7379,6570.94,-5143.96,-1882.99,-49.8609,117.396,-75.2293,2999.7,1606.87,-344.157,-95.65,-54.2417,-9.24679
2.854,6805.87,-1612.48,6145.93,12.4749,-39.7315,-1.39591,26813.3,1810.59,-2074.38,-29.4518,293.159,-180.33,-957.118,9476.09,-675.905,-10.8448,11.1483,-76.7259,-18872.6,-15621.7,-1047.3,-49.8545,165.516,-310.378,42.7218,9347.15,-897.003,58.6642,-118.76,-95.5624,6549.98,-5037.97,-1766.59,-51.0665,118.243,-74.2553,3069.6,1612.78,-389.979,-96.3215,-54.0039,-8.81795
2.855,6823.82,-1817.06,6157.58,12.6338,-39.6187,-1.69202,26854.4,1512.49,-2255.96,-29.6151,289.57,-177.761,-872.69,9581.61,-808.4,-11.3315,10.5295,-77.7806,-19144.7,-15359.9,-980.416,-48.391,162.645,-306.556,380.355,9376.55,-980.653,59.1537,-123.583,-95.318,6481.36,-4899.19,-1680.99,-53.1444,117.286,-72.9693,3126.03,1620.8,-440.673,-97.0583,-53.7604,-8.3928
2.856,6841.77,-2021.65,6169.24,12.7927,-39.5059,-1.98813,26895.5,1214.39,-2437.55,-29.7783,285.981,-175.192,-788.261,9687.13,-940.894,-11.8181,9.91075,-78.8354,-19416.9,-15098.0,-913.535,-46.9275,159.774,-302.734,717.989,9405.95,-1064.3,59.6433,-128.405,-95.0737,6412.75,-4760.41,-1595.4,-55.2223,116.329,-71.6833,3182.47,1628.82,-491.367,-97.7951,-53.5169,-7.96766
2.857,6859.73,-2226.23,6180.89,12.9517,-39.3931,-2.28424,26936.6,916.294,-2619.13,-29.9416,282.393,-172.623,-703.833,9792.66,-1073.39,-12.3048,9.292,-79.8901,-19689.1,-14836.2,-846.654,-45.464,156.904,-298.912,1055.62,9435.34,-1147.95,60.1328,-133.228,-94.8294,6344.13,-4621.63,-1509.8,-57.3001,115.372,-70.3974,3238.9,1636.83,-542.06,-98.5318,-53.2734,-7.54252
2.858,6880.47,-2455.92,6187.6,13.1149,-39.2832,-2.65357,26975.1,631.919,-2814.29,-30.0795,278.696,-170.033,-604.136,9883.1,-1221.8,-12.7643,8.68094,-80.9348,-19945.9,-14572.3,-776.453,-43.9962,153.582,-295.105,1400.63,9454.56,-1246.97,60.7326,-137.705,-94.4842,6268.74,-4493.25,-1480.67,-59.3675,113.727,-68.8898,3310.71,1644.24,-602.785,-99.2424,-52.9755,-7.18956
2.859,6910.99,-2773.46,6176.98,13.2931,-39.1831,-3.27917,27004.3,395.578,-3056.97,-30.1287,274.622,-167.371,-451.0,9920.76,-1425.92,-13.1288,8.09684,-81.9443,-20149.0,-14301.3,-694.629,-42.5135,148.68,-291.353,1771.47,9438.15,-1399.77,61.718,-140.971,-93.7857,6169.61,-4401.27,-1649.19,-61.3983,109.675,-66.6069,3436.35,1649.48,-698.619,-99.8614,-52.4871,-7.08923
2.86,6941.5,-3091.0,6166.37,13.4712,-39.083,-3.90478,27033.6,159.237,-3299.65,-30.178,270.547,-164.709,-297.865,9958.42,-1630.04,-13.4934,7.51275,-82.9539,-20352.1,-14030.4,-612.805,-41.0308,143.779,-287.601,2142.31,9421.74,-1552.56,62.7035,-144.238,-93.0872,6070.48,-4309.3,-1817.7,-63.429,105.623,-64.324,3561.99,1654.72,-794.453,-100.48,-51.9987,-6.98891
2.861,6972.02,-3408.54,6155.75,13.6494,-38.983,-4.53039,27062.8,-77.104,-3542.32,-30.2272,266.473,-162.047,-144.729,9996.08,-1834.16,-13.8579,6.92865,-83.9634,-20555.2,-13759.4,-530.98,-39.5481,138.877,-283.849,2513.14,9405.33,-1705.35,63.689,-147.505,-92.3887,5971.35,-4217.32,-1986.22,-65.4597,101.571,-62.0411,3687.63,1659.96,-890.287,-101.099,-51.5103,-6.88859
2.862,7002.53,-3726.09,6145.14,13.8276,-38.8829,-5.15599,27092.1,-313.445,-3785.0,-30.2764,262.399,-159.385,8.40708,10033.7,-2038.28,-14.2225,6.34456,-84.9729,-20758.3,-13488.4,-449.156,-38.0654,133.976,-280.097,2883.98,9388.92,-1858.15,64.6744,-150.772,-91.6903,5872.22,-4125.35,-2154.73,-67.4904,97.5196,-59.7582,3813.26,1665.2,-986.121,-101.718,-51.0218,-6.78827
2.863,6999.61,-3996.43,6134.9,13.7575,-38.799,-6.21088,27154.9,-415.554,-4064.59,-30.3009,258.23,-156.398,130.711,10050.8,-2245.59,-14.4841,6.03448,-86.0899,-20925.1,-13253.2,-406.731,-36.903,127.903,-275.979,3237.76,9397.06,-1934.73,65.224,-152.584,-90.2346,5793.01,-4184.04,-2551.09,-67.7733,94.8323,-57.2563,3992.4,1663.54,-1077.12,-101.971,-50.0792,-6.64475
2.864,6987.13,-4253.3,6124.77,13.6166,-38.7197,-7.38843,27227.2,-479.311,-4354.74,-30.3183,254.034,-153.318,244.206,10062.0,-2453.82,-14.7163,5.80269,-87.2376,-21081.5,-13028.3,-375.564,-35.8322,121.495,-271.756,3586.66,9412.21,-1989.55,65.6489,-153.98,-88.5625,5719.48,-4285.79,-3012.54,-67.5567,92.5349,-54.6919,4186.81,1659.91,-1166.73,-102.118,-49.0067,-6.48889
2.865,6974.65,-4510.16,6114.65,13.4756,-38.6404,-8.56597,27299.6,-543.069,-4644.88,-30.3357,249.839,-150.239,357.701,10073.2,-2662.04,-14.9485,5.5709,-88.3853,-21237.8,-12803.3,-344.396,-34.7614,115.088,-267.533,3935.57,9427.37,-2044.36,66.0739,-155.376,-86.8904,5645.95,-4387.53,-3473.99,-67.3402,90.2375,-52.1275,4381.23,1656.29,-1256.34,-102.266,-47.9343,-6.33303
2.866,6962.18,-4767.02,6104.52,13.3346,-38.5611,-9.74351,27371.9,-606.826,-4935.02,-30.3531,245.643,-147.159,471.196,10084.4,-2870.26,-15.1807,5.33911,-89.5331,-21394.2,-12578.4,-313.229,-33.6906,108.68,-263.31,4284.48,9442.53,-2099.17,66.4989,-156.772,-85.2184,5572.42,-4489.28,-3935.44,-67.1237,87.9401,-49.563,4575.65,1652.66,-1345.96,-102.414,-46.8618,-6.17718
2.867,6932.07,-4971.65,6114.19,13.046,-38.4869,-11.0314,27443.0,-616.461,-5199.22,-30.4885,241.388,-143.875,563.674,10100.8,-3060.08,-15.344,5.08017,-90.7265,-21542.4,-12399.9,-297.967,-32.5102,102.023,-258.872,4595.92,9464.06,-2125.32,66.8577,-157.652,-83.5421,5508.7,-4650.82,-4398.94,-66.1425,87.1737,-47.2325,4776.76,1648.4,-1421.98,-102.484,-45.7414,-6.09007
2.868,6866.73,-5071.84,6163.48,12.4619,-38.4226,-12.5399,27511.7,-517.852,-5411.54,-30.8601,237.014,-140.18,614.119,10127.5,-3213.09,-15.3693,4.7669,-92.0114,-21674.1,-12314.0,-314.518,-31.1103,94.8666,-254.002,4832.45,9498.34,-2094.13,67.0841,-157.501,-81.8574,5464.62,-4931.94,-4866.55,-63.6319,89.4693,-45.3698,4991.28,1642.9,-1470.83,-102.401,-44.5251,-6.14047
2.869,6801.38,-5172.02,6212.76,11.8779,-38.3584,-14.0484,27580.3,-419.243,-5623.86,-31.2316,232.64,-136.484,664.565,10154.2,-3366.1,-15.3947,4.45363,-93.2964,-21805.9,-12228.2,-331.069,-29.7104,87.7102,-249.132,5068.98,9532.62,-2062.95,67.3106,-157.349,-80.1727,5420.53,-5213.06,-5334.15,-61.1212,91.7649,-43.5071,5205.79,1637.4,-1519.68,-102.317,-43.3087,-6.19087
2.87,6736.03,-5272.2,6262.05,11.2938,-38.2942,-15.5569,27648.9,-320.634,-5836.18,-31.6032,228.266,-132.789,715.01,10180.9,-3519.11,-15.42,4.14036,-94.5813,-21937.6,-12142.4,-347.62,-28.3105,80.5538,-244.263,5305.5,9566.89,-2031.76,67.537,-157.197,-78.488,5376.45,-5494.18,-5801.76,-58.6106,94.0605,-41.6445,5420.3,1631.89,-1568.53,-102.233,-42.0924,-6.24127
2.871,6670.68,-5372.39,6311.34,10.7098,-38.23,-17.0655,27717.5,-222.025,-6048.5,-31.9747,223.892,-129.094,765.455,10207.6,-3672.12,-15.4454,3.8271,-95.8663,-22069.4,-12056.5,-364.171,-26.9106,73.3974,-239.393,5542.03,9601.17,-2000.58,67.7634,-157.046,-76.8033,5332.37,-5775.3,-6269.37,-56.1,96.3561,-39.7818,5634.82,1626.39,-1617.38,-102.15,-40.876,-6.29167
2.872,6626.5,-5363.28,6345.46,9.92811,-38.4548,-18.9071,27711.5,-123.86,-6264.26,-32.2923,219.681,-125.148,685.141,10248.3,-3798.99,-15.7459,3.01825,-97.2742,-22201.8,-12081.9,-461.657,-25.4924,67.0516,-234.014,5680.35,9634.61,-1914.36,68.3503,-156.424,-75.3203,5276.01,-6084.32,-6615.0,-52.7966,102.533,-38.3733,5925.04,1656.57,-1639.71,-103.007,-40.0975,-6.73529
2.873,6584.96,-5340.5,6377.7,9.12175,-38.7158,-20.7904,27696.2,-25.7506,-6480.45,-32.6032,215.491,-121.169,588.481,10290.7,-3922.59,-16.0807,2.14746,-98.6974,-22334.3,-12121.2,-569.261,-24.0718,60.8071,-228.571,5806.4,9667.93,-1821.25,68.9823,-155.744,-73.8625,5218.12,-6396.83,-6945.39,-49.3941,109.196,-37.0215,6224.72,1691.22,-1658.74,-103.981,-39.3736,-7.22806
2.874,6543.43,-5317.73,6409.93,8.31539,-38.9768,-22.6737,27680.9,72.3591,-6696.65,-32.9141,211.3,-117.191,491.822,10333.1,-4046.19,-16.4156,1.27667,-100.121,-22466.9,-12160.5,-676.864,-22.6513,54.5627,-223.128,5932.45,9701.26,-1728.15,69.6142,-155.063,-72.4047,5160.23,-6709.35,-7275.77,-45.9916,115.858,-35.6698,6524.41,1725.86,-1677.77,-104.955,-38.6497,-7.72083
2.875,6501.89,-5294.96,6442.16,7.50903,-39.2377,-24.557,27665.6,170.469,-6912.84,-33.2249,207.11,-113.213,395.163,10375.5,-4169.78,-16.7505,0.405873,-101.544,-22599.4,-12199.8,-784.467,-21.2307,48.3182,-217.685,6058.5,9734.59,-1635.05,70.2461,-154.383,-70.9469,5102.34,-7021.86,-7606.16,-42.589,122.521,-34.318,6824.09,1760.51,-1696.79,-105.929,-37.9258,-8.2136
2.876,6497.5,-5286.05,6459.97,6.63089,-39.5616,-26.4358,27688.9,248.5,-7115.91,-33.4009,203.17,-109.15,303.54,10432.1,-4244.87,-17.0528,-0.673077,-102.92,-22738.7,-12247.1,-892.252,-19.8795,42.6351,-212.254,6130.35,9804.38,-1530.91,70.4468,-154.19,-69.6224,5046.15,-7313.15,-7829.58,-39.4094,129.704,-33.2621,7152.24,1809.72,-1745.29,-106.987,-37.2658,-8.63754
2.877,6539.55,-5294.48,6459.76,5.66302,-39.9639,-28.309,27760.5,301.434,-7302.58,-33.4082,199.544,-104.98,218.213,10506.5,-4259.32,-17.3144,-2.01222,-104.236,-22886.6,-12304.6,-1000.26,-18.6149,37.6538,-206.837,6134.46,9919.74,-1412.97,70.1082,-154.606,-68.4646,4992.07,-7577.93,-7919.28,-36.5082,137.54,-32.5761,7515.98,1877.16,-1830.64,-108.15,-36.6855,-8.97543
2.878,6581.6,-5302.91,6459.54,4.69514,-40.3662,-30.1822,27832.1,354.368,-7489.26,-33.4155,195.918,-100.811,132.886,10580.9,-4273.77,-17.5761,-3.35137,-105.552,-23034.5,-12362.0,-1108.27,-17.3503,32.6724,-201.42,6138.56,10035.1,-1295.03,69.7696,-155.022,-67.3067,4937.99,-7842.71,-8008.98,-33.607,145.376,-31.89,7879.71,1944.59,-1915.99,-109.314,-36.1053,-9.31332
2.879,6623.64,-5311.34,6459.33,3.72727,-40.7686,-32.0554,27903.6,407.302,-7675.93,-33.4228,192.292,-96.641,47.5585,10655.2,-4288.23,-17.8377,-4.69051,-106.868,-23182.4,-12419.5,-1216.29,-16.0856,27.6911,-196.003,6142.67,10150.5,-1177.09,69.4311,-155.439,-66.1488,4883.91,-8107.49,-8098.67,-30.7058,153.211,-31.2039,8243.44,2012.02,-2001.34,-110.477,-35.525,-9.65122
2.88,6665.69,-5319.77,6459.12,2.7594,-41.1709,-33.9286,27975.2,460.236,-7862.6,-33.4301,188.666,-92.4714,-37.7688,10729.6,-4302.68,-18.0993,-6.02966,-108.185,-23330.3,-12476.9,-1324.3,-14.821,22.7098,-190.586,6146.77,10265.8,-1059.15,69.0925,-155.855,-64.991,4829.83,-8372.27,-8188.37,-27.8046,161.047,-30.5178,8607.17,2079.45,-2086.69,-111.64,-34.9448,-9.98911
2.881,6770.41,-5371.99,6478.18,1.81052,-41.558,-35.7069,28034.7,391.312,-8052.73,-32.9478,185.639,-88.37,-66.52,10831.8,-4306.77,-18.4794,-7.80527,-109.43,-23454.0,-12510.4,-1433.88,-13.7565,19.4928,-185.575,6099.13,10362.2,-1003.04,70.1879,-156.561,-62.5577,4797.01,-8619.08,-7980.72,-25.1081,166.08,-30.2208,8995.2,2112.72,-2112.95,-111.748,-33.8535,-9.97414
2.882,6875.14,-5424.22,6497.23,0.861636,-41.9452,-37.4852,28094.2,322.387,-8242.86,-32.4655,182.611,-84.2686,-95.2712,10934.0,-4310.86,-18.8595,-9.58087,-110.675,-23577.7,-12544.0,-1543.47,-12.6921,16.2758,-180.563,6051.49,10458.6,-946.927,71.2834,-157.266,-60.1243,4764.19,-8865.88,-7773.07,-22.4115,171.114,-29.9238,9383.22,2145.99,-2139.21,-111.856,-32.7622,-9.95916
2.883,6979.86,-5476.44,6516.29,-0.0872457,-42.3323,-39.2635,28153.7,253.462,-8432.98,-31.9832,179.583,-80.1672,-124.022,11036.2,-4314.96,-19.2396,-11.3565,-111.92,-23701.4,-12577.5,-1653.05,-11.6276,13.0588,-175.551,6003.85,10555.0,-890.817,72.3788,-157.972,-57.691,4731.36,-9112.68,-7565.42,-19.7149,176.148,-29.6268,9771.24,2179.25,-2165.47,-111.964,-31.6709,-9.94419
2.884,7084.59,-5528.67,6535.35,-1.03613,-42.7195,-41.0419,28213.2,184.537,-8623.11,-31.5009,176.555,-76.0658,-152.774,11138.4,-4319.05,-19.6196,-13.1321,-113.166,-23825.1,-12611.0,-1762.63,-10.5631,9.84176,-170.539,5956.21,10651.3,-834.707,73.4742,-158.677,-55.2577,4698.54,-9359.49,-7357.77,-17.0183,181.181,-29.3297,10159.3,2212.52,-2191.73,-112.071,-30.5797,-9.92921
2.885,7165.72,-5562.82,6569.45,-1.85468,-43.1852,-42.9576,28270.0,100.579,-8779.61,-30.7012,173.811,-72.075,-128.334,11204.5,-4330.26,-20.0463,-14.6371,-114.548,-23932.3,-12562.5,-1841.24,-9.97549,7.13527,-165.609,5852.46,10734.3,-766.943,74.21,-160.335,-53.3446,4686.0,-9629.75,-7060.96,-13.5558,183.801,-29.1891,10564.9,2228.05,-2180.48,-112.322,-29.652,-9.95429
2.886,7227.98,-5582.52,6615.57,-2.56896,-43.7138,-44.9833,28324.7,4.59456,-8909.22,-29.6476,171.293,-68.1727,-61.3407,11241.7,-4347.16,-20.5103,-15.9257,-116.041,-24026.2,-12448.2,-1895.06,-9.7694,4.83718,-160.746,5703.83,10806.6,-689.856,74.6583,-162.756,-51.8476,4689.68,-9918.78,-6692.81,-9.48052,184.488,-29.1737,10984.7,2229.4,-2139.23,-112.687,-28.8552,-10.0114
2.887,7290.25,-5602.21,6661.69,-3.28325,-44.2423,-47.0091,28379.4,-91.3902,-9038.83,-28.594,168.774,-64.2704,5.65219,11278.9,-4364.05,-20.9743,-17.2143,-117.534,-24120.0,-12333.9,-1948.88,-9.56331,2.53909,-155.882,5555.19,10878.8,-612.77,75.1065,-165.176,-50.3507,4693.36,-10207.8,-6324.66,-5.40524,185.176,-29.1582,11404.5,2230.74,-2097.97,-113.052,-28.0584,-10.0685
2.888,7352.51,-5621.91,6707.81,-3.99754,-44.7709,-49.0348,28434.0,-187.375,-9168.44,-27.5404,166.256,-60.3681,72.6451,11316.1,-4380.95,-21.4383,-18.5029,-119.026,-24213.9,-12219.6,-2002.7,-9.35722,0.240996,-151.018,5406.55,10951.1,-535.684,75.5548,-167.597,-48.8537,4697.04,-10496.8,-5956.51,-1.32995,185.864,-29.1427,11824.3,2232.09,-2056.71,-113.416,-27.2616,-10.1256
2.889,7403.76,-5637.66,6757.68,-4.69412,-45.3255,-51.0699,28488.6,-280.264,-9294.53,-26.4298,163.731,-56.4467,141.367,11351.4,-4397.39,-21.8895,-19.7717,-120.513,-24306.1,-12100.8,-2053.18,-9.22975,-1.94036,-146.168,5259.05,11017.5,-476.831,75.8968,-170.134,-47.4468,4699.32,-10783.9,-5589.32,2.89652,186.169,-29.1539,12234.9,2230.7,-2021.97,-113.829,-26.5547,-10.2403
2.89,7366.88,-5621.87,6837.54,-5.24905,-46.0886,-53.1796,28542.4,-348.393,-9392.49,-24.8625,161.153,-52.3727,223.92,11371.9,-4410.13,-22.239,-20.8828,-121.957,-24384.6,-11945.3,-2076.94,-9.73118,-3.18779,-141.426,5120.56,11036.4,-563.842,75.3895,-173.605,-46.7601,4690.46,-11055.0,-5229.79,8.3325,183.413,-29.3786,12572.3,2207.44,-2039.37,-114.627,-26.5663,-10.8154
2.891,7330.01,-5606.08,6917.39,-5.80398,-46.8517,-55.2894,28596.2,-416.521,-9490.45,-23.2953,158.575,-48.2988,306.473,11392.4,-4422.88,-22.5885,-21.9939,-123.4,-24463.2,-11789.9,-2100.71,-10.2326,-4.43523,-136.684,4982.07,11055.3,-650.854,74.8822,-177.076,-46.0734,4681.59,-11326.0,-4870.25,13.7685,180.657,-29.6033,12909.7,2184.18,-2056.78,-115.425,-26.578,-11.3905
2.892,7293.13,-5590.3,6997.24,-6.35891,-47.6148,-57.3991,28650.0,-484.649,-9588.41,-21.728,155.997,-44.2248,389.027,11412.9,-4435.62,-22.938,-23.105,-124.843,-24541.8,-11634.4,-2124.48,-10.7341,-5.68266,-131.942,4843.59,11074.2,-737.866,74.3749,-180.547,-45.3866,4672.73,-11597.1,-4510.72,19.2045,177.9,-29.828,13247.2,2160.91,-2074.18,-116.223,-26.5897,-11.9656
2.893,7256.25,-5574.51,7077.09,-6.91384,-48.3779,-59.5088,28703.9,-552.777,-9686.38,-20.1608,153.418,-40.1508,471.58,11433.4,-4448.37,-23.2875,-24.2161,-126.286,-24620.3,-11478.9,-2148.24,-11.2355,-6.93009,-127.2,4705.1,11093.0,-824.878,73.8676,-184.018,-44.6999,4663.87,-11868.2,-4151.19,24.6404,175.144,-30.0526,13584.6,2137.65,-2091.58,-117.021,-26.6014,-12.5408
2.894,7199.73,-5586.56,7174.31,-7.54971,-49.2917,-61.6172,28705.9,-613.059,-9785.51,-18.1213,150.675,-36.1706,526.914,11499.8,-4461.27,-23.9015,-25.302,-127.722,-24642.2,-11316.9,-2172.28,-11.9318,-7.78152,-122.187,4610.22,11097.2,-954.381,73.6418,-187.212,-43.6606,4616.21,-12013.5,-3794.56,29.3854,170.734,-30.1121,13833.0,2076.24,-2093.76,-117.387,-26.7732,-13.3353
2.895,7133.39,-5612.53,7280.21,-8.22606,-50.2808,-63.7249,28682.1,-669.418,-9885.23,-15.8457,147.849,-32.2372,568.638,11589.1,-4474.26,-24.6477,-26.3755,-129.154,-24635.8,-11151.6,-2196.45,-12.7255,-8.43493,-117.038,4537.15,11093.9,-1105.13,73.5566,-190.267,-42.4451,4549.15,-12095.8,-3439.39,33.7849,165.497,-30.0889,14036.9,1995.77,-2088.31,-117.536,-27.025,-14.2396
2.896,7067.05,-5638.5,7386.12,-8.9024,-51.2699,-65.8326,28658.3,-725.778,-9984.95,-13.57,145.023,-28.3038,610.362,11678.4,-4487.24,-25.394,-27.4489,-130.586,-24629.4,-10986.4,-2220.62,-13.5192,-9.08834,-111.889,4464.07,11090.6,-1255.88,73.4715,-193.323,-41.2295,4482.09,-12178.2,-3084.21,38.1843,160.261,-30.0658,14240.8,1915.29,-2082.87,-117.685,-27.2768,-15.1438
2.897,7000.71,-5664.47,7492.02,-9.57875,-52.259,-67.9403,28634.5,-782.137,-10084.7,-11.2944,142.197,-24.3704,652.086,11767.7,-4500.22,-26.1402,-28.5224,-132.018,-24622.9,-10821.1,-2244.79,-14.3129,-9.74176,-106.74,4391.0,11087.3,-1406.63,73.3863,-196.378,-40.014,4415.03,-12260.6,-2729.04,42.5838,155.025,-30.0426,14444.7,1834.81,-2077.42,-117.834,-27.5286,-16.0481
2.898,6934.34,-5690.09,7587.92,-10.2869,-53.3312,-70.0633,28599.3,-823.743,-10181.4,-8.87045,139.365,-20.3579,678.414,11866.0,-4506.38,-26.801,-29.567,-133.417,-24605.4,-10650.1,-2272.57,-15.0979,-10.2528,-101.578,4328.76,11071.7,-1555.61,73.3341,-199.378,-38.83,4321.13,-12307.1,-2380.53,46.3237,149.54,-29.9372,14613.4,1742.98,-2074.94,-117.704,-27.7603,-17.1331
2.899,6867.88,-5714.53,7648.82,-11.1063,-54.6938,-72.2397,28524.1,-813.712,-10267.9,-5.92742,136.509,-16.0686,650.856,11995.9,-4488.64,-27.1625,-30.5109,-134.697,-24548.8,-10459.0,-2312.97,-15.8522,-10.2658,-96.3698,4304.44,11012.9,-1698.42,73.3971,-202.185,-37.7565,4133.27,-12228.3,-2055.36,47.755,143.185,-29.5439,14658.8,1611.38,-2082.81,-116.598,-27.9217,-18.8508
2.9,6801.42,-5738.96,7709.71,-11.9257,-56.0564,-74.416,28448.8,-803.681,-10354.3,-2.9844,133.653,-11.7793,623.298,12125.8,-4470.9,-27.5241,-31.4548,-135.977,-24492.3,-10268.0,-2353.37,-16.6065,-10.2788,-91.1618,4280.13,10954.1,-1841.22,73.4602,-204.991,-36.683,3945.42,-12149.4,-1730.18,49.1863,136.83,-29.1506,14704.2,1479.78,-2090.68,-115.491,-28.0831,-20.5684
2.901,6734.96,-5763.39,7770.61,-12.745,-57.4191,-76.5924,28373.6,-793.651,-10440.8,-0.0413681,130.797,-7.48992,595.741,12255.8,-4453.15,-27.8857,-32.3987,-137.257,-24435.8,-10076.9,-2393.77,-17.3608,-10.2917,-85.9539,4255.81,10895.3,-1984.02,73.5232,-207.798,-35.6095,3757.56,-12070.5,-1405.01,50.6176,130.475,-28.7573,14749.6,1348.18,-2098.55,-114.384,-28.2446,-22.2861
2.902,6668.5,-5787.82,7831.51,-13.5644,-58.7817,-78.7687,28298.4,-783.62,-10527.2,2.90166,127.941,-3.20058,568.183,12385.7,-4435.41,-28.2473,-33.3426,-138.537,-24379.2,-9885.83,-2434.17,-18.1151,-10.3047,-80.746,4231.5,10836.5,-2126.83,73.5863,-210.605,-34.536,3569.7,-11991.6,-1079.84,52.049,124.12,-28.364,14795.0,1216.58,-2106.42,-113.277,-28.406,-24.0038
2.903,6661.02,-5756.66,7899.3,-14.4248,-60.3689,-80.8459,28229.7,-802.706,-10636.3,5.9022,124.942,1.03098,536.535,12503.2,-4350.24,-28.6163,-34.6867,-139.716,-24308.6,-9724.54,-2456.0,-18.7595,-9.91943,-75.3261,4212.94,10773.7,-2290.28,73.5304,-212.896,-34.0003,3294.7,-11864.8,-805.354,51.2457,118.436,-27.7491,14727.0,1085.47,-2153.56,-112.07,-28.6007,-25.8144
2.904,6670.39,-5709.63,7969.07,-15.2968,-62.0204,-82.8948,28162.8,-830.11,-10751.9,8.91918,121.902,5.24604,503.719,12617.2,-4245.81,-28.9875,-36.1452,-140.865,-24234.0,-9571.75,-2472.52,-19.3725,-9.42041,-69.8457,4196.03,10709.7,-2459.63,73.4405,-215.041,-33.6182,2994.8,-11724.3,-545.355,49.8039,112.944,-27.0709,14626.6,954.499,-2211.91,-110.833,-28.805,-27.6516
2.905,6679.77,-5662.59,8038.83,-16.1689,-63.6718,-84.9437,28095.9,-857.515,-10867.5,11.9362,118.861,9.4611,470.903,12731.1,-4141.38,-29.3587,-37.6036,-142.015,-24159.4,-9418.97,-2489.04,-19.9856,-8.92139,-64.3652,4179.12,10645.7,-2628.98,73.3505,-217.186,-33.2362,2694.9,-11583.8,-285.356,48.3622,107.452,-26.3928,14526.2,823.529,-2270.26,-109.597,-29.0093,-29.4888
2.906,6689.14,-5615.55,8108.6,-17.041,-65.3232,-86.9926,28029.0,-884.919,-10983.0,14.9531,115.821,13.6762,438.087,12845.1,-4036.95,-29.7299,-39.0621,-143.165,-24084.7,-9266.19,-2505.56,-20.5986,-8.42237,-58.8848,4162.21,10581.8,-2798.33,73.2606,-219.331,-32.8541,2395.0,-11443.3,-25.3573,46.9205,101.959,-25.7146,14425.8,692.56,-2328.61,-108.36,-29.2136,-31.326
2.907,6716.54,-5567.55,8190.19,-17.8804,-67.0371,-89.0245,27967.8,-932.436,-11059.8,17.6706,112.645,17.6565,411.431,12970.4,-3950.33,-30.0852,-40.6783,-144.359,-24006.8,-9129.55,-2520.93,-21.1237,-7.87675,-53.4711,4145.29,10542.7,-2947.41,73.1204,-221.245,-32.6484,2100.55,-11312.0,205.551,44.8258,97.134,-25.0747,14336.8,564.474,-2386.36,-107.137,-29.5643,-33.2552
2.908,6780.02,-5517.64,8295.44,-18.6547,-68.8761,-91.0224,27918.0,-1020.18,-11058.8,19.789,109.198,21.1673,397.096,13118.6,-3899.35,-30.4085,-42.6098,-145.642,-23922.3,-9025.19,-2533.97,-21.473,-7.23793,-48.1912,4128.34,10553.6,-3055.94,72.8794,-222.698,-32.7953,1817.01,-11199.2,378.277,41.4254,93.6421,-24.5115,14270.4,442.156,-2442.91,-105.941,-30.208,-35.3683
2.909,6843.49,-5467.73,8400.68,-19.429,-70.7151,-93.0204,27868.1,-1107.92,-11057.9,21.9074,105.752,24.6781,382.762,13266.8,-3848.36,-30.7318,-44.5413,-146.926,-23837.8,-8920.84,-2547.02,-21.8224,-6.59911,-42.9113,4111.39,10564.4,-3164.48,72.6384,-224.15,-32.9422,1533.47,-11086.3,551.003,38.025,90.1502,-23.9482,14204.1,319.838,-2499.46,-104.744,-30.8516,-37.4814
2.91,6906.96,-5417.82,8505.93,-20.2033,-72.554,-95.0184,27818.3,-1195.66,-11056.9,24.0258,102.305,28.1889,368.427,13414.9,-3797.37,-31.0551,-46.4728,-148.209,-23753.3,-8816.48,-2560.07,-22.1717,-5.9603,-37.6313,4094.44,10575.3,-3273.02,72.3974,-225.603,-33.089,1249.92,-10973.5,723.729,34.6246,86.6582,-23.385,14137.8,197.52,-2556.0,-103.548,-31.4953,-39.5945
2.911,6970.44,-5367.91,8611.17,-20.9776,-74.393,-97.0164,27768.4,-1283.4,-11056.0,26.1443,98.8583,31.6997,354.092,13563.1,-3746.39,-31.3784,-48.4044,-149.493,-23668.7,-8712.13,-2573.12,-22.521,-5.32148,-32.3514,4077.49,10586.1,-3381.55,72.1564,-227.056,-33.2359,966.382,-10860.7,896.455,31.2242,83.1663,-22.8217,14071.4,75.2019,-2612.55,-102.352,-32.1389,-41.7076
2.912,6981.26,-5372.17,8687.81,-21.8146,-76.4049,-99.1311,27670.7,-1356.73,-11015.1,28.0085,95.0087,34.9252,412.682,13677.5,-3692.57,-31.6869,-50.3969,-150.55,-23623.3,-8640.88,-2545.02,-22.8308,-5.267,-26.9854,4038.54,10679.4,-3431.76,71.5987,-227.897,-33.5728,763.063,-10810.4,975.321,27.6551,81.0037,-22.6968,14052.7,78.1678,-2714.82,-101.18,-33.0172,-43.7803
2.913,6985.51,-5383.21,8760.88,-22.6594,-78.4384,-101.26,27566.9,-1428.26,-10969.2,29.8409,91.1086,38.1151,480.387,13787.7,-3638.4,-31.9935,-52.397,-151.579,-23582.8,-8573.76,-2511.79,-23.1357,-5.28556,-21.6086,3996.85,10783.0,-3474.67,71.0014,-228.663,-33.9335,569.773,-10768.0,1042.45,24.065,79.0073,-22.6266,14039.8,96.7941,-2822.81,-100.011,-33.9248,-45.8478
2.914,6989.76,-5394.24,8833.94,-23.5042,-80.4719,-103.39,27463.1,-1499.8,-10923.3,31.6733,87.2086,41.3049,548.092,13897.8,-3584.23,-32.3001,-54.3971,-152.608,-23542.3,-8506.65,-2478.55,-23.4406,-5.30412,-16.2319,3955.16,10886.7,-3517.59,70.4041,-229.428,-34.2942,376.482,-10725.5,1109.59,20.4748,77.0109,-22.5564,14027.0,115.421,-2930.8,-98.8419,-34.8324,-47.9154
2.915,6994.01,-5405.28,8907.0,-24.349,-82.5054,-105.519,27359.3,-1571.33,-10877.4,33.5057,83.3086,44.4948,615.798,14008.0,-3530.06,-32.6067,-56.3972,-153.637,-23501.7,-8439.54,-2445.32,-23.7455,-5.32268,-10.8551,3913.47,10990.3,-3560.51,69.8068,-230.193,-34.6549,183.192,-10683.1,1176.72,16.8847,75.0145,-22.4863,14014.2,134.047,-3038.79,-97.673,-35.74,-49.9829
2.916,6977.53,-5417.08,8992.94,-25.1983,-84.6893,-107.614,27252.3,-1592.08,-10825.4,35.359,79.3556,47.7483,695.214,14126.6,-3454.73,-32.913,-58.3329,-154.708,-23489.0,-8387.12,-2393.82,-23.848,-5.84198,-5.4332,3853.6,11101.2,-3589.28,68.9849,-230.519,-34.8553,32.2933,-10670.3,1189.07,13.8888,73.2815,-22.6008,14020.9,165.787,-3132.35,-96.6478,-36.6786,-51.828
2.917,6935.15,-5429.84,9094.98,-26.0532,-87.061,-109.665,27141.0,-1549.34,-10765.8,37.2385,75.3366,51.0815,789.27,14255.6,-3352.94,-33.2189,-60.188,-155.83,-23511.2,-8353.09,-2319.49,-23.6973,-6.9872,0.0452225,3770.99,11221.2,-3600.37,67.8821,-230.295,-34.8553,-65.6155,-10694.4,1132.92,11.6359,71.8778,-22.9463,14052.1,213.921,-3207.89,-95.8021,-37.656,-53.395
2.918,6892.78,-5442.6,9197.02,-26.9081,-89.4328,-111.716,27029.8,-1506.6,-10706.2,39.118,71.3175,54.4147,883.325,14384.6,-3251.16,-33.5248,-62.0431,-156.952,-23533.3,-8319.05,-2245.17,-23.5466,-8.13243,5.52365,3688.38,11341.2,-3611.46,66.7794,-230.07,-34.8553,-163.524,-10718.6,1076.78,9.38303,70.4741,-23.2917,14083.4,262.054,-3283.43,-94.9564,-38.6333,-54.9619
2.919,6850.4,-5455.36,9299.06,-27.763,-91.8046,-113.767,26918.6,-1463.86,-10646.6,40.9975,67.2984,57.7478,977.38,14513.6,-3149.37,-33.8307,-63.8982,-158.074,-23555.4,-8285.01,-2170.84,-23.3959,-9.27766,11.0021,3605.78,11461.3,-3622.54,65.6767,-229.846,-34.8553,-261.433,-10742.8,1020.64,7.13013,69.0704,-23.6372,14114.6,310.187,-3358.97,-94.1108,-39.6107,-56.5289
2.92,6808.02,-5468.12,9401.1,-28.6179,-94.1764,-115.818,26807.4,-1421.13,-10587.0,42.877,63.2793,61.081,1071.44,14642.6,-3047.58,-34.1366,-65.7533,-159.196,-23577.5,-8250.98,-2096.51,-23.2452,-10.4229,16.4805,3523.17,11581.3,-3633.63,64.574,-229.622,-34.8552,-359.342,-10766.9,964.495,4.87723,67.6667,-23.9826,14145.8,358.32,-3434.51,-93.2651,-40.5881,-58.0958
2.921,6745.44,-5418.09,9533.67,-29.4211,-97.0412,-117.73,26648.2,-1332.19,-10509.8,44.1057,59.4638,64.4074,1199.33,14690.6,-2915.21,-34.3883,-67.1826,-160.322,-23547.1,-8271.27,-2016.87,-22.8254,-12.7381,21.9027,3393.97,11721.3,-3647.13,63.0203,-228.689,-34.8458,-350.228,-10768.3,845.011,4.26811,66.0165,-24.412,14178.0,384.334,-3515.26,-92.0415,-41.4785,-58.9902
2.922,6682.86,-5368.05,9666.24,-30.2242,-99.9061,-119.643,26489.0,-1243.24,-10432.6,45.3345,55.6483,67.7338,1327.22,14738.5,-2782.85,-34.64,-68.6118,-161.448,-23516.6,-8291.57,-1937.24,-22.4057,-15.0534,27.3249,3264.78,11861.2,-3660.62,61.4666,-227.756,-34.8364,-341.115,-10769.8,725.526,3.65899,64.3663,-24.8413,14210.2,410.347,-3596.0,-90.818,-42.3689,-59.8845
2.923,6620.28,-5318.02,9798.81,-31.0273,-102.771,-121.555,26329.8,-1154.3,-10355.4,46.5632,51.8327,71.0603,1455.11,14786.5,-2650.48,-34.8917,-70.041,-162.575,-23486.1,-8311.86,-1857.6,-21.9859,-17.3686,32.7472,3135.58,12001.2,-3674.11,59.913,-226.822,-34.827,-332.001,-10771.2,606.042,3.04987,62.7161,-25.2707,14242.4,436.361,-3676.75,-89.5944,-43.2594,-60.7788
2.924,6557.71,-5267.99,9931.38,-31.8304,-105.636,-123.468,26170.6,-1065.36,-10278.1,47.792,48.0172,74.3867,1583.0,14834.5,-2518.11,-35.1434,-71.4702,-163.701,-23455.7,-8332.16,-1777.96,-21.5661,-19.6839,38.1694,3006.39,12141.1,-3687.6,58.3593,-225.889,-34.8176,-322.888,-10772.6,486.558,2.44075,61.0659,-25.7,14274.6,462.374,-3757.49,-88.3708,-44.1498,-61.6731
2.925,6496.39,-5193.66,10042.1,-32.6199,-108.772,-125.323,26013.9,-939.475,-10141.3,49.1191,44.2724,77.8226,1669.48,14878.9,-2409.86,-35.4019,-72.7332,-165.025,-23407.3,-8372.96,-1738.22,-21.1526,-22.5201,43.2812,2873.98,12279.8,-3686.81,56.7341,-224.597,-34.8284,-260.194,-10718.8,359.483,2.32859,59.1404,-25.8041,14285.5,453.974,-3856.52,-86.5772,-44.7036,-62.193
2.926,6436.1,-5099.91,10135.4,-33.3983,-112.126,-127.132,25859.3,-784.029,-9956.71,50.5249,40.5843,81.3461,1722.84,14920.4,-2320.91,-35.6659,-73.8633,-166.508,-23344.5,-8430.16,-1730.4,-20.7441,-25.7731,48.1446,2739.01,12417.4,-3674.59,55.0518,-223.017,-34.8552,-154.634,-10620.9,226.336,2.614,56.9946,-25.648,14279.2,418.043,-3970.18,-84.3275,-44.9881,-62.4133
2.927,6375.8,-5006.16,10228.6,-34.1768,-115.479,-128.94,25704.6,-628.582,-9772.14,51.9307,36.8961,84.8696,1776.2,14961.9,-2231.95,-35.9299,-74.9933,-167.992,-23281.8,-8487.36,-1722.58,-20.3356,-29.0261,53.008,2604.04,12555.0,-3662.37,53.3695,-221.437,-34.8821,-49.0753,-10522.9,93.1888,2.8994,54.8488,-25.4919,14272.9,382.112,-4083.83,-82.0779,-45.2726,-62.6336
2.928,6315.51,-4912.4,10321.9,-34.9553,-118.833,-130.749,25550.0,-473.136,-9587.57,53.3364,33.208,88.3931,1829.55,15003.4,-2142.99,-36.1939,-76.1233,-169.475,-23219.0,-8544.57,-1714.77,-19.9271,-32.2791,57.8714,2469.07,12692.6,-3650.15,51.6871,-219.857,-34.909,56.4839,-10424.9,-39.9583,3.18481,52.703,-25.3358,14266.7,346.181,-4197.49,-79.8282,-45.5571,-62.8539
2.929,6262.06,-4819.93,10416.2,-35.7263,-122.226,-132.525,25388.7,-316.72,-9399.35,54.7157,29.5069,91.9285,1873.05,15057.0,-2047.79,-36.4623,-77.2597,-170.909,-23147.4,-8600.24,-1709.94,-19.539,-35.6123,62.6983,2334.88,12829.4,-3634.26,50.0046,-218.225,-34.9766,160.428,-10319.8,-177.102,3.51133,50.5984,-25.0858,14264.0,303.784,-4306.1,-77.5519,-45.8314,-63.0146
2.93,6263.37,-4737.74,10518.4,-36.4369,-125.94,-134.036,25174.5,-152.546,-9181.99,55.8832,25.7023,95.5596,1837.63,15207.5,-1902.56,-36.7654,-78.4468,-171.95,-23004.8,-8643.71,-1729.02,-19.3139,-39.5868,67.2326,2206.92,12960.0,-3589.05,48.3201,-216.18,-35.3697,251.45,-10157.0,-346.216,4.16679,48.8232,-24.0845,14289.8,209.659,-4374.36,-75.0628,-46.0241,-62.6984
2.931,6264.68,-4655.56,10620.7,-37.1475,-129.653,-135.547,24960.3,11.6292,-8964.63,57.0506,21.8976,99.1906,1802.21,15358.0,-1757.34,-37.0686,-79.634,-172.992,-22862.2,-8687.18,-1748.1,-19.0887,-43.5614,71.7669,2078.97,13090.6,-3543.84,46.6356,-214.134,-35.7628,342.472,-9994.26,-515.33,4.82226,47.048,-23.0832,14315.5,115.533,-4442.62,-72.5736,-46.2168,-62.3822
2.932,6265.99,-4573.37,10722.9,-37.8581,-133.366,-137.058,24746.1,175.804,-8747.27,58.2181,18.093,102.822,1766.8,15508.5,-1612.12,-37.3717,-80.8211,-174.033,-22719.6,-8730.65,-1767.18,-18.8636,-47.5359,76.3012,1951.02,13221.2,-3498.62,44.9511,-212.088,-36.156,433.495,-9831.5,-684.443,5.47772,45.2729,-22.082,14341.3,21.408,-4510.89,-70.0844,-46.4095,-62.066
2.933,6267.31,-4491.18,10825.2,-38.5687,-137.08,-138.569,24531.9,339.979,-8529.91,59.3855,14.2884,106.453,1731.38,15658.9,-1466.9,-37.6749,-82.0083,-175.074,-22576.9,-8774.11,-1786.26,-18.6384,-51.5105,80.8354,1823.06,13351.8,-3453.41,43.2667,-210.042,-36.5491,524.517,-9668.74,-853.557,6.13319,43.4977,-21.0807,14367.1,-72.7174,-4579.15,-67.5953,-46.6023,-61.7498
2.934,6305.88,-4435.61,10938.4,-39.2015,-140.812,-139.954,24258.4,392.892,-8309.49,59.7915,10.6529,109.837,1729.37,15805.0,-1316.28,-37.8357,-83.4717,-176.029,-22390.9,-8778.97,-1784.91,-18.512,-55.8528,84.8547,1760.63,13486.2,-3422.58,41.3538,-207.616,-37.173,552.118,-9484.26,-1022.58,6.8537,42.486,-19.623,14399.5,-136.426,-4633.97,-65.0043,-46.4489,-61.2663
2.935,6363.09,-4393.35,11057.1,-39.7954,-144.553,-141.278,23955.3,390.175,-8087.55,59.8169,7.10205,113.098,1744.08,15948.8,-1162.97,-37.9254,-85.0732,-176.939,-22183.2,-8764.53,-1773.35,-18.4348,-60.3789,88.6164,1730.97,13622.5,-3398.95,39.3268,-205.0,-37.9124,548.008,-9288.91,-1191.55,7.60673,41.856,-17.9371,14435.2,-184.926,-4682.06,-62.3625,-46.1225,-60.6991
2.936,6420.3,-4351.08,11175.7,-40.3893,-148.294,-142.601,23652.3,387.457,-7865.6,59.8422,3.55119,116.36,1758.78,16092.7,-1009.66,-38.015,-86.6747,-177.849,-21975.4,-8750.09,-1761.79,-18.3576,-64.9051,92.3782,1701.31,13758.7,-3375.32,37.2998,-202.384,-38.6518,543.898,-9093.57,-1360.52,8.35976,41.226,-16.2512,14470.9,-233.426,-4730.16,-59.7207,-45.7961,-60.1318
2.937,6477.5,-4308.82,11294.4,-40.9831,-152.035,-143.925,23349.2,384.74,-7643.66,59.8675,0.000339348,119.621,1773.48,16236.5,-856.349,-38.1046,-88.2762,-178.76,-21767.7,-8735.64,-1750.23,-18.2804,-69.4313,96.1399,1671.65,13895.0,-3351.68,35.2727,-199.767,-39.3911,539.788,-8898.22,-1529.49,9.11279,40.596,-14.5653,14506.6,-281.926,-4778.26,-57.0789,-45.4697,-59.5646
2.938,6517.25,-4261.77,11403.4,-41.5385,-155.82,-145.26,23027.1,387.425,-7419.37,59.7433,-3.32278,122.804,1830.99,16368.8,-716.598,-38.2473,-89.7749,-179.606,-21534.0,-8726.1,-1742.02,-18.0786,-73.9779,99.7473,1665.05,14030.8,-3333.36,33.1615,-197.051,-40.1423,501.863,-8708.22,-1662.85,9.84908,40.0377,-12.7423,14546.5,-327.182,-4820.68,-54.5076,-44.9878,-59.0395
2.939,6495.89,-4197.95,11478.9,-41.9589,-159.756,-146.638,22638.6,409.02,-7186.88,59.0953,-5.84884,125.712,2038.36,16460.6,-624.308,-38.5752,-90.9139,-180.228,-21209.7,-8733.68,-1745.54,-17.4406,-78.5962,102.814,1739.16,14164.9,-3333.6,30.7553,-193.984,-40.9352,345.584,-8536.93,-1671.57,10.5268,39.7301,-10.4394,14600.9,-361.085,-4843.25,-52.1832,-43.9616,-58.6615
2.94,6474.54,-4134.14,11554.3,-42.3794,-163.692,-148.016,22250.0,430.615,-6954.39,58.4474,-8.3749,128.621,2245.72,16552.4,-532.018,-38.9032,-92.0528,-180.849,-20885.3,-8741.27,-1749.06,-16.8026,-83.2145,105.881,1813.28,14299.0,-3333.85,28.3492,-190.917,-41.728,189.305,-8365.65,-1680.3,11.2045,39.4224,-8.13647,14655.2,-394.987,-4865.83,-49.8588,-42.9354,-58.2835
2.941,6453.18,-4070.32,11629.8,-42.7999,-167.628,-149.393,21861.5,452.21,-6721.9,57.7995,-10.901,131.53,2453.09,16644.2,-439.728,-39.2312,-93.1918,-181.471,-20561.0,-8748.86,-1752.57,-16.1646,-87.8329,108.948,1887.4,14433.1,-3334.09,25.943,-187.85,-42.5208,33.026,-8194.36,-1689.02,11.8822,39.1148,-5.83357,14709.6,-428.89,-4888.4,-47.5344,-41.9092,-57.9055
2.942,6431.82,-4006.51,11705.2,-43.2203,-171.564,-150.771,21472.9,473.804,-6489.41,57.1515,-13.427,134.439,2660.45,16736.0,-347.438,-39.5592,-94.3308,-182.092,-20236.7,-8756.45,-1756.09,-15.5266,-92.4512,112.015,1961.52,14567.2,-3334.34,23.5369,-184.783,-43.3136,-123.253,-8023.08,-1697.74,12.5599,38.8072,-3.53067,14764.0,-462.792,-4910.98,-45.21,-40.8829,-57.5276
2.943,6328.59,-3960.96,11785.6,-43.2595,-175.881,-151.942,21036.2,586.198,-6212.14,56.605,-15.2557,137.171,2885.77,16786.0,-204.429,-39.7754,-95.1224,-182.649,-19899.4,-8709.47,-1790.77,-14.9008,-96.5558,114.29,2086.53,14662.0,-3337.32,21.2025,-181.468,-44.0678,-356.215,-7876.08,-1546.14,13.1024,37.6299,-0.849311,14715.9,-444.299,-4949.62,-43.5715,-39.4351,-56.8352
2.944,6201.97,-3920.63,11867.4,-43.1899,-180.306,-153.054,20585.6,724.534,-5922.08,56.0875,-16.885,139.852,3116.21,16824.2,-46.9283,-39.9596,-95.8149,-183.187,-19558.5,-8646.91,-1834.34,-14.2785,-100.514,116.339,2226.09,14745.6,-3341.07,18.8886,-178.082,-44.811,-611.086,-7736.03,-1348.73,13.6062,36.2042,1.94018,14638.4,-410.836,-4992.84,-42.129,-37.8667,-56.053
2.945,6075.34,-3880.31,11949.2,-43.1202,-184.73,-154.166,20135.0,862.87,-5632.02,55.57,-18.5144,142.534,3346.65,16862.3,110.572,-40.1438,-96.5073,-183.725,-19217.6,-8584.34,-1877.92,-13.6562,-104.471,118.387,2365.65,14829.1,-3344.83,16.5747,-174.696,-45.5542,-865.958,-7595.97,-1151.32,14.1101,34.7784,4.72968,14561.0,-377.372,-5036.07,-40.6864,-36.2983,-55.2708
2.946,5948.72,-3839.98,12030.9,-43.0505,-189.155,-155.278,19684.5,1001.21,-5341.96,55.0525,-20.1438,145.216,3577.09,16900.4,268.073,-40.3281,-97.1997,-184.263,-18876.7,-8521.77,-1921.49,-13.0339,-108.429,120.436,2505.21,14912.7,-3348.58,14.2608,-171.31,-46.2973,-1120.83,-7455.92,-953.917,14.6139,33.3527,7.51917,14483.5,-343.909,-5079.3,-39.2439,-34.73,-54.4887
2.947,5831.3,-3801.22,12120.3,-42.8418,-193.708,-156.309,19239.0,1132.58,-5048.7,54.4942,-21.4288,147.748,3765.45,16931.7,381.099,-40.5343,-97.5205,-184.948,-18534.7,-8419.77,-1971.38,-12.5036,-112.125,122.132,2647.85,14969.9,-3350.52,12.0132,-167.919,-46.9794,-1420.97,-7291.58,-734.349,14.8579,31.5183,10.4665,14399.3,-329.009,-5136.31,-37.3338,-33.2521,-53.5701
2.948,5732.3,-3765.57,12224.8,-42.3552,-198.518,-157.178,18803.6,1250.03,-4749.06,53.8542,-22.0249,149.981,3869.64,16949.3,405.179,-40.7846,-97.0982,-185.925,-18190.4,-8238.9,-2033.9,-12.1572,-115.296,123.122,2796.65,14974.4,-3348.82,9.89841,-164.517,-47.5394,-1811.63,-7078.67,-470.461,14.5824,28.8667,13.7295,14301.4,-351.236,-5220.91,-34.4884,-31.9552,-52.3789
2.949,5633.3,-3729.92,12329.3,-41.8685,-203.327,-158.048,18368.2,1367.48,-4449.42,53.2142,-22.621,152.215,3973.84,16966.9,429.259,-41.0349,-96.6758,-186.903,-17846.1,-8058.03,-2096.41,-11.8108,-118.467,124.113,2945.45,14979.0,-3347.13,7.78357,-161.116,-48.0993,-2202.3,-6865.77,-206.573,14.3068,26.2151,16.9926,14203.6,-373.462,-5305.51,-31.6431,-30.6583,-51.1877
2.95,5534.3,-3694.27,12433.8,-41.3819,-208.137,-158.917,17932.8,1484.93,-4149.78,52.5742,-23.2172,154.448,4078.03,16984.5,453.338,-41.2851,-96.2535,-187.881,-17501.8,-7877.16,-2158.92,-11.4644,-121.639,125.103,3094.24,14983.6,-3345.43,5.66874,-157.714,-48.6593,-2592.97,-6652.86,57.3148,14.0313,23.5635,20.2556,14105.7,-395.688,-5390.11,-28.7978,-29.3614,-49.9965
2.951,5435.29,-3658.62,12538.3,-40.8952,-212.946,-159.786,17497.4,1602.38,-3850.13,51.9342,-23.8133,156.681,4182.22,17002.1,477.418,-41.5354,-95.8311,-188.858,-17157.5,-7696.29,-2221.44,-11.118,-124.81,126.094,3243.04,14988.1,-3343.73,3.5539,-154.312,-49.2193,-2983.64,-6439.95,321.203,13.7557,20.9119,23.5186,14007.8,-417.915,-5474.71,-25.9524,-28.0645,-48.8052
2.952,5430.66,-3581.94,12579.9,-40.2724,-217.798,-160.484,17071.8,1702.25,-3586.12,51.0743,-23.8238,158.43,4212.75,17038.5,571.238,-41.7931,-95.4099,-189.666,-16776.8,-7471.75,-2287.55,-11.1292,-127.308,126.481,3396.86,14996.1,-3307.04,1.73704,-150.968,-49.6257,-3494.23,-6170.13,583.013,12.1384,17.8964,27.4451,13940.1,-328.163,-5485.33,-25.1398,-26.3299,-47.6353
2.953,5437.82,-3500.14,12613.7,-39.6326,-222.655,-161.16,16647.4,1799.93,-3326.55,50.1869,-23.761,160.118,4234.07,17077.3,673.777,-42.0518,-94.9887,-190.452,-16391.5,-7241.74,-2354.11,-11.1851,-129.721,126.793,3551.31,15004.5,-3265.97,-0.0425706,-147.631,-50.0129,-4019.82,-5893.19,844.565,10.3535,14.8355,31.4545,13876.2,-224.414,-5486.69,-24.5812,-24.5406,-46.4681
2.954,5444.98,-3418.34,12647.4,-38.9928,-227.512,-161.835,16223.0,1897.61,-3066.98,49.2995,-23.6983,161.805,4255.39,17116.1,776.315,-42.3104,-94.5676,-191.238,-16006.2,-7011.74,-2420.67,-11.2411,-132.134,127.105,3705.75,15012.8,-3224.9,-1.82218,-144.294,-50.4001,-4545.41,-5616.25,1106.12,8.56851,11.7746,35.4639,13812.2,-120.665,-5488.06,-24.0226,-22.7513,-45.3009
2.955,5452.13,-3336.54,12681.2,-38.353,-232.37,-162.511,15798.6,1995.28,-2807.42,48.4121,-23.6356,163.493,4276.71,17154.9,878.854,-42.5691,-94.1465,-192.024,-15620.9,-6781.74,-2487.24,-11.297,-134.547,127.417,3860.2,15021.2,-3183.83,-3.60179,-140.957,-50.7873,-5070.99,-5339.32,1367.67,6.78354,8.71367,39.4733,13748.2,-16.916,-5489.43,-23.464,-20.962,-44.1337
2.956,5468.03,-3247.13,12704.3,-37.6983,-237.204,-163.109,15337.3,2153.43,-2641.87,46.0532,-23.2044,165.356,4339.78,17202.1,1039.0,-42.8626,-94.1597,-192.557,-15208.5,-6546.02,-2557.67,-11.6489,-136.653,127.407,4020.94,15025.8,-3114.6,-5.37393,-137.684,-51.1839,-5617.23,-5091.07,1609.3,4.59176,5.80175,43.5492,13678.0,68.2847,-5481.27,-23.0815,-19.2892,-43.0202
2.957,5494.84,-3148.23,12714.1,-37.0251,-242.01,-163.608,14829.6,2387.17,-2593.83,41.8551,-22.3127,167.437,4455.02,17259.8,1271.15,-43.1997,-94.7159,-192.772,-14762.0,-6303.14,-2632.95,-12.3706,-138.375,126.996,4189.54,15025.7,-3010.17,-7.13672,-134.49,-51.5924,-6189.29,-4878.67,1826.04,1.89147,3.07609,47.7083,13599.8,130.3,-5461.2,-22.9192,-17.762,-41.9738
2.958,5521.64,-3049.32,12723.8,-36.3518,-246.816,-164.107,14322.0,2620.9,-2545.79,37.6569,-21.421,169.518,4570.26,17317.5,1503.3,-43.5368,-95.2721,-192.988,-14315.6,-6060.27,-2708.23,-13.0923,-140.096,126.585,4358.14,15025.5,-2905.74,-8.89952,-131.296,-52.0009,-6761.35,-4666.28,2042.77,-0.808828,0.350434,51.8674,13521.6,192.315,-5441.14,-22.7569,-16.2348,-40.9274
2.959,5548.45,-2950.42,12733.5,-35.6786,-251.622,-164.607,13814.4,2854.63,-2497.75,33.4588,-20.5293,171.599,4685.5,17375.2,1735.45,-43.8739,-95.8283,-193.203,-13869.2,-5817.39,-2783.51,-13.8141,-141.818,126.174,4526.75,15025.4,-2801.31,-10.6623,-128.102,-52.4094,-7333.41,-4453.89,2259.51,-3.50912,-2.37522,56.0266,13443.5,254.331,-5421.07,-22.5945,-14.7076,-39.8811
2.96,5575.26,-2851.51,12743.3,-35.0054,-256.428,-165.106,13306.7,3088.37,-2449.71,29.2606,-19.6376,173.681,4800.73,17432.9,1967.6,-44.211,-96.3844,-193.418,-13422.8,-5574.52,-2858.79,-14.5358,-143.539,125.763,4695.35,15025.3,-2696.88,-12.4251,-124.908,-52.8179,-7905.47,-4241.5,2476.24,-6.20941,-5.10088,60.1857,13365.3,316.346,-5401.01,-22.4322,-13.1804,-38.8347
2.961,5511.75,-2811.3,12740.7,-34.0889,-261.272,-165.512,12685.0,3624.36,-3607.0,11.4906,-19.2065,178.273,4973.77,17324.0,1999.74,-44.3126,-96.9197,-193.893,-12805.5,-5456.01,-3136.55,-15.6877,-144.429,123.877,4852.89,14981.0,-2525.25,-14.2956,-122.031,-53.0227,-8487.56,-4086.47,2613.58,-8.41487,-7.74022,63.7502,13201.3,228.33,-5361.53,-16.2918,-13.627,-37.4771
2.962,5448.24,-2771.08,12738.1,-33.1724,-266.116,-165.917,12063.3,4160.36,-4764.29,-6.27945,-18.7754,182.865,5146.8,17215.1,2031.87,-44.4142,-97.4549,-194.367,-12188.2,-5337.5,-3414.32,-16.8396,-145.32,121.992,5010.43,14936.8,-2353.63,-16.1661,-119.154,-53.2276,-9069.66,-3931.44,2750.92,-10.6203,-10.3796,67.3147,13037.2,140.314,-5322.05,-10.1514,-14.0735,-36.1195
2.963,5384.73,-2730.87,12735.5,-32.2558,-270.96,-166.322,11441.5,4696.36,-5921.58,-24.0495,-18.3443,187.457,5319.83,17106.1,2064.01,-44.5157,-97.9902,-194.841,-11570.8,-5218.99,-3692.09,-17.9916,-146.21,120.106,5167.97,14892.5,-2182.0,-18.0367,-116.276,-53.4325,-9651.76,-3776.41,2888.26,-12.8258,-13.0189,70.8792,12873.1,52.2973,-5282.57,-4.01106,-14.5201,-34.7619
2.964,5321.22,-2690.65,12732.9,-31.3393,-275.804,-166.728,10819.8,5232.35,-7078.87,-41.8195,-17.9132,192.049,5492.86,16997.2,2096.14,-44.6173,-98.5254,-195.316,-10953.5,-5100.48,-3969.85,-19.1435,-147.1,118.22,5325.5,14848.2,-2010.38,-19.9072,-113.399,-53.6373,-10233.9,-3621.38,3025.6,-15.0312,-15.6582,74.4437,12709.1,-35.7189,-5243.09,2.12931,-14.9667,-33.4043
2.965,5229.84,-2703.57,12711.2,-30.2493,-280.661,-167.122,9084.71,7298.24,-7131.55,-75.0173,-41.3844,211.828,5646.71,16860.3,2056.18,-44.8231,-98.9102,-196.025,-9894.0,-5251.01,-5050.92,-18.4999,-142.52,116.295,5477.98,14776.6,-1812.69,-21.7238,-110.731,-53.6014,-10816.0,-3541.04,3250.09,-17.2454,-22.2115,77.3397,12693.2,28.4849,-4899.98,3.58947,-15.2109,-32.4125
2.966,5116.16,-2759.01,12674.3,-29.0205,-285.528,-167.506,6458.89,10588.0,-6300.53,-120.557,-83.9775,243.757,5785.21,16701.0,1958.55,-45.1124,-99.1746,-196.924,-8480.79,-5616.77,-6774.63,-16.42,-133.564,114.338,5626.39,14683.1,-1594.14,-23.4974,-108.23,-53.3728,-11398.0,-3520.43,3544.32,-19.4666,-31.8959,79.7008,12796.0,214.465,-4313.97,1.30546,-15.2933,-31.7133
2.967,5002.48,-2814.44,12637.3,-27.7917,-290.395,-167.89,3833.08,13877.9,-5469.52,-166.097,-126.571,275.685,5923.72,16541.7,1860.91,-45.4017,-99.439,-197.822,-7067.58,-5982.53,-8498.34,-14.34,-124.609,112.38,5774.81,14589.6,-1375.6,-25.2709,-105.729,-53.1443,-11980.1,-3499.83,3838.54,-21.6877,-41.5803,82.0619,12898.8,400.444,-3727.95,-0.978559,-15.3758,-31.0141
2.968,4888.79,-2869.88,12600.4,-26.5629,-295.262,-168.274,1207.26,17167.7,-4638.5,-211.637,-169.164,307.614,6062.22,16382.3,1763.28,-45.6911,-99.7034,-198.72,-5654.37,-6348.29,-10222.0,-12.2601,-115.653,110.423,5923.23,14496.1,-1157.05,-27.0445,-103.228,-52.9157,-12562.2,-3479.23,4132.77,-23.9089,-51.2647,84.4231,13001.6,586.424,-3141.94,-3.26257,-15.4582,-30.315
2.969,4776.98,-2929.11,12574.7,-25.3191,-300.159,-168.664,-1879.22,20461.9,-3130.28,-255.467,-216.955,340.646,6217.01,16229.2,1677.8,-46.0019,-99.8921,-199.656,-3916.98,-6842.13,-12062.9,-8.43239,-105.064,109.043,6072.6,14399.1,-943.445,-28.7555,-100.785,-52.6405,-13078.8,-3487.5,4426.99,-26.9649,-63.0911,86.6109,13115.1,781.912,-2362.81,-7.43799,-15.9339,-29.8036
2.97,4680.15,-3018.74,12639.3,-23.956,-305.299,-169.106,-8651.05,23791.9,3795.53,-285.615,-306.332,382.502,6502.07,16125.7,1689.57,-46.4851,-99.4748,-200.897,413.858,-8360.7,-14840.8,9.37725,-81.4157,112.282,6229.61,14274.1,-769.31,-29.9666,-98.8086,-51.9926,-13070.9,-3726.78,4721.25,-36.7002,-92.054,87.4119,13314.0,1053.47,-38.793,-26.7446,-19.5556,-30.7941
2.971,4583.32,-3108.37,12703.9,-22.5928,-310.439,-169.549,-15422.9,27121.9,10721.4,-315.762,-395.709,424.359,6787.13,16022.2,1701.34,-46.9682,-99.0576,-202.139,4744.7,-9879.26,-17618.7,27.1869,-57.7674,115.52,6386.61,14149.0,-595.175,-31.1777,-96.8319,-51.3447,-13063.0,-3966.06,5015.5,-46.4355,-121.017,88.213,13513.0,1325.03,2285.22,-46.0513,-23.1773,-31.7847
2.972,4486.49,-3198.0,12768.5,-21.2296,-315.579,-169.991,-22194.7,30451.8,17647.2,-345.91,-485.087,466.216,7072.19,15918.7,1713.11,-47.4514,-98.6404,-203.38,9075.53,-11397.8,-20396.6,44.9965,-34.119,118.758,6543.61,14024.0,-421.04,-32.3888,-94.8553,-50.6968,-13055.1,-4205.34,5309.76,-56.1708,-149.98,89.014,13712.0,1596.59,4609.24,-65.3579,-26.7989,-32.7752
2.973,4389.66,-3287.63,12833.2,-19.8664,-320.719,-170.434,-28966.5,33781.8,24573.0,-376.057,-574.464,508.072,7357.25,15815.2,1724.88,-47.9346,-98.2231,-204.621,13406.4,-12916.4,-23174.5,62.8061,-10.4707,121.997,6700.61,13899.0,-246.905,-33.5998,-92.8787,-50.0489,-13047.3,-4444.62,5604.01,-65.9061,-178.943,89.8151,13911.0,1868.14,6933.26,-84.6646,-30.4206,-33.7657
2.974,4315.42,-3402.38,12983.3,-17.9507,-326.339,-170.883,-29480.0,27599.4,27264.0,-356.503,-611.515,504.613,7682.31,15751.7,1798.53,-48.422,-97.4701,-206.139,18368.4,-15458.1,-20994.2,65.4792,-14.3482,121.926,6870.26,13772.4,-175.328,-33.3869,-91.4238,-49.2503,-12246.5,-4879.4,4207.04,-81.3085,-213.017,91.5826,14375.2,1295.47,7574.62,-82.7515,-23.9928,-37.5708
2.975,4252.47,-3529.68,13176.3,-15.7589,-332.198,-171.337,-26864.2,16660.7,27837.6,-312.097,-622.404,478.496,8027.39,15708.2,1903.1,-48.9115,-96.5492,-207.796,23646.0,-18511.4,-16334.7,60.584,-31.9886,120.202,7046.25,13645.1,-155.029,-32.462,-90.2297,-48.3764,-11049.4,-5411.91,1964.46,-99.5446,-249.648,93.8333,14972.1,300.679,7374.66,-70.2284,-12.5401,-42.7831
2.976,4189.52,-3656.99,13369.3,-13.567,-338.057,-171.79,-24248.4,5722.09,28411.1,-267.691,-633.292,452.379,8372.46,15664.6,2007.68,-49.4011,-95.6283,-209.452,28923.5,-21564.7,-11675.2,55.6888,-49.629,118.477,7222.23,13517.8,-134.73,-31.537,-89.0356,-47.5025,-9852.21,-5944.43,-278.123,-117.781,-286.278,96.084,15569.0,-694.111,7174.69,-57.7054,-1.08747,-47.9954
2.977,4126.57,-3784.3,13562.3,-11.3751,-343.916,-172.243,-21632.7,-5216.54,28984.7,-223.286,-644.18,426.262,8717.53,15621.1,2112.26,-49.8907,-94.7074,-211.109,34201.1,-24618.0,-7015.66,50.7936,-67.2694,116.752,7398.22,13390.6,-114.432,-30.6121,-87.8416,-46.6286,-8655.06,-6476.95,-2520.71,-136.017,-322.909,98.3347,16165.9,-1688.9,6974.73,-45.1824,10.3652,-53.2076
2.978,4050.95,-3913.47,13796.7,-8.89681,-349.96,-172.6,-15975.6,-16297.4,28838.7,-183.181,-641.985,397.1,9133.45,15620.8,2228.71,-50.4694,-93.2796,-212.773,37783.5,-28010.3,-1423.1,50.1891,-91.5542,119.61,7601.93,13289.0,-118.615,-29.1064,-86.8256,-45.6919,-7110.9,-7216.86,-5038.27,-151.15,-351.97,103.462,16789.1,-2614.16,6723.13,-25.5877,22.0979,-57.9844
2.979,3931.01,-4049.18,14175.8,-5.41604,-356.651,-172.619,326.3,-27876.0,26174.0,-158.129,-593.998,357.278,9797.36,15772.1,2386.71,-51.3602,-90.0772,-214.462,35432.4,-32589.6,7435.16,64.6022,-139.095,138.51,7902.7,13277.7,-208.483,-25.5677,-86.4331,-44.5357,-4352.24,-8682.67,-8518.25,-155.422,-354.54,118.656,17504.5,-3296.08,6290.81,18.7576,34.811,-61.237
2.98,3811.07,-4184.89,14555.0,-1.93526,-363.342,-172.638,16628.2,-39454.6,23509.4,-133.076,-546.012,317.456,10461.3,15923.4,2544.71,-52.251,-86.8749,-216.152,33081.4,-37168.9,16293.4,79.0154,-186.635,157.411,8203.47,13266.4,-298.351,-22.0291,-86.0406,-43.3794,-1593.58,-10148.5,-11998.2,-159.695,-357.109,133.85,18219.8,-3978.0,5858.5,63.103,47.524,-64.4896
2.981,3691.13,-4320.59,14934.1,1.54551,-370.033,-172.657,32930.0,-51033.2,20844.7,-108.024,-498.025,277.634,11125.2,16074.7,2702.71,-53.1418,-83.6726,-217.841,30730.4,-41748.1,25151.7,93.4285,-234.175,176.311,8504.24,13255.1,-388.219,-18.4905,-85.648,-42.2231,1165.08,-11614.3,-15478.2,-163.967,-359.679,149.044,18935.2,-4659.92,5426.18,107.448,60.237,-67.7423
2.982,3571.19,-4456.3,15313.2,5.02629,-376.724,-172.676,49231.9,-62611.8,18180.0,-82.9718,-450.039,237.811,11789.1,16226.0,2860.71,-54.0326,-80.4702,-219.531,28379.3,-46327.4,34009.9,107.842,-281.716,195.211,8805.01,13243.8,-478.088,-14.9519,-85.2555,-41.0668,3923.75,-13080.1,-18958.2,-168.24,-362.248,164.238,19650.5,-5341.84,4993.87,151.794,72.9501,-70.9949
2.983,3375.48,-4474.23,15557.1,9.77909,-384.046,-172.66,56811.7,-57063.8,20560.8,-85.061,-415.509,207.182,12354.7,16436.4,2753.18,-55.6407,-75.9349,-221.134,18469.7,-51280.7,36021.3,132.993,-278.005,229.808,9193.02,13520.8,-516.776,-12.9445,-84.1111,-39.7611,9263.39,-16888.1,-20814.0,-143.167,-312.762,186.586,19601.9,-4860.04,5554.61,169.849,71.8661,-72.2929
2.984,3158.12,-4458.5,15762.4,14.8953,-391.547,-172.634,61899.4,-46622.6,24383.2,-94.905,-384.823,179.179,12892.3,16663.6,2569.78,-57.4537,-71.0186,-222.712,6400.37,-56340.8,36076.3,161.212,-259.651,268.889,9605.96,13880.1,-540.841,-11.3747,-82.7518,-38.4126,15340.5,-21365.4,-22205.7,-109.709,-248.402,210.977,19334.9,-4045.75,6399.09,180.394,66.8401,-73.0325
2.985,2940.76,-4442.78,15967.6,20.0115,-399.049,-172.608,66987.2,-36181.4,28205.5,-104.749,-354.138,151.176,13429.9,16890.8,2386.38,-59.2667,-66.1024,-224.29,-5668.92,-61400.9,36131.4,189.43,-241.297,307.97,10018.9,14239.5,-564.906,-9.80485,-81.3925,-37.0642,21417.5,-25842.6,-23597.5,-76.2513,-184.042,235.368,19067.9,-3231.46,7243.57,190.938,61.814,-73.7721
2.986,2723.4,-4427.05,16172.9,25.1278,-406.551,-172.582,72074.9,-25740.1,32027.9,-114.593,-323.453,123.173,13967.4,17118.0,2202.99,-61.0797,-61.1861,-225.869,-17738.2,-66461.0,36186.4,217.649,-222.943,347.052,10431.8,14598.8,-588.971,-8.23502,-80.0333,-35.7158,27494.6,-30319.9,-24989.2,-42.7935,-119.682,259.759,18800.9,-2417.17,8088.05,201.482,56.788,-74.5117
2.987,2492.36,-4354.01,16158.3,29.8523,-414.104,-172.939,73188.4,-15615.2,33707.1,-122.125,-301.836,97.8903,14225.2,17285.2,2065.26,-62.3422,-56.9114,-226.959,-26958.3,-69648.8,34938.1,229.251,-198.237,372.117,10818.3,14987.2,-530.818,-8.78726,-78.0749,-34.2118,32994.2,-35204.0,-25163.7,-10.7824,-56.0439,272.498,18308.4,-1696.87,8814.75,201.878,51.0258,-74.5441
2.988,2233.96,-4166.36,15704.2,33.7932,-421.76,-174.063,66353.4,-6122.68,31100.1,-125.035,-298.357,78.0498,13923.4,17332.6,2018.88,-62.5037,-53.92,-227.074,-30479.9,-69091.9,31083.0,207.617,-160.829,369.15,11151.7,15433.7,-308.228,-13.5837,-74.9184,-32.3968,37338.7,-40901.7,-22903.7,18.3355,6.15018,261.931,17364.9,-1164.55,9305.89,181.978,43.7912,-73.162
2.989,1975.57,-3978.7,15250.1,37.7342,-429.417,-175.187,59518.3,3369.8,28493.1,-127.944,-294.877,58.2093,13621.6,17380.0,1972.49,-62.6653,-50.9285,-227.189,-34001.5,-68535.0,27228.0,185.983,-123.421,366.182,11485.1,15880.2,-85.6383,-18.3801,-71.7618,-30.5817,41683.3,-46599.5,-20643.7,47.4535,68.3443,251.365,16421.4,-632.233,9797.03,162.077,36.5567,-71.7799
2.99,1717.18,-3791.04,14795.9,41.6751,-437.073,-176.312,52683.3,12862.3,25886.1,-130.854,-291.398,38.3688,13319.8,17427.4,1926.11,-62.8268,-47.937,-227.303,-37523.1,-67978.1,23372.9,164.349,-86.0125,363.215,11818.5,16326.7,136.952,-23.1765,-68.6053,-28.7666,46027.8,-52297.2,-18383.7,76.5714,130.538,240.798,15477.9,-99.9141,10288.2,142.177,29.3221,-70.3978
2.991,1458.78,-3603.38,14341.8,45.6161,-444.729,-177.436,45848.2,22354.8,23279.1,-133.763,-287.918,18.5282,13018.0,17474.8,1879.72,-62.9883,-44.9456,-227.418,-41044.7,-67421.2,19517.9,142.715,-48.6043,360.247,12151.9,16773.2,359.542,-27.9729,-65.4487,-26.9516,50372.4,-57995.0,-16123.7,105.689,192.732,230.232,14534.4,432.405,10779.3,122.276,22.0876,-69.0157
2.992,1313.05,-3179.67,13913.7,46.4741,-451.376,-177.828,37775.1,21685.5,19399.9,-129.714,-290.01,6.73363,12493.6,17155.1,2263.07,-62.0116,-44.8736,-226.575,-36665.1,-62479.1,15931.5,125.276,-30.4606,338.236,12373.4,16749.1,641.922,-35.167,-62.5184,-23.8655,49469.4,-58907.3,-12783.8,91.624,194.097,194.368,14104.2,194.233,10095.2,106.641,21.3488,-66.2498
2.993,1181.39,-2726.46,13488.9,46.9467,-457.896,-178.128,29547.1,19746.1,15361.6,-124.794,-292.798,-4.05525,11941.4,16789.5,2700.14,-60.8925,-45.1666,-225.613,-31297.9,-56988.9,12378.7,108.361,-14.725,313.844,12581.0,16666.3,931.776,-42.6608,-59.6164,-20.6205,47910.6,-59221.5,-9308.97,72.1608,187.857,155.342,13738.1,-140.25,9264.09,91.5393,21.4221,-63.3108
2.994,1049.73,-2273.25,13064.0,47.4193,-464.417,-178.428,21319.2,17806.6,11323.4,-119.875,-295.587,-14.8441,11389.2,16423.8,3137.21,-59.7735,-45.4595,-224.65,-25930.7,-51498.6,8825.91,91.4463,1.0106,289.452,12788.5,16583.4,1221.63,-50.1546,-56.7144,-17.3755,46351.7,-59535.7,-5834.1,52.6976,181.617,116.317,13372.1,-474.734,8433.01,76.4372,21.4953,-60.3718
2.995,918.079,-1820.04,12639.2,47.8919,-470.938,-178.729,13091.3,15867.1,7285.13,-114.955,-298.375,-25.633,10837.0,16058.2,3574.27,-58.6545,-45.7525,-223.688,-20563.5,-46008.4,5273.11,74.5316,16.7462,265.06,12996.0,16500.6,1511.48,-57.6484,-53.8123,-14.1305,44792.8,-59849.9,-2359.22,33.2343,175.378,77.2909,13006.1,-809.217,7601.94,61.3352,21.5685,-57.4328
2.996,868.541,-1417.06,12444.3,47.5643,-477.529,-178.351,8313.13,13269.5,4400.24,-109.59,-297.786,-33.1434,10579.2,15611.8,3854.97,-58.1125,-47.4663,-223.407,-16331.7,-40400.6,2121.3,61.6036,31.2008,246.148,13153.4,16243.2,1682.72,-63.6845,-51.2009,-10.3117,42288.3,-57785.1,-187.519,14.8561,162.497,49.6997,12811.9,-1129.79,6695.22,53.0527,22.2691,-53.8586
2.997,921.649,-1076.87,12536.9,46.2365,-484.208,-177.126,7847.17,9849.13,2957.07,-103.668,-292.974,-36.5556,10689.3,15064.2,3940.19,-58.2916,-50.9561,-223.979,-13519.4,-34645.8,-529.279,53.6589,44.0543,234.085,13247.9,15767.5,1705.69,-67.8986,-48.9528,-5.77556,38601.6,-52746.7,355.219,-2.16596,141.313,36.4016,12832.7,-1432.99,5693.92,53.2946,23.7538,-49.4902
2.998,974.757,-736.691,12629.5,44.9087,-490.888,-175.9,7381.21,6428.76,1513.9,-97.7456,-288.164,-39.9679,10799.4,14516.7,4025.42,-58.4708,-54.4459,-224.551,-10707.0,-28891.0,-3179.86,45.7142,56.9078,222.022,13342.4,15291.8,1728.66,-72.1127,-46.7046,-1.23945,34915.0,-47708.3,897.957,-19.188,120.13,23.1035,12853.5,-1736.19,4692.63,53.5365,25.2385,-45.1219
2.999,1027.87,-396.508,12722.0,43.5808,-497.568,-174.675,6915.25,3008.39,70.7255,-91.8233,-283.352,-43.3801,10909.5,13969.1,4110.65,-58.65,-57.9357,-225.123,-7894.66,-23136.3,-5830.43,37.7695,69.7612,209.959,13437.0,14816.1,1751.63,-76.3268,-44.4565,3.29666,31228.3,-42669.9,1440.69,-36.21,98.9463,9.80535,12874.3,-2039.38,3691.33,53.7784,26.7232,-40.7535
3.0,1080.97,-56.3244,12814.6,42.253,-504.248,-173.45,6449.29,-411.98,-1372.45,-85.9009,-278.541,-46.7924,11019.7,13421.6,4195.88,-58.8292,-61.4255,-225.695,-5082.3,-17381.5,-8481.01,29.8248,82.6147,197.896,13531.5,14340.4,1774.6,-80.541,-42.2083,7.83277,27541.7,-37631.4,1983.43,-53.2321,77.7629,-3.49275,12895.1,-2342.58,2690.03,54.0203,28.2079,-36.3852
3.001,1044.5,-25.4847,13088.9,39.8976,-512.707,-173.014,8633.27,-243.96,792.134,-82.1417,-247.655,-42.8075,11403.4,13311.2,3860.92,-59.9823,-64.4784,-227.551,-3625.41,-12089.3,-8613.83,18.4811,82.9395,200.955,13516.8,13904.8,1547.29,-81.695,-38.0552,12.579,23886.3,-33710.1,1131.39,-36.4673,84.073,4.63503,12821.5,-2091.98,2633.18,52.8601,26.5132,-30.7176
3.002,1008.04,5.35492,13363.1,37.5422,-521.166,-172.579,10817.2,-75.941,2956.72,-78.3824,-216.769,-38.8226,11787.2,13200.9,3525.97,-61.1354,-67.5314,-229.408,-2168.51,-6797.12,-8746.65,7.13739,83.2643,204.015,13502.0,13469.1,1319.98,-82.849,-33.902,17.3252,20230.9,-29788.8,279.354,-19.7026,90.3831,12.7628,12747.9,-1841.39,2576.33,51.6999,24.8185,-25.0501
3.003,971.566,36.1946,13637.4,35.1868,-529.625,-172.143,13001.2,92.0786,5121.3,-74.6232,-185.883,-34.8378,12171.0,13090.5,3191.01,-62.2886,-70.5843,-231.264,-711.612,-1504.92,-8879.47,-4.20633,83.5891,207.074,13487.3,13033.5,1092.68,-84.003,-29.7489,22.0714,16575.4,-25867.4,-572.685,-2.93784,96.6933,20.8906,12674.2,-1590.79,2519.48,50.5397,23.1238,-19.3825
3.004,935.097,67.0342,13911.6,32.8314,-538.085,-171.708,15185.2,260.098,7285.88,-70.864,-154.996,-30.8529,12554.8,12980.1,2856.06,-63.4417,-73.6373,-233.121,745.285,3787.27,-9012.28,-15.55,83.914,210.134,13472.5,12597.9,865.367,-85.157,-25.5958,26.8176,12920.0,-21946.1,-1424.72,13.8269,103.003,29.0184,12600.6,-1340.19,2462.63,49.3796,21.4291,-13.715
3.005,806.218,69.8326,14082.6,29.6672,-547.335,-171.926,18306.1,1041.16,9931.28,-71.4972,-123.183,-22.159,12867.7,13066.1,2582.35,-64.5889,-76.3767,-234.709,1069.02,8243.91,-9500.46,-24.5664,87.8677,220.647,13379.7,12240.0,539.784,-86.2267,-18.5536,31.0859,9339.64,-19234.5,-1112.85,25.63,111.646,30.6042,12419.6,-937.683,2715.05,43.9335,19.7025,-7.61029
3.006,603.411,50.1981,14170.9,25.8559,-557.218,-172.668,22176.5,2312.65,12961.3,-75.6443,-90.6279,-9.69774,13123.8,13309.0,2357.65,-65.7314,-78.8653,-236.082,486.225,12032.1,-10272.9,-31.7208,94.7246,237.125,13224.4,11944.3,135.58,-87.2289,-9.20023,34.972,5819.25,-17490.9,130.147,33.4636,122.155,26.9565,12152.7,-413.647,3214.9,35.0588,17.9505,-1.15589
3.007,400.604,30.5635,14259.3,22.0447,-567.1,-173.409,26046.9,3584.13,15991.4,-79.7914,-58.0727,2.76347,13380.0,13552.0,2132.95,-66.8738,-81.3539,-237.456,-96.5693,15820.3,-11045.4,-38.8752,101.581,253.602,13069.0,11648.7,-268.625,-88.231,0.153141,38.8581,2298.86,-15747.3,1373.15,41.2973,132.663,23.3088,11885.8,110.389,3714.75,26.184,16.1985,5.29852
3.008,197.797,10.929,14347.6,18.2335,-576.983,-174.151,29917.4,4855.62,19021.4,-83.9385,-25.5176,15.2247,13636.2,13795.0,1908.24,-68.0163,-83.8426,-238.829,-679.364,19608.5,-11817.9,-46.0296,108.438,270.079,12913.7,11353.0,-672.829,-89.2332,9.50651,42.7442,-1221.53,-14003.6,2616.15,49.131,143.172,19.6611,11618.8,634.425,4214.6,17.3093,14.4464,11.7529
3.009,7.11026,-9.23306,14413.8,14.3404,-586.864,-174.884,33155.6,5730.18,21644.4,-86.9177,3.06577,28.3362,13877.2,14037.1,1702.58,-69.1656,-86.5455,-240.141,-1264.74,22936.4,-12441.2,-52.2583,115.727,285.789,12754.7,11070.8,-1083.66,-90.3116,19.5598,46.501,-4676.35,-12163.9,3904.25,53.6555,152.14,14.5879,11361.1,1115.93,4657.16,8.71083,13.0556,18.072
3.01,-86.6122,-33.6149,14303.2,9.79287,-596.725,-175.55,31336.2,3429.25,21010.6,-80.5534,-0.125362,46.6497,13996.8,14272.1,1649.26,-70.3691,-90.963,-240.96,-1870.77,22582.0,-11871.1,-51.0808,126.473,295.365,12566.0,10896.5,-1547.54,-91.9995,35.212,49.2236,-7606.66,-9555.46,5553.17,31.7062,148.791,-1.88982,11177.1,1257.22,4641.38,2.32237,14.5544,23.3084
3.011,-180.335,-57.9968,14192.6,5.24529,-606.586,-176.216,29516.9,1128.33,20376.8,-74.1891,-3.31649,64.9633,14116.4,14507.0,1595.93,-71.5725,-95.3805,-241.78,-2476.79,22227.5,-11301.1,-49.9034,137.219,304.94,12377.4,10722.1,-2011.42,-93.6874,50.8643,51.9462,-10537.0,-6947.03,7202.08,9.75683,145.441,-18.3675,10993.1,1398.5,4625.6,-4.06609,16.0532,28.5447
3.012,-274.057,-82.3787,14081.9,0.697705,-616.448,-176.883,27697.5,-1172.59,19743.0,-67.8248,-6.50763,83.2769,14236.0,14742.0,1542.61,-72.776,-99.798,-242.6,-3082.82,21873.1,-10731.1,-48.7259,147.964,314.515,12188.7,10547.8,-2475.3,-95.3753,66.5165,54.6688,-13467.3,-4338.6,8851.0,-12.1925,142.091,-34.8452,10809.1,1539.78,4609.81,-10.4546,17.5521,33.7811
3.013,-367.78,-106.761,13971.3,-3.84988,-626.309,-177.549,25878.2,-3473.51,19109.2,-61.4604,-9.69876,101.59,14355.7,14976.9,1489.29,-73.9795,-104.215,-243.42,-3688.85,21518.7,-10161.0,-47.5484,158.71,324.09,12000.1,10373.4,-2939.17,-97.0632,82.1688,57.3913,-16397.6,-1730.17,10499.9,-34.1419,138.742,-51.3229,10625.1,1681.07,4594.03,-16.843,19.0509,39.0175
3.014,-333.183,-173.7,13926.7,-9.32229,-636.356,-177.94,20283.7,-6985.85,17237.3,-49.7535,-13.027,104.081,14448.9,15100.0,1461.67,-75.0274,-109.816,-243.853,-2400.98,18338.7,-7884.75,-42.1646,157.567,319.222,11906.9,10303.1,-3153.06,-100.606,99.7843,59.8064,-18787.4,1058.23,10606.9,-55.6673,140.629,-61.8844,10491.8,1706.65,4585.61,-20.0262,19.7075,42.51
3.015,-234.426,-261.919,13915.2,-15.2571,-646.496,-178.194,12801.8,-11103.9,14746.4,-35.3751,-16.4237,98.6613,14528.9,15167.1,1446.9,-75.9975,-116.009,-244.094,-166.171,13746.1,-4755.35,-34.6776,150.479,307.134,11861.5,10284.9,-3241.96,-105.076,118.382,62.0676,-20906.9,3936.62,9942.87,-76.9808,145.136,-69.4879,10383.8,1674.38,4580.87,-21.6066,19.9429,45.1306
3.016,-135.67,-350.138,13903.7,-21.192,-656.635,-178.447,5319.8,-15221.9,12255.5,-20.9968,-19.8205,93.2411,14609.0,15234.2,1432.14,-76.9676,-122.202,-244.334,2068.64,9153.37,-1625.94,-27.1906,143.39,295.045,11816.1,10266.6,-3330.85,-109.546,136.979,64.3289,-23026.4,6815.0,9278.86,-98.2942,149.643,-77.0914,10275.9,1642.11,4576.13,-23.1871,20.1784,47.7511
3.017,-36.9131,-438.356,13892.2,-27.1268,-666.775,-178.7,-2162.17,-19340.0,9764.55,-6.6185,-23.2172,87.8209,14689.0,15301.4,1417.37,-77.9377,-128.394,-244.574,4303.45,4560.69,1503.46,-19.7036,136.302,282.956,11770.6,10248.4,-3419.75,-114.017,155.576,66.5901,-25145.9,9693.39,8614.85,-119.608,154.15,-84.6949,10167.9,1609.83,4571.39,-24.7676,20.4139,50.3717
3.018,113.523,-461.332,13832.6,-34.2665,-678.867,-179.357,-7629.89,-21856.1,7667.61,4.90253,-25.4567,81.2658,14772.4,15331.2,1409.46,-79.0387,-134.624,-244.906,6089.95,335.993,4464.95,-10.922,128.335,270.425,11739.8,10260.1,-3358.55,-119.175,172.765,68.7595,-26951.0,11956.9,7961.23,-135.518,157.987,-89.0405,10047.4,1640.06,4604.93,-26.7217,20.0594,52.5462
3.019,444.837,-255.957,13605.0,-45.6235,-697.792,-181.427,-6047.79,-18765.6,6949.64,6.42301,-23.6458,70.7388,14867.3,15230.8,1425.57,-80.598,-140.985,-245.557,6307.39,-2600.72,6838.7,2.39057,117.288,256.346,11760.3,10376.7,-2772.06,-126.742,185.027,70.6074,-27655.3,12068.1,7343.96,-132.519,159.48,-81.9835,9882.97,1889.01,4772.46,-29.9833,17.6401,53.1592
3.02,776.151,-50.5821,13377.3,-56.9805,-716.718,-183.497,-4465.69,-15675.0,6231.66,7.94349,-21.8349,60.2117,14962.2,15130.4,1441.67,-82.1572,-147.346,-246.208,6524.82,-5537.43,9212.45,15.7031,106.242,242.266,11780.8,10493.3,-2185.57,-134.309,197.289,72.4553,-28359.6,12179.4,6726.68,-129.519,160.974,-74.9265,9718.55,2137.96,4939.98,-33.245,15.2209,53.7722
3.021,1107.46,154.793,13149.6,-68.3376,-735.643,-185.567,-2883.58,-12584.5,5513.68,9.46397,-20.0239,49.6847,15057.0,15030.0,1457.78,-83.7164,-153.707,-246.859,6742.26,-8474.15,11586.2,29.0157,95.1958,228.186,11801.2,10610.0,-1599.07,-141.876,209.551,74.3032,-29063.9,12290.7,6109.41,-126.519,162.467,-67.8695,9554.13,2386.91,5107.51,-36.5066,12.8016,54.3853
3.022,1438.78,360.168,12921.9,-79.6946,-754.568,-187.637,-1301.48,-9493.91,4795.7,10.9845,-18.213,39.1576,15151.9,14929.5,1473.89,-85.2756,-160.068,-247.51,6959.69,-11410.9,13959.9,42.3282,84.1495,214.106,11821.7,10726.6,-1012.58,-149.443,221.812,76.1512,-29768.2,12401.9,5492.14,-123.52,163.96,-60.8125,9389.71,2635.86,5275.04,-39.7682,10.3824,54.9983
3.023,1985.37,894.825,11672.0,-90.7103,-766.002,-190.608,1499.06,-7249.71,4715.42,11.2427,-17.0437,32.7516,15091.9,14817.4,1683.54,-87.9147,-163.426,-248.661,5119.22,-11754.9,13842.2,45.5565,86.8146,207.204,11677.1,10756.1,-206.802,-154.93,223.986,76.9549,-29362.0,11321.8,5236.65,-118.651,155.966,-51.2952,9236.31,2957.87,5309.74,-41.727,8.23553,53.9495
3.024,2593.46,1523.56,10129.9,-101.628,-775.297,-193.836,4647.73,-5247.32,4817.34,11.1402,-16.0576,27.5231,14987.6,14702.0,1948.49,-90.8623,-165.926,-249.954,2690.77,-11358.1,13012.7,45.9036,93.3973,202.353,11485.4,10760.7,661.63,-159.824,223.276,77.4603,-28638.5,9901.2,5084.54,-113.249,145.26,-41.0749,9086.06,3300.74,5306.5,-43.3134,6.16649,52.4258
3.025,3201.56,2152.3,8587.93,-112.547,-784.592,-197.065,7796.39,-3244.93,4919.26,11.0378,-15.0716,22.2946,14883.4,14586.5,2213.44,-93.81,-168.425,-251.248,262.32,-10961.4,12183.2,46.2507,99.98,197.502,11293.6,10765.4,1530.06,-164.717,222.567,77.9657,-27915.0,8480.63,4932.42,-107.846,134.555,-30.8546,8935.81,3643.62,5303.26,-44.8998,4.09744,50.9021
3.026,3809.66,2781.04,7045.91,-123.465,-793.886,-200.293,10945.1,-1242.55,5021.18,10.9353,-14.0855,17.0661,14779.1,14471.1,2478.39,-96.7576,-170.925,-252.541,-2166.13,-10564.6,11353.6,46.5978,106.563,192.65,11101.9,10770.0,2398.49,-169.611,221.858,78.4711,-27191.5,7060.07,4780.3,-102.444,123.85,-20.6343,8785.55,3986.5,5300.02,-46.4863,2.0284,49.3785
3.027,4807.14,3533.92,6227.61,-137.698,-800.656,-200.717,13320.1,304.0,5024.29,8.94885,-11.6207,13.8619,14583.3,14383.2,2755.7,-99.7048,-171.802,-254.313,-4374.47,-9846.15,10096.4,42.2463,114.048,189.378,10810.0,10735.0,3091.98,-172.52,217.912,78.5701,-26151.7,5827.86,4774.08,-96.4571,111.665,-9.93034,8664.8,4277.08,5323.7,-46.2165,0.374981,47.467
3.028,6583.39,4535.09,6856.74,-158.563,-802.376,-195.532,14147.7,938.865,4829.77,3.19431,-6.19811,14.7065,14204.4,14350.5,3057.75,-102.651,-169.433,-257.042,-6142.6,-8484.25,7984.01,28.4977,123.34,189.264,10317.9,10620.6,3435.59,-171.461,207.491,77.8562,-24479.3,4972.38,5059.68,-89.3022,96.5208,1.7411,8603.03,4463.04,5401.22,-42.2345,-0.447175,44.7799
3.029,8359.64,5536.26,7485.87,-179.428,-804.096,-190.347,14975.4,1573.73,4635.25,-2.56023,-0.775551,15.551,13825.5,14317.8,3359.8,-105.597,-167.065,-259.772,-7910.72,-7122.35,5871.58,14.7491,132.632,189.15,9825.77,10506.2,3779.2,-170.402,197.071,77.1423,-22806.8,4116.89,5345.27,-82.1474,81.3766,13.4125,8541.27,4649.02,5478.75,-38.2524,-1.26933,42.0928
3.03,10135.9,6537.43,8115.0,-200.292,-805.817,-185.162,15803.1,2208.6,4440.73,-8.31476,4.64701,16.3956,13446.5,14285.1,3661.85,-108.544,-164.696,-262.501,-9678.85,-5760.46,3759.16,1.00052,141.924,189.036,9333.64,10391.8,4122.8,-169.344,186.65,76.4283,-21134.3,3261.41,5630.86,-74.9926,66.2324,25.084,8479.5,4834.99,5556.27,-34.2703,-2.09149,39.4056
3.031,11912.1,7538.6,8744.13,-221.157,-807.537,-179.977,16630.8,2843.46,4246.21,-14.0693,10.0696,17.2402,13067.6,14252.4,3963.9,-111.49,-162.327,-265.23,-11447.0,-4398.56,1646.74,-12.7481,151.216,188.922,8841.52,10277.4,4466.41,-168.285,176.23,75.7144,-19461.9,2405.92,5916.45,-67.8377,51.0882,36.7554,8417.74,5020.96,5633.8,-30.2882,-2.91364,36.7185
3.032,14080.9,7364.87,9059.05,-239.78,-805.334,-175.134,17935.5,4631.69,4259.55,-20.4387,17.0091,18.5987,12160.6,14380.4,3397.51,-113.224,-157.727,-269.729,-12576.3,-3792.18,-91.5996,-24.3233,153.557,191.554,8039.43,10233.9,4431.99,-163.053,162.234,73.9352,-17687.0,1564.77,5959.95,-59.3448,40.3904,48.6765,8460.89,5144.04,5872.09,-25.31,-4.25682,33.2222
3.033,16298.7,7044.28,9334.7,-258.124,-802.642,-170.335,19299.9,6564.08,4298.87,-26.885,24.1383,20.0216,11187.5,14528.6,2722.58,-114.807,-152.848,-274.449,-13625.7,-3280.24,-1783.17,-35.6268,155.029,194.53,7198.6,10199.4,4350.32,-157.3,147.791,72.023,-15899.3,725.41,5973.19,-50.6847,30.2485,60.6288,8517.16,5259.26,6130.47,-20.2073,-5.66512,29.6248
3.034,18516.6,6723.69,9610.34,-276.467,-799.949,-165.535,20664.2,8496.47,4338.2,-33.3313,31.2675,21.4444,10214.5,14676.7,2047.64,-116.389,-147.969,-279.169,-14675.1,-2768.3,-3474.75,-46.9304,156.501,197.505,6357.77,10164.8,4268.65,-151.547,133.348,70.1107,-14111.6,-113.951,5986.44,-42.0245,20.1066,72.5811,8573.43,5374.48,6388.85,-15.1045,-7.07343,26.0274
3.035,20734.4,6403.11,9885.99,-294.81,-797.256,-160.735,22028.6,10428.9,4377.52,-39.7776,38.3967,22.8672,9241.42,14824.8,1372.71,-117.972,-143.09,-283.889,-15724.5,-2256.35,-5166.32,-58.2339,157.973,200.481,5516.94,10130.2,4186.98,-145.794,118.905,68.1984,-12323.9,-953.312,5999.68,-33.3643,9.96463,84.5335,8629.7,5489.71,6647.24,-10.0018,-8.48173,22.43
3.036,22739.2,5147.47,9851.16,-308.703,-793.037,-159.75,22630.1,11485.6,4593.37,-44.9503,43.8994,23.7368,8156.97,15182.3,312.706,-118.744,-136.622,-288.132,-16628.9,-2441.26,-6511.09,-63.3205,156.418,202.834,4712.83,10223.0,4128.33,-139.684,104.468,66.7086,-10890.2,-1789.0,5721.44,-27.0838,3.56103,95.7865,8657.98,5649.89,6764.12,-5.62495,-8.00548,18.9878
3.037,24477.6,2723.04,9428.22,-317.031,-786.911,-163.533,22278.0,11447.7,5029.88,-48.531,47.369,23.915,6933.26,15801.4,-1228.62,-118.503,-128.167,-291.779,-17351.8,-3497.21,-7422.36,-60.6358,151.079,204.41,3954.62,10474.9,4098.46,-133.129,90.0401,65.7469,-9899.05,-2620.08,5078.84,-23.7779,1.83034,106.166,8651.28,5866.29,6704.14,-2.15539,-5.17352,15.7395
3.038,26216.0,298.6,9005.29,-325.36,-780.784,-167.317,21926.0,11409.9,5466.38,-52.1118,50.8387,24.0931,5709.56,16420.4,-2769.96,-118.262,-119.712,-295.426,-18074.7,-4553.17,-8333.63,-57.9511,145.74,205.986,3196.4,10726.8,4068.59,-126.574,75.612,64.7851,-8907.9,-3451.17,4436.25,-20.4719,0.099645,116.545,8644.58,6082.69,6644.16,1.31417,-2.34156,12.4912
3.039,27954.5,-2125.84,8582.36,-333.689,-774.658,-171.1,21574.0,11372.0,5902.88,-55.6925,54.3083,24.2712,4485.85,17039.5,-4311.29,-118.021,-111.256,-299.073,-18797.7,-5609.13,-9244.9,-55.2664,140.402,207.561,2438.19,10978.8,4038.71,-120.019,61.1839,63.8234,-7916.74,-4282.26,3793.65,-17.166,-1.63105,126.924,8637.88,6299.09,6584.17,4.78373,0.490401,9.24288
3.04,29692.9,-4550.27,8159.42,-342.017,-768.531,-174.884,21222.0,11334.2,6339.39,-59.2732,57.778,24.4494,3262.14,17658.6,-5852.62,-117.779,-102.801,-302.72,-19520.6,-6665.08,-10156.2,-52.5817,135.063,209.137,1679.98,11230.7,4008.84,-113.464,46.7558,62.8617,-6925.58,-5113.35,3151.06,-13.86,-3.36174,137.303,8631.17,6515.49,6524.19,8.25328,3.32236,5.99457
3.041,31254.0,-7642.14,7524.85,-337.702,-757.444,-185.208,19266.8,10385.4,6364.66,-58.973,58.833,24.7777,2366.58,18549.6,-6862.45,-114.663,-91.5062,-302.884,-19302.0,-8433.05,-9650.55,-42.4306,125.591,207.631,1282.39,11632.9,3878.1,-107.324,34.6308,64.8091,-7076.05,-5659.86,2571.02,-11.8255,-0.421888,147.033,8803.01,6607.06,6602.16,10.2528,5.30802,3.34005
3.042,32815.1,-10734.0,6890.27,-333.386,-746.356,-195.532,17311.5,9436.69,6389.93,-58.6728,59.8881,25.106,1471.02,19440.6,-7872.29,-111.546,-80.2111,-303.047,-19083.5,-10201.0,-9144.94,-32.2796,116.12,206.125,884.802,12035.2,3747.37,-101.185,22.5058,66.7565,-7226.52,-6206.38,1990.98,-9.79099,2.51796,156.764,8974.84,6698.63,6680.13,12.2524,7.29367,0.68553
3.043,34376.1,-13825.9,6255.69,-329.071,-735.268,-205.856,15356.3,8487.94,6415.2,-58.3726,60.9432,25.4344,575.456,20331.6,-8882.13,-108.429,-68.916,-303.21,-18864.9,-11969.0,-8639.33,-22.1286,106.648,204.618,487.214,12437.4,3616.63,-95.0452,10.3808,68.704,-7376.98,-6752.9,1410.95,-7.75648,5.45781,166.494,9146.68,6790.21,6758.1,14.2519,9.27933,-1.96899
3.044,35937.2,-16917.7,5621.11,-324.755,-724.18,-216.181,13401.1,7539.19,6440.47,-58.0724,61.9982,25.7627,-320.105,21222.6,-9891.97,-105.312,-57.6209,-303.374,-18646.3,-13737.0,-8133.71,-11.9775,97.1769,203.112,89.6261,12839.7,3485.89,-88.9056,-1.74419,70.6514,-7527.45,-7299.42,830.908,-5.72197,8.39767,176.225,9318.52,6881.78,6836.08,16.2514,11.265,-4.62351
3.045,37156.5,-19411.8,4805.86,-313.173,-709.149,-226.512,11866.9,6237.03,6569.24,-56.5078,63.2828,26.3985,-1026.36,22243.2,-10220.0,-103.227,-47.1615,-300.839,-17692.0,-15064.8,-6961.52,-3.93817,89.6313,200.436,-133.835,13294.3,3000.22,-82.7184,-10.3863,74.1839,-8067.83,-7796.38,471.111,-3.57413,12.1205,185.252,9515.73,6918.55,6903.14,16.734,12.8983,-6.66223
3.046,38102.5,-21427.5,3846.09,-295.776,-690.962,-236.85,10669.5,4652.15,6780.81,-53.9318,64.7509,27.2804,-1581.17,23367.6,-10002.6,-101.968,-37.3707,-296.147,-16149.2,-16040.5,-5256.06,2.41183,83.6265,196.823,-217.996,13790.8,2230.6,-76.4932,-16.2422,78.9844,-8920.15,-8253.71,287.507,-1.33561,16.4697,193.718,9733.26,6911.48,6961.48,16.0031,14.2498,-8.20833
3.047,39048.4,-23443.3,2886.31,-278.38,-672.776,-247.188,9472.11,3067.27,6992.37,-51.3557,66.2191,28.1623,-2135.98,24491.9,-9785.27,-100.708,-27.5799,-291.455,-14606.3,-17016.3,-3550.6,8.76183,77.6216,193.211,-302.157,14287.4,1460.98,-70.2679,-22.0981,83.7849,-9772.47,-8711.03,103.903,0.902899,20.8189,202.184,9950.79,6904.42,7019.82,15.2722,15.6014,-9.75442
3.048,39994.4,-25459.1,1926.53,-260.984,-654.589,-257.526,8274.7,1482.39,7203.94,-48.7796,67.6872,29.0441,-2690.78,25616.2,-9567.9,-99.4489,-17.7891,-286.763,-13063.5,-17992.0,-1845.14,15.1118,71.6167,189.598,-386.317,14783.9,691.357,-64.0426,-27.954,88.5854,-10624.8,-9168.35,-79.7005,3.14141,25.1681,210.65,10168.3,6897.35,7078.16,14.5413,16.9529,-11.3005
3.049,40819.8,-27355.1,1054.76,-242.844,-635.986,-267.359,7210.74,-26.0093,7447.23,-46.127,68.935,29.8308,-3183.68,26675.8,-9273.53,-98.3272,-8.82408,-282.106,-11586.9,-18793.0,-204.241,20.5889,65.8599,185.977,-462.601,15282.0,-112.097,-57.9613,-33.0466,93.578,-11491.8,-9641.67,-258.65,5.23845,28.8986,218.678,10382.0,6850.92,7114.89,14.0065,18.4042,-12.8238
3.05,40680.8,-28292.9,887.059,-218.749,-614.046,-273.143,7214.32,-922.537,7944.33,-42.8622,68.4198,29.8557,-3181.24,27217.9,-8363.22,-98.3082,-6.46478,-277.735,-10640.8,-18196.1,920.203,19.0827,62.0879,182.287,-475.874,15792.4,-1186.21,-53.0322,-32.033,100.107,-12476.6,-10242.9,-400.362,6.20372,27.679,223.197,10564.8,6489.61,6978.75,15.0409,20.6545,-14.1647
3.051,40541.7,-29230.8,719.355,-194.655,-592.107,-278.927,7217.91,-1819.06,8441.43,-39.5975,67.9047,29.8806,-3178.8,27760.0,-7452.92,-98.2892,-4.10548,-273.365,-9694.66,-17599.3,2044.65,17.5766,58.3159,178.596,-489.146,16302.8,-2260.33,-48.103,-31.0195,106.637,-13461.3,-10844.1,-542.075,7.16899,26.4593,227.716,10747.7,6128.3,6842.6,16.0754,22.9048,-15.5055
3.052,40402.7,-30168.6,551.651,-170.561,-570.168,-284.712,7221.49,-2715.59,8938.53,-36.3327,67.3895,29.9055,-3176.37,28302.0,-6542.62,-98.2702,-1.74618,-268.994,-8748.54,-17002.4,3169.09,16.0704,54.5439,174.906,-502.419,16813.2,-3334.44,-43.1738,-30.0059,113.166,-14446.1,-11445.3,-683.787,8.13426,25.2397,232.236,10930.5,5766.99,6706.46,17.1098,25.1551,-16.8464
3.053,40263.7,-31106.5,383.946,-146.466,-548.228,-290.496,7225.08,-3612.12,9435.63,-33.0679,66.8744,29.9304,-3173.93,28844.1,-5632.31,-98.2512,0.613115,-264.623,-7802.41,-16405.6,4293.54,14.5642,50.7719,171.216,-515.692,17323.6,-4408.56,-38.2446,-28.9924,119.695,-15430.8,-12046.6,-825.5,9.09953,24.02,236.755,11113.4,5405.68,6570.32,18.1443,27.4054,-18.1873
3.054,39923.1,-31135.3,666.649,-121.33,-526.06,-290.489,7187.72,-3706.34,9668.09,-30.4036,65.6054,28.7512,-2959.21,28858.2,-5407.11,-97.1035,0.989106,-265.019,-7530.98,-15744.1,4878.63,11.3377,43.9488,168.228,-545.687,17791.9,-5117.47,-36.2073,-26.2254,126.191,-16244.9,-12681.2,-751.387,8.14408,18.799,238.837,11269.7,5040.19,6563.33,20.2852,29.4079,-19.3844
3.055,39481.6,-30709.6,1174.55,-95.6722,-503.777,-287.587,7129.89,-3399.4,9768.21,-28.0395,63.9596,26.97,-2638.36,28608.3,-5524.47,-95.3915,0.373442,-267.799,-7596.9,-15050.4,5194.06,7.25117,35.6001,165.59,-584.043,18239.1,-5643.78,-35.6159,-22.5818,132.669,-16973.8,-13332.6,-569.361,6.22826,11.5773,239.7,11412.9,4672.6,6620.9,22.9793,31.2866,-20.5097
3.056,39040.1,-30283.9,1682.46,-70.0146,-481.494,-284.684,7072.06,-3092.47,9868.34,-25.6753,62.3137,25.1887,-2317.5,28358.4,-5641.82,-93.6794,-0.242222,-270.578,-7662.82,-14356.6,5509.48,3.1646,27.2515,162.952,-622.399,18686.3,-6170.09,-35.0245,-18.9382,139.148,-17702.6,-13983.9,-387.336,4.31244,4.35564,240.563,11556.0,4305.02,6678.48,25.6734,33.1653,-21.6349
3.057,38598.7,-29858.2,2190.36,-44.357,-459.211,-281.782,7014.23,-2785.53,9968.47,-23.3112,60.6678,23.4075,-1996.65,28108.5,-5759.17,-91.9674,-0.857886,-273.358,-7728.74,-13662.9,5824.91,-0.921976,18.9029,160.315,-660.756,19133.5,-6696.4,-34.4331,-15.2946,145.627,-18431.4,-14635.3,-205.31,2.39662,-2.86606,241.426,11699.2,3937.44,6736.06,28.3675,35.044,-22.7602
3.058,38141.3,-29300.9,2795.84,-19.913,-436.748,-277.383,6898.06,-2349.51,10016.0,-21.1457,59.1443,21.9351,-1687.45,27940.7,-6070.69,-91.018,0.739096,-275.895,-7823.45,-13126.9,5920.14,-4.57333,10.7303,157.535,-694.483,19538.8,-7069.18,-35.012,-12.0809,151.757,-19032.4,-15260.4,4.82708,0.341621,-10.4366,241.54,11826.0,3605.58,6803.89,30.5337,36.895,-23.7833
3.059,37628.3,-28282.9,3742.78,0.283084,-413.653,-267.745,6577.67,-1461.67,9879.45,-19.6756,58.0493,21.544,-1419.04,28059.9,-7061.81,-92.7378,10.0803,-277.583,-8018.92,-13143.4,5244.69,-6.70142,3.17398,154.257,-712.008,19797.6,-6904.63,-39.6872,-10.3719,156.67,-19185.7,-15793.6,313.353,-2.20054,-19.2282,239.035,11895.7,3398.75,6907.63,30.8523,38.649,-24.4488
3.06,37115.3,-27264.8,4689.73,20.4792,-390.558,-258.107,6257.28,-573.831,9742.9,-18.2055,56.9543,21.1528,-1150.63,28179.1,-8052.94,-94.4577,19.4216,-279.27,-8214.4,-13159.8,4569.24,-8.82951,-4.38233,150.979,-729.534,20056.3,-6740.08,-44.3624,-8.66288,161.582,-19339.1,-16326.8,621.879,-4.74269,-28.0198,236.529,11965.3,3191.93,7011.37,31.1708,40.403,-25.1143
3.061,36602.2,-26246.8,5636.68,40.6753,-367.463,-248.469,5936.9,314.008,9606.34,-16.7354,55.8592,20.7616,-882.214,28298.4,-9044.06,-96.1775,28.7628,-280.958,-8409.88,-13176.2,3893.79,-10.9576,-11.9386,147.702,-747.059,20315.0,-6575.52,-49.0376,-6.95388,166.495,-19492.4,-16860.0,930.405,-7.28485,-36.8113,234.024,12035.0,2985.11,7115.11,31.4893,42.157,-25.7798
3.062,36089.2,-25228.8,6583.63,60.8715,-344.369,-238.832,5616.51,1201.85,9469.78,-15.2653,54.7642,20.3705,-613.802,28417.6,-10035.2,-97.8973,38.1041,-282.646,-8605.35,-13192.6,3218.34,-13.0857,-19.495,144.424,-764.585,20573.7,-6410.97,-53.7127,-5.24487,171.407,-19645.8,-17393.2,1238.93,-9.82701,-45.6029,231.518,12104.7,2778.28,7218.85,31.8078,43.911,-26.4453
3.063,35693.0,-23623.8,8070.32,68.1478,-318.687,-228.281,5483.84,1613.43,9385.62,-14.2291,53.8639,20.7951,-770.593,28366.4,-10099.4,-97.7906,50.5654,-278.543,-8669.58,-13018.3,2395.49,-14.3738,-24.5779,140.849,-796.987,20661.3,-6030.1,-60.1132,-6.09323,174.477,-19291.8,-17645.8,1263.86,-12.5236,-52.944,227.446,12225.8,2649.24,7276.44,32.9337,44.19,-25.7527
3.064,35330.2,-21851.1,9711.23,71.7327,-292.267,-217.471,5404.8,1888.95,9316.43,-13.3168,53.0192,21.4528,-1048.87,28266.5,-9898.68,-97.1619,63.9182,-272.786,-8696.3,-12789.5,1530.53,-15.4218,-28.9542,137.19,-833.641,20699.9,-5587.44,-67.0067,-7.67226,177.02,-18792.8,-17818.4,1207.75,-15.2644,-59.8707,222.926,12361.7,2542.42,7320.85,34.2903,44.0475,-24.672
3.065,34967.3,-20078.3,11352.1,75.3176,-265.847,-206.66,5325.77,2164.46,9247.24,-12.4045,52.1745,22.1105,-1327.15,28166.6,-9698.01,-96.5332,77.271,-267.028,-8723.03,-12560.6,665.566,-16.4699,-33.3304,133.53,-870.295,20738.6,-5144.77,-73.9001,-9.2513,179.564,-18293.9,-17990.9,1151.65,-18.0051,-66.7974,218.407,12497.6,2435.61,7365.25,35.6469,43.905,-23.5913
3.066,34604.5,-18305.6,12993.1,78.9025,-239.427,-195.849,5246.73,2439.98,9178.04,-11.4923,51.3298,22.7681,-1605.43,28066.7,-9497.34,-95.9046,90.6238,-261.271,-8749.75,-12331.8,-199.399,-17.5179,-37.7067,129.871,-906.948,20777.2,-4702.1,-80.7936,-10.8303,182.107,-17794.9,-18163.5,1095.55,-20.7458,-73.7241,213.887,12633.5,2328.79,7409.65,37.0035,43.7626,-22.5106
3.067,34000.2,-16411.7,14328.5,81.7028,-213.804,-186.56,5221.21,2542.09,9124.12,-10.6511,50.4189,23.2031,-2032.88,27740.9,-9078.94,-94.0774,102.176,-254.659,-8671.01,-12023.8,-861.653,-17.9161,-41.5499,126.281,-980.45,20770.3,-4295.74,-86.9809,-13.2813,183.916,-17119.9,-18242.3,974.291,-23.5068,-80.3866,209.398,12791.6,2249.69,7436.26,38.0187,43.2413,-21.2323
3.068,32912.9,-14275.6,15053.1,82.9336,-189.776,-180.316,5302.72,2297.39,9100.73,-9.95221,49.3757,23.1926,-2758.68,26963.2,-8225.09,-89.8533,110.127,-246.338,-8381.34,-11557.5,-1118.49,-17.0144,-44.3272,122.831,-1127.65,20672.4,-3962.02,-91.7559,-17.4762,184.259,-16092.8,-18133.8,722.73,-26.3082,-86.521,204.971,12993.9,2226.02,7427.28,38.3511,41.9626,-19.5586
3.069,31825.7,-12139.5,15777.7,84.1645,-165.748,-174.071,5384.23,2052.69,9077.34,-9.25331,48.3325,23.182,-3484.48,26185.5,-7371.24,-85.6292,118.079,-238.018,-8091.67,-11091.3,-1375.32,-16.1127,-47.1044,119.381,-1274.85,20574.4,-3628.3,-96.5309,-21.6711,184.602,-15065.7,-18025.2,471.168,-29.1097,-92.6553,200.543,13196.2,2202.35,7418.3,38.6836,40.6838,-17.8849
