Time,RFoot_accel.x,RFoot_accel.y,RFoot_accel.z,RFoot_gyro.x,RFoot_gyro.y,RFoot_gyro.z,LFoot_accel.x,LFoot_accel.y,LFoot_accel.z,LFoot_gyro.x,LFoot_gyro.y,LFoot_gyro.z,RShank_accel.x,RShank_accel.y,RShank_accel.z,RShank_gyro.x,RShank_gyro.y,RShank_gyro.z,LShank_accel.x,LShank_accel.y,LShank_accel.z,LShank_gyro.x,LShank_gyro.y,LShank_gyro.z,RThigh_accel.x,RThigh_accel.y,RThigh_accel.z,RThigh_gyro.x,RThigh_gyro.y,RThigh_gyro.z,LThigh_accel.x,LThigh_accel.y,LThigh_accel.z,LThigh_gyro.x,LThigh_gyro.y,LThigh_gyro.z,Pelvis_accel.x,Pelvis_accel.y,Pelvis_accel.z,Pelvis_gyro.x,Pelvis_gyro.y,Pelvis_gyro.z
2.81,4649.42,-5154.48,7796.78,-10.7029,-21.4259,-20.7186,2270.43,3128.86,4513.61,-8.56608,388.365,-70.8217,1739.76,10204.6,-2497.0,1.75378,-54.9767,-30.4172,1033.52,-3394.45,-1541.45,-57.0173,-13.9101,-268.182,2565.02,9383.27,-1284.26,102.307,-108.552,-97.9063,-5573.08,-6319.5,2376.01,-38.5469,149.28,-123.499,5435.7,1154.02,576.488,23.6604,17.4003,-79.792
2.811,4668.95,-5171.7,7786.99,-10.2273,-21.5793,-21.7333,2312.18,3010.88,4657.67,-8.19787,388.721,-71.2945,1784.0,10186.6,-2579.88,1.72343,-54.7517,-30.786,1004.2,-3516.35,-1508.02,-57.8762,-14.0743,-269.825,2652.57,9327.2,-1329.38,102.526,-110.11,-98.1955,-5619.65,-6311.83,2298.09,-35.1779,155.472,-124.577,5402.97,1175.42,571.205,21.8664,17.4104,-78.4108
2.812,4688.47,-5188.91,7777.2,-9.75174,-21.7326,-22.7481,2353.94,2892.89,4801.73,-7.82966,389.077,-71.7674,1828.24,10168.6,-2662.75,1.69308,-54.5267,-31.1547,974.881,-3638.26,-1474.59,-58.7351,-14.2385,-271.467,2740.13,9271.13,-1374.5,102.745,-111.669,-98.4846,-5666.23,-6304.15,2220.18,-31.8089,161.663,-125.655,5370.24,1196.82,565.922,20.0724,17.4205,-77.0297
2.813,4707.99,-5206.13,7767.41,-9.27618,-21.886,-23.7628,2395.69,2774.91,4945.79,-7.46145,389.433,-72.2402,1872.48,10150.6,-2745.62,1.66273,-54.3016,-31.5234,945.562,-3760.17,-1441.17,-59.594,-14.4026,-273.11,2827.68,9215.05,-1419.62,102.965,-113.227,-98.7738,-5712.8,-6296.48,2142.26,-28.4398,167.854,-126.734,5337.51,1218.22,560.64,18.2784,17.4306,-75.6486
2.814,4711.9,-5170.62,7772.6,-9.04841,-22.0906,-24.7575,2410.38,2659.85,5055.72,-6.32749,389.487,-72.7124,1880.23,10138.6,-2784.75,1.6458,-53.8897,-31.8965,940.199,-3889.97,-1386.43,-60.6173,-14.363,-274.932,2896.31,9158.7,-1485.14,103.358,-114.723,-98.9278,-5739.54,-6271.42,2092.35,-25.8427,173.829,-127.692,5275.14,1213.26,559.605,16.9737,17.4316,-74.264
2.815,4708.02,-5108.76,7785.27,-8.94453,-22.3207,-25.7422,2411.53,2546.26,5148.6,-4.81065,389.39,-73.1843,1869.74,10129.4,-2802.01,1.63558,-53.3842,-32.2716,946.814,-4023.7,-1321.04,-61.7228,-14.2215,-276.843,2955.47,9102.21,-1560.85,103.838,-116.189,-99.0143,-5756.37,-6237.68,2056.44,-23.6316,179.696,-128.591,5197.96,1195.12,560.694,15.9135,17.4281,-72.8778
2.816,4704.13,-5046.9,7797.94,-8.84065,-22.5509,-26.7269,2412.69,2432.66,5241.47,-3.29381,389.293,-73.6561,1859.26,10120.3,-2819.26,1.62537,-52.8787,-32.6468,953.429,-4157.44,-1255.65,-62.8283,-14.08,-278.755,3014.64,9045.71,-1636.56,104.318,-117.654,-99.1008,-5773.2,-6203.93,2020.53,-21.4204,185.563,-129.49,5120.77,1176.97,561.783,14.8533,17.4246,-71.4915
2.817,4700.25,-4985.04,7810.61,-8.73677,-22.7811,-27.7116,2413.84,2319.07,5334.34,-1.77698,389.196,-74.128,1848.77,10111.2,-2836.52,1.61515,-52.3732,-33.022,960.045,-4291.18,-1190.27,-63.9337,-13.9385,-280.666,3073.8,8989.22,-1712.28,104.799,-119.119,-99.1872,-5790.03,-6170.18,1984.63,-19.2092,191.431,-130.389,5043.58,1158.83,562.872,13.7931,17.421,-70.1052
2.818,4692.75,-4915.51,7821.68,-8.74476,-23.0237,-28.6582,2416.98,2206.23,5423.61,-0.0995174,389.063,-74.5937,1825.62,10108.4,-2839.53,1.58758,-51.8859,-33.3834,970.615,-4417.14,-1127.7,-65.0692,-13.8656,-282.594,3122.21,8925.47,-1791.34,105.351,-120.45,-99.2819,-5812.86,-6116.74,1960.92,-17.2063,196.941,-131.176,4973.51,1145.54,557.083,12.6635,17.4289,-68.6714
2.819,4672.6,-4819.13,7827.16,-9.14428,-23.3101,-29.4717,2427.05,2096.02,5500.25,2.14012,388.804,-75.0379,1758.17,10127.6,-2792.71,1.49929,-51.4621,-33.6964,995.03,-4515.91,-1074.99,-66.3094,-14.0327,-284.579,3132.96,8836.31,-1882.13,106.157,-121.308,-99.4053,-5856.69,-5994.37,1979.91,-15.9321,201.206,-131.57,4928.36,1149.21,527.218,11.2908,17.4769,-67.071
2.82,4652.45,-4722.76,7832.65,-9.54381,-23.5964,-30.2851,2437.12,1985.82,5576.89,4.37975,388.545,-75.4822,1690.71,10146.8,-2745.88,1.411,-51.0384,-34.0095,1019.44,-4614.68,-1022.28,-67.5496,-14.1998,-286.563,3143.71,8747.15,-1972.92,106.962,-122.166,-99.5287,-5900.52,-5872.0,1998.9,-14.6579,205.47,-131.965,4883.21,1152.88,497.354,9.91809,17.5249,-65.4706
2.821,4632.31,-4626.38,7838.14,-9.94334,-23.8827,-31.0986,2447.19,1875.61,5653.53,6.61939,388.287,-75.9265,1623.25,10166.0,-2699.05,1.3227,-50.6146,-34.3225,1043.86,-4713.45,-969.566,-68.7898,-14.3669,-288.548,3154.46,8658.0,-2063.71,107.768,-123.024,-99.6521,-5944.35,-5749.63,2017.88,-13.3837,209.734,-132.359,4838.06,1156.56,467.49,8.54539,17.5729,-63.8702
2.822,4612.16,-4530.0,7843.62,-10.3429,-24.1691,-31.9121,2457.27,1765.4,5730.17,8.85902,388.028,-76.3708,1555.79,10185.1,-2652.22,1.23441,-50.1908,-34.6355,1068.27,-4812.22,-916.856,-70.03,-14.534,-290.533,3165.21,8568.84,-2154.5,108.574,-123.882,-99.7755,-5988.19,-5627.25,2036.87,-12.1096,213.999,-132.754,4792.92,1160.23,437.626,7.17271,17.6209,-62.2699
2.823,4558.08,-4394.15,7909.87,-12.6054,-24.7607,-32.6603,2494.32,1669.6,5839.25,11.3913,387.723,-77.1087,1491.23,10215.0,-2647.35,1.50628,-50.2739,-34.6328,1065.78,-4904.67,-911.174,-71.185,-14.984,-292.617,3167.65,8521.7,-2217.97,109.086,-124.305,-100.016,-6017.19,-5501.47,2031.61,-12.0026,216.511,-132.953,4765.87,1094.9,378.761,7.08421,17.5949,-60.7195
2.824,4494.3,-4247.02,7993.49,-15.4002,-25.4396,-33.39,2539.08,1577.92,5957.59,14.0073,387.406,-77.9306,1427.49,10247.8,-2654.47,1.88106,-50.5017,-34.5398,1055.59,-4995.31,-918.928,-72.3157,-15.5147,-294.728,3167.72,8486.57,-2273.63,109.514,-124.605,-100.289,-6041.95,-5374.7,2019.43,-12.2291,218.523,-133.095,4744.0,1009.86,311.609,7.36262,17.5478,-59.1834
2.825,4430.52,-4099.89,8077.1,-18.1951,-26.1185,-34.1196,2583.85,1486.24,6075.94,16.6232,387.088,-78.7526,1363.75,10280.7,-2661.58,2.25584,-50.7295,-34.4467,1045.4,-5085.95,-926.682,-73.4463,-16.0455,-296.84,3167.78,8451.44,-2329.29,109.942,-124.905,-100.562,-6066.72,-5247.93,2007.24,-12.4556,220.534,-133.237,4722.13,924.823,244.457,7.64103,17.5007,-57.6473
2.826,4366.74,-3952.76,8160.72,-20.9899,-26.7974,-34.8493,2628.61,1394.55,6194.28,19.2391,386.771,-79.5745,1300.01,10313.6,-2668.7,2.63063,-50.9574,-34.3537,1035.22,-5176.59,-934.436,-74.577,-16.5762,-298.952,3167.84,8416.31,-2384.95,110.371,-125.204,-100.836,-6091.48,-5121.17,1995.06,-12.6821,222.546,-133.38,4700.25,839.783,177.306,7.91944,17.4536,-56.1112
2.827,4332.56,-3944.02,8118.31,-22.7949,-27.0977,-35.4994,2684.91,1334.56,6302.79,21.9512,386.534,-80.4427,1223.31,10323.2,-2777.28,3.2278,-51.7193,-34.0309,1015.48,-5257.27,-933.25,-75.674,-17.2185,-301.1,3156.21,8393.28,-2433.81,110.548,-125.325,-101.086,-6125.11,-4984.69,1988.29,-13.4154,223.85,-133.473,4701.2,791.085,135.72,7.87829,17.3701,-54.5967
2.828,4357.57,-4212.05,7823.86,-22.62,-26.6406,-35.9906,2764.31,1337.96,6391.63,24.8556,386.459,-81.4038,1120.67,10286.3,-3088.78,4.26978,-53.5492,-33.2484,976.626,-5318.02,-914.184,-76.7035,-18.084,-303.322,3121.17,8394.45,-2469.04,110.224,-125.088,-101.289,-6176.47,-4828.77,1992.35,-15.1623,223.739,-133.468,4747.76,815.071,145.264,7.19798,17.214,-53.1257
2.829,4382.58,-4480.08,7529.4,-22.4452,-26.1835,-36.4817,2843.7,1341.35,6480.48,27.76,386.385,-82.3648,1018.03,10249.3,-3400.28,5.31175,-55.3791,-32.4659,937.774,-5378.76,-895.117,-77.7331,-18.9494,-305.544,3086.14,8395.62,-2504.28,109.901,-124.852,-101.492,-6227.84,-4672.85,1996.42,-16.9091,223.629,-133.464,4794.33,839.056,154.809,6.51768,17.0578,-51.6547
2.83,4407.6,-4748.12,7234.95,-22.2703,-25.7264,-36.9728,2923.09,1344.75,6569.32,30.6644,386.31,-83.3259,915.393,10212.4,-3711.78,6.35373,-57.2091,-31.6834,898.923,-5439.51,-876.051,-78.7626,-19.8149,-307.766,3051.1,8396.79,-2539.51,109.577,-124.615,-101.695,-6279.2,-4516.93,2000.48,-18.656,223.518,-133.459,4840.9,863.041,164.354,5.83738,16.9017,-50.1837
2.831,4432.61,-5016.15,6940.5,-22.0955,-25.2693,-37.464,3002.48,1348.15,6658.16,33.5689,386.235,-84.2869,812.754,10175.4,-4023.29,7.3957,-59.039,-30.9009,860.071,-5500.26,-856.984,-79.7922,-20.6803,-309.988,3016.07,8397.95,-2574.75,109.253,-124.378,-101.898,-6330.56,-4361.01,2004.55,-20.4029,223.407,-133.455,4887.47,887.027,173.898,5.15708,16.7456,-48.7127
2.832,4556.74,-5622.94,6809.07,-21.8011,-24.3642,-39.9024,3135.5,1450.98,6718.56,36.2835,386.629,-85.0769,673.957,10010.6,-4282.11,7.41808,-60.3109,-31.3128,758.67,-5568.8,-868.486,-81.0016,-21.4615,-312.406,2944.71,8409.67,-2560.43,108.273,-123.867,-102.197,-6377.34,-4248.06,1930.23,-23.2885,221.797,-132.929,4942.58,925.09,189.691,3.29208,16.7086,-47.1572
2.833,4693.27,-6272.07,6698.02,-21.4918,-23.403,-42.5843,3275.23,1566.25,6775.4,38.9744,387.08,-85.8454,530.641,9829.78,-4534.35,7.313,-61.5131,-31.8739,649.449,-5638.32,-883.808,-82.2335,-22.2321,-314.848,2868.81,8422.71,-2539.92,107.212,-123.322,-102.508,-6423.53,-4140.47,1846.11,-26.3163,219.999,-132.338,4998.76,964.912,206.265,1.27898,16.6866,-45.5911
2.834,4829.79,-6921.19,6586.97,-21.1824,-22.4419,-45.2662,3414.96,1681.51,6832.24,41.6653,387.532,-86.614,387.325,9648.96,-4786.59,7.20793,-62.7153,-32.435,540.228,-5707.84,-899.13,-83.4654,-23.0028,-317.291,2792.91,8435.74,-2519.41,106.151,-122.777,-102.82,-6469.73,-4032.89,1762.0,-29.3442,218.2,-131.746,5054.94,1004.73,222.838,-0.734108,16.6645,-44.0251
2.835,4966.32,-7570.32,6475.92,-20.8731,-21.4807,-47.948,3554.69,1796.78,6889.09,44.3562,387.984,-87.3826,244.008,9468.13,-5038.84,7.10285,-63.9175,-32.9962,431.008,-5777.37,-914.453,-84.6973,-23.7734,-319.733,2717.01,8448.78,-2498.9,105.089,-122.232,-103.131,-6515.93,-3925.3,1677.88,-32.3721,216.402,-131.155,5111.12,1044.56,239.412,-2.7472,16.6425,-42.459
2.836,5103.26,-7790.03,6467.16,-21.2099,-20.8629,-50.5244,3706.28,1918.61,6965.98,46.6569,388.475,-88.2329,193.157,9379.82,-5016.68,6.5473,-64.4102,-33.9715,350.472,-5846.62,-938.16,-85.9263,-24.3342,-322.077,2638.78,8469.87,-2479.46,103.958,-121.724,-103.388,-6601.3,-3825.98,1602.08,-35.413,214.003,-130.39,5158.09,1068.17,252.602,-4.57592,16.557,-40.9701
2.837,5240.73,-7472.97,6586.27,-22.3544,-20.6744,-52.969,3872.7,2048.66,7067.95,48.4698,389.014,-89.1855,257.887,9407.16,-4651.54,5.42865,-64.016,-35.4646,305.794,-5915.55,-972.349,-87.1516,-24.6326,-324.299,2557.64,8501.04,-2461.37,102.74,-121.263,-103.577,-6735.64,-3736.98,1536.68,-38.4703,210.853,-129.406,5193.56,1071.53,261.563,-6.17418,16.392,-39.5776
2.838,5378.2,-7155.91,6705.37,-23.4989,-20.4858,-55.4135,4039.11,2178.71,7169.92,50.2827,389.553,-90.138,322.616,9434.49,-4286.4,4.31,-63.6218,-36.9577,261.115,-5984.48,-1006.54,-88.3768,-24.931,-326.52,2476.5,8532.2,-2443.27,101.522,-120.801,-103.767,-6869.98,-3647.98,1471.28,-41.5276,207.703,-128.423,5229.03,1074.89,270.524,-7.77244,16.227,-38.1851
2.839,5515.66,-6838.85,6824.47,-24.6434,-20.2973,-57.858,4205.53,2308.76,7271.88,52.0956,390.092,-91.0905,387.346,9461.82,-3921.26,3.19135,-63.2277,-38.4508,216.436,-6053.41,-1040.73,-89.6021,-25.2294,-328.741,2395.36,8563.36,-2425.18,100.304,-120.34,-103.956,-7004.32,-3558.98,1405.87,-44.5849,204.553,-127.439,5264.5,1078.25,279.485,-9.37069,16.0621,-36.7926
2.84,5653.13,-6521.78,6943.58,-25.7879,-20.1087,-60.3025,4371.95,2438.8,7373.85,53.9084,390.631,-92.0431,452.076,9489.16,-3556.12,2.0727,-62.8335,-39.9438,171.758,-6122.34,-1074.91,-90.8274,-25.5279,-330.963,2314.21,8594.52,-2407.09,99.0861,-119.879,-104.145,-7138.66,-3469.98,1340.47,-47.6422,201.402,-126.456,5299.97,1081.61,288.446,-10.9689,15.8971,-35.4001
2.841,5765.73,-5828.27,6990.5,-25.936,-20.0011,-60.6569,4528.91,2526.12,7480.95,54.9983,390.999,-93.1884,509.398,9631.01,-3134.73,1.79056,-62.9274,-40.7097,132.428,-6186.71,-1139.95,-92.2552,-25.4522,-333.34,2206.45,8648.13,-2395.72,98.5516,-119.794,-104.43,-7134.73,-3471.33,1333.11,-50.1199,197.415,-125.308,5373.9,1057.66,270.753,-12.566,15.7076,-33.6988
2.842,5878.33,-5134.76,7037.43,-26.0841,-19.8935,-61.0112,4685.87,2613.44,7588.06,56.0882,391.366,-94.3337,566.721,9772.87,-2713.35,1.50842,-63.0213,-41.4756,93.0989,-6251.08,-1204.99,-93.683,-25.3765,-335.716,2098.69,8701.74,-2384.35,98.017,-119.709,-104.716,-7130.79,-3472.68,1325.74,-52.5976,193.427,-124.16,5447.83,1033.71,253.06,-14.163,15.5182,-31.9975
2.843,5990.94,-4441.25,7084.35,-26.2322,-19.786,-61.3655,4842.83,2700.76,7695.16,57.1781,391.733,-95.4791,624.043,9914.73,-2291.97,1.22628,-63.1153,-42.2414,53.7695,-6315.44,-1270.02,-95.1109,-25.3009,-338.093,1990.93,8755.35,-2372.98,97.4825,-119.625,-105.001,-7126.86,-3474.03,1318.38,-55.0753,189.44,-123.013,5521.77,1009.77,235.367,-15.76,15.3287,-30.2962
2.844,6103.54,-3747.74,7131.28,-26.3802,-19.6784,-61.7198,4999.8,2788.07,7802.27,58.268,392.1,-96.6244,681.366,10056.6,-1870.59,0.944133,-63.2092,-43.0073,14.4401,-6379.81,-1335.06,-96.5387,-25.2252,-340.47,1883.17,8808.96,-2361.61,96.948,-119.54,-105.286,-7122.92,-3475.37,1311.02,-57.5529,185.452,-121.865,5595.7,985.821,217.675,-17.357,15.1392,-28.5949
2.845,6124.03,-3366.34,7157.17,-26.5184,-19.7002,-61.6641,5140.54,2857.98,7873.06,59.3224,392.564,-97.6491,633.032,10145.1,-1632.91,0.924595,-63.2591,-43.6303,-0.447713,-6462.31,-1354.74,-98.0549,-25.0883,-342.752,1809.1,8854.64,-2335.77,96.7139,-119.941,-105.525,-7167.9,-3484.91,1323.09,-59.0908,181.186,-120.457,5673.0,955.006,227.554,-18.4158,14.7836,-27.0688
2.846,6070.85,-3234.61,7166.23,-26.6485,-19.8255,-61.2803,5268.31,2913.94,7914.81,60.3483,393.105,-98.5773,500.174,10191.0,-1542.19,1.11514,-63.2738,-44.1391,4.21778,-6559.32,-1338.13,-99.6419,-24.9025,-344.958,1761.96,8893.98,-2298.35,96.7202,-120.73,-105.728,-7252.0,-3501.01,1350.72,-59.8767,176.696,-118.842,5752.99,918.695,259.49,-19.044,14.2951,-25.6828
2.847,6017.66,-3102.88,7175.29,-26.7787,-19.9508,-60.8965,5396.07,2969.91,7956.56,61.3741,393.646,-99.5054,367.316,10236.8,-1451.46,1.30569,-63.2885,-44.6479,8.88328,-6656.33,-1321.52,-101.229,-24.7166,-347.165,1714.83,8933.31,-2260.93,96.7266,-121.52,-105.93,-7336.1,-3517.11,1378.34,-60.6627,172.206,-117.227,5832.97,882.385,291.427,-19.6722,13.8067,-24.2968
2.848,5964.47,-2971.15,7184.35,-26.9089,-20.0761,-60.5127,5523.84,3025.88,7998.3,62.4,394.188,-100.434,234.458,10282.7,-1360.74,1.49623,-63.3031,-45.1567,13.5488,-6753.35,-1304.91,-102.816,-24.5308,-349.371,1667.69,8972.65,-2223.52,96.7329,-122.309,-106.132,-7420.2,-3533.2,1405.97,-61.4487,167.717,-115.612,5912.96,846.074,323.363,-20.3004,13.3182,-22.9108
2.849,5912.35,-2868.87,7189.6,-27.0427,-20.2402,-60.1531,5651.55,3076.99,8040.87,63.4367,394.732,-101.38,104.222,10326.9,-1277.46,1.65373,-63.2879,-45.6288,23.1912,-6849.43,-1285.2,-104.373,-24.3516,-351.554,1626.29,9013.37,-2191.5,96.7629,-123.163,-106.324,-7496.26,-3555.8,1434.52,-62.0575,163.267,-113.972,5996.08,817.73,352.288,-21.0302,12.8418,-21.5357
2.85,5868.81,-3002.16,7164.43,-27.2055,-20.7144,-59.9863,5778.84,3089.23,8090.03,64.5595,395.304,-102.473,-5.03522,10358.1,-1253.69,1.54683,-63.033,-45.8074,72.6496,-6938.12,-1240.66,-105.689,-24.2261,-353.557,1630.76,9065.17,-2202.7,96.9823,-124.531,-106.435,-7507.98,-3630.4,1470.48,-61.2492,159.14,-112.127,6104.24,853.116,357.115,-22.573,12.4624,-20.2478
2.851,5825.26,-3135.46,7139.26,-27.3682,-21.1886,-59.8195,5906.13,3101.48,8139.19,65.6823,395.876,-103.566,-114.292,10389.3,-1229.93,1.43993,-62.778,-45.9859,122.108,-7026.82,-1196.12,-107.005,-24.1005,-355.561,1635.23,9116.96,-2213.89,97.2017,-125.9,-106.547,-7519.69,-3705.01,1506.44,-60.4409,155.012,-110.283,6212.4,888.501,361.942,-24.1158,12.083,-18.9599
2.852,5781.72,-3268.75,7114.08,-27.531,-21.6628,-59.6527,6033.41,3113.72,8188.36,66.8052,396.448,-104.66,-223.55,10420.5,-1206.16,1.33303,-62.5231,-46.1644,171.566,-7115.51,-1151.59,-108.322,-23.975,-357.564,1639.7,9168.76,-2225.08,97.4211,-127.269,-106.658,-7531.41,-3779.61,1542.4,-59.6326,150.884,-108.438,6320.56,923.887,366.769,-25.6586,11.7036,-17.672
2.853,5738.17,-3402.04,7088.91,-27.6938,-22.137,-59.4859,6160.7,3125.97,8237.52,67.928,397.02,-105.753,-332.807,10451.8,-1182.4,1.22613,-62.2682,-46.3429,221.025,-7204.2,-1107.05,-109.638,-23.8494,-359.567,1644.17,9220.56,-2236.28,97.6405,-128.638,-106.77,-7543.12,-3854.22,1578.36,-58.8243,146.757,-106.594,6428.72,959.273,371.595,-27.2013,11.3241,-16.3841
2.854,5773.8,-3502.47,7059.66,-27.677,-22.4424,-59.3517,6277.32,3108.0,8296.95,68.877,397.526,-107.057,-351.445,10457.4,-1115.38,1.1546,-62.131,-46.5847,255.387,-7307.21,-1069.61,-110.94,-23.6449,-361.358,1650.56,9254.69,-2286.44,97.5942,-129.854,-106.698,-7587.94,-3918.5,1638.44,-56.538,142.942,-104.944,6513.95,951.671,375.485,-28.3041,10.8928,-15.1095
2.855,5849.01,-3586.46,7028.37,-27.5704,-22.6634,-59.2338,6388.6,3074.92,8361.52,69.7391,397.998,-108.468,-324.773,10450.3,-1026.74,1.10076,-62.0526,-46.858,282.201,-7417.39,-1035.72,-112.236,-23.4009,-363.044,1657.9,9280.0,-2356.08,97.415,-130.994,-106.534,-7649.31,-3977.63,1710.6,-53.5126,139.284,-103.391,6587.71,922.576,378.906,-29.1868,10.4354,-13.8415
2.856,5924.23,-3670.46,6997.09,-27.4638,-22.8845,-59.1159,6499.89,3041.84,8426.09,70.6011,398.471,-109.878,-298.102,10443.2,-938.095,1.04692,-61.9742,-47.1313,309.014,-7527.56,-1001.84,-113.532,-23.1568,-364.729,1665.25,9305.31,-2425.72,97.2359,-132.134,-106.37,-7710.68,-4036.76,1782.75,-50.4873,135.626,-101.837,6661.47,893.48,382.328,-30.0696,9.97808,-12.5735
2.857,5999.44,-3754.46,6965.8,-27.3572,-23.1055,-58.9981,6611.17,3008.76,8490.66,71.4632,398.943,-111.288,-271.43,10436.1,-849.452,0.993074,-61.8958,-47.4046,335.828,-7637.73,-967.952,-114.828,-22.9128,-366.415,1672.59,9330.62,-2495.36,97.0567,-133.274,-106.206,-7772.05,-4095.88,1854.9,-47.4619,131.967,-100.284,6735.24,864.385,385.749,-30.9524,9.52073,-11.3055
2.858,6071.91,-3817.21,6945.54,-27.2321,-23.325,-58.9649,6729.64,2980.29,8553.29,72.2741,399.405,-112.705,-231.509,10413.9,-777.07,0.941497,-61.7757,-47.7347,363.278,-7750.09,-930.022,-116.103,-22.6393,-368.046,1671.12,9355.35,-2566.97,96.6966,-134.166,-105.986,-7821.25,-4159.17,1912.56,-44.0146,128.451,-98.7739,6814.67,846.278,384.63,-31.815,9.04182,-10.153
2.859,6134.77,-3805.6,6963.87,-27.0422,-23.5394,-59.2282,6873.26,2967.92,8609.14,72.9059,399.83,-114.143,-145.215,10338.8,-761.6,0.897853,-61.5097,-48.2638,392.952,-7870.11,-877.941,-117.307,-22.2629,-369.487,1638.8,9378.03,-2645.46,95.7032,-134.186,-105.567,-7827.83,-4237.01,1919.49,-39.0902,125.43,-97.4127,6913.95,866.629,367.618,-32.607,8.48742,-9.40529
2.86,6197.63,-3793.99,6982.2,-26.8522,-23.7538,-59.4915,7016.87,2955.55,8665.0,73.5377,400.256,-115.581,-58.9218,10263.8,-746.131,0.85421,-61.2438,-48.7928,422.626,-7990.12,-825.86,-118.51,-21.8865,-370.928,1606.48,9400.71,-2723.95,94.7099,-134.207,-105.148,-7834.41,-4314.84,1926.42,-34.1657,122.409,-96.0514,7013.24,886.979,350.607,-33.399,7.93303,-8.65753
2.861,6260.48,-3782.37,7000.52,-26.6623,-23.9682,-59.7548,7160.49,2943.18,8720.85,74.1695,400.681,-117.019,27.3718,10188.7,-730.661,0.810567,-60.9778,-49.3219,452.3,-8110.14,-773.779,-119.714,-21.51,-372.37,1574.16,9423.39,-2802.43,93.7165,-134.228,-104.729,-7840.99,-4392.68,1933.35,-29.2413,119.388,-94.6902,7112.52,907.33,333.596,-34.1911,7.37863,-7.90977
2.862,6323.34,-3770.76,7018.85,-26.4724,-24.1826,-60.0181,7304.1,2930.82,8776.71,74.8013,401.107,-118.457,113.665,10113.7,-715.192,0.766923,-60.7119,-49.851,481.974,-8230.16,-721.698,-120.918,-21.1336,-373.811,1541.84,9446.07,-2880.92,92.7232,-134.248,-104.311,-7847.57,-4470.51,1940.28,-24.3169,116.367,-93.329,7211.8,927.681,316.585,-34.9831,6.82424,-7.16202
2.863,6327.22,-3674.61,7038.78,-26.3478,-24.2171,-60.0632,7451.38,2939.45,8847.82,75.396,401.33,-119.819,194.668,10064.6,-681.179,0.845033,-59.9217,-50.4456,478.808,-8366.88,-704.152,-122.081,-20.472,-374.997,1484.46,9461.39,-2964.13,91.4348,-132.89,-103.951,-7889.39,-4492.83,1926.97,-19.1615,113.99,-92.3982,7271.58,953.646,302.941,-35.7418,6.21341,-6.68872
2.864,6314.24,-3554.3,7059.16,-26.2419,-24.2002,-60.046,7599.72,2954.09,8923.3,75.98,401.496,-121.16,274.158,10023.0,-641.868,0.957929,-58.9818,-51.0591,466.258,-8508.37,-696.472,-123.233,-19.7289,-376.11,1419.93,9474.61,-3048.69,90.0622,-131.138,-103.608,-7941.29,-4499.29,1907.88,-13.9401,111.798,-91.5903,7320.07,981.216,290.259,-36.491,5.58645,-6.29384
2.865,6301.26,-3433.99,7079.55,-26.1361,-24.1833,-60.0287,7748.05,2968.73,8998.78,76.5641,401.662,-122.501,353.649,9981.45,-602.558,1.07083,-58.0419,-51.6725,453.709,-8649.87,-688.792,-124.386,-18.9858,-377.222,1355.4,9487.82,-3133.25,88.6895,-129.385,-103.265,-7993.18,-4505.75,1888.79,-8.71874,109.606,-90.7824,7368.56,1008.78,277.578,-37.2403,4.9595,-5.89896
2.866,6288.29,-3313.69,7099.93,-26.0302,-24.1664,-60.0115,7896.38,2983.37,9074.26,77.1481,401.828,-123.842,433.139,9939.85,-563.247,1.18372,-57.102,-52.286,441.16,-8791.36,-681.113,-125.538,-18.2427,-378.335,1290.87,9501.04,-3217.8,87.3169,-127.633,-102.922,-8045.08,-4512.21,1869.69,-3.49735,107.414,-89.9746,7417.06,1036.35,264.896,-37.9895,4.33254,-5.50408
2.867,6243.73,-3214.34,7150.91,-25.721,-24.215,-59.8677,8037.47,3015.14,9156.36,77.7029,401.906,-125.226,507.262,9907.53,-510.232,1.34517,-56.1924,-52.8395,450.057,-8933.66,-671.24,-126.646,-17.3365,-379.411,1214.06,9503.31,-3309.77,85.9466,-125.28,-102.575,-8102.84,-4488.21,1863.78,1.57813,105.371,-89.2792,7474.93,1059.45,259.877,-38.5227,3.72135,-5.16041
2.868,6136.02,-3156.9,7263.09,-25.0052,-24.3946,-59.4707,8164.08,3081.19,9251.72,78.1991,401.807,-126.696,570.647,9893.76,-429.807,1.60374,-55.3433,-53.2732,501.844,-9077.55,-656.98,-127.665,-16.1043,-380.412,1112.69,9483.67,-3416.54,84.5808,-121.725,-102.221,-8172.33,-4403.31,1884.23,6.36179,103.628,-88.809,7551.58,1073.61,270.181,-38.6241,3.1417,-4.91916
2.869,6028.31,-3099.46,7375.26,-24.2894,-24.5742,-59.0738,8290.69,3147.24,9347.07,78.6953,401.708,-128.166,634.033,9880.0,-349.381,1.8623,-54.4943,-53.7069,553.631,-9221.45,-642.72,-128.685,-14.8721,-381.413,1011.32,9464.03,-3523.32,83.2151,-118.171,-101.866,-8241.82,-4318.4,1904.68,11.1455,101.884,-88.3388,7628.24,1087.77,280.485,-38.7255,2.56204,-4.67791
2.87,5920.6,-3042.02,7487.44,-23.5737,-24.7538,-58.6768,8417.3,3213.29,9442.42,79.1915,401.609,-129.636,697.419,9866.23,-268.956,2.12086,-53.6453,-54.1406,605.418,-9365.34,-628.46,-129.705,-13.6399,-382.414,909.952,9444.39,-3630.1,81.8494,-114.617,-101.512,-8311.32,-4233.49,1925.13,15.9291,100.141,-87.8686,7704.89,1101.92,290.79,-38.8269,1.98239,-4.43665
2.871,5812.89,-2984.58,7599.61,-22.8579,-24.9334,-58.2798,8543.91,3279.35,9537.77,79.6877,401.51,-131.106,760.804,9852.46,-188.531,2.37943,-52.7963,-54.5744,657.205,-9509.24,-614.201,-130.724,-12.4076,-383.414,808.584,9424.75,-3736.87,80.4837,-111.063,-101.157,-8380.81,-4148.58,1945.57,20.7128,98.3978,-87.3983,7781.54,1116.08,301.094,-38.9283,1.40273,-4.1954
2.872,5658.91,-2990.33,7674.79,-22.4981,-25.3141,-58.0765,8663.17,3357.46,9616.58,80.1273,401.346,-132.753,825.891,9861.89,-97.3446,2.27151,-52.0445,-54.9929,662.709,-9641.27,-625.402,-131.722,-10.7897,-384.223,718.904,9440.72,-3781.77,79.03,-106.637,-100.86,-8446.28,-4026.73,1904.65,24.5365,97.0097,-87.477,7843.85,1186.36,285.793,-38.8427,0.695161,-3.91837
2.873,5499.15,-3003.97,7745.34,-22.1828,-25.72,-57.8975,8781.51,3437.08,9693.32,80.5598,401.174,-134.422,891.191,9874.21,-4.81352,2.11779,-51.3048,-55.4096,662.428,-9771.83,-639.786,-132.717,-9.1236,-385.008,630.685,9461.14,-3818.93,77.5654,-102.101,-100.569,-8511.25,-3900.26,1856.05,28.2403,95.666,-87.6244,7904.38,1263.66,267.291,-38.7337,-0.0284021,-3.63688
2.874,5339.39,-3017.62,7815.89,-21.8675,-26.1259,-57.7184,8899.84,3516.7,9770.06,80.9923,401.001,-136.092,956.491,9886.53,87.7176,1.96407,-50.5652,-55.8262,662.146,-9902.38,-654.171,-133.712,-7.45747,-385.792,542.465,9481.56,-3856.09,76.1007,-97.5661,-100.278,-8576.23,-3773.8,1807.45,31.944,94.3224,-87.7717,7964.91,1340.96,248.789,-38.6247,-0.751965,-3.35538
2.875,5179.63,-3031.26,7886.44,-21.5522,-26.5318,-57.5393,9018.18,3596.33,9846.79,81.4248,400.829,-137.761,1021.79,9898.85,180.249,1.81035,-49.8255,-56.2429,661.865,-10032.9,-668.555,-134.706,-5.79134,-386.577,454.246,9501.98,-3893.26,74.636,-93.0308,-99.9873,-8641.2,-3647.33,1758.86,35.6477,92.9787,-87.919,8025.43,1418.25,230.287,-38.5157,-1.47553,-3.07388
2.876,5069.02,-2992.35,7935.69,-21.1963,-27.0,-57.2637,9141.57,3653.36,9926.35,81.69,400.712,-139.501,1065.02,9917.14,292.325,1.58598,-49.1204,-56.5974,655.566,-10178.9,-688.989,-135.659,-3.74518,-387.278,385.755,9531.02,-3904.63,73.0064,-88.5283,-99.6255,-8710.49,-3519.82,1720.75,38.6851,91.553,-88.2262,8064.91,1476.89,222.377,-38.3622,-2.21592,-2.92174
2.877,5019.86,-2887.73,7958.31,-20.7897,-27.5459,-56.8673,9271.26,3682.14,10009.4,81.746,400.663,-141.33,1080.65,9942.88,428.833,1.27331,-48.4587,-56.8742,641.747,-10344.1,-716.986,-136.559,-1.224,-387.874,341.923,9570.84,-3883.77,71.1705,-84.0668,-99.1748,-8785.17,-3391.03,1695.75,40.8895,90.0248,-88.7333,8078.08,1512.19,227.705,-38.153,-2.97735,-2.93129
2.878,4970.69,-2783.12,7980.92,-20.3831,-28.0919,-56.4709,9400.95,3710.93,10092.5,81.802,400.615,-143.158,1096.28,9968.62,565.342,0.960645,-47.7969,-57.1511,627.927,-10509.3,-744.983,-137.46,1.29719,-388.471,298.091,9610.66,-3862.9,69.3346,-79.6054,-98.7242,-8859.85,-3262.23,1670.76,43.0938,88.4967,-89.2404,8091.25,1547.5,233.034,-37.9438,-3.73878,-2.94083
2.879,4921.53,-2678.5,8003.54,-19.9765,-28.6378,-56.0745,9530.64,3739.72,10175.6,81.858,400.566,-144.987,1111.91,9994.36,701.85,0.647977,-47.1351,-57.4279,614.107,-10674.6,-772.98,-138.36,3.81837,-389.067,254.259,9650.48,-3842.04,67.4987,-75.1439,-98.2735,-8934.54,-3133.43,1645.77,45.2982,86.9685,-89.7475,8104.42,1582.8,238.362,-37.7346,-4.50021,-2.95038
2.88,4872.36,-2573.89,8026.16,-19.5699,-29.1838,-55.6781,9660.33,3768.51,10258.7,81.9139,400.518,-146.815,1127.55,10020.1,838.358,0.33531,-46.4734,-57.7048,600.288,-10839.8,-800.977,-139.261,6.33956,-389.663,210.427,9690.3,-3821.18,65.6628,-70.6825,-97.8229,-9009.22,-3004.63,1620.77,47.5026,85.4403,-90.2546,8117.59,1618.11,243.691,-37.5255,-5.26164,-2.95993
2.881,4938.17,-2455.96,8054.68,-19.0843,-29.7973,-55.1236,9815.59,3811.24,10352.6,81.7221,400.512,-148.791,1140.71,10057.5,937.672,-0.0035413,-45.816,-57.9467,598.828,-11029.2,-788.939,-140.279,9.56823,-390.129,189.242,9728.04,-3753.93,63.4294,-66.9663,-97.1237,-9076.55,-2851.52,1588.22,48.4501,83.4701,-90.8255,8130.82,1678.8,230.539,-37.4375,-6.1224,-2.7717
2.882,5003.98,-2338.03,8083.19,-18.5988,-30.4107,-54.5691,9970.84,3853.96,10446.5,81.5302,400.505,-150.768,1153.86,10094.9,1036.99,-0.342392,-45.1586,-58.1886,597.369,-11218.6,-776.9,-141.297,12.7969,-390.594,168.056,9765.79,-3686.68,61.196,-63.2501,-96.4245,-9143.87,-2698.41,1555.67,49.3976,81.4999,-91.3963,8144.05,1739.5,217.388,-37.3495,-6.98316,-2.58346
2.883,5069.8,-2220.1,8111.7,-18.1133,-31.0242,-54.0146,10126.1,3896.68,10540.4,81.3383,400.499,-152.744,1167.02,10132.3,1136.3,-0.681244,-44.5012,-58.4305,595.91,-11408.0,-764.862,-142.316,16.0256,-391.059,146.87,9803.54,-3619.43,58.9625,-59.5339,-95.7254,-9211.19,-2545.29,1523.12,50.3451,79.5297,-91.9672,8157.28,1800.2,204.236,-37.2615,-7.84393,-2.39523
2.884,5135.61,-2102.16,8140.22,-17.6278,-31.6377,-53.4601,10281.4,3939.41,10634.3,81.1464,400.493,-154.72,1180.18,10169.6,1235.62,-1.02009,-43.8438,-58.6724,594.451,-11597.4,-752.823,-143.334,19.2542,-391.525,125.684,9841.29,-3552.18,56.7291,-55.8177,-95.0262,-9278.52,-2392.18,1490.57,51.2926,77.5595,-92.5381,8170.51,1860.9,191.085,-37.1735,-8.70469,-2.207
2.885,5192.16,-2044.5,8163.25,-17.0101,-32.1813,-52.8394,10427.8,3975.22,10734.3,80.8843,400.381,-156.759,1192.35,10183.5,1277.33,-1.28432,-42.9046,-58.9747,587.126,-11799.6,-729.981,-144.292,22.9201,-392.057,110.457,9873.87,-3448.51,54.4468,-52.6913,-94.4078,-9343.26,-2277.08,1492.0,51.5375,75.0317,-92.9345,8174.04,1872.55,182.08,-36.9794,-9.45647,-2.07537
2.886,5241.3,-2035.04,8181.9,-16.2868,-32.6688,-52.1659,10567.3,4005.51,10839.1,80.5662,400.185,-158.847,1203.73,10178.6,1272.97,-1.48883,-41.7398,-59.3254,575.11,-12012.2,-698.496,-145.202,26.9357,-392.643,99.9957,9902.32,-3315.72,52.1254,-50.0367,-93.854,-9405.93,-2192.4,1520.61,51.2203,72.0577,-93.1913,8169.8,1844.96,176.393,-36.7003,-10.1211,-1.98901
2.887,5290.43,-2025.59,8200.54,-15.5634,-33.1564,-51.4924,10706.8,4035.79,10943.9,80.248,399.989,-160.935,1215.11,10173.7,1268.61,-1.69335,-40.575,-59.676,563.093,-12224.8,-667.011,-146.112,30.9512,-393.229,89.5348,9930.77,-3182.92,49.804,-47.3822,-93.3003,-9468.6,-2107.72,1549.22,50.903,69.0838,-93.4481,8165.57,1817.38,170.705,-36.4212,-10.7856,-1.90266
2.888,5339.57,-2016.13,8219.18,-14.84,-33.644,-50.8189,10846.3,4066.08,11048.8,79.9298,399.794,-163.024,1226.49,10168.8,1264.25,-1.89787,-39.4103,-60.0267,551.077,-12437.3,-635.526,-147.022,34.9668,-393.815,79.0739,9959.22,-3050.13,47.4826,-44.7276,-92.7465,-9531.27,-2023.03,1577.83,50.5858,66.1098,-93.7049,8161.33,1789.79,165.018,-36.1421,-11.4502,-1.8163
2.889,5385.29,-2012.28,8234.36,-14.1514,-34.1302,-50.1511,10982.9,4094.44,11156.5,79.6063,399.568,-165.126,1237.67,10163.9,1261.98,-2.07865,-38.227,-60.3749,538.857,-12646.4,-606.146,-147.921,39.0293,-394.394,69.7591,9983.95,-2914.23,45.2221,-42.1804,-92.1981,-9591.99,-1940.58,1606.08,50.1971,63.0059,-93.9334,8157.28,1766.8,158.934,-35.8546,-12.1133,-1.70964
2.89,5403.68,-2053.23,8221.81,-13.7405,-34.6059,-49.529,11097.0,4107.41,11287.6,79.24,399.107,-167.343,1247.28,10159.8,1276.47,-2.0695,-36.8953,-60.7036,525.007,-12827.8,-593.601,-148.739,43.4674,-394.91,69.6136,9978.96,-2753.48,43.4494,-40.4926,-91.6923,-9637.13,-1875.99,1631.44,49.237,58.8622,-93.9357,8154.66,1780.49,149.68,-35.4993,-12.7642,-1.44052
2.891,5422.07,-2094.19,8209.25,-13.3297,-35.0815,-48.9068,11211.0,4120.38,11418.6,78.8738,398.645,-169.559,1256.89,10155.7,1290.95,-2.06036,-35.5635,-61.0323,511.157,-13009.2,-581.055,-149.556,47.9055,-395.427,69.468,9973.96,-2592.73,41.6766,-38.8048,-91.1864,-9682.27,-1811.4,1656.81,48.2769,54.7186,-93.938,8152.05,1794.18,140.426,-35.1441,-13.415,-1.1714
2.892,5440.46,-2135.14,8196.7,-12.9188,-35.5572,-48.2847,11325.1,4133.35,11549.6,78.5075,398.183,-171.776,1266.5,10151.5,1305.44,-2.05121,-34.2318,-61.361,497.307,-13190.6,-568.51,-150.374,52.3436,-395.944,69.3224,9968.97,-2431.98,39.9039,-37.117,-90.6806,-9727.41,-1746.81,1682.17,47.3168,50.575,-93.9403,8149.43,1807.88,131.172,-34.7889,-14.0659,-0.902281
2.893,5458.84,-2176.09,8184.14,-12.5079,-36.0328,-47.6625,11439.1,4146.32,11680.7,78.1413,397.722,-173.993,1276.11,10147.4,1319.92,-2.04206,-32.9001,-61.6898,483.457,-13372.0,-555.964,-151.191,56.7817,-396.46,69.1769,9963.97,-2271.23,38.1311,-35.4291,-90.1748,-9772.54,-1682.21,1707.53,46.3566,46.4313,-93.9425,8146.82,1821.57,121.918,-34.4336,-14.7167,-0.63316
2.894,5449.45,-2167.41,8197.16,-12.1912,-36.6442,-46.8925,11541.2,4168.96,11817.0,77.7248,397.038,-176.269,1284.99,10149.9,1334.06,-2.01277,-31.5392,-62.0955,479.165,-13558.9,-533.367,-151.813,61.2278,-396.95,74.6465,9965.46,-2117.18,36.9575,-34.1548,-89.7557,-9800.46,-1659.83,1751.81,45.4124,41.6625,-93.6326,8136.56,1841.85,104.37,-34.3441,-15.3264,-0.500743
2.895,5426.17,-2133.91,8222.97,-11.9215,-37.3234,-46.0485,11637.3,4196.42,11956.0,77.2834,396.244,-178.575,1293.52,10155.8,1348.04,-1.97342,-30.1638,-62.5396,479.652,-13748.5,-505.744,-152.338,65.6778,-397.426,82.9238,9970.19,-1966.5,36.0834,-33.0872,-89.3799,-9819.76,-1658.55,1805.56,44.476,36.581,-93.1667,8122.49,1865.41,82.6739,-34.3875,-15.9155,-0.436679
2.896,5402.88,-2100.41,8248.79,-11.6519,-38.0026,-45.2045,11733.3,4223.88,12094.9,76.8419,395.45,-180.881,1302.04,10161.8,1362.01,-1.93406,-28.7883,-62.9838,480.139,-13938.1,-478.121,-152.862,70.1279,-397.902,91.2011,9974.93,-1815.81,35.2093,-32.0197,-89.0041,-9839.06,-1657.27,1859.3,43.5397,31.4996,-92.7007,8108.42,1888.98,60.9782,-34.4309,-16.5046,-0.372614
2.897,5379.6,-2066.91,8274.59,-11.3822,-38.6818,-44.3605,11829.4,4251.34,12233.9,76.4004,394.655,-183.188,1310.56,10167.7,1375.99,-1.8947,-27.4128,-63.4279,480.625,-14127.7,-450.498,-153.387,74.578,-398.378,99.4784,9979.66,-1665.13,34.3352,-30.9521,-88.6283,-9858.36,-1655.98,1913.04,42.6033,26.4181,-92.2347,8094.34,1912.55,39.2825,-34.4743,-17.0937,-0.30855
2.898,5359.89,-2028.47,8303.37,-11.16,-39.3976,-43.5855,11917.8,4276.98,12371.8,75.8883,393.732,-185.529,1314.66,10178.1,1392.28,-1.86689,-26.0949,-63.8775,483.351,-14330.4,-421.311,-153.812,78.9517,-398.859,105.98,9990.12,-1515.62,33.6909,-30.0349,-88.3018,-9860.08,-1671.96,1948.04,41.7296,21.1876,-91.7378,8079.56,1935.09,20.4459,-34.4726,-17.6899,-0.206872
2.899,5352.69,-1972.74,8342.55,-11.1037,-40.2417,-43.052,11979.6,4296.26,12505.9,75.1289,392.356,-187.993,1303.28,10204.4,1416.71,-1.87952,-24.9785,-64.3458,493.913,-14578.8,-386.648,-153.89,83.0583,-399.359,106.269,10020.6,-1370.27,33.8511,-29.6441,-88.148,-9800.3,-1748.33,1917.43,41.0754,15.4351,-91.1325,8062.31,1954.03,11.6164,-34.313,-18.3111,0.0264528
2.9,5345.49,-1917.01,8381.72,-11.0475,-41.0857,-42.5186,12041.4,4315.54,12640.0,74.3695,390.98,-190.458,1291.9,10230.7,1441.13,-1.89215,-23.862,-64.8141,504.475,-14827.2,-351.985,-153.967,87.1648,-399.859,106.558,10051.2,-1224.91,34.0113,-29.2533,-87.9942,-9740.51,-1824.7,1886.82,40.4212,9.68257,-90.5272,8045.06,1972.98,2.78691,-34.1535,-18.9323,0.259777
2.901,5338.29,-1861.28,8420.9,-10.9913,-41.9297,-41.9851,12103.3,4334.82,12774.1,73.6102,389.604,-192.922,1280.52,10257.0,1465.55,-1.90478,-22.7455,-65.2824,515.037,-15075.6,-317.322,-154.045,91.2714,-400.358,106.846,10081.7,-1079.56,34.1714,-28.8625,-87.8404,-9680.73,-1901.07,1856.21,39.767,3.93007,-89.9219,8027.81,1991.92,-6.04259,-33.9939,-19.5535,0.493102
2.902,5331.09,-1805.55,8460.07,-10.9351,-42.7738,-41.4517,12165.1,4354.09,12908.2,72.8508,388.228,-195.386,1269.14,10283.3,1489.97,-1.91741,-21.629,-65.7508,525.599,-15324.0,-282.659,-154.122,95.3779,-400.858,107.135,10112.2,-934.2,34.3316,-28.4717,-87.6866,-9620.95,-1977.43,1825.6,39.1128,-1.82243,-89.3166,8010.56,2010.86,-14.8721,-33.8344,-20.1747,0.726427
2.903,5325.45,-1783.03,8466.21,-10.7765,-43.5893,-40.8184,12193.5,4353.66,13073.0,71.4738,386.371,-198.192,1214.26,10350.2,1520.54,-1.90209,-20.7612,-66.131,544.97,-15609.4,-205.787,-153.788,98.8602,-401.604,88.8237,10133.3,-784.276,35.0082,-28.6771,-87.7026,-9574.54,-2040.81,1764.06,38.5412,-7.44315,-88.7901,7984.49,2001.86,-32.2316,-33.5883,-20.6074,0.861961
2.904,5320.25,-1770.01,8462.92,-10.5888,-44.3966,-40.1566,12212.3,4347.6,13246.6,69.9203,384.376,-201.096,1146.94,10428.8,1552.85,-1.87878,-19.9645,-66.486,566.857,-15905.3,-116.855,-153.336,102.164,-402.42,65.1982,10151.7,-633.047,35.8323,-29.0529,-87.7671,-9531.95,-2100.48,1693.68,37.9933,-13.0262,-88.2862,7955.91,1984.86,-52.0281,-33.3173,-20.9863,0.969554
2.905,5315.05,-1756.98,8459.62,-10.401,-45.204,-39.4947,12231.2,4341.54,13420.2,68.3668,382.382,-204.0,1079.63,10507.3,1585.17,-1.85546,-19.1677,-66.841,588.745,-16201.3,-27.9225,-152.884,105.468,-403.236,41.5727,10170.1,-481.817,36.6565,-29.4287,-87.8317,-9489.35,-2160.15,1623.3,37.4453,-18.6093,-87.7823,7927.33,1967.87,-71.8247,-33.0465,-21.3651,1.07715
2.906,5309.85,-1743.96,8456.32,-10.2132,-46.0113,-38.8329,12250.0,4335.48,13593.8,66.8133,380.387,-206.904,1012.32,10585.8,1617.49,-1.83215,-18.3709,-67.196,610.632,-16497.3,61.0098,-152.432,108.772,-404.052,17.9472,10188.5,-330.588,37.4806,-29.8045,-87.8962,-9446.76,-2219.82,1552.91,36.8974,-24.1923,-87.2783,7898.74,1950.88,-91.6213,-32.7755,-21.744,1.18474
2.907,5304.2,-1750.34,8450.87,-10.0579,-46.8615,-38.17,12272.4,4359.0,13772.7,64.9587,378.221,-209.829,953.499,10645.4,1642.61,-1.80964,-17.6548,-67.5595,638.971,-16796.8,152.679,-151.739,111.637,-404.838,-16.8148,10209.0,-189.63,38.3752,-30.37,-87.9679,-9376.77,-2276.45,1476.31,36.3853,-29.7893,-86.7151,7868.86,1938.49,-106.586,-32.3455,-22.1561,1.22347
2.908,5297.67,-1795.56,8441.11,-9.96755,-47.7973,-37.5048,12301.7,4441.7,13962.0,62.5016,375.711,-212.798,911.659,10667.0,1653.35,-1.78874,-17.0998,-67.9399,680.213,-17103.4,249.823,-150.566,113.625,-405.562,-73.8499,10233.7,-69.2172,39.4107,-31.3148,-88.0538,-9251.98,-2327.02,1387.24,35.945,-35.4139,-86.0333,7836.38,1935.3,-111.886,-31.5972,-22.6346,1.12448
2.909,5291.15,-1840.77,8431.35,-9.87719,-48.7331,-36.8396,12331.1,4524.39,14151.4,60.0445,373.201,-215.768,869.818,10688.7,1664.08,-1.76783,-16.5447,-68.3204,721.454,-17410.0,346.968,-149.393,115.613,-406.286,-130.885,10258.5,51.1961,40.4462,-32.2596,-88.1397,-9127.19,-2377.59,1298.18,35.5048,-41.0386,-85.3514,7803.9,1932.12,-117.186,-30.849,-23.1131,1.02549
2.91,5284.62,-1885.98,8421.6,-9.78683,-49.6689,-36.1744,12360.5,4607.09,14340.8,57.5874,370.691,-218.737,827.978,10710.3,1674.81,-1.74693,-15.9897,-68.7009,762.695,-17716.6,444.112,-148.219,117.6,-407.011,-187.92,10283.2,171.609,41.4817,-33.2044,-88.2255,-9002.4,-2428.15,1209.12,35.0645,-46.6633,-84.6696,7771.42,1928.93,-122.486,-30.1007,-23.5916,0.926499
2.911,5278.09,-1931.19,8411.84,-9.69647,-50.6047,-35.5093,12389.9,4689.78,14530.2,55.1304,368.181,-221.706,786.138,10732.0,1685.55,-1.72603,-15.4347,-69.0814,803.937,-18023.1,541.256,-147.046,119.588,-407.735,-244.955,10307.9,292.023,42.5171,-34.1492,-88.3114,-8877.61,-2478.72,1120.05,34.6242,-52.288,-83.9877,7738.93,1925.75,-127.786,-29.3524,-24.0701,0.827508
2.912,5307.88,-1940.72,8388.8,-9.6975,-51.2998,-34.9164,12474.4,4893.12,14710.9,51.8766,365.457,-224.788,759.523,10738.0,1673.62,-1.62786,-14.9299,-69.3043,820.939,-18373.5,609.234,-145.103,120.466,-408.52,-318.208,10335.5,362.203,43.5979,-35.4597,-88.3345,-8733.93,-2548.52,1020.2,34.0301,-57.7684,-83.3236,7756.09,1971.42,-118.411,-29.4131,-24.8488,1.0587
2.913,5342.22,-1945.78,8364.11,-9.70996,-51.9648,-34.3326,12565.7,5111.54,14890.5,48.5231,362.706,-227.883,734.812,10742.1,1658.85,-1.52003,-14.4313,-69.5075,834.912,-18729.2,673.566,-143.064,121.204,-409.313,-393.488,10363.5,426.103,44.6843,-36.8158,-88.3498,-8587.88,-2620.74,919.005,33.4167,-63.2308,-82.6617,7779.46,2023.21,-107.201,-29.5748,-25.6651,1.33117
2.914,5376.55,-1950.84,8339.41,-9.72241,-52.6299,-33.7488,12657.0,5329.96,15070.1,45.1697,359.955,-230.979,710.1,10746.3,1644.08,-1.41221,-13.9327,-69.7107,848.885,-19085.0,737.898,-141.025,121.943,-410.105,-468.768,10391.5,490.004,45.7707,-38.172,-88.3651,-8441.83,-2692.95,817.807,32.8034,-68.6932,-81.9998,7802.83,2074.99,-95.9918,-29.7365,-26.4815,1.60364
2.915,5410.89,-1955.9,8314.71,-9.73487,-53.2949,-33.1649,12748.3,5548.38,15249.7,41.8163,357.204,-234.075,685.388,10750.4,1629.32,-1.30438,-13.4341,-69.914,862.858,-19440.8,802.23,-138.987,122.682,-410.897,-544.048,10419.4,553.905,46.8571,-39.5282,-88.3803,-8295.78,-2765.16,716.609,32.1901,-74.1555,-81.3379,7826.19,2126.77,-84.7824,-29.8983,-27.2978,1.8761
2.916,5444.51,-1956.61,8288.82,-9.78976,-53.9548,-32.5879,12885.9,5786.52,15434.8,38.2428,354.366,-237.228,648.141,10734.2,1606.78,-1.13129,-13.0858,-70.0978,864.233,-19801.5,831.741,-136.738,123.562,-411.599,-615.655,10422.2,591.507,47.8547,-40.9286,-88.3886,-8136.81,-2820.47,612.682,31.4865,-79.6428,-80.5254,7836.33,2163.88,-110.54,-30.5145,-27.8658,2.18077
2.917,5477.25,-1951.88,8261.42,-9.8977,-54.6084,-32.0194,13081.2,6049.32,15627.0,34.3942,351.418,-240.452,595.223,10692.6,1574.53,-0.876615,-12.9252,-70.2575,849.86,-20168.5,817.723,-134.226,124.621,-412.188,-682.672,10393.5,596.236,48.7412,-42.3841,-88.3881,-7961.68,-2854.67,505.344,30.6702,-85.1611,-79.5247,7829.94,2182.66,-182.507,-31.6988,-28.1235,2.52569
2.918,5509.99,-1947.15,8234.03,-10.0056,-55.262,-31.4508,13276.5,6312.11,15819.1,30.5456,348.47,-243.676,542.305,10651.1,1542.27,-0.621942,-12.7646,-70.4171,835.488,-20535.5,803.706,-131.714,125.68,-412.777,-749.688,10364.8,600.965,49.6278,-43.8397,-88.3876,-7786.55,-2888.86,398.005,29.8538,-90.6794,-78.5239,7823.54,2201.43,-254.473,-32.8831,-28.3811,2.8706
2.919,5542.72,-1942.41,8206.64,-10.1136,-55.9156,-30.8823,13471.8,6574.9,16011.2,26.697,345.523,-246.9,489.387,10609.5,1510.02,-0.367269,-12.604,-70.5767,821.115,-20902.5,789.689,-129.202,126.738,-413.366,-816.705,10336.1,605.694,50.5143,-45.2952,-88.3871,-7611.43,-2923.05,290.667,29.0375,-96.1977,-77.5232,7817.15,2220.2,-326.44,-34.0674,-28.6388,3.21552
2.92,5575.46,-1937.68,8179.24,-10.2215,-56.5691,-30.3137,13667.1,6837.69,16203.3,22.8484,342.575,-250.124,436.469,10568.0,1477.77,-0.112596,-12.4434,-70.7363,806.743,-21269.5,775.672,-126.69,127.797,-413.955,-883.721,10307.5,610.423,51.4009,-46.7508,-88.3867,-7436.3,-2957.25,183.328,28.2211,-101.716,-76.5225,7810.76,2238.98,-398.406,-35.2517,-28.8965,3.56044
2.921,5584.09,-1918.77,8126.56,-10.2999,-57.0376,-29.7336,13937.9,6988.16,16389.8,18.7206,339.576,-253.637,423.138,10503.9,1453.64,0.0607427,-12.2598,-70.9773,797.531,-21618.4,678.649,-124.116,129.306,-414.119,-966.721,10252.2,572.913,51.8615,-48.0675,-88.3529,-7274.09,-3066.36,87.7421,27.5452,-107.466,-75.0123,7740.54,2262.77,-453.39,-36.216,-28.8485,4.17777
2.922,5592.72,-1899.86,8073.88,-10.3784,-57.5061,-29.1534,14208.7,7138.64,16576.2,14.5928,336.578,-257.15,409.808,10439.9,1429.51,0.234081,-12.0762,-71.2182,788.318,-21967.3,581.627,-121.542,130.816,-414.282,-1049.72,10196.9,535.404,52.3221,-49.3842,-88.3192,-7111.88,-3175.47,-7.84376,26.8693,-113.217,-73.5021,7670.32,2286.56,-508.374,-37.1804,-28.8005,4.79511
2.923,5601.35,-1880.95,8021.2,-10.4568,-57.9746,-28.5733,14479.5,7289.11,16762.7,10.465,333.58,-260.662,396.477,10375.8,1405.38,0.40742,-11.8926,-71.4592,779.106,-22316.2,484.604,-118.968,132.325,-414.446,-1132.72,10141.6,497.894,52.7827,-50.7009,-88.2855,-6949.67,-3284.58,-103.43,26.1934,-118.967,-71.9919,7600.1,2310.35,-563.358,-38.1447,-28.7525,5.41245
2.924,5609.98,-1862.04,7968.51,-10.5352,-58.4431,-27.9931,14750.3,7439.58,16949.2,6.3372,330.581,-264.175,383.146,10311.8,1381.25,0.580759,-11.7091,-71.7001,769.894,-22665.1,387.582,-116.394,133.834,-414.609,-1215.72,10086.4,460.384,53.2433,-52.0176,-88.2517,-6787.46,-3393.7,-199.015,25.5175,-124.717,-70.4817,7529.88,2334.14,-618.342,-39.1091,-28.7045,6.02978
2.925,5607.03,-1876.84,7933.52,-10.7259,-58.9684,-27.3531,15053.4,7543.25,17107.9,2.29358,327.774,-267.722,365.11,10241.8,1334.57,0.746741,-11.4564,-72.1215,695.612,-23019.0,284.505,-113.946,135.897,-414.687,-1295.17,10013.0,428.014,53.5059,-53.2949,-88.1868,-6608.86,-3509.67,-312.986,25.1266,-130.423,-68.6107,7510.59,2341.34,-655.749,-39.6445,-28.9256,6.57516
2.926,5594.81,-1918.6,7912.67,-11.0064,-59.539,-26.6651,15382.4,7609.48,17244.3,-1.68269,325.119,-271.297,343.311,10167.0,1269.84,0.906837,-11.1484,-72.687,569.276,-23376.8,176.585,-111.601,138.402,-414.695,-1371.78,9924.99,399.756,53.6099,-54.5409,-88.0968,-6417.14,-3631.14,-441.665,24.9638,-136.094,-66.4511,7532.02,2335.26,-679.095,-39.8366,-29.3622,7.06297
2.927,5582.59,-1960.37,7891.83,-11.287,-60.1097,-25.977,15711.3,7675.71,17380.8,-5.65897,322.464,-274.872,321.512,10092.2,1205.12,1.06693,-10.8404,-73.2526,442.939,-23734.7,68.6647,-109.255,140.907,-414.703,-1448.39,9837.04,371.498,53.714,-55.7868,-88.0068,-6225.42,-3752.6,-570.344,24.801,-141.764,-64.2915,7553.46,2329.19,-702.442,-40.0287,-29.7987,7.55079
2.928,5570.37,-2002.13,7870.98,-11.5675,-60.6804,-25.289,16040.3,7741.94,17517.3,-9.63524,319.809,-278.447,299.714,10017.4,1140.39,1.22703,-10.5324,-73.8182,316.602,-24092.5,-39.2554,-106.909,143.411,-414.712,-1525.0,9749.08,343.24,53.8181,-57.0328,-87.9168,-6033.7,-3874.07,-699.023,24.6382,-147.434,-62.1319,7574.9,2323.11,-725.788,-40.2209,-30.2353,8.0386
2.929,5562.89,-2042.6,7850.99,-11.8483,-61.2394,-24.616,16374.9,7806.66,17648.4,-13.5204,317.2,-282.008,281.577,9947.26,1079.43,1.3878,-10.2107,-74.3581,181.483,-24452.3,-151.933,-104.537,146.043,-414.671,-1599.05,9657.67,312.766,53.92,-58.2974,-87.8183,-5837.11,-3997.67,-833.157,24.6061,-152.972,-59.9175,7592.86,2317.69,-755.411,-40.4514,-30.5943,8.53518
2.93,5593.3,-2072.63,7837.77,-12.1317,-61.7051,-24.0631,16755.0,7859.2,17736.4,-16.677,314.95,-285.457,292.744,9913.81,1048.54,1.554,-9.78006,-74.6923,-23.891,-24827.4,-302.667,-101.954,149.684,-414.235,-1652.68,9538.62,264.559,54.0049,-59.7118,-87.6511,-5601.6,-4138.41,-1010.93,25.6191,-157.448,-57.2657,7582.99,2317.46,-835.246,-40.989,-30.3335,9.10188
2.931,5623.71,-2102.66,7824.56,-12.415,-62.1708,-23.5102,17135.1,7911.75,17824.4,-19.8337,312.7,-288.906,303.91,9880.36,1017.66,1.72019,-9.34938,-75.0265,-229.265,-25202.6,-453.402,-99.3702,153.325,-413.799,-1706.3,9419.57,216.351,54.0899,-61.1262,-87.484,-5366.08,-4279.14,-1188.7,26.632,-161.924,-54.6138,7573.11,2317.24,-915.081,-41.5265,-30.0727,9.66859
2.932,5654.12,-2132.7,7811.34,-12.6983,-62.6365,-22.9573,17515.1,7964.3,17912.3,-22.9903,310.45,-292.356,315.077,9846.9,986.778,1.88638,-8.9187,-75.3607,-434.64,-25577.7,-604.136,-96.7868,156.966,-413.363,-1759.92,9300.52,168.144,54.1748,-62.5405,-87.3168,-5130.56,-4419.87,-1366.48,27.645,-166.4,-51.962,7563.24,2317.01,-994.916,-42.0641,-29.8119,10.2353
2.933,5684.53,-2162.73,7798.13,-12.9817,-63.1022,-22.4044,17895.2,8016.85,18000.3,-26.1469,308.2,-295.805,326.243,9813.45,955.895,2.05257,-8.48803,-75.6949,-640.014,-25952.9,-754.871,-94.2035,160.607,-412.927,-1813.54,9181.48,119.937,54.2597,-63.9549,-87.1496,-4895.04,-4560.6,-1544.25,28.658,-170.876,-49.3101,7553.37,2316.79,-1074.75,-42.6016,-29.5511,10.802
2.934,5696.81,-2180.73,7803.86,-13.1809,-63.5052,-21.8848,18294.5,7979.39,18068.2,-28.9249,306.167,-299.202,309.799,9792.43,922.308,2.24821,-8.04714,-76.1197,-901.753,-26307.5,-910.569,-91.8025,164.738,-412.001,-1854.78,9061.49,41.9412,54.4312,-65.2503,-87.2369,-4662.97,-4721.61,-1792.22,30.1272,-173.633,-46.8102,7521.04,2295.46,-1101.95,-42.9166,-29.2618,11.1668
2.935,5700.03,-2192.71,7819.08,-13.3382,-63.8769,-21.3819,18703.5,7896.93,18126.0,-31.5136,304.243,-302.573,279.549,9777.62,887.371,2.45856,-7.60116,-76.5898,-1191.67,-26652.0,-1068.75,-89.4926,169.114,-410.83,-1889.83,8941.04,-50.9489,54.646,-66.4863,-87.4514,-4432.62,-4892.76,-2075.28,31.8244,-175.531,-44.3862,7477.5,2263.59,-1102.84,-43.1203,-28.9581,11.4308
2.936,5703.25,-2204.69,7834.29,-13.4955,-64.2486,-20.879,19112.5,7814.47,18183.8,-34.1023,302.318,-305.944,249.299,9762.82,852.433,2.66892,-7.15517,-77.0599,-1481.59,-26996.4,-1226.93,-87.1828,173.49,-409.659,-1924.88,8820.59,-143.839,54.8608,-67.7222,-87.6659,-4202.26,-5063.9,-2358.34,33.5217,-177.429,-41.9623,7433.96,2231.71,-1103.73,-43.324,-28.6544,11.6947
2.937,5706.47,-2216.67,7849.5,-13.6527,-64.6203,-20.3761,19521.5,7732.01,18241.7,-36.6911,300.394,-309.315,219.049,9748.01,817.495,2.87928,-6.70918,-77.53,-1771.52,-27340.9,-1385.11,-84.873,177.866,-408.488,-1959.93,8700.14,-236.729,55.0756,-68.9581,-87.8803,-3971.91,-5235.05,-2641.41,35.2189,-179.327,-39.5383,7390.41,2199.83,-1104.61,-43.5277,-28.3508,11.9586
2.938,5711.25,-2233.46,7851.28,-13.8274,-64.9679,-19.9063,19939.8,7614.92,18283.4,-39.1119,298.514,-312.639,199.485,9740.02,786.104,3.08965,-6.3159,-77.9828,-2089.94,-27678.6,-1544.46,-82.615,182.373,-407.26,-1984.88,8586.95,-323.24,55.3129,-70.1529,-88.1194,-3733.15,-5402.04,-2939.55,36.9078,-180.197,-37.2119,7360.83,2164.44,-1102.36,-43.6706,-28.0703,12.227
2.939,5721.46,-2267.08,7806.06,-14.0633,-65.2313,-19.5529,20390.8,7376.59,18269.0,-40.9452,296.791,-315.799,217.322,9755.88,767.123,3.30008,-6.1071,-78.3752,-2508.15,-27993.0,-1707.9,-80.5387,187.337,-405.833,-1974.47,8499.17,-387.42,55.6287,-71.2038,-88.4442,-3464.95,-5554.5,-3290.47,38.5673,-177.471,-35.2269,7380.14,2116.72,-1089.09,-43.6005,-27.8709,12.511
2.94,5731.68,-2300.71,7760.83,-14.2991,-65.4947,-19.1994,20841.9,7138.27,18254.6,-42.7784,295.068,-318.96,235.158,9771.75,748.143,3.51051,-5.89831,-78.7675,-2926.35,-28307.3,-1871.35,-78.4624,192.3,-404.407,-1964.05,8411.39,-451.601,55.9445,-72.2547,-88.7691,-3196.75,-5706.96,-3641.4,40.2267,-174.744,-33.2419,7399.45,2069.01,-1075.83,-43.5305,-27.6716,12.7951
2.941,5741.89,-2334.33,7715.61,-14.5349,-65.7581,-18.8459,21292.9,6899.95,18240.2,-44.6117,293.345,-322.12,252.995,9787.61,729.162,3.72094,-5.68951,-79.1599,-3344.56,-28621.7,-2034.79,-76.3861,197.263,-402.98,-1953.64,8323.61,-515.781,56.2603,-73.3056,-89.094,-2928.56,-5859.42,-3992.32,41.8862,-172.018,-31.2569,7418.76,2021.3,-1062.57,-43.4604,-27.4722,13.0791
2.942,5752.1,-2367.95,7670.39,-14.7708,-66.0215,-18.4925,21744.0,6661.62,18225.7,-46.4449,291.622,-325.281,270.832,9803.47,710.182,3.93137,-5.48071,-79.5522,-3762.76,-28936.0,-2198.24,-74.3097,202.227,-401.553,-1943.22,8235.84,-579.962,56.5761,-74.3565,-89.4188,-2660.36,-6011.88,-4343.24,43.5457,-169.291,-29.2719,7438.07,1973.58,-1049.3,-43.3904,-27.2728,13.3632
2.943,5754.69,-2431.93,7661.5,-14.6925,-66.5034,-18.1837,22211.9,6399.65,18087.4,-47.694,290.034,-327.843,294.646,9821.3,687.402,3.973,-5.10525,-80.0598,-4290.65,-29202.1,-2372.59,-71.8752,206.584,-400.148,-1884.68,8197.4,-622.763,56.8382,-75.3627,-89.6322,-2351.29,-6134.39,-4656.15,44.0689,-162.952,-27.4095,7419.4,1958.66,-971.784,-42.9301,-27.3355,13.8158
2.944,5755.09,-2504.6,7663.0,-14.5245,-67.0478,-17.8878,22684.6,6130.93,17913.6,-48.7761,288.484,-330.234,320.168,9839.7,663.536,3.9664,-4.68216,-80.6004,-4849.89,-29454.4,-2550.06,-69.3384,210.768,-398.749,-1812.38,8173.07,-659.456,57.0849,-76.3561,-89.8138,-2030.53,-6248.34,-4958.19,44.2676,-155.581,-25.582,7389.87,1953.11,-875.903,-42.3584,-27.4731,14.3165
2.945,5755.49,-2577.26,7664.49,-14.3565,-67.5922,-17.5918,23157.2,5862.2,17739.8,-49.8583,286.935,-332.625,345.69,9858.09,639.67,3.95981,-4.25908,-81.141,-5409.12,-29706.6,-2727.53,-66.8015,214.952,-397.35,-1740.08,8148.73,-696.149,57.3317,-77.3495,-89.9953,-1709.78,-6362.3,-5260.24,44.4663,-148.209,-23.7546,7360.34,1947.56,-780.022,-41.7867,-27.6106,14.8172
2.946,5755.9,-2649.92,7665.99,-14.1884,-68.1366,-17.2959,23629.9,5593.47,17566.0,-50.9405,285.385,-335.016,371.211,9876.49,615.804,3.95321,-3.836,-81.6816,-5968.35,-29958.9,-2905.0,-64.2646,219.136,-395.951,-1667.78,8124.4,-732.842,57.5784,-78.3429,-90.1769,-1389.03,-6476.25,-5562.29,44.665,-140.838,-21.9271,7330.81,1942.0,-684.142,-41.215,-27.7482,15.318
2.947,5754.5,-2696.5,7670.54,-14.1267,-68.7185,-17.0139,24082.9,5338.43,17325.0,-52.265,283.969,-336.949,396.792,9899.02,585.831,3.98735,-3.36576,-82.2777,-6526.13,-30133.4,-3043.4,-61.4905,222.392,-394.693,-1590.48,8117.92,-775.753,57.7024,-79.2542,-90.4269,-1053.04,-6585.96,-5801.56,43.9858,-132.659,-20.2153,7301.28,1908.94,-597.309,-40.7501,-28.1041,15.7142
2.948,5749.52,-2690.91,7681.19,-14.2774,-69.3755,-16.76,24496.7,5110.75,16949.5,-54.0745,282.82,-337.964,422.491,9929.83,543.644,4.10296,-2.80123,-82.9847,-7081.02,-30152.2,-3103.68,-58.2417,223.793,-393.717,-1503.19,8147.17,-831.1,57.5812,-80.0014,-90.8138,-686.575,-6687.18,-5915.28,41.5511,-122.864,-18.7347,7271.76,1820.84,-528.571,-40.4987,-28.8968,15.9014
2.949,5744.53,-2685.33,7691.85,-14.4282,-70.0324,-16.506,24910.4,4883.08,16574.0,-55.8839,281.67,-338.979,448.19,9960.64,501.457,4.21858,-2.2367,-83.6918,-7635.9,-30171.0,-3163.97,-54.993,225.193,-392.741,-1415.9,8176.41,-886.448,57.4599,-80.7486,-91.2007,-320.112,-6788.4,-6029.0,39.1164,-113.07,-17.2542,7242.23,1732.74,-459.833,-40.2473,-29.6895,16.0886
2.95,5739.54,-2679.74,7702.5,-14.5789,-70.6893,-16.2521,25324.2,4655.4,16198.5,-57.6933,280.521,-339.995,473.889,9991.45,459.271,4.33419,-1.67217,-84.3989,-8190.79,-30189.8,-3224.25,-51.7442,226.593,-391.765,-1328.61,8205.66,-941.795,57.3387,-81.4958,-91.5876,46.3511,-6889.62,-6142.72,36.6817,-103.275,-15.7736,7212.7,1644.65,-391.095,-39.9959,-30.4822,16.2758
2.951,5734.56,-2674.15,7713.16,-14.7297,-71.3463,-15.9981,25737.9,4427.73,15823.0,-59.5027,279.371,-341.01,499.588,10022.3,417.084,4.4498,-1.10763,-85.106,-8745.67,-30208.5,-3284.53,-48.4955,227.994,-390.788,-1241.32,8234.91,-997.142,57.2175,-82.243,-91.9745,412.814,-6990.84,-6256.45,34.2469,-93.4808,-14.2931,7183.18,1556.55,-322.357,-39.7446,-31.2749,16.463
2.952,5735.3,-2712.55,7714.38,-14.7292,-71.9886,-15.7257,26120.8,4475.8,15216.9,-62.2093,278.692,-339.863,470.983,10061.3,374.234,4.37277,-0.640511,-85.6219,-9218.38,-29910.3,-3270.13,-45.4985,226.928,-389.86,-1123.49,8317.31,-1037.76,56.8872,-82.9505,-92.3425,866.019,-7095.59,-6211.2,28.6002,-84.1269,-13.5066,7206.76,1506.19,-271.403,-40.1751,-31.8564,16.7682
2.953,5736.75,-2756.44,7714.42,-14.7099,-72.6291,-15.451,26499.9,4558.33,14581.9,-65.0281,278.073,-338.445,435.591,10101.3,331.3,4.27166,-0.185564,-86.114,-9680.82,-29572.4,-3246.39,-42.533,225.554,-388.937,-1001.85,8406.36,-1076.53,56.5308,-83.653,-92.7082,1330.07,-7200.78,-6146.08,22.552,-74.8281,-12.8068,7236.97,1460.56,-222.671,-40.6909,-32.4115,17.0882
2.954,5738.21,-2800.34,7714.46,-14.6905,-73.2696,-15.1763,26878.9,4640.86,13946.9,-67.8469,277.453,-337.028,400.199,10141.3,288.367,4.17055,0.269382,-86.6061,-10143.3,-29234.4,-3222.64,-39.5674,224.179,-388.015,-880.209,8495.41,-1115.31,56.1744,-84.3555,-93.0738,1794.11,-7305.97,-6080.96,16.5038,-65.5294,-12.1071,7267.19,1414.92,-173.939,-41.2066,-32.9666,17.4083
2.955,5739.67,-2844.23,7714.5,-14.6712,-73.9101,-14.9016,27258.0,4723.4,13312.0,-70.6657,276.833,-335.61,364.806,10181.3,245.434,4.06945,0.724329,-87.0982,-10605.7,-28896.5,-3198.9,-36.6019,222.805,-387.092,-758.568,8584.46,-1154.08,55.818,-85.058,-93.4395,2258.16,-7411.17,-6015.84,10.4555,-56.2306,-11.4074,7297.41,1369.28,-125.208,-41.7224,-33.5217,17.7283
2.956,5743.66,-2860.75,7703.42,-14.5911,-74.5269,-14.6708,27600.6,4939.17,12608.7,-74.122,276.257,-332.897,341.348,10226.0,209.24,3.94557,1.0489,-87.6203,-10987.1,-28443.6,-3219.12,-34.0771,220.969,-385.645,-627.648,8685.75,-1183.46,55.3517,-85.7675,-93.717,2754.97,-7515.19,-5953.55,3.61812,-47.6888,-10.9011,7317.6,1308.23,-88.3807,-42.1349,-34.0668,18.0376
2.957,5750.82,-2843.06,7678.42,-14.4353,-75.114,-14.495,27897.5,5321.5,11820.0,-78.3753,275.735,-328.564,332.808,10276.4,181.47,3.79322,1.2105,-88.1799,-11267.2,-27846.9,-3294.3,-32.103,218.555,-383.543,-485.13,8802.33,-1201.07,54.7481,-86.4858,-93.8843,3292.74,-7617.74,-5894.79,-4.2058,-40.0932,-10.6367,7325.24,1227.91,-66.435,-42.4182,-34.5995,18.3336
2.958,5757.98,-2825.37,7653.42,-14.2794,-75.7011,-14.3193,28194.4,5703.82,11031.3,-82.6286,275.213,-324.231,324.267,10326.8,153.7,3.64088,1.3721,-88.7395,-11547.2,-27250.2,-3369.47,-30.129,216.141,-381.44,-342.612,8918.92,-1218.69,54.1445,-87.2041,-94.0517,3830.5,-7720.29,-5836.02,-12.0297,-32.4976,-10.3723,7332.88,1147.59,-44.4892,-42.7015,-35.1322,18.6296
2.959,5765.13,-2807.68,7628.42,-14.1236,-76.2882,-14.1435,28491.3,6086.15,10242.7,-86.8819,274.691,-319.898,315.727,10377.3,125.931,3.48854,1.5337,-89.299,-11827.3,-26653.4,-3444.64,-28.155,213.727,-379.338,-200.094,9035.5,-1236.3,53.5409,-87.9225,-94.219,4368.27,-7822.85,-5777.26,-19.8537,-24.902,-10.1079,7340.52,1067.27,-22.5435,-42.9849,-35.6648,18.9256
2.96,5772.29,-2790.0,7603.42,-13.9677,-76.8753,-13.9677,28788.3,6468.47,9453.98,-91.1352,274.169,-315.564,307.186,10427.7,98.1608,3.33619,1.6953,-89.8586,-12107.4,-26056.7,-3519.81,-26.181,211.314,-377.235,-57.5763,9152.08,-1253.92,52.9373,-88.6408,-94.3863,4906.04,-7925.4,-5718.5,-27.6776,-17.3064,-9.84352,7348.16,986.943,-0.597738,-43.2682,-36.1975,19.2217
2.961,5798.03,-2865.75,7597.37,-14.0323,-77.4577,-13.8911,28895.1,6963.98,8616.25,-95.9326,273.669,-308.153,313.482,10430.9,38.0959,3.43082,2.01778,-90.4521,-12232.9,-25349.0,-3745.79,-26.1205,209.674,-373.049,81.2468,9250.0,-1273.42,52.3108,-89.1276,-94.2911,5432.99,-7981.87,-5477.45,-34.1114,-10.1039,-7.62969,7342.33,881.926,-46.9278,-42.8486,-36.3851,19.0128
2.962,5823.78,-2941.51,7591.31,-14.0969,-78.0401,-13.8146,29002.0,7459.48,7778.53,-100.73,273.17,-300.741,319.779,10434.2,-21.969,3.52544,2.34026,-91.0455,-12358.4,-24641.3,-3971.78,-26.0599,208.035,-368.863,220.07,9347.91,-1292.93,51.6842,-89.6145,-94.196,5959.94,-8038.33,-5236.39,-40.5451,-2.90132,-5.41586,7336.5,776.909,-93.2579,-42.429,-36.5728,18.8039
2.963,5849.52,-3017.27,7585.25,-14.1615,-78.6225,-13.738,29108.9,7954.99,6940.8,-105.527,272.671,-293.329,326.075,10437.5,-82.034,3.62006,2.66274,-91.6389,-12483.9,-23933.6,-4197.76,-25.9994,206.395,-364.676,358.893,9445.82,-1312.44,51.0577,-90.1014,-94.1008,6486.89,-8094.8,-4995.34,-46.9789,4.30122,-3.20203,7330.67,671.892,-139.588,-42.0094,-36.7604,18.595
2.964,5875.27,-3093.03,7579.2,-14.2261,-79.2049,-13.6614,29215.8,8450.49,6103.07,-110.325,272.172,-285.918,332.371,10440.7,-142.099,3.71468,2.98522,-92.2324,-12609.4,-23225.8,-4423.74,-25.9388,204.756,-360.49,497.716,9543.73,-1331.95,50.4311,-90.5883,-94.0057,7013.85,-8151.27,-4754.28,-53.4127,11.5037,-0.988195,7324.84,566.875,-185.918,-41.5897,-36.948,18.3861
2.965,5904.1,-3163.1,7584.27,-14.3948,-79.7732,-13.7403,29217.5,8851.87,5280.42,-114.501,271.605,-277.33,341.985,10450.0,-208.214,3.73468,3.18999,-92.7873,-12697.3,-22558.9,-4681.26,-26.6022,203.465,-355.516,637.956,9627.13,-1350.18,49.8195,-90.8624,-93.602,7519.1,-8348.67,-4189.42,-59.0598,15.8586,2.44461,7326.12,467.191,-222.516,-40.8959,-36.8189,18.0597
2.966,5935.41,-3228.63,7598.26,-14.6469,-80.3302,-13.9436,29135.2,9177.94,4469.84,-118.179,270.984,-267.801,354.254,10464.2,-279.17,3.69497,3.30059,-93.3116,-12755.2,-21924.6,-4964.01,-27.8447,202.454,-349.912,779.328,9698.92,-1367.39,49.22,-90.9664,-92.9517,8007.0,-8658.81,-3365.52,-64.0777,17.9354,6.85259,7333.09,371.774,-251.329,-39.9826,-36.4365,17.6392
2.967,5966.71,-3294.17,7612.24,-14.899,-80.8873,-14.1468,29052.8,9504.02,3659.25,-121.857,270.363,-258.272,366.523,10478.3,-350.126,3.65526,3.41119,-93.8358,-12813.0,-21290.3,-5246.75,-29.0872,201.444,-344.308,920.701,9770.72,-1384.59,48.6204,-91.0704,-92.3013,8494.89,-8968.95,-2541.62,-69.0955,20.0121,11.2606,7340.06,276.356,-280.143,-39.0693,-36.0541,17.2188
2.968,5998.02,-3359.7,7626.22,-15.151,-81.4443,-14.3501,28970.5,9830.1,2848.66,-125.536,269.743,-248.742,378.792,10492.4,-421.082,3.61555,3.52179,-94.3601,-12870.8,-20656.0,-5529.5,-30.3297,200.433,-338.703,1062.07,9842.51,-1401.79,48.0208,-91.1743,-91.6509,8982.79,-9279.09,-1717.72,-74.1134,22.0888,15.6686,7347.02,180.939,-308.956,-38.156,-35.6717,16.7983
2.969,6025.58,-3421.65,7638.63,-15.3884,-82.0274,-14.5496,28890.3,10090.3,2047.71,-128.956,269.039,-239.192,389.368,10504.9,-491.81,3.57923,3.62913,-94.9337,-12942.1,-20040.3,-5803.51,-31.6416,199.381,-333.046,1194.76,9908.26,-1416.99,47.4354,-91.2588,-90.9606,9479.67,-9614.91,-894.821,-79.2023,23.3779,20.087,7359.44,88.7258,-338.009,-37.2523,-35.2615,16.3271
2.97,6023.15,-3455.0,7638.42,-15.5076,-82.8191,-14.7192,28827.1,9823.52,1323.83,-130.31,267.666,-229.471,386.401,10503.4,-560.713,3.56998,3.71038,-95.9021,-13121.2,-19573.7,-6007.69,-33.5085,198.0,-326.964,1257.95,9925.65,-1416.12,46.9643,-91.1873,-89.9513,10048.4,-10156.1,-79.9093,-84.8601,18.365,24.5888,7415.45,22.1476,-368.984,-36.4249,-34.6293,15.45
2.971,6020.73,-3488.34,7638.21,-15.6269,-83.6108,-14.8887,28763.9,9556.74,599.96,-131.665,266.293,-219.75,383.434,10502.0,-629.617,3.56074,3.79162,-96.8705,-13300.4,-19107.2,-6211.87,-35.3754,196.62,-320.882,1321.14,9943.04,-1415.25,46.4931,-91.1158,-88.9419,10617.2,-10697.3,735.002,-90.5179,13.3522,29.0907,7471.46,-44.4305,-399.959,-35.5974,-33.997,14.5728
2.972,6018.3,-3521.69,7637.99,-15.7461,-84.4025,-15.0583,28700.8,9289.96,-123.915,-133.02,264.92,-210.029,380.467,10500.5,-698.52,3.55149,3.87287,-97.8389,-13479.5,-18640.6,-6416.05,-37.2423,195.24,-314.8,1384.33,9960.43,-1414.37,46.022,-91.0444,-87.9325,11185.9,-11238.5,1549.91,-96.1758,8.33932,33.5925,7527.47,-111.009,-430.934,-34.77,-33.3648,13.6957
2.973,6015.87,-3555.03,7637.78,-15.8654,-85.1942,-15.2278,28637.6,9023.18,-847.79,-134.375,263.547,-200.308,377.5,10499.1,-767.424,3.54224,3.95412,-98.8074,-13658.7,-18174.0,-6620.22,-39.1092,193.859,-308.718,1447.51,9977.82,-1413.5,45.5508,-90.9729,-86.9231,11754.7,-11779.7,2364.83,-101.834,3.32648,38.0944,7583.48,-177.587,-461.909,-33.9425,-32.7326,12.8186
2.974,5998.95,-3602.5,7647.41,-16.0943,-85.8354,-15.5815,28565.2,8402.41,-1444.11,-133.33,261.357,-191.143,405.225,10528.0,-811.943,3.54724,4.22243,-99.6934,-14011.6,-17786.7,-6762.01,-40.9294,191.489,-302.563,1487.2,9971.08,-1399.56,45.2213,-90.8228,-85.9653,12480.9,-12417.2,2625.54,-106.022,-2.24991,41.6173,7644.67,-224.03,-469.702,-32.6687,-31.9042,11.8998
2.975,5974.78,-3657.03,7661.96,-16.3781,-86.4013,-16.0271,28488.2,7604.65,-1976.66,-131.084,258.758,-182.257,448.296,10572.2,-844.271,3.55936,4.58429,-100.538,-14451.5,-17438.9,-6872.61,-42.7261,188.623,-296.37,1515.12,9952.27,-1379.07,44.9626,-90.6336,-85.0332,13285.9,-13102.8,2609.15,-109.476,-8.10808,44.6508,7708.47,-260.405,-465.904,-31.1717,-30.9778,10.9601
2.976,5950.61,-3711.56,7676.52,-16.6619,-86.9672,-16.4727,28411.1,6806.89,-2509.21,-128.839,256.16,-173.371,491.367,10616.3,-876.598,3.57148,4.94614,-101.383,-14891.4,-17091.1,-6983.21,-44.5229,185.757,-290.178,1543.05,9933.47,-1358.59,44.7039,-90.4443,-84.1012,14090.8,-13788.5,2592.76,-112.931,-13.9662,47.6843,7772.26,-296.781,-462.106,-29.6747,-30.0514,10.0205
2.977,5926.44,-3766.09,7691.07,-16.9457,-87.5332,-16.9183,28334.0,6009.13,-3041.76,-126.594,253.561,-164.485,534.438,10660.5,-908.925,3.5836,5.30799,-102.228,-15331.2,-16743.4,-7093.8,-46.3196,182.891,-283.986,1570.98,9914.66,-1338.11,44.4452,-90.255,-83.1691,14895.8,-14474.2,2576.37,-116.385,-19.8244,50.7178,7836.05,-333.156,-458.309,-28.1777,-29.1249,9.0808
2.978,5905.59,-3808.43,7709.06,-17.2611,-88.1684,-17.3667,28283.6,5175.64,-3558.17,-123.397,250.762,-155.771,569.655,10704.5,-936.264,3.5825,5.5318,-103.061,-15843.5,-16412.1,-7166.37,-48.0012,179.54,-277.762,1600.57,9905.94,-1318.02,44.1923,-90.0474,-82.2976,15771.3,-15151.4,2444.89,-118.876,-24.7094,53.1875,7890.56,-364.235,-438.513,-26.6994,-28.2297,8.08273
2.979,5896.36,-3808.08,7739.07,-17.687,-89.0462,-17.8248,28326.5,4217.13,-4018.09,-116.868,247.259,-147.662,577.387,10747.9,-946.146,3.53516,5.27249,-103.854,-16609.1,-16138.6,-7105.84,-49.2798,174.493,-271.428,1636.0,9932.54,-1299.31,43.9597,-89.7761,-81.6381,16893.6,-15798.9,1910.62,-117.995,-26.1881,53.6838,7912.56,-376.777,-362.724,-25.286,-27.4439,6.88021
2.98,5887.12,-3807.74,7769.09,-18.1129,-89.9241,-18.2829,28369.5,3258.61,-4478.01,-110.338,243.757,-139.552,585.118,10791.3,-956.027,3.48781,5.01318,-104.646,-17374.7,-15865.1,-7045.31,-50.5584,169.446,-265.094,1671.44,9959.15,-1280.61,43.7272,-89.5048,-80.9786,18016.0,-16446.3,1376.36,-117.115,-27.6668,54.1802,7934.56,-389.319,-286.935,-23.8727,-26.658,5.6777
2.981,5877.89,-3807.4,7799.1,-18.5388,-90.8019,-18.741,28412.4,2300.1,-4937.93,-103.809,240.255,-131.442,592.85,10834.7,-965.908,3.44046,4.75387,-105.439,-18140.3,-15591.7,-6984.78,-51.8369,164.398,-258.76,1706.87,9985.75,-1261.9,43.4947,-89.2335,-80.3192,19138.3,-17093.8,842.089,-116.235,-29.1456,54.6766,7956.56,-401.861,-211.146,-22.4593,-25.8721,4.47519
2.982,5868.65,-3807.06,7829.12,-18.9647,-91.6797,-19.1991,28455.3,1341.58,-5397.85,-97.2798,236.753,-123.333,600.582,10878.1,-975.79,3.39311,4.49456,-106.231,-18905.9,-15318.2,-6924.25,-53.1155,159.351,-252.426,1742.3,10012.4,-1243.19,43.2622,-88.9622,-79.6597,20260.6,-17741.3,307.822,-115.355,-30.6243,55.1729,7978.56,-414.402,-135.357,-21.046,-25.0862,3.27268
2.983,5860.65,-3833.49,7840.43,-19.5209,-92.756,-19.7946,28556.6,374.24,-5842.07,-88.1095,232.769,-116.076,585.886,10896.5,-1010.3,3.34911,4.283,-107.166,-19873.1,-15065.4,-6736.59,-53.9428,152.645,-245.794,1780.31,10056.0,-1233.51,42.8272,-88.5428,-79.0778,21187.0,-18057.2,-200.793,-112.725,-31.1959,53.4921,8028.31,-422.017,-109.59,-19.431,-24.2635,2.22671
2.984,5853.01,-3867.58,7846.4,-20.1143,-93.8891,-20.4294,28674.7,-595.622,-6281.8,-78.1847,228.648,-109.063,564.782,10907.9,-1051.86,3.30607,4.08508,-108.141,-20897.9,-14818.6,-6512.62,-54.6412,145.466,-239.078,1819.07,10104.6,-1226.41,42.3344,-88.0811,-78.5182,22057.4,-18278.3,-702.079,-109.596,-31.5083,51.1893,8085.97,-428.225,-98.1153,-17.7585,-23.4303,1.22546
2.985,5845.36,-3901.66,7852.37,-20.7078,-95.0221,-21.0641,28792.7,-1565.48,-6721.54,-68.2598,224.526,-102.05,543.678,10919.2,-1093.41,3.26304,3.88716,-109.115,-21922.8,-14571.7,-6288.64,-55.3396,138.286,-232.361,1857.83,10153.1,-1219.3,41.8416,-87.6194,-77.9585,22927.8,-18499.5,-1203.36,-106.467,-31.8207,48.8864,8143.64,-434.432,-86.6403,-16.0859,-22.597,0.224213
2.986,5837.71,-3935.75,7858.34,-21.3012,-96.1552,-21.6989,28910.8,-2535.35,-7161.27,-58.335,220.405,-95.0372,522.575,10930.6,-1134.97,3.22,3.68924,-110.09,-22947.6,-14324.8,-6064.67,-56.0381,131.107,-225.645,1896.58,10201.7,-1212.2,41.3488,-87.1577,-77.3988,23798.2,-18720.7,-1704.65,-103.338,-32.1331,46.5836,8201.31,-440.639,-75.1652,-14.4133,-21.7638,-0.777035
2.987,5842.29,-3960.0,7854.45,-21.8729,-97.2442,-22.3028,29041.2,-3485.78,-7594.0,-47.8394,216.178,-88.4805,509.676,10958.3,-1158.95,3.19826,3.47648,-111.018,-23989.0,-14075.8,-5794.13,-56.6391,123.475,-218.896,1939.13,10250.9,-1206.16,40.7353,-86.6362,-76.8262,24323.4,-18758.8,-2241.33,-99.8425,-33.1225,43.829,8264.68,-455.636,-65.4851,-12.7721,-20.763,-1.84906
2.988,5871.33,-3964.6,7830.86,-22.4011,-98.2452,-22.8449,29196.5,-4397.36,-8012.69,-36.2022,211.738,-82.8365,513.187,11018.8,-1147.8,3.21911,3.23404,-111.853,-25063.4,-13822.2,-5430.46,-57.0455,114.939,-212.083,1989.27,10301.5,-1202.23,39.8802,-85.9952,-76.2277,24158.2,-18430.7,-2848.81,-95.6156,-35.466,40.1709,8339.46,-488.21,-59.3947,-11.1935,-19.4274,-3.06265
2.989,5900.37,-3969.2,7807.27,-22.9294,-99.2462,-23.3871,29351.8,-5308.94,-8431.39,-24.5651,207.298,-77.1925,516.697,11079.3,-1136.64,3.23995,2.99161,-112.688,-26137.8,-13568.7,-5066.79,-57.4519,106.403,-205.27,2039.41,10352.2,-1198.3,39.0252,-85.3541,-75.6292,23992.9,-18102.7,-3456.29,-91.3887,-37.8095,36.5128,8414.24,-520.784,-53.3044,-9.61483,-18.0917,-4.27624
2.99,5929.41,-3973.79,7783.68,-23.4576,-100.247,-23.9292,29507.0,-6220.52,-8850.08,-12.928,202.858,-71.5485,520.208,11139.8,-1125.49,3.2608,2.74917,-113.523,-27212.2,-13315.1,-4703.12,-57.8583,97.8668,-198.458,2089.54,10402.8,-1194.37,38.1702,-84.7131,-75.0307,23827.7,-17774.6,-4063.76,-87.1618,-40.153,32.8547,8489.01,-553.359,-47.2141,-8.03619,-16.7561,-5.48983
2.991,5958.45,-3978.39,7760.09,-23.9858,-101.248,-24.4713,29662.3,-7132.1,-9268.78,-1.29084,198.418,-65.9045,523.718,11200.3,-1114.34,3.28165,2.50673,-114.358,-28286.5,-13061.6,-4339.45,-58.2647,89.3306,-191.645,2139.68,10453.4,-1190.45,37.3151,-84.072,-74.4323,23662.4,-17446.6,-4671.24,-82.9349,-42.4965,29.1966,8563.79,-585.933,-41.1237,-6.45756,-15.4204,-6.70342
2.992,5983.47,-3927.54,7806.01,-24.5582,-102.359,-24.8275,29817.3,-7715.88,-9824.29,8.93019,193.764,-60.5999,522.874,11223.7,-1035.24,3.24139,2.2918,-115.356,-29112.9,-12770.3,-3883.33,-58.0749,80.138,-184.973,2214.6,10487.0,-1212.63,36.4308,-83.3518,-73.8013,22755.9,-17169.3,-5702.17,-76.8326,-43.5859,23.6692,8625.56,-576.664,-85.7511,-4.62093,-14.264,-8.05896
2.993,6007.99,-3869.75,7860.63,-25.1361,-103.483,-25.1605,29972.3,-8258.69,-10396.9,18.9742,189.083,-55.3376,521.485,11242.6,-947.657,3.1935,2.08031,-116.375,-29908.3,-12474.3,-3415.66,-57.8106,70.8633,-178.319,2292.62,10518.5,-1238.08,35.5428,-82.6216,-73.1663,21756.7,-16898.5,-6786.03,-70.496,-44.5185,17.9081,8685.7,-562.164,-136.718,-2.75205,-13.1301,-9.43224
2.994,6032.51,-3811.97,7915.25,-25.7139,-104.607,-25.4935,30127.3,-8801.49,-10969.5,29.0182,184.403,-50.0754,520.096,11261.4,-860.071,3.1456,1.86882,-117.394,-30703.7,-12178.3,-2947.98,-57.5462,61.5886,-171.666,2370.64,10549.9,-1263.53,34.6548,-81.8915,-72.5313,20757.5,-16627.6,-7869.9,-64.1594,-45.4511,12.147,8745.84,-547.665,-187.685,-0.883177,-11.9961,-10.8055
2.995,6057.03,-3754.18,7969.86,-26.2918,-105.731,-25.8265,30282.3,-9344.3,-11542.1,39.0622,179.722,-44.8131,518.708,11280.3,-772.485,3.0977,1.65733,-118.412,-31499.0,-11882.3,-2480.31,-57.2818,52.314,-165.012,2448.66,10581.3,-1288.98,33.7668,-81.1613,-71.8962,19758.3,-16356.7,-8953.76,-57.8227,-46.3837,6.38585,8805.98,-533.165,-238.653,0.985701,-10.8621,-12.1788
2.996,6062.12,-3695.19,7991.15,-26.6779,-106.852,-26.1513,30454.8,-9600.39,-12129.8,47.1072,174.876,-39.5162,540.037,11304.1,-697.773,3.01821,1.46446,-119.513,-32060.4,-11568.7,-2018.43,-56.4562,42.9452,-158.427,2537.63,10594.7,-1316.03,32.8615,-80.4406,-71.227,18752.5,-16111.7,-10170.9,-50.5245,-44.0813,0.577039,8884.4,-496.801,-294.883,3.01902,-9.65857,-13.6244
2.997,6042.91,-3634.7,7970.77,-26.8242,-107.968,-26.4658,30649.0,-9498.08,-12736.3,52.6532,169.821,-34.1758,589.765,11334.2,-639.154,2.89922,1.29488,-120.718,-32329.2,-11233.2,-1563.79,-54.9291,33.4588,-151.928,2640.26,10585.7,-1345.08,31.9347,-79.7317,-70.5152,17738.5,-15898.9,-11554.6,-42.0244,-37.7351,-5.29139,8985.67,-433.107,-357.693,5.2579,-8.36802,-15.1603
2.998,6023.7,-3574.2,7950.39,-26.9706,-109.084,-26.7803,30843.3,-9395.78,-13342.8,58.1993,164.767,-28.8354,639.492,11364.3,-580.534,2.78022,1.1253,-121.922,-32598.1,-10897.7,-1109.15,-53.4019,23.9724,-145.429,2742.9,10576.6,-1374.12,31.0079,-79.0227,-69.8033,16724.5,-15686.2,-12938.3,-33.5242,-31.3889,-11.1598,9086.94,-369.413,-420.503,7.49678,-7.07746,-16.6962
2.999,6004.49,-3513.71,7930.01,-27.1169,-110.2,-27.0948,31037.5,-9293.47,-13949.4,63.7454,159.713,-23.495,689.22,11394.4,-521.914,2.66123,0.955714,-123.126,-32867.0,-10562.2,-654.509,-51.8748,14.486,-138.93,2845.53,10567.5,-1403.17,30.081,-78.3138,-69.0914,15710.5,-15473.4,-14322.0,-25.0241,-25.0428,-17.0282,9188.21,-305.72,-483.313,9.73565,-5.78691,-18.2321
3.0,5985.28,-3453.22,7909.63,-27.2632,-111.316,-27.4093,31231.8,-9191.17,-14555.9,69.2914,154.658,-18.1546,738.947,11424.5,-463.294,2.54224,0.78613,-124.33,-33135.8,-10226.7,-199.87,-50.3476,4.99966,-132.431,2948.17,10558.4,-1432.22,29.1542,-77.6048,-68.3795,14696.5,-15260.7,-15705.8,-16.5239,-18.6966,-22.8967,9289.48,-242.026,-546.124,11.9745,-4.49636,-19.768
3.001,5981.26,-3461.21,7993.91,-27.1397,-112.671,-27.5227,31403.6,-8577.99,-15142.7,69.8302,148.797,-12.1496,827.542,11416.7,-375.628,2.45611,1.22337,-125.382,-32886.8,-9877.11,125.509,-47.6078,-3.3109,-125.491,3071.4,10495.5,-1543.92,28.5345,-76.8998,-67.8091,14146.0,-15130.3,-16525.0,-8.00001,-6.26578,-27.7692,9400.97,-149.72,-586.484,14.0407,-3.19467,-20.873
3.002,5977.24,-3469.2,8078.2,-27.0162,-114.025,-27.6361,31575.5,-7964.82,-15729.6,70.369,142.936,-6.14463,916.137,11408.9,-287.961,2.36998,1.6606,-126.433,-32637.9,-9527.54,450.888,-44.868,-11.6215,-118.551,3194.64,10432.7,-1655.63,27.9148,-76.1949,-67.2387,13595.5,-14999.9,-17344.3,0.52393,6.16503,-32.6418,9512.47,-57.4138,-626.845,16.1069,-1.89299,-21.9779
3.003,5973.22,-3477.2,8162.48,-26.8927,-115.38,-27.7495,31747.4,-7351.64,-16316.4,70.9079,137.075,-0.139622,1004.73,11401.2,-200.294,2.28386,2.09784,-127.485,-32388.9,-9177.98,776.267,-42.1283,-19.932,-111.611,3317.88,10369.9,-1767.34,27.295,-75.49,-66.6683,13044.9,-14869.5,-18163.6,9.04787,18.5958,-37.5144,9623.96,34.8921,-667.206,18.1731,-0.591301,-23.0829
3.004,5969.19,-3485.19,8246.77,-26.7691,-116.735,-27.8629,31919.3,-6738.47,-16903.2,71.4467,131.214,5.86539,1093.33,11393.4,-112.628,2.19773,2.53508,-128.537,-32139.9,-8828.41,1101.65,-39.3885,-28.2426,-104.671,3441.11,10307.1,-1879.05,26.6753,-74.785,-66.0979,12494.4,-14739.1,-18982.9,17.5718,31.0267,-42.387,9735.46,127.198,-707.567,20.2393,0.710383,-24.1878
3.005,5938.48,-3497.13,8303.4,-26.6669,-118.234,-28.0139,31990.0,-6168.93,-17415.6,69.8476,124.746,11.7839,1188.5,11409.3,-46.7143,1.79652,2.9699,-129.675,-31751.0,-8513.96,1354.85,-36.2575,-35.4653,-96.9642,3558.74,10250.0,-2008.66,26.3835,-74.002,-65.528,12145.1,-14658.9,-19390.0,24.3103,44.3828,-46.7771,9819.35,211.477,-757.84,21.5161,1.68066,-24.9116
3.006,5886.43,-3512.24,8337.9,-26.5818,-119.849,-28.195,31979.7,-5634.29,-17868.4,66.5383,117.793,17.6333,1288.95,11444.2,1.79655,1.14323,3.40279,-130.882,-31250.1,-8227.61,1550.31,-32.8136,-41.8177,-88.6442,3671.89,10197.7,-2152.61,26.354,-73.1565,-64.9586,11956.8,-14619.1,-19467.5,29.6204,58.4793,-50.7813,9881.15,289.336,-816.043,22.1612,2.38581,-25.3305
3.007,5834.37,-3527.34,8372.4,-26.4966,-121.463,-28.3761,31969.4,-5099.66,-18321.3,63.229,110.839,23.4827,1389.39,11479.1,50.3074,0.489952,3.83568,-132.089,-30749.2,-7941.25,1745.76,-29.3697,-48.1701,-80.3241,3785.03,10145.4,-2296.55,26.3246,-72.311,-64.3892,11768.5,-14579.2,-19545.0,34.9305,72.5758,-54.7855,9942.95,367.194,-874.246,22.8064,3.09097,-25.7493
3.008,5782.31,-3542.44,8406.9,-26.4115,-123.078,-28.5571,31959.2,-4565.02,-18774.1,59.9197,103.886,29.332,1489.83,11514.0,98.8182,-0.163329,4.26858,-133.297,-30248.4,-7654.89,1941.22,-25.9258,-54.5225,-72.004,3898.17,10093.0,-2440.5,26.2951,-71.4655,-63.8198,11580.3,-14539.3,-19622.5,40.2406,86.6723,-58.7897,10004.8,445.052,-932.45,23.4516,3.79612,-26.1682
3.009,5740.96,-3549.46,8443.23,-26.3217,-124.735,-28.7396,31931.3,-4072.78,-19191.5,56.3748,96.816,35.1165,1578.14,11554.0,142.107,-0.80062,4.76647,-134.476,-29744.7,-7380.01,2128.57,-22.4493,-60.7149,-63.5198,4008.63,10042.6,-2575.93,26.2495,-70.5952,-63.2778,11413.8,-14502.7,-19652.3,45.1479,100.572,-62.6871,10068.3,518.955,-997.297,23.9827,4.50185,-26.5305
3.01,5785.25,-3491.79,8494.19,-26.1952,-126.735,-28.9332,31762.6,-3919.68,-19325.5,50.9454,88.8118,40.3818,1569.4,11635.2,143.621,-1.30999,5.78433,-135.433,-29218.1,-7196.87,2251.01,-18.7114,-65.6274,-53.7227,4097.57,10007.9,-2643.23,26.0751,-69.527,-62.9547,11422.0,-14492.6,-19300.6,46.8329,112.894,-65.7297,10145.4,561.21,-1115.3,23.6015,5.21225,-26.4403
3.011,5829.55,-3434.11,8545.15,-26.0688,-128.734,-29.1267,31593.8,-3766.58,-19459.5,45.5159,80.8076,45.6471,1560.66,11716.3,145.135,-1.81935,6.8022,-136.39,-28691.6,-7013.73,2373.45,-14.9735,-70.54,-43.9256,4186.52,9973.09,-2710.53,25.9006,-68.4588,-62.6316,11430.2,-14482.6,-18948.8,48.518,125.217,-68.7724,10222.5,603.466,-1233.3,23.2203,5.92264,-26.3501
3.012,5873.84,-3376.44,8596.1,-25.9423,-130.734,-29.3203,31425.1,-3613.48,-19593.5,40.0864,72.8034,50.9124,1551.91,11797.5,146.649,-2.32872,7.82007,-137.348,-28165.0,-6830.59,2495.89,-11.2356,-75.4525,-34.1284,4275.46,9938.33,-2777.84,25.7262,-67.3906,-62.3085,11438.5,-14472.5,-18597.1,50.203,137.539,-71.8151,10299.6,645.721,-1351.29,22.8391,6.63303,-26.2598
3.013,5918.14,-3318.77,8647.06,-25.8158,-132.734,-29.5139,31256.3,-3460.39,-19727.5,34.657,64.7991,56.1777,1543.17,11878.6,148.163,-2.83809,8.83793,-138.305,-27638.5,-6647.45,2618.33,-7.49764,-80.3651,-24.3313,4364.4,9903.56,-2845.14,25.5517,-66.3224,-61.9855,11446.7,-14462.5,-18245.4,51.888,149.862,-74.8578,10376.8,687.977,-1469.29,22.4579,7.34342,-26.1696
3.014,5943.89,-3266.86,8705.68,-25.665,-134.749,-29.6919,31068.2,-3473.88,-19724.1,29.4437,56.5868,60.9681,1538.4,11949.7,161.753,-3.28747,9.85253,-139.287,-27241.5,-6613.52,2706.6,-3.62978,-84.8815,-13.9891,4424.3,9881.79,-2895.08,25.18,-64.9856,-61.7302,11543.8,-14509.8,-17635.7,51.2509,159.315,-77.1791,10456.9,719.181,-1597.85,21.4924,8.00164,-25.6086
3.015,5960.37,-3217.85,8768.14,-25.5022,-136.773,-29.8622,30870.2,-3570.66,-19652.1,24.3384,48.2703,65.521,1535.61,12015.8,181.38,-3.70685,10.8655,-140.281,-26909.3,-6654.19,2777.8,0.303055,-89.1998,-3.37431,4469.67,9866.53,-2936.33,24.7096,-63.5144,-61.5089,11685.3,-14586.0,-16897.1,49.4527,167.333,-79.1397,10538.5,744.86,-1731.68,20.2347,8.63378,-24.8122
3.016,5976.86,-3168.83,8830.59,-25.3393,-138.797,-30.0325,30672.3,-3667.45,-19580.1,19.2331,39.9538,70.074,1532.82,12081.8,201.008,-4.12624,11.8784,-141.276,-26577.1,-6694.85,2848.99,4.23589,-93.5181,7.24047,4515.04,9851.26,-2977.59,24.2392,-62.0433,-61.2875,11826.8,-14662.1,-16158.4,47.6545,175.351,-81.1002,10620.1,770.54,-1865.52,18.977,9.26592,-24.0157
3.017,5993.34,-3119.81,8893.04,-25.1764,-140.821,-30.2027,30474.4,-3764.23,-19508.1,14.1279,31.6373,74.6269,1530.04,12147.9,220.635,-4.54563,12.8914,-142.27,-26245.0,-6735.52,2920.18,8.16873,-97.8364,17.8552,4560.41,9836.0,-3018.85,23.7688,-60.5721,-61.0662,11968.2,-14738.2,-15419.8,45.8563,183.369,-83.0608,10701.8,796.219,-1999.35,17.7194,9.89806,-23.2193
3.018,5999.87,-3095.93,8947.17,-24.9934,-142.882,-30.348,30269.8,-3880.97,-19396.1,9.42598,23.4082,79.0076,1529.94,12208.0,225.394,-4.94935,13.7826,-143.298,-25965.3,-6822.59,2973.14,12.0509,-102.08,28.313,4607.1,9832.01,-3059.61,23.2716,-59.0131,-60.849,12107.0,-14816.9,-14616.6,43.5055,190.072,-84.7255,10794.1,810.178,-2127.1,16.4293,10.4157,-22.3805
3.019,5971.54,-3160.0,8972.17,-24.7397,-145.072,-30.406,30041.7,-4067.57,-19144.1,6.13594,15.4848,82.7854,1539.27,12247.1,178.11,-5.29823,14.2475,-144.442,-25869.5,-7072.04,2962.3,15.7557,-106.061,38.2214,4658.39,9867.52,-3098.66,22.6803,-57.1466,-60.6464,12236.1,-14904.7,-13587.4,39.2208,192.172,-85.3546,10923.9,783.116,-2233.56,15.0259,10.5325,-21.3932
3.02,5943.2,-3224.08,8997.17,-24.486,-147.262,-30.4639,29813.5,-4254.17,-18892.0,2.8459,7.56145,86.5631,1548.59,12286.2,130.826,-5.64712,14.7125,-145.585,-25773.8,-7321.49,2951.46,19.4606,-110.043,48.1297,4709.67,9903.04,-3137.71,22.089,-55.2801,-60.4438,12365.3,-14992.6,-12558.2,34.9362,194.273,-85.9836,11053.6,756.055,-2340.02,13.6225,10.6493,-20.4059
3.021,5914.87,-3288.15,9022.17,-24.2324,-149.453,-30.5218,29585.4,-4440.76,-18640.0,-0.444132,-0.361936,90.3408,1557.91,12325.2,83.542,-5.99601,15.1774,-146.729,-25678.0,-7570.93,2940.62,23.1654,-114.024,58.038,4760.96,9938.55,-3176.76,21.4977,-53.4136,-60.2412,12494.4,-15080.5,-11529.0,30.6515,196.373,-86.6127,11183.4,728.993,-2446.48,12.2191,10.7661,-19.4185
3.022,5886.54,-3352.23,9047.17,-23.9787,-151.643,-30.5798,29357.2,-4627.36,-18388.0,-3.73417,-8.28532,94.1186,1567.23,12364.3,36.2581,-6.3449,15.6424,-147.873,-25582.2,-7820.38,2929.77,26.8703,-118.005,67.9464,4812.25,9974.06,-3215.81,20.9064,-51.547,-60.0386,12623.6,-15168.3,-10499.8,26.3668,198.473,-87.2417,11313.2,701.931,-2552.94,10.8157,10.8829,-18.4312
3.023,5849.4,-3472.97,9099.32,-24.2059,-153.977,-30.9644,29180.9,-4757.53,-17977.5,-5.14843,-15.6491,97.2683,1608.08,12452.6,-85.3092,-6.62901,16.1322,-149.146,-25536.3,-8085.27,2837.28,29.9324,-121.318,76.9052,4807.03,10059.0,-3067.01,19.667,-49.9006,-59.7435,12732.4,-15184.5,-9494.3,22.8787,196.338,-86.4225,11418.7,705.667,-2672.68,9.05341,11.1197,-17.5882
3.024,5809.74,-3609.89,9159.21,-24.5705,-156.353,-31.4423,29019.5,-4871.58,-17521.8,-6.02676,-22.8529,100.239,1657.93,12555.0,-228.1,-6.89462,16.6291,-150.457,-25504.7,-8354.56,2721.45,32.811,-124.44,85.5928,4785.66,10158.1,-2864.54,18.2423,-48.317,-59.4221,12835.4,-15180.3,-8495.52,19.6183,192.993,-85.1895,11517.2,718.202,-2796.22,7.18859,11.3907,-16.7864
3.025,5770.08,-3746.81,9219.11,-24.9351,-158.729,-31.9202,28858.0,-4985.63,-17066.0,-6.9051,-30.0567,103.209,1707.79,12657.3,-370.891,-7.16022,17.1261,-151.768,-25473.1,-8623.85,2605.62,35.6896,-127.562,94.2804,4764.3,10257.1,-2662.07,16.8176,-46.7334,-59.1006,12938.4,-15176.0,-7496.73,16.3578,189.649,-83.9565,11615.7,730.737,-2919.76,5.32377,11.6618,-15.9847
3.026,5730.43,-3883.74,9279.01,-25.2997,-161.105,-32.3981,28696.5,-5099.68,-16610.2,-7.78343,-37.2606,106.179,1757.64,12759.7,-513.682,-7.42583,17.623,-153.079,-25441.5,-8893.14,2489.8,38.5681,-130.683,102.968,4742.94,10356.2,-2459.61,15.393,-45.1498,-58.7792,13041.5,-15171.7,-6497.95,13.0974,186.304,-82.7234,11714.3,743.271,-3043.3,3.45896,11.9329,-15.1829
3.027,5697.52,-4010.28,9325.96,-25.7147,-163.681,-33.0966,28558.0,-5164.98,-16124.0,-7.94665,-44.0088,109.058,1789.82,12863.4,-646.781,-7.68157,17.9759,-154.328,-25393.7,-9139.97,2317.05,40.93,-133.391,111.273,4701.42,10461.9,-2342.08,14.0247,-43.3894,-58.3975,13070.1,-15173.7,-5591.14,11.0218,181.834,-81.2133,11796.8,770.171,-3175.41,1.53095,12.2097,-14.4354
3.028,5678.12,-4116.08,9347.01,-26.2306,-166.656,-34.2361,28465.4,-5132.79,-15577.0,-6.67966,-49.8456,111.756,1786.63,12969.9,-760.493,-7.91759,18.0406,-155.454,-25313.6,-9341.89,2030.46,42.2583,-135.27,118.812,4619.61,10580.6,-2394.43,12.7691,-41.2752,-57.8953,12949.9,-15188.3,-4868.27,11.3159,175.114,-79.1489,11847.4,825.802,-3324.66,-0.52343,12.4979,-13.7965
3.029,5658.72,-4221.88,9368.06,-26.7464,-169.63,-35.3756,28372.8,-5100.6,-15029.9,-5.41266,-55.6824,114.453,1783.45,13076.4,-874.206,-8.15361,18.1053,-156.58,-25233.5,-9543.81,1743.87,43.5867,-137.149,126.351,4537.8,10699.4,-2446.78,11.5135,-39.161,-57.3931,12829.8,-15203.0,-4145.4,11.6101,168.394,-77.0846,11898.0,881.432,-3473.9,-2.57781,12.7862,-13.1577
3.03,5639.32,-4327.68,9389.11,-27.2622,-172.605,-36.5151,28280.2,-5068.42,-14482.9,-4.14567,-61.5192,117.15,1780.27,13182.8,-987.919,-8.38964,18.17,-157.705,-25153.4,-9745.73,1457.28,44.915,-139.027,133.89,4455.99,10818.1,-2499.13,10.2579,-37.0468,-56.8909,12709.6,-15217.6,-3422.53,11.9042,161.673,-75.0202,11948.6,937.062,-3623.15,-4.63219,13.0744,-12.5188
3.031,5619.92,-4433.48,9410.16,-27.7781,-175.58,-37.6547,28187.6,-5036.23,-13935.9,-2.87868,-67.3561,119.848,1777.09,13289.3,-1101.63,-8.62566,18.2347,-158.831,-25073.3,-9947.65,1170.69,46.2434,-140.906,141.429,4374.17,10936.9,-2551.48,9.00225,-34.9326,-56.3887,12589.4,-15232.2,-2699.66,12.1983,154.953,-72.9558,11999.2,992.692,-3772.4,-6.68658,13.3626,-11.8799
3.032,5623.65,-4492.7,9397.29,-29.2037,-178.581,-39.0316,28084.7,-4767.42,-13344.0,-0.153396,-72.1746,123.074,1691.78,13424.4,-1240.49,-8.80037,18.279,-159.795,-24880.1,-10045.6,778.897,46.0992,-141.519,148.231,4242.86,11082.9,-2540.86,7.5007,-32.7122,-55.772,12163.4,-15291.9,-2260.37,15.0556,148.419,-72.1318,12033.4,1030.15,-3893.74,-8.52966,13.3141,-11.3778
3.033,5630.29,-4546.1,9380.17,-30.743,-181.586,-40.4382,27980.5,-4469.03,-12746.6,2.75417,-76.8659,126.367,1596.2,13563.1,-1382.5,-8.96742,18.3207,-160.739,-24672.8,-10130.5,373.959,45.771,-141.974,154.941,4105.36,11232.4,-2522.36,5.96841,-30.4785,-55.141,11699.1,-15357.2,-1856.54,18.2332,141.909,-71.4628,12065.5,1065.34,-4011.6,-10.3463,13.2235,-10.8929
3.034,5636.92,-4599.5,9363.06,-32.2823,-184.59,-41.8449,27876.2,-4170.65,-12149.2,5.66174,-81.5572,129.66,1500.61,13701.8,-1524.51,-9.13447,18.3625,-161.683,-24465.5,-10215.5,-30.9793,45.4429,-142.429,161.65,3967.86,11381.9,-2503.87,4.43612,-28.2448,-54.5099,11234.8,-15422.5,-1452.7,21.4109,135.399,-70.7938,12097.7,1100.53,-4129.46,-12.163,13.1329,-10.4079
3.035,5643.55,-4652.91,9345.95,-33.8216,-187.595,-43.2515,27772.0,-3872.26,-11551.8,8.56931,-86.2485,132.953,1405.03,13840.5,-1666.51,-9.30152,18.4042,-162.627,-24258.2,-10300.4,-435.918,45.1147,-142.883,168.36,3830.36,11531.4,-2485.38,2.90382,-26.0111,-53.8789,10770.5,-15487.8,-1048.86,24.5885,128.889,-70.1248,12129.8,1135.71,-4247.32,-13.9797,13.0423,-9.92291
3.036,5665.76,-4690.39,9353.38,-35.3696,-190.589,-44.6933,27646.7,-3476.88,-10963.0,11.9128,-90.3321,136.406,1312.88,13949.5,-1751.73,-9.27217,17.9586,-163.564,-24003.5,-10356.8,-857.578,44.2665,-142.944,174.686,3679.53,11686.6,-2404.46,0.980043,-23.8816,-53.1938,10169.8,-15538.9,-722.782,28.439,123.807,-70.6489,12160.1,1186.59,-4350.98,-15.5832,12.8022,-9.54356
3.037,5707.45,-4707.98,9391.49,-36.9286,-193.571,-46.1791,27495.0,-2960.24,-10385.0,15.8013,-93.6561,140.061,1225.02,14021.2,-1765.95,-8.99731,16.9039,-164.491,-23689.7,-10377.4,-1300.14,42.7684,-142.513,180.532,3512.03,11848.8,-2245.52,-1.4331,-21.8824,-52.4413,9398.63,-15572.3,-493.894,33.1307,120.511,-72.6643,12188.1,1257.07,-4436.9,-16.9202,12.3754,-9.29625
3.038,5749.14,-4725.58,9429.6,-38.4876,-196.553,-47.6649,27343.4,-2443.61,-9807.08,19.6898,-96.9801,143.716,1137.15,14092.9,-1780.17,-8.72245,15.8493,-165.419,-23375.9,-10398.0,-1742.71,41.2703,-142.081,186.378,3344.53,12011.0,-2086.58,-3.84623,-19.8832,-51.6889,8627.44,-15605.7,-265.006,37.8224,117.214,-74.6798,12216.2,1327.55,-4522.83,-18.2573,11.9486,-9.04895
3.039,5790.83,-4743.17,9467.71,-40.0466,-199.534,-49.1507,27191.7,-1926.98,-9229.12,23.5782,-100.304,147.371,1049.29,14164.7,-1794.39,-8.4476,14.7946,-166.346,-23062.2,-10418.6,-2185.27,39.7721,-141.65,192.224,3177.04,12173.2,-1927.64,-6.25937,-17.884,-50.9364,7856.24,-15639.1,-36.1179,42.514,113.917,-76.6952,12244.2,1398.04,-4608.75,-19.5943,11.5218,-8.80164
3.04,5832.52,-4760.76,9505.83,-41.6055,-202.516,-50.6365,27040.0,-1410.35,-8651.16,27.4667,-103.628,151.026,961.422,14236.4,-1808.61,-8.17274,13.7399,-167.273,-22748.4,-10439.2,-2627.83,38.274,-141.218,198.07,3009.54,12335.3,-1768.69,-8.67251,-15.8848,-50.1839,7085.05,-15672.6,192.77,47.2057,110.621,-78.7107,12272.3,1468.52,-4694.67,-20.9313,11.095,-8.55433
3.041,5860.82,-4773.96,9487.55,-43.4275,-205.793,-52.4052,26919.1,-849.367,-8125.4,31.5323,-105.377,155.015,914.031,14258.7,-1745.72,-7.99533,11.4235,-168.079,-22327.8,-10453.1,-2947.22,36.0347,-140.641,203.175,2816.16,12463.1,-1603.87,-11.5462,-14.2335,-49.4145,6177.57,-15548.4,454.665,52.4018,110.808,-82.6554,12281.3,1562.09,-4715.65,-22.6346,10.0628,-8.1621
3.042,5889.13,-4787.16,9469.27,-45.2494,-209.07,-54.1738,26798.1,-288.381,-7599.64,35.598,-107.125,159.004,866.64,14280.9,-1682.82,-7.81792,9.10707,-168.885,-21907.2,-10467.1,-3266.61,33.7954,-140.063,208.28,2622.78,12590.8,-1439.06,-14.4198,-12.5821,-48.6452,5270.1,-15424.2,716.56,57.5979,110.995,-86.6001,12290.3,1655.65,-4736.63,-24.3378,9.03061,-7.76986
3.043,5917.44,-4800.36,9450.99,-47.0713,-212.346,-55.9425,26677.2,272.604,-7073.88,39.6636,-108.874,162.993,819.249,14303.2,-1619.92,-7.64051,6.79065,-169.691,-21486.6,-10481.0,-3586.0,31.5561,-139.485,213.385,2429.4,12718.5,-1274.24,-17.2935,-10.9307,-47.8759,4362.62,-15300.0,978.455,62.794,111.182,-90.5448,12299.3,1749.22,-4757.6,-26.0411,7.99843,-7.37763
3.044,5945.74,-4813.56,9432.71,-48.8933,-215.623,-57.7111,26556.2,833.59,-6548.12,43.7292,-110.623,166.982,771.858,14325.4,-1557.03,-7.4631,4.47424,-170.497,-21066.0,-10494.9,-3905.39,29.3168,-138.907,218.49,2236.03,12846.2,-1109.42,-20.1671,-9.27937,-47.1065,3455.15,-15175.9,1240.35,67.9901,111.369,-94.4895,12308.3,1842.78,-4778.58,-27.7443,6.96625,-6.98539
3.045,5945.96,-4831.61,9436.43,-50.8267,-218.964,-59.415,26417.8,1383.09,-6106.2,43.635,-111.415,171.257,743.162,14368.4,-1542.64,-7.39281,2.01311,-171.411,-20595.1,-10560.8,-4167.66,27.1863,-138.182,223.162,2074.46,12943.7,-960.798,-22.8824,-7.99184,-46.236,2551.14,-14883.1,1551.2,72.6692,112.502,-98.5747,12320.5,1947.04,-4770.38,-29.7949,5.60038,-6.78345
3.046,5923.71,-4853.53,9457.73,-52.8495,-222.355,-61.0669,26265.3,1923.39,-5731.36,40.2128,-111.441,175.76,729.421,14428.0,-1567.05,-7.40819,-0.563794,-172.412,-20084.0,-10668.1,-4384.24,25.1429,-137.337,227.487,1938.34,13016.9,-825.136,-25.4711,-6.99539,-45.2845,1649.9,-14455.5,1901.21,76.9346,114.391,-102.772,12335.1,2059.86,-4738.84,-32.1233,3.96756,-6.73375
3.047,5901.45,-4875.45,9479.04,-54.8722,-225.746,-62.7189,26112.9,2463.7,-5356.52,36.7907,-111.468,180.264,715.68,14487.6,-1591.47,-7.42358,-3.1407,-173.413,-19572.8,-10775.5,-4600.83,23.0995,-136.493,231.811,1802.22,13090.2,-689.474,-28.0597,-5.99893,-44.333,748.666,-14027.9,2251.22,81.1999,116.28,-106.97,12349.8,2172.67,-4707.3,-34.4518,2.33473,-6.68405
3.048,5879.2,-4897.37,9500.34,-56.8949,-229.137,-64.3709,25960.4,3004.01,-4981.68,33.3686,-111.495,184.767,701.94,14547.1,-1615.89,-7.43897,-5.7176,-174.414,-19061.7,-10882.9,-4817.41,21.0561,-135.649,236.136,1666.09,13163.4,-553.812,-30.6483,-5.00248,-43.3815,-152.57,-13600.2,2601.23,85.4653,118.169,-111.168,12364.5,2285.49,-4675.76,-36.7803,0.701904,-6.63434
3.049,5856.28,-4914.75,9520.52,-58.9114,-232.545,-66.0368,25767.5,3637.51,-4568.62,27.7177,-111.885,189.281,700.759,14605.8,-1632.06,-7.46255,-8.29925,-175.432,-18532.0,-11007.1,-5038.25,19.0023,-134.812,240.298,1538.79,13233.2,-421.162,-33.1541,-4.08865,-42.4185,-1047.07,-13144.6,2942.61,89.4505,120.124,-115.268,12381.9,2397.77,-4626.58,-39.2429,-0.984346,-6.61739
3.05,5828.03,-4895.72,9531.71,-60.8782,-236.088,-67.8146,25251.2,5016.59,-3849.77,4.23683,-115.187,193.878,800.06,14657.3,-1582.32,-7.55163,-10.9189,-176.592,-17853.5,-11265.7,-5293.19,16.8647,-134.038,243.152,1481.97,13274.9,-312.611,-34.9974,-3.83584,-41.3637,-1887.71,-12464.6,3214.92,91.1942,122.605,-118.594,12420.6,2505.71,-4436.32,-42.7785,-3.09799,-6.86248
3.051,5799.78,-4876.69,9542.91,-62.845,-239.631,-69.5924,24735.0,6395.66,-3130.91,-19.2441,-118.489,198.475,899.361,14708.8,-1532.57,-7.64072,-13.5386,-177.752,-17175.0,-11524.4,-5548.13,14.7271,-133.263,246.007,1425.16,13316.6,-204.06,-36.8407,-3.58303,-40.3089,-2728.34,-11784.6,3487.24,92.9379,125.086,-121.919,12459.4,2613.65,-4246.06,-46.3142,-5.21163,-7.10757
3.052,5771.54,-4857.66,9554.1,-64.8118,-243.174,-71.3702,24218.7,7774.74,-2412.06,-42.7249,-121.79,203.072,998.663,14760.3,-1482.83,-7.7298,-16.1583,-178.912,-16496.5,-11783.0,-5803.07,12.5895,-132.489,248.861,1368.34,13358.3,-95.5095,-38.6839,-3.33023,-39.254,-3568.97,-11104.6,3759.55,94.6816,127.567,-125.245,12498.1,2721.6,-4055.79,-49.8498,-7.32527,-7.35266
3.053,5743.29,-4838.64,9565.29,-66.7786,-246.717,-73.148,23702.4,9153.82,-1693.2,-66.2058,-125.092,207.669,1097.96,14811.8,-1433.08,-7.81889,-18.7779,-180.072,-15818.0,-12041.7,-6058.01,10.452,-131.715,251.716,1311.53,13400.0,13.0414,-40.5272,-3.07742,-38.1992,-4409.61,-10424.6,4031.86,96.4252,130.049,-128.57,12536.9,2829.54,-3865.53,-53.3855,-9.43891,-7.59775
3.054,5700.14,-4807.26,9647.31,-68.6571,-250.477,-74.7969,22164.2,12248.7,1546.36,-93.8887,-150.868,224.017,1208.1,14870.6,-1365.53,-8.03653,-21.4317,-181.162,-14392.1,-12495.9,-7020.01,9.93543,-126.646,253.771,1334.88,13412.1,88.3951,-42.0168,-3.33828,-37.1233,-5223.46,-9591.86,4239.28,96.7593,132.566,-129.939,12591.5,2927.16,-3236.56,-56.5699,-12.1742,-8.42644
3.055,5649.53,-4769.71,9764.75,-70.4913,-254.344,-76.3814,20115.0,16201.6,6046.27,-123.672,-187.882,246.242,1323.65,14933.1,-1289.06,-8.31844,-24.1026,-182.217,-12592.6,-13047.9,-8335.53,10.2294,-119.432,255.427,1398.33,13409.4,147.15,-43.3295,-3.85598,-36.0368,-6023.92,-8682.68,4414.25,96.3885,135.102,-130.328,12654.2,3019.63,-2388.25,-59.5787,-15.2204,-9.54693
3.056,5598.92,-4732.17,9882.18,-72.3256,-258.212,-77.966,18065.8,20154.4,10546.2,-153.456,-224.896,268.466,1439.2,14995.5,-1212.6,-8.60036,-26.7735,-183.273,-10793.1,-13599.9,-9651.06,10.5234,-112.217,257.082,1461.77,13406.7,205.905,-44.6423,-4.37368,-34.9504,-6824.38,-7773.5,4589.21,96.0177,137.638,-130.718,12716.8,3112.09,-1539.93,-62.5875,-18.2665,-10.6674
3.057,5548.31,-4694.62,9999.62,-74.1599,-262.079,-79.5505,16016.7,24107.2,15046.1,-183.24,-261.909,290.69,1554.75,15058.0,-1136.14,-8.88227,-29.4444,-184.328,-8993.51,-14151.9,-10966.6,10.8174,-105.002,258.738,1525.22,13404.0,264.66,-45.955,-4.89138,-33.8639,-7624.84,-6864.32,4764.18,95.6469,140.173,-131.108,12779.5,3204.55,-691.616,-65.5963,-21.3127,-11.7879
3.058,5493.1,-4655.69,10123.8,-76.0061,-266.085,-81.156,11858.2,29464.5,20893.2,-212.56,-304.159,323.849,1689.95,15112.6,-1055.53,-9.19316,-32.033,-185.405,-6159.92,-15080.8,-13167.2,17.3577,-94.2315,258.995,1599.42,13387.1,296.737,-47.0368,-5.50001,-32.7989,-8415.77,-6021.36,4815.42,94.1975,142.236,-130.609,12880.1,3233.76,270.393,-67.6319,-24.3862,-13.3618
3.059,5421.77,-4611.9,10271.4,-77.8943,-270.574,-82.835,317.405,39737.2,31455.4,-240.256,-364.734,395.275,1893.97,15139.7,-960.401,-9.60548,-34.3335,-186.556,292.837,-17328.9,-18465.8,45.7605,-71.0165,254.358,1711.27,13320.4,235.439,-47.3099,-6.42686,-31.8087,-9173.34,-5410.15,4433.58,88.9727,142.646,-127.0,13113.4,3041.59,1630.33,-66.2609,-27.5557,-16.5225
3.06,5350.44,-4568.1,10419.1,-79.7825,-275.063,-84.5139,-11223.4,50010.0,42017.6,-267.952,-425.309,466.701,2097.99,15166.7,-865.273,-10.0178,-36.634,-187.707,6745.6,-19576.9,-23764.3,74.1632,-47.8014,249.721,1823.13,13253.8,174.141,-47.583,-7.35371,-30.8185,-9930.91,-4798.95,4051.75,83.7479,143.055,-123.391,13346.7,2849.42,2990.26,-64.8899,-30.7252,-19.6832
3.061,5279.12,-4524.31,10566.8,-81.6707,-279.552,-86.1928,-22764.2,60282.7,52579.8,-295.648,-485.884,538.127,2302.0,15193.7,-770.146,-10.4301,-38.9345,-188.858,13198.4,-21824.9,-29062.8,102.566,-24.5864,245.085,1934.98,13187.1,112.843,-47.8561,-8.28057,-29.8283,-10688.5,-4187.75,3669.92,78.5231,143.464,-119.782,13580.0,2657.26,4350.19,-63.519,-33.8947,-22.844
3.062,5207.79,-4480.52,10714.5,-83.5589,-284.041,-87.8718,-34305.1,70555.4,63141.9,-323.345,-546.459,609.553,2506.02,15220.7,-675.018,-10.8424,-41.235,-190.009,19651.1,-24072.9,-34361.3,130.969,-1.3714,240.448,2046.83,13120.5,51.5445,-48.1292,-9.20742,-28.8381,-11446.0,-3576.55,3288.09,73.2983,143.873,-116.173,13813.3,2465.09,5710.12,-62.148,-37.0641,-26.0047
3.063,5167.23,-4474.79,10960.9,-84.713,-289.474,-89.227,-41992.5,61056.7,56964.4,-288.113,-535.19,587.747,2730.51,15318.4,-435.179,-11.472,-43.6366,-191.637,33090.8,-27671.0,-27973.8,119.27,-24.2973,223.482,2246.99,13082.8,-76.8469,-46.2213,-11.5878,-27.8996,-12166.7,-3168.43,2446.86,61.8026,143.388,-105.909,14137.8,1922.91,5398.76,-55.0587,-36.2057,-32.3409
3.064,5135.45,-4479.92,11235.5,-85.6573,-295.177,-90.4897,-48578.9,45909.1,46004.2,-234.902,-503.395,539.304,2960.86,15436.3,-153.994,-12.1637,-46.067,-193.401,48526.8,-31654.8,-18247.5,96.1133,-60.4063,202.994,2472.38,13053.3,-224.408,-43.6903,-14.3835,-26.9759,-12876.8,-2818.34,1474.38,48.5153,142.648,-93.7428,14488.4,1280.72,4609.89,-46.3356,-34.1964,-39.5843
3.065,5103.68,-4485.05,11510.2,-86.6016,-300.881,-91.7524,-55165.3,30761.4,35043.9,-181.691,-471.599,490.86,3191.2,15554.3,127.191,-12.8555,-48.4975,-195.166,63962.8,-35638.6,-8521.11,72.9568,-96.5152,182.506,2697.77,13023.9,-371.969,-41.1593,-17.1793,-26.0522,-13586.8,-2468.26,501.904,35.2279,141.908,-81.577,14839.0,638.535,3821.02,-37.6125,-32.1871,-46.8277
3.066,5071.9,-4490.18,11784.8,-87.546,-306.584,-93.0151,-61751.7,15613.7,24083.7,-128.48,-439.803,442.417,3421.55,15672.2,408.376,-13.5472,-50.928,-196.93,79398.8,-39622.3,1205.26,49.8004,-132.624,162.018,2923.17,12994.4,-519.53,-38.6283,-19.975,-25.1286,-14296.9,-2118.17,-470.576,21.9405,141.168,-69.4111,15189.5,-3.65063,3032.15,-28.8894,-30.1778,-54.0712
3.067,5059.33,-4475.13,12139.5,-88.1607,-312.633,-94.0778,-62092.7,315.847,16250.3,-90.7933,-399.038,391.223,3714.82,15841.2,693.125,-14.6573,-52.3891,-198.872,87031.2,-41660.9,7952.2,31.4973,-158.065,143.743,3214.79,13016.7,-642.155,-35.3992,-23.4895,-24.1343,-14812.1,-2209.93,-1210.88,9.1149,140.082,-55.6358,15475.1,-408.413,1948.66,-18.6711,-26.4595,-60.9888
3.068,5085.19,-4419.69,12654.5,-88.1161,-319.376,-94.7407,-49943.0,-15282.5,14670.7,-84.1549,-340.336,334.529,4133.94,16112.3,984.998,-16.6043,-51.9114,-201.171,79056.4,-39809.1,8740.3,22.9011,-162.168,129.894,3638.88,13142.4,-714.907,-30.7739,-28.4417,-22.9988,-14937.6,-3185.37,-1486.82,-2.78728,138.305,-38.6416,15630.9,-338.327,275.945,-5.46261,-19.3235,-67.2546
3.069,5111.04,-4364.25,13169.4,-88.0716,-326.118,-95.4036,-37793.2,-30880.9,13091.2,-77.5164,-281.633,277.834,4553.05,16383.5,1276.87,-18.5512,-51.4338,-203.469,71081.7,-37957.3,9528.4,14.3048,-166.271,116.045,4062.96,13268.2,-787.66,-26.1486,-33.3939,-21.8633,-15063.1,-4160.82,-1762.77,-14.6895,136.528,-21.6473,15786.7,-268.241,-1396.77,7.74592,-12.1874,-73.5205
3.07,5136.9,-4308.82,13684.3,-88.0271,-332.861,-96.0664,-25643.4,-46479.2,11511.6,-70.878,-222.931,221.139,4972.17,16654.7,1568.75,-20.4982,-50.9561,-205.767,63106.9,-36105.6,10316.5,5.70852,-170.374,102.196,4487.05,13393.9,-860.412,-21.5234,-38.3461,-20.7278,-15188.6,-5136.27,-2038.72,-26.5916,134.752,-4.65303,15942.5,-198.155,-3069.49,20.9545,-5.05136,-79.7863
3.071,5162.75,-4253.38,14199.2,-87.9826,-339.603,-96.7293,-13493.7,-62077.6,9932.09,-64.2395,-164.228,164.445,5391.29,16925.8,1860.62,-22.4451,-50.4785,-208.066,55132.1,-34253.8,11104.6,-2.88774,-174.477,88.3472,4911.14,13519.7,-933.165,-16.8981,-43.2984,-19.5924,-15314.1,-6111.72,-2314.66,-38.4938,132.975,12.3412,16098.2,-128.07,-4742.21,34.163,2.08471,-86.0522
3.072,5053.49,-4220.79,14499.2,-86.8622,-347.718,-97.9313,-596.581,-57903.4,14307.2,-69.2611,-152.957,143.816,5903.29,17413.5,1652.35,-25.8014,-49.7453,-210.169,44065.3,-32715.3,12162.1,18.9617,-155.487,103.812,5410.7,13854.7,-1033.73,-13.8268,-47.2403,-18.3769,-14948.3,-8042.21,-1656.47,-34.0098,130.643,24.5603,15963.1,578.757,-3862.11,42.257,4.51284,-85.8125
3.073,4927.34,-4191.05,14772.2,-85.6072,-356.005,-99.2008,12393.9,-51257.5,19426.6,-75.7401,-147.614,127.696,6426.89,17928.1,1381.56,-29.3339,-48.9802,-212.248,32612.0,-31216.1,13253.2,44.6168,-133.61,122.942,5919.7,14215.8,-1137.78,-10.9498,-51.056,-17.1514,-14521.1,-10092.1,-881.517,-27.4774,128.241,36.1824,15791.5,1365.18,-2662.9,49.7117,6.35248,-84.7596
3.074,4801.19,-4161.32,15045.3,-84.3523,-364.292,-100.47,25384.4,-44611.7,24546.0,-82.2192,-142.272,111.576,6950.49,18442.8,1110.78,-32.8664,-48.2152,-214.327,21158.7,-29716.8,14344.3,70.2719,-111.733,142.071,6428.7,14577.0,-1241.83,-8.07281,-54.8716,-15.9259,-14094.0,-12141.9,-106.561,-20.9451,125.84,47.8046,15619.9,2151.6,-1463.69,57.1664,8.19212,-83.7067
3.075,4675.04,-4131.58,15318.4,-83.0974,-372.578,-101.74,38375.0,-37965.9,29665.4,-88.6982,-136.93,95.4559,7474.09,18957.5,839.987,-36.3989,-47.4501,-216.406,9705.35,-28217.5,15435.5,95.927,-89.8567,161.201,6937.7,14938.1,-1345.88,-5.19581,-58.6873,-14.7004,-13666.8,-14191.8,668.395,-14.4128,123.438,59.4267,15448.4,2938.01,-264.476,64.6211,10.0318,-82.6538
3.076,4545.94,-4239.45,15279.5,-82.1492,-380.737,-103.622,46894.3,-28147.9,30875.3,-92.2884,-145.322,86.9208,7825.01,19397.4,509.978,-39.1947,-47.7732,-218.361,400.967,-26704.8,15613.2,111.514,-66.5721,180.561,7409.43,15363.8,-1364.01,-4.24634,-61.0615,-13.1843,-13113.3,-16112.9,1728.81,-2.12676,119.165,67.6612,15302.9,3229.49,754.807,66.9946,10.3335,-81.2155
3.077,4413.15,-4519.32,14850.9,-81.5846,-388.737,-106.271,49824.5,-14364.6,27198.5,-92.2674,-170.882,87.8671,7960.08,19743.9,105.942,-41.0696,-49.4565,-220.162,-6217.24,-25175.3,14649.1,114.517,-41.5278,200.209,7834.58,15870.0,-1274.76,-5.70629,-61.634,-11.3048,-12402.1,-17873.1,3146.05,17.3514,112.552,71.6609,15190.1,2902.28,1549.18,63.0167,8.71287,-79.2956
3.078,4280.36,-4799.19,14422.2,-81.0199,-396.737,-108.92,52754.8,-581.406,23521.6,-92.2464,-196.441,88.8135,8095.14,20090.4,-298.094,-42.9446,-51.1399,-221.964,-12835.5,-23645.8,13685.0,117.52,-16.4834,219.857,8259.72,16376.2,-1185.5,-7.16624,-62.2065,-9.42542,-11690.9,-19633.2,4563.28,36.8296,105.939,75.6607,15077.3,2575.08,2343.55,59.0387,7.09224,-77.3756
3.079,4147.56,-5079.07,13993.5,-80.4552,-404.736,-111.569,55685.1,13201.8,19844.7,-92.2254,-222.001,89.7598,8230.21,20436.9,-702.131,-44.8195,-52.8232,-223.765,-19453.7,-22116.3,12720.9,120.522,8.56094,239.505,8684.87,16882.5,-1096.25,-8.62619,-62.779,-7.546,-10979.7,-21393.4,5980.52,56.3077,99.3256,79.6605,14964.4,2247.87,3137.92,55.0608,5.47161,-75.4557
3.08,4014.77,-5358.94,13564.9,-79.8905,-412.736,-114.217,58615.3,26985.1,16167.9,-92.2044,-247.561,90.7061,8365.27,20783.4,-1106.17,-46.6944,-54.5066,-225.566,-26071.9,-20586.7,11756.8,123.525,33.6053,259.153,9110.01,17388.7,-1006.99,-10.0861,-63.3514,-5.66658,-10268.4,-23153.5,7397.76,75.7859,92.7126,83.6603,14851.6,1920.67,3932.3,51.0828,3.85098,-73.5357
3.081,3946.82,-5703.49,13345.3,-83.9857,-419.986,-117.154,48730.3,24105.7,11259.0,-83.1236,-264.594,87.458,8304.22,20938.2,-1168.07,-45.3431,-55.3951,-226.059,-26751.2,-19720.2,11528.5,112.799,39.629,260.84,9405.93,17613.5,-697.323,-14.2052,-61.7372,-2.44846,-8783.6,-24291.8,8738.34,85.5598,80.2499,78.6893,14838.9,1467.52,3168.37,42.9012,2.01291,-72.924
3.082,3878.87,-6048.03,13125.7,-88.0808,-427.237,-120.09,38845.2,21226.3,6350.05,-74.0428,-281.627,84.2099,8243.17,21092.9,-1229.98,-43.9918,-56.2835,-226.551,-27430.5,-18853.6,11300.2,102.074,45.6526,262.527,9701.85,17838.3,-387.653,-18.3242,-60.1229,0.769673,-7298.76,-25430.1,10078.9,95.3338,67.7873,73.7183,14826.2,1014.38,2404.45,34.7196,0.17484,-72.3124
3.083,3810.92,-6392.57,12906.1,-92.176,-434.487,-123.027,28960.2,18347.0,1441.14,-64.962,-298.66,80.9618,8182.11,21247.7,-1291.89,-42.6405,-57.172,-227.044,-28109.9,-17987.1,11072.0,91.348,51.6763,264.214,9997.76,18063.0,-77.9832,-22.4432,-58.5086,3.9878,-5813.91,-26568.3,11419.5,105.108,55.3247,68.7473,14813.4,561.229,1640.53,26.538,-1.66323,-71.7008
3.084,3742.97,-6737.12,12686.5,-96.2711,-441.738,-125.963,19075.1,15467.6,-3467.77,-55.8811,-315.693,77.7136,8121.06,21402.4,-1353.8,-41.2891,-58.0605,-227.537,-28789.2,-17120.5,10843.7,80.6223,57.7,265.901,10293.7,18287.8,231.686,-26.5622,-56.8943,7.20593,-4329.07,-27706.6,12760.1,114.882,42.862,63.7763,14800.7,108.082,876.606,18.3563,-3.5013,-71.0891
3.085,3705.75,-6978.48,12596.7,-101.215,-449.141,-128.975,13211.3,10305.7,-6278.69,-46.7527,-326.869,67.474,8151.95,21312.0,-1477.44,-39.6522,-60.9514,-228.427,-28929.1,-16372.8,10624.3,70.6559,58.4066,264.674,10500.8,18332.7,534.686,-30.1393,-53.864,10.903,-2285.88,-28014.4,12966.4,118.351,35.3165,56.1077,14799.9,-240.699,316.685,9.92462,-5.3568,-69.6295
3.086,3693.12,-7137.3,12610.9,-106.837,-456.667,-132.046,10564.6,3317.66,-7411.22,-37.586,-333.36,51.6412,8256.38,21025.6,-1650.48,-37.7868,-65.4443,-229.636,-28637.4,-15720.1,10412.0,61.297,54.8597,261.115,10636.8,18233.8,832.348,-33.2829,-49.7009,14.9831,203.971,-27657.7,12265.3,116.776,31.7046,46.281,14808.6,-505.988,-80.0351,1.29283,-7.22625,-67.4916
3.087,3680.49,-7296.12,12625.0,-112.458,-464.193,-135.118,7917.82,-3670.33,-8543.75,-28.4194,-339.85,35.8083,8360.82,20739.1,-1823.51,-35.9215,-69.9372,-230.846,-28345.7,-15067.4,10199.7,51.9381,51.3127,257.557,10772.8,18135.0,1130.01,-36.4264,-45.5377,19.0632,2693.83,-27301.0,11564.3,115.202,28.0927,36.4544,14817.3,-771.277,-476.755,-7.33896,-9.09569,-65.3536
3.088,3667.86,-7454.94,12639.1,-118.08,-471.72,-138.19,5271.07,-10658.3,-9676.29,-19.2528,-346.341,19.9755,8465.25,20452.6,-1996.55,-34.0561,-74.4301,-232.055,-28054.1,-14414.7,9987.37,42.5793,47.7658,253.999,10908.8,18036.1,1427.67,-39.57,-41.3746,23.1434,5183.68,-26944.3,10863.2,113.627,24.4808,26.6277,14826.1,-1036.57,-873.476,-15.9707,-10.9651,-63.2157
3.089,3651.19,-7598.89,12660.8,-123.692,-479.265,-141.38,3389.78,-16783.5,-10413.4,-10.753,-352.503,5.64581,8564.81,20176.9,-2182.1,-32.3037,-79.0775,-233.34,-27753.5,-13709.0,9807.61,33.5063,43.1984,250.781,11030.4,17927.7,1706.01,-42.9837,-36.7095,27.2392,7614.0,-26416.1,10144.8,112.583,21.9243,17.7322,14833.5,-1272.92,-1215.28,-24.698,-12.8559,-60.9513
3.09,3602.22,-7623.91,12742.4,-129.215,-486.959,-145.522,7632.22,-16005.6,-7987.03,-7.58773,-356.045,3.34166,8625.34,19986.8,-2467.8,-31.4546,-84.9615,-235.233,-27381.5,-12578.7,9888.2,26.7204,30.4673,250.284,11036.4,17743.4,1829.7,-48.5585,-28.0288,31.4606,9568.0,-24516.0,9287.62,115.776,27.8104,16.2867,14830.8,-1277.79,-1117.78,-34.1892,-14.917,-57.6753
3.091,3553.26,-7648.93,12824.0,-134.739,-494.654,-149.663,11874.7,-15227.7,-5560.67,-4.42242,-359.586,1.03751,8685.87,19796.7,-2753.49,-30.6056,-90.8454,-237.127,-27009.5,-11448.4,9968.78,19.9345,17.7363,249.787,11042.5,17559.0,1953.38,-54.1332,-19.348,35.682,11522.0,-22615.9,8430.49,118.97,33.6965,14.8412,14828.2,-1282.66,-1020.28,-43.6804,-16.9781,-54.3994
3.092,3504.29,-7673.95,12905.6,-140.263,-502.348,-153.805,16117.1,-14449.8,-3134.31,-1.25712,-363.127,-1.26664,8746.4,19606.6,-3039.19,-29.7565,-96.7293,-239.02,-26637.5,-10318.1,10049.4,13.1486,5.00527,249.291,11048.5,17374.7,2077.07,-59.708,-10.6672,39.9034,13476.0,-20715.9,7573.36,122.164,39.5826,13.3957,14825.5,-1287.53,-922.773,-53.1715,-19.0392,-51.1234
3.093,3455.32,-7698.97,12987.2,-145.786,-510.043,-157.947,20359.5,-13671.9,-707.952,1.90819,-366.669,-3.57079,8806.94,19416.5,-3324.89,-28.9075,-102.613,-240.913,-26265.5,-9187.82,10130.0,6.3627,-7.72576,248.794,11054.6,17190.4,2200.76,-65.2828,-1.98647,44.1247,15430.0,-18815.8,6716.22,125.358,45.4688,11.9502,14822.8,-1292.4,-825.27,-62.6627,-21.1003,-47.8474
3.094,3357.79,-7725.32,13000.8,-150.968,-517.878,-162.235,21513.0,-12104.0,1180.33,2.81538,-366.584,-1.18977,8895.98,19361.0,-3499.82,-28.0237,-109.189,-242.209,-25486.5,-7983.29,9567.4,4.19911,-19.3213,251.94,10910.4,16959.3,2488.37,-70.4351,4.926,47.9191,15761.3,-17113.4,6581.84,129.404,47.4487,15.0733,14781.4,-1109.25,-792.673,-71.6842,-23.123,-44.8108
3.095,3236.0,-7752.35,12980.4,-155.978,-525.783,-166.597,21122.1,-10140.9,2799.58,2.59351,-364.686,3.53382,8999.27,19372.9,-3619.36,-27.1225,-116.111,-243.205,-24503.9,-6741.65,8683.27,4.34667,-30.349,256.906,10691.0,16704.9,2857.92,-75.3763,10.9543,51.4999,15281.3,-15509.9,6808.83,133.877,47.4756,20.4807,14720.6,-832.099,-792.53,-80.4708,-25.1264,-41.8939
3.096,3114.2,-7779.38,12960.1,-160.988,-533.688,-170.959,20731.1,-8177.87,4418.83,2.37165,-362.788,8.25742,9102.56,19384.8,-3738.9,-26.2213,-123.033,-244.202,-23521.3,-5500.0,7799.14,4.49423,-41.3768,261.873,10471.7,16450.4,3227.48,-80.3174,16.9827,55.0808,14801.2,-13906.5,7035.81,138.349,47.5024,25.8881,14659.9,-554.943,-792.387,-89.2574,-27.1298,-38.977
3.097,2992.4,-7806.4,12939.7,-165.998,-541.593,-175.321,20340.1,-6214.83,6038.07,2.14978,-360.89,12.981,9205.85,19396.7,-3858.45,-25.3201,-129.954,-245.198,-22538.7,-4258.36,6915.01,4.64179,-52.4046,266.84,10252.4,16196.0,3597.04,-85.2585,23.011,58.6616,14321.1,-12303.0,7262.8,142.822,47.5293,31.2954,14599.1,-277.787,-792.244,-98.044,-29.1333,-36.0601
3.098,2857.18,-7843.86,12925.7,-170.871,-549.566,-179.555,19310.6,-4393.85,7647.37,2.44258,-357.977,18.7537,9329.81,19413.3,-3924.73,-24.5834,-137.351,-246.085,-21174.1,-3242.22,5871.74,5.17984,-62.0079,271.224,10033.8,15975.6,4104.36,-90.4271,27.3096,62.1363,13424.6,-10838.7,7346.22,143.818,45.6173,35.5789,14545.3,18.6435,-784.89,-106.029,-31.128,-33.3326
3.099,2674.98,-7917.83,12933.9,-175.265,-557.774,-183.341,16046.3,-3070.05,9221.83,4.53669,-351.507,28.1981,9526.14,19446.7,-3804.62,-24.4226,-146.408,-246.589,-18472.2,-3015.35,4271.5,7.0846,-66.6255,273.571,9817.53,15874.6,5093.83,-96.3915,25.5543,65.2397,11070.1,-9861.29,6927.16,132.648,36.9192,35.9286,14515.9,382.537,-752.299,-111.21,-33.0922,-31.2676
3.1,2492.78,-7991.81,12942.1,-179.659,-565.983,-187.127,12781.9,-1746.26,10796.3,6.6308,-345.038,37.6426,9722.48,19480.1,-3684.51,-24.2617,-155.465,-247.093,-15770.3,-2788.49,2671.26,8.98936,-71.2431,275.918,9601.31,15773.6,6083.3,-102.356,23.7989,68.343,8715.66,-8883.94,6508.1,121.477,28.2211,36.2783,14486.4,746.431,-719.708,-116.391,-35.0564,-29.2027
3.101,2310.57,-8065.78,12950.3,-184.053,-574.192,-190.913,9517.57,-422.47,12370.7,8.72492,-338.568,47.087,9918.81,19513.5,-3564.39,-24.1009,-164.522,-247.598,-13068.4,-2561.62,1071.01,10.8941,-75.8608,278.264,9385.08,15672.5,7072.78,-108.32,22.0436,71.4464,6361.21,-7906.58,6089.05,110.307,19.5229,36.628,14456.9,1110.32,-687.117,-121.572,-37.0206,-27.1377
3.102,2128.37,-8139.75,12958.5,-188.448,-582.4,-194.699,6253.22,901.322,13945.2,10.819,-332.099,56.5314,10115.1,19546.9,-3444.28,-23.9401,-173.58,-248.102,-10366.5,-2334.75,-529.231,12.7989,-80.4784,280.611,9168.86,15571.5,8062.25,-114.285,20.2883,74.5497,4006.76,-6929.23,5669.99,99.1369,10.8248,36.9778,14427.4,1474.22,-654.527,-126.753,-38.9849,-25.0728
3.103,1886.48,-8212.36,12975.5,-192.469,-591.379,-198.578,4795.57,-623.957,14522.6,12.3359,-319.479,62.9896,10407.1,19444.6,-3313.72,-23.9887,-183.541,-248.843,-7382.95,-2685.63,-1514.93,13.5587,-81.3061,274.383,9000.32,15302.7,9218.36,-117.552,9.82402,76.2153,1483.22,-5871.91,4579.29,77.1183,1.59863,33.4731,14460.4,1815.3,-550.325,-128.139,-40.8027,-23.8469
3.104,1627.54,-8284.59,12994.9,-196.384,-600.579,-202.485,3854.11,-2963.26,14815.2,13.6878,-305.102,68.5945,10726.5,19303.5,-3180.17,-24.0972,-193.761,-249.651,-4318.9,-3201.59,-2325.04,13.9914,-81.051,265.705,8845.41,14985.9,10422.1,-120.049,-3.1285,77.4701,-1088.63,-4791.76,3296.7,52.0002,-7.77842,28.8672,14511.3,2149.85,-425.663,-128.441,-42.5786,-22.8608
3.105,1368.59,-8356.82,13014.4,-200.299,-609.778,-206.392,2912.66,-5302.55,15107.8,15.0398,-290.724,74.1994,11045.8,19162.4,-3046.62,-24.2058,-203.981,-250.46,-1254.85,-3717.54,-3135.15,14.4241,-80.7958,257.027,8690.49,14669.1,11625.8,-122.546,-16.081,78.7249,-3660.49,-3711.6,2014.11,26.8821,-17.1555,24.2613,14562.1,2484.41,-301.001,-128.743,-44.3546,-21.8747
3.106,1109.65,-8429.04,13033.9,-204.213,-618.977,-210.298,1971.21,-7641.85,15400.4,16.3917,-276.347,79.8043,11365.2,19021.3,-2913.08,-24.3143,-214.201,-251.268,1809.2,-4233.49,-3945.27,14.8567,-80.5407,248.348,8535.58,14352.3,12829.5,-125.044,-29.0336,79.9797,-6232.34,-2631.45,731.512,1.76397,-26.5325,19.6554,14613.0,2818.97,-176.339,-129.046,-46.1305,-20.8886
3.107,867.899,-8458.4,12990.9,-207.609,-628.299,-214.304,1919.65,-8424.05,15598.8,16.8892,-256.422,85.3909,11662.0,18793.3,-2792.41,-24.6774,-224.135,-252.212,4388.91,-4584.64,-4402.88,15.0539,-78.8781,237.534,8264.6,14016.8,13661.0,-126.112,-43.6239,80.448,-8718.31,-1647.63,-428.522,-23.0736,-34.9838,15.491,14659.1,3091.84,69.6301,-128.075,-47.8905,-20.6894
3.108,660.53,-8402.02,12822.9,-209.965,-637.864,-218.509,3647.89,-6092.05,15609.1,15.6776,-225.402,90.941,11913.9,18391.5,-2697.48,-25.5497,-233.497,-253.425,5999.96,-4606.19,-4155.49,14.7801,-74.4005,222.446,7761.48,13643.9,13748.0,-124.322,-61.49,79.3436,-11032.5,-856.504,-1343.44,-47.35,-41.5833,12.2099,14696.0,3241.34,558.214,-124.557,-49.6186,-22.0642
3.109,453.16,-8345.63,12654.9,-212.322,-647.43,-222.714,5376.13,-3760.04,15619.4,14.4661,-194.382,96.491,12165.8,17989.7,-2602.56,-26.422,-242.86,-254.639,7611.0,-4627.75,-3908.11,14.5062,-69.9229,207.359,7258.35,13271.0,13835.1,-122.532,-79.3561,78.2391,-13346.7,-65.3752,-2258.35,-71.6264,-48.1829,8.9287,14732.8,3390.84,1046.8,-121.04,-51.3468,-23.439
3.11,245.791,-8289.25,12486.9,-214.678,-656.995,-226.919,7104.37,-1428.04,15629.7,13.2545,-163.362,102.041,12417.7,17587.9,-2507.63,-27.2943,-252.222,-255.852,9222.05,-4649.3,-3660.72,14.2324,-65.4453,192.271,6755.23,12898.1,13922.1,-120.742,-97.2221,77.1347,-15660.9,725.753,-3173.27,-95.9028,-54.7824,5.64753,14769.7,3540.35,1535.38,-117.523,-53.0749,-24.8138
3.111,38.4212,-8232.86,12318.9,-217.035,-666.56,-231.124,8832.61,903.965,15640.0,12.043,-132.342,107.591,12669.5,17186.1,-2412.71,-28.1666,-261.584,-257.065,10833.1,-4670.85,-3413.33,13.9585,-60.9677,177.184,6252.11,12525.2,14009.1,-118.952,-115.088,76.0303,-17975.2,1516.88,-4088.18,-120.179,-61.382,2.36637,14806.5,3689.85,2023.96,-114.005,-54.803,-26.1886
3.112,86.7845,-8038.96,11976.5,-219.765,-677.544,-235.504,14744.5,4032.31,15725.7,13.5441,-104.016,106.787,12898.1,16896.1,-2343.6,-28.6166,-268.789,-257.899,9699.14,-4550.15,-4231.45,10.1067,-50.5782,162.974,5427.33,12149.2,13352.1,-114.329,-129.515,73.8312,-19774.4,1519.74,-4251.93,-133.134,-67.2646,3.36282,14730.1,3773.47,2513.62,-109.623,-55.6692,-29.8469
3.113,167.114,-7827.86,11612.3,-222.541,-688.706,-239.905,21179.3,7260.19,15820.8,15.3843,-76.0258,105.188,13123.8,16620.0,-2277.72,-29.0137,-275.724,-258.686,8222.07,-4411.67,-5182.76,5.80755,-39.4498,148.873,4562.34,11772.8,12602.1,-109.352,-143.511,71.4953,-21509.2,1424.07,-4321.77,-144.673,-73.0576,4.89398,14639.6,3848.86,3003.41,-105.132,-56.4278,-33.7906
3.114,247.444,-7616.77,11248.1,-225.318,-699.868,-244.306,27614.1,10488.1,15915.9,17.2245,-48.0358,103.589,13349.4,16344.0,-2211.85,-29.4109,-282.659,-259.473,6744.99,-4273.19,-6134.07,1.50843,-28.3213,134.772,3697.35,11396.4,11852.2,-104.374,-157.507,69.1593,-23244.1,1328.39,-4391.62,-156.213,-78.8505,6.42513,14549.1,3924.24,3493.2,-100.641,-57.1863,-37.7344
3.115,327.774,-7405.67,10883.9,-228.094,-711.029,-248.707,34048.9,13716.0,16010.9,19.0647,-20.0458,101.99,13575.1,16067.9,-2145.97,-29.8081,-289.594,-260.259,5267.91,-4134.71,-7085.38,-2.79069,-17.1929,120.671,2832.36,11020.1,11102.2,-99.3966,-171.504,66.8234,-24979.0,1232.72,-4461.47,-167.752,-84.6435,7.95628,14458.6,3999.63,3982.99,-96.1506,-57.9448,-41.6781
3.116,620.812,-7010.06,10123.6,-233.124,-724.903,-254.823,37754.0,15507.5,15101.7,15.465,-7.08524,96.1914,13787.6,15755.0,-2103.68,-30.6808,-294.862,-261.143,3064.64,-4153.79,-7912.3,-9.05019,-5.05144,109.901,2015.82,10667.7,10065.3,-93.2808,-181.87,64.7854,-26081.5,750.883,-4366.16,-172.691,-88.2258,12.3718,14319.4,4109.63,4336.15,-91.5337,-57.7672,-46.3917
3.117,1179.74,-6383.8,8868.0,-240.971,-742.167,-263.082,38047.1,15503.6,12937.2,5.06543,-12.9114,85.1441,13983.7,15396.0,-2090.88,-32.1478,-298.046,-262.147,-46.3593,-4369.83,-8583.71,-17.7602,8.35626,103.295,1259.85,10345.5,8669.66,-85.7422,-187.699,63.1196,-26393.8,-213.657,-4064.4,-169.377,-89.0445,20.3927,14119.3,4262.9,4518.51,-86.7591,-56.4195,-52.0677
3.118,1738.66,-5757.53,7612.42,-248.818,-759.431,-271.341,38340.1,15499.7,10772.6,-5.33414,-18.7376,74.0967,14179.8,15036.9,-2078.09,-33.6148,-301.231,-263.15,-3157.36,-4585.86,-9255.12,-26.4702,21.764,96.6884,503.887,10023.2,7274.06,-78.2036,-193.528,61.4538,-26706.0,-1178.2,-3762.64,-166.063,-89.8633,28.4137,13919.3,4416.17,4700.88,-81.9846,-55.0717,-57.7437
3.119,2297.58,-5131.27,6356.85,-256.666,-776.695,-279.601,38633.1,15495.8,8608.07,-15.7337,-24.5638,63.0494,14376.0,14677.8,-2065.29,-35.0818,-304.416,-264.154,-6268.37,-4801.9,-9926.53,-35.1802,35.1716,90.082,-252.081,9700.91,5878.47,-70.665,-199.357,59.788,-27018.3,-2142.74,-3460.88,-162.75,-90.6821,36.4347,13719.2,4569.43,4883.24,-77.21,-53.724,-63.4197
3.12,2856.51,-4505.01,5101.28,-264.513,-793.959,-287.86,38926.2,15491.9,6443.51,-26.1333,-30.39,52.0021,14572.1,14318.8,-2052.49,-36.5489,-307.601,-265.158,-9379.37,-5017.94,-10597.9,-43.8901,48.5793,83.4757,-1008.05,9378.63,4482.87,-63.1264,-205.186,58.1223,-27330.5,-3107.28,-3159.12,-159.436,-91.5008,44.4556,13519.2,4722.7,5065.6,-72.4355,-52.3762,-69.0957
3.121,4072.36,-3258.11,3612.24,-273.512,-807.492,-297.73,34621.3,17117.9,3989.56,-26.6956,-35.15,45.8921,14628.6,14038.0,-2005.06,-38.9524,-304.983,-267.177,-10808.9,-5796.57,-9525.9,-48.226,51.9821,87.8987,-1458.29,9288.16,2826.74,-54.6401,-203.538,59.1474,-25759.1,-4628.94,-3718.95,-145.787,-78.4305,54.7027,13309.4,4976.16,5057.82,-67.8028,-50.1215,-74.2773
3.122,5288.22,-2011.21,2123.21,-282.511,-821.025,-307.6,30316.5,18743.9,1535.6,-27.258,-39.9101,39.7821,14685.0,13757.3,-1957.63,-41.356,-302.366,-269.197,-12238.3,-6575.19,-8453.86,-52.5619,55.3848,92.3217,-1908.53,9197.7,1170.62,-46.1538,-201.889,60.1725,-24187.8,-6150.6,-4278.79,-132.139,-65.3601,64.9498,13099.6,5229.61,5050.03,-63.1701,-47.8668,-79.4589
3.123,6504.08,-764.303,634.171,-291.51,-834.558,-317.47,26011.7,20369.9,-918.349,-27.8203,-44.6702,33.6722,14741.4,13476.6,-1910.2,-43.7595,-299.749,-271.216,-13667.8,-7353.82,-7381.81,-56.8978,58.7875,96.7447,-2358.78,9107.23,-485.502,-37.6675,-200.24,61.1976,-22616.5,-7672.26,-4838.62,-118.49,-52.2897,75.1969,12889.8,5483.07,5042.25,-58.5374,-45.6121,-84.6404
3.124,7719.94,482.599,-854.864,-300.51,-848.091,-327.34,21706.8,21995.9,-3372.3,-28.3827,-49.4303,27.5622,14797.9,13195.8,-1862.77,-46.1631,-297.131,-273.235,-15097.3,-8132.45,-6309.77,-61.2337,62.1902,101.168,-2809.02,9016.77,-2141.63,-29.1812,-198.591,62.2227,-21045.1,-9193.92,-5398.45,-104.842,-39.2193,85.444,12680.0,5736.53,5034.46,-53.9047,-43.3574,-89.822
3.125,9529.39,1530.23,-869.206,-309.843,-848.374,-328.813,19436.9,20165.6,-3712.91,-32.0542,-50.7672,17.6242,14554.7,12950.1,-1881.75,-50.07,-292.002,-276.33,-16111.3,-9194.06,-5206.97,-61.1841,63.5396,109.626,-3105.33,8927.53,-3296.44,-21.7169,-195.434,64.3725,-18972.4,-10494.5,-6038.3,-90.1152,-21.2208,94.0525,12469.2,6014.27,5085.46,-50.5215,-41.2939,-93.0824
3.126,11813.7,2418.43,296.206,-319.444,-838.058,-323.569,18794.9,15570.3,-2362.84,-38.213,-49.3656,4.62367,14071.8,12732.4,-1953.86,-55.1797,-284.862,-280.287,-16792.9,-10482.1,-4079.56,-57.6261,63.2462,121.312,-3278.5,8839.28,-4050.21,-15.0702,-191.071,67.422,-16498.4,-11618.1,-6742.16,-74.5258,0.720341,101.35,12257.5,6311.43,5183.49,-48.1378,-39.3835,-94.8058
3.127,14098.1,3306.64,1461.62,-329.045,-827.742,-318.324,18152.9,10975.0,-1012.77,-44.3719,-47.9641,-8.37682,13588.8,12514.7,-2025.96,-60.2893,-277.723,-284.244,-17474.4,-11770.1,-2952.16,-54.0682,62.9528,132.998,-3451.66,8751.03,-4803.99,-8.42358,-186.707,70.4715,-14024.5,-12741.8,-7446.03,-58.9364,22.6615,108.648,12045.9,6608.6,5281.51,-45.754,-37.4731,-96.5293
3.128,16382.4,4194.85,2627.03,-338.646,-817.425,-313.08,17510.9,6379.62,337.301,-50.5307,-46.5625,-21.3773,13105.9,12297.0,-2098.07,-65.3989,-270.584,-288.2,-18156.0,-13058.1,-1824.75,-50.5103,62.6594,144.684,-3624.83,8662.78,-5557.76,-1.77691,-182.344,73.521,-11550.6,-13865.4,-8149.89,-43.3469,44.6026,115.945,11834.3,6905.76,5379.54,-43.3703,-35.5627,-98.2527
3.129,18693.1,4767.82,3756.98,-349.53,-806.157,-307.592,16817.7,2344.71,1713.85,-55.9359,-45.0292,-32.3985,12626.2,12126.3,-2166.23,-70.6461,-263.86,-292.066,-18743.2,-14341.5,-849.341,-46.4478,63.3574,155.986,-3759.29,8613.08,-6131.63,4.07851,-178.544,76.7028,-9153.8,-14870.0,-8790.09,-28.164,65.7653,122.994,11612.2,7170.2,5477.87,-41.2986,-33.6468,-99.6591
3.13,21214.3,2818.94,4603.23,-370.676,-787.268,-300.161,15715.0,2793.25,3302.24,-55.311,-42.4421,-27.5851,12172.5,12331.8,-2202.86,-76.9931,-260.463,-295.208,-18575.5,-15588.4,-1089.87,-38.3487,71.987,164.215,-3584.14,8871.78,-5266.33,3.60398,-179.257,80.9428,-7373.67,-14922.6,-8921.0,-16.2331,80.7009,128.051,11306.7,7172.8,5578.68,-41.7225,-31.6871,-98.5298
3.131,23735.5,870.053,5449.48,-391.822,-768.38,-292.73,14612.2,3241.8,4890.62,-54.6862,-39.8549,-22.7717,11718.7,12537.4,-2239.49,-83.3401,-257.065,-298.349,-18407.8,-16835.4,-1330.39,-30.2496,80.6166,172.445,-3409.0,9130.47,-4401.04,3.12946,-179.97,85.1827,-5593.53,-14975.2,-9051.9,-4.30228,95.6365,133.108,11001.2,7175.41,5679.48,-42.1464,-29.7273,-97.4005
3.132,26256.7,-1078.83,6295.73,-412.968,-749.492,-285.299,13509.4,3690.34,6479.01,-54.0614,-37.2678,-17.9583,11265.0,12742.9,-2276.11,-89.6871,-253.668,-301.491,-18240.1,-18082.3,-1570.91,-22.1505,89.2462,180.675,-3233.85,9389.17,-3535.74,2.65494,-180.683,89.4227,-3813.4,-15027.7,-9182.8,7.62858,110.572,138.165,10695.6,7178.02,5780.28,-42.5702,-27.7675,-96.2712
3.133,28777.9,-3027.72,7141.98,-434.114,-730.604,-277.868,12406.6,4138.88,8067.39,-53.4366,-34.6807,-13.1449,10811.2,12948.5,-2312.74,-96.0342,-250.271,-304.632,-18072.3,-19329.2,-1811.44,-14.0515,97.8757,188.905,-3058.7,9647.86,-2670.44,2.18042,-181.396,93.6626,-2033.26,-15080.3,-9313.71,19.5594,125.508,143.221,10390.1,7180.63,5881.08,-42.9941,-25.8077,-95.1419
3.134,30295.4,-6955.3,7272.57,-444.383,-713.897,-279.377,11290.5,3088.02,9036.8,-50.169,-30.6653,-8.43505,10151.1,13577.4,-1693.66,-102.937,-249.054,-306.628,-16802.5,-20160.7,-2217.56,-8.04556,108.75,188.136,-2640.22,10101.7,-2265.79,-2.16001,-183.183,98.7178,-1175.58,-14740.2,-9257.45,27.5953,132.413,148.586,10098.0,7010.21,5765.08,-44.4164,-23.6347,-93.8278
3.135,31310.9,-11872.2,7045.33,-449.212,-698.28,-285.354,10167.8,1287.46,9696.73,-45.5799,-25.9357,-3.77701,9387.86,14418.1,-746.722,-110.118,-248.927,-308.052,-14981.7,-20784.5,-2706.48,-3.08625,120.746,182.867,-2100.08,10653.1,-2091.46,-8.4334,-185.507,104.181,-779.128,-14203.7,-9107.61,33.6838,135.304,154.104,9812.69,6753.28,5540.67,-46.3377,-21.355,-92.4212
3.136,32326.5,-16789.2,6818.09,-454.041,-682.664,-291.332,9045.03,-513.106,10356.7,-40.9909,-21.2062,0.881021,8624.6,15258.7,200.216,-117.298,-248.801,-309.476,-13160.9,-21408.3,-3195.41,1.87306,132.743,177.598,-1559.93,11204.5,-1917.14,-14.7068,-187.83,109.643,-382.674,-13667.3,-8957.78,39.7722,138.194,159.622,9527.34,6496.35,5316.27,-48.2591,-19.0753,-91.0147
3.137,33342.1,-21706.1,6590.85,-458.87,-667.047,-297.31,7922.29,-2313.67,11016.6,-36.4018,-16.4766,5.53905,7861.34,16099.4,1147.15,-124.479,-248.675,-310.899,-11340.1,-22032.0,-3684.33,6.83237,144.739,172.33,-1019.78,11756.0,-1742.81,-20.9802,-190.154,115.106,13.7804,-13130.8,-8807.94,45.8606,141.084,165.14,9241.99,6239.42,5091.86,-50.1805,-16.7957,-89.6081
3.138,34162.9,-26283.2,6130.37,-459.34,-652.301,-303.846,7127.14,-3863.36,11494.9,-32.4487,-12.183,9.5666,6983.5,17060.8,1772.18,-129.706,-246.837,-311.548,-9556.26,-22361.3,-3981.51,10.5337,154.748,165.79,-493.341,12261.9,-1754.25,-26.6149,-191.962,120.529,141.756,-12643.5,-8628.66,50.9827,142.368,170.759,8993.65,5974.77,4835.42,-51.7195,-14.3246,-88.1848
3.139,34301.8,-29670.7,4853.55,-444.552,-640.599,-312.335,7478.57,-4535.02,11337.6,-30.7215,-9.41551,11.3874,5704.63,18444.8,1270.54,-128.095,-239.008,-309.483,-7901.85,-21659.7,-3607.6,9.83217,157.802,154.801,-14.8754,12608.7,-2415.84,-30.0142,-191.965,125.814,-669.942,-12328.0,-8346.32,52.7225,138.029,176.734,8874.84,5683.06,4466.87,-51.9201,-11.1836,-86.7031
3.14,34440.7,-33058.2,3576.73,-429.763,-628.897,-320.825,7829.99,-5206.67,11180.4,-28.9943,-6.64798,13.2083,4425.75,19828.8,768.892,-126.484,-231.18,-307.418,-6247.43,-20958.2,-3233.7,9.13062,160.856,143.812,463.591,12955.5,-3077.44,-33.4136,-191.969,131.098,-1481.64,-12012.5,-8063.99,54.4623,133.69,182.708,8756.03,5391.36,4098.32,-52.1207,-8.04256,-85.2213
