Time,RFoot_accel.x,RFoot_accel.y,RFoot_accel.z,RFoot_gyro.x,RFoot_gyro.y,RFoot_gyro.z,LFoot_accel.x,LFoot_accel.y,LFoot_accel.z,LFoot_gyro.x,LFoot_gyro.y,LFoot_gyro.z,RShank_accel.x,RShank_accel.y,RShank_accel.z,RShank_gyro.x,RShank_gyro.y,RShank_gyro.z,LShank_accel.x,LShank_accel.y,LShank_accel.z,LShank_gyro.x,LShank_gyro.y,LShank_gyro.z,RThigh_accel.x,RThigh_accel.y,RThigh_accel.z,RThigh_gyro.x,RThigh_gyro.y,RThigh_gyro.z,LThigh_accel.x,LThigh_accel.y,LThigh_accel.z,LThigh_gyro.x,LThigh_gyro.y,LThigh_gyro.z,Pelvis_accel.x,Pelvis_accel.y,Pelvis_accel.z,Pelvis_gyro.x,Pelvis_gyro.y,Pelvis_gyro.z
5.01,3206.12,-2965.0,5777.26,-109.922,268.996,-13.6329,4569.67,2825.76,7922.16,-2.17188,-4.04177,-1.05717,1165.43,4755.1,76.2416,21.3646,14.0004,98.9531,-537.782,-9205.86,-2521.1,-15.2183,4.35707,46.3528,-4202.72,9721.22,861.803,67.932,71.7012,67.0309,-252.919,-9072.12,-1782.9,-23.332,-5.74927,50.998,8702.89,661.861,1719.78,-1.10592,-1.05012,20.6433
5.0105,3230.99,-3027.35,5779.04,-109.417,269.537,-12.1642,4598.13,2812.59,7953.56,-2.28464,-4.03811,-1.01118,1169.69,4774.58,78.9908,21.5434,14.9775,99.5341,-553.563,-9231.92,-2513.55,-15.1404,4.42748,46.3025,-4212.63,9688.02,858.708,67.3737,72.0241,67.4609,-302.335,-9087.28,-1780.01,-23.3451,-6.10833,50.9699,8722.78,646.115,1737.97,-1.65296,-1.06213,20.8581
5.011,3255.86,-3089.69,5780.81,-108.913,270.078,-10.6955,4626.6,2799.42,7984.96,-2.3974,-4.03446,-0.965185,1173.96,4794.06,81.7399,21.7222,15.9547,100.115,-569.344,-9257.98,-2505.99,-15.0625,4.49788,46.2522,-4222.54,9654.83,855.614,66.8155,72.347,67.8908,-351.75,-9102.43,-1777.11,-23.3581,-6.4674,50.9417,8742.67,630.37,1756.16,-2.20001,-1.07413,21.073
5.0115,3280.73,-3152.03,5782.59,-108.408,270.619,-9.22679,4655.06,2786.25,8016.36,-2.51016,-4.0308,-0.919191,1178.23,4813.55,84.489,21.9011,16.9319,100.696,-585.125,-9284.04,-2498.44,-14.9846,4.56829,46.2019,-4232.46,9621.63,852.52,66.2572,72.6699,68.3207,-401.166,-9117.58,-1774.22,-23.3711,-6.82647,50.9135,8762.57,614.625,1774.35,-2.74705,-1.08614,21.2878
5.012,3305.6,-3214.37,5784.36,-107.904,271.16,-7.7581,4683.53,2773.07,8047.76,-2.62292,-4.02715,-0.873198,1182.5,4833.03,87.2382,22.0799,17.9091,101.277,-600.907,-9310.11,-2490.88,-14.9067,4.63869,46.1516,-4242.37,9588.44,849.425,65.6989,72.9929,68.7507,-450.582,-9132.73,-1771.33,-23.3841,-7.18553,50.8853,8782.46,598.879,1792.54,-3.2941,-1.09814,21.5026
5.0125,3330.47,-3276.71,5786.14,-107.4,271.701,-6.28941,4711.99,2759.9,8079.15,-2.73568,-4.02349,-0.827204,1186.76,4852.51,89.9873,22.2588,18.8863,101.858,-616.688,-9336.17,-2483.33,-14.8288,4.7091,46.1012,-4252.28,9555.24,846.331,65.1406,73.3158,69.1806,-499.998,-9147.89,-1768.44,-23.3972,-7.5446,50.8571,8802.36,583.134,1810.73,-3.84114,-1.11015,21.7175
5.013,3355.34,-3339.06,5787.92,-106.895,272.242,-4.82073,4740.46,2746.73,8110.55,-2.84844,-4.01984,-0.781211,1191.03,4872.0,92.7365,22.4376,19.8635,102.439,-632.469,-9362.23,-2475.77,-14.7509,4.7795,46.0509,-4262.19,9522.04,843.237,64.5823,73.6387,69.6106,-549.414,-9163.04,-1765.55,-23.4102,-7.90367,50.8289,8822.25,567.388,1828.91,-4.38818,-1.12215,21.9323
5.0135,3379.82,-3387.56,5789.82,-106.275,272.81,-3.30005,4772.21,2733.98,8124.52,-2.94424,-3.97711,-0.718528,1213.9,4886.84,84.8677,22.6302,20.8793,103.041,-652.603,-9391.65,-2466.19,-14.6519,4.82163,45.9953,-4270.46,9491.21,843.178,64.028,74.0527,70.0597,-600.84,-9182.33,-1759.89,-23.4285,-8.24283,50.7971,8833.48,541.387,1843.57,-4.90589,-1.09063,22.1656
5.014,3403.51,-3408.38,5791.99,-105.425,273.433,-1.67541,4810.52,2722.08,8103.63,-3.00609,-3.85624,-0.622468,1273.97,4892.41,55.7631,22.8501,21.9722,103.688,-681.443,-9427.78,-2452.53,-14.5106,4.80719,45.9291,-4275.43,9465.11,849.19,63.4816,74.6488,70.5473,-656.289,-9209.9,-1748.72,-23.4575,-8.54218,50.7581,8827.35,494.875,1851.17,-5.36494,-0.972037,22.4355
5.0145,3427.21,-3429.21,5794.16,-104.575,274.055,-0.0507683,4848.84,2710.17,8082.74,-3.06795,-3.73536,-0.526407,1334.04,4897.98,26.6585,23.07,23.0652,104.334,-710.282,-9463.92,-2438.88,-14.3693,4.79275,45.863,-4280.41,9439.0,855.202,62.9352,75.2449,71.0348,-711.737,-9237.47,-1737.55,-23.4864,-8.84152,50.7191,8821.22,448.362,1858.77,-5.82399,-0.853448,22.7055
5.015,3450.9,-3450.03,5796.34,-103.725,274.677,1.57387,4887.16,2698.27,8061.85,-3.12981,-3.61449,-0.430347,1394.1,4903.56,-2.44616,23.2899,24.1582,104.98,-739.122,-9500.05,-2425.23,-14.228,4.77832,45.7968,-4285.39,9412.9,861.214,62.3888,75.841,71.5224,-767.186,-9265.04,-1726.37,-23.5154,-9.14087,50.68,8815.09,401.85,1866.37,-6.28304,-0.734859,22.9755
5.0155,3474.59,-3470.86,5798.51,-102.874,275.299,3.19852,4925.48,2686.37,8040.96,-3.19167,-3.49361,-0.334286,1454.17,4909.13,-31.5508,23.5098,25.2511,105.626,-767.961,-9536.18,-2411.57,-14.0867,4.76388,45.7306,-4290.36,9386.79,867.226,61.8425,76.4371,72.0099,-822.634,-9292.61,-1715.2,-23.5443,-9.44022,50.641,8808.97,355.337,1873.97,-6.74208,-0.61627,23.2455
5.016,3498.29,-3491.68,5800.68,-102.024,275.921,4.82316,4963.8,2674.46,8020.06,-3.25353,-3.37274,-0.238226,1514.24,4914.7,-60.6554,23.7297,26.3441,106.272,-796.801,-9572.31,-2397.92,-13.9454,4.74944,45.6645,-4295.34,9360.69,873.238,61.2961,77.0332,72.4975,-878.083,-9320.18,-1704.03,-23.5733,-9.73957,50.6019,8802.84,308.825,1881.57,-7.20113,-0.497682,23.5155
5.0165,3521.98,-3512.51,5802.85,-101.174,276.544,6.4478,5002.11,2662.56,7999.17,-3.31539,-3.25186,-0.142165,1574.31,4920.27,-89.76,23.9496,27.4371,106.919,-825.641,-9608.45,-2384.27,-13.8041,4.735,45.5983,-4300.31,9334.58,879.25,60.7497,77.6293,72.9851,-933.531,-9347.75,-1692.85,-23.6022,-10.0389,50.5629,8796.71,262.312,1889.17,-7.66018,-0.379093,23.7855
5.017,3545.68,-3533.33,5805.02,-100.323,277.166,8.07245,5040.43,2650.66,7978.28,-3.37725,-3.13099,-0.0461049,1634.38,4925.84,-118.865,24.1695,28.5301,107.565,-854.48,-9644.58,-2370.62,-13.6629,4.72057,45.5321,-4305.29,9308.47,885.262,60.2033,78.2254,73.4726,-988.98,-9375.32,-1681.68,-23.6312,-10.3383,50.5239,8790.59,215.799,1896.76,-8.11923,-0.260504,24.0555
5.0175,3569.37,-3554.15,5807.19,-99.473,277.788,9.69709,5078.75,2638.75,7957.39,-3.43911,-3.01011,0.0499556,1694.45,4931.41,-147.969,24.3894,29.623,108.211,-883.32,-9680.71,-2356.96,-13.5216,4.70613,45.4659,-4310.27,9282.37,891.274,59.6569,78.8215,73.9602,-1044.43,-9402.89,-1670.5,-23.6601,-10.6376,50.4848,8784.46,169.287,1904.36,-8.57827,-0.141915,24.3255
5.018,3592.1,-3573.68,5801.49,-98.5909,278.4,11.2761,5085.87,2622.25,7951.32,-3.44807,-2.90702,0.157312,1758.54,4931.04,-170.792,24.6117,30.7185,108.872,-909.504,-9705.75,-2335.76,-13.4294,4.6069,45.3896,-4316.21,9257.91,906.042,59.1145,79.591,74.4317,-1093.41,-9432.35,-1664.76,-23.6544,-10.9844,50.4279,8784.26,131.887,1911.43,-8.84133,0.00666477,24.5655
5.0185,3613.62,-3591.59,5785.95,-97.669,278.998,12.7979,5053.99,2600.0,7963.76,-3.3909,-2.82616,0.278788,1827.67,4923.25,-185.762,24.8371,31.8172,109.551,-932.367,-9716.94,-2305.11,-13.3985,4.40169,45.3004,-4323.36,9235.49,931.757,58.577,80.5771,74.8833,-1134.3,-9464.17,-1665.8,-23.6054,-11.3904,50.3485,8791.46,105.878,1917.84,-8.85941,0.192734,24.768
5.019,3635.15,-3609.5,5770.41,-96.7471,279.597,14.3198,5022.1,2577.75,7976.21,-3.33373,-2.74531,0.400264,1896.8,4915.45,-200.733,25.0624,32.9158,110.23,-955.231,-9728.12,-2274.46,-13.3677,4.19648,45.2113,-4330.52,9213.08,957.471,58.0396,81.5632,75.3348,-1175.19,-9496.0,-1666.84,-23.5565,-11.7965,50.2691,8798.66,79.8689,1924.26,-8.87748,0.378803,24.9705
5.0195,3656.67,-3627.41,5754.87,-95.8252,280.196,15.8417,4990.22,2555.49,7988.66,-3.27656,-2.66445,0.52174,1965.93,4907.66,-215.703,25.2877,34.0145,110.909,-978.095,-9739.3,-2243.81,-13.3368,3.99127,45.1222,-4337.67,9190.67,983.185,57.5021,82.5494,75.7864,-1216.08,-9527.82,-1667.89,-23.5075,-12.2025,50.1898,8805.86,53.8599,1930.67,-8.89555,0.564872,25.173
5.02,3678.19,-3645.32,5739.32,-94.9033,280.794,17.3635,4958.34,2533.24,8001.11,-3.21939,-2.58359,0.643216,2035.06,4899.87,-230.674,25.5131,35.1131,111.588,-1000.96,-9750.48,-2213.17,-13.306,3.78606,45.033,-4344.82,9168.25,1008.9,56.9646,83.5355,76.238,-1256.97,-9559.64,-1668.93,-23.4585,-12.6086,50.1104,8813.07,27.8509,1937.08,-8.91363,0.750941,25.3756
5.0205,3699.72,-3663.23,5723.78,-93.9814,281.393,18.8854,4926.45,2510.99,8013.55,-3.16222,-2.50273,0.764692,2104.19,4892.08,-245.644,25.7384,36.2118,112.267,-1023.82,-9761.66,-2182.52,-13.2751,3.58085,44.9439,-4351.97,9145.84,1034.61,56.4272,84.5217,76.6895,-1297.86,-9591.47,-1669.97,-23.4095,-13.0146,50.0311,8820.27,1.84184,1943.49,-8.9317,0.93701,25.5781
5.021,3721.24,-3681.14,5708.24,-93.0595,281.992,20.4073,4894.57,2488.74,8026.0,-3.10505,-2.42187,0.886169,2173.32,4884.28,-260.614,25.9638,37.3104,112.946,-1046.69,-9772.84,-2151.87,-13.2443,3.37564,44.8547,-4359.13,9123.43,1060.33,55.8897,85.5078,77.1411,-1338.75,-9623.29,-1671.01,-23.3605,-13.4207,49.9517,8827.47,-24.1672,1949.9,-8.94977,1.12308,25.7806
5.0215,3742.77,-3699.05,5692.7,-92.1376,282.59,21.9292,4862.69,2466.48,8038.45,-3.04789,-2.34101,1.00764,2242.45,4876.49,-275.585,26.1891,38.409,113.625,-1069.55,-9784.02,-2121.22,-13.2134,3.17043,44.7656,-4366.28,9101.02,1086.04,55.3522,86.4939,77.5926,-1379.64,-9655.12,-1672.05,-23.3116,-13.8267,49.8724,8834.67,-50.1762,1956.31,-8.96785,1.30915,25.9831
5.022,3764.29,-3716.96,5677.16,-91.2157,283.189,23.451,4830.8,2444.23,8050.9,-2.99072,-2.26015,1.12912,2311.57,4868.7,-290.555,26.4145,39.5077,114.304,-1092.41,-9795.2,-2090.57,-13.1825,2.96522,44.6765,-4373.43,9078.61,1111.76,54.8148,87.4801,78.0442,-1420.53,-9686.94,-1673.09,-23.2626,-14.2328,49.793,8841.88,-76.1853,1962.72,-8.98592,1.49522,26.1856
5.0225,3783.86,-3725.84,5658.22,-90.2939,283.831,24.8608,4800.41,2423.13,8069.45,-2.89005,-2.25821,1.11731,2361.78,4861.41,-303.697,26.6806,40.5571,114.997,-1129.93,-9799.86,-2057.74,-13.1916,2.67688,44.5864,-4379.99,9060.47,1141.34,54.2039,88.6136,78.4044,-1440.98,-9708.09,-1654.52,-23.2117,-14.6971,49.6856,8845.67,-111.782,1969.99,-8.87302,1.68493,26.3898
5.023,3801.87,-3727.5,5636.56,-89.3722,284.509,26.181,4771.2,2402.94,8092.89,-2.75459,-2.3194,0.998873,2396.85,4854.52,-315.375,26.9794,41.5671,115.703,-1179.17,-9799.29,-2023.15,-13.2325,2.32202,44.4956,-4386.08,9045.75,1174.02,53.5343,89.8651,78.6915,-1445.08,-9720.7,-1620.25,-23.1592,-15.2081,49.5558,8846.75,-155.048,1977.95,-8.65536,1.87756,26.5952
5.0235,3819.88,-3729.16,5614.91,-88.4505,285.186,27.5011,4742.0,2382.75,8116.33,-2.61914,-2.38058,0.880435,2431.92,4847.63,-327.054,27.2782,42.5772,116.409,-1228.41,-9798.72,-1988.55,-13.2734,1.96717,44.4047,-4392.17,9031.03,1206.7,52.8646,91.1166,78.9786,-1449.17,-9733.31,-1585.98,-23.1068,-15.7191,49.4259,8847.83,-198.314,1985.9,-8.43769,2.07018,26.8007
5.024,3837.89,-3730.81,5593.25,-87.5287,285.863,28.8213,4712.79,2362.56,8139.77,-2.48368,-2.44177,0.761997,2466.98,4840.74,-338.732,27.577,43.5872,117.114,-1277.65,-9798.15,-1953.96,-13.3144,1.61232,44.3139,-4398.26,9016.31,1239.39,52.195,92.3681,79.2657,-1453.26,-9745.92,-1551.72,-23.0543,-16.23,49.296,8848.91,-241.58,1993.86,-8.22002,2.26281,27.0061
5.0245,3855.9,-3732.47,5571.59,-86.607,286.541,30.1414,4683.59,2342.38,8163.21,-2.34822,-2.50296,0.643559,2502.05,4833.85,-350.41,27.8757,44.5972,117.82,-1326.88,-9797.58,-1919.37,-13.3553,1.25746,44.2231,-4404.35,9001.59,1272.07,51.5254,93.6196,79.5528,-1457.35,-9758.53,-1517.45,-23.0018,-16.741,49.1662,8849.98,-284.846,2001.82,-8.00235,2.45544,27.2116
5.025,3873.91,-3734.13,5549.94,-85.6853,287.218,31.4616,4654.38,2322.19,8186.65,-2.21276,-2.56415,0.525121,2537.12,4826.96,-362.089,28.1745,45.6073,118.525,-1376.12,-9797.02,-1884.78,-13.3962,0.902611,44.1323,-4410.44,8986.87,1304.75,50.8557,94.8711,79.84,-1461.45,-9771.14,-1483.18,-22.9494,-17.252,49.0363,8851.06,-328.112,2009.77,-7.78468,2.64806,27.417
5.0255,3891.92,-3735.79,5528.28,-84.7636,287.895,32.7817,4625.18,2302.0,8210.09,-2.0773,-2.62534,0.406683,2572.19,4820.08,-373.767,28.4733,46.6173,119.231,-1425.36,-9796.45,-1850.19,-13.4372,0.547758,44.0414,-4416.53,8972.15,1337.43,50.1861,96.1226,80.1271,-1465.54,-9783.75,-1448.91,-22.8969,-17.7629,48.9064,8852.14,-371.378,2017.73,-7.56701,2.84069,27.6225
5.026,3909.93,-3737.44,5506.63,-83.8419,288.573,34.1019,4595.97,2281.81,8233.54,-1.94184,-2.68652,0.288245,2607.25,4813.19,-385.445,28.7721,47.6273,119.937,-1474.6,-9795.88,-1815.6,-13.4781,0.192905,43.9506,-4422.62,8957.42,1370.11,49.5165,97.3741,80.4142,-1469.63,-9796.36,-1414.64,-22.8445,-18.2739,48.7766,8853.21,-414.644,2025.69,-7.34934,3.03332,27.8279
5.0265,3927.94,-3739.1,5484.97,-82.9201,289.25,35.422,4566.77,2261.63,8256.98,-1.80638,-2.74771,0.169807,2642.32,4806.3,-397.124,29.0709,48.6374,120.642,-1523.84,-9795.31,-1781.01,-13.519,-0.161947,43.8598,-4428.71,8942.71,1402.79,48.8468,98.6256,80.7013,-1473.73,-9808.97,-1380.37,-22.792,-18.7848,48.6467,8854.29,-457.91,2033.64,-7.13168,3.22595,28.0334
5.027,3938.83,-3729.55,5483.65,-82.0443,289.976,36.7358,4544.92,2236.53,8279.48,-1.64831,-2.88339,0.104,2655.71,4814.53,-408.119,29.3651,49.558,121.359,-1556.62,-9811.18,-1745.08,-13.556,-0.543244,43.7279,-4428.89,8936.61,1433.1,48.1052,100.008,81.0077,-1474.71,-9825.53,-1363.66,-22.7307,-19.3299,48.572,8859.0,-497.081,2031.4,-6.88605,3.44729,28.2333
5.0275,3946.15,-3714.39,5492.5,-81.1913,290.725,38.0463,4526.75,2208.98,8301.5,-1.47894,-3.05632,0.0645069,2658.25,4830.31,-418.774,29.657,50.434,122.081,-1581.18,-9835.28,-1708.47,-13.591,-0.937763,43.5755,-4426.12,8934.84,1462.22,47.3276,101.455,81.3238,-1474.14,-9844.05,-1355.73,-22.6649,-19.892,48.5249,8865.52,-534.203,2024.06,-6.62645,3.683,28.4305
5.028,3953.48,-3699.23,5501.34,-80.3383,291.475,39.3569,4508.58,2181.43,8323.53,-1.30957,-3.22924,0.0250142,2660.79,4846.1,-429.428,29.9489,51.31,122.804,-1605.74,-9859.37,-1671.87,-13.626,-1.33228,43.4231,-4423.36,8933.06,1491.33,46.55,102.903,81.6399,-1473.58,-9862.58,-1347.8,-22.599,-20.4541,48.4779,8872.05,-571.326,2016.72,-6.36684,3.91871,28.6276
5.0285,3960.8,-3684.08,5510.19,-79.4853,292.225,40.6674,4490.42,2153.88,8345.56,-1.1402,-3.40217,-0.0144785,2663.33,4861.88,-440.082,30.2407,52.186,123.526,-1630.3,-9883.46,-1635.27,-13.661,-1.7268,43.2707,-4420.59,8931.28,1520.45,45.7724,104.35,81.9561,-1473.01,-9881.1,-1339.87,-22.5332,-21.0162,48.4308,8878.57,-608.448,2009.38,-6.10724,4.15441,28.8248
5.029,3968.13,-3668.92,5519.04,-78.6324,292.974,41.978,4472.25,2126.33,8367.59,-0.970828,-3.57509,-0.0539712,2665.87,4877.66,-450.736,30.5326,53.062,124.249,-1654.86,-9907.56,-1598.67,-13.696,-2.12132,43.1183,-4417.82,8929.5,1549.57,44.9948,105.798,82.2722,-1472.44,-9899.63,-1331.94,-22.4674,-21.5782,48.3837,8885.1,-645.571,2002.04,-5.84763,4.39012,29.0219
5.0295,3975.45,-3653.76,5527.89,-77.7794,293.724,43.2885,4454.08,2098.77,8389.62,-0.801456,-3.74802,-0.0934639,2668.42,4893.45,-461.39,30.8245,53.938,124.971,-1679.42,-9931.65,-1562.06,-13.731,-2.51584,42.9659,-4415.05,8927.73,1578.69,44.2172,107.245,82.5883,-1471.87,-9918.15,-1324.0,-22.4016,-22.1403,48.3366,8891.62,-682.693,1994.7,-5.58803,4.62583,29.2191
5.03,3982.78,-3638.61,5536.73,-76.9264,294.474,44.5991,4435.92,2071.22,8411.65,-0.632084,-3.92094,-0.132957,2670.96,4909.23,-472.044,31.1164,54.814,125.693,-1703.98,-9955.74,-1525.46,-13.766,-2.91035,42.8135,-4412.28,8925.95,1607.81,43.4396,108.693,82.9044,-1471.3,-9936.68,-1316.07,-22.3358,-22.7024,48.2895,8898.14,-719.816,1987.36,-5.32842,4.86154,29.4162
5.0305,3990.1,-3623.45,5545.58,-76.0735,295.223,45.9096,4417.75,2043.67,8433.68,-0.462712,-4.09387,-0.172449,2673.5,4925.02,-482.698,31.4083,55.69,126.416,-1728.54,-9979.84,-1488.86,-13.801,-3.30487,42.6611,-4409.52,8924.17,1636.92,42.662,110.14,83.2205,-1470.73,-9955.21,-1308.14,-22.27,-23.2645,48.2425,8904.67,-756.938,1980.02,-5.06882,5.09724,29.6134
5.031,3997.43,-3608.3,5554.43,-75.2205,295.973,47.2202,4399.58,2016.12,8455.71,-0.293341,-4.2668,-0.211942,2676.04,4940.8,-493.352,31.7002,56.566,127.138,-1753.1,-10003.9,-1452.26,-13.836,-3.69939,42.5086,-4406.75,8922.39,1666.04,41.8844,111.588,83.5366,-1470.17,-9973.73,-1300.21,-22.2042,-23.8266,48.1954,8911.19,-794.061,1972.68,-4.80922,5.33295,29.8105
5.0315,3987.81,-3599.34,5568.42,-74.2379,296.541,48.3774,4406.07,2003.84,8457.21,-0.0787173,-4.4036,-0.32626,2666.15,4960.01,-494.33,31.9208,57.3819,127.871,-1776.07,-10016.7,-1430.8,-13.871,-4.27133,42.3993,-4398.38,8918.29,1689.86,41.0149,113.09,83.7965,-1452.3,-9986.14,-1284.54,-22.1672,-24.4305,48.0367,8922.78,-827.909,1975.41,-4.51997,5.56832,30.0092
5.032,3973.36,-3592.15,5583.88,-73.2184,297.056,49.4909,4419.6,1995.93,8452.84,0.148835,-4.53008,-0.461956,2652.7,4980.2,-492.544,32.121,58.1806,128.608,-1798.59,-10026.3,-1413.67,-13.906,-4.89396,42.3023,-4388.4,8913.52,1712.17,40.1191,114.608,84.0404,-1429.48,-9996.81,-1266.65,-22.1385,-25.0463,47.8461,8935.81,-860.822,1981.01,-4.22225,5.80358,30.2084
5.0325,3958.9,-3584.96,5599.34,-72.1988,297.572,50.6044,4433.13,1988.01,8448.47,0.376388,-4.65655,-0.597652,2639.25,5000.39,-490.758,32.3213,58.9794,129.344,-1821.11,-10035.9,-1396.53,-13.941,-5.51659,42.2053,-4378.43,8908.75,1734.47,39.2232,116.126,84.2842,-1406.67,-10007.5,-1248.77,-22.1098,-25.6622,47.6555,8948.85,-893.734,1986.62,-3.92453,6.03885,30.4075
5.033,3944.45,-3577.77,5614.8,-71.1792,298.088,51.7178,4446.67,1980.1,8444.1,0.60394,-4.78303,-0.733348,2625.81,5020.58,-488.971,32.5215,59.7781,130.08,-1843.63,-10045.5,-1379.4,-13.976,-6.13922,42.1083,-4368.45,8903.98,1756.78,38.3274,117.644,84.5281,-1383.85,-10018.1,-1230.89,-22.081,-26.278,47.465,8961.88,-926.647,1992.22,-3.62681,6.27412,30.6066
5.0335,3930.0,-3570.59,5630.27,-70.1596,298.603,52.8313,4460.2,1972.18,8439.73,0.831492,-4.90951,-0.869045,2612.36,5040.78,-487.185,32.7217,60.5769,130.817,-1866.15,-10055.1,-1362.27,-14.011,-6.76185,42.0113,-4358.48,8899.21,1779.08,37.4316,119.161,84.7719,-1361.04,-10028.8,-1213.0,-22.0523,-26.8939,47.2744,8974.91,-959.56,1997.83,-3.32909,6.50939,30.8058
5.034,3915.54,-3563.4,5645.73,-69.14,299.119,53.9447,4473.73,1964.26,8435.36,1.05904,-5.03599,-1.00474,2598.91,5060.97,-485.398,32.9219,61.3756,131.553,-1888.67,-10064.7,-1345.14,-14.046,-7.38448,41.9143,-4348.51,8894.43,1801.38,36.5358,120.679,85.0158,-1338.23,-10039.5,-1195.12,-22.0236,-27.5097,47.0838,8987.94,-992.473,2003.43,-3.03137,6.74466,31.0049
5.0345,3901.09,-3556.21,5661.19,-68.1204,299.634,55.0582,4487.26,1956.35,8430.99,1.2866,-5.16247,-1.14044,2585.47,5081.16,-483.612,33.1222,62.1744,132.289,-1911.19,-10074.3,-1328.0,-14.081,-8.00711,41.8173,-4338.53,8889.66,1823.69,35.6399,122.197,85.2596,-1315.41,-10050.1,-1177.24,-21.9948,-28.1256,46.8932,9000.98,-1025.39,2009.04,-2.73365,6.97993,31.204
5.035,3886.63,-3549.02,5676.65,-67.1009,300.15,56.1716,4500.79,1948.43,8426.62,1.51415,-5.28895,-1.27613,2572.02,5101.35,-481.826,33.3224,62.9731,133.026,-1933.71,-10083.9,-1310.87,-14.116,-8.62974,41.7204,-4328.56,8884.89,1845.99,34.7441,123.715,85.5035,-1292.6,-10060.8,-1159.35,-21.9661,-28.7414,46.7026,9014.01,-1058.3,2014.64,-2.43593,7.2152,31.4032
5.0355,3872.18,-3541.84,5692.11,-66.0813,300.666,57.2851,4514.33,1940.52,8422.25,1.7417,-5.41543,-1.41183,2558.57,5121.54,-480.039,33.5226,63.7719,133.762,-1956.23,-10093.5,-1293.74,-14.151,-9.25237,41.6234,-4318.58,8880.12,1868.3,33.8483,125.233,85.7473,-1269.79,-10071.5,-1141.47,-21.9374,-29.3573,46.5121,9027.04,-1091.21,2020.25,-2.13821,7.45046,31.6023
5.036,3841.33,-3519.68,5665.34,-65.2434,301.146,58.3855,4525.38,1938.27,8429.01,2.04142,-5.44182,-1.47002,2531.8,5152.01,-466.136,33.5825,64.4304,134.515,-1953.13,-10097.4,-1282.25,-14.1912,-9.7657,41.4652,-4304.9,8868.32,1890.06,32.9801,126.59,85.9835,-1251.26,-10084.9,-1138.27,-21.8633,-30.0335,46.4296,9021.96,-1117.16,2004.6,-1.77883,7.76565,31.7514
5.0365,3808.43,-3495.65,5633.28,-64.4283,301.622,59.4842,4536.12,1936.74,8437.15,2.35016,-5.45569,-1.51852,2503.37,5183.76,-450.718,33.6247,65.0714,135.27,-1946.83,-10100.6,-1271.48,-14.2321,-10.2654,41.2993,-4290.75,8855.65,1911.74,32.1153,127.927,86.2188,-1233.26,-10098.7,-1136.9,-21.7835,-30.7173,46.3606,9014.61,-1142.23,1986.3,-1.41175,8.09082,31.8943
5.037,3775.53,-3471.62,5601.23,-63.6131,302.097,60.583,4546.86,1935.2,8445.3,2.6589,-5.46957,-1.56701,2474.93,5215.51,-435.3,33.667,65.7124,136.025,-1940.53,-10103.7,-1260.7,-14.273,-10.765,41.1335,-4276.59,8842.97,1933.43,31.2506,129.264,86.454,-1215.27,-10112.5,-1135.54,-21.7038,-31.4011,46.2917,9007.26,-1167.31,1968.0,-1.04466,8.41599,32.0371
5.0375,3742.63,-3447.6,5569.17,-62.798,302.573,61.6817,4557.6,1933.67,8453.45,2.96763,-5.48344,-1.61551,2446.49,5247.26,-419.882,33.7093,66.3534,136.78,-1934.24,-10106.9,-1249.92,-14.3138,-11.2647,40.9676,-4262.44,8830.29,1955.12,30.3858,130.6,86.6893,-1197.28,-10126.3,-1134.17,-21.624,-32.0849,46.2227,8999.91,-1192.38,1949.7,-0.677579,8.74116,32.1799
5.038,3709.72,-3423.57,5537.12,-61.9828,303.049,62.7805,4568.35,1932.13,8461.59,3.27637,-5.49732,-1.66401,2418.06,5279.01,-404.464,33.7516,66.9944,137.536,-1927.94,-10110.1,-1239.14,-14.3547,-11.7644,40.8018,-4248.29,8817.61,1976.81,29.5211,131.937,86.9246,-1179.28,-10140.1,-1132.81,-21.5443,-32.7687,46.1537,8992.56,-1217.45,1931.4,-0.310494,9.06633,32.3228
5.0385,3676.82,-3399.54,5505.06,-61.1677,303.525,63.8792,4579.09,1930.6,8469.74,3.58511,-5.51119,-1.71251,2389.62,5310.76,-389.047,33.7939,67.6354,138.291,-1921.64,-10113.2,-1228.36,-14.3956,-12.264,40.636,-4234.14,8804.94,1998.5,28.6564,133.274,87.1598,-1161.29,-10153.9,-1131.45,-21.4645,-33.4525,46.0848,8985.22,-1242.53,1913.1,0.0565914,9.3915,32.4656
5.039,3643.92,-3375.51,5473.01,-60.3525,304.001,64.978,4589.83,1929.06,8477.89,3.89385,-5.52507,-1.76101,2361.19,5342.51,-373.629,33.8362,68.2764,139.046,-1915.34,-10116.4,-1217.58,-14.4364,-12.7637,40.4701,-4219.99,8792.26,2020.18,27.7916,134.611,87.3951,-1143.29,-10167.8,-1130.08,-21.3848,-34.1363,46.0158,8977.87,-1267.6,1894.8,0.423677,9.71667,32.6084
5.0395,3611.02,-3351.49,5440.95,-59.5374,304.477,66.0767,4600.57,1927.53,8486.03,4.20259,-5.53895,-1.80951,2332.75,5374.26,-358.211,33.8785,68.9174,139.801,-1909.04,-10119.5,-1206.8,-14.4773,-13.2634,40.3043,-4205.84,8779.58,2041.87,26.9269,135.948,87.6303,-1125.3,-10181.6,-1128.72,-21.305,-34.8201,45.9468,8970.52,-1292.68,1876.5,0.790762,10.0418,32.7513
5.04,3578.12,-3327.46,5408.9,-58.7222,304.952,67.1755,4611.31,1925.99,8494.18,4.51132,-5.55282,-1.85801,2304.32,5406.01,-342.793,33.9208,69.5584,140.556,-1902.74,-10122.7,-1196.02,-14.5182,-13.7631,40.1385,-4191.69,8766.9,2063.56,26.0621,137.285,87.8656,-1107.31,-10195.4,-1127.35,-21.2252,-35.5039,45.8779,8963.17,-1317.75,1858.2,1.15785,10.367,32.8941
5.0405,3510.31,-3293.21,5393.27,-58.2023,305.32,68.3436,4634.65,1909.9,8472.07,4.8607,-5.67002,-1.83095,2293.91,5442.23,-323.419,33.8745,70.1206,141.308,-1900.19,-10114.1,-1210.22,-14.578,-14.1186,40.0447,-4183.77,8746.55,2066.39,25.397,138.387,88.1138,-1082.53,-10203.0,-1121.56,-21.1708,-36.1027,45.7944,8957.85,-1345.44,1862.78,1.46817,10.6455,32.9549
5.041,3442.51,-3258.96,5377.64,-57.6824,305.687,69.5117,4657.98,1893.81,8449.97,5.21007,-5.78722,-1.80389,2283.51,5478.45,-304.045,33.8282,70.6828,142.06,-1897.65,-10105.6,-1224.43,-14.6378,-14.4741,39.9509,-4175.86,8726.2,2069.23,24.732,139.489,88.3619,-1057.75,-10210.7,-1115.78,-21.1164,-36.7015,45.711,8952.53,-1373.14,1867.36,1.77849,10.9241,33.0157
5.0415,3374.7,-3224.72,5362.02,-57.1625,306.055,70.6799,4681.32,1877.72,8427.86,5.55945,-5.90441,-1.77683,2273.11,5514.67,-284.671,33.782,71.2451,142.812,-1895.11,-10097.0,-1238.63,-14.6976,-14.8297,39.8571,-4167.95,8705.85,2072.06,24.0669,140.591,88.6101,-1032.97,-10218.4,-1109.99,-21.0619,-37.3002,45.6275,8947.21,-1400.83,1871.94,2.08881,11.2026,33.0765
5.042,3306.89,-3190.47,5346.39,-56.6427,306.422,71.848,4704.65,1861.63,8405.75,5.90882,-6.02161,-1.74977,2262.71,5550.9,-265.296,33.7357,71.8073,143.564,-1892.56,-10088.4,-1252.83,-14.7573,-15.1852,39.7634,-4160.03,8685.5,2074.89,23.4018,141.693,88.8582,-1008.19,-10226.1,-1104.21,-21.0075,-37.899,45.544,8941.9,-1428.52,1876.53,2.39913,11.4811,33.1373
5.0425,3239.09,-3156.22,5330.76,-56.1228,306.79,73.0161,4727.98,1845.53,8383.65,6.25819,-6.13881,-1.72271,2252.3,5587.12,-245.922,33.6894,72.3695,144.316,-1890.02,-10079.9,-1267.03,-14.8171,-15.5407,39.6696,-4152.12,8665.14,2077.73,22.7367,142.795,89.1064,-983.411,-10233.8,-1098.42,-20.9531,-38.4978,45.4606,8936.58,-1456.21,1881.11,2.70946,11.7597,33.1981
5.043,3171.28,-3121.97,5315.13,-55.6029,307.157,74.1842,4751.32,1829.44,8361.54,6.60757,-6.25601,-1.69565,2241.9,5623.34,-226.548,33.6432,72.9317,145.068,-1887.47,-10071.3,-1281.23,-14.8769,-15.8963,39.5758,-4144.21,8644.79,2080.56,22.0716,143.897,89.3545,-958.632,-10241.5,-1092.63,-20.8986,-39.0965,45.3771,8931.26,-1483.9,1885.69,3.01978,12.0382,33.2589
5.0435,3103.47,-3087.73,5299.5,-55.083,307.525,75.3524,4774.65,1813.35,8339.44,6.95694,-6.3732,-1.66859,2231.5,5659.56,-207.174,33.5969,73.4939,145.82,-1884.93,-10062.7,-1295.43,-14.9367,-16.2518,39.482,-4136.3,8624.44,2083.39,21.4065,144.999,89.6027,-933.852,-10249.1,-1086.85,-20.8442,-39.6953,45.2937,8925.94,-1511.59,1890.27,3.3301,12.3167,33.3197
5.044,3035.67,-3053.48,5283.88,-54.5631,307.892,76.5205,4797.99,1797.26,8317.33,7.30632,-6.4904,-1.64153,2221.1,5695.78,-187.8,33.5506,74.0562,146.572,-1882.38,-10054.1,-1309.64,-14.9965,-16.6073,39.3883,-4128.38,8604.09,2086.23,20.7414,146.101,89.8509,-909.073,-10256.8,-1081.06,-20.7898,-40.2941,45.2102,8920.62,-1539.29,1894.85,3.64042,12.5953,33.3805
5.0445,2969.02,-3020.65,5273.19,-54.0483,308.205,77.6962,4821.23,1783.78,8295.98,7.62843,-6.60089,-1.61986,2210.86,5730.67,-169.583,33.5105,74.6247,147.319,-1881.02,-10045.3,-1323.39,-15.0549,-16.9525,39.2973,-4121.48,8582.79,2087.25,20.1022,147.163,90.0881,-884.563,-10262.0,-1077.29,-20.7232,-40.8716,45.1368,8914.73,-1566.43,1897.27,3.95715,12.8685,33.4382
5.045,2911.63,-2999.13,5302.0,-53.5742,308.081,78.9329,4843.79,1791.27,8280.65,7.73246,-6.65772,-1.64129,2202.01,5754.88,-160.628,33.5198,75.2444,148.026,-1889.06,-10034.6,-1333.56,-15.1022,-17.2151,39.2292,-4122.67,8553.87,2073.78,19.6699,147.902,90.2378,-862.209,-10247.2,-1089.67,-20.5597,-41.2794,45.1433,8904.23,-1589.17,1882.42,4.32519,13.0992,33.4713
5.0455,2854.25,-2977.6,5330.81,-53.1001,307.957,80.1695,4866.34,1798.75,8265.32,7.83649,-6.71455,-1.66272,2193.15,5779.09,-151.674,33.529,75.864,148.734,-1897.11,-10023.9,-1343.74,-15.1494,-17.4778,39.161,-4123.85,8524.95,2060.32,19.2376,148.642,90.3875,-839.854,-10232.3,-1102.05,-20.3961,-41.6872,45.1498,8893.74,-1611.91,1867.56,4.69322,13.3298,33.5043
5.046,2796.86,-2956.08,5359.63,-52.6259,307.832,81.4062,4888.89,1806.23,8249.98,7.94052,-6.77138,-1.68415,2184.3,5803.3,-142.719,33.5383,76.4836,149.441,-1905.16,-10013.2,-1353.91,-15.1967,-17.7404,39.0929,-4125.04,8496.04,2046.85,18.8053,149.381,90.5372,-817.499,-10217.5,-1114.43,-20.2326,-42.095,45.1564,8883.25,-1634.65,1852.71,5.06126,13.5605,33.5373
5.0465,2739.48,-2934.57,5388.44,-52.1518,307.708,82.6429,4911.44,1813.71,8234.65,8.04455,-6.82821,-1.70558,2175.44,5827.51,-133.764,33.5475,77.1033,150.149,-1913.21,-10002.5,-1364.09,-15.2439,-18.003,39.0247,-4126.22,8467.12,2033.39,18.373,150.121,90.6869,-795.145,-10202.7,-1126.81,-20.0691,-42.5027,45.1629,8872.75,-1657.39,1837.85,5.42929,13.7912,33.5704
5.047,2682.09,-2913.04,5417.25,-51.6777,307.584,83.8795,4934.0,1821.2,8219.32,8.14858,-6.88504,-1.72701,2166.59,5851.73,-124.809,33.5568,77.7229,150.856,-1921.26,-9991.76,-1374.26,-15.2912,-18.2656,38.9565,-4127.41,8438.2,2019.92,17.9407,150.86,90.8366,-772.79,-10187.9,-1139.19,-19.9055,-42.9105,45.1694,8862.26,-1680.13,1823.0,5.79733,14.0219,33.6034
5.0475,2624.71,-2891.53,5446.07,-51.2036,307.459,85.1162,4956.55,1828.68,8203.99,8.25261,-6.94187,-1.74844,2157.73,5875.94,-115.854,33.5661,78.3425,151.564,-1929.31,-9981.04,-1384.44,-15.3385,-18.5282,38.8884,-4128.59,8409.29,2006.46,17.5084,151.6,90.9863,-750.436,-10173.1,-1151.57,-19.742,-43.3183,45.1759,8851.76,-1702.87,1808.15,6.16536,14.2526,33.6365
5.048,2567.32,-2870.01,5474.88,-50.7294,307.335,86.3528,4979.1,1836.16,8188.66,8.35664,-6.9987,-1.76987,2148.87,5900.15,-106.899,33.5753,78.9622,152.271,-1937.36,-9970.32,-1394.61,-15.3857,-18.7908,38.8202,-4129.78,8380.37,1992.99,17.0761,152.339,91.136,-728.081,-10158.2,-1163.95,-19.5784,-43.7261,45.1825,8841.27,-1725.6,1793.29,6.53339,14.4833,33.6695
5.0485,2509.94,-2848.49,5503.69,-50.2553,307.211,87.5895,5001.65,1843.64,8173.33,8.46066,-7.05553,-1.7913,2140.02,5924.36,-97.9445,33.5846,79.5818,152.979,-1945.41,-9959.61,-1404.79,-15.433,-19.0534,38.752,-4130.96,8351.45,1979.53,16.6438,153.079,91.2857,-705.726,-10143.4,-1176.33,-19.4149,-44.1339,45.189,8830.78,-1748.34,1778.44,6.90143,14.7139,33.7026
5.049,2453.27,-2821.33,5529.05,-49.809,307.057,88.8198,5021.19,1848.91,8160.68,8.56269,-7.08814,-1.8239,2133.27,5946.18,-93.2023,33.6115,80.2137,153.695,-1945.29,-9950.26,-1414.13,-15.4753,-19.2964,38.6732,-4132.19,8321.95,1966.39,16.2567,153.672,91.4352,-682.535,-10129.4,-1190.74,-19.2558,-44.5073,45.2069,8822.41,-1768.79,1766.56,7.23797,14.9494,33.7133
5.0495,2399.1,-2774.47,5542.29,-49.46,306.8,90.0281,5030.14,1846.4,8157.41,8.65773,-7.03601,-1.89562,2133.89,5959.63,-103.204,33.7003,80.8885,154.44,-1916.62,-9945.69,-1420.59,-15.5005,-19.4708,38.557,-4133.57,8290.41,1954.41,16.0279,153.753,91.5841,-656.413,-10118.1,-1212.25,-19.112,-44.7605,45.2645,8821.46,-1781.2,1765.09,7.46431,15.2018,33.6462
5.05,2344.93,-2727.61,5555.53,-49.1109,306.542,91.2364,5039.1,1843.9,8154.13,8.75276,-6.98387,-1.96733,2134.51,5973.08,-113.206,33.7891,81.5632,155.185,-1887.95,-9941.13,-1427.04,-15.5256,-19.6452,38.4407,-4134.95,8258.87,1942.43,15.7992,153.833,91.7329,-630.292,-10106.9,-1233.76,-18.9683,-45.0137,45.3221,8820.51,-1793.6,1763.62,7.69064,15.4541,33.579
5.0505,2290.77,-2680.75,5568.77,-48.7619,306.285,92.4447,5048.05,1841.39,8150.86,8.8478,-6.93174,-2.03905,2135.13,5986.53,-123.208,33.8779,82.238,155.93,-1859.28,-9936.56,-1433.49,-15.5507,-19.8196,38.3245,-4136.34,8227.33,1930.45,15.5704,153.914,91.8817,-604.171,-10095.6,-1255.26,-18.8245,-45.2669,45.3797,8819.56,-1806.01,1762.15,7.91698,15.7064,33.5118
5.051,2236.6,-2633.89,5582.01,-48.4129,306.028,93.653,5057.01,1838.89,8147.59,8.94283,-6.8796,-2.11076,2135.75,5999.97,-133.209,33.9667,82.9128,156.675,-1830.61,-9932.0,-1439.94,-15.5759,-19.994,38.2083,-4137.72,8195.79,1918.47,15.3417,153.995,92.0305,-578.05,-10084.4,-1276.77,-18.6808,-45.5201,45.4373,8818.62,-1818.42,1760.68,8.14331,15.9587,33.4447
5.0515,2182.43,-2587.03,5595.25,-48.0638,305.77,94.8614,5065.97,1836.38,8144.32,9.03787,-6.82746,-2.18248,2136.37,6013.42,-143.211,34.0555,83.5876,157.42,-1801.94,-9927.43,-1446.39,-15.601,-20.1684,38.092,-4139.1,8164.25,1906.5,15.1129,154.076,92.1793,-551.928,-10073.1,-1298.28,-18.537,-45.7733,45.4949,8817.67,-1830.83,1759.21,8.36965,16.2111,33.3775
5.052,2128.27,-2540.17,5608.49,-47.7148,305.513,96.0696,5074.92,1833.88,8141.04,9.1329,-6.77533,-2.25419,2136.99,6026.87,-153.213,34.1443,84.2624,158.165,-1773.27,-9922.87,-1452.85,-15.6262,-20.3428,37.9758,-4140.48,8132.71,1894.52,14.8842,154.157,92.3281,-525.807,-10061.9,-1319.78,-18.3932,-46.0264,45.5524,8816.72,-1843.24,1757.74,8.59598,16.4634,33.3104
5.0525,2074.1,-2493.3,5621.73,-47.3657,305.256,97.278,5083.88,1831.37,8137.77,9.22794,-6.72319,-2.32591,2137.61,6040.32,-163.215,34.2331,84.9372,158.91,-1744.6,-9918.3,-1459.3,-15.6513,-20.5172,37.8596,-4141.87,8101.17,1882.54,14.6554,154.237,92.4769,-499.686,-10050.6,-1341.29,-18.2495,-46.2796,45.61,8815.77,-1855.64,1756.26,8.82231,16.7157,33.2432
5.053,2019.93,-2446.44,5634.97,-47.0167,304.998,98.4863,5092.83,1828.87,8134.5,9.32297,-6.67106,-2.39762,2138.23,6053.76,-173.217,34.3219,85.612,159.655,-1715.93,-9913.74,-1465.75,-15.6765,-20.6916,37.7434,-4143.25,8069.63,1870.56,14.4267,154.318,92.6258,-473.565,-10039.4,-1362.8,-18.1057,-46.5328,45.6676,8814.82,-1868.05,1754.79,9.04865,16.9681,33.176
5.0535,1973.73,-2398.97,5651.7,-46.8094,304.602,99.6529,5082.58,1835.06,8132.09,9.40595,-6.66419,-2.46236,2142.67,6072.19,-184.953,34.4171,86.2797,160.392,-1689.5,-9909.53,-1475.02,-15.6889,-20.8315,37.6262,-4143.2,8042.2,1856.52,14.2762,154.234,92.799,-445.628,-10025.4,-1377.76,-17.9884,-46.7389,45.7455,8815.19,-1874.64,1753.01,9.33269,17.1902,33.0756
5.054,1943.44,-2350.28,5675.4,-46.8855,303.926,100.736,5033.9,1858.66,8131.41,9.46481,-6.74787,-2.51314,2154.73,6100.59,-200.16,34.5253,86.9332,161.114,-1667.55,-9906.04,-1489.94,-15.6759,-20.9025,37.5074,-4140.27,8023.01,1838.38,14.2822,153.821,93.0212,-414.061,-10005.8,-1379.65,-17.9241,-46.8509,45.8638,8818.18,-1869.58,1750.61,9.73215,17.3518,32.9085
5.0545,1913.15,-2301.58,5699.1,-46.9616,303.25,101.819,4985.21,1882.25,8130.73,9.52366,-6.83155,-2.56391,2166.79,6128.98,-215.367,34.6335,87.5867,161.836,-1645.6,-9902.56,-1504.86,-15.663,-20.9735,37.3885,-4137.34,8003.81,1820.24,14.2882,153.407,93.2434,-382.494,-9986.15,-1381.53,-17.8597,-46.9628,45.9822,8821.18,-1864.52,1748.21,10.1316,17.5134,32.7413
5.055,1882.86,-2252.89,5722.8,-47.0377,302.574,102.902,4936.53,1905.84,8130.05,9.58252,-6.91523,-2.61469,2178.86,6157.37,-230.574,34.7417,88.2402,162.558,-1623.65,-9899.07,-1519.78,-15.65,-21.0445,37.2696,-4134.41,7984.62,1802.1,14.2942,152.994,93.4655,-350.927,-9966.55,-1383.41,-17.7953,-47.0748,46.1005,8824.17,-1859.45,1745.8,10.5311,17.6751,32.5742
5.0555,1852.57,-2204.19,5746.49,-47.1138,301.898,103.986,4887.85,1929.44,8129.37,9.64138,-6.99891,-2.66547,2190.92,6185.77,-245.781,34.8498,88.8937,163.281,-1601.7,-9895.58,-1534.7,-15.637,-21.1154,37.1507,-4131.48,7965.43,1783.96,14.3002,152.58,93.6877,-319.36,-9946.94,-1385.3,-17.7309,-47.1867,46.2188,8827.16,-1854.39,1743.4,10.9305,17.8367,32.4071
5.056,1822.28,-2155.5,5770.19,-47.1899,301.222,105.069,4839.17,1953.03,8128.7,9.70024,-7.08259,-2.71625,2202.98,6214.16,-260.987,34.958,89.5472,164.003,-1579.75,-9892.09,-1549.62,-15.6241,-21.1864,37.0318,-4128.55,7946.23,1765.82,14.3062,152.166,93.9099,-287.793,-9927.34,-1387.18,-17.6665,-47.2986,46.3372,8830.15,-1849.33,1741.0,11.33,17.9984,32.24
5.0565,1791.99,-2106.8,5793.89,-47.266,300.546,106.152,4790.49,1976.62,8128.02,9.75909,-7.16627,-2.76703,2215.05,6242.56,-276.194,35.0662,90.2007,164.725,-1557.8,-9888.61,-1564.54,-15.6111,-21.2574,36.9129,-4125.63,7927.04,1747.68,14.3123,151.753,94.132,-256.226,-9907.73,-1389.07,-17.6021,-47.4106,46.4555,8833.15,-1844.27,1738.59,11.7295,18.16,32.0729
5.057,1761.7,-2058.11,5817.59,-47.3421,299.87,107.235,4741.81,2000.22,8127.34,9.81795,-7.24995,-2.81781,2227.11,6270.95,-291.401,35.1743,90.8542,165.447,-1535.85,-9885.12,-1579.46,-15.5981,-21.3284,36.794,-4122.7,7907.85,1729.54,14.3183,151.339,94.3542,-224.659,-9888.13,-1390.95,-17.5377,-47.5225,46.5739,8836.14,-1839.21,1736.19,12.1289,18.3217,31.9057
5.0575,1731.41,-2009.42,5841.29,-47.4182,299.194,108.318,4693.12,2023.81,8126.66,9.87681,-7.33363,-2.86859,2239.17,6299.34,-306.608,35.2825,91.5077,166.169,-1513.9,-9881.63,-1594.38,-15.5852,-21.3993,36.6752,-4119.77,7888.65,1711.4,14.3243,150.926,94.5764,-193.092,-9868.52,-1392.84,-17.4733,-47.6345,46.6922,8839.13,-1834.15,1733.79,12.5284,18.4833,31.7386
5.058,1724.25,-1964.48,5851.91,-47.5059,298.558,109.323,4660.72,2049.85,8122.24,9.95406,-7.40042,-2.90126,2243.35,6330.65,-319.186,35.4171,92.1622,166.894,-1498.04,-9871.51,-1611.39,-15.5887,-21.4665,36.5807,-4117.63,7864.95,1683.81,14.5461,150.409,94.8439,-163.678,-9846.9,-1399.78,-17.4185,-47.6728,46.8386,8842.82,-1832.01,1730.37,12.8911,18.6285,31.5686
5.0585,1746.01,-1924.25,5846.2,-47.6082,297.971,110.229,4648.66,2078.95,8113.15,10.0543,-7.44611,-2.91128,2237.69,6365.59,-328.477,35.5847,92.818,167.625,-1489.8,-9853.09,-1631.01,-15.6128,-21.5289,36.5167,-4116.47,7835.6,1644.43,15.0376,149.764,95.1682,-136.958,-9822.74,-1413.04,-17.3755,-47.6192,47.0202,8847.38,-1833.53,1725.7,13.2079,18.7532,31.3949
5.059,1767.77,-1884.02,5840.49,-47.7104,297.384,111.136,4636.6,2108.05,8104.06,10.1546,-7.49179,-2.92131,2232.02,6400.53,-337.769,35.7523,93.4738,168.355,-1481.57,-9834.67,-1650.63,-15.637,-21.5913,36.4527,-4115.31,7806.26,1605.04,15.5291,149.119,95.4924,-110.237,-9798.58,-1426.31,-17.3325,-47.5656,47.2017,8851.93,-1835.04,1721.02,13.5247,18.8779,31.2212
5.0595,1789.54,-1843.79,5834.77,-47.8127,296.797,112.042,4624.54,2137.15,8094.96,10.2548,-7.53747,-2.93133,2226.35,6435.47,-347.061,35.9199,94.1296,169.086,-1473.33,-9816.25,-1670.24,-15.6611,-21.6538,36.3887,-4114.15,7776.92,1565.66,16.0206,148.474,95.8167,-83.5155,-9774.43,-1439.57,-17.2895,-47.512,47.3832,8856.49,-1836.56,1716.34,13.8415,19.0026,31.0475
5.06,1811.3,-1803.55,5829.06,-47.9149,296.21,112.948,4612.47,2166.25,8085.87,10.3551,-7.58315,-2.94136,2220.68,6470.41,-356.352,36.0875,94.7854,169.816,-1465.09,-9797.83,-1689.86,-15.6852,-21.7162,36.3247,-4112.99,7747.57,1526.27,16.5122,147.829,96.1409,-56.7946,-9750.27,-1452.83,-17.2465,-47.4584,47.5648,8861.04,-1838.08,1711.67,14.1584,19.1273,30.8738
5.0605,1833.06,-1763.32,5823.35,-48.0171,295.623,113.855,4600.41,2195.35,8076.78,10.4553,-7.62884,-2.95139,2215.01,6505.35,-365.644,36.255,95.4412,170.547,-1456.85,-9779.42,-1709.48,-15.7094,-21.7786,36.2607,-4111.83,7718.23,1486.89,17.0037,147.184,96.4651,-30.0736,-9726.12,-1466.09,-17.2036,-47.4048,47.7463,8865.6,-1839.59,1706.99,14.4752,19.252,30.7001
5.061,1854.82,-1723.09,5817.63,-48.1194,295.036,114.761,4588.35,2224.45,8067.69,10.5556,-7.67452,-2.96141,2209.34,6540.29,-374.936,36.4226,96.0969,171.277,-1448.61,-9761.0,-1729.09,-15.7335,-21.841,36.1967,-4110.68,7688.88,1447.5,17.4952,146.539,96.7894,-3.35259,-9701.96,-1479.36,-17.1606,-47.3511,47.9278,8870.16,-1841.11,1702.31,14.792,19.3767,30.5264
5.0615,1876.58,-1682.86,5811.92,-48.2216,294.45,115.668,4576.29,2253.55,8058.6,10.6558,-7.7202,-2.97144,2203.67,6575.24,-384.227,36.5902,96.7527,172.007,-1440.37,-9742.58,-1748.71,-15.7577,-21.9035,36.1327,-4109.52,7659.54,1408.12,17.9867,145.893,97.1136,23.3684,-9677.81,-1492.62,-17.1176,-47.2975,48.1094,8874.71,-1842.62,1697.64,15.1088,19.5014,30.3527
5.062,1898.34,-1642.62,5806.2,-48.3239,293.863,116.574,4564.23,2282.65,8049.51,10.7561,-7.76588,-2.98146,2198.0,6610.18,-393.519,36.7578,97.4085,172.738,-1432.13,-9724.16,-1768.33,-15.7818,-21.9659,36.0687,-4108.36,7630.2,1368.73,18.4782,145.248,97.4379,50.0894,-9653.65,-1505.88,-17.0746,-47.2439,48.2909,8879.27,-1844.14,1692.96,15.4256,19.6261,30.179
5.0625,1920.44,-1610.29,5804.33,-48.5182,293.242,117.473,4566.45,2307.09,8043.7,10.8404,-7.80568,-2.95024,2187.43,6641.71,-405.05,36.8933,98.0479,173.495,-1417.64,-9713.47,-1785.68,-15.825,-21.9921,35.9997,-4112.54,7599.86,1324.78,19.1778,144.478,97.8096,67.6183,-9643.16,-1516.9,-17.0253,-47.0861,48.4828,8874.73,-1846.7,1693.15,15.683,19.7702,30.0022
5.063,1942.8,-1584.29,5805.52,-48.7861,292.595,118.366,4580.09,2327.81,8040.52,10.9119,-7.84076,-2.88602,2172.96,6670.5,-418.371,37.003,98.6741,174.275,-1398.14,-9708.96,-1801.21,-15.8834,-21.9894,35.9268,-4120.98,7568.74,1277.18,20.0439,143.608,98.2193,77.7935,-9643.61,-1526.12,-16.9709,-46.8448,48.683,8862.92,-1850.1,1697.22,15.8929,19.9298,29.8228
5.0635,1965.16,-1558.28,5806.71,-49.0541,291.948,119.26,4593.72,2348.52,8037.33,10.9834,-7.87584,-2.8218,2158.48,6699.3,-431.693,37.1127,99.3003,175.054,-1378.64,-9704.46,-1816.74,-15.9419,-21.9867,35.8539,-4129.43,7537.62,1229.58,20.9099,142.737,98.6291,87.9688,-9644.05,-1535.34,-16.9166,-46.6036,48.8832,8851.1,-1853.49,1701.3,16.1028,20.0894,29.6435
5.064,1987.52,-1532.27,5807.91,-49.322,291.302,120.153,4607.36,2369.24,8034.15,11.055,-7.91092,-2.75758,2144.0,6728.1,-445.015,37.2225,99.9265,175.834,-1359.14,-9699.95,-1832.27,-16.0003,-21.984,35.7809,-4137.88,7506.5,1181.98,21.776,141.867,99.0388,98.144,-9644.5,-1544.56,-16.8622,-46.3624,49.0833,8839.29,-1856.89,1705.37,16.3127,20.2491,29.4642
5.0645,2009.88,-1506.27,5809.1,-49.59,290.655,121.046,4621.0,2389.95,8030.97,11.1265,-7.946,-2.69336,2129.52,6756.9,-458.336,37.3322,100.553,176.613,-1339.64,-9695.44,-1847.81,-16.0588,-21.9813,35.708,-4146.32,7475.38,1134.38,22.642,140.996,99.4485,108.319,-9644.95,-1553.77,-16.8078,-46.1212,49.2835,8827.47,-1860.28,1709.44,16.5226,20.4087,29.2848
5.065,2032.25,-1480.26,5810.29,-49.858,290.008,121.94,4634.63,2410.67,8027.78,11.198,-7.98108,-2.62914,2115.05,6785.7,-471.658,37.4419,101.179,177.393,-1320.14,-9690.94,-1863.34,-16.1172,-21.9786,35.635,-4154.77,7444.25,1086.77,23.508,140.126,99.8582,118.494,-9645.39,-1562.99,-16.7534,-45.88,49.4837,8815.66,-1863.68,1713.52,16.7325,20.5683,29.1055
5.0655,2054.61,-1454.25,5811.48,-50.1259,289.361,122.833,4648.27,2431.39,8024.6,11.2696,-8.01616,-2.56492,2100.57,6814.5,-484.98,37.5517,101.805,178.172,-1300.65,-9686.43,-1878.87,-16.1756,-21.9758,35.5621,-4163.21,7413.13,1039.17,24.3741,139.256,100.268,128.67,-9645.84,-1572.21,-16.699,-45.6387,49.6839,8803.84,-1867.07,1717.59,16.9424,20.7279,28.9262
5.066,2076.97,-1428.24,5812.68,-50.3939,288.714,123.726,4661.91,2452.1,8021.42,11.3411,-8.05124,-2.5007,2086.09,6843.3,-498.302,37.6614,102.431,178.952,-1281.15,-9681.92,-1894.4,-16.2341,-21.9731,35.4891,-4171.66,7382.01,991.571,25.2401,138.385,100.678,138.845,-9646.29,-1581.43,-16.6446,-45.3975,49.8841,8792.03,-1870.47,1721.67,17.1523,20.8875,28.7468
5.0665,2099.33,-1402.24,5813.87,-50.6618,288.067,124.62,4675.55,2472.82,8018.23,11.4126,-8.08632,-2.43649,2071.61,6872.1,-511.623,37.7711,103.057,179.731,-1261.65,-9677.41,-1909.94,-16.2925,-21.9704,35.4162,-4180.11,7350.89,943.97,26.1062,137.515,101.087,149.02,-9646.73,-1590.65,-16.5903,-45.1563,50.0843,8780.21,-1873.86,1725.74,17.3622,21.0471,28.5675
5.067,2127.32,-1389.97,5837.62,-50.8559,287.393,125.448,4687.84,2483.22,8034.48,11.4522,-8.09063,-2.40373,2056.24,6900.16,-519.935,37.8271,103.608,180.476,-1237.44,-9673.24,-1927.45,-16.3302,-21.8784,35.3747,-4201.59,7327.43,895.876,26.9242,136.704,101.498,168.002,-9640.27,-1598.19,-16.578,-44.8917,50.2123,8774.38,-1873.07,1720.78,17.5636,21.1899,28.3353
5.0675,2158.13,-1384.56,5872.65,-51.0129,286.705,126.245,4699.47,2488.47,8060.45,11.4757,-8.07956,-2.3867,2040.43,6927.85,-525.743,37.8562,104.12,181.202,-1210.88,-9669.24,-1945.95,-16.3575,-21.7418,35.3489,-4229.59,7307.8,847.536,27.7181,135.922,101.908,191.388,-9630.35,-1604.89,-16.5869,-44.6153,50.3042,8771.54,-1870.18,1711.31,17.7609,21.3243,28.0766
5.068,2188.94,-1379.16,5907.68,-51.1699,286.017,127.042,4711.1,2493.72,8086.42,11.4993,-8.06849,-2.36968,2024.62,6955.55,-531.551,37.8853,104.632,181.928,-1184.31,-9665.24,-1964.46,-16.3848,-21.6052,35.323,-4257.59,7288.18,799.196,28.5121,135.141,102.319,214.774,-9620.44,-1611.58,-16.5958,-44.339,50.3961,8768.71,-1867.29,1701.84,17.9581,21.4586,27.8179
5.0685,2219.74,-1373.76,5942.71,-51.327,285.329,127.838,4722.73,2498.97,8112.39,11.5228,-8.05742,-2.35265,2008.81,6983.24,-537.358,37.9144,105.145,182.655,-1157.75,-9661.24,-1982.96,-16.4121,-21.4685,35.2972,-4285.59,7268.55,750.856,29.3061,134.359,102.73,238.16,-9610.52,-1618.28,-16.6047,-44.0627,50.4879,8765.87,-1864.4,1692.37,18.1554,21.593,27.5593
5.069,2250.55,-1368.35,5977.74,-51.484,284.641,128.635,4734.36,2504.22,8138.36,11.5464,-8.04635,-2.33562,1992.99,7010.94,-543.166,37.9435,105.657,183.381,-1131.18,-9657.24,-2001.47,-16.4393,-21.3319,35.2714,-4313.59,7248.92,702.515,30.1,133.578,103.14,261.546,-9600.61,-1624.98,-16.6135,-43.7863,50.5798,8763.03,-1861.51,1682.9,18.3526,21.7274,27.3006
5.0695,2281.36,-1362.95,6012.77,-51.641,283.953,129.432,4745.99,2509.48,8164.32,11.5699,-8.03528,-2.3186,1977.18,7038.63,-548.973,37.9726,106.169,184.108,-1104.62,-9653.24,-2019.97,-16.4666,-21.1953,35.2456,-4341.59,7229.29,654.175,30.894,132.796,103.551,284.931,-9590.69,-1631.68,-16.6224,-43.51,50.6717,8760.19,-1858.62,1673.42,18.5498,21.8618,27.042
5.07,2312.16,-1357.55,6047.8,-51.7981,283.265,130.228,4757.62,2514.73,8190.29,11.5935,-8.02421,-2.30157,1961.37,7066.33,-554.781,38.0017,106.682,184.834,-1078.06,-9649.24,-2038.48,-16.4939,-21.0586,35.2197,-4369.59,7209.67,605.835,31.688,132.015,103.962,308.317,-9580.77,-1638.38,-16.6313,-43.2336,50.7636,8757.35,-1855.73,1663.95,18.7471,21.9962,26.7833
5.0705,2342.97,-1352.14,6082.83,-51.9551,282.577,131.025,4769.25,2519.98,8216.26,11.617,-8.01315,-2.28455,1945.56,7094.02,-560.588,38.0308,107.194,185.56,-1051.49,-9645.24,-2056.98,-16.5212,-20.922,35.1939,-4397.59,7190.04,557.495,32.4819,131.233,104.372,331.703,-9570.86,-1645.08,-16.6401,-42.9573,50.8555,8754.52,-1852.84,1654.48,18.9443,22.1305,26.5247
5.071,2373.78,-1346.74,6117.86,-52.1121,281.889,131.822,4780.88,2525.23,8242.23,11.6406,-8.00208,-2.26752,1929.74,7121.72,-566.396,38.0599,107.706,186.287,-1024.93,-9641.24,-2075.49,-16.5485,-20.7854,35.1681,-4425.59,7170.41,509.155,33.2759,130.452,104.783,355.089,-9560.94,-1651.78,-16.649,-42.681,50.9474,8751.68,-1849.95,1645.01,19.1416,22.2649,26.266
5.0715,2410.61,-1356.74,6150.87,-52.1123,281.367,132.419,4766.21,2544.65,8222.92,11.5903,-8.01959,-2.23759,1898.52,7152.21,-575.918,37.9894,108.182,187.037,-1014.98,-9643.19,-2091.91,-16.5397,-20.6971,35.153,-4465.17,7166.25,482.341,34.0442,129.672,105.172,341.926,-9557.82,-1661.14,-16.7176,-42.3628,51.0631,8748.32,-1851.2,1638.25,19.396,22.3305,26.0277
5.072,2449.16,-1371.13,6183.29,-52.0675,280.893,132.959,4744.02,2568.13,8190.66,11.5188,-8.04526,-2.20398,1862.88,7183.51,-586.502,37.8903,108.648,187.793,-1009.78,-9646.83,-2107.74,-16.5206,-20.6227,35.1409,-4508.05,7166.51,461.678,34.8051,128.893,105.555,318.32,-9556.65,-1671.27,-16.8033,-42.0328,51.1856,8744.82,-1853.62,1632.27,19.6668,22.3763,25.7951
5.0725,2487.72,-1385.53,6215.72,-52.0228,280.418,133.5,4721.83,2591.6,8158.41,11.4474,-8.07094,-2.17037,1827.25,7214.8,-597.086,37.7913,109.113,188.549,-1004.58,-9650.47,-2123.56,-16.5015,-20.5482,35.1288,-4550.94,7166.76,441.015,35.566,128.113,105.938,294.714,-9555.48,-1681.39,-16.889,-41.7027,51.3081,8741.32,-1856.04,1626.29,19.9375,22.4222,25.5626
5.073,2526.27,-1399.92,6248.15,-51.9781,279.943,134.04,4699.64,2615.07,8126.16,11.3759,-8.09661,-2.13676,1791.62,7246.09,-607.67,37.6923,109.579,189.306,-999.381,-9654.11,-2139.39,-16.4824,-20.4738,35.1167,-4593.82,7167.02,420.352,36.3269,127.334,106.321,271.109,-9554.31,-1691.52,-16.9746,-41.3727,51.4306,8737.82,-1858.47,1620.31,20.2083,22.468,25.33
5.0735,2564.83,-1414.32,6280.58,-51.9334,279.468,134.58,4677.45,2638.55,8093.91,11.3045,-8.12229,-2.10315,1755.99,7277.39,-618.254,37.5933,110.044,190.062,-994.181,-9657.75,-2155.22,-16.4633,-20.3993,35.1047,-4636.7,7167.27,399.689,37.0878,126.555,106.704,247.503,-9553.13,-1701.64,-17.0603,-41.0426,51.5532,8734.31,-1860.89,1614.33,20.4791,22.5139,25.0975
5.074,2603.38,-1428.71,6313.01,-51.8886,278.993,135.121,4655.26,2662.02,8061.66,11.233,-8.14796,-2.06954,1720.36,7308.68,-628.838,37.4943,110.51,190.819,-988.981,-9661.4,-2171.04,-16.4442,-20.3249,35.0926,-4679.59,7167.53,379.026,37.8487,125.775,107.087,223.897,-9551.96,-1711.77,-17.146,-40.7125,51.6757,8730.81,-1863.32,1608.35,20.7499,22.5597,24.865
5.0745,2641.94,-1443.11,6345.44,-51.8439,278.519,135.661,4633.07,2685.49,8029.41,11.1616,-8.17364,-2.03593,1684.72,7339.98,-639.422,37.3953,110.975,191.575,-983.78,-9665.04,-2186.87,-16.4251,-20.2504,35.0805,-4722.47,7167.78,358.363,38.6096,124.996,107.47,200.292,-9550.79,-1721.9,-17.2317,-40.3825,51.7982,8727.31,-1865.74,1602.37,21.0206,22.6056,24.6324
5.075,2680.49,-1457.5,6377.87,-51.7992,278.044,136.201,4610.88,2708.97,7997.16,11.0901,-8.19931,-2.00231,1649.09,7371.27,-650.006,37.2962,111.441,192.331,-978.58,-9668.68,-2202.7,-16.406,-20.176,35.0684,-4765.35,7168.04,337.7,39.3705,124.217,107.853,176.686,-9549.62,-1732.02,-17.3173,-40.0524,51.9207,8723.81,-1868.17,1596.39,21.2914,22.6515,24.3999
5.0755,2719.05,-1471.9,6410.3,-51.7545,277.569,136.742,4588.69,2732.44,7964.91,11.0187,-8.22499,-1.9687,1613.46,7402.57,-660.59,37.1972,111.907,193.088,-973.38,-9672.32,-2218.52,-16.387,-20.1015,35.0564,-4808.24,7168.29,317.037,40.1314,123.437,108.236,153.08,-9548.44,-1742.15,-17.403,-39.7224,52.0432,8720.3,-1870.59,1590.41,21.5622,22.6973,24.1674
5.076,2758.17,-1478.2,6448.31,-51.6273,277.172,137.248,4582.13,2730.36,7935.03,10.9076,-8.23473,-1.92237,1577.2,7431.22,-662.11,37.0939,112.217,193.917,-959.633,-9670.69,-2229.44,-16.3552,-20.0143,35.0775,-4839.46,7174.7,314.503,40.8079,122.751,108.526,164.046,-9555.66,-1767.23,-17.3401,-39.3599,52.2208,8718.93,-1858.0,1587.08,21.8707,22.6519,23.8969
5.0765,2797.36,-1483.49,6487.03,-51.4898,276.786,137.75,4577.52,2725.08,7905.45,10.7915,-8.24249,-1.87446,1540.86,7459.55,-662.497,36.99,112.508,194.755,-944.818,-9668.4,-2239.75,-16.3218,-19.9256,35.1028,-4869.23,7181.88,314.234,41.4739,122.077,108.805,179.333,-9563.93,-1794.17,-17.2586,-38.9935,52.4053,8717.83,-1843.53,1584.08,22.1839,22.595,23.6218
5.077,2836.54,-1488.78,6525.75,-51.3523,276.399,138.252,4572.91,2719.8,7875.86,10.6755,-8.25025,-1.82654,1504.52,7487.87,-662.884,36.8861,112.799,195.594,-930.003,-9666.11,-2250.06,-16.2885,-19.8368,35.1282,-4898.99,7189.05,313.966,42.1398,121.403,109.084,194.62,-9572.2,-1821.12,-17.1771,-38.627,52.5898,8716.73,-1829.06,1581.07,22.4971,22.5382,23.3467
5.0775,2875.73,-1494.07,6564.46,-51.2148,276.012,138.754,4568.3,2714.52,7846.28,10.5594,-8.258,-1.77862,1468.18,7516.2,-663.271,36.7822,113.09,196.432,-915.187,-9663.82,-2260.37,-16.2551,-19.748,35.1535,-4928.76,7196.23,313.698,42.8058,120.728,109.362,209.908,-9580.47,-1848.07,-17.0956,-38.2606,52.7743,8715.62,-1814.59,1578.07,22.8103,22.4814,23.0715
5.078,2914.92,-1499.36,6603.18,-51.0774,275.625,139.255,4563.69,2709.24,7816.7,10.4433,-8.26576,-1.7307,1431.85,7544.53,-663.658,36.6784,113.381,197.27,-900.372,-9661.53,-2270.68,-16.2217,-19.6593,35.1788,-4958.53,7203.41,313.43,43.4718,120.054,109.641,225.195,-9588.74,-1875.02,-17.0142,-37.8941,52.9588,8714.52,-1800.13,1575.07,23.1235,22.4245,22.7964
5.0785,2954.11,-1504.65,6641.9,-50.9399,275.239,139.757,4559.08,2703.96,7787.12,10.3273,-8.27352,-1.68279,1395.51,7572.85,-664.045,36.5745,113.672,198.109,-885.557,-9659.24,-2280.98,-16.1884,-19.5705,35.2041,-4988.29,7210.58,313.162,44.1377,119.38,109.919,240.482,-9597.01,-1901.97,-16.9327,-37.5276,53.1433,8713.42,-1785.66,1572.06,23.4367,22.3677,22.5212
5.079,2993.3,-1509.94,6680.61,-50.8024,274.852,140.259,4554.47,2698.67,7757.53,10.2112,-8.28127,-1.63487,1359.17,7601.18,-664.432,36.4706,113.963,198.947,-870.741,-9656.95,-2291.29,-16.155,-19.4817,35.2294,-5018.06,7217.76,312.894,44.8037,118.705,110.198,255.769,-9605.28,-1928.92,-16.8512,-37.1612,53.3278,8712.31,-1771.19,1569.06,23.7498,22.3108,22.2461
5.0795,3032.49,-1515.23,6719.33,-50.6649,274.465,140.761,4549.87,2693.4,7727.95,10.0952,-8.28903,-1.58695,1322.83,7629.51,-664.819,36.3667,114.254,199.785,-855.926,-9654.66,-2301.6,-16.1216,-19.3929,35.2547,-5047.82,7224.94,312.626,45.4696,118.031,110.476,271.056,-9613.55,-1955.86,-16.7697,-36.7947,53.5123,8711.21,-1756.72,1566.05,24.063,22.254,21.971
5.08,3071.68,-1520.52,6758.05,-50.5274,274.078,141.263,4545.26,2688.11,7698.37,9.97913,-8.29679,-1.53903,1286.49,7657.83,-665.206,36.2628,114.545,200.624,-841.111,-9652.37,-2311.91,-16.0883,-19.3042,35.2801,-5077.59,7232.11,312.357,46.1356,117.357,110.755,286.344,-9621.82,-1982.81,-16.6882,-36.4282,53.6968,8710.11,-1742.25,1563.05,24.3762,22.1971,21.6958
5.0805,3110.12,-1495.87,6812.72,-50.3745,273.836,141.777,4534.61,2737.91,7699.55,9.88153,-8.37078,-1.4302,1251.46,7669.65,-652.054,36.1692,114.559,201.525,-815.489,-9657.23,-2321.79,-16.0266,-19.0838,35.3574,-5101.98,7238.35,316.294,46.4841,117.007,110.936,290.665,-9625.81,-1984.89,-16.6447,-36.1537,53.6636,8708.65,-1724.83,1555.62,24.6447,22.035,21.4532
5.081,3148.55,-1471.22,6867.38,-50.2215,273.593,142.292,4523.96,2787.71,7700.74,9.78393,-8.44478,-1.32136,1216.43,7681.47,-638.901,36.0755,114.573,202.427,-789.867,-9662.09,-2331.67,-15.9648,-18.8634,35.4347,-5126.37,7244.58,320.232,46.8325,116.658,111.117,294.986,-9629.81,-1986.97,-16.6013,-35.8792,53.6305,8707.18,-1707.41,1548.19,24.9132,21.873,21.2105
5.0815,3186.99,-1446.57,6922.05,-50.0686,273.351,142.806,4513.32,2837.5,7701.92,9.68634,-8.51877,-1.21252,1181.4,7693.29,-625.749,35.9818,114.587,203.329,-764.246,-9666.94,-2341.55,-15.9031,-18.643,35.5121,-5150.77,7250.81,324.169,47.181,116.309,111.299,299.307,-9633.81,-1989.06,-16.5578,-35.6047,53.5973,8705.72,-1689.99,1540.75,25.1817,21.7109,20.9679
5.082,3225.43,-1421.91,6976.72,-49.9156,273.108,143.321,4502.67,2887.3,7703.1,9.58874,-8.59277,-1.10369,1146.37,7705.11,-612.596,35.8882,114.601,204.23,-738.624,-9671.8,-2351.43,-15.8414,-18.4226,35.5894,-5175.16,7257.04,328.106,47.5295,115.959,111.48,303.628,-9637.81,-1991.14,-16.5143,-35.3302,53.5641,8704.26,-1672.57,1533.32,25.4501,21.5488,20.7252
5.0825,3263.86,-1397.26,7031.39,-49.7627,272.866,143.835,4492.03,2937.1,7704.29,9.49114,-8.66677,-0.994851,1111.35,7716.92,-599.444,35.7945,114.615,205.132,-713.002,-9676.66,-2361.31,-15.7797,-18.2022,35.6667,-5199.55,7263.27,332.043,47.878,115.61,111.661,307.949,-9641.8,-1993.22,-16.4708,-35.0557,53.5309,8702.8,-1655.15,1525.89,25.7186,21.3867,20.4826
5.083,3302.3,-1372.61,7086.06,-49.6097,272.623,144.35,4481.38,2986.89,7705.47,9.39355,-8.74076,-0.886015,1076.32,7728.74,-586.292,35.7008,114.629,206.034,-687.381,-9681.51,-2371.19,-15.718,-17.9818,35.7441,-5223.94,7269.51,335.98,48.2264,115.261,111.843,312.27,-9645.8,-1995.3,-16.4273,-34.7811,53.4977,8701.34,-1637.74,1518.46,25.9871,21.2246,20.24
5.0835,3340.74,-1347.96,7140.72,-49.4568,272.381,144.864,4470.73,3036.69,7706.65,9.29595,-8.81476,-0.777179,1041.29,7740.56,-573.139,35.6071,114.644,206.935,-661.759,-9686.37,-2381.07,-15.6563,-17.7614,35.8214,-5248.33,7275.74,339.917,48.5749,114.911,112.024,316.591,-9649.8,-1997.38,-16.3839,-34.5066,53.4646,8699.88,-1620.32,1511.03,26.2555,21.0625,19.9973
5.084,3379.17,-1323.31,7195.39,-49.3038,272.138,145.379,4460.09,3086.48,7707.84,9.19835,-8.88875,-0.668342,1006.26,7752.38,-559.987,35.5135,114.658,207.837,-636.137,-9691.22,-2390.95,-15.5946,-17.541,35.8988,-5272.73,7281.97,343.854,48.9234,114.562,112.205,320.912,-9653.8,-1999.46,-16.3404,-34.2321,53.4314,8698.42,-1602.9,1503.59,26.524,20.9004,19.7547
5.0845,3419.21,-1298.59,7249.15,-49.1393,271.908,145.877,4447.18,3131.94,7713.2,9.0888,-8.95848,-0.566055,969.221,7766.05,-547.924,35.4113,114.646,208.736,-608.762,-9696.16,-2400.42,-15.5371,-17.3045,35.9854,-5296.7,7288.76,351.239,49.2397,114.202,112.365,324.704,-9657.18,-2002.37,-16.2933,-33.949,53.3973,8696.58,-1586.01,1496.29,26.7893,20.7303,19.5202
5.085,3472.08,-1273.22,7295.58,-48.882,271.777,146.25,4416.13,3142.67,7752.02,8.88358,-8.99405,-0.516164,916.116,7794.6,-544.582,35.2412,114.427,209.615,-567.362,-9701.73,-2406.57,-15.514,-16.9394,36.1464,-5317.32,7300.02,386.207,49.2989,113.757,112.351,324.27,-9655.69,-2011.96,-16.2178,-33.5968,53.3556,8691.66,-1573.4,1490.03,27.0293,20.4963,19.351
5.0855,3524.94,-1247.86,7342.02,-48.6248,271.646,146.623,4385.08,3153.41,7790.83,8.67836,-9.02962,-0.466273,863.011,7823.14,-541.24,35.0711,114.207,210.494,-525.962,-9707.31,-2412.73,-15.4909,-16.5743,36.3074,-5337.93,7311.28,421.175,49.358,113.311,112.338,323.835,-9654.19,-2021.55,-16.1423,-33.2447,53.3139,8686.73,-1560.79,1483.77,27.2693,20.2622,19.1818
5.086,3577.8,-1222.49,7388.46,-48.3675,271.516,146.996,4354.04,3164.14,7829.65,8.47315,-9.06519,-0.416382,809.907,7851.69,-537.898,34.901,113.988,211.372,-484.561,-9712.88,-2418.88,-15.4678,-16.2093,36.4684,-5358.55,7322.54,456.143,49.4171,112.866,112.324,323.4,-9652.69,-2031.15,-16.0667,-32.8925,53.2722,8681.81,-1548.18,1477.51,27.5093,20.0281,19.0125
5.0865,3630.67,-1197.13,7434.9,-48.1103,271.385,147.369,4322.99,3174.87,7868.46,8.26793,-9.10075,-0.366491,756.802,7880.23,-534.556,34.7309,113.769,212.251,-443.161,-9718.45,-2425.03,-15.4447,-15.8442,36.6294,-5379.17,7333.79,491.11,49.4762,112.421,112.31,322.966,-9651.2,-2040.74,-15.9912,-32.5404,53.2305,8676.89,-1535.57,1471.25,27.7492,19.7941,18.8433
5.087,3683.53,-1171.76,7481.33,-47.853,271.254,147.742,4291.94,3185.61,7907.27,8.06271,-9.13632,-0.3166,703.698,7908.78,-531.214,34.5609,113.549,213.13,-401.761,-9724.02,-2431.19,-15.4216,-15.4791,36.7903,-5399.79,7345.05,526.078,49.5354,111.976,112.297,322.531,-9649.7,-2050.33,-15.9157,-32.1882,53.1889,8671.97,-1522.96,1464.99,27.9892,19.56,18.6741
5.0875,3736.39,-1146.4,7527.77,-47.5958,271.123,148.115,4260.9,3196.34,7946.09,7.8575,-9.17189,-0.266709,650.593,7937.32,-527.871,34.3908,113.33,214.009,-360.36,-9729.59,-2437.34,-15.3985,-15.114,36.9513,-5420.4,7356.31,561.046,49.5945,111.531,112.283,322.096,-9648.2,-2059.92,-15.8401,-31.836,53.1472,8667.05,-1510.35,1458.73,28.2292,19.3259,18.5049
5.088,3789.26,-1121.03,7574.21,-47.3385,270.993,148.488,4229.85,3207.07,7984.9,7.65228,-9.20746,-0.216818,597.488,7965.87,-524.529,34.2207,113.111,214.888,-318.96,-9735.17,-2443.5,-15.3754,-14.749,37.1123,-5441.02,7367.57,596.014,49.6536,111.086,112.27,321.661,-9646.7,-2069.51,-15.7646,-31.4839,53.1055,8662.13,-1497.74,1452.46,28.4692,19.0919,18.3357
5.0885,3842.12,-1095.67,7620.65,-47.0813,270.862,148.861,4198.8,3217.81,8023.72,7.44706,-9.24303,-0.166927,544.384,7994.41,-521.187,34.0506,112.891,215.767,-277.56,-9740.74,-2449.65,-15.3523,-14.3839,37.2733,-5461.64,7378.83,630.982,49.7127,110.641,112.256,321.227,-9645.21,-2079.1,-15.6891,-31.1317,53.0638,8657.21,-1485.13,1446.2,28.7092,18.8578,18.1665
5.089,3889.84,-1066.54,7659.36,-46.8747,270.775,149.195,4177.65,3224.52,8051.89,7.24735,-9.29204,-0.111283,491.682,8024.29,-515.572,33.9053,112.628,216.617,-245.006,-9744.29,-2456.36,-15.3341,-14.0089,37.4254,-5478.48,7386.91,664.91,49.7622,110.108,112.186,323.516,-9643.8,-2087.31,-15.6057,-30.773,53.0115,8652.0,-1472.85,1439.3,28.9208,18.6126,18.002
5.0895,3919.54,-1024.22,7671.03,-46.8457,270.842,149.396,4191.13,3217.16,8042.8,7.06692,-9.38811,-0.0355032,440.392,8058.85,-502.0,33.8469,112.212,217.371,-243.415,-9740.77,-2464.98,-15.3331,-13.5995,37.5463,-5482.12,7383.87,695.201,49.7781,109.269,111.919,335.338,-9642.7,-2090.67,-15.4951,-30.3913,52.9218,8645.82,-1461.73,1430.16,29.0333,18.3286,17.8543
5.09,3949.25,-981.914,7682.7,-46.8166,270.909,149.596,4204.62,3209.8,8033.72,6.88649,-9.48417,0.0402766,389.102,8093.41,-488.427,33.7885,111.795,218.124,-241.825,-9737.25,-2473.6,-15.3321,-13.19,37.6671,-5485.75,7380.83,725.491,49.794,108.429,111.652,347.16,-9641.6,-2094.03,-15.3844,-30.0097,52.8322,8639.63,-1450.61,1421.02,29.1458,18.0447,17.7065
5.0905,3978.95,-939.604,7694.37,-46.7876,270.976,149.797,4218.1,3202.43,8024.64,6.70606,-9.58024,0.116056,337.811,8127.97,-474.855,33.73,111.379,218.877,-240.234,-9733.73,-2482.23,-15.3311,-12.7806,37.788,-5489.39,7377.79,755.782,49.8099,107.59,111.385,358.982,-9640.5,-2097.39,-15.2737,-29.628,52.7426,8633.45,-1439.49,1411.87,29.2583,17.7607,17.5588
5.091,4008.66,-897.293,7706.04,-46.7585,271.043,149.997,4231.59,3195.07,8015.55,6.52563,-9.6763,0.191836,286.521,8162.52,-461.282,33.6716,110.962,219.63,-238.643,-9730.21,-2490.85,-15.3301,-12.3711,37.9089,-5493.02,7374.75,786.072,49.8258,106.751,111.118,370.804,-9639.41,-2100.74,-15.1631,-29.2463,52.6529,8627.26,-1428.37,1402.73,29.3708,17.4767,17.411
5.0915,4038.37,-854.983,7717.71,-46.7295,271.11,150.197,4245.07,3187.71,8006.47,6.3452,-9.77237,0.267616,235.231,8197.08,-447.71,33.6132,110.546,220.383,-237.053,-9726.69,-2499.48,-15.3291,-11.9617,38.0297,-5496.66,7371.71,816.363,49.8417,105.912,110.851,382.626,-9638.31,-2104.1,-15.0524,-28.8646,52.5633,8621.08,-1417.25,1393.59,29.4833,17.1927,17.2633
5.092,4068.07,-812.672,7729.38,-46.7005,271.177,150.398,4258.55,3180.35,7997.39,6.16477,-9.86843,0.343396,183.941,8231.64,-434.138,33.5548,110.129,221.136,-235.462,-9723.17,-2508.1,-15.3281,-11.5522,38.1506,-5500.29,7368.67,846.654,49.8576,105.073,110.584,394.449,-9637.21,-2107.46,-14.9417,-28.483,52.4736,8614.9,-1406.13,1384.45,29.5958,16.9087,17.1155
5.0925,4097.78,-770.362,7741.05,-46.6714,271.244,150.598,4272.04,3172.99,7988.31,5.98434,-9.9645,0.419176,132.65,8266.2,-420.565,33.4963,109.713,221.889,-233.871,-9719.64,-2516.73,-15.3271,-11.1428,38.2714,-5503.93,7365.63,876.944,49.8735,104.233,110.318,406.271,-9636.11,-2110.82,-14.831,-28.1013,52.384,8608.71,-1395.01,1375.3,29.7083,16.6247,16.9678
5.093,4127.48,-728.051,7752.71,-46.6424,271.311,150.799,4285.52,3165.62,7979.22,5.8039,-10.0606,0.494955,81.3601,8300.76,-406.993,33.4379,109.296,222.642,-232.281,-9716.12,-2525.35,-15.3261,-10.7333,38.3923,-5507.56,7362.59,907.235,49.8894,103.394,110.051,418.093,-9635.02,-2114.18,-14.7204,-27.7196,52.2943,8602.53,-1383.89,1366.16,29.8208,16.3407,16.82
5.0935,4174.23,-689.077,7769.93,-46.6743,271.393,150.962,4292.27,3147.93,7972.43,5.65792,-10.1499,0.57088,33.6842,8332.19,-396.944,33.3723,108.87,223.432,-239.131,-9713.85,-2536.06,-15.2876,-10.3156,38.5113,-5507.06,7360.1,931.409,49.8856,102.481,109.714,427.733,-9638.08,-2114.98,-14.6508,-27.3825,52.2135,8597.76,-1372.47,1359.67,29.9441,16.0489,16.6927
5.094,4255.07,-656.776,7798.25,-46.8283,271.504,151.049,4285.54,3109.59,7970.23,5.58083,-10.2258,0.647095,-6.76294,8357.37,-393.94,33.2922,108.423,224.293,-262.862,-9714.09,-2550.93,-15.1741,-9.88155,38.6264,-5498.28,7358.72,943.351,49.8425,101.42,109.237,433.009,-9649.45,-2110.65,-14.6634,-27.1343,52.1501,8595.83,-1360.44,1358.48,30.0891,15.7413,16.6061
5.0945,4335.91,-624.474,7826.56,-46.9823,271.616,151.137,4278.82,3071.24,7968.02,5.50374,-10.3017,0.72331,-47.2101,8382.55,-390.936,33.2121,107.977,225.155,-286.594,-9714.32,-2565.81,-15.0605,-9.44746,38.7414,-5489.5,7357.33,955.292,49.7994,100.359,108.759,438.285,-9660.83,-2106.33,-14.6761,-26.8861,52.0868,8593.9,-1348.42,1357.3,30.2341,15.4337,16.5196
5.095,4416.74,-592.173,7854.88,-47.1362,271.727,151.225,4272.09,3032.9,7965.81,5.42665,-10.3776,0.799524,-87.6573,8407.73,-387.932,33.132,107.53,226.016,-310.325,-9714.56,-2580.68,-14.947,-9.01336,38.8565,-5480.73,7355.95,967.234,49.7563,99.2982,108.282,443.562,-9672.2,-2102.0,-14.6887,-26.6379,52.0235,8591.97,-1336.4,1356.11,30.3791,15.1261,16.4331
5.0955,4497.58,-559.872,7883.19,-47.2902,271.838,151.312,4265.37,2994.55,7963.61,5.34956,-10.4535,0.875739,-128.105,8432.91,-384.929,33.0519,107.084,226.878,-334.057,-9714.79,-2595.56,-14.8334,-8.57927,38.9716,-5471.95,7354.56,979.176,49.7132,98.2373,107.805,448.838,-9683.58,-2097.68,-14.7013,-26.3898,51.9602,8590.03,-1324.38,1354.92,30.5242,14.8185,16.3465
5.096,4578.41,-527.57,7911.51,-47.4442,271.95,151.4,4258.64,2956.2,7961.4,5.27247,-10.5293,0.951954,-168.552,8458.09,-381.925,32.9718,106.637,227.74,-357.788,-9715.03,-2610.43,-14.7199,-8.14517,39.0867,-5463.17,7353.18,991.117,49.6701,97.1763,107.328,454.114,-9694.96,-2093.35,-14.714,-26.1416,51.8968,8588.1,-1312.36,1353.73,30.6692,14.5109,16.26
5.0965,4659.25,-495.269,7939.82,-47.5982,272.061,151.488,4251.92,2917.86,7959.19,5.19538,-10.6052,1.02817,-208.999,8483.27,-378.921,32.8918,106.191,228.601,-381.52,-9715.26,-2625.3,-14.6063,-7.71108,39.2018,-5454.39,7351.79,1003.06,49.627,96.1154,106.851,459.391,-9706.33,-2089.03,-14.7266,-25.8934,51.8335,8586.17,-1300.33,1352.55,30.8142,14.2033,16.1734
5.097,4740.09,-462.968,7968.14,-47.7522,272.173,151.576,4245.19,2879.51,7956.99,5.11828,-10.6811,1.10438,-249.446,8508.45,-375.917,32.8117,105.744,229.463,-405.251,-9715.49,-2640.18,-14.4928,-7.27699,39.3169,-5445.61,7350.41,1015.0,49.5839,95.0545,106.374,464.667,-9717.71,-2084.7,-14.7392,-25.6453,51.7702,8584.24,-1288.31,1351.36,30.9592,13.8957,16.0869
5.0975,4820.92,-430.666,7996.45,-47.9061,272.284,151.663,4238.46,2841.17,7954.78,5.04119,-10.757,1.1806,-289.893,8533.63,-372.914,32.7316,105.298,230.324,-428.983,-9715.73,-2655.05,-14.3793,-6.84289,39.432,-5436.83,7349.02,1026.94,49.5408,93.9936,105.897,469.943,-9729.08,-2080.38,-14.7518,-25.3971,51.7069,8582.31,-1276.29,1350.17,31.1042,13.5881,16.0004
5.098,4884.65,-407.299,8012.95,-48.0106,272.375,151.697,4262.31,2812.02,7953.6,4.91545,-10.7775,1.26244,-327.084,8558.72,-379.415,32.6166,104.852,231.141,-455.701,-9717.06,-2660.3,-14.2793,-6.43958,39.5468,-5418.56,7348.27,1024.43,49.3966,93.1351,105.387,490.535,-9738.09,-2077.03,-14.7195,-25.2452,51.6112,8583.44,-1268.67,1351.1,31.2504,13.2697,15.9387
5.0985,4927.0,-395.099,8014.66,-48.0531,272.44,151.662,4324.38,2794.37,7953.71,4.7289,-10.7287,1.35131,-360.203,8583.7,-397.799,32.4581,104.407,231.902,-486.152,-9719.77,-2653.51,-14.1964,-6.07474,39.6611,-5388.41,7348.31,1003.86,49.1258,92.5296,104.836,530.271,-9744.13,-2074.91,-14.6308,-25.2136,51.4751,8588.4,-1266.57,1354.68,31.398,12.9378,15.9081
5.099,4969.34,-382.899,8016.38,-48.0956,272.505,151.628,4386.45,2776.72,7953.81,4.54234,-10.6799,1.44019,-393.322,8608.69,-416.183,32.2995,103.961,232.663,-516.603,-9722.48,-2646.72,-14.1134,-5.7099,39.7753,-5358.27,7348.36,983.292,48.8551,91.9242,104.285,570.006,-9750.18,-2072.79,-14.5422,-25.182,51.3391,8593.36,-1264.46,1358.26,31.5456,12.6058,15.8775
5.0995,5011.69,-370.699,8018.09,-48.1381,272.571,151.594,4448.52,2759.07,7953.92,4.35579,-10.6311,1.52906,-426.441,8633.67,-434.566,32.141,103.516,233.424,-547.054,-9725.19,-2639.93,-14.0305,-5.34505,39.8896,-5328.12,7348.4,962.721,48.5844,91.3187,103.734,609.742,-9756.22,-2070.67,-14.4535,-25.1505,51.203,8598.32,-1262.36,1361.84,31.6932,12.2739,15.8469
5.1,5054.03,-358.499,8019.81,-48.1806,272.636,151.56,4510.59,2741.42,7954.03,4.16923,-10.5823,1.61794,-459.56,8658.65,-452.95,31.9824,103.071,234.185,-577.505,-9727.89,-2633.14,-13.9476,-4.98021,40.0039,-5297.98,7348.45,942.15,48.3136,90.7132,103.183,649.478,-9762.27,-2068.55,-14.3649,-25.1189,51.0669,8603.28,-1260.25,1365.41,31.8408,11.9419,15.8163
5.1005,5096.38,-346.299,8021.52,-48.2231,272.701,151.525,4572.67,2723.77,7954.13,3.98267,-10.5335,1.70681,-492.68,8683.64,-471.334,31.8239,102.626,234.946,-607.956,-9730.6,-2626.35,-13.8646,-4.61537,40.1182,-5267.83,7348.49,921.579,48.0429,90.1078,102.632,689.214,-9768.31,-2066.43,-14.2762,-25.0873,50.9309,8608.24,-1258.15,1368.99,31.9884,11.61,15.7857
5.101,5138.72,-334.099,8023.24,-48.2656,272.766,151.491,4634.74,2706.12,7954.24,3.79612,-10.4847,1.79568,-525.799,8708.62,-489.717,31.6653,102.181,235.708,-638.408,-9733.31,-2619.56,-13.7817,-4.25053,40.2325,-5237.69,7348.53,901.008,47.7722,89.5023,102.081,728.95,-9774.36,-2064.3,-14.1876,-25.0558,50.7948,8613.2,-1256.04,1372.57,32.136,11.278,15.7552
5.1015,5181.07,-321.898,8024.95,-48.3081,272.832,151.457,4696.81,2688.47,7954.35,3.60956,-10.4359,1.88456,-558.918,8733.6,-508.101,31.5068,101.736,236.469,-668.859,-9736.02,-2612.77,-13.6988,-3.88569,40.3468,-5207.54,7348.58,880.437,47.5014,88.8968,101.53,768.686,-9780.4,-2062.18,-14.0989,-25.0242,50.6587,8618.16,-1253.94,1376.15,32.2836,10.9461,15.7246
5.102,5223.41,-309.698,8026.67,-48.3506,272.897,151.422,4758.88,2670.82,7954.45,3.42301,-10.3871,1.97343,-592.037,8758.58,-526.485,31.3482,101.29,237.23,-699.31,-9738.73,-2605.98,-13.6158,-3.52085,40.4611,-5177.4,7348.62,859.866,47.2307,88.2914,100.98,808.421,-9786.45,-2060.06,-14.0103,-24.9926,50.5227,8623.12,-1251.84,1379.72,32.4312,10.6141,15.694
5.1025,5288.77,-302.747,8040.57,-48.3119,273.068,151.301,4776.56,2666.78,7934.99,3.25625,-10.323,2.00987,-609.809,8787.2,-549.681,31.2029,100.944,237.944,-724.454,-9738.25,-2597.9,-13.5867,-3.23604,40.5352,-5150.82,7347.54,853.683,46.7726,88.1802,100.583,819.105,-9780.51,-2059.27,-13.9633,-25.0429,50.4568,8628.32,-1248.06,1379.75,32.6037,10.2754,15.7215
5.103,5372.53,-299.994,8064.22,-48.2084,273.323,151.11,4758.73,2673.63,7899.87,3.10532,-10.2467,2.00437,-615.302,8818.72,-576.728,31.0681,100.678,238.62,-745.352,-9735.23,-2588.79,-13.6006,-3.01525,40.5773,-5127.11,7345.56,859.01,46.1645,88.4646,100.311,806.548,-9765.0,-2059.54,-13.9497,-25.1587,50.4471,8633.7,-1242.94,1376.94,32.7961,9.93112,15.7955
5.1035,5456.29,-297.241,8087.87,-48.1049,273.578,150.92,4740.9,2680.47,7864.76,2.9544,-10.1704,1.99886,-620.795,8850.24,-603.775,30.9333,100.411,239.296,-766.25,-9732.21,-2579.68,-13.6145,-2.79446,40.6193,-5103.39,7343.58,864.338,45.5565,88.7489,100.039,793.991,-9749.48,-2059.81,-13.936,-25.2745,50.4373,8639.09,-1237.83,1374.12,32.9884,9.58689,15.8695
5.104,5540.06,-294.488,8111.52,-48.0014,273.834,150.729,4723.07,2687.32,7829.64,2.80347,-10.0941,1.99335,-626.288,8881.76,-630.821,30.7985,100.144,239.972,-787.149,-9729.19,-2570.56,-13.6284,-2.57367,40.6613,-5079.68,7341.6,869.665,44.9484,89.0333,99.7672,781.433,-9733.97,-2060.08,-13.9223,-25.3903,50.4276,8644.47,-1232.72,1371.31,33.1808,9.24265,15.9435
5.1045,5623.82,-291.735,8135.17,-47.8979,274.089,150.538,4705.23,2694.16,7794.52,2.65255,-10.0178,1.98784,-631.781,8913.28,-657.868,30.6637,99.8775,240.648,-808.047,-9726.17,-2561.45,-13.6424,-2.35289,40.7034,-5055.96,7339.62,874.992,44.3404,89.3176,99.4951,768.876,-9718.46,-2060.36,-13.9087,-25.5061,50.4179,8649.86,-1227.6,1368.49,33.3732,8.89841,16.0175
5.105,5707.59,-288.982,8158.82,-47.7944,274.345,150.347,4687.4,2701.01,7759.41,2.50162,-9.94144,1.98234,-637.274,8944.8,-684.915,30.529,99.6108,241.324,-828.945,-9723.14,-2552.33,-13.6563,-2.1321,40.7454,-5032.24,7337.64,880.32,43.7324,89.602,99.223,756.319,-9702.94,-2060.63,-13.895,-25.6219,50.4081,8655.25,-1222.49,1365.68,33.5656,8.55418,16.0916
5.1055,5791.35,-286.229,8182.47,-47.6909,274.6,150.157,4669.57,2707.85,7724.29,2.3507,-9.86513,1.97683,-642.767,8976.31,-711.962,30.3942,99.3441,242.0,-849.843,-9720.12,-2543.22,-13.6702,-1.91131,40.7874,-5008.53,7335.66,885.647,43.1243,89.8863,98.9509,743.761,-9687.43,-2060.9,-13.8814,-25.7377,50.3984,8660.63,-1217.37,1362.87,33.758,8.20994,16.1656
5.106,5875.11,-283.476,8206.12,-47.5874,274.855,149.966,4651.74,2714.7,7689.17,2.19978,-9.78881,1.97132,-648.26,9007.83,-739.008,30.2594,99.0774,242.676,-870.741,-9717.1,-2534.11,-13.6841,-1.69052,40.8295,-4984.81,7333.69,890.975,42.5163,90.1707,98.6788,731.204,-9671.91,-2061.17,-13.8677,-25.8535,50.3887,8666.02,-1212.26,1360.05,33.9504,7.8657,16.2396
5.1065,5958.88,-280.723,8229.77,-47.4838,275.111,149.775,4633.91,2721.54,7654.05,2.04885,-9.7125,1.96581,-653.753,9039.35,-766.055,30.1246,98.8107,243.352,-891.639,-9714.08,-2524.99,-13.698,-1.46973,40.8715,-4961.1,7331.71,896.302,41.9083,90.455,98.4067,718.646,-9656.4,-2061.44,-13.854,-25.9692,50.3789,8671.4,-1207.14,1357.24,34.1427,7.52147,16.3136
5.107,6018.79,-284.022,8247.91,-47.3777,275.407,149.512,4636.27,2755.2,7659.63,1.94247,-9.63315,2.00472,-657.128,9074.73,-781.283,30.0208,98.6165,243.961,-910.116,-9715.22,-2527.94,-13.6991,-1.38882,40.9356,-4947.34,7322.54,942.08,41.2965,90.574,98.3393,696.744,-9656.78,-2056.68,-13.8463,-26.1725,50.318,8679.3,-1198.69,1349.26,34.292,7.30956,16.367
5.1075,6066.79,-290.348,8263.28,-47.2703,275.723,149.212,4648.73,2802.26,7685.56,1.85837,-9.55227,2.06583,-659.445,9112.03,-790.602,29.9323,98.4586,244.536,-927.381,-9718.45,-2536.91,-13.6937,-1.37786,41.0107,-4938.55,7309.79,1008.08,40.6829,90.6103,98.3744,670.17,-9665.1,-2049.39,-13.8416,-26.4194,50.2315,8688.45,-1188.56,1338.7,34.4198,7.16381,16.41
5.108,6114.78,-296.674,8278.66,-47.1629,276.039,148.913,4661.19,2849.33,7711.49,1.77427,-9.47139,2.12694,-661.762,9149.33,-799.921,29.8439,98.3007,245.111,-944.647,-9721.68,-2545.89,-13.6883,-1.36689,41.0859,-4929.77,7297.04,1074.09,40.0692,90.6466,98.4095,643.595,-9673.43,-2042.1,-13.8368,-26.6663,50.1449,8697.59,-1178.43,1328.14,34.5475,7.01806,16.453
5.1085,6162.78,-303.0,8294.03,-47.0554,276.356,148.614,4673.64,2896.39,7737.42,1.69016,-9.39051,2.18806,-664.078,9186.63,-809.24,29.7555,98.1428,245.686,-961.912,-9724.91,-2554.86,-13.6829,-1.35592,41.161,-4920.99,7284.29,1140.09,39.4556,90.6829,98.4446,617.021,-9681.76,-2034.82,-13.8321,-26.9133,50.0584,8706.74,-1168.3,1317.58,34.6752,6.87231,16.496
5.109,6210.77,-309.326,8309.41,-46.948,276.672,148.314,4686.1,2943.46,7763.35,1.60606,-9.30963,2.24917,-666.395,9223.94,-818.559,29.6671,97.9849,246.261,-979.178,-9728.14,-2563.83,-13.6775,-1.34495,41.2361,-4912.2,7271.54,1206.1,38.842,90.7192,98.4797,590.446,-9690.09,-2027.53,-13.8273,-27.1602,49.9718,8715.89,-1158.17,1307.02,34.803,6.72656,16.5391
5.1095,6258.77,-315.652,8324.78,-46.8406,276.988,148.015,4698.56,2990.52,7789.29,1.52196,-9.22875,2.31028,-668.711,9261.24,-827.878,29.5786,97.827,246.836,-996.443,-9731.37,-2572.81,-13.6721,-1.33398,41.3113,-4903.42,7258.79,1272.1,38.2283,90.7555,98.5147,563.871,-9698.42,-2020.24,-13.8226,-27.4071,49.8853,8725.04,-1148.04,1296.46,34.9307,6.58081,16.5821
5.11,6306.76,-321.978,8340.15,-46.7331,277.305,147.715,4711.01,3037.59,7815.22,1.43785,-9.14788,2.37139,-671.028,9298.54,-837.198,29.4902,97.6691,247.411,-1013.71,-9734.6,-2581.78,-13.6667,-1.32301,41.3864,-4894.64,7246.04,1338.1,37.6147,90.7918,98.5498,537.297,-9706.74,-2012.96,-13.8178,-27.654,49.7988,8734.19,-1137.91,1285.9,35.0584,6.43506,16.6251
5.1105,6354.76,-328.304,8355.53,-46.6257,277.621,147.416,4723.47,3084.65,7841.15,1.35375,-9.067,2.4325,-673.345,9335.84,-846.516,29.4018,97.5111,247.986,-1030.97,-9737.83,-2590.76,-13.6613,-1.31204,41.4616,-4885.85,7233.28,1404.11,37.0011,90.8281,98.5849,510.722,-9715.07,-2005.67,-13.8131,-27.901,49.7122,8743.34,-1127.78,1275.33,35.1862,6.28931,16.6682
5.111,6402.75,-334.63,8370.9,-46.5183,277.937,147.116,4735.92,3131.72,7867.08,1.26965,-8.98612,2.49362,-675.661,9373.15,-855.836,29.3134,97.3532,248.561,-1048.24,-9741.06,-2599.73,-13.6559,-1.30108,41.5367,-4877.07,7220.53,1470.11,36.3874,90.8644,98.62,484.148,-9723.4,-1998.38,-13.8083,-28.1479,49.6257,8752.48,-1117.65,1264.77,35.3139,6.14356,16.7112
5.1115,6439.31,-329.761,8371.18,-46.3612,278.314,146.74,4733.96,3144.56,7876.16,1.16591,-8.96378,2.52823,-664.133,9397.72,-868.703,29.2186,97.326,249.105,-1064.48,-9741.49,-2603.64,-13.5614,-1.38818,41.6284,-4865.25,7183.98,1514.43,35.7873,90.3982,98.6766,494.538,-9724.86,-1996.86,-13.8357,-28.3423,49.6032,8762.49,-1107.31,1252.42,35.2517,6.06856,16.7965
5.112,6472.6,-321.693,8367.15,-46.19,278.707,146.341,4727.88,3147.63,7880.44,1.05655,-8.95816,2.55528,-648.649,9418.66,-882.585,29.1221,97.3362,249.64,-1080.42,-9741.13,-2606.1,-13.4415,-1.50331,41.7248,-4852.57,7140.63,1552.54,35.1911,89.7884,98.7393,515.491,-9724.36,-1996.98,-13.8722,-28.5217,49.599,8772.74,-1096.9,1239.55,35.1353,6.01378,16.8939
5.1125,6505.9,-313.625,8363.12,-46.0188,279.1,145.943,4721.8,3150.69,7884.72,0.947203,-8.95255,2.58233,-633.165,9439.6,-896.467,29.0255,97.3463,250.175,-1096.37,-9740.77,-2608.56,-13.3216,-1.61844,41.8212,-4839.88,7097.28,1590.66,34.5948,89.1786,98.802,536.443,-9723.87,-1997.11,-13.9088,-28.7012,49.5949,8782.99,-1086.5,1226.68,35.0188,5.959,16.9912
5.113,6539.19,-305.557,8359.09,-45.8475,279.493,145.545,4715.73,3153.76,7888.99,0.837851,-8.94693,2.60938,-617.681,9460.53,-910.348,28.9289,97.3564,250.71,-1112.31,-9740.41,-2611.02,-13.2016,-1.73356,41.9177,-4827.2,7053.93,1628.77,33.9986,88.5688,98.8648,557.395,-9723.37,-1997.23,-13.9453,-28.8806,49.5907,8793.24,-1076.1,1213.81,34.9024,5.90421,17.0886
5.1135,6572.48,-297.489,8355.05,-45.6763,279.886,145.146,4709.65,3156.82,7893.27,0.728499,-8.94131,2.63643,-602.197,9481.47,-924.23,28.8323,97.3666,251.245,-1128.26,-9740.05,-2613.48,-13.0817,-1.84869,42.0141,-4814.51,7010.58,1666.89,33.4024,87.9591,98.9275,578.347,-9722.87,-1997.36,-13.9818,-29.06,49.5865,8803.49,-1065.69,1200.95,34.7859,5.84943,17.186
5.114,6605.78,-289.421,8351.02,-45.5051,280.279,144.748,4703.57,3159.89,7897.55,0.619147,-8.93569,2.66348,-586.713,9502.41,-938.112,28.7358,97.3767,251.78,-1144.21,-9739.69,-2615.93,-12.9618,-1.96382,42.1105,-4801.83,6967.23,1705.0,32.8061,87.3493,98.9903,599.3,-9722.38,-1997.48,-14.0184,-29.2394,49.5823,8813.73,-1055.29,1188.08,34.6695,5.79465,17.2834
5.1145,6639.07,-281.354,8346.99,-45.3339,280.673,144.35,4697.49,3162.95,7901.82,0.509795,-8.93008,2.69053,-571.229,9523.34,-951.994,28.6392,97.3869,252.315,-1160.15,-9739.33,-2618.39,-12.8418,-2.07895,42.207,-4789.15,6923.87,1743.12,32.2099,86.7395,99.053,620.252,-9721.88,-1997.61,-14.0549,-29.4188,49.5782,8823.98,-1044.88,1175.21,34.553,5.73986,17.3807
5.115,6672.36,-273.286,8342.96,-45.1627,281.066,143.951,4691.41,3166.02,7906.1,0.400443,-8.92446,2.71758,-555.745,9544.28,-965.875,28.5426,97.397,252.85,-1176.1,-9738.97,-2620.85,-12.7219,-2.19407,42.3034,-4776.46,6880.52,1781.23,31.6136,86.1297,99.1158,641.204,-9721.38,-1997.73,-14.0914,-29.5983,49.574,8834.23,-1034.48,1162.34,34.4366,5.68508,17.4781
5.1155,6705.66,-265.218,8338.92,-44.9914,281.459,143.553,4685.33,3169.08,7910.37,0.291091,-8.91884,2.74462,-540.261,9565.22,-979.757,28.4461,97.4071,253.385,-1192.04,-9738.61,-2623.31,-12.602,-2.3092,42.3998,-4763.78,6837.17,1819.35,31.0174,85.5199,99.1785,662.156,-9720.89,-1997.85,-14.128,-29.7777,49.5698,8844.48,-1024.08,1149.47,34.3202,5.6303,17.5755
5.116,6726.4,-283.061,8347.71,-44.9321,281.725,143.198,4702.16,3154.94,7948.38,0.367556,-8.94455,2.90725,-536.619,9582.65,-1016.34,28.3563,97.4882,253.865,-1216.79,-9740.21,-2620.16,-12.4539,-2.39654,42.4686,-4755.04,6798.79,1798.23,30.3048,84.7834,99.1873,663.312,-9712.61,-1999.87,-14.1003,-29.9409,49.6094,8856.93,-1018.57,1152.1,33.9949,5.66645,17.7061
5.1165,6745.57,-304.143,8358.09,-44.8868,281.974,142.849,4721.86,3138.66,7990.61,0.467248,-8.97418,3.08683,-534.458,9599.63,-1055.76,28.2675,97.5782,254.339,-1242.64,-9742.06,-2616.31,-12.3022,-2.48041,42.5339,-4746.8,6761.03,1769.71,29.5777,84.0311,99.1893,661.993,-9703.37,-2002.13,-14.0645,-30.1021,49.6544,8869.66,-1013.67,1156.66,33.6434,5.71397,17.8408
5.117,6764.74,-325.225,8368.48,-44.8414,282.224,142.5,4741.56,3122.37,8032.83,0.56694,-9.00381,3.2664,-532.296,9616.62,-1095.19,28.1786,97.6681,254.813,-1268.48,-9743.91,-2612.46,-12.1506,-2.56428,42.5992,-4738.56,6723.27,1741.19,28.8507,83.2788,99.1914,660.674,-9694.12,-2004.38,-14.0288,-30.2633,49.6994,8882.38,-1008.78,1161.22,33.292,5.76149,17.9755
5.1175,6783.91,-346.307,8378.86,-44.7961,282.474,142.151,4761.26,3106.08,8075.06,0.666632,-9.03343,3.44597,-530.135,9633.61,-1134.61,28.0897,97.7581,255.286,-1294.33,-9745.76,-2608.61,-11.999,-2.64814,42.6645,-4730.32,6685.5,1712.67,28.1236,82.5264,99.1934,659.355,-9684.88,-2006.64,-13.993,-30.4245,49.7444,8895.11,-1003.88,1165.78,32.9406,5.80901,18.1103
5.118,6803.08,-367.389,8389.25,-44.7507,282.723,141.802,4780.96,3089.79,8117.28,0.766324,-9.06306,3.62555,-527.973,9650.6,-1174.03,28.0009,97.848,255.76,-1320.17,-9747.61,-2604.76,-11.8474,-2.73201,42.7298,-4722.08,6647.74,1684.15,27.3965,81.7741,99.1954,658.036,-9675.63,-2008.89,-13.9573,-30.5857,49.7894,8907.84,-998.986,1170.34,32.5892,5.85653,18.245
5.1185,6822.25,-388.471,8399.63,-44.7054,282.973,141.453,4800.66,3073.5,8159.5,0.866016,-9.09268,3.80512,-525.811,9667.59,-1213.45,27.912,97.938,256.234,-1346.02,-9749.46,-2600.91,-11.6958,-2.81588,42.7951,-4713.84,6609.98,1655.63,26.6694,81.0217,99.1975,656.717,-9666.38,-2011.15,-13.9216,-30.7469,49.8345,8920.57,-994.091,1174.9,32.2378,5.90405,18.3798
5.119,6841.42,-409.553,8410.02,-44.66,283.223,141.103,4820.36,3057.22,8201.73,0.965708,-9.12231,3.9847,-523.65,9684.57,-1252.87,27.8231,98.0279,256.707,-1371.87,-9751.31,-2597.06,-11.5442,-2.89974,42.8604,-4705.6,6572.22,1627.11,25.9423,80.2694,99.1995,655.398,-9657.14,-2013.4,-13.8858,-30.9081,49.8795,8933.29,-989.195,1179.46,31.8864,5.95157,18.5145
5.1195,6860.59,-430.635,8420.4,-44.6147,283.472,140.754,4840.06,3040.93,8243.95,1.0654,-9.15194,4.16427,-521.488,9701.56,-1292.3,27.7342,98.1179,257.181,-1397.71,-9753.16,-2593.21,-11.3926,-2.98361,42.9257,-4697.36,6534.46,1598.59,25.2152,79.5171,99.2016,654.078,-9647.89,-2015.66,-13.8501,-31.0693,49.9245,8946.02,-984.3,1184.02,31.535,5.99908,18.6492
5.12,6879.76,-451.717,8430.79,-44.5694,283.722,140.405,4859.76,3024.64,8286.18,1.16509,-9.18156,4.34385,-519.326,9718.55,-1331.72,27.6454,98.2079,257.654,-1423.56,-9755.01,-2589.36,-11.2409,-3.06748,42.991,-4689.12,6496.7,1570.07,24.4881,78.7647,99.2036,652.759,-9638.65,-2017.92,-13.8143,-31.2305,49.9695,8958.75,-979.404,1188.59,31.1836,6.0466,18.784
5.1205,6916.92,-441.442,8487.62,-44.5039,283.933,139.982,4891.45,2997.08,8290.45,1.18199,-9.24852,4.37841,-521.922,9747.97,-1344.73,27.6036,98.4092,257.986,-1453.7,-9756.99,-2573.83,-11.1483,-3.18818,42.9866,-4712.67,6457.95,1536.15,23.8864,77.8188,99.0947,664.388,-9624.4,-2022.15,-13.96,-31.4111,50.0665,8966.46,-983.895,1202.83,30.7297,6.0975,18.8524
5.121,6954.08,-431.167,8544.45,-44.4384,284.144,139.56,4923.13,2969.52,8294.71,1.19889,-9.31548,4.41297,-524.517,9777.4,-1357.75,27.5618,98.6105,258.318,-1483.84,-9758.97,-2558.3,-11.0556,-3.30889,42.9821,-4736.22,6419.21,1502.23,23.2846,76.8729,98.9857,676.017,-9610.15,-2026.39,-14.1056,-31.5917,50.1635,8974.18,-988.386,1217.08,30.2758,6.14839,18.9209
5.1215,6991.24,-420.892,8601.29,-44.373,284.355,139.137,4954.82,2941.97,8298.98,1.21579,-9.38244,4.44753,-527.113,9806.82,-1370.76,27.52,98.8118,258.65,-1513.99,-9760.95,-2542.77,-10.9629,-3.42959,42.9776,-4759.76,6380.47,1468.3,22.6828,75.9269,98.8767,687.646,-9595.9,-2030.62,-14.2512,-31.7723,50.2605,8981.9,-992.877,1231.32,29.8219,6.19928,18.9893
5.122,7028.4,-410.617,8658.12,-44.3075,284.566,138.714,4986.51,2914.41,8303.25,1.23269,-9.4494,4.48209,-529.708,9836.24,-1383.78,27.4783,99.0131,258.982,-1544.13,-9762.93,-2527.24,-10.8702,-3.55029,42.9732,-4783.31,6341.72,1434.38,22.081,74.981,98.7678,699.275,-9581.65,-2034.86,-14.3969,-31.9529,50.3576,8989.62,-997.368,1245.57,29.368,6.25017,19.0578
5.1225,7065.56,-400.342,8714.96,-44.2421,284.777,138.292,5018.19,2886.85,8307.52,1.24959,-9.51636,4.51665,-532.304,9865.66,-1396.79,27.4365,99.2144,259.314,-1574.27,-9764.91,-2511.71,-10.7775,-3.671,42.9687,-4806.86,6302.98,1400.46,21.4793,74.0351,98.6588,710.903,-9567.41,-2039.09,-14.5425,-32.1335,50.4546,8997.34,-1001.86,1259.81,28.9141,6.30107,19.1262
5.123,7102.72,-390.067,8771.79,-44.1766,284.988,137.869,5049.88,2859.29,8311.78,1.26649,-9.58332,4.55121,-534.899,9895.08,-1409.81,27.3947,99.4157,259.646,-1604.41,-9766.88,-2496.18,-10.6848,-3.7917,42.9643,-4830.41,6264.23,1366.53,20.8775,73.0891,98.5499,722.532,-9553.16,-2043.33,-14.6882,-32.3141,50.5516,9005.05,-1006.35,1274.06,28.4602,6.35196,19.1947
5.1235,7139.88,-379.792,8828.62,-44.1111,285.199,137.446,5081.56,2831.73,8316.05,1.28338,-9.65028,4.58577,-537.495,9924.51,-1422.82,27.353,99.617,259.978,-1634.56,-9768.86,-2480.65,-10.5921,-3.91241,42.9598,-4853.95,6225.49,1332.61,20.2757,72.1432,98.4409,734.161,-9538.91,-2047.56,-14.8338,-32.4947,50.6486,9012.77,-1010.84,1288.31,28.0063,6.40285,19.2631
5.124,7177.04,-369.517,8885.46,-44.0457,285.41,137.024,5113.25,2804.17,8320.32,1.30028,-9.71724,4.62033,-540.09,9953.93,-1435.84,27.3112,99.8183,260.311,-1664.7,-9770.84,-2465.12,-10.4995,-4.03311,42.9553,-4877.5,6186.75,1298.69,19.674,71.1973,98.332,745.79,-9524.66,-2051.8,-14.9794,-32.6754,50.7456,9020.49,-1015.33,1302.55,27.5524,6.45374,19.3316
5.1245,7212.34,-361.359,8937.06,-43.9713,285.618,136.6,5141.13,2776.18,8322.34,1.32315,-9.77949,4.66704,-542.948,9986.08,-1448.42,27.2727,100.031,260.652,-1693.28,-9773.85,-2449.75,-10.4096,-4.16649,42.951,-4900.16,6148.53,1265.29,19.11,70.2235,98.2113,759.045,-9512.92,-2057.16,-15.1317,-32.8541,50.8484,9027.08,-1020.06,1315.79,27.1121,6.50237,19.4002
5.125,7232.7,-370.132,8946.85,-43.8252,285.801,136.168,5138.55,2744.75,8306.37,1.39371,-9.8041,4.811,-547.901,10040.1,-1457.52,27.2608,100.336,261.071,-1709.38,-9785.04,-2435.73,-10.3424,-4.4013,42.9478,-4915.75,6114.56,1236.11,18.8483,69.027,97.9972,785.31,-9521.22,-2071.52,-15.3374,-33.0181,50.9977,9024.66,-1026.7,1320.97,26.7802,6.5329,19.4704
5.1255,7253.06,-378.906,8956.65,-43.6792,285.985,135.736,5135.97,2713.32,8290.4,1.46428,-9.82871,4.95496,-552.855,10094.1,-1466.62,27.2489,100.641,261.49,-1725.48,-9796.23,-2421.71,-10.2753,-4.63611,42.9447,-4931.33,6080.58,1206.93,18.5865,67.8305,97.7831,811.576,-9529.53,-2085.88,-15.543,-33.182,51.147,9022.24,-1033.33,1326.15,26.4483,6.56344,19.5406
5.126,7273.42,-387.679,8966.44,-43.5332,286.168,135.305,5133.39,2681.89,8274.44,1.53485,-9.85332,5.09893,-557.809,10148.1,-1475.72,27.2369,100.946,261.908,-1741.58,-9807.42,-2407.69,-10.2081,-4.87092,42.9415,-4946.92,6046.61,1177.75,18.3248,66.634,97.5689,837.841,-9537.83,-2100.23,-15.7486,-33.346,51.2964,9019.82,-1039.97,1331.33,26.1164,6.59397,19.6108
5.1265,7293.78,-396.452,8976.23,-43.3871,286.352,134.873,5130.81,2650.46,8258.47,1.60542,-9.87793,5.24289,-562.762,10202.1,-1484.82,27.225,101.251,262.327,-1757.68,-9818.61,-2393.67,-10.141,-5.10573,42.9383,-4962.51,6012.63,1148.58,18.0631,65.4375,97.3548,864.107,-9546.14,-2114.59,-15.9542,-33.5099,51.4457,9017.4,-1046.6,1336.52,25.7845,6.6245,19.681
5.127,7314.14,-405.226,8986.02,-43.2411,286.535,134.441,5128.24,2619.03,8242.51,1.67599,-9.90254,5.38685,-567.716,10256.1,-1493.92,27.213,101.556,262.746,-1773.78,-9829.81,-2379.65,-10.0738,-5.34054,42.9351,-4978.1,5978.65,1119.4,17.8013,64.241,97.1406,890.372,-9554.44,-2128.95,-16.1599,-33.6739,51.595,9014.99,-1053.24,1341.7,25.4526,6.65503,19.7512
5.1275,7334.5,-413.999,8995.81,-43.0951,286.718,134.009,5125.66,2587.6,8226.54,1.74656,-9.92715,5.53081,-572.669,10310.1,-1503.02,27.2011,101.861,263.164,-1789.89,-9841.0,-2365.62,-10.0066,-5.57536,42.932,-4993.68,5944.68,1090.22,17.5396,63.0445,96.9265,916.638,-9562.74,-2143.31,-16.3655,-33.8378,51.7443,9012.57,-1059.88,1346.88,25.1207,6.68556,19.8214
5.128,7354.86,-422.773,9005.6,-42.949,286.902,133.578,5123.08,2556.17,8210.57,1.81713,-9.95177,5.67477,-577.623,10364.1,-1512.12,27.1892,102.166,263.583,-1805.99,-9852.19,-2351.6,-9.93947,-5.81017,42.9288,-5009.27,5910.7,1061.04,17.2779,61.8479,96.7123,942.903,-9571.05,-2157.67,-16.5711,-34.0018,51.8937,9010.15,-1066.51,1352.06,24.7888,6.71609,19.8916
5.1285,7375.22,-431.546,9015.4,-42.803,287.085,133.146,5120.5,2524.74,8194.61,1.8877,-9.97638,5.81873,-582.577,10418.1,-1521.22,27.1772,102.471,264.002,-1822.09,-9863.38,-2337.58,-9.87231,-6.04498,42.9256,-5024.86,5876.73,1031.86,17.0162,60.6514,96.4982,969.168,-9579.35,-2172.02,-16.7768,-34.1657,52.043,9007.73,-1073.15,1357.24,24.4569,6.74662,19.9617
5.129,7398.79,-438.657,9027.71,-42.6769,287.27,132.736,5118.03,2502.64,8178.31,1.96293,-9.99302,5.93599,-588.98,10467.9,-1531.32,27.1545,102.747,264.426,-1833.9,-9872.87,-2322.97,-9.80929,-6.29149,42.9332,-5042.67,5843.31,1002.4,16.8292,59.4154,96.2463,994.974,-9584.39,-2183.75,-16.9506,-34.2981,52.1448,9007.0,-1079.58,1360.77,24.1643,6.77743,20.0316
5.1295,7433.61,-439.946,9048.87,-42.6207,287.457,132.401,5115.91,2513.21,8160.87,2.05445,-9.98176,5.95977,-600.454,10503.1,-1544.87,27.0938,102.923,264.868,-1830.71,-9876.41,-2306.29,-9.7608,-6.57898,42.9784,-5068.28,5811.85,971.913,16.904,58.0408,95.8625,1019.17,-9578.02,-2186.25,-17.0132,-34.3197,52.0805,9012.18,-1085.29,1358.53,24.0097,6.80919,20.1004
5.13,7468.42,-441.235,9070.02,-42.5645,287.645,132.066,5113.79,2523.78,8143.42,2.14597,-9.97051,5.98355,-611.929,10538.4,-1558.43,27.0332,103.1,265.311,-1827.53,-9879.94,-2289.62,-9.71231,-6.86647,43.0236,-5093.88,5780.39,941.43,16.9787,56.6662,95.4787,1043.36,-9571.65,-2188.76,-17.0759,-34.3414,52.0162,9017.36,-1091.0,1356.29,23.855,6.84095,20.1691
5.1305,7503.24,-442.525,9091.17,-42.5083,287.832,131.731,5111.68,2534.35,8125.97,2.2375,-9.95925,6.00733,-623.404,10573.6,-1571.99,26.9726,103.276,265.753,-1824.34,-9883.48,-2272.94,-9.66381,-7.15395,43.0688,-5119.49,5748.92,910.946,17.0535,55.2916,95.0949,1067.56,-9565.28,-2191.26,-17.1385,-34.3631,51.9519,9022.54,-1096.7,1354.05,23.7003,6.87272,20.2379
5.131,7538.05,-443.814,9112.33,-42.452,288.02,131.397,5109.56,2544.91,8108.53,2.32902,-9.94799,6.03111,-634.879,10608.9,-1585.54,26.9119,103.452,266.195,-1821.15,-9887.02,-2256.27,-9.61532,-7.44144,43.114,-5145.09,5717.46,880.463,17.1283,53.917,94.7111,1091.75,-9558.91,-2193.76,-17.2011,-34.3847,51.8876,9027.72,-1102.41,1351.81,23.5457,6.90448,20.3066
5.1315,7572.87,-445.104,9133.48,-42.3958,288.207,131.062,5107.45,2555.48,8091.08,2.42054,-9.93674,6.05488,-646.353,10644.1,-1599.1,26.8513,103.628,266.638,-1817.96,-9890.55,-2239.59,-9.56682,-7.72893,43.1592,-5170.7,5686.0,849.98,17.203,52.5424,94.3273,1115.95,-9552.54,-2196.27,-17.2637,-34.4064,51.8233,9032.9,-1108.12,1349.57,23.391,6.93625,20.3754
5.132,7607.68,-446.393,9154.63,-42.3396,288.395,130.727,5105.33,2566.05,8073.64,2.51206,-9.92548,6.07866,-657.828,10679.4,-1612.66,26.7907,103.805,267.08,-1814.77,-9894.09,-2222.92,-9.51833,-8.01642,43.2044,-5196.31,5654.54,819.497,17.2778,51.1678,93.9435,1140.14,-9546.17,-2198.77,-17.3263,-34.4281,51.759,9038.09,-1113.83,1347.33,23.2363,6.96801,20.4441
5.1325,7642.5,-447.682,9175.79,-42.2834,288.582,130.392,5103.21,2576.62,8056.19,2.60359,-9.91423,6.10244,-669.303,10714.6,-1626.21,26.73,103.981,267.523,-1811.59,-9897.63,-2206.24,-9.46983,-8.3039,43.2496,-5221.91,5623.08,789.014,17.3526,49.7932,93.5597,1164.34,-9539.8,-2201.28,-17.389,-34.4497,51.6947,9043.27,-1119.54,1345.09,23.0816,6.99978,20.5129
5.133,7677.31,-448.972,9196.94,-42.2272,288.77,130.058,5101.1,2587.18,8038.74,2.69511,-9.90297,6.12622,-680.778,10749.9,-1639.77,26.6694,104.157,267.965,-1808.4,-9901.16,-2189.56,-9.42134,-8.59139,43.2948,-5247.52,5591.61,758.531,17.4273,48.4186,93.1759,1188.53,-9533.43,-2203.78,-17.4516,-34.4714,51.6304,9048.45,-1125.25,1342.85,22.927,7.03154,20.5816
5.1335,7705.85,-455.508,9221.77,-42.1362,288.894,129.762,5092.0,2600.89,8028.1,2.78838,-9.9309,6.16435,-691.649,10790.2,-1649.11,26.6089,104.348,268.377,-1804.57,-9903.62,-2178.2,-9.39213,-8.90851,43.3436,-5277.97,5562.99,734.415,17.5618,47.0354,92.7596,1204.84,-9528.22,-2198.11,-17.5623,-34.5582,51.6351,9055.88,-1128.04,1341.06,22.8239,7.03215,20.64
5.134,7721.82,-472.538,9253.97,-41.9759,288.892,129.547,5068.93,2620.88,8031.09,2.88516,-10.0372,6.23115,-701.312,10840.7,-1650.03,26.5489,104.567,268.728,-1799.44,-9903.94,-2177.46,-9.40148,-9.28489,43.3996,-5318.1,5540.04,723.036,17.8158,45.6349,92.2782,1205.37,-9525.33,-2176.1,-17.7693,-34.7755,51.778,9067.8,-1124.99,1340.14,22.8239,6.97044,20.6777
5.1345,7737.8,-489.568,9286.16,-41.8156,288.889,129.331,5045.86,2640.87,8034.07,2.98193,-10.1435,6.29796,-710.976,10891.2,-1650.94,26.4888,104.786,269.078,-1794.32,-9904.25,-2176.72,-9.41084,-9.66128,43.4556,-5358.24,5517.1,711.657,18.0698,44.2344,91.7969,1205.9,-9522.44,-2154.09,-17.9762,-34.9927,51.9209,9079.72,-1121.93,1339.23,22.8239,6.90874,20.7153
5.135,7753.77,-506.599,9318.35,-41.6552,288.887,129.115,5022.78,2660.86,8037.05,3.0787,-10.2498,6.36477,-720.639,10941.6,-1651.85,26.4287,105.005,269.429,-1789.2,-9904.57,-2175.98,-9.42019,-10.0377,43.5116,-5398.38,5494.15,700.277,18.3237,42.834,91.3155,1206.44,-9519.55,-2132.08,-18.1832,-35.2099,52.0638,9091.64,-1118.88,1338.31,22.8239,6.84703,20.753
5.1355,7769.75,-523.629,9350.54,-41.4949,288.885,128.9,4999.71,2680.85,8040.03,3.17548,-10.3561,6.43158,-730.302,10992.1,-1652.77,26.3686,105.225,269.779,-1784.07,-9904.88,-2175.24,-9.42955,-10.414,43.5676,-5438.51,5471.21,688.898,18.5777,41.4335,90.8341,1206.97,-9516.67,-2110.07,-18.3901,-35.4272,52.2067,9103.56,-1115.83,1337.39,22.8239,6.78533,20.7907
5.136,7785.73,-540.659,9382.73,-41.3345,288.882,128.684,4976.64,2700.83,8043.01,3.27225,-10.4624,6.49839,-739.966,11042.6,-1653.68,26.3086,105.444,270.13,-1778.95,-9905.2,-2174.5,-9.4389,-10.7904,43.6236,-5478.65,5448.26,677.518,18.8317,40.033,90.3527,1207.5,-9513.78,-2088.06,-18.5971,-35.6444,52.3496,9115.49,-1112.77,1336.48,22.8239,6.72362,20.8283
5.1365,7801.71,-557.689,9414.92,-41.1742,288.88,128.468,4953.57,2720.82,8045.99,3.36902,-10.5687,6.56519,-749.629,11093.1,-1654.59,26.2485,105.663,270.48,-1773.83,-9905.51,-2173.76,-9.44826,-11.1668,43.6796,-5518.79,5425.32,666.139,19.0856,38.6325,89.8714,1208.03,-9510.89,-2066.05,-18.804,-35.8616,52.4925,9127.41,-1109.72,1335.56,22.824,6.66192,20.866
5.137,7817.68,-574.719,9447.12,-41.0139,288.878,128.253,4930.5,2740.81,8048.97,3.4658,-10.6751,6.632,-759.292,11143.6,-1655.5,26.1884,105.883,270.831,-1768.7,-9905.83,-2173.02,-9.45761,-11.5432,43.7356,-5558.92,5402.37,654.76,19.3396,37.2321,89.39,1208.56,-9508.0,-2044.03,-19.011,-36.0789,52.6353,9139.33,-1106.67,1334.65,22.824,6.60021,20.9036
5.1375,7833.66,-591.749,9479.31,-40.8535,288.875,128.037,4907.43,2760.8,8051.95,3.56257,-10.7814,6.69881,-768.956,11194.1,-1656.42,26.1283,106.102,271.181,-1763.58,-9906.14,-2172.28,-9.46697,-11.9196,43.7915,-5599.06,5379.43,643.38,19.5936,35.8316,88.9086,1209.1,-9505.12,-2022.02,-19.2179,-36.2961,52.7782,9151.25,-1103.61,1333.73,22.824,6.53851,20.9413
5.138,7859.55,-616.429,9517.34,-40.6576,288.877,127.783,4882.09,2777.18,8056.44,3.58864,-10.8664,6.78328,-777.429,11251.8,-1663.05,26.0826,106.314,271.553,-1760.09,-9899.11,-2172.37,-9.49381,-12.2625,43.8577,-5635.18,5366.47,637.916,19.8336,34.4125,88.431,1218.53,-9508.68,-2002.46,-19.3064,-36.5516,52.8634,9156.0,-1101.99,1332.6,22.8527,6.49058,20.946
5.1385,7897.83,-650.671,9562.68,-40.4172,288.883,127.481,4853.93,2789.04,8062.81,3.52632,-10.9249,6.88983,-784.416,11318.5,-1676.83,26.0546,106.519,271.952,-1758.63,-9882.9,-2173.51,-9.54252,-12.5637,43.9365,-5666.29,5366.01,639.844,20.0561,32.9702,87.958,1239.09,-9520.32,-1985.94,-19.2466,-36.855,52.8764,9151.77,-1102.14,1331.18,22.9172,6.45987,20.9094
5.139,7936.12,-684.914,9608.02,-40.1767,288.889,127.178,4825.77,2800.91,8069.17,3.46399,-10.9834,6.99637,-791.402,11385.2,-1690.61,26.0267,106.723,272.35,-1757.17,-9866.68,-2174.64,-9.59123,-12.8648,44.0154,-5697.39,5365.55,641.773,20.2786,31.5278,87.485,1259.66,-9531.95,-1969.43,-19.1869,-37.1584,52.8894,9147.55,-1102.29,1329.77,22.9817,6.42916,20.8727
5.1395,7974.4,-719.156,9653.35,-39.9363,288.895,126.876,4797.6,2812.77,8075.54,3.40167,-11.0419,7.10292,-798.389,11451.9,-1704.4,25.9988,106.928,272.749,-1755.71,-9850.47,-2175.77,-9.63994,-13.166,44.0942,-5728.5,5365.08,643.702,20.5012,30.0855,87.0121,1280.22,-9543.58,-1952.92,-19.1272,-37.4618,52.9024,9143.32,-1102.44,1328.36,23.0463,6.39845,20.8361
5.14,8012.68,-753.398,9698.69,-39.6959,288.901,126.574,4769.44,2824.64,8081.91,3.33935,-11.1004,7.20946,-805.375,11518.6,-1718.18,25.9709,107.132,273.147,-1754.26,-9834.25,-2176.91,-9.68865,-13.4671,44.1731,-5759.61,5364.62,645.63,20.7237,28.6431,86.5391,1300.79,-9555.22,-1936.4,-19.0675,-37.7652,52.9154,9139.1,-1102.59,1326.94,23.1108,6.36774,20.7995
5.1405,8050.97,-787.64,9744.03,-39.4555,288.907,126.272,4741.27,2836.5,8088.27,3.27703,-11.1589,7.31601,-812.362,11585.3,-1731.96,25.943,107.337,273.546,-1752.8,-9818.03,-2178.04,-9.73735,-13.7683,44.2519,-5790.71,5364.15,647.559,20.9462,27.2008,86.0661,1321.35,-9566.85,-1919.89,-19.0077,-38.0686,52.9284,9134.88,-1102.74,1325.53,23.1753,6.33703,20.7629
5.141,8089.25,-821.883,9789.36,-39.2151,288.913,125.97,4713.11,2848.37,8094.64,3.21471,-11.2174,7.42256,-819.348,11652.0,-1745.74,25.9151,107.541,273.945,-1751.34,-9801.82,-2179.18,-9.78606,-14.0694,44.3308,-5821.82,5363.69,649.488,21.1687,25.7584,85.5931,1341.92,-9578.49,-1903.37,-18.948,-38.372,52.9414,9130.65,-1102.89,1324.11,23.2398,6.30632,20.7263
5.1415,8127.53,-856.125,9834.7,-38.9746,288.919,125.667,4684.95,2860.23,8101.01,3.15239,-11.2759,7.5291,-826.335,11718.7,-1759.53,25.8872,107.746,274.343,-1749.89,-9785.6,-2180.31,-9.83477,-14.3706,44.4096,-5852.92,5363.23,651.417,21.3912,24.3161,85.1201,1362.48,-9590.12,-1886.86,-18.8883,-38.6754,52.9544,9126.43,-1103.04,1322.7,23.3044,6.27561,20.6897
5.142,8165.82,-890.367,9880.03,-38.7342,288.925,125.365,4656.78,2872.1,8107.38,3.09006,-11.3344,7.63565,-833.321,11785.4,-1773.31,25.8593,107.95,274.742,-1748.43,-9769.39,-2181.45,-9.88348,-14.6717,44.4885,-5884.03,5362.76,653.345,21.6138,22.8738,84.6471,1383.04,-9601.75,-1870.35,-18.8286,-38.9788,52.9675,9122.2,-1103.19,1321.28,23.3689,6.2449,20.6531
5.1425,8194.96,-901.726,9923.62,-38.5258,288.939,125.185,4650.46,2879.38,8114.01,3.0285,-11.4059,7.68369,-833.446,11844.7,-1784.53,25.8103,108.149,275.138,-1731.07,-9760.26,-2178.48,-9.91794,-14.9247,44.5688,-5922.32,5380.07,648.917,21.7578,21.4549,84.261,1401.85,-9610.29,-1848.49,-18.8011,-39.3502,52.9706,9112.25,-1103.44,1321.92,23.4166,6.22311,20.6001
5.143,8216.8,-894.779,9965.81,-38.3429,288.96,125.101,4661.6,2883.0,8120.86,2.96754,-11.4878,7.68494,-828.082,11898.0,-1793.7,25.7445,108.343,275.532,-1700.99,-9756.79,-2172.24,-9.941,-15.1392,44.6504,-5966.37,5411.6,639.403,21.8391,20.055,83.9443,1419.25,-9616.35,-1822.35,-18.7993,-39.7761,52.966,9097.7,-1103.79,1324.19,23.4509,6.20845,20.5341
5.1435,8238.63,-887.832,10008.0,-38.16,288.98,125.018,4672.75,2886.62,8127.72,2.90658,-11.5696,7.68618,-822.719,11951.4,-1802.88,25.6787,108.538,275.927,-1670.92,-9753.33,-2166.0,-9.96406,-15.3537,44.732,-6010.42,5443.13,629.89,21.9204,18.655,83.6276,1436.65,-9622.41,-1796.21,-18.7975,-40.2019,52.9613,9083.15,-1104.13,1326.46,23.4852,6.19378,20.4681
5.144,8260.47,-880.885,10050.2,-37.9772,289.001,124.935,4683.89,2890.24,8134.57,2.84562,-11.6515,7.68742,-817.355,12004.8,-1812.05,25.6129,108.733,276.321,-1640.84,-9749.86,-2159.76,-9.98713,-15.5681,44.8136,-6054.46,5474.66,620.376,22.0017,17.255,83.3108,1454.06,-9628.46,-1770.08,-18.7958,-40.6278,52.9567,9068.61,-1104.47,1328.73,23.5195,6.17912,20.402
5.1445,8282.3,-873.938,10092.4,-37.7943,289.021,124.852,4695.03,2893.85,8141.42,2.78466,-11.7333,7.68866,-811.991,12058.1,-1821.22,25.5471,108.927,276.716,-1610.76,-9746.4,-2153.52,-10.0102,-15.7826,44.8952,-6098.51,5506.19,610.862,22.083,15.855,82.9941,1471.46,-9634.52,-1743.94,-18.794,-41.0536,52.952,9054.06,-1104.81,1331.0,23.5538,6.16446,20.336
5.145,8304.13,-866.991,10134.6,-37.6114,289.042,124.768,4706.18,2897.47,8148.28,2.7237,-11.8152,7.6899,-806.627,12111.5,-1830.4,25.4813,109.122,277.11,-1580.68,-9742.93,-2147.28,-10.0332,-15.9971,44.9768,-6142.55,5537.73,601.349,22.1643,14.4551,82.6774,1488.86,-9640.58,-1717.8,-18.7923,-41.4794,52.9473,9039.52,-1105.15,1333.27,23.5882,6.1498,20.27
5.1455,8325.97,-860.043,10176.7,-37.4286,289.062,124.685,4717.32,2901.09,8155.13,2.66274,-11.897,7.69114,-801.263,12164.9,-1839.57,25.4155,109.316,277.504,-1550.61,-9739.47,-2141.04,-10.0563,-16.2115,45.0584,-6186.6,5569.26,591.835,22.2456,13.0551,82.3607,1506.26,-9646.64,-1691.66,-18.7905,-41.9053,52.9427,9024.97,-1105.49,1335.54,23.6225,6.13514,20.204
5.146,8347.8,-853.096,10218.9,-37.2457,289.083,124.602,4728.47,2904.71,8161.98,2.60178,-11.9789,7.69239,-795.899,12218.3,-1848.75,25.3497,109.511,277.899,-1520.53,-9736.0,-2134.8,-10.0794,-16.426,45.1399,-6230.64,5600.79,582.321,22.3269,11.6551,82.044,1523.66,-9652.7,-1665.53,-18.7888,-42.3311,52.938,9010.42,-1105.83,1337.81,23.6568,6.12047,20.1379
5.1465,8369.63,-846.149,10261.1,-37.0628,289.103,124.519,4739.61,2908.33,8168.84,2.54082,-12.0607,7.69363,-790.535,12271.6,-1857.92,25.2839,109.705,278.293,-1490.45,-9732.54,-2128.56,-10.1024,-16.6404,45.2215,-6274.69,5632.32,572.807,22.4082,10.2551,81.7273,1541.06,-9658.76,-1639.39,-18.787,-42.757,52.9334,8995.88,-1106.18,1340.08,23.6911,6.10581,20.0719
5.147,8399.38,-852.367,10278.1,-36.9955,289.023,124.454,4749.47,2900.96,8155.23,2.47831,-12.0921,7.74482,-801.496,12334.7,-1860.93,25.23,109.923,278.631,-1473.67,-9729.28,-2130.58,-10.1438,-16.7666,45.2968,-6314.89,5666.44,556.111,22.3301,9.01299,81.5159,1563.55,-9665.4,-1611.89,-18.7508,-43.1622,52.8809,8983.41,-1106.82,1341.91,23.7188,6.09869,19.9899
5.1475,8433.07,-865.168,10282.5,-36.986,288.893,124.397,4758.69,2888.09,8131.4,2.41503,-12.0983,7.82099,-820.619,12402.7,-1860.86,25.1821,110.152,278.94,-1463.53,-9726.12,-2136.74,-10.1944,-16.8486,45.369,-6353.16,5701.86,535.824,22.1723,7.84974,81.3573,1588.59,-9672.33,-1583.71,-18.6973,-43.5571,52.8045,8971.98,-1107.62,1343.53,23.7433,6.09533,19.8999
5.148,8466.77,-877.969,10286.9,-36.9764,288.763,124.341,4767.91,2875.22,8107.56,2.35175,-12.1045,7.89716,-839.741,12470.7,-1860.78,25.1342,110.38,279.25,-1453.39,-9722.97,-2142.89,-10.2449,-16.9306,45.4411,-6391.43,5737.27,515.537,22.0144,6.6865,81.1987,1613.62,-9679.26,-1555.53,-18.6438,-43.952,52.7281,8960.55,-1108.41,1345.15,23.7677,6.09198,19.8098
5.1485,8500.46,-890.769,10291.3,-36.9669,288.633,124.285,4777.12,2862.35,8083.73,2.28847,-12.1107,7.97334,-858.864,12538.6,-1860.71,25.0863,110.609,279.559,-1443.25,-9719.81,-2149.04,-10.2955,-17.0126,45.5133,-6429.71,5772.69,495.249,21.8566,5.52325,81.0401,1638.65,-9686.19,-1527.35,-18.5903,-44.3469,52.6516,8949.13,-1109.21,1346.76,23.7922,6.08863,19.7198
5.149,8534.16,-903.57,10295.7,-36.9574,288.503,124.229,4786.34,2849.49,8059.9,2.22518,-12.1169,8.04951,-877.987,12606.6,-1860.64,25.0384,110.838,279.868,-1433.11,-9716.66,-2155.19,-10.3461,-17.0946,45.5855,-6467.98,5808.11,474.962,21.6988,4.36,80.8815,1663.69,-9693.12,-1499.17,-18.5369,-44.7417,52.5752,8937.7,-1110.01,1348.38,23.8166,6.08527,19.6298
5.1495,8567.85,-916.371,10300.1,-36.9478,288.373,124.173,4795.56,2836.62,8036.06,2.1619,-12.1231,8.12568,-897.11,12674.6,-1860.56,24.9904,111.067,280.177,-1422.96,-9713.5,-2161.34,-10.3966,-17.1765,45.6576,-6506.25,5843.53,454.675,21.5409,3.19675,80.7228,1688.72,-9700.05,-1470.99,-18.4834,-45.1366,52.4988,8926.27,-1110.81,1349.99,23.8411,6.08192,19.5398
5.15,8601.54,-929.171,10304.4,-36.9383,288.243,124.117,4804.77,2823.75,8012.23,2.09862,-12.1292,8.20185,-916.233,12742.6,-1860.49,24.9425,111.295,280.487,-1412.82,-9710.35,-2167.5,-10.4472,-17.2585,45.7298,-6544.53,5878.94,434.388,21.3831,2.0335,80.5642,1713.75,-9706.99,-1442.81,-18.4299,-45.5315,52.4224,8914.84,-1111.6,1351.61,23.8655,6.07857,19.4497
5.1505,8635.24,-941.972,10308.8,-36.9288,288.113,124.061,4813.99,2810.89,7988.39,2.03534,-12.1354,8.27802,-935.355,12810.5,-1860.42,24.8946,111.524,280.796,-1402.68,-9707.19,-2173.65,-10.4977,-17.3405,45.8019,-6582.8,5914.36,414.1,21.2253,0.870256,80.4056,1738.79,-9713.92,-1414.63,-18.3764,-45.9264,52.346,8903.41,-1112.4,1353.22,23.89,6.07521,19.3597
5.151,8668.94,-954.773,10313.2,-36.9193,287.983,124.005,4823.21,2798.02,7964.56,1.97206,-12.1416,8.35419,-954.478,12878.5,-1860.35,24.8467,111.753,281.105,-1392.54,-9704.04,-2179.8,-10.5483,-17.4225,45.8741,-6621.08,5949.78,393.813,21.0674,-0.292992,80.247,1763.82,-9720.85,-1386.45,-18.323,-46.3213,52.2696,8891.98,-1113.2,1354.84,23.9144,6.07186,19.2697
5.1515,8705.81,-940.77,10320.7,-36.8415,287.859,124.036,4833.04,2785.84,7950.23,1.82067,-12.1299,8.42289,-981.768,12945.0,-1849.17,24.7901,111.744,281.423,-1376.83,-9697.54,-2171.44,-10.614,-17.4354,46.0374,-6649.06,5985.57,382.587,20.8022,-1.20491,80.0838,1778.99,-9715.04,-1376.97,-18.2857,-46.6738,52.1914,8882.5,-1113.33,1351.71,23.9061,6.04397,19.1141
5.152,8743.6,-919.11,10329.1,-36.7442,287.736,124.091,4843.04,2773.87,7938.61,1.64411,-12.1131,8.48946,-1011.39,13011.1,-1834.82,24.7311,111.668,281.744,-1359.52,-9690.08,-2158.93,-10.684,-17.4286,46.2268,-6674.12,6021.47,373.949,20.5063,-2.04503,79.9193,1791.35,-9705.6,-1372.82,-18.2531,-47.0142,52.1128,8873.56,-1113.27,1347.22,23.8885,6.00906,18.9398
5.1525,8781.39,-897.45,10337.5,-36.647,287.614,124.146,4853.05,2761.89,7927.0,1.46755,-12.0963,8.55603,-1041.02,13077.1,-1820.46,24.672,111.592,282.065,-1342.21,-9682.62,-2146.42,-10.754,-17.4218,46.4162,-6699.17,6057.37,365.311,20.2104,-2.88514,79.7548,1803.71,-9696.15,-1368.68,-18.2204,-47.3546,52.0341,8864.63,-1113.22,1342.74,23.8709,5.97416,18.7655
5.153,8819.17,-875.79,10345.9,-36.5497,287.492,124.201,4863.05,2749.91,7915.38,1.29099,-12.0795,8.62259,-1070.64,13143.2,-1806.11,24.613,111.516,282.386,-1324.9,-9675.16,-2133.91,-10.824,-17.415,46.6056,-6724.22,6093.27,356.674,19.9144,-3.72525,79.5903,1816.07,-9686.71,-1364.53,-18.1878,-47.695,51.9554,8855.7,-1113.16,1338.25,23.8533,5.93926,18.5912
5.1535,8856.96,-854.13,10354.3,-36.4525,287.369,124.257,4873.06,2737.94,7903.76,1.11443,-12.0627,8.68916,-1100.26,13209.3,-1791.76,24.5539,111.439,282.706,-1307.6,-9667.7,-2121.4,-10.894,-17.4081,46.795,-6749.27,6129.17,348.036,19.6185,-4.56537,79.4258,1828.43,-9677.27,-1360.39,-18.1552,-48.0354,51.8767,8846.77,-1113.1,1333.77,23.8357,5.90435,18.4169
5.154,8894.75,-832.47,10362.7,-36.3552,287.247,124.312,4883.07,2725.96,7892.15,0.937869,-12.0459,8.75573,-1129.89,13275.3,-1777.41,24.4949,111.363,283.027,-1290.29,-9660.25,-2108.89,-10.964,-17.4013,46.9844,-6774.32,6165.07,339.398,19.3226,-5.40548,79.2613,1840.79,-9667.82,-1356.24,-18.1225,-48.3758,51.7981,8837.83,-1113.05,1329.28,23.8181,5.86945,18.2426
5.1545,8932.53,-810.81,10371.1,-36.258,287.125,124.367,4893.07,2713.98,7880.53,0.761308,-12.0291,8.8223,-1159.51,13341.4,-1763.06,24.4358,111.287,283.348,-1272.98,-9652.79,-2096.38,-11.0339,-17.3945,47.1738,-6799.37,6200.97,330.761,19.0267,-6.24559,79.0968,1853.15,-9658.38,-1352.1,-18.0899,-48.7162,51.7194,8828.9,-1112.99,1324.79,23.8005,5.83455,18.0682
5.155,8970.32,-789.15,10379.5,-36.1607,287.002,124.422,4903.08,2702.01,7868.92,0.584747,-12.0123,8.88886,-1189.13,13407.5,-1748.71,24.3768,111.211,283.669,-1255.67,-9645.33,-2083.87,-11.1039,-17.3877,47.3631,-6824.42,6236.86,322.123,18.7308,-7.0857,78.9324,1865.51,-9648.93,-1347.95,-18.0573,-49.0566,51.6407,8819.97,-1112.93,1320.31,23.7829,5.79964,17.8939
5.1555,9008.11,-767.49,10387.9,-36.0635,286.88,124.477,4913.08,2690.03,7857.3,0.408186,-11.9955,8.95543,-1218.76,13473.5,-1734.36,24.3177,111.134,283.989,-1238.36,-9637.87,-2071.36,-11.1739,-17.3808,47.5525,-6849.47,6272.76,313.486,18.4349,-7.92582,78.7679,1877.87,-9639.49,-1343.81,-18.0246,-49.397,51.5621,8811.04,-1112.88,1315.82,23.7653,5.76474,17.7196
5.156,9014.7,-757.0,10374.1,-35.9794,286.489,124.502,4898.26,2676.79,7862.59,0.291691,-11.8789,8.95208,-1229.94,13551.3,-1724.29,24.1773,110.908,284.263,-1210.15,-9633.9,-2065.99,-11.2621,-17.266,47.776,-6868.07,6299.94,316.219,18.1107,-8.61189,78.5499,1889.85,-9629.74,-1331.74,-18.0301,-49.459,51.4763,8799.18,-1120.77,1314.74,23.7517,5.71449,17.5542
5.1565,9017.4,-747.907,10357.5,-35.897,286.065,124.522,4880.33,2663.39,7870.0,0.182704,-11.7498,8.94,-1238.82,13630.4,-1714.76,24.0267,110.664,284.531,-1180.58,-9630.37,-2061.51,-11.3525,-17.1377,48.0038,-6885.86,6326.03,320.374,17.7831,-9.27871,78.3252,1901.77,-9619.96,-1318.67,-18.0404,-49.4863,51.3896,8786.96,-1129.66,1314.09,23.7386,5.66232,17.39
5.157,9020.1,-738.813,10340.9,-35.8146,285.641,124.543,4862.4,2649.99,7877.4,0.0737174,-11.6207,8.92791,-1247.71,13709.6,-1705.22,23.8761,110.419,284.799,-1151.01,-9626.84,-2057.04,-11.443,-17.0094,48.2316,-6903.65,6352.12,324.53,17.4554,-9.94553,78.1005,1913.69,-9610.17,-1305.61,-18.0506,-49.5136,51.3029,8774.75,-1138.54,1313.44,23.7254,5.61015,17.2257
5.1575,9022.79,-729.72,10324.3,-35.7322,285.217,124.563,4844.47,2636.59,7884.81,-0.0352695,-11.4916,8.91583,-1256.59,13788.8,-1695.69,23.7255,110.175,285.067,-1121.43,-9623.31,-2052.56,-11.5334,-16.8811,48.4593,-6921.44,6378.2,328.685,17.1277,-10.6123,77.8758,1925.61,-9600.38,-1292.54,-18.0609,-49.5409,51.2163,8762.53,-1147.43,1312.78,23.7123,5.55797,17.0614
5.158,9025.49,-720.626,10307.7,-35.6498,284.793,124.584,4826.54,2623.19,7892.21,-0.144256,-11.3626,8.90374,-1265.47,13867.9,-1686.16,23.5749,109.93,285.335,-1091.86,-9619.77,-2048.08,-11.6238,-16.7528,48.6871,-6939.23,6404.29,332.84,16.8,-11.2792,77.6511,1937.54,-9590.6,-1279.48,-18.0711,-49.5681,51.1296,8750.31,-1156.31,1312.13,23.6992,5.5058,16.8971
5.1585,9028.19,-711.533,10291.1,-35.5674,284.369,124.604,4808.61,2609.79,7899.62,-0.253243,-11.2335,8.89166,-1274.35,13947.1,-1676.63,23.4243,109.685,285.603,-1062.29,-9616.24,-2043.61,-11.7143,-16.6245,48.9149,-6957.02,6430.38,336.995,16.4724,-11.946,77.4264,1949.46,-9580.81,-1266.42,-18.0814,-49.5954,51.0429,8738.09,-1165.2,1311.48,23.6861,5.45363,16.7329
5.159,9030.89,-702.439,10274.5,-35.485,283.945,124.625,4790.68,2596.39,7907.02,-0.36223,-11.1044,8.87957,-1283.23,14026.3,-1667.1,23.2737,109.441,285.87,-1032.71,-9612.71,-2039.13,-11.8047,-16.4962,49.1426,-6974.81,6456.47,341.15,16.1447,-12.6128,77.2017,1961.38,-9571.02,-1253.35,-18.0917,-49.6227,50.9563,8725.88,-1174.09,1310.82,23.6729,5.40146,16.5686
5.1595,9033.58,-693.346,10258.0,-35.4026,283.521,124.645,4772.76,2582.99,7914.43,-0.471217,-10.9753,8.86749,-1292.11,14105.4,-1657.56,23.1231,109.196,286.138,-1003.14,-9609.18,-2034.65,-11.8951,-16.3679,49.3704,-6992.59,6482.55,345.306,15.817,-13.2796,76.977,1973.3,-9561.24,-1240.29,-18.1019,-49.65,50.8696,8713.66,-1182.97,1310.17,23.6598,5.34929,16.4043
5.16,9036.28,-684.253,10241.4,-35.3202,283.097,124.666,4754.83,2569.6,7921.83,-0.580204,-10.8463,8.8554,-1300.99,14184.6,-1648.03,22.9725,108.951,286.406,-973.569,-9605.65,-2030.17,-11.9856,-16.2396,49.5982,-7010.38,6508.64,349.461,15.4894,-13.9464,76.7523,1985.23,-9551.45,-1227.22,-18.1122,-49.6772,50.7829,8701.44,-1191.86,1309.52,23.6467,5.29711,16.24
5.1605,8980.86,-663.653,10219.5,-35.2799,282.179,124.674,4734.54,2573.48,7930.77,-0.773173,-10.8343,8.81061,-1311.98,14256.6,-1633.31,22.77,108.652,286.592,-958.448,-9593.57,-2037.72,-12.0888,-16.0821,49.8956,-6993.02,6517.23,366.676,15.2341,-14.2999,76.2944,2000.21,-9545.58,-1210.98,-18.1207,-49.4012,50.7018,8683.21,-1213.13,1318.68,23.7821,5.30033,16.1249
5.161,8925.45,-643.054,10197.6,-35.2396,281.261,124.683,4714.24,2577.37,7939.71,-0.966143,-10.8223,8.76581,-1322.96,14328.6,-1618.59,22.5675,108.352,286.777,-943.327,-9581.5,-2045.27,-12.1921,-15.9246,50.193,-6975.65,6525.82,383.891,14.9788,-14.6534,75.8365,2015.2,-9539.71,-1194.73,-18.1293,-49.1251,50.6207,8664.99,-1234.4,1327.84,23.9175,5.30354,16.0098
5.1615,8870.03,-622.455,10175.7,-35.1993,280.344,124.692,4693.95,2581.26,7948.64,-1.15911,-10.8102,8.72102,-1333.94,14400.5,-1603.87,22.365,108.052,286.963,-928.206,-9569.42,-2052.82,-12.2953,-15.7671,50.4904,-6958.28,6534.4,401.106,14.7234,-15.0069,75.3787,2030.18,-9533.85,-1178.48,-18.1379,-48.849,50.5396,8646.76,-1255.67,1337.0,24.0529,5.30675,15.8947
5.162,8814.61,-601.855,10153.8,-35.159,279.426,124.7,4673.66,2585.15,7957.58,-1.35208,-10.7982,8.67623,-1344.92,14472.5,-1589.15,22.1625,107.752,287.149,-913.085,-9557.35,-2060.36,-12.3985,-15.6096,50.7878,-6940.91,6542.99,418.321,14.4681,-15.3604,74.9208,2045.17,-9527.98,-1162.24,-18.1465,-48.5729,50.4585,8628.53,-1276.93,1346.17,24.1883,5.30997,15.7796
5.1625,8759.2,-581.256,10131.9,-35.1186,278.508,124.709,4653.37,2589.03,7966.52,-1.54505,-10.7862,8.63144,-1355.9,14544.5,-1574.43,21.96,107.452,287.334,-897.964,-9545.27,-2067.91,-12.5018,-15.4521,51.0852,-6923.54,6551.58,435.536,14.2128,-15.7139,74.463,2060.15,-9522.11,-1145.99,-18.1551,-48.2968,50.3774,8610.31,-1298.2,1355.33,24.3237,5.31318,15.6645
5.163,8703.78,-560.657,10110.0,-35.0783,277.59,124.718,4633.08,2592.92,7975.45,-1.73802,-10.7742,8.58665,-1366.89,14616.5,-1559.71,21.7575,107.153,287.52,-882.843,-9533.2,-2075.46,-12.605,-15.2946,51.3826,-6906.17,6560.16,452.751,13.9575,-16.0674,74.0051,2075.14,-9516.24,-1129.74,-18.1636,-48.0207,50.2963,8592.08,-1319.47,1364.49,24.4592,5.31639,15.5494
5.1635,8648.36,-540.058,10088.1,-35.038,276.672,124.727,4612.78,2596.81,7984.39,-1.93099,-10.7622,8.54185,-1377.87,14688.4,-1544.99,21.5551,106.853,287.706,-867.723,-9521.13,-2083.0,-12.7083,-15.1371,51.68,-6888.8,6568.75,469.966,13.7022,-16.4209,73.5473,2090.12,-9510.37,-1113.49,-18.1722,-47.7447,50.2152,8573.85,-1340.74,1373.66,24.5946,5.31961,15.4343
5.164,8592.95,-519.458,10066.3,-34.9977,275.755,124.735,4592.49,2600.7,7993.33,-2.12396,-10.7502,8.49706,-1388.85,14760.4,-1530.27,21.3526,106.553,287.891,-852.602,-9509.05,-2090.55,-12.8115,-14.9796,51.9775,-6871.44,6577.33,487.182,13.4469,-16.7744,73.0894,2105.11,-9504.51,-1097.25,-18.1808,-47.4686,50.1341,8555.63,-1362.01,1382.82,24.73,5.32282,15.3192
5.1645,8538.41,-500.751,10048.4,-34.9617,274.748,124.747,4573.44,2602.95,8003.64,-2.31604,-10.7413,8.45472,-1399.37,14830.0,-1516.9,21.132,106.264,288.084,-838.766,-9499.61,-2098.06,-12.9107,-14.8189,52.2722,-6852.23,6585.63,503.798,13.2245,-17.0735,72.6339,2120.18,-9499.28,-1083.32,-18.1963,-47.188,50.0478,8537.33,-1383.01,1391.32,24.8744,5.32602,15.1984
5.165,8490.94,-497.179,10062.4,-34.9607,273.032,124.785,4564.34,2592.18,8024.89,-2.50105,-10.7569,8.43199,-1406.15,14880.4,-1514.35,20.7665,106.061,288.336,-835.211,-9511.25,-2105.29,-12.9781,-14.6327,52.5458,-6818.3,6591.54,515.62,13.2649,-16.9383,72.1968,2136.02,-9499.17,-1088.0,-18.2672,-46.8714,49.9199,8518.48,-1401.85,1394.54,25.0905,5.3291,15.0323
5.1655,8443.46,-493.606,10076.5,-34.9596,271.316,124.823,4555.25,2581.41,8046.15,-2.68605,-10.7726,8.40925,-1412.93,14930.9,-1511.81,20.4011,105.858,288.589,-831.656,-9522.89,-2112.52,-13.0454,-14.4464,52.8194,-6784.37,6597.46,527.443,13.3052,-16.803,71.7598,2151.86,-9499.05,-1092.67,-18.3381,-46.5548,49.7921,8499.62,-1420.7,1397.75,25.3066,5.33218,14.8662
5.166,8395.99,-490.034,10090.6,-34.9585,269.599,124.861,4546.15,2570.64,8067.41,-2.87106,-10.7883,8.38652,-1419.72,14981.3,-1509.26,20.0356,105.655,288.841,-828.101,-9534.52,-2119.75,-13.1128,-14.2601,53.0929,-6750.45,6603.38,539.266,13.3456,-16.6678,71.3227,2167.69,-9498.94,-1097.35,-18.409,-46.2383,49.6642,8480.77,-1439.54,1400.97,25.5227,5.33527,14.7001
5.1665,8348.52,-486.462,10104.7,-34.9574,267.883,124.898,4537.05,2559.87,8088.67,-3.05606,-10.804,8.36379,-1426.5,15031.8,-1506.72,19.6702,105.452,289.093,-824.546,-9546.16,-2126.97,-13.1801,-14.0739,53.3665,-6716.52,6609.3,551.089,13.386,-16.5325,70.8857,2183.53,-9498.82,-1102.02,-18.4799,-45.9217,49.5364,8461.92,-1458.38,1404.18,25.7388,5.33835,14.534
5.167,8301.05,-482.89,10118.8,-34.9563,266.167,124.936,4527.95,2549.1,8109.93,-3.24107,-10.8197,8.34105,-1433.28,15082.2,-1504.17,19.3047,105.249,289.345,-820.99,-9557.79,-2134.2,-13.2474,-13.8876,53.6401,-6682.59,6615.22,562.912,13.4264,-16.3972,70.4487,2199.36,-9498.71,-1106.69,-18.5508,-45.6051,49.4085,8443.07,-1477.23,1407.4,25.9549,5.34143,14.3679
5.1675,8253.57,-479.317,10132.8,-34.9552,264.451,124.974,4518.85,2538.33,8131.19,-3.42607,-10.8353,8.31832,-1440.07,15132.6,-1501.63,18.9393,105.046,289.598,-817.435,-9569.43,-2141.43,-13.3148,-13.7013,53.9136,-6648.67,6621.14,574.735,13.4668,-16.262,70.0116,2215.2,-9498.6,-1111.37,-18.6217,-45.2885,49.2807,8424.22,-1496.07,1410.61,26.171,5.34451,14.2018
5.168,8206.1,-475.745,10146.9,-34.9541,262.735,125.012,4509.75,2527.56,8152.45,-3.61108,-10.851,8.29558,-1446.85,15183.1,-1499.08,18.5738,104.843,289.85,-813.88,-9581.07,-2148.65,-13.3821,-13.5151,54.1872,-6614.74,6627.06,586.558,13.5072,-16.1267,69.5746,2231.03,-9498.48,-1116.04,-18.6927,-44.972,49.1528,8405.36,-1514.91,1413.83,26.3871,5.34759,14.0357
5.1685,8158.63,-472.173,10161.0,-34.953,261.018,125.05,4500.65,2516.79,8173.71,-3.79608,-10.8667,8.27285,-1453.63,15233.5,-1496.54,18.2084,104.639,290.102,-810.325,-9592.71,-2155.88,-13.4495,-13.3288,54.4608,-6580.81,6632.98,598.381,13.5476,-15.9915,69.1376,2246.87,-9498.37,-1120.71,-18.7636,-44.6554,49.0249,8386.51,-1533.76,1417.04,26.6033,5.35068,13.8696
5.169,8114.71,-472.025,10172.9,-34.9741,259.155,125.048,4494.42,2513.85,8186.06,-3.97868,-10.8954,8.24909,-1460.03,15281.7,-1500.74,17.8703,104.472,290.349,-808.252,-9601.15,-2164.6,-13.5229,-13.1489,54.7152,-6539.7,6638.21,608.154,13.6302,-15.7335,68.6789,2261.44,-9498.57,-1126.57,-18.8292,-44.3205,48.9024,8369.42,-1550.31,1419.49,26.8206,5.34722,13.6991
5.1695,8083.25,-483.864,10177.3,-35.0726,256.778,124.908,4498.26,2538.3,8167.23,-4.15283,-10.9698,8.22175,-1465.07,15321.9,-1528.53,17.6281,104.432,290.576,-811.364,-9598.42,-2178.55,-13.6174,-12.9915,54.9025,-6473.43,6641.04,610.755,13.8608,-15.0462,68.1446,2271.61,-9499.86,-1136.59,-18.8764,-43.9213,48.7986,8358.51,-1558.85,1419.24,27.0424,5.32086,13.5131
5.17,8051.79,-495.702,10181.6,-35.171,254.401,124.768,4502.09,2562.75,8148.41,-4.32699,-11.0442,8.1944,-1470.1,15362.1,-1556.33,17.386,104.391,290.803,-814.476,-9595.7,-2192.5,-13.712,-12.8342,55.0898,-6407.17,6643.87,613.357,14.0914,-14.3588,67.6102,2281.77,-9501.15,-1146.6,-18.9235,-43.5221,48.6947,8347.6,-1567.4,1419.0,27.2641,5.2945,13.3271
5.1705,8020.33,-507.541,10186.0,-35.2695,252.023,124.628,4505.92,2587.2,8129.58,-4.50114,-11.1186,8.16706,-1475.14,15402.4,-1584.13,17.1438,104.35,291.031,-817.588,-9592.97,-2206.44,-13.8066,-12.6768,55.2771,-6340.9,6646.69,615.958,14.3219,-13.6714,67.0759,2291.94,-9502.45,-1156.62,-18.9707,-43.1229,48.5908,8336.69,-1575.94,1418.75,27.4858,5.26815,13.1412
5.171,7988.87,-519.379,10190.3,-35.368,249.646,124.488,4509.76,2611.65,8110.75,-4.6753,-11.193,8.13971,-1480.18,15442.6,-1611.93,16.9016,104.31,291.258,-820.7,-9590.24,-2220.39,-13.9012,-12.5194,55.4644,-6274.64,6649.52,618.559,14.5525,-12.9841,66.5415,2302.1,-9503.74,-1166.63,-19.0179,-42.7237,48.487,8325.78,-1584.48,1418.51,27.7076,5.24179,12.9552
5.1715,7957.41,-531.218,10194.6,-35.4664,247.269,124.349,4513.59,2636.1,8091.93,-4.84945,-11.2674,8.11237,-1485.21,15482.8,-1639.73,16.6594,104.269,291.485,-823.812,-9587.51,-2234.34,-13.9958,-12.362,55.6517,-6208.37,6652.35,621.16,14.7831,-12.2967,66.0072,2312.27,-9505.03,-1176.64,-19.065,-42.3245,48.3831,8314.87,-1593.03,1418.27,27.9293,5.21543,12.7692
5.172,7925.95,-543.056,10199.0,-35.5649,244.892,124.209,4517.42,2660.55,8073.1,-5.02361,-11.3418,8.08502,-1490.25,15523.1,-1667.53,16.4172,104.228,291.712,-826.924,-9584.79,-2248.29,-14.0904,-12.2046,55.839,-6142.11,6655.18,623.762,15.0136,-11.6094,65.4729,2322.43,-9506.32,-1186.66,-19.1122,-41.9253,48.2793,8303.96,-1601.57,1418.02,28.1511,5.18908,12.5833
5.1725,7894.49,-554.895,10203.3,-35.6634,242.514,124.069,4521.26,2685.0,8054.28,-5.19776,-11.4162,8.05768,-1495.29,15563.3,-1695.33,16.175,104.188,291.94,-830.036,-9582.06,-2262.23,-14.185,-12.0472,56.0263,-6075.84,6658.0,626.363,15.2442,-10.922,64.9385,2332.6,-9507.62,-1196.67,-19.1594,-41.5261,48.1754,8293.05,-1610.11,1417.78,28.3728,5.16272,12.3973
5.173,7863.03,-566.733,10207.7,-35.7619,240.137,123.929,4525.09,2709.46,8035.45,-5.37192,-11.4906,8.03034,-1500.33,15603.5,-1723.13,15.9328,104.147,292.167,-833.148,-9579.33,-2276.18,-14.2796,-11.8898,56.2136,-6009.58,6660.83,628.964,15.4747,-10.2346,64.4042,2342.76,-9508.91,-1206.69,-19.2065,-41.1269,48.0716,8282.14,-1618.65,1417.53,28.5946,5.13636,12.2113
5.1735,7858.57,-586.389,10218.4,-35.8635,237.675,123.82,4531.7,2730.28,8022.64,-5.54877,-11.5074,8.01855,-1520.9,15640.4,-1747.17,15.6786,104.125,292.366,-839.938,-9579.17,-2277.64,-14.3701,-11.6813,56.4264,-5937.69,6658.42,630.232,15.7573,-9.43172,63.8018,2358.01,-9509.77,-1216.67,-19.2529,-40.7215,47.9738,8275.32,-1624.36,1417.16,28.8179,5.09859,12.0282
5.174,7908.12,-621.68,10241.8,-35.9713,235.042,123.775,4543.86,2743.86,8021.87,-5.73101,-11.4088,8.0379,-1572.56,15670.4,-1763.7,15.4004,104.142,292.508,-854.085,-9584.12,-2254.11,-14.4525,-11.3705,56.6905,-5854.55,6645.51,628.832,16.144,-8.39771,63.0634,2383.4,-9509.77,-1226.6,-19.2977,-40.3039,47.8881,8276.71,-1624.4,1416.55,29.0443,5.03797,11.8509
5.1745,7957.66,-656.971,10265.2,-36.0792,232.41,123.729,4556.02,2757.43,8021.09,-5.91325,-11.3102,8.05725,-1624.22,15700.4,-1780.23,15.1222,104.158,292.649,-868.231,-9589.07,-2230.59,-14.5349,-11.0597,56.9545,-5771.42,6632.61,627.432,16.5306,-7.3637,62.3249,2408.79,-9509.77,-1236.53,-19.3424,-39.8863,47.8025,8278.09,-1624.44,1415.94,29.2708,4.97736,11.6735
5.175,8007.21,-692.262,10288.7,-36.1871,229.777,123.683,4568.18,2771.01,8020.32,-6.09549,-11.2116,8.0766,-1675.87,15730.4,-1796.76,14.844,104.175,292.791,-882.378,-9594.03,-2207.06,-14.6173,-10.7488,57.2185,-5688.28,6619.71,626.031,16.9173,-6.32969,61.5864,2434.18,-9509.77,-1246.46,-19.3872,-39.4687,47.7168,8279.47,-1624.48,1415.33,29.4972,4.91674,11.4961
5.1755,8056.75,-727.553,10312.1,-36.295,227.144,123.638,4580.34,2784.58,8019.54,-6.27773,-11.1131,8.09594,-1727.53,15760.4,-1813.28,14.5658,104.191,292.933,-896.525,-9598.98,-2183.54,-14.6997,-10.438,57.4825,-5605.15,6606.8,624.631,17.3039,-5.29568,60.848,2459.58,-9509.77,-1256.39,-19.4319,-39.0511,47.6312,8280.86,-1624.52,1414.72,29.7237,4.85613,11.3187
5.176,8106.3,-762.843,10335.5,-36.4029,224.512,123.592,4592.5,2798.16,8018.77,-6.45997,-11.0145,8.11529,-1779.19,15790.4,-1829.81,14.2876,104.207,293.074,-910.672,-9603.93,-2160.02,-14.7821,-10.1272,57.7466,-5522.01,6593.9,623.231,17.6905,-4.26166,60.1095,2484.97,-9509.77,-1266.32,-19.4767,-38.6334,47.5456,8282.24,-1624.56,1414.11,29.9501,4.79551,11.1413
5.1765,8155.85,-798.134,10358.9,-36.5108,221.879,123.546,4604.66,2811.73,8018.0,-6.64221,-10.9159,8.13464,-1830.84,15820.4,-1846.34,14.0094,104.224,293.216,-924.818,-9608.89,-2136.49,-14.8645,-9.8164,58.0106,-5438.88,6581.0,621.831,18.0772,-3.22765,59.371,2510.36,-9509.77,-1276.25,-19.5214,-38.2158,47.4599,8283.63,-1624.6,1413.5,30.1766,4.7349,10.964
5.177,8205.39,-833.425,10382.3,-36.6186,219.247,123.501,4616.82,2825.31,8017.22,-6.82444,-10.8173,8.15399,-1882.5,15850.4,-1862.87,13.7312,104.24,293.358,-938.965,-9613.84,-2112.97,-14.9469,-9.50559,58.2746,-5355.74,6568.09,620.431,18.4638,-2.19364,58.6326,2535.75,-9509.77,-1286.17,-19.5662,-37.7982,47.3743,8285.01,-1624.64,1412.89,30.403,4.67429,10.7866
5.1775,8254.94,-868.716,10405.7,-36.7265,216.614,123.455,4628.98,2838.88,8016.45,-7.00668,-10.7187,8.17333,-1934.16,15880.4,-1879.4,13.453,104.257,293.499,-953.112,-9618.79,-2089.44,-15.0293,-9.19477,58.5386,-5272.61,6555.19,619.031,18.8505,-1.15963,57.8941,2561.15,-9509.77,-1296.1,-19.611,-37.3806,47.2886,8286.39,-1624.67,1412.27,30.6295,4.61367,10.6092
