Time,RFoot_accel.x,RFoot_accel.y,RFoot_accel.z,RFoot_gyro.x,RFoot_gyro.y,RFoot_gyro.z,LFoot_accel.x,LFoot_accel.y,LFoot_accel.z,LFoot_gyro.x,LFoot_gyro.y,LFoot_gyro.z,RShank_accel.x,RShank_accel.y,RShank_accel.z,RShank_gyro.x,RShank_gyro.y,RShank_gyro.z,LShank_accel.x,LShank_accel.y,LShank_accel.z,LShank_gyro.x,LShank_gyro.y,LShank_gyro.z,RThigh_accel.x,RThigh_accel.y,RThigh_accel.z,RThigh_gyro.x,RThigh_gyro.y,RThigh_gyro.z,LThigh_accel.x,LThigh_accel.y,LThigh_accel.z,LThigh_gyro.x,LThigh_gyro.y,LThigh_gyro.z,Pelvis_accel.x,Pelvis_accel.y,Pelvis_accel.z,Pelvis_gyro.x,Pelvis_gyro.y,Pelvis_gyro.z
5.11,5975.12,-126.945,8570.29,-99.4126,313.957,82.8534,5232.71,2250.23,8049.25,-28.528,0.492474,20.7686,-692.966,8700.18,-1105.3,37.1614,24.7767,277.012,-2336.95,-9583.25,-2455.57,-4.65454,-16.5943,43.0504,-5978.47,6530.21,656.972,61.4492,99.5344,131.605,1029.82,-9395.79,-2590.64,-10.8024,-11.6961,53.6758,8377.08,-1261.78,1742.17,21.3125,20.6774,20.3296
5.1105,6136.13,-74.8878,8595.79,-100.28,314.04,82.938,5238.14,2229.69,8051.95,-28.5053,0.532164,20.7513,-797.81,8757.86,-1071.97,37.3763,24.1096,277.893,-2353.8,-9565.98,-2429.56,-4.53578,-16.8175,43.038,-6024.9,6541.15,610.926,62.405,98.9653,131.172,1003.68,-9393.33,-2589.55,-10.9136,-11.3557,53.7279,8363.61,-1270.34,1731.98,21.3961,20.538,20.1809
5.111,6297.13,-22.8304,8621.29,-101.147,314.124,83.0227,5243.56,2209.16,8054.65,-28.4827,0.571854,20.7339,-902.655,8815.54,-1038.63,37.5912,23.4425,278.773,-2370.64,-9548.71,-2403.56,-4.41703,-17.0407,43.0256,-6071.33,6552.09,564.88,63.3607,98.3963,130.739,977.53,-9390.88,-2588.46,-11.0247,-11.0153,53.78,8350.15,-1278.9,1721.79,21.4798,20.3986,20.0322
5.1115,6451.18,-1.71531,8649.28,-101.933,314.446,82.9196,5246.44,2194.78,8068.01,-28.5505,0.591448,20.6811,-996.236,8876.91,-1019.23,37.7694,22.666,279.616,-2366.54,-9562.96,-2383.98,-4.35826,-17.1441,43.0648,-6114.39,6569.38,573.037,63.8855,97.8388,130.267,944.512,-9393.7,-2580.81,-11.1223,-10.7345,53.8404,8345.9,-1285.55,1705.22,21.4686,20.2043,19.8924
5.112,6603.24,10.5591,8677.97,-102.694,314.836,82.7628,5248.59,2182.15,8084.4,-28.6442,0.605301,20.6182,-1086.6,8939.33,-1003.82,37.9371,21.8583,280.447,-2356.44,-9586.23,-2366.23,-4.31663,-17.2134,43.1187,-6156.49,6588.48,596.68,64.2872,97.2847,129.784,909.53,-9398.04,-2571.3,-11.216,-10.4708,53.9032,8344.29,-1291.65,1686.83,21.4304,19.9944,19.7551
5.1125,6755.3,22.8335,8706.67,-103.456,315.227,82.6059,5250.75,2169.52,8100.8,-28.7379,0.619153,20.5553,-1176.96,9001.76,-988.398,38.1048,21.0506,281.279,-2346.35,-9609.5,-2348.49,-4.27501,-17.2826,43.1727,-6198.59,6607.58,620.323,64.6889,96.7306,129.3,874.548,-9402.37,-2561.78,-11.3097,-10.207,53.9661,8342.68,-1297.75,1668.44,21.3922,19.7844,19.6178
5.113,6907.37,35.1078,8735.37,-104.218,315.617,82.4491,5252.9,2156.89,8117.2,-28.8316,0.633006,20.4924,-1267.33,9064.18,-972.98,38.2726,20.2429,282.111,-2336.25,-9632.76,-2330.75,-4.23338,-17.3519,43.2266,-6240.69,6626.69,643.966,65.0905,96.1764,128.817,839.567,-9406.71,-2552.27,-11.4034,-9.94318,54.0289,8341.07,-1303.86,1650.05,21.354,19.5745,19.4805
5.1135,7059.43,47.3822,8764.06,-104.979,316.007,82.2923,5255.05,2144.26,8133.6,-28.9252,0.646859,20.4295,-1357.69,9126.6,-957.562,38.4403,19.4353,282.942,-2326.16,-9656.03,-2313.0,-4.19176,-17.4211,43.2805,-6282.79,6645.79,667.609,65.4922,95.6223,128.334,804.585,-9411.04,-2542.75,-11.4971,-9.6794,54.0917,8339.46,-1309.96,1631.66,21.3157,19.3646,19.3432
5.114,7211.49,59.6566,8792.76,-105.741,316.397,82.1355,5257.2,2131.63,8149.99,-29.0189,0.660711,20.3666,-1448.05,9189.03,-942.144,38.608,18.6276,283.774,-2316.06,-9679.3,-2295.26,-4.15013,-17.4904,43.3345,-6324.89,6664.9,691.252,65.8939,95.0682,127.85,769.603,-9415.38,-2533.24,-11.5907,-9.41561,54.1546,8337.85,-1316.06,1613.28,21.2775,19.1547,19.2059
5.1145,7363.55,71.931,8821.45,-106.503,316.787,81.9787,5259.35,2119.0,8166.39,-29.1126,0.674564,20.3037,-1538.42,9251.45,-926.725,38.7757,17.8199,284.606,-2305.97,-9702.56,-2277.51,-4.1085,-17.5596,43.3884,-6366.99,6684.0,714.895,66.2956,94.5141,127.367,734.622,-9419.71,-2523.73,-11.6844,-9.15183,54.2174,8336.23,-1322.16,1594.89,21.2393,18.9447,19.0686
5.115,7515.61,84.2054,8850.15,-107.264,317.178,81.8219,5261.51,2106.37,8182.79,-29.2063,0.688417,20.2408,-1628.78,9313.87,-911.307,38.9435,17.0122,285.437,-2295.87,-9725.83,-2259.77,-4.06688,-17.6289,43.4423,-6409.09,6703.1,738.538,66.6973,93.9599,126.883,699.64,-9424.05,-2514.21,-11.7781,-8.88804,54.2802,8334.62,-1328.26,1576.5,21.2011,18.7348,18.9314
5.1155,7667.67,96.4798,8878.84,-108.026,317.568,81.6651,5263.66,2093.75,8199.19,-29.3,0.70227,20.1779,-1719.14,9376.29,-895.889,39.1112,16.2045,286.269,-2285.78,-9749.1,-2242.03,-4.02525,-17.6981,43.4963,-6451.19,6722.21,762.181,67.099,93.4058,126.4,664.659,-9428.39,-2504.7,-11.8718,-8.62426,54.343,8333.01,-1334.36,1558.11,21.1628,18.5249,18.7941
5.116,7770.87,69.7424,8907.7,-108.528,318.066,81.3003,5253.46,2076.33,8196.92,-29.3104,0.772945,20.1222,-1780.22,9447.53,-892.89,39.2822,15.3344,287.047,-2269.39,-9760.69,-2235.37,-3.99718,-17.7403,43.4879,-6479.93,6754.56,833.616,66.9748,92.4987,125.807,644.947,-9432.54,-2480.39,-11.9108,-8.38588,54.4567,8324.41,-1348.01,1548.59,21.1316,18.336,18.7839
5.1165,7867.96,38.1286,8936.58,-108.999,318.578,80.9095,5241.71,2058.31,8192.33,-29.3104,0.850723,20.0673,-1837.63,9519.88,-891.443,39.4536,14.4566,287.818,-2252.22,-9770.82,-2230.1,-3.97079,-17.7791,43.4718,-6506.99,6788.56,911.025,66.7849,91.5475,125.201,627.145,-9436.66,-2454.24,-11.943,-8.15068,54.5767,8314.94,-1362.61,1540.19,21.1013,18.1496,18.7895
5.117,7965.05,6.51471,8965.46,-109.469,319.09,80.5186,5229.96,2040.29,8187.73,-29.3105,0.928501,20.0124,-1895.05,9592.22,-889.996,39.625,13.5787,288.589,-2235.05,-9780.96,-2224.83,-3.94441,-17.8178,43.4556,-6534.06,6822.57,988.434,66.595,90.5963,124.594,609.342,-9440.79,-2428.08,-11.9751,-7.91549,54.6967,8305.46,-1377.2,1531.78,21.0709,17.9633,18.7952
5.1175,8062.14,-25.0991,8994.34,-109.939,319.602,80.1278,5218.22,2022.27,8183.14,-29.3105,1.00628,19.9575,-1952.46,9664.56,-888.549,39.7964,12.7009,289.361,-2217.88,-9791.09,-2219.57,-3.91803,-17.8566,43.4395,-6561.12,6856.57,1065.84,66.4051,89.645,123.988,591.539,-9444.91,-2401.93,-12.0073,-7.68029,54.8167,8295.99,-1391.8,1523.38,21.0405,17.777,18.8009
5.118,8159.22,-56.713,9023.22,-110.409,320.114,79.737,5206.47,2004.25,8178.54,-29.3105,1.08406,19.9026,-2009.88,9736.91,-887.102,39.9679,11.823,290.132,-2200.7,-9801.22,-2214.3,-3.89165,-17.8954,43.4233,-6588.19,6890.58,1143.25,66.2152,88.6938,123.381,573.737,-9449.04,-2375.77,-12.0395,-7.44509,54.9367,8286.51,-1406.39,1514.97,21.0102,17.5907,18.8065
5.1185,8256.31,-88.3268,9052.1,-110.879,320.626,79.3462,5194.72,1986.23,8173.95,-29.3105,1.16183,19.8477,-2067.29,9809.25,-885.655,40.1393,10.9452,290.903,-2183.53,-9811.35,-2209.03,-3.86527,-17.9341,43.4072,-6615.26,6924.58,1220.66,66.0253,87.7426,122.774,555.934,-9453.16,-2349.62,-12.0716,-7.20989,55.0567,8277.04,-1420.99,1506.56,20.9798,17.4044,18.8122
5.119,8353.4,-119.941,9080.98,-111.349,321.137,78.9553,5182.98,1968.21,8169.36,-29.3105,1.23961,19.7929,-2124.7,9881.59,-884.208,40.3107,10.0673,291.674,-2166.36,-9821.49,-2203.76,-3.83888,-17.9729,43.391,-6642.32,6958.58,1298.07,65.8354,86.7914,122.168,538.132,-9457.29,-2323.46,-12.1038,-6.97469,55.1767,8267.57,-1435.59,1498.16,20.9495,17.2181,18.8179
5.1195,8450.49,-151.554,9109.86,-111.82,321.649,78.5645,5171.23,1950.2,8164.76,-29.3106,1.31739,19.738,-2182.12,9953.93,-882.761,40.4821,9.18947,292.446,-2149.19,-9831.62,-2198.49,-3.8125,-18.0116,43.3749,-6669.39,6992.59,1375.48,65.6455,85.8401,121.561,520.329,-9461.42,-2297.31,-12.136,-6.7395,55.2967,8258.09,-1450.18,1489.75,20.9191,17.0317,18.8235
5.12,8547.58,-183.168,9138.74,-112.29,322.161,78.1737,5159.48,1932.18,8160.17,-29.3106,1.39517,19.6831,-2239.53,10026.3,-881.314,40.6535,8.31162,293.217,-2132.01,-9841.75,-2193.23,-3.78612,-18.0504,43.3587,-6696.45,7026.59,1452.89,65.4556,84.8889,120.955,502.527,-9465.54,-2271.15,-12.1681,-6.5043,55.4167,8248.62,-1464.78,1481.35,20.8888,16.8454,18.8292
5.1205,8602.19,-202.284,9134.18,-112.368,322.724,77.726,5153.03,1929.71,8168.39,-29.2906,1.38975,19.5915,-2262.22,10068.4,-895.696,40.9072,7.57823,293.856,-2124.23,-9845.13,-2162.19,-3.79266,-18.0256,43.4381,-6701.55,7047.45,1485.47,64.5724,83.9121,120.323,482.03,-9484.73,-2234.0,-12.203,-6.39298,55.5616,8255.09,-1461.3,1488.16,20.7691,16.7263,18.8896
5.121,8656.81,-221.399,9129.62,-112.447,323.286,77.2783,5146.57,1927.23,8176.6,-29.2706,1.38434,19.4999,-2284.9,10110.5,-910.078,41.1609,6.84483,294.496,-2116.45,-9848.5,-2131.15,-3.7992,-18.0008,43.5176,-6706.65,7068.31,1518.06,63.6892,82.9353,119.691,461.533,-9503.92,-2196.85,-12.2379,-6.28166,55.7065,8261.57,-1457.83,1494.98,20.6494,16.6072,18.95
5.1215,8711.43,-240.514,9125.05,-112.526,323.848,76.8306,5140.11,1924.76,8184.82,-29.2506,1.37892,19.4083,-2307.59,10152.5,-924.46,41.4146,6.11144,295.136,-2108.67,-9851.88,-2100.11,-3.80574,-17.9761,43.597,-6711.74,7089.16,1550.64,62.806,81.9585,119.059,441.037,-9523.1,-2159.7,-12.2728,-6.17034,55.8514,8268.05,-1454.36,1501.8,20.5297,16.4881,19.0104
5.122,8766.05,-259.629,9120.49,-112.605,324.411,76.3828,5133.65,1922.29,8193.04,-29.2306,1.3735,19.3167,-2330.28,10194.6,-938.842,41.6683,5.37805,295.775,-2100.89,-9855.26,-2069.07,-3.81228,-17.9513,43.6764,-6716.84,7110.02,1583.23,61.9229,80.9817,118.427,420.54,-9542.29,-2122.55,-12.3076,-6.05902,55.9963,8274.53,-1450.88,1508.61,20.41,16.369,19.0708
5.1225,8820.67,-278.744,9115.93,-112.684,324.973,75.9351,5127.19,1919.82,8201.26,-29.2106,1.36809,19.2251,-2352.96,10236.7,-953.224,41.9219,4.64465,296.415,-2093.11,-9858.63,-2038.03,-3.81882,-17.9265,43.7558,-6721.93,7130.88,1615.81,61.0397,80.0049,117.794,400.043,-9561.48,-2085.39,-12.3425,-5.9477,56.1412,8281.0,-1447.41,1515.43,20.2904,16.2499,19.1312
5.123,8875.29,-297.86,9111.36,-112.763,325.535,75.4874,5120.73,1917.35,8209.48,-29.1906,1.36267,19.1335,-2375.65,10278.8,-967.605,42.1756,3.91126,297.055,-2085.33,-9862.01,-2006.99,-3.82536,-17.9017,43.8352,-6727.03,7151.73,1648.39,60.1565,79.0281,117.162,379.547,-9580.67,-2048.24,-12.3774,-5.83638,56.2861,8287.48,-1443.94,1522.24,20.1707,16.1308,19.1916
5.1235,8929.91,-316.975,9106.8,-112.842,326.098,75.0397,5114.27,1914.88,8217.7,-29.1706,1.35725,19.0419,-2398.33,10320.9,-981.987,42.4293,3.17786,297.694,-2077.55,-9865.39,-1975.95,-3.83191,-17.8769,43.9146,-6732.13,7172.59,1680.98,59.2733,78.0513,116.53,359.05,-9599.86,-2011.09,-12.4123,-5.72506,56.431,8293.96,-1440.46,1529.06,20.051,16.0116,19.252
5.124,8984.53,-336.09,9102.24,-112.92,326.66,74.592,5107.81,1912.41,8225.92,-29.1506,1.35184,18.9503,-2421.02,10363.0,-996.369,42.683,2.44447,298.334,-2069.77,-9868.76,-1944.91,-3.83845,-17.8521,43.994,-6737.22,7193.45,1713.56,58.3901,77.0745,115.898,338.553,-9619.04,-1973.94,-12.4472,-5.61374,56.5759,8300.43,-1436.99,1535.87,19.9313,15.8925,19.3125
5.1245,9035.23,-353.799,9099.64,-113.002,327.183,74.1485,5101.46,1910.23,8234.65,-29.1306,1.3462,18.864,-2440.99,10404.2,-1010.45,42.9449,1.72266,298.969,-2063.41,-9871.48,-1919.09,-3.84466,-17.8327,44.0674,-6740.14,7212.13,1745.83,57.4382,76.0977,115.278,316.45,-9638.09,-1936.12,-12.479,-5.52049,56.7109,8307.27,-1433.99,1542.48,19.8073,15.7748,19.3761
5.125,9054.55,-360.259,9112.81,-113.104,327.392,73.7387,5095.94,1910.38,8247.5,-29.1113,1.33882,18.8201,-2439.21,10438.7,-1022.17,43.273,1.09353,299.564,-2068.42,-9868.93,-1934.99,-3.84823,-17.8561,44.0927,-6725.6,7213.42,1775.52,55.9366,75.1215,114.757,281.491,-9656.0,-1892.96,-12.4864,-5.57176,56.767,8316.99,-1434.74,1547.42,19.6483,15.6679,19.4657
5.1255,9073.88,-366.718,9125.97,-113.206,327.602,73.3289,5090.42,1910.53,8260.35,-29.092,1.33144,18.7762,-2437.42,10473.2,-1033.88,43.6011,0.464391,300.16,-2073.42,-9866.38,-1950.89,-3.8518,-17.8795,44.118,-6711.07,7214.72,1805.21,54.4351,74.1452,114.235,246.533,-9673.92,-1849.8,-12.4939,-5.62304,56.8231,8326.71,-1435.48,1552.35,19.4894,15.5609,19.5552
5.126,9093.2,-373.178,9139.13,-113.309,327.811,72.9191,5084.91,1910.68,8273.2,-29.0727,1.32406,18.7322,-2435.64,10507.6,-1045.6,43.9293,-0.164743,300.755,-2078.43,-9863.83,-1966.79,-3.85537,-17.9028,44.1433,-6696.53,7216.01,1834.9,52.9335,73.169,113.714,211.575,-9691.83,-1806.64,-12.5013,-5.67432,56.8791,8336.42,-1436.23,1557.29,19.3304,15.454,19.6448
5.1265,9112.53,-379.637,9152.29,-113.411,328.021,72.5092,5079.39,1910.84,8286.05,-29.0534,1.31668,18.6883,-2433.86,10542.1,-1057.31,44.2574,-0.793877,301.35,-2083.43,-9861.29,-1982.69,-3.85894,-17.9262,44.1686,-6682.0,7217.3,1864.59,51.4319,72.1927,113.192,176.617,-9709.74,-1763.48,-12.5087,-5.7256,56.9352,8346.14,-1436.98,1562.22,19.1714,15.3471,19.7344
5.127,9131.86,-386.097,9165.45,-113.513,328.23,72.0994,5073.88,1910.99,8298.9,-29.0341,1.3093,18.6443,-2432.08,10576.6,-1069.03,44.5855,-1.42301,301.946,-2088.44,-9858.74,-1998.59,-3.86251,-17.9496,44.1939,-6667.46,7218.6,1894.28,49.9303,71.2165,112.671,141.658,-9727.65,-1720.31,-12.5162,-5.77687,56.9912,8355.86,-1437.73,1567.16,19.0124,15.2402,19.8239
5.1275,9151.18,-392.556,9178.61,-113.616,328.44,71.6896,5068.36,1911.14,8311.75,-29.0148,1.30192,18.6004,-2430.3,10611.0,-1080.74,44.9136,-2.05215,302.541,-2093.44,-9856.19,-2014.49,-3.86608,-17.973,44.2192,-6652.93,7219.89,1923.98,48.4287,70.2402,112.149,106.7,-9745.57,-1677.15,-12.5236,-5.82815,57.0473,8365.58,-1438.48,1572.1,18.8535,15.1332,19.9135
5.128,9170.51,-399.016,9191.77,-113.718,328.649,71.2798,5062.85,1911.29,8324.59,-28.9955,1.29454,18.5565,-2428.52,10645.5,-1092.45,45.2417,-2.68128,303.137,-2098.45,-9853.64,-2030.39,-3.86965,-17.9964,44.2446,-6638.39,7221.19,1953.67,46.9271,69.264,111.628,71.742,-9763.48,-1633.99,-12.5311,-5.87943,57.1034,8375.29,-1439.23,1577.03,18.6945,15.0263,20.0031
5.1285,9189.83,-405.475,9204.93,-113.82,328.859,70.87,5057.33,1911.44,8337.44,-28.9762,1.28716,18.5125,-2426.74,10680.0,-1104.17,45.5698,-3.31042,303.732,-2103.45,-9851.09,-2046.29,-3.87321,-18.0197,44.2699,-6623.86,7222.48,1983.36,45.4255,68.2878,111.106,36.7837,-9781.39,-1590.83,-12.5385,-5.9307,57.1594,8385.01,-1439.98,1581.97,18.5355,14.9194,20.0927
5.129,9206.14,-403.573,9220.4,-113.926,329.013,70.4552,5053.73,1910.96,8349.73,-28.9578,1.2753,18.4538,-2415.44,10717.5,-1115.27,45.8924,-3.87744,304.276,-2105.18,-9850.43,-2052.9,-3.88484,-18.0449,44.3195,-6608.88,7216.85,2014.4,43.8618,67.3171,110.617,3.62493,-9799.28,-1549.48,-12.5259,-6.01165,57.2135,8395.41,-1441.41,1582.9,18.3888,14.8433,20.1795
5.1295,9211.87,-372.406,9243.91,-114.044,328.974,70.0228,5056.84,1908.25,8360.07,-28.9425,1.24774,18.3434,-2370.83,10765.6,-1124.21,46.1959,-4.22708,304.639,-2095.45,-9856.38,-2026.97,-3.92465,-18.0764,44.454,-6592.35,7187.01,2050.18,42.0809,66.3663,110.242,-23.2359,-9817.08,-1514.45,-12.4432,-6.19644,57.2609,8408.21,-1445.27,1569.83,18.2847,14.8751,20.2568
5.13,9217.59,-341.239,9267.43,-114.162,328.934,69.5905,5059.94,1905.55,8370.41,-28.9273,1.22018,18.233,-2326.22,10813.7,-1133.16,46.4993,-4.57672,305.002,-2085.71,-9862.33,-2001.03,-3.96446,-18.1079,44.5886,-6575.82,7157.17,2085.95,40.2999,65.4155,109.867,-50.0966,-9834.87,-1479.43,-12.3605,-6.38123,57.3082,8421.01,-1449.13,1556.76,18.1806,14.9069,20.334
5.1305,9223.32,-310.072,9290.94,-114.28,328.895,69.1581,5063.04,1902.84,8380.75,-28.912,1.19262,18.1226,-2281.61,10861.9,-1142.11,46.8028,-4.92636,305.365,-2075.98,-9868.29,-1975.1,-4.00427,-18.1393,44.7232,-6559.3,7127.33,2121.73,38.5189,64.4647,109.492,-76.9574,-9852.67,-1444.41,-12.2778,-6.56602,57.3555,8433.82,-1452.98,1543.69,18.0765,14.9387,20.4113
5.131,9229.05,-278.904,9314.46,-114.398,328.856,68.7258,5066.15,1900.13,8391.09,-28.8967,1.16506,18.0123,-2237.0,10910.0,-1151.05,47.1062,-5.276,305.728,-2066.24,-9874.24,-1949.17,-4.04408,-18.1708,44.8578,-6542.77,7097.48,2157.5,36.7379,63.5138,109.117,-103.818,-9870.46,-1409.38,-12.1951,-6.75081,57.4029,8446.62,-1456.84,1530.62,17.9724,14.9706,20.4886
5.1315,9234.77,-247.737,9337.97,-114.516,328.816,68.2935,5069.25,1897.43,8401.43,-28.8815,1.1375,17.9019,-2192.39,10958.1,-1160.0,47.4096,-5.62564,306.091,-2056.51,-9880.19,-1923.23,-4.08389,-18.2023,44.9924,-6526.24,7067.64,2193.28,34.957,62.563,108.742,-130.679,-9888.26,-1374.36,-12.1124,-6.9356,57.4502,8459.42,-1460.69,1517.55,17.8683,15.0024,20.5658
5.132,9240.5,-216.57,9361.49,-114.634,328.777,67.8611,5072.36,1894.72,8411.76,-28.8662,1.10994,17.7915,-2147.78,11006.3,-1168.94,47.7131,-5.97528,306.454,-2046.77,-9886.14,-1897.3,-4.1237,-18.2337,45.127,-6509.71,7037.8,2229.05,33.176,61.6122,108.367,-157.54,-9906.06,-1339.34,-12.0297,-7.12039,57.4975,8472.22,-1464.55,1504.48,17.7642,15.0342,20.6431
5.1325,9246.23,-185.403,9385.0,-114.752,328.738,67.4288,5075.46,1892.01,8422.1,-28.8509,1.08238,17.6811,-2103.18,11054.4,-1177.89,48.0165,-6.32492,306.817,-2037.04,-9892.09,-1871.37,-4.16351,-18.2652,45.2616,-6493.18,7007.96,2264.83,31.395,60.6614,107.992,-184.401,-9923.85,-1304.31,-11.947,-7.30518,57.5448,8485.02,-1468.4,1491.41,17.6601,15.066,20.7203
5.133,9251.96,-154.235,9408.52,-114.87,328.699,66.9964,5078.57,1889.31,8432.44,-28.8357,1.05482,17.5707,-2058.57,11102.6,-1186.83,48.32,-6.67455,307.18,-2027.3,-9898.05,-1845.43,-4.20332,-18.2967,45.3962,-6476.66,6978.11,2300.6,29.614,59.7105,107.616,-211.261,-9941.65,-1269.29,-11.8643,-7.48997,57.5922,8497.82,-1472.26,1478.34,17.556,15.0978,20.7976
5.1335,9266.24,-123.485,9427.47,-114.974,328.609,66.5403,5083.47,1882.34,8440.99,-28.8227,0.998891,17.4793,-2016.24,11148.6,-1197.32,48.5941,-6.94499,307.517,-2024.49,-9905.45,-1819.85,-4.23888,-18.2794,45.4955,-6455.05,6944.56,2324.67,27.8911,58.7164,107.275,-231.638,-9960.04,-1233.36,-11.756,-7.69684,57.638,8511.28,-1474.88,1465.87,17.4568,15.1441,20.8995
5.134,9297.63,-93.569,9437.27,-115.049,328.419,66.0366,5091.97,1866.83,8445.96,-28.8145,0.88623,17.4257,-1978.48,11190.4,-1210.89,48.8095,-7.05701,307.801,-2035.54,-9915.74,-1794.97,-4.26595,-18.1647,45.5244,-6423.29,6903.59,2325.35,26.2843,57.6355,107.002,-239.047,-9979.6,-1195.62,-11.5964,-7.94786,57.6808,8526.07,-1475.05,1454.62,17.3674,15.2194,21.0505
5.1345,9329.02,-63.6528,9447.07,-115.125,328.228,65.533,5100.46,1851.32,8450.94,-28.8062,0.773569,17.3721,-1940.72,11232.3,-1224.46,49.0249,-7.16903,308.085,-2046.59,-9926.04,-1770.09,-4.29301,-18.0501,45.5532,-6391.52,6862.62,2326.02,24.6775,56.5546,106.728,-246.456,-9999.17,-1157.89,-11.4368,-8.19888,57.7236,8540.86,-1475.21,1443.36,17.278,15.2947,21.2015
5.135,9360.41,-33.7365,9456.87,-115.201,328.038,65.0293,5108.96,1835.81,8455.91,-28.7979,0.660907,17.3186,-1902.95,11274.1,-1238.03,49.2403,-7.28105,308.369,-2057.64,-9936.33,-1745.21,-4.32007,-17.9354,45.5821,-6359.76,6821.65,2326.69,23.0707,55.4737,106.454,-253.865,-10018.7,-1120.15,-11.2772,-8.44991,57.7664,8555.64,-1475.38,1432.11,17.1886,15.3699,21.3525
5.1355,9391.8,-3.82028,9466.68,-115.276,327.848,64.5256,5117.46,1820.3,8460.88,-28.7896,0.548246,17.265,-1865.19,11315.9,-1251.59,49.4557,-7.39308,308.653,-2068.69,-9946.63,-1720.34,-4.34714,-17.8207,45.611,-6328.0,6780.68,2327.36,21.4639,54.3928,106.181,-261.273,-10038.3,-1082.41,-11.1176,-8.70093,57.8092,8570.43,-1475.54,1420.85,17.0992,15.4452,21.5035
5.136,9423.2,26.096,9476.48,-115.352,327.658,64.0219,5125.95,1804.8,8465.85,-28.7813,0.435584,17.2114,-1827.43,11357.8,-1265.16,49.6711,-7.5051,308.937,-2079.74,-9956.92,-1695.46,-4.3742,-17.706,45.6398,-6296.23,6739.71,2328.03,19.8571,53.3119,105.907,-268.682,-10057.9,-1044.68,-10.958,-8.95195,57.852,8585.22,-1475.71,1409.6,17.0098,15.5205,21.6545
5.1365,9454.59,56.0122,9486.28,-115.428,327.467,63.5182,5134.45,1789.29,8470.83,-28.7731,0.322923,17.1579,-1789.66,11399.6,-1278.73,49.8865,-7.61712,309.221,-2090.79,-9967.22,-1670.58,-4.40127,-17.5914,45.6687,-6264.47,6698.74,2328.71,18.2503,52.231,105.634,-276.091,-10077.4,-1006.94,-10.7984,-9.20297,57.8948,8600.01,-1475.87,1398.34,16.9205,15.5958,21.8055
5.137,9485.98,85.9284,9496.08,-115.503,327.277,63.0146,5142.95,1773.78,8475.8,-28.7648,0.210261,17.1043,-1751.9,11441.4,-1292.3,50.1019,-7.72914,309.505,-2101.84,-9977.52,-1645.7,-4.42833,-17.4767,45.6976,-6232.71,6657.76,2329.38,16.6435,51.1501,105.36,-283.5,-10097.0,-969.204,-10.6388,-9.45399,57.9376,8614.8,-1476.04,1387.08,16.8311,15.671,21.9565
5.1375,9517.37,115.845,9505.89,-115.579,327.087,62.5109,5151.44,1758.27,8480.77,-28.7565,0.0976,17.0507,-1714.14,11483.3,-1305.87,50.3173,-7.84117,309.789,-2112.89,-9987.81,-1620.82,-4.45539,-17.362,45.7264,-6200.94,6616.79,2330.05,15.0367,50.0692,105.086,-290.908,-10116.6,-931.468,-10.4792,-9.70501,57.9804,8629.58,-1476.2,1375.83,16.7417,15.7463,22.1075
5.138,9545.42,139.317,9513.87,-115.728,326.823,62.0681,5156.93,1737.32,8477.95,-28.6086,-0.0535331,17.0106,-1685.78,11526.6,-1323.02,50.5587,-7.80069,310.016,-2124.5,-9998.62,-1600.51,-4.50288,-17.265,45.7625,-6181.91,6564.33,2314.6,13.6133,49.0685,104.865,-300.061,-10133.6,-892.932,-10.3369,-9.9533,57.9821,8643.11,-1475.25,1367.87,16.6538,15.8473,22.2381
5.1385,9569.29,154.735,9519.57,-115.969,326.468,61.7014,5158.65,1709.55,8465.4,-28.2861,-0.252756,16.9872,-1669.18,11571.8,-1344.66,50.8325,-7.5696,310.171,-2136.81,-10010.1,-1585.91,-4.57589,-17.19,45.8075,-6178.8,6497.51,2279.0,12.419,48.1679,104.71,-311.395,-10147.4,-853.397,-10.2162,-10.1982,57.9325,8655.07,-1472.89,1364.04,16.5678,15.9803,22.3432
5.139,9593.16,170.152,9525.27,-116.209,326.113,61.3347,5160.38,1681.79,8452.84,-27.9636,-0.451978,16.9638,-1652.57,11617.0,-1366.3,51.1063,-7.33852,310.327,-2149.13,-10021.5,-1571.3,-4.64889,-17.115,45.8525,-6175.69,6430.68,2243.4,11.2248,47.2673,104.555,-322.728,-10161.3,-813.862,-10.0956,-10.4431,57.8829,8667.03,-1470.53,1360.2,16.4818,16.1134,22.4482
5.1395,9617.04,185.569,9530.98,-116.45,325.758,60.9681,5162.1,1654.02,8440.28,-27.6411,-0.651201,16.9405,-1635.97,11662.2,-1387.93,51.3802,-7.10743,310.482,-2161.45,-10033.0,-1556.7,-4.7219,-17.04,45.8975,-6172.58,6363.86,2207.79,10.0305,46.3666,104.4,-334.061,-10175.1,-774.326,-9.97493,-10.6879,57.8333,8678.99,-1468.17,1356.37,16.3958,16.2465,22.5533
5.14,9640.91,200.987,9536.68,-116.691,325.403,60.6014,5163.82,1626.25,8427.73,-27.3186,-0.850424,16.9171,-1619.36,11707.4,-1409.57,51.654,-6.87634,310.638,-2173.76,-10044.4,-1542.1,-4.79491,-16.965,45.9426,-6169.47,6297.03,2172.19,8.83629,45.466,104.245,-345.395,-10189.0,-734.791,-9.85428,-10.9328,57.7837,8690.95,-1465.81,1352.54,16.3098,16.3796,22.6583
5.1405,9664.78,216.404,9542.38,-116.932,325.048,60.2347,5165.54,1598.49,8415.17,-26.9961,-1.04965,16.8938,-1602.76,11752.6,-1431.21,51.9278,-6.64525,310.793,-2186.08,-10055.9,-1527.49,-4.86792,-16.89,45.9876,-6166.35,6230.21,2136.59,7.64205,44.5654,104.09,-356.728,-10202.9,-695.256,-9.73363,-11.1777,57.7341,8702.91,-1463.45,1348.7,16.2238,16.5127,22.7634
5.141,9688.66,231.822,9548.09,-117.172,324.693,59.868,5167.27,1570.72,8402.61,-26.6736,-1.24887,16.8704,-1586.16,11797.8,-1452.84,52.2016,-6.41416,310.948,-2198.39,-10067.4,-1512.89,-4.94093,-16.8151,46.0326,-6163.24,6163.38,2100.99,6.44781,43.6648,103.935,-368.061,-10216.7,-655.721,-9.61298,-11.4226,57.6845,8714.87,-1461.09,1344.87,16.1378,16.6458,22.8684
5.1415,9712.53,247.239,9553.79,-117.413,324.338,59.5014,5168.99,1542.95,8390.06,-26.3511,-1.44809,16.847,-1569.55,11843.0,-1474.48,52.4755,-6.18307,311.104,-2210.71,-10078.8,-1498.29,-5.01394,-16.7401,46.0776,-6160.13,6096.56,2065.39,5.25357,42.7642,103.78,-379.394,-10230.6,-616.186,-9.49232,-11.6675,57.6349,8726.83,-1458.73,1341.04,16.0518,16.7789,22.9735
5.142,9736.4,262.657,9559.49,-117.654,323.983,59.1347,5170.71,1515.19,8377.5,-26.0286,-1.64731,16.8237,-1552.95,11888.2,-1496.11,52.7493,-5.95199,311.259,-2223.02,-10090.3,-1483.68,-5.08695,-16.6651,46.1226,-6157.02,6029.73,2029.79,4.05933,41.8636,103.625,-390.728,-10244.4,-576.651,-9.37167,-11.9124,57.5853,8738.79,-1456.37,1337.2,15.9658,16.9119,23.0785
5.1425,9752.67,279.233,9584.76,-117.931,323.541,58.8134,5170.23,1493.69,8373.04,-25.7672,-1.77602,16.6751,-1538.0,11934.3,-1506.49,52.9752,-5.61132,311.334,-2224.6,-10097.5,-1457.95,-5.16869,-16.6226,46.1909,-6152.76,5961.85,1983.32,3.33348,41.0294,103.485,-397.485,-10265.2,-542.63,-9.27645,-12.1913,57.5429,8754.89,-1451.07,1336.53,15.864,16.9987,23.19
5.143,9762.84,296.735,9625.69,-118.238,323.03,58.5283,5168.0,1477.21,8375.06,-25.5547,-1.84832,16.4265,-1524.38,11981.1,-1507.86,53.1626,-5.18299,311.346,-2217.57,-10101.4,-1423.3,-5.25742,-16.6062,46.2777,-6147.58,5893.11,1928.16,2.98233,40.2484,103.357,-400.581,-10291.4,-513.02,-9.20158,-12.4975,57.5062,8774.31,-1443.41,1338.38,15.7496,17.0484,23.3067
5.1435,9773.02,314.238,9666.62,-118.545,322.519,58.2433,5165.76,1460.72,8377.09,-25.3422,-1.92062,16.1779,-1510.76,12027.9,-1509.23,53.3501,-4.75466,311.358,-2210.55,-10105.2,-1388.66,-5.34615,-16.5897,46.3645,-6142.4,5824.38,1873.0,2.63118,39.4673,103.228,-403.677,-10317.6,-483.411,-9.12671,-12.8037,57.4694,8793.72,-1435.76,1340.24,15.6353,17.098,23.4233
5.144,9783.19,331.74,9707.54,-118.853,322.008,57.9582,5163.53,1444.24,8379.11,-25.1297,-1.99292,15.9292,-1497.13,12074.7,-1510.6,53.5375,-4.32633,311.369,-2203.52,-10109.1,-1354.02,-5.43488,-16.5733,46.4513,-6137.21,5755.65,1817.84,2.28003,38.6862,103.1,-406.773,-10343.9,-453.801,-9.05183,-13.1099,57.4327,8813.14,-1428.11,1342.09,15.5209,17.1477,23.5399
5.1445,9793.37,349.243,9748.47,-119.16,321.497,57.6732,5161.29,1427.76,8381.13,-24.9172,-2.06522,15.6806,-1483.51,12121.5,-1511.96,53.725,-3.898,311.381,-2196.5,-10113.0,-1319.37,-5.52361,-16.5568,46.5381,-6132.03,5686.91,1762.68,1.92888,37.9052,102.971,-409.869,-10370.1,-424.192,-8.97696,-13.4161,57.396,8832.55,-1420.45,1343.94,15.4065,17.1974,23.6566
5.145,9803.55,366.745,9789.4,-119.467,320.986,57.3882,5159.06,1411.28,8383.16,-24.7047,-2.13751,15.4319,-1469.89,12168.4,-1513.33,53.9125,-3.46967,311.392,-2189.47,-10116.8,-1284.73,-5.61234,-16.5403,46.6249,-6126.85,5618.18,1707.53,1.57774,37.1241,102.843,-412.965,-10396.3,-394.583,-8.90209,-13.7223,57.3592,8851.97,-1412.8,1345.8,15.2921,17.247,23.7732
5.1455,9813.72,384.248,9830.32,-119.774,320.475,57.1031,5156.82,1394.79,8385.18,-24.4922,-2.20981,15.1833,-1456.27,12215.2,-1514.7,54.0999,-3.04134,311.404,-2182.45,-10120.7,-1250.08,-5.70107,-16.5239,46.7117,-6121.67,5549.45,1652.37,1.22659,36.343,102.715,-416.061,-10422.6,-364.973,-8.82721,-14.0285,57.3225,8871.38,-1405.15,1347.65,15.1777,17.2967,23.8899
5.146,9823.9,401.75,9871.25,-120.081,319.964,56.8181,5154.59,1378.31,8387.2,-24.2797,-2.28211,14.9346,-1442.64,12262.0,-1516.07,54.2874,-2.61301,311.415,-2175.43,-10124.6,-1215.44,-5.7898,-16.5074,46.7985,-6116.49,5480.71,1597.21,0.875438,35.5619,102.586,-419.158,-10448.8,-335.364,-8.75234,-14.3347,57.2857,8890.79,-1397.49,1349.5,15.0633,17.3464,24.0065
5.1465,9834.08,419.253,9912.17,-120.388,319.453,56.533,5152.35,1361.83,8389.22,-24.0672,-2.35441,14.686,-1429.02,12308.8,-1517.44,54.4749,-2.18468,311.427,-2168.4,-10128.4,-1180.8,-5.87853,-16.491,46.8853,-6111.31,5411.98,1542.05,0.524289,34.7809,102.458,-422.254,-10475.0,-305.754,-8.67747,-14.6409,57.249,8910.21,-1389.84,1351.36,14.9489,17.3961,24.1231
5.147,9869.18,441.987,9937.91,-120.652,318.894,56.3115,5152.81,1352.39,8406.24,-23.9999,-2.47531,14.5619,-1436.41,12362.4,-1505.57,54.6592,-1.70798,311.431,-2161.73,-10138.3,-1164.42,-5.9535,-16.4919,46.924,-6105.34,5349.15,1479.67,0.865048,34.1619,102.204,-426.542,-10491.2,-290.235,-8.63896,-14.9987,57.1723,8927.43,-1389.14,1352.22,14.928,17.374,24.1649
5.1475,9916.76,467.336,9956.06,-120.896,318.31,56.1216,5154.61,1346.49,8430.74,-24.0053,-2.62052,14.5002,-1454.3,12419.5,-1487.1,54.8419,-1.2071,311.431,-2155.24,-10151.1,-1157.18,-6.02159,-16.5014,46.9387,-6098.98,5289.26,1413.68,1.55176,33.6241,101.887,-431.425,-10502.4,-281.76,-8.61862,-15.3824,57.0757,8943.57,-1391.91,1352.6,14.9538,17.316,24.1693
5.148,9964.33,492.685,9974.2,-121.139,317.726,55.9318,5156.41,1340.58,8455.25,-24.0106,-2.76573,14.4384,-1472.2,12476.6,-1468.62,55.0246,-0.706211,311.431,-2148.75,-10163.9,-1149.94,-6.08968,-16.511,46.9533,-6092.62,5229.38,1347.68,2.23847,33.0862,101.571,-436.309,-10513.5,-273.285,-8.59829,-15.766,56.9791,8959.7,-1394.69,1352.97,14.9797,17.258,24.1737
5.1485,10011.9,518.035,9992.35,-121.382,317.142,55.742,5158.21,1334.68,8479.75,-24.016,-2.91094,14.3767,-1490.09,12533.7,-1450.14,55.2073,-0.205325,311.431,-2142.26,-10176.8,-1142.7,-6.15778,-16.5205,46.9679,-6086.26,5169.5,1281.69,2.92518,32.5484,101.254,-441.192,-10524.7,-264.81,-8.57796,-16.1497,56.8825,8975.83,-1397.46,1353.34,15.0055,17.2,24.1781
5.149,10059.5,543.384,10010.5,-121.626,316.558,55.5522,5160.01,1328.77,8504.26,-24.0213,-3.05615,14.315,-1507.99,12590.7,-1431.67,55.39,0.295561,311.431,-2135.76,-10189.6,-1135.46,-6.22587,-16.5301,46.9826,-6079.9,5109.62,1215.7,3.61189,32.0105,100.937,-446.076,-10535.8,-256.336,-8.55762,-16.5333,56.7858,8991.96,-1400.23,1353.71,15.0313,17.1421,24.1825
5.1495,10107.1,568.734,10028.6,-121.869,315.974,55.3623,5161.81,1322.86,8528.76,-24.0267,-3.20136,14.2532,-1525.88,12647.8,-1413.19,55.5728,0.796446,311.431,-2129.27,-10202.4,-1128.22,-6.29397,-16.5396,46.9972,-6073.54,5049.74,1149.71,4.29861,31.4727,100.62,-450.96,-10547.0,-247.861,-8.53729,-16.917,56.6892,9008.09,-1403.01,1354.08,15.0571,17.0841,24.1869
5.15,10154.6,594.083,10046.8,-122.112,315.391,55.1725,5163.61,1316.96,8553.27,-24.032,-3.34657,14.1915,-1543.78,12704.9,-1394.72,55.7555,1.29733,311.431,-2122.78,-10215.3,-1120.98,-6.36206,-16.5492,47.0119,-6067.18,4989.85,1083.72,4.98532,30.9348,100.304,-455.843,-10558.1,-239.386,-8.51696,-17.3006,56.5926,9024.22,-1405.78,1354.46,15.0829,17.0261,24.1913
5.1505,10202.2,619.432,10064.9,-122.356,314.807,54.9827,5165.42,1311.05,8577.78,-24.0374,-3.49178,14.1297,-1561.67,12762.0,-1376.24,55.9382,1.79822,311.432,-2116.29,-10228.1,-1113.73,-6.43015,-16.5587,47.0265,-6060.82,4929.97,1017.72,5.67203,30.3969,99.9871,-460.727,-10569.2,-230.912,-8.49662,-17.6843,56.496,9040.36,-1408.56,1354.83,15.1088,16.9681,24.1957
5.151,10249.8,644.782,10083.1,-122.599,314.223,54.7929,5167.22,1305.14,8602.28,-24.0427,-3.63698,14.068,-1579.57,12819.1,-1357.76,56.1209,2.2991,311.432,-2109.8,-10240.9,-1106.49,-6.49825,-16.5682,47.0411,-6054.46,4870.09,951.733,6.35874,29.8591,99.6704,-465.611,-10580.4,-222.437,-8.47629,-18.0679,56.3993,9056.49,-1411.33,1355.2,15.1346,16.9102,24.2001
5.1515,10304.8,650.226,10102.8,-122.817,313.812,54.5956,5157.3,1294.77,8592.06,-23.9268,-3.79855,13.9077,-1603.99,12892.2,-1334.3,56.2508,2.87283,311.437,-2120.73,-10238.2,-1107.71,-6.53297,-16.5648,47.1206,-6038.99,4822.86,888.429,7.39521,29.3536,99.4549,-471.057,-10579.7,-221.628,-8.47799,-18.4399,56.3002,9064.23,-1415.18,1361.34,15.3116,16.7546,24.1191
5.152,10362.1,649.982,10123.1,-123.027,313.451,54.3961,5144.03,1283.11,8571.91,-23.7763,-3.96478,13.7192,-1630.27,12969.9,-1309.42,56.3655,3.46738,311.444,-2136.65,-10230.9,-1111.35,-6.55815,-16.5576,47.2185,-6020.92,4779.24,825.894,8.53161,28.8574,99.2683,-476.663,-10575.7,-223.009,-8.48598,-18.8085,56.2004,9069.57,-1419.35,1369.14,15.5318,16.5712,24.0136
5.1525,10419.3,649.739,10143.3,-123.238,313.089,54.1966,5130.76,1271.45,8551.76,-23.6258,-4.13101,13.5308,-1656.56,13047.6,-1284.54,56.4803,4.06192,311.451,-2152.56,-10223.7,-1114.98,-6.58333,-16.5505,47.3164,-6002.85,4735.62,763.358,9.66801,28.3612,99.0817,-482.27,-10571.7,-224.39,-8.49397,-19.1771,56.1006,9074.91,-1423.51,1376.93,15.7521,16.3879,23.9082
5.153,10476.5,649.496,10163.5,-123.449,312.728,53.9972,5117.5,1259.8,8531.61,-23.4753,-4.29724,13.3423,-1682.84,13125.4,-1259.65,56.595,4.65646,311.458,-2168.48,-10216.5,-1118.61,-6.60852,-16.5433,47.4143,-5984.77,4692.01,700.822,10.8044,27.865,98.8952,-487.876,-10567.7,-225.771,-8.50196,-19.5457,56.0008,9080.25,-1427.68,1384.72,15.9723,16.2045,23.8028
5.1535,10533.7,649.253,10183.7,-123.659,312.366,53.7977,5104.23,1248.14,8511.46,-23.3248,-4.46348,13.1539,-1709.12,13203.1,-1234.77,56.7098,5.25101,311.465,-2184.39,-10209.3,-1122.25,-6.6337,-16.5361,47.5122,-5966.7,4648.39,638.287,11.9408,27.3688,98.7086,-493.483,-10563.6,-227.152,-8.50995,-19.9143,55.901,9085.59,-1431.84,1392.52,16.1925,16.0211,23.6973
5.154,10590.9,649.01,10204.0,-123.87,312.005,53.5983,5090.96,1236.49,8491.32,-23.1743,-4.62971,12.9654,-1735.41,13280.8,-1209.89,56.8245,5.84555,311.472,-2200.3,-10202.0,-1125.88,-6.65889,-16.5289,47.6102,-5948.63,4604.77,575.751,13.0772,26.8726,98.522,-499.089,-10559.6,-228.534,-8.51794,-20.2829,55.8012,9090.93,-1436.01,1400.31,16.4128,15.8377,23.5919
5.1545,10648.1,648.766,10224.2,-124.08,311.643,53.3988,5077.69,1224.83,8471.17,-23.0238,-4.79594,12.777,-1761.69,13358.5,-1185.01,56.9393,6.44009,311.479,-2216.22,-10194.8,-1129.52,-6.68407,-16.5218,47.7081,-5930.56,4561.15,513.215,14.2136,26.3764,98.3355,-504.696,-10555.6,-229.915,-8.52593,-20.6515,55.7014,9096.27,-1440.17,1408.1,16.633,15.6543,23.4864
5.155,10705.3,648.523,10244.4,-124.291,311.282,53.1993,5064.43,1213.18,8451.02,-22.8733,-4.96217,12.5885,-1787.98,13436.2,-1160.12,57.054,7.03464,311.486,-2232.13,-10187.6,-1133.15,-6.70926,-16.5146,47.806,-5912.49,4517.54,450.68,15.35,25.8802,98.1489,-510.302,-10551.6,-231.296,-8.53392,-21.0201,55.6016,9101.61,-1444.34,1415.9,16.8532,15.4709,23.381
5.1555,10762.5,648.28,10264.6,-124.501,310.92,52.9999,5051.16,1201.52,8430.88,-22.7228,-5.12841,12.4001,-1814.26,13514.0,-1135.24,57.1688,7.62918,311.493,-2248.05,-10180.3,-1136.78,-6.73444,-16.5074,47.9039,-5894.42,4473.92,388.144,16.4864,25.384,97.9624,-515.909,-10547.5,-232.677,-8.54191,-21.3887,55.5018,9106.95,-1448.5,1423.69,17.0734,15.2875,23.2755
5.156,10837.6,661.949,10295.6,-124.698,310.566,53.0784,5055.71,1211.19,8423.47,-22.5503,-5.33124,12.1664,-1836.58,13574.8,-1108.54,57.2282,8.25019,311.427,-2254.75,-10182.0,-1140.86,-6.75243,-16.4146,47.9617,-5882.49,4469.21,346.517,17.8581,24.8509,97.8183,-503.376,-10547.7,-232.402,-8.45747,-21.6647,55.4158,9108.75,-1433.54,1426.98,17.4319,15.0327,23.0986
5.1565,10915.0,677.358,10327.9,-124.894,310.213,53.1916,5062.48,1223.54,8417.66,-22.3751,-5.53864,11.9272,-1858.4,13633.5,-1081.62,57.2806,8.8745,311.353,-2260.3,-10184.7,-1144.99,-6.76952,-16.311,48.0146,-5871.33,4469.38,307.504,19.2591,24.3132,97.6796,-488.575,-10548.3,-231.92,-8.36148,-21.929,55.3314,9110.11,-1416.19,1429.7,17.8077,14.769,22.9127
5.157,10992.4,692.767,10360.1,-125.089,309.861,53.3049,5069.25,1235.88,8411.85,-22.1998,-5.74604,11.6879,-1880.22,13692.2,-1054.7,57.3331,9.49881,311.279,-2265.85,-10187.4,-1149.12,-6.78661,-16.2075,48.0674,-5860.18,4469.54,268.491,20.6602,23.7754,97.5408,-473.775,-10548.9,-231.437,-8.26548,-22.1934,55.2471,9111.48,-1398.84,1432.43,18.1834,14.5052,22.7268
5.1575,11069.7,708.176,10392.4,-125.285,309.508,53.4181,5076.02,1248.22,8406.03,-22.0246,-5.95345,11.4486,-1902.04,13750.9,-1027.77,57.3855,10.1231,311.204,-2271.4,-10190.1,-1153.24,-6.8037,-16.1039,48.1202,-5849.02,4469.7,229.478,22.0612,23.2377,97.4021,-458.974,-10549.6,-230.955,-8.16948,-22.4578,55.1628,9112.84,-1381.49,1435.15,18.5591,14.2415,22.5409
5.158,11147.1,723.585,10424.7,-125.48,309.155,53.5314,5082.79,1260.56,8400.22,-21.8493,-6.16085,11.2093,-1923.86,13809.6,-1000.85,57.438,10.7474,311.13,-2276.95,-10192.8,-1157.37,-6.82078,-16.0003,48.173,-5837.87,4469.86,190.464,23.4623,22.6999,97.2634,-444.174,-10550.2,-230.473,-8.07349,-22.7222,55.0784,9114.2,-1364.14,1437.88,18.9349,13.9778,22.355
5.1585,11224.5,738.993,10457.0,-125.675,308.802,53.6446,5089.56,1272.9,8394.41,-21.6741,-6.36826,10.97,-1945.67,13868.3,-973.927,57.4905,11.3717,311.056,-2282.5,-10195.6,-1161.5,-6.83787,-15.8968,48.2258,-5826.71,4470.02,151.451,24.8633,22.1622,97.1246,-429.373,-10550.8,-229.991,-7.97749,-22.9866,54.9941,9115.56,-1346.79,1440.61,19.3106,13.714,22.1691
5.159,11301.8,754.402,10489.2,-125.871,308.449,53.7579,5096.33,1285.24,8388.6,-21.4988,-6.57566,10.7307,-1967.49,13927.0,-947.004,57.5429,11.9961,310.981,-2288.05,-10198.3,-1165.63,-6.85496,-15.7932,48.2786,-5815.56,4470.18,112.438,26.2644,21.6244,96.9859,-414.573,-10551.5,-229.509,-7.8815,-23.251,54.9098,9116.92,-1329.44,1443.33,19.6864,13.4503,21.9833
5.1595,11379.2,769.811,10521.5,-126.066,308.096,53.8711,5103.1,1297.58,8382.79,-21.3236,-6.78306,10.4914,-1989.31,13985.7,-920.081,57.5954,12.6204,310.907,-2293.6,-10201.0,-1169.76,-6.87205,-15.6896,48.3314,-5804.4,4470.34,73.4249,27.6654,21.0867,96.8471,-399.772,-10552.1,-229.027,-7.7855,-23.5154,54.8254,9118.28,-1312.09,1446.06,20.0621,13.1866,21.7974
5.16,11456.6,785.22,10553.8,-126.261,307.743,53.9843,5109.88,1309.92,8376.97,-21.1483,-6.99047,10.2521,-2011.13,14044.4,-893.158,57.6479,13.2447,310.833,-2299.15,-10203.7,-1173.89,-6.88914,-15.5861,48.3842,-5793.25,4470.5,34.4117,29.0664,20.5489,96.7084,-384.972,-10552.8,-228.544,-7.68951,-23.7798,54.7411,9119.64,-1294.74,1448.78,20.4379,12.9228,21.6115
5.1605,11538.1,745.034,10572.2,-126.228,307.409,54.0777,5110.95,1315.57,8381.87,-20.8741,-7.17547,10.2058,-2040.08,14122.6,-876.681,57.7336,13.9642,310.73,-2303.54,-10192.7,-1167.12,-6.91714,-15.5287,48.4618,-5780.55,4486.96,6.32211,30.4497,19.8585,96.4938,-374.395,-10545.9,-229.896,-7.59892,-23.8618,54.6928,9124.26,-1292.9,1428.4,20.6617,12.8377,21.3931
5.161,11619.6,704.848,10590.7,-126.195,307.074,54.171,5112.03,1321.23,8386.77,-20.6,-7.36047,10.1595,-2069.03,14200.8,-860.203,57.8194,14.6837,310.627,-2307.94,-10181.7,-1160.35,-6.94514,-15.4713,48.5394,-5767.85,4503.42,-21.7675,31.833,19.1681,96.2792,-363.819,-10539.1,-231.247,-7.50834,-23.9437,54.6444,9128.87,-1291.06,1408.02,20.8854,12.7525,21.1747
5.1615,11701.1,664.663,10609.1,-126.162,306.74,54.2644,5113.11,1326.89,8391.67,-20.3258,-7.54547,10.1132,-2097.98,14279.0,-843.726,57.9052,15.4032,310.524,-2312.33,-10170.7,-1153.58,-6.97314,-15.4139,48.6169,-5755.15,4519.88,-49.8571,33.2163,18.4777,96.0646,-353.242,-10532.2,-232.598,-7.41775,-24.0257,54.5961,9133.48,-1289.22,1387.64,21.1092,12.6673,20.9562
5.162,11782.6,624.477,10627.6,-126.13,306.405,54.3577,5114.18,1332.54,8396.57,-20.0516,-7.73047,10.0669,-2126.93,14357.2,-827.249,57.991,16.1227,310.421,-2316.73,-10159.7,-1146.81,-7.00114,-15.3565,48.6945,-5742.46,4536.33,-77.9467,34.5996,17.7873,95.85,-342.665,-10525.4,-233.95,-7.32717,-24.1077,54.5477,9138.1,-1287.38,1367.26,21.333,12.5821,20.7378
5.1625,11864.1,584.292,10646.0,-126.097,306.071,54.451,5115.26,1338.2,8401.47,-19.7774,-7.91547,10.0206,-2155.88,14435.4,-810.772,58.0768,16.8422,310.318,-2321.12,-10148.7,-1140.04,-7.02915,-15.2991,48.7721,-5729.76,4552.79,-106.036,35.9829,17.0969,95.6353,-332.088,-10518.5,-235.301,-7.23658,-24.1897,54.4994,9142.71,-1285.54,1346.88,21.5568,12.4969,20.5194
5.163,11945.6,544.106,10664.4,-126.064,305.737,54.5444,5116.34,1343.85,8406.37,-19.5032,-8.10047,9.97435,-2184.83,14513.7,-794.295,58.1626,17.5617,310.215,-2325.52,-10137.7,-1133.27,-7.05715,-15.2417,48.8496,-5717.06,4569.25,-134.126,37.3662,16.4065,95.4207,-321.512,-10511.7,-236.652,-7.14599,-24.2717,54.451,9147.32,-1283.7,1326.49,21.7806,12.4118,20.301
5.1635,12027.2,503.921,10682.9,-126.031,305.402,54.6377,5117.41,1349.51,8411.27,-19.229,-8.28547,9.92805,-2213.78,14591.9,-777.818,58.2484,18.2811,310.113,-2329.92,-10126.7,-1126.5,-7.08515,-15.1843,48.9272,-5704.37,4585.71,-162.215,38.7495,15.7161,95.2061,-310.935,-10504.8,-238.004,-7.05541,-24.3537,54.4027,9151.94,-1281.86,1306.11,22.0044,12.3266,20.0826
5.164,12108.7,463.735,10701.3,-125.998,305.068,54.7311,5118.49,1355.17,8416.17,-18.9548,-8.47048,9.88176,-2242.73,14670.1,-761.341,58.3342,19.0006,310.01,-2334.31,-10115.7,-1119.73,-7.11315,-15.1269,49.0048,-5691.67,4602.17,-190.305,40.1328,15.0257,94.9915,-300.358,-10498.0,-239.355,-6.96482,-24.4357,54.3543,9156.55,-1280.02,1285.73,22.2282,12.2414,19.8642
5.1645,12188.1,424.144,10719.3,-125.922,304.725,54.8678,5119.86,1359.1,8420.24,-18.6874,-8.64826,9.83173,-2268.26,14747.4,-744.593,58.4095,19.7322,309.91,-2337.71,-10105.7,-1114.84,-7.14256,-15.0709,49.079,-5678.6,4621.74,-213.012,41.4437,14.2948,94.7822,-290.22,-10490.6,-241.135,-6.87662,-24.5068,54.31,9161.0,-1278.32,1266.95,22.4024,12.1603,19.6397
5.165,12250.7,389.311,10733.7,-125.506,304.32,55.3521,5123.55,1349.24,8417.74,-18.4746,-8.7683,9.75182,-2266.42,14817.6,-725.68,58.4005,20.5602,309.84,-2333.09,-10104.1,-1125.03,-7.18327,-15.0269,49.1267,-5662.58,4666.2,-192.655,42.1757,13.2402,94.6157,-283.588,-10479.2,-246.346,-6.80748,-24.4911,54.2982,9164.1,-1277.73,1260.94,22.1798,12.1121,19.367
5.1655,12313.3,354.479,10748.0,-125.089,303.915,55.8364,5127.25,1339.38,8415.24,-18.2617,-8.88833,9.67191,-2264.57,14887.8,-706.766,58.3915,21.3883,309.769,-2328.47,-10102.5,-1135.23,-7.22398,-14.9828,49.1744,-5646.56,4710.66,-172.298,42.9077,12.1855,94.4491,-276.956,-10467.7,-251.558,-6.73833,-24.4754,54.2864,9167.2,-1277.13,1254.93,21.9572,12.0638,19.0942
5.166,12375.9,319.646,10762.3,-124.673,303.509,56.3207,5130.95,1329.52,8412.73,-18.0489,-9.00837,9.59201,-2262.73,14958.0,-687.852,58.3824,22.2163,309.698,-2323.85,-10100.9,-1145.42,-7.26469,-14.9387,49.2221,-5630.53,4755.11,-151.941,43.6397,11.1308,94.2825,-270.324,-10456.2,-256.769,-6.66919,-24.4597,54.2747,9170.31,-1276.54,1248.92,21.7346,12.0155,18.8215
5.1665,12438.5,284.813,10776.7,-124.257,303.104,56.805,5134.65,1319.66,8410.23,-17.836,-9.12841,9.5121,-2260.89,15028.2,-668.939,58.3734,23.0443,309.628,-2319.23,-10099.3,-1155.61,-7.30539,-14.8947,49.2698,-5614.51,4799.57,-131.584,44.3716,10.0761,94.116,-263.692,-10444.8,-261.98,-6.60004,-24.4441,54.2629,9173.41,-1275.95,1242.91,21.512,11.9673,18.5487
5.167,12501.2,249.98,10791.0,-123.84,302.699,57.2893,5138.34,1309.8,8407.73,-17.6232,-9.24844,9.4322,-2259.05,15098.4,-650.025,58.3644,23.8723,309.557,-2314.61,-10097.7,-1165.8,-7.3461,-14.8506,49.3176,-5598.49,4844.03,-111.228,45.1036,9.02139,93.9494,-257.06,-10433.3,-267.192,-6.5309,-24.4284,54.2511,9176.51,-1275.35,1236.91,21.2894,11.919,18.276
5.1675,12563.8,215.147,10805.3,-123.424,302.293,57.7736,5142.04,1299.94,8405.22,-17.4103,-9.36848,9.35229,-2257.21,15168.5,-631.112,58.3554,24.7004,309.486,-2310.0,-10096.0,-1176.0,-7.38681,-14.8065,49.3653,-5582.46,4888.49,-90.8708,45.8356,7.96669,93.7829,-250.428,-10421.8,-272.403,-6.46176,-24.4127,54.2393,9179.62,-1274.76,1230.9,21.0668,11.8708,18.0032
5.168,12626.4,180.315,10819.7,-123.007,301.888,58.2579,5145.74,1290.08,8402.72,-17.1975,-9.48852,9.27239,-2255.37,15238.7,-612.198,58.3464,25.5284,309.415,-2305.38,-10094.4,-1186.19,-7.42752,-14.7625,49.413,-5566.44,4932.95,-70.514,46.5676,6.912,93.6163,-243.797,-10410.3,-277.614,-6.39261,-24.397,54.2275,9182.72,-1274.17,1224.89,20.8442,11.8225,17.7304
5.1685,12689.0,145.482,10834.0,-122.591,301.483,58.7422,5149.44,1280.22,8400.22,-16.9847,-9.60856,9.19248,-2253.52,15308.9,-593.285,58.3374,26.3564,309.345,-2300.76,-10092.8,-1196.38,-7.46823,-14.7184,49.4607,-5550.42,4977.4,-50.1572,47.2996,5.85731,93.4497,-237.165,-10398.9,-282.826,-6.32347,-24.3813,54.2157,9185.82,-1273.57,1218.88,20.6217,11.7743,17.4577
5.169,12742.1,109.839,10843.8,-122.114,301.037,59.2757,5150.21,1271.16,8401.55,-16.7947,-9.74407,9.10223,-2260.02,15377.1,-575.079,58.3088,27.1902,309.254,-2297.86,-10089.0,-1203.39,-7.517,-14.6901,49.5156,-5531.2,5026.39,-27.3029,47.9141,4.72511,93.2467,-227.337,-10387.8,-285.922,-6.26295,-24.367,54.1978,9188.2,-1271.5,1213.98,20.3627,11.7101,17.1709
5.1695,12761.9,71.361,10837.6,-121.424,300.448,59.9816,5140.75,1264.91,8416.31,-16.6848,-9.93376,8.97579,-2295.72,15438.3,-559.352,58.2115,28.0443,309.095,-2300.99,-10077.2,-1199.25,-7.594,-14.7172,49.5957,-5500.81,5091.24,4.29251,48.1172,3.32167,92.916,-206.325,-10378.4,-281.618,-6.23261,-24.3577,54.1586,9188.05,-1264.28,1212.95,19.9765,11.5902,16.8351
5.17,12781.8,32.8831,10831.4,-120.735,299.859,60.6874,5131.3,1258.67,8431.07,-16.575,-10.1234,8.84935,-2331.42,15499.6,-543.624,58.1141,28.8984,308.936,-2304.11,-10065.4,-1195.12,-7.67101,-14.7443,49.6758,-5470.42,5156.08,35.8879,48.3203,1.91823,92.5852,-185.313,-10368.9,-277.313,-6.20227,-24.3483,54.1195,9187.9,-1257.05,1211.93,19.5903,11.4703,16.4993
5.1705,12801.6,-5.59491,10825.3,-120.045,299.27,61.3933,5121.84,1252.42,8445.83,-16.4651,-10.3131,8.72291,-2367.12,15560.8,-527.896,58.0168,29.7524,308.777,-2307.24,-10053.6,-1190.99,-7.74801,-14.7714,49.7559,-5440.02,5220.93,67.4833,48.5234,0.514786,92.2545,-164.3,-10359.5,-273.009,-6.17194,-24.339,54.0803,9187.75,-1249.82,1210.91,19.2041,11.3505,16.1635
5.171,12821.4,-44.0729,10819.1,-119.356,298.681,62.0992,5112.38,1246.18,8460.59,-16.3552,-10.5028,8.59647,-2402.81,15622.0,-512.169,57.9195,30.6065,308.617,-2310.36,-10041.8,-1186.85,-7.82501,-14.7985,49.836,-5409.63,5285.78,99.0787,48.7265,-0.888657,91.9238,-143.288,-10350.0,-268.704,-6.1416,-24.3296,54.0411,9187.61,-1242.59,1209.88,18.8179,11.2306,15.8276
5.1715,12841.3,-82.5509,10812.9,-118.666,298.093,62.805,5102.92,1239.93,8475.36,-16.2454,-10.6925,8.47003,-2438.51,15683.2,-496.441,57.8221,31.4605,308.458,-2313.49,-10030.0,-1182.72,-7.90202,-14.8256,49.9161,-5379.24,5350.62,130.674,48.9296,-2.2921,91.5931,-122.276,-10340.6,-264.4,-6.11126,-24.3203,54.0019,9187.46,-1235.36,1208.86,18.4317,11.1107,15.4918
5.172,12861.1,-121.029,10806.7,-117.976,297.504,63.5109,5093.47,1233.69,8490.12,-16.1355,-10.8822,8.34359,-2474.21,15744.4,-480.713,57.7248,32.3146,308.299,-2316.61,-10018.2,-1178.58,-7.97902,-14.8526,49.9962,-5348.85,5415.47,162.27,49.1327,-3.69554,91.2624,-101.263,-10331.1,-260.095,-6.08093,-24.3109,53.9627,9187.31,-1228.13,1207.83,18.0455,10.9908,15.156
5.1725,12880.9,-159.507,10800.6,-117.287,296.915,64.2168,5084.01,1227.44,8504.88,-16.0256,-11.0719,8.21714,-2509.91,15805.7,-464.985,57.6275,33.1686,308.139,-2319.73,-10006.4,-1174.45,-8.05603,-14.8797,50.0763,-5318.45,5480.31,193.865,49.3358,-5.09899,90.9316,-80.2509,-10321.7,-255.79,-6.05059,-24.3016,53.9235,9187.16,-1220.91,1206.81,17.6592,10.871,14.8202
5.173,12900.8,-197.985,10794.4,-116.597,296.326,64.9227,5074.55,1221.2,8519.64,-15.9158,-11.2616,8.0907,-2545.6,15866.9,-449.258,57.5302,34.0227,307.98,-2322.86,-9994.66,-1170.32,-8.13303,-14.9068,50.1564,-5288.06,5545.16,225.46,49.5389,-6.50243,90.6009,-59.2386,-10312.2,-251.486,-6.02026,-24.2922,53.8843,9187.01,-1213.68,1205.78,17.273,10.7511,14.4843
5.1735,12913.8,-242.851,10789.9,-115.87,295.621,65.6181,5066.53,1215.22,8528.71,-15.7836,-11.4693,7.96663,-2575.31,15922.1,-432.955,57.4051,34.8213,307.814,-2327.24,-9982.5,-1172.2,-8.20725,-14.9038,50.2324,-5253.43,5613.83,258.294,49.6038,-8.0026,90.2729,-35.0424,-10301.0,-250.496,-6.01803,-24.2735,53.8506,9186.48,-1206.57,1202.42,16.9309,10.6346,14.1499
5.174,12913.4,-300.492,10788.6,-115.068,294.681,66.2925,5061.36,1209.79,8526.38,-15.607,-11.713,7.84728,-2593.05,15965.4,-415.502,57.2245,35.5092,307.633,-2334.15,-9969.62,-1186.13,-8.27591,-14.8407,50.3004,-5210.32,5690.16,293.603,49.3921,-9.69623,89.9503,-4.47838,-10286.4,-256.136,-6.07203,-24.236,53.8278,9185.17,-1199.71,1194.38,16.6769,10.5249,13.8182
5.1745,12912.9,-358.134,10787.3,-114.267,293.742,66.967,5056.2,1204.35,8524.06,-15.4304,-11.9568,7.72794,-2610.78,16008.6,-398.049,57.0439,36.197,307.452,-2341.05,-9956.73,-1200.05,-8.34457,-14.7775,50.3683,-5167.21,5766.48,328.912,49.1805,-11.3899,89.6277,26.0856,-10271.8,-261.776,-6.12603,-24.1985,53.8051,9183.85,-1192.84,1186.33,16.423,10.4153,13.4865
5.175,12912.4,-415.775,10786.0,-113.465,292.802,67.6415,5051.04,1198.92,8521.74,-15.2537,-12.2005,7.60859,-2628.52,16051.9,-380.596,56.8634,36.8848,307.271,-2347.96,-9943.84,-1213.97,-8.41323,-14.7144,50.4362,-5124.1,5842.81,364.221,48.9688,-13.0835,89.3051,56.6496,-10257.2,-267.415,-6.18002,-24.1609,53.7823,9182.54,-1185.98,1178.29,16.169,10.3056,13.1547
5.1755,12911.9,-473.417,10784.7,-112.663,291.863,68.3159,5045.88,1193.48,8519.41,-15.0771,-12.4443,7.48925,-2646.25,16095.1,-363.142,56.6828,37.5726,307.091,-2354.86,-9930.95,-1227.89,-8.48188,-14.6513,50.5041,-5080.99,5919.14,399.529,48.7572,-14.7771,88.9824,87.2136,-10242.6,-273.055,-6.23402,-24.1234,53.7596,9181.23,-1179.11,1170.25,15.915,10.1959,12.823
5.176,12911.4,-531.059,10783.5,-111.862,290.924,68.9904,5040.71,1188.05,8517.09,-14.9005,-12.6881,7.3699,-2663.99,16138.4,-345.689,56.5022,38.2604,306.91,-2361.77,-9918.06,-1241.82,-8.55054,-14.5881,50.572,-5037.88,5995.47,434.838,48.5455,-16.4708,88.6598,117.778,-10228.0,-278.695,-6.28802,-24.0859,53.7368,9179.92,-1172.25,1162.2,15.6611,10.0863,12.4913
5.1765,12911.0,-588.7,10782.2,-111.06,289.984,69.6649,5035.55,1182.61,8514.77,-14.7238,-12.9318,7.25056,-2681.72,16181.6,-328.236,56.3217,38.9482,306.729,-2368.67,-9905.17,-1255.74,-8.6192,-14.525,50.6399,-4994.77,6071.79,470.147,48.3339,-18.1644,88.3372,148.342,-10213.4,-284.334,-6.34202,-24.0484,53.7141,9178.61,-1165.39,1154.16,15.4071,9.97659,12.1596
5.177,12910.5,-646.342,10780.9,-110.258,289.045,70.3394,5030.39,1177.18,8512.44,-14.5472,-13.1756,7.13121,-2699.46,16224.9,-310.783,56.1411,39.6361,306.548,-2375.57,-9892.28,-1269.66,-8.68786,-14.4618,50.7079,-4951.66,6148.12,505.456,48.1222,-19.858,88.0146,178.906,-10198.8,-289.974,-6.39601,-24.0109,53.6913,9177.3,-1158.52,1146.12,15.1531,9.86692,11.8278
5.1775,12910.0,-703.983,10779.6,-109.457,288.105,71.0138,5025.23,1171.74,8510.12,-14.3706,-13.4193,7.01187,-2717.2,16268.1,-293.33,55.9605,40.3239,306.367,-2382.48,-9879.39,-1283.59,-8.75652,-14.3987,50.7758,-4908.55,6224.45,540.765,47.9105,-21.5516,87.692,209.469,-10184.2,-295.614,-6.45001,-23.9734,53.6686,9175.99,-1151.66,1138.07,14.8991,9.75725,11.4961
5.178,12921.8,-770.432,10781.7,-108.506,287.031,71.8538,5027.55,1170.41,8501.91,-14.1315,-13.6601,6.87948,-2744.25,16314.6,-286.881,55.7815,40.9652,306.189,-2381.91,-9870.9,-1301.38,-8.81446,-14.3535,50.8415,-4871.01,6286.67,583.625,47.6244,-23.382,87.3078,233.923,-10171.0,-305.226,-6.52341,-23.9131,53.6465,9174.05,-1143.29,1141.52,14.7023,9.61687,11.1826
5.1785,12949.0,-847.89,10788.1,-107.368,285.788,72.9005,5039.23,1174.2,8486.33,-13.8146,-13.8971,6.73078,-2782.95,16365.0,-294.187,55.6044,41.5485,306.014,-2372.01,-9867.91,-1324.01,-8.85902,-14.3306,50.9045,-4840.44,6331.28,635.924,47.2452,-25.3832,86.8467,250.737,-10159.5,-319.805,-6.62107,-23.8241,53.6252,9171.32,-1133.04,1159.33,14.5769,9.43812,10.8919
5.179,12976.1,-925.347,10794.5,-106.23,284.546,73.9472,5050.91,1177.99,8470.75,-13.4976,-14.134,6.58209,-2821.65,16415.4,-301.494,55.4272,42.1318,305.839,-2362.1,-9864.92,-1346.63,-8.90358,-14.3077,50.9675,-4809.86,6375.89,688.222,46.866,-27.3844,86.3856,267.552,-10148.1,-334.383,-6.71873,-23.7352,53.604,9168.59,-1122.79,1177.14,14.4514,9.25936,10.6012
5.1795,13003.3,-1002.8,10800.9,-105.092,283.303,74.9939,5062.59,1181.79,8455.17,-13.1806,-14.371,6.43339,-2860.35,16465.8,-308.8,55.2501,42.7151,305.664,-2352.2,-9861.93,-1369.26,-8.94814,-14.2848,51.0305,-4779.28,6420.49,740.521,46.4868,-29.3856,85.9245,284.367,-10136.6,-348.962,-6.81639,-23.6462,53.5827,9165.87,-1112.54,1194.94,14.326,9.08061,10.3105
5.18,13030.5,-1080.26,10807.2,-103.954,282.06,76.0406,5074.27,1185.58,8439.6,-12.8636,-14.608,6.28469,-2899.05,16516.3,-316.106,55.073,43.2983,305.489,-2342.29,-9858.94,-1391.89,-8.9927,-14.2619,51.0935,-4748.7,6465.1,792.819,46.1077,-31.3868,85.4634,301.181,-10125.2,-363.54,-6.91404,-23.5573,53.5615,9163.14,-1102.29,1212.75,14.2006,8.90185,10.0198
5.1805,13057.6,-1157.72,10813.6,-102.817,280.817,77.0874,5085.95,1189.37,8424.02,-12.5466,-14.8449,6.136,-2937.75,16566.7,-323.413,54.8959,43.8816,305.315,-2332.39,-9855.95,-1414.52,-9.03725,-14.239,51.1565,-4718.13,6509.71,845.118,45.7285,-33.388,85.0023,317.996,-10113.7,-378.118,-7.0117,-23.4683,53.5402,9160.41,-1092.04,1230.56,14.0752,8.7231,9.72915
5.181,13084.8,-1235.18,10820.0,-101.679,279.574,78.1341,5097.63,1193.17,8408.44,-12.2296,-15.0819,5.9873,-2976.45,16617.1,-330.719,54.7188,44.4649,305.14,-2322.48,-9852.96,-1437.14,-9.08181,-14.2161,51.2195,-4687.55,6554.31,897.416,45.3493,-35.3892,84.5412,334.811,-10102.2,-392.697,-7.10936,-23.3794,53.519,9157.68,-1081.79,1248.37,13.9497,8.54434,9.43846
5.1815,13111.9,-1312.63,10826.3,-100.541,278.332,79.1808,5109.31,1196.96,8392.86,-11.9126,-15.3189,5.8386,-3015.15,16667.5,-338.026,54.5417,45.0482,304.965,-2312.58,-9849.97,-1459.77,-9.12637,-14.1932,51.2825,-4656.97,6598.92,949.715,44.9701,-37.3905,84.0801,351.626,-10090.8,-407.275,-7.20702,-23.2904,53.4977,9154.96,-1071.53,1266.18,13.8243,8.36559,9.14776
5.182,13139.1,-1390.09,10832.7,-99.4032,277.089,80.2275,5120.99,1200.75,8377.29,-11.5956,-15.5558,5.68991,-3053.85,16718.0,-345.332,54.3646,45.6315,304.79,-2302.67,-9846.98,-1482.4,-9.17093,-14.1703,51.3455,-4626.4,6643.53,1002.01,44.5909,-39.3917,83.6189,368.44,-10079.3,-421.854,-7.30467,-23.2015,53.4765,9152.23,-1061.28,1283.99,13.6989,8.18683,8.85706
5.1825,13161.5,-1438.74,10831.4,-98.2309,275.804,81.4352,5118.74,1208.43,8376.26,-11.145,-15.8059,5.59126,-3090.37,16757.3,-356.806,54.1363,46.181,304.599,-2292.92,-9843.03,-1502.94,-9.23245,-14.1421,51.4177,-4592.52,6684.98,1029.37,44.198,-41.3648,83.0485,387.496,-10063.3,-446.327,-7.37093,-23.0717,53.4462,9145.38,-1055.53,1295.23,13.6848,7.96165,8.5972
5.183,13180.1,-1464.33,10823.9,-97.031,274.487,82.7715,5105.35,1219.21,8386.88,-10.5875,-16.0664,5.53265,-3125.15,16787.7,-371.615,53.8672,46.7036,304.395,-2283.29,-9838.3,-1521.81,-9.30753,-14.1095,51.4972,-4556.0,6723.92,1036.77,43.7941,-43.3154,82.3907,408.345,-10043.5,-478.716,-7.41207,-22.9093,53.4087,9135.23,-1053.37,1301.21,13.7599,7.69933,8.36201
5.1835,13198.8,-1489.93,10816.4,-95.8311,273.169,84.1079,5091.96,1229.98,8397.51,-10.03,-16.3269,5.47404,-3159.92,16818.1,-386.423,53.5981,47.2262,304.192,-2273.66,-9833.58,-1540.67,-9.3826,-14.0769,51.5767,-4519.49,6762.86,1044.17,43.3902,-45.266,81.7329,429.194,-10023.8,-511.105,-7.4532,-22.7469,53.3712,9125.08,-1051.22,1307.2,13.835,7.43701,8.12682
5.184,13217.4,-1515.52,10809.0,-94.6312,271.851,85.4442,5078.57,1240.76,8408.13,-9.47245,-16.5874,5.41543,-3194.7,16848.5,-401.232,53.329,47.7488,303.988,-2264.03,-9828.85,-1559.54,-9.45768,-14.0444,51.6562,-4482.97,6801.79,1051.57,42.9863,-47.2166,81.0751,450.042,-10004.0,-543.495,-7.49434,-22.5845,53.3337,9114.93,-1049.06,1313.18,13.9101,7.17469,7.89163
5.1845,13236.0,-1541.12,10801.5,-93.4313,270.533,86.7806,5065.18,1251.54,8418.75,-8.91494,-16.8479,5.35682,-3229.48,16879.0,-416.04,53.0599,48.2713,303.784,-2254.4,-9824.13,-1578.41,-9.53276,-14.0118,51.7357,-4446.46,6840.73,1058.97,42.5825,-49.1672,80.4172,470.891,-9984.24,-575.884,-7.53547,-22.4221,53.2963,9104.78,-1046.9,1319.16,13.9851,6.91236,7.65643
5.185,13254.6,-1566.71,10794.0,-92.2314,269.215,88.117,5051.78,1262.32,8429.37,-8.35743,-17.1084,5.2982,-3264.25,16909.4,-430.849,52.7908,48.7939,303.581,-2244.78,-9819.4,-1597.28,-9.60784,-13.9792,51.8152,-4409.94,6879.67,1066.37,42.1786,-51.1178,79.7594,491.74,-9964.48,-608.273,-7.57661,-22.2598,53.2588,9094.63,-1044.74,1325.15,14.0602,6.65004,7.42124
5.1855,13273.2,-1592.31,10786.5,-91.0314,267.898,89.4533,5038.39,1273.1,8439.99,-7.79992,-17.3689,5.23959,-3299.03,16939.8,-445.658,52.5217,49.3165,303.377,-2235.15,-9814.68,-1616.15,-9.68292,-13.9466,51.8947,-4373.43,6918.61,1073.76,41.7747,-53.0684,79.1016,512.589,-9944.72,-640.662,-7.61774,-22.0974,53.2213,9084.48,-1042.59,1331.13,14.1353,6.38772,7.18605
5.186,13291.9,-1617.9,10779.1,-89.8316,266.58,90.7897,5025.0,1283.88,8450.61,-7.24241,-17.6294,5.18098,-3333.81,16970.2,-460.466,52.2525,49.8391,303.173,-2225.52,-9809.95,-1635.01,-9.758,-13.9141,51.9743,-4336.91,6957.54,1081.16,41.3708,-55.019,78.4438,533.438,-9924.96,-673.051,-7.65888,-21.935,53.1838,9074.33,-1040.43,1337.11,14.2104,6.1254,6.95086
5.1865,13310.5,-1643.5,10771.6,-88.6317,265.262,92.126,5011.61,1294.65,8461.24,-6.6849,-17.8899,5.12237,-3368.59,17000.7,-475.275,51.9834,50.3617,302.97,-2215.89,-9805.23,-1653.88,-9.83308,-13.8815,52.0538,-4300.4,6996.48,1088.56,40.9669,-56.9696,77.7859,554.286,-9905.2,-705.44,-7.70001,-21.7726,53.1463,9064.18,-1038.27,1343.09,14.2855,5.86308,6.71567
5.187,13345.5,-1658.33,10765.9,-87.5585,264.004,93.4334,4986.03,1302.55,8452.37,-6.09014,-18.27,5.0158,-3408.38,17018.2,-491.346,51.7399,50.8628,302.666,-2212.58,-9800.03,-1684.55,-9.96078,-13.8912,52.1383,-4277.15,7026.91,1080.31,40.4867,-58.7097,77.0301,574.187,-9885.62,-732.444,-7.7197,-21.5145,53.1225,9047.47,-1040.16,1338.32,14.4875,5.61475,6.48784
5.1875,13388.7,-1667.77,10761.0,-86.5487,262.776,94.7264,4954.37,1309.01,8433.76,-5.47676,-18.71,4.88525,-3450.67,17029.3,-508.048,51.5092,51.3532,302.313,-2212.44,-9794.6,-1721.11,-10.1148,-13.9221,52.2254,-4260.55,7053.08,1064.22,39.9682,-60.3446,76.2253,593.613,-9866.12,-756.754,-7.72866,-21.2086,53.1055,9027.47,-1044.07,1328.17,14.753,5.37342,6.26368
5.188,13431.9,-1677.21,10756.2,-85.5389,261.548,96.0193,4922.71,1315.47,8415.14,-4.86338,-19.15,4.7547,-3492.97,17040.4,-524.75,51.2785,51.8436,301.959,-2212.3,-9789.16,-1757.68,-10.2688,-13.953,52.3125,-4243.94,7079.26,1048.13,39.4498,-61.9795,75.4205,613.039,-9846.62,-781.065,-7.73762,-20.9027,53.0884,9007.48,-1047.98,1318.02,15.0185,5.13208,6.03953
5.1885,13475.1,-1686.66,10751.3,-84.5292,260.32,97.3122,4891.05,1321.94,8396.53,-4.25,-19.5899,4.62414,-3535.27,17051.5,-541.451,51.0478,52.334,301.605,-2212.15,-9783.73,-1794.24,-10.4228,-13.9839,52.3995,-4227.33,7105.43,1032.05,38.9314,-63.6143,74.6157,632.466,-9827.13,-805.375,-7.74658,-20.5968,53.0714,8987.49,-1051.89,1307.87,15.284,4.89075,5.81538
5.189,13518.3,-1696.1,10746.5,-83.5194,259.093,98.6052,4859.38,1328.4,8377.92,-3.63663,-20.0299,4.49359,-3577.57,17062.6,-558.153,50.817,52.8244,301.252,-2212.01,-9778.3,-1830.8,-10.5768,-14.0147,52.4866,-4210.73,7131.6,1015.96,38.4129,-65.2492,73.8109,651.892,-9807.63,-829.686,-7.75554,-20.291,53.0544,8967.49,-1055.79,1297.72,15.5495,4.64942,5.59123
5.1895,13561.5,-1705.55,10741.6,-82.5096,257.865,99.8981,4827.72,1334.86,8359.31,-3.02325,-20.4699,4.36304,-3619.86,17073.6,-574.855,50.5863,53.3149,300.898,-2211.87,-9772.87,-1867.37,-10.7308,-14.0456,52.5737,-4194.12,7157.78,999.873,37.8945,-66.8841,73.006,671.318,-9788.13,-853.996,-7.7645,-19.9851,53.0374,8947.5,-1059.7,1287.56,15.8149,4.40808,5.36708
5.19,13604.7,-1714.99,10736.8,-81.4998,256.637,101.191,4796.06,1341.32,8340.7,-2.40987,-20.9098,4.23249,-3662.16,17084.7,-591.557,50.3556,53.8053,300.544,-2211.73,-9767.43,-1903.93,-10.8848,-14.0765,52.6608,-4177.52,7183.95,983.786,37.376,-68.5189,72.2012,690.745,-9768.63,-878.307,-7.77346,-19.6792,53.0204,8927.5,-1063.61,1277.41,16.0804,4.16675,5.14293
5.1905,13647.9,-1724.44,10731.9,-80.4901,255.409,102.484,4764.39,1347.78,8322.08,-1.79649,-21.3498,4.10194,-3704.46,17095.8,-608.259,50.1249,54.2957,300.191,-2211.58,-9762.0,-1940.49,-11.0388,-14.1074,52.7478,-4160.91,7210.13,967.7,36.8576,-70.1538,71.3964,710.171,-9749.14,-902.617,-7.78242,-19.3733,53.0033,8907.51,-1067.52,1267.26,16.3459,3.92542,4.91878
5.191,13691.1,-1733.88,10727.1,-79.4803,254.181,103.777,4732.73,1354.24,8303.47,-1.18311,-21.7897,3.97139,-3746.76,17106.9,-624.961,49.8942,54.7861,299.837,-2211.44,-9756.57,-1977.06,-11.1928,-14.1382,52.8349,-4144.3,7236.3,951.613,36.3391,-71.7886,70.5916,729.597,-9729.64,-926.928,-7.79138,-19.0674,52.9863,8887.52,-1071.43,1257.11,16.6114,3.68408,4.69462
5.1915,13784.5,-1718.95,10725.5,-78.7056,252.986,105.222,4755.15,1451.75,8263.75,-0.825159,-21.9803,4.02303,-3818.18,17119.2,-655.679,49.6794,55.3214,299.476,-2205.43,-9737.84,-2033.08,-11.3448,-14.2179,52.8726,-4139.91,7263.05,917.141,35.8354,-73.1321,69.7049,750.116,-9717.55,-955.804,-7.81827,-18.7005,52.9693,8881.84,-1070.27,1254.05,16.9876,3.46977,4.49961
5.192,13892.2,-1697.05,10724.9,-77.998,251.8,106.71,4793.03,1575.28,8218.0,-0.540186,-22.0996,4.12673,-3897.93,17131.7,-690.4,49.4691,55.8695,299.113,-2197.74,-9715.31,-2094.67,-11.4962,-14.3115,52.8962,-4139.01,7289.96,877.415,35.3358,-74.3923,68.7948,770.946,-9707.58,-985.984,-7.85028,-18.3162,52.9524,8880.25,-1067.67,1253.01,17.3955,3.26318,4.31293
5.1925,13999.9,-1675.15,10724.3,-77.2905,250.614,108.199,4830.91,1698.81,8172.25,-0.255212,-22.2189,4.23044,-3977.68,17144.3,-725.122,49.2589,56.4175,298.749,-2190.05,-9692.79,-2156.26,-11.6476,-14.4051,52.9198,-4138.11,7316.88,837.689,34.8363,-75.6525,67.8848,791.776,-9697.62,-1016.17,-7.88229,-17.9319,52.9354,8878.67,-1065.06,1251.98,17.8033,3.05658,4.12625
5.193,14107.7,-1653.26,10723.7,-76.583,249.428,109.687,4868.78,1822.34,8126.5,0.0297615,-22.3382,4.33414,-4057.42,17156.9,-759.844,49.0486,56.9656,298.386,-2182.36,-9670.26,-2217.85,-11.7989,-14.4987,52.9434,-4137.21,7343.79,797.963,34.3367,-76.9127,66.9747,812.607,-9687.65,-1046.35,-7.91429,-17.5476,52.9184,8877.08,-1062.46,1250.95,18.2112,2.84999,3.93956
5.1935,14215.4,-1631.36,10723.1,-75.8754,248.242,111.176,4906.66,1945.88,8080.74,0.314735,-22.4575,4.43784,-4137.17,17169.5,-794.566,48.8383,57.5137,298.023,-2174.68,-9647.73,-2279.44,-11.9503,-14.5923,52.967,-4136.3,7370.71,758.237,33.8371,-78.1729,66.0646,833.437,-9677.68,-1076.53,-7.9463,-17.1632,52.9015,8875.5,-1059.86,1249.91,18.6191,2.64339,3.75288
5.194,14323.1,-1609.46,10722.5,-75.1679,247.056,112.664,4944.53,2069.41,8034.99,0.599709,-22.5768,4.54154,-4216.92,17182.1,-829.287,48.6281,58.0618,297.66,-2166.99,-9625.2,-2341.03,-12.1017,-14.6859,52.9906,-4135.4,7397.62,718.511,33.3376,-79.4331,65.1546,854.267,-9667.71,-1106.71,-7.97831,-16.7789,52.8845,8873.91,-1057.25,1248.88,19.0269,2.4368,3.56619
5.1945,14430.8,-1587.56,10721.9,-74.4604,245.87,114.152,4982.41,2192.94,7989.24,0.884682,-22.696,4.64525,-4296.66,17194.6,-864.009,48.4178,58.6099,297.296,-2159.3,-9602.68,-2402.61,-12.2531,-14.7795,53.0142,-4134.5,7424.53,678.786,32.838,-80.6933,64.2445,875.098,-9657.74,-1136.89,-8.01032,-16.3946,52.8675,8872.32,-1054.65,1247.84,19.4348,2.23021,3.37951
5.195,14538.5,-1565.67,10721.3,-73.7528,244.684,115.641,5020.29,2316.47,7943.49,1.16966,-22.8153,4.74895,-4376.41,17207.2,-898.731,48.2076,59.158,296.933,-2151.61,-9580.15,-2464.2,-12.4045,-14.8731,53.0378,-4133.6,7451.45,639.06,32.3385,-81.9535,63.3344,895.928,-9647.77,-1167.07,-8.04233,-16.0103,52.8505,8870.74,-1052.05,1246.81,19.8426,2.02361,3.19283
5.1955,14646.2,-1543.77,10720.7,-73.0453,243.498,117.129,5058.16,2440.0,7897.74,1.45463,-22.9346,4.85265,-4456.16,17219.8,-933.453,47.9973,59.7061,296.57,-2143.92,-9557.62,-2525.79,-12.5558,-14.9667,53.0614,-4132.69,7478.36,599.334,31.8389,-83.2137,62.4244,916.758,-9637.81,-1197.25,-8.07434,-15.626,52.8336,8869.15,-1049.44,1245.77,20.2505,1.81702,3.00614
5.196,14749.5,-1537.89,10696.8,-72.3557,242.619,118.747,5086.24,2525.44,7906.25,1.13056,-22.6732,5.20384,-4533.69,17204.2,-966.388,47.8715,60.173,296.031,-2133.27,-9538.89,-2570.37,-12.637,-14.9963,53.1414,-4117.52,7500.28,546.335,31.5767,-83.5842,61.4396,924.725,-9630.04,-1221.31,-8.14663,-15.2042,52.786,8864.84,-1038.06,1238.7,20.6328,1.6219,2.92484
5.1965,14852.3,-1534.0,10670.1,-71.6683,241.779,120.381,5113.1,2606.12,7921.56,0.73035,-22.3642,5.58595,-4610.95,17185.1,-999.101,47.7562,60.6298,295.471,-2122.26,-9520.64,-2612.82,-12.7094,-15.0178,53.2283,-4100.56,7521.58,491.676,31.3442,-83.8434,60.4455,931.085,-9622.56,-1244.6,-8.22396,-14.7777,52.7346,8860.18,-1025.58,1230.88,21.012,1.42822,2.8567
5.197,14955.0,-1530.12,10643.4,-70.9809,240.94,122.015,5139.95,2686.79,7936.86,0.330145,-22.0552,5.96807,-4688.21,17166.0,-1031.81,47.6409,61.0865,294.91,-2111.24,-9502.38,-2655.28,-12.7817,-15.0394,53.3153,-4083.61,7542.88,437.018,31.1117,-84.1027,59.4515,937.444,-9615.07,-1267.89,-8.30129,-14.3512,52.6832,8855.53,-1013.11,1223.06,21.3911,1.23454,2.78857
5.1975,15057.8,-1526.24,10616.6,-70.2936,240.1,123.649,5166.8,2767.47,7952.16,-0.0700598,-21.7462,6.35019,-4765.47,17146.8,-1064.53,47.5256,61.5433,294.349,-2100.22,-9484.13,-2697.73,-12.8541,-15.0609,53.4023,-4066.65,7564.18,382.36,30.8792,-84.362,58.4574,943.803,-9607.59,-1291.18,-8.37862,-13.9248,52.6318,8850.87,-1000.63,1215.23,21.7703,1.04086,2.72044
5.198,15160.5,-1522.36,10589.9,-69.6062,239.26,125.284,5193.66,2848.15,7967.46,-0.470265,-21.4372,6.73231,-4842.73,17127.7,-1097.24,47.4103,62.0001,293.788,-2089.2,-9465.87,-2740.18,-12.9265,-15.0824,53.4893,-4049.69,7585.48,327.701,30.6467,-84.6213,57.4633,950.162,-9600.1,-1314.48,-8.45595,-13.4983,52.5804,8846.22,-988.152,1207.41,22.1495,0.847176,2.65231
5.1985,15263.3,-1518.48,10563.1,-68.9188,238.42,126.918,5220.51,2928.83,7982.76,-0.87047,-21.1283,7.11442,-4919.98,17108.6,-1129.95,47.295,62.4568,293.228,-2078.18,-9447.62,-2782.64,-12.9988,-15.104,53.5763,-4032.74,7606.78,273.043,30.4142,-84.8806,56.4692,956.521,-9592.62,-1337.77,-8.53328,-13.0718,52.529,8841.56,-975.675,1199.58,22.5286,0.653495,2.58418
5.199,15366.0,-1514.6,10536.4,-68.2314,237.58,128.552,5247.37,3009.5,7998.06,-1.27067,-20.8193,7.49654,-4997.24,17089.4,-1162.66,47.1797,62.9136,292.667,-2067.17,-9429.37,-2825.09,-13.0712,-15.1255,53.6633,-4015.78,7628.08,218.385,30.1817,-85.1399,55.4751,962.88,-9585.13,-1361.06,-8.61061,-12.6453,52.4776,8836.91,-963.198,1191.76,22.9078,0.459813,2.51604
5.1995,15468.8,-1510.72,10509.7,-67.5441,236.741,130.186,5274.22,3090.18,8013.36,-1.67088,-20.5103,7.87866,-5074.5,17070.3,-1195.38,47.0644,63.3704,292.106,-2056.15,-9411.11,-2867.54,-13.1436,-15.1471,53.7503,-3998.82,7649.38,163.726,29.9492,-85.3992,54.481,969.24,-9577.65,-1384.35,-8.68795,-12.2189,52.4262,8832.25,-950.72,1183.94,23.287,0.266132,2.44791
5.2,15571.5,-1506.84,10482.9,-66.8567,235.901,131.82,5301.07,3170.86,8028.67,-2.07108,-20.2013,8.26078,-5151.76,17051.2,-1228.09,46.9491,63.8271,291.546,-2045.13,-9392.86,-2910.0,-13.216,-15.1686,53.8372,-3981.86,7670.68,109.068,29.7167,-85.6585,53.487,975.599,-9570.16,-1407.65,-8.76528,-11.7924,52.3748,8827.6,-938.243,1176.11,23.6661,0.0724506,2.37978
5.2005,15667.7,-1469.64,10485.7,-66.373,235.27,133.342,5306.73,3118.49,8038.07,-2.76171,-19.9853,8.53905,-5221.72,17065.9,-1270.69,46.889,64.31,291.063,-2032.09,-9396.61,-2919.38,-13.1392,-15.0454,54.0306,-3944.14,7685.95,43.1854,29.8473,-84.3222,52.3977,998.884,-9553.19,-1436.88,-8.92284,-11.567,52.3848,8819.83,-920.467,1160.16,23.857,-0.110129,2.34425
5.201,15763.9,-1432.45,10488.4,-65.8894,234.639,134.864,5312.39,3066.13,8047.47,-3.45234,-19.7694,8.81732,-5291.67,17080.6,-1313.28,46.8289,64.7929,290.579,-2019.04,-9400.37,-2928.76,-13.0624,-14.9222,54.2239,-3906.41,7701.23,-22.697,29.9778,-82.9859,51.3085,1022.17,-9536.22,-1466.1,-9.08041,-11.3415,52.3947,8812.06,-902.691,1144.21,24.0479,-0.292708,2.30872
5.2015,15860.0,-1395.25,10491.2,-65.4057,234.008,136.387,5318.05,3013.76,8056.87,-4.14297,-19.5535,9.0956,-5361.63,17095.3,-1355.88,46.7687,65.2759,290.096,-2006.0,-9404.13,-2938.14,-12.9856,-14.799,54.4172,-3868.69,7716.5,-88.5794,30.1083,-81.6496,50.2192,1045.45,-9519.25,-1495.33,-9.23798,-11.1161,52.4046,8804.29,-884.915,1128.25,24.2387,-0.475288,2.27319
5.202,15956.2,-1358.06,10493.9,-64.9221,233.377,137.909,5323.71,2961.4,8066.28,-4.8336,-19.3375,9.37387,-5431.59,17110.1,-1398.47,46.7086,65.7588,289.613,-1992.96,-9407.89,-2947.52,-12.9088,-14.6758,54.6105,-3830.96,7731.77,-154.462,30.2389,-80.3133,49.13,1068.74,-9502.28,-1524.56,-9.39555,-10.8907,52.4145,8796.53,-867.138,1112.3,24.4296,-0.657867,2.23766
5.2025,16052.4,-1320.86,10496.7,-64.4384,232.746,139.431,5329.38,2909.03,8075.68,-5.52422,-19.1216,9.65214,-5501.55,17124.8,-1441.06,46.6485,66.2417,289.13,-1979.91,-9411.65,-2956.89,-12.832,-14.5526,54.8038,-3793.23,7747.05,-220.344,30.3694,-78.977,48.0407,1092.03,-9485.31,-1553.79,-9.55312,-10.6652,52.4245,8788.76,-849.362,1096.34,24.6205,-0.840447,2.20213
5.203,16148.6,-1283.66,10499.4,-63.9548,232.115,140.953,5335.04,2856.67,8085.08,-6.21485,-18.9057,9.93041,-5571.51,17139.5,-1483.66,46.5883,66.7246,288.647,-1966.87,-9415.41,-2966.27,-12.7551,-14.4294,54.9971,-3755.51,7762.32,-286.227,30.4999,-77.6407,46.9515,1115.31,-9468.34,-1583.02,-9.71068,-10.4398,52.4344,8780.99,-831.586,1080.39,24.8113,-1.02303,2.1666
5.2035,16244.7,-1246.47,10502.1,-63.4711,231.484,142.475,5340.7,2804.3,8094.49,-6.90548,-18.6897,10.2087,-5641.47,17154.2,-1526.25,46.5282,67.2075,288.164,-1953.83,-9419.17,-2975.65,-12.6783,-14.3062,55.1904,-3717.78,7777.6,-352.109,30.6305,-76.3043,45.8622,1138.6,-9451.37,-1612.25,-9.86825,-10.2144,52.4443,8773.22,-813.81,1064.44,25.0022,-1.20561,2.13107
5.204,16340.9,-1209.27,10504.9,-62.9875,230.854,143.997,5346.36,2751.94,8103.89,-7.59611,-18.4738,10.487,-5711.42,17168.9,-1568.85,46.4681,67.6904,287.68,-1940.78,-9422.92,-2985.03,-12.6015,-14.183,55.3837,-3680.05,7792.87,-417.991,30.761,-74.968,44.773,1161.88,-9434.4,-1641.48,-10.0258,-9.98897,52.4543,8765.45,-796.034,1048.48,25.1931,-1.38819,2.09554
5.2045,16433.8,-1174.07,10505.0,-62.5272,230.242,145.508,5349.81,2700.97,8113.04,-8.2404,-18.2937,10.7585,-5780.64,17181.1,-1609.27,46.4084,68.1609,287.202,-1929.18,-9427.1,-2992.83,-12.5193,-14.044,55.5759,-3642.51,7807.7,-480.153,30.9497,-73.455,43.7087,1183.69,-9418.4,-1671.78,-10.1912,-9.76928,52.4746,8756.77,-779.527,1034.17,25.3562,-1.58011,2.05474
5.205,16501.0,-1154.82,10483.9,-62.254,229.78,146.923,5335.63,2661.2,8120.19,-8.51397,-18.4008,10.9762,-5843.92,17173.1,-1632.34,46.3528,68.5325,286.761,-1929.05,-9434.64,-2987.96,-12.3933,-13.7787,55.7584,-3606.44,7819.01,-512.546,31.6033,-70.5283,42.8441,1193.73,-9410.19,-1710.67,-10.4191,-9.59544,52.5776,8740.77,-773.174,1032.95,25.2974,-1.8468,1.97179
5.2055,16568.1,-1135.58,10462.8,-61.9807,229.319,148.338,5321.45,2621.43,8127.35,-8.78755,-18.5078,11.1938,-5907.19,17165.0,-1655.4,46.2972,68.9041,286.32,-1928.92,-9442.18,-2983.1,-12.2673,-13.5134,55.9409,-3570.37,7830.31,-544.94,32.2569,-67.6016,41.9796,1203.76,-9401.99,-1749.56,-10.647,-9.42161,52.6807,8724.76,-766.82,1031.73,25.2385,-2.1135,1.88884
5.206,16635.2,-1116.33,10441.8,-61.7075,228.858,149.753,5307.27,2581.66,8134.5,-9.06112,-18.6149,11.4115,-5970.47,17156.9,-1678.47,46.2415,69.2757,285.879,-1928.8,-9449.72,-2978.23,-12.1413,-13.248,56.1234,-3534.3,7841.62,-577.333,32.9106,-64.6749,41.1151,1213.8,-9393.78,-1788.45,-10.8749,-9.24778,52.7837,8708.76,-760.467,1030.51,25.1797,-2.38019,1.80589
5.2065,16702.3,-1097.08,10420.7,-61.4343,228.397,151.168,5293.08,2541.89,8141.65,-9.3347,-18.722,11.6291,-6033.74,17148.9,-1701.53,46.1859,69.6472,285.439,-1928.67,-9457.26,-2973.36,-12.0153,-12.9827,56.3059,-3498.23,7852.92,-609.726,33.5642,-61.7483,40.2505,1223.83,-9385.57,-1827.34,-11.1028,-9.07395,52.8868,8692.75,-754.113,1029.29,25.1208,-2.64689,1.72294
5.207,16769.4,-1077.84,10399.6,-61.1611,227.936,152.583,5278.9,2502.12,8148.8,-9.60827,-18.829,11.8468,-6097.02,17140.8,-1724.6,46.1303,70.0188,284.998,-1928.54,-9464.8,-2968.5,-11.8893,-12.7174,56.4884,-3462.16,7864.23,-642.12,34.2178,-58.8216,39.386,1233.86,-9377.37,-1866.23,-11.3307,-8.90011,52.9898,8676.75,-747.76,1028.08,25.062,-2.91358,1.63999
5.2075,16836.5,-1058.59,10378.5,-60.8878,227.474,153.998,5264.72,2462.35,8155.96,-9.88185,-18.9361,12.0644,-6160.3,17132.7,-1747.66,46.0746,70.3904,284.557,-1928.42,-9472.34,-2963.63,-11.7632,-12.452,56.6709,-3426.09,7875.53,-674.513,34.8715,-55.8949,38.5215,1243.9,-9369.16,-1905.12,-11.5586,-8.72628,53.0929,8660.75,-741.407,1026.86,25.0031,-3.18027,1.55704
5.208,16903.6,-1039.35,10357.4,-60.6146,227.013,155.413,5250.54,2422.57,8163.11,-10.1554,-19.0431,12.2821,-6223.57,17124.7,-1770.73,46.019,70.762,284.116,-1928.29,-9479.88,-2958.76,-11.6372,-12.1867,56.8534,-3390.03,7886.83,-706.906,35.5251,-52.9682,37.6569,1253.93,-9360.95,-1944.01,-11.7865,-8.55245,53.196,8644.74,-735.053,1025.64,24.9443,-3.44697,1.47409
5.2085,16970.7,-1020.1,10336.4,-60.3414,226.552,156.828,5236.36,2382.8,8170.26,-10.429,-19.1502,12.4997,-6286.85,17116.6,-1793.79,45.9634,71.1335,283.675,-1928.16,-9487.42,-2953.9,-11.5112,-11.9214,57.0359,-3353.96,7898.14,-739.3,36.1787,-50.0415,36.7924,1263.97,-9352.75,-1982.9,-12.0144,-8.37861,53.299,8628.74,-728.7,1024.42,24.8854,-3.71366,1.39114
5.209,17036.6,-992.067,10313.3,-60.1103,226.108,158.211,5228.41,2347.91,8173.7,-10.6207,-19.2097,12.6888,-6349.67,17110.8,-1817.59,45.9164,71.5245,283.222,-1929.46,-9495.54,-2948.31,-11.3888,-11.653,57.23,-3312.97,7908.36,-753.47,36.953,-46.9865,35.9753,1270.82,-9346.61,-2021.49,-12.2373,-8.23174,53.3797,8611.75,-722.083,1025.23,24.7648,-3.98353,1.3201
5.2095,17097.9,-933.285,10283.4,-60.0268,225.721,159.479,5242.29,2330.1,8164.14,-10.5257,-19.1026,12.7777,-6410.89,17112.6,-1843.97,45.8997,71.9834,282.725,-1935.74,-9505.69,-2940.21,-11.2786,-11.3742,57.4649,-3254.76,7914.81,-703.862,38.1492,-43.4821,35.324,1266.55,-9347.69,-2059.02,-12.4431,-8.17924,53.3819,8591.32,-714.543,1033.12,24.428,-4.26451,1.29073
5.21,17159.2,-874.503,10253.5,-59.9432,225.335,160.747,5256.16,2312.29,8154.58,-10.4308,-18.9955,12.8666,-6472.12,17114.5,-1870.34,45.883,72.4424,282.229,-1942.03,-9515.84,-2932.11,-11.1684,-11.0954,57.6997,-3196.55,7921.25,-654.255,39.3455,-39.9778,34.6727,1262.29,-9348.77,-2096.55,-12.6488,-8.12673,53.3842,8570.88,-707.003,1041.01,24.0912,-4.54548,1.26135
5.2105,17220.5,-815.722,10223.5,-59.8596,224.949,162.015,5270.04,2294.49,8145.02,-10.3359,-18.8885,12.9555,-6533.35,17116.3,-1896.71,45.8663,72.9013,281.732,-1948.31,-9526.0,-2924.02,-11.0583,-10.8166,57.9345,-3138.34,7927.69,-604.647,40.5418,-36.4734,34.0214,1258.02,-9349.86,-2134.08,-12.8546,-8.07423,53.3865,8550.45,-699.463,1048.9,23.7543,-4.82646,1.23198
5.211,17281.9,-756.94,10193.6,-59.7761,224.563,163.283,5283.92,2276.68,8135.46,-10.2409,-18.7814,13.0445,-6594.57,17118.2,-1923.09,45.8496,73.3603,281.236,-1954.59,-9536.15,-2915.92,-10.9481,-10.5378,58.1694,-3080.13,7934.13,-555.039,41.738,-32.9691,33.3701,1253.75,-9350.94,-2171.61,-13.0603,-8.02172,53.3888,8530.02,-691.923,1056.79,23.4175,-5.10744,1.20261
5.2115,17343.2,-698.158,10163.7,-59.6925,224.177,164.551,5297.79,2258.87,8125.9,-10.146,-18.6744,13.1334,-6655.8,17120.0,-1949.46,45.8329,73.8192,280.739,-1960.87,-9546.3,-2907.82,-10.838,-10.259,58.4042,-3021.92,7940.58,-505.431,42.9343,-29.4647,32.7189,1249.48,-9352.03,-2209.14,-13.2661,-7.96922,53.391,8509.58,-684.383,1064.68,23.0807,-5.38842,1.17324
5.212,17404.5,-639.377,10133.7,-59.609,223.791,165.819,5311.67,2241.06,8116.34,-10.051,-18.5673,13.2223,-6717.03,17121.9,-1975.83,45.8162,74.2781,280.243,-1967.15,-9556.45,-2899.72,-10.7278,-9.98014,58.6391,-2963.71,7947.02,-455.823,44.1305,-25.9604,32.0676,1245.21,-9353.11,-2246.67,-13.4718,-7.91671,53.3933,8489.15,-676.843,1072.57,22.7438,-5.6694,1.14387
5.2125,17465.8,-580.595,10103.8,-59.5254,223.405,167.087,5325.54,2223.25,8106.78,-9.95611,-18.4603,13.3112,-6778.25,17123.7,-2002.21,45.7995,74.737,279.746,-1973.44,-9566.6,-2891.62,-10.6177,-9.70132,58.8739,-2905.5,7953.46,-406.215,45.3268,-22.456,31.4163,1240.94,-9354.19,-2284.2,-13.6776,-7.86421,53.3956,8468.72,-669.303,1080.46,22.407,-5.95037,1.11449
5.213,17527.1,-521.813,10073.8,-59.4418,223.019,168.355,5339.42,2205.45,8097.22,-9.86117,-18.3532,13.4001,-6839.48,17125.6,-2028.58,45.7828,75.196,279.25,-1979.72,-9576.75,-2883.52,-10.5075,-9.42251,59.1087,-2847.29,7959.9,-356.607,46.5231,-18.9517,30.765,1236.68,-9355.28,-2321.73,-13.8833,-7.8117,53.3979,8448.29,-661.763,1088.35,22.0702,-6.23135,1.08512
5.2135,17593.9,-470.994,10033.6,-59.3249,222.68,169.538,5349.55,2202.46,8094.57,-9.87231,-18.2493,13.4938,-6893.27,17120.3,-2054.56,45.7605,75.6704,278.759,-1987.72,-9590.17,-2874.94,-10.4126,-9.15262,59.3192,-2788.33,7961.38,-300.163,47.8569,-15.7554,30.1862,1231.08,-9362.44,-2354.1,-14.0239,-7.79374,53.395,8431.14,-655.456,1095.15,21.7033,-6.51237,1.08056
5.214,17671.6,-436.1,9972.57,-59.1412,222.436,170.552,5352.18,2229.14,8105.74,-10.0956,-18.1516,13.597,-6932.19,17100.9,-2079.75,45.7268,76.1758,278.278,-1999.17,-9610.13,-2865.39,-10.348,-8.90061,59.4807,-2727.87,7952.93,-230.048,49.466,-13.1752,29.7523,1222.84,-9381.74,-2376.16,-14.0342,-7.84487,53.382,8420.57,-651.614,1099.8,21.2763,-6.79345,1.12563
5.2145,17749.4,-401.207,9911.58,-58.9575,222.191,171.565,5354.82,2255.82,8116.92,-10.3189,-18.0539,13.7001,-6971.11,17081.4,-2104.94,45.6932,76.6811,277.797,-2010.61,-9630.09,-2855.84,-10.2835,-8.6486,59.6423,-2667.42,7944.47,-159.932,51.075,-10.595,29.3185,1214.6,-9401.05,-2398.23,-14.0444,-7.89599,53.3689,8410.0,-647.773,1104.44,20.8493,-7.07453,1.1707
5.215,17827.1,-366.313,9850.59,-58.7739,221.946,172.579,5357.45,2282.49,8128.09,-10.5422,-17.9562,13.8033,-7010.03,17061.9,-2130.13,45.6595,77.1865,277.316,-2022.06,-9650.04,-2846.29,-10.2189,-8.39659,59.8039,-2606.96,7936.02,-89.8168,52.684,-8.01482,28.8846,1206.36,-9420.36,-2420.29,-14.0547,-7.94712,53.3559,8399.43,-643.931,1109.09,20.4224,-7.35561,1.21576
5.2155,17904.8,-331.419,9789.59,-58.5902,221.702,173.592,5360.08,2309.17,8139.26,-10.7655,-17.8585,13.9065,-7048.95,17042.4,-2155.32,45.6259,77.6919,276.835,-2033.5,-9670.0,-2836.74,-10.1544,-8.14458,59.9654,-2546.51,7927.56,-19.7015,54.2931,-5.43464,28.4507,1198.12,-9439.67,-2442.35,-14.065,-7.99825,53.3428,8388.87,-640.09,1113.73,19.9954,-7.63669,1.26083
5.216,17982.5,-296.526,9728.6,-58.4065,221.457,174.606,5362.72,2335.84,8150.44,-10.9888,-17.7608,14.0096,-7087.87,17023.0,-2180.51,45.5923,78.1973,276.354,-2044.95,-9689.96,-2827.19,-10.0898,-7.89256,60.127,-2486.05,7919.11,50.4139,55.9021,-2.85446,28.0168,1189.88,-9458.97,-2464.42,-14.0752,-8.04937,53.3297,8378.3,-636.248,1118.37,19.5685,-7.91778,1.3059
5.2165,18060.2,-261.632,9667.61,-58.2228,221.213,175.62,5365.35,2362.52,8161.61,-11.2121,-17.6631,14.1128,-7126.8,17003.5,-2205.7,45.5586,78.7026,275.873,-2056.39,-9709.92,-2817.65,-10.0253,-7.64055,60.2886,-2425.6,7910.65,120.529,57.5111,-0.274273,27.583,1181.64,-9478.28,-2486.48,-14.0855,-8.1005,53.3167,8367.73,-632.407,1123.02,19.1415,-8.19886,1.35096
5.217,18138.0,-226.738,9606.62,-58.0391,220.968,176.633,5367.98,2389.19,8172.78,-11.4354,-17.5654,14.2159,-7165.72,16984.0,-2230.89,45.525,79.208,275.392,-2067.84,-9729.88,-2808.1,-9.96073,-7.38854,60.4502,-2365.14,7902.2,190.645,59.1202,2.30591,27.1491,1173.39,-9497.59,-2508.54,-14.0958,-8.15162,53.3036,8357.16,-628.565,1127.66,18.7145,-8.47994,1.39603
5.2175,18215.7,-191.845,9545.63,-57.8554,220.724,177.647,5370.62,2415.87,8183.95,-11.6587,-17.4677,14.3191,-7204.64,16964.6,-2256.08,45.4913,79.7134,274.911,-2079.28,-9749.83,-2798.55,-9.89618,-7.13653,60.6117,-2304.69,7893.74,260.76,60.7292,4.8861,26.7152,1165.15,-9516.89,-2530.6,-14.106,-8.20275,53.2906,8346.59,-624.724,1132.3,18.2876,-8.76102,1.44109
5.218,18271.4,-154.798,9485.94,-57.6848,220.504,178.504,5366.46,2435.49,8202.77,-11.8905,-17.4302,14.4616,-7228.11,16944.5,-2274.49,45.4157,80.2138,274.404,-2091.38,-9767.65,-2795.08,-9.84476,-6.92429,60.7954,-2238.88,7886.58,309.608,62.4631,6.74891,26.3295,1161.3,-9536.55,-2547.21,-14.0859,-8.25469,53.3169,8335.35,-621.456,1128.47,17.887,-9.01074,1.47511
5.2185,18299.6,-115.061,9427.87,-57.5303,220.315,179.164,5353.82,2446.29,8231.13,-12.1327,-17.4681,14.6531,-7232.28,16923.8,-2284.42,45.2876,80.7081,273.864,-2104.29,-9782.78,-2799.21,-9.80976,-6.76178,61.0068,-2166.38,7881.02,331.871,64.3532,7.715,26.0042,1162.94,-9556.65,-2557.0,-14.0277,-8.30765,53.3924,8323.29,-618.905,1114.05,17.5196,-9.22125,1.49533
5.219,18327.9,-75.3239,9369.8,-57.3759,220.126,179.825,5341.17,2457.08,8259.5,-12.375,-17.5061,14.8447,-7236.45,16903.1,-2294.35,45.1595,81.2024,273.324,-2117.21,-9797.91,-2803.35,-9.77476,-6.59926,61.2182,-2093.88,7875.46,354.135,66.2433,8.6811,25.6788,1164.57,-9576.75,-2566.79,-13.9696,-8.36061,53.468,8311.22,-616.354,1099.62,17.1521,-9.43177,1.51554
5.2195,18356.1,-35.5867,9311.74,-57.2215,219.937,180.486,5328.53,2467.88,8287.86,-12.6172,-17.544,15.0363,-7240.62,16882.3,-2304.28,45.0314,81.6967,272.785,-2130.12,-9813.04,-2807.48,-9.73976,-6.43675,61.4295,-2021.37,7869.91,376.398,68.1333,9.64719,25.3534,1166.21,-9596.85,-2576.58,-13.9114,-8.41357,53.5435,8299.15,-613.803,1085.19,16.7847,-9.64228,1.53575
5.22,18384.3,4.15058,9253.67,-57.0671,219.748,181.147,5315.88,2478.68,8316.22,-12.8594,-17.5819,15.2278,-7244.79,16861.6,-2314.21,44.9033,82.191,272.245,-2143.03,-9828.17,-2811.62,-9.70476,-6.27423,61.6409,-1948.87,7864.35,398.662,70.0234,10.6133,25.028,1167.84,-9616.95,-2586.36,-13.8532,-8.46653,53.6191,8287.09,-611.252,1070.76,16.4172,-9.85279,1.55596
5.2205,18412.5,43.8878,9195.6,-56.9126,219.56,181.808,5303.24,2489.48,8344.59,-13.1017,-17.6198,15.4194,-7248.96,16840.9,-2324.14,44.7752,82.6853,271.705,-2155.95,-9843.29,-2815.75,-9.66975,-6.11172,61.8523,-1876.37,7858.79,420.925,71.9135,11.5794,24.7026,1169.48,-9637.05,-2596.15,-13.795,-8.5195,53.6946,8275.02,-608.701,1056.34,16.0498,-10.0633,1.57617
5.221,18440.8,83.6251,9137.54,-56.7582,219.371,182.469,5290.59,2500.28,8372.95,-13.3439,-17.6577,15.611,-7253.13,16820.1,-2334.07,44.6471,83.1796,271.165,-2168.86,-9858.42,-2819.88,-9.63475,-5.9492,62.0636,-1803.87,7853.24,443.189,73.8035,12.5455,24.3772,1171.12,-9657.15,-2605.94,-13.7369,-8.57246,53.7702,8262.95,-606.15,1041.91,15.6823,-10.2738,1.59638
5.2215,18469.0,123.362,9079.47,-56.6038,219.182,183.129,5277.95,2511.08,8401.31,-13.5862,-17.6956,15.8025,-7257.3,16799.4,-2344.0,44.519,83.6739,270.625,-2181.78,-9873.55,-2824.02,-9.59975,-5.78669,62.275,-1731.37,7847.68,465.452,75.6936,13.5116,24.0518,1172.75,-9677.24,-2615.73,-13.6787,-8.62542,53.8457,8250.88,-603.599,1027.48,15.3149,-10.4843,1.6166
5.222,18497.2,163.1,9021.4,-56.4494,218.993,183.79,5265.31,2521.88,8429.68,-13.8284,-17.7335,15.9941,-7261.47,16778.7,-2353.92,44.3909,84.1682,270.085,-2194.69,-9888.68,-2828.15,-9.56475,-5.62418,62.4864,-1658.87,7842.12,487.716,77.5836,14.4777,23.7264,1174.39,-9697.34,-2625.51,-13.6205,-8.67838,53.9212,8238.82,-601.049,1013.06,14.9474,-10.6948,1.63681
5.2225,18516.4,231.118,8980.44,-56.2109,218.741,184.323,5244.73,2485.83,8447.9,-13.98,-17.8793,16.1379,-7289.58,16759.7,-2344.05,44.2042,84.6922,269.465,-2219.77,-9904.75,-2820.28,-9.5059,-5.52498,62.6973,-1577.48,7835.56,466.952,79.4584,14.5426,23.3386,1166.59,-9712.01,-2624.62,-13.5196,-8.68863,53.9561,8227.2,-596.949,998.011,14.5913,-10.8894,1.65611
5.223,18528.4,321.761,8953.16,-55.9052,218.438,184.754,5217.79,2412.31,8458.02,-14.0591,-18.1115,16.2433,-7336.84,16742.1,-2318.34,43.9708,85.24,268.781,-2254.59,-9921.57,-2802.8,-9.42796,-5.47644,62.908,-1488.98,7828.18,411.765,81.3209,13.8865,22.9009,1151.25,-9722.33,-2615.17,-13.3846,-8.6647,53.9585,8215.95,-591.609,982.469,14.2443,-11.0712,1.67468
5.2235,18540.4,412.404,8925.88,-55.5995,218.136,185.185,5190.86,2338.79,8468.13,-14.1382,-18.3436,16.3488,-7384.1,16724.6,-2292.62,43.7373,85.7878,268.097,-2289.4,-9938.4,-2785.32,-9.35003,-5.42791,63.1186,-1400.48,7820.81,356.579,83.1833,13.2304,22.4632,1135.9,-9732.65,-2605.72,-13.2495,-8.64078,53.9609,8204.69,-586.27,966.926,13.8973,-11.253,1.69326
5.224,18552.3,503.047,8898.59,-55.2938,217.833,185.616,5163.93,2265.27,8478.25,-14.2172,-18.5757,16.4542,-7431.36,16707.0,-2266.91,43.5038,86.3355,267.413,-2324.21,-9955.22,-2767.84,-9.27209,-5.37937,63.3292,-1311.98,7813.44,301.393,85.0458,12.5744,22.0254,1120.55,-9742.97,-2596.27,-13.1145,-8.61685,53.9633,8193.44,-580.931,951.383,13.5503,-11.4348,1.71183
5.2245,18564.3,593.69,8871.31,-54.9881,217.531,186.047,5137.0,2191.75,8488.36,-14.2963,-18.8078,16.5597,-7478.63,16689.5,-2241.19,43.2704,86.8833,266.728,-2359.03,-9972.04,-2750.36,-9.19416,-5.33083,63.5399,-1223.48,7806.06,246.207,86.9083,11.9183,21.5877,1105.21,-9753.28,-2586.83,-12.9794,-8.59293,53.9656,8182.18,-575.592,935.841,13.2034,-11.6166,1.73041
5.225,18576.3,684.333,8844.03,-54.6824,217.228,186.478,5110.07,2118.23,8498.48,-14.3754,-19.0399,16.6652,-7525.89,16671.9,-2215.48,43.0369,87.4311,266.044,-2393.84,-9988.86,-2732.88,-9.11622,-5.2823,63.7505,-1134.98,7798.69,191.02,88.7708,11.2622,21.15,1089.86,-9763.6,-2577.38,-12.8443,-8.56901,53.968,8170.93,-570.253,920.298,12.8564,-11.7984,1.74898
5.2255,18588.3,774.976,8816.75,-54.3767,216.925,186.909,5083.14,2044.71,8508.59,-14.4545,-19.2721,16.7706,-7573.15,16654.4,-2189.77,42.8034,87.9789,265.36,-2428.66,-10005.7,-2715.4,-9.03828,-5.23376,63.9612,-1046.48,7791.31,135.834,90.6332,10.6062,20.7123,1074.52,-9773.92,-2567.93,-12.7093,-8.54508,53.9704,8159.67,-564.913,904.756,12.5094,-11.9802,1.76755
5.226,18600.2,865.619,8789.47,-54.071,216.623,187.34,5056.21,1971.19,8518.71,-14.5336,-19.5042,16.8761,-7620.41,16636.8,-2164.05,42.57,88.5266,264.675,-2463.47,-10022.5,-2697.92,-8.96035,-5.18523,64.1718,-957.986,7783.94,80.6479,92.4957,9.95011,20.2746,1059.17,-9784.24,-2558.48,-12.5742,-8.52116,53.9728,8148.42,-559.574,889.213,12.1624,-12.162,1.78613
5.2265,18612.2,956.262,8762.19,-53.7653,216.32,187.771,5029.28,1897.66,8528.82,-14.6127,-19.7363,16.9816,-7667.68,16619.3,-2138.34,42.3365,89.0744,263.991,-2498.29,-10039.3,-2680.44,-8.88241,-5.13669,64.3824,-869.487,7776.57,25.4616,94.3582,9.29405,19.8368,1043.83,-9794.56,-2549.03,-12.4392,-8.49723,53.9751,8137.16,-554.235,873.671,11.8154,-12.3438,1.8047
5.227,18599.6,1089.57,8735.64,-53.5681,215.831,188.037,5030.57,1850.83,8536.55,-14.3923,-20.0851,16.9899,-7732.28,16594.2,-2087.59,42.133,89.427,263.204,-2531.32,-10050.9,-2658.06,-8.82166,-5.16126,64.5532,-769.042,7770.21,-46.7728,95.7374,7.74985,19.3742,1037.71,-9800.79,-2543.32,-12.2696,-8.4577,54.0526,8134.23,-562.002,865.519,11.4414,-12.5331,1.83592
5.2275,18574.6,1244.21,8709.46,-53.4253,215.249,188.219,5045.97,1817.34,8543.09,-14.0221,-20.4921,16.9496,-7805.56,16565.5,-2024.32,41.9445,89.682,262.365,-2563.46,-10059.9,-2633.23,-8.76949,-5.22238,64.704,-662.622,7764.36,-127.531,96.875,5.7616,18.8991,1036.2,-9804.96,-2539.46,-12.0828,-8.41037,54.1677,8135.45,-576.323,861.063,11.0539,-12.7261,1.87345
5.228,18549.7,1398.86,8683.28,-53.2824,214.666,188.402,5061.37,1783.85,8549.63,-13.6519,-20.8992,16.9093,-7878.83,16536.8,-1961.06,41.756,89.937,261.526,-2595.59,-10068.9,-2608.41,-8.71733,-5.2835,64.8549,-556.203,7758.51,-208.29,98.0126,3.77335,18.424,1034.69,-9809.14,-2535.61,-11.8961,-8.36303,54.2827,8136.68,-590.643,856.606,10.6664,-12.9192,1.91099
5.2285,18524.7,1553.5,8657.09,-53.1395,214.084,188.585,5076.77,1750.36,8556.16,-13.2818,-21.3063,16.869,-7952.11,16508.0,-1897.79,41.5675,90.192,260.687,-2627.73,-10077.9,-2583.58,-8.66516,-5.34462,65.0057,-449.784,7752.66,-289.049,99.1502,1.78509,17.9489,1033.18,-9813.32,-2531.76,-11.7093,-8.31569,54.3977,8137.91,-604.964,852.15,10.2789,-13.1122,1.94853
5.229,18499.8,1708.14,8630.91,-52.9966,213.501,188.767,5092.17,1716.87,8562.7,-12.9116,-21.7134,16.8287,-8025.38,16479.3,-1834.53,41.3789,90.447,259.848,-2659.87,-10086.9,-2558.76,-8.613,-5.40574,65.1566,-343.365,7746.81,-369.807,100.288,-0.203162,17.4738,1031.68,-9817.5,-2527.91,-11.5225,-8.26835,54.5128,8139.13,-619.284,847.694,9.89141,-13.3053,1.98606
5.2295,18474.8,1862.78,8604.73,-52.8537,212.919,188.95,5107.57,1683.39,8569.23,-12.5415,-22.1204,16.7884,-8098.66,16450.5,-1771.26,41.1904,90.702,259.009,-2692.01,-10095.9,-2533.94,-8.56083,-5.46686,65.3074,-236.946,7740.96,-450.566,101.425,-2.19142,16.9987,1030.17,-9821.67,-2524.05,-11.3357,-8.22102,54.6278,8140.36,-633.605,843.238,9.50392,-13.4983,2.0236
5.23,18449.9,2017.42,8578.55,-52.7108,212.337,189.133,5122.98,1649.9,8575.77,-12.1713,-22.5275,16.7481,-8171.93,16421.8,-1708.0,41.0019,90.9571,258.17,-2724.14,-10104.9,-2509.11,-8.50867,-5.52797,65.4583,-130.527,7735.11,-531.324,102.563,-4.17967,16.5236,1028.66,-9825.85,-2520.2,-11.149,-8.17368,54.7429,8141.59,-647.925,838.782,9.11643,-13.6914,2.06113
5.2305,18424.9,2172.06,8552.37,-52.5679,211.754,189.315,5138.38,1616.41,8582.31,-11.8011,-22.9346,16.7079,-8245.21,16393.0,-1644.73,40.8134,91.2121,257.331,-2756.28,-10113.9,-2484.29,-8.4565,-5.58909,65.6091,-24.108,7729.26,-612.083,103.701,-6.16793,16.0485,1027.15,-9830.03,-2516.35,-10.9622,-8.12634,54.8579,8142.81,-662.246,834.325,8.72894,-13.8845,2.09867
5.231,18400.0,2326.71,8526.18,-52.4251,211.172,189.498,5153.78,1582.92,8588.85,-11.431,-23.3417,16.6676,-8318.48,16364.3,-1581.46,40.6249,91.4671,256.492,-2788.42,-10122.9,-2459.46,-8.40434,-5.65021,65.76,82.311,7723.41,-692.841,104.838,-8.15618,15.5734,1025.65,-9834.21,-2512.5,-10.7754,-8.07901,54.9729,8144.04,-676.566,829.869,8.34145,-14.0775,2.13621
5.2315,18367.5,2583.51,8502.04,-52.544,210.284,189.658,5177.74,1595.93,8568.29,-11.1189,-23.535,16.6957,-8394.17,16386.8,-1447.5,40.1041,91.4157,255.699,-2810.21,-10128.0,-2434.34,-8.37724,-5.8176,65.9269,197.294,7746.19,-751.181,104.74,-10.9814,15.231,1014.46,-9859.06,-2494.95,-10.6809,-8.02174,55.0718,8151.27,-688.178,821.927,7.94945,-14.2524,2.22457
5.232,18332.9,2869.5,8478.47,-52.7378,209.309,189.811,5204.14,1622.23,8539.99,-10.8234,-23.6672,16.7434,-8470.54,16423.9,-1293.33,39.4883,91.2767,254.919,-2829.05,-10132.0,-2409.13,-8.3573,-6.01534,66.0984,314.723,7777.14,-803.116,104.29,-14.0458,14.9265,1000.51,-9889.82,-2473.48,-10.6127,-7.96163,55.1659,8160.22,-699.015,812.989,7.55617,-14.4222,2.32746
5.2325,18298.3,3155.49,8454.9,-52.9316,208.334,189.965,5230.55,1648.53,8511.69,-10.5278,-23.7995,16.7912,-8546.91,16461.1,-1139.17,38.8726,91.1377,254.139,-2847.89,-10135.9,-2383.92,-8.33735,-6.21308,66.2699,432.153,7808.1,-855.051,103.839,-17.1102,14.6221,986.565,-9920.58,-2452.02,-10.5446,-7.90153,55.2601,8169.17,-709.853,804.05,7.16288,-14.5919,2.43035
5.233,18263.7,3441.48,8431.34,-53.1254,207.358,190.118,5256.96,1674.83,8483.4,-10.2323,-23.9317,16.8389,-8623.28,16498.2,-985.005,38.2568,90.9987,253.36,-2866.73,-10139.9,-2358.7,-8.31741,-6.41082,66.4414,549.582,7839.06,-906.985,103.388,-20.1747,14.3176,972.616,-9951.34,-2430.56,-10.4764,-7.84142,55.3543,8178.12,-720.69,795.112,6.76959,-14.7617,2.53323
5.2335,18229.1,3727.47,8407.77,-53.3192,206.383,190.271,5283.36,1701.13,8455.1,-9.93679,-24.0639,16.8866,-8699.66,16535.4,-830.84,37.6411,90.8598,252.58,-2885.57,-10143.9,-2333.49,-8.29747,-6.60856,66.613,667.011,7870.01,-958.92,102.937,-23.2391,14.0131,958.668,-9982.1,-2409.09,-10.4083,-7.78131,55.4485,8187.07,-731.527,786.174,6.37631,-14.9314,2.63612
5.234,18194.5,4013.46,8384.2,-53.513,205.408,190.425,5309.77,1727.43,8426.8,-9.64127,-24.1962,16.9343,-8776.03,16572.5,-676.675,37.0253,90.7208,251.8,-2904.41,-10147.9,-2308.28,-8.27752,-6.8063,66.7845,784.441,7900.97,-1010.85,102.487,-26.3035,13.7087,944.719,-10012.9,-2387.63,-10.3402,-7.72121,55.5426,8196.02,-742.365,777.235,5.98302,-15.1011,2.73901
5.2345,18160.0,4299.45,8360.64,-53.7068,204.433,190.578,5336.17,1753.73,8398.5,-9.34574,-24.3284,16.982,-8852.4,16609.7,-522.511,36.4096,90.5818,251.02,-2923.25,-10151.9,-2283.07,-8.25758,-7.00404,66.956,901.87,7931.93,-1062.79,102.036,-29.3679,13.4042,930.771,-10043.6,-2366.17,-10.272,-7.6611,55.6368,8204.97,-753.202,768.297,5.58974,-15.2709,2.84189
5.235,18125.4,4585.44,8337.07,-53.9006,203.458,190.731,5362.58,1780.03,8370.21,-9.05022,-24.4607,17.0297,-8928.77,16646.8,-368.346,35.7938,90.4429,250.241,-2942.09,-10155.8,-2257.86,-8.23764,-7.20178,67.1275,1019.3,7962.88,-1114.72,101.585,-32.4323,13.0997,916.823,-10074.4,-2344.7,-10.2039,-7.60099,55.731,8213.91,-764.04,759.359,5.19645,-15.4406,2.94478
5.2355,18090.8,4871.43,8313.5,-54.0944,202.482,190.885,5388.99,1806.33,8341.91,-8.7547,-24.5929,17.0774,-9005.14,16684.0,-214.181,35.1781,90.3039,249.461,-2960.93,-10159.8,-2232.65,-8.2177,-7.39952,67.299,1136.73,7993.84,-1166.66,101.134,-35.4967,12.7953,902.874,-10105.1,-2323.24,-10.1357,-7.54089,55.8252,8222.86,-774.877,750.421,4.80317,-15.6104,3.04767
5.236,18078.3,5106.5,8218.4,-54.4468,201.568,190.648,5393.37,1750.83,8412.11,-8.6781,-24.7926,17.0542,-9078.96,16741.2,-14.3904,34.1143,89.468,248.616,-2974.92,-10179.9,-2207.42,-8.1321,-7.61449,67.4178,1262.45,8047.51,-1181.31,99.5968,-39.2362,12.8428,904.507,-10120.7,-2298.9,-10.0497,-7.60288,55.8994,8228.72,-784.553,744.072,4.40868,-15.7773,3.1186
5.2365,18068.6,5335.2,8114.35,-54.8189,200.662,190.362,5395.0,1685.1,8494.63,-8.62886,-25.0008,17.0221,-9152.47,16800.9,191.104,32.9946,88.5451,247.762,-2988.31,-10202.0,-2182.2,-8.0383,-7.83161,67.5299,1389.21,8104.01,-1191.3,97.9232,-43.0601,12.9343,908.087,-10134.4,-2274.19,-9.96142,-7.68014,55.9711,8234.19,-794.084,738.048,4.01404,-15.9438,3.18554
5.237,18058.9,5563.91,8010.31,-55.191,199.755,190.076,5396.63,1619.37,8577.15,-8.57962,-25.209,16.99,-9225.97,16860.6,396.598,31.8748,87.6221,246.908,-3001.7,-10224.0,-2156.97,-7.9445,-8.04873,67.642,1515.97,8160.52,-1201.29,96.2497,-46.884,13.0259,911.668,-10148.0,-2249.49,-9.87316,-7.7574,56.0428,8239.66,-803.615,732.024,3.6194,-16.1104,3.25248
5.2375,18049.2,5792.61,7906.26,-55.5632,198.848,189.79,5398.26,1553.64,8659.67,-8.53038,-25.4171,16.9579,-9299.47,16920.3,602.091,30.7551,86.6992,246.055,-3015.09,-10246.1,-2131.74,-7.8507,-8.26585,67.7541,1642.72,8217.02,-1211.28,94.5761,-50.708,13.1174,915.248,-10161.7,-2224.78,-9.78489,-7.83465,56.1145,8245.13,-813.146,725.999,3.22476,-16.277,3.31941
5.238,18039.5,6021.31,7802.22,-55.9353,197.942,189.504,5399.9,1487.91,8742.19,-8.48114,-25.6253,16.9257,-9372.97,16980.0,807.585,29.6353,85.7762,245.201,-3028.47,-10268.2,-2106.51,-7.7569,-8.48297,67.8662,1769.48,8273.53,-1221.27,92.9026,-54.5319,13.2089,918.828,-10175.4,-2200.08,-9.69663,-7.91191,56.1862,8250.59,-822.677,719.975,2.83013,-16.4435,3.38635
5.2385,18029.8,6250.01,7698.17,-56.3075,197.035,189.218,5401.53,1422.18,8824.71,-8.4319,-25.8335,16.8936,-9446.47,17039.7,1013.08,28.5156,84.8532,244.348,-3041.86,-10290.3,-2081.29,-7.6631,-8.70009,67.9783,1896.24,8330.03,-1231.27,91.229,-58.3558,13.3004,922.409,-10189.0,-2175.38,-9.60836,-7.98917,56.2579,8256.06,-832.208,713.95,2.43549,-16.6101,3.45329
5.239,18020.1,6478.72,7594.13,-56.6796,196.129,188.932,5403.16,1356.45,8907.23,-8.38266,-26.0416,16.8615,-9519.98,17099.4,1218.57,27.3958,83.9303,243.494,-3055.25,-10312.3,-2056.06,-7.5693,-8.91721,68.0905,2023.0,8386.54,-1241.26,89.5555,-62.1797,13.3919,925.989,-10202.7,-2150.67,-9.52009,-8.06643,56.3296,8261.53,-841.739,707.926,2.04085,-16.7766,3.52023
5.2395,18010.4,6707.42,7490.08,-57.0518,195.222,188.646,5404.79,1290.72,8989.75,-8.33342,-26.2498,16.8294,-9593.48,17159.1,1424.07,26.2761,83.0073,242.64,-3068.64,-10334.4,-2030.83,-7.4755,-9.13433,68.2026,2149.75,8443.04,-1251.25,87.882,-66.0037,13.4835,929.57,-10216.4,-2125.97,-9.43183,-8.14369,56.4013,8267.0,-851.27,701.902,1.64621,-16.9432,3.58717
5.24,18000.7,6936.12,7386.03,-57.4239,194.316,188.36,5406.42,1224.99,9072.27,-8.28418,-26.4579,16.7973,-9666.98,17218.8,1629.56,25.1563,82.0844,241.787,-3082.02,-10356.5,-2005.6,-7.3817,-9.35145,68.3147,2276.51,8499.55,-1261.24,86.2084,-69.8276,13.575,933.15,-10230.1,-2101.26,-9.34356,-8.22094,56.473,8272.47,-860.801,695.877,1.25157,-17.1097,3.6541
5.2405,18008.3,6914.72,7280.27,-57.4625,193.697,187.47,5379.04,1248.25,9060.66,-8.18364,-27.0534,16.8954,-9684.27,17285.8,1752.64,23.7375,81.2509,240.709,-3075.1,-10382.7,-1976.16,-7.27753,-9.58866,68.4016,2369.5,8518.85,-1342.4,85.6814,-74.3682,13.9668,920.392,-10244.4,-2074.88,-9.16956,-8.4078,56.6192,8271.17,-871.004,687.805,0.944567,-17.206,3.65194
5.241,18015.9,6893.33,7174.5,-57.5011,193.079,186.579,5351.66,1271.5,9049.06,-8.08311,-27.6489,16.9934,-9701.57,17352.8,1875.72,22.3186,80.4174,239.632,-3068.18,-10408.8,-1946.71,-7.17336,-9.82587,68.4884,2462.49,8538.15,-1423.57,85.1544,-78.9088,14.3586,907.635,-10258.8,-2048.5,-8.99555,-8.59466,56.7655,8269.86,-881.206,679.734,0.63756,-17.3022,3.64978
5.2415,18023.4,6871.93,7068.74,-57.5396,192.46,185.689,5324.27,1294.75,9037.45,-7.98257,-28.2444,17.0915,-9718.86,17419.8,1998.8,20.8998,79.5839,238.555,-3061.26,-10435.0,-1917.27,-7.0692,-10.0631,68.5753,2555.48,8557.45,-1504.73,84.6274,-83.4494,14.7504,894.877,-10273.1,-2022.12,-8.82154,-8.78152,56.9117,8268.56,-891.409,671.662,0.330552,-17.3985,3.64762
5.242,18031.0,6850.54,6962.97,-57.5782,191.842,184.798,5296.89,1318.0,9025.84,-7.88203,-28.8398,17.1896,-9736.15,17486.8,2121.87,19.4809,78.7504,237.477,-3054.34,-10461.2,-1887.83,-6.96503,-10.3003,68.6622,2648.46,8576.75,-1585.9,84.1004,-87.9901,15.1422,882.12,-10287.5,-1995.74,-8.64754,-8.96837,57.0579,8267.26,-901.612,663.59,0.0235452,-17.4947,3.64546
5.2425,18038.6,6829.14,6857.21,-57.6168,191.223,183.907,5269.51,1341.26,9014.24,-7.78149,-29.4353,17.2877,-9753.44,17553.8,2244.95,18.0621,77.9169,236.4,-3047.42,-10487.3,-1858.38,-6.86087,-10.5375,68.7491,2741.45,8596.05,-1667.06,83.5734,-92.5307,15.534,869.362,-10301.9,-1969.36,-8.47353,-9.15523,57.2041,8265.96,-911.814,655.518,-0.283462,-17.5909,3.64331
5.243,18046.2,6807.74,6751.44,-57.6554,190.605,183.017,5242.13,1364.51,9002.63,-7.68095,-30.0308,17.3858,-9770.74,17620.8,2368.03,16.6432,77.0834,235.323,-3040.5,-10513.5,-1828.94,-6.7567,-10.7747,68.836,2834.44,8615.35,-1748.22,83.0464,-97.0713,15.9257,856.604,-10316.2,-1942.98,-8.29953,-9.34209,57.3504,8264.65,-922.017,647.446,-0.590469,-17.6872,3.64115
5.2435,18053.7,6786.35,6645.68,-57.694,189.986,182.126,5214.75,1387.76,8991.03,-7.58041,-30.6262,17.4839,-9788.03,17687.8,2491.11,15.2244,76.25,234.245,-3033.57,-10539.7,-1799.49,-6.65254,-11.0119,68.9229,2927.43,8634.65,-1829.39,82.5194,-101.612,16.3175,843.847,-10330.6,-1916.6,-8.12552,-9.52894,57.4966,8263.35,-932.219,639.374,-0.897476,-17.7834,3.63899
5.244,18061.3,6764.95,6539.91,-57.7326,189.368,181.235,5187.37,1411.01,8979.42,-7.47987,-31.2217,17.582,-9805.32,17754.9,2614.19,13.8055,75.4165,233.168,-3026.65,-10565.8,-1770.05,-6.54837,-11.2491,69.0098,3020.42,8653.95,-1910.55,81.9924,-106.153,16.7093,831.089,-10345.0,-1890.21,-7.95151,-9.7158,57.6428,8262.05,-942.422,631.302,-1.20448,-17.8796,3.63683
5.2445,18066.7,6729.02,6446.13,-57.6241,188.742,180.318,5161.43,1429.43,8965.12,-7.33771,-31.789,17.657,-9815.77,17814.9,2729.46,12.4088,74.6103,232.092,-3018.11,-10589.5,-1742.73,-6.44976,-11.472,69.102,3109.35,8663.44,-2003.02,81.6204,-110.648,17.0852,817.828,-10359.8,-1864.84,-7.778,-9.91891,57.7739,8260.5,-954.103,623.752,-1.51533,-17.9725,3.6401
5.245,18054.2,6576.82,6448.22,-56.3395,188.057,179.191,5147.05,1409.19,8929.28,-6.86253,-32.1306,17.5474,-9771.42,17819.0,2782.29,11.1888,74.0231,231.027,-2996.6,-10592.5,-1732.43,-6.39554,-11.5806,69.2371,3165.84,8594.42,-2185.93,82.4886,-114.782,17.3335,800.536,-10378.9,-1847.53,-7.60842,-10.252,57.784,8257.03,-977.61,620.368,-1.85686,-18.038,3.68686
5.2455,18041.8,6424.63,6450.31,-55.0549,187.372,178.063,5132.67,1388.94,8893.45,-6.38735,-32.4722,17.4378,-9727.07,17823.1,2835.12,9.96891,73.4359,229.963,-2975.09,-10595.6,-1722.12,-6.34133,-11.6892,69.3721,3222.34,8525.39,-2368.83,83.3568,-118.916,17.5818,783.245,-10397.9,-1830.21,-7.43884,-10.5852,57.7941,8253.56,-1001.12,616.984,-2.1984,-18.1035,3.73362
5.246,18029.3,6272.43,6452.4,-53.7704,186.686,176.935,5118.29,1368.69,8857.61,-5.91217,-32.8139,17.3282,-9682.72,17827.2,2887.95,8.74897,72.8486,228.898,-2953.58,-10598.6,-1711.82,-6.28711,-11.7977,69.5072,3278.83,8456.37,-2551.73,84.225,-123.05,17.83,765.954,-10416.9,-1812.9,-7.26926,-10.9183,57.8042,8250.09,-1024.62,613.601,-2.53994,-18.1691,3.78038
5.2465,18016.9,6120.23,6454.49,-52.4858,186.001,175.807,5103.92,1348.44,8821.77,-5.43699,-33.1555,17.2187,-9638.37,17831.3,2940.78,7.52904,72.2614,227.834,-2932.07,-10601.7,-1701.51,-6.2329,-11.9063,69.6423,3335.33,8387.35,-2734.64,85.0932,-127.184,18.0783,748.662,-10435.9,-1795.59,-7.09968,-11.2514,57.8143,8246.61,-1048.13,610.217,-2.88148,-18.2346,3.82714
5.247,18004.4,5968.03,6456.58,-51.2012,185.316,174.68,5089.54,1328.2,8785.93,-4.96181,-33.4971,17.1091,-9594.02,17835.5,2993.61,6.3091,71.6742,226.769,-2910.55,-10604.7,-1691.21,-6.17869,-12.0148,69.7774,3391.82,8318.33,-2917.54,85.9614,-131.318,18.3266,731.371,-10454.9,-1778.28,-6.93009,-11.5845,57.8244,8243.14,-1071.64,606.834,-3.22301,-18.3001,3.8739
5.2475,17992.0,5815.83,6458.67,-49.9166,184.631,173.552,5075.16,1307.95,8750.09,-4.48663,-33.8388,16.9995,-9549.68,17839.6,3046.44,5.08917,71.0869,225.704,-2889.04,-10607.8,-1680.91,-6.12447,-12.1234,69.9124,3448.31,8249.3,-3100.45,86.8296,-135.452,18.5749,714.08,-10474.0,-1760.96,-6.76051,-11.9177,57.8345,8239.67,-1095.15,603.45,-3.56455,-18.3657,3.92066
5.248,17979.5,5663.64,6460.76,-48.632,183.946,172.424,5060.78,1287.7,8714.25,-4.01145,-34.1804,16.8899,-9505.33,17843.7,3099.27,3.86924,70.4997,224.64,-2867.53,-10610.8,-1670.6,-6.07026,-12.2319,70.0475,3504.81,8180.28,-3283.35,87.6977,-139.586,18.8232,696.788,-10493.0,-1743.65,-6.59093,-12.2508,57.8446,8236.19,-1118.65,600.067,-3.90609,-18.4312,3.96742
5.2485,17967.1,5511.44,6462.85,-47.3474,183.261,171.296,5046.4,1267.45,8678.41,-3.53627,-34.522,16.7804,-9460.98,17847.8,3152.1,2.6493,69.9125,223.575,-2846.02,-10613.9,-1660.3,-6.01604,-12.3405,70.1826,3561.3,8111.26,-3466.26,88.5659,-143.72,19.0715,679.497,-10512.0,-1726.34,-6.42135,-12.5839,57.8547,8232.72,-1142.16,596.683,-4.24762,-18.4967,4.01418
5.249,17943.9,5378.8,6468.65,-45.7504,182.563,170.144,5037.12,1246.92,8655.51,-3.08066,-34.8765,16.6781,-9425.43,17847.7,3184.87,1.51156,69.4729,222.508,-2826.46,-10613.2,-1651.96,-5.97586,-12.4284,70.3347,3609.11,8038.28,-3665.02,89.6335,-147.509,19.299,665.664,-10527.2,-1708.19,-6.25646,-12.9096,57.8784,8232.01,-1163.33,593.837,-4.60527,-18.55,4.06932
5.2495,17883.0,5314.63,6487.45,-43.0601,181.823,168.904,5045.66,1225.37,8677.88,-2.69353,-35.2761,16.6016,-9420.66,17832.5,3147.41,0.661496,69.5503,221.434,-2813.74,-10599.2,-1650.48,-5.98477,-12.4442,70.5466,3626.54,7951.46,-3919.27,91.399,-150.092,19.4538,663.933,-10529.2,-1687.15,-6.10796,-13.2092,57.9494,8240.97,-1176.35,592.874,-5.01932,-18.5602,4.15377
5.25,17822.1,5250.45,6506.24,-40.3698,181.082,167.665,5054.2,1203.82,8700.25,-2.3064,-35.6757,16.5251,-9415.89,17817.3,3109.94,-0.18857,69.6276,220.36,-2801.01,-10585.3,-1649.01,-5.99368,-12.46,70.7586,3643.97,7864.65,-4173.52,93.1644,-152.675,19.6086,662.203,-10531.2,-1666.11,-5.95946,-13.5089,58.0205,8249.92,-1189.36,591.91,-5.43337,-18.5705,4.23822
5.2505,17761.2,5186.28,6525.04,-37.6795,180.342,166.425,5062.75,1182.27,8722.63,-1.91927,-36.0752,16.4486,-9411.13,17802.1,3072.48,-1.03864,69.705,219.286,-2788.29,-10571.3,-1647.53,-6.00259,-12.4757,70.9705,3661.39,7777.83,-4427.77,94.9298,-155.258,19.7634,660.472,-10533.3,-1645.06,-5.81096,-13.8085,58.0915,8258.88,-1202.37,590.947,-5.84742,-18.5807,4.32268
5.251,17700.3,5122.11,6543.84,-34.9892,179.602,165.185,5071.29,1160.71,8745.0,-1.53214,-36.4748,16.3721,-9406.36,17787.0,3035.01,-1.8887,69.7824,218.212,-2775.57,-10557.3,-1646.06,-6.0115,-12.4915,71.1824,3678.82,7691.01,-4682.02,96.6953,-157.84,19.9182,658.742,-10535.3,-1624.02,-5.66246,-14.1081,58.1626,8267.84,-1215.38,589.983,-6.26147,-18.591,4.40713
5.2515,17639.4,5057.93,6562.64,-32.2989,178.861,163.946,5079.83,1139.16,8767.37,-1.14502,-36.8743,16.2956,-9401.59,17771.8,2997.55,-2.73877,69.8597,217.138,-2762.84,-10543.4,-1644.59,-6.02041,-12.5073,71.3943,3696.25,7604.19,-4936.27,98.4607,-160.423,20.073,657.011,-10537.3,-1602.97,-5.51396,-14.4078,58.2336,8276.79,-1228.39,589.02,-6.67551,-18.6012,4.49158
5.252,17578.5,4993.76,6581.44,-29.6086,178.121,162.706,5088.37,1117.61,8789.74,-0.757888,-37.2739,16.2191,-9396.83,17756.6,2960.09,-3.58883,69.9371,216.064,-2750.12,-10529.4,-1643.11,-6.02933,-12.5231,71.6062,3713.67,7517.37,-5190.52,100.226,-163.006,20.2278,655.281,-10539.3,-1581.93,-5.36546,-14.7074,58.3047,8285.75,-1241.41,588.056,-7.08956,-18.6115,4.57604
5.2525,17517.6,4929.58,6600.24,-26.9183,177.38,161.467,5096.92,1096.06,8812.12,-0.370759,-37.6734,16.1426,-9392.06,17741.5,2922.62,-4.4389,70.0144,214.99,-2737.39,-10515.5,-1641.64,-6.03824,-12.5389,71.8182,3731.1,7430.56,-5444.77,101.992,-165.589,20.3826,653.551,-10541.3,-1560.89,-5.21696,-15.007,58.3757,8294.71,-1254.42,587.093,-7.50361,-18.6217,4.66049
5.253,17456.7,4865.41,6619.03,-24.228,176.64,160.227,5105.46,1074.51,8834.49,0.0163689,-38.073,16.0661,-9387.3,17726.3,2885.16,-5.28896,70.0918,213.916,-2724.67,-10501.5,-1640.17,-6.04715,-12.5547,72.0301,3748.53,7343.74,-5699.02,103.757,-168.172,20.5374,651.82,-10543.3,-1539.84,-5.06846,-15.3067,58.4468,8303.66,-1267.43,586.129,-7.91766,-18.632,4.74495
5.2535,17406.9,4815.71,6613.33,-21.5191,175.994,158.869,5116.7,1069.04,8849.67,0.296253,-38.4566,15.9882,-9381.28,17692.1,2832.48,-6.03922,70.4005,212.867,-2713.71,-10492.6,-1632.48,-6.03154,-12.5858,72.2372,3757.88,7274.36,-5953.64,105.682,-170.043,20.6251,650.848,-10542.3,-1519.67,-4.90649,-15.5791,58.4625,8316.3,-1281.46,588.359,-8.25486,-18.6291,4.80377
5.254,17379.3,4794.94,6558.61,-18.7729,175.54,157.273,5133.35,1095.71,8850.46,0.361647,-38.8084,15.9073,-9372.75,17619.7,2749.38,-6.58986,71.1718,211.866,-2706.27,-10493.7,-1612.38,-5.9669,-12.6476,72.4345,3751.09,7239.88,-6209.03,107.925,-170.493,20.5785,651.393,-10535.5,-1501.25,-4.71759,-15.797,58.3675,8336.3,-1297.52,596.973,-8.43836,-18.5998,4.81134
5.2545,17351.7,4774.18,6503.9,-16.0267,175.085,155.678,5149.99,1122.39,8851.26,0.427042,-39.1601,15.8264,-9364.22,17547.4,2666.27,-7.14051,71.9432,210.865,-2698.84,-10494.8,-1592.28,-5.90226,-12.7093,72.6318,3744.3,7205.39,-6464.41,110.168,-170.942,20.5319,651.938,-10528.7,-1482.82,-4.52869,-16.015,58.2726,8356.29,-1313.58,605.587,-8.62186,-18.5706,4.81892
5.255,17324.1,4753.42,6449.19,-13.2804,174.63,154.082,5166.64,1149.06,8852.05,0.492436,-39.5119,15.7455,-9355.69,17475.0,2583.17,-7.69115,72.7145,209.864,-2691.41,-10495.8,-1572.18,-5.83762,-12.7711,72.8292,3737.51,7170.91,-6719.79,112.411,-171.392,20.4852,652.483,-10521.9,-1464.39,-4.33979,-16.2329,58.1776,8376.29,-1329.64,614.201,-8.80536,-18.5413,4.82649
5.2555,17296.5,4732.65,6394.47,-10.5342,174.175,152.486,5183.28,1175.73,8852.85,0.557831,-39.8636,15.6646,-9347.16,17402.7,2500.06,-8.24179,73.4859,208.863,-2683.97,-10496.9,-1552.07,-5.77298,-12.8329,73.0265,3730.72,7136.42,-6975.17,114.654,-171.841,20.4386,653.029,-10515.1,-1445.97,-4.15089,-16.4509,58.0827,8396.29,-1345.7,622.816,-8.98887,-18.5121,4.83406
5.256,17268.8,4711.89,6339.76,-7.788,173.72,150.891,5199.93,1202.41,8853.64,0.623225,-40.2154,15.5838,-9338.63,17330.3,2416.96,-8.79243,74.2572,207.863,-2676.54,-10498.0,-1531.97,-5.70834,-12.8947,73.2239,3723.93,7101.94,-7230.56,116.897,-172.291,20.392,653.574,-10508.3,-1427.54,-3.96198,-16.6688,57.9877,8416.28,-1361.76,631.43,-9.17237,-18.4828,4.84163
5.2565,17241.2,4691.13,6285.04,-5.04178,173.265,149.295,5216.57,1229.08,8854.44,0.688619,-40.5671,15.5029,-9330.1,17257.9,2333.85,-9.34308,75.0286,206.862,-2669.1,-10499.1,-1511.87,-5.6437,-12.9564,73.4212,3717.14,7067.45,-7485.94,119.14,-172.74,20.3454,654.119,-10501.4,-1409.12,-3.77308,-16.8868,57.8928,8436.28,-1377.82,640.044,-9.35587,-18.4536,4.84921
5.257,17213.6,4670.36,6230.33,-2.29556,172.811,147.7,5233.22,1255.76,8855.23,0.754014,-40.9189,15.422,-9321.57,17185.6,2250.75,-9.89372,75.7999,205.861,-2661.67,-10500.2,-1491.76,-5.57906,-13.0182,73.6186,3710.35,7032.97,-7741.32,121.382,-173.189,20.2988,654.664,-10494.6,-1390.69,-3.58418,-17.1047,57.7978,8456.28,-1393.88,648.659,-9.53937,-18.4244,4.85678
5.2575,17186.0,4649.6,6175.62,0.450662,172.356,146.104,5249.86,1282.43,8856.03,0.819408,-41.2706,15.3411,-9313.04,17113.2,2167.65,-10.4444,76.5713,204.86,-2654.23,-10501.3,-1471.66,-5.51442,-13.08,73.8159,3703.57,6998.48,-7996.71,123.625,-173.639,20.2522,655.209,-10487.8,-1372.27,-3.39528,-17.3226,57.7029,8476.27,-1409.94,657.273,-9.72288,-18.3951,4.86435
5.258,17163.1,4584.5,6116.78,2.90124,171.878,144.337,5264.86,1292.18,8854.85,0.797821,-41.6119,15.2742,-9319.04,17037.0,2047.52,-10.9501,77.5359,203.936,-2652.22,-10502.4,-1449.74,-5.42143,-13.0894,74.0345,3691.43,6999.97,-8231.13,125.778,-172.928,20.0216,672.049,-10482.4,-1364.47,-3.19282,-17.4644,57.6696,8494.51,-1421.07,671.418,-9.78975,-18.3659,4.87128
5.2585,17146.2,4463.99,6052.8,4.98227,171.372,142.355,5277.81,1280.76,8851.22,0.667506,-41.94,15.2249,-9343.22,16956.0,1881.1,-11.3997,78.742,203.109,-2656.99,-10503.5,-1425.56,-5.29301,-13.0334,74.2797,3672.63,7046.43,-8439.34,127.819,-170.767,19.5611,709.257,-10478.6,-1369.94,-2.97342,-17.5108,57.7135,8510.55,-1426.02,692.477,-9.71085,-18.3366,4.87739
5.259,17129.2,4343.47,5988.82,7.0633,170.867,140.374,5290.75,1269.35,8847.59,0.537191,-42.2682,15.1755,-9367.39,16875.1,1714.69,-11.8493,79.9481,202.282,-2661.75,-10504.6,-1401.37,-5.16458,-12.9773,74.5248,3653.82,7092.89,-8647.56,129.859,-168.605,19.1006,746.465,-10474.9,-1375.42,-2.75402,-17.5572,57.7574,8526.58,-1430.98,713.536,-9.63194,-18.3074,4.88351
5.2595,17112.2,4222.96,5924.84,9.14433,170.361,138.393,5303.69,1257.93,8843.95,0.406877,-42.5963,15.1261,-9391.56,16794.1,1548.28,-12.2989,81.1542,201.455,-2666.51,-10505.7,-1377.18,-5.03616,-12.9213,74.77,3635.01,7139.35,-8855.77,131.899,-166.444,18.6402,783.673,-10471.2,-1380.9,-2.53461,-17.6036,57.8013,8542.62,-1435.94,734.595,-9.55304,-18.2782,4.88963
5.26,17095.3,4102.44,5860.86,11.2254,169.855,136.411,5316.63,1246.52,8840.32,0.276562,-42.9245,15.0768,-9415.74,16713.1,1381.87,-12.7485,82.3604,200.628,-2671.28,-10506.8,-1353.0,-4.90774,-12.8652,75.0152,3616.2,7185.81,-9063.99,133.939,-164.282,18.1797,820.881,-10467.5,-1386.38,-2.31521,-17.65,57.8452,8558.66,-1440.9,755.654,-9.47414,-18.2489,4.89575
5.2605,17078.3,3981.93,5796.88,13.3064,169.349,134.43,5329.58,1235.1,8836.69,0.146247,-43.2526,15.0274,-9439.91,16632.1,1215.46,-13.1982,83.5665,199.8,-2676.04,-10507.9,-1328.81,-4.77931,-12.8092,75.2604,3597.39,7232.27,-9272.2,135.98,-162.121,17.7192,858.089,-10463.8,-1391.85,-2.09581,-17.6964,57.8891,8574.7,-1445.86,776.713,-9.39523,-18.2197,4.90187
5.261,17061.4,3861.41,5732.9,15.3874,168.844,132.448,5342.52,1223.69,8833.05,0.0159324,-43.5808,14.978,-9464.08,16551.1,1049.05,-13.6478,84.7726,198.973,-2680.81,-10509.0,-1304.62,-4.65089,-12.7532,75.5055,3578.59,7278.73,-9480.42,138.02,-159.959,17.2587,895.297,-10460.0,-1397.33,-1.87641,-17.7428,57.9329,8590.74,-1450.81,797.772,-9.31633,-18.1905,4.90799
5.2615,17044.4,3740.9,5668.92,17.4685,168.338,130.467,5355.46,1212.27,8829.42,-0.114382,-43.9089,14.9287,-9488.26,16470.1,882.636,-14.0974,85.9787,198.146,-2685.57,-10510.1,-1280.44,-4.52246,-12.6971,75.7507,3559.78,7325.19,-9688.63,140.06,-157.798,16.7983,932.505,-10456.3,-1402.81,-1.657,-17.7892,57.9768,8606.77,-1455.77,818.831,-9.23742,-18.1612,4.9141
5.262,17027.4,3620.38,5604.94,19.5495,167.832,128.485,5368.4,1200.86,8825.79,-0.244697,-44.237,14.8793,-9512.43,16389.1,716.225,-14.547,87.1848,197.319,-2690.34,-10511.2,-1256.25,-4.39404,-12.6411,75.9959,3540.97,7371.65,-9896.85,142.1,-155.636,16.3378,969.714,-10452.6,-1408.29,-1.4376,-17.8356,58.0207,8622.81,-1460.73,839.891,-9.15852,-18.132,4.92022
5.2625,17041.7,3564.66,5560.4,21.6772,166.952,126.554,5379.14,1184.35,8827.52,-0.416397,-44.5857,14.7642,-9557.09,16282.8,559.905,-14.8418,87.8721,196.435,-2699.29,-10500.7,-1239.9,-4.29242,-12.506,76.2418,3541.74,7504.53,-10026.9,142.773,-152.275,15.8415,996.609,-10427.7,-1421.31,-1.26569,-17.8191,58.0504,8637.48,-1460.57,866.367,-8.95298,-18.1759,4.95797
5.263,17080.9,3560.76,5531.39,23.8424,165.772,124.664,5388.1,1163.77,8833.53,-0.621204,-44.9508,14.5964,-9618.13,16156.4,411.657,-15.0127,88.1443,195.507,-2711.58,-10481.0,-1229.82,-4.21224,-12.3078,76.4883,3558.17,7706.56,-10094.5,142.351,-147.953,15.3166,1015.25,-10385.8,-1440.39,-1.13177,-17.7522,58.0688,8651.07,-1456.32,897.179,-8.64612,-18.2782,5.02103
5.2635,17120.0,3556.86,5502.39,26.0075,164.592,122.774,5397.06,1143.19,8839.55,-0.826012,-45.316,14.4287,-9679.17,16030.0,263.41,-15.1837,88.4165,194.579,-2723.88,-10461.3,-1219.74,-4.13206,-12.1096,76.7349,3574.6,7908.58,-10162.0,141.93,-143.632,14.7916,1033.9,-10343.9,-1459.46,-0.99785,-17.6854,58.0871,8664.65,-1452.07,927.99,-8.33926,-18.3806,5.08408
5.264,17159.2,3552.96,5473.39,28.1726,163.411,120.884,5406.03,1122.62,8845.56,-1.03082,-45.6811,14.261,-9740.21,15903.5,115.162,-15.3546,88.6886,193.651,-2736.18,-10441.6,-1209.66,-4.05187,-11.9113,76.9814,3591.03,8110.61,-10229.6,141.508,-139.31,14.2667,1052.54,-10302.0,-1478.53,-0.86393,-17.6185,58.1054,8678.23,-1447.82,958.801,-8.0324,-18.4829,5.14713
5.2645,17198.4,3549.07,5444.39,30.3378,162.231,118.993,5414.99,1102.04,8851.58,-1.23563,-46.0462,14.0933,-9801.25,15777.1,-33.0854,-15.5255,88.9608,192.722,-2748.48,-10421.9,-1199.58,-3.97169,-11.7131,77.2279,3607.46,8312.63,-10297.1,141.087,-134.988,13.7418,1071.19,-10260.1,-1497.6,-0.730009,-17.5516,58.1238,8691.81,-1443.57,989.613,-7.72555,-18.5853,5.21019
5.265,17237.6,3545.17,5415.39,32.5029,161.051,117.103,5423.96,1081.46,8857.6,-1.44043,-46.4113,13.9256,-9862.29,15650.6,-181.333,-15.6965,89.233,191.794,-2760.78,-10402.2,-1189.5,-3.89151,-11.5148,77.4744,3623.89,8514.66,-10364.7,140.665,-130.667,13.2169,1089.83,-10218.2,-1516.67,-0.596089,-17.4847,58.1421,8705.39,-1439.31,1020.42,-7.41869,-18.6876,5.27324
5.2655,17276.8,3541.27,5386.39,34.6681,159.871,115.213,5432.92,1060.88,8863.61,-1.64524,-46.7764,13.7579,-9923.34,15524.2,-329.581,-15.8674,89.5052,190.866,-2773.08,-10382.5,-1179.42,-3.81133,-11.3166,77.721,3640.31,8716.68,-10432.2,140.243,-126.345,12.6919,1108.48,-10176.3,-1535.74,-0.462169,-17.4179,58.1604,8718.97,-1435.06,1051.24,-7.11183,-18.7899,5.33629
5.266,17316.0,3537.38,5357.38,36.8332,158.691,113.323,5441.89,1040.3,8869.63,-1.85005,-47.1415,13.5901,-9984.38,15397.7,-477.828,-16.0384,89.7774,189.938,-2785.38,-10362.8,-1169.33,-3.73115,-11.1183,77.9675,3656.74,8918.71,-10499.8,139.822,-122.023,12.167,1127.12,-10134.4,-1554.81,-0.328249,-17.351,58.1788,8732.55,-1430.81,1082.05,-6.80497,-18.8923,5.39935
5.2665,17355.2,3533.48,5328.38,38.9983,157.511,111.432,5450.85,1019.73,8875.64,-2.05486,-47.5066,13.4224,-10045.4,15271.3,-626.076,-16.2093,90.0496,189.01,-2797.67,-10343.1,-1159.25,-3.65097,-10.9201,78.214,3673.17,9120.73,-10567.3,139.4,-117.702,11.6421,1145.77,-10092.5,-1573.88,-0.194329,-17.2841,58.1971,8746.13,-1426.56,1112.86,-6.49812,-18.9946,5.4624
5.267,17523.2,3606.13,5208.67,40.7337,156.724,109.568,5438.97,992.616,8874.76,-2.17243,-47.8568,13.2396,-10144.6,15162.6,-704.476,-16.6135,89.7525,187.864,-2796.48,-10336.0,-1139.75,-3.58688,-10.7329,78.4536,3734.68,9417.62,-10567.1,136.453,-112.65,11.7431,1186.96,-10071.4,-1595.35,-0.134516,-17.164,58.0932,8773.59,-1413.42,1130.77,-5.93283,-19.0869,5.4762
5.2675,17755.7,3717.06,5043.59,42.2542,156.135,107.717,5416.67,962.24,8870.43,-2.2464,-48.1996,13.0492,-10262.9,15062.7,-747.954,-17.1342,89.1709,186.609,-2788.53,-10335.0,-1115.54,-3.53084,-10.5513,78.6897,3818.72,9761.94,-10533.0,132.244,-107.234,12.1571,1239.43,-10060.7,-1618.03,-0.111758,-17.0173,57.9281,8807.99,-1395.84,1142.23,-5.23833,-19.174,5.46538
5.268,17988.3,3827.98,4878.52,43.7747,155.545,105.866,5394.36,931.863,8866.1,-2.32036,-48.5423,12.8589,-10381.2,14962.9,-791.431,-17.655,88.5893,185.355,-2780.58,-10334.1,-1091.33,-3.4748,-10.3696,78.9258,3902.77,10106.3,-10498.9,128.034,-101.817,12.5711,1291.89,-10050.1,-1640.7,-0.0889989,-16.8706,57.763,8842.39,-1378.26,1153.69,-4.54384,-19.2611,5.45457
5.2685,18220.8,3938.91,4713.44,45.2952,154.955,104.015,5372.06,901.487,8861.77,-2.39432,-48.885,12.6685,-10499.5,14863.0,-834.908,-18.1757,88.0077,184.1,-2772.64,-10333.2,-1067.12,-3.41876,-10.1879,79.1619,3986.81,10450.6,-10464.8,123.825,-96.4007,12.9851,1344.36,-10039.4,-1663.38,-0.0662403,-16.7239,57.598,8876.79,-1360.68,1165.15,-3.84934,-19.3483,5.44375
5.269,18453.3,4049.84,4548.37,46.8157,154.366,102.163,5349.76,871.11,8857.44,-2.46828,-49.2278,12.4782,-10617.7,14763.2,-878.385,-18.6965,87.4261,182.846,-2764.69,-10332.3,-1042.92,-3.36272,-10.0063,79.3981,4070.85,10794.9,-10430.7,119.615,-90.9842,13.399,1396.82,-10028.7,-1686.05,-0.0434817,-16.5772,57.4329,8911.19,-1343.1,1176.61,-3.15484,-19.4354,5.43293
5.2695,18685.8,4160.77,4383.29,48.3363,153.776,100.312,5327.45,840.734,8853.11,-2.54224,-49.5705,12.2878,-10736.0,14663.3,-921.862,-19.2172,86.8445,181.591,-2756.75,-10331.4,-1018.71,-3.30668,-9.82462,79.6342,4154.9,11139.2,-10396.6,115.406,-85.5678,13.813,1449.29,-10018.0,-1708.73,-0.0207231,-16.4305,57.2678,8945.59,-1325.52,1188.07,-2.46034,-19.5226,5.42211
5.27,18918.3,4271.69,4218.22,49.8568,153.187,98.461,5305.15,810.358,8848.78,-2.6162,-49.9132,12.0975,-10854.3,14563.4,-965.34,-19.738,86.2629,180.336,-2748.8,-10330.5,-994.496,-3.25064,-9.64297,79.8703,4238.94,11483.5,-10362.5,111.196,-80.1513,14.227,1501.75,-10007.4,-1731.4,0.00203555,-16.2837,57.1027,8979.99,-1307.94,1199.53,-1.76584,-19.6097,5.41129
5.2705,19150.8,4382.62,4053.14,51.3773,152.597,96.6098,5282.85,779.981,8844.45,-2.69017,-50.256,11.9071,-10972.6,14463.6,-1008.82,-20.2588,85.6814,179.082,-2740.85,-10329.6,-970.286,-3.1946,-9.46131,80.1064,4322.98,11827.9,-10328.5,106.987,-74.7349,14.641,1554.22,-9996.7,-1754.08,0.0247942,-16.137,56.9377,9014.38,-1290.36,1210.99,-1.07134,-19.6969,5.40047
5.271,19383.4,4493.54,3888.07,52.8978,152.007,94.7586,5260.54,749.605,8840.12,-2.76413,-50.5987,11.7168,-11090.8,14363.7,-1052.29,-20.7795,85.0997,177.827,-2732.91,-10328.7,-946.077,-3.13857,-9.27965,80.3425,4407.03,12172.2,-10294.4,102.777,-69.3184,15.055,1606.68,-9986.02,-1776.75,0.0475528,-15.9903,56.7726,9048.78,-1272.78,1222.45,-0.376845,-19.784,5.38965
5.2715,19586.4,4468.62,3611.46,53.4523,152.321,92.3793,5244.41,749.604,8864.15,-2.82838,-50.9755,11.4991,-11208.0,14260.9,-1132.63,-21.2853,84.1889,176.351,-2724.53,-10331.5,-933.493,-3.05481,-9.18524,80.604,4566.14,12507.1,-10272.1,96.1167,-63.0533,16.2864,1632.74,-9953.62,-1796.83,0.0936215,-15.8036,56.6407,9067.12,-1253.07,1212.6,0.455653,-19.8422,5.40073
5.272,19781.0,4404.87,3302.99,53.7309,152.893,89.849,5230.05,758.281,8896.28,-2.88986,-51.362,11.2736,-11324.9,14157.2,-1223.5,-21.7868,83.1839,174.812,-2716.03,-10335.4,-924.23,-2.96314,-9.11575,80.8727,4746.71,12839.4,-10253.2,88.7559,-56.5458,17.7513,1651.26,-9915.0,-1816.17,0.14635,-15.6055,56.5184,9080.86,-1232.75,1196.66,1.32758,-19.8921,5.41807
5.2725,19975.5,4341.13,2994.52,54.0095,153.465,87.3188,5215.69,766.959,8928.42,-2.95133,-51.7485,11.0481,-11441.8,14053.5,-1314.37,-22.2883,82.1789,173.273,-2707.53,-10339.3,-914.967,-2.87146,-9.04627,81.1414,4927.28,13171.7,-10234.3,81.3952,-50.0383,19.2162,1669.78,-9876.39,-1835.51,0.199079,-15.4074,56.3961,9094.6,-1212.44,1180.71,2.19951,-19.9421,5.4354
5.273,20170.1,4277.38,2686.05,54.2881,154.037,84.7885,5201.32,775.636,8960.56,-3.01281,-52.1351,10.8227,-11558.6,13949.8,-1405.25,-22.7898,81.1739,171.734,-2699.03,-10343.2,-905.704,-2.77979,-8.97679,81.4101,5107.84,13504.0,-10215.4,74.0344,-43.5308,20.6812,1688.29,-9837.77,-1854.84,0.251808,-15.2093,56.2737,9108.34,-1192.12,1164.77,3.07143,-19.992,5.45274
5.2735,20364.7,4213.64,2377.58,54.5666,154.609,82.2583,5186.96,784.314,8992.69,-3.07429,-52.5216,10.5972,-11675.5,13846.1,-1496.12,-23.2914,80.169,170.194,-2690.52,-10347.1,-896.442,-2.68812,-8.90731,81.6788,5288.41,13836.3,-10196.5,66.6737,-37.0233,22.1461,1706.81,-9799.16,-1874.18,0.304537,-15.0111,56.1514,9122.08,-1171.8,1148.83,3.94336,-20.0419,5.47008
5.274,20559.3,4149.9,2069.1,54.8452,155.181,79.728,5172.6,792.991,9024.83,-3.13576,-52.9081,10.3717,-11792.3,13742.4,-1586.99,-23.7929,79.164,168.655,-2682.02,-10351.0,-887.179,-2.59644,-8.83782,81.9475,5468.97,14168.6,-10177.7,59.313,-30.5158,23.6111,1725.33,-9760.54,-1893.52,0.357265,-14.813,56.0291,9135.82,-1151.48,1132.89,4.81528,-20.0918,5.48741
5.2745,20753.9,4086.15,1760.63,55.1238,155.753,77.1978,5158.23,801.669,9056.96,-3.19724,-53.2946,10.1462,-11909.2,13638.7,-1677.86,-24.2944,78.159,167.116,-2673.52,-10354.9,-877.916,-2.50477,-8.76834,82.2163,5649.54,14500.9,-10158.8,51.9522,-24.0083,25.076,1743.84,-9721.93,-1912.85,0.409994,-14.6149,55.9067,9149.56,-1131.16,1116.94,5.68721,-20.1418,5.50475
5.275,20948.5,4022.41,1452.16,55.4024,156.325,74.6675,5143.87,810.346,9089.1,-3.25872,-53.6811,9.92076,-12026.1,13535.0,-1768.73,-24.7959,77.154,165.577,-2665.02,-10358.8,-868.654,-2.4131,-8.69886,82.485,5830.11,14833.1,-10139.9,44.5915,-17.5008,26.541,1762.36,-9683.31,-1932.19,0.462723,-14.4168,55.7844,9163.3,-1110.85,1101.0,6.55914,-20.1917,5.52209
5.2755,21143.1,3958.66,1143.69,55.681,156.897,72.1373,5129.5,819.024,9121.24,-3.3202,-54.0676,9.69529,-12142.9,13431.3,-1859.6,-25.2974,76.1491,164.037,-2656.52,-10362.7,-859.391,-2.32142,-8.62937,82.7537,6010.67,15165.4,-10121.0,37.2307,-10.9933,28.0059,1780.88,-9644.7,-1951.53,0.515452,-14.2187,55.662,9177.05,-1090.53,1085.06,7.43106,-20.2416,5.53942
5.276,21176.5,3854.1,957.709,54.8897,156.84,69.3304,5131.03,836.005,9142.9,-3.50063,-54.5167,9.50026,-12310.4,13272.5,-1976.26,-25.6367,74.6928,162.876,-2651.78,-10365.4,-875.387,-2.22249,-8.59517,83.0372,6220.05,15349.1,-10096.4,28.4525,-3.7929,29.6387,1826.7,-9622.35,-1957.38,0.582355,-14.0234,55.6717,9190.74,-1060.4,1066.87,8.06878,-20.2867,5.57683
5.2765,21189.8,3744.43,787.043,53.9647,156.705,66.4889,5134.54,854.024,9163.25,-3.69592,-54.9736,9.30905,-12484.2,13106.9,-2096.15,-25.9558,73.1801,161.762,-2647.52,-10367.8,-894.54,-2.12264,-8.56538,83.3227,6433.03,15514.1,-10071.2,19.497,3.4941,31.2925,1875.94,-9602.05,-1961.54,0.65103,-13.8285,55.6978,9204.42,-1029.04,1048.41,8.67722,-20.3311,5.61675
