Time,RFoot_accel.x,RFoot_accel.y,RFoot_accel.z,RFoot_gyro.x,RFoot_gyro.y,RFoot_gyro.z,LFoot_accel.x,LFoot_accel.y,LFoot_accel.z,LFoot_gyro.x,LFoot_gyro.y,LFoot_gyro.z,RShank_accel.x,RShank_accel.y,RShank_accel.z,RShank_gyro.x,RShank_gyro.y,RShank_gyro.z,LShank_accel.x,LShank_accel.y,LShank_accel.z,LShank_gyro.x,LShank_gyro.y,LShank_gyro.z,RThigh_accel.x,RThigh_accel.y,RThigh_accel.z,RThigh_gyro.x,RThigh_gyro.y,RThigh_gyro.z,LThigh_accel.x,LThigh_accel.y,LThigh_accel.z,LThigh_gyro.x,LThigh_gyro.y,LThigh_gyro.z,Pelvis_accel.x,Pelvis_accel.y,Pelvis_accel.z,Pelvis_gyro.x,Pelvis_gyro.y,Pelvis_gyro.z
4.71,204.748,-3666.68,4699.96,-82.1321,305.039,-56.0873,4376.74,2631.88,8317.55,-7.651,-0.18682,0.237884,2724.04,4502.21,21.9602,-0.385051,-15.4788,137.045,-883.369,-9584.28,-2291.84,-7.08542,2.14984,54.3314,-5207.05,6565.18,-1218.71,113.508,-27.073,80.8055,-260.161,-9130.84,-2514.31,-18.1759,-9.83106,56.2586,9234.76,1271.28,1167.2,-5.48303,7.97056,21.8638
4.7105,264.539,-3697.56,4730.45,-80.1578,303.609,-54.9695,4344.86,2616.9,8340.52,-7.68763,-0.257102,0.357514,2657.9,4547.83,24.3843,-0.678997,-14.1282,137.782,-882.56,-9560.33,-2276.16,-7.20077,1.9822,54.3266,-5117.55,6579.66,-1311.86,115.236,-30.2249,78.5578,-343.078,-9125.31,-2486.94,-18.2658,-10.1016,56.5184,9205.28,1278.16,1153.02,-5.79604,7.76365,22.0492
4.711,324.331,-3728.45,4760.94,-78.1836,302.179,-53.8517,4312.98,2601.93,8363.5,-7.72426,-0.327383,0.477145,2591.76,4593.45,26.8084,-0.972943,-12.7776,138.519,-881.752,-9536.37,-2260.47,-7.31611,1.81456,54.3218,-5028.05,6594.15,-1405.02,116.964,-33.3767,76.3102,-425.996,-9119.79,-2459.57,-18.3557,-10.3721,56.7783,9175.8,1285.05,1138.83,-6.10905,7.55674,22.2345
4.7115,409.12,-3744.64,4748.98,-76.1503,301.201,-52.6612,4307.64,2589.15,8369.59,-7.7745,-0.377742,0.602135,2545.71,4601.08,17.9645,-1.14785,-11.6245,139.174,-895.817,-9526.24,-2242.82,-7.47089,1.56953,54.3079,-4979.56,6729.25,-1392.63,117.223,-35.5421,75.0731,-509.578,-9120.37,-2396.43,-18.2769,-11.1028,57.0041,9156.73,1279.08,1132.11,-6.53254,7.46457,22.4244
4.712,501.052,-3756.64,4724.88,-74.1002,300.352,-51.4498,4309.87,2577.01,8370.87,-7.82863,-0.422409,0.728656,2505.4,4597.86,5.90128,-1.28875,-10.5279,139.805,-914.132,-9520.05,-2224.6,-7.63693,1.30239,54.2914,-4942.79,6898.82,-1350.08,117.061,-37.4257,74.1247,-593.35,-9122.7,-2323.07,-18.15,-11.965,57.2201,9140.64,1269.44,1127.52,-6.9876,7.40518,22.6156
4.7125,592.984,-3768.64,4700.79,-72.0501,299.504,-50.2385,4312.11,2564.86,8372.14,-7.88276,-0.467076,0.855177,2465.09,4594.63,-6.16199,-1.42964,-9.43134,140.436,-932.447,-9513.86,-2206.39,-7.80298,1.03525,54.2749,-4906.01,7068.39,-1307.53,116.899,-39.3093,73.1764,-677.122,-9125.03,-2249.71,-18.023,-12.8272,57.4362,9124.54,1259.8,1122.93,-7.44265,7.34578,22.8068
4.713,684.916,-3780.63,4676.69,-69.9999,298.655,-49.0272,4314.34,2552.72,8373.41,-7.93689,-0.511742,0.981698,2424.78,4591.41,-18.2253,-1.57054,-8.33474,141.067,-950.762,-9507.67,-2188.17,-7.96902,0.768102,54.2584,-4869.24,7237.96,-1264.98,116.737,-41.1928,72.2281,-760.895,-9127.36,-2176.35,-17.8961,-13.6894,57.6522,9108.44,1250.16,1118.34,-7.89771,7.2864,22.9979
4.7135,776.848,-3792.63,4652.6,-67.9498,297.806,-47.8159,4316.58,2540.57,8374.69,-7.99103,-0.556409,1.10822,2384.46,4588.19,-30.2885,-1.71143,-7.23814,141.698,-969.077,-9501.49,-2169.95,-8.13506,0.500959,54.242,-4832.47,7407.52,-1222.43,116.575,-43.0764,71.2797,-844.667,-9129.69,-2102.99,-17.7691,-14.5516,57.8683,9092.35,1240.51,1113.75,-8.35276,7.22701,23.1891
4.714,868.78,-3804.63,4628.5,-65.8997,296.958,-46.6046,4318.81,2528.42,8375.96,-8.04516,-0.601076,1.23474,2344.15,4584.96,-42.3518,-1.85233,-6.14154,142.329,-987.392,-9495.3,-2151.73,-8.30111,0.233815,54.2255,-4795.7,7577.09,-1179.88,116.413,-44.9599,70.3314,-928.439,-9132.02,-2029.63,-17.6421,-15.4138,58.0843,9076.25,1230.87,1109.16,-8.80782,7.16762,23.3803
4.7145,960.712,-3816.62,4604.4,-63.8496,296.109,-45.3933,4321.05,2516.28,8377.24,-8.09929,-0.645743,1.36126,2303.84,4581.74,-54.4151,-1.99322,-5.04494,142.96,-1005.71,-9489.11,-2133.52,-8.46715,-0.0333282,54.209,-4758.92,7746.66,-1137.33,116.251,-46.8435,69.383,-1012.21,-9134.35,-1956.26,-17.5152,-16.276,58.3003,9060.16,1221.23,1104.57,-9.26287,7.10823,23.5715
4.715,1052.64,-3828.62,4580.31,-61.7994,295.26,-44.1819,4323.28,2504.13,8378.51,-8.15342,-0.690409,1.48778,2263.53,4578.52,-66.4783,-2.13412,-3.94834,143.591,-1024.02,-9482.93,-2115.3,-8.63319,-0.300472,54.1925,-4722.15,7916.22,-1094.78,116.089,-48.7271,68.4347,-1095.98,-9136.67,-1882.9,-17.3882,-17.1382,58.5164,9044.06,1211.59,1099.98,-9.71793,7.04884,23.7626
4.7155,1144.58,-3840.61,4556.21,-59.7493,294.412,-42.9706,4325.52,2491.99,8379.79,-8.20755,-0.735076,1.6143,2223.22,4575.3,-78.5416,-2.27501,-2.85174,144.222,-1042.34,-9476.74,-2097.08,-8.79924,-0.567615,54.1761,-4685.38,8085.79,-1052.23,115.928,-50.6106,67.4863,-1179.76,-9139.0,-1809.54,-17.2613,-18.0004,58.7324,9027.96,1201.95,1095.39,-10.173,6.98945,23.9538
4.716,1248.67,-3828.88,4516.64,-58.3266,294.125,-41.7456,4356.17,2467.97,8370.64,-8.17119,-0.76572,1.70966,2204.67,4550.76,-59.5651,-2.21,-2.01116,144.809,-1086.96,-9476.76,-2071.9,-8.93853,-1.10013,54.055,-4704.4,8235.54,-984.889,114.148,-50.9992,67.9505,-1252.02,-9152.37,-1736.52,-17.1451,-19.2153,58.8612,9005.16,1174.66,1080.52,-10.6373,7.077,24.1671
4.7165,1354.28,-3814.18,4475.13,-56.9824,293.909,-40.5189,4390.38,2442.46,8360.19,-8.1235,-0.794612,1.80113,2188.83,4523.56,-36.7086,-2.11924,-1.20259,145.391,-1134.88,-9477.56,-2045.86,-9.07448,-1.66581,53.9209,-4730.4,8382.81,-914.45,112.165,-51.2008,68.5912,-1322.85,-9167.12,-1663.55,-17.0303,-20.4744,58.9791,8981.53,1145.16,1064.35,-11.1028,7.18291,24.3832
4.717,1459.89,-3799.48,4433.62,-55.6381,293.693,-39.2921,4424.6,2416.96,8349.74,-8.07582,-0.823503,1.89259,2172.99,4496.35,-13.8521,-2.02848,-0.394015,145.973,-1182.8,-9478.36,-2019.81,-9.21043,-2.23149,53.7869,-4756.39,8530.08,-844.012,110.183,-51.4024,69.2319,-1393.68,-9181.87,-1590.57,-16.9155,-21.7335,59.097,8957.89,1115.66,1048.19,-11.5683,7.28883,24.5993
4.7175,1565.5,-3784.78,4392.1,-54.2939,293.477,-38.0654,4458.81,2391.45,8339.29,-8.02814,-0.852394,1.98405,2157.16,4469.15,9.00441,-1.93772,0.414558,146.555,-1230.71,-9479.16,-1993.77,-9.34638,-2.79717,53.6528,-4782.39,8677.35,-773.574,108.201,-51.604,69.8726,-1464.51,-9196.62,-1517.59,-16.8007,-22.9925,59.2149,8934.26,1086.16,1032.03,-12.0338,7.39475,24.8154
4.718,1671.11,-3770.08,4350.59,-52.9496,293.261,-36.8387,4493.02,2365.94,8328.84,-7.98046,-0.881285,2.07552,2141.32,4441.95,31.8609,-1.84697,1.22313,147.137,-1278.63,-9479.96,-1967.72,-9.48233,-3.36285,53.5187,-4808.39,8824.62,-703.135,106.219,-51.8057,70.5133,-1535.34,-9211.37,-1444.62,-16.6858,-24.2516,59.3328,8910.62,1056.66,1015.87,-12.4993,7.50067,25.0315
4.7185,1776.72,-3755.38,4309.08,-51.6054,293.045,-35.6119,4527.23,2340.44,8318.39,-7.93278,-0.910177,2.16698,2125.49,4414.75,54.7174,-1.75621,2.0317,147.719,-1326.55,-9480.76,-1941.68,-9.61828,-3.92854,53.3846,-4834.38,8971.89,-632.697,104.236,-52.0073,71.154,-1606.18,-9226.12,-1371.64,-16.571,-25.5106,59.4507,8886.99,1027.16,999.706,-12.9648,7.60658,25.2476
4.719,1882.34,-3740.68,4267.57,-50.2611,292.829,-34.3852,4561.44,2314.93,8307.95,-7.8851,-0.939068,2.25844,2109.65,4387.54,77.5739,-1.66545,2.84028,148.301,-1374.46,-9481.56,-1915.63,-9.75423,-4.49422,53.2505,-4860.38,9119.16,-562.259,102.254,-52.2089,71.7947,-1677.01,-9240.87,-1298.67,-16.4562,-26.7697,59.5686,8863.35,997.655,983.543,-13.4303,7.7125,25.4637
4.7195,1987.95,-3725.97,4226.06,-48.9168,292.612,-33.1585,4595.65,2289.42,8297.5,-7.83742,-0.967959,2.34991,2093.82,4360.34,100.43,-1.5747,3.64885,148.883,-1422.38,-9482.36,-1889.59,-9.89018,-5.0599,53.1164,-4886.38,9266.43,-491.82,100.272,-52.4105,72.4355,-1747.84,-9255.62,-1225.69,-16.3414,-28.0287,59.6865,8839.72,968.155,967.381,-13.8958,7.81842,25.6798
4.72,2093.56,-3711.27,4184.55,-47.5726,292.396,-31.9317,4629.86,2263.92,8287.05,-7.78974,-0.996851,2.44137,2077.98,4333.14,123.287,-1.48394,4.45742,149.464,-1470.3,-9483.16,-1863.54,-10.0261,-5.62558,52.9823,-4912.38,9413.7,-421.382,98.2895,-52.6122,73.0762,-1818.67,-9270.37,-1152.71,-16.2266,-29.2878,59.8044,8816.08,938.654,951.219,-14.3612,7.92434,25.8959
4.7205,2177.28,-3656.0,4197.96,-46.9311,292.586,-30.8784,4657.72,2242.84,8271.01,-7.761,-1.00141,2.53024,2054.38,4303.71,134.109,-1.38305,5.01447,150.063,-1524.5,-9495.6,-1842.66,-10.0617,-6.44304,52.8393,-4983.04,9488.32,-350.858,95.4713,-51.2523,74.5222,-1863.11,-9300.02,-1101.95,-16.1601,-30.5569,59.7759,8801.53,908.245,956.628,-14.6647,8.03001,26.2118
4.721,2261.0,-3600.72,4211.37,-46.2896,292.775,-29.825,4685.58,2221.76,8254.97,-7.73226,-1.00596,2.6191,2030.78,4274.28,144.931,-1.28217,5.57152,150.662,-1578.71,-9508.03,-1821.79,-10.0974,-7.26049,52.6963,-5053.7,9562.94,-280.334,92.6531,-49.8924,75.9682,-1907.56,-9329.67,-1051.19,-16.0936,-31.8259,59.7474,8786.97,877.835,962.037,-14.9682,8.13568,26.5277
4.7215,2344.72,-3545.44,4224.78,-45.648,292.964,-28.7717,4713.44,2200.68,8238.93,-7.70352,-1.01052,2.70797,2007.18,4244.86,155.753,-1.18128,6.12856,151.261,-1632.91,-9520.47,-1800.91,-10.133,-8.07795,52.5533,-5124.36,9637.56,-209.81,89.8349,-48.5325,77.4142,-1952.01,-9359.32,-1000.43,-16.0271,-33.095,59.7189,8772.42,847.426,967.446,-15.2716,8.24135,26.8436
4.722,2428.44,-3490.17,4238.19,-45.0065,293.154,-27.7184,4741.3,2179.61,8222.89,-7.67478,-1.01507,2.79684,1983.58,4215.43,166.576,-1.08039,6.68561,151.86,-1687.12,-9532.9,-1780.03,-10.1686,-8.8954,52.4103,-5195.02,9712.19,-139.286,87.0167,-47.1726,78.8603,-1996.45,-9388.97,-949.665,-15.9606,-34.3641,59.6905,8757.86,817.016,972.854,-15.5751,8.34703,27.1595
4.7225,2512.16,-3434.89,4251.6,-44.365,293.343,-26.665,4769.15,2158.53,8206.86,-7.64603,-1.01963,2.8857,1959.98,4186.0,177.398,-0.979506,7.24266,152.459,-1741.33,-9545.34,-1759.15,-10.2042,-9.71286,52.2673,-5265.69,9786.81,-68.762,84.1985,-45.8127,80.3063,-2040.9,-9418.62,-898.903,-15.8941,-35.6331,59.662,8743.31,786.606,978.263,-15.8785,8.4527,27.4754
4.723,2595.88,-3379.61,4265.0,-43.7235,293.532,-25.6117,4797.01,2137.45,8190.82,-7.61729,-1.02418,2.97457,1936.38,4156.57,188.22,-0.87862,7.79971,153.058,-1795.53,-9557.77,-1738.28,-10.2399,-10.5303,52.1244,-5336.35,9861.43,1.76207,81.3803,-44.4528,81.7523,-2085.34,-9448.26,-848.14,-15.8276,-36.9022,59.6335,8728.75,756.197,983.672,-16.182,8.55837,27.7914
4.7235,2679.6,-3324.33,4278.41,-43.082,293.722,-24.5584,4824.87,2116.37,8174.78,-7.58855,-1.02874,3.06344,1912.78,4127.15,199.042,-0.777733,8.35675,153.657,-1849.74,-9570.21,-1717.4,-10.2755,-11.3478,51.9814,-5407.01,9936.05,72.2861,78.5621,-43.093,83.1983,-2129.79,-9477.91,-797.378,-15.7611,-38.1712,59.605,8714.2,725.787,989.081,-16.4854,8.66404,28.1073
4.724,2763.33,-3269.06,4291.82,-42.4405,293.911,-23.505,4852.73,2095.29,8158.74,-7.55981,-1.03329,3.1523,1889.18,4097.72,209.864,-0.676846,8.9138,154.256,-1903.94,-9582.64,-1696.52,-10.3111,-12.1652,51.8384,-5477.67,10010.7,142.81,75.7439,-41.7331,84.6443,-2174.24,-9507.56,-746.615,-15.6946,-39.4403,59.5766,8699.64,695.378,994.49,-16.7889,8.76972,28.4232
4.7245,2844.18,-3208.03,4307.79,-41.8523,294.128,-22.4515,4877.68,2077.03,8142.05,-7.5313,-1.03539,3.21987,1862.95,4071.02,219.794,-0.586628,9.42292,154.866,-1954.94,-9594.43,-1676.64,-10.338,-12.9949,51.6898,-5546.22,10074.2,213.808,72.9022,-40.2368,86.0928,-2215.34,-9536.9,-699.738,-15.6341,-40.6909,59.5369,8685.29,664.299,999.995,-17.0469,8.87568,28.7349
4.725,2902.07,-3100.96,4344.23,-41.6907,294.566,-21.3963,4879.37,2081.32,8120.17,-7.50469,-1.01786,3.11704,1815.7,4066.18,222.588,-0.581755,9.54858,155.557,-1980.27,-9601.0,-1664.75,-10.2952,-13.9226,51.497,-5597.88,10048.7,288.595,69.8725,-37.6498,87.5606,-2229.72,-9563.69,-683.943,-15.6212,-41.7936,59.4073,8672.53,627.866,1006.27,-16.9413,8.98403,29.0134
4.7255,2959.96,-2993.89,4380.67,-41.5291,295.004,-20.3412,4881.06,2085.61,8098.28,-7.47808,-1.00033,3.01421,1768.45,4061.33,225.382,-0.576882,9.67424,156.248,-2005.6,-9607.58,-1652.86,-10.2524,-14.8503,51.3041,-5649.53,10023.2,363.382,66.8428,-35.0628,89.0284,-2244.09,-9590.48,-668.148,-15.6082,-42.8963,59.2777,8659.78,591.434,1012.54,-16.8357,9.09238,29.2919
4.726,3017.85,-2886.83,4417.11,-41.3675,295.441,-19.286,4882.75,2089.89,8076.4,-7.45146,-0.982802,2.91139,1721.19,4056.49,228.175,-0.572009,9.7999,156.939,-2030.92,-9614.16,-1640.97,-10.2096,-15.778,51.1112,-5701.19,9997.66,438.169,63.8131,-32.4758,90.4962,-2258.47,-9617.27,-652.353,-15.5953,-43.999,59.1481,8647.03,555.002,1018.81,-16.7301,9.20072,29.5704
4.7265,3075.74,-2779.76,4453.54,-41.206,295.879,-18.2308,4884.44,2094.18,8054.51,-7.42485,-0.965271,2.80856,1673.94,4051.65,230.969,-0.567137,9.92555,157.63,-2056.25,-9620.74,-1629.08,-10.1668,-16.7057,50.9184,-5752.84,9972.15,512.956,60.7834,-29.8888,91.964,-2272.85,-9644.06,-636.557,-15.5824,-45.1017,59.0184,8634.27,518.57,1025.09,-16.6246,9.30907,29.8489
4.727,3133.63,-2672.7,4489.98,-41.0444,296.317,-17.1757,4886.13,2098.46,8032.62,-7.39824,-0.947741,2.70573,1626.68,4046.8,233.762,-0.562264,10.0512,158.321,-2081.58,-9627.32,-1617.19,-10.124,-17.6334,50.7255,-5804.5,9946.64,587.743,57.7538,-27.3018,93.4318,-2287.22,-9670.86,-620.762,-15.5695,-46.2044,58.8888,8621.52,482.137,1031.36,-16.519,9.41742,30.1274
4.7275,3191.52,-2565.63,4526.42,-40.8828,296.755,-16.1205,4887.83,2102.75,8010.74,-7.37162,-0.930211,2.6029,1579.43,4041.96,236.556,-0.557391,10.1769,159.013,-2106.91,-9633.89,-1605.3,-10.0812,-18.5611,50.5326,-5856.15,9921.14,662.531,54.7241,-24.7148,94.8996,-2301.6,-9697.65,-604.967,-15.5566,-47.3071,58.7592,8608.77,445.705,1037.63,-16.4134,9.52576,30.4059
4.728,3249.41,-2458.57,4562.86,-40.7212,297.193,-15.0653,4889.52,2107.03,7988.85,-7.34501,-0.912681,2.50008,1532.18,4037.11,239.35,-0.552518,10.3025,159.704,-2132.23,-9640.47,-1593.41,-10.0384,-19.4888,50.3398,-5907.81,9895.63,737.318,51.6944,-22.1278,96.3674,-2315.97,-9724.44,-589.172,-15.5437,-48.4098,58.6296,8596.01,409.273,1043.9,-16.3078,9.63411,30.6844
4.7285,3307.3,-2351.5,4599.3,-40.5596,297.631,-14.0101,4891.21,2111.32,7966.96,-7.3184,-0.895151,2.39725,1484.92,4032.27,242.143,-0.547645,10.4282,160.395,-2157.56,-9647.05,-1581.52,-9.99558,-20.4165,50.1469,-5959.46,9870.13,812.105,48.6647,-19.5408,97.8352,-2330.35,-9751.23,-573.377,-15.5308,-49.5125,58.5,8583.26,372.841,1050.18,-16.2023,9.74245,30.9629
4.729,3361.33,-2242.88,4627.78,-40.544,298.142,-12.9179,4890.99,2122.04,7954.13,-7.31121,-0.867719,2.32716,1433.5,4027.95,247.136,-0.519209,10.4783,161.089,-2173.63,-9653.44,-1573.42,-9.9749,-21.2845,49.9618,-6002.06,9832.46,886.161,45.7838,-16.8215,99.1884,-2334.41,-9774.04,-563.852,-15.5232,-50.5608,58.3469,8571.82,330.99,1055.06,-16.0556,9.85266,31.2331
4.7295,3401.89,-2128.83,4628.41,-41.0392,298.909,-11.696,4884.11,2155.28,7973.0,-7.37205,-0.805634,2.37166,1367.48,4025.48,259.825,-0.408304,10.2638,161.796,-2157.3,-9659.19,-1578.61,-10.0316,-21.9433,49.8039,-6012.95,9752.23,957.658,43.4239,-13.6393,100.141,-2302.37,-9782.88,-576.27,-15.5345,-51.419,58.1116,8564.98,270.177,1055.06,-15.7649,9.96936,31.4741
4.73,3442.44,-2014.77,4629.04,-41.5344,299.677,-10.4741,4877.22,2188.52,7991.86,-7.43289,-0.743549,2.41615,1301.47,4023.0,272.514,-0.297399,10.0493,162.502,-2140.96,-9664.94,-1583.8,-10.0884,-22.6021,49.6459,-6023.84,9672.0,1029.15,41.064,-10.4571,101.093,-2270.33,-9791.73,-588.688,-15.5458,-52.2772,57.8762,8558.14,209.365,1055.07,-15.4741,10.0861,31.7152
4.7305,3482.99,-1900.72,4629.67,-42.0296,300.445,-9.25224,4870.34,2221.76,8010.73,-7.49373,-0.681464,2.46065,1235.46,4020.52,285.203,-0.186493,9.83489,163.209,-2124.63,-9670.69,-1588.99,-10.1451,-23.2609,49.4879,-6034.74,9591.76,1100.65,38.7041,-7.27491,102.045,-2238.28,-9800.58,-601.107,-15.5571,-53.1354,57.6409,8551.3,148.552,1055.08,-15.1834,10.2028,31.9562
4.731,3523.54,-1786.67,4630.3,-42.5249,301.212,-8.03035,4863.45,2255.0,8029.59,-7.55457,-0.619379,2.50515,1169.44,4018.04,297.892,-0.0755877,9.62043,163.915,-2108.29,-9676.44,-1594.18,-10.2018,-23.9197,49.33,-6045.63,9511.53,1172.15,36.3442,-4.0927,102.998,-2206.24,-9809.43,-613.525,-15.5684,-53.9936,57.4055,8544.46,87.7388,1055.08,-14.8927,10.3195,32.1972
4.7315,3564.09,-1672.61,4630.92,-43.0201,301.98,-6.80845,4856.57,2288.24,8048.46,-7.6154,-0.557294,2.54964,1103.43,4015.57,310.581,0.0353177,9.40597,164.622,-2091.96,-9682.19,-1599.38,-10.2585,-24.5785,49.172,-6056.52,9431.3,1243.65,33.9842,-0.910501,103.95,-2174.2,-9818.27,-625.944,-15.5797,-54.8518,57.1701,8537.62,26.9259,1055.09,-14.602,10.4362,32.4382
4.732,3604.64,-1558.56,4631.55,-43.5153,302.748,-5.58656,4849.68,2321.48,8067.32,-7.67624,-0.495209,2.59414,1037.41,4013.09,323.27,0.146223,9.19151,165.329,-2075.63,-9687.94,-1604.57,-10.3153,-25.2373,49.0141,-6067.42,9351.07,1315.14,31.6243,2.2717,104.902,-2142.16,-9827.12,-638.362,-15.591,-55.71,56.9348,8530.78,-33.887,1055.1,-14.3113,10.5529,32.6793
4.7325,3645.19,-1444.5,4632.18,-44.0105,303.515,-4.36466,4842.8,2354.72,8086.19,-7.73708,-0.433124,2.63863,971.401,4010.61,335.959,0.257129,8.97705,166.035,-2059.29,-9693.69,-1609.76,-10.372,-25.8961,48.8561,-6078.31,9270.84,1386.64,29.2644,5.45391,105.854,-2110.12,-9835.97,-650.781,-15.6023,-56.5682,56.6994,8523.94,-94.7,1055.1,-14.0206,10.6696,32.9203
4.733,3685.74,-1330.45,4632.81,-44.5057,304.283,-3.14277,4835.91,2387.96,8105.05,-7.79792,-0.371038,2.68313,905.387,4008.13,348.649,0.368034,8.76259,166.742,-2042.96,-9699.44,-1614.95,-10.4287,-26.5549,48.6982,-6089.2,9190.6,1458.14,26.9045,8.63611,106.807,-2078.07,-9844.81,-663.199,-15.6136,-57.4264,56.4641,8517.1,-155.513,1055.11,-13.7299,10.7863,33.1613
4.7335,3720.88,-1231.44,4630.71,-45.1869,305.08,-1.92172,4818.65,2418.72,8117.9,-7.89367,-0.30657,2.77991,849.29,4008.06,352.011,0.449885,8.51364,167.421,-2009.48,-9706.91,-1621.6,-10.5428,-27.0537,48.5466,-6094.02,9102.95,1534.68,24.8647,11.7916,107.639,-2036.74,-9853.28,-680.845,-15.6309,-58.2296,56.1973,8515.98,-208.101,1056.56,-13.4569,10.9073,33.3834
4.734,3745.21,-1162.52,4623.13,-46.24,305.937,-0.70236,4780.64,2444.51,8118.72,-8.05924,-0.237336,2.98124,813.026,4012.81,336.72,0.473628,8.19573,168.046,-1941.72,-9717.84,-1631.15,-10.7716,-27.2326,48.4076,-6086.67,9000.45,1621.32,23.4653,14.8935,108.231,-1976.81,-9860.97,-708.946,-15.6604,-58.9228,55.8676,8526.32,-244.24,1060.88,-13.2193,11.0367,33.5677
4.7345,3769.53,-1093.59,4615.54,-47.293,306.793,0.516998,4742.63,2470.3,8119.54,-8.22481,-0.168101,3.18258,776.762,4017.56,321.429,0.497371,7.87781,168.67,-1873.96,-9728.77,-1640.71,-11.0005,-27.4115,48.2687,-6079.32,8897.95,1707.96,22.0659,17.9955,108.822,-1916.89,-9868.67,-737.046,-15.6899,-59.616,55.5378,8536.65,-280.379,1065.2,-12.9817,11.1662,33.7519
4.735,3793.86,-1024.67,4607.96,-48.3461,307.65,1.73635,4704.62,2496.1,8120.36,-8.39038,-0.0988664,3.38391,740.498,4022.31,306.139,0.521114,7.55989,169.295,-1806.21,-9739.69,-1650.27,-11.2293,-27.5904,48.1298,-6071.97,8795.45,1794.6,20.6665,21.0975,109.414,-1856.96,-9876.36,-765.146,-15.7193,-60.3092,55.2081,8546.98,-316.517,1069.52,-12.7441,11.2957,33.9362
4.7355,3818.18,-955.744,4600.39,-49.3992,308.507,2.95571,4666.61,2521.89,8121.18,-8.55595,-0.0296318,3.58525,704.234,4027.05,290.848,0.544857,7.24197,169.92,-1738.45,-9750.62,-1659.82,-11.4581,-27.7693,47.9909,-6064.62,8692.95,1881.24,19.2671,24.1995,110.006,-1797.03,-9884.06,-793.247,-15.7488,-61.0024,54.8784,8557.32,-352.656,1073.84,-12.5065,11.4251,34.1204
4.736,3842.51,-886.82,4592.8,-50.4522,309.363,4.17507,4628.6,2547.69,8122.0,-8.72152,0.0396027,3.78658,667.97,4031.8,275.557,0.5686,6.92406,170.545,-1670.69,-9761.55,-1669.38,-11.687,-27.9481,47.852,-6057.27,8590.45,1967.88,17.8677,27.3014,110.598,-1737.11,-9891.75,-821.347,-15.7782,-61.6956,54.5487,8567.65,-388.795,1078.16,-12.2689,11.5546,34.3046
4.7365,3866.83,-817.895,4585.23,-51.5053,310.22,5.39443,4590.59,2573.48,8122.82,-8.88709,0.108837,3.98792,631.706,4036.55,260.266,0.592343,6.60614,171.17,-1602.93,-9772.48,-1678.94,-11.9158,-28.127,47.7131,-6049.92,8487.95,2054.52,16.4683,30.4034,111.19,-1677.18,-9899.45,-849.448,-15.8077,-62.3888,54.219,8577.98,-424.934,1082.48,-12.0313,11.684,34.4889
4.737,3891.16,-748.971,4577.65,-52.5584,311.077,6.61378,4552.58,2599.27,8123.64,-9.05266,0.178072,4.18925,595.442,4041.29,244.976,0.616086,6.28822,171.794,-1535.17,-9783.4,-1688.49,-12.1446,-28.3059,47.5742,-6042.57,8385.45,2141.16,15.0689,33.5054,111.781,-1617.26,-9907.14,-877.548,-15.8371,-63.082,53.8893,8588.32,-461.072,1086.8,-11.7937,11.8135,34.6731
4.7375,3915.48,-680.047,4570.06,-53.6114,311.933,7.83314,4514.57,2625.07,8124.46,-9.21823,0.247306,4.39059,559.178,4046.04,229.685,0.639829,5.9703,172.419,-1467.41,-9794.33,-1698.05,-12.3735,-28.4848,47.4353,-6035.22,8282.95,2227.8,13.6695,36.6074,112.373,-1557.33,-9914.84,-905.648,-15.8666,-63.7751,53.5596,8598.65,-497.211,1091.12,-11.5561,11.943,34.8574
4.738,3925.34,-646.364,4571.24,-54.7008,312.766,9.00652,4478.78,2641.2,8130.81,-9.35544,0.263034,4.56613,533.297,4054.89,206.37,0.647768,5.74581,173.111,-1395.42,-9795.15,-1716.15,-12.6113,-28.5439,47.3025,-6011.61,8181.29,2312.81,12.6275,39.5014,112.772,-1492.99,-9921.3,-938.288,-15.8817,-64.3625,53.2494,8606.99,-532.021,1097.57,-11.3151,12.0761,35.0912
4.7385,3917.12,-656.731,4583.37,-55.8357,313.568,10.1224,4445.78,2645.27,8144.09,-9.45719,0.211878,4.70942,520.394,4068.87,173.025,0.635951,5.63811,173.886,-1318.15,-9783.35,-1744.92,-12.8603,-28.4533,47.1774,-5967.65,8080.69,2395.8,12.0323,42.1355,112.931,-1423.13,-9926.22,-976.601,-15.8788,-64.8176,52.9637,8612.84,-565.17,1106.67,-11.0697,12.2138,35.3869
4.739,3908.89,-667.098,4595.49,-56.9705,314.371,11.2384,4412.78,2649.34,8157.36,-9.55895,0.160722,4.85272,507.492,4082.85,139.68,0.624135,5.5304,174.661,-1240.87,-9771.54,-1773.7,-13.1094,-28.3627,47.0522,-5923.7,7980.09,2478.79,11.4371,44.7696,113.089,-1353.27,-9931.15,-1014.91,-15.876,-65.2728,52.678,8618.69,-598.319,1115.77,-10.8244,12.3514,35.6826
4.7395,3900.67,-677.465,4607.62,-58.1053,315.173,12.3543,4379.78,2653.4,8170.63,-9.6607,0.109567,4.99602,494.589,4096.83,106.335,0.612318,5.42269,175.436,-1163.59,-9759.74,-1802.47,-13.3584,-28.2721,46.9271,-5879.74,7879.49,2561.78,10.842,47.4037,113.247,-1283.42,-9936.07,-1053.23,-15.8731,-65.7279,52.3923,8624.54,-631.467,1124.87,-10.579,12.4891,35.9783
4.74,3892.44,-687.832,4619.74,-59.2402,315.976,13.4702,4346.78,2657.47,8183.91,-9.76246,0.0584108,5.13932,481.687,4110.81,72.99,0.600502,5.31498,176.211,-1086.32,-9747.93,-1831.24,-13.6075,-28.1815,46.802,-5835.79,7778.88,2644.77,10.2468,50.0378,113.406,-1213.56,-9940.99,-1091.54,-15.8702,-66.183,52.1066,8630.39,-664.616,1133.96,-10.3337,12.6268,36.274
4.7405,3884.22,-698.2,4631.87,-60.375,316.778,14.5861,4313.78,2661.53,8197.18,-9.86422,0.00725495,5.28261,468.784,4124.79,39.6449,0.588686,5.20727,176.986,-1009.04,-9736.13,-1860.02,-13.8565,-28.0908,46.6768,-5791.84,7678.28,2727.75,9.65161,52.672,113.564,-1143.7,-9945.92,-1129.85,-15.8674,-66.6381,51.8209,8636.24,-697.765,1143.06,-10.0883,12.7645,36.5697
4.741,3875.99,-708.567,4643.99,-61.5099,317.581,15.702,4280.78,2665.6,8210.45,-9.96597,-0.0439009,5.42591,455.882,4138.77,6.29992,0.576869,5.09957,177.761,-931.768,-9724.32,-1888.79,-14.1056,-28.0002,46.5517,-5747.88,7577.68,2810.74,9.05643,55.3061,113.722,-1073.84,-9950.84,-1168.17,-15.8645,-67.0932,51.5352,8642.09,-730.913,1152.16,-9.84297,12.9021,36.8654
4.7415,3867.77,-718.934,4656.12,-62.6447,318.383,16.8179,4247.77,2669.67,8223.73,-10.0677,-0.0950567,5.56921,442.98,4152.75,-27.0451,0.565053,4.99186,178.536,-854.492,-9712.52,-1917.57,-14.3546,-27.9096,46.4266,-5703.93,7477.08,2893.73,8.46126,57.9402,113.881,-1003.98,-9955.76,-1206.48,-15.8616,-67.5483,51.2495,8647.94,-764.062,1161.26,-9.59762,13.0398,37.1612
4.742,3859.54,-729.301,4668.24,-63.7795,319.186,17.9338,4214.77,2673.73,8237.0,-10.1695,-0.146213,5.7125,430.077,4166.73,-60.3901,0.553237,4.88415,179.311,-777.216,-9700.71,-1946.34,-14.6037,-27.819,46.3015,-5659.97,7376.48,2976.72,7.86608,60.5743,114.039,-934.121,-9960.68,-1244.79,-15.8588,-68.0034,50.9638,8653.79,-797.211,1170.36,-9.35227,13.1775,37.4569
4.7425,3838.13,-774.992,4678.7,-64.698,319.961,18.9149,4204.33,2658.12,8245.29,-10.3491,-0.193905,5.78511,439.762,4178.57,-98.0903,0.652075,5.03544,180.074,-719.553,-9686.61,-1977.1,-14.8061,-27.7504,46.2417,-5616.56,7278.24,3041.44,7.4994,62.8451,114.011,-862.75,-9946.58,-1283.89,-15.8309,-68.3031,50.7382,8662.41,-843.037,1172.91,-9.16993,13.3158,37.6903
4.743,3806.17,-848.941,4687.81,-65.4434,320.716,19.7881,4211.93,2626.78,8249.6,-10.5911,-0.238827,5.80117,467.517,4188.71,-139.275,0.839437,5.39392,180.829,-677.581,-9670.68,-2009.44,-14.9712,-27.6993,46.2343,-5573.59,7181.9,3091.55,7.31552,64.8254,113.835,-790.169,-9917.25,-1323.62,-15.783,-68.4783,50.5606,8673.24,-899.005,1170.23,-9.038,13.4546,37.874
4.7435,3774.22,-922.891,4696.93,-66.1887,321.47,20.6613,4219.53,2595.43,8253.91,-10.8331,-0.283748,5.81723,495.272,4198.84,-180.459,1.0268,5.75241,181.583,-635.609,-9654.75,-2041.78,-15.1363,-27.6482,46.2268,-5530.61,7085.56,3141.67,7.13164,66.8056,113.658,-717.588,-9887.92,-1363.34,-15.7352,-68.6535,50.3831,8684.08,-954.974,1167.54,-8.90608,13.5934,38.0576
4.744,3742.26,-996.84,4706.04,-66.9341,322.225,21.5344,4227.13,2564.08,8258.22,-11.075,-0.32867,5.83329,523.027,4208.97,-221.643,1.21416,6.1109,182.338,-593.637,-9638.81,-2074.12,-15.3014,-27.5971,46.2194,-5487.64,6989.21,3191.78,6.94775,68.7858,113.482,-645.007,-9858.59,-1403.06,-15.6873,-68.8288,50.2055,8694.91,-1010.94,1164.85,-8.77415,13.7322,38.2412
4.7445,3710.3,-1070.79,4715.16,-67.6795,322.979,22.4076,4234.73,2532.73,8262.52,-11.317,-0.373592,5.84935,550.782,4219.11,-262.827,1.40152,6.46938,183.092,-551.664,-9622.88,-2106.46,-15.4665,-27.546,46.2119,-5444.66,6892.87,3241.89,6.76387,70.766,113.306,-572.426,-9829.27,-1442.79,-15.6394,-69.004,50.0279,8705.74,-1066.91,1162.16,-8.64222,13.871,38.4249
4.745,3678.35,-1144.74,4724.27,-68.4248,323.733,23.2808,4242.33,2501.38,8266.83,-11.5589,-0.418513,5.86541,578.537,4229.24,-304.012,1.58889,6.82787,183.847,-509.692,-9606.95,-2138.81,-15.6316,-27.4949,46.2045,-5401.69,6796.53,3292.0,6.57999,72.7462,113.129,-499.845,-9799.94,-1482.51,-15.5916,-69.1792,49.8504,8716.57,-1122.88,1159.48,-8.51029,14.0098,38.6085
4.7455,3646.39,-1218.69,4733.39,-69.1702,324.488,24.154,4249.93,2470.04,8271.14,-11.8009,-0.463435,5.88147,606.292,4239.37,-345.196,1.77625,7.18635,184.601,-467.72,-9591.02,-2171.15,-15.7967,-27.4439,46.1971,-5358.71,6700.19,3342.12,6.3961,74.7265,112.953,-427.263,-9770.61,-1522.23,-15.5437,-69.3545,49.6728,8727.41,-1178.85,1156.79,-8.37836,14.1485,38.7922
4.746,3614.43,-1292.64,4742.5,-69.9156,325.242,25.0271,4257.53,2438.69,8275.45,-12.0429,-0.508357,5.89753,634.047,4249.51,-386.38,1.96361,7.54484,185.356,-425.747,-9575.09,-2203.49,-15.9618,-27.3928,46.1896,-5315.74,6603.84,3392.23,6.21222,76.7067,112.776,-354.682,-9741.28,-1561.96,-15.4958,-69.5297,49.4952,8738.24,-1234.82,1154.1,-8.24643,14.2873,38.9758
4.7465,3582.48,-1366.59,4751.62,-70.6609,325.997,25.9003,4265.13,2407.34,8279.76,-12.2848,-0.553278,5.91359,661.802,4259.64,-427.565,2.15097,7.90332,186.11,-383.775,-9559.15,-2235.83,-16.1269,-27.3417,46.1822,-5272.76,6507.5,3442.34,6.02834,78.6869,112.6,-282.101,-9711.95,-1601.68,-15.448,-69.7049,49.3177,8749.07,-1290.78,1151.41,-8.1145,14.4261,39.1594
4.747,3525.91,-1445.48,4768.19,-71.1094,326.566,26.5774,4283.75,2395.14,8270.48,-12.3404,-0.591864,6.02536,712.34,4272.58,-479.432,2.40263,8.55541,186.904,-369.771,-9558.92,-2260.88,-16.1848,-27.2395,46.2425,-5236.39,6436.78,3459.74,6.03996,80.3456,112.323,-217.856,-9691.21,-1635.6,-15.389,-69.7017,49.2729,8760.05,-1333.13,1158.18,-7.84924,14.4654,39.2793
4.7475,3457.05,-1526.85,4788.5,-71.4095,327.044,27.1565,4307.88,2392.51,8254.41,-12.3027,-0.627281,6.18499,774.271,4286.92,-536.64,2.68644,9.3543,187.716,-369.751,-9566.53,-2282.28,-16.1891,-27.1118,46.3367,-5203.31,6378.88,3460.77,6.14934,81.8435,111.996,-157.779,-9674.76,-1666.61,-15.3245,-69.6092,49.2944,8771.09,-1368.68,1169.68,-7.51732,14.455,39.3673
4.748,3388.18,-1608.22,4808.81,-71.7095,327.521,27.7355,4332.0,2389.88,8238.33,-12.2651,-0.662699,6.34462,836.202,4301.26,-593.848,2.97025,10.1532,188.529,-369.731,-9574.14,-2303.68,-16.1933,-26.9841,46.431,-5170.24,6320.97,3461.81,6.25872,83.3415,111.669,-97.7018,-9658.32,-1697.63,-15.26,-69.5167,49.316,8782.13,-1404.22,1181.17,-7.1854,14.4445,39.4553
4.7485,3319.32,-1689.59,4829.12,-72.0096,327.998,28.3145,4356.13,2387.26,8222.26,-12.2274,-0.698116,6.50425,898.132,4315.6,-651.057,3.25406,10.9521,189.342,-369.711,-9581.75,-2325.08,-16.1976,-26.8564,46.5252,-5137.16,6263.07,3462.85,6.3681,84.8394,111.342,-37.6246,-9641.87,-1728.64,-15.1955,-69.4241,49.3376,8793.18,-1439.76,1192.67,-6.85347,14.4341,39.5432
4.749,3250.46,-1770.96,4849.43,-72.3096,328.476,28.8936,4380.25,2384.63,8206.19,-12.1898,-0.733534,6.66389,960.063,4329.95,-708.265,3.53787,11.751,190.155,-369.691,-9589.36,-2346.47,-16.2018,-26.7286,46.6194,-5104.09,6205.16,3463.89,6.47748,86.3373,111.015,22.4526,-9625.42,-1759.66,-15.131,-69.3316,49.3592,8804.22,-1475.31,1204.16,-6.52155,14.4236,39.6312
4.7495,3181.59,-1852.33,4869.73,-72.6097,328.953,29.4726,4404.38,2382.0,8190.12,-12.1521,-0.768951,6.82352,1021.99,4344.29,-765.473,3.82167,12.5499,190.968,-369.67,-9596.97,-2367.87,-16.2061,-26.6009,46.7136,-5071.02,6147.25,3464.93,6.58686,87.8353,110.688,82.5298,-9608.97,-1790.67,-15.0665,-69.2391,49.3807,8815.27,-1510.85,1215.66,-6.18963,14.4132,39.7192
4.75,3112.73,-1933.7,4890.04,-72.9098,329.431,30.0517,4428.5,2379.37,8174.05,-12.1145,-0.804368,6.98315,1083.92,4358.63,-822.682,4.10548,13.3488,191.781,-369.65,-9604.58,-2389.27,-16.2103,-26.4732,46.8079,-5037.94,6089.35,3465.97,6.69624,89.3332,110.361,142.607,-9592.53,-1821.69,-15.002,-69.1466,49.4023,8826.31,-1546.39,1227.15,-5.8577,14.4027,39.8071
4.7505,3043.86,-2015.07,4910.35,-73.2098,329.908,30.6307,4452.63,2376.74,8157.97,-12.0768,-0.839786,7.14278,1145.85,4372.97,-879.89,4.38929,14.1476,192.593,-369.63,-9612.19,-2410.67,-16.2146,-26.3455,46.9021,-5004.87,6031.44,3467.0,6.80562,90.8311,110.034,202.684,-9576.08,-1852.7,-14.9374,-69.0541,49.4239,8837.35,-1581.93,1238.65,-5.52578,14.3922,39.8951
4.751,2975.0,-2096.44,4930.66,-73.5099,330.385,31.2098,4476.76,2374.11,8141.9,-12.0392,-0.875203,7.30241,1207.79,4387.31,-937.098,4.6731,14.9465,193.406,-369.61,-9619.8,-2432.07,-16.2188,-26.2178,46.9963,-4971.79,5973.54,3468.04,6.915,92.329,109.707,262.761,-9559.63,-1883.72,-14.8729,-68.9616,49.4454,8848.4,-1617.48,1250.14,-5.19386,14.3818,39.9831
4.7515,2903.33,-2156.95,4958.9,-73.6258,330.516,31.8708,4511.07,2383.13,8118.28,-12.15,-0.832837,7.31396,1276.9,4399.36,-1001.47,5.07563,15.9144,194.201,-393.279,-9617.66,-2453.7,-16.1108,-25.9129,47.12,-4932.0,5919.11,3452.98,7.33339,93.6298,109.278,309.077,-9560.84,-1916.94,-14.7021,-68.6449,49.5367,8834.6,-1642.19,1243.79,-4.77761,14.4277,40.0244
4.752,2830.86,-2211.5,4989.41,-73.6891,330.548,32.5553,4548.3,2395.46,8092.5,-12.3033,-0.768246,7.2832,1348.06,4410.75,-1067.89,5.51207,16.9306,194.99,-423.717,-9612.75,-2475.4,-15.9707,-25.5575,47.2522,-4890.29,5865.67,3433.33,7.84006,94.8743,108.82,351.462,-9567.09,-1950.79,-14.5008,-68.264,49.6479,8813.71,-1663.82,1232.33,-4.33727,14.4897,40.0524
4.7525,2758.39,-2266.05,5019.92,-73.7524,330.579,33.2398,4585.52,2407.8,8066.72,-12.4565,-0.703656,7.25244,1419.22,4422.14,-1134.3,5.94852,17.9467,195.779,-454.155,-9607.84,-2497.09,-15.8306,-25.2021,47.3843,-4848.58,5812.23,3413.67,8.34673,96.1188,108.363,393.846,-9573.34,-1984.64,-14.2996,-67.8832,49.7591,8792.82,-1685.44,1220.88,-3.89693,14.5517,40.0804
4.753,2685.93,-2320.6,5050.43,-73.8157,330.611,33.9242,4622.75,2420.14,8040.94,-12.6098,-0.639066,7.22168,1490.38,4433.53,-1200.72,6.38497,18.9629,196.569,-484.592,-9602.92,-2518.79,-15.6905,-24.8466,47.5164,-4806.87,5758.79,3394.01,8.8534,97.3633,107.905,436.23,-9579.58,-2018.48,-14.0984,-67.5024,49.8702,8771.93,-1707.06,1209.42,-3.45658,14.6138,40.1083
4.7535,2613.46,-2375.15,5080.94,-73.879,330.642,34.6087,4659.97,2432.47,8015.16,-12.7631,-0.574475,7.19092,1561.54,4444.93,-1267.14,6.82142,19.9791,197.358,-515.03,-9598.01,-2540.48,-15.5504,-24.4912,47.6485,-4765.16,5705.35,3374.36,9.36007,98.6077,107.447,478.614,-9585.83,-2052.33,-13.8971,-67.1215,49.9814,8751.04,-1728.69,1197.96,-3.01624,14.6758,40.1363
4.754,2540.99,-2429.7,5111.45,-73.9423,330.674,35.2932,4697.2,2444.81,7989.38,-12.9163,-0.509885,7.16016,1632.71,4456.32,-1333.55,7.25787,20.9952,198.147,-545.468,-9593.09,-2562.18,-15.4102,-24.1358,47.7806,-4723.45,5651.92,3354.7,9.86674,99.8522,106.99,520.998,-9592.08,-2086.18,-13.6959,-66.7407,50.0926,8730.15,-1750.31,1186.51,-2.5759,14.7378,40.1643
4.7545,2468.52,-2484.26,5141.96,-74.0057,330.705,35.9777,4734.43,2457.15,7963.6,-13.0696,-0.445294,7.12941,1703.87,4467.71,-1399.97,7.69432,22.0114,198.937,-575.906,-9588.18,-2583.87,-15.2701,-23.7803,47.9128,-4681.74,5598.48,3335.04,10.3734,101.097,106.532,563.382,-9598.33,-2120.03,-13.4947,-66.3599,50.2038,8709.26,-1771.94,1175.05,-2.13556,14.7998,40.1923
4.755,2396.05,-2538.81,5172.46,-74.069,330.737,36.6622,4771.65,2469.48,7937.82,-13.2229,-0.380704,7.09865,1775.03,4479.1,-1466.38,8.13077,23.0276,199.726,-606.343,-9583.27,-2605.57,-15.13,-23.4249,48.0449,-4640.03,5545.04,3315.39,10.8801,102.341,106.074,605.767,-9604.58,-2153.88,-13.2934,-65.979,50.3149,8688.37,-1793.56,1163.59,-1.69521,14.8618,40.2203
4.7555,2323.59,-2593.36,5202.97,-74.1323,330.768,37.3467,4808.88,2481.82,7912.04,-13.3761,-0.316114,7.06789,1846.19,4490.49,-1532.8,8.56722,24.0437,200.515,-636.781,-9578.35,-2627.26,-14.9899,-23.0695,48.177,-4598.32,5491.6,3295.73,11.3868,103.586,105.616,648.151,-9610.83,-2187.73,-13.0922,-65.5982,50.4261,8667.48,-1815.18,1152.14,-1.25487,14.9239,40.2482
4.756,2298.65,-2617.6,5224.21,-74.0505,330.557,38.1244,4808.44,2505.75,7907.34,-13.5031,-0.191105,7.07645,1904.29,4504.22,-1577.94,9.06041,24.977,201.295,-647.242,-9585.67,-2644.33,-14.8287,-22.56,48.296,-4567.64,5468.88,3235.5,12.2005,104.778,105.038,698.567,-9612.99,-2222.99,-12.8659,-64.9817,50.5579,8653.08,-1847.45,1158.65,-0.636349,15.0095,40.1012
4.7565,2279.66,-2638.05,5244.28,-73.9506,330.316,38.9138,4803.28,2531.14,7905.28,-13.6268,-0.0585442,7.08994,1960.75,4518.25,-1620.43,9.5607,25.8999,202.074,-655.205,-9594.52,-2660.83,-14.6648,-22.0313,48.4134,-4538.34,5449.99,3170.19,13.0525,105.963,104.445,749.986,-9614.63,-2258.44,-12.6366,-64.3356,50.6922,8639.49,-1881.05,1167.42,0.00444593,15.0981,39.9323
4.757,2260.66,-2658.5,5264.36,-73.8508,330.075,39.7031,4798.13,2556.52,7903.22,-13.7506,0.0740167,7.10342,2017.21,4532.28,-1662.91,10.061,26.8228,202.853,-663.169,-9603.36,-2677.32,-14.5009,-21.5025,48.5308,-4509.04,5431.11,3104.89,13.9046,107.148,103.852,801.406,-9616.28,-2293.88,-12.4073,-63.6896,50.8265,8625.9,-1914.64,1176.18,0.645241,15.1866,39.7634
4.7575,2241.67,-2678.95,5284.43,-73.7509,329.833,40.4925,4792.98,2581.91,7901.16,-13.8743,0.206578,7.1169,2073.67,4546.31,-1705.4,10.5613,27.7457,203.632,-671.133,-9612.21,-2693.81,-14.337,-20.9738,48.6482,-4479.74,5412.22,3039.58,14.7567,108.334,103.259,852.826,-9617.92,-2329.33,-12.1779,-63.0436,50.9608,8612.31,-1948.24,1184.95,1.28604,15.2752,39.5945
4.758,2222.68,-2699.4,5304.5,-73.651,329.592,41.2819,4787.83,2607.29,7899.1,-13.998,0.339138,7.13039,2130.13,4560.33,-1747.88,11.0616,28.6686,204.411,-679.096,-9621.06,-2710.3,-14.1731,-20.445,48.7656,-4450.44,5393.34,2974.28,15.6088,109.519,102.666,904.245,-9619.57,-2364.77,-11.9486,-62.3976,51.0951,8598.72,-1981.83,1193.71,1.92683,15.3638,39.4256
4.7585,2203.68,-2719.85,5324.58,-73.5511,329.351,42.0713,4782.68,2632.68,7897.05,-14.1217,0.471699,7.14387,2186.59,4574.36,-1790.36,11.5618,29.5915,205.19,-687.06,-9629.91,-2726.79,-14.0092,-19.9163,48.883,-4421.14,5374.45,2908.97,16.4609,110.705,102.073,955.665,-9621.21,-2400.22,-11.7192,-61.7516,51.2294,8585.13,-2015.43,1202.47,2.56763,15.4524,39.2567
4.759,2184.69,-2740.3,5344.65,-73.4512,329.109,42.8606,4777.53,2658.06,7894.99,-14.2454,0.60426,7.15735,2243.05,4588.39,-1832.85,12.0621,30.5144,205.968,-695.024,-9638.75,-2743.28,-13.8453,-19.3875,49.0004,-4391.84,5355.57,2843.67,17.313,111.89,101.48,1007.08,-9622.86,-2435.66,-11.4899,-61.1055,51.3637,8571.54,-2049.03,1211.24,3.20842,15.5409,39.0878
4.7595,2165.69,-2760.75,5364.73,-73.3513,328.868,43.65,4772.38,2683.45,7892.93,-14.3692,0.736821,7.17084,2299.51,4602.42,-1875.33,12.5624,31.4373,206.747,-702.987,-9647.6,-2759.78,-13.6814,-18.8588,49.1177,-4362.54,5336.68,2778.36,18.165,113.076,100.887,1058.5,-9624.5,-2471.11,-11.2605,-60.4595,51.498,8557.96,-2082.62,1220.0,3.84921,15.6295,38.9189
4.76,2146.7,-2781.2,5384.8,-73.2514,328.627,44.4394,4767.23,2708.83,7890.87,-14.4929,0.869382,7.18432,2355.97,4616.44,-1917.81,13.0627,32.3602,207.526,-710.951,-9656.45,-2776.27,-13.5175,-18.33,49.2351,-4333.24,5317.8,2713.06,19.0171,114.261,100.293,1109.92,-9626.15,-2506.55,-11.0312,-59.8135,51.6323,8544.37,-2116.22,1228.77,4.49001,15.7181,38.75
4.7605,2169.78,-2746.42,5401.92,-73.2936,328.339,45.141,4748.01,2725.04,7901.34,-14.7371,0.950987,7.24937,2386.62,4651.29,-1937.38,13.4994,33.1749,208.284,-693.771,-9655.07,-2794.19,-13.4333,-17.7631,49.3215,-4301.5,5315.97,2622.08,20.1068,115.55,99.8002,1166.23,-9620.27,-2542.38,-10.9122,-59.0038,51.7547,8527.53,-2128.28,1230.05,4.98277,15.926,38.5743
4.761,2192.85,-2711.64,5419.04,-73.3358,328.052,45.8427,4728.8,2741.25,7911.81,-14.9814,1.03259,7.31443,2417.26,4686.14,-1956.94,13.9361,33.9896,209.043,-676.591,-9653.68,-2812.12,-13.3491,-17.1962,49.4079,-4269.77,5314.14,2531.1,21.1966,116.838,99.307,1222.53,-9614.39,-2578.21,-10.7933,-58.1942,51.8771,8510.68,-2140.35,1231.34,5.47552,16.1339,38.3986
4.7615,2215.93,-2676.86,5436.17,-73.378,327.765,46.5443,4709.58,2757.46,7922.28,-15.2256,1.1142,7.37948,2447.9,4720.99,-1976.5,14.3728,34.8044,209.801,-659.411,-9652.3,-2830.04,-13.2649,-16.6292,49.4943,-4238.03,5312.31,2440.13,22.2863,118.127,98.8138,1278.83,-9608.51,-2614.05,-10.6743,-57.3845,51.9994,8493.84,-2152.41,1232.62,5.96828,16.3419,38.2229
4.762,2239.0,-2642.08,5453.29,-73.4201,327.477,47.2459,4690.37,2773.67,7932.75,-15.4699,1.1958,7.44454,2478.55,4755.84,-1996.07,14.8095,35.6191,210.559,-642.231,-9650.92,-2847.96,-13.1807,-16.0623,49.5806,-4206.3,5310.48,2349.15,23.376,119.415,98.3206,1335.13,-9602.64,-2649.88,-10.5554,-56.5748,52.1218,8477.0,-2164.47,1233.91,6.46104,16.5498,38.0471
4.7625,2262.08,-2607.3,5470.41,-73.4623,327.19,47.9475,4671.15,2789.88,7943.22,-15.7141,1.27741,7.50959,2509.19,4790.69,-2015.63,15.2462,36.4338,211.317,-625.052,-9649.53,-2865.89,-13.0964,-15.4954,49.667,-4174.56,5308.66,2258.17,24.4657,120.703,97.8274,1391.43,-9596.76,-2685.71,-10.4364,-55.7651,52.2442,8460.16,-2176.54,1235.2,6.95379,16.7577,37.8714
4.763,2285.16,-2572.52,5487.53,-73.5045,326.903,48.6492,4651.94,2806.09,7953.69,-15.9584,1.35902,7.57465,2539.83,4825.54,-2035.19,15.6829,37.2486,212.075,-607.872,-9648.15,-2883.81,-13.0122,-14.9285,49.7534,-4142.83,5306.83,2167.19,25.5554,121.992,97.3342,1447.73,-9590.88,-2721.54,-10.3175,-54.9554,52.3665,8443.32,-2188.6,1236.48,7.44655,16.9656,37.6957
4.7635,2308.23,-2537.74,5504.65,-73.5467,326.615,49.3508,4632.73,2822.3,7964.16,-16.2026,1.44062,7.6397,2570.48,4860.39,-2054.76,16.1196,38.0633,212.834,-590.692,-9646.77,-2901.74,-12.928,-14.3616,49.8398,-4111.09,5305.0,2076.21,26.6451,123.28,96.841,1504.03,-9585.0,-2757.37,-10.1985,-54.1458,52.4889,8426.47,-2200.66,1237.77,7.93931,17.1735,37.52
4.764,2331.31,-2502.96,5521.77,-73.5888,326.328,50.0524,4613.51,2838.51,7974.63,-16.4469,1.52223,7.70476,2601.12,4895.24,-2074.32,16.5563,38.878,213.592,-573.512,-9645.39,-2919.66,-12.8438,-13.7946,49.9261,-4079.35,5303.17,1985.24,27.7349,124.569,96.3478,1560.33,-9579.12,-2793.2,-10.0795,-53.3361,52.6113,8409.63,-2212.73,1239.05,8.43207,17.3814,37.3442
4.7645,2354.46,-2465.5,5537.55,-73.6617,326.051,50.7476,4595.37,2849.77,7986.27,-16.6847,1.59401,7.77596,2627.46,4932.33,-2093.51,16.9732,39.6918,214.345,-558.114,-9644.76,-2937.81,-12.7646,-13.2328,50.0109,-4050.26,5302.15,1897.28,28.8381,125.867,95.8688,1613.74,-9573.34,-2827.27,-9.97012,-52.5115,52.7271,8393.98,-2219.94,1240.63,8.91345,17.5791,37.159
4.765,2378.25,-2406.58,5542.52,-73.9802,325.853,51.3916,4585.78,2821.39,8007.2,-16.8707,1.58717,7.89632,2619.41,4987.31,-2109.7,17.2314,40.4975,215.057,-556.967,-9650.17,-2957.75,-12.7251,-12.7111,50.0831,-4042.28,5307.53,1833.54,30.0496,127.244,95.5034,1643.98,-9568.34,-2847.25,-9.93683,-51.5679,52.7903,8387.87,-2188.36,1244.57,9.30384,17.6946,36.8977
4.7655,2402.03,-2347.65,5547.5,-74.2986,325.656,52.0355,4576.19,2793.0,8028.14,-17.0567,1.58033,8.01667,2611.36,5042.29,-2125.89,17.4896,41.3033,215.77,-555.82,-9655.59,-2977.7,-12.6857,-12.1895,50.1553,-4034.31,5312.91,1769.79,31.261,128.62,95.1379,1674.22,-9563.34,-2867.22,-9.90355,-50.6243,52.8535,8381.76,-2156.79,1248.51,9.69424,17.81,36.6365
4.766,2425.82,-2288.72,5552.47,-74.6171,325.458,52.6795,4566.61,2764.62,8049.08,-17.2428,1.5735,8.13704,2603.3,5097.27,-2142.08,17.7478,42.109,216.483,-554.673,-9661.01,-2997.64,-12.6463,-11.6679,50.2275,-4026.33,5318.3,1706.04,32.4725,129.996,94.7725,1704.46,-9558.34,-2887.2,-9.87027,-49.6807,52.9168,8375.65,-2125.21,1252.44,10.0846,17.9255,36.3752
4.7665,2449.6,-2229.8,5557.45,-74.9356,325.261,53.3234,4557.02,2736.23,8070.01,-17.4288,1.56666,8.25739,2595.25,5152.26,-2158.28,18.0061,42.9148,217.195,-553.526,-9666.42,-3017.59,-12.6069,-11.1463,50.2997,-4018.36,5323.68,1642.29,33.684,131.373,94.407,1734.7,-9553.34,-2907.18,-9.83698,-48.7371,52.98,8369.54,-2093.63,1256.38,10.475,18.041,36.1139
4.767,2473.39,-2170.87,5562.43,-75.2541,325.063,53.9674,4547.44,2707.85,8090.95,-17.6148,1.55982,8.37776,2587.19,5207.24,-2174.47,18.2643,43.7205,217.908,-552.38,-9671.84,-3037.53,-12.5675,-10.6247,50.3719,-4010.38,5329.07,1578.54,34.8954,132.749,94.0416,1764.94,-9548.34,-2927.16,-9.8037,-47.7935,53.0432,8363.43,-2062.05,1260.31,10.8654,18.1565,35.8527
4.7675,2497.17,-2111.94,5567.4,-75.5725,324.866,54.6113,4537.85,2679.46,8111.89,-17.8008,1.55299,8.49811,2579.14,5262.22,-2190.66,18.5225,44.5263,218.62,-551.233,-9677.25,-3057.48,-12.528,-10.1031,50.4441,-4002.41,5334.45,1514.8,36.1069,134.125,93.6761,1795.18,-9543.34,-2947.14,-9.77042,-46.8499,53.1064,8357.32,-2030.47,1264.25,11.2558,18.272,35.5914
4.768,2520.96,-2053.02,5572.38,-75.891,324.668,55.2552,4528.26,2651.08,8132.82,-17.9869,1.54615,8.61847,2571.09,5317.21,-2206.85,18.7808,45.332,219.333,-550.086,-9682.67,-3077.42,-12.4886,-9.58151,50.5163,-3994.43,5339.83,1451.05,37.3184,135.502,93.3107,1825.42,-9538.34,-2967.12,-9.73713,-45.9063,53.1697,8351.21,-1998.89,1268.19,11.6462,18.3875,35.3301
4.7685,2544.74,-1994.09,5577.35,-76.2095,324.471,55.8992,4518.68,2622.7,8153.76,-18.1729,1.53931,8.73883,2563.03,5372.19,-2223.04,19.039,46.1378,220.045,-548.939,-9688.08,-3097.37,-12.4492,-9.05991,50.5885,-3986.46,5345.22,1387.3,38.5298,136.878,92.9452,1855.66,-9533.34,-2987.1,-9.70385,-44.9627,53.2329,8345.1,-1967.32,1272.12,12.0366,18.503,35.0688
4.769,2572.11,-1941.38,5587.04,-76.5597,324.265,56.5163,4511.65,2597.43,8167.23,-18.3476,1.53808,8.83149,2545.82,5428.31,-2235.18,19.2852,46.8954,220.764,-552.021,-9693.75,-3111.61,-12.3692,-8.56191,50.6635,-3982.29,5357.96,1329.83,39.7299,138.25,92.641,1878.07,-9525.88,-3004.4,-9.67921,-44.0236,53.2989,8338.04,-1942.73,1273.16,12.4025,18.6216,34.79
4.7695,2612.02,-1910.44,5613.22,-77.0211,324.029,57.0396,4513.58,2583.07,8154.56,-18.4825,1.55647,8.8272,2496.54,5488.39,-2233.11,19.4896,47.4848,221.505,-569.906,-9700.32,-3105.91,-12.1474,-8.14654,50.7483,-3991.46,5396.48,1294.33,40.8898,139.604,92.551,1873.03,-9509.82,-3012.35,-9.68483,-43.1003,53.3748,8327.66,-1942.64,1264.08,12.6827,18.751,34.4495
4.77,2651.92,-1879.5,5639.4,-77.4824,323.794,57.5628,4515.51,2568.71,8141.89,-18.6175,1.57486,8.8229,2447.27,5548.47,-2231.05,19.6939,48.0741,222.246,-587.791,-9706.88,-3100.22,-11.9255,-7.73116,50.833,-4000.63,5435.0,1258.83,42.0498,140.959,92.461,1868.0,-9493.75,-3020.3,-9.69044,-42.177,53.4506,8317.28,-1942.55,1254.99,12.9628,18.8805,34.1091
4.7705,2691.82,-1848.55,5665.59,-77.9438,323.558,58.0861,4517.44,2554.36,8129.22,-18.7524,1.59325,8.81861,2397.99,5608.56,-2228.99,19.8982,48.6634,222.986,-605.676,-9713.44,-3094.52,-11.7037,-7.31579,50.9177,-4009.79,5473.52,1223.33,43.2097,142.313,92.371,1862.97,-9477.68,-3028.24,-9.69606,-41.2538,53.5265,8306.91,-1942.45,1245.91,13.243,19.01,33.7687
4.771,2731.73,-1817.61,5691.77,-78.4052,323.322,58.6093,4519.37,2540.0,8116.56,-18.8874,1.61164,8.81432,2348.72,5668.64,-2226.92,20.1026,49.2528,223.727,-623.561,-9720.0,-3088.82,-11.4818,-6.90041,51.0025,-4018.96,5512.03,1187.83,44.3696,143.668,92.281,1857.94,-9461.62,-3036.19,-9.70168,-40.3305,53.6023,8296.53,-1942.36,1236.82,13.5232,19.1395,33.4282
4.7715,2771.63,-1786.66,5717.95,-78.8665,323.087,59.1325,4521.3,2525.64,8103.89,-19.0223,1.63003,8.81002,2299.44,5728.73,-2224.86,20.3069,49.8421,224.468,-641.446,-9726.56,-3083.12,-11.2599,-6.48504,51.0872,-4028.13,5550.55,1152.33,45.5296,145.023,92.191,1852.9,-9445.55,-3044.14,-9.70729,-39.4072,53.6781,8286.15,-1942.26,1227.73,13.8033,19.2689,33.0878
4.772,2811.54,-1755.72,5744.13,-79.3279,322.851,59.6558,4523.23,2511.28,8091.22,-19.1573,1.64842,8.80573,2250.17,5788.81,-2222.79,20.5112,50.4315,225.208,-659.331,-9733.12,-3077.43,-11.0381,-6.06967,51.1719,-4037.3,5589.07,1116.83,46.6895,146.377,92.101,1847.87,-9429.48,-3052.08,-9.71291,-38.484,53.754,8275.77,-1942.17,1218.65,14.0835,19.3984,32.7473
4.7725,2851.44,-1724.77,5770.31,-79.7892,322.615,60.179,4525.16,2496.92,8078.55,-19.2922,1.66681,8.80144,2200.89,5848.89,-2220.73,20.7156,51.0208,225.949,-677.217,-9739.68,-3071.73,-10.8162,-5.65429,51.2567,-4046.46,5627.58,1081.33,47.8495,147.732,92.0109,1842.84,-9413.42,-3060.03,-9.71852,-37.5607,53.8298,8265.39,-1942.07,1209.56,14.3637,19.5279,32.4069
4.773,2891.35,-1693.83,5796.49,-80.2506,322.38,60.7023,4527.09,2482.57,8065.88,-19.4272,1.6852,8.79714,2151.62,5908.98,-2218.66,20.9199,51.6102,226.69,-695.102,-9746.24,-3066.03,-10.5944,-5.23892,51.3414,-4055.63,5666.1,1045.84,49.0094,149.086,91.9209,1837.8,-9397.35,-3067.98,-9.72414,-36.6374,53.9057,8255.02,-1941.98,1200.47,14.6438,19.6573,32.0665
4.7735,2935.87,-1668.41,5826.23,-80.8018,322.106,61.1952,4536.1,2475.29,8062.07,-19.5436,1.72175,8.84826,2093.82,5970.54,-2209.3,21.088,52.0798,227.453,-715.272,-9750.39,-3060.31,-10.3899,-4.88318,51.4249,-4063.11,5705.07,1013.21,50.0741,150.443,91.9257,1823.78,-9385.78,-3065.02,-9.76229,-35.7876,53.9615,8246.31,-1929.4,1194.16,14.893,19.702,31.7217
4.774,2989.64,-1654.05,5863.09,-81.5328,321.756,61.6273,4559.25,2482.17,8075.97,-19.6232,1.79461,9.01018,2018.99,6035.08,-2185.34,21.1836,52.3099,228.262,-740.014,-9749.72,-3054.53,-10.2203,-4.64669,51.5057,-4067.21,5744.96,986.335,50.9481,151.802,92.12,1791.77,-9383.21,-3040.26,-9.8655,-35.0848,53.9774,8240.96,-1891.87,1193.38,15.0802,19.5771,31.3683
4.7745,3043.41,-1639.69,5899.94,-82.2637,321.407,62.0595,4582.4,2489.05,8089.87,-19.7027,1.86747,9.17211,1944.16,6099.61,-2161.38,21.2793,52.54,229.071,-764.757,-9749.06,-3048.76,-10.0507,-4.41021,51.5866,-4071.31,5784.85,959.459,51.8222,153.162,92.3142,1759.76,-9380.63,-3015.5,-9.96872,-34.382,53.9933,8235.61,-1854.33,1192.61,15.2674,19.4522,31.0149
4.775,3097.18,-1625.33,5936.8,-82.9947,321.057,62.4916,4605.56,2495.93,8103.77,-19.7822,1.94034,9.33403,1869.33,6164.15,-2137.42,21.3749,52.7701,229.88,-789.499,-9748.39,-3042.99,-9.88112,-4.17373,51.6675,-4075.4,5824.74,932.583,52.6963,154.521,92.5085,1727.75,-9378.06,-2990.73,-10.0719,-33.6791,54.0092,8230.26,-1816.79,1191.83,15.4546,19.3272,30.6615
4.7755,3150.94,-1610.96,5973.65,-83.7256,320.707,62.9238,4628.71,2502.81,8117.67,-19.8617,2.0132,9.49596,1794.5,6228.68,-2113.46,21.4706,53.0002,230.689,-814.241,-9747.72,-3037.21,-9.71152,-3.93724,51.7484,-4079.5,5864.63,905.707,53.5703,155.881,92.7028,1695.74,-9375.48,-2965.97,-10.1751,-32.9763,54.0251,8224.91,-1779.25,1191.06,15.6418,19.2023,30.3081
4.776,3204.71,-1596.6,6010.51,-84.4566,320.357,63.3559,4651.86,2509.69,8131.57,-19.9412,2.08606,9.65789,1719.68,6293.21,-2089.5,21.5662,53.2304,231.498,-838.983,-9747.05,-3031.44,-9.54192,-3.70076,51.8293,-4083.6,5904.52,878.832,54.4444,157.241,92.897,1663.72,-9372.9,-2941.21,-10.2784,-32.2734,54.041,8219.56,-1741.72,1190.28,15.829,19.0774,29.9547
4.7765,3258.48,-1582.24,6047.37,-85.1875,320.008,63.7881,4675.01,2516.56,8145.48,-20.0208,2.15892,9.81981,1644.85,6357.75,-2065.54,21.6618,53.4605,232.307,-863.725,-9746.38,-3025.67,-9.37232,-3.46428,51.9101,-4087.7,5944.41,851.956,55.3185,158.6,93.0913,1631.71,-9370.33,-2916.44,-10.3816,-31.5706,54.0569,8214.21,-1704.18,1189.51,16.0162,18.9524,29.6013
4.777,3312.24,-1567.88,6084.22,-85.9184,319.658,64.2202,4698.17,2523.44,8159.38,-20.1003,2.23179,9.98174,1570.02,6422.28,-2041.58,21.7575,53.6906,233.115,-888.467,-9745.71,-3019.89,-9.20271,-3.2278,51.991,-4091.8,5984.3,825.08,56.1925,159.96,93.2856,1599.7,-9367.75,-2891.68,-10.4848,-30.8678,54.0728,8208.86,-1666.64,1188.73,16.2034,18.8275,29.2479
4.7775,3366.01,-1553.51,6121.08,-86.6494,319.308,64.6524,4721.32,2530.32,8173.28,-20.1798,2.30465,10.1437,1495.19,6486.81,-2017.62,21.8531,53.9207,233.924,-913.21,-9745.04,-3014.12,-9.03311,-2.99131,52.0719,-4095.9,6024.19,798.204,57.0666,161.319,93.4798,1567.69,-9365.18,-2866.92,-10.588,-30.1649,54.0887,8203.51,-1629.1,1187.95,16.3906,18.7026,28.8945
4.778,3416.4,-1539.55,6154.59,-87.3684,318.979,65.0407,4737.95,2533.41,8176.32,-20.2695,2.37607,10.2755,1428.64,6547.12,-1995.69,21.9394,54.0515,234.782,-949.82,-9745.87,-3004.94,-8.88601,-2.82745,52.1464,-4105.19,6062.27,785.143,57.6164,162.835,93.8189,1532.7,-9359.24,-2848.3,-10.7026,-29.575,54.1317,8197.23,-1602.33,1189.11,16.4853,18.5713,28.4975
4.7785,3462.57,-1526.08,6183.91,-88.0725,318.676,65.3741,4746.42,2531.77,8165.78,-20.372,2.44569,10.3698,1372.44,6602.15,-1976.29,22.014,54.058,235.699,-1001.26,-9748.55,-2991.49,-8.76704,-2.75438,52.213,-4120.98,6098.09,789.351,57.7608,164.547,94.339,1493.99,-9349.1,-2837.35,-10.8315,-29.1262,54.2087,8189.78,-1589.01,1192.68,16.4644,18.4321,28.0462
4.779,3508.74,-1512.61,6213.23,-88.7767,318.373,65.7075,4754.89,2530.12,8155.24,-20.4745,2.51531,10.4641,1316.24,6657.17,-1956.9,22.0885,54.0646,236.617,-1052.71,-9751.24,-2978.04,-8.64806,-2.6813,52.2796,-4136.77,6133.9,793.559,57.9053,166.259,94.859,1455.27,-9338.97,-2826.41,-10.9604,-28.6775,54.2856,8182.33,-1575.68,1196.24,16.4435,18.2928,27.5949
4.7795,3554.91,-1499.14,6242.55,-89.4808,318.07,66.041,4763.36,2528.48,8144.7,-20.577,2.58493,10.5584,1260.04,6712.2,-1937.5,22.163,54.0712,237.535,-1104.15,-9753.92,-2964.6,-8.52909,-2.60822,52.3463,-4152.57,6169.72,797.766,58.0497,167.971,95.3791,1416.56,-9328.83,-2815.46,-11.0893,-28.2287,54.3625,8174.88,-1562.36,1199.81,16.4226,18.1536,27.1435
4.78,3601.07,-1485.67,6271.87,-90.1849,317.767,66.3744,4771.84,2526.83,8134.16,-20.6795,2.65455,10.6527,1203.84,6767.22,-1918.11,22.2376,54.0778,238.453,-1155.6,-9756.61,-2951.15,-8.41012,-2.53515,52.4129,-4168.36,6205.54,801.974,58.1942,169.683,95.8992,1377.85,-9318.69,-2804.51,-11.2181,-27.7799,54.4394,8167.43,-1549.04,1203.38,16.4017,18.0143,26.6922
4.7805,3647.24,-1472.2,6301.19,-90.889,317.464,66.7078,4780.31,2525.19,8123.62,-20.7819,2.72417,10.747,1147.64,6822.25,-1898.71,22.3121,54.0844,239.371,-1207.04,-9759.3,-2937.7,-8.29114,-2.46207,52.4795,-4184.15,6241.35,806.182,58.3387,171.395,96.4192,1339.13,-9308.55,-2793.57,-11.347,-27.3312,54.5164,8159.98,-1535.72,1206.95,16.3808,17.8751,26.2408
4.781,3693.41,-1458.73,6330.51,-91.5932,317.161,67.0412,4788.78,2523.54,8113.08,-20.8844,2.79379,10.8413,1091.45,6877.27,-1879.32,22.3867,54.091,240.288,-1258.49,-9761.98,-2924.25,-8.17217,-2.38899,52.5461,-4199.94,6277.17,810.389,58.4831,173.107,96.9393,1300.42,-9298.41,-2782.62,-11.4759,-26.8824,54.5933,8152.53,-1522.39,1210.51,16.3599,17.7359,25.7895
4.7815,3739.58,-1445.26,6359.83,-92.2973,316.857,67.3747,4797.25,2521.89,8102.54,-20.9869,2.86341,10.9356,1035.25,6932.3,-1859.92,22.4612,54.0975,241.206,-1309.93,-9764.67,-2910.81,-8.05319,-2.31592,52.6127,-4215.73,6312.99,814.597,58.6276,174.818,97.4594,1261.7,-9288.27,-2771.68,-11.6048,-26.4337,54.6702,8145.08,-1509.07,1214.08,16.339,17.5966,25.3381
4.782,3785.75,-1431.79,6389.15,-93.0014,316.554,67.7081,4805.72,2520.25,8092.0,-21.0894,2.93303,11.0299,979.048,6987.32,-1840.52,22.5358,54.1041,242.124,-1361.38,-9767.35,-2897.36,-7.93422,-2.24284,52.6793,-4231.52,6348.8,818.805,58.772,176.53,97.9794,1222.99,-9278.13,-2760.73,-11.7336,-25.9849,54.7472,8137.64,-1495.75,1217.65,16.3181,17.4574,24.8868
4.7825,3825.88,-1434.19,6428.73,-93.5462,316.302,68.0291,4817.19,2516.57,8089.93,-21.2,3.05773,11.1108,921.068,7030.88,-1824.87,22.6138,54.0146,243.136,-1405.51,-9768.21,-2884.64,-7.80638,-2.1791,52.6819,-4249.91,6386.57,863.171,58.7405,177.656,98.71,1175.55,-9276.92,-2752.8,-11.8775,-25.6244,54.8317,8123.21,-1471.45,1218.2,16.2822,17.2235,24.4682
4.783,3861.19,-1449.29,6476.51,-93.9637,316.089,68.3401,4831.04,2511.28,8094.63,-21.3172,3.22651,11.1809,861.662,7065.26,-1812.2,22.6945,53.8482,244.223,-1443.81,-9767.59,-2872.49,-7.67145,-2.12283,52.6332,-4270.37,6425.89,939.664,58.5681,178.311,99.6089,1121.14,-9282.84,-2747.29,-12.0334,-25.3346,54.9224,8103.22,-1438.36,1216.34,16.2344,16.9139,24.0759
4.7835,3896.51,-1464.39,6524.29,-94.3811,315.877,68.6511,4844.9,2505.98,8099.33,-21.4343,3.39528,11.2511,802.257,7099.64,-1799.54,22.7752,53.6818,245.31,-1482.1,-9766.97,-2860.34,-7.53652,-2.06657,52.5845,-4290.83,6465.21,1016.16,58.3957,178.967,100.508,1066.73,-9288.76,-2741.77,-12.1892,-25.0447,55.013,8083.22,-1405.27,1214.49,16.1865,16.6043,23.6836
4.784,3931.82,-1479.5,6572.08,-94.7985,315.665,68.9622,4858.76,2500.68,8104.03,-21.5515,3.56405,11.3212,742.851,7134.02,-1786.87,22.8559,53.5154,246.397,-1520.39,-9766.36,-2848.19,-7.4016,-2.0103,52.5358,-4311.3,6504.53,1092.65,58.2233,179.623,101.407,1012.32,-9294.69,-2736.25,-12.3451,-24.7549,55.1037,8063.22,-1372.18,1212.63,16.1387,16.2947,23.2913
4.7845,3967.13,-1494.6,6619.86,-95.216,315.452,69.2732,4872.61,2495.38,8108.73,-21.6687,3.73283,11.3914,683.446,7168.4,-1774.2,22.9366,53.349,247.484,-1558.68,-9765.75,-2836.04,-7.26667,-1.95403,52.4871,-4331.76,6543.85,1169.14,58.051,180.279,102.306,957.903,-9300.61,-2730.73,-12.5009,-24.4651,55.1943,8043.23,-1339.09,1210.77,16.0909,15.9851,22.8989
4.785,4002.44,-1509.7,6667.64,-95.6334,315.24,69.5842,4886.47,2490.09,8113.43,-21.7858,3.9016,11.4615,624.04,7202.78,-1761.54,23.0173,53.1826,248.571,-1596.97,-9765.13,-2823.89,-7.13174,-1.89777,52.4384,-4352.22,6583.18,1245.64,57.8786,180.935,103.205,903.491,-9306.54,-2725.21,-12.6568,-24.1752,55.285,8023.23,-1306.0,1208.91,16.043,15.6755,22.5066
4.7855,4037.75,-1524.81,6715.43,-96.0508,315.027,69.8952,4900.33,2484.79,8118.13,-21.903,4.07038,11.5317,564.635,7237.16,-1748.87,23.098,53.0162,249.658,-1635.26,-9764.51,-2811.75,-6.99681,-1.8415,52.3896,-4372.68,6622.5,1322.13,57.7062,181.591,104.103,849.078,-9312.46,-2719.69,-12.8126,-23.8854,55.3757,8003.23,-1272.92,1207.05,15.9952,15.3659,22.1143
4.786,4073.06,-1539.91,6763.21,-96.4683,314.815,70.2063,4914.18,2479.49,8122.83,-22.0202,4.23915,11.6018,505.229,7271.54,-1736.2,23.1787,52.8498,250.745,-1673.55,-9763.9,-2799.6,-6.86188,-1.78523,52.3409,-4393.14,6661.82,1398.62,57.5338,182.247,105.002,794.665,-9318.38,-2714.18,-12.9685,-23.5956,55.4663,7983.24,-1239.83,1205.19,15.9474,15.0563,21.722
4.7865,4108.37,-1555.01,6810.99,-96.8857,314.603,70.5173,4928.04,2474.19,8127.53,-22.1373,4.40792,11.6719,445.824,7305.93,-1723.54,23.2594,52.6834,251.832,-1711.84,-9763.29,-2787.45,-6.72695,-1.72897,52.2922,-4413.61,6701.14,1475.12,57.3615,182.903,105.901,740.253,-9324.31,-2708.66,-13.1243,-23.3057,55.557,7963.24,-1206.74,1203.33,15.8995,14.7467,21.3296
4.787,4153.21,-1578.85,6872.24,-97.212,314.371,70.7693,4924.56,2465.3,8133.07,-22.0853,4.44125,11.7638,403.628,7320.21,-1713.11,23.3849,52.4251,252.986,-1734.92,-9765.04,-2776.44,-6.59956,-1.71184,52.2455,-4440.42,6708.67,1512.87,57.4806,182.855,106.844,689.765,-9330.46,-2692.82,-13.3152,-23.0273,55.6358,7949.04,-1180.83,1190.83,15.9309,14.4218,20.9841
4.7875,4202.81,-1607.05,6940.23,-97.4926,314.13,70.9917,4912.42,2454.61,8139.03,-21.9486,4.40684,11.8666,370.038,7324.45,-1703.81,23.5327,52.1208,254.174,-1750.39,-9767.98,-2766.01,-6.47595,-1.71428,52.1996,-4470.4,6700.3,1531.25,57.7455,182.456,107.809,641.241,-9336.73,-2671.82,-13.5237,-22.7546,55.7088,7937.73,-1158.52,1173.01,16.0019,14.0893,20.6619
4.788,4252.42,-1635.25,7008.21,-97.7733,313.888,71.2142,4900.29,2443.92,8144.99,-21.8119,4.37244,11.9693,336.447,7328.68,-1694.51,23.6805,51.8165,255.361,-1765.86,-9770.91,-2755.57,-6.35234,-1.71672,52.1538,-4500.38,6691.92,1549.63,58.0104,182.057,108.773,592.716,-9343.0,-2650.82,-13.7322,-22.4818,55.7817,7926.42,-1136.2,1155.19,16.073,13.7568,20.3397
4.7885,4302.02,-1663.46,7076.2,-98.0539,313.647,71.4366,4888.15,2433.23,8150.96,-21.6752,4.33804,12.072,302.857,7332.92,-1685.2,23.8283,51.5122,256.549,-1781.33,-9773.85,-2745.14,-6.22873,-1.71916,52.108,-4530.36,6683.55,1568.01,58.2753,181.658,109.738,544.191,-9349.26,-2629.83,-13.9407,-22.2091,55.8547,7915.11,-1113.89,1137.37,16.144,13.4243,20.0176
4.789,4351.62,-1691.66,7144.19,-98.3346,313.406,71.6591,4876.01,2422.54,8156.92,-21.5385,4.30363,12.1748,269.266,7337.16,-1675.9,23.9761,51.2079,257.737,-1796.81,-9776.79,-2734.71,-6.10511,-1.72161,52.0622,-4560.34,6675.18,1586.4,58.5402,181.258,110.702,495.667,-9355.53,-2608.83,-14.1491,-21.9364,55.9277,7903.8,-1091.57,1119.55,16.215,13.0918,19.6954
4.7895,4401.22,-1719.86,7212.17,-98.6152,313.164,71.8816,4863.87,2411.85,8162.88,-21.4018,4.26923,12.2775,235.676,7341.4,-1666.6,24.1239,50.9037,258.925,-1812.28,-9779.73,-2724.27,-5.9815,-1.72405,52.0164,-4590.33,6666.81,1604.78,58.8051,180.859,111.667,447.142,-9361.8,-2587.83,-14.3576,-21.6636,56.0006,7892.49,-1069.25,1101.73,16.286,12.7592,19.3732
4.79,4450.82,-1748.07,7280.16,-98.8959,312.923,72.104,4851.73,2401.16,8168.84,-21.2652,4.23483,12.3803,202.085,7345.63,-1657.29,24.2717,50.5994,260.112,-1827.75,-9782.66,-2713.84,-5.85789,-1.72649,51.9706,-4620.31,6658.44,1623.16,59.07,180.46,112.631,398.617,-9368.07,-2566.83,-14.5661,-21.3909,56.0736,7881.19,-1046.94,1083.91,16.3571,12.4267,19.051
4.7905,4500.42,-1776.27,7348.14,-99.1765,312.681,72.3265,4839.59,2390.47,8174.8,-21.1285,4.20043,12.483,168.495,7349.87,-1647.99,24.4195,50.2951,261.3,-1843.23,-9785.6,-2703.4,-5.73428,-1.72893,51.9248,-4650.29,6650.06,1641.54,59.3349,180.06,113.596,350.093,-9374.33,-2545.83,-14.7745,-21.1181,56.1465,7869.88,-1024.62,1066.09,16.4281,12.0942,18.7288
4.791,4550.03,-1804.47,7416.13,-99.4572,312.44,72.549,4827.45,2379.78,8180.76,-20.9918,4.16602,12.5858,134.904,7354.11,-1638.69,24.5673,49.9908,262.488,-1858.7,-9788.54,-2692.97,-5.61067,-1.73137,51.8789,-4680.27,6641.69,1659.92,59.5998,179.661,114.56,301.568,-9380.6,-2524.84,-14.983,-20.8454,56.2195,7858.57,-1002.31,1048.27,16.4991,11.7617,18.4067
4.7915,4614.74,-1825.62,7462.55,-99.6214,312.34,72.7991,4839.77,2374.31,8173.12,-20.8903,4.21015,12.6211,131.791,7351.55,-1647.45,24.7891,49.7392,263.557,-1874.77,-9791.93,-2681.85,-5.44721,-2.1132,51.7981,-4724.93,6620.04,1617.15,59.8517,178.902,115.332,250.836,-9391.11,-2509.61,-15.1611,-20.6593,56.3309,7863.99,-990.247,1039.75,16.6526,11.3608,18.0711
4.792,4683.78,-1844.75,7502.82,-99.7523,312.28,73.0571,4859.07,2370.34,8161.6,-20.7989,4.27671,12.6371,137.386,7347.06,-1661.38,25.0322,49.5027,264.593,-1891.02,-9795.44,-2670.54,-5.27238,-2.60342,51.7072,-4773.78,6594.59,1556.9,60.0999,178.041,116.049,199.473,-9402.82,-2496.04,-15.3305,-20.4979,56.4534,7874.19,-981.119,1033.89,16.8298,10.9403,17.7317
4.7925,4752.82,-1863.89,7543.08,-99.8831,312.22,73.3152,4878.37,2366.36,8150.08,-20.7075,4.34327,12.6532,142.981,7342.57,-1675.3,25.2752,49.2661,265.628,-1907.26,-9798.96,-2659.23,-5.09755,-3.09364,51.6164,-4822.63,6569.14,1496.66,60.348,177.179,116.765,148.11,-9414.54,-2482.47,-15.4998,-20.3365,56.5758,7884.39,-971.991,1028.03,17.0069,10.5199,17.3923
4.793,4821.85,-1883.02,7583.35,-100.014,312.16,73.5732,4897.67,2362.38,8138.56,-20.6161,4.40983,12.6692,148.576,7338.08,-1689.23,25.5183,49.0296,266.664,-1923.5,-9802.48,-2647.92,-4.92271,-3.58386,51.5255,-4871.48,6543.69,1436.41,60.5962,176.318,117.482,96.7476,-9426.25,-2468.89,-15.6692,-20.1751,56.6983,7894.59,-962.862,1022.17,17.184,10.0994,17.0529
4.7935,4890.89,-1902.15,7623.61,-100.145,312.1,73.8312,4916.97,2358.4,8127.04,-20.5247,4.47639,12.6853,154.17,7333.58,-1703.15,25.7614,48.7931,267.7,-1939.75,-9805.99,-2636.61,-4.74788,-4.07408,51.4347,-4920.33,6518.23,1376.16,60.8444,175.456,118.198,45.3849,-9437.97,-2455.32,-15.8386,-20.0136,56.8208,7904.79,-953.734,1016.31,17.3612,9.67895,16.7136
4.794,4959.93,-1921.29,7663.88,-100.276,312.04,74.0893,4936.27,2354.43,8115.52,-20.4333,4.54295,12.7013,159.765,7329.09,-1717.08,26.0044,48.5565,268.735,-1955.99,-9809.51,-2625.29,-4.57305,-4.5643,51.3438,-4969.17,6492.78,1315.92,61.0926,174.595,118.915,-5.97786,-9449.68,-2441.75,-16.008,-19.8522,56.9432,7914.99,-944.606,1010.45,17.5383,9.25849,16.3742
4.7945,5028.97,-1940.42,7704.15,-100.407,311.98,74.3473,4955.58,2350.45,8104.0,-20.3419,4.60951,12.7174,165.36,7324.6,-1731.01,26.2475,48.32,269.771,-1972.24,-9813.03,-2613.98,-4.39821,-5.05452,51.253,-5018.02,6467.33,1255.67,61.3408,173.733,119.631,-57.3406,-9461.4,-2428.17,-16.1774,-19.6908,57.0657,7925.19,-935.478,1004.59,17.7154,8.83803,16.0348
4.795,5098.0,-1959.55,7744.41,-100.538,311.92,74.6054,4974.88,2346.47,8092.48,-20.2506,4.67607,12.7334,170.955,7320.1,-1744.93,26.4905,48.0835,270.807,-1988.48,-9816.54,-2602.67,-4.22338,-5.54474,51.1621,-5066.87,6441.88,1195.43,61.589,172.871,120.348,-108.703,-9473.11,-2414.6,-16.3467,-19.5294,57.1881,7935.39,-926.35,998.725,17.8925,8.41758,15.6954
4.7955,5167.04,-1978.69,7784.68,-100.669,311.86,74.8634,4994.18,2342.5,8080.96,-20.1592,4.74263,12.7495,176.549,7315.61,-1758.86,26.7336,47.847,271.842,-2004.72,-9820.06,-2591.36,-4.04854,-6.03496,51.0713,-5115.72,6416.43,1135.18,61.8371,172.01,121.064,-160.066,-9484.82,-2401.03,-16.5161,-19.368,57.3106,7945.59,-917.222,992.865,18.0697,7.99712,15.356
4.796,5240.85,-1991.44,7822.28,-100.656,311.975,75.1014,5012.3,2338.67,8093.31,-20.3539,4.73279,12.7939,174.883,7326.87,-1770.92,27.122,47.8021,272.8,-2027.74,-9822.98,-2551.92,-3.97809,-5.94427,50.9221,-5171.01,6398.43,1103.24,61.6103,170.886,121.38,-216.65,-9497.23,-2393.8,-16.6708,-19.3059,57.3855,7952.61,-913.202,973.155,18.2618,7.58619,15.0946
4.7965,5315.25,-2003.4,7859.56,-100.625,312.112,75.3369,5030.27,2334.87,8108.65,-20.5843,4.71341,12.8418,172.309,7340.1,-1782.75,27.5287,47.7812,273.748,-2051.59,-9825.83,-2508.97,-3.92069,-5.78098,50.7657,-5227.1,6381.35,1074.83,61.3242,169.73,121.645,-273.886,-9509.71,-2387.36,-16.8237,-19.2561,57.4545,7959.24,-909.82,951.714,18.4558,7.17646,14.8428
4.797,5389.65,-2015.36,7896.83,-100.595,312.248,75.5724,5048.24,2331.06,8123.98,-20.8148,4.69402,12.8898,169.736,7353.33,-1794.58,27.9353,47.7603,274.696,-2075.45,-9828.67,-2466.02,-3.86328,-5.61768,50.6092,-5283.19,6364.28,1046.43,61.038,168.574,121.91,-331.123,-9522.2,-2380.92,-16.9766,-19.2064,57.5236,7965.86,-906.439,930.273,18.6498,6.76673,14.5911
4.7975,5464.06,-2027.32,7934.1,-100.564,312.385,75.8079,5066.21,2327.26,8139.31,-21.0452,4.67464,12.9377,167.162,7366.56,-1806.41,28.3419,47.7394,275.643,-2099.31,-9831.52,-2423.07,-3.80588,-5.45439,50.4527,-5339.28,6347.2,1018.03,60.7518,167.417,122.175,-388.359,-9534.69,-2374.49,-17.1294,-19.1567,57.5926,7972.49,-903.057,908.832,18.8439,6.357,14.3394
4.798,5538.46,-2039.28,7971.38,-100.534,312.522,76.0434,5084.18,2323.45,8154.65,-21.2757,4.65525,12.9857,164.588,7379.79,-1818.24,28.7486,47.7185,276.591,-2123.17,-9834.37,-2380.12,-3.74847,-5.29109,50.2963,-5395.37,6330.13,989.623,60.4656,166.261,122.44,-445.596,-9547.18,-2368.05,-17.2823,-19.1069,57.6616,7979.12,-899.675,887.392,19.0379,5.94726,14.0877
4.7985,5612.86,-2051.24,8008.65,-100.503,312.659,76.2789,5102.15,2319.65,8169.98,-21.5062,4.63587,13.0336,162.014,7393.03,-1830.07,29.1552,47.6976,277.539,-2147.02,-9837.21,-2337.17,-3.69107,-5.1278,50.1398,-5451.46,6313.05,961.22,60.1794,165.104,122.705,-502.832,-9559.67,-2361.61,-17.4352,-19.0572,57.7306,7985.74,-896.294,865.951,19.2319,5.53753,13.836
4.799,5687.27,-2063.2,8045.93,-100.473,312.796,76.5144,5120.12,2315.84,8185.31,-21.7366,4.61648,13.0816,159.441,7406.26,-1841.9,29.5618,47.6767,278.487,-2170.88,-9840.06,-2294.21,-3.63366,-4.9645,49.9834,-5507.54,6295.97,932.816,59.8933,163.948,122.971,-560.069,-9572.16,-2355.18,-17.588,-19.0074,57.7996,7992.37,-892.912,844.51,19.4259,5.1278,13.5843
4.7995,5761.67,-2075.16,8083.2,-100.442,312.933,76.7499,5138.09,2312.04,8200.65,-21.9671,4.5971,13.1295,156.867,7419.49,-1853.73,29.9684,47.6558,279.435,-2194.74,-9842.91,-2251.26,-3.57626,-4.80121,49.8269,-5563.63,6278.9,904.413,59.6071,162.792,123.236,-617.305,-9584.64,-2348.74,-17.7409,-18.9577,57.8687,7998.99,-889.531,823.069,19.62,4.71806,13.3325
4.8,5836.07,-2087.12,8120.48,-100.411,313.07,76.9854,5156.06,2308.23,8215.98,-22.1975,4.57771,13.1775,154.293,7432.72,-1865.56,30.3751,47.6349,280.383,-2218.6,-9845.75,-2208.31,-3.51885,-4.63791,49.6705,-5619.72,6261.82,876.009,59.3209,161.635,123.501,-674.542,-9597.13,-2342.3,-17.8938,-18.9079,57.9377,8005.62,-886.149,801.628,19.814,4.30833,13.0808
4.8005,5906.95,-2071.15,8155.68,-100.397,313.279,77.3566,5093.2,2277.5,8224.74,-22.2059,4.64605,13.2395,161.51,7477.26,-1874.32,30.8529,47.8134,281.298,-2205.74,-9852.17,-2194.62,-3.51427,-4.86391,49.7132,-5663.55,6263.07,879.81,58.6586,160.291,123.365,-711.873,-9613.84,-2335.14,-17.8882,-19.1151,58.0027,8018.62,-861.87,785.235,19.7472,4.11866,12.9684
4.801,5977.83,-2055.18,8190.88,-100.382,313.487,77.7278,5030.34,2246.77,8233.51,-22.2143,4.71438,13.3016,168.727,7521.8,-1883.08,31.3308,47.9918,282.213,-2192.87,-9858.59,-2180.93,-3.50969,-5.08991,49.756,-5707.37,6264.32,883.611,57.9963,158.946,123.229,-749.205,-9630.56,-2327.97,-17.8826,-19.3223,58.0678,8031.62,-837.591,768.841,19.6804,3.92898,12.856
4.8015,6048.7,-2039.22,8226.08,-100.367,313.696,78.099,4967.48,2216.04,8242.27,-22.2226,4.78271,13.3636,175.943,7566.34,-1891.84,31.8086,48.1703,283.128,-2180.01,-9865.01,-2167.24,-3.50511,-5.31592,49.7988,-5751.2,6265.57,887.412,57.334,157.601,123.094,-786.537,-9647.27,-2320.8,-17.877,-19.5295,58.1328,8044.62,-813.312,752.447,19.6136,3.73931,12.7436
4.802,6119.58,-2023.25,8261.29,-100.352,313.905,78.4702,4904.62,2185.32,8251.03,-22.231,4.85104,13.4257,183.16,7610.88,-1900.6,32.2865,48.3487,284.043,-2167.15,-9871.43,-2153.56,-3.50053,-5.54192,49.8415,-5795.02,6266.82,891.213,56.6717,156.257,122.958,-823.868,-9663.98,-2313.63,-17.8713,-19.7367,58.1978,8057.62,-789.033,736.054,19.5468,3.54963,12.6311
4.8025,6190.46,-2007.28,8296.49,-100.337,314.113,78.8414,4841.77,2154.59,8259.8,-22.2393,4.91937,13.4878,190.377,7655.43,-1909.36,32.7643,48.5272,284.959,-2154.29,-9877.86,-2139.87,-3.49595,-5.76792,49.8843,-5838.85,6268.07,895.014,56.0094,154.912,122.823,-861.2,-9680.69,-2306.46,-17.8657,-19.9439,58.2629,8070.62,-764.754,719.66,19.48,3.35996,12.5187
4.803,6261.33,-1991.31,8331.69,-100.322,314.322,79.2126,4778.9,2123.86,8268.56,-22.2477,4.98771,13.5498,197.594,7699.97,-1918.12,33.2422,48.7056,285.874,-2141.43,-9884.28,-2126.18,-3.49137,-5.99392,49.927,-5882.67,6269.32,898.816,55.3471,153.567,122.687,-898.531,-9697.41,-2299.3,-17.8601,-20.151,58.3279,8083.62,-740.475,703.266,19.4132,3.17028,12.4063
4.8035,6332.21,-1975.35,8366.89,-100.307,314.531,79.5837,4716.05,2093.13,8277.32,-22.2561,5.05604,13.6119,204.81,7744.51,-1926.87,33.72,48.884,286.789,-2128.56,-9890.7,-2112.49,-3.48679,-6.21992,49.9698,-5926.5,6270.57,902.617,54.6848,152.223,122.551,-935.863,-9714.12,-2292.13,-17.8545,-20.3582,58.3929,8096.62,-716.196,686.873,19.3465,2.98061,12.2939
4.804,6403.09,-1959.38,8402.1,-100.292,314.74,79.9549,4653.19,2062.4,8286.09,-22.2644,5.12437,13.6739,212.027,7789.05,-1935.63,34.1979,49.0625,287.704,-2115.7,-9897.12,-2098.8,-3.48221,-6.44593,50.0126,-5970.32,6271.82,906.418,54.0225,150.878,122.416,-973.194,-9730.83,-2284.96,-17.8489,-20.5654,58.458,8109.62,-691.917,670.479,19.2797,2.79093,12.1814
4.8045,6474.06,-1943.04,8436.5,-100.282,314.95,80.3361,4599.64,2035.17,8295.78,-22.2696,5.17653,13.7268,219.873,7835.31,-1943.97,34.672,49.2677,288.604,-2102.9,-9902.37,-2087.41,-3.47549,-6.68934,50.044,-6013.13,6273.46,911.247,53.3201,149.54,122.236,-1009.31,-9748.61,-2278.32,-17.8361,-20.7889,58.5303,8121.99,-669.527,653.943,19.201,2.59318,12.0732
4.805,6545.84,-1923.77,8464.52,-100.31,315.172,80.7966,4620.63,2035.94,8312.89,-22.2489,5.09932,13.7067,232.748,7895.28,-1948.9,35.1165,49.6867,289.379,-2090.6,-9898.25,-2094.42,-3.45162,-7.07201,49.9845,-6047.8,6278.22,924.298,52.2967,148.25,121.707,-1035.71,-9774.87,-2275.91,-17.7652,-21.1431,58.6608,8129.37,-662.248,636.265,19.027,2.33082,11.9982
4.8055,6617.61,-1904.49,8492.54,-100.338,315.394,81.2571,4641.62,2036.71,8330.0,-22.2282,5.02212,13.6865,245.623,7955.25,-1953.82,35.561,50.1058,290.155,-2078.3,-9894.13,-2101.43,-3.42776,-7.45468,49.925,-6082.47,6282.98,937.348,51.2734,146.96,121.178,-1062.11,-9801.14,-2273.5,-17.6944,-21.4974,58.7913,8136.75,-654.969,618.587,18.853,2.06847,11.9232
4.806,6689.38,-1885.21,8520.56,-100.367,315.616,81.7176,4662.61,2037.48,8347.11,-22.2075,4.94491,13.6664,258.498,8015.22,-1958.75,36.0055,50.5249,290.93,-2066.0,-9890.01,-2108.43,-3.40389,-7.83735,49.8656,-6117.14,6287.74,950.399,50.2501,145.67,120.65,-1088.51,-9827.41,-2271.09,-17.6236,-21.8516,58.9218,8144.13,-647.69,600.909,18.6791,1.80611,11.8482
4.8065,6761.16,-1865.93,8548.58,-100.395,315.838,82.1782,4683.6,2038.25,8364.23,-22.1868,4.8677,13.6462,271.373,8075.19,-1963.68,36.45,50.9439,291.706,-2053.7,-9885.89,-2115.44,-3.38002,-8.22003,49.8061,-6151.81,6292.5,963.45,49.2268,144.381,120.121,-1114.91,-9853.67,-2268.68,-17.5527,-22.2058,59.0523,8151.51,-640.41,583.231,18.5051,1.54375,11.7732
4.807,6832.93,-1846.65,8576.6,-100.423,316.06,82.6387,4704.59,2039.02,8381.34,-22.1661,4.7905,13.6261,284.248,8135.16,-1968.61,36.8945,51.363,292.481,-2041.4,-9881.77,-2122.45,-3.35616,-8.6027,49.7466,-6186.48,6297.26,976.501,48.2035,143.091,119.592,-1141.32,-9879.94,-2266.28,-17.4819,-22.56,59.1828,8158.89,-633.131,565.553,18.3311,1.28139,11.6983
4.8075,6904.7,-1827.38,8604.63,-100.451,316.282,83.0992,4725.58,2039.79,8398.45,-22.1454,4.71329,13.6059,297.123,8195.13,-1973.54,37.339,51.782,293.257,-2029.1,-9877.66,-2129.45,-3.33229,-8.98537,49.6872,-6221.15,6302.02,989.552,47.1801,141.801,119.063,-1167.72,-9906.21,-2263.87,-17.4111,-22.9142,59.3134,8166.27,-625.852,547.875,18.1572,1.01904,11.6233
4.808,6976.47,-1808.1,8632.65,-100.48,316.504,83.5597,4746.57,2040.56,8415.56,-22.1247,4.63608,13.5857,309.998,8255.1,-1978.47,37.7834,52.2011,294.032,-2016.8,-9873.54,-2136.46,-3.30842,-9.36805,49.6277,-6255.82,6306.79,1002.6,46.1568,140.511,118.534,-1194.12,-9932.47,-2261.46,-17.3402,-23.2684,59.4439,8173.65,-618.573,530.197,17.9832,0.756679,11.5483
4.8085,7048.25,-1788.82,8660.67,-100.508,316.726,84.0202,4767.56,2041.33,8432.67,-22.104,4.55888,13.5656,322.874,8315.07,-1983.4,38.2279,52.6202,294.808,-2004.5,-9869.42,-2143.47,-3.28456,-9.75072,49.5683,-6290.5,6311.55,1015.65,45.1335,139.221,118.005,-1220.52,-9958.74,-2259.05,-17.2694,-23.6227,59.5744,8181.02,-611.294,512.52,17.8092,0.494321,11.4733
4.809,7120.28,-1767.21,8684.4,-100.545,316.961,84.5034,4784.5,2046.44,8444.34,-22.085,4.46269,13.5575,333.054,8376.33,-1986.67,38.6535,53.1025,295.55,-1996.84,-9868.05,-2144.42,-3.2814,-10.0865,49.4845,-6323.09,6314.98,1037.12,44.0305,137.976,117.37,-1240.63,-9977.02,-2254.87,-17.2098,-23.9928,59.7158,8193.95,-600.327,500.392,17.6262,0.258155,11.4244
4.8095,7193.23,-1737.45,8693.12,-100.614,317.241,85.0655,4787.24,2066.74,8436.94,-22.0723,4.30009,13.5917,333.806,8442.11,-1984.14,39.013,53.8061,296.178,-2005.44,-9876.34,-2124.16,-3.35072,-10.2584,49.3157,-6348.44,6313.78,1088.07,42.6485,136.883,116.36,-1238.76,-9967.37,-2244.5,-17.1897,-24.4187,59.8956,8226.28,-576.451,507.688,17.4117,0.113657,11.4668
4.81,7266.18,-1707.7,8701.84,-100.683,317.521,85.6277,4789.98,2087.05,8429.54,-22.0596,4.13749,13.6259,334.557,8507.89,-1981.61,39.3725,54.5097,296.806,-2014.05,-9884.62,-2103.9,-3.42005,-10.4302,49.147,-6373.78,6312.57,1139.01,41.2665,135.791,115.35,-1236.88,-9957.71,-2234.13,-17.1696,-24.8446,60.0753,8258.62,-552.575,514.985,17.1972,-0.0308418,11.5092
4.8105,7339.13,-1677.94,8710.57,-100.752,317.802,86.1898,4792.71,2107.35,8422.13,-22.0468,3.97489,13.6602,335.308,8573.67,-1979.08,39.732,55.2133,297.434,-2022.65,-9892.91,-2083.64,-3.48937,-10.602,48.9782,-6399.13,6311.37,1189.95,39.8845,134.699,114.34,-1235.0,-9948.06,-2223.75,-17.1495,-25.2705,60.255,8290.95,-528.699,522.282,16.9827,-0.17534,11.5516
4.811,7412.08,-1648.18,8719.29,-100.82,318.082,86.752,4795.46,2127.65,8414.73,-22.0341,3.81229,13.6944,336.059,8639.46,-1976.55,40.0916,55.9169,298.062,-2031.26,-9901.19,-2063.38,-3.55869,-10.7738,48.8095,-6424.47,6310.16,1240.9,38.5025,133.606,113.331,-1233.13,-9938.4,-2213.38,-17.1294,-25.6964,60.4347,8323.29,-504.824,529.579,16.7682,-0.319838,11.594
4.8115,7485.03,-1618.42,8728.01,-100.889,318.363,87.3142,4798.19,2147.96,8407.33,-22.0214,3.64969,13.7286,336.81,8705.23,-1974.02,40.4511,56.6205,298.69,-2039.86,-9909.48,-2043.12,-3.62801,-10.9457,48.6407,-6449.82,6308.96,1291.84,37.1205,132.514,112.321,-1231.25,-9928.75,-2203.01,-17.1093,-26.1223,60.6144,8355.62,-480.948,536.876,16.5537,-0.464337,11.6365
4.812,7557.98,-1588.66,8736.73,-100.958,318.643,87.8763,4800.93,2168.26,8399.93,-22.0086,3.48709,13.7628,337.561,8771.02,-1971.49,40.8106,57.3241,299.318,-2048.46,-9917.76,-2022.86,-3.69734,-11.1175,48.4719,-6475.16,6307.75,1342.78,35.7385,131.422,111.311,-1229.37,-9919.09,-2192.64,-17.0892,-26.5482,60.7941,8387.96,-457.072,544.173,16.3392,-0.608835,11.6789
4.8125,7630.93,-1558.9,8745.46,-101.027,318.924,88.4385,4803.67,2188.57,8392.53,-21.9959,3.32449,13.797,338.312,8836.8,-1968.96,41.1701,58.0278,299.946,-2057.07,-9926.05,-2002.61,-3.76666,-11.2893,48.3032,-6500.51,6306.54,1393.73,34.3566,130.33,110.302,-1227.49,-9909.44,-2182.27,-17.0691,-26.9742,60.9738,8420.29,-433.196,551.47,16.1246,-0.753333,11.7213
4.813,7703.88,-1529.14,8754.18,-101.095,319.204,89.0007,4806.41,2208.87,8385.13,-21.9832,3.16189,13.8312,339.063,8902.58,-1966.43,41.5296,58.7314,300.574,-2065.67,-9934.33,-1982.35,-3.83598,-11.4611,48.1344,-6525.85,6305.34,1444.67,32.9746,129.237,109.292,-1225.62,-9899.78,-2171.9,-17.0489,-27.4001,61.1535,8452.63,-409.32,558.767,15.9101,-0.897831,11.7637
4.8135,7777.34,-1505.73,8763.72,-101.159,319.517,89.6145,4809.61,2222.77,8381.12,-21.9869,3.05757,13.8573,340.175,8970.07,-1962.48,41.8454,59.4943,301.18,-2074.75,-9935.39,-1965.97,-3.88329,-11.6469,48.0151,-6540.8,6300.21,1503.68,31.526,128.174,108.237,-1214.31,-9890.45,-2160.05,-17.0046,-27.7385,61.353,8472.47,-394.548,561.308,15.7055,-1.02339,11.8178
4.814,7851.84,-1495.0,8774.88,-101.213,319.897,90.3317,4813.73,2223.86,8383.9,-22.0236,3.06981,13.8671,342.01,9040.97,-1955.67,42.0738,60.376,301.743,-2084.79,-9922.0,-1957.36,-3.88656,-11.8606,47.9946,-6534.93,6287.24,1578.83,29.9442,127.17,107.091,-1184.15,-9881.78,-2145.27,-16.912,-27.9019,61.5921,8467.32,-397.982,554.336,15.5207,-1.11109,11.8953
4.8145,7926.34,-1484.27,8786.05,-101.266,320.276,91.0489,4817.86,2224.96,8386.68,-22.0603,3.08205,13.8769,343.844,9111.88,-1948.87,42.3023,61.2576,302.305,-2094.83,-9908.62,-1948.75,-3.88984,-12.0744,47.9741,-6529.07,6274.26,1653.97,28.3624,126.166,105.945,-1154.0,-9873.11,-2130.49,-16.8193,-28.0653,61.8311,8462.17,-401.416,547.365,15.3358,-1.19878,11.9728
4.815,8000.84,-1473.54,8797.22,-101.32,320.655,91.7661,4821.98,2226.05,8389.46,-22.0971,3.09429,13.8868,345.678,9182.78,-1942.06,42.5308,62.1393,302.867,-2104.86,-9895.23,-1940.14,-3.89312,-12.2881,47.9536,-6523.2,6261.29,1729.12,26.7807,125.161,104.799,-1123.84,-9864.44,-2115.7,-16.7266,-28.2287,62.0702,8457.02,-404.85,540.393,15.151,-1.28647,12.0502
4.8155,8075.35,-1462.81,8808.39,-101.374,321.035,92.4832,4826.1,2227.14,8392.24,-22.1338,3.10653,13.8966,347.512,9253.69,-1935.26,42.7592,63.0209,303.429,-2114.9,-9881.84,-1931.53,-3.89639,-12.5018,47.9331,-6517.34,6248.32,1804.26,25.1989,124.157,103.653,-1093.68,-9855.77,-2100.92,-16.6339,-28.3921,62.3092,8451.87,-408.284,533.422,14.9661,-1.37417,12.1277
4.816,8149.85,-1452.08,8819.56,-101.427,321.414,93.2004,4830.22,2228.24,8395.03,-22.1705,3.11877,13.9064,349.346,9324.6,-1928.45,42.9877,63.9026,303.992,-2124.94,-9868.45,-1922.92,-3.89967,-12.7155,47.9126,-6511.48,6235.34,1879.41,23.6171,123.153,102.507,-1063.52,-9847.1,-2086.13,-16.5412,-28.5554,62.5483,8446.72,-411.718,526.45,14.7813,-1.46186,12.2052
4.8165,8224.34,-1441.34,8830.73,-101.481,321.793,93.9176,4834.34,2229.33,8397.81,-22.2072,3.13101,13.9162,351.181,9395.5,-1921.65,43.2161,64.7842,304.554,-2134.97,-9855.07,-1914.31,-3.90294,-12.9292,47.8921,-6505.61,6222.37,1954.56,22.0354,122.148,101.361,-1033.37,-9838.43,-2071.35,-16.4485,-28.7188,62.7873,8441.57,-415.152,519.479,14.5964,-1.54955,12.2827
4.817,8298.85,-1430.61,8841.9,-101.534,322.173,94.6348,4838.46,2230.42,8400.59,-22.2439,3.14325,13.926,353.015,9466.41,-1914.84,43.4446,65.6659,305.116,-2145.01,-9841.68,-1905.7,-3.90622,-13.143,47.8716,-6499.75,6209.39,2029.7,20.4536,121.144,100.215,-1003.21,-9829.76,-2056.57,-16.3558,-28.8822,63.0264,8436.42,-418.586,512.507,14.4116,-1.63725,12.3602
4.8175,8373.35,-1419.88,8853.06,-101.588,322.552,95.352,4842.58,2231.52,8403.37,-22.2807,3.15549,13.9359,354.849,9537.32,-1908.04,43.673,66.5475,305.678,-2155.05,-9828.29,-1897.1,-3.90949,-13.3567,47.8511,-6493.89,6196.42,2104.85,18.8718,120.139,99.0689,-973.053,-9821.08,-2041.78,-16.2632,-29.0456,63.2654,8431.27,-422.02,505.535,14.2267,-1.72494,12.4377
4.818,8435.19,-1418.57,8860.1,-101.538,322.862,96.0695,4850.82,2202.11,8407.07,-22.2481,3.14487,13.8864,354.907,9602.26,-1899.54,43.863,67.4771,306.169,-2164.56,-9815.97,-1882.15,-3.91941,-13.5578,47.8229,-6475.65,6180.04,2181.52,17.2488,119.098,97.9063,-943.823,-9815.38,-2024.36,-16.17,-29.0848,63.5249,8443.97,-420.72,500.138,14.0752,-1.77956,12.5319
4.8185,8481.2,-1429.05,8861.97,-101.359,323.086,96.7875,4864.19,2134.59,8411.92,-22.129,3.10568,13.7628,352.743,9659.76,-1888.94,44.0049,68.4664,306.57,-2173.43,-9804.99,-1859.28,-3.93761,-13.7432,47.7851,-6441.96,6159.42,2260.12,15.5742,118.009,96.7229,-915.752,-9813.39,-2003.63,-16.0762,-28.9686,63.8098,8478.99,-413.502,496.708,13.9654,-1.79283,12.6472
4.819,8527.22,-1439.52,8863.83,-101.18,323.31,97.5055,4877.56,2067.06,8416.77,-22.0098,3.06649,13.6391,350.579,9717.26,-1878.33,44.1468,69.4558,306.971,-2182.29,-9794.0,-1836.41,-3.95582,-13.9286,47.7473,-6408.27,6138.79,2338.71,13.8996,116.92,95.5395,-887.682,-9811.4,-1982.9,-15.9824,-28.8525,64.0948,8514.01,-406.284,493.278,13.8556,-1.8061,12.7625
4.8195,8573.24,-1449.99,8865.7,-101.001,323.534,98.2235,4890.94,1999.54,8421.62,-21.8907,3.0273,13.5155,348.416,9774.76,-1867.73,44.2887,70.4452,307.372,-2191.15,-9783.02,-1813.53,-3.97403,-14.114,47.7096,-6374.57,6118.17,2417.3,12.225,115.831,94.3561,-859.611,-9809.41,-1962.17,-15.8887,-28.7363,64.3797,8549.02,-399.066,489.848,13.7458,-1.81937,12.8778
4.82,8619.25,-1460.46,8867.57,-100.822,323.758,98.9415,4904.31,1932.01,8426.47,-21.7715,2.98812,13.3919,346.252,9832.26,-1857.12,44.4306,71.4346,307.773,-2200.02,-9772.03,-1790.66,-3.99224,-14.2994,47.6718,-6340.88,6097.54,2495.89,10.5504,114.742,93.1727,-831.541,-9807.41,-1941.44,-15.7949,-28.6202,64.6647,8584.04,-391.848,486.418,13.6359,-1.83264,12.9931
4.8205,8665.27,-1470.93,8869.44,-100.643,323.982,99.6595,4917.68,1864.49,8431.32,-21.6524,2.94893,13.2683,344.088,9889.76,-1846.51,44.5724,72.4239,308.174,-2208.88,-9761.05,-1767.79,-4.01045,-14.4849,47.634,-6307.19,6076.92,2574.48,8.87578,113.653,91.9893,-803.47,-9805.42,-1920.71,-15.7011,-28.504,64.9496,8619.05,-384.629,482.988,13.5261,-1.84591,13.1084
4.821,8711.28,-1481.4,8871.31,-100.464,324.205,100.378,4931.06,1796.97,8436.17,-21.5332,2.90974,13.1446,341.925,9947.26,-1835.91,44.7143,73.4133,308.575,-2217.74,-9750.06,-1744.92,-4.02866,-14.6703,47.5962,-6273.49,6056.29,2653.07,7.20118,112.564,90.806,-775.4,-9803.43,-1899.98,-15.6073,-28.3878,65.2346,8654.07,-377.411,479.558,13.4163,-1.85918,13.2237
4.8215,8757.3,-1491.87,8873.17,-100.286,324.429,101.096,4944.43,1729.44,8441.02,-21.4141,2.87055,13.021,339.761,10004.8,-1825.3,44.8562,74.4027,308.976,-2226.61,-9739.08,-1722.05,-4.04686,-14.8557,47.5585,-6239.8,6035.67,2731.66,5.52658,111.475,89.6226,-747.329,-9801.44,-1879.25,-15.5135,-28.2717,65.5195,8689.08,-370.193,476.128,13.3065,-1.87245,13.339
4.822,8803.32,-1502.34,8875.04,-100.107,324.653,101.814,4957.8,1661.92,8445.87,-21.2949,2.83136,12.8974,337.598,10062.3,-1814.69,44.9981,75.3921,309.377,-2235.47,-9728.09,-1699.18,-4.06507,-15.0411,47.5207,-6206.11,6015.04,2810.25,3.85198,110.387,88.4392,-719.259,-9799.44,-1858.53,-15.4198,-28.1555,65.8045,8724.1,-362.975,472.698,13.1967,-1.88572,13.4543
4.8225,8853.32,-1518.04,8885.81,-99.8608,324.837,102.624,4952.48,1644.69,8450.64,-21.2521,2.82224,12.7897,334.976,10122.8,-1810.84,45.0865,76.4788,309.668,-2213.84,-9731.68,-1685.11,-4.13105,-15.1744,47.5056,-6173.29,5987.4,2873.82,2.22274,109.274,87.3029,-680.141,-9799.24,-1830.01,-15.4194,-27.9367,66.0246,8754.25,-361.005,473.798,13.1018,-1.89162,13.6185
4.823,8906.52,-1537.93,8903.7,-99.5616,324.99,103.507,4932.2,1667.71,8455.34,-21.2703,2.83716,12.6946,331.987,10185.9,-1812.4,45.132,77.6433,309.871,-2167.8,-9746.91,-1678.07,-4.23524,-15.2661,47.5086,-6141.17,5954.15,2925.39,0.629791,108.142,86.2043,-632.185,-9800.45,-1795.28,-15.4938,-27.6357,66.1929,8780.52,-363.234,478.52,13.0189,-1.89162,13.8217
4.8235,8959.72,-1557.82,8921.58,-99.2624,325.142,104.391,4911.92,1690.73,8460.04,-21.2884,2.85209,12.5996,328.999,10249.0,-1813.95,45.1776,78.8078,310.074,-2121.77,-9762.15,-1671.03,-4.33944,-15.3577,47.5116,-6109.06,5920.9,2976.95,-0.963155,107.01,85.1057,-584.23,-9801.67,-1760.54,-15.5682,-27.3346,66.3612,8806.79,-365.463,483.243,12.936,-1.89162,14.025
4.824,9012.92,-1577.7,8939.47,-98.9631,325.295,105.275,4891.63,1713.75,8464.73,-21.3066,2.86702,12.5046,326.01,10312.0,-1815.5,45.2231,79.9724,310.277,-2075.74,-9777.39,-1664.0,-4.44363,-15.4494,47.5145,-6076.94,5887.65,3028.51,-2.5561,105.878,84.007,-536.274,-9802.89,-1725.8,-15.6426,-27.0336,66.5294,8833.06,-367.692,487.965,12.8531,-1.89162,14.2283
4.8245,9066.12,-1597.59,8957.35,-98.6639,325.448,106.159,4871.35,1736.77,8469.43,-21.3248,2.88194,12.4096,323.022,10375.1,-1817.06,45.2687,81.1369,310.48,-2029.71,-9792.62,-1656.96,-4.54783,-15.541,47.5175,-6044.83,5854.4,3080.07,-4.14905,104.746,82.9084,-488.319,-9804.11,-1691.06,-15.717,-26.7326,66.6977,8859.32,-369.921,492.688,12.7702,-1.89162,14.4315
4.825,9119.32,-1617.48,8975.24,-98.3647,325.6,107.042,4851.07,1759.79,8474.13,-21.343,2.89687,12.3146,320.033,10438.2,-1818.61,45.3143,82.3014,310.682,-1983.68,-9807.86,-1649.93,-4.65202,-15.6327,47.5205,-6012.71,5821.14,3131.63,-5.74199,103.614,81.8098,-440.363,-9805.33,-1656.32,-15.7914,-26.4316,66.866,8885.59,-372.15,497.411,12.6873,-1.89162,14.6348
4.8255,9172.52,-1637.36,8993.12,-98.0655,325.753,107.926,4830.79,1782.81,8478.83,-21.3612,2.91179,12.2195,317.045,10501.2,-1820.16,45.3598,83.466,310.885,-1937.65,-9823.1,-1642.89,-4.75621,-15.7244,47.5235,-5980.59,5787.89,3183.19,-7.33494,102.482,80.7112,-392.408,-9806.54,-1621.59,-15.8658,-26.1306,67.0343,8911.86,-374.379,502.133,12.6044,-1.89162,14.838
4.826,9225.72,-1657.25,9011.01,-97.7662,325.906,108.81,4810.51,1805.83,8483.53,-21.3793,2.92672,12.1245,314.057,10564.3,-1821.72,45.4054,84.6305,311.088,-1891.61,-9838.33,-1635.85,-4.86041,-15.816,47.5265,-5948.48,5754.64,3234.75,-8.92789,101.35,79.6126,-344.452,-9807.76,-1586.85,-15.9402,-25.8296,67.2026,8938.13,-376.608,506.856,12.5215,-1.89162,15.0413
4.8265,9278.92,-1677.14,9028.89,-97.467,326.058,109.694,4790.22,1828.86,8488.22,-21.3975,2.94165,12.0295,311.068,10627.4,-1823.27,45.4509,85.795,311.291,-1845.58,-9853.57,-1628.82,-4.9646,-15.9077,47.5295,-5916.36,5721.39,3286.31,-10.5208,100.218,78.514,-296.497,-9808.98,-1552.11,-16.0146,-25.5285,67.3709,8964.39,-378.837,511.579,12.4386,-1.89162,15.2446
4.827,9319.04,-1685.6,9041.12,-97.0869,326.118,110.639,4762.09,1818.58,8504.4,-21.3774,2.87426,11.9642,307.845,10690.1,-1829.96,45.478,87.051,311.425,-1846.07,-9849.19,-1616.35,-5.03029,-15.9984,47.5612,-5868.38,5675.47,3319.45,-11.7561,98.9022,77.5603,-250.348,-9808.92,-1522.99,-16.0373,-25.1946,67.5243,8985.98,-387.146,514.028,12.358,-1.88768,15.3949
4.8275,9352.61,-1688.35,9050.51,-96.6664,326.131,111.615,4730.04,1791.65,8526.32,-21.3381,2.76572,11.9138,304.504,10752.6,-1839.22,45.4957,88.3527,311.525,-1869.81,-9835.01,-1601.16,-5.07673,-16.0886,47.6073,-5812.47,5623.2,3343.39,-12.8125,97.4945,76.679,-205.103,-9808.21,-1496.68,-16.0341,-24.8441,67.6702,9005.21,-398.495,515.341,12.2785,-1.88178,15.5188
4.828,9386.18,-1691.1,9059.91,-96.2459,326.145,112.592,4697.99,1764.72,8548.24,-21.2988,2.65718,11.8635,301.163,10815.1,-1848.48,45.5135,89.6544,311.624,-1893.56,-9820.82,-1585.97,-5.12317,-16.1788,47.6533,-5756.56,5570.94,3367.32,-13.8689,96.0868,75.7978,-159.859,-9807.5,-1470.38,-16.031,-24.4937,67.8161,9024.45,-409.844,516.654,12.199,-1.87587,15.6427
4.8285,9419.75,-1693.85,9069.3,-95.8254,326.158,113.568,4665.93,1737.79,8570.16,-21.2596,2.54864,11.8131,297.822,10877.6,-1857.75,45.5313,90.9561,311.724,-1917.3,-9806.64,-1570.79,-5.16961,-16.269,47.6994,-5700.65,5518.68,3391.25,-14.9253,94.679,74.9166,-114.614,-9806.8,-1444.07,-16.0278,-24.1432,67.962,9043.69,-421.193,517.967,12.1194,-1.86997,15.7665
4.829,9453.33,-1696.6,9078.7,-95.4049,326.171,114.544,4633.88,1710.86,8592.07,-21.2203,2.44009,11.7627,294.48,10940.1,-1867.01,45.549,92.2579,311.823,-1941.04,-9792.45,-1555.6,-5.21605,-16.3592,47.7455,-5644.74,5466.42,3415.18,-15.9817,93.2713,74.0354,-69.3688,-9806.09,-1417.76,-16.0246,-23.7928,68.1079,9062.93,-432.542,519.28,12.0399,-1.86407,15.8904
4.8295,9486.9,-1699.35,9088.09,-94.9844,326.185,115.52,4601.82,1683.94,8613.99,-21.181,2.33155,11.7123,291.139,11002.6,-1876.27,45.5668,93.5596,311.923,-1964.79,-9778.27,-1540.41,-5.26249,-16.4494,47.7915,-5588.83,5414.15,3439.11,-17.0381,91.8636,73.1541,-24.1239,-9805.39,-1391.45,-16.0214,-23.4423,68.2538,9082.17,-443.891,520.593,11.9604,-1.85816,16.0143
4.83,9520.47,-1702.1,9097.49,-94.5639,326.198,116.497,4569.77,1657.01,8635.91,-21.1417,2.22301,11.6619,287.798,11065.1,-1885.53,45.5845,94.8613,312.022,-1988.53,-9764.08,-1525.23,-5.30893,-16.5396,47.8376,-5532.92,5361.89,3463.04,-18.0946,90.4559,72.2729,21.121,-9804.68,-1365.14,-16.0182,-23.0919,68.3998,9101.41,-455.24,521.906,11.8809,-1.85226,16.1382
4.8305,9554.04,-1704.85,9106.88,-94.1433,326.211,117.473,4537.72,1630.08,8657.83,-21.1024,2.11447,11.6116,284.457,11127.6,-1894.79,45.6023,96.163,312.122,-2012.28,-9749.9,-1510.04,-5.35537,-16.6298,47.8837,-5477.0,5309.63,3486.97,-19.151,89.0482,71.3917,66.3659,-9803.98,-1338.83,-16.0151,-22.7414,68.5457,9120.64,-466.589,523.219,11.8014,-1.84635,16.2621
4.831,9587.61,-1707.6,9116.28,-93.7228,326.225,118.449,4505.66,1603.15,8679.74,-21.0632,2.00593,11.5612,281.116,11190.1,-1904.05,45.6201,97.4647,312.221,-2036.02,-9735.72,-1494.85,-5.40181,-16.7201,47.9297,-5421.09,5257.37,3510.9,-20.2074,87.6404,70.5105,111.611,-9803.27,-1312.53,-16.0119,-22.391,68.6916,9139.88,-477.939,524.532,11.7219,-1.84045,16.3859
4.8315,9626.9,-1716.43,9128.35,-93.1837,326.136,119.501,4509.26,1593.79,8687.83,-20.9639,1.84089,11.5706,281.485,11252.9,-1908.0,45.5788,98.8761,312.314,-2029.49,-9733.54,-1502.99,-5.49621,-16.7797,48.014,-5366.31,5194.34,3511.48,-20.7409,86.0439,69.739,151.955,-9810.39,-1288.33,-16.0467,-22.0987,68.7952,9160.49,-477.226,521.572,11.6095,-1.77061,16.568
4.832,9667.82,-1726.98,9141.2,-92.6108,326.017,120.575,4523.04,1589.44,8691.95,-20.8475,1.65971,11.5972,282.915,11315.7,-1910.43,45.5206,100.319,312.404,-2014.31,-9734.8,-1517.79,-5.6043,-16.8306,48.1092,-5311.85,5128.25,3505.39,-21.1251,84.3934,68.9989,190.898,-9819.75,-1264.75,-16.0924,-21.823,68.8866,9181.48,-473.068,517.391,11.4878,-1.68251,16.7666
4.8325,9708.74,-1737.54,9154.04,-92.0378,325.899,121.649,4536.82,1585.09,8696.08,-20.7311,1.47852,11.6237,284.344,11378.6,-1912.86,45.4625,101.761,312.494,-1999.13,-9736.05,-1532.59,-5.7124,-16.8815,48.2044,-5257.38,5062.15,3499.3,-21.5093,82.7429,68.2589,229.842,-9829.1,-1241.16,-16.1382,-21.5472,68.9781,9202.47,-468.909,513.21,11.366,-1.59441,16.9653
4.833,9749.65,-1748.1,9166.88,-91.4649,325.781,122.723,4550.6,1580.74,8700.21,-20.6147,1.29734,11.6503,285.773,11441.5,-1915.28,45.4044,103.204,312.584,-1983.95,-9737.31,-1547.39,-5.82049,-16.9325,48.2996,-5202.92,4996.05,3493.2,-21.8935,81.0925,67.5188,268.786,-9838.46,-1217.57,-16.1839,-21.2715,69.0695,9223.47,-464.75,509.029,11.2443,-1.50631,17.164
4.8335,9790.57,-1758.65,9179.72,-90.8919,325.662,123.797,4564.38,1576.39,8704.34,-20.4983,1.11616,11.6769,287.202,11504.3,-1917.71,45.3462,104.647,312.674,-1968.76,-9738.57,-1562.19,-5.92859,-16.9834,48.3948,-5148.46,4929.95,3487.11,-22.2776,79.442,66.7787,307.729,-9847.81,-1193.98,-16.2296,-20.9958,69.161,9244.46,-460.592,504.848,11.1225,-1.41822,17.3626
4.834,9831.49,-1769.21,9192.56,-90.319,325.544,124.872,4578.16,1572.04,8708.46,-20.3819,0.934975,11.7034,288.631,11567.2,-1920.14,45.2881,106.089,312.765,-1953.58,-9739.82,-1576.99,-6.03668,-17.0343,48.49,-5094.0,4863.86,3481.01,-22.6618,77.7915,66.0386,346.673,-9857.17,-1170.4,-16.2753,-20.7201,69.2525,9265.46,-456.433,500.667,11.0008,-1.33012,17.5613
4.8345,9872.41,-1779.77,9205.4,-89.746,325.425,125.946,4591.94,1567.7,8712.59,-20.2655,0.753792,11.73,290.06,11630.1,-1922.57,45.2299,107.532,312.855,-1938.4,-9741.08,-1591.79,-6.14477,-17.0852,48.5852,-5039.53,4797.76,3474.92,-23.046,76.141,65.2985,385.616,-9866.52,-1146.81,-16.321,-20.4444,69.3439,9286.45,-452.275,496.486,10.8791,-1.24202,17.76
4.835,9913.33,-1790.32,9218.25,-89.173,325.307,127.02,4605.72,1563.35,8716.72,-20.1491,0.57261,11.7565,291.489,11693.0,-1925.0,45.1718,108.975,312.945,-1923.22,-9742.33,-1606.59,-6.25287,-17.1361,48.6804,-4985.07,4731.66,3468.83,-23.4302,74.4905,64.5584,424.56,-9875.88,-1123.22,-16.3667,-20.1687,69.4354,9307.45,-448.116,492.305,10.7573,-1.15392,17.9586
4.8355,9954.24,-1800.88,9231.09,-88.6001,325.189,128.094,4619.5,1559.0,8720.85,-20.0327,0.391427,11.7831,292.918,11755.8,-1927.42,45.1136,110.417,313.035,-1908.04,-9743.59,-1621.39,-6.36096,-17.1871,48.7756,-4930.61,4665.56,3462.73,-23.8143,72.8401,63.8184,463.504,-9885.24,-1099.64,-16.4124,-19.893,69.5268,9328.44,-443.958,488.124,10.6356,-1.06582,18.1573
4.836,9991.41,-1811.53,9277.63,-87.9985,324.98,129.212,4630.08,1556.86,8696.14,-19.9472,0.291452,11.7083,287.328,11822.2,-1918.05,45.0488,111.989,313.083,-1902.06,-9772.92,-1621.66,-6.37639,-17.1643,48.861,-4878.7,4599.37,3425.71,-23.4683,71.135,63.2353,521.014,-9895.11,-1083.45,-16.4179,-19.753,69.5511,9341.4,-453.998,476.591,10.54,-0.997289,18.2539
4.8365,10028.1,-1822.2,9328.38,-87.3933,324.76,130.337,4640.26,1554.99,8667.82,-19.8655,0.201628,11.6208,280.859,11889.0,-1907.2,44.9831,113.577,313.126,-1897.23,-9805.76,-1620.11,-6.38023,-17.1323,48.9451,-4827.12,4533.17,3384.82,-23.031,69.423,62.6718,580.846,-9905.06,-1068.18,-16.4182,-19.6301,69.567,9353.36,-465.814,464.14,10.4476,-0.931208,18.3378
4.837,10064.8,-1832.86,9379.12,-86.7881,324.54,131.461,4650.44,1553.13,8639.51,-19.7838,0.111804,11.5333,274.391,11955.9,-1896.35,44.9174,115.165,313.168,-1892.4,-9838.6,-1618.56,-6.38407,-17.1003,49.0293,-4775.53,4466.96,3343.93,-22.5936,67.7111,62.1083,640.678,-9915.0,-1052.92,-16.4186,-19.5072,69.5829,9365.32,-477.629,451.689,10.3553,-0.865126,18.4217
4.8375,10101.5,-1843.53,9429.87,-86.1829,324.32,132.585,4660.61,1551.26,8611.19,-19.7022,0.02198,11.4458,267.923,12022.7,-1885.5,44.8517,116.753,313.211,-1887.57,-9871.45,-1617.01,-6.38791,-17.0683,49.1135,-4723.94,4400.76,3303.03,-22.1563,65.9992,61.5448,700.51,-9924.94,-1037.66,-16.419,-19.3842,69.5988,9377.27,-489.444,439.238,10.263,-0.799044,18.5056
4.838,10138.2,-1854.19,9480.62,-85.5777,324.1,133.709,4670.79,1549.4,8582.88,-19.6205,-0.067844,11.3583,261.455,12089.5,-1874.65,44.786,118.341,313.253,-1882.74,-9904.29,-1615.46,-6.39174,-17.0363,49.1977,-4672.36,4334.56,3262.14,-21.719,64.2873,60.9813,760.342,-9934.88,-1022.4,-16.4194,-19.2613,69.6148,9389.23,-501.26,426.786,10.1706,-0.732962,18.5895
4.8385,10174.9,-1864.86,9531.37,-84.9725,323.88,134.834,4680.97,1547.54,8554.56,-19.5389,-0.157668,11.2708,254.987,12156.3,-1863.8,44.7203,119.929,313.296,-1877.91,-9937.13,-1613.91,-6.39558,-17.0043,49.2818,-4620.77,4268.36,3221.25,-21.2816,62.5754,60.4178,820.173,-9944.83,-1007.13,-16.4197,-19.1383,69.6307,9401.19,-513.075,414.335,10.0783,-0.66688,18.6733
4.839,10211.6,-1875.52,9582.12,-84.3673,323.66,135.958,4691.15,1545.67,8526.25,-19.4572,-0.247492,11.1833,248.519,12223.2,-1852.96,44.6546,121.517,313.339,-1873.08,-9969.97,-1612.36,-6.39942,-16.9723,49.366,-4569.19,4202.15,3180.36,-20.8443,60.8634,59.8543,880.005,-9954.77,-991.871,-16.4201,-19.0154,69.6466,9413.15,-524.89,401.884,9.98596,-0.600799,18.7572
4.8395,10248.3,-1886.19,9632.87,-83.7621,323.44,137.082,4701.33,1543.81,8497.93,-19.3756,-0.337316,11.0958,242.05,12290.0,-1842.11,44.5889,123.105,313.381,-1868.25,-10002.8,-1610.82,-6.40326,-16.9403,49.4502,-4517.6,4135.95,3139.47,-20.407,59.1515,59.2909,939.837,-9964.71,-976.608,-16.4205,-18.8924,69.6625,9425.11,-536.706,389.432,9.89362,-0.534717,18.8411
4.84,10285.0,-1896.85,9683.62,-83.157,323.22,138.206,4711.51,1541.94,8469.62,-19.2939,-0.42714,11.0083,235.582,12356.8,-1831.26,44.5232,124.694,313.424,-1863.42,-10035.6,-1609.27,-6.4071,-16.9083,49.5343,-4466.01,4069.75,3098.58,-19.9696,57.4396,58.7274,999.669,-9974.65,-961.345,-16.4209,-18.7695,69.6784,9437.06,-548.521,376.981,9.80128,-0.468635,18.925
4.8405,10335.7,-1904.0,9718.98,-82.4728,322.854,139.407,4737.67,1569.32,8467.36,-19.4019,-0.428857,10.9621,224.595,12427.9,-1829.3,44.5284,126.295,313.409,-1846.68,-10018.0,-1607.61,-6.36603,-16.5928,49.6454,-4430.76,4011.05,3044.56,-18.6472,55.8089,58.4506,1013.09,-9973.25,-948.144,-16.3704,-18.6901,69.7164,9452.68,-564.527,392.744,9.63428,-0.37133,19.0077
4.841,10386.3,-1911.14,9754.33,-81.7885,322.487,140.608,4763.83,1596.69,8465.1,-19.5098,-0.430574,10.9158,213.608,12499.0,-1827.33,44.5335,127.896,313.394,-1829.95,-10000.4,-1605.96,-6.32497,-16.2774,49.7565,-4395.51,3952.36,2990.54,-17.3248,54.1782,58.1739,1026.51,-9971.84,-934.943,-16.3199,-18.6108,69.7544,9468.29,-580.533,408.507,9.46728,-0.274025,19.0905
4.8415,10436.9,-1918.29,9789.69,-81.1043,322.121,141.809,4789.98,1624.07,8462.84,-19.6178,-0.432291,10.8696,202.621,12570.1,-1825.37,44.5387,129.497,313.378,-1813.22,-9982.77,-1604.31,-6.2839,-15.9619,49.8676,-4360.26,3893.66,2936.53,-16.0024,52.5476,57.8972,1039.93,-9970.43,-921.742,-16.2694,-18.5314,69.7925,9483.91,-596.539,424.27,9.30028,-0.17672,19.1732
4.842,10487.5,-1925.43,9825.05,-80.4201,321.755,143.009,4816.14,1651.44,8460.58,-19.7258,-0.434008,10.8233,191.635,12641.2,-1823.41,44.5438,131.098,313.363,-1796.49,-9965.14,-1602.66,-6.24284,-15.6464,49.9786,-4325.02,3834.97,2882.51,-14.6801,50.9169,57.6205,1053.35,-9969.02,-908.541,-16.219,-18.4521,69.8305,9499.52,-612.544,440.033,9.13328,-0.0794146,19.256
4.8425,10538.2,-1932.58,9860.41,-79.7359,321.388,144.21,4842.3,1678.82,8458.32,-19.8337,-0.435725,10.777,180.648,12712.3,-1821.45,44.549,132.7,313.348,-1779.76,-9947.51,-1601.01,-6.20177,-15.3309,50.0897,-4289.77,3776.27,2828.49,-13.3577,49.2862,57.3438,1066.77,-9967.61,-895.34,-16.1685,-18.3727,69.8686,9515.14,-628.55,455.796,8.96628,0.0178905,19.3387
4.843,10588.8,-1939.72,9895.77,-79.0517,321.022,145.411,4868.46,1706.19,8456.06,-19.9417,-0.437442,10.7308,169.661,12783.4,-1819.49,44.5541,134.301,313.333,-1763.03,-9929.89,-1599.35,-6.16071,-15.0154,50.2008,-4254.52,3717.57,2774.47,-12.0353,47.6555,57.0671,1080.19,-9966.2,-882.139,-16.118,-18.2933,69.9066,9530.75,-644.556,471.558,8.79928,0.115196,19.4215
4.8435,10639.4,-1946.87,9931.13,-78.3675,320.655,146.611,4894.62,1733.57,8453.8,-20.0497,-0.439159,10.6845,158.674,12854.5,-1817.53,44.5592,135.902,313.318,-1746.3,-9912.26,-1597.7,-6.11964,-14.6999,50.3118,-4219.27,3658.88,2720.45,-10.7129,46.0249,56.7904,1093.61,-9964.79,-868.938,-16.0675,-18.214,69.9446,9546.37,-660.562,487.321,8.63227,0.212501,19.5042
4.844,10690.1,-1954.01,9966.49,-77.6833,320.289,147.812,4920.77,1760.94,8451.54,-20.1576,-0.440876,10.6383,147.687,12925.6,-1815.57,44.5644,137.503,313.302,-1729.56,-9894.63,-1596.05,-6.07858,-14.3844,50.4229,-4184.02,3600.18,2666.44,-9.39047,44.3942,56.5137,1107.03,-9963.39,-855.737,-16.0171,-18.1346,69.9827,9561.98,-676.568,503.084,8.46527,0.309806,19.587
4.8445,10740.6,-1957.34,10003.1,-76.9995,319.925,149.034,4943.43,1785.96,8448.61,-20.262,-0.445274,10.6028,135.619,12997.9,-1814.11,44.5678,139.098,313.291,-1713.57,-9878.04,-1596.62,-6.04212,-14.0653,50.5402,-4151.32,3544.61,2611.66,-7.99541,42.8263,56.2662,1118.99,-9961.78,-845.022,-15.9646,-18.0626,70.0169,9575.67,-692.753,517.576,8.31864,0.398144,19.6621
4.845,10790.6,-1930.09,10049.7,-76.3192,319.582,150.43,4938.02,1792.09,8440.32,-20.3375,-0.471126,10.6531,114.901,13079.8,-1816.67,44.5578,140.636,313.308,-1703.45,-9869.77,-1614.97,-6.04253,-13.7169,50.7075,-4139.06,3513.97,2550.87,-6.019,41.7612,56.2526,1119.2,-9958.55,-854.19,-15.8964,-18.0492,70.0208,9573.93,-710.369,521.897,8.33493,0.414747,19.6768
4.8455,10840.6,-1902.84,10096.3,-75.6388,319.24,151.825,4932.62,1798.22,8432.02,-20.4131,-0.496979,10.7034,94.1824,13161.6,-1819.23,44.5478,142.174,313.325,-1693.33,-9861.49,-1633.33,-6.04294,-13.3686,50.8749,-4126.8,3483.33,2490.08,-4.0426,40.696,56.239,1119.42,-9955.33,-863.358,-15.8282,-18.0358,70.0247,9572.19,-727.985,526.219,8.35123,0.43135,19.6914
4.846,10890.5,-1875.59,10142.8,-74.9584,318.898,153.221,4927.22,1804.36,8423.73,-20.4886,-0.522831,10.7538,73.4643,13243.4,-1821.8,44.5378,143.712,313.342,-1683.22,-9853.22,-1651.68,-6.04336,-13.0202,51.0422,-4114.54,3452.69,2429.28,-2.0662,39.6308,56.2254,1119.63,-9952.11,-872.526,-15.76,-18.0224,70.0286,9570.45,-745.601,530.541,8.36753,0.447953,19.706
4.8465,10940.5,-1848.34,10189.4,-74.278,318.555,154.616,4921.82,1810.49,8415.43,-20.5642,-0.548684,10.8041,52.7462,13325.3,-1824.36,44.5278,145.25,313.359,-1673.1,-9844.94,-1670.03,-6.04377,-12.6718,51.2095,-4102.28,3422.05,2368.49,-0.0897952,38.5657,56.2118,1119.85,-9948.89,-881.694,-15.6918,-18.009,70.0324,9568.71,-763.217,534.862,8.38382,0.464556,19.7207
4.847,10990.5,-1821.09,10236.0,-73.5977,318.213,156.011,4916.42,1816.62,8407.14,-20.6398,-0.574536,10.8544,32.028,13407.1,-1826.92,44.5178,146.788,313.376,-1662.98,-9836.67,-1688.38,-6.04418,-12.3234,51.3768,-4090.02,3391.41,2307.69,1.88661,37.5005,56.1982,1120.06,-9945.67,-890.862,-15.6236,-17.9956,70.0363,9566.97,-780.833,539.184,8.40011,0.481159,19.7353
4.8475,11040.4,-1793.84,10282.6,-72.9173,317.87,157.407,4911.02,1822.75,8398.84,-20.7153,-0.600388,10.9048,11.3099,13488.9,-1829.48,44.5078,148.326,313.393,-1652.86,-9828.39,-1706.74,-6.04459,-11.9751,51.5441,-4077.76,3360.77,2246.9,3.86301,36.4353,56.1846,1120.28,-9942.45,-900.03,-15.5555,-17.9821,70.0402,9565.23,-798.449,543.505,8.41641,0.497762,19.7499
4.848,11090.4,-1766.6,10329.1,-72.2369,317.528,158.802,4905.62,1828.88,8390.55,-20.7909,-0.626241,10.9551,-9.40826,13570.7,-1832.05,44.4977,149.864,313.41,-1642.75,-9820.12,-1725.09,-6.045,-11.6267,51.7114,-4065.5,3330.13,2186.11,5.83941,35.3702,56.171,1120.5,-9939.23,-909.198,-15.4873,-17.9687,70.0441,9563.49,-816.065,547.827,8.4327,0.514365,19.7646
4.8485,11140.4,-1739.35,10375.7,-71.5565,317.185,160.197,4900.22,1835.02,8382.25,-20.8664,-0.652093,11.0055,-30.1264,13652.6,-1834.61,44.4877,151.402,313.427,-1632.63,-9811.84,-1743.44,-6.04542,-11.2783,51.8787,-4053.24,3299.49,2125.31,7.81581,34.305,56.1574,1120.71,-9936.01,-918.367,-15.4191,-17.9553,70.048,9561.75,-833.681,552.149,8.449,0.530968,19.7792
4.849,11188.6,-1715.34,10425.3,-70.8962,316.817,161.602,4890.94,1841.48,8376.29,-20.9363,-0.689441,11.0425,-52.5313,13735.3,-1836.64,44.4741,152.91,313.444,-1618.61,-9802.92,-1758.5,-6.05473,-10.9342,52.0476,-4046.44,3276.75,2065.66,9.83276,33.4649,56.206,1118.86,-9928.21,-923.253,-15.352,-17.9079,70.0694,9558.69,-850.577,554.825,8.45999,0.515502,19.7943
4.8495,11230.5,-1702.7,10485.2,-70.3061,316.359,163.04,4868.07,1849.12,8378.47,-20.986,-0.767025,11.0327,-80.8398,13821.4,-1836.81,44.448,154.31,313.465,-1590.93,-9791.76,-1762.0,-6.09518,-10.6048,52.2217,-4058.73,3281.63,2009.98,11.9916,33.4126,56.4727,1109.8,-9904.39,-913.156,-15.2889,-17.7413,70.1524,9551.03,-864.956,551.746,8.45244,0.387792,19.811
4.85,11272.5,-1690.06,10545.2,-69.716,315.9,164.477,4845.2,1856.76,8380.65,-21.0358,-0.844608,11.023,-109.148,13907.5,-1836.99,44.4218,155.711,313.485,-1563.25,-9780.6,-1765.5,-6.13563,-10.2754,52.3959,-4071.02,3286.51,1954.31,14.1505,33.3602,56.7394,1100.74,-9880.58,-903.059,-15.2258,-17.5747,70.2355,9543.36,-879.334,548.666,8.44488,0.260082,19.8276
4.8505,11314.4,-1677.42,10605.1,-69.1259,315.441,165.914,4822.34,1864.4,8382.83,-21.0856,-0.922192,11.0132,-137.457,13993.5,-1837.16,44.3956,157.112,313.505,-1535.57,-9769.43,-1769.0,-6.17609,-9.946,52.57,-4083.31,3291.39,1898.64,16.3093,33.3079,57.0061,1091.67,-9856.76,-892.961,-15.1627,-17.4081,70.3185,9535.7,-893.712,545.586,8.43733,0.132373,19.8443
4.851,11356.4,-1664.78,10665.1,-68.5358,314.983,167.352,4799.47,1872.04,8385.0,-21.1354,-0.999775,11.0035,-165.765,14079.6,-1837.33,44.3694,158.512,313.525,-1507.89,-9758.27,-1772.5,-6.21654,-9.61661,52.7442,-4095.6,3296.27,1842.97,18.4682,33.2556,57.2727,1082.61,-9832.94,-882.864,-15.0996,-17.2415,70.4015,9528.03,-908.091,542.506,8.42977,0.00466325,19.861
4.8515,11398.3,-1652.13,10725.0,-67.9457,314.524,168.789,4776.61,1879.68,8387.18,-21.1852,-1.07736,10.9937,-194.074,14165.7,-1837.5,44.3433,159.913,313.546,-1480.21,-9747.1,-1776.01,-6.257,-9.28722,52.9184,-4107.89,3301.15,1787.29,20.6271,33.2033,57.5394,1073.54,-9809.12,-872.766,-15.0365,-17.0749,70.4845,9520.37,-922.469,539.426,8.42221,-0.123046,19.8777
4.852,11440.3,-1639.49,10785.0,-67.3556,314.066,170.227,4753.74,1887.32,8389.36,-21.235,-1.15494,10.984,-222.382,14251.8,-1837.68,44.3171,161.314,313.566,-1452.53,-9735.94,-1779.51,-6.29745,-8.95783,53.0925,-4120.18,3306.03,1731.62,22.7859,33.1509,57.8061,1064.48,-9785.31,-862.669,-14.9734,-16.9083,70.5675,9512.7,-936.847,536.346,8.41466,-0.250756,19.8943
4.8525,11482.2,-1626.85,10844.9,-66.7655,313.607,171.664,4730.88,1894.96,8391.54,-21.2847,-1.23253,10.9743,-250.691,14337.8,-1837.85,44.2909,162.715,313.586,-1424.85,-9724.77,-1783.01,-6.33791,-8.62844,53.2667,-4132.47,3310.91,1675.95,24.9448,33.0986,58.0728,1055.41,-9761.49,-852.571,-14.9103,-16.7417,70.6505,9505.04,-951.226,533.266,8.4071,-0.378466,19.911
4.853,11524.2,-1614.21,10904.9,-66.1754,313.148,173.102,4708.01,1902.59,8393.72,-21.3345,-1.31011,10.9645,-278.999,14423.9,-1838.02,44.2647,164.115,313.606,-1397.16,-9713.61,-1786.51,-6.37836,-8.29905,53.4409,-4144.76,3315.79,1620.28,27.1036,33.0463,58.3395,1046.35,-9737.67,-842.474,-14.8472,-16.5751,70.7336,9497.37,-965.604,530.187,8.39954,-0.506175,19.9277
4.8535,11562.2,-1597.16,10969.1,-65.5681,312.662,174.542,4696.17,1895.37,8397.81,-21.3299,-1.38907,10.9265,-305.474,14511.4,-1832.85,44.2403,165.441,313.641,-1384.15,-9700.33,-1792.22,-6.40249,-7.95005,53.6126,-4168.77,3331.91,1577.48,29.1392,33.3157,58.7154,1035.34,-9717.99,-839.866,-14.8317,-16.3629,70.8147,9487.91,-979.254,530.495,8.4303,-0.62611,19.9318
4.854,11592.4,-1571.31,11041.7,-64.9265,312.119,175.99,4706.39,1858.41,8405.73,-21.2166,-1.47078,10.8318,-328.281,14601.9,-1817.01,44.2195,166.618,313.705,-1400.48,-9682.81,-1802.31,-6.39398,-7.56182,53.7793,-4216.22,3370.49,1560.44,30.9281,34.2285,59.3098,1020.46,-9706.58,-852.237,-14.9115,-16.0593,70.8921,9474.87,-991.448,537.579,8.53769,-0.730497,19.9107
4.8545,11622.6,-1545.46,11114.3,-64.2849,311.576,177.437,4716.61,1821.45,8413.64,-21.1033,-1.55249,10.7371,-351.088,14692.4,-1801.16,44.1987,167.795,313.769,-1416.81,-9665.29,-1812.41,-6.38546,-7.1736,53.9461,-4263.67,3409.08,1543.4,32.717,35.1413,59.9043,1005.57,-9695.17,-864.608,-14.9913,-15.7558,70.9694,9461.82,-1003.64,544.663,8.64508,-0.834884,19.8895
4.855,11652.8,-1519.61,11186.8,-63.6433,311.033,178.884,4726.82,1784.48,8421.56,-20.99,-1.6342,10.6424,-373.895,14782.8,-1785.31,44.1778,168.972,313.832,-1433.13,-9647.77,-1822.51,-6.37694,-6.78538,54.1129,-4311.12,3447.67,1526.36,34.5059,36.054,60.4987,990.677,-9683.76,-876.979,-15.0711,-15.4523,71.0468,9448.78,-1015.83,551.747,8.75247,-0.939271,19.8684
4.8555,11683.0,-1493.76,11259.4,-63.0017,310.49,180.331,4737.04,1747.52,8429.47,-20.8767,-1.71591,10.5477,-396.702,14873.3,-1769.47,44.157,170.149,313.896,-1449.46,-9630.25,-1832.61,-6.36842,-6.39715,54.2796,-4358.58,3486.25,1509.32,36.2948,36.9668,61.0932,975.788,-9672.35,-889.35,-15.1509,-15.1487,71.1242,9435.73,-1028.03,558.832,8.85986,-1.04366,19.8473
4.856,11713.1,-1467.91,11332.0,-62.3601,309.947,181.779,4747.26,1710.56,8437.39,-20.7634,-1.79762,10.453,-419.509,14963.8,-1753.62,44.1361,171.326,313.96,-1465.79,-9612.73,-1842.71,-6.35991,-6.00893,54.4464,-4406.03,3524.84,1492.28,38.0838,37.8796,61.6876,960.898,-9660.94,-901.72,-15.2306,-14.8452,71.2016,9422.69,-1040.22,565.916,8.96725,-1.14804,19.8262
4.8565,11743.3,-1442.06,11404.6,-61.7185,309.404,183.226,4757.47,1673.6,8445.3,-20.6501,-1.87933,10.3583,-442.316,15054.2,-1737.77,44.1153,172.502,314.024,-1482.12,-9595.21,-1852.81,-6.35139,-5.62071,54.6132,-4453.48,3563.43,1475.24,39.8727,38.7924,62.2821,946.009,-9649.53,-914.091,-15.3104,-14.5417,71.279,9409.65,-1052.41,573.0,9.07464,-1.25243,19.8051
4.857,11773.5,-1416.21,11477.2,-61.0769,308.861,184.673,4767.69,1636.64,8453.22,-20.5367,-1.96104,10.2636,-465.123,15144.7,-1721.93,44.0944,173.679,314.087,-1498.44,-9577.7,-1862.9,-6.34287,-5.23248,54.7799,-4500.93,3602.01,1458.2,41.6616,39.7052,62.8765,931.12,-9638.12,-926.462,-15.3902,-14.2381,71.3563,9396.6,-1064.61,580.084,9.18203,-1.35682,19.784
4.8575,11803.7,-1390.36,11549.8,-60.4353,308.318,186.12,4777.91,1599.68,8461.13,-20.4234,-2.04275,10.1689,-487.93,15235.2,-1706.08,44.0736,174.856,314.151,-1514.77,-9560.18,-1873.0,-6.33435,-4.84426,54.9467,-4548.39,3640.6,1441.16,43.4505,40.618,63.4709,916.231,-9626.71,-938.833,-15.47,-13.9346,71.4337,9383.56,-1076.8,587.169,9.28942,-1.4612,19.7629
4.858,11835.4,-1357.71,11616.8,-59.7734,307.722,187.564,4786.33,1576.63,8455.84,-20.3516,-2.09649,10.0828,-524.008,15333.6,-1693.41,44.0171,175.845,314.238,-1520.01,-9552.51,-1875.04,-6.31214,-4.41624,55.1072,-4608.73,3701.03,1437.31,44.9597,41.6568,64.0302,901.632,-9610.96,-950.406,-15.4991,-13.6154,71.4874,9366.16,-1088.16,585.593,9.44299,-1.58053,19.716
4.8585,11868.9,-1316.55,11676.8,-59.086,307.06,189.002,4792.51,1570.98,8434.06,-20.3316,-2.11526,10.0074,-576.673,15442.0,-1684.7,43.9161,176.6,314.353,-1511.4,-9557.15,-1866.99,-6.2728,-3.93849,55.2598,-4685.17,3788.75,1449.95,46.1193,42.8531,64.5455,887.395,-9589.81,-960.982,-15.465,-13.2765,71.5114,9343.32,-1098.47,573.194,9.6543,-1.71852,19.6368
4.859,11902.5,-1275.39,11736.9,-58.3986,306.397,190.441,4798.68,1565.32,8412.27,-20.3117,-2.13403,9.93202,-629.338,15550.4,-1676.0,43.8152,177.354,314.468,-1502.78,-9561.79,-1858.95,-6.23347,-3.46073,55.4124,-4761.62,3876.48,1462.58,47.2789,44.0493,65.0608,873.158,-9568.66,-971.558,-15.4308,-12.9377,71.5354,9320.48,-1108.78,560.795,9.8656,-1.85651,19.5576
4.8595,11936.0,-1234.23,11796.9,-57.7112,305.734,191.88,4804.86,1559.66,8390.48,-20.2917,-2.1528,9.85664,-682.004,15658.9,-1667.29,43.7142,178.109,314.583,-1494.17,-9566.43,-1850.9,-6.19413,-2.98298,55.565,-4838.06,3964.2,1475.22,48.4385,45.2456,65.5762,858.922,-9547.5,-982.134,-15.3967,-12.5989,71.5594,9297.65,-1119.09,548.396,10.0769,-1.9945,19.4784
4.86,11969.6,-1193.07,11856.9,-57.0238,305.072,193.318,4811.04,1554.0,8368.69,-20.2718,-2.17157,9.78127,-734.669,15767.3,-1658.59,43.6132,178.863,314.698,-1485.55,-9571.07,-1842.86,-6.15479,-2.50522,55.7176,-4914.51,4051.93,1487.85,49.5981,46.4419,66.0915,844.685,-9526.35,-992.71,-15.3625,-12.26,71.5834,9274.81,-1129.41,535.996,10.2882,-2.13249,19.3992
4.8605,12003.1,-1151.91,11916.9,-56.3364,304.409,194.757,4817.22,1548.35,8346.91,-20.2518,-2.19034,9.7059,-787.335,15875.7,-1649.89,43.5122,179.618,314.813,-1476.94,-9575.72,-1834.81,-6.11545,-2.02747,55.8702,-4990.96,4139.65,1500.49,50.7577,47.6382,66.6068,830.448,-9505.2,-1003.29,-15.3284,-11.9212,71.6074,9251.97,-1139.72,523.597,10.4995,-2.27048,19.32
4.861,12036.7,-1110.75,11976.9,-55.649,303.746,196.195,4823.4,1542.69,8325.12,-20.2318,-2.20911,9.63052,-840.0,15984.1,-1641.18,43.4112,180.372,314.928,-1468.32,-9580.36,-1826.77,-6.07612,-1.54971,56.0228,-5067.4,4227.38,1513.12,51.9173,48.8344,67.1221,816.212,-9484.04,-1013.86,-15.2942,-11.5824,71.6314,9229.13,-1150.03,511.198,10.7108,-2.40847,19.2409
4.8615,12070.2,-1069.59,12036.9,-54.9616,303.084,197.634,4829.57,1537.03,8303.33,-20.2119,-2.22788,9.55515,-892.666,16092.5,-1632.48,43.3102,181.127,315.043,-1459.71,-9585.0,-1818.72,-6.03678,-1.07196,56.1754,-5143.85,4315.1,1525.76,53.0769,50.0307,67.6374,801.975,-9462.89,-1024.44,-15.26,-11.2435,71.6555,9206.29,-1160.34,498.799,10.9221,-2.54646,19.1617
4.862,12103.8,-1028.43,12096.9,-54.2742,302.421,199.073,4835.75,1531.37,8281.54,-20.1919,-2.24665,9.47978,-945.331,16200.9,-1623.77,43.2093,181.881,315.158,-1451.09,-9589.64,-1810.67,-5.99744,-0.594204,56.328,-5220.29,4402.83,1538.39,54.2365,51.227,68.1527,787.739,-9441.73,-1035.01,-15.2259,-10.9047,71.6795,9183.46,-1170.65,486.399,11.1334,-2.68445,19.0825
4.8625,12144.5,-993.448,12161.0,-53.4717,301.735,200.484,4844.68,1525.7,8273.99,-20.1783,-2.28235,9.40584,-992.892,16318.2,-1619.92,43.0833,182.422,315.236,-1448.62,-9583.82,-1804.4,-5.98025,-0.215427,56.4768,-5309.87,4500.3,1533.12,55.0834,52.1959,68.3788,783.658,-9442.2,-1042.58,-15.1323,-10.6019,71.7275,9153.96,-1171.86,482.302,11.2995,-2.76458,18.969
4.863,12191.1,-963.409,12228.5,-52.5771,301.031,201.874,4855.81,1520.02,8277.82,-20.1697,-2.33159,9.33305,-1036.37,16442.6,-1619.94,42.9374,182.793,315.284,-1451.06,-9569.63,-1799.55,-5.98078,0.0841679,56.6227,-5409.95,4605.58,1513.52,55.6802,52.983,68.3734,787.703,-9459.95,-1047.73,-14.9911,-10.3278,71.7948,9119.13,-1165.77,484.845,11.4294,-2.7984,18.8281
4.8635,12237.6,-933.37,12295.9,-51.6824,300.327,203.264,4866.94,1514.34,8281.66,-20.1612,-2.38084,9.26026,-1079.85,16566.9,-1619.96,42.7915,183.163,315.332,-1453.49,-9555.44,-1794.7,-5.98131,0.383763,56.7685,-5510.03,4710.86,1493.92,56.277,53.7701,68.3681,791.748,-9477.71,-1052.88,-14.8499,-10.0537,71.8621,9084.3,-1159.69,487.388,11.5594,-2.83223,18.6872
4.864,12284.2,-903.331,12363.3,-50.7878,299.623,204.655,4878.07,1508.66,8285.49,-20.1526,-2.43008,9.18747,-1123.33,16691.3,-1619.98,42.6456,183.533,315.38,-1455.93,-9541.25,-1789.85,-5.98184,0.683358,56.9143,-5610.11,4816.13,1474.32,56.8739,54.5572,68.3627,795.793,-9495.46,-1058.03,-14.7087,-9.77962,71.9293,9049.48,-1153.61,489.932,11.6893,-2.86605,18.5463
4.8645,12330.7,-873.292,12430.7,-49.8931,298.919,206.045,4889.2,1502.98,8289.32,-20.144,-2.47932,9.11468,-1166.8,16815.6,-1620.01,42.4996,183.903,315.428,-1458.37,-9527.06,-1785.0,-5.98237,0.982953,57.0601,-5710.19,4921.41,1454.72,57.4707,55.3443,68.3573,799.838,-9513.22,-1063.19,-14.5675,-9.50554,71.9966,9014.65,-1147.53,492.475,11.8192,-2.89988,18.4054
4.865,12377.3,-843.253,12498.2,-48.9985,298.215,207.435,4900.33,1497.3,8293.16,-20.1355,-2.52857,9.04189,-1210.28,16940.0,-1620.03,42.3537,184.273,315.476,-1460.81,-9512.87,-1780.15,-5.98289,1.28255,57.206,-5810.27,5026.69,1435.12,58.0675,56.1313,68.352,803.883,-9530.97,-1068.34,-14.4263,-9.23145,72.0639,8979.82,-1141.45,495.018,11.9492,-2.9337,18.2645
4.8655,12423.8,-813.214,12565.6,-48.1038,297.511,208.825,4911.46,1491.61,8296.99,-20.1269,-2.57781,8.9691,-1253.76,17064.3,-1620.05,42.2078,184.644,315.524,-1463.25,-9498.68,-1775.29,-5.98342,1.58214,57.3518,-5910.35,5131.97,1415.52,58.6643,56.9184,68.3466,807.927,-9548.73,-1073.49,-14.2852,-8.95737,72.1312,8945.0,-1135.37,497.562,12.0791,-2.96753,18.1236
4.866,12470.4,-783.175,12633.0,-47.2092,296.807,210.215,4922.59,1485.93,8300.83,-20.1183,-2.62705,8.89631,-1297.24,17188.7,-1620.07,42.0619,185.014,315.572,-1465.68,-9484.49,-1770.44,-5.98395,1.88174,57.4976,-6010.43,5237.24,1395.92,59.2611,57.7055,68.3412,811.972,-9566.48,-1078.65,-14.144,-8.68329,72.1985,8910.17,-1129.29,500.105,12.209,-3.00135,17.9827
4.8665,12517.0,-753.136,12700.4,-46.3146,296.103,211.605,4933.72,1480.25,8304.66,-20.1098,-2.6763,8.82352,-1340.71,17313.0,-1620.1,41.916,185.384,315.62,-1468.12,-9470.3,-1765.59,-5.98448,2.18133,57.6434,-6110.51,5342.52,1376.32,59.8579,58.4926,68.3359,816.017,-9584.24,-1083.8,-14.0028,-8.40921,72.2657,8875.34,-1123.21,502.648,12.3389,-3.03518,17.8418
4.867,12555.1,-723.152,12755.7,-45.3881,295.346,212.826,4925.43,1467.15,8314.31,-20.1185,-2.7099,8.73713,-1380.52,17437.7,-1628.68,41.6777,185.576,315.659,-1474.55,-9475.93,-1766.07,-5.9927,2.37042,57.834,-6201.68,5444.04,1317.97,60.1272,58.935,67.9996,825.204,-9581.1,-1090.54,-13.8943,-8.25811,72.2763,8855.42,-1130.74,507.575,12.3912,-3.01858,17.7006
4.8675,12589.0,-693.195,12804.8,-44.4457,294.563,213.963,4907.44,1450.34,8326.86,-20.1358,-2.73569,8.64393,-1418.48,17562.6,-1641.55,41.3932,185.678,315.694,-1482.98,-9491.48,-1769.2,-6.00478,2.50425,58.047,-6288.39,5543.67,1240.25,60.2327,59.2049,67.4978,836.962,-9567.53,-1098.09,-13.8021,-8.1685,72.2584,8842.95,-1145.09,513.693,12.4046,-2.97678,17.5592
4.868,12623.0,-663.238,12854.0,-43.5034,293.78,215.099,4889.45,1433.53,8339.42,-20.1531,-2.76148,8.55073,-1456.44,17687.5,-1654.42,41.1087,185.78,315.728,-1491.4,-9507.03,-1772.34,-6.01686,2.63808,58.26,-6375.1,5643.31,1162.53,60.3381,59.4749,66.9961,848.72,-9553.95,-1105.63,-13.7099,-8.07889,72.2406,8830.47,-1159.44,519.812,12.418,-2.93497,17.4178
4.8685,12656.9,-633.281,12903.2,-42.561,292.997,216.235,4871.46,1416.72,8351.97,-20.1705,-2.78726,8.45753,-1494.4,17812.3,-1667.29,40.8242,185.883,315.763,-1499.83,-9522.58,-1775.48,-6.02893,2.77191,58.473,-6461.81,5742.94,1084.8,60.4436,59.7449,66.4943,860.478,-9540.37,-1113.17,-13.6178,-7.98928,72.2228,8818.0,-1173.79,525.93,12.4314,-2.89317,17.2764
4.869,12690.9,-603.324,12952.3,-41.6186,292.214,217.372,4853.47,1399.91,8364.53,-20.1878,-2.81305,8.36433,-1532.36,17937.2,-1680.15,40.5397,185.985,315.798,-1508.25,-9538.13,-1778.61,-6.04101,2.90574,58.6859,-6548.52,5842.58,1007.08,60.5491,60.0149,65.9925,872.236,-9526.8,-1120.71,-13.5256,-7.89967,72.2049,8805.53,-1188.14,532.048,12.4449,-2.85136,17.135
4.8695,12724.8,-573.368,13001.5,-40.6763,291.43,218.508,4835.48,1383.1,8377.08,-20.2051,-2.83884,8.27113,-1570.32,18062.1,-1693.02,40.2552,186.087,315.832,-1516.68,-9553.68,-1781.75,-6.05308,3.03957,58.8989,-6635.23,5942.21,929.359,60.6545,60.2849,65.4908,883.994,-9513.22,-1128.25,-13.4335,-7.81006,72.1871,8793.06,-1202.49,538.167,12.4583,-2.80955,16.9936
4.87,12758.8,-543.411,13050.6,-39.7339,290.647,219.645,4817.49,1366.29,8389.64,-20.2225,-2.86462,8.17793,-1608.28,18187.0,-1705.89,39.9706,186.19,315.867,-1525.1,-9569.23,-1784.89,-6.06516,3.1734,59.1119,-6721.94,6041.85,851.636,60.76,60.5549,64.989,895.752,-9499.64,-1135.79,-13.3413,-7.72045,72.1692,8780.58,-1216.84,544.285,12.4717,-2.76775,16.8523
4.8705,12792.7,-513.454,13099.8,-38.7915,289.864,220.781,4799.5,1349.49,8402.19,-20.2398,-2.89041,8.08473,-1646.25,18311.8,-1718.75,39.6861,186.292,315.902,-1533.53,-9584.78,-1788.02,-6.07724,3.30723,59.3249,-6808.65,6141.48,773.914,60.8655,60.8249,64.4873,907.509,-9486.07,-1143.34,-13.2491,-7.63084,72.1514,8768.11,-1231.19,550.403,12.4851,-2.72594,16.7109
4.871,12826.6,-483.497,13148.9,-37.8492,289.081,221.918,4781.51,1332.68,8414.75,-20.2571,-2.9162,7.99153,-1684.21,18436.7,-1731.62,39.4016,186.395,315.936,-1541.95,-9600.33,-1791.16,-6.08931,3.44106,59.5379,-6895.36,6241.12,696.191,60.9709,61.0949,63.9855,919.267,-9472.49,-1150.88,-13.157,-7.54123,72.1336,8755.64,-1245.54,556.522,12.4986,-2.68414,16.5695
4.8715,12862.6,-463.905,13204.0,-36.8556,288.19,222.857,4777.71,1342.22,8414.89,-20.2061,-3.02334,7.92085,-1736.63,18538.2,-1743.43,39.0555,186.28,315.909,-1570.74,-9586.01,-1796.2,-6.14954,3.63605,59.6859,-6968.27,6348.1,578.387,60.6175,61.2394,63.1281,929.549,-9472.55,-1164.71,-13.0557,-7.38774,72.1134,8732.52,-1256.41,556.537,12.4018,-2.65541,16.4677
4.872,12899.2,-447.274,13260.7,-35.8473,287.269,223.74,4777.96,1359.29,8411.49,-20.1355,-3.15372,7.85661,-1793.19,18633.0,-1754.94,38.6917,186.103,315.863,-1605.33,-9563.16,-1801.79,-6.22352,3.84852,59.8155,-7037.22,6457.18,449.131,60.133,61.3482,62.169,939.409,-9476.5,-1180.35,-12.9517,-7.21599,72.0926,8706.37,-1266.29,554.809,12.2735,-2.63041,16.3772
4.8725,12935.8,-430.643,13317.5,-34.8391,286.347,224.623,4778.21,1376.36,8408.09,-20.0649,-3.28411,7.79237,-1849.74,18727.8,-1766.45,38.3279,185.926,315.818,-1639.93,-9540.31,-1807.39,-6.2975,4.061,59.945,-7106.18,6566.26,319.876,59.6485,61.4569,61.21,949.268,-9480.45,-1195.98,-12.8478,-7.04424,72.0717,8680.21,-1276.17,553.081,12.1453,-2.60542,16.2867
4.873,12972.4,-414.011,13374.2,-33.8309,285.426,225.507,4778.47,1393.43,8404.69,-19.9943,-3.41449,7.72813,-1906.3,18822.6,-1777.96,37.9641,185.75,315.772,-1674.53,-9517.46,-1812.98,-6.37148,4.27347,60.0745,-7175.13,6675.34,190.62,59.1639,61.5657,60.2509,959.128,-9484.41,-1211.62,-12.7439,-6.87249,72.0509,8654.05,-1286.05,551.353,12.0171,-2.58042,16.1962
4.8735,13008.9,-397.38,13430.9,-32.8226,284.505,226.39,4778.72,1410.5,8401.29,-19.9237,-3.54488,7.66389,-1962.85,18917.5,-1789.47,37.6004,185.573,315.727,-1709.12,-9494.62,-1818.57,-6.44546,4.48594,60.2041,-7244.09,6784.42,61.3641,58.6794,61.6744,59.2918,968.988,-9488.36,-1227.25,-12.64,-6.70074,72.03,8627.9,-1295.93,549.624,11.8888,-2.55543,16.1057
4.874,13045.5,-380.749,13487.7,-31.8144,283.583,227.273,4778.97,1427.57,8397.88,-19.8531,-3.67527,7.59965,-2019.41,19012.3,-1800.98,37.2366,185.396,315.681,-1743.72,-9471.77,-1824.16,-6.51944,4.69841,60.3336,-7313.05,6893.5,-67.8917,58.1949,61.7832,58.3328,978.848,-9492.31,-1242.89,-12.5361,-6.52899,72.0092,8601.74,-1305.82,547.896,11.7606,-2.53043,16.0152
4.8745,13082.1,-364.118,13544.4,-30.8062,282.662,228.156,4779.23,1444.63,8394.48,-19.7825,-3.80565,7.5354,-2075.96,19107.1,-1812.49,36.8728,185.22,315.636,-1778.32,-9448.92,-1829.75,-6.59342,4.91088,60.4631,-7382.0,7002.58,-197.147,57.7103,61.8919,57.3737,988.707,-9496.27,-1258.52,-12.4322,-6.35724,71.9883,8575.59,-1315.7,546.168,11.6323,-2.50544,15.9247
4.875,13118.6,-347.487,13601.1,-29.7979,281.74,229.039,4779.48,1461.7,8391.08,-19.7119,-3.93604,7.47116,-2132.52,19201.9,-1824.0,36.509,185.043,315.591,-1812.91,-9426.07,-1835.34,-6.6674,5.12335,60.5926,-7450.96,7111.66,-326.403,57.2258,62.0007,56.4147,998.567,-9500.22,-1274.16,-12.3283,-6.18549,71.9675,8549.43,-1325.58,544.44,11.5041,-2.48045,15.8342
4.8755,13155.2,-330.856,13657.8,-28.7897,280.819,229.923,4779.73,1478.77,8387.68,-19.6414,-4.06642,7.40692,-2189.08,19296.7,-1835.51,36.1453,184.866,315.545,-1847.51,-9403.22,-1840.93,-6.74138,5.33582,60.7222,-7519.92,7220.74,-455.659,56.7413,62.1094,55.4556,1008.43,-9504.17,-1289.79,-12.2244,-6.01375,71.9467,8523.27,-1335.46,542.712,11.3758,-2.45545,15.7437
4.876,13200.6,-188.422,13753.4,-28.0201,279.624,230.752,4784.33,1492.79,8392.88,-19.491,-4.11975,7.37279,-2286.31,19401.8,-1814.53,35.6413,184.231,315.434,-1856.86,-9404.04,-1836.6,-6.87554,5.50767,60.9708,-7535.12,7319.51,-583.344,55.7627,61.9309,54.2487,1010.57,-9491.71,-1287.35,-12.2304,-5.91995,71.8099,8491.4,-1337.61,543.883,11.247,-2.3733,15.6124
4.8765,13247.0,-30.2638,13853.8,-27.2803,278.394,231.574,4789.47,1506.42,8399.15,-19.3306,-4.16344,7.34242,-2388.63,19508.2,-1789.48,35.1199,183.539,315.315,-1863.05,-9407.83,-1831.03,-7.01721,5.67443,61.2344,-7543.6,7416.99,-710.832,54.7224,61.7164,53.0108,1011.76,-9477.19,-1282.65,-12.2503,-5.83591,71.6586,8458.81,-1338.8,545.417,11.118,-2.284,15.476
4.877,13293.5,127.895,13954.2,-26.5406,277.165,232.397,4794.61,1520.05,8405.43,-19.1703,-4.20713,7.31206,-2490.94,19614.7,-1764.43,34.5984,182.847,315.196,-1869.24,-9411.61,-1825.46,-7.15888,5.8412,61.4979,-7552.08,7514.46,-838.32,53.6821,61.5019,51.773,1012.94,-9462.68,-1277.96,-12.2701,-5.75186,71.5073,8426.23,-1339.99,546.951,10.9891,-2.1947,15.3395
