Time,RFoot_accel.x,RFoot_accel.y,RFoot_accel.z,RFoot_gyro.x,RFoot_gyro.y,RFoot_gyro.z,LFoot_accel.x,LFoot_accel.y,LFoot_accel.z,LFoot_gyro.x,LFoot_gyro.y,LFoot_gyro.z,RShank_accel.x,RShank_accel.y,RShank_accel.z,RShank_gyro.x,RShank_gyro.y,RShank_gyro.z,LShank_accel.x,LShank_accel.y,LShank_accel.z,LShank_gyro.x,LShank_gyro.y,LShank_gyro.z,RThigh_accel.x,RThigh_accel.y,RThigh_accel.z,RThigh_gyro.x,RThigh_gyro.y,RThigh_gyro.z,LThigh_accel.x,LThigh_accel.y,LThigh_accel.z,LThigh_gyro.x,LThigh_gyro.y,LThigh_gyro.z,Pelvis_accel.x,Pelvis_accel.y,Pelvis_accel.z,Pelvis_gyro.x,Pelvis_gyro.y,Pelvis_gyro.z
5.0,7131.57,-67.6133,9153.21,-45.8294,284.514,118.68,4546.52,3075.4,8062.95,-5.41956,-7.70212,6.89084,-762.565,10207.8,-530.752,22.8173,76.001,280.269,-746.736,-9676.2,-1885.81,-9.81897,-11.6516,39.724,-5956.61,6127.05,1727.02,36.805,196.439,98.9371,1229.11,-9583.53,-1667.66,-10.2089,-35.9515,51.07,8775.55,-1122.34,815.779,27.7057,6.85064,8.19177
5.0005,7210.32,-73.9405,9184.52,-45.8717,284.997,118.63,4558.88,3062.77,8053.84,-5.51774,-7.72017,6.97836,-796.338,10251.9,-535.231,22.739,75.6683,280.927,-749.515,-9670.92,-1884.85,-9.82191,-11.4025,39.7466,-5948.99,6144.7,1716.9,36.598,196.637,98.2508,1192.99,-9611.2,-1661.51,-10.2381,-35.7417,51.0621,8792.67,-1131.43,824.566,27.7149,6.61782,7.95112
5.001,7289.07,-80.2676,9215.83,-45.9139,285.479,118.58,4571.25,3050.15,8044.73,-5.61592,-7.73823,7.06588,-830.11,10296.0,-539.711,22.6607,75.3356,281.584,-752.294,-9665.63,-1883.89,-9.82485,-11.1533,39.7692,-5941.37,6162.36,1706.78,36.391,196.835,97.5645,1156.87,-9638.87,-1655.36,-10.2674,-35.5319,51.0542,8809.8,-1140.51,833.352,27.7241,6.38499,7.71046
5.0015,7367.82,-86.5948,9247.14,-45.9562,285.962,118.53,4583.62,3037.52,8035.63,-5.7141,-7.75628,7.1534,-863.883,10340.1,-544.19,22.5824,75.003,282.241,-755.073,-9660.35,-1882.94,-9.82779,-10.9042,39.7918,-5933.75,6180.01,1696.66,36.184,197.034,96.8782,1120.75,-9666.54,-1649.21,-10.2967,-35.3221,51.0462,8826.92,-1149.6,842.139,27.7333,6.15216,7.46981
5.002,7446.57,-92.922,9278.46,-45.9985,286.445,118.48,4595.98,3024.89,8026.52,-5.81228,-7.77434,7.24092,-897.655,10384.2,-548.67,22.5041,74.6703,282.898,-757.852,-9655.06,-1881.98,-9.83073,-10.6551,39.8144,-5926.13,6197.66,1686.53,35.977,197.232,96.192,1084.64,-9694.21,-1643.06,-10.3259,-35.1123,51.0383,8844.05,-1158.69,850.925,27.7426,5.91934,7.22915
5.0025,7525.32,-99.2491,9309.77,-46.0407,286.927,118.43,4608.35,3012.27,8017.41,-5.91046,-7.79239,7.32844,-931.428,10428.4,-553.149,22.4257,74.3376,283.556,-760.631,-9649.78,-1881.02,-9.83366,-10.406,39.8369,-5918.51,6215.31,1676.41,35.7699,197.43,95.5057,1048.52,-9721.88,-1636.91,-10.3552,-34.9025,51.0304,8861.17,-1167.77,859.712,27.7518,5.68651,6.9885
5.003,7604.07,-105.576,9341.08,-46.083,287.41,118.38,4620.72,2999.64,8008.3,-6.00863,-7.81045,7.41595,-965.2,10472.5,-557.629,22.3474,74.0049,284.213,-763.41,-9644.49,-1880.07,-9.8366,-10.1569,39.8595,-5910.89,6232.96,1666.29,35.5629,197.629,94.8194,1012.4,-9749.56,-1630.76,-10.3844,-34.6927,51.0224,8878.3,-1176.86,868.498,27.761,5.45368,6.74784
5.0035,7682.82,-111.903,9372.39,-46.1253,287.892,118.33,4633.08,2987.02,7999.19,-6.10681,-7.8285,7.50347,-998.973,10516.6,-562.108,22.2691,73.6722,284.87,-766.189,-9639.21,-1879.11,-9.83954,-9.90776,39.8821,-5903.27,6250.62,1656.17,35.3559,197.827,94.1331,976.286,-9777.23,-1624.61,-10.4137,-34.4829,51.0145,8895.42,-1185.95,877.285,27.7702,5.22086,6.50719
5.004,7761.57,-118.231,9403.7,-46.1675,288.375,118.28,4645.45,2974.39,7990.08,-6.20499,-7.84655,7.59099,-1032.75,10560.7,-566.588,22.1908,73.3396,285.527,-768.968,-9633.92,-1878.16,-9.84248,-9.65864,39.9047,-5895.65,6268.27,1646.04,35.1489,198.026,93.4468,940.169,-9804.9,-1618.47,-10.443,-34.2731,51.0065,8912.55,-1195.04,886.071,27.7794,4.98803,6.26653
5.0045,7838.0,-120.99,9433.26,-46.2125,288.866,118.224,4656.56,2960.72,7980.75,-6.30521,-7.8663,7.67148,-1065.2,10604.0,-571.338,22.1144,73.0197,286.178,-772.458,-9630.12,-1875.97,-9.84328,-9.42755,39.9328,-5885.56,6284.7,1640.0,34.9363,198.164,92.7471,907.612,-9828.52,-1612.78,-10.4652,-34.0613,50.9983,8930.39,-1201.77,893.32,27.7722,4.76634,6.03393
5.005,7895.9,-95.2117,9448.74,-46.2788,289.426,118.12,4657.64,2938.66,7969.59,-6.42177,-7.8996,7.69575,-1087.13,10641.2,-578.252,22.0536,72.8022,286.771,-781.631,-9638.16,-1863.91,-9.82698,-9.34066,40.005,-5855.72,6291.33,1666.59,34.6789,197.825,91.9403,903.533,-9819.8,-1610.83,-10.431,-33.8333,50.9872,8953.96,-1189.71,888.271,27.6338,4.63379,5.86579
5.0055,7953.8,-69.4329,9464.23,-46.3451,289.986,118.016,4658.73,2916.6,7958.43,-6.53833,-7.93289,7.72002,-1109.06,10678.3,-585.166,21.9928,72.5846,287.365,-790.804,-9646.21,-1851.85,-9.81067,-9.25377,40.0772,-5825.88,6297.96,1693.17,34.4215,197.486,91.1335,899.453,-9811.08,-1608.89,-10.3968,-33.6053,50.9762,8977.54,-1177.66,883.221,27.4955,4.50124,5.69765
5.006,8011.69,-43.6541,9479.71,-46.4115,290.545,117.913,4659.81,2894.54,7947.27,-6.65488,-7.96618,7.74428,-1130.99,10715.5,-592.08,21.932,72.3671,287.958,-799.977,-9654.25,-1839.79,-9.79436,-9.16688,40.1495,-5796.04,6304.59,1719.76,34.164,197.146,90.3267,895.374,-9802.36,-1606.94,-10.3626,-33.3773,50.9651,9001.11,-1165.6,878.172,27.3571,4.36868,5.52951
5.0065,8069.59,-17.8753,9495.2,-46.4778,291.105,117.809,4660.89,2872.49,7936.12,-6.77144,-7.99948,7.76855,-1152.92,10752.6,-598.994,21.8712,72.1496,288.552,-809.15,-9662.29,-1827.73,-9.77805,-9.07998,40.2217,-5766.2,6311.22,1746.34,33.9066,196.807,89.5199,891.294,-9793.64,-1604.99,-10.3284,-33.1493,50.9541,9024.68,-1153.54,873.122,27.2187,4.23613,5.36137
5.007,8127.49,7.90344,9510.68,-46.5441,291.665,117.705,4661.98,2850.43,7924.96,-6.888,-8.03277,7.79281,-1174.86,10789.8,-605.908,21.8104,71.9321,289.145,-818.323,-9670.34,-1815.67,-9.76174,-8.99309,40.2939,-5736.36,6317.85,1772.93,33.6492,196.468,88.713,887.215,-9784.92,-1603.04,-10.2943,-32.9213,50.943,9048.25,-1141.48,868.073,27.0803,4.10358,5.19323
5.0075,8185.38,33.6822,9526.17,-46.6104,292.225,117.602,4663.06,2828.37,7913.8,-7.00455,-8.06606,7.81708,-1196.79,10826.9,-612.822,21.7496,71.7146,289.739,-827.497,-9678.38,-1803.61,-9.74544,-8.9062,40.3662,-5706.52,6324.49,1799.52,33.3918,196.128,87.9062,883.135,-9776.2,-1601.1,-10.2601,-32.6933,50.932,9071.83,-1129.42,863.023,26.9419,3.97102,5.02509
5.008,8243.28,59.461,9541.65,-46.6768,292.785,117.498,4664.14,2806.31,7902.64,-7.12111,-8.09936,7.84134,-1218.72,10864.1,-619.736,21.6888,71.497,290.332,-836.67,-9686.43,-1791.55,-9.72913,-8.81931,40.4384,-5676.67,6331.12,1826.1,33.1343,195.789,87.0994,879.056,-9767.48,-1599.15,-10.2259,-32.4653,50.9209,9095.4,-1117.36,857.974,26.8036,3.83847,4.85695
5.0085,8301.17,85.2398,9557.13,-46.7431,293.344,117.394,4665.22,2784.25,7891.49,-7.23767,-8.13265,7.86561,-1240.65,10901.2,-626.65,21.6279,71.2795,290.926,-845.843,-9694.47,-1779.49,-9.71282,-8.73242,40.5106,-5646.83,6337.75,1852.69,32.8769,195.45,86.2926,874.976,-9758.75,-1597.2,-10.1917,-32.2373,50.9099,9118.97,-1105.3,852.924,26.6652,3.70592,4.68881
5.009,8355.34,108.597,9573.73,-46.8312,293.838,117.293,4665.51,2767.76,7879.81,-7.35239,-8.18107,7.89193,-1259.32,10936.4,-634.144,21.5906,71.0522,291.512,-857.116,-9702.04,-1770.62,-9.70398,-8.63929,40.5743,-5609.67,6338.58,1879.32,32.6396,194.915,85.5076,867.714,-9751.57,-1593.7,-10.1752,-32.0118,50.9211,9138.04,-1095.55,849.909,26.4947,3.60436,4.54691
5.0095,8396.48,123.476,9594.23,-46.9957,294.099,117.198,4663.01,2770.74,7866.32,-7.4607,-8.28243,7.92544,-1266.59,10964.7,-643.669,21.6353,70.7903,292.072,-875.737,-9707.97,-1772.93,-9.7213,-8.52433,40.6078,-5546.89,6319.11,1906.1,32.4725,193.697,84.7992,849.31,-9749.77,-1584.78,-10.2205,-31.7953,51.0105,9141.35,-1093.86,854.012,26.2116,3.6113,4.49685
5.01,8437.62,138.356,9614.72,-47.1601,294.361,117.104,4660.51,2773.72,7852.83,-7.569,-8.38379,7.95895,-1273.85,10993.1,-653.194,21.6801,70.5285,292.633,-894.358,-9713.9,-1775.24,-9.73861,-8.40938,40.6414,-5484.1,6299.64,1932.89,32.3053,192.479,84.0907,830.906,-9747.97,-1575.85,-10.2659,-31.5787,51.0999,9144.66,-1092.16,858.115,25.9286,3.61824,4.44678
5.0105,8478.75,153.236,9635.22,-47.3245,294.622,117.01,4658.01,2776.69,7839.34,-7.67731,-8.48515,7.99246,-1281.12,11021.4,-662.72,21.7248,70.2666,293.194,-912.98,-9719.83,-1777.55,-9.75593,-8.29442,40.6749,-5421.31,6280.16,1959.67,32.1382,191.261,83.3823,812.502,-9746.17,-1566.92,-10.3112,-31.3621,51.1892,9147.96,-1090.47,862.219,25.6456,3.62518,4.39672
5.011,8519.89,168.116,9655.72,-47.4889,294.884,116.915,4655.52,2779.67,7825.85,-7.78562,-8.58651,8.02597,-1288.39,11049.7,-672.245,21.7695,70.0048,293.754,-931.601,-9725.76,-1779.86,-9.77324,-8.17946,40.7084,-5358.52,6260.69,1986.45,31.9711,190.042,82.6738,794.098,-9744.37,-1558.0,-10.3565,-31.1456,51.2786,9151.27,-1088.78,866.322,25.3626,3.63212,4.34666
5.0115,8561.02,182.996,9676.21,-47.6534,295.145,116.821,4653.02,2782.65,7812.36,-7.89392,-8.68787,8.05948,-1295.65,11078.0,-681.77,21.8143,69.7429,294.315,-950.222,-9731.69,-1782.17,-9.79056,-8.0645,40.742,-5295.74,6241.22,2013.24,31.804,188.824,81.9653,775.695,-9742.57,-1549.07,-10.4019,-30.929,51.3679,9154.57,-1087.09,870.425,25.0795,3.63906,4.2966
5.012,8602.16,197.875,9696.71,-47.8178,295.407,116.727,4650.52,2785.63,7798.87,-8.00223,-8.78923,8.09299,-1302.92,11106.4,-691.295,21.859,69.4811,294.876,-968.844,-9737.61,-1784.49,-9.80787,-7.94954,40.7755,-5232.95,6221.75,2040.02,31.6369,187.606,81.2569,757.291,-9740.77,-1540.15,-10.4472,-30.7124,51.4573,9157.88,-1085.4,874.528,24.7965,3.646,4.24654
5.0125,8643.3,212.755,9717.2,-47.9822,295.668,116.633,4648.02,2788.61,7785.38,-8.11054,-8.89059,8.12649,-1310.19,11134.7,-700.821,21.9038,69.2192,295.436,-987.465,-9743.54,-1786.8,-9.82519,-7.83458,40.8091,-5170.16,6202.28,2066.81,31.4698,186.388,80.5484,738.887,-9738.97,-1531.22,-10.4925,-30.4959,51.5467,9161.18,-1083.7,878.632,24.5135,3.65294,4.19648
5.013,8684.43,227.635,9737.7,-48.1467,295.93,116.538,4645.52,2791.59,7771.89,-8.21884,-8.99195,8.16,-1317.45,11163.0,-710.346,21.9485,68.9574,295.997,-1006.09,-9749.47,-1789.11,-9.84251,-7.71962,40.8426,-5107.38,6182.81,2093.59,31.3027,185.169,79.84,720.483,-9737.17,-1522.3,-10.5379,-30.2793,51.636,9164.49,-1082.01,882.735,24.2304,3.65988,4.14642
5.0135,8713.48,246.572,9759.67,-48.3381,296.123,116.379,4641.21,2799.87,7765.77,-8.33797,-9.08403,8.21516,-1326.54,11192.3,-718.056,22.0147,68.6889,296.552,-1019.08,-9752.13,-1789.29,-9.86572,-7.58368,40.8837,-5042.92,6159.14,2104.67,31.1959,183.759,79.1432,704.852,-9737.41,-1520.59,-10.5722,-30.0624,51.7056,9171.41,-1080.16,888.58,23.956,3.67009,4.08923
5.014,8718.33,273.622,9784.58,-48.5835,296.181,116.09,4633.29,2818.76,7774.36,-8.47873,-9.15758,8.31362,-1339.26,11223.4,-722.138,22.1239,68.407,297.094,-1020.84,-9748.24,-1785.2,-9.90073,-7.40579,40.94,-4975.11,6127.1,2084.36,31.21,181.965,78.4699,694.765,-9741.73,-1533.31,-10.5847,-29.845,51.7356,9185.54,-1078.0,897.907,23.6988,3.68684,4.01781
5.0145,8723.19,300.672,9809.49,-48.8289,296.238,115.801,4625.38,2837.65,7782.95,-8.61949,-9.23112,8.41208,-1351.99,11254.6,-726.219,22.2332,68.1251,297.636,-1022.59,-9744.36,-1781.11,-9.93573,-7.2279,40.9963,-4907.31,6095.05,2064.04,31.2241,180.171,77.7965,684.678,-9746.05,-1546.03,-10.5971,-29.6276,51.7657,9199.68,-1075.84,907.234,23.4416,3.70359,3.94638
5.015,8728.05,327.722,9834.4,-49.0742,296.295,115.511,4617.46,2856.54,7791.55,-8.76025,-9.30466,8.51053,-1364.71,11285.7,-730.3,22.3424,67.8433,298.179,-1024.34,-9740.47,-1777.02,-9.97074,-7.05001,41.0525,-4839.51,6063.0,2043.72,31.2381,178.377,77.1232,674.591,-9750.36,-1558.75,-10.6095,-29.4102,51.7958,9213.82,-1073.67,916.562,23.1844,3.72034,3.87495
5.0155,8732.91,354.772,9859.3,-49.3196,296.353,115.222,4609.54,2875.43,7800.14,-8.901,-9.3782,8.60899,-1377.44,11316.9,-734.382,22.4516,67.5614,298.721,-1026.09,-9736.58,-1772.93,-10.0057,-6.87212,41.1088,-4771.7,6030.95,2023.4,31.2522,176.583,76.4498,664.504,-9754.68,-1571.48,-10.6219,-29.1927,51.8258,9227.96,-1071.51,925.889,22.9272,3.73709,3.80353
5.016,8737.77,381.822,9884.21,-49.565,296.41,114.933,4601.62,2894.32,7808.74,-9.04176,-9.45174,8.70745,-1390.16,11348.0,-738.463,22.5608,67.2795,299.263,-1027.84,-9732.7,-1768.84,-10.0408,-6.69423,41.1651,-4703.9,5998.91,2003.08,31.2662,174.79,75.7765,654.417,-9759.0,-1584.2,-10.6343,-28.9753,51.8559,9242.1,-1069.35,935.216,22.67,3.75384,3.7321
5.0165,8742.63,408.872,9909.12,-49.8104,296.467,114.644,4593.7,2913.21,7817.33,-9.18252,-9.52528,8.8059,-1402.89,11379.2,-742.544,22.67,66.9977,299.806,-1029.59,-9728.81,-1764.75,-10.0758,-6.51634,41.2213,-4636.1,5966.86,1982.77,31.2803,172.996,75.1031,644.33,-9763.32,-1596.92,-10.6468,-28.7579,51.8859,9256.24,-1067.19,944.544,22.4128,3.7706,3.66068
5.017,8747.49,435.922,9934.03,-50.0558,296.525,114.355,4585.78,2932.1,7825.93,-9.32328,-9.59882,8.90436,-1415.61,11410.3,-746.626,22.7792,66.7158,300.348,-1031.34,-9724.92,-1760.66,-10.1108,-6.33845,41.2776,-4568.29,5934.81,1962.45,31.2944,171.202,74.4298,634.243,-9767.63,-1609.64,-10.6592,-28.5405,51.916,9270.38,-1065.02,953.871,22.1556,3.78735,3.58925
5.0175,8752.35,462.972,9958.94,-50.3012,296.582,114.065,4577.86,2950.99,7834.52,-9.46404,-9.67236,9.00282,-1428.34,11441.5,-750.707,22.8885,66.4339,300.89,-1033.09,-9721.04,-1756.57,-10.1458,-6.16056,41.3339,-4500.49,5902.77,1942.13,31.3084,169.408,73.7564,624.156,-9771.95,-1622.37,-10.6716,-28.3231,51.946,9284.52,-1062.86,963.198,21.8984,3.8041,3.51782
5.018,8765.15,487.22,9978.79,-50.5635,296.511,113.787,4565.8,2968.9,7844.49,-9.64366,-9.74409,9.09109,-1438.97,11477.8,-746.41,22.9869,66.131,301.404,-1031.88,-9720.12,-1762.37,-10.228,-6.01233,41.4106,-4433.9,5872.51,1914.71,31.4271,167.355,73.1468,620.904,-9766.95,-1626.59,-10.6741,-28.1494,52.0306,9301.49,-1064.59,972.797,21.6462,3.88087,3.48392
5.0185,8787.89,507.965,9992.3,-50.8469,296.28,113.522,4548.56,2985.59,7856.19,-9.87185,-9.81356,9.16664,-1446.98,11520.6,-731.641,23.072,65.8016,301.883,-1026.97,-9722.91,-1780.54,-10.3694,-5.90118,41.5129,-4368.82,5844.49,1878.42,31.6766,164.979,72.6169,626.196,-9750.31,-1620.18,-10.6643,-28.0304,52.1835,9322.0,-1071.2,982.735,21.4002,4.03267,3.49694
5.019,8810.63,528.709,10005.8,-51.1303,296.048,113.258,4531.32,3002.29,7867.88,-10.1,-9.88302,9.24218,-1454.99,11563.4,-716.872,23.1571,65.4723,302.362,-1022.06,-9725.7,-1798.71,-10.5107,-5.79003,41.6153,-4303.74,5816.47,1842.12,31.9261,162.603,72.087,631.487,-9733.67,-1613.77,-10.6544,-27.9114,52.3364,9342.52,-1077.8,992.673,21.1542,4.18446,3.50996
5.0195,8833.38,549.454,10019.3,-51.4137,295.817,112.993,4514.08,3018.98,7879.58,-10.3282,-9.95249,9.31773,-1463.0,11606.2,-702.103,23.2422,65.1429,302.84,-1017.15,-9728.49,-1816.88,-10.6521,-5.67888,41.7176,-4238.66,5788.45,1805.83,32.1755,160.228,71.557,636.779,-9717.02,-1607.37,-10.6445,-27.7924,52.4893,9363.03,-1084.4,1002.61,20.9082,4.33626,3.52297
5.02,8856.12,570.199,10032.8,-51.6972,295.585,112.728,4496.84,3035.68,7891.27,-10.5564,-10.022,9.39327,-1471.01,11649.0,-687.334,23.3272,64.8136,303.319,-1012.24,-9731.28,-1835.05,-10.7934,-5.56773,41.82,-4173.58,5760.43,1769.53,32.425,157.852,71.0271,642.07,-9700.38,-1600.96,-10.6347,-27.6734,52.6421,9383.55,-1091.01,1012.55,20.6622,4.48805,3.53599
5.0205,8878.86,590.943,10046.4,-51.9806,295.354,112.463,4479.6,3052.37,7902.96,-10.7846,-10.0914,9.46882,-1479.02,11691.8,-672.565,23.4123,64.4842,303.798,-1007.33,-9734.08,-1853.22,-10.9348,-5.45658,41.9223,-4108.5,5732.41,1733.24,32.6745,155.476,70.4972,647.362,-9683.74,-1594.55,-10.6248,-27.5544,52.795,9404.07,-1097.61,1022.49,20.4162,4.63985,3.549
5.021,8901.6,611.688,10059.9,-52.264,295.122,112.199,4462.36,3069.07,7914.66,-11.0128,-10.1609,9.54436,-1487.03,11734.6,-657.796,23.4974,64.1549,304.276,-1002.42,-9736.87,-1871.39,-11.0761,-5.34543,42.0246,-4043.42,5704.38,1696.94,32.924,153.1,69.9672,652.653,-9667.09,-1588.14,-10.615,-27.4354,52.9479,9424.58,-1104.21,1032.42,20.1702,4.79165,3.56202
5.0215,8924.34,632.433,10073.4,-52.5474,294.891,111.934,4445.12,3085.76,7926.35,-11.241,-10.2303,9.61991,-1495.03,11777.4,-643.027,23.5825,63.8256,304.755,-997.51,-9739.66,-1889.57,-11.2174,-5.23428,42.127,-3978.34,5676.36,1660.65,33.1734,150.724,69.4373,657.945,-9650.45,-1581.74,-10.6051,-27.3164,53.1008,9445.1,-1110.81,1042.36,19.9242,4.94344,3.57503
5.022,8947.08,653.177,10086.9,-52.8308,294.659,111.669,4427.89,3102.46,7938.05,-11.4692,-10.2998,9.69545,-1503.04,11820.2,-628.258,23.6675,63.4962,305.234,-992.6,-9742.45,-1907.74,-11.3588,-5.12313,42.2293,-3913.27,5648.34,1624.35,33.4229,148.348,68.9074,663.236,-9633.81,-1575.33,-10.5952,-27.1974,53.2536,9465.61,-1117.42,1052.3,19.6782,5.09524,3.58805
5.0225,8985.53,645.819,10092.6,-53.0934,294.408,111.345,4419.47,3112.04,7937.23,-11.6816,-10.3659,9.77675,-1494.89,11866.9,-622.496,23.7325,63.2084,305.622,-989.188,-9743.5,-1923.83,-11.4447,-5.07038,42.2966,-3846.23,5623.83,1582.57,33.8766,145.803,68.4554,667.926,-9626.73,-1577.28,-10.5516,-27.0744,53.3436,9477.74,-1128.17,1058.58,19.5522,5.19718,3.68691
5.023,9036.56,615.979,10092.0,-53.3391,294.139,110.974,4418.12,3115.94,7926.41,-11.8814,-10.4293,9.86266,-1473.8,11916.8,-623.942,23.7814,62.9537,305.938,-986.974,-9743.15,-1938.26,-11.4864,-5.06437,42.3358,-3777.63,5602.14,1536.39,34.4937,143.123,68.0658,672.133,-9627.29,-1585.91,-10.4809,-26.9484,53.3832,9483.15,-1142.23,1061.94,19.522,5.25924,3.85444
5.0235,9087.59,586.139,10091.5,-53.5849,293.871,110.603,4416.78,3119.84,7915.59,-12.0812,-10.4927,9.94857,-1452.71,11966.7,-625.387,23.8303,62.6991,306.253,-984.76,-9742.81,-1952.68,-11.528,-5.05836,42.375,-3709.03,5580.44,1490.22,35.1108,140.443,67.6762,676.341,-9627.86,-1594.53,-10.4102,-26.8224,53.4227,9488.57,-1156.29,1065.3,19.4919,5.32131,4.02197
5.024,9138.62,556.299,10091.0,-53.8307,293.603,110.232,4415.43,3123.74,7904.77,-12.2809,-10.5561,10.0345,-1431.61,12016.6,-626.832,23.8792,62.4444,306.569,-982.547,-9742.46,-1967.11,-11.5696,-5.05235,42.4142,-3640.42,5558.74,1444.04,35.7279,137.762,67.2866,680.548,-9628.43,-1603.16,-10.3395,-26.6963,53.4623,9493.98,-1170.36,1068.66,19.4618,5.38337,4.1895
5.0245,9189.65,526.459,10090.4,-54.0765,293.335,109.861,4414.08,3127.64,7893.96,-12.4807,-10.6195,10.1204,-1410.52,12066.5,-628.277,23.9281,62.1898,306.885,-980.333,-9742.12,-1981.54,-11.6113,-5.04633,42.4534,-3571.82,5537.04,1397.87,36.345,135.082,66.897,684.756,-9628.99,-1611.79,-10.2688,-26.5703,53.5019,9499.4,-1184.42,1072.02,19.4316,5.44543,4.35703
5.025,9240.67,496.619,10089.9,-54.3223,293.066,109.49,4412.73,3131.54,7883.14,-12.6805,-10.6829,10.2063,-1389.43,12116.4,-629.723,23.977,61.9351,307.201,-978.119,-9741.78,-1995.97,-11.6529,-5.04032,42.4927,-3503.22,5515.35,1351.69,36.9621,132.402,66.5074,688.963,-9629.56,-1620.42,-10.1981,-26.4442,53.5415,9504.81,-1198.49,1075.38,19.4015,5.50749,4.52456
5.0255,9291.7,466.778,10089.3,-54.5681,292.798,109.119,4411.38,3135.43,7872.32,-12.8803,-10.7463,10.2922,-1368.34,12166.3,-631.168,24.026,61.6805,307.516,-975.906,-9741.43,-2010.4,-11.6945,-5.03431,42.5319,-3434.62,5493.65,1305.52,37.5792,129.721,66.1178,693.171,-9630.13,-1629.05,-10.1274,-26.3182,53.581,9510.23,-1212.55,1078.74,19.3713,5.56955,4.6921
5.026,9342.73,436.938,10088.8,-54.8139,292.53,108.747,4410.03,3139.33,7861.5,-13.08,-10.8097,10.3781,-1347.25,12216.2,-632.613,24.0749,61.4258,307.832,-973.692,-9741.09,-2024.83,-11.7361,-5.02829,42.5711,-3366.02,5471.95,1259.34,38.1963,127.041,65.7282,697.378,-9630.69,-1637.68,-10.0567,-26.1922,53.6206,9515.64,-1226.62,1082.1,19.3412,5.63162,4.85963
5.0265,9393.76,407.098,10088.2,-55.0597,292.262,108.376,4408.68,3143.23,7850.68,-13.2798,-10.8731,10.464,-1326.16,12266.1,-634.058,24.1238,61.1712,308.148,-971.478,-9740.74,-2039.26,-11.7778,-5.02228,42.6103,-3297.41,5450.25,1213.17,38.8134,124.36,65.3386,701.586,-9631.26,-1646.3,-9.98598,-26.0661,53.6602,9521.06,-1240.68,1085.46,19.3111,5.69368,5.02716
5.027,9458.91,359.007,10098.9,-55.089,291.955,107.992,4422.66,3134.95,7846.26,-13.4213,-10.9084,10.5802,-1306.2,12326.6,-647.758,24.2229,61.0828,308.426,-979.414,-9736.84,-2062.86,-11.7407,-5.00226,42.6683,-3246.32,5433.64,1171.96,39.5582,121.513,65.0029,721.893,-9626.67,-1643.05,-9.9677,-25.946,53.6621,9529.11,-1253.91,1078.67,19.2747,5.79601,5.15329
5.0275,9531.13,301.791,10115.3,-55.01,291.629,107.601,4444.3,3120.59,7845.05,-13.5336,-10.9297,10.7114,-1286.8,12392.5,-667.585,24.3473,61.0775,308.686,-992.425,-9731.16,-2091.04,-11.6643,-4.97523,42.7357,-3203.98,5419.57,1133.25,40.3668,118.581,64.6942,750.25,-9619.5,-1633.84,-9.97563,-25.8289,53.6452,9538.47,-1266.72,1066.81,19.2353,5.91848,5.25872
5.028,9603.35,244.575,10131.7,-54.931,291.302,107.21,4465.93,3106.23,7843.84,-13.6459,-10.951,10.8427,-1267.4,12458.4,-687.411,24.4716,61.0723,308.945,-1005.44,-9725.48,-2119.23,-11.588,-4.9482,42.8031,-3161.64,5405.5,1094.53,41.1754,115.649,64.3855,778.607,-9612.33,-1624.64,-9.98356,-25.7117,53.6284,9547.84,-1279.52,1054.95,19.1958,6.04095,5.36415
5.0285,9675.57,187.359,10148.0,-54.8521,290.976,106.818,4487.57,3091.86,7842.62,-13.7583,-10.9723,10.974,-1248.0,12524.3,-707.238,24.5959,61.067,309.204,-1018.45,-9719.81,-2147.42,-11.5116,-4.92117,42.8704,-3119.3,5391.44,1055.81,41.984,112.718,64.0768,806.964,-9605.15,-1615.44,-9.99149,-25.5946,53.6115,9557.21,-1292.33,1043.09,19.1564,6.16342,5.46958
5.029,9747.79,130.142,10164.4,-54.7731,290.65,106.427,4509.21,3077.5,7841.41,-13.8706,-10.9936,11.1052,-1228.6,12590.2,-727.065,24.7202,61.0618,309.464,-1031.46,-9714.13,-2175.61,-11.4352,-4.89414,42.9378,-3076.96,5377.37,1017.1,42.7926,109.786,63.7682,835.321,-9597.98,-1606.23,-9.99942,-25.4774,53.5946,9566.57,-1305.14,1031.23,19.117,6.28589,5.57501
5.0295,9820.01,72.9261,10180.8,-54.6941,290.324,106.036,4530.85,3063.13,7840.2,-13.9829,-11.0149,11.2365,-1209.2,12656.1,-746.892,24.8445,61.0565,309.723,-1044.47,-9708.45,-2203.79,-11.3588,-4.86711,43.0052,-3034.62,5363.3,978.383,43.6012,106.855,63.4595,863.678,-9590.81,-1597.03,-10.0073,-25.3603,53.5778,9575.94,-1317.94,1019.37,19.0775,6.40836,5.68044
5.03,9892.23,15.7098,10197.1,-54.6152,289.997,105.645,4552.49,3048.77,7838.98,-14.0952,-11.0362,11.3678,-1189.8,12722.0,-766.718,24.9688,61.0513,309.983,-1057.48,-9702.77,-2231.98,-11.2824,-4.84008,43.0726,-2992.29,5349.23,939.667,44.4098,103.923,63.1508,892.035,-9583.64,-1587.83,-10.0153,-25.2431,53.5609,9585.31,-1330.75,1007.51,19.0381,6.53083,5.78587
5.0305,9964.45,-41.5064,10213.5,-54.5362,289.671,105.254,4574.13,3034.41,7837.77,-14.2076,-11.0575,11.499,-1170.4,12787.9,-786.545,25.0931,61.046,310.242,-1070.49,-9697.09,-2260.17,-11.206,-4.81305,43.1399,-2949.95,5335.16,900.951,45.2184,100.991,62.8421,920.392,-9576.47,-1578.62,-10.0232,-25.126,53.544,9594.67,-1343.55,995.651,18.9986,6.6533,5.8913
5.031,10036.7,-98.7226,10229.9,-54.4572,289.345,104.863,4595.77,3020.04,7836.56,-14.3199,-11.0789,11.6303,-1151.0,12853.9,-806.372,25.2175,61.0408,310.502,-1083.5,-9691.41,-2288.36,-11.1297,-4.78602,43.2073,-2907.61,5321.09,862.235,46.027,98.0598,62.5334,948.749,-9569.3,-1569.42,-10.0311,-25.0088,53.5271,9604.04,-1356.36,983.791,18.9592,6.77577,5.99673
5.0315,10097.9,-140.432,10283.3,-53.9688,288.955,104.611,4616.42,3012.05,7847.1,-14.4109,-11.0599,11.7675,-1146.12,12921.5,-825.761,25.3626,61.2196,310.78,-1109.09,-9682.35,-2294.72,-11.1386,-4.7814,43.2791,-2890.23,5324.47,849.025,46.7332,94.9957,62.2065,964.977,-9557.37,-1551.56,-10.0281,-24.9595,53.5296,9602.76,-1368.34,982.186,19.0524,6.82419,6.10959
5.032,10156.1,-177.711,10347.2,-53.3635,288.548,104.4,4636.79,3005.88,7861.01,-14.4958,-11.0295,11.9065,-1145.39,12989.6,-845.025,25.5138,61.451,311.063,-1138.27,-9672.32,-2294.85,-11.172,-4.78318,43.3522,-2879.98,5332.83,843.103,47.4102,91.8937,61.8744,977.741,-9544.08,-1531.22,-10.022,-24.9295,53.5377,9598.45,-1380.09,983.511,19.1836,6.85144,6.22459
5.0325,10214.2,-214.991,10411.2,-52.7582,288.14,104.188,4657.16,2999.7,7874.92,-14.5807,-10.9991,12.0454,-1144.66,13057.7,-864.29,25.665,61.6824,311.347,-1167.44,-9662.29,-2294.98,-11.2053,-4.78496,43.4253,-2869.73,5341.19,837.182,48.0872,88.7917,61.5424,990.504,-9530.79,-1510.89,-10.0158,-24.8995,53.5457,9594.13,-1391.84,984.835,19.3147,6.87869,6.33958
5.033,10272.3,-252.27,10475.1,-52.1528,287.732,103.977,4677.53,2993.53,7888.82,-14.6656,-10.9686,12.1843,-1143.93,13125.8,-883.554,25.8161,61.9139,311.63,-1196.62,-9652.26,-2295.11,-11.2387,-4.78674,43.4983,-2859.48,5349.55,831.26,48.7642,85.6897,61.2103,1003.27,-9517.5,-1490.55,-10.0097,-24.8696,53.5537,9589.81,-1403.59,986.16,19.4458,6.90594,6.45457
5.0335,10330.4,-289.549,10539.1,-51.5475,287.325,103.765,4697.9,2987.36,7902.73,-14.7505,-10.9382,12.3232,-1143.2,13193.9,-902.818,25.9673,62.1453,311.913,-1225.8,-9642.23,-2295.24,-11.272,-4.78853,43.5714,-2849.24,5357.91,825.338,49.4411,82.5877,60.8782,1016.03,-9504.21,-1470.22,-10.0035,-24.8396,53.5618,9585.5,-1415.34,987.485,19.5769,6.9332,6.56956
5.034,10388.6,-326.828,10603.0,-50.9421,286.917,103.554,4718.27,2981.19,7916.64,-14.8354,-10.9078,12.4622,-1142.47,13262.0,-922.083,26.1184,62.3767,312.197,-1254.98,-9632.2,-2295.37,-11.3054,-4.79031,43.6445,-2838.99,5366.26,819.416,50.1181,79.4858,60.5461,1028.79,-9490.92,-1449.88,-9.99736,-24.8096,53.5698,9581.18,-1427.09,988.81,19.7081,6.96045,6.68455
5.0345,10446.7,-364.107,10667.0,-50.3368,286.509,103.343,4738.64,2975.01,7930.54,-14.9203,-10.8773,12.6011,-1141.73,13330.1,-941.347,26.2696,62.6081,312.48,-1284.16,-9622.17,-2295.5,-11.3387,-4.79209,43.7175,-2828.74,5374.62,813.494,50.7951,76.3838,60.214,1041.56,-9477.63,-1429.54,-9.99122,-24.7796,53.5779,9576.86,-1438.84,990.134,19.8392,6.9877,6.79954
5.035,10504.8,-401.386,10730.9,-49.7314,286.102,103.131,4759.01,2968.84,7944.45,-15.0052,-10.8469,12.74,-1141.0,13398.3,-960.611,26.4208,62.8396,312.764,-1313.34,-9612.14,-2295.63,-11.3721,-4.79388,43.7906,-2818.49,5382.98,807.573,51.4721,73.2818,59.882,1054.32,-9464.34,-1409.21,-9.98507,-24.7497,53.5859,9572.55,-1450.58,991.459,19.9703,7.01496,6.91453
5.0355,10563.0,-438.665,10794.9,-49.1261,285.694,102.92,4779.38,2962.67,7958.35,-15.0901,-10.8165,12.879,-1140.27,13466.4,-979.875,26.5719,63.071,313.047,-1342.52,-9602.11,-2295.76,-11.4055,-4.79566,43.8637,-2808.25,5391.34,801.651,52.1491,70.1798,59.5499,1067.08,-9451.05,-1388.87,-9.97892,-24.7197,53.5939,9568.23,-1462.33,992.784,20.1015,7.04221,7.02952
5.036,10607.4,-437.012,10854.2,-48.3153,285.167,102.732,4786.31,2959.8,7961.86,-15.1864,-10.8167,12.9596,-1164.21,13543.4,-990.803,26.6701,63.3145,313.311,-1347.58,-9595.53,-2296.47,-11.3816,-4.86815,43.964,-2844.84,5403.23,782.476,52.6942,67.0205,59.1914,1110.81,-9433.07,-1390.48,-10.0781,-24.6845,53.6145,9567.26,-1480.28,1005.31,20.3638,7.0093,7.13341
5.0365,10650.2,-430.493,10912.9,-47.4789,284.625,102.547,4791.55,2957.34,7964.07,-15.2842,-10.8208,13.033,-1191.24,13621.5,-1000.69,26.7616,63.5595,313.573,-1349.61,-9589.39,-2297.26,-11.3506,-4.94948,44.0676,-2887.28,5415.57,761.645,53.2229,63.8539,58.8297,1158.41,-9414.5,-1394.84,-10.1905,-24.6486,53.6365,9566.71,-1499.0,1019.23,20.6425,6.96887,7.23591
5.037,10692.9,-423.974,10971.6,-46.6425,284.083,102.361,4796.79,2954.89,7966.27,-15.382,-10.8248,13.1063,-1218.26,13699.6,-1010.57,26.8532,63.8045,313.835,-1351.65,-9583.24,-2298.04,-11.3197,-5.03082,44.1713,-2929.73,5427.9,740.814,53.7516,60.6874,58.468,1206.0,-9395.94,-1399.19,-10.3029,-24.6128,53.6586,9566.17,-1517.73,1033.16,20.9213,6.92844,7.3384
5.0375,10735.7,-417.454,11030.3,-45.8061,283.541,102.176,4802.04,2952.43,7968.48,-15.4798,-10.8289,13.1797,-1245.28,13777.8,-1020.46,26.9447,64.0495,314.097,-1353.68,-9577.1,-2298.83,-11.2887,-5.11215,44.275,-2972.17,5440.23,719.982,54.2803,57.5209,58.1062,1253.6,-9377.37,-1403.54,-10.4153,-24.5769,53.6807,9565.62,-1536.45,1047.08,21.2,6.88801,7.4409
5.038,10778.5,-410.935,11089.0,-44.9697,282.999,101.991,4807.28,2949.97,7970.69,-15.5775,-10.8329,13.253,-1272.31,13855.9,-1030.34,27.0362,64.2945,314.359,-1355.72,-9570.95,-2299.62,-11.2577,-5.19348,44.3787,-3014.61,5452.57,699.151,54.8091,54.3543,57.7445,1301.2,-9358.81,-1407.9,-10.5277,-24.541,53.7028,9565.07,-1555.18,1061.01,21.4787,6.84758,7.5434
5.0385,10821.2,-404.415,11147.8,-44.1333,282.457,101.806,4812.52,2947.52,7972.89,-15.6753,-10.837,13.3264,-1299.33,13934.0,-1040.23,27.1278,64.5395,314.621,-1357.76,-9564.81,-2300.4,-11.2267,-5.27482,44.4824,-3057.06,5464.9,678.32,55.3378,51.1878,57.3827,1348.79,-9340.24,-1412.25,-10.6401,-24.5052,53.7249,9564.52,-1573.9,1074.93,21.7575,6.80715,7.64589
5.039,10864.0,-397.896,11206.5,-43.2968,281.915,101.621,4817.77,2945.06,7975.1,-15.7731,-10.8411,13.3997,-1326.36,14012.2,-1050.11,27.2193,64.7845,314.883,-1359.79,-9558.66,-2301.19,-11.1957,-5.35615,44.586,-3099.5,5477.23,657.489,55.8665,48.0213,57.021,1396.39,-9321.68,-1416.6,-10.7525,-24.4693,53.747,9563.97,-1592.62,1088.86,22.0362,6.76672,7.74839
5.0395,10906.7,-391.377,11265.2,-42.4604,281.374,101.436,4823.01,2942.61,7977.3,-15.8709,-10.8451,13.4731,-1353.38,14090.3,-1060.0,27.3109,65.0295,315.145,-1361.83,-9552.52,-2301.98,-11.1648,-5.43748,44.6897,-3141.95,5489.56,636.658,56.3952,44.8547,56.6593,1443.99,-9303.11,-1420.96,-10.8649,-24.4335,53.7691,9563.43,-1611.35,1102.78,22.3149,6.72629,7.85089
5.04,10949.5,-384.857,11323.9,-41.624,280.832,101.251,4828.25,2940.15,7979.51,-15.9687,-10.8492,13.5464,-1380.4,14168.4,-1069.88,27.4024,65.2745,315.407,-1363.86,-9546.37,-2302.76,-11.1338,-5.51881,44.7934,-3184.39,5501.9,615.826,56.9239,41.6882,56.2975,1491.58,-9284.55,-1425.31,-10.9773,-24.3976,53.7912,9562.88,-1630.07,1116.71,22.5937,6.68586,7.95338
5.0405,10991.5,-344.308,11360.5,-41.0221,280.062,101.052,4826.87,2930.9,7975.96,-16.0449,-10.8615,13.5992,-1422.19,14258.8,-1063.05,27.426,65.3865,315.679,-1378.67,-9551.8,-2302.45,-11.0893,-5.60534,44.8882,-3255.94,5541.93,591.192,57.2318,38.5486,55.7932,1514.2,-9297.62,-1425.01,-11.0955,-24.3831,53.8362,9552.69,-1618.5,1111.69,22.7148,6.61242,8.1307
5.041,11033.5,-303.758,11397.1,-40.4202,279.293,100.853,4825.49,2921.65,7972.41,-16.1212,-10.8739,13.6519,-1463.97,14349.1,-1056.21,27.4497,65.4986,315.951,-1393.47,-9557.23,-2302.14,-11.0448,-5.69187,44.983,-3327.49,5581.97,566.557,57.5397,35.4089,55.289,1536.83,-9310.7,-1424.71,-11.2137,-24.3686,53.8811,9542.51,-1606.94,1106.68,22.8359,6.53897,8.30803
5.0415,11075.4,-263.209,11433.7,-39.8184,278.524,100.655,4824.11,2912.4,7968.86,-16.1974,-10.8863,13.7047,-1505.76,14439.5,-1049.38,27.4733,65.6107,316.223,-1408.27,-9562.66,-2301.83,-11.0002,-5.77839,45.0778,-3399.04,5622.01,541.922,57.8477,32.2692,54.7847,1559.45,-9323.78,-1424.41,-11.3319,-24.3541,53.9261,9532.32,-1595.37,1101.67,22.9571,6.46553,8.48535
5.042,11117.4,-222.66,11470.3,-39.2165,277.755,100.456,4822.73,2903.15,7965.31,-16.2736,-10.8987,13.7574,-1547.54,14529.8,-1042.54,27.4969,65.7228,316.495,-1423.07,-9568.09,-2301.52,-10.9557,-5.86492,45.1725,-3470.59,5662.04,517.288,58.1556,29.1296,54.2804,1582.07,-9336.85,-1424.1,-11.4501,-24.3396,53.9711,9522.14,-1583.8,1096.65,23.0782,6.39209,8.66267
5.0425,11159.4,-182.11,11506.9,-38.6146,276.986,100.258,4821.34,2893.9,7961.77,-16.3499,-10.911,13.8102,-1589.33,14620.1,-1035.7,27.5206,65.8349,316.768,-1437.88,-9573.52,-2301.2,-10.9112,-5.95145,45.2673,-3542.14,5702.08,492.653,58.4636,25.9899,53.7761,1604.69,-9349.93,-1423.8,-11.5682,-24.3251,54.016,9511.95,-1572.23,1091.64,23.1993,6.31865,8.84
5.043,11201.4,-141.561,11543.6,-38.0127,276.217,100.059,4819.96,2884.64,7958.22,-16.4261,-10.9234,13.8629,-1631.11,14710.5,-1028.87,27.5442,65.9469,317.04,-1452.68,-9578.95,-2300.89,-10.8667,-6.03797,45.3621,-3613.68,5742.12,468.019,58.7715,22.8503,53.2718,1627.32,-9363.0,-1423.5,-11.6864,-24.3106,54.061,9501.77,-1560.66,1086.63,23.3204,6.2452,9.01732
5.0435,11243.4,-101.011,11580.2,-37.4108,275.448,99.8603,4818.58,2875.39,7954.67,-16.5024,-10.9358,13.9157,-1672.9,14800.8,-1022.03,27.5678,66.059,317.312,-1467.48,-9584.37,-2300.58,-10.8222,-6.1245,45.4569,-3685.23,5782.15,443.384,59.0794,19.7106,52.7675,1649.94,-9376.08,-1423.2,-11.8046,-24.2961,54.106,9491.58,-1549.1,1081.62,23.4416,6.17176,9.19464
5.044,11285.4,-60.462,11616.8,-36.8089,274.678,99.6617,4817.2,2866.14,7951.12,-16.5786,-10.9481,13.9684,-1714.68,14891.2,-1015.2,27.5915,66.1711,317.584,-1482.28,-9589.8,-2300.27,-10.7777,-6.21103,45.5517,-3756.78,5822.19,418.749,59.3874,16.571,52.2632,1672.56,-9389.16,-1422.9,-11.9228,-24.2816,54.1509,9481.39,-1537.53,1076.6,23.5627,6.09832,9.37197
5.0445,11328.7,-16.5256,11653.0,-36.247,273.907,99.4823,4815.83,2858.11,7947.64,-16.6489,-10.9594,14.0276,-1757.93,14982.4,-1006.89,27.6046,66.2594,317.85,-1496.19,-9594.35,-2298.79,-10.7393,-6.29924,45.646,-3828.73,5864.23,393.092,59.6639,13.4439,51.7299,1694.15,-9399.81,-1423.04,-12.041,-24.2634,54.1872,9469.95,-1529.16,1073.53,23.6758,6.03216,9.53664
5.045,11383.3,54.5075,11686.2,-36.0048,273.114,99.457,4814.54,2859.83,7944.71,-16.6712,-10.9615,14.138,-1812.94,15080.1,-986.849,27.5336,66.1572,318.068,-1502.95,-9591.89,-2288.0,-10.7502,-6.40091,45.737,-3903.93,5922.34,359.255,59.6886,10.4172,50.964,1707.45,-9391.12,-1426.73,-12.1591,-24.2147,54.1538,9448.43,-1546.35,1085.99,23.7254,6.02425,9.60006
5.0455,11437.9,125.54,11719.3,-35.7625,272.321,99.4317,4813.26,2861.54,7941.78,-16.6936,-10.9637,14.2485,-1867.94,15177.9,-966.806,27.4626,66.055,318.286,-1509.71,-9589.42,-2277.2,-10.7612,-6.50258,45.8281,-3979.12,5980.44,325.418,59.7133,7.39052,50.1982,1720.76,-9382.42,-1430.43,-12.2773,-24.166,54.1204,9426.92,-1563.55,1098.46,23.7749,6.01634,9.66348
5.046,11492.5,196.574,11752.5,-35.5203,271.528,99.4064,4811.97,2863.26,7938.86,-16.7159,-10.9659,14.3589,-1922.95,15275.7,-946.763,27.3915,65.9528,318.504,-1516.48,-9586.95,-2266.4,-10.7721,-6.60425,45.9191,-4054.32,6038.55,291.581,59.738,4.36384,49.4323,1734.07,-9373.72,-1434.12,-12.3955,-24.1174,54.087,9405.4,-1580.75,1110.92,23.8245,6.00844,9.7269
5.0465,11547.0,267.607,11785.7,-35.2781,270.735,99.3811,4810.69,2864.98,7935.93,-16.7382,-10.968,14.4694,-1977.95,15373.4,-926.72,27.3205,65.8507,318.722,-1523.24,-9584.49,-2255.61,-10.7831,-6.70592,46.0101,-4129.51,6096.65,257.744,59.7627,1.33715,48.6665,1747.38,-9365.02,-1437.82,-12.5137,-24.0687,54.0535,9383.89,-1597.95,1123.38,23.874,6.00053,9.79033
5.047,11601.6,338.64,11818.8,-35.0358,269.942,99.3558,4809.4,2866.69,7933.0,-16.7606,-10.9702,14.5798,-2032.96,15471.2,-906.677,27.2495,65.7485,318.94,-1530.0,-9582.02,-2244.81,-10.7941,-6.80759,46.1011,-4204.71,6154.75,223.907,59.7874,-1.68954,47.9007,1760.68,-9356.32,-1441.51,-12.6319,-24.02,54.0201,9362.37,-1615.15,1135.84,23.9236,5.99262,9.85375
5.0475,11656.2,409.673,11852.0,-34.7936,269.149,99.3305,4808.12,2868.41,7930.07,-16.7829,-10.9724,14.6903,-2087.96,15569.0,-886.634,27.1785,65.6463,319.158,-1536.76,-9579.55,-2234.02,-10.805,-6.90927,46.1921,-4279.9,6212.86,190.071,59.8121,-4.71622,47.1348,1773.99,-9347.62,-1445.21,-12.75,-23.9714,53.9867,9340.86,-1632.34,1148.3,23.9731,5.98471,9.91717
5.048,11710.8,480.706,11885.1,-34.5514,268.356,99.3052,4806.84,2870.13,7927.14,-16.8053,-10.9745,14.8007,-2142.97,15666.7,-866.591,27.1075,65.5441,319.376,-1543.53,-9577.09,-2223.22,-10.816,-7.01094,46.2832,-4355.1,6270.96,156.234,59.8368,-7.74291,46.369,1787.3,-9338.92,-1448.9,-12.8682,-23.9227,53.9533,9319.34,-1649.54,1160.76,24.0227,5.97681,9.98059
5.0485,11765.3,551.739,11918.3,-34.3091,267.563,99.2799,4805.55,2871.84,7924.22,-16.8276,-10.9767,14.9112,-2197.97,15764.5,-846.548,27.0365,65.4419,319.594,-1550.29,-9574.62,-2212.43,-10.8269,-7.11261,46.3742,-4430.29,6329.07,122.397,59.8615,-10.7696,45.6031,1800.6,-9330.22,-1452.6,-12.9864,-23.8741,53.9199,9297.82,-1666.74,1173.23,24.0722,5.9689,10.044
5.049,11827.1,619.329,11950.0,-34.0782,266.799,99.2634,4805.28,2875.53,7920.37,-16.8553,-10.9809,15.0239,-2255.82,15862.2,-823.989,26.9442,65.2729,319.797,-1558.1,-9573.82,-2202.06,-10.828,-7.21101,46.4772,-4510.52,6384.76,83.0697,59.8187,-13.6876,44.8097,1811.37,-9325.78,-1456.69,-13.0976,-23.8241,53.8883,9274.81,-1678.97,1180.4,24.1182,5.96013,10.1051
5.0495,11913.9,674.87,11976.3,-33.887,266.133,99.2779,4808.57,2886.09,7913.31,-16.9019,-10.9919,15.1444,-2323.62,15959.5,-792.624,26.7778,64.8701,319.944,-1569.58,-9578.88,-2193.2,-10.7949,-7.29797,46.6225,-4608.35,6432.03,24.5277,59.5396,-16.2253,43.9198,1813.27,-9336.26,-1462.14,-13.1843,-23.7697,53.8634,9246.58,-1673.79,1169.04,24.1518,5.94833,10.1578
5.05,12000.8,730.412,12002.7,-33.6958,265.467,99.2924,4811.86,2896.65,7906.25,-16.9485,-11.003,15.265,-2391.43,16056.8,-761.26,26.6114,64.4672,320.091,-1581.07,-9583.93,-2184.35,-10.7617,-7.38493,46.7677,-4706.18,6479.3,-34.0143,59.2604,-18.7631,43.0299,1815.16,-9346.74,-1467.6,-13.271,-23.7153,53.8385,9218.35,-1668.62,1157.69,24.1854,5.93654,10.2105
5.0505,12087.7,785.953,12029.1,-33.5046,264.801,99.3069,4815.14,2907.22,7899.18,-16.9951,-11.014,15.3856,-2459.23,16154.1,-729.895,26.4451,64.0643,320.238,-1592.55,-9588.99,-2175.49,-10.7285,-7.47189,46.9129,-4804.01,6526.56,-92.5563,58.9813,-21.3008,42.14,1817.05,-9357.22,-1473.05,-13.3577,-23.661,53.8135,9190.12,-1663.44,1146.33,24.219,5.92475,10.2632
5.051,12174.5,841.494,12055.5,-33.3134,264.135,99.3213,4818.43,2917.78,7892.12,-17.0417,-11.0251,15.5061,-2527.04,16251.4,-698.53,26.2787,63.6615,320.386,-1604.03,-9594.04,-2166.63,-10.6953,-7.55885,47.0581,-4901.84,6573.83,-151.098,58.7022,-23.8385,41.2501,1818.95,-9367.7,-1478.51,-13.4444,-23.6066,53.7886,9161.89,-1658.27,1134.98,24.2527,5.91295,10.3159
5.0515,12261.4,897.036,12081.9,-33.1222,263.47,99.3358,4821.72,2928.35,7885.06,-17.0883,-11.0362,15.6267,-2594.84,16348.7,-667.165,26.1123,63.2586,320.533,-1615.52,-9599.1,-2157.78,-10.6621,-7.64581,47.2033,-4999.67,6621.1,-209.64,58.4231,-26.3762,40.3602,1820.84,-9378.17,-1483.96,-13.5311,-23.5522,53.7636,9133.66,-1653.09,1123.63,24.2863,5.90116,10.3686
5.052,12348.2,952.577,12108.3,-32.931,262.804,99.3503,4825.0,2938.91,7878.0,-17.1349,-11.0472,15.7473,-2662.64,16446.0,-635.8,25.9459,62.8557,320.68,-1627.0,-9604.15,-2148.92,-10.6289,-7.73277,47.3485,-5097.5,6668.37,-268.182,58.1439,-28.914,39.4703,1822.73,-9388.65,-1489.42,-13.6178,-23.4978,53.7387,9105.42,-1647.92,1112.27,24.3199,5.88937,10.4213
5.0525,12435.1,1008.12,12134.6,-32.7398,262.138,99.3647,4828.29,2949.47,7870.94,-17.1815,-11.0583,15.8678,-2730.45,16543.3,-604.435,25.7795,62.4528,320.828,-1638.48,-9609.21,-2140.06,-10.5957,-7.81973,47.4937,-5195.33,6715.63,-326.724,57.8648,-31.4517,38.5804,1824.63,-9399.13,-1494.87,-13.7045,-23.4434,53.7137,9077.19,-1642.74,1100.92,24.3535,5.87758,10.474
5.053,12522.0,1063.66,12161.0,-32.5486,261.472,99.3792,4831.58,2960.04,7863.88,-17.2281,-11.0693,15.9884,-2798.25,16640.6,-573.071,25.6131,62.05,320.975,-1649.96,-9614.26,-2131.2,-10.5626,-7.90669,47.6389,-5293.16,6762.9,-385.266,57.5857,-33.9894,37.6905,1826.52,-9409.61,-1500.33,-13.7912,-23.389,53.6888,9048.96,-1637.57,1089.57,24.3871,5.86578,10.5267
5.0535,12615.4,1113.38,12182.8,-32.3532,260.824,99.3487,4836.19,2964.76,7859.81,-17.2847,-11.0721,16.1011,-2866.65,16735.7,-548.171,25.4337,61.591,321.125,-1647.66,-9615.64,-2123.68,-10.5511,-7.98857,47.7809,-5386.86,6811.46,-440.985,57.2442,-36.2422,36.7841,1828.84,-9416.95,-1505.86,-13.8531,-23.3349,53.665,9023.29,-1631.52,1078.66,24.3769,5.86313,10.5506
5.054,12722.0,1151.47,12195.4,-32.1494,260.213,99.2284,4843.43,2957.79,7861.74,-17.3612,-11.0582,16.1982,-2936.25,16826.4,-536.202,25.2286,61.0198,321.279,-1617.77,-9609.67,-2118.82,-10.5829,-8.06027,47.9165,-5472.29,6862.62,-491.056,56.7782,-37.9249,35.8447,1832.0,-9418.01,-1511.56,-13.8654,-23.2812,53.6435,9002.76,-1623.74,1068.64,24.2788,5.87878,10.5168
5.0545,12828.6,1189.56,12208.1,-31.9456,259.602,99.1081,4850.68,2950.83,7863.67,-17.4377,-11.0443,16.2952,-3005.85,16917.1,-524.233,25.0234,60.4486,321.434,-1587.88,-9603.7,-2113.96,-10.6148,-8.13197,48.0521,-5557.73,6913.77,-541.127,56.3121,-39.6077,34.9054,1835.16,-9419.08,-1517.25,-13.8777,-23.2275,53.622,8982.23,-1615.95,1058.63,24.1808,5.89442,10.483
5.055,12935.2,1227.65,12220.7,-31.7419,258.99,98.9878,4857.93,2943.86,7865.6,-17.5142,-11.0304,16.3923,-3075.45,17007.8,-512.264,24.8182,59.8774,321.589,-1557.99,-9597.73,-2109.1,-10.6467,-8.20367,48.1876,-5643.17,6964.93,-591.198,55.846,-41.2905,33.966,1838.32,-9420.14,-1522.94,-13.89,-23.1738,53.6005,8961.7,-1608.17,1048.62,24.0828,5.91007,10.4492
5.0555,13041.8,1265.74,12233.3,-31.5381,258.379,98.8675,4865.17,2936.9,7867.53,-17.5907,-11.0165,16.4893,-3145.04,17098.5,-500.294,24.613,59.3062,321.744,-1528.11,-9591.76,-2104.25,-10.6786,-8.27538,48.3232,-5728.6,7016.08,-641.27,55.3799,-42.9733,33.0266,1841.48,-9421.21,-1528.64,-13.9023,-23.1201,53.579,8941.17,-1600.38,1038.6,23.9847,5.92571,10.4153
5.056,13148.4,1303.83,12245.9,-31.3344,257.768,98.7472,4872.42,2929.93,7869.46,-17.6672,-11.0026,16.5864,-3214.64,17189.2,-488.325,24.4078,58.735,321.899,-1498.22,-9585.79,-2099.39,-10.7105,-8.34708,48.4587,-5814.04,7067.23,-691.341,54.9139,-44.6561,32.0873,1844.64,-9422.28,-1534.33,-13.9146,-23.0664,53.5575,8920.64,-1592.6,1028.59,23.8867,5.94135,10.3815
5.0565,13255.0,1341.92,12258.5,-31.1306,257.156,98.6269,4879.67,2922.96,7871.39,-17.7437,-10.9888,16.6834,-3284.24,17279.9,-476.356,24.2027,58.1638,322.054,-1468.33,-9579.81,-2094.53,-10.7424,-8.41878,48.5943,-5899.47,7118.39,-741.412,54.4478,-46.3389,31.1479,1847.8,-9423.34,-1540.02,-13.9269,-23.0127,53.536,8900.11,-1584.81,1018.57,23.7887,5.957,10.3477
5.057,13361.6,1380.01,12271.2,-30.9268,256.545,98.5066,4886.92,2916.0,7873.32,-17.8202,-10.9749,16.7804,-3353.84,17370.5,-464.387,23.9975,57.5926,322.209,-1438.44,-9573.84,-2089.67,-10.7743,-8.49048,48.7299,-5984.91,7169.54,-791.484,53.9817,-48.0217,30.2085,1850.96,-9424.41,-1545.72,-13.9392,-22.959,53.5145,8879.58,-1577.03,1008.56,23.6906,5.97264,10.3139
5.0575,13468.2,1418.09,12283.8,-30.7231,255.934,98.3863,4894.16,2909.03,7875.25,-17.8967,-10.961,16.8775,-3423.43,17461.2,-452.418,23.7923,57.0214,322.364,-1408.55,-9567.87,-2084.81,-10.8062,-8.56219,48.8654,-6070.34,7220.7,-841.555,53.5156,-49.7045,29.2692,1854.12,-9425.47,-1551.41,-13.9515,-22.9053,53.493,8859.04,-1569.24,998.546,23.5926,5.98828,10.2801
5.058,13571.6,1459.54,12303.4,-30.45,255.354,98.2218,4901.44,2897.09,7881.74,-17.9576,-10.9441,16.9651,-3492.85,17549.0,-440.657,23.5911,56.3994,322.505,-1394.08,-9567.5,-2086.74,-10.8425,-8.57718,49.0138,-6140.65,7272.39,-861.437,53.0181,-51.0263,28.3528,1852.59,-9430.56,-1556.81,-14.0144,-22.8928,53.468,8834.88,-1565.38,991.185,23.4908,6.04121,10.2585
5.0585,13671.0,1505.18,12331.8,-30.0905,254.816,98.0021,4908.76,2878.94,7893.93,-17.999,-10.9234,17.0411,-3562.05,17633.1,-429.157,23.395,55.714,322.629,-1398.87,-9574.14,-2097.17,-10.8845,-8.5213,49.1783,-6192.05,7324.75,-843.582,52.4812,-51.8969,27.4653,1845.21,-9440.67,-1561.85,-14.1406,-22.9319,53.4386,8806.18,-1566.42,987.143,23.3842,6.14075,10.2524
5.059,13770.5,1550.81,12360.2,-29.7309,254.277,97.7825,4916.07,2860.78,7906.12,-18.0404,-10.9027,17.117,-3631.25,17717.2,-417.657,23.1988,55.0286,322.753,-1403.66,-9580.77,-2107.59,-10.9266,-8.46542,49.3428,-6243.45,7377.1,-825.727,51.9443,-52.7676,26.5778,1837.83,-9450.77,-1566.88,-14.2668,-22.9709,53.4092,8777.48,-1567.46,983.101,23.2775,6.24028,10.2462
5.0595,13869.9,1596.45,12388.6,-29.3713,253.738,97.5628,4923.39,2842.63,7918.31,-18.0818,-10.882,17.1929,-3700.45,17801.4,-406.157,23.0026,54.3431,322.877,-1408.46,-9587.4,-2118.01,-10.9686,-8.40954,49.5074,-6294.84,7429.46,-807.872,51.4074,-53.6382,25.6903,1830.44,-9460.88,-1571.92,-14.3929,-23.0099,53.3798,8748.78,-1568.5,979.058,23.1709,6.33982,10.24
5.06,13969.4,1642.09,12417.0,-29.0117,253.199,97.3431,4930.7,2824.47,7930.51,-18.1232,-10.8613,17.2689,-3769.65,17885.5,-394.658,22.8064,53.6577,323.001,-1413.25,-9594.04,-2128.44,-11.0106,-8.35366,49.6719,-6346.24,7481.82,-790.017,50.8705,-54.5088,24.8028,1823.06,-9470.99,-1576.95,-14.5191,-23.049,53.3504,8720.08,-1569.53,975.016,23.0643,6.43935,10.2339
5.0605,14068.8,1687.73,12445.4,-28.6521,252.661,97.1234,4938.02,2806.32,7942.7,-18.1646,-10.8406,17.3448,-3838.85,17969.6,-383.158,22.6103,52.9723,323.125,-1418.04,-9600.67,-2138.86,-11.0526,-8.29778,49.8364,-6397.64,7534.18,-772.162,50.3337,-55.3794,23.9152,1815.68,-9481.1,-1581.99,-14.6453,-23.088,53.321,8691.38,-1570.57,970.973,22.9577,6.53889,10.2277
5.061,14168.3,1733.37,12473.8,-28.2925,252.122,96.9038,4945.33,2788.16,7954.89,-18.206,-10.8199,17.4207,-3908.05,18053.7,-371.658,22.4141,52.2868,323.249,-1422.84,-9607.3,-2149.29,-11.0946,-8.2419,50.0009,-6449.03,7586.54,-754.307,49.7968,-56.25,23.0277,1808.29,-9491.21,-1587.02,-14.7714,-23.1271,53.2916,8662.68,-1571.61,966.931,22.8511,6.63842,10.2215
5.0615,14267.7,1779.0,12502.2,-27.933,251.583,96.6841,4952.65,2770.0,7967.09,-18.2474,-10.7992,17.4966,-3977.25,18137.8,-360.158,22.2179,51.6014,323.372,-1427.63,-9613.93,-2159.71,-11.1366,-8.18602,50.1654,-6500.43,7638.9,-736.452,49.2599,-57.1206,22.1402,1800.91,-9501.31,-1592.05,-14.8976,-23.1661,53.2622,8633.98,-1572.65,962.889,22.7445,6.73796,10.2153
5.062,14367.1,1824.64,12530.6,-27.5734,251.044,96.4644,4959.97,2751.85,7979.28,-18.2889,-10.7784,17.5726,-4046.45,18222.0,-348.658,22.0218,50.9159,323.496,-1432.42,-9620.57,-2170.13,-11.1786,-8.13014,50.3299,-6551.83,7691.25,-718.597,48.723,-57.9912,21.2527,1793.53,-9511.42,-1597.09,-15.0238,-23.2052,53.2328,8605.28,-1573.69,958.846,22.6379,6.83749,10.2092
5.0625,14464.9,1865.66,12545.4,-27.2438,250.515,96.1976,4962.45,2740.88,7984.84,-18.3418,-10.7636,17.6484,-4113.04,18295.4,-340.481,21.811,50.157,323.56,-1440.86,-9619.12,-2171.95,-11.1885,-8.13072,50.4928,-6584.55,7732.08,-707.189,48.1992,-58.3473,20.4697,1789.57,-9507.31,-1598.37,-15.0659,-23.2594,53.2372,8582.51,-1571.43,957.568,22.5936,6.93567,10.1707
5.063,14561.3,1903.0,12549.4,-26.9382,249.992,95.8931,4961.06,2735.67,7985.1,-18.404,-10.7535,17.7242,-4177.55,18360.3,-334.963,21.5886,49.3392,323.574,-1452.22,-9611.21,-2166.88,-11.1726,-8.17647,50.6544,-6602.32,7763.68,-700.939,47.6859,-58.2917,19.7702,1788.36,-9491.83,-1596.64,-15.0407,-23.3257,53.2686,8564.49,-1566.54,958.502,22.5991,7.03277,10.1064
5.0635,14657.7,1940.33,12553.3,-26.6326,249.47,95.5886,4959.67,2730.46,7985.35,-18.4662,-10.7434,17.8,-4242.06,18425.3,-329.445,21.3662,48.5215,323.589,-1463.58,-9603.3,-2161.8,-11.1567,-8.22223,50.816,-6620.09,7795.28,-694.689,47.1725,-58.2362,19.0708,1787.14,-9476.36,-1594.91,-15.0155,-23.392,53.2999,8546.46,-1561.65,959.436,22.6046,7.12987,10.042
5.064,14754.0,1977.66,12557.3,-26.327,248.948,95.2841,4958.29,2725.25,7985.61,-18.5284,-10.7333,17.8758,-4306.56,18490.2,-323.927,21.1438,47.7037,323.603,-1474.94,-9595.39,-2156.73,-11.1408,-8.26798,50.9776,-6637.87,7826.88,-688.439,46.6592,-58.1806,18.3714,1785.93,-9460.88,-1593.19,-14.9904,-23.4583,53.3313,8528.44,-1556.76,960.369,22.6101,7.22696,9.97771
5.0645,14850.4,2014.99,12561.2,-26.0214,248.425,94.9796,4956.9,2720.03,7985.87,-18.5906,-10.7232,17.9516,-4371.07,18555.1,-318.409,20.9214,46.8859,323.618,-1486.3,-9587.49,-2151.66,-11.125,-8.31373,51.1392,-6655.64,7858.48,-682.19,46.1459,-58.125,17.672,1784.72,-9445.4,-1591.46,-14.9652,-23.5246,53.3627,8510.42,-1551.86,961.303,22.6157,7.32406,9.91338
5.065,14946.8,2052.32,12565.2,-25.7158,247.903,94.6751,4955.52,2714.82,7986.12,-18.6528,-10.7132,18.0273,-4435.57,18620.0,-312.891,20.6989,46.0682,323.633,-1497.66,-9579.58,-2146.59,-11.1091,-8.35949,51.3008,-6673.41,7890.08,-675.94,45.6325,-58.0694,16.9726,1783.5,-9429.92,-1589.74,-14.9401,-23.5909,53.3941,8492.4,-1546.97,962.237,22.6212,7.42116,9.84905
5.0655,15043.2,2089.65,12569.1,-25.4102,247.381,94.3706,4954.13,2709.61,7986.38,-18.715,-10.7031,18.1031,-4500.08,18684.9,-307.373,20.4765,45.2504,323.647,-1509.02,-9571.67,-2141.51,-11.0932,-8.40524,51.4624,-6691.19,7921.68,-669.69,45.1192,-58.0139,16.2732,1782.29,-9414.44,-1588.01,-14.9149,-23.6573,53.4254,8474.38,-1542.08,963.17,22.6267,7.51825,9.78473
5.066,15139.6,2126.98,12573.1,-25.1046,246.858,94.066,4952.75,2704.4,7986.64,-18.7772,-10.693,18.1789,-4564.59,18749.9,-301.855,20.2541,44.4326,323.662,-1520.38,-9563.76,-2136.44,-11.0773,-8.451,51.624,-6708.96,7953.28,-663.44,44.6058,-57.9583,15.5738,1781.07,-9398.96,-1586.28,-14.8898,-23.7236,53.4568,8456.35,-1537.19,964.104,22.6322,7.61535,9.7204
5.0665,15236.0,2164.31,12577.0,-24.799,246.336,93.7615,4951.36,2699.18,7986.89,-18.8394,-10.6829,18.2547,-4629.09,18814.8,-296.337,20.0317,43.6149,323.676,-1531.74,-9555.85,-2131.37,-11.0615,-8.49675,51.7856,-6726.73,7984.88,-657.19,44.0925,-57.9027,14.8744,1779.86,-9383.48,-1584.56,-14.8646,-23.7899,53.4882,8438.33,-1532.29,965.038,22.6377,7.71245,9.65607
5.067,15332.0,2196.49,12584.7,-24.5118,245.827,93.3481,4946.9,2699.46,7982.38,-18.9062,-10.6487,18.3073,-4686.42,18881.7,-293.409,19.8191,42.747,323.61,-1543.21,-9547.33,-2126.31,-11.0772,-8.49242,51.9337,-6716.72,8012.57,-651.055,43.5358,-57.3065,14.2442,1767.0,-9373.88,-1578.41,-14.8658,-23.8411,53.5137,8417.13,-1534.28,960.7,22.5307,7.7751,9.59525
5.0675,15427.8,2226.09,12594.3,-24.2339,245.325,92.8803,4940.91,2702.47,7975.49,-18.9752,-10.6026,18.3483,-4740.15,18949.7,-291.776,19.6114,41.8541,323.502,-1554.75,-9538.5,-2121.27,-11.1087,-8.46304,52.075,-6692.82,8038.3,-644.978,42.9575,-56.44,13.6486,1748.31,-9367.22,-1570.07,-14.8802,-23.8848,53.5364,8394.33,-1539.71,953.726,22.3675,7.82052,9.53618
5.068,15523.6,2255.69,12603.9,-23.956,244.823,92.4125,4934.91,2705.49,7968.59,-19.0442,-10.5564,18.3892,-4793.88,19017.6,-290.143,19.4037,40.9612,323.395,-1566.29,-9529.68,-2116.22,-11.1403,-8.43366,52.2164,-6668.92,8064.03,-638.901,42.3792,-55.5734,13.0529,1729.62,-9360.56,-1561.72,-14.8945,-23.9284,53.559,8371.53,-1545.14,946.752,22.2043,7.86595,9.47711
5.0685,15619.4,2285.29,12613.5,-23.6781,244.321,91.9447,4928.92,2708.5,7961.7,-19.1133,-10.5103,18.4302,-4847.61,19085.5,-288.51,19.1961,40.0683,323.287,-1577.83,-9520.85,-2111.17,-11.1718,-8.40428,52.3577,-6645.01,8089.76,-632.824,41.8008,-54.7069,12.4573,1710.94,-9353.9,-1553.37,-14.9089,-23.9721,53.5816,8348.73,-1550.56,939.778,22.0411,7.91138,9.41803
5.069,15715.2,2314.89,12623.1,-23.4001,243.819,91.4768,4922.92,2711.52,7954.8,-19.1823,-10.4641,18.4712,-4901.34,19153.5,-286.877,18.9884,39.1754,323.18,-1589.37,-9512.03,-2106.12,-11.2034,-8.37491,52.499,-6621.11,8115.49,-626.746,41.2225,-53.8404,11.8617,1692.25,-9347.24,-1545.02,-14.9232,-24.0157,53.6043,8325.93,-1555.99,932.804,21.8778,7.9568,9.35896
5.0695,15811.1,2344.49,12632.7,-23.1222,243.317,91.009,4916.93,2714.53,7947.91,-19.2513,-10.418,18.5121,-4955.07,19221.4,-285.244,18.7807,38.2825,323.072,-1600.9,-9503.21,-2101.08,-11.2349,-8.34553,52.6404,-6597.2,8141.21,-620.669,40.6441,-52.9738,11.2661,1673.56,-9340.58,-1536.67,-14.9376,-24.0594,53.6269,8303.14,-1561.42,925.83,21.7146,8.00223,9.29989
5.07,15906.9,2374.09,12642.3,-22.8443,242.815,90.5412,4910.94,2717.55,7941.01,-19.3204,-10.3718,18.5531,-5008.8,19289.3,-283.61,18.573,37.3896,322.964,-1612.44,-9494.38,-2096.03,-11.2665,-8.31615,52.7817,-6573.3,8166.94,-614.592,40.0658,-52.1073,10.6705,1654.87,-9333.92,-1528.32,-14.952,-24.103,53.6496,8280.34,-1566.84,918.856,21.5514,8.04766,9.24082
5.0705,16002.7,2403.69,12651.9,-22.5664,242.313,90.0733,4904.94,2720.56,7934.12,-19.3894,-10.3257,18.5941,-5062.53,19357.3,-281.977,18.3653,36.4967,322.857,-1623.98,-9485.56,-2090.98,-11.298,-8.28677,52.923,-6549.4,8192.67,-608.514,39.4875,-51.2408,10.0749,1636.19,-9327.26,-1519.97,-14.9663,-24.1467,53.6722,8257.54,-1572.27,911.882,21.3882,8.09308,9.18175
5.071,16098.5,2433.29,12661.5,-22.2884,241.811,89.6055,4898.95,2723.58,7927.22,-19.4584,-10.2795,18.635,-5116.26,19425.2,-280.344,18.1576,35.6038,322.749,-1635.52,-9476.73,-2085.94,-11.3295,-8.2574,53.0643,-6525.49,8218.4,-602.437,38.9091,-50.3742,9.47927,1617.5,-9320.6,-1511.63,-14.9807,-24.1904,53.6948,8234.74,-1577.7,904.909,21.225,8.13851,9.12268
5.0715,16182.6,2474.09,12651.9,-21.8665,241.294,88.9924,4893.02,2733.39,7923.83,-19.5663,-10.2165,18.6547,-5155.33,19498.3,-270.761,17.9063,34.6317,322.514,-1614.32,-9484.3,-2064.19,-11.4211,-8.24972,53.2255,-6472.03,8221.09,-571.597,38.406,-49.0467,9.04939,1603.05,-9316.95,-1500.78,-14.8747,-24.2498,53.7302,8212.2,-1582.16,899.14,21.1379,8.20665,9.01471
5.072,16263.4,2518.08,12636.9,-21.4034,240.774,88.3377,4887.12,2745.15,7921.44,-19.6852,-10.1486,18.6683,-5190.21,19572.8,-258.907,17.6425,33.6369,322.242,-1583.76,-9496.56,-2037.67,-11.5299,-8.24824,53.3924,-6410.12,8217.2,-533.682,37.9245,-47.5875,8.66685,1589.82,-9314.16,-1489.22,-14.7343,-24.3137,53.7692,8189.72,-1586.34,893.717,21.0726,8.28129,8.89277
5.0725,16344.2,2562.07,12621.9,-20.9404,240.254,87.6831,4881.21,2756.91,7919.06,-19.8042,-10.0807,18.6818,-5225.08,19647.4,-247.052,17.3786,32.6421,321.971,-1553.2,-9508.81,-2011.15,-11.6387,-8.24675,53.5592,-6348.21,8213.3,-495.767,37.4429,-46.1283,8.28432,1576.58,-9311.36,-1477.65,-14.5939,-24.3776,53.8082,8167.25,-1590.52,888.293,21.0073,8.35593,8.77083
5.073,16425.0,2606.07,12606.9,-20.4773,239.734,87.0285,4875.31,2768.66,7916.67,-19.9231,-10.0128,18.6954,-5259.96,19722.0,-235.198,17.1148,31.6474,321.699,-1522.65,-9521.07,-1984.64,-11.7474,-8.24527,53.7261,-6286.3,8209.41,-457.852,36.9613,-44.6691,7.90178,1563.35,-9308.57,-1466.09,-14.4535,-24.4415,53.8472,8144.78,-1594.69,882.87,20.9421,8.43057,8.6489
5.0735,16505.8,2650.06,12591.9,-20.0143,239.213,86.3738,4869.4,2780.42,7914.28,-20.042,-9.9449,18.709,-5294.83,19796.5,-223.343,16.851,30.6526,321.427,-1492.09,-9533.33,-1958.12,-11.8562,-8.24379,53.8929,-6224.4,8205.51,-419.937,36.4797,-43.2099,7.51925,1550.11,-9305.77,-1454.53,-14.3131,-24.5054,53.8862,8122.3,-1598.87,877.446,20.8768,8.50521,8.52696
5.074,16586.6,2694.05,12577.0,-19.5512,238.693,85.7192,4863.5,2792.18,7911.89,-20.161,-9.877,18.7226,-5329.71,19871.1,-211.489,16.5872,29.6579,321.156,-1461.53,-9545.58,-1931.6,-11.965,-8.24231,54.0598,-6162.49,8201.62,-382.022,35.9981,-41.7507,7.13672,1536.88,-9302.98,-1442.97,-14.1727,-24.5694,53.9252,8099.83,-1603.05,872.022,20.8115,8.57984,8.40502
5.0745,16667.4,2738.04,12562.0,-19.0881,238.173,85.0646,4857.59,2803.94,7909.5,-20.2799,-9.80911,18.7362,-5364.58,19945.7,-199.634,16.3233,28.6631,320.884,-1430.98,-9557.84,-1905.08,-12.0737,-8.24083,54.2266,-6100.58,8197.72,-344.107,35.5165,-40.2915,6.75418,1523.64,-9300.19,-1431.4,-14.0323,-24.6333,53.9642,8077.36,-1607.23,866.599,20.7462,8.65448,8.28309
5.075,16748.2,2782.04,12547.0,-18.6251,237.653,84.41,4851.69,2815.69,7907.12,-20.3989,-9.74121,18.7497,-5399.46,20020.2,-187.78,16.0595,27.6683,320.612,-1400.42,-9570.09,-1878.56,-12.1825,-8.23935,54.3935,-6038.67,8193.83,-306.192,35.035,-38.8323,6.37165,1510.41,-9297.39,-1419.84,-13.8919,-24.6972,54.0032,8054.88,-1611.41,861.175,20.6809,8.72912,8.16115
5.0755,16829.0,2826.03,12532.0,-18.162,237.133,83.7553,4845.78,2827.45,7904.73,-20.5178,-9.67332,18.7633,-5434.33,20094.8,-175.926,15.7957,26.6736,320.341,-1369.87,-9582.35,-1852.04,-12.2913,-8.23787,54.5603,-5976.76,8189.93,-268.277,34.5534,-37.3731,5.98911,1497.17,-9294.6,-1408.28,-13.7516,-24.7611,54.0422,8032.41,-1615.59,855.752,20.6156,8.80376,8.03921
5.076,16909.2,2868.8,12507.4,-17.6098,236.624,83.0012,4839.01,2820.44,7915.5,-20.5854,-9.67033,18.7902,-5464.35,20159.4,-164.516,15.4861,25.7242,319.984,-1356.75,-9574.91,-1866.2,-12.3969,-8.12215,54.7647,-5926.66,8171.92,-244.885,34.2876,-35.7096,5.68086,1499.63,-9294.43,-1398.19,-13.6317,-24.8271,54.0945,8036.12,-1612.19,855.844,20.5206,8.80716,7.95164
5.0765,16989.3,2911.42,12481.7,-17.0464,236.116,82.2346,4832.13,2811.08,7927.91,-20.6466,-9.67545,18.8187,-5493.76,20222.8,-153.163,15.1708,24.7805,319.617,-1345.81,-9565.01,-1885.44,-12.502,-7.99215,54.9738,-5878.04,8152.15,-223.31,34.0488,-34.0204,5.3819,1504.04,-9294.58,-1388.29,-13.5144,-24.8933,54.1484,8043.11,-1607.85,856.627,20.422,8.80167,7.86837
5.077,17069.5,2954.05,12456.0,-16.4831,235.608,81.468,4825.25,2801.72,7940.33,-20.7078,-9.68057,18.8472,-5523.16,20286.1,-141.809,14.8555,23.8368,319.25,-1334.87,-9555.11,-1904.68,-12.6072,-7.86215,55.1829,-5829.42,8132.38,-201.734,33.81,-32.3313,5.08293,1508.45,-9294.73,-1378.38,-13.397,-24.9596,54.2023,8050.1,-1603.5,857.409,20.3233,8.79617,7.7851
5.0775,17149.6,2996.67,12430.3,-15.9197,235.101,80.7015,4818.37,2792.36,7952.74,-20.7689,-9.68569,18.8758,-5552.57,20349.5,-130.455,14.5403,22.8931,318.883,-1323.93,-9545.21,-1923.92,-12.7124,-7.73215,55.392,-5780.79,8112.61,-180.158,33.5713,-30.6422,4.78396,1512.87,-9294.89,-1368.48,-13.2797,-25.0258,54.2561,8057.08,-1599.16,858.191,20.2246,8.79068,7.70183
5.078,17229.8,3039.29,12404.5,-15.3564,234.593,79.9349,4811.5,2783.0,7965.16,-20.8301,-9.69081,18.9043,-5581.98,20412.8,-119.101,14.225,21.9494,318.516,-1312.99,-9535.31,-1943.16,-12.8176,-7.60215,55.6011,-5732.17,8092.84,-158.583,33.3325,-28.953,4.485,1517.28,-9295.04,-1358.57,-13.1624,-25.0921,54.31,8064.07,-1594.81,858.973,20.1259,8.78518,7.61856
5.0785,17309.9,3081.91,12378.8,-14.793,234.086,79.1683,4804.62,2773.64,7977.57,-20.8913,-9.69594,18.9328,-5611.38,20476.2,-107.748,13.9097,21.0057,318.149,-1302.05,-9525.41,-1962.4,-12.9228,-7.47215,55.8102,-5683.54,8073.06,-137.007,33.0937,-27.2639,4.18603,1521.7,-9295.19,-1348.67,-13.0451,-25.1583,54.3639,8071.06,-1590.47,859.755,20.0272,8.77968,7.53528
5.079,17390.0,3124.53,12353.1,-14.2297,233.578,78.4018,4797.74,2764.29,7989.99,-20.9525,-9.70106,18.9613,-5640.79,20539.5,-96.3938,13.5944,20.062,317.782,-1291.11,-9515.51,-1981.64,-13.028,-7.34215,56.0193,-5634.92,8053.29,-115.431,32.8549,-25.5748,3.88707,1526.11,-9295.35,-1338.76,-12.9278,-25.2246,54.4178,8078.05,-1586.12,860.537,19.9285,8.77419,7.45201
5.0795,17470.2,3167.15,12327.4,-13.6663,233.071,77.6352,4790.86,2754.93,8002.4,-21.0136,-9.70618,18.9899,-5670.2,20602.9,-85.0401,13.2791,19.1183,317.415,-1280.17,-9505.61,-2000.88,-13.1331,-7.21215,56.2284,-5586.3,8033.52,-93.8556,32.6161,-23.8857,3.5881,1530.52,-9295.5,-1328.86,-12.8105,-25.2908,54.4717,8085.04,-1581.78,861.32,19.8298,8.76869,7.36874
5.08,17550.3,3209.77,12301.6,-13.103,232.563,76.8686,4783.98,2745.57,8014.82,-21.0748,-9.7113,19.0184,-5699.6,20666.2,-73.6864,12.9638,18.1746,317.047,-1269.23,-9495.71,-2020.12,-13.2383,-7.08215,56.4375,-5537.68,8013.75,-72.2799,32.3773,-22.1965,3.28914,1534.94,-9295.65,-1318.95,-12.6931,-25.3571,54.5256,8092.02,-1577.43,862.102,19.7311,8.76319,7.28547
5.0805,17633.7,3261.78,12263.8,-12.7039,232.199,76.0043,4777.63,2732.62,8021.01,-20.9784,-9.85469,19.0558,-5732.25,20716.6,-74.686,12.5803,17.4056,316.561,-1265.29,-9498.53,-2014.99,-13.2597,-7.1022,56.5722,-5478.6,7994.75,-96.3546,32.6527,-20.7582,2.95791,1540.14,-9295.24,-1310.86,-12.5917,-25.4622,54.5354,8081.93,-1581.59,875.743,19.5805,8.66026,7.19593
5.081,17717.1,3313.79,12226.0,-12.3048,231.834,75.1399,4771.28,2719.68,8027.19,-20.882,-9.99808,19.0932,-5764.89,20767.0,-75.6856,12.1967,16.6366,316.074,-1261.35,-9501.36,-2009.85,-13.2811,-7.12225,56.707,-5419.52,7975.75,-120.429,32.9282,-19.3199,2.62669,1545.35,-9294.82,-1302.77,-12.4903,-25.5673,54.5452,8071.84,-1585.75,889.384,19.4298,8.55732,7.1064
5.0815,17800.5,3365.8,12188.1,-11.9057,231.47,74.2756,4764.93,2706.73,8033.38,-20.7855,-10.1415,19.1306,-5797.54,20817.4,-76.6852,11.8131,15.8676,315.588,-1257.41,-9504.19,-2004.72,-13.3025,-7.1423,56.8417,-5360.44,7956.76,-144.504,33.2036,-17.8816,2.29547,1550.55,-9294.41,-1294.69,-12.3889,-25.6724,54.5551,8061.75,-1589.91,903.026,19.2791,8.45438,7.01687
5.082,17883.9,3417.8,12150.3,-11.5066,231.105,73.4112,4758.58,2693.79,8039.57,-20.6891,-10.2849,19.168,-5830.18,20867.8,-77.6848,11.4296,15.0986,315.101,-1253.47,-9507.02,-1999.59,-13.3239,-7.16235,56.9765,-5301.36,7937.76,-168.579,33.479,-16.4432,1.96424,1555.76,-9293.99,-1286.6,-12.2875,-25.7775,54.5649,8051.67,-1594.06,916.667,19.1284,8.35145,6.92734
5.0825,17967.3,3469.81,12112.4,-11.1075,230.741,72.5469,4752.23,2680.84,8045.76,-20.5927,-10.4283,19.2054,-5862.83,20918.2,-78.6844,11.046,14.3296,314.614,-1249.53,-9509.85,-1994.46,-13.3453,-7.1824,57.1113,-5242.28,7918.76,-192.653,33.7544,-15.0049,1.63302,1560.97,-9293.58,-1278.51,-12.1861,-25.8826,54.5747,8041.58,-1598.22,930.308,18.9777,8.24851,6.83781
5.083,18050.8,3521.82,12074.6,-10.7084,230.376,71.6825,4745.87,2667.9,8051.95,-20.4963,-10.5716,19.2428,-5895.47,20968.6,-79.684,10.6624,13.5607,314.128,-1245.59,-9512.68,-1989.32,-13.3667,-7.20245,57.246,-5183.2,7899.77,-216.728,34.0298,-13.5666,1.3018,1566.17,-9293.16,-1270.42,-12.0847,-25.9877,54.5845,8031.49,-1602.38,943.949,18.827,8.14557,6.74827
5.0835,18134.2,3573.83,12036.8,-10.3093,230.012,70.8182,4739.52,2654.95,8058.14,-20.3998,-10.715,19.2802,-5928.11,21019.0,-80.6836,10.2789,12.7917,313.641,-1241.65,-9515.51,-1984.19,-13.3881,-7.2225,57.3808,-5124.12,7880.77,-240.803,34.3053,-12.1283,0.970571,1571.38,-9292.75,-1262.33,-11.9833,-26.0928,54.5943,8021.4,-1606.54,957.591,18.6763,8.04263,6.65874
5.084,18217.6,3625.83,11998.9,-9.91024,229.648,69.9538,4733.17,2642.0,8064.33,-20.3034,-10.8584,19.3175,-5960.76,21069.4,-81.6832,9.89531,12.0227,313.154,-1237.72,-9518.34,-1979.06,-13.4094,-7.24254,57.5156,-5065.04,7861.77,-264.878,34.5807,-10.69,0.639347,1576.58,-9292.33,-1254.25,-11.8819,-26.1979,54.6042,8011.31,-1610.69,971.232,18.5256,7.9397,6.56921
5.0845,18299.2,3678.74,11957.5,-9.53327,229.284,69.0756,4727.04,2631.29,8069.19,-20.2094,-10.9985,19.3567,-5994.0,21116.2,-83.4093,9.49975,11.2863,312.653,-1233.4,-9522.01,-1975.73,-13.4314,-7.25914,57.6603,-5003.55,7842.12,-290.858,34.9364,-9.29664,0.2884,1581.12,-9292.09,-1247.24,-11.7858,-26.299,54.6086,8002.59,-1612.07,986.154,18.3865,7.82661,6.47583
5.085,18366.5,3738.85,11887.1,-9.33328,228.923,68.0863,4722.67,2638.4,8063.37,-20.1348,-11.1117,19.4101,-6032.03,21134.7,-90.9466,9.00825,10.8106,312.031,-1226.04,-9532.41,-1986.88,-13.4582,-7.24813,57.8848,-4922.82,7817.23,-332.08,35.9349,-8.2634,-0.220334,1580.36,-9293.2,-1248.87,-11.732,-26.3681,54.5704,8004.81,-1591.22,1011.33,18.3395,7.6323,6.35169
5.0855,18433.9,3798.95,11816.8,-9.13329,228.562,67.097,4718.3,2645.51,8057.56,-20.0602,-11.225,19.4635,-6070.05,21153.2,-98.4839,8.51674,10.3348,311.41,-1218.69,-9542.81,-1998.02,-13.4849,-7.23711,58.1094,-4842.09,7792.34,-373.302,36.9334,-7.23015,-0.729068,1579.59,-9294.31,-1250.51,-11.6782,-26.4372,54.5321,8007.03,-1570.36,1036.5,18.2926,7.438,6.22754
5.086,18501.2,3859.05,11746.4,-8.93331,228.201,66.1077,4713.93,2652.62,8051.74,-19.9856,-11.3382,19.5168,-6108.08,21171.7,-106.021,8.02523,9.85913,310.788,-1211.33,-9553.21,-2009.16,-13.5117,-7.22609,58.334,-4761.36,7767.45,-414.524,37.9318,-6.19691,-1.2378,1578.82,-9295.42,-1252.14,-11.6244,-26.5063,54.4938,8009.25,-1549.51,1061.67,18.2457,7.2437,6.10339
5.0865,18568.6,3919.16,11676.0,-8.73332,227.84,65.1185,4709.56,2659.73,8045.93,-19.9111,-11.4515,19.5702,-6146.11,21190.2,-113.558,7.53373,9.38341,310.166,-1203.98,-9563.61,-2020.31,-13.5384,-7.21508,58.5585,-4680.63,7742.56,-455.746,38.9303,-5.16366,-1.74654,1578.05,-9296.54,-1253.78,-11.5706,-26.5754,54.4555,8011.47,-1528.65,1086.84,18.1987,7.0494,5.97925
5.087,18635.9,3979.26,11605.7,-8.53333,227.479,64.1292,4705.19,2666.84,8040.12,-19.8365,-11.5648,19.6236,-6184.13,21208.7,-121.096,7.04222,8.9077,309.545,-1196.62,-9574.01,-2031.45,-13.5652,-7.20406,58.7831,-4599.9,7717.67,-496.968,39.9288,-4.13042,-2.25527,1577.28,-9297.65,-1255.41,-11.5169,-26.6445,54.4172,8013.69,-1507.8,1112.01,18.1518,6.8551,5.8551
5.0875,18703.3,4039.37,11535.3,-8.33334,227.118,63.1399,4700.82,2673.95,8034.3,-19.7619,-11.678,19.677,-6222.16,21227.2,-128.633,6.55072,8.43198,308.923,-1189.26,-9584.41,-2042.6,-13.5919,-7.19304,59.0076,-4519.17,7692.78,-538.19,40.9272,-3.09717,-2.764,1576.51,-9298.76,-1257.05,-11.4631,-26.7136,54.3789,8015.91,-1486.95,1137.18,18.1049,6.6608,5.73095
5.088,18770.6,4099.47,11465.0,-8.13335,226.757,62.1506,4696.45,2681.06,8028.49,-19.6873,-11.7913,19.7303,-6260.19,21245.7,-136.17,6.05921,7.95627,308.302,-1181.91,-9594.81,-2053.74,-13.6187,-7.18203,59.2322,-4438.44,7667.89,-579.412,41.9257,-2.06393,-3.27274,1575.74,-9299.87,-1258.68,-11.4093,-26.7827,54.3406,8018.13,-1466.09,1162.36,18.0579,6.46649,5.60681
5.0885,18838.0,4159.58,11394.6,-7.93337,226.396,61.1613,4692.08,2688.17,8022.68,-19.6127,-11.9045,19.7837,-6298.21,21264.2,-143.708,5.5677,7.48055,307.68,-1174.55,-9605.21,-2064.89,-13.6454,-7.17101,59.4567,-4357.71,7643.0,-620.634,42.9242,-1.03068,-3.78147,1574.97,-9300.99,-1260.32,-11.3555,-26.8518,54.3023,8020.35,-1445.24,1187.53,18.011,6.27219,5.48266
5.089,18911.9,4214.04,11328.0,-7.7931,226.065,60.1641,4689.61,2695.7,8015.95,-19.5408,-11.9859,19.833,-6334.27,21274.6,-152.976,5.05711,7.103,307.035,-1172.26,-9615.44,-2073.79,-13.6658,-7.13487,59.6837,-4274.35,7618.98,-667.996,44.0704,-0.0917764,-4.32336,1574.73,-9304.5,-1265.03,-11.3243,-26.9112,54.2511,8020.3,-1430.1,1206.44,17.9732,6.07789,5.3529
5.0895,19008.8,4248.74,11274.4,-7.86186,225.841,59.139,4693.78,2704.7,8006.03,-19.4781,-11.9556,19.868,-6363.42,21256.9,-168.304,4.47971,7.06903,306.305,-1187.68,-9625.05,-2074.86,-13.6639,-7.01081,59.919,-4181.83,7598.01,-736.849,45.7338,0.516948,-4.98128,1576.34,-9316.4,-1280.53,-11.372,-26.9364,54.1547,8012.31,-1434.98,1203.42,17.9676,5.88359,5.2035
5.09,19105.7,4283.45,11220.8,-7.93062,225.618,58.114,4697.95,2713.7,7996.12,-19.4154,-11.9253,19.9031,-6392.57,21239.2,-183.633,3.90232,7.03506,305.576,-1203.1,-9634.67,-2075.92,-13.6619,-6.88674,60.1543,-4089.31,7577.03,-805.702,47.3972,1.12567,-5.6392,1577.95,-9328.31,-1296.02,-11.4196,-26.9617,54.0584,8004.33,-1439.87,1200.41,17.9619,5.68929,5.0541
5.0905,19202.6,4318.16,11167.2,-7.99937,225.394,57.0889,4702.12,2722.69,7986.2,-19.3527,-11.8951,19.9381,-6421.72,21221.5,-198.961,3.32492,7.00109,304.846,-1218.51,-9644.28,-2076.99,-13.6599,-6.76267,60.3897,-3996.79,7556.06,-874.556,49.0606,1.7344,-6.29713,1579.56,-9340.21,-1311.51,-11.4673,-26.987,53.962,7996.35,-1444.75,1197.4,17.9563,5.49499,4.9047
5.091,19299.5,4352.86,11113.6,-8.06813,225.17,56.0639,4706.29,2731.69,7976.28,-19.2901,-11.8648,19.9731,-6450.87,21203.8,-214.289,2.74752,6.96712,304.117,-1233.93,-9653.89,-2078.06,-13.658,-6.6386,60.625,-3904.27,7535.09,-943.409,50.724,2.34312,-6.95505,1581.16,-9352.12,-1327.0,-11.515,-27.0123,53.8657,7988.36,-1449.63,1194.39,17.9507,5.30068,4.75529
5.0915,19396.4,4387.57,11060.1,-8.13689,224.947,55.0388,4710.47,2740.69,7966.36,-19.2274,-11.8345,20.0082,-6480.02,21186.1,-229.617,2.17013,6.93315,303.387,-1249.35,-9663.51,-2079.12,-13.656,-6.51454,60.8603,-3811.75,7514.12,-1012.26,52.3874,2.95184,-7.61297,1582.77,-9364.02,-1342.49,-11.5627,-27.0376,53.7694,7980.38,-1454.51,1191.38,17.945,5.10638,4.60589
5.092,19493.4,4422.27,11006.5,-8.20565,224.723,54.0138,4714.64,2749.69,7956.44,-19.1647,-11.8042,20.0432,-6509.17,21168.4,-244.945,1.59273,6.89918,302.658,-1264.77,-9673.12,-2080.19,-13.654,-6.39047,61.0957,-3719.23,7493.15,-1081.12,54.0508,3.56057,-8.27089,1584.38,-9375.93,-1357.99,-11.6103,-27.0629,53.673,7972.4,-1459.39,1188.37,17.9394,4.91208,4.45649
5.0925,19590.3,4456.98,10952.9,-8.27441,224.5,52.9887,4718.81,2758.69,7946.52,-19.102,-11.7739,20.0782,-6538.32,21150.7,-260.273,1.01534,6.86521,301.928,-1280.19,-9682.74,-2081.26,-13.6521,-6.2664,61.331,-3626.71,7472.18,-1149.97,55.7142,4.16929,-8.92881,1585.99,-9387.83,-1373.48,-11.658,-27.0882,53.5767,7964.41,-1464.27,1185.36,17.9338,4.71778,4.30709
5.093,19687.2,4491.69,10899.3,-8.34317,224.276,51.9637,4722.98,2767.68,7936.61,-19.0393,-11.7436,20.1132,-6567.48,21133.1,-275.601,0.437939,6.83124,301.199,-1295.6,-9692.35,-2082.32,-13.6501,-6.14234,61.5664,-3534.19,7451.2,-1218.82,57.3776,4.77802,-9.58673,1587.59,-9399.74,-1388.97,-11.7057,-27.1134,53.4803,7956.43,-1469.15,1182.35,17.9281,4.52348,4.15768
5.0935,19778.2,4528.3,10852.7,-8.463,224.087,50.9479,4725.11,2770.54,7939.09,-19.0208,-11.7165,20.1516,-6593.46,21105.6,-289.048,-0.158904,6.87182,300.431,-1304.69,-9703.1,-2086.21,-13.6753,-5.99136,61.7859,-3434.33,7440.19,-1299.3,59.0745,5.22302,-10.2634,1589.5,-9414.64,-1402.26,-11.7198,-27.1442,53.393,7953.81,-1473.52,1180.8,17.9644,4.32798,4.03405
5.094,19857.6,4568.72,10819.9,-8.68498,223.97,49.9507,4723.17,2761.11,7966.38,-19.0907,-11.6957,20.1967,-6613.13,21058.7,-298.731,-0.794643,7.0615,299.585,-1301.12,-9716.11,-2095.73,-13.7545,-5.78656,61.9739,-3319.79,7449.1,-1403.02,60.8384,5.34058,-10.9774,1591.99,-9435.52,-1411.15,-11.6668,-27.1858,53.3237,7961.94,-1476.87,1182.17,18.0846,4.1301,3.96194
5.0945,19936.9,4609.13,10787.0,-8.90695,223.852,48.9535,4721.23,2751.69,7993.68,-19.1606,-11.6749,20.2418,-6632.79,21011.8,-308.414,-1.43038,7.25117,298.74,-1297.55,-9729.11,-2105.25,-13.8338,-5.58176,62.1619,-3205.26,7458.01,-1506.74,62.6022,5.45814,-11.6914,1594.48,-9456.4,-1420.03,-11.6137,-27.2275,53.2544,7970.06,-1480.21,1183.54,18.2048,3.93222,3.88983
5.095,20016.3,4649.55,10754.2,-9.12893,223.734,47.9563,4719.29,2742.26,8020.97,-19.2305,-11.6541,20.2869,-6652.45,20964.9,-318.098,-2.06612,7.44085,297.895,-1293.98,-9742.13,-2114.77,-13.9131,-5.37695,62.3499,-3090.72,7466.91,-1610.47,64.3661,5.5757,-12.4054,1596.97,-9477.28,-1428.92,-11.5607,-27.2692,53.1852,7978.18,-1483.56,1184.9,18.325,3.73434,3.81772
5.0955,20095.6,4689.97,10721.4,-9.3509,223.616,46.9591,4717.36,2732.83,8048.26,-19.3004,-11.6333,20.332,-6672.11,20917.9,-327.781,-2.70186,7.63052,297.049,-1290.41,-9755.13,-2124.29,-13.9924,-5.17215,62.5379,-2976.18,7475.82,-1714.19,66.1299,5.69326,-13.1194,1599.47,-9498.16,-1437.81,-11.5077,-27.3108,53.1159,7986.3,-1486.9,1186.27,18.4452,3.53646,3.74561
5.096,20175.0,4730.38,10688.6,-9.57288,223.498,45.9619,4715.42,2723.41,8075.55,-19.3702,-11.6125,20.377,-6691.78,20871.0,-337.464,-3.3376,7.8202,296.204,-1286.84,-9768.14,-2133.8,-14.0717,-4.96735,62.7259,-2861.64,7484.73,-1817.91,67.8938,5.81083,-13.8334,1601.96,-9519.04,-1446.7,-11.4546,-27.3525,53.0466,7994.43,-1490.25,1187.64,18.5654,3.33859,3.6735
5.0965,20254.3,4770.8,10655.8,-9.79485,223.38,44.9647,4713.48,2713.98,8102.85,-19.4401,-11.5917,20.4221,-6711.44,20824.1,-347.148,-3.97334,8.00987,295.358,-1283.27,-9781.15,-2143.32,-14.151,-4.76255,62.9139,-2747.11,7493.63,-1921.64,69.6576,5.92839,-14.5474,1604.45,-9539.93,-1455.58,-11.4016,-27.3942,52.9773,8002.55,-1493.59,1189.01,18.6856,3.14071,3.6014
5.097,20333.6,4811.22,10623.0,-10.0168,223.263,43.9675,4711.54,2704.55,8130.14,-19.51,-11.5709,20.4672,-6731.1,20777.2,-356.831,-4.60908,8.19955,294.513,-1279.7,-9794.16,-2152.84,-14.2303,-4.55775,63.1019,-2632.57,7502.54,-2025.36,71.4215,6.04595,-15.2614,1606.94,-9560.81,-1464.47,-11.3486,-27.4358,52.908,8010.67,-1496.94,1190.38,18.8057,2.94283,3.52929
5.0975,20413.0,4851.64,10590.2,-10.2388,223.145,42.9702,4709.6,2695.13,8157.43,-19.5799,-11.5501,20.5123,-6750.76,20730.3,-366.514,-5.24481,8.38922,293.667,-1276.13,-9807.17,-2162.36,-14.3096,-4.35295,63.2899,-2518.03,7511.45,-2129.08,73.1853,6.16351,-15.9754,1609.44,-9581.69,-1473.36,-11.2955,-27.4775,52.8387,8018.79,-1500.28,1191.75,18.9259,2.74495,3.45718
5.098,20497.4,4878.55,10530.9,-10.4435,223.23,41.9918,4700.12,2688.53,8185.02,-19.7034,-11.5784,20.5573,-6773.42,20668.0,-374.506,-5.82147,8.60027,292.778,-1268.99,-9813.41,-2170.01,-14.3618,-4.18428,63.4745,-2414.19,7539.85,-2219.87,74.9416,6.06048,-16.6225,1613.32,-9601.13,-1485.49,-11.2148,-27.5339,52.7427,8020.43,-1496.47,1196.21,19.0651,2.53752,3.41132
5.0985,20588.1,4888.57,10438.7,-10.6265,223.57,41.0369,4681.22,2685.46,8212.99,-19.8939,-11.6681,20.6022,-6799.83,20586.5,-380.384,-6.32429,8.83803,291.834,-1257.38,-9811.18,-2175.32,-14.3802,-4.06078,63.6548,-2323.72,7592.62,-2294.49,76.6884,5.68172,-17.1858,1618.93,-9618.76,-1501.69,-11.0994,-27.6086,52.6132,8013.95,-1483.71,1204.53,19.2279,2.31816,3.39828
5.099,20678.8,4898.6,10346.4,-10.8096,223.91,40.082,4662.32,2682.39,8240.95,-20.0845,-11.7578,20.6471,-6826.23,20505.1,-386.263,-6.8271,9.07579,290.89,-1245.77,-9808.95,-2180.63,-14.3986,-3.93729,63.8351,-2233.26,7645.38,-2369.12,78.4351,5.30296,-17.7491,1624.54,-9636.39,-1517.88,-10.9841,-27.6833,52.4837,8007.47,-1470.95,1212.85,19.3907,2.0988,3.38524
5.0995,20769.6,4908.63,10254.1,-10.9927,224.25,39.1271,4643.41,2679.33,8268.92,-20.275,-11.8476,20.6919,-6852.64,20423.6,-392.141,-7.32991,9.31355,289.946,-1234.16,-9806.72,-2185.94,-14.4169,-3.81379,64.0154,-2142.79,7698.15,-2443.74,80.1819,4.9242,-18.3124,1630.16,-9654.02,-1534.08,-10.8687,-27.758,52.3542,8000.99,-1458.18,1221.17,19.5535,1.87944,3.37219
5.1,20860.3,4918.66,10161.8,-11.1757,224.59,38.1722,4624.51,2676.26,8296.88,-20.4655,-11.9373,20.7368,-6879.04,20342.1,-398.019,-7.83272,9.55131,289.002,-1222.55,-9804.5,-2191.24,-14.4353,-3.69029,64.1958,-2052.33,7750.92,-2518.36,81.9287,4.54544,-18.8758,1635.77,-9671.65,-1550.27,-10.7533,-27.8328,52.2248,7994.51,-1445.42,1229.49,19.7163,1.66008,3.35915
5.1005,20951.0,4928.68,10069.5,-11.3588,224.929,37.2173,4605.61,2673.19,8324.85,-20.6561,-12.027,20.7817,-6905.45,20260.7,-403.897,-8.33553,9.78907,288.058,-1210.95,-9802.27,-2196.55,-14.4536,-3.56679,64.3761,-1961.86,7803.69,-2592.99,83.6754,4.16668,-19.4391,1641.38,-9689.28,-1566.47,-10.638,-27.9075,52.0953,7988.03,-1432.66,1237.81,19.8792,1.44072,3.34611
5.101,21041.7,4938.71,9977.27,-11.5419,225.269,36.2624,4586.7,2670.12,8352.81,-20.8466,-12.1167,20.8266,-6931.85,20179.2,-409.775,-8.83834,10.0268,287.114,-1199.34,-9800.04,-2201.86,-14.472,-3.4433,64.5564,-1871.39,7856.45,-2667.61,85.4222,3.78792,-20.0024,1646.99,-9706.91,-1582.66,-10.5226,-27.9822,51.9658,7981.55,-1419.9,1246.13,20.042,1.22136,3.33306
5.1015,21132.4,4948.74,9885.0,-11.7249,225.609,35.3075,4567.8,2667.06,8380.77,-21.0371,-12.2064,20.8715,-6958.26,20097.7,-415.654,-9.34115,10.2646,286.17,-1187.73,-9797.81,-2207.17,-14.4904,-3.3198,64.7368,-1780.93,7909.22,-2742.23,87.169,3.40916,-20.5657,1652.61,-9724.55,-1598.86,-10.4073,-28.0569,51.8363,7975.07,-1407.14,1254.45,20.2048,1.002,3.32002
5.102,21223.2,4958.77,9792.72,-11.908,225.949,34.3526,4548.9,2663.99,8408.74,-21.2277,-12.2961,20.9164,-6984.66,20016.3,-421.532,-9.84396,10.5024,285.227,-1176.12,-9795.58,-2212.48,-14.5087,-3.1963,64.9171,-1690.46,7961.99,-2816.86,88.9157,3.0304,-21.1291,1658.22,-9742.18,-1615.05,-10.2919,-28.1317,51.7068,7968.59,-1394.38,1262.77,20.3676,0.782637,3.30697
5.1025,21308.3,4931.58,9683.01,-12.1239,226.547,33.363,4543.26,2657.11,8410.04,-21.4151,-12.3714,20.9525,-7015.48,19925.9,-434.064,-10.2702,10.7939,284.172,-1176.79,-9796.81,-2219.86,-14.5219,-3.15199,65.1292,-1590.1,8014.59,-2896.32,90.1245,2.54513,-21.7738,1655.18,-9748.73,-1629.81,-10.1902,-28.2267,51.6109,7968.77,-1382.34,1280.89,20.5377,0.515133,3.27419
5.103,21389.0,4874.62,9559.35,-12.3661,227.352,32.3457,4548.25,2647.19,8390.0,-21.5999,-12.4351,20.9816,-7049.82,19828.5,-451.918,-10.6352,11.1284,283.029,-1187.27,-9800.81,-2228.9,-14.5308,-3.17104,65.3666,-1481.83,8067.04,-2979.66,90.9029,1.97466,-22.4837,1645.22,-9746.42,-1643.42,-10.0993,-28.3379,51.5417,7974.27,-1370.87,1306.85,20.7136,0.209116,3.22562
5.1035,21469.8,4817.66,9435.7,-12.6083,228.156,31.3284,4553.23,2637.27,8369.97,-21.7847,-12.4988,21.0108,-7084.17,19731.0,-469.773,-11.0001,11.463,281.887,-1197.75,-9804.81,-2237.94,-14.5398,-3.19008,65.604,-1373.55,8119.5,-3063.0,91.6814,1.40419,-23.1935,1635.26,-9744.11,-1657.03,-10.0085,-28.4491,51.4726,7979.77,-1359.41,1332.81,20.8895,-0.0969017,3.17704
5.104,21550.5,4760.7,9312.04,-12.8506,228.961,30.3111,4558.22,2627.34,8349.93,-21.9696,-12.5625,21.0399,-7118.51,19633.6,-487.628,-11.3651,11.7976,280.744,-1208.23,-9808.81,-2246.98,-14.5487,-3.20913,65.8415,-1265.28,8171.96,-3146.33,92.4598,0.833726,-23.9034,1625.3,-9741.8,-1670.64,-9.9176,-28.5604,51.4035,7985.27,-1347.94,1358.78,21.0655,-0.402919,3.12846
5.1045,21631.2,4703.74,9188.38,-13.0928,229.766,29.2938,4563.2,2617.42,8329.9,-22.1544,-12.6261,21.0691,-7152.86,19536.1,-505.482,-11.7301,12.1321,279.601,-1218.71,-9812.81,-2256.02,-14.5577,-3.22817,66.0789,-1157.0,8224.42,-3229.67,93.2382,0.263258,-24.6133,1615.33,-9739.49,-1684.25,-9.82676,-28.6716,51.3343,7990.77,-1336.48,1384.74,21.2414,-0.708937,3.07989
5.105,21711.9,4646.77,9064.73,-13.335,230.57,28.2765,4568.19,2607.5,8309.86,-22.3393,-12.6898,21.0982,-7187.2,19438.6,-523.337,-12.095,12.4667,278.458,-1229.2,-9816.81,-2265.07,-14.5667,-3.24722,66.3163,-1048.73,8276.88,-3313.01,94.0167,-0.307211,-25.3232,1605.37,-9737.18,-1697.85,-9.73591,-28.7828,51.2652,7996.27,-1325.01,1410.7,21.4173,-1.01495,3.03131
5.1055,21792.6,4589.81,8941.07,-13.5772,231.375,27.2592,4573.17,2597.57,8289.83,-22.5241,-12.7535,21.1273,-7221.55,19341.2,-541.192,-12.46,12.8012,277.316,-1239.68,-9820.81,-2274.11,-14.5756,-3.26626,66.5538,-940.453,8329.34,-3396.34,94.7951,-0.87768,-26.033,1595.41,-9734.88,-1711.46,-9.64506,-28.894,51.1961,8001.77,-1313.55,1436.66,21.5932,-1.32097,2.98274
5.106,21873.3,4532.85,8817.41,-13.8194,232.18,26.2419,4578.16,2587.65,8269.79,-22.709,-12.8172,21.1565,-7255.89,19243.7,-559.047,-12.825,13.1358,276.173,-1250.16,-9824.81,-2283.15,-14.5846,-3.28531,66.7912,-832.179,8381.8,-3479.68,95.5735,-1.44815,-26.7429,1585.45,-9732.57,-1725.07,-9.55421,-29.0053,51.1269,8007.26,-1302.08,1462.62,21.7692,-1.62699,2.93416
5.1065,21954.0,4475.89,8693.75,-14.0617,232.984,25.2246,4583.14,2577.73,8249.76,-22.8938,-12.8809,21.1856,-7290.24,19146.3,-576.901,-13.1899,13.4704,275.03,-1260.64,-9828.81,-2292.19,-14.5936,-3.30435,67.0286,-723.904,8434.26,-3563.02,96.352,-2.01862,-27.4528,1575.49,-9730.26,-1738.68,-9.46336,-29.1165,51.0578,8012.76,-1290.62,1488.58,21.9451,-1.93301,2.88559
5.107,21995.1,4387.51,8565.89,-14.2422,233.987,24.1864,4600.18,2577.18,8244.49,-23.0631,-12.9802,21.2152,-7322.56,19043.6,-610.599,-13.4487,13.8582,273.748,-1281.06,-9839.01,-2301.65,-14.6647,-3.25627,67.2861,-596.595,8531.35,-3598.26,96.8648,-3.06269,-27.9823,1573.05,-9730.65,-1748.31,-9.37381,-29.2277,51.0308,8024.27,-1275.94,1512.01,22.1194,-2.33572,2.83701
5.1075,22016.2,4283.41,8435.92,-14.3919,235.088,23.1377,4623.25,2581.33,8246.62,-23.2245,-13.0972,21.245,-7353.87,18938.2,-652.218,-13.6544,14.2726,272.397,-1306.45,-9852.31,-2311.32,-14.7668,-3.17462,67.5535,-459.768,8650.76,-3609.46,97.2449,-4.34355,-28.4217,1574.36,-9732.4,-1755.94,-9.28491,-29.339,51.025,8038.78,-1259.67,1534.17,22.293,-2.78677,2.78844
5.108,22037.4,4179.31,8305.95,-14.5417,236.189,22.089,4646.32,2585.47,8248.74,-23.386,-13.2142,21.2748,-7385.18,18832.9,-693.837,-13.8602,14.687,271.046,-1331.83,-9865.6,-2320.98,-14.869,-3.09297,67.8209,-322.942,8770.17,-3620.65,97.625,-5.62442,-28.8612,1575.68,-9734.15,-1763.58,-9.19601,-29.4502,51.0191,8053.3,-1243.39,1556.32,22.4665,-3.23783,2.73986
5.1085,22058.6,4075.21,8175.98,-14.6914,237.29,21.0404,4669.39,2589.61,8250.86,-23.5475,-13.3312,21.3046,-7416.49,18727.6,-735.457,-14.0659,15.1014,269.695,-1357.22,-9878.9,-2330.65,-14.9712,-3.01132,68.0884,-186.115,8889.59,-3631.85,98.0051,-6.90529,-29.3006,1577.0,-9735.9,-1771.22,-9.10711,-29.5614,51.0132,8067.81,-1227.12,1578.48,22.6401,-3.68889,2.69129
5.109,22079.8,3971.11,8046.01,-14.8411,238.391,19.9917,4692.46,2593.76,8252.98,-23.7089,-13.4482,21.3344,-7447.8,18622.2,-777.076,-14.2716,15.5158,268.344,-1382.61,-9892.19,-2340.32,-15.0734,-2.92967,68.3558,-49.289,9009.0,-3643.05,98.3852,-8.18616,-29.74,1578.31,-9737.65,-1778.86,-9.01821,-29.6726,51.0074,8082.32,-1210.84,1600.64,22.8136,-4.13995,2.64271
5.1095,22100.9,3867.01,7916.04,-14.9908,239.492,18.943,4715.53,2597.9,8255.1,-23.8704,-13.5652,21.3642,-7479.11,18516.9,-818.695,-14.4773,15.9302,266.992,-1407.99,-9905.49,-2349.99,-15.1755,-2.84802,68.6232,87.5374,9128.41,-3654.24,98.7653,-9.46703,-30.1794,1579.63,-9739.4,-1786.49,-8.92931,-29.7839,51.0015,8096.83,-1194.57,1622.8,22.9872,-4.59101,2.59414
5.11,22122.1,3762.91,7786.07,-15.1406,240.593,17.8944,4738.6,2602.05,8257.22,-24.0319,-13.6822,21.394,-7510.42,18411.5,-860.314,-14.683,16.3446,265.641,-1433.38,-9918.78,-2359.66,-15.2777,-2.76637,68.8906,224.364,9247.82,-3665.44,99.1453,-10.7479,-30.6188,1580.95,-9741.15,-1794.13,-8.84041,-29.8951,50.9956,8111.34,-1178.29,1644.95,23.1607,-5.04206,2.54556
5.1105,22143.3,3658.82,7656.1,-15.2903,241.694,16.8457,4761.67,2606.19,8259.35,-24.1934,-13.7992,21.4238,-7541.73,18306.2,-901.934,-14.8887,16.759,264.29,-1458.77,-9932.08,-2369.32,-15.3799,-2.68472,69.1581,361.19,9367.23,-3676.64,99.5254,-12.0288,-31.0582,1582.26,-9742.9,-1801.77,-8.75151,-30.0063,50.9898,8125.86,-1162.01,1667.11,23.3343,-5.49312,2.49698
5.111,22164.5,3554.72,7526.13,-15.44,242.795,15.797,4784.74,2610.34,8261.47,-24.3548,-13.9162,21.4536,-7573.04,18200.9,-943.553,-15.0944,17.1734,262.939,-1484.15,-9945.37,-2378.99,-15.4821,-2.60307,69.4255,498.017,9486.64,-3687.83,99.9055,-13.3096,-31.4976,1583.58,-9744.65,-1809.41,-8.66261,-30.1176,50.9839,8140.37,-1145.74,1689.27,23.5078,-5.94418,2.44841
5.1115,22134.0,3441.85,7403.78,-15.4211,243.788,14.6328,4795.25,2618.13,8263.54,-24.4653,-13.9292,21.5007,-7598.9,18095.8,-1002.68,-15.1087,17.5804,261.563,-1518.23,-9955.01,-2385.59,-15.436,-2.64689,69.5964,645.709,9604.18,-3703.29,99.4365,-14.7948,-31.4456,1580.52,-9738.87,-1818.98,-8.58595,-30.2515,50.9898,8153.43,-1140.71,1692.56,23.5463,-6.35465,2.41444
5.112,22088.9,3326.48,7283.62,-15.354,244.751,13.4355,4802.17,2626.97,8265.59,-24.5613,-13.9124,21.5527,-7623.21,17990.8,-1066.81,-15.0684,17.9853,260.181,-1554.79,-9963.6,-2391.32,-15.3477,-2.72655,69.7396,796.507,9721.19,-3719.97,98.7248,-16.3383,-31.2532,1576.21,-9730.95,-1829.12,-8.51278,-30.3918,50.9991,8166.07,-1138.89,1690.47,23.5463,-6.75353,2.38465
5.1125,22043.7,3211.11,7163.45,-15.2869,245.713,12.2383,4809.09,2635.81,8267.64,-24.6573,-13.8957,21.6047,-7647.51,17885.8,-1130.95,-15.028,18.3902,258.798,-1591.35,-9972.19,-2397.04,-15.2593,-2.80621,69.8828,947.304,9838.2,-3736.64,98.0132,-17.8818,-31.0609,1571.9,-9723.02,-1839.25,-8.43962,-30.5322,51.0084,8178.71,-1137.07,1688.38,23.5462,-7.15241,2.35486
5.113,21998.5,3095.74,7043.29,-15.2198,246.676,11.041,4816.01,2644.64,8269.69,-24.7532,-13.879,21.6567,-7671.82,17780.8,-1195.08,-14.9877,18.7951,257.416,-1627.91,-9980.77,-2402.77,-15.1709,-2.88587,70.0261,1098.1,9955.21,-3753.32,97.3016,-19.4253,-30.8685,1567.59,-9715.09,-1849.38,-8.36645,-30.6726,51.0177,8191.36,-1135.25,1686.28,23.5462,-7.55129,2.32507
5.1135,21953.3,2980.37,6923.12,-15.1527,247.638,9.84377,4822.93,2653.48,8271.74,-24.8492,-13.8623,21.7087,-7696.12,17675.8,-1259.21,-14.9473,19.2,256.033,-1664.47,-9989.36,-2408.49,-15.0825,-2.96553,70.1693,1248.9,10072.2,-3769.99,96.5899,-20.9688,-30.6761,1563.28,-9707.17,-1859.52,-8.29329,-30.813,51.027,8204.0,-1133.43,1684.19,23.5461,-7.95017,2.29528
5.114,21908.1,2865.0,6802.96,-15.0856,248.6,8.64652,4829.85,2662.32,8273.8,-24.9452,-13.8456,21.7606,-7720.43,17570.8,-1323.34,-14.907,19.6049,254.651,-1701.03,-9997.95,-2414.22,-14.9942,-3.04519,70.3126,1399.7,10189.2,-3786.67,95.8783,-22.5123,-30.4837,1558.97,-9699.24,-1869.65,-8.22012,-30.9534,51.0363,8216.65,-1131.61,1682.1,23.5461,-8.34904,2.26549
5.1145,21862.9,2749.63,6682.79,-15.0185,249.563,7.44926,4836.77,2671.15,8275.85,-25.0411,-13.8289,21.8126,-7744.73,17465.7,-1387.47,-14.8666,20.0098,253.268,-1737.59,-10006.5,-2419.94,-14.9058,-3.12485,70.4558,1550.49,10306.2,-3803.35,95.1666,-24.0559,-30.2914,1554.66,-9691.31,-1879.78,-8.14695,-31.0937,51.0456,8229.29,-1129.8,1680.01,23.546,-8.74792,2.2357
5.115,21817.7,2634.26,6562.63,-14.9514,250.525,6.25201,4843.69,2679.99,8277.9,-25.1371,-13.8122,21.8646,-7769.04,17360.7,-1451.61,-14.8263,20.4147,251.886,-1774.14,-10015.1,-2425.67,-14.8174,-3.20452,70.5991,1701.29,10423.2,-3820.02,94.455,-25.5994,-30.099,1550.35,-9683.39,-1889.92,-8.07378,-31.2341,51.0549,8241.93,-1127.98,1677.91,23.546,-9.1468,2.20591
5.1155,21772.6,2518.89,6442.46,-14.8843,251.487,5.05475,4850.61,2688.83,8279.95,-25.2331,-13.7955,21.9166,-7793.34,17255.7,-1515.74,-14.7859,20.8195,250.503,-1810.7,-10023.7,-2431.39,-14.729,-3.28418,70.7423,1852.09,10540.2,-3836.7,93.7434,-27.1429,-29.9066,1546.04,-9675.46,-1900.05,-8.00062,-31.3745,51.0642,8254.58,-1126.16,1675.82,23.5459,-9.54568,2.17612
5.116,21672.0,2410.75,6328.2,-14.8369,252.046,3.85809,4861.37,2680.93,8283.78,-25.3858,-13.7341,21.9723,-7817.26,17128.8,-1586.39,-14.5274,21.1254,249.169,-1845.18,-10021.8,-2454.13,-14.6816,-3.42847,70.8992,2048.42,10721.8,-3716.96,90.4899,-27.9946,-28.4809,1542.14,-9660.8,-1915.12,-7.91459,-31.5059,51.1124,8272.63,-1104.52,1665.78,23.5104,-9.83289,2.18898
5.1165,21564.4,2303.52,6214.67,-14.7919,252.554,2.6615,4872.6,2670.95,8287.83,-25.5457,-13.6672,22.0285,-7841.14,16999.1,-1657.86,-14.2417,21.4188,247.841,-1879.4,-10018.5,-2479.0,-14.6394,-3.58083,71.0578,2250.44,10911.4,-3580.16,86.9188,-28.7598,-26.9009,1538.29,-9645.29,-1930.81,-7.82695,-31.6361,51.1655,8291.36,-1080.39,1654.75,23.4705,-10.1061,2.20719
5.117,21456.9,2196.28,6101.14,-14.747,253.062,1.46491,4883.84,2660.96,8291.88,-25.7055,-13.6003,22.0847,-7865.01,16869.4,-1729.33,-13.9559,21.7123,246.514,-1913.61,-10015.3,-2503.87,-14.5971,-3.7332,71.2165,2452.47,11101.1,-3443.37,83.3477,-29.525,-25.321,1534.44,-9629.78,-1946.49,-7.73932,-31.7663,51.2186,8310.09,-1056.27,1643.72,23.4305,-10.3794,2.22539
5.1175,21349.3,2089.05,5987.62,-14.702,253.571,0.26832,4895.07,2650.97,8295.93,-25.8654,-13.5333,22.1409,-7888.89,16739.7,-1800.8,-13.6701,22.0057,245.186,-1947.83,-10012.0,-2528.74,-14.5549,-3.88557,71.3751,2654.49,11290.7,-3306.57,79.7765,-30.2902,-23.7411,1530.59,-9614.28,-1962.18,-7.65168,-31.8965,51.2717,8328.81,-1032.15,1632.69,23.3906,-10.6526,2.24359
5.118,21241.8,1981.81,5874.09,-14.657,254.079,-0.928269,4906.31,2640.98,8299.98,-26.0252,-13.4664,22.1971,-7912.76,16610.0,-1872.27,-13.3843,22.2992,243.858,-1982.04,-10008.7,-2553.6,-14.5126,-4.03793,71.5337,2856.52,11480.4,-3169.78,76.2054,-31.0555,-22.1612,1526.74,-9598.77,-1977.87,-7.56404,-32.0267,51.3248,8347.54,-1008.03,1621.65,23.3507,-10.9259,2.26179
5.1185,21134.3,1874.57,5760.56,-14.612,254.587,-2.12486,4917.54,2631.0,8304.03,-26.1851,-13.3995,22.2533,-7936.63,16480.2,-1943.74,-13.0986,22.5926,242.53,-2016.26,-10005.5,-2578.47,-14.4703,-4.1903,71.6923,3058.54,11670.0,-3032.99,72.6343,-31.8207,-20.5813,1522.9,-9583.26,-1993.55,-7.47641,-32.1569,51.3779,8366.27,-983.909,1610.62,23.3108,-11.1991,2.28
5.119,21026.7,1767.34,5647.04,-14.5671,255.095,-3.32145,4928.78,2621.01,8308.08,-26.3449,-13.3325,22.3095,-7960.51,16350.5,-2015.21,-12.8128,22.886,241.202,-2050.47,-10002.2,-2603.34,-14.4281,-4.34267,71.8509,3260.57,11859.6,-2896.19,69.0631,-32.5859,-19.0014,1519.05,-9567.76,-2009.24,-7.38877,-32.2872,51.431,8385.0,-959.788,1599.59,23.2708,-11.4724,2.2982
5.1195,20919.2,1660.1,5533.51,-14.5221,255.603,-4.51804,4940.01,2611.02,8312.13,-26.5048,-13.2656,22.3657,-7984.38,16220.8,-2086.68,-12.527,23.1795,239.874,-2084.69,-9998.95,-2628.21,-14.3858,-4.49503,72.0096,3462.59,12049.3,-2759.4,65.492,-33.3511,-17.4214,1515.2,-9552.25,-2024.93,-7.30113,-32.4174,51.4841,8403.73,-935.667,1588.56,23.2309,-11.7456,2.3164
5.12,20811.6,1552.87,5419.98,-14.4771,256.111,-5.71462,4951.25,2601.04,8316.18,-26.6646,-13.1987,22.4219,-8008.26,16091.1,-2158.15,-12.2412,23.4729,238.546,-2118.9,-9995.69,-2653.08,-14.3436,-4.6474,72.1682,3664.61,12238.9,-2622.61,61.9209,-34.1163,-15.8415,1511.35,-9536.74,-2040.62,-7.2135,-32.5476,51.5372,8422.46,-911.546,1577.53,23.191,-12.0189,2.3346
5.1205,20662.8,1490.36,5291.93,-14.7838,256.172,-6.96516,4980.11,2601.18,8325.4,-26.8326,-13.2024,22.5351,-8045.29,15953.3,-2238.96,-11.7458,23.5893,237.412,-2141.18,-9990.51,-2645.45,-14.2935,-4.88976,72.3085,3953.12,12387.2,-2489.17,58.1151,-34.7379,-14.219,1497.01,-9530.09,-2049.98,-7.18938,-32.6063,51.5593,8434.61,-888.948,1588.77,23.1232,-12.2334,2.36683
5.121,20514.0,1427.85,5163.87,-15.0905,256.232,-8.21569,5008.98,2601.32,8334.61,-27.0006,-13.2061,22.6482,-8082.32,15815.4,-2319.77,-11.2503,23.7057,236.278,-2163.46,-9985.33,-2637.82,-14.2434,-5.13213,72.4488,4241.63,12535.4,-2355.74,54.3093,-35.3594,-12.5965,1482.67,-9523.45,-2059.33,-7.16527,-32.6649,51.5815,8446.77,-866.35,1600.02,23.0554,-12.4479,2.39906
5.1215,20365.2,1365.35,5035.81,-15.3972,256.293,-9.46622,5037.84,2601.46,8343.83,-27.1686,-13.2097,22.7614,-8119.35,15677.6,-2400.58,-10.7548,23.822,235.145,-2185.74,-9980.15,-2630.2,-14.1932,-5.37449,72.5891,4530.14,12683.7,-2222.3,50.5035,-35.981,-10.9739,1468.34,-9516.8,-2068.69,-7.14116,-32.7236,51.6037,8458.92,-843.753,1611.27,22.9876,-12.6624,2.43129
5.122,20216.4,1302.84,4907.76,-15.7039,256.353,-10.7168,5066.71,2601.6,8353.04,-27.3366,-13.2134,22.8746,-8156.38,15539.7,-2481.39,-10.2594,23.9384,234.011,-2208.02,-9974.96,-2622.57,-14.1431,-5.61685,72.7294,4818.65,12832.0,-2088.87,46.6978,-36.6026,-9.3514,1454.0,-9510.15,-2078.05,-7.11704,-32.7822,51.6258,8471.08,-821.155,1622.51,22.9198,-12.8769,2.46352
5.1225,20067.6,1240.33,4779.7,-16.0106,256.414,-11.9673,5095.57,2601.74,8362.25,-27.5046,-13.2171,22.9878,-8193.41,15401.9,-2562.2,-9.7639,24.0547,232.877,-2230.3,-9969.78,-2614.94,-14.093,-5.85922,72.8697,5107.15,12980.2,-1955.43,42.892,-37.2241,-7.72887,1439.66,-9503.5,-2087.41,-7.09293,-32.8409,51.648,8483.23,-798.558,1633.76,22.8521,-13.0914,2.49575
5.123,19918.8,1177.82,4651.64,-16.3172,256.474,-13.2178,5124.43,2601.87,8371.47,-27.6726,-13.2208,23.101,-8230.45,15264.0,-2643.01,-9.26843,24.1711,231.743,-2252.58,-9964.6,-2607.31,-14.0429,-6.10158,73.01,5395.66,13128.5,-1822.0,39.0862,-37.8457,-6.10634,1425.33,-9496.85,-2096.77,-7.06882,-32.8995,51.6701,8495.39,-775.96,1645.01,22.7843,-13.3059,2.52798
5.1235,19770.0,1115.32,4523.58,-16.6239,256.535,-14.4684,5153.3,2602.01,8380.68,-27.8406,-13.2245,23.2142,-8267.48,15126.2,-2723.82,-8.77296,24.2875,230.609,-2274.85,-9959.42,-2599.69,-13.9928,-6.34395,73.1503,5684.17,13276.8,-1688.56,35.2804,-38.4673,-4.48381,1410.99,-9490.2,-2106.13,-7.0447,-32.9582,51.6923,8507.55,-753.362,1656.26,22.7165,-13.5204,2.56021
5.124,19621.2,1052.81,4395.53,-16.9306,256.595,-15.7189,5182.16,2602.15,8389.9,-28.0086,-13.2282,23.3274,-8304.51,14988.3,-2804.63,-8.27749,24.4038,229.476,-2297.13,-9954.24,-2592.06,-13.9427,-6.58631,73.2906,5972.68,13425.1,-1555.13,31.4747,-39.0888,-2.86128,1396.65,-9483.55,-2115.49,-7.02059,-33.0168,51.7145,8519.7,-730.765,1667.5,22.6487,-13.7349,2.59244
5.1245,19466.2,992.255,4271.74,-17.2742,256.589,-16.9745,5207.01,2604.52,8400.0,-28.1856,-13.2241,23.4499,-8344.27,14850.5,-2883.03,-7.767,24.4894,228.367,-2315.75,-9951.0,-2584.18,-13.9037,-6.82725,73.4257,6263.46,13562.9,-1437.04,27.7479,-39.618,-1.31045,1381.92,-9477.14,-2123.37,-7.00287,-33.0747,51.7418,8532.14,-709.811,1678.15,22.5646,-13.9355,2.62623
5.125,19262.5,947.327,4182.15,-17.9125,256.047,-18.2711,5199.76,2624.69,8417.24,-28.4347,-13.158,23.6478,-8405.85,14713.5,-2942.21,-7.13638,24.3291,227.463,-2305.1,-9963.37,-2574.32,-13.9533,-7.05682,73.5184,6572.46,13617.0,-1441.72,24.6536,-39.408,-0.333251,1364.06,-9472.59,-2119.41,-7.03633,-33.1261,51.8111,8546.84,-702.007,1683.95,22.3495,-14.0258,2.67249
5.1255,19058.7,902.399,4092.55,-18.5509,255.505,-19.5676,5192.51,2644.87,8434.48,-28.6837,-13.0919,23.8457,-8467.43,14576.4,-3001.38,-6.50575,24.1687,226.56,-2294.45,-9975.74,-2564.45,-14.003,-7.28639,73.6112,6881.45,13671.1,-1446.4,21.5593,-39.198,0.643952,1346.2,-9468.05,-2115.45,-7.06978,-33.1775,51.8803,8561.54,-694.204,1689.75,22.1344,-14.116,2.71875
5.126,18855.0,857.471,4002.96,-19.1893,254.964,-20.8641,5185.25,2665.04,8451.71,-28.9327,-13.0257,24.0436,-8529.01,14439.3,-3060.56,-5.87513,24.0084,225.656,-2283.8,-9988.11,-2554.59,-14.0527,-7.51596,73.7039,7190.45,13725.3,-1451.08,18.465,-38.988,1.62115,1328.33,-9463.5,-2111.49,-7.10324,-33.2289,51.9495,8576.24,-686.4,1695.56,21.9194,-14.2062,2.76501
5.1265,18651.2,812.544,3913.36,-19.8277,254.422,-22.1606,5178.0,2685.22,8468.95,-29.1818,-12.9596,24.2415,-8590.59,14302.3,-3119.74,-5.24451,23.848,224.752,-2273.15,-10000.5,-2544.72,-14.1024,-7.74553,73.7967,7499.45,13779.4,-1455.77,15.3707,-38.778,2.59836,1310.47,-9458.96,-2107.53,-7.13669,-33.2803,52.0187,8590.94,-678.597,1701.36,21.7043,-14.2965,2.81126
5.127,18447.5,767.616,3823.76,-20.4661,253.88,-23.4571,5170.75,2705.39,8486.19,-29.4308,-12.8935,24.4393,-8652.17,14165.2,-3178.91,-4.61389,23.6877,223.848,-2262.49,-10012.8,-2534.86,-14.152,-7.9751,73.8894,7808.44,13833.5,-1460.45,12.2764,-38.568,3.57556,1292.61,-9454.41,-2103.58,-7.17014,-33.3317,52.0879,8605.64,-670.793,1707.16,21.4892,-14.3867,2.85752
5.1275,18243.7,722.688,3734.17,-21.1045,253.339,-24.7537,5163.5,2725.57,8503.43,-29.6799,-12.8273,24.6372,-8713.75,14028.1,-3238.09,-3.98327,23.5273,222.944,-2251.84,-10025.2,-2524.99,-14.2017,-8.20467,73.9822,8117.44,13887.7,-1465.13,9.18214,-38.358,4.55276,1274.75,-9449.87,-2099.62,-7.2036,-33.3831,52.1572,8620.34,-662.99,1712.97,21.2741,-14.4769,2.90378
5.128,18040.0,677.76,3644.57,-21.7429,252.797,-26.0502,5156.24,2745.74,8520.67,-29.9289,-12.7612,24.8351,-8775.34,13891.1,-3297.26,-3.35264,23.367,222.04,-2241.19,-10037.6,-2515.13,-14.2514,-8.43424,74.0749,8426.43,13941.8,-1469.81,6.08784,-38.148,5.52996,1256.88,-9445.32,-2095.66,-7.23705,-33.4345,52.2264,8635.04,-655.186,1718.77,21.0591,-14.5672,2.95004
5.1285,17836.2,632.832,3554.97,-22.3813,252.255,-27.3467,5148.99,2765.92,8537.9,-30.1779,-12.695,25.033,-8836.92,13754.0,-3356.44,-2.72202,23.2066,221.136,-2230.54,-10049.9,-2505.26,-14.3011,-8.6638,74.1677,8735.43,13995.9,-1474.5,2.99355,-37.938,6.50716,1239.02,-9440.78,-2091.7,-7.2705,-33.4859,52.2956,8649.75,-647.383,1724.57,20.844,-14.6574,2.9963
5.129,17635.5,617.752,3473.15,-23.0535,251.521,-28.485,5134.81,2780.88,8553.66,-30.4197,-12.6567,25.2062,-8899.83,13615.2,-3402.64,-2.05014,22.8487,220.26,-2221.31,-10056.8,-2499.48,-14.3404,-8.89754,74.2499,9056.85,14044.1,-1485.79,-0.0796388,-37.562,7.42048,1220.43,-9436.15,-2087.95,-7.30231,-33.5387,52.3799,8664.79,-638.689,1732.8,20.6094,-14.7453,3.03825
5.1295,17445.4,707.136,3418.51,-23.8444,250.115,-29.0694,5096.38,2777.57,8564.22,-30.6361,-12.7157,25.293,-8967.38,13470.5,-3403.45,-1.23388,21.7993,219.481,-2217.07,-10044.4,-2507.98,-14.3437,-9.14588,74.2952,9421.79,14071.7,-1520.23,-3.07892,-36.6053,8.11021,1199.28,-9431.24,-2084.92,-7.32834,-33.5967,52.5169,8681.04,-626.879,1749.51,20.3067,-14.8248,3.06514
5.13,17255.3,796.52,3363.88,-24.6352,248.708,-29.6539,5057.95,2774.26,8574.79,-30.8524,-12.7747,25.3798,-9034.93,13325.7,-3404.26,-0.417607,20.75,218.701,-2212.83,-10032.0,-2516.47,-14.3469,-9.39421,74.3405,9786.72,14099.2,-1554.67,-6.0782,-35.6485,8.79993,1178.14,-9426.33,-2081.89,-7.35437,-33.6546,52.6539,8697.29,-615.069,1766.22,20.004,-14.9044,3.09203
5.1305,17065.2,885.904,3309.24,-25.4261,247.302,-30.2383,5019.52,2770.96,8585.35,-31.0687,-12.8337,25.4666,-9102.48,13180.9,-3405.06,0.398661,19.7006,217.922,-2208.59,-10019.5,-2524.97,-14.3501,-9.64255,74.3858,10151.7,14126.8,-1589.11,-9.07748,-34.6917,9.48966,1156.99,-9421.41,-2078.87,-7.3804,-33.7125,52.7908,8713.54,-603.259,1782.93,19.7012,-14.984,3.11891
5.131,16875.0,975.289,3254.61,-26.2169,245.896,-30.8227,4981.09,2767.65,8595.91,-31.2851,-12.8927,25.5533,-9170.04,13036.2,-3405.87,1.21493,18.6512,217.143,-2204.34,-10007.1,-2533.47,-14.3534,-9.89088,74.4311,10516.6,14154.4,-1623.55,-12.0768,-33.735,10.1794,1135.84,-9416.5,-2075.84,-7.40643,-33.7704,52.9278,8729.8,-591.449,1799.65,19.3985,-15.0636,3.1458
5.1315,16684.9,1064.67,3199.97,-27.0078,244.489,-31.4072,4942.66,2764.35,8606.48,-31.5014,-12.9517,25.6401,-9237.59,12891.4,-3406.67,2.0312,17.6019,216.363,-2200.1,-9994.68,-2541.97,-14.3566,-10.1392,74.4764,10881.5,14181.9,-1657.99,-15.076,-32.7782,10.8691,1114.7,-9411.59,-2072.81,-7.43246,-33.8284,53.0648,8746.05,-579.639,1816.36,19.0958,-15.1432,3.17269
5.132,16494.8,1154.06,3145.34,-27.7987,243.083,-31.9916,4904.23,2761.04,8617.04,-31.7178,-13.0107,25.7269,-9305.14,12746.6,-3407.48,2.84747,16.5525,215.584,-2195.86,-9982.26,-2550.47,-14.3598,-10.3876,74.5217,11246.5,14209.5,-1692.43,-18.0753,-31.8214,11.5588,1093.55,-9406.68,-2069.78,-7.45849,-33.8863,53.2018,8762.3,-567.829,1833.07,18.7931,-15.2228,3.19958
5.1325,16304.7,1243.44,3090.7,-28.5895,241.677,-32.576,4865.8,2757.74,8627.61,-31.9341,-13.0697,25.8137,-9372.69,12601.9,-3408.29,3.66374,15.5031,214.805,-2191.62,-9969.83,-2558.97,-14.3631,-10.6359,74.5669,11611.4,14237.0,-1726.87,-21.0746,-30.8647,12.2486,1072.4,-9401.77,-2066.76,-7.48452,-33.9442,53.3388,8778.55,-556.02,1849.78,18.4903,-15.3024,3.22647
5.133,16114.6,1332.83,3036.07,-29.3804,240.27,-33.1605,4827.37,2754.43,8638.17,-32.1504,-13.1287,25.9005,-9440.25,12457.1,-3409.09,4.48,14.4537,214.025,-2187.38,-9957.41,-2567.47,-14.3663,-10.8842,74.6122,11976.3,14264.6,-1761.32,-24.0739,-29.9079,12.9383,1051.26,-9396.86,-2063.73,-7.51055,-34.0021,53.4758,8794.8,-544.21,1866.49,18.1876,-15.382,3.25336
5.1335,15968.8,1471.45,2958.63,-30.3693,238.731,-33.419,4801.55,2748.75,8639.09,-32.3589,-13.2188,25.9793,-9512.92,12325.5,-3387.36,5.2314,13.1084,213.192,-2195.48,-9948.22,-2576.56,-14.3661,-11.1565,74.6798,12353.0,14268.5,-1803.16,-27.0508,-28.6832,13.6089,1028.73,-9399.16,-2059.67,-7.54799,-34.0938,53.6171,8810.55,-531.325,1880.54,17.8877,-15.4624,3.27187
5.134,15911.7,1708.55,2835.59,-31.7543,236.926,-33.0256,4800.95,2738.32,8620.71,-32.5516,-13.3708,26.0422,-9595.86,12220.2,-3320.56,5.85303,11.1712,212.25,-2228.29,-9945.5,-2586.85,-14.3591,-11.4768,74.7917,12753.3,14225.0,-1859.8,-29.9828,-26.9228,14.2415,1003.45,-9415.88,-2053.56,-7.60825,-34.2528,53.7669,8825.3,-516.291,1889.28,17.5933,-15.5446,3.27363
5.1345,15854.5,1945.65,2712.54,-33.1393,235.12,-32.6322,4800.36,2727.88,8602.33,-32.7443,-13.5229,26.105,-9678.79,12114.9,-3253.76,6.47467,9.23392,211.308,-2261.1,-9942.77,-2597.14,-14.352,-11.7971,74.9037,13153.5,14181.6,-1916.45,-32.9149,-25.1623,14.874,978.177,-9432.6,-2047.44,-7.66851,-34.4119,53.9167,8840.06,-501.256,1898.02,17.299,-15.6268,3.2754
5.135,15797.4,2182.76,2589.5,-34.5243,233.315,-32.2389,4799.76,2717.45,8583.95,-32.937,-13.675,26.1678,-9761.72,12009.6,-3186.96,7.09631,7.29668,210.366,-2293.9,-9940.04,-2607.43,-14.3449,-12.1174,75.0157,13553.8,14138.1,-1973.1,-35.847,-23.4018,15.5065,952.898,-9449.32,-2041.33,-7.72877,-34.571,54.0665,8854.81,-486.222,1906.76,17.0046,-15.709,3.27716
5.1355,15740.3,2419.86,2466.45,-35.9093,231.51,-31.8455,4799.17,2707.02,8565.57,-33.1297,-13.827,26.2307,-9844.65,11904.3,-3120.15,7.71795,5.35943,209.424,-2326.71,-9937.32,-2617.71,-14.3379,-12.4377,75.1277,13954.1,14094.7,-2029.75,-38.779,-21.6414,16.1391,927.62,-9466.04,-2035.21,-7.78904,-34.73,54.2163,8869.56,-471.188,1915.49,16.7102,-15.7912,3.27893
5.136,15683.2,2656.96,2343.41,-37.2943,229.704,-31.4521,4798.57,2696.59,8547.19,-33.3224,-13.9791,26.2935,-9927.58,11799.0,-3053.35,8.33959,3.42219,208.482,-2359.51,-9934.59,-2628.0,-14.3308,-12.758,75.2397,14354.3,14051.2,-2086.39,-41.7111,-19.8809,16.7716,902.342,-9482.76,-2029.1,-7.8493,-34.8891,54.3662,8884.31,-456.153,1924.23,16.4159,-15.8734,3.28069
5.1365,15626.1,2894.06,2220.36,-38.6793,227.899,-31.0587,4797.98,2686.15,8528.81,-33.515,-14.1312,26.3563,-10010.5,11693.7,-2986.55,8.96123,1.48494,207.541,-2392.32,-9931.87,-2638.29,-14.3237,-13.0783,75.3516,14754.6,14007.8,-2143.04,-44.6432,-18.1204,17.4041,877.064,-9499.48,-2022.99,-7.90956,-35.0482,54.516,8899.07,-441.119,1932.97,16.1215,-15.9556,3.28245
5.137,15568.9,3131.16,2097.32,-40.0643,226.093,-30.6654,4797.39,2675.72,8510.43,-33.7077,-14.2832,26.4192,-10093.4,11588.4,-2919.74,9.58287,-0.4523,206.599,-2425.13,-9929.14,-2648.58,-14.3167,-13.3986,75.4636,15154.8,13964.4,-2199.69,-47.5752,-16.36,18.0366,851.786,-9516.21,-2016.87,-7.96982,-35.2073,54.6658,8913.82,-426.085,1941.71,15.8272,-16.0378,3.28422
5.1375,15511.8,3368.27,1974.27,-41.4494,224.288,-30.272,4796.79,2665.29,8492.05,-33.9004,-14.4353,26.482,-10176.4,11483.1,-2852.94,10.2045,-2.38954,205.657,-2457.93,-9926.42,-2658.87,-14.3096,-13.7189,75.5756,15555.1,13920.9,-2256.33,-50.5073,-14.5995,18.6692,826.508,-9532.93,-2010.76,-8.03008,-35.3663,54.8156,8928.57,-411.05,1950.45,15.5328,-16.12,3.28598
5.138,15500.0,3571.16,1809.89,-43.4886,222.631,-29.8635,4811.48,2660.98,8486.7,-34.1044,-14.4873,26.5347,-10253.5,11407.0,-2759.84,10.6312,-4.39311,204.601,-2482.76,-9931.49,-2660.61,-14.2863,-14.0301,75.6799,15925.4,13844.6,-2286.79,-52.9417,-12.7982,19.2599,799.826,-9548.46,-2001.21,-8.07955,-35.5485,54.9637,8943.62,-394.427,1950.74,15.208,-16.1407,3.31276
5.1385,15544.7,3731.29,1593.85,-46.3457,221.159,-29.436,4845.28,2664.34,8497.63,-34.3226,-14.4142,26.5748,-10323.5,11367.5,-2633.86,10.8142,-6.47956,203.402,-2497.61,-9946.31,-2651.67,-14.2428,-14.3298,75.7745,16258.2,13727.2,-2284.51,-54.754,-10.9458,19.7984,771.389,-9562.5,-1987.37,-8.11552,-35.7597,55.1095,8959.03,-375.818,1940.48,14.845,-16.0844,3.37081
5.139,15589.4,3891.41,1377.8,-49.2028,219.687,-29.0085,4879.08,2667.7,8508.56,-34.5407,-14.3411,26.6148,-10393.4,11328.0,-2507.89,10.9972,-8.56602,202.203,-2512.46,-9961.13,-2642.73,-14.1993,-14.6295,75.8691,16591.0,13609.7,-2282.23,-56.5662,-9.0934,20.3369,742.952,-9576.55,-1973.53,-8.15149,-35.9708,55.2554,8974.45,-357.209,1930.22,14.4821,-16.0281,3.42886
5.1395,15634.1,4051.54,1161.75,-52.0599,218.215,-28.5811,4912.88,2671.05,8519.48,-34.7589,-14.268,26.6549,-10463.3,11288.5,-2381.91,11.1802,-10.6525,201.004,-2527.31,-9975.95,-2633.79,-14.1558,-14.9293,75.9637,16923.9,13492.3,-2279.95,-58.3785,-7.24101,20.8754,714.516,-9590.59,-1959.69,-8.18747,-36.1819,55.4012,8989.87,-338.599,1919.96,14.1191,-15.9718,3.48691
5.14,15678.8,4211.67,945.702,-54.917,216.743,-28.1536,4946.68,2674.41,8530.41,-34.977,-14.1949,26.695,-10533.2,11248.9,-2255.94,11.3632,-12.7389,199.805,-2542.16,-9990.77,-2624.85,-14.1123,-15.229,76.0583,17256.7,13374.9,-2277.68,-60.1908,-5.38862,21.4139,686.079,-9604.64,-1945.85,-8.22344,-36.393,55.5471,9005.28,-319.99,1909.69,13.7561,-15.9155,3.54496
5.1405,15723.5,4371.8,729.654,-57.774,215.272,-27.7261,4980.48,2677.77,8541.34,-35.1951,-14.1218,26.735,-10603.2,11209.4,-2129.96,11.5462,-14.8254,198.606,-2557.01,-10005.6,-2615.91,-14.0687,-15.5288,76.153,17589.5,13257.5,-2275.4,-62.0031,-3.53623,21.9524,657.642,-9618.68,-1932.01,-8.25941,-36.6041,55.6929,9020.7,-301.381,1899.43,13.3932,-15.8592,3.60301
5.141,15768.2,4531.93,513.606,-60.6311,213.8,-27.2986,5014.28,2681.13,8552.27,-35.4133,-14.0487,26.7751,-10673.1,11169.9,-2003.98,11.7292,-16.9118,197.407,-2571.86,-10020.4,-2606.97,-14.0252,-15.8285,76.2476,17922.4,13140.0,-2273.12,-63.8154,-1.68383,22.4908,629.205,-9632.73,-1918.17,-8.29539,-36.8153,55.8388,9036.12,-282.772,1889.17,13.0302,-15.8029,3.66106
5.1415,15812.9,4692.06,297.558,-63.4882,212.328,-26.8712,5048.08,2684.48,8563.2,-35.6314,-13.9756,26.8151,-10743.0,11130.4,-1878.01,11.9122,-18.9983,196.208,-2586.71,-10035.2,-2598.03,-13.9817,-16.1283,76.3422,18255.2,13022.6,-2270.84,-65.6277,0.168556,23.0293,600.768,-9646.77,-1904.33,-8.33136,-37.0264,55.9846,9051.53,-264.162,1878.91,12.6672,-15.7466,3.71911
5.142,15857.6,4852.19,81.51,-66.3453,210.856,-26.4437,5081.88,2687.84,8574.13,-35.8496,-13.9025,26.8552,-10813.0,11090.8,-1752.03,12.0952,-21.0848,195.009,-2601.56,-10050.0,-2589.09,-13.9382,-16.428,76.4368,18588.0,12905.2,-2268.56,-67.44,2.02095,23.5678,572.332,-9660.82,-1890.49,-8.36733,-37.2375,56.1305,9066.95,-245.553,1868.65,12.3043,-15.6903,3.77716
5.1425,15909.5,4928.58,-123.847,-69.4773,209.234,-26.1986,5111.1,2666.41,8578.98,-36.1243,-13.8672,26.8599,-10876.1,11057.2,-1639.13,12.1476,-23.0476,193.778,-2622.02,-10060.5,-2572.39,-13.9333,-16.7408,76.5661,18845.9,12749.6,-2214.62,-68.3556,3.61521,23.8913,541.31,-9676.23,-1881.28,-8.3768,-37.4767,56.2369,9077.02,-233.933,1861.57,11.8692,-15.591,3.81881
5.143,15967.0,4937.97,-320.65,-72.8291,207.491,-26.0994,5136.66,2625.15,8578.98,-36.4442,-13.8621,26.8363,-10933.8,11028.2,-1536.7,12.0955,-24.9115,192.519,-2646.98,-10067.4,-2549.49,-13.9592,-17.064,76.7231,19043.9,12563.4,-2119.34,-68.5538,5.00296,24.0426,508.221,-9692.74,-1875.75,-8.36506,-37.7382,56.3119,9082.81,-227.905,1857.04,11.3764,-15.4574,3.84734
5.1435,16024.6,4947.37,-517.454,-76.181,205.749,-26.0002,5162.22,2583.89,8578.97,-36.7641,-13.8571,26.8127,-10991.4,10999.2,-1434.26,12.0434,-26.7755,191.261,-2671.93,-10074.4,-2526.59,-13.9852,-17.3871,76.88,19241.9,12377.2,-2024.07,-68.7521,6.39072,24.194,475.132,-9709.24,-1870.23,-8.35332,-37.9998,56.3868,9088.6,-221.876,1852.51,10.8835,-15.3237,3.87588
5.144,16082.1,4956.76,-714.258,-79.5329,204.006,-25.901,5187.78,2542.62,8578.97,-37.084,-13.852,26.789,-11049.1,10970.3,-1331.83,11.9913,-28.6394,190.003,-2696.89,-10081.3,-2503.69,-14.0112,-17.7103,77.037,19439.9,12191.0,-1928.79,-68.9503,7.77847,24.3454,442.042,-9725.75,-1864.71,-8.34158,-38.2614,56.4617,9094.39,-215.847,1847.98,10.3907,-15.1901,3.90441
5.1445,16139.7,4966.16,-911.061,-82.8848,202.264,-25.8018,5213.33,2501.36,8578.96,-37.4039,-13.847,26.7654,-11106.8,10941.3,-1229.39,11.9392,-30.5033,188.745,-2721.84,-10088.3,-2480.79,-14.0372,-18.0335,77.194,19637.9,12004.8,-1833.52,-69.1486,9.16623,24.4968,408.953,-9742.26,-1859.19,-8.32984,-38.5229,56.5367,9100.18,-209.819,1843.45,9.89793,-15.0565,3.93294
5.145,16197.2,4975.56,-1107.86,-86.2366,200.521,-25.7026,5238.89,2460.1,8578.96,-37.7239,-13.8419,26.7418,-11164.5,10912.4,-1126.95,11.8872,-32.3673,187.486,-2746.8,-10095.2,-2457.88,-14.0631,-18.3567,77.351,19835.8,11818.7,-1738.25,-69.3468,10.554,24.6482,375.864,-9758.76,-1853.67,-8.3181,-38.7845,56.6116,9105.97,-203.79,1838.92,9.40513,-14.9229,3.96147
5.1455,16254.8,4984.95,-1304.67,-89.5885,198.779,-25.6034,5264.45,2418.84,8578.95,-38.0438,-13.8369,26.7182,-11222.2,10883.4,-1024.52,11.8351,-34.2312,186.228,-2771.75,-10102.2,-2434.98,-14.0891,-18.6799,77.5079,20033.8,11632.5,-1642.97,-69.5451,11.9417,24.7996,342.774,-9775.27,-1848.15,-8.30636,-39.0461,56.6866,9111.76,-197.761,1834.39,8.91232,-14.7892,3.99001
5.146,16312.3,4994.35,-1501.47,-92.9404,197.036,-25.5042,5290.01,2377.58,8578.95,-38.3637,-13.8318,26.6946,-11279.8,10854.4,-922.082,11.783,-36.0951,184.97,-2796.71,-10109.1,-2412.08,-14.1151,-19.0031,77.6649,20231.8,11446.3,-1547.7,-69.7433,13.3295,24.951,309.685,-9791.77,-1842.63,-8.29462,-39.3077,56.7615,9117.55,-191.733,1829.86,8.41951,-14.6556,4.01854
5.1465,16369.9,5003.74,-1698.28,-96.2922,195.294,-25.405,5315.57,2336.32,8578.94,-38.6836,-13.8267,26.671,-11337.5,10825.5,-819.647,11.7309,-37.9591,183.711,-2821.66,-10116.0,-2389.18,-14.1411,-19.3263,77.8219,20429.8,11260.1,-1452.42,-69.9415,14.7172,25.1024,276.596,-9808.28,-1837.11,-8.28288,-39.5692,56.8364,9123.34,-185.704,1825.33,7.92671,-14.522,4.04707
5.147,16432.9,4963.0,-1862.86,-98.9963,193.292,-25.3747,5325.57,2303.87,8557.39,-38.749,-13.8703,26.6429,-11382.9,10776.3,-731.718,11.7537,-39.5522,182.357,-2843.72,-10133.3,-2371.76,-14.1479,-19.6411,77.9607,20492.7,11078.3,-1377.99,-69.1529,16.1197,24.7982,256.378,-9828.25,-1828.91,-8.23314,-39.8804,56.8959,9125.8,-185.643,1831.43,7.40739,-14.3872,4.0506
5.1475,16498.7,4897.18,-2011.35,-101.376,191.16,-25.3789,5327.81,2275.84,8525.07,-38.687,-13.9382,26.6126,-11422.2,10717.0,-651.044,11.8138,-41.0098,180.954,-2864.32,-10155.6,-2357.08,-14.145,-19.9516,78.0904,20488.1,10898.7,-1313.98,-67.8708,17.5296,24.2663,242.595,-9849.95,-1819.38,-8.16439,-40.2164,56.9477,9126.6,-188.567,1842.85,6.87483,-14.2517,4.04163
5.148,16564.5,4831.37,-2159.83,-103.757,189.028,-25.3831,5330.04,2247.81,8492.75,-38.625,-14.0061,26.5823,-11461.5,10657.7,-570.369,11.874,-42.4675,179.551,-2884.93,-10178.0,-2342.4,-14.1422,-20.2622,78.2201,20483.6,10719.0,-1249.97,-66.5886,18.9394,23.7344,228.812,-9871.65,-1809.84,-8.09565,-40.5524,56.9994,9127.39,-191.491,1854.27,6.34227,-14.1163,4.03266
5.1485,16630.3,4765.55,-2308.31,-106.137,186.895,-25.3873,5332.27,2219.77,8460.43,-38.563,-14.074,26.552,-11500.8,10598.4,-489.694,11.9342,-43.9251,178.148,-2905.54,-10200.4,-2327.72,-14.1394,-20.5728,78.3498,20479.0,10539.4,-1185.96,-65.3065,20.3493,23.2025,215.03,-9893.35,-1800.31,-8.02691,-40.8884,57.0512,9128.19,-194.414,1865.69,5.8097,-13.9808,4.02369
5.149,16696.1,4699.73,-2456.79,-108.517,184.763,-25.3915,5334.5,2191.74,8428.12,-38.5011,-14.1419,26.5217,-11540.1,10539.2,-409.02,11.9944,-45.3828,176.745,-2926.14,-10222.7,-2313.04,-14.1366,-20.8834,78.4795,20474.4,10359.7,-1121.95,-64.0244,21.7591,22.6706,201.247,-9915.06,-1790.77,-7.95817,-41.2244,57.1029,9128.99,-197.338,1877.11,5.27714,-13.8454,4.01472
5.1495,16761.9,4633.92,-2605.27,-110.897,182.631,-25.3957,5336.73,2163.71,8395.8,-38.4391,-14.2098,26.4914,-11579.4,10479.9,-328.345,12.0546,-46.8405,175.342,-2946.75,-10245.1,-2298.36,-14.1337,-21.194,78.6092,20469.9,10180.1,-1057.95,-62.7423,23.1689,22.1387,187.465,-9936.76,-1781.24,-7.88942,-41.5604,57.1547,9129.78,-200.262,1888.54,4.74458,-13.7099,4.00575
5.15,16827.6,4568.1,-2753.75,-113.277,180.499,-25.3999,5338.96,2135.67,8363.48,-38.3771,-14.2777,26.4611,-11618.7,10420.6,-247.67,12.1147,-48.2981,173.94,-2967.35,-10267.5,-2283.68,-14.1309,-21.5046,78.7389,20465.3,10000.4,-993.936,-61.4602,24.5788,21.6068,173.682,-9958.46,-1771.71,-7.82068,-41.8964,57.2064,9130.58,-203.185,1899.96,4.21201,-13.5745,3.99679
5.1505,16893.4,4502.28,-2902.23,-115.657,178.367,-25.4041,5341.2,2107.64,8331.16,-38.3151,-14.3456,26.4308,-11657.9,10361.3,-166.996,12.1749,-49.7558,172.537,-2987.96,-10289.8,-2269.0,-14.1281,-21.8151,78.8686,20460.7,9820.77,-929.927,-60.1781,25.9886,21.0749,159.899,-9980.16,-1762.17,-7.75194,-42.2324,57.2582,9131.38,-206.109,1911.38,3.67945,-13.439,3.98782
5.151,16959.2,4436.47,-3050.71,-118.038,176.235,-25.4083,5343.43,2079.61,8298.84,-38.2532,-14.4135,26.4005,-11697.2,10302.0,-86.3209,12.2351,-51.2135,171.134,-3008.56,-10312.2,-2254.32,-14.1253,-22.1257,78.9983,20456.2,9641.12,-865.917,-58.8959,27.3985,20.543,146.117,-10001.9,-1752.64,-7.6832,-42.5684,57.3099,9132.17,-209.032,1922.8,3.14688,-13.3036,3.97885
5.1515,17020.8,4351.72,-3198.42,-119.005,174.438,-25.1618,5336.11,2080.39,8310.64,-38.1906,-14.4832,26.4385,-11720.0,10230.3,2.60466,12.4039,-52.2276,169.438,-3018.89,-10340.7,-2240.62,-14.1115,-22.3996,79.1159,20246.1,9486.71,-912.955,-56.3544,29.3094,19.484,142.058,-10022.3,-1737.71,-7.53087,-42.951,57.3621,9130.11,-207.691,1929.32,2.63785,-13.2022,3.9673
5.152,17081.3,4261.57,-3345.9,-119.569,172.737,-24.8437,5326.06,2089.41,8335.04,-38.128,-14.5534,26.496,-11738.1,10155.1,93.8876,12.6038,-53.1151,167.66,-3026.29,-10370.9,-2227.21,-14.0947,-22.663,79.2299,19977.4,9339.51,-991.721,-53.4529,31.3635,18.2745,140.777,-10042.3,-1721.24,-7.35465,-43.3469,57.4144,9127.23,-205.13,1934.46,2.13555,-13.1106,3.95501
5.1525,17141.7,4171.42,-3493.38,-120.132,171.036,-24.5255,5316.01,2098.42,8359.44,-38.0653,-14.6235,26.5535,-11756.2,10079.8,185.171,12.8037,-54.0025,165.881,-3033.68,-10401.1,-2213.79,-14.0778,-22.9264,79.3439,19708.7,9192.31,-1070.49,-50.5515,33.4176,17.065,139.496,-10062.4,-1704.76,-7.17843,-43.7429,57.4666,9124.34,-202.57,1939.59,1.63324,-13.0189,3.94273
5.153,17202.1,4081.27,-3640.86,-120.696,169.335,-24.2073,5305.97,2107.44,8383.84,-38.0026,-14.6937,26.611,-11774.3,10004.6,276.453,13.0036,-54.8899,164.102,-3041.08,-10431.3,-2200.37,-14.0609,-23.1898,79.458,19440.0,9045.11,-1149.25,-47.6501,35.4717,15.8555,138.215,-10082.5,-1688.29,-7.00222,-44.1388,57.5189,9121.46,-200.01,1944.72,1.13094,-12.9273,3.93044
5.1535,17262.5,3991.13,-3788.34,-121.259,167.634,-23.8891,5295.92,2116.46,8408.24,-37.9399,-14.7639,26.6685,-11792.4,9929.3,367.736,13.2034,-55.7774,162.323,-3048.48,-10461.5,-2186.96,-14.0441,-23.4531,79.5721,19171.3,8897.92,-1228.02,-44.7486,37.5258,14.6459,136.934,-10102.5,-1671.82,-6.826,-44.5347,57.5711,9118.58,-197.45,1949.85,0.628633,-12.8357,3.91816
5.154,17323.0,3900.98,-3935.82,-121.823,165.933,-23.571,5285.87,2125.47,8432.64,-37.8772,-14.834,26.726,-11810.5,9854.04,459.019,13.4033,-56.6648,160.544,-3055.87,-10491.7,-2173.54,-14.0272,-23.7165,79.6861,18902.6,8750.72,-1306.78,-41.8472,39.5799,13.4364,135.653,-10122.6,-1655.35,-6.64979,-44.9306,57.6234,9115.7,-194.889,1954.98,0.126327,-12.744,3.90588
5.1545,17383.4,3810.83,-4083.3,-122.387,164.232,-23.2528,5275.82,2134.49,8457.04,-37.8145,-14.9042,26.7835,-11828.6,9778.78,550.302,13.6032,-57.5523,158.765,-3063.27,-10521.9,-2160.12,-14.0104,-23.9799,79.8002,18633.9,8603.52,-1385.55,-38.9458,41.634,12.2269,134.372,-10142.6,-1638.88,-6.47357,-45.3265,57.6757,9112.82,-192.329,1960.11,-0.375978,-12.6524,3.89359
5.155,17443.8,3720.68,-4230.78,-122.95,162.531,-22.9346,5265.78,2143.51,8481.44,-37.7518,-14.9744,26.841,-11846.6,9703.52,641.585,13.8031,-58.4397,156.986,-3070.66,-10552.1,-2146.7,-13.9935,-24.2433,79.9142,18365.2,8456.32,-1464.32,-36.0443,43.6881,11.0174,133.091,-10162.7,-1622.4,-6.29736,-45.7224,57.7279,9109.94,-189.769,1965.24,-0.878284,-12.5608,3.88131
5.1555,17504.3,3630.53,-4378.26,-123.514,160.83,-22.6165,5255.73,2152.52,8505.84,-37.6892,-15.0445,26.8985,-11864.7,9628.27,732.868,14.0029,-59.3271,155.207,-3078.06,-10582.3,-2133.29,-13.9766,-24.5067,80.0283,18096.5,8309.13,-1543.08,-33.1429,45.7422,9.80784,131.81,-10182.8,-1605.93,-6.12114,-46.1184,57.7802,9107.06,-187.208,1970.37,-1.38059,-12.4691,3.86902
5.156,17583.0,3534.89,-4510.7,-122.481,159.399,-21.9713,5261.69,2134.48,8536.56,-37.7522,-15.1497,26.8275,-11842.2,9574.13,803.751,14.22,-59.5297,153.052,-3079.01,-10595.0,-2104.07,-14.0026,-24.7705,80.1884,17732.9,8292.79,-1702.88,-29.8819,47.8879,9.05215,135.936,-10203.1,-1596.58,-5.91682,-46.5581,57.8012,9116.54,-200.557,1966.55,-1.88253,-12.3698,3.76933
5.1565,17664.0,3438.57,-4641.26,-121.248,158.002,-21.2852,5269.65,2113.05,8568.06,-37.8309,-15.2592,26.7404,-11814.6,9522.64,872.085,14.4392,-59.6467,150.85,-3079.16,-10605.5,-2072.88,-14.0339,-25.0343,80.3543,17357.5,8292.81,-1872.81,-26.5759,50.0452,8.35319,140.739,-10223.4,-1588.11,-5.70898,-47.0032,57.8182,9127.58,-215.895,1961.62,-2.38442,-12.2695,3.65871
5.157,17745.0,3342.25,-4771.82,-120.015,156.604,-20.5992,5277.62,2091.62,8599.56,-37.9096,-15.3687,26.6533,-11787.1,9471.15,940.418,14.6584,-59.7637,148.647,-3079.31,-10616.0,-2041.69,-14.0652,-25.2981,80.5202,16982.0,8292.82,-2042.73,-23.2699,52.2024,7.65423,145.541,-10243.7,-1579.64,-5.50114,-47.4484,57.8353,9138.62,-231.232,1956.68,-2.88631,-12.1693,3.5481
5.1575,17825.9,3245.93,-4902.38,-118.782,155.207,-19.9131,5285.58,2070.2,8631.06,-37.9883,-15.4783,26.5663,-11759.5,9419.66,1008.75,14.8776,-59.8807,146.445,-3079.46,-10626.6,-2010.5,-14.0965,-25.5619,80.6861,16606.5,8292.84,-2212.66,-19.9639,54.3596,6.95527,150.343,-10264.0,-1571.18,-5.29331,-47.8936,57.8524,9149.65,-246.57,1951.75,-3.3882,-12.069,3.43748
5.158,17906.9,3149.61,-5032.94,-117.549,153.81,-19.2271,5293.54,2048.77,8662.56,-38.067,-15.5878,26.4792,-11731.9,9368.17,1077.09,15.0968,-59.9977,144.242,-3079.61,-10637.1,-1979.31,-14.1278,-25.8258,80.852,16231.1,8292.86,-2382.59,-16.6579,56.5168,6.2563,155.146,-10284.4,-1562.71,-5.08547,-48.3388,57.8694,9160.69,-261.907,1946.81,-3.8901,-11.9687,3.32686
5.1585,17987.9,3053.29,-5163.5,-116.316,152.413,-18.541,5301.5,2027.34,8694.07,-38.1457,-15.6973,26.3921,-11704.3,9316.68,1145.42,15.316,-60.1147,142.04,-3079.76,-10647.6,-1948.11,-14.1591,-26.0896,81.0179,15855.6,8292.88,-2552.52,-13.3519,58.674,5.55734,159.948,-10304.7,-1554.25,-4.87763,-48.784,57.8865,9171.72,-277.244,1941.87,-4.39199,-11.8685,3.21624
5.159,18068.9,2956.97,-5294.06,-115.083,151.016,-17.855,5309.47,2005.91,8725.57,-38.2244,-15.8068,26.305,-11676.7,9265.19,1213.75,15.5352,-60.2317,139.837,-3079.91,-10658.1,-1916.92,-14.1904,-26.3534,81.1838,15480.2,8292.9,-2722.44,-10.0459,60.8312,4.85838,164.75,-10325.0,-1545.78,-4.66979,-49.2292,57.9036,9182.76,-292.582,1936.94,-4.89388,-11.7682,3.10563
5.1595,18149.9,2860.65,-5424.62,-113.85,149.619,-17.1689,5317.43,1984.48,8757.07,-38.3031,-15.9164,26.218,-11649.1,9213.7,1282.09,15.7544,-60.3487,137.635,-3080.06,-10668.6,-1885.73,-14.2217,-26.6172,81.3497,15104.7,8292.92,-2892.37,-6.73986,62.9884,4.15942,169.553,-10345.3,-1537.31,-4.46196,-49.6744,57.9206,9193.8,-307.919,1932.0,-5.39577,-11.6679,2.99501
5.16,18230.9,2764.33,-5555.18,-112.617,148.222,-16.4829,5325.39,1963.06,8788.57,-38.3818,-16.0259,26.1309,-11621.6,9162.21,1350.42,15.9736,-60.4657,135.433,-3080.21,-10679.2,-1854.54,-14.253,-26.8811,81.5156,14729.2,8292.94,-3062.3,-3.43386,65.1456,3.46045,174.355,-10365.7,-1528.85,-4.25412,-50.1195,57.9377,9204.83,-323.257,1927.07,-5.89767,-11.5676,2.88439
5.1605,18311.5,2681.83,-5660.07,-109.938,146.62,-15.7361,5335.57,1938.08,8788.45,-38.2854,-16.1822,25.9628,-11571.9,9154.35,1399.98,16.0531,-59.7687,132.73,-3075.69,-10688.4,-1837.81,-14.225,-27.0233,81.6881,14497.0,8432.32,-3219.52,-1.52684,66.339,4.42144,196.342,-10380.0,-1509.38,-4.07593,-50.459,57.8911,9216.39,-338.193,1916.38,-6.31899,-11.3962,2.72432
5.161,18392.2,2599.32,-5764.96,-107.259,145.018,-14.9894,5345.76,1913.1,8788.33,-38.189,-16.3386,25.7947,-11522.3,9146.48,1449.54,16.1326,-59.0716,130.027,-3071.16,-10697.7,-1821.09,-14.197,-27.1656,81.8605,14264.7,8571.71,-3376.73,0.380172,67.5324,5.38242,218.328,-10394.3,-1489.91,-3.89773,-50.7985,57.8444,9227.95,-353.13,1905.7,-6.74031,-11.2248,2.56425
5.1615,18472.8,2516.82,-5869.85,-104.58,143.416,-14.2427,5355.94,1888.12,8788.21,-38.0926,-16.4949,25.6266,-11472.7,9138.62,1499.1,16.2121,-58.3746,127.325,-3066.64,-10706.9,-1804.36,-14.169,-27.3078,82.033,14032.4,8711.09,-3533.95,2.28719,68.7257,6.3434,240.315,-10408.7,-1470.45,-3.71954,-51.138,57.7978,9239.51,-368.067,1895.01,-7.16163,-11.0533,2.40419
5.162,18553.4,2434.31,-5974.74,-101.901,141.815,-13.4959,5366.13,1863.14,8788.09,-37.9962,-16.6513,25.4585,-11423.1,9130.76,1548.66,16.2916,-57.6776,124.622,-3062.12,-10716.1,-1787.64,-14.141,-27.4501,82.2054,13800.2,8850.47,-3691.16,4.1942,69.9191,7.30439,262.302,-10423.0,-1450.98,-3.54134,-51.4775,57.7512,9251.07,-383.003,1884.33,-7.58295,-10.8819,2.24412
5.1625,18634.1,2351.8,-6079.63,-99.222,140.213,-12.7492,5376.31,1838.16,8787.97,-37.8998,-16.8076,25.2904,-11373.5,9122.89,1598.23,16.3711,-56.9806,121.919,-3057.6,-10725.4,-1770.91,-14.113,-27.5924,82.3778,13567.9,8989.86,-3848.38,6.10122,71.1125,8.26537,284.289,-10437.3,-1431.52,-3.36315,-51.817,57.7045,9262.63,-397.94,1873.65,-8.00427,-10.7105,2.08405
5.163,18714.7,2269.3,-6184.52,-96.5429,138.611,-12.0025,5386.5,1813.19,8787.85,-37.8034,-16.9639,25.1223,-11323.8,9115.03,1647.79,16.4506,-56.2836,119.217,-3053.08,-10734.6,-1754.19,-14.085,-27.7346,82.5503,13335.6,9129.24,-4005.59,8.00823,72.3059,9.22635,306.275,-10451.6,-1412.05,-3.18495,-52.1565,57.6579,9274.19,-412.877,1862.96,-8.42559,-10.539,1.92398
5.1635,18795.3,2186.79,-6289.41,-93.8638,137.009,-11.2558,5396.68,1788.21,8787.74,-37.707,-17.1203,24.9542,-11274.2,9107.17,1697.35,16.5301,-55.5866,116.514,-3048.55,-10743.9,-1737.46,-14.057,-27.8769,82.7227,13103.3,9268.63,-4162.81,9.91525,73.4993,10.1873,328.262,-10466.0,-1392.58,-3.00676,-52.496,57.6112,9285.75,-427.813,1852.28,-8.84691,-10.3676,1.76391
5.164,18876.0,2104.29,-6394.3,-91.1847,135.408,-10.509,5406.86,1763.23,8787.62,-37.6106,-17.2766,24.7861,-11224.6,9099.3,1746.91,16.6096,-54.8896,113.812,-3044.03,-10753.1,-1720.73,-14.029,-28.0191,82.8951,12871.1,9408.01,-4320.02,11.8223,74.6926,11.1483,350.249,-10480.3,-1373.12,-2.82856,-52.8355,57.5646,9297.31,-442.75,1841.59,-9.26823,-10.1962,1.60384
5.1645,18954.0,2025.13,-6500.64,-88.4331,133.761,-9.76606,5414.07,1739.42,8788.88,-37.5105,-17.4448,24.6225,-11174.8,9094.62,1793.46,16.6676,-54.1068,111.081,-3038.5,-10761.9,-1704.21,-14.0034,-28.1556,83.0689,12643.6,9537.79,-4474.22,13.5863,75.8499,12.0691,373.378,-10493.5,-1353.67,-2.65187,-53.1518,57.5127,9308.64,-457.88,1831.87,-9.67156,-10.0236,1.44426
5.165,19011.0,1972.73,-6618.57,-85.102,131.751,-9.05316,5397.49,1724.99,8801.19,-37.381,-17.7073,24.495,-11124.0,9115.36,1815.93,16.5542,-52.6379,108.126,-3024.87,-10767.4,-1689.28,-13.997,-28.2454,83.2532,12454.2,9590.74,-4604.27,14.2069,76.7178,12.6678,405.653,-10497.6,-1334.32,-2.48722,-53.2818,57.4181,9318.05,-474.559,1829.86,-9.93101,-9.8413,1.28855
5.1655,19067.9,1920.34,-6736.51,-81.7708,129.741,-8.34025,5380.9,1710.57,8813.49,-37.2514,-17.9698,24.3675,-11073.1,9136.11,1838.4,16.4408,-51.169,105.172,-3011.25,-10772.8,-1674.36,-13.9907,-28.3353,83.4374,12264.8,9643.69,-4734.31,14.8274,77.5857,13.2666,437.927,-10501.7,-1314.98,-2.32256,-53.4119,57.3236,9327.46,-491.238,1827.84,-10.1905,-9.65904,1.13284
5.166,19124.9,1867.94,-6854.45,-78.4397,127.731,-7.62735,5364.31,1696.14,8825.8,-37.1218,-18.2323,24.2401,-11022.2,9156.86,1860.87,16.3274,-49.7001,102.217,-2997.63,-10778.3,-1659.43,-13.9844,-28.4252,83.6217,12075.5,9696.63,-4864.36,15.4479,78.4536,13.8653,470.201,-10505.7,-1295.63,-2.15791,-53.542,57.2291,9336.88,-507.917,1825.83,-10.4499,-9.47678,0.977138
5.1665,19181.9,1815.55,-6972.38,-75.1086,125.722,-6.91444,5347.72,1681.71,8838.11,-36.9922,-18.4949,24.1126,-10971.3,9177.6,1883.34,16.2139,-48.2312,99.2626,-2984.0,-10783.7,-1644.51,-13.9781,-28.5151,83.806,11886.1,9749.58,-4994.4,16.0685,79.3215,14.4641,502.475,-10509.8,-1276.29,-1.99326,-53.6721,57.1346,9346.29,-524.596,1823.81,-10.7094,-9.29453,0.821432
