Time,RFoot_accel.x,RFoot_accel.y,RFoot_accel.z,RFoot_gyro.x,RFoot_gyro.y,RFoot_gyro.z,LFoot_accel.x,LFoot_accel.y,LFoot_accel.z,LFoot_gyro.x,LFoot_gyro.y,LFoot_gyro.z,RShank_accel.x,RShank_accel.y,RShank_accel.z,RShank_gyro.x,RShank_gyro.y,RShank_gyro.z,LShank_accel.x,LShank_accel.y,LShank_accel.z,LShank_gyro.x,LShank_gyro.y,LShank_gyro.z,RThigh_accel.x,RThigh_accel.y,RThigh_accel.z,RThigh_gyro.x,RThigh_gyro.y,RThigh_gyro.z,LThigh_accel.x,LThigh_accel.y,LThigh_accel.z,LThigh_gyro.x,LThigh_gyro.y,LThigh_gyro.z,Pelvis_accel.x,Pelvis_accel.y,Pelvis_accel.z,Pelvis_gyro.x,Pelvis_gyro.y,Pelvis_gyro.z
3.76,452.577,-539.601,4877.43,-119.89,396.296,-18.4129,4697.37,2635.52,7965.61,-39.8696,4.93144,19.6326,3997.47,5281.22,435.45,30.9469,-25.6344,214.275,-1111.29,-9501.41,-3048.43,-10.6718,-21.9525,44.9503,-4768.45,5571.83,3234.92,34.0175,61.0538,116.598,-1687.3,-10187.0,-2886.33,-20.8281,-41.4677,69.6887,7873.0,-59.6245,1293.9,-27.4097,-1.36877,51.3555
3.7605,409.066,-591.775,4913.39,-120.35,394.635,-17.3319,4718.47,2576.88,7952.81,-40.2053,5.07034,19.6651,3959.94,5327.27,430.096,31.0291,-25.0964,215.1,-1107.18,-9513.19,-3041.08,-10.5476,-21.6468,44.8703,-4738.97,5546.6,3181.85,34.3579,61.1245,116.172,-1660.18,-10202.9,-2856.36,-20.4681,-42.3051,69.6224,7874.54,-99.9592,1294.25,-27.9282,-1.31182,51.4823
3.761,365.555,-643.949,4949.35,-120.81,392.975,-16.2509,4739.57,2518.24,7940.0,-40.541,5.20925,19.6976,3922.4,5373.32,424.742,31.1113,-24.5584,215.924,-1103.08,-9524.97,-3033.73,-10.4234,-21.3411,44.7902,-4709.49,5521.37,3128.78,34.6983,61.1953,115.745,-1633.07,-10218.8,-2826.4,-20.108,-43.1425,69.5561,7876.07,-140.294,1294.61,-28.4467,-1.25487,51.6091
3.7615,322.043,-696.123,4985.31,-121.27,391.315,-15.1699,4760.67,2459.61,7927.2,-40.8768,5.34815,19.7301,3884.86,5419.37,419.388,31.1934,-24.0204,216.748,-1098.97,-9536.75,-3026.39,-10.2992,-21.0354,44.7102,-4680.01,5496.14,3075.71,35.0387,61.266,115.318,-1605.96,-10234.7,-2796.43,-19.748,-43.9799,69.4898,7877.61,-180.629,1294.96,-28.9652,-1.19793,51.7358
3.762,278.532,-748.297,5021.27,-121.731,389.654,-14.0889,4781.77,2400.97,7914.4,-41.2125,5.48705,19.7626,3847.33,5465.42,414.035,31.2756,-23.4823,217.572,-1094.87,-9548.52,-3019.04,-10.1751,-20.7297,44.6302,-4650.53,5470.91,3022.64,35.3791,61.3367,114.891,-1578.85,-10250.6,-2766.47,-19.3879,-44.8173,69.4235,7879.15,-220.963,1295.31,-29.4837,-1.14098,51.8626
3.7625,235.021,-800.471,5057.22,-122.191,387.994,-13.0079,4802.88,2342.34,7901.6,-41.5482,5.62596,19.7951,3809.79,5511.48,408.681,31.3578,-22.9443,218.396,-1090.77,-9560.3,-3011.7,-10.0509,-20.4241,44.5501,-4621.04,5445.67,2969.57,35.7194,61.4074,114.464,-1551.73,-10266.5,-2736.5,-19.0279,-45.6547,69.3572,7880.68,-261.298,1295.66,-30.0022,-1.08403,51.9894
3.763,191.51,-852.645,5093.18,-122.651,386.333,-11.927,4823.98,2283.7,7888.8,-41.8839,5.76486,19.8277,3772.26,5557.53,403.327,31.44,-22.4063,219.22,-1086.66,-9572.08,-3004.35,-9.92668,-20.1184,44.4701,-4591.56,5420.44,2916.5,36.0598,61.4782,114.038,-1524.62,-10282.3,-2706.54,-18.6679,-46.4921,69.2909,7882.22,-301.633,1296.02,-30.5207,-1.02708,52.1161
3.7635,147.999,-904.819,5129.14,-123.111,384.673,-10.846,4845.08,2225.07,7875.99,-42.2197,5.90376,19.8602,3734.72,5603.58,397.973,31.5222,-21.8683,220.044,-1082.56,-9583.86,-2997.0,-9.8025,-19.8127,44.3901,-4562.08,5395.21,2863.43,36.4002,61.5489,113.611,-1497.51,-10298.2,-2676.57,-18.3078,-47.3295,69.2246,7883.76,-341.968,1296.37,-31.0392,-0.970137,52.2429
3.764,104.487,-956.993,5165.1,-123.571,383.013,-9.76501,4866.18,2166.43,7863.19,-42.5554,6.04267,19.8927,3697.19,5649.63,392.62,31.6043,-21.3303,220.868,-1078.45,-9595.64,-2989.66,-9.67831,-19.507,44.31,-4532.6,5369.98,2810.36,36.7406,61.6196,113.184,-1470.4,-10314.1,-2646.61,-17.9478,-48.1669,69.1583,7885.29,-382.302,1296.72,-31.5577,-0.913189,52.3697
3.7645,65.6855,-1005.78,5201.41,-124.021,381.348,-8.66686,4889.12,2109.63,7850.96,-42.8691,6.17928,19.9309,3659.71,5698.24,389.512,31.6851,-20.7844,221.675,-1078.51,-9604.73,-2980.4,-9.56159,-19.1938,44.2367,-4504.99,5347.8,2757.09,37.1044,61.7353,112.781,-1442.7,-10327.8,-2614.58,-17.5979,-48.9863,69.1029,7888.4,-421.532,1299.88,-32.0322,-0.842421,52.4788
3.765,64.558,-1027.44,5240.53,-124.384,379.655,-7.43133,4926.72,2067.49,7843.24,-43.0069,6.29754,20.0144,3622.66,5767.29,404.378,31.7542,-20.1757,222.347,-1111.86,-9592.25,-2955.82,-9.50455,-18.82,44.2171,-4492.28,5350.02,2702.26,37.6555,62.2107,112.567,-1410.36,-10324.4,-2566.09,-17.3294,-49.6611,69.1351,7904.06,-451.919,1325.47,-32.1552,-0.661086,52.4463
3.7655,63.4305,-1049.09,5279.66,-124.747,377.961,-6.19581,4964.31,2025.35,7835.52,-43.1448,6.41581,20.098,3585.61,5836.33,419.243,31.8233,-19.567,223.019,-1145.22,-9579.78,-2931.24,-9.4475,-18.4463,44.1976,-4479.58,5352.24,2647.43,38.2066,62.6861,112.353,-1378.02,-10321.0,-2517.6,-17.0609,-50.336,69.1674,7919.71,-482.306,1351.07,-32.2781,-0.479751,52.4139
3.766,62.303,-1070.75,5318.78,-125.11,376.267,-4.96029,5001.91,1983.21,7827.8,-43.2826,6.53408,20.1815,3548.56,5905.38,434.108,31.8924,-18.9583,223.691,-1178.57,-9567.3,-2906.66,-9.39046,-18.0725,44.178,-4466.87,5354.46,2592.6,38.7576,63.1615,112.139,-1345.67,-10317.5,-2469.1,-16.7925,-51.0109,69.1996,7935.37,-512.693,1376.66,-32.4011,-0.298416,52.3815
3.7665,61.1755,-1092.41,5357.9,-125.474,374.573,-3.72476,5039.51,1941.07,7820.08,-43.4204,6.65234,20.2651,3511.52,5974.42,448.973,31.9615,-18.3496,224.362,-1211.92,-9554.83,-2882.08,-9.33342,-17.6988,44.1585,-4454.16,5356.68,2537.77,39.3087,63.6369,111.925,-1313.33,-10314.1,-2420.61,-16.524,-51.6857,69.2318,7951.02,-543.08,1402.26,-32.524,-0.117081,52.349
3.767,60.048,-1114.07,5397.02,-125.837,372.88,-2.48924,5077.11,1898.93,7812.36,-43.5582,6.77061,20.3486,3474.47,6043.47,463.838,32.0306,-17.7409,225.034,-1245.28,-9542.35,-2857.5,-9.27638,-17.325,44.1389,-4441.46,5358.89,2482.94,39.8598,64.1123,111.711,-1280.98,-10310.7,-2372.12,-16.2555,-52.3606,69.264,7966.68,-573.467,1427.85,-32.647,0.0642544,52.3166
3.7675,58.9205,-1135.73,5436.14,-126.2,371.186,-1.25372,5114.71,1856.79,7804.64,-43.696,6.88887,20.4321,3437.42,6112.51,478.703,32.0997,-17.1323,225.706,-1278.63,-9529.88,-2832.92,-9.21934,-16.9513,44.1193,-4428.75,5361.11,2428.11,40.4109,64.5877,111.496,-1248.64,-10307.2,-2323.63,-15.987,-53.0354,69.2962,7982.33,-603.855,1453.45,-32.7699,0.245589,52.2842
3.768,57.793,-1157.39,5475.27,-126.563,369.492,-0.0181961,5152.3,1814.66,7796.92,-43.8339,7.00714,20.5157,3400.37,6181.56,493.568,32.1688,-16.5236,226.378,-1311.98,-9517.4,-2808.35,-9.1623,-16.5775,44.0998,-4416.05,5363.33,2373.28,40.9619,65.0631,111.282,-1216.3,-10303.8,-2275.13,-15.7186,-53.7103,69.3284,7997.99,-634.242,1479.04,-32.8928,0.426924,52.2517
3.7685,56.6654,-1179.05,5514.39,-126.927,367.798,1.21733,5189.9,1772.52,7789.2,-43.9717,7.12541,20.5992,3363.32,6250.6,508.434,32.2379,-15.9149,227.049,-1345.34,-9504.93,-2783.77,-9.10526,-16.2037,44.0802,-4403.34,5365.55,2318.45,41.513,65.5385,111.068,-1183.95,-10300.4,-2226.64,-15.4501,-54.3852,69.3606,8013.65,-664.629,1504.64,-33.0158,0.608259,52.2193
3.769,68.4257,-1194.0,5550.28,-127.191,366.213,2.51145,5216.34,1737.44,7787.0,-44.0867,7.24123,20.6823,3328.04,6316.09,518.602,32.3243,-15.2493,227.743,-1373.31,-9497.95,-2757.77,-9.04421,-15.8464,44.0938,-4397.39,5371.34,2267.12,42.0178,66.1347,110.932,-1152.35,-10293.3,-2188.11,-15.203,-54.9878,69.3951,8027.87,-696.064,1528.6,-33.038,0.809,52.1674
3.7695,125.293,-1185.49,5574.87,-127.106,365.01,4.01067,5203.7,1727.08,7804.09,-44.1219,7.34851,20.7637,3298.92,6369.11,512.333,32.4712,-14.3847,228.515,-1382.45,-9510.19,-2726.79,-8.96911,-15.5466,44.2232,-4415.11,5389.62,2228.04,42.3605,67.1536,111.068,-1123.32,-10273.4,-2184.42,-15.0309,-55.3376,69.4376,8037.1,-731.165,1546.84,-32.7076,1.07766,52.0471
3.77,182.16,-1176.98,5599.45,-127.022,363.807,5.50988,5191.07,1716.72,7821.18,-44.1571,7.45579,20.8451,3269.8,6422.13,506.064,32.6181,-13.52,229.286,-1391.6,-9522.44,-2695.81,-8.89402,-15.2468,44.3526,-4432.83,5407.9,2188.95,42.7033,68.1725,111.204,-1094.29,-10253.6,-2180.74,-14.8588,-55.6874,69.4802,8046.32,-766.267,1565.07,-32.3771,1.34632,51.9269
3.7705,239.028,-1168.47,5624.04,-126.938,362.603,7.0091,5178.43,1706.36,7838.27,-44.1923,7.56307,20.9265,3240.68,6475.15,499.795,32.765,-12.6554,230.058,-1400.74,-9534.68,-2664.83,-8.81893,-14.9469,44.4821,-4450.55,5426.18,2149.87,43.046,69.1914,111.341,-1065.26,-10233.7,-2177.06,-14.6867,-56.0372,69.5227,8055.54,-801.368,1583.31,-32.0467,1.61497,51.8067
3.771,295.895,-1159.95,5648.62,-126.854,361.4,8.50832,5165.8,1696.0,7855.37,-44.2275,7.67035,21.008,3211.56,6528.17,493.525,32.9119,-11.7907,230.829,-1409.88,-9546.93,-2633.86,-8.74384,-14.6471,44.6115,-4468.27,5444.47,2110.78,43.3888,70.2103,111.477,-1036.24,-10213.9,-2173.38,-14.5146,-56.387,69.5653,8064.77,-836.47,1601.55,-31.7162,1.88363,51.6865
3.7715,352.762,-1151.44,5673.21,-126.77,360.197,10.0075,5153.16,1685.64,7872.46,-44.2627,7.77764,21.0894,3182.44,6581.19,487.256,33.0588,-10.9261,231.601,-1419.03,-9559.18,-2602.88,-8.66875,-14.3473,44.741,-4485.98,5462.75,2071.7,43.7315,71.2292,111.613,-1007.21,-10194.0,-2169.69,-14.3425,-56.7368,69.6078,8073.99,-871.572,1619.79,-31.3858,2.15229,51.5662
3.772,409.629,-1142.93,5697.8,-126.686,358.993,11.5068,5140.53,1675.28,7889.55,-44.2978,7.88492,21.1708,3153.32,6634.22,480.987,33.2057,-10.0615,232.373,-1428.17,-9571.42,-2571.9,-8.59366,-14.0474,44.8704,-4503.7,5481.03,2032.62,44.0743,72.2481,111.749,-978.179,-10174.2,-2166.01,-14.1704,-57.0866,69.6504,8083.21,-906.673,1638.03,-31.0553,2.42095,51.446
3.7725,466.497,-1134.41,5722.38,-126.602,357.79,13.006,5127.89,1664.92,7906.65,-44.333,7.9922,21.2522,3124.21,6687.24,474.718,33.3526,-9.19683,233.144,-1437.31,-9583.67,-2540.92,-8.51856,-13.7476,44.9999,-4521.42,5499.31,1993.53,44.417,73.267,111.885,-949.151,-10154.3,-2162.33,-13.9983,-57.4364,69.6929,8092.44,-941.775,1656.27,-30.7249,2.68961,51.3258
3.773,523.364,-1125.9,5746.97,-126.518,356.587,14.5052,5115.26,1654.56,7923.74,-44.3682,8.09948,21.3336,3095.09,6740.26,468.448,33.4995,-8.33219,233.916,-1446.46,-9595.92,-2509.95,-8.44347,-13.4477,45.1293,-4539.14,5517.6,1954.45,44.7598,74.2859,112.022,-920.123,-10134.5,-2158.65,-13.8262,-57.7862,69.7355,8101.66,-976.876,1674.5,-30.3945,2.95826,51.2056
3.7735,598.98,-1125.73,5782.43,-126.433,355.467,15.9086,5093.15,1649.0,7943.56,-44.3986,8.19412,21.4017,3069.78,6790.37,457.255,33.6289,-7.40373,234.671,-1451.8,-9612.5,-2484.26,-8.40324,-13.1587,45.2423,-4562.53,5543.32,1926.62,45.0691,75.5083,112.325,-886.03,-10120.9,-2146.37,-13.646,-58.0271,69.7982,8109.49,-1011.63,1686.01,-29.9543,3.30443,51.065
3.774,712.092,-1142.25,5839.65,-126.348,354.514,17.1205,5052.1,1653.05,7968.85,-44.4193,8.26349,21.4431,3052.08,6834.65,436.213,33.7236,-6.3476,235.393,-1449.54,-9637.75,-2469.13,-8.43274,-12.8913,45.3224,-4597.26,5583.92,1921.32,45.3114,77.1377,112.965,-841.807,-10119.8,-2116.89,-13.4495,-58.0504,69.9012,8114.54,-1045.68,1684.05,-29.2948,3.80559,50.8839
3.7745,825.205,-1158.76,5896.86,-126.262,353.561,18.3323,5011.05,1657.09,7994.15,-44.4401,8.33286,21.4845,3034.39,6878.93,415.172,33.8182,-5.29148,236.116,-1447.28,-9663.01,-2454.01,-8.46224,-12.6239,45.4026,-4632.0,5624.51,1916.02,45.5538,78.767,113.604,-797.584,-10118.7,-2087.42,-13.253,-58.0736,70.0042,8119.59,-1079.73,1682.1,-28.6353,4.30676,50.7028
3.775,938.318,-1175.28,5954.07,-126.176,352.608,19.5441,4970.0,1661.13,8019.44,-44.4608,8.40224,21.5259,3016.69,6923.21,394.13,33.9129,-4.23535,236.839,-1445.02,-9688.26,-2438.89,-8.49174,-12.3564,45.4827,-4666.74,5665.11,1910.72,45.7962,80.3964,114.244,-753.361,-10117.6,-2057.95,-13.0564,-58.0969,70.1072,8124.64,-1113.78,1680.14,-27.9757,4.80792,50.5216
3.7755,1051.43,-1191.8,6011.29,-126.09,351.656,20.756,4928.96,1665.17,8044.73,-44.4816,8.47161,21.5674,2999.0,6967.5,373.089,34.0075,-3.17923,237.561,-1442.76,-9713.52,-2423.76,-8.52123,-12.089,45.5628,-4701.48,5705.71,1905.42,46.0386,82.0257,114.883,-709.139,-10116.5,-2028.47,-12.8599,-58.1201,70.2103,8129.68,-1147.84,1678.19,-27.3162,5.30909,50.3405
3.776,1164.54,-1208.31,6068.5,-126.005,350.703,21.9678,4887.91,1669.21,8070.02,-44.5023,8.54098,21.6088,2981.3,7011.78,352.047,34.1022,-2.1231,238.284,-1440.49,-9738.78,-2408.64,-8.55073,-11.8216,45.6429,-4736.21,5746.31,1900.12,46.281,83.6551,115.522,-664.916,-10115.5,-1999.0,-12.6634,-58.1434,70.3133,8134.73,-1181.89,1676.23,-26.6567,5.81025,50.1594
3.7765,1277.66,-1224.83,6125.71,-125.919,349.75,23.1796,4846.86,1673.25,8095.31,-44.523,8.61035,21.6502,2963.61,7056.06,331.005,34.1968,-1.06698,239.006,-1438.23,-9764.03,-2393.52,-8.58023,-11.5541,45.723,-4770.95,5786.9,1894.82,46.5233,85.2845,116.162,-620.693,-10114.4,-1969.52,-12.4669,-58.1666,70.4163,8139.78,-1215.94,1674.27,-25.9972,6.31142,49.9782
3.777,1390.77,-1241.34,6182.93,-125.833,348.797,24.3915,4805.81,1677.29,8120.6,-44.5438,8.67972,21.6916,2945.91,7100.35,309.964,34.2915,-0.0108516,239.729,-1435.97,-9789.29,-2378.4,-8.60973,-11.2867,45.8031,-4805.69,5827.5,1889.52,46.7657,86.9138,116.801,-576.47,-10113.3,-1940.05,-12.2704,-58.1899,70.5193,8144.83,-1249.99,1672.32,-25.3376,6.81259,49.7971
3.7775,1503.88,-1257.86,6240.14,-125.747,347.844,25.6033,4764.76,1681.34,8145.89,-44.5645,8.74909,21.7331,2928.22,7144.63,288.922,34.3861,1.04527,240.452,-1433.71,-9814.54,-2363.27,-8.63922,-11.0193,45.8833,-4840.42,5868.1,1884.22,47.0081,88.5432,117.44,-532.247,-10112.2,-1910.58,-12.0739,-58.2131,70.6223,8149.87,-1284.04,1670.36,-24.6781,7.31375,49.616
3.778,1607.11,-1279.92,6295.25,-125.685,346.936,26.73,4736.3,1681.39,8168.52,-44.6102,8.80932,21.7586,2916.18,7185.45,268.195,34.5736,2.11533,241.143,-1429.1,-9831.05,-2343.07,-8.61984,-10.7494,45.8986,-4889.7,5908.99,1883.05,47.1891,90.2994,118.251,-495.765,-10105.8,-1890.24,-11.9387,-58.068,70.6737,8158.21,-1317.54,1669.62,-23.9242,7.82268,49.3807
3.7785,1697.99,-1308.9,6347.73,-125.654,346.082,27.7503,4723.59,1676.45,8187.83,-44.687,8.85811,21.7643,2911.21,7221.94,247.86,34.8772,3.20279,241.795,-1421.56,-9836.61,-2316.53,-8.53935,-10.4766,45.8329,-4957.15,5950.26,1887.04,47.2934,92.2143,119.274,-468.959,-10092.8,-1881.33,-11.8803,-57.7123,70.6605,8170.66,-1350.35,1670.39,-23.0523,8.34129,49.0778
3.779,1788.86,-1337.89,6400.21,-125.622,345.229,28.7705,4710.88,1671.51,8207.13,-44.7638,8.9069,21.77,2906.24,7258.44,227.525,35.1807,4.29026,242.447,-1414.01,-9842.17,-2289.98,-8.45886,-10.2037,45.7673,-5024.59,5991.52,1891.04,47.3977,94.1292,120.298,-442.153,-10079.8,-1872.42,-11.8219,-57.3566,70.6473,8183.12,-1383.16,1671.17,-22.1804,8.85991,48.7749
3.7795,1879.74,-1366.87,6452.7,-125.591,344.376,29.7908,4698.17,1666.56,8226.44,-44.8406,8.95569,21.7757,2901.28,7294.93,207.19,35.4843,5.37773,243.099,-1406.47,-9847.74,-2263.43,-8.37838,-9.93087,45.7016,-5092.04,6032.79,1895.04,47.502,96.0441,121.322,-415.347,-10066.8,-1863.51,-11.7635,-57.0009,70.6341,8195.57,-1415.97,1671.94,-21.3084,9.37853,48.472
3.78,1970.61,-1395.86,6505.18,-125.559,343.523,30.811,4685.46,1661.62,8245.75,-44.9174,9.00448,21.7813,2896.31,7331.42,186.855,35.7878,6.46519,243.751,-1398.92,-9853.3,-2236.89,-8.29789,-9.65802,45.636,-5159.49,6074.05,1899.03,47.6063,97.9589,122.345,-388.541,-10053.8,-1854.6,-11.7051,-56.6452,70.6209,8208.02,-1448.78,1672.71,-20.4365,9.89715,48.1691
3.7805,2061.49,-1424.85,6557.66,-125.527,342.67,31.8313,4672.75,1656.68,8265.05,-44.9942,9.05328,21.787,2891.34,7367.92,166.52,36.0914,7.55266,244.404,-1391.38,-9858.87,-2210.34,-8.2174,-9.38517,45.5703,-5226.94,6115.32,1903.03,47.7107,99.8738,123.369,-361.734,-10040.8,-1845.69,-11.6466,-56.2895,70.6077,8220.47,-1481.59,1673.49,-19.5646,10.4158,47.8662
3.781,2152.36,-1453.83,6610.14,-125.496,341.817,32.8515,4660.04,1651.74,8284.36,-45.071,9.10207,21.7927,2886.37,7404.41,146.186,36.395,8.64013,245.056,-1383.83,-9864.43,-2183.79,-8.13692,-9.11232,45.5047,-5294.38,6156.58,1907.03,47.815,101.789,124.393,-334.928,-10027.8,-1836.78,-11.5882,-55.9338,70.5945,8232.92,-1514.4,1674.26,-18.6927,10.9344,47.5634
3.7815,2243.24,-1482.82,6662.62,-125.464,340.964,33.8718,4647.33,1646.8,8303.67,-45.1478,9.15086,21.7984,2881.41,7440.91,125.851,36.6985,9.72759,245.708,-1376.29,-9869.99,-2157.24,-8.05643,-8.83947,45.439,-5361.83,6197.84,1911.02,47.9193,103.704,125.416,-308.122,-10014.8,-1827.87,-11.5298,-55.5781,70.5813,8245.37,-1547.21,1675.04,-17.8208,11.453,47.2605
3.782,2334.11,-1511.8,6715.11,-125.432,340.111,34.8921,4634.62,1641.86,8322.97,-45.2246,9.19965,21.8041,2876.44,7477.4,105.516,37.0021,10.8151,246.36,-1368.74,-9875.56,-2130.7,-7.97594,-8.56662,45.3734,-5429.28,6239.11,1915.02,48.0236,105.618,126.44,-281.316,-10001.8,-1818.96,-11.4714,-55.2224,70.5681,8257.83,-1580.02,1675.81,-16.9488,11.9716,46.9576
3.7825,2427.61,-1514.88,6776.47,-125.463,339.373,35.9993,4634.41,1620.81,8338.05,-45.3003,9.24193,21.7921,2869.73,7518.41,81.39,37.3302,11.8505,247.07,-1368.2,-9876.77,-2103.17,-7.94681,-8.46612,45.3247,-5505.72,6280.6,1908.82,48.0095,107.468,127.554,-251.117,-9991.18,-1809.75,-11.4397,-54.6976,70.5818,8268.08,-1601.38,1672.47,-16.0826,12.5315,46.6012
3.783,2523.21,-1497.24,6844.95,-125.543,338.729,37.176,4644.21,1586.86,8349.74,-45.3752,9.27901,21.766,2861.64,7563.04,54.2314,37.678,12.8442,247.828,-1373.27,-9874.5,-2074.84,-7.95877,-8.50349,45.2898,-5589.35,6322.27,1894.46,47.9006,109.265,128.741,-218.202,-9982.4,-1800.3,-11.4296,-54.0375,70.6169,8276.58,-1613.58,1665.85,-15.2209,13.1245,46.2021
3.7835,2618.8,-1479.6,6913.42,-125.623,338.084,38.3528,4654.01,1552.92,8361.43,-45.45,9.31609,21.7398,2853.54,7607.67,27.0727,38.0258,13.8379,248.585,-1378.33,-9872.23,-2046.52,-7.97073,-8.54086,45.2548,-5672.98,6363.95,1880.09,47.7918,111.062,129.927,-185.288,-9973.61,-1790.85,-11.4194,-53.3774,70.6521,8285.08,-1625.78,1659.23,-14.3592,13.7174,45.803
3.784,2714.39,-1461.95,6981.89,-125.702,337.44,39.5296,4663.81,1518.98,8373.12,-45.5248,9.35316,21.7137,2845.45,7652.3,-0.0858903,38.3736,14.8317,249.342,-1383.39,-9869.96,-2018.2,-7.98268,-8.57823,45.2198,-5756.62,6405.62,1865.73,47.683,112.859,131.114,-152.374,-9964.83,-1781.4,-11.4092,-52.7173,70.6872,8293.58,-1637.98,1652.6,-13.4975,14.3104,45.404
3.7845,2809.99,-1444.31,7050.37,-125.782,336.795,40.7063,4673.61,1485.03,8384.81,-45.5997,9.39024,21.6876,2837.35,7696.93,-27.2445,38.7214,15.8254,250.099,-1388.46,-9867.69,-1989.88,-7.99464,-8.61559,45.1849,-5840.25,6447.29,1851.37,47.5741,114.656,132.3,-119.459,-9956.04,-1771.95,-11.399,-52.0572,70.7224,8302.08,-1650.19,1645.98,-12.6358,14.9033,45.0049
3.785,2905.58,-1426.67,7118.84,-125.862,336.151,41.8831,4683.42,1451.09,8396.5,-45.6745,9.42732,21.6615,2829.25,7741.56,-54.4032,39.0692,16.8192,250.856,-1393.52,-9865.42,-1961.56,-8.0066,-8.65296,45.1499,-5923.88,6488.97,1837.01,47.4653,116.453,133.487,-86.545,-9947.26,-1762.5,-11.3888,-51.3972,70.7576,8310.57,-1662.39,1639.35,-11.7741,15.4963,44.6058
3.7855,3001.18,-1409.03,7187.31,-125.942,335.507,43.0599,4693.22,1417.14,8408.19,-45.7493,9.46439,21.6353,2821.16,7786.19,-81.5618,39.417,17.8129,251.613,-1398.59,-9863.15,-1933.24,-8.01856,-8.69033,45.1149,-6007.52,6530.64,1822.65,47.3565,118.25,134.674,-53.6306,-9938.47,-1753.05,-11.3786,-50.7371,70.7927,8319.07,-1674.59,1632.73,-10.9124,16.0892,44.2067
3.786,3096.77,-1391.38,7255.79,-126.022,334.862,44.2366,4703.02,1383.2,8419.89,-45.8242,9.50147,21.6092,2813.06,7830.82,-108.72,39.7648,18.8067,252.37,-1403.65,-9860.88,-1904.92,-8.03051,-8.7277,45.08,-6091.15,6572.32,1808.29,47.2476,120.047,135.86,-20.7163,-9929.69,-1743.6,-11.3684,-50.077,70.8279,8327.57,-1686.79,1626.11,-10.0506,16.6822,43.8076
3.7865,3192.37,-1373.74,7324.26,-126.102,334.218,45.4134,4712.82,1349.25,8431.58,-45.899,9.53855,21.5831,2804.97,7875.45,-135.879,40.1126,19.8004,253.127,-1408.72,-9858.61,-1876.6,-8.04247,-8.76507,45.045,-6174.78,6613.99,1793.93,47.1388,121.844,137.047,12.198,-9920.9,-1734.15,-11.3582,-49.4169,70.8631,8336.07,-1698.99,1619.48,-9.18894,17.2751,43.4085
3.787,3278.78,-1356.82,7396.62,-126.031,333.875,46.8338,4737.05,1316.49,8435.54,-45.8718,9.55795,21.5398,2775.56,7930.68,-151.639,40.3189,20.6454,253.887,-1431.63,-9846.73,-1864.01,-7.98152,-8.70555,45.04,-6259.88,6657.87,1766.84,46.8664,123.691,138.344,59.691,-9921.86,-1721.46,-11.3502,-48.7259,70.8303,8344.43,-1702.1,1612.77,-8.43954,17.8326,42.9472
3.7875,3360.6,-1340.25,7470.91,-125.885,333.682,48.3761,4768.49,1284.32,8435.63,-45.7937,9.56851,21.4878,2735.5,7991.21,-161.7,40.4546,21.4161,254.648,-1463.47,-9830.04,-1859.29,-7.8841,-8.59757,45.0501,-6345.71,6702.85,1733.39,46.5121,125.562,139.696,114.473,-9927.69,-1707.15,-11.3432,-48.0193,70.7637,8352.72,-1700.67,1606.02,-7.74628,18.3724,42.4547
3.788,3442.42,-1323.69,7545.21,-125.738,333.49,49.9183,4799.94,1252.14,8435.72,-45.7156,9.57907,21.4358,2695.43,8051.75,-171.76,40.5902,22.1867,255.408,-1495.32,-9813.34,-1854.57,-7.78669,-8.4896,45.0601,-6431.53,6747.83,1699.94,46.1579,127.434,141.048,169.256,-9933.51,-1692.85,-11.3363,-47.3128,70.697,8361.01,-1699.23,1599.27,-7.05303,18.9122,41.9622
3.7885,3524.24,-1307.12,7619.51,-125.592,333.297,51.4605,4831.39,1219.97,8435.82,-45.6375,9.58963,21.3839,2655.37,8112.28,-181.821,40.7258,22.9573,256.169,-1527.16,-9796.65,-1849.85,-7.68928,-8.38162,45.0702,-6517.36,6792.81,1666.49,45.8037,129.305,142.4,224.038,-9939.34,-1678.54,-11.3293,-46.6063,70.6303,8369.3,-1697.8,1592.52,-6.35978,19.452,41.4697
3.789,3606.06,-1290.56,7693.81,-125.445,333.105,53.0028,4862.83,1187.8,8435.91,-45.5594,9.6002,21.3319,2615.31,8172.81,-191.881,40.8615,23.728,256.93,-1559.0,-9779.96,-1845.13,-7.59186,-8.27365,45.0802,-6603.19,6837.79,1633.05,45.4495,131.177,143.752,278.82,-9945.17,-1664.23,-11.3224,-45.8998,70.5637,8377.59,-1696.36,1585.77,-5.66653,19.9918,40.9772
3.7895,3687.88,-1273.99,7768.11,-125.299,332.913,54.545,4894.28,1155.63,8436.01,-45.4813,9.61076,21.28,2575.25,8233.35,-201.942,40.9971,24.4986,257.691,-1590.84,-9763.27,-1840.41,-7.49445,-8.16568,45.0902,-6689.02,6882.77,1599.6,45.0953,133.049,145.105,333.603,-9951.0,-1649.92,-11.3155,-45.1933,70.497,8385.88,-1694.93,1579.02,-4.97328,20.5315,40.4847
3.79,3769.7,-1257.43,7842.4,-125.152,332.72,56.0873,4925.72,1123.45,8436.1,-45.4032,9.62132,21.228,2535.18,8293.88,-212.002,41.1327,25.2693,258.452,-1622.68,-9746.58,-1835.69,-7.39704,-8.0577,45.1003,-6774.85,6927.75,1566.15,44.7411,134.92,146.457,388.385,-9956.83,-1635.62,-11.3085,-44.4868,70.4304,8394.17,-1693.49,1572.27,-4.28003,21.0713,39.9922
3.7905,3851.52,-1240.86,7916.7,-125.006,332.528,57.6295,4957.17,1091.28,8436.2,-45.325,9.63189,21.176,2495.12,8354.42,-222.063,41.2684,26.0399,259.212,-1654.52,-9729.88,-1830.97,-7.29963,-7.94973,45.1103,-6860.68,6972.73,1532.7,44.3868,136.792,147.809,443.167,-9962.65,-1621.31,-11.3016,-43.7803,70.3637,8402.46,-1692.06,1565.52,-3.58678,21.6111,39.4997
3.791,3933.34,-1224.3,7991.0,-124.86,332.335,59.1718,4988.61,1059.11,8436.29,-45.2469,9.64245,21.1241,2455.06,8414.95,-232.123,41.404,26.8105,259.973,-1686.36,-9713.19,-1826.25,-7.20221,-7.84175,45.1203,-6946.5,7017.71,1499.25,44.0326,138.663,149.161,497.95,-9968.48,-1607.0,-11.2946,-43.0738,70.297,8410.75,-1690.63,1558.77,-2.89352,22.1509,39.0072
3.7915,4000.04,-1204.89,8066.94,-124.69,332.201,60.6031,5015.5,1041.26,8445.29,-45.1672,9.63544,21.0842,2408.64,8470.13,-220.382,41.5142,27.5396,260.865,-1730.97,-9719.55,-1799.47,-7.12383,-7.84007,45.2031,-7041.94,7079.63,1460.78,43.45,140.467,150.697,543.961,-9963.08,-1604.58,-11.3027,-42.2706,70.2629,8408.21,-1693.8,1560.91,-2.50564,22.5463,38.4925
3.792,4062.43,-1184.66,8143.35,-124.515,332.084,62.0027,5041.09,1027.5,8456.82,-45.0869,9.6234,21.0478,2360.4,8523.79,-202.411,41.6171,28.2568,261.793,-1779.22,-9732.5,-1766.39,-7.05088,-7.86875,45.3067,-7140.12,7146.4,1420.88,42.8022,142.25,152.285,587.466,-9954.47,-1605.56,-11.3151,-41.4398,70.2382,8402.58,-1698.29,1565.59,-2.205,22.9005,37.9714
3.7925,4124.81,-1164.43,8219.76,-124.339,331.966,63.4023,5066.68,1013.75,8468.36,-45.0067,9.61137,21.0115,2312.16,8577.45,-184.441,41.7201,28.9739,262.722,-1827.47,-9745.45,-1733.32,-6.97794,-7.89744,45.4102,-7238.3,7213.17,1380.98,42.1544,144.034,153.873,630.97,-9945.86,-1606.54,-11.3275,-40.6091,70.2134,8396.94,-1702.78,1570.26,-1.90437,23.2547,37.4504
3.793,4187.19,-1144.2,8296.17,-124.164,331.849,64.8019,5092.27,999.989,8479.9,-44.9265,9.59933,20.9751,2263.92,8631.1,-166.47,41.823,29.6911,263.651,-1875.72,-9758.39,-1700.24,-6.90499,-7.92612,45.5137,-7336.49,7279.94,1341.08,41.5066,145.818,155.461,674.475,-9937.25,-1607.52,-11.34,-39.7783,70.1886,8391.3,-1707.27,1574.94,-1.60373,23.6088,36.9293
3.7935,4249.58,-1123.98,8372.57,-123.988,331.731,66.2015,5117.86,986.233,8491.44,-44.8463,9.5873,20.9387,2215.68,8684.76,-148.499,41.9259,30.4083,264.579,-1923.97,-9771.34,-1667.16,-6.83205,-7.95481,45.6173,-7434.67,7346.71,1301.17,40.8587,147.601,157.049,717.98,-9928.65,-1608.51,-11.3524,-38.9475,70.1639,8385.67,-1711.76,1579.62,-1.3031,23.963,36.4082
3.794,4311.96,-1103.75,8448.98,-123.813,331.614,67.6011,5143.44,972.476,8502.98,-44.766,9.57526,20.9023,2167.44,8738.42,-130.529,42.0288,31.1255,265.508,-1972.22,-9784.29,-1634.08,-6.7591,-7.98349,45.7208,-7532.85,7413.48,1261.27,40.2109,149.385,158.637,761.485,-9920.04,-1609.49,-11.3648,-38.1167,70.1391,8380.03,-1716.25,1584.3,-1.00246,24.3172,35.8872
3.7945,4374.35,-1083.52,8525.39,-123.637,331.496,69.0007,5169.03,958.719,8514.52,-44.6858,9.56323,20.8659,2119.2,8792.07,-112.558,42.1317,31.8427,266.437,-2020.47,-9797.23,-1601.0,-6.68615,-8.01217,45.8244,-7631.03,7480.25,1221.37,39.5631,151.169,160.225,804.99,-9911.43,-1610.47,-11.3772,-37.2859,70.1143,8374.4,-1720.74,1588.97,-0.701826,24.6714,35.3661
3.795,4436.73,-1063.3,8601.8,-123.461,331.378,70.4004,5194.62,944.962,8526.06,-44.6056,9.5512,20.8295,2070.96,8845.73,-94.5877,42.2346,32.5598,267.366,-2068.72,-9810.18,-1567.92,-6.61321,-8.04086,45.9279,-7729.21,7547.03,1181.47,38.9153,152.953,161.813,848.495,-9902.82,-1611.45,-11.3896,-36.4552,70.0895,8368.76,-1725.23,1593.65,-0.40119,25.0255,34.845
3.7955,4499.11,-1043.07,8678.21,-123.286,331.261,71.8,5220.21,931.205,8537.6,-44.5254,9.53916,20.7932,2022.72,8899.39,-76.6171,42.3376,33.277,268.294,-2116.97,-9823.13,-1534.84,-6.54026,-8.06954,46.0315,-7827.39,7613.8,1141.57,38.2675,154.736,163.401,892.0,-9894.21,-1612.43,-11.402,-35.6244,70.0648,8363.13,-1729.72,1598.33,-0.100554,25.3797,34.324
3.796,4543.5,-1027.02,8755.75,-123.188,331.255,72.9624,5212.8,915.102,8538.33,-44.5026,9.54046,20.7096,1945.43,8952.62,-63.0468,42.3581,33.5699,269.265,-2143.41,-9832.25,-1518.32,-6.53669,-8.10246,45.9891,-7943.75,7656.3,1135.02,37.9066,155.909,164.71,910.474,-9894.1,-1607.64,-11.4563,-34.8201,70.0667,8343.47,-1725.9,1599.89,-0.0418589,25.549,33.762
3.7965,4585.64,-1011.5,8833.43,-123.1,331.264,74.0951,5201.26,898.706,8537.71,-44.4869,9.54342,20.6202,1864.5,9005.79,-50.0266,42.3684,33.8097,270.241,-2167.13,-9840.91,-1503.88,-6.54178,-8.1359,45.9284,-8062.39,7695.76,1132.64,37.5816,157.005,165.984,925.818,-9895.05,-1602.14,-11.5159,-34.0191,70.072,8322.06,-1721.03,1601.07,-0.0134062,25.6952,33.1948
3.797,4627.79,-995.979,8911.11,-123.012,331.272,75.2279,5189.73,882.31,8537.1,-44.4713,9.54638,20.5308,1783.57,9058.96,-37.0063,42.3787,34.0495,271.217,-2190.84,-9849.56,-1489.43,-6.54688,-8.16934,45.8678,-8181.02,7735.23,1130.27,37.2566,158.101,167.259,941.163,-9896.0,-1596.63,-11.5755,-33.2182,70.0773,8300.65,-1716.17,1602.25,0.0150466,25.8414,32.6276
3.7975,4669.93,-980.457,8988.79,-122.924,331.28,76.3607,5178.19,865.914,8536.48,-44.4557,9.54934,20.4414,1702.64,9112.14,-23.9861,42.389,34.2893,272.193,-2214.56,-9858.21,-1474.99,-6.55198,-8.20279,45.8072,-8299.65,7774.7,1127.89,36.9316,159.197,168.533,956.507,-9896.96,-1591.12,-11.6351,-32.4172,70.0826,8279.24,-1711.31,1603.43,0.0434993,25.9876,32.0605
3.798,4712.07,-964.935,9066.48,-122.836,331.289,77.4934,5166.66,849.518,8535.86,-44.44,9.55231,20.3519,1621.71,9165.31,-10.9659,42.3993,34.5291,273.169,-2238.28,-9866.86,-1460.54,-6.55708,-8.23623,45.7465,-8418.28,7814.17,1125.52,36.6066,160.293,169.807,971.852,-9897.91,-1585.62,-11.6947,-31.6162,70.0879,8257.83,-1706.45,1604.61,0.0719521,26.1338,31.4933
3.7985,4754.21,-949.413,9144.16,-122.748,331.297,78.6262,5155.12,833.122,8535.25,-44.4244,9.55527,20.2625,1540.78,9218.49,2.05436,42.4096,34.7689,274.145,-2261.99,-9875.51,-1446.1,-6.56218,-8.26967,45.6859,-8536.91,7853.63,1123.14,36.2816,161.389,171.081,987.196,-9898.86,-1580.11,-11.7543,-30.8152,70.0931,8236.42,-1701.59,1605.79,0.100405,26.28,30.9262
3.799,4796.35,-933.891,9221.84,-122.66,331.305,79.7589,5143.59,816.726,8534.63,-44.4088,9.55823,20.1731,1459.85,9271.66,15.0746,42.4199,35.0088,275.121,-2285.71,-9884.17,-1431.65,-6.56727,-8.30311,45.6253,-8655.54,7893.1,1120.76,35.9566,162.485,172.356,1002.54,-9899.81,-1574.61,-11.8139,-30.0143,70.0984,8215.02,-1696.73,1606.97,0.128858,26.4262,30.359
3.7995,4838.49,-918.369,9299.52,-122.572,331.314,80.8917,5132.05,800.33,8534.01,-44.3932,9.56119,20.0837,1378.92,9324.83,28.0948,42.4302,35.2486,276.097,-2309.42,-9892.82,-1417.21,-6.57237,-8.33656,45.5646,-8774.18,7932.57,1118.39,35.6316,163.581,173.63,1017.89,-9900.76,-1569.1,-11.8735,-29.2133,70.1037,8193.61,-1691.86,1608.15,0.15731,26.5724,29.7919
3.8,4880.63,-902.847,9377.2,-122.484,331.322,82.0245,5120.52,783.934,8533.39,-44.3775,9.56415,19.9942,1297.99,9378.01,41.1151,42.4405,35.4884,277.073,-2333.14,-9901.47,-1402.76,-6.57747,-8.37,45.504,-8892.81,7972.03,1116.01,35.3066,164.677,174.904,1033.23,-9901.71,-1563.6,-11.9331,-28.4123,70.109,8172.2,-1687.0,1609.33,0.185763,26.7187,29.2247
3.8005,4897.15,-886.595,9444.99,-122.547,331.288,82.9388,5120.04,756.647,8512.25,-44.2245,9.54912,19.8423,1235.73,9416.33,65.4241,42.5469,35.3893,278.223,-2342.36,-9914.79,-1380.51,-6.55095,-8.29272,45.484,-8993.04,7945.03,1105.23,35.9577,164.825,175.026,1024.56,-9897.13,-1568.49,-12.1079,-27.5279,70.0697,8155.19,-1682.35,1607.85,0.224084,26.7174,28.7281
3.801,4913.66,-870.344,9512.78,-122.61,331.254,83.8532,5119.57,729.36,8491.11,-44.0714,9.53409,19.6904,1173.48,9454.66,89.7331,42.6533,35.2902,279.373,-2351.57,-9928.12,-1358.26,-6.52444,-8.21544,45.4639,-9093.26,7918.02,1094.45,36.6087,164.973,175.148,1015.88,-9892.54,-1573.39,-12.2827,-26.6436,70.0304,8138.19,-1677.7,1606.36,0.262404,26.7162,28.2314
3.8015,4930.17,-854.093,9580.57,-122.673,331.22,84.7676,5119.09,702.073,8469.97,-43.9184,9.51905,19.5385,1111.23,9492.98,114.042,42.7597,35.1911,280.522,-2360.79,-9941.44,-1336.01,-6.49792,-8.13816,45.4439,-9193.49,7891.01,1083.66,37.2598,165.121,175.27,1007.21,-9887.95,-1578.28,-12.4575,-25.7592,69.9911,8121.18,-1673.05,1604.88,0.300725,26.7149,27.7348
3.802,4946.68,-837.842,9648.36,-122.736,331.186,85.6819,5118.62,674.787,8448.83,-43.7653,9.50402,19.3866,1048.97,9531.31,138.351,42.8661,35.092,281.672,-2370.01,-9954.77,-1313.76,-6.4714,-8.06088,45.4238,-9293.72,7864.0,1072.88,37.9108,165.268,175.392,998.531,-9883.36,-1583.18,-12.6324,-24.8748,69.9518,8104.18,-1668.4,1603.4,0.339045,26.7137,27.2382
3.8025,4963.19,-821.591,9716.15,-122.799,331.152,86.5963,5118.15,647.5,8427.69,-43.6122,9.48898,19.2347,986.721,9569.63,162.66,42.9725,34.9929,282.822,-2379.22,-9968.09,-1291.5,-6.44488,-7.9836,45.4038,-9393.95,7837.0,1062.1,38.5619,165.416,175.514,989.856,-9878.78,-1588.07,-12.8072,-23.9904,69.9124,8087.17,-1663.74,1601.92,0.377366,26.7125,26.7415
3.803,4979.71,-805.339,9783.94,-122.862,331.118,87.5107,5117.67,620.213,8406.55,-43.4592,9.47395,19.0828,924.469,9607.96,186.969,43.0789,34.8938,283.972,-2388.44,-9981.41,-1269.25,-6.41837,-7.90633,45.3838,-9494.17,7809.99,1051.31,39.2129,165.564,175.637,981.181,-9874.19,-1592.97,-12.982,-23.106,69.8731,8070.16,-1659.09,1600.44,0.415687,26.7112,26.2449
3.8035,4996.22,-789.088,9851.73,-122.925,331.084,88.425,5117.2,592.926,8385.41,-43.3061,9.45891,18.9309,862.216,9646.28,211.278,43.1853,34.7948,285.122,-2397.66,-9994.74,-1247.0,-6.39185,-7.82905,45.3637,-9594.4,7782.98,1040.53,39.864,165.712,175.759,972.506,-9869.6,-1597.86,-13.1568,-22.2216,69.8338,8053.16,-1654.44,1598.95,0.454007,26.71,25.7482
3.804,5012.73,-772.837,9919.52,-122.988,331.05,89.3394,5116.72,565.64,8364.27,-43.1531,9.44388,18.779,799.963,9684.61,235.587,43.2917,34.6957,286.272,-2406.87,-10008.1,-1224.75,-6.36533,-7.75177,45.3437,-9694.63,7755.97,1029.75,40.515,165.86,175.881,963.831,-9865.01,-1602.76,-13.3316,-21.3372,69.7945,8036.15,-1649.79,1597.47,0.492328,26.7087,25.2516
3.8045,5030.02,-752.152,9987.68,-123.056,331.019,90.2619,5116.05,539.903,8345.59,-42.9902,9.42608,18.6305,738.021,9721.05,258.059,43.4025,34.5618,287.419,-2415.12,-10020.1,-1205.03,-6.33292,-7.68346,45.3319,-9789.13,7726.82,1016.76,41.2115,165.939,175.889,957.129,-9860.16,-1605.09,-13.5212,-20.4702,69.7698,8019.75,-1646.78,1595.29,0.5454,26.692,24.7546
3.805,5053.55,-695.996,10058.8,-123.166,331.012,91.2497,5113.75,526.566,8346.56,-42.7486,9.3862,18.5089,678.563,9742.37,265.833,43.548,34.1499,288.541,-2415.61,-10022.1,-1205.6,-6.2534,-7.68695,45.3859,-9837.82,7680.5,986.088,42.2715,165.468,174.984,966.21,-9853.16,-1586.93,-13.8288,-19.7419,69.8619,8008.13,-1656.94,1587.49,0.716486,26.551,24.2551
3.8055,5077.08,-639.841,10129.9,-123.276,331.005,92.2375,5111.45,513.229,8347.54,-42.507,9.34632,18.3873,619.105,9763.69,273.607,43.6935,33.7379,289.664,-2416.1,-10024.1,-1206.16,-6.17388,-7.69044,45.4399,-9886.52,7634.17,955.42,43.3315,164.998,174.079,975.292,-9846.15,-1568.77,-14.1363,-19.0136,69.9539,7996.51,-1667.09,1579.69,0.887572,26.4099,23.7556
3.806,5100.61,-583.685,10201.0,-123.385,330.998,93.2253,5109.15,499.892,8348.51,-42.2655,9.30644,18.2656,559.646,9785.02,281.381,43.8391,33.3259,290.787,-2416.6,-10026.1,-1206.73,-6.09436,-7.69393,45.4939,-9935.21,7587.85,924.752,44.3915,164.528,173.174,984.373,-9839.15,-1550.6,-14.4439,-18.2854,70.046,7984.9,-1677.25,1571.89,1.05866,26.2689,23.256
3.8065,5124.13,-527.529,10272.1,-123.495,330.991,94.2131,5106.85,486.555,8349.48,-42.0239,9.26656,18.144,500.188,9806.34,289.155,43.9846,32.914,291.91,-2417.09,-10028.1,-1207.29,-6.01484,-7.69742,45.5479,-9983.9,7541.53,894.083,45.4515,164.058,172.269,993.454,-9832.15,-1532.44,-14.7515,-17.5571,70.1381,7973.28,-1687.41,1564.09,1.22974,26.1279,22.7565
3.807,5147.66,-471.374,10343.2,-123.604,330.983,95.2009,5104.55,473.218,8350.45,-41.7823,9.22668,18.0224,440.73,9827.67,296.929,44.1302,32.502,293.033,-2417.58,-10030.1,-1207.86,-5.93532,-7.7009,45.602,-10032.6,7495.2,863.415,46.5115,163.587,171.364,1002.54,-9825.15,-1514.28,-15.059,-16.8288,70.2301,7961.66,-1697.56,1556.29,1.40083,25.9869,22.2569
3.8075,5171.19,-415.218,10414.3,-123.714,330.976,96.1887,5102.25,459.881,8351.43,-41.5408,9.1868,17.9008,381.272,9848.99,304.703,44.2757,32.0901,294.156,-2418.07,-10032.1,-1208.43,-5.85579,-7.70439,45.656,-10081.3,7448.88,832.747,47.5715,163.117,170.459,1011.62,-9818.14,-1496.12,-15.3666,-16.1005,70.3222,7950.05,-1707.72,1548.49,1.57192,25.8459,21.7574
3.808,5194.72,-359.062,10485.4,-123.823,330.969,97.1766,5099.96,446.544,8352.4,-41.2992,9.14692,17.7792,321.814,9870.32,312.477,44.4213,31.6781,295.279,-2418.57,-10034.1,-1208.99,-5.77627,-7.70788,45.71,-10130.0,7402.56,802.079,48.6315,162.647,169.554,1020.7,-9811.14,-1477.96,-15.6742,-15.3723,70.4143,7938.43,-1717.88,1540.69,1.743,25.7049,21.2578
3.8085,5218.25,-302.906,10556.5,-123.933,330.962,98.1644,5097.66,433.207,8353.37,-41.0576,9.10703,17.6575,262.356,9891.64,320.251,44.5668,31.2661,296.401,-2419.06,-10036.1,-1209.56,-5.69675,-7.71137,45.764,-10178.7,7356.23,771.411,49.6915,162.177,168.649,1029.78,-9804.14,-1459.79,-15.9817,-14.644,70.5063,7926.81,-1728.03,1532.89,1.91409,25.5639,20.7583
3.809,5245.97,-256.122,10624.5,-124.022,330.931,99.1056,5089.72,423.709,8358.73,-40.8244,9.06022,17.5414,202.356,9924.4,328.396,44.7305,30.7882,297.521,-2416.7,-10035.5,-1214.52,-5.62379,-7.73392,45.8002,-10208.1,7309.82,743.097,50.6669,161.761,167.651,1033.6,-9793.11,-1444.14,-16.2769,-13.9622,70.5905,7914.95,-1734.69,1526.66,2.09232,25.4006,20.286
3.8095,5288.38,-242.137,10681.9,-124.038,330.815,99.884,5062.03,427.648,8379.45,-40.6205,8.98915,17.4443,140.458,9997.21,337.839,44.9579,30.0794,298.631,-2404.35,-10025.5,-1234.88,-5.57381,-7.82316,45.7739,-10170.3,7263.1,723.02,51.3462,161.535,166.326,1018.98,-9767.97,-1437.28,-16.5284,-13.443,70.6471,7902.22,-1729.11,1525.91,2.29557,25.1593,19.9089
3.81,5330.8,-228.153,10739.2,-124.055,330.698,100.662,5034.35,431.586,8400.17,-40.4165,8.91808,17.3472,78.5608,10070.0,347.282,45.1853,29.3706,299.74,-2392.01,-10015.5,-1255.24,-5.52383,-7.91241,45.7476,-10132.5,7216.37,702.943,52.0255,161.308,165.002,1004.37,-9742.84,-1430.42,-16.78,-12.9238,70.7038,7889.48,-1723.52,1525.16,2.49882,24.9181,19.5319
3.8105,5373.21,-214.168,10796.6,-124.071,330.582,101.441,5006.66,435.524,8420.89,-40.2126,8.84701,17.2502,16.6635,10142.8,356.725,45.4127,28.6618,300.85,-2379.66,-10005.6,-1275.59,-5.47384,-8.00166,45.7212,-10094.7,7169.64,682.866,52.7048,161.082,163.677,989.76,-9717.71,-1423.56,-17.0316,-12.4047,70.7604,7876.75,-1717.93,1524.42,2.70206,24.6768,19.1549
3.811,5415.62,-200.184,10854.0,-124.087,330.465,102.219,4978.98,439.463,8441.61,-40.0087,8.77594,17.1531,-45.2339,10215.6,366.168,45.6401,27.953,301.959,-2367.32,-9995.6,-1295.95,-5.42386,-8.0909,45.6949,-10056.9,7122.92,662.79,53.3842,160.856,162.352,975.148,-9692.58,-1416.7,-17.2831,-11.8855,70.817,7864.02,-1712.35,1523.67,2.90531,24.4356,18.7778
3.8115,5458.04,-186.199,10911.3,-124.104,330.349,102.997,4951.29,443.401,8462.33,-39.8047,8.70486,17.056,-107.131,10288.4,375.61,45.8674,27.2442,303.069,-2354.97,-9985.63,-1316.31,-5.37388,-8.18015,45.6686,-10019.1,7076.19,642.713,54.0635,160.63,161.028,960.536,-9667.45,-1409.84,-17.5347,-11.3664,70.8736,7851.29,-1706.76,1522.93,3.10856,24.1943,18.4008
3.812,5500.45,-172.214,10968.7,-124.12,330.233,103.776,4923.61,447.34,8483.05,-39.6008,8.63379,16.959,-169.029,10361.2,385.053,46.0948,26.5354,304.178,-2342.63,-9975.66,-1336.67,-5.3239,-8.2694,45.6423,-9981.33,7029.46,622.636,54.7428,160.403,159.703,945.924,-9642.31,-1402.98,-17.7863,-10.8472,70.9302,7838.55,-1701.18,1522.18,3.31181,23.9531,18.0237
3.8125,5542.86,-158.23,11026.1,-124.136,330.116,104.554,4895.92,451.278,8503.77,-39.3968,8.56272,16.8619,-230.926,10434.0,394.496,46.3222,25.8266,305.288,-2330.28,-9965.68,-1357.02,-5.27391,-8.35864,45.616,-9943.53,6982.74,602.559,55.4221,160.177,158.378,931.312,-9617.18,-1396.12,-18.0378,-10.328,70.9868,7825.82,-1695.59,1521.43,3.51505,23.7118,17.6467
3.813,5585.28,-144.245,11083.4,-124.153,330.0,105.332,4868.24,455.216,8524.49,-39.1929,8.49165,16.7648,-292.823,10506.8,403.939,46.5496,25.1178,306.397,-2317.94,-9955.71,-1377.38,-5.22393,-8.44789,45.5896,-9905.73,6936.01,582.483,56.1015,159.951,157.054,916.7,-9592.05,-1389.26,-18.2894,-9.80887,71.0435,7813.09,-1690.01,1520.69,3.7183,23.4706,17.2697
3.8135,5635.04,-129.597,11123.3,-124.15,329.921,106.025,4844.34,460.455,8543.82,-38.9969,8.4003,16.6854,-345.55,10571.4,413.274,46.7626,24.4219,307.477,-2309.25,-9944.09,-1390.52,-5.16344,-8.53783,45.5518,-9847.44,6895.83,592.562,56.6839,159.688,155.713,889.701,-9576.42,-1379.82,-18.529,-9.35765,71.1362,7807.3,-1683.26,1523.89,3.93605,23.1837,16.9324
3.814,5699.48,-113.623,11128.2,-124.109,329.919,106.547,4828.01,468.293,8560.36,-38.8168,8.26838,16.6412,-379.935,10619.6,422.393,46.947,23.752,308.498,-2307.87,-9929.17,-1389.2,-5.08194,-8.62917,45.4908,-9748.19,6868.74,662.953,57.0726,159.351,154.34,837.926,-9579.81,-1365.23,-18.7448,-9.0423,71.3013,7815.4,-1674.21,1534.98,4.18281,22.8056,16.6748
3.8145,5763.93,-97.6491,11133.1,-124.068,329.917,107.069,4811.67,476.131,8576.91,-38.6368,8.13647,16.5971,-414.32,10667.8,431.512,47.1314,23.0821,309.519,-2306.48,-9914.25,-1387.89,-5.00044,-8.7205,45.4298,-9648.94,6841.65,733.344,57.4612,159.015,152.967,786.152,-9583.2,-1350.63,-18.9605,-8.72696,71.4663,7823.5,-1665.16,1546.08,4.42956,22.4274,16.4173
3.815,5828.38,-81.675,11138.0,-124.027,329.914,107.591,4795.34,483.969,8593.45,-38.4567,8.00456,16.5529,-448.704,10716.0,440.63,47.3157,22.4122,310.54,-2305.1,-9899.33,-1386.57,-4.91894,-8.81183,45.3689,-9549.69,6814.56,803.735,57.8499,158.679,151.594,734.378,-9586.6,-1336.04,-19.1763,-8.41161,71.6313,7831.6,-1656.11,1557.17,4.67631,22.0493,16.1597
3.8155,5892.83,-65.7009,11143.0,-123.986,329.912,108.113,4779.01,491.807,8609.99,-38.2766,7.87264,16.5088,-483.089,10764.1,449.749,47.5001,21.7423,311.561,-2303.72,-9884.4,-1385.26,-4.83744,-8.90317,45.3079,-9450.43,6787.47,874.127,58.2386,158.342,150.221,682.604,-9589.99,-1321.44,-19.392,-8.09626,71.7964,7839.7,-1647.06,1568.26,4.92307,21.6711,15.9021
3.816,5957.28,-49.7268,11147.9,-123.945,329.91,108.635,4762.68,499.646,8626.53,-38.0966,7.74073,16.4646,-517.474,10812.3,458.868,47.6845,21.0723,312.582,-2302.33,-9869.48,-1383.94,-4.75594,-8.9945,45.2469,-9351.18,6760.38,944.518,58.6272,158.006,148.849,630.83,-9593.38,-1306.85,-19.6077,-7.78091,71.9614,7847.8,-1638.0,1579.36,5.16982,21.2929,15.6445
3.8165,6021.72,-33.7528,11152.8,-123.904,329.907,109.157,4746.35,507.484,8643.08,-37.9165,7.60882,16.4205,-551.859,10860.5,467.986,47.8689,20.4024,313.603,-2300.95,-9854.56,-1382.63,-4.67444,-9.08584,45.186,-9251.93,6733.29,1014.91,59.0159,157.669,147.476,579.056,-9596.77,-1292.26,-19.8235,-7.46557,72.1265,7855.9,-1628.95,1590.45,5.41657,20.9148,15.3869
3.817,6086.17,-17.7787,11157.7,-123.862,329.905,109.68,4730.01,515.322,8659.62,-37.7364,7.4769,16.3763,-586.243,10908.7,477.105,48.0532,19.7325,314.624,-2299.57,-9839.64,-1381.31,-4.59294,-9.17717,45.125,-9152.68,6706.2,1085.3,59.4045,157.333,146.103,527.282,-9600.16,-1277.66,-20.0392,-7.15022,72.2915,7864.0,-1619.9,1601.55,5.66333,20.5366,15.1293
3.8175,6150.62,-1.80456,11162.6,-123.821,329.903,110.202,4713.68,523.16,8676.16,-37.5563,7.34499,16.3321,-620.628,10956.9,486.224,48.2376,19.0626,315.645,-2298.19,-9824.72,-1380.0,-4.51144,-9.2685,45.064,-9053.42,6679.11,1155.69,59.7932,156.997,144.73,475.508,-9603.55,-1263.07,-20.255,-6.83487,72.4566,7872.1,-1610.85,1612.64,5.91008,20.1585,14.8717
3.818,6229.58,13.7051,11162.3,-123.878,329.915,110.62,4706.99,537.134,8688.12,-37.4521,7.2365,16.2839,-640.299,11004.5,486.517,48.3812,18.4387,316.617,-2298.28,-9818.75,-1381.01,-4.48436,-9.38828,45.013,-8933.05,6659.33,1242.26,59.9882,156.363,143.404,440.827,-9611.25,-1253.32,-20.4028,-6.59511,72.576,7875.12,-1605.35,1619.52,6.17605,19.7615,14.6237
3.8185,6326.68,28.6343,11155.5,-124.057,329.945,110.907,4712.34,558.778,8694.33,-37.4428,7.1573,16.2306,-641.578,11051.4,475.78,48.4737,17.8724,317.529,-2300.24,-9823.96,-1384.95,-4.5253,-9.5436,44.9744,-8786.26,6648.71,1349.05,59.9411,155.36,142.137,427.514,-9624.35,-1249.63,-20.4656,-6.44982,72.6386,7871.8,-1604.31,1621.13,6.46603,19.341,14.3878
3.819,6423.78,43.5634,11148.7,-124.236,329.975,111.195,4717.69,580.422,8700.55,-37.4334,7.0781,16.1773,-642.857,11098.4,465.043,48.5662,17.3062,318.44,-2302.19,-9829.17,-1388.89,-4.56624,-9.69893,44.9359,-8639.47,6638.08,1455.84,59.8941,154.356,140.87,414.2,-9637.45,-1245.94,-20.5284,-6.30453,72.7011,7868.48,-1603.26,1622.74,6.75601,18.9205,14.1519
3.8195,6520.88,58.4925,11141.9,-124.414,330.005,111.483,4723.04,602.066,8706.76,-37.4241,6.99889,16.124,-644.136,11145.3,454.305,48.6587,16.7399,319.352,-2304.14,-9834.38,-1392.83,-4.60718,-9.85426,44.8973,-8492.69,6627.45,1562.63,59.847,153.352,139.603,400.886,-9650.55,-1242.25,-20.5913,-6.15924,72.7636,7865.16,-1602.21,1624.36,7.04599,18.5,13.916
3.82,6617.98,73.4217,11135.1,-124.593,330.035,111.771,4728.39,623.709,8712.98,-37.4147,6.91969,16.0707,-645.414,11192.2,443.568,48.7512,16.1736,320.263,-2306.1,-9839.59,-1396.76,-4.64812,-10.0096,44.8587,-8345.9,6616.82,1669.43,59.7999,152.348,138.335,387.572,-9663.65,-1238.56,-20.6541,-6.01396,72.8261,7861.84,-1601.16,1625.97,7.33597,18.0795,13.6801
3.8205,6715.08,88.3508,11128.3,-124.772,330.065,112.059,4733.75,645.353,8719.19,-37.4054,6.84049,16.0175,-646.693,11239.1,432.83,48.8438,15.6074,321.175,-2308.05,-9844.8,-1400.7,-4.68906,-10.1649,44.8201,-8199.11,6606.2,1776.22,59.7529,151.344,137.068,374.258,-9676.74,-1234.87,-20.717,-5.86867,72.8886,7858.52,-1600.12,1627.58,7.62595,17.659,13.4442
3.821,6812.18,103.28,11121.5,-124.951,330.095,112.347,4739.1,666.997,8725.41,-37.396,6.76128,15.9642,-647.972,11286.1,422.093,48.9363,15.0411,322.087,-2310.0,-9850.01,-1404.64,-4.73,-10.3202,44.7816,-8052.33,6595.57,1883.01,59.7058,150.34,135.801,360.945,-9689.84,-1231.18,-20.7798,-5.72338,72.9512,7855.21,-1599.07,1629.19,7.91593,17.2385,13.2083
3.8215,6909.28,118.209,11114.7,-125.129,330.125,112.635,4744.45,688.641,8731.62,-37.3867,6.68208,15.9109,-649.251,11333.0,411.355,49.0288,14.4748,322.998,-2311.96,-9855.22,-1408.57,-4.77094,-10.4756,44.743,-7905.54,6584.94,1989.8,59.6587,149.336,134.534,347.631,-9702.94,-1227.49,-20.8427,-5.57809,73.0137,7851.89,-1598.02,1630.81,8.20591,16.818,12.9724
3.822,7006.38,133.138,11107.9,-125.308,330.155,112.923,4749.8,710.284,8737.84,-37.3773,6.60288,15.8576,-650.53,11379.9,400.618,49.1213,13.9086,323.91,-2313.91,-9860.43,-1412.51,-4.81188,-10.6309,44.7044,-7758.75,6574.31,2096.59,59.6117,148.332,133.266,334.317,-9716.04,-1223.8,-20.9055,-5.4328,73.0762,7848.57,-1596.97,1632.42,8.49589,16.3975,12.7365
3.8225,7093.85,150.001,11108.3,-125.438,330.209,113.103,4764.09,724.106,8726.16,-37.3843,6.56375,15.7916,-641.997,11420.3,378.113,49.245,13.5416,324.801,-2305.98,-9867.71,-1419.08,-4.81782,-10.7224,44.6936,-7588.35,6558.85,2189.02,59.2816,146.99,132.029,313.199,-9732.29,-1230.35,-20.9601,-5.35855,73.1201,7842.49,-1584.46,1633.8,8.74408,15.9575,12.5525
3.823,7173.61,168.411,11114.5,-125.529,330.284,113.196,4785.54,731.669,8700.17,-37.4043,6.55667,15.7154,-625.616,11455.6,346.194,49.3936,13.3342,325.676,-2290.15,-9876.65,-1427.74,-4.79578,-10.7629,44.705,-7399.06,6539.52,2269.94,58.7251,145.376,130.815,285.839,-9751.06,-1245.1,-21.0082,-5.34112,73.1491,7834.21,-1562.78,1635.01,8.95883,15.5018,12.41
3.8235,7253.38,186.82,11120.7,-125.62,330.359,113.29,4806.99,739.233,8674.17,-37.4244,6.5496,15.6392,-609.235,11490.8,314.275,49.5422,13.1268,326.551,-2274.31,-9885.58,-1436.41,-4.77373,-10.8033,44.7164,-7209.76,6520.19,2350.87,58.1686,143.763,129.602,258.478,-9769.83,-1259.84,-21.0562,-5.32368,73.1781,7825.94,-1541.1,1636.22,9.17358,15.0461,12.2675
3.824,7333.14,205.23,11126.9,-125.711,330.434,113.383,4828.44,746.796,8648.18,-37.4444,6.54252,15.563,-592.854,11526.0,282.356,49.6909,12.9194,327.426,-2258.48,-9894.52,-1445.08,-4.75169,-10.8438,44.7278,-7020.47,6500.86,2431.8,57.6121,142.149,128.388,231.118,-9788.6,-1274.59,-21.1043,-5.30625,73.2071,7817.66,-1519.42,1637.42,9.38833,14.5905,12.125
3.8245,7412.9,223.64,11133.2,-125.802,330.509,113.476,4849.9,754.36,8622.18,-37.4645,6.53545,15.4868,-576.473,11561.3,250.437,49.8395,12.7119,328.301,-2242.65,-9903.45,-1453.74,-4.72964,-10.8842,44.7392,-6831.17,6481.53,2512.73,57.0556,140.536,127.175,203.757,-9807.37,-1289.33,-21.1524,-5.28882,73.2361,7809.38,-1497.74,1638.63,9.60309,14.1348,11.9826
3.825,7492.67,242.049,11139.4,-125.893,330.584,113.57,4871.35,761.923,8596.19,-37.4845,6.52838,15.4106,-560.091,11596.5,218.518,49.9881,12.5045,329.175,-2226.81,-9912.38,-1462.41,-4.70759,-10.9247,44.7506,-6641.88,6462.2,2593.66,56.4991,138.922,125.961,176.397,-9826.15,-1304.07,-21.2004,-5.27139,73.2651,7801.1,-1476.06,1639.83,9.81784,13.6792,11.8401
3.8255,7572.43,260.459,11145.6,-125.984,330.658,113.663,4892.79,769.487,8570.2,-37.5046,6.5213,15.3344,-543.71,11631.7,186.599,50.1367,12.2971,330.05,-2210.98,-9921.32,-1471.08,-4.68555,-10.9652,44.7621,-6452.58,6442.87,2674.59,55.9426,137.309,124.747,149.036,-9844.92,-1318.82,-21.2485,-5.25396,73.2941,7792.82,-1454.38,1641.04,10.0326,13.2235,11.6976
3.826,7652.19,278.869,11151.8,-126.075,330.733,113.756,4914.25,777.05,8544.2,-37.5246,6.51423,15.2583,-527.329,11667.0,154.68,50.2854,12.0896,330.925,-2195.15,-9930.25,-1479.74,-4.6635,-11.0056,44.7735,-6263.29,6423.54,2755.52,55.3861,135.695,123.534,121.676,-9863.69,-1333.56,-21.2965,-5.23653,73.3231,7784.55,-1432.7,1642.24,10.2473,12.7679,11.5552
3.8265,7731.95,297.278,11158.0,-126.166,330.808,113.85,4935.7,784.614,8518.21,-37.5447,6.50715,15.1821,-510.948,11702.2,122.761,50.434,11.8822,331.8,-2179.31,-9939.19,-1488.41,-4.64145,-11.0461,44.7849,-6074.0,6404.21,2836.45,54.8296,134.082,122.32,94.3151,-9882.46,-1348.31,-21.3446,-5.2191,73.3521,7776.27,-1411.02,1643.45,10.4621,12.3122,11.4127
3.827,7802.38,292.405,11162.1,-126.089,330.897,113.86,4946.35,792.071,8507.51,-37.4343,6.47033,15.1087,-486.547,11726.8,102.748,50.5253,11.8989,332.562,-2178.25,-9941.19,-1506.02,-4.65553,-11.0581,44.7915,-5894.68,6382.96,2886.48,53.8746,132.218,121.208,63.6882,-9891.45,-1346.48,-21.3757,-5.31612,73.4195,7773.07,-1399.55,1644.72,10.5874,11.9423,11.3391
3.8275,7868.15,275.89,11165.0,-125.928,330.993,113.829,4951.62,799.475,8504.45,-37.2588,6.41864,15.0367,-458.135,11746.0,88.6885,50.5879,12.0277,333.267,-2184.56,-9939.73,-1528.09,-4.68767,-11.0559,44.7958,-5720.36,6360.76,2921.06,52.7202,130.228,120.146,31.428,-9895.55,-1336.38,-21.3982,-5.47038,73.5061,7772.41,-1393.19,1646.03,10.668,11.6152,11.2999
3.828,7933.91,259.376,11167.9,-125.767,331.089,113.798,4956.88,806.879,8501.4,-37.0832,6.36695,14.9647,-429.724,11765.3,74.6285,50.6505,12.1565,333.973,-2190.88,-9938.27,-1550.17,-4.71982,-11.0536,44.8001,-5546.04,6338.56,2955.65,51.5658,128.238,119.084,-0.832127,-9899.65,-1326.27,-21.4208,-5.62464,73.5927,7771.75,-1386.84,1647.34,10.7485,11.2882,11.2607
3.8285,7999.68,242.861,11170.8,-125.605,331.185,113.767,4962.14,814.283,8498.35,-36.9077,6.31526,14.8927,-401.312,11784.5,60.5686,50.7131,12.2852,334.678,-2197.2,-9936.81,-1572.24,-4.75196,-11.0514,44.8044,-5371.72,6316.36,2990.23,50.4115,126.248,118.023,-33.0923,-9903.75,-1316.17,-21.4433,-5.77889,73.6794,7771.1,-1380.48,1648.65,10.8291,10.9611,11.2215
3.829,8065.44,226.346,11173.7,-125.444,331.281,113.736,4967.4,821.686,8495.29,-36.7321,6.26356,14.8207,-372.901,11803.8,46.5087,50.7757,12.414,335.383,-2203.52,-9935.36,-1594.31,-4.7841,-11.0492,44.8087,-5197.4,6294.16,3024.81,49.2571,124.259,116.961,-65.3524,-9907.85,-1306.06,-21.4658,-5.93315,73.766,7770.44,-1374.12,1649.96,10.9097,10.634,11.1823
3.8295,8131.2,209.832,11176.6,-125.283,331.377,113.705,4972.66,829.09,8492.24,-36.5566,6.21187,14.7487,-344.49,11823.0,32.4488,50.8383,12.5428,336.089,-2209.83,-9933.9,-1616.39,-4.81624,-11.047,44.813,-5023.08,6271.96,3059.4,48.1028,122.269,115.899,-97.6126,-9911.95,-1295.95,-21.4884,-6.0874,73.8526,7769.78,-1367.76,1651.27,10.9902,10.307,11.1432
3.83,8196.97,193.317,11179.5,-125.122,331.473,113.674,4977.92,836.494,8489.19,-36.3811,6.16018,14.6767,-316.078,11842.3,18.3889,50.9009,12.6716,336.794,-2216.15,-9932.44,-1638.46,-4.84838,-11.0448,44.8173,-4848.76,6249.75,3093.98,46.9484,120.279,114.838,-129.873,-9916.05,-1285.85,-21.5109,-6.24166,73.9392,7769.12,-1361.41,1652.57,11.0708,9.97992,11.104
3.8305,8262.73,176.802,11182.4,-124.961,331.569,113.643,4983.19,843.898,8486.13,-36.2055,6.10849,14.6047,-287.667,11861.5,4.32899,50.9635,12.8003,337.5,-2222.47,-9930.98,-1660.54,-4.88052,-11.0426,44.8216,-4674.44,6227.55,3128.56,45.794,118.289,113.776,-162.133,-9920.15,-1275.74,-21.5335,-6.39591,74.0258,7768.46,-1355.05,1653.88,11.1514,9.65286,11.0648
3.831,8328.5,160.287,11185.3,-124.799,331.665,113.612,4988.45,851.302,8483.08,-36.03,6.05679,14.5327,-259.255,11880.8,-9.73092,51.0261,12.9291,338.205,-2228.78,-9929.52,-1682.61,-4.91267,-11.0404,44.8259,-4500.12,6205.35,3163.14,44.6397,116.299,112.714,-194.393,-9924.25,-1265.64,-21.556,-6.55017,74.1124,7767.81,-1348.69,1655.19,11.2319,9.3258,11.0256
3.8315,8419.05,123.222,11175.8,-124.588,331.861,113.633,4980.19,857.044,8506.35,-35.9845,5.96537,14.4992,-237.273,11890.4,-25.3061,51.059,13.3509,338.68,-2227.53,-9940.13,-1689.81,-4.91905,-11.1137,44.853,-4349.89,6186.62,3161.15,43.1611,114.01,111.801,-203.316,-9935.12,-1274.05,-21.6161,-6.73764,74.113,7781.92,-1343.95,1657.76,11.227,9.07417,11.0613
3.832,8516.69,80.2849,11162.8,-124.361,332.086,113.668,4968.08,862.312,8537.14,-35.9762,5.86258,14.4766,-217.127,11897.4,-41.3141,51.0833,13.8564,339.088,-2224.11,-9954.19,-1692.75,-4.91809,-11.2085,44.8866,-4206.55,6168.87,3148.7,41.59,111.635,110.931,-205.572,-9947.92,-1287.74,-21.6869,-6.9346,74.0891,7800.24,-1339.66,1660.69,11.1978,8.84409,11.1183
3.8325,8614.33,37.3479,11149.8,-124.135,332.311,113.703,4955.96,867.579,8567.93,-35.9679,5.7598,14.4541,-196.981,11904.3,-57.3222,51.1076,14.3619,339.497,-2220.69,-9968.24,-1695.7,-4.91712,-11.3034,44.9201,-4063.21,6151.13,3136.26,40.0188,109.26,110.06,-207.828,-9960.72,-1301.44,-21.7577,-7.13156,74.0651,7818.57,-1335.37,1663.62,11.1685,8.61401,11.1753
3.833,8711.97,-5.58923,11136.7,-123.909,332.536,113.739,4943.84,872.847,8598.72,-35.9596,5.65702,14.4316,-176.836,11911.3,-73.3303,51.132,14.8674,339.905,-2217.27,-9982.3,-1698.65,-4.91615,-11.3983,44.9537,-3919.87,6133.39,3123.81,38.4476,106.884,109.19,-210.084,-9973.52,-1315.14,-21.8285,-7.32852,74.0412,7836.9,-1331.09,1666.55,11.1392,8.38393,11.2324
3.8335,8809.61,-48.5263,11123.7,-123.683,332.76,113.774,4931.73,878.114,8629.52,-35.9513,5.55424,14.4091,-156.69,11918.3,-89.3383,51.1563,15.3729,340.314,-2213.85,-9996.36,-1701.59,-4.91518,-11.4932,44.9872,-3776.53,6115.65,3111.36,36.8765,104.509,108.32,-212.339,-9986.32,-1328.84,-21.8993,-7.52548,74.0172,7855.23,-1326.8,1669.48,11.1099,8.15385,11.2894
3.834,8907.25,-91.4634,11110.7,-123.457,332.985,113.81,4919.61,883.381,8660.31,-35.9431,5.45146,14.3865,-136.544,11925.2,-105.346,51.1807,15.8784,340.722,-2210.43,-10010.4,-1704.54,-4.91421,-11.5881,45.0208,-3633.19,6097.9,3098.92,35.3053,102.134,107.449,-214.595,-9999.12,-1342.54,-21.9701,-7.72244,73.9932,7873.56,-1322.52,1672.41,11.0806,7.92377,11.3465
3.8345,9004.89,-134.4,11097.6,-123.231,333.21,113.845,4907.5,888.649,8691.1,-35.9348,5.34868,14.364,-116.399,11932.2,-121.354,51.205,16.3838,341.131,-2207.01,-10024.5,-1707.49,-4.91324,-11.6829,45.0544,-3489.85,6080.16,3086.47,33.7342,99.7588,106.579,-216.851,-10011.9,-1356.24,-22.041,-7.9194,73.9693,7891.89,-1318.23,1675.34,11.0513,7.69369,11.4035
3.835,9102.53,-177.338,11084.6,-123.005,333.435,113.881,4895.38,893.916,8721.89,-35.9265,5.2459,14.3415,-96.2529,11939.1,-137.363,51.2293,16.8893,341.54,-2203.59,-10038.5,-1710.43,-4.91227,-11.7778,45.0879,-3346.51,6062.42,3074.02,32.163,97.3836,105.708,-219.106,-10024.7,-1369.94,-22.1118,-8.11636,73.9453,7910.22,-1313.95,1678.27,11.022,7.46361,11.4606
3.8355,9200.17,-220.275,11071.6,-122.779,333.66,113.916,4883.26,899.184,8752.68,-35.9182,5.14312,14.3189,-76.1072,11946.1,-153.371,51.2537,17.3948,341.948,-2200.17,-10052.6,-1713.38,-4.91131,-11.8727,45.1215,-3203.17,6044.68,3061.58,30.5919,95.0084,104.838,-221.362,-10037.5,-1383.64,-22.1826,-8.31332,73.9213,7928.55,-1309.66,1681.2,10.9928,7.23353,11.5176
3.836,9282.14,-280.083,11076.3,-122.208,333.876,114.047,4866.83,894.047,8761.47,-36.0297,5.06767,14.2383,-38.8386,11964.8,-194.442,51.3258,18.5091,342.237,-2196.61,-10065.1,-1721.65,-4.86246,-11.9397,45.1876,-3092.45,6022.5,3041.13,28.779,92.2365,104.303,-235.546,-10044.9,-1377.78,-22.1411,-8.41434,73.9673,7940.53,-1299.67,1689.93,10.9128,7.00764,11.671
3.8365,9362.16,-342.001,11083.2,-121.593,334.091,114.19,4849.86,887.61,8767.51,-36.1562,4.99564,14.1504,0.570337,11984.9,-238.647,51.4039,19.6994,342.51,-2193.03,-10077.4,-1730.59,-4.80762,-12.0033,45.2578,-2985.81,5999.78,3019.69,26.9359,89.4151,103.81,-251.221,-10051.7,-1369.48,-22.0855,-8.50337,74.022,7951.73,-1288.96,1699.39,10.8264,6.78226,11.8365
3.837,9442.18,-403.918,11090.2,-120.979,334.307,114.333,4832.9,881.172,8773.55,-36.2827,4.92361,14.0626,39.9793,12005.1,-282.851,51.4819,20.8897,342.784,-2189.45,-10089.7,-1739.53,-4.75279,-12.0668,45.328,-2879.17,5977.05,2998.24,25.0928,86.5937,103.317,-266.896,-10058.4,-1361.18,-22.03,-8.59239,74.0767,7962.92,-1278.25,1708.84,10.7401,6.55689,12.002
3.8375,9522.2,-465.836,11097.1,-120.364,334.522,114.475,4815.93,874.735,8779.59,-36.4092,4.85158,13.9747,79.3882,12025.2,-327.055,51.56,22.08,343.057,-2185.88,-10102.0,-1748.47,-4.69795,-12.1304,45.3982,-2772.52,5954.33,2976.8,23.2497,83.7723,102.824,-282.571,-10065.2,-1352.88,-21.9744,-8.68142,74.1313,7974.11,-1267.54,1718.3,10.6537,6.33151,12.1675
3.838,9602.21,-527.753,11104.1,-119.75,334.737,114.618,4798.96,868.298,8785.63,-36.5358,4.77955,13.8868,118.797,12045.4,-371.26,51.6381,23.2704,343.331,-2182.3,-10114.3,-1757.41,-4.64311,-12.1939,45.4684,-2665.88,5931.6,2955.35,21.4066,80.9509,102.331,-298.246,-10071.9,-1344.58,-21.9189,-8.77045,74.186,7985.3,-1256.83,1727.76,10.5674,6.10614,12.333
3.8385,9682.23,-589.671,11111.0,-119.136,334.952,114.761,4781.99,861.861,8791.67,-36.6623,4.70752,13.7989,158.206,12065.5,-415.464,51.7162,24.4607,343.604,-2178.72,-10126.6,-1766.34,-4.58828,-12.2575,45.5386,-2559.24,5908.87,2933.91,19.5635,78.1295,101.838,-313.921,-10078.7,-1336.28,-21.8633,-8.85948,74.2407,7996.5,-1246.13,1737.22,10.481,5.88077,12.4985
3.839,9762.25,-651.588,11118.0,-118.521,335.167,114.904,4765.02,855.424,8797.71,-36.7888,4.63549,13.7111,197.615,12085.7,-459.668,51.7943,25.651,343.878,-2175.14,-10138.9,-1775.28,-4.53344,-12.321,45.6087,-2452.59,5886.15,2912.46,17.7204,75.3081,101.345,-329.596,-10085.4,-1327.98,-21.8078,-8.94851,74.2954,8007.69,-1235.42,1746.67,10.3947,5.65539,12.664
3.8395,9842.27,-713.506,11124.9,-117.907,335.382,115.047,4748.05,848.986,8803.75,-36.9153,4.56346,13.6232,237.024,12105.8,-503.873,51.8723,26.8413,344.151,-2171.56,-10151.3,-1784.22,-4.47861,-12.3845,45.6789,-2345.95,5863.42,2891.02,15.8773,72.4867,100.852,-345.271,-10092.1,-1319.68,-21.7522,-9.03754,74.3501,8018.88,-1224.71,1756.13,10.3083,5.43002,12.8295
3.84,9922.29,-775.423,11131.8,-117.293,335.598,115.19,4731.08,842.549,8809.79,-37.0418,4.49143,13.5353,276.433,12126.0,-548.077,51.9504,28.0317,344.425,-2167.98,-10163.6,-1793.16,-4.42377,-12.4481,45.7491,-2239.3,5840.69,2869.57,14.0342,69.6653,100.359,-360.945,-10098.9,-1311.38,-21.6967,-9.12656,74.4047,8030.08,-1214.0,1765.59,10.222,5.20464,12.995
3.8405,10019.4,-762.977,11139.8,-116.267,335.9,115.564,4740.87,837.283,8797.34,-36.9123,4.37739,13.4947,282.23,12136.9,-572.276,52.1674,29.6805,344.459,-2170.15,-10154.3,-1802.3,-4.4433,-12.4555,45.8055,-2179.9,5807.38,2841.77,12.0771,66.4404,100.245,-364.3,-10109.8,-1318.83,-21.6461,-9.06832,74.33,8057.06,-1203.25,1754.52,10.1196,4.94961,13.1788
3.841,10116.5,-750.53,11147.8,-115.241,336.202,115.938,4750.65,832.016,8784.9,-36.7827,4.26335,13.4542,288.027,12147.9,-596.474,52.3844,31.3293,344.493,-2172.32,-10145.1,-1811.44,-4.46284,-12.4628,45.8619,-2120.49,5774.06,2813.98,10.1199,63.2155,100.131,-367.655,-10120.8,-1326.27,-21.5955,-9.01007,74.2552,8084.05,-1192.5,1743.46,10.0173,4.69457,13.3627
3.8415,10213.6,-738.084,11155.7,-114.215,336.504,116.313,4760.44,826.75,8772.46,-36.6531,4.14932,13.4136,293.824,12158.9,-620.672,52.6013,32.9782,344.527,-2174.49,-10135.9,-1820.57,-4.48237,-12.4702,45.9183,-2061.08,5740.75,2786.18,8.16278,59.9906,100.017,-371.009,-10131.7,-1333.72,-21.5449,-8.95182,74.1805,8111.04,-1181.75,1732.39,9.91493,4.43953,13.5465
3.842,10310.7,-725.637,11163.7,-113.189,336.806,116.687,4770.23,821.484,8760.02,-36.5236,4.03528,13.3731,299.62,12169.8,-644.87,52.8183,34.627,344.561,-2176.66,-10126.7,-1829.71,-4.5019,-12.4776,45.9747,-2001.67,5707.43,2758.38,6.20563,56.7657,99.9034,-374.364,-10142.7,-1341.17,-21.4943,-8.89357,74.1057,8138.03,-1171.0,1721.33,9.81258,4.18449,13.7304
3.8425,10407.8,-713.191,11171.7,-112.163,337.108,117.061,4780.01,816.218,8747.58,-36.394,3.92124,13.3325,305.417,12180.8,-669.069,53.0353,36.2758,344.595,-2178.83,-10117.5,-1838.85,-4.52143,-12.4849,46.031,-1942.26,5674.12,2730.59,4.24849,53.5409,99.7895,-377.719,-10153.6,-1348.61,-21.4437,-8.83532,74.0309,8165.02,-1160.24,1710.26,9.71023,3.92945,13.9142
3.843,10504.9,-700.744,11179.6,-111.137,337.41,117.436,4789.8,810.951,8735.13,-36.2645,3.8072,13.292,311.214,12191.8,-693.267,53.2523,37.9246,344.629,-2181.0,-10108.2,-1847.99,-4.54096,-12.4923,46.0874,-1882.85,5640.8,2702.79,2.29135,50.316,99.6756,-381.073,-10164.6,-1356.06,-21.3931,-8.77707,73.9562,8192.01,-1149.49,1699.19,9.60787,3.67441,14.0981
3.8435,10601.9,-688.298,11187.6,-110.112,337.712,117.81,4799.59,805.685,8722.69,-36.1349,3.69317,13.2514,317.011,12202.7,-717.465,53.4693,39.5735,344.663,-2183.17,-10099.0,-1857.13,-4.56049,-12.4997,46.1438,-1823.45,5607.49,2674.99,0.334202,47.0911,99.5617,-384.428,-10175.6,-1363.5,-21.3425,-8.71882,73.8814,8219.0,-1138.74,1688.13,9.50552,3.41938,14.282
3.844,10699.0,-675.851,11195.6,-109.086,338.015,118.184,4809.37,800.419,8710.25,-36.0054,3.57913,13.2109,322.808,12213.7,-741.664,53.6862,41.2223,344.697,-2185.34,-10089.8,-1866.26,-4.58003,-12.5071,46.2002,-1764.04,5574.17,2647.19,-1.62294,43.8662,99.4478,-387.782,-10186.5,-1370.95,-21.2919,-8.66057,73.8066,8245.99,-1127.99,1677.06,9.40317,3.16434,14.4658
3.8445,10793.4,-660.412,11200.6,-108.078,338.317,118.573,4819.48,797.462,8698.51,-35.8666,3.46477,13.1752,325.417,12226.9,-764.006,53.8901,42.8942,344.718,-2188.65,-10082.0,-1875.27,-4.59952,-12.5139,46.2556,-1712.12,5537.22,2618.23,-3.55223,40.6454,99.366,-390.383,-10198.2,-1376.23,-21.2489,-8.59976,73.7451,8272.53,-1120.14,1668.49,9.33176,2.91069,14.651
3.845,10866.2,-621.027,11182.4,-107.213,338.621,119.072,4832.2,812.979,8692.43,-35.6541,3.34786,13.1782,302.528,12258.0,-771.501,53.9888,44.7505,344.631,-2201.01,-10086.0,-1883.17,-4.61869,-12.5161,46.3029,-1720.18,5471.13,2579.89,-5.2587,37.4574,99.5414,-386.947,-10216.1,-1364.21,-21.266,-8.51842,73.7895,8295.5,-1135.52,1679.85,9.50789,2.66817,14.8473
3.8455,10939.0,-581.643,11164.2,-106.348,338.925,119.571,4844.93,828.497,8686.34,-35.4416,3.23094,13.1813,279.638,12289.1,-778.997,54.0876,46.6068,344.544,-2213.37,-10090.1,-1891.07,-4.63786,-12.5184,46.3502,-1728.24,5405.04,2541.56,-6.96516,34.2693,99.7167,-383.512,-10233.9,-1352.19,-21.2831,-8.43708,73.8339,8318.47,-1150.9,1691.21,9.68402,2.42566,15.0436
3.846,11011.8,-542.258,11146.0,-105.483,339.228,120.07,4857.65,844.015,8680.25,-35.2291,3.11402,13.1843,256.749,12320.2,-786.492,54.1864,48.4631,344.457,-2225.73,-10094.1,-1898.98,-4.65703,-12.5207,46.3975,-1736.29,5338.95,2503.23,-8.67163,31.0813,99.8921,-380.077,-10251.7,-1340.18,-21.3003,-8.35574,73.8782,8341.44,-1166.27,1702.57,9.86016,2.18314,15.2398
3.8465,11084.5,-502.873,11127.8,-104.618,339.532,120.569,4870.37,859.533,8674.16,-35.0166,2.9971,13.1874,233.859,12351.3,-793.987,54.2851,50.3194,344.371,-2238.09,-10098.1,-1906.88,-4.6762,-12.5229,46.4448,-1744.35,5272.87,2464.9,-10.3781,27.8932,100.067,-376.642,-10269.5,-1328.16,-21.3174,-8.27441,73.9226,8364.41,-1181.65,1713.92,10.0363,1.94062,15.4361
3.847,11157.3,-463.489,11109.6,-103.753,339.836,121.068,4883.09,875.05,8668.07,-34.8041,2.88019,13.1904,210.97,12382.4,-801.483,54.3839,52.1757,344.284,-2250.45,-10102.1,-1914.79,-4.69537,-12.5252,46.4922,-1752.4,5206.78,2426.56,-12.0846,24.7052,100.243,-373.206,-10287.4,-1316.14,-21.3345,-8.19307,73.967,8387.38,-1197.03,1725.28,10.2124,1.6981,15.6324
3.8475,11230.1,-424.104,11091.4,-102.889,340.14,121.567,4895.81,890.568,8661.98,-34.5916,2.76327,13.1935,188.08,12413.5,-808.978,54.4827,54.032,344.197,-2262.81,-10106.1,-1922.69,-4.71454,-12.5275,46.5395,-1760.46,5140.69,2388.23,-13.791,21.5171,100.418,-369.771,-10305.2,-1304.12,-21.3516,-8.11173,74.0114,8410.35,-1212.41,1736.64,10.3886,1.45559,15.8286
3.848,11302.9,-384.72,11073.2,-102.024,340.444,122.066,4908.53,906.086,8655.89,-34.3791,2.64635,13.1965,165.191,12444.6,-816.474,54.5814,55.8883,344.11,-2275.17,-10110.1,-1930.6,-4.73371,-12.5298,46.5868,-1768.51,5074.6,2349.9,-15.4975,18.3291,100.594,-366.336,-10323.0,-1292.1,-21.3688,-8.03039,74.0557,8433.33,-1227.79,1748.0,10.5647,1.21307,16.0249
3.8485,11375.6,-345.335,11055.0,-101.159,340.748,122.565,4921.25,921.604,8649.8,-34.1666,2.52944,13.1996,142.301,12475.7,-823.969,54.6802,57.7446,344.023,-2287.53,-10114.1,-1938.5,-4.75288,-12.532,46.6341,-1776.57,5008.52,2311.57,-17.204,15.141,100.769,-362.901,-10340.9,-1280.09,-21.3859,-7.94905,74.1001,8456.3,-1243.16,1759.36,10.7408,0.970553,16.2211
3.849,11444.3,-315.551,11036.7,-100.341,341.003,123.07,4934.66,935.318,8647.72,-34.0082,2.42294,13.2054,126.628,12512.0,-830.877,54.7726,59.7075,343.918,-2298.72,-10116.3,-1943.61,-4.76689,-12.525,46.6755,-1792.35,4943.89,2274.64,-18.7654,12.0128,100.978,-358.923,-10353.8,-1265.38,-21.3928,-7.91223,74.135,8478.8,-1256.96,1763.82,10.9209,0.773581,16.4352
3.8495,11498.5,-319.372,11018.5,-99.6882,341.092,123.594,4950.48,942.721,8659.65,-34.0393,2.35294,13.2209,136.212,12566.2,-835.728,54.843,62.044,343.749,-2305.84,-10112.2,-1938.95,-4.76281,-12.4852,46.6962,-1835.18,4884.4,2242.62,-19.8191,9.09383,101.306,-353.045,-10349.8,-1241.25,-21.3638,-8.03123,74.1365,8499.66,-1265.23,1744.13,11.1149,0.736021,16.7115
3.85,11552.7,-323.192,11000.3,-99.0353,341.18,124.118,4966.3,950.123,8671.58,-34.0704,2.28293,13.2365,145.796,12620.3,-840.58,54.9134,64.3804,343.58,-2312.96,-10108.0,-1934.28,-4.75874,-12.4455,46.7169,-1878.02,4824.9,2210.6,-20.8729,6.17489,101.633,-347.167,-10345.8,-1217.12,-21.3348,-8.15022,74.1381,8520.53,-1273.5,1724.43,11.3089,0.69846,16.9877
3.8505,11606.8,-327.013,10982.0,-98.3825,341.268,124.642,4982.12,957.525,8683.5,-34.1015,2.21293,13.252,155.38,12674.5,-845.432,54.9838,66.7168,343.411,-2320.07,-10103.8,-1929.62,-4.75466,-12.4058,46.7375,-1920.85,4765.4,2178.58,-21.9267,3.25596,101.96,-341.29,-10341.8,-1192.98,-21.3058,-8.26921,74.1396,8541.39,-1281.77,1704.74,11.5028,0.660899,17.264
3.851,11661.0,-330.833,10963.8,-97.7296,341.357,125.166,4997.94,964.928,8695.43,-34.1325,2.14292,13.2676,164.964,12728.7,-850.283,55.0543,69.0532,343.242,-2327.19,-10099.7,-1924.96,-4.75059,-12.366,46.7582,-1963.68,4705.9,2146.57,-22.9804,0.337021,102.288,-335.412,-10337.8,-1168.85,-21.2768,-8.3882,74.1412,8562.25,-1290.03,1685.04,11.6968,0.623339,17.5403
3.8515,11715.2,-334.653,10945.6,-97.0767,341.445,125.69,5013.76,972.33,8707.36,-34.1636,2.07291,13.2831,174.548,12782.9,-855.135,55.1247,71.3897,343.073,-2334.3,-10095.5,-1920.29,-4.74652,-12.3263,46.7789,-2006.52,4646.4,2114.55,-24.0342,-2.58191,102.615,-329.534,-10333.8,-1144.72,-21.2478,-8.50719,74.1428,8583.12,-1298.3,1665.35,11.8908,0.585778,17.8165
3.852,11769.4,-338.474,10927.3,-96.4239,341.533,126.215,5029.58,979.733,8719.29,-34.1947,2.00291,13.2986,184.132,12837.1,-859.986,55.1951,73.7261,342.904,-2341.42,-10091.3,-1915.63,-4.74244,-12.2866,46.7995,-2049.35,4586.9,2082.53,-25.088,-5.50085,102.943,-323.656,-10329.8,-1120.59,-21.2188,-8.62619,74.1443,8603.98,-1306.57,1645.65,12.0848,0.548217,18.0928
3.8525,11823.6,-342.294,10909.1,-95.771,341.621,126.739,5045.4,987.135,8731.22,-34.2258,1.9329,13.3142,193.715,12891.3,-864.838,55.2655,76.0625,342.735,-2348.54,-10087.2,-1910.97,-4.73837,-12.2468,46.8202,-2092.18,4527.41,2050.51,-26.1417,-8.41979,103.27,-317.779,-10325.8,-1096.46,-21.1899,-8.74518,74.1459,8624.84,-1314.84,1625.96,12.2787,0.510656,18.3691
3.853,11877.8,-346.114,10890.9,-95.1181,341.71,127.263,5061.22,994.538,8743.14,-34.2569,1.86289,13.3297,203.299,12945.4,-869.689,55.3359,78.3989,342.566,-2355.65,-10083.0,-1906.3,-4.73429,-12.2071,46.8409,-2135.02,4467.91,2018.49,-27.1955,-11.3387,103.598,-311.901,-10321.8,-1072.33,-21.1609,-8.86417,74.1475,8645.71,-1323.11,1606.26,12.4727,0.473096,18.6453
3.8535,11922.9,-362.301,10887.3,-94.4024,341.747,127.864,5069.61,989.395,8755.59,-34.3109,1.7765,13.3205,221.209,13008.0,-867.587,55.3957,80.8077,342.423,-2366.06,-10077.4,-1899.98,-4.7425,-12.195,46.8877,-2189.95,4407.73,1988.48,-27.894,-14.1331,103.887,-304.657,-10317.0,-1052.84,-21.1299,-9.01062,74.1774,8658.73,-1328.9,1588.44,12.6001,0.458617,18.9272
3.854,11950.1,-403.221,10913.2,-93.5611,341.682,128.62,5063.12,959.162,8769.08,-34.4108,1.65734,13.2616,255.77,13087.4,-851.575,55.4343,83.3612,342.332,-2383.06,-10068.8,-1890.34,-4.77525,-12.2383,46.987,-2269.09,4346.2,1962.49,-27.8819,-16.6785,104.099,-294.682,-10310.6,-1042.61,-21.0951,-9.21197,74.2643,8656.09,-1329.72,1574.34,12.5942,0.490302,19.2201
3.8545,11977.3,-444.142,10939.1,-92.7199,341.618,129.375,5056.63,928.929,8782.57,-34.5107,1.53818,13.2028,290.332,13166.7,-835.564,55.473,85.9147,342.24,-2400.05,-10060.3,-1880.69,-4.808,-12.2816,47.0862,-2348.23,4284.67,1936.5,-27.8698,-19.2238,104.312,-284.706,-10304.3,-1032.39,-21.0603,-9.41333,74.3511,8653.44,-1330.55,1560.25,12.5883,0.521987,19.513
3.855,12004.4,-485.062,10965.0,-91.8786,341.553,130.131,5050.14,898.695,8796.07,-34.6106,1.41902,13.144,324.893,13246.1,-819.552,55.5116,88.4681,342.149,-2417.04,-10051.7,-1871.05,-4.84076,-12.3249,47.1854,-2427.38,4223.13,1910.51,-27.8577,-21.7692,104.524,-274.731,-10297.9,-1022.16,-21.0255,-9.61469,74.4379,8650.79,-1331.38,1546.15,12.5824,0.553672,19.8059
3.8555,12031.6,-525.982,10990.8,-91.0373,341.488,130.886,5043.65,868.462,8809.56,-34.7105,1.29986,13.0852,359.455,13325.5,-803.541,55.5503,91.0216,342.057,-2434.04,-10043.1,-1861.41,-4.87351,-12.3682,47.2847,-2506.52,4161.6,1884.52,-27.8455,-24.3145,104.736,-264.755,-10291.5,-1011.93,-20.9907,-9.81605,74.5248,8648.14,-1332.2,1532.06,12.5766,0.585356,20.0989
3.856,12058.7,-566.902,11016.7,-90.196,341.424,131.642,5037.15,838.229,8823.05,-34.8104,1.1807,13.0264,394.016,13404.8,-787.53,55.5889,93.5751,341.966,-2451.03,-10034.6,-1851.77,-4.90627,-12.4115,47.3839,-2585.66,4100.07,1858.53,-27.8334,-26.8599,104.949,-254.78,-10285.2,-1001.71,-20.9559,-10.0174,74.6116,8645.5,-1333.03,1517.96,12.5707,0.617041,20.3918
3.8565,12085.9,-607.822,11042.6,-89.3547,341.359,132.397,5030.66,807.996,8836.54,-34.9103,1.06154,12.9675,428.578,13484.2,-771.518,55.6276,96.1285,341.874,-2468.03,-10026.0,-1842.12,-4.93902,-12.4548,47.4831,-2664.8,4038.54,1832.54,-27.8213,-29.4052,105.161,-244.804,-10278.8,-991.483,-20.9211,-10.2188,74.6984,8642.85,-1333.85,1503.87,12.5648,0.648726,20.6847
3.857,12113.1,-648.742,11068.5,-88.5134,341.294,133.152,5024.17,777.763,8850.03,-35.0102,0.942384,12.9087,463.139,13563.5,-755.507,55.6662,98.682,341.783,-2485.02,-10017.4,-1832.48,-4.97178,-12.4981,47.5824,-2743.94,3977.01,1806.55,-27.8092,-31.9506,105.373,-234.829,-10272.4,-981.258,-20.8864,-10.4201,74.7853,8640.2,-1334.68,1489.77,12.5589,0.680411,20.9776
3.8575,12140.2,-689.662,11094.3,-87.6721,341.23,133.908,5017.68,747.529,8863.52,-35.1101,0.823224,12.8499,497.701,13642.9,-739.496,55.7049,101.235,341.691,-2502.01,-10008.9,-1822.84,-5.00453,-12.5414,47.6816,-2823.08,3915.47,1780.56,-27.7971,-34.4959,105.586,-224.853,-10266.0,-971.032,-20.8516,-10.6215,74.8721,8637.55,-1335.51,1475.68,12.553,0.712096,21.2706
3.858,12156.0,-740.633,11118.8,-86.6939,341.057,134.801,5009.48,720.905,8860.64,-35.1646,0.705713,12.8039,520.821,13722.6,-723.995,55.7206,103.805,341.563,-2514.25,-10008.2,-1810.16,-5.0288,-12.6015,47.7481,-2912.43,3854.01,1750.72,-27.2878,-36.8043,105.677,-216.194,-10257.8,-956.482,-20.8466,-10.8259,74.9382,8631.97,-1339.81,1464.31,12.4712,0.754911,21.5334
3.8585,12157.4,-804.166,11141.4,-85.5446,340.748,135.864,4999.15,698.792,8837.28,-35.1624,0.590263,12.7738,529.64,13802.7,-709.133,55.7077,106.394,341.39,-2520.54,-10017.3,-1793.67,-5.04247,-12.6826,47.7737,-3014.54,3792.64,1716.09,-26.1568,-38.8165,105.617,-209.178,-10247.3,-936.525,-20.8789,-11.034,74.9785,8622.71,-1348.45,1456.35,12.2946,0.811637,21.7587
3.859,12158.9,-867.7,11164.0,-84.3953,340.439,136.928,4988.82,676.678,8813.93,-35.1601,0.474813,12.7438,538.458,13882.8,-694.27,55.6947,108.983,341.217,-2526.83,-10026.4,-1777.18,-5.05614,-12.7637,47.7993,-3116.65,3731.27,1681.46,-25.0259,-40.8287,105.558,-202.163,-10236.8,-916.568,-20.9113,-11.2422,75.0188,8613.46,-1357.1,1448.39,12.1179,0.868364,21.9841
3.8595,12160.4,-931.234,11186.7,-83.246,340.131,137.992,4978.49,654.565,8790.58,-35.1578,0.359363,12.7137,547.277,13963.0,-679.408,55.6818,111.572,341.043,-2533.12,-10035.5,-1760.7,-5.0698,-12.8449,47.825,-3218.76,3669.89,1646.82,-23.8949,-42.8408,105.498,-195.148,-10226.3,-896.612,-20.9436,-11.4503,75.0591,8604.2,-1365.74,1440.43,11.9412,0.92509,22.2094
3.86,12161.9,-994.768,11209.3,-82.0967,339.822,139.056,4968.16,632.451,8767.22,-35.1556,0.243913,12.6837,556.096,14043.1,-664.546,55.6688,114.161,340.87,-2539.41,-10044.7,-1744.21,-5.08347,-12.926,47.8506,-3320.87,3608.52,1612.19,-22.764,-44.853,105.439,-188.132,-10215.7,-876.655,-20.976,-11.6585,75.0993,8594.95,-1374.39,1432.47,11.7645,0.981817,22.4347
3.8605,12163.3,-1058.3,11231.9,-80.9474,339.514,140.12,4957.82,610.338,8743.87,-35.1533,0.128462,12.6536,564.914,14123.2,-649.683,55.6559,116.75,340.696,-2545.7,-10053.8,-1727.73,-5.09714,-13.0071,47.8762,-3422.98,3547.15,1577.56,-21.633,-46.8652,105.379,-181.117,-10205.2,-856.698,-21.0083,-11.8667,75.1396,8585.69,-1383.03,1424.51,11.5878,1.03854,22.66
3.861,12164.8,-1121.84,11254.6,-79.7981,339.205,141.184,4947.49,588.224,8720.52,-35.151,0.0130124,12.6236,573.733,14203.3,-634.821,55.6429,119.339,340.523,-2551.99,-10062.9,-1711.24,-5.11081,-13.0882,47.9018,-3525.1,3485.78,1542.93,-20.5021,-48.8774,105.319,-174.102,-10194.7,-836.741,-21.0406,-12.0748,75.1799,8576.43,-1391.68,1416.55,11.4111,1.09527,22.8853
3.8615,12166.3,-1185.37,11277.2,-78.6488,338.896,142.248,4937.16,566.111,8697.16,-35.1488,-0.102438,12.5935,582.552,14283.4,-619.959,55.63,121.928,340.35,-2558.28,-10072.0,-1694.75,-5.12447,-13.1694,47.9274,-3627.21,3424.4,1508.29,-19.3712,-50.8895,105.26,-167.087,-10184.2,-816.785,-21.073,-12.283,75.2202,8567.18,-1400.32,1408.59,11.2344,1.152,23.1107
3.862,12167.8,-1248.9,11299.8,-77.4995,338.588,143.312,4926.83,543.997,8673.81,-35.1465,-0.217888,12.5635,591.37,14363.5,-605.096,55.6171,124.517,340.176,-2564.57,-10081.2,-1678.27,-5.13814,-13.2505,47.953,-3729.32,3363.03,1473.66,-18.2402,-52.9017,105.2,-160.071,-10173.6,-796.828,-21.1053,-12.4912,75.2604,8557.92,-1408.97,1400.63,11.0577,1.20872,23.336
3.8625,12178.9,-1303.88,11317.5,-76.1737,338.151,144.553,4915.44,535.673,8667.79,-35.0055,-0.349045,12.5072,593.708,14443.5,-595.982,55.5725,127.101,340.027,-2563.93,-10089.8,-1666.83,-5.14346,-13.3102,47.9747,-3847.89,3330.79,1437.24,-16.812,-54.5664,104.91,-152.028,-10162.2,-792.678,-21.1595,-12.7276,75.245,8560.1,-1416.67,1393.35,10.9038,1.17559,23.5301
3.863,12197.8,-1352.01,11331.1,-74.7066,337.611,145.934,4903.21,538.38,8675.64,-34.7535,-0.492767,12.43,590.861,14523.5,-591.466,55.5028,129.679,339.898,-2557.74,-10098.0,-1659.43,-5.14208,-13.3528,47.9932,-3979.63,3321.85,1399.38,-15.1459,-55.9532,104.435,-143.161,-10150.1,-801.173,-21.2313,-12.9866,75.1849,8571.43,-1423.62,1386.6,10.7683,1.07057,23.6991
3.8635,12216.7,-1400.14,11344.8,-73.2394,337.071,147.316,4890.98,541.087,8683.5,-34.5015,-0.63649,12.3527,588.014,14603.4,-586.949,55.433,132.257,339.769,-2551.55,-10106.1,-1652.04,-5.14071,-13.3954,48.0116,-4111.37,3312.91,1361.52,-13.4799,-57.34,103.961,-134.294,-10138.0,-809.668,-21.303,-13.2456,75.1249,8582.77,-1430.57,1379.85,10.6327,0.96555,23.8682
3.864,12235.6,-1448.27,11358.4,-71.7723,336.531,148.698,4878.75,543.794,8691.35,-34.2496,-0.780212,12.2755,585.167,14683.3,-582.433,55.3632,134.836,339.64,-2545.36,-10114.3,-1644.64,-5.13934,-13.4379,48.0301,-4243.11,3303.97,1323.67,-11.8138,-58.7268,103.486,-125.428,-10125.9,-818.163,-21.3747,-13.5047,75.0648,8594.1,-1437.51,1373.11,10.4971,0.86053,24.0373
3.8645,12254.5,-1496.4,11372.1,-70.3052,335.991,150.079,4866.52,546.501,8699.2,-33.9976,-0.923935,12.1982,582.32,14763.2,-577.917,55.2935,137.414,339.511,-2539.17,-10122.5,-1637.24,-5.13797,-13.4805,48.0486,-4374.86,3295.03,1285.81,-10.1477,-60.1136,103.011,-116.561,-10113.8,-826.658,-21.4464,-13.7637,75.0047,8605.43,-1444.46,1366.36,10.3615,0.75551,24.2064
3.865,12273.4,-1544.54,11385.7,-68.8381,335.451,151.461,4854.29,549.208,8707.05,-33.7456,-1.06766,12.121,579.473,14843.1,-573.401,55.2237,139.993,339.382,-2532.98,-10130.7,-1629.84,-5.1366,-13.5231,48.0671,-4506.6,3286.09,1247.95,-8.48166,-61.5004,102.537,-107.695,-10101.7,-835.153,-21.5181,-14.0227,74.9447,8616.76,-1451.41,1359.61,10.2259,0.65049,24.3755
3.8655,12292.3,-1592.67,11399.4,-67.371,334.911,152.843,4842.06,551.915,8714.9,-33.4936,-1.21138,12.0438,576.625,14923.0,-568.884,55.1539,142.571,339.253,-2526.79,-10138.8,-1622.44,-5.13523,-13.5657,48.0856,-4638.34,3277.15,1210.09,-6.8156,-62.8872,102.062,-98.8281,-10089.6,-843.649,-21.5898,-14.2818,74.8846,8628.1,-1458.35,1352.87,10.0903,0.545469,24.5445
3.866,12311.2,-1640.8,11413.0,-65.9039,334.371,154.225,4829.83,554.622,8722.75,-33.2417,-1.3551,11.9665,573.778,15002.9,-564.368,55.0841,145.15,339.123,-2520.6,-10147.0,-1615.05,-5.13386,-13.6083,48.104,-4770.08,3268.21,1172.24,-5.14954,-64.274,101.587,-89.9615,-10077.5,-852.144,-21.6616,-14.5408,74.8246,8639.43,-1465.3,1346.12,9.95473,0.440449,24.7136
3.8665,12330.1,-1688.93,11426.7,-64.4368,333.831,155.606,4817.6,557.329,8730.6,-32.9897,-1.49882,11.8893,570.931,15082.9,-559.852,55.0144,147.728,338.994,-2514.41,-10155.2,-1607.65,-5.13249,-13.6509,48.1225,-4901.82,3259.27,1134.38,-3.48347,-65.6608,101.113,-81.095,-10065.4,-860.639,-21.7333,-14.7998,74.7645,8650.76,-1472.25,1339.37,9.81914,0.335429,24.8827
3.867,12352.4,-1740.09,11446.0,-62.786,333.1,157.132,4823.83,560.426,8741.23,-32.7744,-1.70808,11.8166,554.787,15179.3,-568.522,54.9514,150.224,338.794,-2518.51,-10161.1,-1597.92,-5.16556,-13.6793,48.1416,-5031.5,3270.94,1100.73,-1.96381,-66.5787,100.55,-79.8612,-10073.0,-849.804,-21.8154,-15.0314,74.8166,8650.34,-1483.59,1333.36,9.77826,0.1882,24.9399
3.8675,12376.4,-1792.76,11468.2,-61.0433,332.274,158.73,4839.3,563.717,8753.25,-32.5775,-1.95009,11.7462,531.994,15284.1,-583.786,54.8918,152.678,338.557,-2527.75,-10165.8,-1587.03,-5.21586,-13.7007,48.1609,-5160.15,3292.92,1069.18,-0.517341,-67.2621,99.9436,-82.4438,-10090.5,-829.304,-21.9028,-15.2494,74.9247,8644.03,-1497.12,1327.71,9.78474,0.0198661,24.9411
3.868,12400.4,-1845.43,11490.4,-59.3006,331.448,160.328,4854.76,567.009,8765.27,-32.3806,-2.19211,11.6759,509.201,15388.9,-599.05,54.8322,155.132,338.321,-2537.0,-10170.5,-1576.13,-5.26616,-13.7221,48.1802,-5288.8,3314.9,1037.63,0.929127,-67.9455,99.3369,-85.0264,-10108.0,-808.804,-21.9902,-15.4673,75.0329,8637.73,-1510.66,1322.07,9.79122,-0.148468,24.9423
3.8685,12424.4,-1898.1,11512.6,-57.5579,330.622,161.925,4870.23,570.3,8777.29,-32.1837,-2.43412,11.6055,486.409,15493.7,-614.314,54.7726,157.587,338.084,-2546.25,-10175.2,-1565.24,-5.31646,-13.7435,48.1996,-5417.45,3336.88,1006.09,2.37559,-68.6288,98.7303,-87.609,-10125.5,-788.303,-22.0776,-15.6852,75.141,8631.43,-1524.19,1316.42,9.79769,-0.316802,24.9435
3.869,12448.3,-1950.77,11534.7,-55.8152,329.796,163.523,4885.69,573.592,8789.31,-31.9868,-2.67614,11.5351,463.616,15598.5,-629.578,54.713,160.041,337.848,-2555.49,-10180.0,-1554.34,-5.36676,-13.7649,48.2189,-5546.1,3358.86,974.54,3.82206,-69.3122,98.1236,-90.1916,-10143.0,-767.803,-22.1649,-15.9031,75.2492,8625.13,-1537.73,1310.77,9.80417,-0.485135,24.9447
3.8695,12472.4,-2003.44,11556.9,-54.0725,328.97,165.121,4901.16,576.883,8801.33,-31.79,-2.91815,11.4648,440.823,15703.3,-644.842,54.6534,162.495,337.612,-2564.74,-10184.7,-1543.45,-5.41706,-13.7863,48.2382,-5674.75,3380.84,942.992,5.26853,-69.9956,97.517,-92.7742,-10160.5,-747.303,-22.2523,-16.1211,75.3573,8618.83,-1551.26,1305.13,9.81065,-0.653469,24.946
3.87,12496.3,-2056.11,11579.1,-52.3298,328.144,166.719,4916.62,580.175,8813.35,-31.5931,-3.16017,11.3944,418.03,15808.1,-660.106,54.5938,164.949,337.375,-2573.98,-10189.4,-1532.56,-5.46736,-13.8077,48.2575,-5803.4,3402.82,911.444,6.715,-70.679,96.9104,-95.3568,-10178.0,-726.803,-22.3397,-16.339,75.4655,8612.53,-1564.8,1299.48,9.81713,-0.821803,24.9472
3.8705,12520.3,-2108.78,11601.3,-50.5871,327.318,168.316,4932.09,583.467,8825.37,-31.3962,-3.40218,11.324,395.238,15912.8,-675.37,54.5342,167.404,337.139,-2583.23,-10194.1,-1521.66,-5.51766,-13.8291,48.2769,-5932.05,3424.8,879.897,8.16147,-71.3624,96.3037,-97.9394,-10195.5,-706.303,-22.4271,-16.5569,75.5736,8606.23,-1578.33,1293.84,9.8236,-0.990137,24.9484
3.871,12544.3,-2161.45,11623.4,-48.8444,326.492,169.914,4947.55,586.758,8837.39,-31.1993,-3.6442,11.2537,372.445,16017.6,-690.634,54.4746,169.858,336.903,-2592.48,-10198.8,-1510.77,-5.56795,-13.8505,48.2962,-6060.7,3446.77,848.349,9.60793,-72.0458,95.6971,-100.522,-10213.0,-685.803,-22.5144,-16.7748,75.6818,8599.92,-1591.87,1288.19,9.83008,-1.15847,24.9496
3.8715,12577.1,-2198.54,11660.0,-46.8656,325.457,171.553,4950.52,576.491,8847.58,-31.1332,-3.81269,11.1929,330.39,16138.8,-711.418,54.3541,172.238,336.668,-2592.05,-10194.1,-1507.15,-5.68803,-13.8628,48.3571,-6167.98,3498.61,781.533,10.9212,-71.4832,95.0725,-85.2078,-10222.2,-667.494,-22.5774,-16.9342,75.767,8585.08,-1598.34,1290.04,9.84513,-1.39764,24.9987
3.872,12612.4,-2231.18,11700.7,-44.8193,324.363,173.204,4949.91,562.349,8857.24,-31.1045,-3.96017,11.1348,282.832,16264.6,-733.78,54.2161,174.597,336.434,-2588.87,-10186.6,-1505.61,-5.82805,-13.8726,48.4299,-6269.15,3558.97,704.64,12.1965,-70.5646,94.4427,-64.7802,-10229.0,-649.811,-22.6335,-17.0768,75.8457,8567.81,-1602.79,1294.04,9.86264,-1.65705,25.0614
3.8725,12647.7,-2263.81,11741.4,-42.773,323.269,174.855,4949.3,548.208,8866.9,-31.0758,-4.10765,11.0767,235.273,16390.4,-756.142,54.0781,176.957,336.2,-2585.68,-10179.1,-1504.07,-5.96807,-13.8824,48.5027,-6370.32,3619.34,627.747,13.4717,-69.646,93.8129,-44.3526,-10235.9,-632.128,-22.6895,-17.2194,75.9244,8550.53,-1607.25,1298.04,9.88014,-1.91647,25.1241
3.873,12683.0,-2296.45,11782.2,-40.7266,322.176,176.505,4948.69,534.067,8876.57,-31.0471,-4.25513,11.0186,187.715,16516.2,-778.503,53.94,179.316,335.966,-2582.49,-10171.7,-1502.54,-6.10809,-13.8922,48.5755,-6471.49,3679.7,550.854,14.747,-68.7274,93.1832,-23.925,-10242.7,-614.445,-22.7456,-17.362,76.0031,8533.25,-1611.7,1302.04,9.89764,-2.17588,25.1868
3.8735,12718.3,-2329.09,11822.9,-38.6803,321.082,178.156,4948.09,519.926,8886.23,-31.0184,-4.40261,10.9605,140.156,16642.0,-800.865,53.802,181.675,335.732,-2579.31,-10164.2,-1501.0,-6.24811,-13.902,48.6483,-6572.66,3740.07,473.961,16.0223,-67.8088,92.5534,-3.49739,-10249.6,-596.762,-22.8016,-17.5045,76.0819,8515.97,-1616.16,1306.03,9.91515,-2.43529,25.2495
3.874,12753.6,-2361.73,11863.6,-36.634,319.988,179.807,4947.48,505.784,8895.89,-30.9897,-4.5501,10.9025,92.5981,16767.8,-823.227,53.664,184.035,335.498,-2576.12,-10156.7,-1499.46,-6.38812,-13.9118,48.7211,-6673.83,3800.43,397.068,17.2975,-66.8902,91.9237,16.9302,-10256.4,-579.079,-22.8577,-17.6471,76.1606,8498.69,-1620.61,1310.03,9.93265,-2.6947,25.3122
3.8745,12788.8,-2394.37,11904.3,-34.5877,318.894,181.458,4946.87,491.643,8905.55,-30.961,-4.69758,10.8444,45.0397,16893.6,-845.588,53.526,186.394,335.264,-2572.93,-10149.2,-1497.92,-6.52814,-13.9216,48.7939,-6775.0,3860.8,320.175,18.5728,-65.9716,91.2939,37.3578,-10263.3,-561.396,-22.9137,-17.7897,76.2393,8481.41,-1625.06,1314.03,9.95015,-2.95411,25.3749
3.875,12824.1,-2427.01,11945.0,-32.5414,317.8,183.108,4946.27,477.502,8915.21,-30.9323,-4.84506,10.7863,-2.51867,17019.4,-867.95,53.388,188.753,335.03,-2569.75,-10141.8,-1496.39,-6.66816,-13.9314,48.8667,-6876.17,3921.16,243.282,19.848,-65.053,90.6641,57.7854,-10270.1,-543.714,-22.9698,-17.9323,76.318,8464.13,-1629.52,1318.03,9.96766,-3.21352,25.4377
3.8755,12859.4,-2459.64,11985.7,-30.495,316.706,184.759,4945.66,463.36,8924.88,-30.9036,-4.99254,10.7282,-50.077,17145.2,-890.312,53.25,191.112,334.796,-2566.56,-10134.3,-1494.85,-6.80818,-13.9412,48.9395,-6977.34,3981.52,166.389,21.1233,-64.1344,90.0344,78.213,-10276.9,-526.031,-23.0258,-18.0749,76.3967,8446.85,-1633.97,1322.02,9.98516,-3.47294,25.5004
3.876,12913.4,-2450.21,12034.8,-28.3138,315.363,186.538,4938.79,438.008,8918.08,-30.7356,-5.22286,10.7312,-125.808,17285.0,-915.714,52.8859,193.124,334.585,-2567.67,-10124.2,-1492.49,-6.9233,-13.995,49.0486,-7040.29,4049.7,116.623,22.2632,-61.0744,89.3335,94.5201,-10283.6,-499.528,-23.0172,-18.19,76.4196,8414.71,-1645.71,1324.55,10.0046,-3.75362,25.4318
3.8765,12969.7,-2435.52,12084.9,-26.1157,313.988,188.334,4931.14,411.254,8909.22,-30.5502,-5.46354,10.7417,-205.061,17426.6,-941.497,52.4935,195.093,334.376,-2569.32,-10113.7,-1490.02,-7.03531,-14.0544,49.1622,-7098.46,4118.85,70.2477,23.3861,-57.7468,88.6238,110.312,-10290.2,-471.923,-23.0006,-18.3016,76.4356,8380.71,-1658.37,1326.9,10.0243,-4.03697,25.3467
3.877,13026.1,-2420.83,12135.0,-23.9175,312.613,190.129,4923.5,384.5,8900.37,-30.3649,-5.70422,10.7523,-284.314,17568.1,-967.279,52.1011,197.061,334.167,-2570.97,-10103.3,-1487.56,-7.14732,-14.1138,49.2758,-7156.63,4188.0,23.8726,24.5091,-54.4192,87.9141,126.104,-10296.8,-444.319,-22.9839,-18.4132,76.4515,8346.71,-1671.02,1329.25,10.044,-4.32031,25.2617
3.8775,13082.4,-2406.13,12185.1,-21.7194,311.238,191.924,4915.85,357.746,8891.52,-30.1795,-5.9449,10.7628,-363.566,17709.7,-993.062,51.7087,199.03,333.958,-2572.62,-10092.9,-1485.1,-7.25933,-14.1732,49.3894,-7214.8,4257.15,-22.5025,25.6321,-51.0916,87.2044,141.896,-10303.4,-416.714,-22.9672,-18.5248,76.4675,8312.72,-1683.67,1331.59,10.0636,-4.60366,25.1766
3.878,13138.7,-2391.44,12235.2,-19.5213,309.864,193.72,4908.2,330.992,8882.66,-29.9941,-6.18557,10.7734,-442.819,17851.2,-1018.84,51.3163,200.998,333.749,-2574.27,-10082.4,-1482.63,-7.37134,-14.2326,49.503,-7272.98,4326.31,-68.8776,26.755,-47.764,86.4947,157.689,-10310.0,-389.109,-22.9506,-18.6364,76.4834,8278.72,-1696.33,1333.94,10.0833,-4.88701,25.0916
3.8785,13195.1,-2376.75,12285.4,-17.3232,308.489,195.515,4900.55,304.238,8873.81,-29.8087,-6.42625,10.784,-522.072,17992.8,-1044.63,50.9239,202.966,333.54,-2575.92,-10072.0,-1480.17,-7.48335,-14.292,49.6166,-7331.15,4395.46,-115.253,27.878,-44.4364,85.785,173.481,-10316.7,-361.504,-22.9339,-18.748,76.4994,8244.72,-1708.98,1336.28,10.103,-5.17035,25.0065
3.879,13251.4,-2362.06,12335.5,-15.1251,307.114,197.31,4892.9,277.484,8864.95,-29.6233,-6.66693,10.7945,-601.324,18134.3,-1070.41,50.5315,204.935,333.331,-2577.57,-10061.5,-1477.71,-7.59536,-14.3514,49.7302,-7389.32,4464.61,-161.628,29.001,-41.1087,85.0753,189.273,-10323.3,-333.899,-22.9172,-18.8596,76.5153,8210.73,-1721.63,1338.63,10.1227,-5.4537,24.9215
3.8795,13307.7,-2347.37,12385.6,-12.9269,305.74,199.106,4885.26,250.73,8856.1,-29.4379,-6.90761,10.8051,-680.577,18275.9,-1096.19,50.1391,206.903,333.122,-2579.22,-10051.1,-1475.24,-7.70737,-14.4108,49.8438,-7447.5,4533.76,-208.003,30.1239,-37.7811,84.3656,205.065,-10329.9,-306.294,-22.9006,-18.9712,76.5313,8176.73,-1734.28,1340.98,10.1424,-5.73704,24.8364
3.88,13364.1,-2332.67,12435.7,-10.7288,304.365,200.901,4877.61,223.976,8847.25,-29.2526,-7.14828,10.8156,-759.83,18417.4,-1121.97,49.7467,208.872,332.913,-2580.87,-10040.7,-1472.78,-7.81938,-14.4702,49.9574,-7505.67,4602.91,-254.378,31.2469,-34.4535,83.6559,220.857,-10336.5,-278.689,-22.8839,-19.0828,76.5472,8142.73,-1746.94,1343.32,10.162,-6.02039,24.7514
3.8805,13418.4,-2253.41,12461.6,-8.9381,302.871,202.677,4866.54,206.983,8820.04,-28.5248,-7.39398,10.6702,-872.913,18551.3,-1167.72,49.2454,210.441,332.652,-2577.45,-10041.6,-1466.68,-7.91601,-14.5175,50.0221,-7511.09,4676.1,-229.793,31.9279,-29.0254,82.9976,222.936,-10346.9,-264.561,-22.9451,-19.1185,76.5995,8112.63,-1751.49,1330.2,10.1594,-6.23434,24.6746
3.881,13472.7,-2174.15,12487.4,-7.14739,301.377,204.453,4855.47,189.991,8792.84,-27.7971,-7.63967,10.5248,-985.997,18685.2,-1213.47,48.7441,212.009,332.391,-2574.04,-10042.5,-1460.59,-8.01264,-14.5648,50.0869,-7516.5,4749.3,-205.207,32.6089,-23.5973,82.3393,225.015,-10357.3,-250.432,-23.0064,-19.1542,76.6517,8082.52,-1756.05,1317.07,10.1567,-6.44829,24.5978
3.8815,13527.1,-2094.89,12513.2,-5.35668,299.883,206.229,4844.4,172.998,8765.64,-27.0694,-7.88536,10.3794,-1099.08,18819.1,-1259.22,48.2429,213.578,332.13,-2570.63,-10043.4,-1454.49,-8.10928,-14.6121,50.1516,-7521.92,4822.49,-180.622,33.2898,-18.1691,81.681,227.094,-10367.7,-236.303,-23.0676,-19.1899,76.7039,8052.41,-1760.6,1303.94,10.154,-6.66224,24.521
3.882,13581.4,-2015.63,12539.1,-3.56597,298.389,208.006,4833.33,156.006,8738.44,-26.3417,-8.13105,10.2339,-1212.16,18953.0,-1304.97,47.7416,215.147,331.869,-2567.21,-10044.3,-1448.4,-8.20591,-14.6594,50.2163,-7527.34,4895.68,-156.037,33.9708,-12.741,81.0228,229.173,-10378.2,-222.175,-23.1288,-19.2256,76.7562,8022.3,-1765.15,1290.82,10.1513,-6.8762,24.4442
3.8825,13635.8,-1936.37,12564.9,-1.77525,296.895,209.782,4822.26,139.013,8711.24,-25.614,-8.37675,10.0885,-1325.25,19086.9,-1350.72,47.2403,216.716,331.608,-2563.8,-10045.1,-1442.3,-8.30254,-14.7067,50.281,-7532.76,4968.88,-131.451,34.6518,-7.31286,80.3645,231.252,-10388.6,-208.046,-23.1901,-19.2613,76.8084,7992.2,-1769.71,1277.69,10.1486,-7.09015,24.3673
3.883,13690.1,-1857.11,12590.7,0.0154569,295.402,211.558,4811.19,122.021,8684.03,-24.8862,-8.62244,9.94308,-1438.33,19220.8,-1396.47,46.7391,218.285,331.347,-2560.38,-10046.0,-1436.2,-8.39918,-14.754,50.3458,-7538.17,5042.07,-106.866,35.3328,-1.88472,79.7062,233.331,-10399.0,-193.917,-23.2513,-19.2969,76.8606,7962.09,-1774.26,1264.57,10.1459,-7.3041,24.2905
3.8835,13744.4,-1777.85,12616.6,1.80617,293.908,213.334,4800.12,105.028,8656.83,-24.1585,-8.86813,9.79766,-1551.42,19354.6,-1442.22,46.2378,219.853,331.086,-2556.97,-10046.9,-1430.11,-8.49581,-14.8013,50.4105,-7543.59,5115.26,-82.2809,36.0138,3.54341,79.048,235.41,-10409.4,-179.789,-23.3125,-19.3326,76.9129,7931.98,-1778.82,1251.44,10.1432,-7.51805,24.2137
3.884,13798.8,-1698.58,12642.4,3.59688,292.414,215.11,4789.05,88.0358,8629.63,-23.4308,-9.11382,9.65223,-1664.5,19488.5,-1487.97,45.7365,221.422,330.825,-2553.55,-10047.8,-1424.01,-8.59244,-14.8486,50.4752,-7549.01,5188.45,-57.6956,36.6947,8.97155,78.3897,237.489,-10419.8,-165.66,-23.3737,-19.3683,76.9651,7901.88,-1783.37,1238.32,10.1405,-7.732,24.1369
3.8845,13852.2,-1608.93,12671.9,5.3148,290.9,216.877,4779.27,73.6008,8607.48,-22.6929,-9.36514,9.52325,-1783.78,19619.7,-1528.29,45.2112,222.917,330.561,-2549.44,-10049.4,-1417.85,-8.70194,-14.8991,50.546,-7549.73,5261.0,-26.4319,37.3226,14.4875,77.74,242.359,-10428.5,-151.786,-23.4412,-19.4054,77.0079,7873.67,-1787.15,1226.76,10.1393,-7.94983,24.0437
3.885,13898.6,-1436.15,12730.4,6.4504,289.231,218.568,4779.75,79.6265,8625.76,-21.8733,-9.6615,9.52579,-1952.67,19729.5,-1525.15,44.4933,223.824,330.266,-2539.76,-10056.8,-1411.22,-8.91431,-14.9749,50.6656,-7512.86,5328.36,58.2588,37.5254,20.7064,77.1585,269.558,-10423.2,-139.949,-23.5581,-19.4537,76.9754,7860.69,-1784.74,1227.78,10.1502,-8.19866,23.8196
3.8855,13945.0,-1263.37,12788.9,7.58599,287.561,220.26,4780.24,85.6521,8644.03,-21.0538,-9.95785,9.52834,-2121.55,19839.2,-1522.01,43.7754,224.73,329.972,-2530.08,-10064.1,-1404.58,-9.12668,-15.0508,50.7853,-7476.0,5395.73,142.949,37.7282,26.9252,76.577,296.756,-10417.9,-128.112,-23.6751,-19.502,76.9428,7847.71,-1782.32,1228.81,10.1611,-8.44748,23.5955
3.886,13991.4,-1090.59,12847.4,8.72159,285.891,221.952,4780.72,91.6777,8662.31,-20.2342,-10.2542,9.53089,-2290.44,19948.9,-1518.87,43.0575,225.637,329.677,-2520.4,-10071.4,-1397.94,-9.33905,-15.1266,50.9049,-7439.13,5463.09,227.64,37.931,33.1441,75.9955,323.955,-10412.6,-116.275,-23.7921,-19.5503,76.9103,7834.74,-1779.91,1229.83,10.1721,-8.69631,23.3714
3.8865,14037.7,-917.81,12905.9,9.85718,284.222,223.643,4781.21,97.7034,8680.59,-19.4146,-10.5506,9.53343,-2459.33,20058.7,-1515.73,42.3396,226.543,329.382,-2510.72,-10078.7,-1391.31,-9.55142,-15.2025,51.0245,-7402.27,5530.46,312.331,38.1338,39.3629,75.4141,351.154,-10407.3,-104.438,-23.9091,-19.5986,76.8777,7821.76,-1777.49,1230.85,10.183,-8.94514,23.1472
3.887,14084.1,-745.029,12964.4,10.9928,282.552,225.335,4781.7,103.729,8698.87,-18.5951,-10.8469,9.53598,-2628.21,20168.4,-1512.59,41.6216,227.449,329.088,-2501.04,-10086.1,-1384.67,-9.76379,-15.2784,51.1442,-7365.4,5597.82,397.021,38.3366,45.5818,74.8326,378.353,-10402.0,-92.6013,-24.026,-19.6469,76.8451,7808.78,-1775.08,1231.87,10.1939,-9.19397,22.9231
3.8875,14130.5,-572.248,13022.9,12.1284,280.882,227.027,4782.18,109.755,8717.14,-17.7755,-11.1433,9.53852,-2797.1,20278.2,-1509.45,40.9037,228.356,328.793,-2491.36,-10093.4,-1378.03,-9.97616,-15.3542,51.2638,-7328.54,5665.18,481.712,38.5394,51.8006,74.2511,405.551,-10396.7,-80.7644,-24.143,-19.6951,76.8126,7795.8,-1772.66,1232.9,10.2048,-9.4428,22.699
3.888,14176.9,-399.467,13081.4,13.264,279.212,228.718,4782.67,115.78,8735.42,-16.9559,-11.4396,9.54107,-2965.98,20387.9,-1506.31,40.1858,229.262,328.499,-2481.68,-10100.7,-1371.4,-10.1885,-15.4301,51.3834,-7291.67,5732.55,566.403,38.7422,58.0195,73.6697,432.75,-10391.4,-68.9275,-24.26,-19.7434,76.78,7782.82,-1770.25,1233.92,10.2157,-9.69163,22.4749
3.8885,14223.2,-226.686,13139.9,14.3996,277.543,230.41,4783.15,121.806,8753.7,-16.1364,-11.736,9.54362,-3134.87,20497.6,-1503.18,39.4679,230.169,328.204,-2472.0,-10108.0,-1364.76,-10.4009,-15.5059,51.503,-7254.81,5799.91,651.094,38.945,64.2383,73.0882,459.949,-10386.1,-57.0905,-24.3769,-19.7917,76.7474,7769.84,-1767.83,1234.94,10.2266,-9.94045,22.2508
3.889,14275.4,-32.8057,13194.3,15.3905,275.876,232.089,4785.56,124.643,8774.75,-15.39,-12.0354,9.54095,-3309.37,20609.5,-1484.88,38.7005,230.865,327.923,-2466.34,-10116.0,-1360.37,-10.5961,-15.5881,51.6271,-7220.41,5864.76,736.787,39.1565,70.2263,72.4981,482.211,-10383.2,-47.8634,-24.4832,-19.8501,76.7205,7758.28,-1767.33,1235.32,10.2074,-10.1763,22.0424
3.8895,14347.8,234.925,13234.3,15.8749,274.217,233.725,4794.71,116.317,8805.52,-14.8999,-12.3458,9.52005,-3503.5,20729.0,-1413.53,37.7599,230.829,327.687,-2474.72,-10126.4,-1363.83,-10.7313,-15.6925,51.7665,-7194.64,5920.8,825.993,39.3984,75.4061,71.8777,487.194,-10388.8,-47.7705,-24.552,-19.9439,76.713,7751.72,-1773.52,1233.46,10.0827,-10.3668,21.889
3.89,14420.2,502.656,13274.3,16.3593,272.559,235.361,4803.85,107.992,8836.3,-14.4097,-12.6562,9.49914,-3697.64,20848.5,-1342.18,36.8194,230.792,327.452,-2483.11,-10136.9,-1367.29,-10.8665,-15.7969,51.906,-7168.88,5976.84,915.198,39.6403,80.5859,71.2573,492.178,-10394.3,-47.6777,-24.6207,-20.0376,76.7056,7745.16,-1779.71,1231.6,9.95801,-10.5572,21.7356
3.8905,14492.6,770.387,13314.3,16.8437,270.901,236.997,4813.0,99.6674,8867.07,-13.9196,-12.9666,9.47824,-3891.77,20967.9,-1270.83,35.8788,230.755,327.217,-2491.49,-10147.3,-1370.75,-11.0017,-15.9013,52.0455,-7143.11,6032.88,1004.4,39.8822,85.7658,70.637,497.162,-10399.9,-47.5848,-24.6895,-20.1314,76.6981,7738.6,-1785.9,1229.74,9.83331,-10.7477,21.5822
3.891,14565.0,1038.12,13354.3,17.3281,269.243,238.633,4822.14,91.3423,8897.85,-13.4294,-13.277,9.45733,-4085.91,21087.4,-1199.48,34.9382,230.719,326.981,-2499.87,-10157.7,-1374.22,-11.1369,-16.0057,52.1849,-7117.35,6088.93,1093.61,40.1241,90.9456,70.0166,502.145,-10405.5,-47.492,-24.7583,-20.2251,76.6907,7732.03,-1792.09,1227.87,9.70861,-10.9381,21.4288
3.8915,14637.4,1305.85,13394.2,17.8125,267.585,240.269,4831.28,83.0173,8928.62,-12.9393,-13.5874,9.43643,-4280.05,21206.8,-1128.13,33.9976,230.682,326.746,-2508.25,-10168.1,-1377.68,-11.272,-16.1101,52.3244,-7091.58,6144.97,1182.81,40.366,96.1254,69.3962,507.129,-10411.0,-47.3991,-24.827,-20.3188,76.6832,7725.47,-1798.28,1226.01,9.58391,-11.1286,21.2754
3.892,14709.8,1573.58,13434.2,18.2969,265.927,241.905,4840.43,74.6922,8959.39,-12.4492,-13.8978,9.41552,-4474.18,21326.3,-1056.78,33.0571,230.646,326.51,-2516.64,-10178.5,-1381.14,-11.4072,-16.2145,52.4638,-7065.82,6201.01,1272.02,40.6079,101.305,68.7758,512.112,-10416.6,-47.3062,-24.8958,-20.4126,76.6758,7718.91,-1804.47,1224.15,9.45921,-11.319,21.122
3.8925,14782.2,1841.31,13474.2,18.7813,264.269,243.541,4849.57,66.3671,8990.17,-11.959,-14.2082,9.39462,-4668.32,21445.8,-985.432,32.1165,230.609,326.275,-2525.02,-10188.9,-1384.6,-11.5424,-16.3189,52.6033,-7040.05,6257.05,1361.22,40.8498,106.485,68.1555,517.096,-10422.2,-47.2134,-24.9645,-20.5063,76.6683,7712.35,-1810.66,1222.29,9.33451,-11.5095,20.9687
3.893,14854.6,2109.04,13514.2,19.2657,262.61,245.176,4858.72,58.0421,9020.94,-11.4689,-14.5185,9.37372,-4862.45,21565.2,-914.082,31.1759,230.572,326.039,-2533.4,-10199.3,-1388.07,-11.6776,-16.4234,52.7427,-7014.29,6313.09,1450.43,41.0918,111.665,67.5351,522.079,-10427.7,-47.1205,-25.0333,-20.6001,76.6609,7705.78,-1816.84,1220.42,9.20981,-11.6999,20.8153
3.8935,14941.4,2354.94,13523.5,19.5224,261.044,246.672,4866.39,55.8685,9046.07,-11.0492,-14.8509,9.33049,-5054.94,21682.4,-850.333,30.1696,230.309,325.806,-2541.47,-10214.2,-1389.84,-11.7795,-16.5268,52.8648,-6991.11,6362.36,1513.19,41.3855,116.084,66.7859,526.855,-10436.5,-48.1134,-25.1407,-20.7247,76.6301,7699.73,-1821.76,1223.38,9.09437,-11.885,20.6342
3.894,15057.1,2557.16,13471.6,19.3237,259.663,247.887,4871.1,65.9978,9059.91,-10.7703,-15.2271,9.24264,-5244.13,21795.0,-801.784,29.0317,229.593,325.576,-2548.91,-10238.1,-1388.23,-11.8147,-16.6284,52.9523,-6973.1,6398.07,1523.06,41.7828,118.98,65.7792,531.216,-10451.8,-51.2778,-25.3254,-20.9112,76.5529,7694.7,-1824.11,1235.97,8.99746,-12.0593,20.3979
3.8945,15172.8,2759.39,13419.7,19.125,258.281,249.102,4875.82,76.1271,9073.76,-10.4915,-15.6032,9.15479,-5433.32,21907.6,-753.235,27.8939,228.877,325.347,-2556.35,-10262.0,-1386.62,-11.85,-16.73,53.0397,-6955.1,6433.78,1532.92,42.1801,121.877,64.7724,535.577,-10467.1,-54.4422,-25.51,-21.0976,76.4757,7689.67,-1826.47,1248.57,8.90054,-12.2336,20.1615
3.895,15288.4,2961.61,13367.7,18.9263,256.9,250.317,4880.54,86.2564,9087.6,-10.2126,-15.9794,9.06694,-5622.51,22020.2,-704.686,26.7561,228.161,325.117,-2563.78,-10285.9,-1385.01,-11.8852,-16.8317,53.1271,-6937.1,6469.49,1542.79,42.5774,124.774,63.7656,539.938,-10482.4,-57.6066,-25.6947,-21.2841,76.3985,7684.63,-1828.83,1261.16,8.80362,-12.4079,19.9252
3.8955,15404.1,3163.83,13315.8,18.7276,255.518,251.532,4885.26,96.3858,9101.44,-9.93378,-16.3556,8.97909,-5811.7,22132.7,-656.137,25.6183,227.446,324.888,-2571.22,-10309.8,-1383.4,-11.9205,-16.9333,53.2146,-6919.09,6505.2,1552.66,42.9747,127.671,62.7588,544.298,-10497.7,-60.771,-25.8793,-21.4706,76.3212,7679.6,-1831.19,1273.75,8.7067,-12.5822,19.6888
3.896,15519.8,3366.06,13263.9,18.5289,254.136,252.747,4889.98,106.515,9115.29,-9.65493,-16.7318,8.89123,-6000.88,22245.3,-607.588,24.4804,226.73,324.658,-2578.66,-10333.7,-1381.79,-11.9557,-17.0349,53.302,-6901.09,6540.91,1562.52,43.372,130.567,61.752,548.659,-10513.0,-63.9354,-26.064,-21.657,76.244,7674.57,-1833.55,1286.34,8.60978,-12.7565,19.4525
3.8965,15635.5,3568.28,13212.0,18.3302,252.755,253.962,4894.7,116.644,9129.13,-9.37609,-17.108,8.80338,-6190.07,22357.9,-559.039,23.3426,226.014,324.429,-2586.1,-10357.6,-1380.18,-11.991,-17.1365,53.3894,-6883.08,6576.62,1572.39,43.7693,133.464,60.7453,553.02,-10528.3,-67.0998,-26.2486,-21.8435,76.1668,7669.54,-1835.91,1298.94,8.51286,-12.9308,19.2161
3.897,15751.2,3770.51,13160.0,18.1315,251.373,255.177,4899.42,126.774,9142.97,-9.09724,-17.4842,8.71553,-6379.26,22470.5,-510.49,22.2048,225.298,324.199,-2593.54,-10381.5,-1378.57,-12.0262,-17.2381,53.4769,-6865.08,6612.33,1582.25,44.1666,136.361,59.7385,557.381,-10543.6,-70.2642,-26.4333,-22.0299,76.0896,7664.5,-1838.26,1311.53,8.41594,-13.1051,18.9798
3.8975,15866.8,3972.73,13108.1,17.9328,249.991,256.392,4904.14,136.903,9156.81,-8.8184,-17.8604,8.62768,-6568.45,22583.1,-461.941,21.0669,224.582,323.97,-2600.97,-10405.4,-1376.96,-12.0615,-17.3397,53.5643,-6847.08,6648.04,1592.12,44.5639,139.257,58.7317,561.742,-10558.9,-73.4286,-26.618,-22.2164,76.0123,7659.47,-1840.62,1324.12,8.31903,-13.2794,18.7434
3.898,16002.8,4093.08,13053.1,17.7329,248.713,257.333,4901.84,142.039,9167.65,-8.61773,-18.1905,8.56562,-6734.75,22674.4,-423.183,19.7991,223.757,323.697,-2610.99,-10429.3,-1373.3,-12.1199,-17.4544,53.674,-6821.09,6688.77,1547.58,44.7053,141.268,57.6135,563.332,-10576.7,-84.0772,-26.7536,-22.4844,75.9894,7651.48,-1849.12,1326.67,8.22235,-13.4835,18.5011
3.8985,16164.2,4111.09,12994.2,17.5315,247.564,257.931,4890.78,140.934,9174.72,-8.51478,-18.4631,8.5358,-6872.44,22739.2,-396.664,18.3688,222.795,323.369,-2624.23,-10453.2,-1367.08,-12.2072,-17.5855,53.8116,-6785.14,6735.76,1435.03,44.5269,142.171,56.3559,561.459,-10597.4,-104.081,-26.8279,-22.8544,76.0343,7639.8,-1865.28,1316.67,8.12597,-13.7249,18.2513
3.899,16325.6,4129.1,12935.4,17.33,246.415,258.53,4879.72,139.829,9181.8,-8.41183,-18.7357,8.50598,-7010.13,22804.0,-370.144,16.9385,221.834,323.042,-2637.47,-10477.1,-1360.87,-12.2946,-17.7166,53.9492,-6749.19,6782.75,1322.48,44.3485,143.073,55.0983,559.585,-10618.2,-124.085,-26.9022,-23.2245,76.0792,7628.12,-1881.45,1306.67,8.0296,-13.9662,18.0015
3.8995,16487.0,4147.11,12876.5,17.1286,245.266,259.129,4868.65,138.723,9188.87,-8.30888,-19.0083,8.47617,-7147.82,22868.8,-343.625,15.5082,220.872,322.714,-2650.71,-10501.1,-1354.65,-12.382,-17.8476,54.0868,-6713.23,6829.73,1209.93,44.1701,143.976,53.8407,557.712,-10638.9,-144.089,-26.9765,-23.5945,76.1241,7616.44,-1897.61,1296.66,7.93323,-14.2076,17.7517
3.9,16648.4,4165.12,12817.7,16.9272,244.116,259.727,4857.59,137.618,9195.95,-8.20593,-19.2808,8.44635,-7285.51,22933.6,-317.105,14.0778,219.911,322.386,-2663.95,-10525.0,-1348.44,-12.4693,-17.9787,54.2244,-6677.28,6876.72,1097.37,43.9917,144.879,52.5831,555.839,-10659.7,-164.093,-27.0508,-23.9645,76.1689,7604.76,-1913.78,1286.66,7.83685,-14.449,17.5019
3.9005,16809.8,4183.13,12758.8,16.7258,242.967,260.326,4846.53,136.513,9203.02,-8.10298,-19.5534,8.41653,-7423.21,22998.4,-290.586,12.6475,218.949,322.059,-2677.18,-10548.9,-1342.22,-12.5567,-18.1098,54.362,-6641.33,6923.71,984.823,43.8133,145.781,51.3256,553.966,-10680.4,-184.097,-27.1251,-24.3346,76.2138,7593.08,-1929.94,1276.66,7.74048,-14.6903,17.2521
3.901,16971.2,4201.13,12700.0,16.5243,241.818,260.925,4835.46,135.408,9210.1,-8.00003,-19.826,8.38671,-7560.9,23063.2,-264.067,11.2172,217.988,321.731,-2690.42,-10572.8,-1336.01,-12.644,-18.2409,54.4996,-6605.38,6970.7,872.271,43.6349,146.684,50.068,552.093,-10701.2,-204.101,-27.1994,-24.7046,76.2587,7581.39,-1946.11,1266.66,7.6441,-14.9317,17.0024
3.9015,17132.6,4219.14,12641.1,16.3229,240.669,261.523,4824.4,134.302,9217.17,-7.89708,-20.0986,8.3569,-7698.59,23128.0,-237.547,9.78689,217.027,321.404,-2703.66,-10596.7,-1329.79,-12.7314,-18.3719,54.6372,-6569.42,7017.69,759.72,43.4566,147.587,48.8104,550.22,-10721.9,-224.105,-27.2737,-25.0746,76.3036,7569.71,-1962.27,1256.65,7.54773,-15.1731,16.7526
3.902,17294.0,4237.15,12582.3,16.1215,239.52,262.122,4813.34,133.197,9224.25,-7.79413,-20.3711,8.32708,-7836.28,23192.8,-211.028,8.35657,216.065,321.076,-2716.9,-10620.6,-1323.58,-12.8187,-18.503,54.7748,-6533.47,7064.68,647.169,43.2782,148.489,47.5528,548.346,-10742.7,-244.108,-27.348,-25.4447,76.3485,7558.03,-1978.44,1246.65,7.45136,-15.4144,16.5028
3.9025,17463.8,4214.82,12554.6,16.3424,238.548,262.387,4804.22,113.823,9224.86,-7.24143,-20.8312,8.36224,-7950.25,23238.3,-197.841,6.84383,215.129,320.654,-2722.69,-10653.5,-1325.04,-12.9524,-18.7003,54.873,-6480.32,7114.5,511.383,42.6231,148.814,46.4601,546.616,-10762.2,-263.927,-27.3378,-25.8084,76.3245,7548.06,-1989.61,1239.03,7.43437,-15.6744,16.2322
3.903,17640.3,4160.22,12551.7,16.9013,237.718,262.386,4796.66,79.8338,9220.31,-6.32893,-21.4413,8.44939,-8045.23,23268.3,-195.32,5.26516,214.213,320.155,-2722.52,-10693.6,-1332.65,-13.1232,-18.9504,54.9396,-6413.42,7166.59,357.009,41.5867,148.678,45.4994,545.001,-10780.7,-283.596,-27.2602,-26.167,76.2454,7539.46,-1996.8,1233.32,7.4809,-15.9491,15.9449
3.9035,17816.9,4105.61,12548.9,17.4601,236.889,262.384,4789.1,45.8445,9215.76,-5.41644,-22.0513,8.53653,-8140.23,23298.3,-192.8,3.68648,213.298,319.657,-2722.34,-10733.7,-1340.26,-13.294,-19.2006,55.0062,-6346.52,7218.68,202.635,40.5503,148.541,44.5387,543.385,-10799.2,-303.266,-27.1826,-26.5256,76.1663,7530.86,-2003.98,1227.6,7.52743,-16.2239,15.6576
3.904,17993.4,4051.01,12546.0,18.019,236.059,262.383,4781.54,11.8553,9211.21,-4.50394,-22.6614,8.62368,-8235.22,23328.2,-190.279,2.10781,212.382,319.159,-2722.17,-10773.8,-1347.88,-13.4647,-19.4508,55.0728,-6279.62,7270.77,48.2616,39.5139,148.404,43.5779,541.77,-10817.7,-322.936,-27.1049,-26.8842,76.0872,7522.25,-2011.17,1221.89,7.57396,-16.4987,15.3704
3.9045,18169.9,3996.4,12543.2,18.5778,235.229,262.381,4773.99,-22.134,9206.66,-3.59145,-23.2715,8.71082,-8330.21,23358.2,-187.758,0.529132,211.467,318.661,-2722.0,-10813.9,-1355.49,-13.6355,-19.7009,55.1394,-6212.72,7322.86,-106.112,38.4775,148.267,42.6172,540.154,-10836.3,-342.606,-27.0273,-27.2428,76.008,7513.65,-2018.35,1216.17,7.62049,-16.7735,15.0831
3.905,18346.5,3941.8,12540.4,19.1367,234.4,262.38,4766.43,-56.1233,9202.11,-2.67896,-23.8815,8.79797,-8425.2,23388.2,-185.238,-1.04954,210.551,318.163,-2721.82,-10854.0,-1363.1,-13.8063,-19.9511,55.206,-6145.81,7374.95,-260.486,37.4411,148.131,41.6564,538.539,-10854.8,-362.276,-26.9496,-27.6015,75.9289,7505.05,-2025.53,1210.46,7.66702,-17.0482,14.7958
3.9055,18523.0,3887.2,12537.5,19.6955,233.57,262.379,4758.87,-90.1126,9197.56,-1.76646,-24.4916,8.88511,-8520.19,23418.2,-182.717,-2.62822,209.635,317.665,-2721.65,-10894.1,-1370.71,-13.9771,-20.2013,55.2726,-6078.91,7427.03,-414.86,36.4047,147.994,40.6957,536.923,-10873.3,-381.945,-26.872,-27.9601,75.8498,7496.45,-2032.72,1204.74,7.71355,-17.323,14.5086
3.906,18699.5,3832.59,12534.7,20.2544,232.74,262.377,4751.31,-124.102,9193.01,-0.853967,-25.1017,8.97226,-8615.18,23448.2,-180.197,-4.2069,208.72,317.167,-2721.48,-10934.2,-1378.32,-14.1478,-20.4515,55.3392,-6012.01,7479.12,-569.233,35.3683,147.857,39.735,535.308,-10891.8,-401.615,-26.7943,-28.3187,75.7707,7487.85,-2039.9,1199.03,7.76008,-17.5978,14.2213
3.9065,18876.1,3777.99,12531.8,20.8133,231.911,262.376,4743.75,-158.091,9188.46,0.0585273,-25.7117,9.0594,-8710.17,23478.2,-177.676,-5.78557,207.804,316.668,-2721.3,-10974.3,-1385.93,-14.3186,-20.7016,55.4058,-5945.11,7531.21,-723.607,34.3319,147.72,38.7742,533.692,-10910.3,-421.285,-26.7167,-28.6773,75.6916,7479.25,-2047.09,1193.31,7.80661,-17.8725,13.934
3.907,19049.9,3752.05,12531.9,21.7971,231.193,262.113,4749.31,-178.044,9149.69,1.63624,-26.475,9.05767,-8782.97,23488.1,-189.232,-7.27402,207.114,315.999,-2738.61,-10970.8,-1445.65,-14.6049,-21.1145,55.5153,-5855.94,7550.63,-847.332,33.6573,146.868,37.9958,543.081,-10921.7,-442.81,-26.6197,-29.0299,75.6402,7483.5,-2066.04,1194.75,7.80055,-18.1028,13.6229
3.9075,19222.3,3740.44,12533.4,22.9936,230.532,261.718,4761.43,-190.978,9093.83,3.54656,-27.3149,9.01151,-8844.68,23488.1,-207.825,-8.71737,206.538,315.244,-2764.66,-10945.5,-1531.43,-14.9489,-21.6086,55.6461,-5755.62,7553.71,-955.732,33.1638,145.658,37.3086,557.972,-10929.4,-465.262,-26.5131,-29.3794,75.6028,7494.18,-2090.88,1199.77,7.76819,-18.3108,13.2999
3.908,19394.7,3728.84,12535.0,24.19,229.87,261.324,4773.55,-203.912,9037.96,5.45688,-28.1548,8.96534,-8906.39,23488.1,-226.418,-10.1607,205.961,314.489,-2790.71,-10920.2,-1617.21,-15.2929,-22.1028,55.7769,-5655.31,7556.8,-1064.13,32.6702,144.448,36.6213,572.864,-10937.1,-487.714,-26.4064,-29.729,75.5653,7504.86,-2115.71,1204.79,7.73583,-18.5189,12.9769
3.9085,19567.1,3717.23,12536.5,25.3864,229.209,260.93,4785.67,-216.846,8982.09,7.36719,-28.9947,8.91918,-8968.1,23488.1,-245.012,-11.6041,205.385,313.734,-2816.76,-10894.9,-1702.98,-15.6369,-22.597,55.9078,-5555.0,7559.88,-1172.53,32.1766,143.239,35.9341,587.755,-10944.8,-510.167,-26.2998,-30.0785,75.5278,7515.54,-2140.55,1209.81,7.70348,-18.7269,12.6539
3.909,19739.5,3705.63,12538.0,26.5828,228.548,260.536,4797.79,-229.78,8926.23,9.27751,-29.8345,8.87301,-9029.81,23488.1,-263.605,-13.0474,204.808,312.979,-2842.81,-10869.6,-1788.76,-15.981,-23.0911,56.0386,-5454.69,7562.97,-1280.93,31.683,142.029,35.2468,602.646,-10952.5,-532.619,-26.1931,-30.4281,75.4903,7526.22,-2165.38,1214.83,7.67112,-18.9349,12.3308
3.9095,19911.9,3694.02,12539.6,27.7792,227.887,260.142,4809.91,-242.714,8870.36,11.1878,-30.6744,8.82685,-9091.52,23488.0,-282.199,-14.4907,204.231,312.223,-2868.86,-10844.3,-1874.53,-16.325,-23.5853,56.1695,-5354.37,7566.05,-1389.33,31.1895,140.819,34.5596,617.537,-10960.3,-555.071,-26.0865,-30.7776,75.4529,7536.9,-2190.22,1219.85,7.63876,-19.1429,12.0078
3.91,20084.4,3682.42,12541.1,28.9756,227.225,259.748,4822.03,-255.648,8814.49,13.0982,-31.5143,8.78068,-9153.23,23488.0,-300.792,-15.9341,203.655,311.468,-2894.91,-10819.0,-1960.31,-16.669,-24.0795,56.3003,-5254.06,7569.13,-1497.73,30.6959,139.609,33.8723,632.428,-10968.0,-577.523,-25.9798,-31.1272,75.4154,7547.58,-2215.06,1224.87,7.6064,-19.3509,11.6848
3.9105,20256.8,3670.81,12542.6,30.172,226.564,259.354,4834.15,-268.582,8758.63,15.0085,-32.3542,8.73451,-9214.94,23488.0,-319.385,-17.3774,203.078,310.713,-2920.96,-10793.7,-2046.09,-17.013,-24.5736,56.4311,-5153.75,7572.22,-1606.13,30.2023,138.399,33.1851,647.32,-10975.7,-599.976,-25.8732,-31.4767,75.3779,7558.25,-2239.89,1229.88,7.57405,-19.5589,11.3618
3.911,20429.2,3659.21,12544.2,31.3684,225.903,258.96,4846.27,-281.516,8702.76,16.9188,-33.1941,8.68835,-9276.65,23488.0,-337.979,-18.8208,202.502,309.958,-2947.01,-10768.4,-2131.86,-17.3571,-25.0678,56.562,-5053.44,7575.3,-1714.53,29.7087,137.189,32.4978,662.211,-10983.4,-622.428,-25.7665,-31.8263,75.3405,7568.93,-2264.73,1234.9,7.54169,-19.767,11.0388
3.9115,20600.4,3693.61,12508.7,32.6993,225.415,258.422,4888.28,-106.504,8679.14,18.1913,-33.552,8.92714,-9318.81,23464.5,-378.195,-20.0587,202.183,309.031,-2958.47,-10722.3,-2215.31,-17.6987,-25.6136,56.7369,-4946.14,7517.73,-1762.79,30.6264,134.584,31.6946,660.779,-10985.1,-652.112,-25.5174,-32.0574,75.3198,7568.17,-2285.15,1221.55,7.5618,-20.0145,10.6686
3.912,20771.3,3741.17,12462.7,34.0687,224.978,257.844,4938.82,122.207,8664.72,19.2815,-33.7721,9.24736,-9355.4,23434.3,-424.589,-21.238,201.938,308.055,-2965.76,-10670.2,-2298.08,-18.0397,-26.1741,56.9245,-4836.86,7442.82,-1793.87,31.9473,131.581,30.8583,654.685,-10985.1,-683.863,-25.2275,-32.2548,75.304,7564.13,-2304.3,1202.96,7.59689,-20.2732,10.2849
3.9125,20942.2,3788.72,12416.7,35.438,224.54,257.266,4989.37,350.918,8650.31,20.3717,-33.9923,9.56757,-9391.98,23404.1,-470.983,-22.4173,201.693,307.079,-2973.05,-10618.1,-2380.86,-18.3807,-26.7347,57.1121,-4727.57,7367.91,-1824.95,33.2681,128.577,30.022,648.59,-10985.1,-715.614,-24.9377,-32.4522,75.2882,7560.1,-2323.45,1184.36,7.63199,-20.532,9.90126
3.913,21113.1,3836.28,12370.7,36.8073,224.103,256.687,5039.92,579.628,8635.89,21.462,-34.2124,9.88778,-9428.56,23373.9,-517.377,-23.5966,201.448,306.103,-2980.34,-10566.1,-2463.64,-18.7217,-27.2953,57.2996,-4618.28,7293.01,-1856.03,34.589,125.574,29.1856,642.495,-10985.1,-747.364,-24.6478,-32.6495,75.2723,7556.06,-2342.61,1165.76,7.66709,-20.7908,9.5176
3.9135,21284.0,3883.83,12324.7,38.1767,223.665,256.109,5090.47,808.339,8621.48,22.5522,-34.4326,10.208,-9465.15,23343.6,-563.771,-24.7759,201.203,305.127,-2987.63,-10514.0,-2546.42,-19.0627,-27.8558,57.4872,-4508.99,7218.1,-1887.1,35.9099,122.57,28.3493,636.4,-10985.1,-779.115,-24.3579,-32.8469,75.2565,7552.03,-2361.76,1147.17,7.70219,-21.0495,9.13394
3.914,21454.9,3931.39,12278.7,39.546,223.227,255.531,5141.02,1037.05,8607.07,23.6424,-34.6528,10.5282,-9501.73,23313.4,-610.164,-25.9551,200.958,304.151,-2994.92,-10461.9,-2629.19,-19.4037,-28.4164,57.6748,-4399.7,7143.2,-1918.18,37.2307,119.567,27.513,630.305,-10985.1,-810.866,-24.0681,-33.0442,75.2407,7547.99,-2380.91,1128.57,7.73729,-21.3083,8.75028
3.9145,21625.8,3978.94,12232.7,40.9154,222.79,254.952,5191.56,1265.76,8592.65,24.7327,-34.8729,10.8484,-9538.31,23283.2,-656.558,-27.1344,200.713,303.175,-3002.21,-10409.8,-2711.97,-19.7446,-28.9769,57.8624,-4290.42,7068.29,-1949.26,38.5516,116.563,26.6766,624.21,-10985.1,-842.616,-23.7782,-33.2416,75.2248,7543.96,-2400.07,1109.97,7.77238,-21.567,8.36662
3.915,21796.8,4026.5,12186.7,42.2847,222.352,254.374,5242.11,1494.47,8578.24,25.8229,-35.0931,11.1686,-9574.9,23253.0,-702.952,-28.3137,200.469,302.199,-3009.5,-10357.7,-2794.75,-20.0856,-29.5375,58.0499,-4181.13,6993.38,-1980.34,39.8725,113.56,25.8403,618.115,-10985.1,-874.367,-23.4884,-33.439,75.209,7539.92,-2419.22,1091.38,7.80748,-21.8258,7.98296
3.9155,21967.7,4074.05,12140.7,43.6541,221.915,253.796,5292.66,1723.18,8563.82,26.9131,-35.3132,11.4888,-9611.48,23222.8,-749.346,-29.493,200.224,301.223,-3016.78,-10305.6,-2877.52,-20.4266,-30.0981,58.2375,-4071.84,6918.48,-2011.42,41.1933,110.556,25.004,612.02,-10985.1,-906.118,-23.1985,-33.6363,75.1932,7535.89,-2438.37,1072.78,7.84258,-22.0846,7.5993
3.916,22137.3,4098.58,12028.6,44.7962,222.004,252.972,5283.6,1806.07,8670.56,26.3547,-35.3575,12.0771,-9627.73,23181.1,-811.3,-30.5233,200.364,299.938,-2968.91,-10326.5,-2868.89,-20.5143,-30.4751,58.3421,-3951.55,6827.22,-2035.4,43.4506,106.724,23.7916,633.981,-10965.4,-939.812,-23.0037,-33.7568,75.2577,7539.62,-2434.85,1078.94,8.00997,-22.4167,7.36652
3.9165,22306.8,4120.22,11908.3,45.9098,222.158,252.118,5267.1,1870.74,8792.45,25.5902,-35.3798,12.6989,-9641.43,23137.9,-875.199,-31.5351,200.552,298.615,-2914.14,-10356.5,-2848.84,-20.5704,-30.8292,58.4363,-3829.88,6733.91,-2058.49,45.825,102.788,22.5322,659.448,-10943.1,-973.749,-22.8207,-33.8677,75.3322,7544.33,-2428.49,1088.19,8.19389,-22.758,7.15259
3.917,22476.3,4141.87,11788.0,47.0235,222.313,251.264,5250.59,1935.4,8914.33,24.8257,-35.4021,13.3206,-9655.14,23094.7,-939.098,-32.5468,200.74,297.293,-2859.37,-10386.5,-2828.78,-20.6264,-31.1833,58.5305,-3708.21,6640.61,-2081.58,48.1993,98.8526,21.2729,684.916,-10920.8,-1007.69,-22.6378,-33.9786,75.4068,7549.04,-2422.13,1097.45,8.37782,-23.0992,6.93867
3.9175,22645.7,4163.52,11667.7,48.1372,222.468,250.41,5234.08,2000.07,9036.21,24.0612,-35.4244,13.9424,-9668.85,23051.6,-1003.0,-33.5586,200.929,295.97,-2804.6,-10416.4,-2808.72,-20.6824,-31.5374,58.6246,-3586.54,6547.3,-2104.67,50.5737,94.9169,20.0135,710.383,-10898.6,-1041.62,-22.4548,-34.0895,75.4813,7553.74,-2415.78,1106.7,8.56175,-23.4405,6.72474
3.918,22815.2,4185.16,11547.5,49.2509,222.623,249.556,5217.58,2064.73,9158.09,23.2967,-35.4467,14.5642,-9682.55,23008.4,-1066.9,-34.5703,201.117,294.647,-2749.84,-10446.4,-2788.66,-20.7385,-31.8915,58.7188,-3464.87,6454.0,-2127.77,52.948,90.9812,18.7541,735.85,-10876.3,-1075.56,-22.2719,-34.2004,75.5558,7558.45,-2409.42,1115.96,8.74567,-23.7818,6.51082
3.9185,22984.7,4206.81,11427.2,50.3646,222.777,248.701,5201.07,2129.4,9279.98,22.5322,-35.469,15.186,-9696.26,22965.2,-1130.79,-35.582,201.305,293.324,-2695.07,-10476.4,-2768.61,-20.7945,-32.2456,58.813,-3343.2,6360.69,-2150.86,55.3224,87.0455,17.4947,761.318,-10854.1,-1109.5,-22.0889,-34.3113,75.6304,7563.16,-2403.06,1125.22,8.9296,-24.1231,6.29689
3.919,23154.2,4228.46,11306.9,51.4782,222.932,247.847,5184.56,2194.06,9401.86,21.7677,-35.4913,15.8077,-9709.96,22922.1,-1194.69,-36.5938,201.494,292.001,-2640.3,-10506.4,-2748.55,-20.8506,-32.5997,58.9072,-3221.54,6267.39,-2173.95,57.6967,83.1097,16.2354,786.785,-10831.8,-1143.44,-21.906,-34.4221,75.7049,7567.86,-2396.7,1134.47,9.11352,-24.4644,6.08297
3.9195,23323.7,4250.1,11186.6,52.5919,223.087,246.993,5168.06,2258.73,9523.74,21.0032,-35.5136,16.4295,-9723.67,22878.9,-1258.59,-37.6055,201.682,290.679,-2585.53,-10536.4,-2728.49,-20.9066,-32.9538,59.0014,-3099.87,6174.08,-2197.04,60.0711,79.174,14.976,812.253,-10809.6,-1177.37,-21.723,-34.533,75.7795,7572.57,-2390.35,1143.73,9.29745,-24.8057,5.86904
3.92,23493.1,4271.75,11066.3,53.7056,223.242,246.139,5151.55,2323.39,9645.63,20.2387,-35.5359,17.0513,-9737.38,22835.7,-1322.49,-38.6172,201.87,289.356,-2530.76,-10566.4,-2708.43,-20.9626,-33.3079,59.0956,-2978.2,6080.78,-2220.13,62.4454,75.2383,13.7166,837.72,-10787.3,-1211.31,-21.5401,-34.6439,75.854,7577.27,-2383.99,1152.98,9.48137,-25.1469,5.65512
3.9205,23606.9,4163.74,10941.3,54.7886,223.761,244.8,5089.9,2118.5,9679.14,19.3086,-35.8794,17.28,-9739.35,22778.8,-1412.67,-39.4601,202.452,287.877,-2507.8,-10600.5,-2635.29,-20.7662,-33.4136,59.2232,-2853.81,6028.07,-2218.15,64.8612,71.4363,12.8408,853.073,-10780.8,-1256.44,-21.5673,-34.8902,75.8183,7603.77,-2383.52,1156.71,9.8719,-25.6836,5.41465
3.921,23720.7,4055.73,10816.3,55.8715,224.28,243.461,5028.24,1913.61,9712.66,18.3785,-36.2229,17.5086,-9741.32,22721.8,-1502.86,-40.303,203.034,286.397,-2484.84,-10634.7,-2562.15,-20.5698,-33.5193,59.3507,-2729.41,5975.36,-2216.16,67.2769,67.6343,11.9651,868.427,-10774.4,-1301.56,-21.5946,-35.1364,75.7826,7630.26,-2383.05,1160.45,10.2624,-26.2202,5.17418
3.9215,23834.5,3947.73,10691.3,56.9545,224.8,242.122,4966.58,1708.73,9746.18,17.4484,-36.5665,17.7373,-9743.29,22664.9,-1593.04,-41.1459,203.616,284.918,-2461.88,-10668.8,-2489.0,-20.3734,-33.6251,59.4783,-2605.02,5922.65,-2214.17,69.6927,63.8323,11.0893,883.78,-10767.9,-1346.69,-21.6219,-35.3826,75.7468,7656.75,-2382.59,1164.18,10.653,-26.7568,4.93371
3.922,23948.3,3839.72,10566.3,58.0375,225.319,240.783,4904.93,1503.84,9779.7,16.5183,-36.91,17.966,-9745.26,22607.9,-1683.22,-41.9888,204.197,283.439,-2438.92,-10703.0,-2415.86,-20.1769,-33.7308,59.6059,-2480.63,5869.94,-2212.18,72.1084,60.0303,10.2135,899.133,-10761.4,-1391.82,-21.6491,-35.6289,75.7111,7683.24,-2382.12,1167.92,11.0435,-27.2935,4.69324
3.9225,24062.1,3731.71,10441.3,59.1204,225.839,239.445,4843.27,1298.95,9813.22,15.5882,-37.2536,18.1947,-9747.23,22551.0,-1773.4,-42.8316,204.779,281.959,-2415.96,-10737.1,-2342.72,-19.9805,-33.8365,59.7334,-2356.24,5817.23,-2210.19,74.5241,56.2284,9.33767,914.487,-10754.9,-1436.95,-21.6764,-35.8751,75.6754,7709.73,-2381.65,1171.65,11.434,-27.8301,4.45277
3.923,24175.9,3623.7,10316.3,60.2034,226.358,238.106,4781.62,1094.06,9846.74,14.658,-37.5971,18.4234,-9749.2,22494.0,-1863.58,-43.6745,205.361,280.48,-2393.0,-10771.3,-2269.57,-19.7841,-33.9423,59.861,-2231.84,5764.52,-2208.2,76.9399,52.4264,8.46187,929.84,-10748.4,-1482.07,-21.7037,-36.1213,75.6397,7736.23,-2381.19,1175.38,11.8246,-28.3668,4.2123
3.9235,24289.6,3515.69,10191.3,61.2863,226.877,236.767,4719.96,889.173,9880.26,13.7279,-37.9407,18.6521,-9751.17,22437.1,-1953.77,-44.5174,205.943,279.001,-2370.04,-10805.4,-2196.43,-19.5877,-34.048,59.9886,-2107.45,5711.82,-2206.21,79.3556,48.6244,7.58608,945.193,-10742.0,-1527.2,-21.7309,-36.3676,75.604,7762.72,-2380.72,1179.12,12.2151,-28.9034,3.97184
3.924,24403.4,3407.68,10066.3,62.3693,227.397,235.428,4658.31,684.284,9913.77,12.7978,-38.2842,18.8808,-9753.15,22380.1,-2043.95,-45.3603,206.525,277.522,-2347.08,-10839.5,-2123.29,-19.3912,-34.1537,60.1161,-1983.06,5659.11,-2204.22,81.7713,44.8224,6.71028,960.547,-10735.5,-1572.33,-21.7582,-36.6138,75.5682,7789.21,-2380.25,1182.85,12.6056,-29.44,3.73137
3.9245,24504.6,3289.66,9945.59,63.4825,227.93,234.02,4604.3,487.585,9936.55,12.0434,-38.6705,19.0466,-9759.65,22318.6,-2142.17,-46.1545,207.122,276.049,-2328.5,-10870.3,-2050.8,-19.1934,-34.2542,60.2615,-1857.11,5613.99,-2194.22,84.0994,41.1083,5.89362,976.326,-10725.6,-1619.79,-21.7935,-36.8752,75.5272,7813.77,-2378.97,1185.21,13.007,-29.9456,3.4899
3.925,24504.4,3091.51,9859.05,64.8373,228.577,232.061,4611.46,356.396,9873.39,12.6948,-39.3986,18.7093,-9802.39,22220.0,-2304.72,-46.5598,207.847,274.635,-2345.0,-10873.7,-1983.63,-18.9844,-34.3126,60.5494,-1718.69,5629.57,-2120.14,85.7257,38.0966,5.54996,995.51,-10688.4,-1685.98,-21.8929,-37.2574,75.4432,7822.85,-2371.18,1176.54,13.4955,-30.2027,3.24043
3.9255,24504.2,2893.36,9772.51,66.1922,229.224,230.103,4618.62,225.208,9810.23,13.3461,-40.1267,18.3721,-9845.12,22121.4,-2467.27,-46.965,208.572,273.221,-2361.49,-10877.1,-1916.45,-18.7754,-34.371,60.8374,-1580.26,5645.15,-2046.06,87.3521,35.085,5.2063,1014.69,-10651.3,-1752.17,-21.9923,-37.6397,75.3593,7831.93,-2363.4,1167.86,13.9839,-30.4597,2.99097
3.926,24504.0,2695.21,9685.97,67.547,229.871,228.144,4625.78,94.0196,9747.08,13.9975,-40.8549,18.0348,-9887.86,22022.9,-2629.81,-47.3703,209.297,271.807,-2377.99,-10880.6,-1849.28,-18.5664,-34.4294,61.1253,-1441.84,5660.73,-1971.98,88.9784,32.0734,4.86264,1033.88,-10614.1,-1818.35,-22.0917,-38.022,75.2753,7841.01,-2355.61,1159.19,14.4723,-30.7168,2.7415
3.9265,24503.8,2497.05,9599.43,68.9019,230.517,226.185,4632.94,-37.1688,9683.92,14.6489,-41.583,17.6975,-9930.6,21924.3,-2792.36,-47.7755,210.021,270.393,-2394.49,-10884.0,-1782.1,-18.3574,-34.4878,61.4132,-1303.41,5676.31,-1897.9,90.6047,29.0618,4.51898,1053.06,-10577.0,-1884.54,-22.1912,-38.4042,75.1913,7850.09,-2347.82,1150.52,14.9608,-30.9739,2.49204
3.927,24503.6,2298.9,9512.9,70.2567,231.164,224.226,4640.1,-168.357,9620.76,15.3002,-42.3111,17.3603,-9973.34,21825.7,-2954.91,-48.1808,210.746,268.979,-2410.98,-10887.4,-1714.92,-18.1483,-34.5462,61.7011,-1164.99,5691.89,-1823.82,92.2311,26.0502,4.17532,1072.25,-10539.8,-1950.73,-22.2906,-38.7865,75.1074,7859.17,-2340.04,1141.84,15.4492,-31.2309,2.24257
3.9275,24503.5,2100.75,9426.36,71.6116,231.811,222.267,4647.27,-299.546,9557.6,15.9516,-43.0392,17.023,-10016.1,21727.2,-3117.46,-48.586,211.471,267.565,-2427.48,-10890.9,-1647.75,-17.9393,-34.6046,61.9891,-1026.57,5707.47,-1749.74,93.8574,23.0386,3.83166,1091.43,-10502.6,-2016.91,-22.39,-39.1687,75.0234,7868.25,-2332.25,1133.17,15.9377,-31.488,1.99311
