Time,RFoot_accel.x,RFoot_accel.y,RFoot_accel.z,RFoot_gyro.x,RFoot_gyro.y,RFoot_gyro.z,LFoot_accel.x,LFoot_accel.y,LFoot_accel.z,LFoot_gyro.x,LFoot_gyro.y,LFoot_gyro.z,RShank_accel.x,RShank_accel.y,RShank_accel.z,RShank_gyro.x,RShank_gyro.y,RShank_gyro.z,LShank_accel.x,LShank_accel.y,LShank_accel.z,LShank_gyro.x,LShank_gyro.y,LShank_gyro.z,RThigh_accel.x,RThigh_accel.y,RThigh_accel.z,RThigh_gyro.x,RThigh_gyro.y,RThigh_gyro.z,LThigh_accel.x,LThigh_accel.y,LThigh_accel.z,LThigh_gyro.x,LThigh_gyro.y,LThigh_gyro.z,Pelvis_accel.x,Pelvis_accel.y,Pelvis_accel.z,Pelvis_gyro.x,Pelvis_gyro.y,Pelvis_gyro.z
4.91,2532.4,-2169.84,5818.99,-70.545,287.179,52.8757,4401.45,3503.72,7504.8,-2.86225,2.16019,7.32697,1944.0,5058.74,-883.624,33.4433,48.7278,198.115,395.561,-9404.98,-2754.03,-10.0388,2.41062,42.4208,-4042.03,7046.99,1340.15,67.9603,40.9392,101.898,4148.65,-9061.22,-3049.16,-8.34039,-36.9522,53.7439,8274.75,-1171.68,1660.85,2.31606,19.513,25.8639
4.9105,2568.19,-2168.71,5850.48,-70.6829,287.434,53.7926,4390.89,3542.99,7486.7,-3.18151,2.12185,7.40316,1906.42,5110.42,-880.945,33.6043,49.3133,198.928,397.789,-9402.12,-2780.68,-9.96871,2.88135,42.6172,-4078.72,7070.83,1287.06,68.097,41.679,101.915,4166.71,-9043.03,-3072.34,-8.24313,-35.2147,53.7299,8269.06,-1189.05,1677.0,2.89164,19.6819,25.694
4.911,2603.97,-2167.58,5881.97,-70.8207,287.69,54.7096,4380.32,3582.27,7468.59,-3.50077,2.0835,7.47934,1868.84,5162.11,-878.266,33.7652,49.8989,199.741,400.017,-9399.26,-2807.32,-9.89858,3.35207,42.8136,-4115.42,7094.67,1233.97,68.2337,42.4187,101.933,4184.77,-9024.84,-3095.52,-8.14586,-33.4772,53.7158,8263.36,-1206.42,1693.15,3.46723,19.8508,25.5241
4.9115,2642.71,-2170.87,5912.35,-70.8774,287.912,55.6106,4380.58,3630.07,7451.22,-3.95909,2.099,7.62112,1858.6,5231.67,-884.822,33.92,50.396,200.642,405.08,-9393.36,-2838.44,-9.86111,3.89768,43.017,-4169.41,7127.89,1194.99,68.0641,43.2528,102.025,4180.5,-9012.83,-3112.06,-8.15704,-31.821,53.6862,8264.01,-1226.38,1698.03,3.96508,19.9558,25.346
4.912,2682.3,-2175.43,5942.41,-70.911,288.125,56.5071,4383.93,3680.31,7434.07,-4.45714,2.12988,7.78164,1856.17,5306.33,-894.016,34.0729,50.8678,201.568,410.952,-9386.58,-2870.84,-9.83298,4.46468,43.2224,-4228.34,7163.79,1160.05,67.8071,44.1139,102.139,4169.85,-9002.58,-3126.7,-8.19921,-30.1882,53.6521,8266.46,-1247.06,1699.69,4.44072,20.0424,25.1656
4.9125,2721.89,-2179.98,5972.47,-70.9445,288.337,57.4036,4387.28,3730.56,7416.92,-4.95519,2.16076,7.94216,1853.75,5381.0,-903.211,34.2259,51.3397,202.494,416.825,-9379.8,-2903.24,-9.80484,5.03169,43.4278,-4287.27,7199.69,1125.11,67.55,44.9749,102.253,4159.19,-8992.34,-3141.34,-8.24137,-28.5553,53.618,8268.92,-1267.75,1701.36,4.91636,20.1291,24.9852
4.913,2761.47,-2184.54,6002.53,-70.978,288.55,58.3001,4390.62,3780.8,7399.77,-5.45324,2.19164,8.10268,1851.32,5455.66,-912.405,34.3789,51.8115,203.42,422.697,-9373.02,-2935.64,-9.77671,5.59869,43.6333,-4346.2,7235.59,1090.16,67.293,45.836,102.367,4148.54,-8982.1,-3155.99,-8.28354,-26.9225,53.584,8271.38,-1288.44,1703.02,5.392,20.2158,24.8048
4.9135,2801.06,-2189.09,6032.59,-71.0115,288.762,59.1966,4393.97,3831.04,7382.62,-5.95129,2.22252,8.26321,1848.89,5530.33,-921.599,34.5318,52.2833,204.346,428.57,-9366.24,-2968.04,-9.74858,6.16569,43.8387,-4405.13,7271.49,1055.22,67.0359,46.697,102.481,4137.89,-8971.85,-3170.63,-8.3257,-25.2896,53.5499,8273.83,-1309.13,1704.69,5.86764,20.3025,24.6244
4.914,2840.64,-2193.65,6062.65,-71.045,288.975,60.0931,4397.32,3881.28,7365.47,-6.44934,2.2534,8.42373,1846.47,5604.99,-930.793,34.6848,52.7552,205.272,434.442,-9359.46,-3000.44,-9.72044,6.7327,44.0441,-4464.06,7307.39,1020.28,66.7789,47.5581,102.594,4127.23,-8961.61,-3185.27,-8.36787,-23.6568,53.5158,8276.29,-1329.82,1706.35,6.34328,20.3892,24.4441
4.9145,2880.23,-2198.21,6092.71,-71.0786,289.188,60.9896,4400.67,3931.52,7348.31,-6.94739,2.28428,8.58425,1844.04,5679.66,-939.988,34.8378,53.227,206.198,440.315,-9352.68,-3032.84,-9.69231,7.2997,44.2495,-4522.99,7343.29,985.336,66.5219,48.4191,102.708,4116.58,-8951.37,-3199.91,-8.41003,-22.0239,53.4817,8278.75,-1350.5,1708.02,6.81892,20.4759,24.2637
4.915,2919.82,-2202.76,6122.77,-71.1121,289.4,61.8861,4404.02,3981.77,7331.16,-7.44545,2.31517,8.74477,1841.61,5754.33,-949.182,34.9907,53.6989,207.124,446.187,-9345.9,-3065.24,-9.66418,7.8667,44.4549,-4581.92,7379.19,950.392,66.2648,49.2802,102.822,4105.93,-8941.12,-3214.55,-8.4522,-20.3911,53.4476,8281.21,-1371.19,1709.68,7.29456,20.5626,24.0833
4.9155,2959.4,-2207.32,6152.83,-71.1456,289.613,62.7826,4407.37,4032.01,7314.01,-7.9435,2.34605,8.90529,1839.19,5828.99,-958.376,35.1437,54.1707,208.05,452.06,-9339.13,-3097.64,-9.63604,8.43371,44.6603,-4640.86,7415.08,915.449,66.0078,50.1412,102.936,4095.27,-8930.88,-3229.19,-8.49436,-18.7582,53.4136,8283.67,-1391.88,1711.35,7.7702,20.6492,23.9029
4.916,2998.13,-2211.39,6167.6,-71.0982,289.96,63.5774,4395.98,4049.59,7320.52,-8.48971,2.43614,9.15803,1797.25,5870.08,-958.301,35.1774,54.5299,209.029,459.823,-9329.9,-3123.44,-9.54071,8.99786,44.8851,-4709.17,7455.51,872.675,65.5053,50.9865,103.168,4057.56,-8920.84,-3225.18,-8.56478,-17.3065,53.4612,8278.27,-1406.64,1710.7,8.14692,20.7263,23.7226
4.9165,3036.74,-2215.4,6180.46,-71.0406,290.324,64.3594,4382.74,4063.1,7329.98,-9.04193,2.53364,9.42228,1750.38,5906.96,-957.067,35.1962,54.875,210.014,467.823,-9320.37,-3148.43,-9.43698,9.56165,45.1124,-4778.65,7496.49,828.922,64.9722,51.8298,103.415,4016.47,-8910.83,-3218.83,-8.63874,-15.8774,53.519,8271.89,-1420.65,1709.76,8.51127,20.8021,23.5423
4.917,3075.36,-2219.4,6193.32,-70.983,290.689,65.1415,4369.5,4076.6,7339.44,-9.59416,2.63113,9.68654,1703.51,5943.85,-955.834,35.215,55.2201,211.0,475.823,-9310.83,-3173.41,-9.33325,10.1254,45.3397,-4848.13,7537.48,785.168,64.4391,52.6732,103.663,3975.38,-8900.81,-3212.49,-8.71269,-14.4483,53.5768,8265.51,-1434.67,1708.82,8.87562,20.8779,23.362
4.9175,3113.98,-2223.41,6206.19,-70.9254,291.053,65.9236,4356.26,4090.1,7348.9,-10.1464,2.72863,9.9508,1656.64,5980.73,-954.6,35.2338,55.5652,211.985,483.823,-9301.3,-3198.39,-9.22952,10.6892,45.5669,-4917.61,7578.47,741.415,63.906,53.5165,103.91,3934.29,-8890.8,-3206.14,-8.78664,-13.0192,53.6346,8259.14,-1448.69,1707.89,9.23997,20.9537,23.1818
4.918,3152.6,-2227.42,6219.05,-70.8679,291.417,66.7057,4343.02,4103.61,7358.36,-10.6986,2.82613,10.2151,1609.77,6017.62,-953.366,35.2526,55.9103,212.97,491.823,-9291.77,-3223.37,-9.1258,11.253,45.7942,-4987.1,7619.45,697.662,63.3729,54.3598,104.157,3893.2,-8880.79,-3199.79,-8.8606,-11.5901,53.6925,8252.76,-1462.7,1706.95,9.60433,21.0295,23.0015
4.9185,3191.22,-2231.42,6231.91,-70.8103,291.781,67.4878,4329.79,4117.11,7367.82,-11.2508,2.92362,10.4793,1562.9,6054.51,-952.132,35.2714,56.2554,213.956,499.822,-9282.23,-3248.35,-9.02207,11.8168,46.0215,-5056.58,7660.44,653.908,62.8398,55.2031,104.404,3852.1,-8870.77,-3193.45,-8.93455,-10.161,53.7503,8246.38,-1476.72,1706.01,9.96868,21.1053,22.8212
4.919,3229.83,-2235.43,6244.77,-70.7527,292.146,68.2699,4316.55,4130.61,7377.28,-11.8031,3.02112,10.7436,1516.03,6091.39,-950.898,35.2902,56.6005,214.941,507.822,-9272.7,-3273.34,-8.91834,12.3806,46.2487,-5126.06,7701.43,610.155,62.3067,56.0465,104.651,3811.01,-8860.76,-3187.1,-9.0085,-8.73193,53.8081,8240.0,-1490.74,1705.07,10.333,21.1812,22.6409
4.9195,3268.45,-2239.44,6257.63,-70.6952,292.51,69.0519,4303.31,4144.12,7386.74,-12.3553,3.11862,11.0078,1469.16,6128.28,-949.665,35.309,56.9456,215.926,515.822,-9263.16,-3298.32,-8.81461,12.9444,46.476,-5195.55,7742.41,566.402,61.7736,56.8898,104.898,3769.92,-8850.75,-3180.76,-9.08246,-7.30284,53.8659,8233.63,-1504.75,1704.13,10.6974,21.257,22.4606
4.92,3307.07,-2243.44,6270.49,-70.6376,292.874,69.834,4290.07,4157.62,7396.2,-12.9075,3.21611,11.2721,1422.29,6165.16,-948.431,35.3278,57.2907,216.912,523.822,-9253.63,-3323.3,-8.71088,13.5082,46.7032,-5265.03,7783.4,522.648,61.2405,57.7331,105.145,3728.83,-8840.73,-3174.41,-9.15641,-5.87374,53.9238,8227.25,-1518.77,1703.19,11.0617,21.3328,22.2803
4.9205,3335.0,-2245.49,6306.08,-70.5789,293.217,70.5619,4283.53,4146.7,7404.45,-13.4261,3.26593,11.5325,1385.46,6219.3,-967.595,35.2669,57.5974,217.981,518.738,-9248.87,-3341.96,-8.63221,14.065,46.8409,-5335.83,7795.65,514.274,60.7013,58.929,105.595,3659.82,-8832.69,-3160.4,-9.35491,-4.7315,54.0278,8220.1,-1514.26,1709.99,11.3032,21.4319,22.0744
4.921,3362.94,-2247.53,6341.66,-70.5203,293.559,71.2898,4276.98,4135.79,7412.7,-13.9446,3.31574,11.7929,1348.63,6273.43,-986.759,35.2061,57.9041,219.05,513.655,-9244.1,-3360.61,-8.55353,14.6219,46.9785,-5406.63,7807.89,505.9,60.1621,60.1249,106.044,3590.81,-8824.65,-3146.4,-9.55341,-3.58926,54.1318,8212.96,-1509.76,1716.79,11.5447,21.5309,21.8685
4.9215,3390.87,-2249.58,6377.25,-70.4616,293.902,72.0177,4270.44,4124.87,7420.96,-14.4632,3.36556,12.0533,1311.81,6327.56,-1005.92,35.1452,58.2108,220.118,508.571,-9239.34,-3379.27,-8.47486,15.1787,47.1161,-5477.43,7820.13,497.526,59.623,61.3208,106.493,3521.81,-8816.61,-3132.39,-9.75191,-2.44701,54.2358,8205.81,-1505.25,1723.58,11.7862,21.63,21.6625
4.922,3418.8,-2251.62,6412.84,-70.4029,294.244,72.7456,4263.89,4113.95,7429.21,-14.9817,3.41537,12.3138,1274.98,6381.69,-1025.09,35.0844,58.5176,221.187,503.487,-9234.57,-3397.92,-8.39619,15.7355,47.2537,-5548.23,7832.38,489.152,59.0838,62.5166,106.943,3452.8,-8808.56,-3118.39,-9.95041,-1.30477,54.3398,8198.67,-1500.74,1730.38,12.0277,21.7291,21.4566
4.9225,3446.74,-2253.66,6448.43,-70.3442,294.586,73.4734,4257.34,4103.03,7437.46,-15.5002,3.46519,12.5742,1238.15,6435.83,-1044.25,35.0235,58.8243,222.256,498.404,-9229.8,-3416.58,-8.31752,16.2923,47.3914,-5619.03,7844.62,480.778,58.5446,63.7125,107.392,3383.79,-8800.52,-3104.38,-10.1489,-0.162522,54.4438,8191.52,-1496.24,1737.17,12.2692,21.8282,21.2507
4.923,3474.67,-2255.71,6484.01,-70.2856,294.929,74.2013,4250.8,4092.12,7445.71,-16.0188,3.515,12.8346,1201.33,6489.96,-1063.41,34.9627,59.131,223.325,493.32,-9225.04,-3435.24,-8.23884,16.8491,47.529,-5689.83,7856.87,472.404,58.0054,64.9084,107.841,3314.78,-8792.48,-3090.37,-10.3474,0.979723,54.5478,8184.38,-1491.73,1743.97,12.5107,21.9272,21.0447
4.9235,3502.6,-2257.75,6519.6,-70.2269,295.271,74.9292,4244.25,4081.2,7453.96,-16.5373,3.56482,13.095,1164.5,6544.09,-1082.58,34.9018,59.4377,224.394,488.236,-9220.27,-3453.89,-8.16017,17.4059,47.6666,-5760.63,7869.11,464.03,57.4662,66.1043,108.291,3245.78,-8784.44,-3076.37,-10.5459,2.12197,54.6518,8177.23,-1487.22,1750.76,12.7522,22.0263,20.8388
4.924,3530.54,-2259.8,6555.19,-70.1682,295.614,75.6571,4237.71,4070.28,7462.22,-17.0559,3.61463,13.3554,1127.67,6598.22,-1101.74,34.8409,59.7444,225.463,483.153,-9215.51,-3472.55,-8.0815,17.9628,47.8042,-5831.43,7881.35,455.656,56.927,67.3002,108.74,3176.77,-8776.39,-3062.36,-10.7444,3.26421,54.7558,8170.09,-1482.72,1757.56,12.9937,22.1254,20.6328
4.9245,3557.09,-2259.07,6593.76,-70.1089,295.952,76.3934,4233.99,4059.8,7468.46,-17.5724,3.66257,13.6209,1095.97,6649.63,-1117.84,34.767,60.0319,226.535,476.062,-9212.25,-3488.91,-7.99837,18.5053,47.9348,-5903.66,7893.85,446.484,56.3772,68.5571,109.212,3107.29,-8768.8,-3049.65,-10.9506,4.38327,54.8612,8162.12,-1478.43,1763.27,13.2128,22.2268,20.4322
4.925,3572.62,-2236.12,6656.24,-70.0445,296.257,77.1972,4252.96,4052.8,7458.68,-18.0729,3.69542,13.9269,1105.24,6679.24,-1109.4,34.5879,60.1656,227.634,452.912,-9221.05,-3486.94,-7.87963,18.9331,48.0088,-5987.34,7908.31,430.921,55.7422,70.3021,109.864,3034.0,-8764.82,-3047.31,-11.2184,5.31685,54.978,8147.52,-1475.86,1760.27,13.253,22.3467,20.2736
4.9255,3588.14,-2213.18,6718.72,-69.98,296.562,78.0009,4271.92,4045.79,7448.89,-18.5734,3.72827,14.2328,1114.52,6708.85,-1100.97,34.4088,60.2993,228.732,429.763,-9229.86,-3484.96,-7.76089,19.3609,48.0828,-6071.01,7922.78,415.358,55.1073,72.0472,110.516,2960.72,-8760.84,-3044.98,-11.4862,6.25043,55.0948,8132.91,-1473.29,1757.27,13.2933,22.4667,20.1149
4.926,3603.67,-2190.24,6781.2,-69.9155,296.867,78.8047,4290.89,4038.79,7439.11,-19.0739,3.76112,14.5388,1123.79,6738.46,-1092.54,34.2297,60.433,229.831,406.614,-9238.66,-3482.99,-7.64214,19.7887,48.1567,-6154.68,7937.25,399.796,54.4723,73.7923,111.167,2887.44,-8756.86,-3042.64,-11.7541,7.18401,55.2115,8118.31,-1470.72,1754.27,13.3335,22.5866,19.9563
4.9265,3619.19,-2167.3,6843.68,-69.8511,297.172,79.6084,4309.85,4031.79,7429.32,-19.5744,3.79398,14.8448,1133.06,6768.07,-1084.1,34.0506,60.5667,230.929,383.464,-9247.46,-3481.01,-7.5234,20.2166,48.2307,-6238.35,7951.72,384.233,53.8373,75.5373,111.819,2814.15,-8752.88,-3040.3,-12.0219,8.11759,55.3283,8103.71,-1468.16,1751.27,13.3737,22.7066,19.7977
4.927,3634.72,-2144.36,6906.16,-69.7866,297.477,80.4122,4328.82,4024.79,7419.53,-20.0749,3.82683,15.1507,1142.34,6797.68,-1075.67,33.8715,60.7003,232.028,360.315,-9256.27,-3479.04,-7.40466,20.6444,48.3047,-6322.02,7966.19,368.67,53.2023,77.2824,112.471,2740.87,-8748.89,-3037.97,-12.2897,9.05117,55.4451,8089.11,-1465.59,1748.27,13.4139,22.8265,19.6391
4.9275,3650.24,-2121.42,6968.63,-69.7221,297.782,81.2159,4347.78,4017.78,7409.75,-20.5754,3.85968,15.4567,1151.61,6827.29,-1067.23,33.6924,60.834,233.126,337.166,-9265.07,-3477.06,-7.28591,21.0722,48.3787,-6405.69,7980.66,353.108,52.5673,79.0275,113.123,2667.59,-8744.91,-3035.63,-12.5575,9.98475,55.5619,8074.51,-1463.02,1745.27,13.4541,22.9465,19.4805
4.928,3665.77,-2098.47,7031.11,-69.6577,298.087,82.0197,4366.75,4010.78,7399.96,-21.0759,3.89254,15.7627,1160.88,6856.9,-1058.8,33.5133,60.9677,234.225,314.016,-9273.88,-3475.09,-7.16717,21.5,48.4527,-6489.37,7995.13,337.545,51.9324,80.7725,113.774,2594.3,-8740.93,-3033.3,-12.8254,10.9183,55.6787,8059.91,-1460.45,1742.27,13.4944,23.0664,19.3219
4.9285,3681.3,-2075.53,7093.59,-69.5932,298.392,82.8234,4385.71,4003.78,7390.18,-21.5764,3.92539,16.0686,1170.16,6886.51,-1050.36,33.3342,61.1014,235.323,290.867,-9282.68,-3473.11,-7.04843,21.9279,48.5267,-6573.04,8009.6,321.982,51.2974,82.5176,114.426,2521.02,-8736.95,-3030.96,-13.0932,11.8519,55.7955,8045.31,-1457.89,1739.27,13.5346,23.1863,19.1633
4.929,3696.19,-2046.67,7152.49,-69.5539,298.678,83.6351,4405.99,3997.09,7380.03,-22.0545,3.9679,16.3535,1172.42,6908.49,-1043.14,33.1953,61.2249,236.437,261.365,-9291.28,-3469.44,-6.92624,22.3287,48.6058,-6650.68,8021.0,316.263,50.631,84.2591,115.063,2448.0,-8733.32,-3031.07,-13.3545,12.7294,55.9223,8031.41,-1457.44,1733.15,13.559,23.2745,19.0383
4.9295,3708.9,-1997.09,7198.85,-69.603,298.898,84.4743,4430.85,3991.52,7368.62,-22.4543,4.04419,16.5645,1150.16,6903.76,-1040.17,33.1971,61.3127,237.605,209.629,-9299.16,-3459.81,-6.792,22.6351,48.7025,-6707.24,8021.65,344.997,49.8544,85.9885,115.65,2375.9,-8730.92,-3039.75,-13.5932,13.4105,56.0843,8019.96,-1464.43,1716.11,13.5281,23.2515,19.0307
4.93,3721.61,-1947.51,7245.21,-69.652,299.117,85.3135,4455.72,3985.94,7357.22,-22.8541,4.12049,16.7754,1127.9,6899.02,-1037.19,33.199,61.4005,238.772,157.894,-9307.05,-3450.18,-6.65775,22.9415,48.7993,-6763.79,8022.29,373.731,49.0779,87.7178,116.237,2303.8,-8728.53,-3048.44,-13.8318,14.0916,56.2463,8008.52,-1471.42,1699.08,13.4971,23.2284,19.0231
4.9305,3734.31,-1897.92,7291.58,-69.701,299.336,86.1528,4480.58,3980.37,7345.81,-23.2538,4.19679,16.9864,1105.64,6894.29,-1034.22,33.2008,61.4883,239.94,106.158,-9314.93,-3440.55,-6.52351,23.2478,48.8961,-6820.34,8022.94,402.465,48.3014,89.4471,116.824,2231.7,-8726.13,-3057.12,-14.0705,14.7727,56.4083,7997.07,-1478.41,1682.05,13.4662,23.2054,19.0155
4.931,3747.02,-1848.34,7337.94,-69.7501,299.555,86.992,4505.45,3974.79,7334.41,-23.6536,4.27309,17.1974,1083.38,6889.56,-1031.24,33.2027,61.576,241.108,54.4224,-9322.81,-3430.92,-6.38926,23.5542,48.9929,-6876.89,8023.59,431.198,47.5249,91.1765,117.411,2159.6,-8723.73,-3065.8,-14.3091,15.4538,56.5703,7985.63,-1485.4,1665.01,13.4352,23.1824,19.0079
4.9315,3759.73,-1798.76,7384.31,-69.7991,299.775,87.8312,4530.31,3969.22,7323.0,-24.0533,4.34939,17.4084,1061.12,6884.83,-1028.27,33.2045,61.6638,242.275,2.68667,-9330.7,-3421.29,-6.25502,23.8606,49.0896,-6933.44,8024.24,459.932,46.7483,92.9058,117.998,2087.5,-8721.34,-3074.48,-14.5478,16.1349,56.7323,7974.18,-1492.39,1647.98,13.4043,23.1593,19.0004
4.932,3772.43,-1749.18,7430.67,-69.8481,299.994,88.6704,4555.18,3963.64,7311.59,-24.4531,4.42568,17.6193,1038.86,6880.1,-1025.29,33.2064,61.7516,243.443,-49.049,-9338.58,-3411.66,-6.12077,24.1669,49.1864,-6989.99,8024.89,488.666,45.9718,94.6351,118.584,2015.4,-8718.94,-3083.17,-14.7864,16.816,56.8943,7962.74,-1499.37,1630.94,13.3734,23.1363,18.9928
4.9325,3785.14,-1699.59,7477.03,-69.8971,300.213,89.5097,4580.04,3958.07,7300.19,-24.8529,4.50198,17.8303,1016.61,6875.36,-1022.32,33.2082,61.8394,244.611,-100.785,-9346.47,-3402.03,-5.98653,24.4733,49.2832,-7046.54,8025.54,517.4,45.1953,96.3645,119.171,1943.3,-8716.54,-3091.85,-15.0251,17.4971,57.0563,7951.29,-1506.36,1613.91,13.3424,23.1132,18.9852
4.933,3797.85,-1650.01,7523.4,-69.9462,300.432,90.3489,4604.9,3952.5,7288.78,-25.2526,4.57828,18.0413,994.345,6870.63,-1019.34,33.21,61.9272,245.778,-152.52,-9354.35,-3392.4,-5.85228,24.7797,49.3799,-7103.1,8026.18,546.134,44.4188,98.0938,119.758,1871.2,-8714.15,-3100.53,-15.2637,18.1782,57.2183,7939.85,-1513.35,1596.87,13.3115,23.0902,18.9776
4.9335,3815.91,-1601.54,7564.31,-70.0693,300.638,91.1677,4621.36,3937.96,7292.62,-25.6064,4.60646,18.2168,974.269,6869.95,-1011.43,33.2513,61.9611,246.937,-204.909,-9360.27,-3381.2,-5.72179,24.9992,49.4734,-7154.77,8012.8,568.013,43.7857,99.7493,120.219,1802.59,-8714.98,-3104.02,-15.4943,18.7502,57.364,7927.09,-1515.8,1584.07,13.3518,23.023,18.9679
4.934,3844.68,-1555.29,7594.31,-70.3405,300.816,91.9457,4621.01,3905.52,7326.96,-25.8681,4.53841,18.3215,958.559,6877.38,-993.632,33.3712,61.8874,248.077,-258.604,-9362.28,-3366.88,-5.5988,25.0452,49.5603,-7196.69,7971.35,576.185,43.4397,101.257,120.426,1740.96,-8722.26,-3097.12,-15.7088,19.1038,57.477,7911.7,-1509.17,1579.72,13.5347,22.8675,18.9537
4.9345,3873.45,-1509.04,7624.32,-70.6116,300.994,92.7236,4620.66,3873.07,7361.29,-26.1298,4.47035,18.4261,942.85,6884.81,-975.837,33.4912,61.8137,249.217,-312.299,-9364.28,-3352.56,-5.47581,25.0911,49.6472,-7238.62,7929.91,584.357,43.0937,102.765,120.634,1679.32,-8729.54,-3090.22,-15.9234,19.4574,57.59,7896.32,-1502.53,1575.37,13.7176,22.7119,18.9396
4.935,3902.22,-1462.79,7654.32,-70.8829,301.172,93.5016,4620.3,3840.62,7395.63,-26.3915,4.4023,18.5308,927.14,6892.23,-958.042,33.6112,61.74,250.356,-365.995,-9366.28,-3338.23,-5.35282,25.137,49.7341,-7280.54,7888.46,592.528,42.7477,104.273,120.842,1617.69,-8736.82,-3083.32,-16.1379,19.811,57.703,7880.94,-1495.9,1571.02,13.9005,22.5564,18.9254
4.9355,3930.98,-1416.54,7684.33,-71.1541,301.35,94.2796,4619.95,3808.18,7429.96,-26.6532,4.33425,18.6354,911.431,6899.66,-940.248,33.7311,61.6662,251.496,-419.69,-9368.28,-3323.91,-5.22983,25.1829,49.821,-7322.46,7847.02,600.7,42.4016,105.781,121.049,1556.05,-8744.09,-3076.42,-16.3524,20.1647,57.816,7865.55,-1489.27,1566.67,14.0834,22.4009,18.9113
4.936,3959.75,-1370.29,7714.33,-71.4252,301.529,95.0576,4619.6,3775.73,7464.3,-26.915,4.26619,18.7401,895.721,6907.09,-922.453,33.8511,61.5925,252.636,-473.385,-9370.28,-3309.59,-5.10684,25.2288,49.9079,-7364.39,7805.57,608.871,42.0556,107.289,121.257,1494.42,-8751.37,-3069.52,-16.5669,20.5183,57.929,7850.17,-1482.64,1562.32,14.2662,22.2453,18.8971
4.9365,3988.52,-1324.04,7744.34,-71.6964,301.707,95.8355,4619.24,3743.29,7498.64,-27.1767,4.19814,18.8448,880.012,6914.52,-904.658,33.9711,61.5188,253.776,-527.08,-9372.28,-3295.26,-4.98385,25.2747,49.9948,-7406.31,7764.12,617.043,41.7096,108.797,121.465,1432.78,-8758.65,-3062.61,-16.7815,20.8719,58.0421,7834.79,-1476.0,1557.97,14.4491,22.0898,18.883
4.937,4017.29,-1277.79,7774.34,-71.9677,301.885,96.6135,4618.89,3710.84,7532.97,-27.4384,4.13009,18.9494,864.302,6921.94,-886.863,34.0911,61.445,254.916,-580.775,-9374.28,-3280.94,-4.86086,25.3207,50.0817,-7448.23,7722.68,625.215,41.3636,110.305,121.672,1371.15,-8765.93,-3055.71,-16.996,21.2255,58.1551,7819.4,-1469.37,1553.62,14.632,21.9342,18.8688
4.9375,4046.06,-1231.54,7804.35,-72.2388,302.063,97.3914,4618.54,3678.39,7567.31,-27.7001,4.06203,19.0541,848.593,6929.37,-869.068,34.211,61.3713,256.056,-634.47,-9376.28,-3266.62,-4.73787,25.3666,50.1686,-7490.15,7681.23,633.386,41.0175,111.812,121.88,1309.52,-8773.21,-3048.81,-17.2105,21.5792,58.2681,7804.02,-1462.74,1549.27,14.8149,21.7787,18.8547
4.938,4076.17,-1189.97,7830.44,-72.5458,302.246,98.1162,4612.11,3632.76,7603.05,-27.8831,3.87236,19.0686,826.166,6950.33,-862.819,34.3568,61.3398,257.185,-695.964,-9385.33,-3242.24,-4.61805,25.2408,50.2435,-7522.39,7634.02,641.078,40.8166,113.276,121.939,1257.38,-8779.97,-3039.49,-17.4303,21.8372,58.3736,7791.74,-1454.0,1550.53,15.0512,21.593,18.8268
4.9385,4107.96,-1154.23,7851.65,-72.8973,302.436,98.7744,4598.1,3570.66,7640.55,-27.9677,3.53067,18.9704,795.343,6988.2,-871.004,34.5347,61.3609,258.301,-767.205,-9403.2,-3205.31,-4.50219,24.9004,50.3033,-7542.51,7579.61,648.171,40.7971,114.684,121.811,1217.12,-8786.08,-3027.13,-17.6567,21.9758,58.4696,7783.34,-1442.64,1558.8,15.3543,21.3697,18.7817
4.939,4139.76,-1118.5,7872.86,-73.2489,302.626,99.4325,4584.09,3508.55,7678.05,-28.0523,3.18897,18.8723,764.52,7026.07,-879.188,34.7126,61.382,259.417,-838.446,-9421.06,-3168.38,-4.38634,24.56,50.3632,-7562.63,7525.2,655.263,40.7775,116.093,121.684,1176.86,-8792.18,-3014.78,-17.883,22.1144,58.5657,7774.93,-1431.27,1567.07,15.6575,21.1463,18.7366
4.9395,4171.55,-1082.77,7894.06,-73.6005,302.816,100.091,4570.08,3446.45,7715.54,-28.137,2.84728,18.7741,733.697,7063.94,-887.372,34.8905,61.4032,260.533,-909.688,-9438.92,-3131.44,-4.27048,24.2195,50.423,-7582.75,7470.79,662.355,40.758,117.501,121.557,1136.6,-8798.29,-3002.43,-18.1094,22.253,58.6617,7766.53,-1419.9,1575.34,15.9606,20.923,18.6915
4.94,4203.34,-1047.03,7915.27,-73.9521,303.006,100.749,4556.07,3384.34,7753.04,-28.2216,2.50559,18.6759,702.874,7101.81,-895.557,35.0685,61.4243,261.649,-980.93,-9456.79,-3094.51,-4.15463,23.8791,50.4829,-7602.87,7416.39,669.448,40.7384,118.909,121.429,1096.34,-8804.4,-2990.07,-18.3357,22.3917,58.7578,7758.13,-1408.54,1583.61,16.2637,20.6996,18.6464
4.9405,4235.13,-1011.3,7936.48,-74.3036,303.196,101.407,4542.06,3322.24,7790.54,-28.3062,2.16389,18.5778,672.051,7139.69,-903.741,35.2464,61.4455,262.764,-1052.17,-9474.65,-3057.57,-4.03878,23.5387,50.5427,-7623.0,7361.98,676.54,40.7189,120.317,121.302,1056.08,-8810.5,-2977.72,-18.5621,22.5303,58.8539,7749.73,-1397.17,1591.88,16.5669,20.4763,18.6013
4.941,4266.93,-975.565,7957.69,-74.6552,303.386,102.065,4528.05,3260.13,7828.04,-28.3908,1.8222,18.4796,641.228,7177.56,-911.925,35.4243,61.4666,263.88,-1123.41,-9492.51,-3020.64,-3.92292,23.1983,50.6026,-7643.12,7307.57,683.633,40.6993,121.725,121.174,1015.82,-8816.61,-2965.37,-18.7885,22.6689,58.9499,7741.33,-1385.81,1600.15,16.87,20.2529,18.5562
4.9415,4298.72,-939.831,7978.89,-75.0068,303.576,102.723,4514.04,3198.03,7865.53,-28.4754,1.48051,18.3814,610.404,7215.43,-920.11,35.6023,61.4878,264.996,-1194.65,-9510.38,-2983.7,-3.80707,22.8578,50.6624,-7663.24,7253.16,690.725,40.6798,123.134,121.047,975.557,-8822.72,-2953.01,-19.0148,22.8075,59.046,7732.92,-1374.44,1608.42,17.1731,20.0296,18.5111
4.942,4330.51,-904.097,8000.1,-75.3584,303.765,103.382,4500.03,3135.92,7903.03,-28.56,1.13881,18.2833,579.581,7253.3,-928.294,35.7802,61.5089,266.112,-1265.9,-9528.24,-2946.77,-3.69121,22.5174,50.7223,-7683.36,7198.75,697.817,40.6602,124.542,120.92,935.296,-8828.82,-2940.66,-19.2412,22.9461,59.142,7724.52,-1363.08,1616.69,17.4762,19.8062,18.466
4.9425,4379.47,-879.929,8022.35,-75.7192,303.993,104.012,4502.44,3071.92,7936.84,-28.4589,0.714961,18.0591,546.653,7294.55,-936.218,35.9194,61.535,267.094,-1344.69,-9551.99,-2899.15,-3.54459,22.0013,50.7489,-7683.36,7149.59,709.385,40.7779,125.84,120.611,893.789,-8842.04,-2930.14,-19.4011,22.9459,59.2393,7721.43,-1356.0,1616.84,17.7177,19.5268,18.4764
4.943,4442.17,-865.015,8045.42,-76.0875,304.25,104.619,4518.0,3006.39,7967.7,-28.2092,0.225381,17.7341,512.04,7338.5,-943.934,36.0277,61.565,267.97,-1429.52,-9580.46,-2843.0,-3.37336,21.3447,50.749,-7667.25,7104.63,724.532,41.0054,127.049,120.156,851.284,-8860.95,-2921.09,-19.5079,22.8348,59.3375,7722.57,-1352.36,1610.49,17.9097,19.2024,18.5312
4.9435,4504.87,-850.1,8068.5,-76.4558,304.507,105.227,4533.56,2940.87,7998.56,-27.9595,-0.264199,17.4091,477.427,7382.46,-951.649,36.1359,61.5951,268.845,-1514.35,-9608.93,-2786.84,-3.20213,20.688,50.7491,-7651.15,7059.66,739.68,41.2329,128.259,119.702,808.779,-8879.85,-2912.04,-19.6146,22.7237,59.4357,7723.72,-1348.71,1604.15,18.1018,18.878,18.5859
4.944,4567.57,-835.186,8091.58,-76.8241,304.765,105.834,4549.12,2875.34,8029.41,-27.7098,-0.753779,17.0841,442.814,7426.41,-959.365,36.2442,61.6251,269.721,-1599.18,-9637.4,-2730.68,-3.0309,20.0314,50.7491,-7635.05,7014.7,754.828,41.4604,129.469,119.248,766.275,-8898.76,-2902.99,-19.7214,22.6126,59.5339,7724.87,-1345.07,1597.8,18.2939,18.5537,18.6407
4.9445,4630.26,-820.271,8114.65,-77.1924,305.022,106.442,4564.68,2809.82,8060.27,-27.4601,-1.24336,16.7591,408.201,7470.36,-967.081,36.3525,61.6552,270.596,-1684.01,-9665.86,-2674.52,-2.85967,19.3748,50.7492,-7618.94,6969.73,769.975,41.6879,130.678,118.793,723.77,-8917.67,-2893.94,-19.8282,22.5015,59.6321,7726.02,-1341.42,1591.46,18.486,18.2293,18.6955
4.945,4692.96,-805.357,8137.73,-77.5607,305.279,107.05,4580.24,2744.29,8091.13,-27.2104,-1.73294,16.4341,373.587,7514.32,-974.797,36.4607,61.6852,271.472,-1768.84,-9694.33,-2618.36,-2.68844,18.7181,50.7493,-7602.84,6924.77,785.123,41.9154,131.888,118.339,681.265,-8936.57,-2884.89,-19.9349,22.3904,59.7303,7727.16,-1337.78,1585.12,18.678,17.9049,18.7502
4.9455,4755.66,-790.442,8160.81,-77.9289,305.537,107.657,4595.79,2678.77,8121.99,-26.9607,-2.22252,16.1092,338.974,7558.27,-982.512,36.569,61.7153,272.347,-1853.67,-9722.8,-2562.2,-2.51721,18.0615,50.7493,-7586.74,6879.8,800.27,42.1428,133.097,117.885,638.76,-8955.48,-2875.84,-20.0417,22.2793,59.8285,7728.31,-1334.13,1578.77,18.8701,17.5806,18.805
4.946,4818.35,-775.528,8183.88,-78.2972,305.794,108.265,4611.35,2613.24,8152.84,-26.711,-2.7121,15.7842,304.361,7602.22,-990.228,36.6773,61.7453,273.223,-1938.5,-9751.26,-2506.04,-2.34598,17.4048,50.7494,-7570.63,6834.84,815.418,42.3703,134.307,117.431,596.255,-8974.39,-2866.79,-20.1485,22.1682,59.9267,7729.46,-1330.49,1572.43,19.0622,17.2562,18.8598
4.9465,4881.05,-760.613,8206.96,-78.6655,306.051,108.872,4626.91,2547.72,8183.7,-26.4613,-3.20168,15.4592,269.748,7646.18,-997.944,36.7855,61.7754,274.098,-2023.33,-9779.73,-2449.88,-2.17475,16.7482,50.7495,-7554.53,6789.88,830.565,42.5978,135.517,116.976,553.75,-8993.29,-2857.73,-20.2552,22.0571,60.0249,7730.61,-1326.84,1566.08,19.2543,16.9319,18.9145
4.947,4951.05,-746.802,8241.91,-79.0019,306.363,109.342,4652.69,2499.31,8189.66,-26.2219,-3.52473,15.1888,263.405,7699.36,-1001.02,36.8562,61.8395,275.039,-2096.66,-9802.55,-2395.73,-1.99326,15.9835,50.687,-7515.44,6743.73,853.354,42.732,136.631,116.37,511.091,-9017.21,-2841.32,-20.319,21.7869,60.1366,7735.81,-1316.21,1556.26,19.3352,16.6604,18.9825
4.9475,5024.7,-733.542,8282.79,-79.3222,306.701,109.744,4683.57,2459.46,8183.16,-25.9876,-3.76452,14.9457,271.195,7757.17,-1001.78,36.9082,61.9205,276.012,-2164.24,-9822.55,-2342.6,-1.80663,15.1647,50.5931,-7464.85,6696.99,879.963,42.8196,137.697,115.687,468.353,-9043.62,-2821.23,-20.3612,21.4371,60.255,7743.03,-1302.08,1544.69,19.3605,16.4154,19.057
4.948,5098.35,-720.282,8323.68,-79.6426,307.04,110.145,4714.45,2419.6,8176.67,-25.7533,-4.0043,14.7026,278.986,7814.97,-1002.54,36.9601,62.0016,276.986,-2231.83,-9842.55,-2289.46,-1.62,14.3459,50.4993,-7414.26,6650.26,906.572,42.9071,138.764,115.005,425.616,-9070.03,-2801.13,-20.4035,21.0873,60.3735,7750.26,-1287.96,1533.13,19.3858,16.1703,19.1316
4.9485,5172.0,-707.022,8364.56,-79.9629,307.378,110.547,4745.33,2379.75,8170.17,-25.519,-4.24409,14.4595,286.777,7872.78,-1003.3,37.012,62.0827,277.959,-2299.41,-9862.55,-2236.33,-1.43337,13.5272,50.4054,-7363.67,6603.52,933.181,42.9947,139.83,114.322,382.879,-9096.44,-2781.04,-20.4457,20.7375,60.4919,7757.48,-1273.83,1521.56,19.4111,15.9253,19.2061
4.949,5245.65,-693.762,8405.44,-80.2833,307.717,110.948,4776.21,2339.9,8163.68,-25.2847,-4.48388,14.2164,294.568,7930.58,-1004.05,37.064,62.1637,278.933,-2366.99,-9882.55,-2183.19,-1.24674,12.7084,50.3116,-7313.09,6556.78,959.791,43.0822,140.896,113.639,340.142,-9122.86,-2760.94,-20.4879,20.3878,60.6103,7764.71,-1259.71,1510.0,19.4364,15.6803,19.2807
4.9495,5319.3,-680.502,8446.33,-80.6036,308.055,111.35,4807.1,2300.05,8157.18,-25.0505,-4.72366,13.9733,302.359,7988.39,-1004.81,37.1159,62.2448,279.906,-2434.57,-9902.54,-2130.06,-1.06011,11.8896,50.2178,-7262.5,6510.05,986.4,43.1698,141.963,112.957,297.405,-9149.27,-2740.85,-20.5301,20.038,60.7288,7771.94,-1245.58,1498.43,19.4618,15.4352,19.3552
4.95,5392.95,-667.242,8487.21,-80.924,308.394,111.751,4837.98,2260.2,8150.69,-24.8162,-4.96345,13.7302,310.15,8046.19,-1005.57,37.1678,62.3259,280.88,-2502.15,-9922.54,-2076.92,-0.873481,11.0709,50.1239,-7211.91,6463.31,1013.01,43.2573,143.029,112.274,254.667,-9175.68,-2720.76,-20.5724,19.6882,60.8472,7779.16,-1231.45,1486.86,19.4871,15.1902,19.4298
4.9505,5466.6,-653.982,8528.1,-81.2443,308.733,112.153,4868.86,2220.35,8144.19,-24.5819,-5.20324,13.4871,317.941,8104.0,-1006.33,37.2197,62.4069,281.853,-2569.73,-9942.54,-2023.79,-0.686852,10.2521,50.0301,-7161.33,6416.57,1039.62,43.3449,144.096,111.591,211.93,-9202.09,-2700.66,-20.6146,19.3384,60.9657,7786.39,-1217.33,1475.3,19.5124,14.9452,19.5043
4.951,5540.25,-640.722,8568.98,-81.5647,309.071,112.554,4899.74,2180.5,8137.7,-24.3476,-5.44302,13.244,325.732,8161.8,-1007.08,37.2717,62.488,282.827,-2637.31,-9962.54,-1970.65,-0.500222,9.43336,49.9363,-7110.74,6369.84,1066.23,43.4324,145.162,110.909,169.193,-9228.51,-2680.57,-20.6568,18.9886,61.0841,7793.61,-1203.2,1463.73,19.5377,14.7001,19.5789
4.9515,5613.53,-653.251,8602.39,-81.7124,309.322,112.888,4917.83,2169.76,8126.26,-24.194,-5.45395,13.1785,319.56,8209.0,-1021.03,37.2854,62.7068,283.653,-2666.16,-9974.9,-1926.45,-0.40793,8.57023,49.8174,-7048.78,6340.61,1110.35,43.2739,146.224,110.338,128.111,-9260.01,-2640.48,-20.633,18.4587,61.2001,7795.57,-1183.36,1458.59,19.5772,14.4692,19.6429
4.952,5686.7,-673.149,8633.67,-81.8107,309.548,113.202,4932.25,2167.35,8113.42,-24.0635,-5.39948,13.1638,309.398,8253.17,-1038.75,37.2881,62.965,284.436,-2683.94,-9985.08,-1884.8,-0.342591,7.69443,49.6914,-6983.58,6316.39,1159.47,43.045,147.285,109.799,87.5028,-9292.96,-2594.69,-20.5902,17.8773,61.3154,7796.03,-1161.89,1455.28,19.6207,14.2423,19.7038
4.9525,5759.87,-693.047,8664.94,-81.9091,309.773,113.516,4946.68,2164.93,8100.58,-23.9329,-5.34502,13.1492,299.237,8297.34,-1056.47,37.2909,63.2232,285.22,-2701.72,-9995.26,-1843.14,-0.277252,6.81863,49.5654,-6918.37,6292.16,1208.59,42.8161,148.346,109.26,46.8942,-9325.92,-2548.89,-20.5474,17.2958,61.4308,7796.48,-1140.42,1451.97,19.6642,14.0153,19.7648
4.953,5833.04,-712.944,8696.22,-82.0075,309.999,113.83,4961.11,2162.52,8087.74,-23.8024,-5.29055,13.1345,289.075,8341.51,-1074.18,37.2936,63.4814,286.004,-2719.51,-10005.4,-1801.49,-0.211914,5.94283,49.4394,-6853.16,6267.94,1257.71,42.5873,149.407,108.721,6.2857,-9358.87,-2503.1,-20.5047,16.7144,61.5461,7796.94,-1118.95,1448.65,19.7078,13.7884,19.8257
4.9535,5906.22,-732.842,8727.49,-82.1058,310.225,114.144,4975.54,2160.1,8074.89,-23.6718,-5.23608,13.1198,278.913,8385.68,-1091.9,37.2964,63.7396,286.787,-2737.29,-10015.6,-1759.83,-0.146575,5.06703,49.3134,-6787.96,6243.71,1306.83,42.3584,150.468,108.181,-34.3228,-9391.83,-2457.31,-20.4619,16.133,61.6614,7797.39,-1097.48,1445.34,19.7513,13.5615,19.8867
4.954,5979.39,-752.74,8758.77,-82.2042,310.451,114.458,4989.96,2157.69,8062.05,-23.5413,-5.18162,13.1051,268.752,8429.85,-1109.61,37.2991,63.9978,287.571,-2755.07,-10025.8,-1718.18,-0.0812361,4.19123,49.1874,-6722.75,6219.49,1355.95,42.1295,151.529,107.642,-74.9314,-9424.78,-2411.51,-20.4191,15.5515,61.7767,7797.85,-1076.01,1442.03,19.7948,13.3346,19.9476
4.9545,6052.56,-772.638,8790.04,-82.3026,310.676,114.772,5004.39,2155.27,8049.21,-23.4107,-5.12715,13.0904,258.59,8474.02,-1127.33,37.3019,64.256,288.355,-2772.85,-10036.0,-1676.52,-0.0158974,3.31543,49.0613,-6657.54,6195.27,1405.07,41.9007,152.59,107.103,-115.54,-9457.73,-2365.72,-20.3764,14.9701,61.892,7798.3,-1054.54,1438.72,19.8383,13.1076,20.0086
4.955,6125.73,-792.535,8821.32,-82.4009,310.902,115.086,5018.82,2152.86,8036.36,-23.2802,-5.07269,13.0757,248.428,8518.19,-1145.05,37.3046,64.5142,289.138,-2790.63,-10046.1,-1634.87,0.0494414,2.43963,48.9353,-6592.34,6171.04,1454.2,41.6718,153.651,106.564,-156.148,-9490.69,-2319.92,-20.3336,14.3887,62.0074,7798.76,-1033.07,1435.41,19.8818,12.8807,20.0695
4.9555,6198.9,-812.433,8852.59,-82.4993,311.128,115.4,5033.25,2150.44,8023.52,-23.1496,-5.01822,13.0611,238.267,8562.36,-1162.76,37.3074,64.7724,289.922,-2808.42,-10056.3,-1593.22,0.11478,1.56383,48.8093,-6527.13,6146.82,1503.32,41.4429,154.712,106.025,-196.757,-9523.64,-2274.13,-20.2908,13.8073,62.1227,7799.22,-1011.6,1432.1,19.9253,12.6538,20.1305
4.956,6263.15,-832.621,8867.36,-82.4747,311.433,115.726,5045.49,2150.72,8021.58,-22.9721,-4.89382,13.1398,257.409,8626.32,-1168.59,37.342,65.2007,290.737,-2791.39,-10060.0,-1571.83,0.0365892,0.723654,48.726,-6452.6,6128.66,1556.7,40.916,155.894,105.633,-242.346,-9553.7,-2220.32,-20.2069,12.9354,62.2374,7814.77,-995.11,1413.86,19.9504,12.4416,20.1877
4.9565,6326.29,-852.844,8880.07,-82.4347,311.749,116.053,5057.47,2151.34,8021.01,-22.7888,-4.76068,13.2302,280.215,8692.76,-1172.93,37.3806,65.6503,291.556,-2770.0,-10062.9,-1552.99,-0.059543,-0.11207,48.6481,-6376.91,6111.26,1610.62,40.3519,157.091,105.26,-288.557,-9583.4,-2165.52,-20.1179,12.0271,62.3521,7832.21,-979.248,1393.76,19.9733,12.2312,20.2445
4.957,6389.43,-873.068,8892.78,-82.3947,312.064,116.38,5069.44,2151.96,8020.44,-22.6054,-4.62753,13.3207,303.021,8759.2,-1177.27,37.4191,66.0999,292.375,-2748.62,-10065.7,-1534.14,-0.155675,-0.947795,48.5702,-6301.22,6093.87,1664.54,39.7878,158.288,104.886,-334.768,-9613.09,-2110.71,-20.0289,11.1189,62.4668,7849.65,-963.386,1373.65,19.9961,12.0209,20.3013
4.9575,6452.57,-893.292,8905.49,-82.3547,312.379,116.708,5081.41,2152.58,8019.86,-22.422,-4.49439,13.4111,325.827,8825.64,-1181.61,37.4577,66.5495,293.194,-2727.24,-10068.6,-1515.29,-0.251807,-1.78352,48.4922,-6225.52,6076.47,1718.46,39.2237,159.484,104.512,-380.979,-9642.79,-2055.91,-19.9399,10.2107,62.5815,7867.09,-947.524,1353.55,20.0189,11.8105,20.3581
4.958,6515.7,-913.515,8918.2,-82.3147,312.694,117.035,5093.39,2153.2,8019.29,-22.2387,-4.36124,13.5015,348.633,8892.08,-1185.95,37.4963,66.9991,294.013,-2705.86,-10071.4,-1496.44,-0.347939,-2.61924,48.4143,-6149.83,6059.07,1772.38,38.6595,160.681,104.139,-427.19,-9672.49,-2001.1,-19.8508,9.30253,62.6962,7884.53,-931.662,1333.44,20.0417,11.6002,20.4149
4.9585,6578.84,-933.739,8930.91,-82.2747,313.01,117.362,5105.36,2153.82,8018.71,-22.0553,-4.2281,13.592,371.439,8958.53,-1190.29,37.5349,67.4487,294.832,-2684.48,-10074.3,-1477.59,-0.444072,-3.45497,48.3363,-6074.14,6041.67,1826.3,38.0954,161.878,103.765,-473.401,-9702.18,-1946.3,-19.7618,8.39433,62.8109,7901.97,-915.8,1313.33,20.0645,11.3898,20.4717
4.959,6641.98,-953.962,8943.62,-82.2347,313.325,117.69,5117.33,2154.44,8018.14,-21.872,-4.09495,13.6824,394.244,9024.96,-1194.63,37.5735,67.8982,295.651,-2663.09,-10077.2,-1458.74,-0.540204,-4.29069,48.2584,-5998.44,6024.27,1880.22,37.5313,163.075,103.392,-519.612,-9731.88,-1891.49,-19.6728,7.48612,62.9257,7919.41,-899.938,1293.23,20.0874,11.1795,20.5284
4.9595,6705.11,-974.186,8956.32,-82.1947,313.64,118.017,5129.31,2155.06,8017.56,-21.6886,-3.96181,13.7728,417.05,9091.41,-1198.97,37.6121,68.3478,296.47,-2641.71,-10080.0,-1439.9,-0.636336,-5.12642,48.1804,-5922.75,6006.88,1934.13,36.9671,164.272,103.018,-565.823,-9761.57,-1836.69,-19.5837,6.57792,63.0404,7936.85,-884.075,1273.12,20.1102,10.9691,20.5852
4.96,6768.25,-994.409,8969.03,-82.1546,313.956,118.344,5141.28,2155.68,8016.99,-21.5052,-3.82866,13.8632,439.856,9157.85,-1203.31,37.6507,68.7974,297.289,-2620.33,-10082.9,-1421.05,-0.732468,-5.96214,48.1025,-5847.06,5989.48,1988.05,36.403,165.468,102.645,-612.034,-9791.27,-1781.88,-19.4947,5.66971,63.1551,7954.29,-868.213,1253.02,20.133,10.7588,20.642
4.9605,6821.93,-989.486,8994.54,-81.9124,314.303,118.518,5098.89,2142.3,8048.38,-21.3439,-3.8763,13.86,449.458,9196.1,-1232.53,37.7257,69.4338,297.89,-2580.92,-10083.9,-1412.04,-0.914481,-6.68303,48.0023,-5772.33,5967.3,2029.59,35.6392,166.698,102.42,-671.033,-9808.07,-1726.06,-19.4431,4.54235,63.3201,7979.08,-848.102,1232.88,19.9487,10.6777,20.7462
4.961,6875.61,-984.563,9020.04,-81.6701,314.65,118.692,5056.49,2128.91,8079.77,-21.1825,-3.92393,13.8567,459.06,9234.35,-1261.75,37.8008,70.0701,298.491,-2541.51,-10084.9,-1403.02,-1.09649,-7.40392,47.9022,-5697.6,5945.13,2071.12,34.8754,167.929,102.194,-730.031,-9824.86,-1670.25,-19.3916,3.41498,63.4851,8003.87,-827.99,1212.75,19.7644,10.5967,20.8503
4.9615,6929.29,-979.64,9045.54,-81.4278,314.997,118.865,5014.1,2115.53,8111.17,-21.0211,-3.97157,13.8534,468.661,9272.6,-1290.97,37.8758,70.7065,299.092,-2502.11,-10086.0,-1394.01,-1.27851,-8.12481,47.802,-5622.87,5922.95,2112.66,34.1115,169.159,101.969,-789.03,-9841.66,-1614.43,-19.34,2.28762,63.6502,8028.65,-807.878,1192.62,19.5801,10.5156,20.9544
4.962,6982.97,-974.717,9071.05,-81.1855,315.344,119.039,4971.71,2102.15,8142.56,-20.8597,-4.0192,13.8501,478.263,9310.85,-1320.19,37.9508,71.3428,299.692,-2462.7,-10087.0,-1385.0,-1.46052,-8.84571,47.7018,-5548.14,5900.78,2154.2,33.3477,170.389,101.744,-848.029,-9858.46,-1558.62,-19.2885,1.16026,63.8152,8053.44,-787.766,1172.48,19.3958,10.4346,21.0586
4.9625,7036.65,-969.794,9096.55,-80.9432,315.691,119.212,4929.31,2088.77,8173.95,-20.6983,-4.06683,13.8468,487.865,9349.1,-1349.41,38.0259,71.9792,300.293,-2423.29,-10088.0,-1375.99,-1.64253,-9.5666,47.6017,-5473.41,5878.6,2195.73,32.5839,171.619,101.519,-907.027,-9875.26,-1502.8,-19.2369,0.0328943,63.9803,8078.23,-767.655,1152.35,19.2115,10.3536,21.1627
4.963,7090.33,-964.871,9122.05,-80.701,316.038,119.386,4886.92,2075.39,8205.34,-20.5369,-4.11447,13.8435,497.466,9387.35,-1378.63,38.1009,72.6155,300.894,-2383.88,-10089.0,-1366.98,-1.82455,-10.2875,47.5015,-5398.67,5856.42,2237.27,31.8201,172.849,101.294,-966.026,-9892.05,-1446.99,-19.1853,-1.09447,64.1453,8103.01,-747.543,1132.21,19.0272,10.2725,21.2668
4.9635,7144.01,-959.947,9147.56,-80.4587,316.385,119.56,4844.53,2062.01,8236.74,-20.3756,-4.1621,13.8402,507.068,9425.6,-1407.85,38.1759,73.2519,301.495,-2344.48,-10090.0,-1357.97,-2.00656,-11.0084,47.4013,-5323.94,5834.25,2278.8,31.0563,174.079,101.069,-1025.02,-9908.85,-1391.17,-19.1338,-2.22183,64.3103,8127.8,-727.431,1112.08,18.843,10.1915,21.371
4.964,7197.69,-955.024,9173.06,-80.2164,316.732,119.733,4802.14,2048.62,8268.13,-20.2142,-4.20974,13.8369,516.67,9463.85,-1437.07,38.2509,73.8883,302.096,-2305.07,-10091.1,-1348.96,-2.18857,-11.7293,47.3012,-5249.21,5812.07,2320.34,30.2924,175.309,100.843,-1084.02,-9925.65,-1335.36,-19.0822,-3.3492,64.4754,8152.58,-707.319,1091.95,18.6587,10.1104,21.4751
4.9645,7251.11,-948.089,9198.06,-79.977,317.08,119.915,4762.33,2036.46,8296.18,-20.0475,-4.27666,13.8183,524.888,9502.42,-1464.71,38.3245,74.5302,302.698,-2266.2,-10093.2,-1339.28,-2.36662,-12.4397,47.2025,-5178.26,5789.79,2361.07,29.5214,176.535,100.624,-1142.4,-9939.95,-1281.46,-19.0395,-4.48986,64.6385,8176.79,-689.487,1074.08,18.4597,10.0338,21.5773
4.965,7302.44,-925.06,9219.01,-79.7602,317.436,120.164,4743.24,2034.03,8297.53,-19.838,-4.49788,13.6765,522.037,9543.52,-1479.72,38.3863,75.2173,303.309,-2231.62,-10104.3,-1324.3,-2.51291,-13.0662,47.116,-5137.51,5766.67,2395.37,28.693,177.736,100.446,-1195.81,-9934.32,-1242.94,-19.0671,-5.73688,64.7858,8196.32,-689.893,1074.39,18.143,9.99304,21.6639
4.9655,7353.77,-902.03,9239.96,-79.5435,317.791,120.412,4724.14,2031.59,8298.88,-19.6286,-4.71911,13.5347,519.185,9584.63,-1494.74,38.448,75.9043,303.92,-2197.03,-10115.4,-1309.32,-2.6592,-13.6927,47.0294,-5096.76,5743.54,2429.67,27.8646,178.936,100.268,-1249.22,-9928.68,-1204.42,-19.0948,-6.9839,64.9332,8215.86,-690.3,1074.69,17.8263,9.95224,21.7505
4.966,7405.1,-879.001,9260.91,-79.3268,318.147,120.66,4705.05,2029.16,8300.23,-19.4192,-4.94033,13.3929,516.334,9625.73,-1509.75,38.5098,76.5913,304.531,-2162.45,-10126.5,-1294.34,-2.8055,-14.3192,46.9429,-5056.01,5720.42,2463.97,27.0362,180.136,100.091,-1302.63,-9923.04,-1165.91,-19.1224,-8.23092,65.0806,8235.4,-690.706,1075.0,17.5096,9.91144,21.8371
4.9665,7456.43,-855.972,9281.86,-79.1101,318.503,120.909,4685.95,2026.73,8301.58,-19.2098,-5.16155,13.2512,513.483,9666.83,-1524.76,38.5716,77.2784,305.142,-2127.87,-10137.6,-1279.36,-2.95179,-14.9457,46.8564,-5015.26,5697.29,2498.27,26.2078,181.336,99.9131,-1356.04,-9917.4,-1127.39,-19.1501,-9.47794,65.2279,8254.93,-691.112,1075.3,17.1929,9.87064,21.9237
4.967,7507.76,-832.942,9302.81,-78.8933,318.859,121.157,4666.86,2024.3,8302.93,-19.0004,-5.38278,13.1094,510.632,9707.94,-1539.77,38.6333,77.9654,305.753,-2093.29,-10148.7,-1264.38,-3.09808,-15.5723,46.7698,-4974.5,5674.17,2532.57,25.3794,182.536,99.7355,-1409.45,-9911.77,-1088.87,-19.1778,-10.725,65.3753,8274.47,-691.519,1075.61,16.8762,9.82983,22.0103
4.9675,7559.08,-809.913,9323.76,-78.6766,319.214,121.405,4647.77,2021.86,8304.28,-18.7909,-5.604,12.9676,507.781,9749.04,-1554.79,38.6951,78.6525,306.365,-2058.7,-10159.8,-1249.41,-3.24438,-16.1988,46.6833,-4933.75,5651.04,2566.87,24.551,183.737,99.5579,-1462.86,-9906.13,-1050.35,-19.2054,-11.972,65.5226,8294.01,-691.925,1075.91,16.5595,9.78903,22.0969
4.968,7610.41,-786.883,9344.71,-78.4599,319.57,121.654,4628.67,2019.43,8305.63,-18.5815,-5.82522,12.8258,504.929,9790.14,-1569.8,38.7568,79.3395,306.976,-2024.12,-10170.9,-1234.43,-3.39067,-16.8253,46.5967,-4893.0,5627.92,2601.17,23.7226,184.937,99.3803,-1516.27,-9900.49,-1011.83,-19.2331,-13.219,65.67,8313.54,-692.331,1076.22,16.2428,9.74823,22.1835
4.9685,7661.74,-763.854,9365.66,-78.2431,319.926,121.902,4609.58,2017.0,8306.98,-18.3721,-6.04645,12.6841,502.078,9831.25,-1584.81,38.8186,80.0265,307.587,-1989.54,-10182.0,-1219.45,-3.53696,-17.4518,46.5102,-4852.25,5604.79,2635.47,22.8941,186.137,99.2027,-1569.68,-9894.85,-973.312,-19.2607,-14.466,65.8174,8333.08,-692.737,1076.52,15.9262,9.70743,22.2701
4.969,7712.49,-741.21,9386.38,-78.0553,320.265,122.147,4595.81,2018.24,8304.46,-18.1741,-6.25086,12.5625,496.264,9875.62,-1602.37,38.877,80.7423,308.172,-1960.05,-10190.0,-1209.62,-3.6699,-18.0326,46.4205,-4818.28,5579.54,2666.88,22.1006,187.25,99.0373,-1620.93,-9892.23,-940.033,-19.2821,-15.6966,65.9616,8350.75,-690.657,1075.44,15.6122,9.6708,22.3488
4.9695,7761.21,-719.916,9406.3,-77.9684,320.547,122.38,4600.68,2032.36,8288.44,-18.0158,-6.39645,12.5116,480.081,9931.43,-1628.86,38.9236,81.5586,308.667,-1948.38,-10187.4,-1217.85,-3.75607,-18.4536,46.3198,-4808.03,5546.83,2688.16,21.4291,188.056,98.9149,-1664.63,-9900.18,-925.096,-19.2815,-16.8694,66.0947,8361.87,-679.876,1069.53,15.3075,9.64877,22.3999
4.97,7809.92,-698.622,9426.22,-77.8815,320.828,122.614,4605.55,2046.48,8272.42,-17.8576,-6.54203,12.4606,463.898,9987.24,-1655.35,38.9702,82.3749,309.163,-1936.71,-10184.7,-1226.08,-3.84224,-18.8746,46.2192,-4797.78,5514.13,2709.45,20.7576,188.862,98.7924,-1708.33,-9908.12,-910.159,-19.2809,-18.0422,66.2279,8373.0,-669.095,1063.62,15.0029,9.62673,22.451
4.9705,7858.63,-677.327,9446.15,-77.7946,321.11,122.847,4610.43,2060.59,8256.39,-17.6993,-6.68762,12.4097,447.715,10043.1,-1681.84,39.0168,83.1912,309.658,-1925.05,-10182.1,-1234.3,-3.92841,-19.2955,46.1185,-4787.52,5481.43,2730.73,20.0861,189.669,98.67,-1752.03,-9916.07,-895.221,-19.2803,-19.215,66.3611,8384.12,-658.314,1057.71,14.6983,9.60469,22.5021
4.971,7907.35,-656.033,9466.07,-77.7077,321.391,123.08,4615.3,2074.71,8240.37,-17.5411,-6.8332,12.3587,431.532,10098.9,-1708.33,39.0634,84.0075,310.153,-1913.38,-10179.4,-1242.53,-4.01458,-19.7165,46.0178,-4777.27,5448.73,2752.02,19.4146,190.475,98.5475,-1795.73,-9924.01,-880.284,-19.2797,-20.3879,66.4943,8395.25,-647.532,1051.8,14.3937,9.58265,22.5531
4.9715,7956.06,-634.739,9485.99,-77.6208,321.673,123.314,4620.17,2088.82,8224.35,-17.3829,-6.97879,12.3078,415.349,10154.7,-1734.81,39.11,84.8238,310.648,-1901.71,-10176.8,-1250.76,-4.10075,-20.1374,45.9171,-4767.02,5416.02,2773.3,18.7431,191.282,98.425,-1839.43,-9931.95,-865.347,-19.2791,-21.5607,66.6274,8406.37,-636.751,1045.89,14.089,9.56062,22.6042
4.972,8004.77,-613.445,9505.91,-77.5339,321.955,123.547,4625.04,2102.94,8208.32,-17.2246,-7.12437,12.2569,399.165,10210.5,-1761.3,39.1566,85.6401,311.143,-1890.05,-10174.1,-1258.98,-4.18692,-20.5584,45.8165,-4756.77,5383.32,2794.59,18.0716,192.088,98.3026,-1883.13,-9939.9,-850.409,-19.2785,-22.7335,66.7606,8417.49,-625.97,1039.98,13.7844,9.53858,22.6553
4.9725,8053.49,-592.151,9525.84,-77.447,322.236,123.78,4629.91,2117.06,8192.3,-17.0664,-7.26996,12.2059,382.982,10266.3,-1787.79,39.2032,86.4564,311.639,-1878.38,-10171.4,-1267.21,-4.2731,-20.9794,45.7158,-4746.52,5350.62,2815.87,17.4001,192.894,98.1801,-1926.83,-9947.84,-835.472,-19.2779,-23.9063,66.8938,8428.62,-615.188,1034.07,13.4798,9.51654,22.7064
4.973,8102.2,-570.856,9545.76,-77.3601,322.518,124.014,4634.79,2131.17,8176.28,-16.9082,-7.41554,12.155,366.799,10322.1,-1814.28,39.2498,87.2727,312.134,-1866.71,-10168.8,-1275.44,-4.35927,-21.4003,45.6151,-4736.27,5317.91,2837.16,16.7286,193.701,98.0577,-1970.53,-9955.79,-820.535,-19.2773,-25.0792,67.027,8439.74,-604.407,1028.16,13.1752,9.4945,22.7575
4.9735,8151.92,-541.698,9564.12,-77.2891,322.791,124.232,4645.17,2142.69,8163.88,-16.7833,-7.49006,12.1235,342.523,10373.5,-1833.16,39.2679,88.0487,312.606,-1855.48,-10162.8,-1287.13,-4.4575,-21.7554,45.5301,-4729.95,5281.83,2849.56,16.1689,194.235,97.9175,-2009.33,-9965.33,-805.75,-19.2339,-26.2002,67.147,8453.74,-594.923,1020.26,12.8952,9.45502,22.8077
4.974,8203.65,-496.812,9579.34,-77.2496,323.048,124.42,4666.59,2149.03,8158.75,-16.7253,-7.42245,12.1307,302.06,10416.0,-1836.83,39.2293,88.744,313.031,-1845.09,-10150.1,-1305.74,-4.57987,-21.9786,45.4763,-4731.5,5238.96,2844.19,15.8325,194.224,97.742,-2038.35,-9978.1,-791.272,-19.1048,-27.2177,67.2405,8473.49,-588.032,1008.42,12.6647,9.38063,22.8563
4.9745,8255.38,-451.926,9594.56,-77.2102,323.305,124.609,4688.0,2155.36,8153.62,-16.6672,-7.35483,12.138,261.598,10458.6,-1840.5,39.1906,89.4393,313.456,-1834.71,-10137.3,-1324.36,-4.70225,-22.2018,45.4226,-4733.05,5196.1,2838.82,15.4962,194.213,97.5665,-2067.38,-9990.86,-776.794,-18.9758,-28.2352,67.3341,8493.24,-581.14,996.568,12.4342,9.30625,22.9049
4.975,8307.11,-407.04,9609.79,-77.1708,323.562,124.797,4709.42,2161.69,8148.48,-16.6092,-7.28721,12.1452,221.135,10501.1,-1844.17,39.1519,90.1346,313.881,-1824.32,-10124.6,-1342.97,-4.82462,-22.425,45.3689,-4734.6,5153.24,2833.46,15.1598,194.202,97.391,-2096.4,-10003.6,-762.316,-18.8467,-29.2527,67.4277,8512.99,-574.249,984.719,12.2036,9.23186,22.9535
4.9755,8358.83,-362.155,9625.01,-77.1313,323.818,124.985,4730.83,2168.03,8143.35,-16.5511,-7.2196,12.1525,180.672,10543.7,-1847.84,39.1132,90.8299,314.306,-1813.94,-10111.9,-1361.59,-4.94699,-22.6482,45.3152,-4736.15,5110.38,2828.09,14.8234,194.191,97.2154,-2125.42,-10016.4,-747.838,-18.7176,-30.2702,67.5213,8532.74,-567.358,972.871,11.9731,9.15747,23.002
4.976,8410.56,-317.269,9640.23,-77.0919,324.075,125.174,4752.24,2174.36,8138.21,-16.4931,-7.15198,12.1598,140.21,10586.2,-1851.51,39.0745,91.5252,314.732,-1803.55,-10099.2,-1380.2,-5.06936,-22.8714,45.2615,-4737.7,5067.52,2822.72,14.4871,194.18,97.0399,-2154.44,-10029.1,-733.36,-18.5886,-31.2877,67.6149,8552.49,-560.467,961.022,11.7426,9.08309,23.0506
4.9765,8462.29,-272.383,9655.46,-77.0525,324.332,125.362,4773.66,2180.69,8133.08,-16.435,-7.08436,12.167,99.7472,10628.7,-1855.18,39.0359,92.2205,315.157,-1793.17,-10086.5,-1398.82,-5.19173,-23.0947,45.2077,-4739.25,5024.66,2817.36,14.1507,194.169,96.8644,-2183.46,-10041.9,-718.882,-18.4595,-32.3052,67.7084,8572.24,-553.576,949.174,11.512,9.0087,23.0992
4.977,8514.02,-227.497,9670.68,-77.0131,324.589,125.551,4795.07,2187.02,8127.95,-16.377,-7.01675,12.1743,59.2846,10671.3,-1858.85,38.9972,92.9158,315.582,-1782.78,-10073.7,-1417.43,-5.3141,-23.3179,45.154,-4740.81,4981.79,2811.99,13.8144,194.158,96.6889,-2212.48,-10054.7,-704.404,-18.3305,-33.3227,67.802,8591.99,-546.685,937.325,11.2815,8.93432,23.1477
4.9775,8565.75,-182.611,9685.9,-76.9736,324.846,125.739,4816.49,2193.36,8122.81,-16.3189,-6.94913,12.1815,18.8219,10713.8,-1862.52,38.9585,93.6111,316.007,-1772.4,-10061.0,-1436.05,-5.43647,-23.5411,45.1003,-4742.36,4938.93,2806.62,13.478,194.148,96.5134,-2241.51,-10067.4,-689.926,-18.2014,-34.3402,67.8956,8611.75,-539.794,925.477,11.051,8.85993,23.1963
4.978,8621.39,-143.738,9708.39,-76.992,325.028,125.926,4833.06,2197.17,8118.55,-16.2682,-6.89941,12.1996,-13.6923,10773.0,-1856.58,38.8584,94.3035,316.349,-1756.01,-10042.2,-1448.77,-5.56629,-23.6989,45.0541,-4743.49,4891.89,2788.13,13.2957,193.669,96.2663,-2250.65,-10076.5,-682.279,-18.0085,-35.2784,67.969,8631.79,-538.534,918.518,10.8477,8.8038,23.2327
4.9785,8681.92,-112.381,9739.96,-77.0825,325.116,126.112,4843.57,2197.82,8115.37,-16.2266,-6.87207,12.2311,-36.271,10853.1,-1838.62,38.6814,94.9924,316.585,-1732.11,-10015.8,-1454.12,-5.70542,-23.775,45.0174,-4744.09,4839.62,2753.24,13.3059,192.607,95.9298,-2234.96,-10081.0,-683.172,-17.736,-36.1175,68.017,8652.2,-544.312,917.67,10.6784,8.77048,23.2538
4.979,8742.45,-81.0238,9771.52,-77.173,325.204,126.298,4854.09,2198.47,8112.19,-16.1851,-6.84473,12.2626,-58.8498,10933.2,-1820.66,38.5045,95.6812,316.822,-1708.21,-9989.32,-1459.48,-5.84455,-23.8511,44.9806,-4744.69,4787.35,2718.35,13.3161,191.545,95.5933,-2219.27,-10085.5,-684.065,-17.4634,-36.9566,68.0651,8672.61,-550.089,916.822,10.5092,8.73715,23.275
4.9795,8802.98,-49.6668,9803.08,-77.2635,325.292,126.484,4864.6,2199.12,8109.01,-16.1435,-6.81739,12.2941,-81.4286,11013.3,-1802.7,38.3276,96.37,317.058,-1684.31,-9962.88,-1464.83,-5.98368,-23.9273,44.9438,-4745.29,4735.08,2683.46,13.3263,190.483,95.2568,-2203.57,-10089.9,-684.957,-17.1908,-37.7957,68.1132,8693.02,-555.867,915.975,10.34,8.70383,23.2961
4.98,8863.51,-18.3098,9834.65,-77.3541,325.38,126.67,4875.12,2199.77,8105.83,-16.1019,-6.79005,12.3256,-104.007,11093.4,-1784.74,38.1506,97.0588,317.295,-1660.42,-9936.44,-1470.18,-6.12281,-24.0034,44.9071,-4745.9,4682.81,2648.57,13.3365,189.421,94.9202,-2187.88,-10094.4,-685.85,-16.9183,-38.6349,68.1613,8713.43,-561.645,915.127,10.1707,8.67051,23.3173
4.9805,8924.04,13.0472,9866.21,-77.4446,325.468,126.856,4885.63,2200.42,8102.65,-16.0604,-6.7627,12.3572,-126.586,11173.5,-1766.78,37.9737,97.7477,317.531,-1636.52,-9910.0,-1475.54,-6.26194,-24.0795,44.8703,-4746.5,4630.54,2613.68,13.3467,188.359,94.5837,-2172.18,-10098.9,-686.743,-16.6457,-39.474,68.2094,8733.84,-567.422,914.279,10.0015,8.63719,23.3384
4.981,8984.57,44.4042,9897.78,-77.5351,325.556,127.042,4896.14,2201.07,8099.47,-16.0188,-6.73536,12.3887,-149.165,11253.6,-1748.82,37.7967,98.4365,317.768,-1612.62,-9883.56,-1480.89,-6.40107,-24.1556,44.8335,-4747.1,4578.26,2578.79,13.3569,187.297,94.2472,-2156.49,-10103.4,-687.636,-16.3731,-40.3131,68.2575,8754.25,-573.2,913.431,9.83227,8.60386,23.3596
4.9815,9045.1,75.7612,9929.34,-77.6257,325.644,127.228,4906.66,2201.72,8096.29,-15.9773,-6.70802,12.4202,-171.744,11333.7,-1730.86,37.6198,99.1253,318.004,-1588.72,-9857.12,-1486.25,-6.54021,-24.2317,44.7968,-4747.7,4525.99,2543.9,13.3671,186.235,93.9107,-2140.8,-10107.9,-688.528,-16.1006,-41.1522,68.3056,8774.67,-578.978,912.584,9.66304,8.57054,23.3807
4.982,9105.63,107.118,9960.91,-77.7162,325.732,127.414,4917.17,2202.38,8093.11,-15.9357,-6.68068,12.4517,-194.322,11413.8,-1712.9,37.4429,99.8141,318.241,-1564.82,-9830.67,-1491.6,-6.67934,-24.3078,44.76,-4748.31,4473.72,2509.0,13.3773,185.172,93.5742,-2125.1,-10112.4,-689.421,-15.828,-41.9914,68.3537,8795.08,-584.755,911.736,9.49381,8.53722,23.4019
4.9825,9161.32,120.352,9992.57,-77.9332,325.757,127.542,4923.52,2190.99,8083.14,-15.914,-6.65422,12.4288,-226.199,11472.8,-1685.44,37.3018,100.474,318.511,-1542.83,-9804.59,-1500.47,-6.79864,-24.2906,44.7488,-4746.31,4424.58,2471.82,13.6061,183.511,93.1913,-2085.52,-10114.5,-696.263,-15.5441,-42.6526,68.3831,8813.53,-583.359,910.539,9.33379,8.51852,23.4022
4.983,9213.13,119.088,10024.3,-78.2514,325.733,127.625,4926.54,2169.98,8067.74,-15.9081,-6.62846,12.3622,-265.514,11515.1,-1650.39,37.1894,101.11,318.809,-1522.37,-9778.8,-1512.16,-6.90209,-24.1988,44.758,-4742.23,4377.93,2432.81,14.0098,181.369,92.7712,-2026.82,-10114.7,-707.863,-15.2513,-43.1715,68.3976,8830.41,-576.223,909.064,9.18113,8.51153,23.386
4.9835,9264.94,117.823,10056.0,-78.5697,325.708,127.707,4929.56,2148.96,8052.33,-15.9023,-6.60271,12.2957,-304.83,11557.3,-1615.34,37.0771,101.746,319.107,-1501.91,-9753.01,-1523.84,-7.00554,-24.107,44.7672,-4738.16,4331.28,2393.79,14.4135,179.227,92.3511,-1968.12,-10115.0,-719.464,-14.9584,-43.6903,68.412,8847.29,-569.087,907.589,9.02848,8.50453,23.3697
4.984,9316.75,116.559,10087.8,-78.8879,325.684,127.79,4932.57,2127.95,8036.93,-15.8964,-6.57695,12.2292,-344.145,11599.6,-1580.28,36.9647,102.382,319.404,-1481.46,-9727.21,-1535.53,-7.10899,-24.0152,44.7764,-4734.08,4284.63,2354.78,14.8171,177.085,91.931,-1909.43,-10115.2,-731.065,-14.6655,-44.2092,68.4265,8864.16,-561.951,906.113,8.87582,8.49754,23.3534
4.9845,9368.56,115.295,10119.5,-79.2061,325.659,127.872,4935.59,2106.93,8021.53,-15.8906,-6.5512,12.1626,-383.46,11641.8,-1545.23,36.8523,103.018,319.702,-1461.0,-9701.42,-1547.21,-7.21244,-23.9235,44.7855,-4730.01,4237.99,2315.76,15.2208,174.944,91.5109,-1850.73,-10115.5,-742.666,-14.3726,-44.7281,68.441,8881.04,-554.816,904.638,8.72317,8.49054,23.3371
4.985,9420.37,114.03,10151.2,-79.5244,325.634,127.955,4938.6,2085.92,8006.12,-15.8847,-6.52544,12.0961,-422.775,11684.1,-1510.17,36.74,103.654,320.0,-1440.54,-9675.63,-1558.89,-7.31589,-23.8317,44.7947,-4725.93,4191.34,2276.75,15.6245,172.802,91.0908,-1792.03,-10115.7,-754.266,-14.0797,-45.247,68.4554,8897.92,-547.68,903.162,8.57052,8.48355,23.3208
4.9855,9472.18,112.766,10183.0,-79.8426,325.61,128.037,4941.62,2064.9,7990.72,-15.8789,-6.49969,12.0296,-462.091,11726.3,-1475.12,36.6276,104.29,320.298,-1420.08,-9649.83,-1570.58,-7.41934,-23.7399,44.8039,-4721.85,4144.69,2237.73,16.0281,170.66,90.6707,-1733.34,-10116.0,-765.867,-13.7868,-45.7659,68.4699,8914.8,-540.544,901.687,8.41786,8.47655,23.3045
4.986,9524.0,111.502,10214.7,-80.1608,325.585,128.12,4944.64,2043.89,7975.32,-15.873,-6.47393,11.963,-501.406,11768.6,-1440.07,36.5152,104.926,320.595,-1399.62,-9624.04,-1582.26,-7.52279,-23.6481,44.8131,-4717.78,4098.04,2198.72,16.4318,168.518,90.2506,-1674.64,-10116.3,-777.468,-13.4939,-46.2848,68.4844,8931.68,-533.408,900.211,8.26521,8.46956,23.2883
4.9865,9575.81,110.237,10246.4,-80.479,325.561,128.202,4947.65,2022.87,7959.92,-15.8672,-6.44818,11.8965,-540.721,11810.8,-1405.01,36.4029,105.562,320.893,-1379.16,-9598.24,-1593.95,-7.62624,-23.5563,44.8223,-4713.7,4051.4,2159.7,16.8355,166.377,89.8305,-1615.95,-10116.5,-789.069,-13.201,-46.8036,68.4989,8948.56,-526.272,898.736,8.11255,8.46256,23.272
4.987,9641.29,101.439,10270.6,-80.6512,325.525,128.255,4929.35,2038.57,7947.59,-15.8973,-6.38905,11.867,-555.398,11872.0,-1392.85,36.3157,106.158,321.141,-1357.71,-9584.36,-1602.88,-7.72759,-23.3796,44.8921,-4719.79,4024.47,2117.6,17.5324,163.729,89.4091,-1547.04,-10105.7,-795.136,-12.919,-47.0997,68.4653,8961.49,-529.02,887.934,7.95675,8.44469,23.248
4.9875,9713.6,88.8744,10291.0,-80.7504,325.483,128.294,4900.38,2072.62,7936.8,-15.9454,-6.31324,11.8561,-557.756,11942.6,-1392.14,36.241,106.734,321.365,-1335.76,-9576.44,-1610.43,-7.82789,-23.1605,44.9922,-4730.95,4007.41,2073.97,18.3759,160.828,88.9871,-1473.04,-10089.3,-798.438,-12.6424,-47.2842,68.4077,8972.45,-536.71,872.469,7.79938,8.42137,23.2203
4.988,9785.91,76.3096,10311.4,-80.8495,325.441,128.333,4871.41,2106.67,7926.01,-15.9935,-6.23743,11.8451,-560.113,12013.1,-1391.43,36.1664,107.309,321.589,-1313.82,-9568.51,-1617.98,-7.92819,-22.9415,45.0924,-4742.11,3990.36,2030.33,19.2195,157.927,88.565,-1399.03,-10072.9,-801.739,-12.3658,-47.4688,68.3501,8983.4,-544.399,857.005,7.64201,8.39806,23.1925
4.9885,9858.22,63.7448,10331.8,-80.9487,325.4,128.372,4842.44,2140.72,7915.23,-16.0416,-6.16162,11.8341,-562.471,12083.7,-1390.72,36.0917,107.885,321.813,-1291.87,-9560.59,-1625.53,-8.0285,-22.7224,45.1925,-4753.27,3973.3,1986.69,20.063,155.026,88.143,-1325.03,-10056.5,-805.04,-12.0892,-47.6534,68.2926,8994.36,-552.089,841.54,7.48463,8.37474,23.1648
4.989,9930.54,51.18,10352.2,-81.0478,325.358,128.41,4813.48,2174.77,7904.44,-16.0897,-6.08581,11.8232,-564.829,12154.3,-1390.01,36.0171,108.461,322.036,-1269.92,-9552.66,-1633.08,-8.1288,-22.5033,45.2926,-4764.44,3956.24,1943.06,20.9066,152.126,87.7209,-1251.02,-10040.1,-808.341,-11.8127,-47.838,68.235,9005.31,-559.778,826.076,7.32726,8.35143,23.137
4.9895,10002.9,38.6152,10372.6,-81.147,325.316,128.449,4784.51,2208.81,7893.65,-16.1378,-6.01,11.8122,-567.186,12224.9,-1389.29,35.9424,109.036,322.26,-1247.98,-9544.74,-1640.63,-8.2291,-22.2842,45.3927,-4775.6,3939.18,1899.42,21.7501,149.225,87.2989,-1177.02,-10023.7,-811.643,-11.5361,-48.0226,68.1774,9016.27,-567.468,810.611,7.16989,8.32811,23.1093
4.99,10075.2,26.0504,10393.0,-81.2461,325.275,128.488,4755.54,2242.86,7882.86,-16.1859,-5.93419,11.8012,-569.544,12295.5,-1388.58,35.8678,109.612,322.484,-1226.03,-9536.81,-1648.19,-8.3294,-22.0651,45.4929,-4786.76,3922.12,1855.78,22.5937,146.324,86.8768,-1103.02,-10007.3,-814.944,-11.2595,-48.2071,68.1198,9027.23,-575.158,795.146,7.01252,8.3048,23.0815
4.9905,10147.5,13.4856,10413.4,-81.3453,325.233,128.527,4726.57,2276.91,7872.07,-16.234,-5.85838,11.7903,-571.902,12366.1,-1387.87,35.7931,110.188,322.708,-1204.08,-9528.88,-1655.74,-8.42971,-21.8461,45.593,-4797.93,3905.06,1812.15,23.4372,143.423,86.4548,-1029.01,-9990.92,-818.245,-10.9829,-48.3917,68.0623,9038.18,-582.847,779.682,6.85514,8.28148,23.0537
4.991,10219.8,0.920814,10433.8,-81.4444,325.191,128.565,4697.61,2310.96,7861.29,-16.2821,-5.78257,11.7793,-574.26,12436.7,-1387.16,35.7185,110.763,322.931,-1182.14,-9520.96,-1663.29,-8.53001,-21.627,45.6931,-4809.09,3888.0,1768.51,24.2807,140.522,86.0327,-955.006,-9974.53,-821.547,-10.7063,-48.5763,68.0047,9049.13,-590.537,764.217,6.69777,8.25817,23.026
4.9915,10284.7,-56.8072,10474.8,-81.2462,325.278,128.685,4692.77,2331.16,7859.44,-16.4115,-5.77668,11.7391,-588.788,12487.1,-1393.03,35.6906,111.41,323.163,-1159.06,-9523.75,-1675.14,-8.60793,-21.3525,45.8431,-4824.97,3867.46,1715.85,25.3555,137.436,85.6059,-875.886,-9963.72,-827.013,-10.5328,-48.5457,67.9723,9052.95,-596.568,747.028,6.50139,8.24631,22.9721
4.992,10347.4,-127.439,10521.7,-80.9631,325.401,128.827,4694.82,2347.41,7860.14,-16.5641,-5.79075,11.6905,-606.793,12531.8,-1400.78,35.6759,112.077,323.396,-1135.67,-9529.61,-1688.23,-8.67945,-21.0622,46.0074,-4842.2,3845.93,1660.61,26.4963,134.296,85.1778,-795.305,-9954.5,-833.098,-10.3888,-48.4535,67.9472,9054.72,-602.126,729.345,6.29387,8.23773,22.9108
4.9925,10410.2,-198.071,10568.7,-80.6799,325.524,128.97,4696.87,2363.65,7860.84,-16.7167,-5.80483,11.6419,-624.799,12576.6,-1408.53,35.6613,112.744,323.63,-1112.28,-9535.47,-1701.31,-8.75097,-20.7719,46.1717,-4859.43,3824.39,1605.37,27.6371,131.156,84.7496,-714.723,-9945.27,-839.183,-10.2447,-48.3613,67.922,9056.5,-607.683,711.662,6.08635,8.22914,22.8495
4.993,10472.9,-268.703,10615.6,-80.3968,325.647,129.112,4698.92,2379.9,7861.55,-16.8693,-5.81891,11.5933,-642.804,12621.3,-1416.27,35.6467,113.411,323.863,-1088.88,-9541.33,-1714.39,-8.8225,-20.4817,46.336,-4876.65,3802.86,1550.13,28.7779,128.017,84.3215,-634.141,-9936.05,-845.267,-10.1007,-48.2692,67.8968,9058.27,-613.241,693.98,5.87883,8.22056,22.7882
4.9935,10535.7,-339.334,10662.5,-80.1136,325.77,129.255,4700.98,2396.14,7862.25,-17.0219,-5.83298,11.5447,-660.81,12666.0,-1424.02,35.6321,114.078,324.097,-1065.49,-9547.19,-1727.48,-8.89402,-20.1914,46.5003,-4893.88,3781.32,1494.89,29.9187,124.877,83.8933,-553.56,-9926.83,-851.352,-9.9566,-48.177,67.8716,9060.04,-618.798,676.297,5.67131,8.21197,22.7269
4.994,10598.4,-409.966,10709.5,-79.8305,325.893,129.398,4703.03,2412.39,7862.95,-17.1745,-5.84706,11.4961,-678.815,12710.7,-1431.77,35.6175,114.745,324.33,-1042.1,-9553.05,-1740.56,-8.96554,-19.9011,46.6645,-4911.11,3759.79,1439.65,31.0596,121.737,83.4652,-472.978,-9917.6,-857.437,-9.81255,-48.0849,67.8465,9061.82,-624.356,658.615,5.46379,8.20339,22.6656
4.9945,10661.2,-480.598,10756.4,-79.5473,326.015,129.54,4705.08,2428.64,7863.66,-17.3271,-5.86114,11.4475,-696.821,12755.4,-1439.52,35.6029,115.412,324.564,-1018.7,-9558.91,-1753.64,-9.03707,-19.6108,46.8288,-4928.34,3738.25,1384.41,32.2004,118.598,83.037,-392.396,-9908.38,-863.522,-9.66849,-47.9927,67.8213,9063.59,-629.913,640.932,5.25627,8.1948,22.6043
4.995,10723.9,-551.23,10803.3,-79.2642,326.138,129.683,4707.13,2444.88,7864.36,-17.4797,-5.87521,11.3989,-714.826,12800.1,-1447.27,35.5883,116.08,324.797,-995.311,-9564.77,-1766.73,-9.10859,-19.3205,46.9931,-4945.57,3716.72,1329.17,33.3412,115.458,82.6088,-311.814,-9899.16,-869.607,-9.52443,-47.9006,67.7961,9065.37,-635.471,623.25,5.04875,8.18622,22.543
4.9955,10786.7,-621.862,10850.2,-78.981,326.261,129.825,4709.19,2461.13,7865.06,-17.6324,-5.88929,11.3503,-732.832,12844.8,-1455.02,35.5737,116.747,325.031,-971.918,-9570.63,-1779.81,-9.18011,-19.0302,47.1574,-4962.79,3695.19,1273.93,34.482,112.318,82.1807,-231.233,-9889.93,-875.692,-9.38038,-47.8084,67.771,9067.14,-641.029,605.567,4.84123,8.17763,22.4817
4.996,10844.0,-662.059,10902.1,-78.4815,326.345,129.984,4713.55,2477.47,7861.94,-17.6498,-5.86093,11.3884,-749.239,12923.8,-1451.23,35.6504,117.292,325.282,-939.347,-9569.29,-1790.17,-9.25096,-18.6411,47.3462,-4986.97,3690.11,1248.25,35.5442,109.301,81.817,-146.963,-9885.25,-888.68,-9.25347,-47.5608,67.7338,9071.46,-644.701,599.267,4.77037,8.17668,22.4157
4.9965,10900.7,-698.452,10954.6,-77.9548,326.424,130.145,4718.21,2493.82,7858.33,-17.6504,-5.82727,11.4373,-765.446,13007.0,-1445.99,35.7386,117.823,325.535,-905.629,-9567.05,-1800.19,-9.32172,-18.2396,47.538,-5012.01,3687.1,1226.27,36.5966,106.298,81.4614,-62.2314,-9881.14,-902.532,-9.1287,-47.2937,67.6951,9076.1,-648.139,594.389,4.7166,8.17668,22.3491
4.997,10957.4,-734.845,11007.1,-77.4282,326.504,130.306,4722.87,2510.18,7854.73,-17.6509,-5.79361,11.4862,-781.653,13090.2,-1440.76,35.8267,118.354,325.788,-871.911,-9564.8,-1810.21,-9.39248,-17.8381,47.7299,-5037.05,3684.09,1204.3,37.649,103.296,81.1058,22.4997,-9877.02,-916.384,-9.00394,-47.0266,67.6565,9080.74,-651.576,589.511,4.66282,8.17668,22.2825
4.9975,11014.0,-771.238,11059.6,-76.9016,326.583,130.467,4727.53,2526.53,7851.13,-17.6514,-5.75995,11.5351,-797.86,13173.5,-1435.53,35.9149,118.884,326.041,-838.193,-9562.56,-1820.24,-9.46324,-17.4366,47.9217,-5062.09,3681.07,1182.32,38.7013,100.294,80.7501,107.231,-9872.91,-930.235,-8.87917,-46.7595,67.6178,9085.38,-655.013,584.633,4.60904,8.17668,22.2159
4.998,11070.7,-807.631,11112.0,-76.375,326.662,130.627,4732.19,2542.88,7847.52,-17.652,-5.72629,11.584,-814.068,13256.7,-1430.3,36.003,119.415,326.294,-804.475,-9560.32,-1830.26,-9.53401,-17.0351,48.1136,-5087.13,3678.06,1160.34,39.7537,97.2917,80.3945,191.962,-9868.79,-944.087,-8.75441,-46.4924,67.5791,9090.02,-658.45,579.755,4.55527,8.17668,22.1493
4.9985,11127.4,-844.024,11164.5,-75.8484,326.741,130.788,4736.85,2559.24,7843.92,-17.6525,-5.69263,11.6329,-830.275,13340.0,-1425.07,36.0912,119.946,326.547,-770.757,-9558.08,-1840.28,-9.60477,-16.6336,48.3054,-5112.17,3675.05,1138.36,40.8061,94.2894,80.0389,276.693,-9864.68,-957.939,-8.62964,-46.2253,67.5405,9094.66,-661.887,574.877,4.50149,8.17668,22.0827
4.999,11184.0,-880.417,11217.0,-75.3217,326.82,130.949,4741.51,2575.59,7840.31,-17.6531,-5.65897,11.6818,-846.482,13423.2,-1419.84,36.1793,120.476,326.801,-737.039,-9555.84,-1850.3,-9.67553,-16.2322,48.4973,-5137.21,3672.03,1116.38,41.8585,91.2871,79.6833,361.424,-9860.56,-971.79,-8.50488,-45.9582,67.5018,9099.3,-665.325,569.999,4.44771,8.17668,22.0161
4.9995,11240.7,-916.81,11269.5,-74.7951,326.899,131.11,4746.16,2591.95,7836.71,-17.6536,-5.62531,11.7307,-862.689,13506.4,-1414.61,36.2675,121.007,327.054,-703.321,-9553.6,-1860.32,-9.74629,-15.8307,48.6891,-5162.25,3669.02,1094.41,42.9108,88.2848,79.3277,446.155,-9856.45,-985.642,-8.38011,-45.6911,67.4632,9103.94,-668.762,565.121,4.39394,8.17668,21.9496
5.0,11297.4,-953.202,11322.0,-74.2685,326.978,131.271,4750.82,2608.3,7833.1,-17.6542,-5.59165,11.7796,-878.896,13589.7,-1409.38,36.3556,121.538,327.307,-669.603,-9551.35,-1870.35,-9.81705,-15.4292,48.881,-5187.29,3666.01,1072.43,43.9632,85.2826,78.972,530.887,-9852.33,-999.494,-8.25535,-45.424,67.4245,9108.58,-672.199,560.243,4.34016,8.17668,21.883
5.0005,11330.2,-945.125,11386.6,-73.6129,326.913,131.675,4732.31,2628.56,7836.05,-17.8318,-5.56249,11.8482,-888.411,13660.5,-1405.37,36.511,121.978,327.594,-652.569,-9545.0,-1894.79,-9.91428,-14.8416,49.1073,-5231.85,3693.17,1044.37,44.7522,82.7816,78.8703,603.382,-9840.01,-1018.11,-8.13796,-45.0495,67.3888,9109.45,-695.322,557.917,4.25228,8.17174,21.8007
5.001,11362.9,-937.047,11451.3,-72.9574,326.847,132.08,4713.8,2648.81,7839.0,-18.0093,-5.53333,11.9167,-897.925,13731.4,-1401.36,36.6664,122.419,327.881,-635.535,-9538.66,-1919.23,-10.0115,-14.2539,49.3337,-5276.42,3720.33,1016.3,45.5411,80.2806,78.7685,675.877,-9827.69,-1036.73,-8.02057,-44.6749,67.3532,9110.33,-718.446,555.591,4.1644,8.1668,21.7185
5.0015,11395.7,-928.969,11515.9,-72.3018,326.781,132.484,4695.28,2669.07,7841.95,-18.1869,-5.50416,11.9853,-907.439,13802.2,-1397.35,36.8217,122.86,328.168,-618.501,-9532.31,-1943.67,-10.1087,-13.6663,49.56,-5320.98,3747.5,988.24,46.3301,77.7796,78.6667,748.372,-9815.36,-1055.34,-7.90318,-44.3004,67.3175,9111.2,-741.57,553.264,4.07651,8.16186,21.6363
5.002,11428.5,-920.891,11580.5,-71.6463,326.715,132.889,4676.77,2689.32,7844.89,-18.3645,-5.475,12.0538,-916.953,13873.0,-1393.35,36.9771,123.3,328.455,-601.468,-9525.96,-1968.12,-10.206,-13.0787,49.7863,-5365.54,3774.66,960.178,47.119,75.2786,78.565,820.867,-9803.04,-1073.96,-7.78579,-43.9258,67.2818,9112.08,-764.693,550.938,3.98863,8.15692,21.5541
5.0025,11461.3,-912.814,11645.2,-70.9907,326.649,133.293,4658.25,2709.58,7847.84,-18.5421,-5.44584,12.1223,-926.467,13943.9,-1389.34,37.1324,123.741,328.742,-584.434,-9519.61,-1992.56,-10.3032,-12.491,50.0127,-5410.11,3801.83,932.115,47.908,72.7777,78.4632,893.362,-9790.71,-1092.58,-7.6684,-43.5512,67.2462,9112.95,-787.817,548.612,3.90075,8.15198,21.4719
5.003,11494.0,-904.736,11709.8,-70.3352,326.584,133.698,4639.74,2729.83,7850.79,-18.7196,-5.41667,12.1909,-935.982,14014.7,-1385.33,37.2878,124.182,329.029,-567.4,-9513.26,-2017.0,-10.4004,-11.9034,50.239,-5454.67,3828.99,904.053,48.6969,70.2767,78.3615,965.857,-9778.39,-1111.19,-7.55101,-43.1767,67.2105,9113.83,-810.94,546.285,3.81287,8.14704,21.3897
5.0035,11526.8,-896.658,11774.5,-69.6796,326.518,134.102,4621.23,2750.09,7853.74,-18.8972,-5.38751,12.2594,-945.496,14085.6,-1381.33,37.4431,124.622,329.316,-550.367,-9506.92,-2041.45,-10.4976,-11.3158,50.4654,-5499.23,3856.16,875.99,49.4859,67.7757,78.2597,1038.35,-9766.06,-1129.81,-7.43363,-42.8021,67.1748,9114.7,-834.064,543.959,3.72498,8.14209,21.3075
5.004,11559.6,-888.58,11839.1,-69.024,326.452,134.507,4602.71,2770.34,7856.69,-19.0748,-5.35835,12.3279,-955.01,14156.4,-1377.32,37.5985,125.063,329.603,-533.333,-9500.57,-2065.89,-10.5949,-10.7282,50.6917,-5543.8,3883.32,847.928,50.2748,65.2747,78.1579,1110.85,-9753.74,-1148.43,-7.31624,-42.4275,67.1392,9115.58,-857.187,541.633,3.6371,8.13715,21.2253
5.0045,11591.2,-877.654,11906.7,-68.3777,326.365,134.911,4586.31,2787.8,7860.11,-19.264,-5.3363,12.3966,-965.306,14230.2,-1372.39,37.7492,125.486,329.897,-518.256,-9495.16,-2089.74,-10.6808,-10.1429,50.9171,-5592.12,3912.78,823.513,51.0493,62.8106,78.0563,1180.46,-9741.35,-1166.78,-7.20966,-42.0443,67.1045,9115.52,-879.643,540.207,3.53598,8.11527,21.1438
5.005,11613.5,-843.942,11997.3,-67.8047,326.109,135.315,4586.72,2782.91,7867.35,-19.5463,-5.3712,12.4658,-981.859,14328.0,-1360.07,37.8625,125.763,330.246,-518.835,-9497.26,-2108.83,-10.6768,-9.57673,51.1343,-5670.54,3960.6,828.284,51.7077,60.6416,77.9551,1227.01,-9728.43,-1183.05,-7.18961,-41.5914,67.0775,9107.98,-896.755,545.992,3.32891,7.95789,21.0687
5.0055,11635.8,-810.229,12088.0,-67.2318,325.854,135.719,4587.14,2778.02,7874.6,-19.8285,-5.4061,12.5351,-998.412,14425.7,-1347.74,37.9758,126.04,330.595,-519.414,-9499.37,-2127.92,-10.6728,-9.01055,51.3516,-5748.96,4008.42,833.054,52.3661,58.4726,77.854,1273.55,-9715.52,-1199.31,-7.16956,-41.1386,67.0505,9100.45,-913.867,551.776,3.12185,7.8005,20.9935
5.006,11658.1,-776.516,12178.6,-66.6589,325.598,136.123,4587.56,2773.13,7881.84,-20.1108,-5.441,12.6044,-1014.96,14523.4,-1335.42,38.0891,126.318,330.945,-519.993,-9501.47,-2147.02,-10.6688,-8.44436,51.5688,-5827.38,4056.24,837.825,53.0245,56.3036,77.7529,1320.1,-9702.6,-1215.58,-7.14951,-40.6857,67.0235,9092.91,-930.98,557.56,2.91479,7.64311,20.9183
5.0065,11680.4,-742.803,12269.2,-66.0859,325.343,136.527,4587.98,2768.24,7889.09,-20.393,-5.4759,12.6736,-1031.52,14621.2,-1323.1,38.2025,126.595,331.294,-520.572,-9503.57,-2166.11,-10.6648,-7.87818,51.7861,-5905.8,4104.06,842.595,53.6829,54.1346,77.6518,1366.65,-9689.68,-1231.85,-7.12946,-40.2328,66.9965,9085.37,-948.092,563.344,2.70773,7.48573,20.8432
5.007,11702.7,-709.09,12359.9,-65.513,325.087,136.931,4588.39,2763.35,7896.33,-20.6753,-5.5108,12.7429,-1048.07,14718.9,-1310.77,38.3158,126.872,331.643,-521.151,-9505.68,-2185.2,-10.6608,-7.31199,52.0033,-5984.22,4151.88,847.366,54.3413,51.9656,77.5507,1413.19,-9676.76,-1248.11,-7.10941,-39.78,66.9695,9077.84,-965.204,569.129,2.50067,7.32834,20.768
5.0075,11725.0,-675.377,12450.5,-64.9401,324.831,137.335,4588.81,2758.45,7903.57,-20.9576,-5.54569,12.8122,-1064.62,14816.6,-1298.45,38.4291,127.15,331.992,-521.731,-9507.78,-2204.29,-10.6568,-6.74581,52.2206,-6062.64,4199.7,852.136,54.9997,49.7966,77.4496,1459.74,-9663.85,-1264.38,-7.08936,-39.3271,66.9425,9070.3,-982.316,574.913,2.29361,7.17095,20.6929
5.008,11747.3,-641.664,12541.2,-64.3672,324.576,137.739,4589.23,2753.56,7910.82,-21.2398,-5.58059,12.8814,-1081.18,14914.3,-1286.13,38.5424,127.427,332.341,-522.31,-9509.89,-2223.39,-10.6528,-6.17962,52.4378,-6141.06,4247.52,856.907,55.6581,47.6276,77.3485,1506.29,-9650.93,-1280.65,-7.06931,-38.8743,66.9155,9062.76,-999.429,580.697,2.08654,7.01357,20.6177
5.0085,11769.6,-607.951,12631.8,-63.7942,324.32,138.143,4589.65,2748.67,7918.06,-21.5221,-5.61549,12.9507,-1097.73,15012.1,-1273.81,38.6557,127.704,332.691,-522.889,-9511.99,-2242.48,-10.6488,-5.61344,52.6551,-6219.48,4295.34,861.677,56.3165,45.4586,77.2474,1552.83,-9638.01,-1296.91,-7.04926,-38.4214,66.8885,9055.23,-1016.54,586.482,1.87948,6.85618,20.5425
5.009,11793.6,-570.368,12712.3,-63.2279,324.034,138.552,4598.95,2743.07,7918.55,-21.7824,-5.64484,13.0228,-1119.77,15115.6,-1256.44,38.7433,127.888,333.034,-525.308,-9511.66,-2259.42,-10.6388,-5.045,52.8814,-6304.46,4340.39,868.666,56.9737,43.2564,77.0534,1596.67,-9625.34,-1315.68,-7.02191,-37.953,66.8697,9049.85,-1030.47,594.191,1.68636,6.69388,20.4528
5.0095,11823.8,-519.239,12757.3,-62.6845,323.642,138.977,4639.38,2734.96,7895.4,-21.9658,-5.65479,13.1047,-1161.0,15239.4,-1221.44,38.7405,127.742,333.354,-534.17,-9502.81,-2268.82,-10.6074,-4.46867,53.1393,-6412.43,4375.77,883.421,57.6268,40.9377,76.534,1631.0,-9613.5,-1343.18,-6.96902,-37.4303,66.8794,9052.03,-1033.27,608.639,1.54205,6.5144,20.3122
5.01,11854.0,-468.11,12802.3,-62.1411,323.249,139.403,4679.8,2726.85,7872.25,-22.1493,-5.66474,13.1866,-1202.23,15363.3,-1186.43,38.7378,127.597,333.675,-543.031,-9493.96,-2278.22,-10.5761,-3.89235,53.3973,-6520.39,4411.14,898.175,58.2799,38.6191,76.0147,1665.34,-9601.67,-1370.68,-6.91612,-36.9075,66.8891,9054.21,-1036.06,623.087,1.39773,6.33492,20.1716
5.0105,11884.1,-416.98,12847.3,-61.5978,322.857,139.829,4720.23,2718.75,7849.1,-22.3327,-5.67469,13.2685,-1243.46,15487.1,-1151.42,38.7351,127.451,333.996,-551.892,-9485.11,-2287.61,-10.5447,-3.31602,53.6553,-6628.35,4446.52,912.929,58.9331,36.3005,75.4953,1699.68,-9589.84,-1398.18,-6.86322,-36.3847,66.8988,9056.39,-1038.85,637.536,1.25341,6.15544,20.0309
5.011,11914.3,-365.851,12892.3,-61.0544,322.465,140.254,4760.65,2710.64,7825.95,-22.5161,-5.68464,13.3504,-1284.69,15611.0,-1116.42,38.7323,127.306,334.316,-560.753,-9476.26,-2297.01,-10.5134,-2.7397,53.9132,-6736.32,4481.89,927.683,59.5862,33.9818,74.976,1734.01,-9578.01,-1425.68,-6.81032,-35.8619,66.9085,9058.57,-1041.65,651.984,1.10909,5.97596,19.8903
5.0115,11944.5,-314.722,12937.4,-60.511,322.072,140.68,4801.08,2702.54,7802.8,-22.6996,-5.69458,13.4323,-1325.92,15734.8,-1081.41,38.7296,127.161,334.637,-569.615,-9467.41,-2306.41,-10.482,-2.16337,54.1712,-6844.28,4517.27,942.438,60.2393,31.6632,74.4566,1768.35,-9566.18,-1453.18,-6.75743,-35.3391,66.9183,9060.75,-1044.44,666.432,0.964774,5.79648,19.7497
5.012,11974.6,-263.592,12982.4,-59.9677,321.68,141.105,4841.5,2694.43,7779.65,-22.883,-5.70453,13.5142,-1367.15,15858.7,-1046.4,38.7269,127.015,334.958,-578.476,-9458.56,-2315.81,-10.4507,-1.58705,54.4291,-6952.24,4552.64,957.192,60.8924,29.3446,73.9373,1802.68,-9554.35,-1480.68,-6.70453,-34.8164,66.928,9062.93,-1047.24,680.88,0.820456,5.617,19.609
5.0125,12004.8,-212.463,13027.4,-59.4243,321.288,141.531,4881.92,2686.33,7756.5,-23.0664,-5.71448,13.5962,-1408.38,15982.5,-1011.4,38.7241,126.87,335.279,-587.337,-9449.71,-2325.21,-10.4193,-1.01072,54.6871,-7060.21,4588.02,971.946,61.5455,27.026,73.418,1837.02,-9542.52,-1508.18,-6.65163,-34.2936,66.9377,9065.11,-1050.03,695.328,0.676139,5.43752,19.4684
5.013,12035.0,-161.334,13072.4,-58.8809,320.895,141.957,4922.35,2678.22,7733.35,-23.2499,-5.72443,13.6781,-1449.61,16106.3,-976.39,38.7214,126.724,335.599,-596.199,-9440.86,-2334.61,-10.388,-0.434397,54.945,-7168.17,4623.4,986.701,62.1986,24.7073,72.8986,1871.36,-9530.69,-1535.68,-6.59874,-33.7708,66.9474,9067.28,-1052.82,709.776,0.531821,5.25804,19.3278
5.0135,12070.4,-114.368,13121.9,-58.4069,320.447,142.354,4949.11,2677.78,7721.57,-23.4725,-5.7206,13.7476,-1493.79,16229.3,-950.777,38.6764,126.461,335.943,-606.014,-9433.71,-2346.29,-10.3778,0.0948528,55.2007,-7275.23,4664.55,991.085,62.8052,22.3303,72.201,1905.48,-9520.22,-1563.66,-6.53632,-33.2434,66.9716,9060.92,-1060.85,719.992,0.460559,5.06566,19.2181
5.014,12116.2,-75.7277,13180.3,-58.0715,319.886,142.693,4948.55,2692.67,7732.56,-23.7733,-5.68922,13.7924,-1543.89,16350.6,-943.949,38.5469,125.96,336.333,-617.737,-9429.96,-2362.56,-10.4099,0.529952,55.4519,-7380.48,4717.27,974.728,63.3186,19.8363,71.1468,1939.19,-9512.49,-1592.57,-6.45486,-32.7066,67.0247,9037.47,-1079.35,721.741,0.535409,4.8475,19.1703
5.0145,12162.1,-37.0878,13238.8,-57.7361,319.325,143.032,4947.99,2707.56,7743.54,-24.0742,-5.65784,13.8372,-1593.98,16471.9,-937.122,38.4175,125.46,336.723,-629.461,-9426.21,-2378.82,-10.4419,0.965051,55.7031,-7485.73,4769.98,958.372,63.8319,17.3424,70.0927,1972.9,-9504.75,-1621.48,-6.3734,-32.1699,67.0777,9014.03,-1097.85,723.491,0.610259,4.62934,19.1225
5.015,12208.0,1.55215,13297.2,-57.4007,318.764,143.372,4947.43,2722.46,7754.52,-24.375,-5.62646,13.8821,-1644.08,16593.2,-930.294,38.288,124.96,337.113,-641.185,-9422.45,-2395.09,-10.474,1.40015,55.9542,-7590.98,4822.7,942.016,64.3453,14.8484,69.0385,2006.61,-9497.01,-1650.39,-6.29195,-31.6332,67.1308,8990.58,-1116.35,725.24,0.685109,4.41117,19.0747
5.0155,12253.8,40.1921,13355.6,-57.0653,318.203,143.711,4946.87,2737.35,7765.5,-24.6759,-5.59508,13.9269,-1694.17,16714.5,-923.466,38.1585,124.459,337.503,-652.908,-9418.7,-2411.35,-10.5061,1.83525,56.2054,-7696.22,4875.42,925.659,64.8587,12.3545,67.9843,2040.32,-9489.28,-1679.3,-6.21049,-31.0964,67.1839,8967.13,-1134.85,726.989,0.759959,4.19301,19.027
5.016,12299.7,78.832,13414.1,-56.73,317.641,144.051,4946.31,2752.24,7776.49,-24.9767,-5.5637,13.9717,-1744.26,16835.8,-916.639,38.029,123.959,337.893,-664.632,-9414.94,-2427.61,-10.5382,2.27035,56.4566,-7801.47,4928.14,909.303,65.372,9.86053,66.9301,2074.03,-9481.54,-1708.21,-6.12903,-30.5597,67.2369,8943.68,-1153.34,728.739,0.834809,3.97485,18.9792
5.0165,12345.6,117.472,13472.5,-56.3946,317.08,144.39,4945.75,2767.13,7787.47,-25.2776,-5.53232,14.0165,-1794.36,16957.1,-909.811,37.8996,123.459,338.283,-676.355,-9411.19,-2443.88,-10.5703,2.70545,56.7077,-7906.72,4980.85,892.947,65.8854,7.36659,65.876,2107.74,-9473.8,-1737.12,-6.04757,-30.023,67.29,8920.23,-1171.84,730.488,0.909659,3.75669,18.9314
5.017,12391.4,156.112,13531.0,-56.0592,316.519,144.73,4945.19,2782.03,7798.45,-25.5784,-5.50095,14.0613,-1844.45,17078.4,-902.983,37.7701,122.958,338.673,-688.079,-9407.43,-2460.14,-10.6023,3.14055,56.9589,-8011.97,5033.57,876.59,66.3988,4.87264,64.8218,2141.44,-9466.07,-1766.03,-5.96611,-29.4862,67.3431,8896.79,-1190.34,732.238,0.984509,3.53852,18.8836
5.0175,12437.3,194.752,13589.4,-55.7238,315.958,145.069,4944.62,2796.92,7809.44,-25.8793,-5.46957,14.1061,-1894.54,17199.7,-896.156,37.6406,122.458,339.063,-699.802,-9403.68,-2476.4,-10.6344,3.57564,57.2101,-8117.22,5086.29,860.234,66.9121,2.3787,63.7676,2175.15,-9458.33,-1794.94,-5.88466,-28.9495,67.3961,8873.34,-1208.84,733.987,1.05936,3.32036,18.8358
5.018,12486.4,224.733,13625.9,-55.3636,315.385,145.387,4945.3,2811.56,7814.18,-26.1821,-5.45966,14.1695,-1940.25,17314.8,-892.823,37.454,121.886,339.374,-709.93,-9403.25,-2486.71,-10.6243,3.96921,57.4436,-8214.38,5152.23,837.957,67.1644,-0.0535468,62.5809,2196.1,-9444.94,-1828.27,-5.86126,-28.3601,67.4328,8858.64,-1230.06,733.69,1.07883,3.07801,18.7946
5.0185,12539.7,243.891,13635.0,-54.9722,314.795,145.676,4947.53,2825.88,7811.11,-26.4873,-5.4766,14.2562,-1980.45,17422.3,-893.858,37.1959,121.223,339.585,-718.062,-9406.99,-2489.57,-10.5613,4.31085,57.655,-8301.43,5234.7,808.28,67.0901,-2.40867,61.2285,2201.11,-9424.48,-1867.14,-5.91045,-27.7047,67.4489,8854.88,-1254.7,730.834,1.02906,2.80543,18.7614
5.019,12592.9,263.048,13644.0,-54.5808,314.206,145.965,4949.76,2840.2,7808.04,-26.7926,-5.49353,14.3429,-2020.66,17529.8,-894.894,36.9378,120.561,339.796,-726.194,-9410.72,-2492.44,-10.4984,4.6525,57.8664,-8388.48,5317.18,778.603,67.0159,-4.76379,59.8761,2206.12,-9404.02,-1906.0,-5.95964,-27.0494,67.465,8851.13,-1279.34,727.978,0.979303,2.53285,18.7283
5.0195,12646.1,282.206,13653.1,-54.1894,313.617,146.255,4951.99,2854.52,7804.98,-27.0979,-5.51047,14.4296,-2060.87,17637.3,-895.93,36.6797,119.898,340.007,-734.326,-9414.45,-2495.3,-10.4354,4.99415,58.0779,-8475.52,5399.65,748.926,66.9417,-7.11892,58.5237,2211.12,-9383.56,-1944.86,-6.00883,-26.394,67.4811,8847.37,-1303.97,725.122,0.929542,2.26027,18.6952
5.02,12699.4,301.363,13662.1,-53.7981,313.028,146.544,4954.21,2868.84,7801.91,-27.4031,-5.52741,14.5163,-2101.08,17744.9,-896.965,36.4216,119.236,340.219,-742.458,-9418.19,-2498.16,-10.3724,5.33579,58.2893,-8562.57,5482.13,719.248,66.8675,-9.47404,57.1713,2216.13,-9363.1,-1983.72,-6.05802,-25.7387,67.4972,8843.61,-1328.61,722.266,0.879781,1.98769,18.6621
5.0205,12752.6,320.521,13671.2,-53.4067,312.438,146.834,4956.44,2883.16,7798.84,-27.7084,-5.54434,14.603,-2141.29,17852.4,-898.001,36.1635,118.574,340.43,-750.59,-9421.92,-2501.03,-10.3095,5.67744,58.5007,-8649.62,5564.6,689.571,66.7933,-11.8292,55.8189,2221.14,-9342.63,-2022.58,-6.10721,-25.0834,67.5133,8839.85,-1353.25,719.409,0.830019,1.71511,18.6289
5.021,12805.8,339.679,13680.2,-53.0154,311.849,147.123,4958.67,2897.48,7795.78,-28.0136,-5.56128,14.6896,-2181.5,17959.9,-899.036,35.9054,117.911,340.641,-758.722,-9425.65,-2503.89,-10.2465,6.01909,58.7122,-8736.67,5647.08,659.894,66.7191,-14.1843,54.4665,2226.14,-9322.17,-2061.45,-6.1564,-24.428,67.5294,8836.09,-1377.88,716.553,0.780258,1.44253,18.5958
5.0215,12859.1,358.836,13689.3,-52.624,311.26,147.413,4960.9,2911.8,7792.71,-28.3189,-5.57822,14.7763,-2221.71,18067.4,-900.072,35.6473,117.249,340.852,-766.854,-9429.39,-2506.75,-10.1836,6.36073,58.9236,-8823.72,5729.55,630.217,66.6449,-16.5394,53.1141,2231.15,-9301.71,-2100.31,-6.20559,-23.7727,67.5455,8832.33,-1402.52,713.697,0.730497,1.16995,18.5627
5.022,12912.3,377.994,13698.4,-52.2326,310.671,147.702,4963.12,2926.12,7789.64,-28.6241,-5.59515,14.863,-2261.92,18174.9,-901.107,35.3892,116.586,341.064,-774.986,-9433.12,-2509.62,-10.1206,6.70238,59.135,-8910.77,5812.03,600.539,66.5707,-18.8945,51.7616,2236.16,-9281.25,-2139.17,-6.25478,-23.1174,67.5616,8828.58,-1427.16,710.841,0.680735,0.897372,18.5296
5.0225,12959.4,399.141,13727.7,-51.8316,310.088,147.902,4950.87,2934.67,7767.42,-28.9327,-5.57807,14.9696,-2306.48,18276.7,-913.583,35.0699,115.908,341.208,-784.068,-9427.28,-2520.53,-10.0899,7.00516,59.4087,-8961.5,5901.23,573.272,66.1298,-20.9661,50.3934,2239.86,-9263.72,-2163.59,-6.33063,-22.4724,67.6125,8819.58,-1437.59,714.311,0.644152,0.697843,18.4622
5.023,13001.6,421.881,13773.3,-51.4227,309.51,148.032,4927.03,2938.58,7729.88,-29.244,-5.53377,15.0922,-2354.53,18374.0,-935.211,34.7015,115.217,341.3,-793.909,-9413.77,-2537.88,-10.0849,7.27684,59.7321,-8983.17,5995.8,547.934,65.3957,-22.8107,49.0123,2242.53,-9248.55,-2176.45,-6.42782,-21.8358,67.6913,8806.4,-1436.67,722.842,0.61811,0.556754,18.3675
5.0235,13043.9,444.62,13818.9,-51.0139,308.933,148.161,4903.19,2942.5,7692.33,-29.5553,-5.48946,15.2148,-2402.57,18471.2,-956.839,34.3332,114.526,341.392,-803.75,-9400.27,-2555.23,-10.0799,7.54853,60.0555,-9004.85,6090.37,522.595,64.6615,-24.6554,47.6313,2245.19,-9233.37,-2189.31,-6.525,-21.1991,67.77,8793.22,-1435.75,731.372,0.592069,0.415666,18.2727
5.024,13086.1,467.359,13864.5,-50.605,308.355,148.29,4879.35,2946.42,7654.79,-29.8666,-5.44516,15.3374,-2450.61,18568.5,-978.467,33.9649,113.835,341.484,-813.591,-9386.77,-2572.58,-10.0749,7.82021,60.379,-9026.52,6184.95,497.256,63.9274,-26.5,46.2504,2247.86,-9218.2,-2202.18,-6.62219,-20.5625,67.8488,8780.03,-1434.83,739.903,0.566028,0.274578,18.178
5.0245,13128.3,490.098,13910.0,-50.1962,307.777,148.419,4855.51,2950.34,7617.24,-30.1778,-5.40086,15.46,-2498.66,18665.8,-1000.1,33.5965,113.144,341.576,-823.432,-9373.26,-2589.93,-10.0699,8.0919,60.7024,-9048.2,6279.52,471.918,63.1932,-28.3447,44.8693,2250.52,-9203.02,-2215.04,-6.71938,-19.9258,67.9275,8766.85,-1433.91,748.434,0.539986,0.133489,18.0832
5.025,13170.5,512.837,13955.6,-49.7874,307.2,148.549,4831.68,2954.26,7579.7,-30.4891,-5.35656,15.5826,-2546.7,18763.1,-1021.72,33.2282,112.453,341.668,-833.274,-9359.76,-2607.27,-10.0649,8.36359,61.0258,-9069.87,6374.09,446.579,62.4591,-30.1893,43.4883,2253.19,-9187.84,-2227.9,-6.81657,-19.2892,68.0063,8753.67,-1432.99,756.965,0.513945,-0.00759917,17.9885
5.0255,13212.8,535.576,14001.2,-49.3785,306.622,148.678,4807.84,2958.18,7542.15,-30.8004,-5.31226,15.7052,-2594.75,18860.3,-1043.35,32.8599,111.762,341.759,-843.115,-9346.25,-2624.62,-10.0599,8.63527,61.3492,-9091.55,6468.67,421.24,61.7249,-32.034,42.1073,2255.86,-9172.67,-2240.77,-6.91375,-18.6525,68.0851,8740.49,-1432.07,765.495,0.487903,-0.148688,17.8937
5.026,13255.0,558.315,14046.8,-48.9697,306.045,148.807,4784.0,2962.09,7504.61,-31.1117,-5.26796,15.8277,-2642.79,18957.6,-1064.98,32.4915,111.071,341.851,-852.956,-9332.75,-2641.97,-10.0549,8.90696,61.6727,-9113.22,6563.24,395.902,60.9907,-33.8786,40.7263,2258.52,-9157.49,-2253.63,-7.01094,-18.0158,68.1638,8727.3,-1431.15,774.026,0.461862,-0.289776,17.799
5.0265,13297.2,581.055,14092.4,-48.5609,305.467,148.936,4760.16,2966.01,7467.07,-31.423,-5.22366,15.9503,-2690.83,19054.9,-1086.61,32.1232,110.38,341.943,-862.797,-9319.25,-2659.32,-10.0499,9.17865,61.9961,-9134.9,6657.82,370.563,60.2566,-35.7232,39.3453,2261.19,-9142.32,-2266.49,-7.10813,-17.3792,68.2426,8714.12,-1430.22,782.557,0.43582,-0.430864,17.7042
5.027,13364.5,614.783,14137.7,-48.1725,304.806,149.037,4751.68,2976.02,7445.63,-31.533,-5.02765,15.9473,-2749.8,19137.7,-1103.49,31.7562,109.638,342.049,-861.368,-9324.52,-2676.62,-10.0301,9.45363,62.259,-9120.27,6747.32,348.688,59.2466,-36.9239,38.0987,2269.07,-9135.9,-2275.43,-7.18469,-16.8227,68.2894,8698.71,-1436.51,779.863,0.412779,-0.589329,17.5017
5.0275,13444.4,654.006,14183.0,-47.7944,304.104,149.123,4750.88,2989.08,7432.24,-31.5425,-4.75578,15.8814,-2814.23,19213.4,-1118.0,31.3898,108.871,342.163,-854.302,-9339.18,-2693.9,-10.0031,9.73025,62.4916,-9087.49,6834.3,328.545,58.0987,-37.8025,36.9193,2279.56,-9133.86,-2282.41,-7.25093,-16.3062,68.3203,8682.19,-1446.39,771.558,0.391238,-0.756481,17.2453
5.028,13524.2,693.229,14228.2,-47.4163,303.402,149.209,4750.08,3002.14,7418.86,-31.552,-4.48391,15.8156,-2878.67,19289.0,-1132.5,31.0234,108.103,342.276,-847.237,-9353.85,-2711.18,-9.97597,10.0069,62.7242,-9054.71,6921.27,308.402,56.9508,-38.6811,35.7399,2290.05,-9131.82,-2289.38,-7.31718,-15.7897,68.3512,8665.67,-1456.27,763.252,0.369697,-0.923634,16.9889
5.0285,13604.1,732.453,14273.4,-47.0382,302.7,149.294,4749.28,3015.19,7405.47,-31.5615,-4.21204,15.7497,-2943.1,19364.6,-1147.01,30.657,107.336,342.39,-840.172,-9368.51,-2728.46,-9.94888,10.2835,62.9569,-9021.93,7008.24,288.259,55.8029,-39.5598,34.5605,2300.54,-9129.78,-2296.36,-7.38343,-15.2732,68.382,8649.14,-1466.15,754.946,0.348155,-1.09079,16.7324
5.029,13684.0,771.676,14318.6,-46.6601,301.998,149.38,4748.48,3028.25,7392.08,-31.571,-3.94018,15.6839,-3007.53,19440.3,-1161.52,30.2907,106.569,342.503,-833.107,-9383.17,-2745.74,-9.92179,10.5601,63.1895,-8989.15,7095.21,268.116,54.655,-40.4384,33.3811,2311.04,-9127.74,-2303.33,-7.44968,-14.7568,68.4129,8632.62,-1476.03,746.641,0.326614,-1.25794,16.476
5.0295,13763.8,810.899,14363.9,-46.282,301.296,149.466,4747.68,3041.31,7378.7,-31.5804,-3.66831,15.618,-3071.96,19515.9,-1176.03,29.9243,105.801,342.617,-826.041,-9397.84,-2763.02,-9.89471,10.8368,63.4221,-8956.37,7182.19,247.973,53.5071,-41.317,32.2017,2321.53,-9125.69,-2310.31,-7.51592,-14.2403,68.4438,8616.1,-1485.92,738.335,0.305073,-1.42509,16.2196
5.03,13843.7,850.122,14409.1,-45.9039,300.594,149.552,4746.88,3054.36,7365.31,-31.5899,-3.39644,15.5522,-3136.39,19591.5,-1190.54,29.5579,105.034,342.73,-818.976,-9412.5,-2780.3,-9.86762,11.1134,63.6548,-8923.6,7269.16,227.83,52.3592,-42.1957,31.0222,2332.02,-9123.65,-2317.29,-7.58217,-13.7238,68.4746,8599.58,-1495.8,730.03,0.283532,-1.59224,15.9632
5.0305,13923.5,889.345,14454.3,-45.5258,299.892,149.638,4746.08,3067.42,7351.93,-31.5994,-3.12457,15.4863,-3200.82,19667.2,-1205.04,29.1915,104.267,342.844,-811.911,-9427.16,-2797.58,-9.84054,11.39,63.8874,-8890.82,7356.13,207.687,51.2113,-43.0743,29.8428,2342.51,-9121.61,-2324.26,-7.64842,-13.2074,68.5055,8583.06,-1505.68,721.724,0.261991,-1.7594,15.7067
5.031,14003.4,928.568,14499.6,-45.1477,299.19,149.724,4745.28,3080.48,7338.54,-31.6089,-2.85271,15.4205,-3265.26,19742.8,-1219.55,28.8252,103.499,342.957,-804.846,-9441.83,-2814.86,-9.81345,11.6666,64.12,-8858.04,7443.11,187.544,50.0634,-43.9529,28.6634,2353.0,-9119.57,-2331.24,-7.71467,-12.6909,68.5364,8566.53,-1515.56,713.418,0.240449,-1.92655,15.4503
5.0315,14106.6,996.66,14510.9,-44.891,298.444,149.699,4760.1,3091.93,7427.46,-32.2968,-2.74163,15.6303,-3343.91,19803.2,-1231.39,28.4676,102.648,342.897,-799.923,-9444.83,-2820.15,-9.8129,11.7731,64.3678,-8785.26,7510.48,160.646,48.6795,-43.8852,27.6687,2360.63,-9116.63,-2327.95,-7.79206,-12.2254,68.5108,8546.92,-1525.29,718.222,0.0866892,-2.09667,15.3226
5.032,14216.5,1073.0,14512.6,-44.669,297.684,149.642,4779.38,3102.91,7545.61,-33.1785,-2.67649,15.9189,-3426.64,19859.4,-1242.48,28.1125,101.773,342.787,-795.611,-9444.5,-2822.03,-9.81994,11.8309,64.6198,-8701.06,7572.26,131.818,47.2281,-43.5471,26.7267,2367.43,-9113.44,-2321.73,-7.87263,-11.7745,68.469,8526.41,-1534.96,726.77,-0.104848,-2.26764,15.2317
5.0325,14326.4,1149.34,14514.3,-44.447,296.924,149.585,4798.65,3113.9,7663.76,-34.0603,-2.61135,16.2074,-3509.36,19915.5,-1253.56,27.7574,100.898,342.676,-791.3,-9444.16,-2823.9,-9.82697,11.8887,64.8719,-8616.85,7634.03,102.991,45.7768,-43.209,25.7847,2374.23,-9110.25,-2315.52,-7.95321,-11.3235,68.4273,8505.91,-1544.64,735.319,-0.296384,-2.43861,15.1408
5.033,14436.2,1225.68,14516.0,-44.225,296.165,149.528,4817.93,3124.89,7781.91,-34.942,-2.54621,16.496,-3592.08,19971.6,-1264.64,27.4023,100.023,342.566,-786.989,-9443.83,-2825.77,-9.83401,11.9466,65.1239,-8532.65,7695.81,74.1635,44.3254,-42.8709,24.8427,2381.04,-9107.05,-2309.3,-8.03379,-10.8726,68.3856,8485.41,-1554.32,743.868,-0.487921,-2.60958,15.0499
5.0335,14546.1,1302.02,14517.7,-44.003,295.405,149.472,4837.21,3135.87,7900.05,-35.8238,-2.48107,16.7845,-3674.81,20027.7,-1275.72,27.0472,99.1483,342.456,-782.677,-9443.5,-2827.64,-9.84104,12.0044,65.376,-8448.45,7757.58,45.3361,42.8741,-42.5328,23.9007,2387.84,-9103.86,-2303.08,-8.11436,-10.4217,68.3438,8464.9,-1563.99,752.416,-0.679458,-2.78055,14.959
5.034,14656.0,1378.36,14519.4,-43.781,294.646,149.415,4856.49,3146.86,8018.2,-36.7055,-2.41593,17.0731,-3757.53,20083.8,-1286.81,26.6921,98.2733,342.346,-778.366,-9443.17,-2829.51,-9.84808,12.0622,65.6281,-8364.24,7819.36,16.5086,41.4227,-42.1947,22.9587,2394.64,-9100.66,-2296.86,-8.19494,-9.97075,68.3021,8444.4,-1573.67,760.965,-0.870995,-2.95152,14.8681
5.0345,14765.9,1454.7,14521.0,-43.559,293.886,149.358,4875.77,3157.85,8136.35,-37.5873,-2.35079,17.3617,-3840.25,20139.9,-1297.89,26.337,97.3984,342.236,-774.055,-9442.84,-2831.38,-9.85511,12.12,65.8801,-8280.04,7881.13,-12.3189,39.9714,-41.8567,22.0167,2401.45,-9097.47,-2290.65,-8.27551,-9.51982,68.2603,8423.89,-1583.35,769.514,-1.06253,-3.12249,14.7771
5.035,14875.8,1531.03,14522.7,-43.337,293.127,149.301,4895.05,3168.83,8254.5,-38.4691,-2.28565,17.6502,-3922.98,20196.1,-1308.97,25.9819,96.5234,342.126,-769.743,-9442.51,-2833.25,-9.86215,12.1779,66.1322,-8195.83,7942.91,-41.1463,38.52,-41.5186,21.0748,2408.25,-9094.27,-2284.43,-8.35609,-9.06889,68.2186,8403.39,-1593.02,778.062,-1.25407,-3.29346,14.6862
5.0355,14985.6,1607.37,14524.4,-43.115,292.367,149.244,4914.33,3179.82,8372.65,-39.3508,-2.22051,17.9388,-4005.7,20252.2,-1320.05,25.6268,95.6484,342.015,-765.432,-9442.18,-2835.13,-9.86918,12.2357,66.3842,-8111.63,8004.68,-69.9738,37.0687,-41.1805,20.1328,2415.05,-9091.08,-2278.21,-8.43666,-8.61796,68.1768,8382.89,-1602.7,786.611,-1.44561,-3.46443,14.5953
5.036,15091.3,1685.2,14522.7,-43.0026,291.896,148.97,4898.39,3157.09,8335.78,-39.8452,-2.08072,18.1049,-4099.36,20303.3,-1321.65,25.1631,94.5672,341.907,-781.299,-9432.72,-2850.27,-9.92608,12.1953,66.566,-8001.13,8028.26,-90.7589,35.6123,-39.8836,19.4447,2420.89,-9107.21,-2272.58,-8.38191,-8.42106,68.1903,8364.72,-1598.3,790.593,-1.69627,-3.72491,14.4757
5.0365,15196.4,1763.22,14520.5,-42.904,291.461,148.669,4878.06,3130.14,8279.54,-40.2912,-1.93159,18.2557,-4194.39,20353.8,-1322.07,24.6859,93.4602,341.799,-799.689,-9422.13,-2867.07,-9.98921,12.1426,66.7391,-7887.34,8047.06,-110.539,34.1553,-38.4668,18.7883,2426.61,-9125.77,-2267.01,-8.31024,-8.25591,68.2106,8346.85,-1592.14,794.005,-1.95432,-3.99658,14.3525
5.037,15301.6,1841.23,14518.3,-42.8053,291.026,148.367,4857.72,3103.19,8223.3,-40.7372,-1.78247,18.4066,-4289.42,20404.2,-1322.48,24.2087,92.3533,341.691,-818.079,-9411.54,-2883.87,-10.0523,12.0899,66.9121,-7773.55,8065.87,-130.318,32.6983,-37.0501,18.1319,2432.32,-9144.32,-2261.45,-8.23857,-8.09076,68.2309,8328.98,-1585.98,797.417,-2.21238,-4.26825,14.2292
5.0375,15406.7,1919.24,14516.1,-42.7066,290.591,148.066,4837.39,3076.24,8167.06,-41.1832,-1.63334,18.5574,-4384.45,20454.7,-1322.89,23.7315,91.2463,341.584,-836.469,-9400.95,-2900.67,-10.1155,12.0372,67.0852,-7659.76,8084.67,-150.098,31.2413,-35.6334,17.4755,2438.04,-9162.87,-2255.89,-8.16691,-7.92561,68.2512,8311.11,-1579.81,800.829,-2.47043,-4.53991,14.106
5.038,15511.8,1997.26,14514.0,-42.6079,290.157,147.764,4817.05,3049.29,8110.81,-41.6291,-1.48421,18.7082,-4479.48,20505.2,-1323.31,23.2543,90.1393,341.476,-854.859,-9390.36,-2917.46,-10.1786,11.9845,67.2582,-7545.97,8103.48,-169.878,29.7843,-34.2166,16.8191,2443.76,-9181.43,-2250.33,-8.09524,-7.76046,68.2715,8293.23,-1573.65,804.241,-2.72848,-4.81158,13.9828
5.0385,15617.0,2075.27,14511.8,-42.5093,289.722,147.463,4796.72,3022.34,8054.57,-42.0751,-1.33508,18.859,-4574.51,20555.7,-1323.72,22.777,89.0323,341.368,-873.248,-9379.76,-2934.26,-10.2417,11.9318,67.4313,-7432.19,8122.28,-189.658,28.3274,-32.7999,16.1628,2449.47,-9199.98,-2244.77,-8.02357,-7.59531,68.2918,8275.36,-1567.49,807.653,-2.98654,-5.08325,13.8595
5.039,15722.1,2153.28,14509.6,-42.4106,289.287,147.161,4776.38,2995.39,7998.33,-42.5211,-1.18596,19.0098,-4669.54,20606.2,-1324.14,22.2998,87.9254,341.26,-891.638,-9369.17,-2951.06,-10.3049,11.8791,67.6043,-7318.4,8141.09,-209.437,26.8704,-31.3831,15.5064,2455.19,-9218.53,-2239.2,-7.9519,-7.43016,68.3121,8257.49,-1561.33,811.065,-3.24459,-5.35492,13.7363
5.0395,15827.2,2231.3,14507.4,-42.3119,288.852,146.86,4756.05,2968.44,7942.09,-42.9671,-1.03683,19.1606,-4764.57,20656.7,-1324.55,21.8226,86.8184,341.152,-910.028,-9358.58,-2967.86,-10.368,11.8264,67.7773,-7204.61,8159.89,-229.217,25.4134,-29.9664,14.85,2460.91,-9237.09,-2233.64,-7.88023,-7.26501,68.3325,8239.62,-1555.17,814.477,-3.50265,-5.62658,13.6131
5.04,15932.4,2309.31,14505.2,-42.2132,288.417,146.558,4735.71,2941.49,7885.85,-43.4131,-0.887703,19.3114,-4859.6,20707.1,-1324.96,21.3454,85.7114,341.044,-928.418,-9347.99,-2984.66,-10.4311,11.7737,67.9504,-7090.82,8178.69,-248.997,23.9564,-28.5497,14.1936,2466.62,-9255.64,-2228.08,-7.80857,-7.09986,68.3528,8221.75,-1549.0,817.888,-3.7607,-5.89825,13.4898
5.0405,16060.5,2401.54,14499.5,-42.2274,288.073,146.167,4730.4,2950.34,7886.42,-43.6534,-0.654248,19.4772,-4965.64,20756.8,-1312.79,20.9445,84.4135,340.958,-941.961,-9357.63,-2975.81,-10.3881,11.6291,68.1679,-6965.28,8152.09,-261.421,22.7601,-26.9423,13.8157,2465.74,-9255.78,-2244.02,-7.79516,-7.09922,68.355,8208.39,-1546.24,813.152,-4.10288,-6.19101,13.26
5.041,16188.6,2493.77,14493.7,-42.2415,287.729,145.776,4725.1,2959.18,7887.0,-43.8937,-0.420793,19.6429,-5071.68,20806.5,-1300.62,20.5435,83.1157,340.873,-955.505,-9367.28,-2966.96,-10.3452,11.4845,68.3854,-6839.73,8125.48,-273.844,21.5638,-25.3349,13.4378,2464.85,-9255.92,-2259.95,-7.78175,-7.09859,68.3572,8195.03,-1543.48,808.416,-4.44506,-6.48377,13.0302
5.0415,16316.8,2586.0,14488.0,-42.2556,287.384,145.385,4719.79,2968.03,7887.58,-44.1339,-0.187338,19.8086,-5177.71,20856.1,-1288.44,20.1426,81.8178,340.787,-969.049,-9376.92,-2958.12,-10.3022,11.3399,68.6029,-6714.19,8098.88,-286.268,20.3675,-23.7275,13.0599,2463.96,-9256.06,-2275.89,-7.76834,-7.09795,68.3594,8181.67,-1540.72,803.68,-4.78724,-6.77654,12.8004
5.042,16444.9,2678.23,14482.2,-42.2697,287.04,144.994,4714.48,2976.87,7888.16,-44.3742,0.0461178,19.9743,-5283.75,20905.8,-1276.27,19.7417,80.52,340.701,-982.592,-9386.56,-2949.27,-10.2592,11.1953,68.8204,-6588.65,8072.27,-298.692,19.1713,-22.1201,12.682,2463.08,-9256.21,-2291.83,-7.75493,-7.09732,68.3616,8168.31,-1537.96,798.945,-5.12942,-7.0693,12.5705
5.0425,16573.0,2770.46,14476.4,-42.2838,286.696,144.603,4709.17,2985.72,7888.74,-44.6145,0.279573,20.1401,-5389.79,20955.4,-1264.1,19.3408,79.2221,340.616,-996.136,-9396.21,-2940.42,-10.2162,11.0507,69.0379,-6463.11,8045.67,-311.116,17.975,-20.5128,12.3041,2462.19,-9256.35,-2307.77,-7.74152,-7.09668,68.3639,8154.95,-1535.2,794.209,-5.4716,-7.36206,12.3407
5.043,16701.2,2862.69,14470.7,-42.298,286.351,144.212,4703.87,2994.56,7889.31,-44.8548,0.513029,20.3058,-5495.82,21005.1,-1251.92,18.9399,77.9242,340.53,-1009.68,-9405.85,-2931.57,-10.1732,10.9061,69.2554,-6337.56,8019.06,-323.539,16.7787,-18.9054,11.9261,2461.31,-9256.49,-2323.7,-7.72811,-7.09605,68.3661,8141.59,-1532.44,789.473,-5.81378,-7.65482,12.1109
5.0435,16829.3,2954.92,14464.9,-42.3121,286.007,143.821,4698.56,3003.41,7889.89,-45.0951,0.746484,20.4715,-5601.86,21054.7,-1239.75,18.539,76.6264,340.444,-1023.22,-9415.49,-2922.72,-10.1303,10.7615,69.4729,-6212.02,7992.45,-335.963,15.5824,-17.298,11.5482,2460.42,-9256.63,-2339.64,-7.7147,-7.09541,68.3683,8128.23,-1529.68,784.737,-6.15596,-7.94758,11.8811
5.044,16957.4,3047.15,14459.1,-42.3262,285.663,143.43,4693.25,3012.25,7890.47,-45.3354,0.979939,20.6373,-5707.89,21104.4,-1227.58,18.138,75.3285,340.358,-1036.77,-9425.14,-2913.87,-10.0873,10.6169,69.6904,-6086.48,7965.85,-348.387,14.3861,-15.6906,11.1703,2459.53,-9256.77,-2355.58,-7.70129,-7.09478,68.3705,8114.87,-1526.92,780.001,-6.49815,-8.24035,11.6512
5.0445,17082.9,3138.27,14454.4,-42.3499,285.32,143.007,4688.76,3018.53,7897.29,-45.6047,1.20453,20.7985,-5813.18,21152.1,-1214.29,17.7286,74.0226,340.259,-1054.01,-9432.93,-2907.74,-10.0536,10.4591,69.9136,-5961.52,7938.55,-361.985,13.2662,-14.152,10.8062,2458.7,-9255.45,-2368.83,-7.70009,-7.11588,68.3709,8101.55,-1524.0,777.602,-6.85881,-8.54937,11.4312
5.045,17186.6,3220.54,14457.7,-42.4499,284.993,142.327,4690.82,3004.23,7954.03,-46.1061,1.35823,20.9238,-5912.46,21184.4,-1192.09,17.2507,72.6521,340.049,-1100.87,-9425.89,-2923.33,-10.0937,10.1961,70.1825,-5841.25,7905.7,-384.977,12.7569,-13.1637,10.5528,2458.32,-9242.43,-2360.62,-7.79653,-7.31085,68.357,8088.58,-1519.79,793.905,-7.36735,-8.98853,11.2893
5.0455,17290.4,3302.82,14461.1,-42.5499,284.666,141.648,4692.89,2989.94,8010.78,-46.6075,1.51192,21.0492,-6011.75,21216.7,-1169.9,16.7728,71.2815,339.839,-1147.72,-9418.86,-2938.92,-10.1339,9.93309,70.4514,-5720.99,7872.85,-407.97,12.2476,-12.1754,10.2994,2457.94,-9229.41,-2352.4,-7.89297,-7.50583,68.3431,8075.61,-1515.58,810.208,-7.87589,-9.42768,11.1475
5.046,17394.1,3385.09,14464.4,-42.6499,284.339,140.968,4694.95,2975.65,8067.52,-47.1089,1.66562,21.1745,-6111.03,21249.0,-1147.7,16.295,69.911,339.629,-1194.57,-9411.82,-2954.51,-10.1741,9.67006,70.7203,-5600.72,7839.99,-430.962,11.7383,-11.1871,10.046,2457.55,-9216.39,-2344.19,-7.98942,-7.7008,68.3291,8062.65,-1511.37,826.511,-8.38443,-9.86683,11.0056
5.0465,17497.9,3467.36,14467.7,-42.75,284.012,140.289,4697.01,2961.36,8124.27,-47.6103,1.81931,21.2998,-6210.31,21281.3,-1125.5,15.8171,68.5405,339.419,-1241.43,-9404.78,-2970.1,-10.2143,9.40704,70.9892,-5480.45,7807.14,-453.955,11.2291,-10.1988,9.79254,2457.17,-9203.37,-2335.97,-8.08586,-7.89577,68.3152,8049.68,-1507.16,842.814,-8.89297,-10.306,10.8638
5.047,17601.6,3549.64,14471.0,-42.85,283.685,139.609,4699.08,2947.07,8181.01,-48.1117,1.973,21.4252,-6309.59,21313.6,-1103.31,15.3392,67.17,339.21,-1288.28,-9397.75,-2985.69,-10.2545,9.14401,71.2581,-5360.18,7774.29,-476.947,10.7198,-9.21053,9.53912,2456.79,-9190.35,-2327.76,-8.1823,-8.09075,68.3013,8036.71,-1502.95,859.117,-9.40151,-10.7451,10.7219
5.0475,17705.4,3631.91,14474.4,-42.95,283.358,138.93,4701.14,2932.78,8237.75,-48.6131,2.1267,21.5505,-6408.88,21345.8,-1081.11,14.8614,65.7995,339.0,-1335.13,-9390.71,-3001.29,-10.2947,8.88099,71.527,-5239.91,7741.44,-499.939,10.2105,-8.22224,9.28569,2456.41,-9177.33,-2319.54,-8.27874,-8.28572,68.2873,8023.74,-1498.74,875.42,-9.91005,-11.1843,10.5801
5.048,17809.1,3714.19,14477.7,-43.05,283.032,138.25,4703.2,2918.49,8294.5,-49.1145,2.28039,21.6758,-6508.16,21378.1,-1058.91,14.3835,64.429,338.79,-1381.99,-9383.67,-3016.88,-10.3348,8.61796,71.796,-5119.64,7708.59,-522.932,9.70122,-7.23394,9.03227,2456.02,-9164.31,-2311.33,-8.37519,-8.4807,68.2734,8010.77,-1494.53,891.723,-10.4186,-11.6234,10.4382
5.0485,17912.9,3796.46,14481.0,-43.15,282.705,137.571,4705.26,2904.2,8351.24,-49.6159,2.43409,21.8012,-6607.44,21410.4,-1036.71,13.9056,63.0585,338.58,-1428.84,-9376.64,-3032.47,-10.375,8.35493,72.0649,-4999.38,7675.73,-545.924,9.19194,-6.24565,8.77884,2455.64,-9151.29,-2303.11,-8.47163,-8.67567,68.2595,7997.8,-1490.32,908.026,-10.9271,-12.0626,10.2964
5.049,18022.3,3869.88,14470.2,-43.245,282.406,136.841,4712.62,2886.34,8399.99,-50.0828,2.56465,21.9324,-6704.53,21438.4,-1019.42,13.4299,61.6844,338.338,-1475.14,-9378.0,-3042.8,-10.4114,8.0795,72.3143,-4883.89,7641.46,-571.322,8.94571,-5.45523,8.50418,2458.18,-9139.13,-2294.03,-8.59089,-8.89739,68.2563,7981.19,-1483.85,920.306,-11.4455,-12.5128,10.1522
5.0495,18151.4,3912.29,14409.5,-43.3225,282.207,135.933,4738.48,2856.0,8420.74,-50.4292,2.61424,22.0844,-6793.95,21451.3,-1019.27,12.9617,60.2979,337.986,-1519.47,-9408.78,-3034.72,-10.4342,7.76064,72.4956,-4785.12,7602.21,-605.141,9.62015,-5.3574,8.1552,2470.97,-9129.98,-2281.89,-8.78999,-9.21274,68.2908,7951.86,-1469.46,918.507,-11.9982,-13.002,9.99969
5.05,18280.5,3954.71,14348.9,-43.3999,282.007,135.025,4764.34,2825.66,8441.5,-50.7755,2.66384,22.2363,-6883.36,21464.3,-1019.13,12.4935,58.9113,337.633,-1563.81,-9439.56,-3026.64,-10.457,7.44178,72.677,-4686.35,7562.96,-638.96,10.2946,-5.25956,7.80622,2483.75,-9120.83,-2269.76,-8.98909,-9.52809,68.3252,7922.54,-1455.08,916.708,-12.551,-13.4911,9.84719
5.0505,18409.7,3997.12,14288.3,-43.4773,281.808,134.117,4790.21,2795.31,8462.25,-51.1219,2.71343,22.3883,-6972.78,21477.2,-1018.98,12.0252,57.5248,337.28,-1608.15,-9470.34,-3018.56,-10.4798,7.12293,72.8583,-4587.58,7523.71,-672.778,10.969,-5.16172,7.45725,2496.54,-9111.68,-2257.62,-9.18819,-9.84344,68.3597,7893.21,-1440.69,914.909,-13.1037,-13.9802,9.6947
5.051,18538.8,4039.54,14227.6,-43.5547,281.608,133.209,4816.07,2764.97,8483.0,-51.4682,2.76302,22.5403,-7062.19,21490.1,-1018.83,11.557,56.1382,336.927,-1652.49,-9501.12,-3010.48,-10.5026,6.80407,73.0397,-4488.82,7484.45,-706.597,11.6434,-5.06389,7.10827,2509.32,-9102.52,-2245.49,-9.3873,-10.1588,68.3941,7863.88,-1426.31,913.11,-13.6565,-14.4693,9.5422
5.0515,18667.9,4081.95,14167.0,-43.6321,281.409,132.302,4841.94,2734.63,8503.75,-51.8146,2.81261,22.6922,-7151.6,21503.0,-1018.69,11.0888,54.7517,336.574,-1696.83,-9531.89,-3002.4,-10.5254,6.48521,73.221,-4390.05,7445.2,-740.415,12.3179,-4.96605,6.75929,2522.1,-9093.37,-2233.35,-9.5864,-10.4741,68.4286,7834.55,-1411.92,911.311,-14.2092,-14.9584,9.38971
5.052,18797.1,4124.37,14106.4,-43.7096,281.21,131.394,4867.8,2704.29,8524.51,-52.1609,2.86221,22.8442,-7241.02,21515.9,-1018.54,10.6205,53.3651,336.221,-1741.16,-9562.67,-2994.33,-10.5482,6.16635,73.4024,-4291.28,7405.95,-774.234,12.9923,-4.86822,6.41031,2534.89,-9084.22,-2221.22,-9.7855,-10.7895,68.4631,7805.22,-1397.53,909.512,-14.7619,-15.4475,9.23721
5.0525,18926.2,4166.78,14045.7,-43.787,281.01,130.486,4893.67,2673.94,8545.26,-52.5073,2.9118,22.9961,-7330.43,21528.9,-1018.4,10.1523,51.9786,335.868,-1785.5,-9593.45,-2986.25,-10.571,5.84749,73.5837,-4192.51,7366.7,-808.053,13.6667,-4.77038,6.06134,2547.67,-9075.07,-2209.08,-9.9846,-11.1048,68.4975,7775.9,-1383.15,907.713,-15.3147,-15.9366,9.08472
5.053,19055.3,4209.2,13985.1,-43.8644,280.811,129.578,4919.53,2643.6,8566.01,-52.8536,2.96139,23.1481,-7419.85,21541.8,-1018.25,9.68409,50.592,335.515,-1829.84,-9624.23,-2978.17,-10.5938,5.52863,73.765,-4093.74,7327.45,-841.871,14.3412,-4.67254,5.71236,2560.46,-9065.92,-2196.95,-10.1837,-11.4202,68.532,7746.57,-1368.76,905.914,-15.8674,-16.4257,8.93223
5.0535,19185.7,4243.85,13913.4,-43.9054,280.678,128.638,4935.6,2611.83,8563.25,-53.0345,3.07237,23.2633,-7503.2,21548.9,-1021.32,9.22573,49.2694,335.081,-1866.88,-9649.97,-2963.72,-10.6272,5.21095,73.9732,-3996.03,7287.31,-884.987,15.3528,-4.75952,5.17869,2564.84,-9066.15,-2189.84,-10.3688,-11.7437,68.5566,7724.51,-1360.9,904.519,-16.3743,-16.916,8.79097
5.054,19318.5,4262.98,13819.4,-43.8737,280.68,127.634,4932.09,2577.2,8513.46,-52.8845,3.30611,23.3048,-7574.43,21544.4,-1030.83,8.78713,48.0745,334.483,-1889.32,-9665.65,-2936.52,-10.6816,4.89561,74.2351,-3900.41,7245.39,-946.697,17.039,-5.2161,4.27562,2552.43,-9085.16,-2192.78,-10.526,-12.0836,68.5615,7717.0,-1366.06,903.932,-16.7895,-17.4086,8.67218
5.0545,19451.4,4282.1,13725.5,-43.842,280.681,126.63,4928.58,2542.56,8463.66,-52.7345,3.53985,23.3464,-7645.66,21539.9,-1040.33,8.34853,46.8796,333.886,-1911.77,-9681.33,-2909.32,-10.736,4.58027,74.4971,-3804.79,7203.48,-1008.41,18.7251,-5.67268,3.37256,2540.02,-9104.17,-2195.73,-10.6832,-12.4235,68.5665,7709.49,-1371.23,903.345,-17.2047,-17.9013,8.5534
5.055,19584.2,4301.23,13631.6,-43.8103,280.683,125.626,4925.07,2507.93,8413.87,-52.5845,3.77359,23.3879,-7716.89,21535.5,-1049.84,7.90992,45.6847,333.288,-1934.21,-9697.0,-2882.12,-10.7905,4.26493,74.759,-3709.17,7161.56,-1070.12,20.4112,-6.12927,2.4695,2527.61,-9123.17,-2198.67,-10.8404,-12.7634,68.5714,7701.98,-1376.39,902.758,-17.6199,-18.394,8.43462
5.0555,19717.1,4320.35,13537.7,-43.7786,280.684,124.622,4921.56,2473.3,8364.07,-52.4345,4.00734,23.4295,-7788.12,21531.0,-1059.34,7.47132,44.4898,332.691,-1956.65,-9712.68,-2854.93,-10.8449,3.94959,75.0209,-3613.55,7119.65,-1131.83,22.0973,-6.58585,1.56643,2515.21,-9142.18,-2201.61,-10.9976,-13.1033,68.5763,7694.48,-1381.56,902.172,-18.0351,-18.8866,8.31583
5.056,19849.9,4339.48,13443.7,-43.7469,280.686,123.618,4918.05,2438.67,8314.28,-52.2845,4.24108,23.4711,-7859.35,21526.5,-1068.85,7.03272,43.2949,332.093,-1979.09,-9728.36,-2827.73,-10.8993,3.63425,75.2828,-3517.93,7077.73,-1193.54,23.7834,-7.04244,0.663372,2502.8,-9161.19,-2204.55,-11.1548,-13.4432,68.5813,7686.97,-1386.73,901.585,-18.4503,-19.3793,8.19705
5.0565,19982.7,4358.61,13349.8,-43.7152,280.687,122.614,4914.54,2404.03,8264.49,-52.1345,4.47482,23.5126,-7930.58,21522.0,-1078.35,6.59412,42.1,331.495,-2001.54,-9744.03,-2800.53,-10.9537,3.31891,75.5447,-3422.31,7035.81,-1255.25,25.4696,-7.49902,-0.239691,2490.39,-9180.19,-2207.5,-11.312,-13.7831,68.5862,7679.46,-1391.89,900.998,-18.8655,-19.8719,8.07826
5.057,20115.6,4377.73,13255.9,-43.6836,280.689,121.609,4911.03,2369.4,8214.69,-51.9844,4.70856,23.5542,-8001.81,21517.5,-1087.86,6.15551,40.9051,330.898,-2023.98,-9759.71,-2773.33,-11.0081,3.00357,75.8066,-3326.69,6993.9,-1316.96,27.1557,-7.95561,-1.14275,2477.98,-9199.2,-2210.44,-11.4692,-14.123,68.5911,7671.95,-1397.06,900.411,-19.2806,-20.3646,7.95948
5.0575,20248.4,4396.86,13162.0,-43.6519,280.69,120.605,4907.52,2334.77,8164.9,-51.8344,4.9423,23.5957,-8073.04,21513.1,-1097.36,5.71691,39.7102,330.3,-2046.42,-9775.39,-2746.14,-11.0626,2.68823,76.0685,-3231.07,6951.98,-1378.67,28.8418,-8.41219,-2.04582,2465.57,-9218.21,-2213.38,-11.6264,-14.4629,68.5961,7664.44,-1402.22,899.824,-19.6958,-20.8572,7.84069
5.058,20377.2,4405.23,13059.8,-43.3881,280.749,119.461,4915.51,2327.35,8166.19,-51.7811,5.10578,23.638,-8130.71,21495.2,-1114.57,5.25574,38.6949,329.603,-2062.94,-9789.02,-2730.94,-11.1056,2.29423,76.3019,-3134.25,6930.42,-1432.71,30.5169,-8.79781,-2.97953,2455.33,-9245.69,-2216.76,-11.7136,-14.8556,68.618,7654.73,-1404.27,897.887,-19.9601,-21.2896,7.72011
5.0585,20501.1,4400.17,12947.3,-42.8343,280.879,118.14,4937.87,2353.97,8231.34,-51.8488,5.18142,23.6813,-8171.45,21460.5,-1141.4,4.76636,37.904,328.783,-2072.06,-9800.11,-2730.76,-11.1343,1.80189,76.4997,-3035.94,6934.29,-1477.18,32.1782,-9.09473,-3.95155,2447.81,-9283.76,-2220.7,-11.7134,-15.3142,68.6613,7642.28,-1402.4,894.262,-20.0358,-21.6464,7.59728
5.059,20624.9,4395.11,12834.8,-42.2804,281.009,116.819,4960.23,2380.58,8296.49,-51.9164,5.25706,23.7245,-8212.18,21425.8,-1168.24,4.27698,37.1131,327.963,-2081.17,-9811.19,-2730.57,-11.163,1.30955,76.6976,-2937.63,6938.16,-1521.64,33.8394,-9.39165,-4.92357,2440.28,-9321.83,-2224.63,-11.7132,-15.7728,68.7046,7629.83,-1400.54,890.637,-20.1115,-22.0033,7.47445
5.0595,20748.7,4390.04,12722.4,-41.7266,281.138,115.498,4982.6,2407.19,8361.64,-51.984,5.33269,23.7677,-8252.91,21391.2,-1195.08,3.78761,36.3223,327.142,-2090.29,-9822.28,-2730.38,-11.1917,0.817205,76.8954,-2839.32,6942.02,-1566.11,35.5007,-9.68856,-5.89559,2432.75,-9359.9,-2228.56,-11.713,-16.2315,68.7478,7617.38,-1398.68,887.011,-20.1871,-22.3602,7.35162
5.06,20872.5,4384.98,12609.9,-41.1728,281.268,114.178,5004.96,2433.8,8426.79,-52.0516,5.40833,23.8109,-8293.64,21356.5,-1221.91,3.29823,35.5314,326.322,-2099.4,-9833.37,-2730.19,-11.2205,0.324865,77.0932,-2741.01,6945.89,-1610.57,37.162,-9.98548,-6.86761,2425.23,-9397.97,-2232.49,-11.7128,-16.6901,68.7911,7604.93,-1396.82,883.386,-20.2628,-22.717,7.22879
5.0605,20996.3,4379.92,12497.4,-40.6189,281.398,112.857,5027.32,2460.41,8491.94,-52.1192,5.48397,23.8542,-8334.38,21321.8,-1248.75,2.80885,34.7405,325.501,-2108.52,-9844.45,-2730.01,-11.2492,-0.167476,77.291,-2642.7,6949.76,-1655.04,38.8232,-10.2824,-7.83963,2417.7,-9436.04,-2236.43,-11.7126,-17.1487,68.8344,7592.48,-1394.96,879.761,-20.3385,-23.0739,7.10597
5.061,21120.1,4374.85,12384.9,-40.0651,281.528,111.536,5049.68,2487.03,8557.09,-52.1868,5.55961,23.8974,-8375.11,21287.1,-1275.59,2.31947,33.9496,324.681,-2117.63,-9855.54,-2729.82,-11.2779,-0.659816,77.4888,-2544.39,6953.63,-1699.5,40.4845,-10.5793,-8.81165,2410.18,-9474.11,-2240.36,-11.7123,-17.6073,68.8777,7580.02,-1393.09,876.136,-20.4142,-23.4308,6.98314
5.0615,21243.9,4369.79,12272.5,-39.5113,281.658,110.215,5072.04,2513.64,8622.24,-52.2544,5.63525,23.9406,-8415.84,21252.5,-1302.42,1.83009,33.1588,323.861,-2126.75,-9866.63,-2729.63,-11.3066,-1.15216,77.6867,-2446.08,6957.5,-1743.97,42.1458,-10.8762,-9.78367,2402.65,-9512.18,-2244.29,-11.7121,-18.0659,68.9209,7567.57,-1391.23,872.511,-20.4898,-23.7876,6.86031
5.062,21367.7,4364.72,12160.0,-38.9574,281.788,108.894,5094.4,2540.25,8687.39,-52.322,5.71089,23.9838,-8456.58,21217.8,-1329.26,1.34071,32.3679,323.04,-2135.86,-9877.71,-2729.44,-11.3354,-1.6445,77.8845,-2347.77,6961.37,-1788.43,43.807,-11.1732,-10.7557,2395.13,-9550.25,-2248.22,-11.7119,-18.5246,68.9642,7555.12,-1389.37,868.886,-20.5655,-24.1445,6.73748
5.0625,21477.6,4323.6,12021.5,-38.3827,281.946,107.367,5103.62,2536.55,8720.46,-52.5233,5.77133,24.0705,-8468.72,21174.3,-1366.4,0.862735,31.8253,322.123,-2146.11,-9894.88,-2723.18,-11.3788,-2.12033,78.1573,-2246.98,6981.95,-1804.94,45.4777,-11.4366,-11.256,2379.69,-9585.25,-2244.85,-11.6767,-18.9867,68.9923,7554.49,-1381.73,863.291,-20.4347,-24.3952,6.57365
5.063,21576.5,4253.63,11862.1,-37.7912,282.126,105.674,5102.32,2508.61,8727.88,-52.8316,5.81962,24.192,-8458.0,21123.7,-1411.78,0.393877,31.4814,321.129,-2157.27,-9916.92,-2712.06,-11.4341,-2.58295,78.49,-2144.22,7015.91,-1799.09,47.1558,-11.6732,-11.379,2357.92,-9617.77,-2235.64,-11.6134,-19.4517,69.0082,7563.32,-1369.48,856.12,-20.1387,-24.5608,6.37701
5.0635,21675.4,4183.67,11702.7,-37.1997,282.306,103.981,5101.02,2480.67,8735.29,-53.1399,5.8679,24.3135,-8447.28,21073.0,-1457.16,-0.0749817,31.1376,320.134,-2168.42,-9938.96,-2700.94,-11.4894,-3.04557,78.8228,-2041.45,7049.86,-1793.24,48.8339,-11.9098,-11.502,2336.14,-9650.3,-2226.43,-11.5502,-19.9166,69.0242,7572.15,-1357.22,848.95,-19.8427,-24.7265,6.18038
5.064,21774.2,4113.7,11543.3,-36.6082,282.486,102.288,5099.72,2452.73,8742.7,-53.4483,5.91619,24.4349,-8436.56,21022.4,-1502.54,-0.54384,30.7937,319.139,-2179.58,-9961.0,-2689.82,-11.5447,-3.50819,79.1556,-1938.69,7083.81,-1787.39,50.512,-12.1464,-11.625,2314.37,-9682.83,-2217.22,-11.4869,-20.3816,69.0401,7580.98,-1344.97,841.779,-19.5466,-24.8922,5.98375
5.0645,21873.1,4043.73,11384.0,-36.0167,282.667,100.595,5098.42,2424.79,8750.12,-53.7566,5.96448,24.5564,-8425.84,20971.8,-1547.92,-1.0127,30.4498,318.145,-2190.73,-9983.04,-2678.7,-11.6,-3.97081,79.4883,-1835.92,7117.76,-1781.54,52.1902,-12.383,-11.748,2292.6,-9715.36,-2208.01,-11.4236,-20.8466,69.0561,7589.81,-1332.71,834.608,-19.2506,-25.0579,5.78711
5.065,21972.0,3973.76,11224.6,-35.4252,282.847,98.9024,5097.13,2396.85,8757.53,-54.0649,6.01276,24.6779,-8415.12,20921.2,-1593.3,-1.48156,30.1059,317.15,-2201.89,-10005.1,-2667.58,-11.6552,-4.43344,79.8211,-1733.16,7151.71,-1775.69,53.8683,-12.6197,-11.871,2270.83,-9747.89,-2198.8,-11.3604,-21.3115,69.072,7598.63,-1320.46,827.438,-18.9546,-25.2236,5.59048
5.0655,22070.9,3903.79,11065.2,-34.8337,283.027,97.2095,5095.83,2368.9,8764.95,-54.3732,6.06105,24.7994,-8404.4,20870.6,-1638.68,-1.95042,29.762,316.156,-2213.04,-10027.1,-2656.46,-11.7105,-4.89606,80.1539,-1630.4,7185.66,-1769.83,55.5464,-12.8563,-11.994,2249.06,-9780.42,-2189.59,-11.2971,-21.7765,69.088,7607.46,-1308.2,820.267,-18.6586,-25.3892,5.39385
5.066,22169.7,3833.82,10905.8,-34.2422,283.207,95.5166,5094.53,2340.96,8772.36,-54.6815,6.10933,24.9208,-8393.68,20820.0,-1684.06,-2.41927,29.4181,315.161,-2224.2,-10049.2,-2645.34,-11.7658,-5.35868,80.4866,-1527.63,7219.61,-1763.98,57.2245,-13.0929,-12.117,2227.29,-9812.95,-2180.38,-11.2339,-22.2415,69.1039,7616.29,-1295.94,813.096,-18.3626,-25.5549,5.19721
5.0665,22268.6,3763.85,10746.5,-33.6507,283.387,93.8237,5093.23,2313.02,8779.77,-54.9898,6.15762,25.0423,-8382.96,20769.3,-1729.44,-2.88813,29.0742,314.167,-2235.35,-10071.2,-2634.22,-11.8211,-5.8213,80.8194,-1424.87,7253.56,-1758.13,58.9026,-13.3295,-12.24,2205.51,-9845.48,-2171.17,-11.1706,-22.7064,69.1199,7625.12,-1283.69,805.926,-18.0666,-25.7206,5.00058
5.067,22324.8,3691.53,10587.2,-32.8865,283.559,92.028,5075.6,2280.7,8771.99,-54.9169,6.19985,25.0915,-8355.58,20708.2,-1780.59,-3.27682,29.1024,313.0,-2228.76,-10099.5,-2613.07,-11.8503,-6.3019,81.0348,-1323.79,7259.13,-1750.91,61.2868,-13.7152,-12.1862,2192.03,-9858.57,-2157.36,-11.0992,-23.2104,69.1607,7622.16,-1266.09,793.702,-17.6236,-25.7957,4.87694
5.0675,22359.7,3618.04,10428.1,-32.0359,283.725,90.1809,5049.81,2246.2,8756.62,-54.6533,6.23905,25.1046,-8319.86,20641.7,-1834.63,-3.62542,29.3167,311.749,-2213.29,-10131.0,-2586.9,-11.8666,-6.79148,81.1915,-1223.55,7250.5,-1743.0,64.0241,-14.1755,-12.0439,2182.68,-9861.94,-2141.24,-11.0238,-23.7339,69.214,7613.31,-1245.83,778.953,-17.1071,-25.8256,4.78981
5.068,22394.6,3544.55,10268.9,-31.1853,283.892,88.3338,5024.02,2211.69,8741.24,-54.3897,6.27824,25.1176,-8284.15,20575.2,-1888.67,-3.97402,29.5309,310.497,-2197.83,-10162.5,-2560.73,-11.8829,-7.28106,81.3483,-1123.32,7241.87,-1735.09,66.7614,-14.6358,-11.9017,2173.33,-9865.31,-2125.13,-10.9483,-24.2574,69.2672,7604.47,-1225.56,764.204,-16.5906,-25.8554,4.70267
5.0685,22429.5,3471.06,10109.7,-30.3347,284.059,86.4867,4998.23,2177.18,8725.87,-54.1261,6.31744,25.1307,-8248.44,20508.7,-1942.71,-4.32262,29.7452,309.245,-2182.36,-10194.0,-2534.55,-11.8991,-7.77064,81.505,-1023.08,7233.25,-1727.18,69.4986,-15.096,-11.7594,2163.98,-9868.68,-2109.01,-10.8728,-24.7809,69.3205,7595.62,-1205.3,749.454,-16.0741,-25.8853,4.61553
5.069,22464.4,3397.56,9950.56,-29.4841,284.225,84.6396,4972.44,2142.67,8710.49,-53.8625,6.35664,25.1438,-8212.72,20442.2,-1996.76,-4.67122,29.9595,307.993,-2166.89,-10225.5,-2508.38,-11.9154,-8.26023,81.6617,-922.843,7224.62,-1719.28,72.2359,-15.5563,-11.6171,2154.63,-9872.05,-2092.9,-10.7974,-25.3044,69.3737,7586.77,-1185.03,734.705,-15.5576,-25.9151,4.5284
5.0695,22499.3,3324.07,9791.39,-28.6335,284.392,82.7925,4946.65,2108.17,8695.12,-53.599,6.39584,25.1568,-8177.01,20375.7,-2050.8,-5.01982,30.1738,306.741,-2151.43,-10257.0,-2482.21,-11.9317,-8.74981,81.8185,-822.607,7215.99,-1711.37,74.9732,-16.0165,-11.4749,2145.29,-9875.42,-2076.78,-10.7219,-25.8279,69.427,7577.92,-1164.77,719.955,-15.0412,-25.945,4.44126
5.07,22534.2,3250.58,9632.23,-27.7829,284.559,80.9454,4920.86,2073.66,8679.74,-53.3354,6.43504,25.1699,-8141.3,20309.2,-2104.84,-5.36842,30.388,305.489,-2135.96,-10288.5,-2456.04,-11.9479,-9.23939,81.9752,-722.371,7207.36,-1703.46,77.7104,-16.4768,-11.3326,2135.94,-9878.78,-2060.67,-10.6465,-26.3514,69.4803,7569.07,-1144.5,705.206,-14.5247,-25.9748,4.35412
5.0705,22569.1,3177.09,9473.06,-26.9323,284.726,79.0983,4895.07,2039.15,8664.37,-53.0718,6.47423,25.183,-8105.58,20242.7,-2158.88,-5.71702,30.6023,304.237,-2120.49,-10319.9,-2429.87,-11.9642,-9.72897,82.1319,-622.135,7198.74,-1695.55,80.4477,-16.937,-11.1903,2126.59,-9882.15,-2044.55,-10.571,-26.8749,69.5335,7560.22,-1124.24,690.456,-14.0082,-26.0046,4.26698
5.071,22603.9,3103.59,9313.9,-26.0817,284.892,77.2512,4869.28,2004.64,8648.99,-52.8082,6.51343,25.196,-8069.87,20176.2,-2212.92,-6.06562,30.8166,302.986,-2105.03,-10351.4,-2403.7,-11.9805,-10.2186,82.2886,-521.898,7190.11,-1687.65,83.1849,-17.3973,-11.0481,2117.24,-9885.52,-2028.44,-10.4955,-27.3983,69.5868,7551.37,-1103.97,675.707,-13.4917,-26.0345,4.17985
5.0715,22590.1,3008.62,9174.47,-25.0634,284.746,75.3814,4860.69,1986.96,8672.03,-52.6868,6.50573,25.1918,-8034.15,20087.2,-2268.0,-6.29874,31.4485,301.586,-2112.22,-10360.8,-2394.76,-12.0466,-10.6973,82.51,-416.963,7169.5,-1707.63,86.309,-17.9522,-11.1933,2093.23,-9894.63,-2016.71,-10.4237,-27.8174,69.6291,7553.17,-1097.91,674.359,-12.9178,-26.1186,4.08744
5.072,22562.3,2907.51,9040.68,-23.9971,284.511,73.5051,4857.0,1974.09,8706.05,-52.6061,6.48462,25.1826,-7998.42,19991.8,-2323.39,-6.49886,32.1997,300.144,-2125.89,-10363.7,-2390.74,-12.127,-11.173,82.7498,-310.685,7145.47,-1735.58,89.5436,-18.534,-11.4206,2065.04,-9905.39,-2006.23,-10.353,-28.2067,69.6682,7558.03,-1095.91,676.84,-12.3274,-26.2183,3.99352
5.0725,22534.5,2806.4,8906.89,-22.9309,284.276,71.6288,4853.31,1961.21,8740.06,-52.5253,6.46352,25.1734,-7962.7,19896.4,-2378.77,-6.69898,32.9509,298.702,-2139.55,-10366.7,-2386.73,-12.2074,-11.6487,82.9897,-204.406,7121.44,-1763.53,92.7783,-19.1159,-11.6479,2036.84,-9916.14,-1995.75,-10.2822,-28.5959,69.7074,7562.88,-1093.91,679.322,-11.737,-26.318,3.89961
5.073,22506.7,2705.29,8773.1,-21.8647,284.04,69.7525,4849.63,1948.33,8774.08,-52.4446,6.44242,25.1642,-7926.97,19800.9,-2434.15,-6.89911,33.7021,297.26,-2153.22,-10369.7,-2382.71,-12.2878,-12.1243,83.2295,-98.128,7097.41,-1791.48,96.0129,-19.6978,-11.8752,2008.64,-9926.9,-1985.27,-10.2115,-28.9851,69.7465,7567.73,-1091.9,681.803,-11.1467,-26.4177,3.80569
5.0735,22478.9,2604.19,8639.31,-20.7985,283.805,67.8763,4845.94,1935.46,8808.1,-52.3638,6.42131,25.155,-7891.25,19705.5,-2489.53,-7.09923,34.4533,295.818,-2166.88,-10372.7,-2378.7,-12.3681,-12.6,83.4693,8.15029,7073.38,-1819.43,99.2475,-20.2797,-12.1025,1980.44,-9937.65,-1974.79,-10.1407,-29.3744,69.7857,7572.58,-1089.9,684.284,-10.5563,-26.5174,3.71178
5.074,22451.1,2503.08,8505.52,-19.7323,283.57,66.0,4842.25,1922.58,8842.11,-52.2831,6.40021,25.1458,-7855.52,19610.1,-2544.92,-7.29935,35.2045,294.376,-2180.55,-10375.7,-2374.68,-12.4485,-13.0757,83.7091,114.429,7049.36,-1847.39,102.482,-20.8616,-12.3298,1952.24,-9948.4,-1964.31,-10.07,-29.7636,69.8248,7577.43,-1087.9,686.765,-9.96595,-26.617,3.61786
5.0745,22423.3,2401.97,8371.74,-18.6661,283.334,64.1237,4838.57,1909.7,8876.13,-52.2023,6.3791,25.1366,-7819.8,19514.7,-2600.3,-7.49948,35.9558,292.934,-2194.22,-10378.7,-2370.66,-12.5289,-13.5514,83.949,220.707,7025.33,-1875.34,105.717,-21.4435,-12.5571,1924.04,-9959.16,-1953.83,-9.99924,-30.1528,69.864,7582.28,-1085.89,689.247,-9.3756,-26.7167,3.52395
5.075,22395.5,2300.86,8237.95,-17.5999,283.099,62.2474,4834.88,1896.83,8910.15,-52.1215,6.358,25.1274,-7784.08,19419.2,-2655.68,-7.6996,36.707,291.492,-2207.88,-10381.7,-2366.65,-12.6093,-14.027,84.1888,326.985,7001.3,-1903.29,108.951,-22.0254,-12.7844,1895.85,-9969.91,-1943.36,-9.92849,-30.5421,69.9031,7587.13,-1083.89,691.728,-8.78524,-26.8164,3.43003
5.0755,22367.7,2199.75,8104.16,-16.5336,282.864,60.3711,4831.19,1883.95,8944.16,-52.0408,6.33689,25.1182,-7748.35,19323.8,-2711.06,-7.89972,37.4582,290.05,-2221.55,-10384.7,-2362.63,-12.6897,-14.5027,84.4286,433.263,6977.27,-1931.24,112.186,-22.6073,-13.0117,1867.65,-9980.67,-1932.88,-9.85775,-30.9313,69.9423,7591.98,-1081.89,694.209,-8.19487,-26.9161,3.33611
5.076,22271.8,2123.74,7977.62,-15.3476,282.213,58.6564,4839.53,1884.37,8944.53,-52.236,6.30855,25.0683,-7744.89,19252.8,-2763.12,-7.97822,38.4554,288.534,-2216.54,-10374.8,-2354.66,-12.7186,-14.9565,84.6962,586.235,7046.81,-1887.97,112.51,-22.6355,-13.1597,1874.29,-9987.67,-1912.17,-9.67078,-31.2486,69.9403,7593.62,-1060.51,699.275,-7.54911,-27.0479,3.31652
5.0765,22167.3,2050.86,7852.0,-14.1466,281.511,56.9619,4849.38,1886.46,8940.7,-52.4656,6.2793,25.0132,-7745.46,19184.9,-2814.77,-8.04151,39.4834,287.009,-2209.21,-10363.2,-2346.18,-12.741,-15.4076,84.9672,745.043,7128.06,-1835.8,112.47,-22.5946,-13.2976,1885.3,-9994.21,-1890.18,-9.46928,-31.557,69.9332,7594.86,-1036.72,704.663,-6.89642,-27.1838,3.30621
5.077,22062.9,1977.99,7726.37,-12.9456,280.809,55.2673,4859.22,1888.55,8936.86,-52.6953,6.25004,24.9582,-7746.03,19117.0,-2866.42,-8.1048,40.5114,285.483,-2201.87,-10351.7,-2337.71,-12.7635,-15.8587,85.2383,903.851,7209.3,-1783.64,112.431,-22.5536,-13.4356,1896.3,-10000.8,-1868.19,-9.26779,-31.8654,69.9261,7596.1,-1012.92,710.051,-6.24374,-27.3196,3.2959
5.0775,21958.4,1905.11,7600.74,-11.7446,280.107,53.5728,4869.07,1890.63,8933.03,-52.9249,6.22079,24.9032,-7746.6,19049.0,-2918.06,-8.1681,41.5393,283.958,-2194.53,-10340.1,-2329.24,-12.786,-16.3098,85.5093,1062.66,7290.54,-1731.47,112.391,-22.5127,-13.5736,1907.3,-10007.3,-1846.2,-9.06629,-32.1737,69.919,7597.33,-989.12,715.44,-5.59105,-27.4555,3.2856
