Time,RFoot_accel.x,RFoot_accel.y,RFoot_accel.z,RFoot_gyro.x,RFoot_gyro.y,RFoot_gyro.z,LFoot_accel.x,LFoot_accel.y,LFoot_accel.z,LFoot_gyro.x,LFoot_gyro.y,LFoot_gyro.z,RShank_accel.x,RShank_accel.y,RShank_accel.z,RShank_gyro.x,RShank_gyro.y,RShank_gyro.z,LShank_accel.x,LShank_accel.y,LShank_accel.z,LShank_gyro.x,LShank_gyro.y,LShank_gyro.z,RThigh_accel.x,RThigh_accel.y,RThigh_accel.z,RThigh_gyro.x,RThigh_gyro.y,RThigh_gyro.z,LThigh_accel.x,LThigh_accel.y,LThigh_accel.z,LThigh_gyro.x,LThigh_gyro.y,LThigh_gyro.z,Pelvis_accel.x,Pelvis_accel.y,Pelvis_accel.z,Pelvis_gyro.x,Pelvis_gyro.y,Pelvis_gyro.z
3.45,4037.14,-117.857,9235.84,-20.1758,-18.0954,1.31982,1935.88,785.224,7132.89,83.7581,276.191,-86.0675,-957.725,10471.3,-633.129,19.6643,-25.6971,1.67967,805.527,-6548.3,1184.24,-56.5397,2.86488,-212.589,-3638.99,10846.2,132.573,7.54975,-29.7897,-121.418,-4770.54,-10405.5,-2153.57,0.263092,16.5126,-177.971,7088.57,570.164,3240.07,-18.1648,11.8919,-71.468
3.4505,4021.64,-131.918,9253.59,-20.3003,-18.3702,1.30912,1944.75,738.422,7137.05,83.6992,276.18,-87.4466,-959.069,10467.3,-636.35,19.7863,-25.7105,1.80089,801.774,-6549.45,1180.68,-56.636,3.40256,-213.853,-3589.44,10854.3,115.829,7.68933,-29.6436,-121.276,-4785.72,-10377.2,-2165.14,0.542376,17.1257,-177.691,7070.06,583.706,3235.36,-18.1678,11.7471,-71.6462
3.451,4006.15,-145.98,9271.33,-20.4249,-18.645,1.29842,1953.61,691.621,7141.21,83.6404,276.169,-88.8257,-960.413,10463.2,-639.572,19.9083,-25.7239,1.92212,798.022,-6550.6,1177.11,-56.7324,3.94024,-215.117,-3539.88,10862.4,99.0847,7.82891,-29.4976,-121.134,-4800.91,-10349.0,-2176.71,0.821659,17.7388,-177.412,7051.55,597.247,3230.66,-18.1707,11.6023,-71.8244
3.4515,3990.66,-160.041,9289.08,-20.5494,-18.9199,1.28772,1962.48,644.819,7145.37,83.5816,276.157,-90.2048,-961.758,10459.2,-642.793,20.0304,-25.7374,2.04335,794.269,-6551.75,1173.55,-56.8287,4.47792,-216.381,-3490.33,10870.5,82.3408,7.96849,-29.3515,-120.992,-4816.1,-10320.8,-2188.28,1.10094,18.3519,-177.132,7033.04,610.789,3225.95,-18.1737,11.4575,-72.0027
3.452,3975.16,-174.103,9306.82,-20.674,-19.1947,1.27701,1971.34,598.018,7149.54,83.5228,276.146,-91.5839,-963.102,10455.1,-646.015,20.1524,-25.7508,2.16457,790.517,-6552.9,1169.99,-56.925,5.0156,-217.646,-3440.78,10878.7,65.5968,8.10807,-29.2054,-120.85,-4831.28,-10292.5,-2199.85,1.38023,18.965,-176.853,7014.53,624.331,3221.24,-18.1767,11.3127,-72.1809
3.4525,3959.67,-188.164,9324.56,-20.7985,-19.4695,1.26631,1980.21,551.216,7153.7,83.464,276.134,-92.963,-964.446,10451.1,-649.236,20.2744,-25.7642,2.2858,786.764,-6554.05,1166.43,-57.0214,5.55328,-218.91,-3391.23,10886.8,48.8528,8.24765,-29.0593,-120.708,-4846.47,-10264.3,-2211.42,1.65951,19.5781,-176.573,6996.02,637.872,3216.54,-18.1797,11.1679,-72.3591
3.453,3944.18,-202.226,9342.31,-20.923,-19.7443,1.25561,1989.07,504.415,7157.86,83.4051,276.123,-94.3421,-965.79,10447.0,-652.458,20.3965,-25.7776,2.40702,783.011,-6555.2,1162.87,-57.1177,6.09096,-220.174,-3341.68,10894.9,32.1088,8.38723,-28.9133,-120.566,-4861.66,-10236.0,-2222.99,1.93879,20.1911,-176.294,6977.51,651.414,3211.83,-18.1826,11.023,-72.5373
3.4535,3937.62,-215.498,9357.28,-21.044,-20.0141,1.28841,2010.09,441.32,7163.59,83.4153,276.114,-95.6078,-965.727,10442.4,-656.217,20.5021,-25.8016,2.52291,780.452,-6571.06,1162.89,-57.1901,6.69779,-221.387,-3297.01,10896.8,19.8017,8.50093,-28.7837,-120.402,-4874.83,-10204.6,-2239.65,2.19655,20.9612,-176.049,6962.94,658.581,3205.97,-18.184,10.8866,-72.6613
3.454,3948.92,-227.191,9366.7,-21.1579,-20.2737,1.40822,2055.4,345.638,7172.45,83.5635,276.108,-96.6468,-962.848,10436.6,-661.05,20.5749,-25.8468,2.62812,780.279,-6616.35,1170.07,-57.2147,7.44294,-222.498,-3262.1,10886.4,16.3685,8.5629,-28.6871,-120.194,-4883.98,-10166.8,-2266.5,2.41123,22.0451,-175.875,6956.27,653.002,3197.8,-18.1823,10.7669,-72.677
3.4545,3960.23,-238.885,9376.12,-21.2718,-20.5333,1.52802,2100.71,249.957,7181.31,83.7117,276.103,-97.6857,-959.97,10430.9,-665.884,20.6476,-25.892,2.73333,780.105,-6661.64,1177.24,-57.2392,8.18809,-223.608,-3227.19,10875.9,12.9352,8.62487,-28.5905,-119.986,-4893.13,-10129.0,-2293.35,2.62592,23.129,-175.701,6949.61,647.422,3189.64,-18.1806,10.6473,-72.6926
3.455,3971.53,-250.578,9385.54,-21.3857,-20.7928,1.64783,2146.02,154.275,7190.16,83.8599,276.098,-98.7246,-957.091,10425.1,-670.717,20.7204,-25.9371,2.83854,779.932,-6706.93,1184.42,-57.2638,8.93323,-224.718,-3192.28,10865.5,9.5019,8.68683,-28.4939,-119.778,-4902.28,-10091.2,-2320.2,2.84061,24.2129,-175.527,6942.94,641.843,3181.47,-18.1788,10.5276,-72.7082
3.4555,3982.84,-262.272,9394.96,-21.4996,-21.0524,1.76764,2191.33,58.5935,7199.02,84.0081,276.092,-99.7635,-954.213,10419.4,-675.551,20.7932,-25.9823,2.94375,779.759,-6752.22,1191.6,-57.2883,9.67838,-225.829,-3157.37,10855.0,6.06862,8.7488,-28.3973,-119.57,-4911.43,-10053.5,-2347.06,3.0553,25.2968,-175.353,6936.27,636.263,3173.3,-18.1771,10.4079,-72.7238
3.456,3994.15,-273.965,9404.38,-21.6135,-21.312,1.88745,2236.65,-37.0881,7207.88,84.1563,276.087,-100.802,-951.334,10413.6,-680.384,20.866,-26.0275,3.04896,779.585,-6797.51,1198.77,-57.3129,10.4235,-226.939,-3122.46,10844.6,2.63534,8.81076,-28.3007,-119.362,-4920.58,-10015.7,-2373.91,3.26999,26.3807,-175.179,6929.6,630.683,3165.14,-18.1754,10.2882,-72.7394
3.4565,4005.45,-285.659,9413.8,-21.7274,-21.5716,2.00725,2281.96,-132.77,7216.74,84.3045,276.081,-101.841,-948.456,10407.9,-685.218,20.9388,-26.0726,3.15417,779.412,-6842.8,1205.95,-57.3374,11.1687,-228.05,-3087.55,10834.1,-0.797942,8.87273,-28.2042,-119.154,-4929.73,-9977.91,-2400.76,3.48467,27.4646,-175.005,6922.93,625.104,3156.97,-18.1736,10.1686,-72.755
3.457,4016.76,-297.352,9423.22,-21.8413,-21.8312,2.12706,2327.27,-228.451,7225.59,84.4527,276.076,-102.88,-945.578,10402.1,-690.051,21.0115,-26.1178,3.25938,779.239,-6888.09,1213.13,-57.362,11.9138,-229.16,-3052.64,10823.7,-4.23122,8.9347,-28.1076,-118.946,-4938.88,-9940.14,-2427.61,3.69936,28.5485,-174.831,6916.26,619.524,3148.8,-18.1719,10.0489,-72.7706
3.4575,4028.07,-309.046,9432.64,-21.9552,-22.0908,2.24687,2372.58,-324.133,7234.45,84.6009,276.071,-103.919,-942.699,10396.4,-694.885,21.0843,-26.163,3.36459,779.065,-6933.38,1220.3,-57.3865,12.659,-230.271,-3017.73,10813.2,-7.66451,8.99666,-28.011,-118.738,-4948.03,-9902.36,-2454.46,3.91405,29.6324,-174.657,6909.59,613.944,3140.64,-18.1702,9.92921,-72.7863
3.458,4028.89,-313.456,9432.32,-22.1112,-22.3475,2.32004,2414.64,-419.053,7239.15,84.8571,276.044,-104.732,-936.419,10393.9,-701.574,21.1537,-26.1945,3.45076,777.466,-6970.35,1222.42,-57.3764,13.4259,-231.346,-2993.1,10799.6,-9.30611,9.09784,-27.9729,-118.512,-4958.34,-9867.54,-2468.01,4.10427,30.7693,-174.406,6909.83,616.688,3132.51,-18.2215,9.83523,-72.7873
3.4585,4016.61,-308.763,9419.84,-22.3198,-22.6006,2.33491,2452.62,-513.021,7238.65,85.2484,275.992,-105.261,-925.886,10395.6,-710.583,21.2187,-26.2091,3.51314,774.083,-6996.92,1218.21,-57.3228,14.22,-232.377,-2981.32,10782.1,-8.70811,9.24803,-28.008,-118.263,-4970.1,-9836.43,-2464.94,4.2639,31.9724,-174.061,6918.7,629.835,3124.43,-18.3392,9.77337,-72.7701
3.459,4004.33,-304.07,9407.36,-22.5284,-22.8537,2.34979,2490.61,-606.989,7238.15,85.6396,275.94,-105.791,-915.353,10397.2,-719.592,21.2838,-26.2237,3.57553,770.701,-7023.48,1214.01,-57.2691,15.0141,-233.409,-2969.55,10764.5,-8.11011,9.39822,-28.043,-118.013,-4981.85,-9805.32,-2461.86,4.42352,33.1754,-173.715,6927.57,642.982,3116.35,-18.457,9.71152,-72.7529
3.4595,3992.05,-299.377,9394.88,-22.7369,-23.1068,2.36467,2528.59,-700.957,7237.65,86.0309,275.888,-106.321,-904.821,10398.9,-728.601,21.3489,-26.2382,3.63791,767.318,-7050.05,1209.8,-57.2155,15.8082,-234.44,-2957.77,10747.0,-7.51211,9.5484,-28.0781,-117.764,-4993.61,-9774.21,-2458.78,4.58315,34.3785,-173.369,6936.44,656.13,3108.26,-18.5747,9.64966,-72.7357
3.46,3979.77,-294.684,9382.4,-22.9455,-23.3599,2.37954,2566.58,-794.925,7237.15,86.4221,275.835,-106.85,-894.288,10400.5,-737.61,21.4139,-26.2528,3.70029,763.936,-7076.62,1205.59,-57.1619,16.6023,-235.472,-2946.0,10729.5,-6.91412,9.69859,-28.1131,-117.515,-5005.37,-9743.1,-2455.7,4.74278,35.5816,-173.023,6945.31,669.277,3100.18,-18.6924,9.5878,-72.7185
3.4605,3967.49,-289.99,9369.92,-23.1541,-23.613,2.39442,2604.56,-888.893,7236.66,86.8134,275.783,-107.38,-883.755,10402.2,-746.62,21.479,-26.2674,3.76267,760.553,-7103.19,1201.39,-57.1083,17.3964,-236.503,-2934.23,10711.9,-6.31612,9.84878,-28.1482,-117.265,-5017.13,-9711.98,-2452.63,4.90241,36.7847,-172.677,6954.18,682.424,3092.1,-18.8102,9.52595,-72.7013
3.461,3955.21,-285.297,9357.43,-23.3627,-23.8661,2.4093,2642.55,-982.861,7236.16,87.2046,275.731,-107.91,-873.222,10403.9,-755.629,21.544,-26.2819,3.82505,757.171,-7129.76,1197.18,-57.0547,18.1905,-237.534,-2922.45,10694.4,-5.71812,9.99897,-28.1833,-117.016,-5028.88,-9680.87,-2449.55,5.06204,37.9878,-172.331,6963.05,695.571,3084.02,-18.9279,9.46409,-72.6841
3.4615,3942.93,-280.604,9344.95,-23.5713,-24.1192,2.42417,2680.53,-1076.83,7235.66,87.5959,275.679,-108.439,-862.69,10405.5,-764.638,21.6091,-26.2965,3.88743,753.788,-7156.32,1192.97,-57.0011,18.9846,-238.566,-2910.68,10676.8,-5.12012,10.1492,-28.2183,-116.767,-5040.64,-9649.76,-2446.47,5.22167,39.1909,-171.985,6971.92,708.719,3075.94,-19.0456,9.40223,-72.6669
3.462,3930.65,-275.911,9332.47,-23.7798,-24.3723,2.43905,2718.52,-1170.8,7235.16,87.9872,275.626,-108.969,-852.157,10407.2,-773.647,21.6742,-26.3111,3.94981,750.406,-7182.89,1188.77,-56.9475,19.7787,-239.597,-2898.9,10659.3,-4.52212,10.2993,-28.2534,-116.517,-5052.4,-9618.65,-2443.39,5.38129,40.3939,-171.64,6980.79,721.866,3067.86,-19.1634,9.34038,-72.6497
3.4625,3929.12,-278.665,9320.15,-23.9634,-24.6349,2.42561,2750.98,-1245.55,7249.69,88.264,275.542,-109.266,-840.152,10409.0,-781.196,21.7416,-26.3731,4.0077,748.91,-7211.38,1182.72,-56.8572,20.5298,-240.586,-2881.46,10647.3,-17.0536,10.3882,-28.3687,-116.271,-5058.85,-9580.69,-2433.81,5.5966,41.5233,-171.394,6975.6,741.603,3060.99,-19.2054,9.2443,-72.6314
3.463,3936.18,-287.376,9307.97,-24.1269,-24.9052,2.38951,2779.03,-1304.93,7276.24,88.4493,275.433,-109.378,-826.971,10410.9,-787.578,21.811,-26.4731,4.06201,748.925,-7241.41,1175.2,-56.7375,21.2464,-241.541,-2859.47,10639.6,-40.0887,10.428,-28.5483,-116.028,-5061.07,-9537.27,-2419.03,5.85645,42.5937,-171.228,6959.16,766.613,3055.09,-19.1869,9.12086,-72.6122
3.4635,3943.25,-296.088,9295.78,-24.2905,-25.1756,2.35342,2807.07,-1364.31,7302.79,88.6346,275.324,-109.489,-813.789,10412.7,-793.959,21.8804,-26.573,4.11631,748.94,-7271.44,1167.69,-56.6178,21.9631,-242.497,-2837.49,10632.0,-63.1238,10.4677,-28.7278,-115.785,-5063.29,-9493.84,-2404.25,6.1163,43.6641,-171.062,6942.72,791.622,3049.2,-19.1683,8.99742,-72.5929
3.464,3950.31,-304.799,9283.6,-24.454,-25.4459,2.31732,2835.12,-1423.69,7329.34,88.82,275.214,-109.601,-800.607,10414.6,-800.34,21.9498,-26.673,4.17061,748.955,-7301.47,1160.17,-56.4981,22.6797,-243.452,-2815.5,10624.3,-86.1588,10.5075,-28.9074,-115.542,-5065.51,-9450.42,-2389.47,6.37615,44.7345,-170.896,6926.28,816.632,3043.3,-19.1498,8.87397,-72.5737
3.4645,3957.38,-313.511,9271.41,-24.6175,-25.7162,2.28123,2863.17,-1483.07,7355.89,89.0053,275.105,-109.712,-787.425,10416.5,-806.721,22.0192,-26.773,4.22491,748.97,-7331.5,1152.66,-56.3784,23.3964,-244.407,-2793.52,10616.7,-109.194,10.5472,-29.0869,-115.299,-5067.73,-9406.99,-2374.69,6.636,45.8048,-170.73,6909.84,841.641,3037.4,-19.1313,8.75053,-72.5545
3.465,3964.45,-322.222,9259.22,-24.781,-25.9865,2.24514,2891.21,-1542.45,7382.45,89.1906,274.995,-109.824,-774.243,10418.4,-813.103,22.0886,-26.873,4.27922,748.985,-7361.53,1145.14,-56.2587,24.113,-245.362,-2771.53,10609.0,-132.229,10.587,-29.2665,-115.056,-5069.95,-9363.56,-2359.91,6.89584,46.8752,-170.565,6893.4,866.651,3031.5,-19.1127,8.62708,-72.5352
3.4655,3971.51,-330.934,9247.04,-24.9446,-26.2568,2.20904,2919.26,-1601.83,7409.0,89.3759,274.886,-109.935,-761.061,10420.3,-819.484,22.158,-26.973,4.33352,749.0,-7391.56,1137.62,-56.139,24.8297,-246.317,-2749.55,10601.4,-155.264,10.6268,-29.446,-114.813,-5072.17,-9320.13,-2345.13,7.15569,47.9456,-170.399,6876.96,891.661,3025.61,-19.0942,8.50364,-72.516
3.466,3978.58,-339.645,9234.85,-25.1081,-26.5272,2.17295,2947.31,-1661.2,7435.55,89.5612,274.777,-110.047,-747.879,10422.1,-825.865,22.2274,-27.073,4.38782,749.015,-7421.59,1130.11,-56.0193,25.5464,-247.273,-2727.57,10593.8,-178.299,10.6665,-29.6256,-114.57,-5074.38,-9276.71,-2330.35,7.41554,49.016,-170.233,6860.52,916.67,3019.71,-19.0757,8.38019,-72.4968
3.4665,3985.64,-348.357,9222.67,-25.2716,-26.7975,2.13686,2975.35,-1720.58,7462.1,89.7465,274.667,-110.159,-734.697,10424.0,-832.247,22.2968,-27.1729,4.44212,749.03,-7451.61,1122.59,-55.8996,26.263,-248.228,-2705.58,10586.1,-201.334,10.7063,-29.8051,-114.327,-5076.6,-9233.28,-2315.57,7.67539,50.0864,-170.067,6844.08,941.68,3013.81,-19.0571,8.25675,-72.4776
3.467,3996.31,-340.806,9219.35,-25.4522,-27.0045,2.18178,3011.08,-1714.98,7474.49,89.6774,274.679,-110.056,-730.247,10433.0,-837.731,22.3071,-27.261,4.43602,725.191,-7486.43,1125.98,-55.7746,26.8873,-249.187,-2689.17,10577.7,-211.511,10.6322,-30.0222,-114.133,-5083.81,-9195.43,-2297.66,7.90152,50.9589,-169.91,6822.47,961.197,3004.61,-19.1565,8.02811,-72.4934
3.4675,4008.79,-325.124,9220.47,-25.6413,-27.1798,2.26721,3050.64,-1676.87,7479.8,89.4812,274.751,-109.846,-730.162,10445.4,-842.767,22.2878,-27.3431,4.39972,689.426,-7523.63,1134.83,-55.6471,27.4655,-250.148,-2675.55,10568.9,-215.259,10.5012,-30.258,-113.965,-5093.51,-9160.37,-2278.18,8.11079,51.7326,-169.758,6798.28,977.969,2993.75,-19.3148,7.74689,-72.5268
3.468,4021.26,-309.442,9221.6,-25.8303,-27.3551,2.35264,3090.2,-1638.77,7485.11,89.2849,274.824,-109.636,-730.078,10457.9,-847.803,22.2685,-27.4253,4.36341,653.661,-7560.84,1143.68,-55.5195,28.0436,-251.108,-2661.93,10560.1,-219.007,10.3703,-30.4939,-113.796,-5103.21,-9125.31,-2258.71,8.32007,52.5062,-169.606,6774.09,994.741,2982.9,-19.4732,7.46566,-72.5602
3.4685,4033.73,-293.76,9222.72,-26.0194,-27.5305,2.43807,3129.76,-1600.67,7490.42,89.0886,274.896,-109.426,-729.993,10470.4,-852.838,22.2492,-27.5074,4.32711,617.896,-7598.05,1152.53,-55.3919,28.6218,-252.069,-2648.31,10551.3,-222.755,10.2393,-30.7298,-113.627,-5112.91,-9090.25,-2239.23,8.52934,53.2798,-169.453,6749.9,1011.51,2972.04,-19.6315,7.18443,-72.5936
3.469,4046.21,-278.079,9223.84,-26.2085,-27.7058,2.52349,3169.32,-1562.56,7495.72,88.8924,274.969,-109.216,-729.909,10482.8,-857.874,22.2299,-27.5895,4.29081,582.131,-7635.25,1161.37,-55.2643,29.1999,-253.03,-2634.69,10542.5,-226.503,10.1083,-30.9656,-113.458,-5122.61,-9055.19,-2219.76,8.73861,54.0535,-169.301,6725.71,1028.29,2961.19,-19.7898,6.90321,-72.627
3.4695,4058.68,-262.397,9224.96,-26.3975,-27.8811,2.60892,3208.88,-1524.46,7501.03,88.6961,275.041,-109.007,-729.824,10495.3,-862.91,22.2106,-27.6716,4.2545,546.366,-7672.46,1170.22,-55.1367,29.7781,-253.991,-2621.07,10533.8,-230.251,9.97734,-31.2015,-113.289,-5132.31,-9020.13,-2200.29,8.94789,54.8271,-169.149,6701.51,1045.06,2950.33,-19.9482,6.62198,-72.6604
3.47,4071.15,-246.715,9226.08,-26.5866,-28.0565,2.69435,3248.44,-1486.36,7506.34,88.4998,275.113,-108.797,-729.74,10507.8,-867.946,22.1913,-27.7537,4.2182,510.601,-7709.67,1179.07,-55.0091,30.3562,-254.952,-2607.45,10525.0,-233.999,9.84636,-31.4373,-113.12,-5142.01,-8985.07,-2180.81,9.15716,55.6008,-168.996,6677.32,1061.83,2939.47,-20.1065,6.34075,-72.6939
3.4705,4083.63,-231.033,9227.21,-26.7757,-28.2318,2.77978,3288.0,-1448.25,7511.65,88.3036,275.186,-108.587,-729.655,10520.2,-872.982,22.172,-27.8359,4.18189,474.835,-7746.87,1187.92,-54.8816,30.9344,-255.913,-2593.83,10516.2,-237.747,9.71539,-31.6732,-112.951,-5151.71,-8950.01,-2161.34,9.36643,56.3744,-168.844,6653.13,1078.6,2928.62,-20.2648,6.05953,-72.7273
3.471,4096.1,-215.351,9228.33,-26.9647,-28.4071,2.86521,3327.55,-1410.15,7516.96,88.1073,275.258,-108.377,-729.57,10532.7,-878.017,22.1527,-27.918,4.14559,439.07,-7784.08,1196.76,-54.754,31.5125,-256.874,-2580.21,10507.4,-241.495,9.58441,-31.909,-112.782,-5161.41,-8914.95,-2141.86,9.5757,57.1481,-168.692,6628.94,1095.37,2917.76,-20.4231,5.7783,-72.7607
3.4715,4098.32,-201.843,9234.9,-27.096,-28.6129,2.91889,3381.5,-1351.61,7517.62,87.9029,275.494,-108.077,-730.227,10531.4,-877.146,22.0988,-28.0007,4.12615,401.092,-7805.55,1184.3,-54.6023,32.0039,-257.703,-2562.79,10486.7,-261.831,9.48087,-32.2555,-112.664,-5167.93,-8873.76,-2104.52,9.93636,57.615,-168.586,6616.33,1108.77,2897.56,-20.5541,5.54024,-72.8058
3.472,4097.61,-188.957,9243.03,-27.2108,-28.8273,2.9635,3439.56,-1287.23,7516.96,87.6962,275.776,-107.751,-731.096,10526.1,-874.586,22.035,-28.0836,4.11153,362.48,-7822.52,1165.75,-54.4437,32.4706,-258.495,-2544.3,10462.7,-286.907,9.38516,-32.6336,-112.561,-5173.54,-8830.82,-2062.08,10.3403,57.9942,-168.494,6607.04,1121.2,2874.69,-20.6772,5.31452,-72.8544
3.4725,4096.89,-176.07,9251.16,-27.3256,-29.0417,3.00811,3497.62,-1222.85,7516.3,87.4895,276.059,-107.424,-731.965,10520.8,-872.027,21.9712,-28.1664,4.09691,323.869,-7839.49,1147.19,-54.2851,32.9372,-259.286,-2525.8,10438.6,-311.983,9.28946,-33.0117,-112.457,-5179.15,-8787.88,-2019.63,10.7442,58.3735,-168.402,6597.74,1133.63,2851.82,-20.8003,5.08879,-72.903
3.473,4096.18,-163.183,9259.29,-27.4404,-29.2561,3.05272,3555.68,-1158.48,7515.64,87.2828,276.341,-107.098,-732.833,10515.5,-869.467,21.9074,-28.2493,4.0823,285.258,-7856.47,1128.64,-54.1265,33.4039,-260.078,-2507.3,10414.6,-337.059,9.19376,-33.3898,-112.354,-5184.75,-8744.94,-1977.18,11.1481,58.7528,-168.31,6588.45,1146.06,2828.96,-20.9234,4.86307,-72.9515
3.4735,4095.47,-150.296,9267.42,-27.5551,-29.4705,3.09733,3613.74,-1094.1,7514.98,87.0761,276.623,-106.772,-733.702,10510.2,-866.907,21.8436,-28.3322,4.06768,246.647,-7873.44,1110.08,-53.9679,33.8705,-260.87,-2488.8,10390.5,-362.135,9.09805,-33.7679,-112.25,-5190.36,-8701.99,-1934.74,11.552,59.132,-168.218,6579.15,1158.49,2806.09,-21.0465,4.63734,-73.0001
3.474,4094.75,-137.409,9275.55,-27.6699,-29.685,3.14194,3671.8,-1029.72,7514.32,86.8694,276.906,-106.446,-734.571,10504.9,-864.348,21.7798,-28.4151,4.05306,208.036,-7890.42,1091.53,-53.8093,34.3372,-261.661,-2470.3,10366.5,-387.211,9.00235,-34.146,-112.147,-5195.97,-8659.05,-1892.29,11.9559,59.5113,-168.126,6569.86,1170.92,2783.22,-21.1696,4.41162,-73.0487
3.4745,4094.04,-124.523,9283.68,-27.7847,-29.8994,3.18655,3729.87,-965.345,7513.66,86.6627,277.188,-106.12,-735.439,10499.6,-861.788,21.716,-28.4979,4.03844,169.425,-7907.39,1072.98,-53.6507,34.8038,-262.453,-2451.8,10342.4,-412.287,8.90664,-34.5241,-112.043,-5201.58,-8616.11,-1849.84,12.3598,59.8906,-168.034,6560.56,1183.35,2760.35,-21.2927,4.18589,-73.0972
3.475,4093.33,-111.636,9291.81,-27.8995,-30.1138,3.23116,3787.93,-900.968,7512.99,86.456,277.471,-105.794,-736.308,10494.3,-859.229,21.6522,-28.5808,4.02382,130.813,-7924.36,1054.42,-53.4921,35.2705,-263.245,-2433.3,10318.4,-437.363,8.81094,-34.9022,-111.94,-5207.19,-8573.17,-1807.4,12.7637,60.2698,-167.942,6551.27,1195.78,2737.48,-21.4158,3.96017,-73.1458
3.4755,4092.61,-98.7491,9299.94,-28.0143,-30.3282,3.27577,3845.99,-836.59,7512.33,86.2493,277.753,-105.468,-737.177,10489.0,-856.669,21.5884,-28.6637,4.0092,92.2022,-7941.34,1035.87,-53.3335,35.7371,-264.036,-2414.8,10294.4,-462.439,8.71523,-35.2803,-111.837,-5212.79,-8530.23,-1764.95,13.1676,60.6491,-167.849,6541.97,1208.21,2714.61,-21.5389,3.73444,-73.1944
3.476,4089.3,-103.523,9293.22,-28.1293,-30.4977,3.33843,3892.69,-804.895,7540.86,86.0397,278.2,-105.296,-739.279,10479.5,-858.503,21.5424,-28.7929,3.97904,62.991,-7957.96,1019.88,-53.0732,36.0377,-264.827,-2424.27,10271.7,-480.743,8.77349,-35.8621,-111.687,-5218.55,-8473.14,-1746.84,13.5934,60.7543,-167.815,6518.63,1217.52,2701.36,-21.8962,3.26825,-73.3815
3.4765,4085.67,-110.505,9284.65,-28.2443,-30.6616,3.40335,3937.97,-777.286,7573.03,85.8297,278.667,-105.143,-741.535,10469.5,-860.886,21.4985,-28.9279,3.94694,34.9547,-7974.53,1004.21,-52.8003,36.3175,-265.618,-2437.23,10249.1,-498.2,8.85099,-36.4695,-111.532,-5224.32,-8414.29,-1731.77,14.022,60.8253,-167.788,6493.52,1226.44,2689.32,-22.2829,2.772,-73.5859
3.477,4082.04,-117.486,9276.08,-28.3593,-30.8255,3.46826,3983.25,-749.676,7605.2,85.6198,279.135,-104.991,-743.791,10459.6,-863.269,21.4547,-29.0629,3.91484,6.9185,-7991.1,988.538,-52.5274,36.5973,-266.408,-2450.19,10226.6,-515.657,8.92849,-37.0768,-111.377,-5230.09,-8355.43,-1716.69,14.4506,60.8962,-167.76,6468.42,1235.36,2677.27,-22.6695,2.27575,-73.7904
3.4775,4078.4,-124.468,9267.52,-28.4743,-30.9894,3.53318,4028.53,-722.067,7637.37,85.4098,279.602,-104.839,-746.047,10449.6,-865.652,21.4108,-29.1979,3.88273,-21.1177,-8007.67,972.869,-52.2544,36.8771,-267.199,-2463.15,10204.1,-533.114,9.006,-37.6841,-111.222,-5235.87,-8296.58,-1701.62,14.8792,60.9672,-167.733,6443.32,1244.27,2665.23,-23.0561,1.7795,-73.9948
3.478,4074.77,-131.449,9258.95,-28.5893,-31.1532,3.5981,4073.81,-694.457,7669.55,85.1998,280.07,-104.686,-748.303,10439.6,-868.035,21.367,-29.3328,3.85063,-49.154,-8024.25,957.199,-51.9815,37.1569,-267.99,-2476.12,10181.6,-550.571,9.0835,-38.2915,-111.067,-5241.64,-8237.72,-1686.55,15.3078,61.0382,-167.705,6418.21,1253.19,2653.19,-23.4427,1.28325,-74.1993
3.4785,4071.13,-138.431,9250.38,-28.7043,-31.3171,3.66302,4119.09,-666.848,7701.72,84.9899,280.537,-104.534,-750.559,10429.7,-870.418,21.3231,-29.4678,3.81853,-77.1902,-8040.82,941.53,-51.7085,37.4368,-268.78,-2489.08,10159.1,-568.029,9.161,-38.8988,-110.911,-5247.41,-8178.87,-1671.48,15.7364,61.1091,-167.678,6393.11,1262.11,2641.14,-23.8293,0.787004,-74.4037
3.479,4067.5,-145.413,9241.81,-28.8193,-31.481,3.72794,4164.37,-639.238,7733.89,84.7799,281.005,-104.382,-752.815,10419.7,-872.801,21.2792,-29.6028,3.78643,-105.226,-8057.39,925.86,-51.4356,37.7166,-269.571,-2502.04,10136.6,-585.486,9.23851,-39.5061,-110.756,-5253.18,-8120.01,-1656.41,16.165,61.1801,-167.651,6368.01,1271.03,2629.1,-24.216,0.290755,-74.6081
3.4795,4063.86,-152.394,9233.24,-28.9343,-31.6449,3.79285,4209.65,-611.629,7766.06,84.5699,281.472,-104.229,-755.071,10409.7,-875.184,21.2354,-29.7378,3.75432,-133.263,-8073.97,910.191,-51.1626,37.9964,-270.362,-2515.0,10114.0,-602.943,9.31601,-40.1135,-110.601,-5258.96,-8061.16,-1641.34,16.5936,61.2511,-167.623,6342.9,1279.95,2617.05,-24.6026,-0.205495,-74.8126
3.48,4060.23,-159.376,9224.67,-29.0493,-31.8087,3.85777,4254.93,-584.019,7798.23,84.36,281.94,-104.077,-757.328,10399.7,-877.567,21.1915,-29.8728,3.72222,-161.299,-8090.54,894.522,-50.8897,38.2762,-271.152,-2527.97,10091.5,-620.4,9.39351,-40.7208,-110.446,-5264.73,-8002.3,-1626.27,17.0223,61.322,-167.596,6317.8,1288.87,2605.01,-24.9892,-0.701744,-75.017
3.4805,4057.14,-186.828,9224.98,-29.1656,-32.0286,3.92683,4308.73,-618.961,7827.02,84.1862,282.663,-103.962,-758.778,10397.7,-889.708,21.1426,-30.0813,3.73733,-209.142,-8105.94,890.853,-50.697,38.4012,-271.918,-2519.74,10071.3,-621.92,9.56594,-41.5714,-110.329,-5268.29,-7959.81,-1617.82,17.308,61.3578,-167.544,6329.02,1299.25,2619.75,-25.1594,-1.15783,-75.0061
3.481,4054.05,-214.279,9225.29,-29.2819,-32.2485,3.99589,4362.53,-653.903,7855.81,84.0124,283.385,-103.847,-760.229,10395.7,-901.848,21.0936,-30.2899,3.75245,-256.984,-8121.34,887.185,-50.5044,38.5263,-272.684,-2511.52,10051.1,-623.439,9.73836,-42.422,-110.212,-5271.84,-7917.31,-1609.37,17.5937,61.3937,-167.492,6340.24,1309.63,2634.5,-25.3297,-1.61391,-74.9951
3.4815,4050.96,-241.731,9225.61,-29.3981,-32.4684,4.06494,4416.34,-688.845,7884.59,83.8386,284.108,-103.733,-761.68,10393.7,-913.989,21.0447,-30.4984,3.76756,-304.827,-8136.74,883.516,-50.3117,38.6514,-273.45,-2503.29,10031.0,-624.959,9.91079,-43.2727,-110.095,-5275.4,-7874.82,-1600.92,17.8795,61.4295,-167.44,6351.45,1320.01,2649.25,-25.4999,-2.06999,-74.9841
3.482,4047.88,-269.182,9225.92,-29.5144,-32.6882,4.134,4470.14,-723.787,7913.38,83.6648,284.831,-103.618,-763.131,10391.7,-926.13,20.9957,-30.7069,3.78268,-352.669,-8152.15,879.848,-50.1191,38.7765,-274.216,-2495.07,10010.8,-626.478,10.0832,-44.1233,-109.978,-5278.96,-7832.32,-1592.47,18.1652,61.4654,-167.388,6362.67,1330.39,2663.99,-25.6702,-2.52607,-74.9731
3.4825,4044.79,-296.634,9226.23,-29.6307,-32.9081,4.20306,4523.95,-758.729,7942.17,83.491,285.554,-103.503,-764.581,10389.7,-938.271,20.9467,-30.9154,3.79779,-400.512,-8167.55,876.179,-49.9265,38.9015,-274.982,-2486.85,9990.57,-627.998,10.2556,-44.9739,-109.862,-5282.51,-7789.82,-1584.02,18.451,61.5012,-167.336,6373.89,1340.76,2678.74,-25.8404,-2.98215,-74.9621
3.483,4041.7,-324.086,9226.55,-29.747,-33.128,4.27212,4577.75,-793.671,7970.95,83.3172,286.277,-103.389,-766.032,10387.7,-950.411,20.8978,-31.124,3.8129,-448.354,-8182.95,872.51,-49.7338,39.0266,-275.749,-2478.62,9970.38,-629.517,10.4281,-45.8245,-109.745,-5286.07,-7747.33,-1575.57,18.7367,61.537,-167.284,6385.11,1351.14,2693.49,-26.0106,-3.43823,-74.9511
3.4835,4038.62,-351.537,9226.86,-29.8632,-33.3479,4.34117,4631.56,-828.613,7999.74,83.1434,286.999,-103.274,-767.483,10385.6,-962.552,20.8488,-31.3325,3.82802,-496.197,-8198.35,868.842,-49.5412,39.1517,-276.515,-2470.4,9950.19,-631.037,10.6005,-46.6752,-109.628,-5289.63,-7704.83,-1567.13,19.0225,61.5729,-167.232,6396.33,1361.52,2708.23,-26.1809,-3.89431,-74.9401
3.484,4035.53,-378.989,9227.17,-29.9795,-33.5677,4.41023,4685.36,-863.555,8028.53,82.9696,287.722,-103.159,-768.934,10383.6,-974.693,20.7999,-31.541,3.84313,-544.04,-8213.75,865.174,-49.3485,39.2767,-277.281,-2462.17,9930.0,-632.556,10.7729,-47.5258,-109.511,-5293.18,-7662.34,-1558.68,19.3082,61.6087,-167.18,6407.54,1371.9,2722.98,-26.3511,-4.3504,-74.9292
3.4845,4033.06,-407.924,9226.73,-30.0831,-33.777,4.46912,4741.2,-902.353,8057.07,82.8019,288.468,-103.037,-771.212,10381.8,-987.808,20.7409,-31.7575,3.85801,-590.74,-8227.85,861.947,-49.1544,39.3795,-278.035,-2453.91,9910.86,-634.567,10.9543,-48.3881,-109.395,-5297.95,-7620.28,-1550.47,19.5842,61.64,-167.134,6415.53,1381.39,2732.0,-26.5223,-4.77947,-74.9129
3.485,4035.51,-448.73,9220.26,-30.0848,-33.9018,4.44662,4813.36,-971.997,8083.69,82.683,289.398,-102.854,-780.115,10381.2,-1008.72,20.6023,-32.0377,3.871,-628.303,-8231.52,862.254,-48.9481,39.3037,-278.699,-2445.35,9900.18,-640.507,11.2075,-49.3441,-109.287,-5312.4,-7581.74,-1544.18,19.7816,61.6344,-167.134,6397.66,1383.76,2695.21,-26.7006,-4.99252,-74.855
3.4855,4037.96,-489.536,9213.79,-30.0865,-34.0265,4.42411,4885.51,-1041.64,8110.31,82.564,290.329,-102.671,-789.017,10380.6,-1029.62,20.4637,-32.3179,3.884,-665.867,-8235.19,862.56,-48.7418,39.228,-279.362,-2436.8,9889.49,-646.448,11.4607,-50.3001,-109.178,-5326.85,-7543.2,-1537.89,19.9791,61.6289,-167.134,6379.8,1386.13,2658.42,-26.8789,-5.20556,-74.7971
3.486,4040.41,-530.343,9207.32,-30.0882,-34.1513,4.40161,4957.66,-1111.29,8136.93,82.4451,291.259,-102.489,-797.92,10380.0,-1050.53,20.3251,-32.5981,3.89699,-703.43,-8238.86,862.867,-48.5356,39.1522,-280.026,-2428.24,9878.81,-652.388,11.7139,-51.2561,-109.07,-5341.29,-7504.66,-1531.6,20.1766,61.6234,-167.134,6361.93,1388.5,2621.63,-27.0572,-5.4186,-74.7391
3.4865,4042.86,-571.149,9200.85,-30.0899,-34.276,4.37911,5029.82,-1180.93,8163.55,82.3262,292.189,-102.306,-806.822,10379.4,-1071.44,20.1865,-32.8783,3.90998,-740.993,-8242.52,863.174,-48.3293,39.0765,-280.689,-2419.68,9868.12,-658.329,11.9671,-52.2121,-108.961,-5355.74,-7466.13,-1525.31,20.3741,61.6179,-167.134,6344.07,1390.87,2584.84,-27.2356,-5.63164,-74.6812
3.487,4045.31,-611.955,9194.38,-30.0916,-34.4007,4.35661,5101.97,-1250.58,8190.17,82.2073,293.12,-102.123,-815.725,10378.7,-1092.35,20.0479,-33.1586,3.92298,-778.556,-8246.19,863.481,-48.123,39.0007,-281.353,-2411.13,9857.44,-664.269,12.2202,-53.1681,-108.853,-5370.19,-7427.59,-1519.02,20.5716,61.6124,-167.134,6326.2,1393.24,2548.05,-27.4139,-5.84469,-74.6232
3.4875,4047.76,-652.761,9187.91,-30.0933,-34.5255,4.33411,5174.12,-1320.22,8216.79,82.0884,294.05,-101.941,-824.627,10378.1,-1113.26,19.9093,-33.4388,3.93597,-816.12,-8249.86,863.788,-47.9168,38.9249,-282.016,-2402.57,9846.75,-670.21,12.4734,-54.1241,-108.744,-5384.64,-7389.05,-1512.73,20.769,61.6069,-167.134,6308.33,1395.61,2511.25,-27.5922,-6.05773,-74.5653
3.488,4050.21,-693.567,9181.44,-30.095,-34.6502,4.31161,5246.27,-1389.87,8243.4,81.9695,294.98,-101.758,-833.53,10377.5,-1134.16,19.7706,-33.719,3.94896,-853.683,-8253.53,864.095,-47.7105,38.8492,-282.679,-2394.01,9836.07,-676.15,12.7266,-55.0801,-108.636,-5399.09,-7350.51,-1506.44,20.9665,61.6013,-167.134,6290.47,1397.98,2474.46,-27.7706,-6.27077,-74.5073
3.4885,4052.66,-734.373,9174.97,-30.0967,-34.775,4.28911,5318.43,-1459.51,8270.02,81.8505,295.911,-101.575,-842.432,10376.9,-1155.07,19.632,-33.9992,3.96196,-891.246,-8257.2,864.401,-47.5042,38.7734,-283.343,-2385.46,9825.38,-682.09,12.9798,-56.0361,-108.528,-5413.54,-7311.97,-1500.16,21.164,61.5958,-167.134,6272.6,1400.35,2437.67,-27.9489,-6.48381,-74.4493
3.489,4055.64,-768.162,9166.67,-30.0996,-34.8993,4.26151,5385.49,-1529.58,8295.27,81.7581,296.84,-101.353,-849.835,10375.8,-1176.11,19.4799,-34.2991,3.97252,-932.342,-8258.5,865.107,-47.3011,38.6454,-283.996,-2383.59,9817.31,-692.289,13.1976,-56.9659,-108.454,-5429.03,-7269.16,-1498.11,21.3628,61.5912,-167.132,6254.71,1404.14,2413.0,-28.0626,-6.72637,-74.4009
3.4895,4060.48,-777.389,9151.97,-30.1065,-35.0223,4.21603,5434.74,-1601.11,8315.69,81.7585,297.767,-100.993,-851.988,10372.8,-1197.6,19.2804,-34.668,3.97459,-985.8,-8251.49,867.21,-47.1091,38.3345,-284.612,-2405.14,9818.4,-717.392,13.2913,-57.8042,-108.504,-5448.18,-7211.39,-1510.94,21.566,61.5897,-167.122,6236.75,1412.85,2430.74,-27.9502,-7.07223,-74.3859
3.49,4065.31,-786.617,9137.27,-30.1135,-35.1452,4.17055,5483.98,-1672.65,8336.12,81.7589,298.694,-100.634,-854.14,10369.8,-1219.09,19.0809,-35.037,3.97666,-1039.26,-8244.48,869.313,-46.917,38.0235,-285.228,-2426.7,9819.49,-742.494,13.3851,-58.6426,-108.554,-5467.33,-7153.62,-1523.77,21.7693,61.5882,-167.113,6218.8,1421.57,2448.49,-27.8379,-7.41808,-74.3709
3.4905,4070.15,-795.844,9122.57,-30.1204,-35.2682,4.12508,5533.23,-1744.19,8356.54,81.7593,299.621,-100.274,-856.293,10366.8,-1240.58,18.8814,-35.4059,3.97873,-1092.72,-8237.47,871.416,-46.725,37.7126,-285.845,-2448.25,9820.58,-767.597,13.4789,-59.4809,-108.603,-5486.47,-7095.86,-1536.6,21.9726,61.5867,-167.104,6200.84,1430.29,2466.23,-27.7255,-7.76394,-74.3559
3.491,4074.99,-805.071,9107.87,-30.1273,-35.3912,4.0796,5582.47,-1815.73,8376.97,81.7597,300.548,-99.9143,-858.445,10363.8,-1262.07,18.6819,-35.7748,3.98079,-1146.17,-8230.45,873.518,-46.5329,37.4017,-286.461,-2469.81,9821.67,-792.7,13.5727,-60.3192,-108.653,-5505.62,-7038.09,-1549.43,22.1759,61.5852,-167.095,6182.88,1439.0,2483.97,-27.6131,-8.1098,-74.3409
3.4915,4079.82,-814.299,9093.17,-30.1343,-35.5141,4.03412,5631.72,-1887.27,8397.39,81.7601,301.475,-99.5546,-860.598,10360.8,-1283.56,18.4824,-36.1438,3.98286,-1199.63,-8223.44,875.621,-46.3409,37.0908,-287.077,-2491.36,9822.75,-817.802,13.6665,-61.1575,-108.702,-5524.77,-6980.32,-1562.25,22.3792,61.5837,-167.085,6164.92,1447.72,2501.72,-27.5007,-8.45565,-74.3259
3.492,4084.66,-823.526,9078.47,-30.1412,-35.6371,3.98865,5680.96,-1958.8,8417.82,81.7604,302.402,-99.1949,-862.751,10357.8,-1305.05,18.283,-36.5127,3.98493,-1253.09,-8216.43,877.724,-46.1488,36.7798,-287.694,-2512.91,9823.84,-842.905,13.7602,-61.9958,-108.752,-5543.92,-6922.55,-1575.08,22.5824,61.5822,-167.076,6146.96,1456.44,2519.46,-27.3883,-8.80151,-74.3109
3.4925,4089.5,-832.753,9063.77,-30.1481,-35.7601,3.94317,5730.21,-2030.34,8438.24,81.7608,303.329,-98.8353,-864.903,10354.8,-1326.55,18.0835,-36.8816,3.987,-1306.55,-8209.42,879.826,-45.9568,36.4689,-288.31,-2534.47,9824.93,-868.008,13.854,-62.8341,-108.802,-5563.07,-6864.79,-1587.91,22.7857,61.5807,-167.067,6129.0,1465.15,2537.2,-27.2759,-9.14737,-74.2959
3.493,4094.33,-841.98,9049.07,-30.155,-35.883,3.8977,5779.45,-2101.88,8458.67,81.7612,304.256,-98.4756,-867.056,10351.7,-1348.04,17.884,-37.2506,3.98906,-1360.01,-8202.41,881.929,-45.7648,36.158,-288.926,-2556.02,9826.02,-893.11,13.9478,-63.6725,-108.851,-5582.21,-6807.02,-1600.74,22.989,61.5792,-167.057,6111.04,1473.87,2554.95,-27.1635,-9.49322,-74.2809
3.4935,4099.48,-854.916,9037.45,-30.1601,-35.9932,3.83749,5814.91,-2150.79,8473.74,81.7431,305.085,-97.9544,-869.362,10345.5,-1365.85,17.6897,-37.6469,3.98646,-1410.89,-8201.63,884.863,-45.5785,35.8441,-289.534,-2566.97,9824.29,-916.03,14.0315,-64.4893,-108.91,-5599.08,-6750.1,-1616.06,23.1398,61.6789,-167.032,6092.4,1480.98,2563.48,-27.228,-9.74944,-74.2042
3.494,4105.24,-875.266,9031.99,-30.1615,-36.0779,3.74783,5822.79,-2154.45,8478.12,81.688,305.718,-97.1101,-871.974,10332.8,-1376.32,17.5057,-38.0981,3.97452,-1456.64,-8213.32,889.458,-45.4039,35.5245,-290.126,-2556.71,9816.94,-934.585,14.0951,-65.2633,-108.987,-5611.4,-6694.87,-1636.38,23.1858,61.9809,-166.975,6072.39,1484.89,2553.6,-27.6463,-9.82636,-74.0039
3.4945,4111.0,-895.617,9026.54,-30.163,-36.1626,3.65818,5830.67,-2158.11,8482.49,81.633,306.351,-96.2659,-874.587,10320.1,-1386.78,17.3217,-38.5494,3.96258,-1502.39,-8225.01,894.053,-45.2293,35.2049,-290.718,-2546.45,9809.59,-953.139,14.1586,-66.0373,-109.064,-5623.71,-6639.64,-1656.69,23.2318,62.2828,-166.918,6052.38,1488.8,2543.71,-28.0646,-9.90329,-73.8036
3.495,4116.76,-915.967,9021.08,-30.1644,-36.2473,3.56852,5838.55,-2161.77,8486.87,81.5779,306.984,-95.4216,-877.199,10307.3,-1397.25,17.1377,-39.0006,3.95064,-1548.14,-8236.7,898.648,-45.0546,34.8853,-291.309,-2536.19,9802.23,-971.693,14.2222,-66.8112,-109.141,-5636.03,-6584.41,-1677.01,23.2778,62.5848,-166.861,6032.36,1492.71,2533.83,-28.4828,-9.98022,-73.6034
3.4955,4122.52,-936.318,9015.63,-30.1658,-36.3319,3.47886,5846.43,-2165.43,8491.24,81.5228,307.617,-94.5774,-879.812,10294.6,-1407.72,16.9537,-39.4518,3.9387,-1593.89,-8248.39,903.243,-44.88,34.5657,-291.901,-2525.94,9794.88,-990.248,14.2858,-67.5852,-109.218,-5648.34,-6529.18,-1697.33,23.3237,62.8867,-166.804,6012.35,1496.61,2523.94,-28.9011,-10.0571,-73.4031
3.496,4128.28,-956.669,9010.17,-30.1672,-36.4166,3.38921,5854.31,-2169.08,8495.62,81.4678,308.25,-93.7331,-882.424,10281.9,-1418.18,16.7697,-39.9031,3.92677,-1639.64,-8260.08,907.838,-44.7054,34.246,-292.493,-2515.68,9787.53,-1008.8,14.3493,-68.3592,-109.296,-5660.65,-6473.95,-1717.64,23.3697,63.1887,-166.747,5992.34,1500.52,2514.06,-29.3194,-10.1341,-73.2029
3.4965,4134.04,-977.019,9004.71,-30.1686,-36.5013,3.29955,5862.19,-2172.74,8499.99,81.4127,308.883,-92.8889,-885.037,10269.2,-1428.65,16.5858,-40.3543,3.91483,-1685.39,-8271.77,912.432,-44.5307,33.9264,-293.084,-2505.42,9780.17,-1027.36,14.4129,-69.1331,-109.373,-5672.97,-6418.72,-1737.96,23.4157,63.4907,-166.69,5972.33,1504.43,2504.17,-29.7376,-10.211,-73.0026
3.497,4139.8,-997.37,8999.26,-30.17,-36.586,3.20989,5870.07,-2176.4,8504.37,81.3576,309.516,-92.0446,-887.649,10256.5,-1439.11,16.4018,-40.8055,3.90289,-1731.14,-8283.46,917.027,-44.3561,33.6068,-293.676,-2495.16,9772.82,-1045.91,14.4765,-69.9071,-109.45,-5685.28,-6363.49,-1758.28,23.4617,63.7926,-166.633,5952.32,1508.34,2494.29,-30.1559,-10.2879,-72.8023
3.4975,4145.56,-1017.72,8993.8,-30.1714,-36.6706,3.12023,5877.95,-2180.06,8508.75,81.3026,310.149,-91.2004,-890.262,10243.7,-1449.58,16.2178,-41.2567,3.89095,-1776.88,-8295.15,921.622,-44.1815,33.2872,-294.268,-2484.9,9765.47,-1064.47,14.5401,-70.6811,-109.527,-5697.59,-6308.26,-1778.59,23.5076,64.0946,-166.576,5932.31,1512.24,2484.4,-30.5741,-10.3648,-72.602
3.498,4147.61,-1034.88,8984.31,-30.1592,-36.7248,3.04894,5867.8,-2158.86,8525.5,81.2332,310.595,-90.309,-890.228,10228.2,-1462.28,16.0277,-41.7074,3.84325,-1804.29,-8310.72,926.207,-44.0402,32.9137,-294.858,-2474.01,9759.25,-1076.46,14.6157,-71.5248,-109.594,-5709.99,-6258.31,-1790.0,23.5634,64.4945,-166.506,5931.86,1517.69,2462.48,-30.8906,-10.3852,-72.3833
3.4985,4145.02,-1048.04,8969.76,-30.1301,-36.7407,3.00061,5835.12,-2106.6,8557.74,81.1459,310.808,-89.3587,-886.886,10209.1,-1477.76,15.8299,-42.1574,3.75086,-1808.78,-8331.14,930.78,-43.9407,32.4728,-295.447,-2462.33,9754.44,-1080.25,14.7065,-72.4556,-109.649,-5722.48,-6214.94,-1790.27,23.6314,65.0168,-166.42,5955.86,1525.07,2425.51,-31.0798,-10.3348,-72.1415
3.499,4142.42,-1061.2,8955.22,-30.101,-36.7567,2.95228,5802.44,-2054.34,8589.98,81.0586,311.021,-88.4085,-883.544,10190.0,-1493.24,15.6322,-42.6074,3.65848,-1813.26,-8351.55,935.352,-43.8412,32.0319,-296.035,-2450.64,9749.64,-1084.05,14.7973,-73.3863,-109.704,-5734.98,-6171.57,-1790.55,23.6994,65.5391,-166.334,5979.85,1532.45,2388.54,-31.2689,-10.2845,-71.8997
3.4995,4139.83,-1074.36,8940.67,-30.0719,-36.7726,2.90395,5769.75,-2002.08,8622.22,80.9713,311.234,-87.4582,-880.202,10170.9,-1508.72,15.4345,-43.0574,3.56609,-1817.74,-8371.97,939.925,-43.7417,31.5911,-296.624,-2438.96,9744.83,-1087.84,14.8881,-74.3171,-109.76,-5747.47,-6128.2,-1790.82,23.7673,66.0614,-166.249,6003.85,1539.82,2351.57,-31.4581,-10.2341,-71.6579
3.5,4137.24,-1087.52,8926.13,-30.0428,-36.7885,2.85561,5737.07,-1949.82,8654.45,80.884,311.446,-86.5079,-876.86,10151.8,-1524.21,15.2367,-43.5074,3.4737,-1822.23,-8392.38,944.497,-43.6422,31.1502,-297.213,-2427.28,9740.03,-1091.64,14.9788,-75.2479,-109.815,-5759.97,-6084.84,-1791.09,23.8353,66.5836,-166.163,6027.84,1547.2,2314.6,-31.6473,-10.1838,-71.4161
3.5005,4134.64,-1100.68,8911.58,-30.0137,-36.8045,2.80728,5704.39,-1897.56,8686.69,80.7967,311.659,-85.5576,-873.518,10132.6,-1539.69,15.039,-43.9574,3.38131,-1826.71,-8412.8,949.07,-43.5427,30.7093,-297.801,-2415.6,9735.22,-1095.43,15.0696,-76.1787,-109.87,-5772.46,-6041.47,-1791.36,23.9033,67.1059,-166.077,6051.84,1554.58,2277.63,-31.8365,-10.1334,-71.1743
3.501,4132.05,-1113.84,8897.03,-29.9846,-36.8204,2.75895,5671.71,-1845.31,8718.93,80.7094,311.872,-84.6074,-870.176,10113.5,-1555.17,14.8412,-44.4074,3.28892,-1831.19,-8433.21,953.642,-43.4432,30.2684,-298.39,-2403.92,9730.42,-1099.22,15.1604,-77.1095,-109.925,-5784.95,-5998.1,-1791.63,23.9713,67.6282,-165.991,6075.83,1561.95,2240.66,-32.0256,-10.083,-70.9325
3.5015,4129.46,-1127.0,8882.49,-29.9555,-36.8364,2.71062,5639.02,-1793.05,8751.17,80.6221,312.085,-83.6571,-866.835,10094.4,-1570.66,14.6435,-44.8573,3.19653,-1835.68,-8453.63,958.214,-43.3436,29.8276,-298.979,-2392.23,9725.61,-1103.02,15.2512,-78.0403,-109.98,-5797.45,-5954.74,-1791.9,24.0393,68.1505,-165.905,6099.83,1569.33,2203.69,-32.2148,-10.0327,-70.6907
3.502,4126.86,-1140.16,8867.94,-29.9264,-36.8523,2.66229,5606.34,-1740.79,8783.4,80.5348,312.297,-82.7068,-863.493,10075.3,-1586.14,14.4457,-45.3073,3.10414,-1840.16,-8474.04,962.787,-43.2441,29.3867,-299.567,-2380.55,9720.8,-1106.81,15.342,-78.9711,-110.035,-5809.94,-5911.37,-1792.17,24.1073,68.6728,-165.819,6123.82,1576.7,2166.72,-32.404,-9.9823,-70.4489
3.5025,4142.95,-1154.39,8854.98,-29.8793,-36.8612,2.6096,5578.34,-1687.75,8805.82,80.4316,312.478,-81.8672,-864.71,10055.0,-1601.21,14.2477,-45.7624,2.98969,-1835.74,-8500.99,969.257,-43.1241,28.8488,-300.139,-2360.36,9718.49,-1104.7,15.4068,-80.0126,-110.102,-5822.6,-5870.45,-1794.73,24.1228,69.2674,-165.741,6126.38,1563.32,2149.38,-32.7147,-10.132,-70.3166
3.503,4173.97,-1169.46,8843.29,-29.8179,-36.8645,2.55344,5554.08,-1634.09,8820.39,80.3157,312.633,-81.1161,-869.575,10033.8,-1615.96,14.0496,-46.2214,2.85759,-1824.19,-8533.17,977.245,-42.9878,28.2332,-300.697,-2333.35,9718.16,-1097.87,15.4509,-81.1427,-110.177,-5835.38,-5831.47,-1799.1,24.0964,69.9198,-165.668,6111.78,1533.32,2147.72,-33.1227,-10.4419,-70.2719
3.5035,4204.99,-1184.54,8831.59,-29.7565,-36.8678,2.49728,5529.83,-1580.43,8834.96,80.1998,312.788,-80.365,-874.44,10012.5,-1630.7,13.8514,-46.6805,2.72548,-1812.65,-8565.35,985.232,-42.8514,27.6176,-301.254,-2306.35,9717.83,-1091.03,15.495,-82.2728,-110.253,-5848.17,-5792.5,-1803.48,24.07,70.5722,-165.596,6097.18,1503.32,2146.07,-33.5307,-10.7517,-70.2272
3.504,4236.01,-1199.62,8819.9,-29.6951,-36.8711,2.44112,5505.57,-1526.77,8849.53,80.0839,312.944,-79.614,-879.305,9991.28,-1645.45,13.6533,-47.1396,2.59338,-1801.1,-8597.53,993.22,-42.715,27.002,-301.812,-2279.34,9717.51,-1084.19,15.5391,-83.4029,-110.329,-5860.95,-5753.53,-1807.85,24.0436,71.2246,-165.523,6082.58,1473.32,2144.42,-33.9387,-11.0615,-70.1825
3.5045,4267.03,-1214.7,8808.21,-29.6336,-36.8744,2.38496,5481.31,-1473.11,8864.1,79.968,313.099,-78.8629,-884.17,9970.03,-1660.2,13.4551,-47.5986,2.46128,-1789.56,-8629.71,1001.21,-42.5786,26.3865,-302.37,-2252.34,9717.18,-1077.36,15.5832,-84.5329,-110.404,-5873.74,-5714.56,-1812.23,24.0171,71.877,-165.451,6067.99,1443.33,2142.77,-34.3467,-11.3713,-70.1378
3.505,4298.05,-1229.77,8796.52,-29.5722,-36.8776,2.3288,5457.06,-1419.45,8878.67,79.8521,313.254,-78.1118,-889.035,9948.78,-1674.94,13.257,-48.0577,2.32917,-1778.01,-8661.89,1009.2,-42.4422,25.7709,-302.927,-2225.34,9716.86,-1070.52,15.6273,-85.663,-110.48,-5886.52,-5675.59,-1816.61,23.9907,72.5294,-165.378,6053.39,1413.33,2141.12,-34.7547,-11.6811,-70.0932
3.5055,4329.07,-1244.85,8784.82,-29.5108,-36.8809,2.27264,5432.8,-1365.79,8893.24,79.7362,313.409,-77.3607,-893.9,9927.53,-1689.69,13.0588,-48.5168,2.19707,-1766.47,-8694.07,1017.18,-42.3058,25.1553,-303.485,-2198.33,9716.53,-1063.69,15.6714,-86.7931,-110.555,-5899.31,-5636.61,-1820.98,23.9643,73.1818,-165.305,6038.79,1383.33,2139.47,-35.1627,-11.9909,-70.0485
3.506,4360.09,-1259.93,8773.13,-29.4494,-36.8842,2.21648,5408.55,-1312.13,8907.81,79.6203,313.564,-76.6096,-898.765,9906.27,-1704.43,12.8606,-48.9758,2.06497,-1754.92,-8726.25,1025.17,-42.1694,24.5398,-304.043,-2171.33,9716.2,-1056.85,15.7155,-87.9232,-110.631,-5912.09,-5597.64,-1825.36,23.9379,73.8342,-165.233,6024.19,1353.33,2137.82,-35.5707,-12.3008,-70.0038
3.5065,4391.11,-1275.0,8761.44,-29.388,-36.8875,2.16032,5384.29,-1258.47,8922.38,79.5044,313.719,-75.8585,-903.63,9885.02,-1719.18,12.6625,-49.4349,1.93286,-1743.38,-8758.43,1033.16,-42.033,23.9242,-304.6,-2144.32,9715.88,-1050.02,15.7596,-89.0533,-110.707,-5924.87,-5558.67,-1829.74,23.9115,74.4866,-165.16,6009.59,1323.34,2136.16,-35.9787,-12.6106,-69.9591
3.507,4408.79,-1284.81,8741.41,-29.367,-36.7983,2.02418,5392.14,-1220.43,8926.81,79.361,313.932,-75.2671,-910.304,9872.48,-1738.2,12.4784,-49.8377,1.84313,-1735.13,-8785.75,1053.02,-41.9495,23.139,-305.164,-2132.27,9708.62,-1040.15,15.7521,-90.3274,-110.815,-5926.83,-5518.29,-1834.06,23.841,75.0404,-165.078,6005.79,1328.17,2119.76,-36.1845,-12.8212,-69.8823
3.5075,4419.8,-1291.98,8717.22,-29.3661,-36.663,1.84805,5416.05,-1190.19,8926.17,79.2037,314.173,-74.7555,-917.883,9864.3,-1759.35,12.3014,-50.2124,1.7746,-1728.52,-8810.64,1078.81,-41.8925,22.2691,-305.73,-2127.7,9697.89,-1028.76,15.7187,-91.6737,-110.94,-5923.37,-5477.21,-1838.36,23.7485,75.5449,-164.992,6007.38,1350.42,2095.98,-36.289,-12.9823,-69.7894
3.508,4430.81,-1299.15,8693.03,-29.3653,-36.5276,1.67192,5439.96,-1159.95,8925.54,79.0465,314.415,-74.2439,-925.462,9856.12,-1780.5,12.1243,-50.5871,1.70606,-1721.92,-8835.53,1104.6,-41.8354,21.3991,-306.297,-2123.12,9687.16,-1017.37,15.6853,-93.0199,-111.065,-5919.91,-5436.13,-1842.66,23.656,76.0495,-164.905,6008.97,1372.66,2072.2,-36.3936,-13.1434,-69.6966
3.5085,4441.82,-1306.31,8668.84,-29.3644,-36.3922,1.49579,5463.86,-1129.72,8924.9,78.8892,314.656,-73.7323,-933.041,9847.93,-1801.66,11.9473,-50.9618,1.63752,-1715.32,-8860.42,1130.39,-41.7783,20.5291,-306.863,-2118.55,9676.43,-1005.99,15.652,-94.3662,-111.19,-5916.45,-5395.05,-1846.96,23.5635,76.554,-164.818,6010.56,1394.91,2048.42,-36.4981,-13.3045,-69.6037
3.509,4452.83,-1313.48,8644.65,-29.3636,-36.2569,1.31966,5487.77,-1099.48,8924.26,78.732,314.898,-73.2207,-940.62,9839.75,-1822.81,11.7702,-51.3365,1.56898,-1708.72,-8885.31,1156.18,-41.7212,19.6592,-307.429,-2113.97,9665.7,-994.598,15.6186,-95.7124,-111.315,-5912.99,-5353.96,-1851.25,23.471,77.0586,-164.732,6012.15,1417.16,2024.64,-36.6027,-13.4655,-69.5108
3.5095,4463.84,-1320.65,8620.46,-29.3627,-36.1215,1.14352,5511.68,-1069.25,8923.62,78.5748,315.139,-72.7091,-948.199,9831.56,-1843.96,11.5932,-51.7112,1.50044,-1702.12,-8910.2,1181.97,-41.6641,18.7892,-307.996,-2109.4,9654.97,-983.211,15.5853,-97.0587,-111.439,-5909.53,-5312.88,-1855.55,23.3785,77.5631,-164.645,6013.74,1439.41,2000.86,-36.7072,-13.6266,-69.4179
3.51,4474.85,-1327.82,8596.27,-29.3619,-35.9861,0.967393,5535.58,-1039.01,8922.98,78.4175,315.38,-72.1975,-955.778,9823.38,-1865.12,11.4161,-52.086,1.4319,-1695.52,-8935.09,1207.76,-41.6071,17.9193,-308.562,-2104.82,9644.24,-971.823,15.5519,-98.4049,-111.564,-5906.07,-5271.8,-1859.85,23.286,78.0676,-164.559,6015.33,1461.65,1977.08,-36.8118,-13.7877,-69.3251
3.5105,4485.85,-1334.99,8572.08,-29.3611,-35.8507,0.791262,5559.49,-1008.77,8922.34,78.2603,315.622,-71.6859,-963.357,9815.19,-1886.27,11.2391,-52.4607,1.36336,-1688.92,-8959.98,1233.55,-41.55,17.0493,-309.128,-2100.25,9633.51,-960.436,15.5186,-99.7512,-111.689,-5902.61,-5230.72,-1864.15,23.1935,78.5722,-164.472,6016.92,1483.9,1953.3,-36.9163,-13.9488,-69.2322
3.511,4496.86,-1342.16,8547.89,-29.3602,-35.7154,0.615131,5583.4,-978.539,8921.7,78.1031,315.863,-71.1743,-970.936,9807.01,-1907.42,11.062,-52.8354,1.29482,-1682.32,-8984.87,1259.34,-41.4929,16.1793,-309.695,-2095.67,9622.78,-949.048,15.4852,-101.097,-111.814,-5899.15,-5189.64,-1868.45,23.101,79.0767,-164.385,6018.51,1506.15,1929.52,-37.0209,-14.1098,-69.1393
3.5115,4502.47,-1352.43,8539.18,-29.4093,-35.6392,0.516215,5621.84,-964.938,8931.9,77.8456,316.159,-70.798,-976.014,9793.69,-1929.93,10.9324,-53.2145,1.23499,-1680.67,-9010.78,1255.45,-41.4203,15.2435,-310.202,-2088.6,9602.03,-928.148,15.4962,-102.667,-111.888,-5884.71,-5166.72,-1861.57,22.9535,79.4038,-164.268,6050.45,1484.13,1921.03,-37.0299,-14.0568,-68.9325
3.512,4506.53,-1363.59,8534.89,-29.4727,-35.58,0.439361,5664.43,-956.09,8945.2,77.5596,316.47,-70.4603,-980.377,9778.9,-1952.83,10.8162,-53.5949,1.17764,-1680.43,-9036.98,1243.07,-41.3432,14.2889,-310.692,-2080.81,9578.42,-904.53,15.52,-104.3,-111.947,-5867.14,-5148.99,-1851.5,22.7903,79.6803,-164.141,6091.06,1449.47,1916.91,-37.0116,-13.9426,-68.6931
3.5125,4510.6,-1374.74,8530.6,-29.5361,-35.5207,0.362506,5707.02,-947.242,8958.49,77.2736,316.782,-70.1226,-984.74,9764.11,-1975.72,10.7001,-53.9753,1.12029,-1680.2,-9063.18,1230.69,-41.2662,13.3343,-311.182,-2073.03,9554.81,-880.911,15.5437,-105.933,-112.007,-5849.58,-5131.26,-1841.43,22.627,79.9567,-164.014,6131.67,1414.81,1912.79,-36.9933,-13.8285,-68.4538
3.513,4514.66,-1385.9,8526.31,-29.5995,-35.4615,0.285652,5749.61,-938.394,8971.78,76.9876,317.093,-69.785,-989.103,9749.33,-1998.61,10.584,-54.3557,1.06294,-1679.96,-9089.39,1218.32,-41.1891,12.3797,-311.672,-2065.24,9531.21,-857.293,15.5674,-107.567,-112.066,-5832.01,-5113.53,-1831.36,22.4638,80.2331,-163.888,6172.29,1380.15,1908.68,-36.975,-13.7143,-68.2144
3.5135,4518.72,-1397.05,8522.02,-29.6629,-35.4022,0.208798,5792.21,-929.547,8985.08,76.7015,317.404,-69.4473,-993.466,9734.54,-2021.51,10.4679,-54.736,1.00559,-1679.73,-9115.59,1205.94,-41.112,11.4251,-312.161,-2057.46,9507.6,-833.674,15.5911,-109.2,-112.126,-5814.44,-5095.8,-1821.28,22.3006,80.5095,-163.761,6212.9,1345.48,1904.56,-36.9567,-13.6001,-67.9751
3.514,4522.78,-1408.21,8517.73,-29.7262,-35.3429,0.131944,5834.8,-920.699,8998.37,76.4155,317.716,-69.1096,-997.829,9719.75,-2044.4,10.3518,-55.1164,0.948245,-1679.49,-9141.79,1193.56,-41.035,10.4705,-312.651,-2049.67,9483.99,-810.056,15.6148,-110.833,-112.185,-5796.87,-5078.07,-1811.21,22.1374,80.7859,-163.635,6253.51,1310.82,1900.44,-36.9384,-13.4859,-67.7357
3.5145,4526.85,-1419.37,8513.44,-29.7896,-35.2837,0.0550894,5877.39,-911.851,9011.66,76.1295,318.027,-68.772,-1002.19,9704.96,-2067.29,10.2357,-55.4968,0.890897,-1679.26,-9168.0,1181.18,-40.9579,9.51588,-313.141,-2041.89,9460.38,-786.438,15.6385,-112.467,-112.245,-5779.3,-5060.35,-1801.14,21.9742,81.0623,-163.508,6294.12,1276.16,1896.32,-36.9201,-13.3718,-67.4963
3.515,4530.91,-1430.52,8509.15,-29.853,-35.2244,-0.0217648,5919.98,-903.003,9024.96,75.8434,318.338,-68.4343,-1006.56,9690.18,-2090.19,10.1196,-55.8772,0.833548,-1679.02,-9194.2,1168.81,-40.8808,8.56127,-313.631,-2034.1,9436.77,-762.819,15.6623,-114.1,-112.304,-5761.73,-5042.62,-1791.07,21.8109,81.3387,-163.382,6334.73,1241.5,1892.2,-36.9018,-13.2576,-67.257
3.5155,4534.97,-1441.68,8504.86,-29.9164,-35.1652,-0.0986191,5962.57,-894.155,9038.25,75.5574,318.65,-68.0966,-1010.92,9675.39,-2113.08,10.0034,-56.2576,0.7762,-1678.79,-9220.4,1156.43,-40.8038,7.60666,-314.121,-2026.32,9413.16,-739.201,15.686,-115.733,-112.364,-5744.16,-5024.89,-1781.0,21.6477,81.6152,-163.255,6375.34,1206.83,1888.09,-36.8835,-13.1434,-67.0176
3.516,4548.35,-1480.41,8494.39,-29.9265,-35.0531,-0.21462,6010.82,-867.14,9073.44,75.2498,319.014,-67.7611,-1002.62,9662.62,-2134.56,9.89912,-56.631,0.683337,-1687.57,-9268.59,1133.87,-40.7287,6.85811,-314.576,-2031.83,9391.31,-718.127,15.6917,-117.532,-112.512,-5725.71,-5014.54,-1766.59,21.5468,81.6991,-163.043,6360.99,1176.04,1883.62,-37.056,-12.9183,-66.8458
3.5165,4562.89,-1522.59,8483.14,-29.93,-34.9345,-0.335515,6059.78,-837.854,9111.36,74.9396,319.384,-67.4259,-992.728,9650.11,-2155.87,9.79626,-57.0035,0.586035,-1697.49,-9319.52,1110.04,-40.654,6.13531,-315.027,-2039.0,9369.68,-697.371,15.6953,-119.351,-112.672,-5707.15,-5005.11,-1751.63,21.4536,81.7589,-162.821,6339.77,1145.72,1879.12,-37.2522,-12.6792,-66.6825
3.517,4577.43,-1564.76,8471.89,-29.9335,-34.8158,-0.45641,6108.74,-808.568,9149.28,74.6293,319.755,-67.0907,-982.84,9637.6,-2177.18,9.6934,-57.3761,0.488732,-1707.4,-9370.45,1086.21,-40.5792,5.41252,-315.477,-2046.18,9348.05,-676.616,15.6988,-121.17,-112.832,-5688.59,-4995.68,-1736.68,21.3604,81.8188,-162.598,6318.54,1115.41,1874.61,-37.4485,-12.4402,-66.5191
3.5175,4591.97,-1606.94,8460.64,-29.937,-34.6971,-0.577305,6157.69,-779.281,9187.2,74.319,320.125,-66.7555,-972.953,9625.09,-2198.48,9.59055,-57.7486,0.39143,-1717.31,-9421.38,1062.38,-40.5044,4.68973,-315.928,-2053.35,9326.43,-655.86,15.7023,-122.989,-112.992,-5670.03,-4986.25,-1721.73,21.2672,81.8786,-162.376,6297.32,1085.1,1870.1,-37.6447,-12.2012,-66.3558
3.518,4606.5,-1649.11,8449.4,-29.9405,-34.5785,-0.6982,6206.65,-749.995,9225.12,74.0088,320.496,-66.4203,-963.066,9612.58,-2219.79,9.48769,-58.1211,0.294127,-1727.22,-9472.31,1038.55,-40.4296,3.96693,-316.378,-2060.53,9304.8,-635.104,15.7058,-124.808,-113.152,-5651.47,-4976.83,-1706.77,21.1741,81.9385,-162.153,6276.1,1054.79,1865.59,-37.841,-11.9621,-66.1924
3.5185,4621.04,-1691.29,8438.15,-29.9439,-34.4598,-0.819094,6255.61,-720.709,9263.04,73.6985,320.867,-66.0851,-953.179,9600.07,-2241.09,9.38483,-58.4937,0.196825,-1737.14,-9523.25,1014.72,-40.3549,3.24414,-316.829,-2067.71,9283.17,-614.348,15.7094,-126.627,-113.312,-5632.91,-4967.4,-1691.82,21.0809,81.9983,-161.931,6254.87,1024.47,1861.09,-38.0373,-11.7231,-66.0291
3.519,4635.58,-1733.47,8426.9,-29.9474,-34.3411,-0.939989,6304.56,-691.423,9300.96,73.3882,321.237,-65.7498,-943.291,9587.55,-2262.4,9.28198,-58.8662,0.0995227,-1747.05,-9574.18,990.888,-40.2801,2.52134,-317.279,-2074.88,9261.54,-593.593,15.7129,-128.446,-113.472,-5614.35,-4957.97,-1676.87,20.9877,82.0582,-161.708,6233.65,994.162,1856.58,-38.2335,-11.4841,-65.8657
3.5195,4650.12,-1775.64,8415.65,-29.9509,-34.2225,-1.06088,6353.52,-662.137,9338.88,73.0779,321.608,-65.4146,-933.404,9575.04,-2283.71,9.17912,-59.2388,0.0022203,-1756.96,-9625.11,967.058,-40.2053,1.79855,-317.73,-2082.06,9239.91,-572.837,15.7164,-130.265,-113.632,-5595.79,-4948.54,-1661.91,20.8946,82.118,-161.486,6212.43,963.85,1852.07,-38.4298,-11.2451,-65.7024
3.52,4664.66,-1817.82,8404.41,-29.9544,-34.1038,-1.18178,6402.48,-632.85,9376.8,72.7677,321.978,-65.0794,-923.517,9562.53,-2305.01,9.07626,-59.6113,-0.0950821,-1766.88,-9676.04,943.228,-40.1306,1.07576,-318.18,-2089.23,9218.28,-552.081,15.7199,-132.084,-113.792,-5577.23,-4939.11,-1646.96,20.8014,82.1779,-161.263,6191.2,933.537,1847.57,-38.6261,-11.006,-65.539
3.5205,4658.54,-1842.02,8403.19,-30.0116,-33.9981,-1.46476,6448.99,-593.347,9402.95,72.4964,322.27,-64.8402,-920.495,9560.1,-2317.26,8.97075,-59.8994,-0.177218,-1760.1,-9739.28,927.581,-40.0629,0.541067,-318.689,-2099.68,9219.63,-550.907,15.585,-133.783,-113.903,-5562.04,-4926.19,-1633.98,20.8646,82.12,-161.016,6163.34,954.085,1847.11,-38.7977,-11.0585,-65.5123
3.521,4652.42,-1866.22,8401.98,-30.0688,-33.8923,-1.74773,6495.51,-553.843,9429.11,72.225,322.563,-64.6009,-917.473,9557.67,-2329.5,8.86524,-60.1875,-0.259355,-1753.33,-9802.52,911.935,-39.9953,0.00637662,-319.197,-2110.13,9220.97,-549.734,15.4501,-135.483,-114.014,-5546.84,-4913.26,-1621.0,20.9278,82.0621,-160.769,6135.47,974.633,1846.66,-38.9693,-11.1109,-65.4856
3.5215,4646.3,-1890.42,8400.76,-30.126,-33.7866,-2.03071,6542.02,-514.339,9455.26,71.9537,322.855,-64.3617,-914.451,9555.24,-2341.75,8.75973,-60.4756,-0.341491,-1746.56,-9865.76,896.289,-39.9277,-0.528313,-319.705,-2120.57,9222.32,-548.56,15.3152,-137.182,-114.125,-5531.65,-4900.34,-1608.02,20.991,82.0042,-160.522,6107.61,995.181,1846.21,-39.141,-11.1633,-65.4589
3.522,4640.18,-1914.62,8399.55,-30.1832,-33.6809,-2.31368,6588.54,-474.836,9481.42,71.6824,323.147,-64.1225,-911.429,9552.81,-2353.99,8.65421,-60.7637,-0.423627,-1739.78,-9929.0,880.643,-39.8601,-1.063,-320.214,-2131.02,9223.66,-547.386,15.1802,-138.881,-114.236,-5516.46,-4887.41,-1595.04,21.0541,81.9464,-160.276,6079.74,1015.73,1845.75,-39.3126,-11.2157,-65.4322
3.5225,4634.06,-1938.82,8398.33,-30.2404,-33.5752,-2.59666,6635.06,-435.332,9507.57,71.411,323.439,-63.8833,-908.407,9550.38,-2366.24,8.5487,-61.0518,-0.505764,-1733.01,-9992.24,864.997,-39.7924,-1.59769,-320.722,-2141.47,9225.01,-546.213,15.0453,-140.581,-114.346,-5501.26,-4874.49,-1582.07,21.1173,81.8885,-160.029,6051.88,1036.28,1845.3,-39.4843,-11.2682,-65.4054
3.523,4627.94,-1963.02,8397.12,-30.2977,-33.4695,-2.87964,6681.57,-395.828,9533.72,71.1397,323.731,-63.644,-905.385,9547.95,-2378.48,8.44319,-61.34,-0.5879,-1726.24,-10055.5,849.35,-39.7248,-2.13238,-321.23,-2151.92,9226.35,-545.039,14.9104,-142.28,-114.457,-5486.07,-4861.56,-1569.09,21.1805,81.8306,-159.782,6024.01,1056.83,1844.85,-39.6559,-11.3206,-65.3787
3.5235,4621.82,-1987.22,8395.9,-30.3549,-33.3637,-3.16261,6728.09,-356.325,9559.88,70.8684,324.024,-63.4048,-902.363,9545.51,-2390.73,8.33767,-61.6281,-0.670037,-1719.46,-10118.7,833.704,-39.6572,-2.66707,-321.739,-2162.36,9227.69,-543.865,14.7755,-143.979,-114.568,-5470.88,-4848.64,-1556.11,21.2437,81.7727,-159.535,5996.14,1077.37,1844.39,-39.8275,-11.373,-65.352
3.524,4615.69,-2011.42,8394.69,-30.4121,-33.258,-3.44559,6774.6,-316.821,9586.03,70.597,324.316,-63.1656,-899.341,9543.08,-2402.97,8.23216,-61.9162,-0.752173,-1712.69,-10182.0,818.058,-39.5895,-3.20176,-322.247,-2172.81,9229.04,-542.691,14.6406,-145.678,-114.679,-5455.69,-4835.71,-1543.13,21.3069,81.7148,-159.288,5968.28,1097.92,1843.94,-39.9992,-11.4254,-65.3253
3.5245,4609.41,-2033.06,8393.77,-30.4699,-33.1494,-3.73358,6820.03,-278.772,9612.9,70.3288,324.598,-62.9596,-896.081,9540.25,-2414.11,8.12911,-62.1919,-0.828167,-1707.7,-10242.6,803.832,-39.5259,-3.7106,-322.762,-2181.93,9230.01,-544.071,14.4897,-147.334,-114.788,-5439.73,-4822.59,-1529.88,21.369,81.6391,-159.036,5938.59,1115.64,1841.87,-40.2127,-11.4771,-65.266
3.525,4601.79,-2034.18,8395.25,-30.5324,-33.0177,-4.06174,6856.75,-252.36,9645.44,70.0859,324.802,-63.0194,-890.917,9534.14,-2416.42,8.0457,-62.3684,-0.855022,-1716.97,-10282.2,800.971,-39.4937,-4.01257,-323.333,-2180.42,9228.03,-565.878,14.2115,-148.643,-114.884,-5417.65,-4807.85,-1514.48,21.4223,81.4211,-158.74,5894.34,1110.75,1826.88,-40.7613,-11.5221,-64.9465
3.5255,4594.17,-2035.3,8396.72,-30.5949,-32.886,-4.38989,6893.47,-225.948,9677.99,69.8429,325.005,-63.0793,-885.753,9528.04,-2418.73,7.9623,-62.545,-0.881878,-1726.23,-10321.9,798.11,-39.4615,-4.31454,-323.905,-2178.92,9226.04,-587.684,13.9334,-149.952,-114.98,-5395.58,-4793.12,-1499.07,21.4757,81.203,-158.443,5850.08,1105.85,1811.89,-41.3099,-11.5671,-64.6269
3.526,4586.55,-2036.42,8398.2,-30.6574,-32.7543,-4.71805,6930.19,-199.537,9710.53,69.5999,325.208,-63.1392,-880.588,9521.94,-2421.04,7.8789,-62.7215,-0.908733,-1735.5,-10361.6,795.249,-39.4293,-4.61651,-324.476,-2177.41,9224.05,-609.49,13.6552,-151.26,-115.076,-5373.51,-4778.38,-1483.67,21.529,80.985,-158.147,5805.82,1100.95,1796.89,-41.8585,-11.6122,-64.3074
3.5265,4578.93,-2037.54,8399.68,-30.7199,-32.6226,-5.0462,6966.92,-173.125,9743.08,69.357,325.412,-63.199,-875.424,9515.83,-2423.34,7.7955,-62.8981,-0.935589,-1744.77,-10401.2,792.388,-39.3972,-4.91848,-325.047,-2175.91,9222.07,-631.297,13.377,-152.569,-115.172,-5351.43,-4763.65,-1468.27,21.5824,80.7669,-157.851,5761.57,1096.06,1781.9,-42.4071,-11.6572,-63.9878
3.527,4571.31,-2038.66,8401.15,-30.7824,-32.4909,-5.37435,7003.64,-146.713,9775.62,69.114,325.615,-63.2589,-870.259,9509.73,-2425.65,7.7121,-63.0746,-0.962444,-1754.04,-10440.9,789.527,-39.365,-5.22045,-325.618,-2174.4,9220.08,-653.103,13.0988,-153.877,-115.269,-5329.36,-4748.92,-1452.86,21.6357,80.5489,-157.554,5717.31,1091.16,1766.91,-42.9557,-11.7023,-63.6683
3.5275,4563.69,-2039.79,8402.63,-30.8449,-32.3592,-5.70251,7040.36,-120.301,9808.17,68.871,325.819,-63.3188,-865.095,9503.63,-2427.96,7.62869,-63.2512,-0.9893,-1763.3,-10480.6,786.666,-39.3328,-5.52243,-326.189,-2172.89,9218.09,-674.91,12.8206,-155.186,-115.365,-5307.28,-4734.18,-1437.46,21.6891,80.3308,-157.258,5673.06,1086.26,1751.92,-43.5043,-11.7473,-63.3487
3.528,4556.07,-2040.91,8404.11,-30.9075,-32.2275,-6.03066,7077.08,-93.8891,9840.71,68.6281,326.022,-63.3786,-859.931,9497.52,-2430.27,7.54529,-63.4277,-1.01616,-1772.57,-10520.2,783.805,-39.3007,-5.8244,-326.761,-2171.39,9216.11,-696.716,12.5425,-156.494,-115.461,-5285.21,-4719.45,-1422.05,21.7424,80.1128,-156.962,5628.8,1081.37,1736.93,-44.0529,-11.7923,-63.0292
3.5285,4548.46,-2042.03,8405.58,-30.97,-32.0958,-6.35881,7113.8,-67.4772,9873.26,68.3851,326.225,-63.4385,-854.766,9491.42,-2432.57,7.46189,-63.6042,-1.04301,-1781.84,-10559.9,780.944,-39.2685,-6.12637,-327.332,-2169.88,9214.12,-718.523,12.2643,-157.803,-115.557,-5263.14,-4704.72,-1406.65,21.7958,79.8947,-156.666,5584.54,1076.47,1721.93,-44.6015,-11.8374,-62.7096
3.529,4541.61,-2040.78,8405.42,-31.0238,-31.9687,-6.66567,7147.62,-42.5775,9904.79,68.1254,326.398,-63.536,-848.874,9483.58,-2433.99,7.39698,-63.7546,-1.0738,-1792.48,-10598.9,777.998,-39.2457,-6.36433,-327.903,-2168.98,9213.37,-743.733,11.9558,-159.015,-115.657,-5243.63,-4690.2,-1391.87,21.8598,79.6606,-156.34,5558.72,1076.7,1702.04,-45.0703,-11.8516,-62.3811
3.5295,4537.47,-2031.22,8399.5,-31.0473,-31.858,-6.89796,7171.27,-22.9702,9932.76,67.807,326.463,-63.7652,-840.433,9469.66,-2432.29,7.39679,-63.8133,-1.11836,-1807.96,-10635.5,774.754,-39.2559,-6.37826,-328.472,-2170.22,9216.94,-780.859,11.5413,-159.888,-115.775,-5233.12,-4676.44,-1379.28,21.9615,79.3706,-155.911,5597.4,1094.85,1664.98,-45.2602,-11.758,-62.0214
3.53,4533.33,-2021.67,8393.58,-31.0708,-31.7473,-7.13026,7194.92,-3.36284,9960.74,67.4887,326.529,-63.9945,-831.992,9455.74,-2430.59,7.39659,-63.872,-1.16292,-1823.44,-10672.2,771.511,-39.266,-6.39219,-329.042,-2171.45,9220.52,-817.985,11.1268,-160.762,-115.892,-5222.6,-4662.68,-1366.7,22.0632,79.0805,-155.483,5636.08,1113.01,1627.93,-45.45,-11.6643,-61.6616
3.5305,4529.19,-2012.12,8387.66,-31.0942,-31.6365,-7.36255,7218.58,16.2445,9988.72,67.1703,326.594,-64.2237,-823.552,9441.82,-2428.88,7.3964,-63.9307,-1.20748,-1838.91,-10708.8,768.267,-39.2762,-6.40612,-329.612,-2172.69,9224.09,-855.111,10.7122,-161.635,-116.009,-5212.09,-4648.91,-1354.11,22.1649,78.7904,-155.054,5674.75,1131.17,1590.87,-45.6399,-11.5707,-61.3018
3.531,4525.05,-2002.56,8381.74,-31.1177,-31.5258,-7.59485,7242.23,35.8518,10016.7,66.8519,326.659,-64.4529,-815.111,9427.89,-2427.18,7.39621,-63.9895,-1.25204,-1854.39,-10745.5,765.023,-39.2864,-6.42005,-330.182,-2173.92,9227.67,-892.236,10.2977,-162.508,-116.126,-5201.57,-4635.15,-1341.52,22.2666,78.5004,-154.626,5713.43,1149.32,1553.82,-45.8297,-11.4771,-60.9421
3.5315,4520.91,-1993.01,8375.82,-31.1412,-31.4151,-7.82714,7265.88,55.4591,10044.7,66.5335,326.724,-64.6822,-806.67,9413.97,-2425.48,7.39602,-64.0482,-1.2966,-1869.87,-10782.1,761.78,-39.2965,-6.43398,-330.751,-2175.15,9231.24,-929.362,9.88318,-163.382,-116.243,-5191.06,-4621.39,-1328.94,22.3683,78.2103,-154.197,5752.11,1167.48,1516.76,-46.0196,-11.3834,-60.5823
3.532,4516.77,-1983.46,8369.9,-31.1647,-31.3044,-8.05944,7289.54,75.0664,10072.6,66.2152,326.79,-64.9114,-798.23,9400.05,-2423.78,7.39582,-64.1069,-1.34116,-1885.34,-10818.8,758.536,-39.3067,-6.44791,-331.321,-2176.39,9234.81,-966.488,9.46866,-164.255,-116.36,-5180.54,-4607.63,-1316.35,22.47,77.9202,-153.768,5790.79,1185.63,1479.7,-46.2094,-11.2898,-60.2226
3.5325,4512.63,-1973.91,8363.98,-31.1881,-31.1937,-8.29174,7313.19,94.6738,10100.6,65.8968,326.855,-65.1406,-789.789,9386.13,-2422.07,7.39563,-64.1656,-1.38572,-1900.82,-10855.4,755.292,-39.3168,-6.46184,-331.891,-2177.62,9238.39,-1003.61,9.05413,-165.129,-116.478,-5170.02,-4593.87,-1303.76,22.5717,77.6301,-153.34,5829.47,1203.79,1442.65,-46.3993,-11.1962,-59.8628
3.533,4508.49,-1964.35,8358.06,-31.2116,-31.0829,-8.52403,7336.84,114.281,10128.6,65.5784,326.92,-65.3699,-781.348,9372.21,-2420.37,7.39544,-64.2243,-1.43028,-1916.3,-10892.1,752.048,-39.327,-6.47577,-332.461,-2178.85,9241.96,-1040.74,8.63961,-166.002,-116.595,-5159.51,-4580.1,-1291.18,22.6733,77.3401,-152.911,5868.15,1221.95,1405.59,-46.5892,-11.1025,-59.503
3.5335,4506.14,-1951.52,8352.03,-31.2498,-30.9671,-8.74198,7355.27,141.3,10155.6,65.2554,326.906,-65.6105,-774.027,9357.91,-2411.59,7.38917,-64.2668,-1.48239,-1924.45,-10932.3,747.91,-39.3581,-6.40347,-333.029,-2171.18,9246.79,-1076.32,8.20377,-166.642,-116.702,-5149.53,-4567.21,-1283.16,22.7535,77.0345,-152.458,5905.76,1233.61,1374.99,-46.8275,-11.0467,-59.1755
3.534,4507.37,-1932.14,8345.77,-31.3174,-30.8409,-8.93123,7363.25,183.14,10180.6,64.9231,326.735,-65.8741,-768.945,9342.86,-2388.67,7.37077,-64.2766,-1.54961,-1917.94,-10979.6,741.982,-39.431,-6.15872,-333.596,-2145.67,9254.12,-1108.79,7.72528,-166.815,-116.787,-5140.64,-4556.04,-1284.3,22.7904,76.6979,-151.955,5941.23,1232.28,1357.3,-47.163,-11.0664,-58.9125
3.5345,4508.59,-1912.76,8339.5,-31.385,-30.7147,-9.12048,7371.24,224.981,10205.7,64.5908,326.563,-66.1377,-763.863,9327.8,-2365.75,7.35237,-64.2865,-1.61682,-1911.44,-11026.9,736.054,-39.504,-5.91397,-334.163,-2120.16,9261.45,-1141.27,7.24679,-166.988,-116.873,-5131.74,-4544.87,-1285.43,22.8274,76.3614,-151.452,5976.71,1230.96,1339.6,-47.4984,-11.0861,-58.6494
3.535,4509.82,-1893.38,8333.24,-31.4525,-30.5886,-9.30973,7379.22,266.822,10230.7,64.2584,326.392,-66.4012,-758.781,9312.75,-2342.82,7.33396,-64.2963,-1.68403,-1904.94,-11074.2,730.125,-39.577,-5.66921,-334.73,-2094.66,9268.78,-1173.74,6.76831,-167.161,-116.958,-5122.84,-4533.7,-1286.57,22.8644,76.0248,-150.949,6012.18,1229.63,1321.91,-47.8339,-11.1058,-58.3864
3.5355,4511.05,-1874.0,8326.98,-31.5201,-30.4624,-9.49899,7387.21,308.663,10255.7,63.9261,326.22,-66.6648,-753.698,9297.69,-2319.9,7.31556,-64.3062,-1.75124,-1898.44,-11121.5,724.197,-39.6499,-5.42446,-335.297,-2069.15,9276.11,-1206.22,6.28982,-167.335,-117.044,-5113.94,-4522.54,-1287.7,22.9014,75.6882,-150.446,6047.66,1228.31,1304.21,-48.1693,-11.1255,-58.1233
3.536,4512.28,-1854.62,8320.72,-31.5877,-30.3362,-9.68824,7395.19,350.504,10280.8,63.5938,326.048,-66.9284,-748.616,9282.63,-2296.97,7.29715,-64.316,-1.81845,-1891.94,-11168.9,718.269,-39.7229,-5.17971,-335.864,-2043.65,9283.45,-1238.7,5.81134,-167.508,-117.13,-5105.04,-4511.37,-1288.84,22.9383,75.3516,-149.944,6083.13,1226.98,1286.51,-48.5047,-11.1452,-57.8603
3.5365,4513.5,-1835.24,8314.46,-31.6553,-30.2101,-9.87749,7403.17,392.345,10305.8,63.2615,325.877,-67.1919,-743.534,9267.58,-2274.05,7.27875,-64.3259,-1.88566,-1885.43,-11216.2,712.341,-39.7958,-4.93496,-336.431,-2018.14,9290.78,-1271.17,5.33285,-167.681,-117.215,-5096.15,-4500.2,-1289.97,22.9753,75.0151,-149.441,6118.6,1225.65,1268.82,-48.8402,-11.1649,-57.5973
3.537,4514.73,-1815.86,8308.2,-31.7229,-30.0839,-10.0667,7411.16,434.185,10330.8,62.9291,325.705,-67.4555,-738.452,9252.52,-2251.13,7.26035,-64.3357,-1.95287,-1878.93,-11263.5,706.413,-39.8688,-4.69021,-336.998,-1992.64,9298.11,-1303.65,4.85436,-167.854,-117.301,-5087.25,-4489.03,-1291.1,23.0123,74.6785,-148.938,6154.08,1224.33,1251.12,-49.1756,-11.1846,-57.3342
3.5375,4515.96,-1796.48,8301.93,-31.7905,-29.9577,-10.256,7419.14,476.026,10355.9,62.5968,325.533,-67.7191,-733.369,9237.47,-2228.2,7.24194,-64.3456,-2.02008,-1872.43,-11310.8,700.485,-39.9417,-4.44545,-337.565,-1967.13,9305.44,-1336.13,4.37588,-168.027,-117.386,-5078.35,-4477.87,-1292.24,23.0493,74.3419,-148.435,6189.55,1223.0,1233.43,-49.511,-11.2043,-57.0712
3.538,4521.02,-1773.79,8294.09,-31.8647,-29.822,-10.4635,7424.04,523.603,10377.8,62.2822,325.246,-68.0386,-727.533,9228.78,-2205.91,7.23815,-64.3652,-2.06376,-1855.31,-11356.1,691.501,-40.0597,-4.07426,-338.092,-1947.71,9311.97,-1369.17,3.87339,-167.969,-117.426,-5072.01,-4475.67,-1291.94,23.0655,73.9852,-147.918,6203.15,1214.85,1216.57,-50.0828,-11.1017,-56.8548
3.5385,4530.87,-1746.94,8284.28,-31.9473,-29.6742,-10.6939,7425.09,578.351,10395.8,61.9896,324.816,-68.428,-720.752,9228.04,-2184.4,7.25263,-64.3969,-2.07803,-1824.93,-11398.8,678.698,-40.2338,-3.54501,-338.57,-1935.9,9317.5,-1402.92,3.3409,-167.622,-117.407,-5068.86,-4484.68,-1289.86,23.0557,73.6032,-147.382,6189.41,1198.18,1200.75,-50.9501,-10.8462,-56.697
3.539,4540.73,-1720.09,8274.47,-32.0299,-29.5265,-10.9242,7426.14,633.099,10413.7,61.697,324.385,-68.8174,-713.972,9227.31,-2162.9,7.26711,-64.4287,-2.0923,-1794.55,-11441.5,665.894,-40.408,-3.01575,-339.047,-1924.09,9323.04,-1436.68,2.80841,-167.276,-117.388,-5065.71,-4493.69,-1287.77,23.0459,73.2212,-146.846,6175.66,1181.5,1184.94,-51.8173,-10.5907,-56.5391
3.5395,4550.58,-1693.24,8264.66,-32.1126,-29.3787,-11.1546,7427.19,687.846,10431.7,61.4044,323.954,-69.2069,-707.192,9226.57,-2141.4,7.28159,-64.4604,-2.10657,-1764.16,-11484.3,653.09,-40.5822,-2.4865,-339.525,-1912.28,9328.57,-1470.43,2.27592,-166.929,-117.369,-5062.57,-4502.7,-1285.69,23.0361,72.8392,-146.311,6161.92,1164.82,1169.12,-52.6845,-10.3352,-56.3812
3.54,4560.43,-1666.39,8254.84,-32.1952,-29.2309,-11.385,7428.24,742.594,10449.7,61.1118,323.523,-69.5963,-700.411,9225.83,-2119.89,7.29607,-64.4922,-2.12084,-1733.78,-11527.0,640.287,-40.7564,-1.95725,-340.002,-1900.48,9334.1,-1504.18,1.74343,-166.582,-117.35,-5059.42,-4511.71,-1283.6,23.0264,72.4572,-145.775,6148.18,1148.14,1153.31,-53.5518,-10.0797,-56.2233
3.5405,4570.29,-1639.55,8245.03,-32.2778,-29.0832,-11.6153,7429.3,797.341,10467.7,60.8192,323.092,-69.9857,-693.631,9225.1,-2098.39,7.31054,-64.5239,-2.13511,-1703.4,-11569.7,627.483,-40.9305,-1.428,-340.48,-1888.67,9339.63,-1537.94,1.21094,-166.235,-117.331,-5056.27,-4520.72,-1281.51,23.0166,72.0752,-145.24,6134.43,1131.47,1137.49,-54.419,-9.82427,-56.0654
3.541,4580.14,-1612.7,8235.22,-32.3604,-28.9354,-11.8457,7430.35,852.089,10485.6,60.5266,322.661,-70.3751,-686.851,9224.36,-2076.88,7.32502,-64.5557,-2.14938,-1673.01,-11612.4,614.68,-41.1047,-0.89875,-340.957,-1876.86,9345.17,-1571.69,0.678447,-165.888,-117.312,-5053.13,-4529.73,-1279.43,23.0068,71.6932,-144.704,6120.69,1114.79,1121.68,-55.2862,-9.56879,-55.9075
3.5415,4589.99,-1585.85,8225.41,-32.443,-28.7877,-12.0761,7431.4,906.836,10503.6,60.234,322.23,-70.7645,-680.07,9223.63,-2055.38,7.3395,-64.5874,-2.16365,-1642.63,-11655.2,601.876,-41.2789,-0.369499,-341.435,-1865.05,9350.7,-1605.44,0.145956,-165.541,-117.294,-5049.98,-4538.75,-1277.34,22.997,71.3113,-144.169,6106.94,1098.11,1105.86,-56.1534,-9.31331,-55.7496
3.542,4599.85,-1559.0,8215.6,-32.5256,-28.6399,-12.3064,7432.45,961.584,10521.6,59.9414,321.799,-71.154,-673.29,9222.89,-2033.87,7.35398,-64.6192,-2.17792,-1612.24,-11697.9,589.073,-41.4531,0.159752,-341.912,-1853.24,9356.23,-1639.2,-0.386534,-165.194,-117.275,-5046.83,-4547.76,-1275.26,22.9872,70.9293,-143.633,6093.2,1081.43,1090.04,-57.0207,-9.05783,-55.5917
3.5425,4613.66,-1552.3,8205.6,-32.5781,-28.5171,-12.5102,7439.58,1010.77,10539.1,59.6505,321.311,-71.6913,-677.914,9221.73,-2025.01,7.40523,-64.6322,-2.22576,-1578.21,-11743.3,577.242,-41.6405,0.806569,-342.392,-1838.59,9357.57,-1679.59,-0.928602,-164.512,-117.245,-5043.02,-4546.8,-1269.39,22.9638,70.5215,-143.044,6099.5,1057.37,1082.66,-57.6295,-8.87167,-55.4923
3.543,4630.63,-1561.72,8195.47,-32.6064,-28.4142,-12.6926,7451.59,1055.5,10556.1,59.3609,320.779,-72.3469,-691.66,9220.24,-2026.25,7.4859,-64.6302,-2.30045,-1541.26,-11791.0,566.189,-41.8386,1.54744,-342.875,-1821.66,9355.57,-1725.29,-1.47833,-163.561,-117.207,-5038.69,-4537.86,-1260.5,22.9294,70.0931,-142.411,6121.84,1027.41,1082.03,-58.0317,-8.74095,-55.4395
3.5435,4647.61,-1571.15,8185.33,-32.6348,-28.3113,-12.875,7463.59,1100.24,10573.1,59.0713,320.246,-73.0025,-705.407,9218.74,-2027.49,7.56657,-64.6282,-2.37514,-1504.32,-11838.7,555.137,-42.0366,2.28831,-343.357,-1804.74,9353.56,-1771.0,-2.02806,-162.61,-117.169,-5034.35,-4528.93,-1251.61,22.8949,69.6647,-141.779,6144.18,997.447,1081.4,-58.4338,-8.61024,-55.3868
3.544,4664.58,-1580.57,8175.2,-32.6631,-28.2084,-13.0575,7475.6,1144.97,10590.2,58.7817,319.714,-73.6581,-719.153,9217.24,-2028.74,7.64724,-64.6263,-2.44983,-1467.37,-11886.4,544.084,-42.2347,3.02918,-343.839,-1787.81,9351.55,-1816.7,-2.57779,-161.659,-117.132,-5030.01,-4519.99,-1242.71,22.8605,69.2363,-141.146,6166.52,967.484,1080.77,-58.8359,-8.47952,-55.3341
3.5445,4681.56,-1589.99,8165.06,-32.6915,-28.1055,-13.2399,7487.6,1189.7,10607.2,58.4921,319.181,-74.3137,-732.9,9215.74,-2029.98,7.72791,-64.6243,-2.52452,-1430.42,-11934.0,533.031,-42.4327,3.77005,-344.322,-1770.89,9349.54,-1862.41,-3.12752,-160.708,-117.094,-5025.68,-4511.06,-1233.82,22.8261,68.8079,-140.514,6188.86,937.521,1080.13,-59.2381,-8.34881,-55.2813
3.545,4698.54,-1599.41,8154.93,-32.7198,-28.0026,-13.4223,7499.6,1234.44,10624.3,58.2025,318.648,-74.9693,-746.647,9214.24,-2031.22,7.80858,-64.6223,-2.59921,-1393.47,-11981.7,521.979,-42.6308,4.51091,-344.804,-1753.96,9347.53,-1908.11,-3.67726,-159.757,-117.056,-5021.34,-4502.13,-1224.93,22.7917,68.3795,-139.881,6211.2,907.557,1079.5,-59.6402,-8.21809,-55.2286
3.5455,4715.51,-1608.83,8144.79,-32.7481,-27.8997,-13.6047,7511.61,1279.17,10641.3,57.9129,318.116,-75.6249,-760.393,9212.75,-2032.47,7.88925,-64.6204,-2.6739,-1356.52,-12029.4,510.926,-42.8289,5.25178,-345.287,-1737.04,9345.52,-1953.81,-4.22699,-158.806,-117.018,-5017.0,-4493.19,-1216.04,22.7573,67.9511,-139.249,6233.54,877.594,1078.87,-60.0424,-8.08738,-55.1759
3.546,4732.49,-1618.25,8134.65,-32.7765,-27.7969,-13.7872,7523.61,1323.9,10658.3,57.6233,317.583,-76.2806,-774.14,9211.25,-2033.71,7.96992,-64.6184,-2.74859,-1319.57,-12077.1,499.873,-43.0269,5.99265,-345.769,-1720.11,9343.52,-1999.52,-4.77672,-157.855,-116.98,-5012.67,-4484.26,-1207.14,22.7229,67.5227,-138.616,6255.88,847.631,1078.23,-60.4445,-7.95666,-55.1231
3.5465,4749.46,-1627.67,8124.52,-32.8048,-27.694,-13.9696,7535.62,1368.64,10675.4,57.3337,317.05,-76.9362,-787.887,9209.75,-2034.95,8.05059,-64.6164,-2.82328,-1282.62,-12124.8,488.821,-43.225,6.73352,-346.251,-1703.18,9341.51,-2045.22,-5.32645,-156.904,-116.942,-5008.33,-4475.32,-1198.25,22.6885,67.0943,-137.984,6278.22,817.667,1077.6,-60.8466,-7.82595,-55.0704
3.547,4762.04,-1629.68,8112.25,-32.7971,-27.58,-14.1642,7567.25,1394.27,10704.2,57.1385,316.585,-77.7521,-811.498,9205.7,-2025.47,8.08144,-64.5811,-2.90465,-1253.34,-12168.3,476.972,-43.4723,7.59967,-346.742,-1698.71,9326.05,-2098.07,-5.89916,-155.603,-116.905,-5000.13,-4475.0,-1192.69,22.5731,66.554,-137.352,6287.19,798.978,1083.03,-60.5933,-7.84275,-54.823
3.5475,4772.43,-1627.97,8098.9,-32.7712,-27.4605,-14.365,7608.7,1410.35,10738.9,56.9905,316.153,-78.6481,-840.041,9200.38,-2010.64,8.08737,-64.5291,-2.98936,-1227.9,-12209.7,464.725,-43.7442,8.52847,-347.238,-1700.46,9303.85,-2154.49,-6.48336,-154.128,-116.869,-4990.0,-4478.98,-1188.79,22.4171,65.9579,-136.719,6289.49,785.925,1091.48,-60.0121,-7.93331,-54.4782
3.548,4782.81,-1626.27,8085.56,-32.7454,-27.341,-14.5658,7650.15,1426.43,10773.7,56.8424,315.721,-79.5441,-868.585,9195.05,-1995.8,8.0933,-64.4772,-3.07407,-1202.46,-12251.1,452.478,-44.016,9.45726,-347.733,-1702.2,9281.67,-2210.91,-7.06755,-152.652,-116.833,-4979.88,-4482.96,-1184.9,22.2612,65.3618,-136.087,6291.78,772.872,1099.93,-59.4309,-8.02387,-54.1334
3.5485,4793.19,-1624.56,8072.22,-32.7196,-27.2215,-14.7665,7691.6,1442.51,10808.4,56.6944,315.289,-80.4401,-897.128,9189.73,-1980.96,8.09923,-64.4252,-3.15878,-1177.02,-12292.5,440.231,-44.2879,10.3861,-348.228,-1703.95,9259.47,-2267.33,-7.65175,-151.177,-116.797,-4969.75,-4486.94,-1181.0,22.1053,64.7656,-135.455,6294.07,759.819,1108.38,-58.8498,-8.11443,-53.7886
3.549,4803.58,-1622.86,8058.88,-32.6937,-27.102,-14.9673,7733.05,1458.59,10843.1,56.5464,314.857,-81.3361,-925.671,9184.4,-1966.12,8.10516,-64.3732,-3.24348,-1151.57,-12333.9,427.984,-44.5598,11.3148,-348.724,-1705.7,9237.28,-2323.75,-8.23595,-149.701,-116.761,-4959.62,-4490.93,-1177.1,21.9493,64.1695,-134.823,6296.37,746.766,1116.84,-58.2686,-8.20498,-53.4438
3.5495,4813.96,-1621.15,8045.54,-32.6679,-26.9826,-15.1681,7774.51,1474.67,10877.8,56.3984,314.426,-82.2321,-954.215,9179.08,-1951.28,8.11109,-64.3213,-3.32819,-1126.13,-12375.4,415.737,-44.8317,12.2436,-349.219,-1707.45,9215.09,-2380.17,-8.82015,-148.226,-116.725,-4949.5,-4494.91,-1173.2,21.7934,63.5734,-134.191,6298.66,733.713,1125.29,-57.6875,-8.29554,-53.099
3.55,4824.34,-1619.45,8032.2,-32.6421,-26.8631,-15.3688,7815.96,1490.75,10912.6,56.2504,313.994,-83.1282,-982.758,9173.76,-1936.44,8.11702,-64.2693,-3.4129,-1100.69,-12416.8,403.491,-45.1036,13.1724,-349.714,-1709.19,9192.9,-2436.59,-9.40435,-146.751,-116.689,-4939.37,-4498.89,-1169.31,21.6375,62.9772,-133.559,6300.95,720.661,1133.74,-57.1063,-8.3861,-52.7542
3.5505,4834.72,-1617.74,8018.86,-32.6163,-26.7436,-15.5696,7857.41,1506.83,10947.3,56.1023,313.562,-84.0242,-1011.3,9168.43,-1921.6,8.12294,-64.2173,-3.49761,-1075.25,-12458.2,391.244,-45.3755,14.1012,-350.21,-1710.94,9170.71,-2493.01,-9.98855,-145.275,-116.653,-4929.24,-4502.87,-1165.41,21.4815,62.3811,-132.927,6303.25,707.608,1142.2,-56.5251,-8.47666,-52.4095
3.551,4845.11,-1616.04,8005.52,-32.5904,-26.6241,-15.7704,7898.86,1522.91,10982.0,55.9543,313.13,-84.9202,-1039.84,9163.11,-1906.77,8.12888,-64.1654,-3.58232,-1049.8,-12499.6,378.997,-45.6474,15.03,-350.705,-1712.69,9148.52,-2549.43,-10.5727,-143.8,-116.617,-4919.12,-4506.86,-1161.51,21.3256,61.785,-132.295,6305.54,694.555,1150.65,-55.944,-8.56722,-52.0647
3.5515,4851.51,-1582.58,8011.65,-32.6223,-26.5322,-15.8878,7972.25,1521.12,11036.8,55.963,312.799,-85.9694,-1052.91,9174.45,-1880.67,8.04996,-64.0642,-3.63415,-1050.79,-12539.0,369.333,-45.9154,16.0987,-351.107,-1691.74,9141.45,-2601.69,-11.1571,-141.958,-116.613,-4910.12,-4508.93,-1171.95,21.1245,61.0689,-131.667,6319.78,728.019,1140.2,-55.557,-8.74757,-51.6705
3.552,4856.78,-1540.04,8023.36,-32.6708,-26.4482,-15.9815,8054.76,1514.24,11097.2,56.0165,312.496,-87.0624,-1061.55,9190.55,-1851.37,7.94681,-63.949,-3.67658,-1059.32,-12577.8,360.407,-46.1822,17.2074,-351.483,-1664.31,9138.7,-2652.76,-11.7415,-140.012,-116.619,-4901.44,-4510.47,-1186.48,20.9106,60.3185,-131.04,6337.43,774.774,1124.34,-55.2255,-8.95358,-51.2622
3.5525,4862.05,-1497.5,8035.06,-32.7192,-26.3643,-16.0752,8137.28,1507.35,11157.7,56.07,312.194,-88.1554,-1070.19,9206.66,-1822.06,7.84366,-63.8338,-3.71901,-1067.85,-12616.6,351.48,-46.4491,18.3161,-351.859,-1636.88,9135.95,-2703.82,-12.3259,-138.065,-116.624,-4892.76,-4512.0,-1201.02,20.6967,59.5682,-130.413,6355.09,821.529,1108.49,-54.894,-9.15959,-50.854
3.553,4867.32,-1454.96,8046.76,-32.7676,-26.2803,-16.1689,8219.79,1500.46,11218.2,56.1235,311.892,-89.2484,-1078.83,9222.76,-1792.75,7.7405,-63.7185,-3.76145,-1076.38,-12655.4,342.554,-46.716,19.4248,-352.235,-1609.45,9133.2,-2754.89,-12.9102,-136.119,-116.629,-4884.08,-4513.53,-1215.55,20.4827,58.8178,-129.786,6372.74,868.284,1092.63,-54.5625,-9.3656,-50.4457
3.5535,4872.6,-1412.43,8058.46,-32.816,-26.1963,-16.2626,8302.31,1493.57,11278.7,56.177,311.589,-90.3413,-1087.47,9238.86,-1763.44,7.63735,-63.6033,-3.80388,-1084.92,-12694.2,333.628,-46.9829,20.5335,-352.61,-1582.01,9130.45,-2805.96,-13.4946,-134.172,-116.635,-4875.4,-4515.06,-1230.08,20.2688,58.0675,-129.159,6390.4,915.039,1076.78,-54.231,-9.57161,-50.0375
3.554,4877.87,-1369.89,8070.16,-32.8645,-26.1123,-16.3563,8384.83,1486.68,11339.1,56.2305,311.287,-91.4343,-1096.11,9254.97,-1734.13,7.5342,-63.4881,-3.84631,-1093.45,-12733.0,324.702,-47.2498,21.6422,-352.986,-1554.58,9127.7,-2857.03,-14.079,-132.225,-116.64,-4866.72,-4516.59,-1244.62,20.0549,57.3171,-128.532,6408.05,961.793,1060.92,-53.8995,-9.77762,-49.6292
3.5545,4883.14,-1327.35,8081.87,-32.9129,-26.0283,-16.45,8467.34,1479.79,11399.6,56.284,310.985,-92.5273,-1104.75,9271.07,-1704.83,7.43104,-63.3729,-3.88875,-1101.98,-12771.8,315.776,-47.5167,22.7509,-353.362,-1527.15,9124.94,-2908.1,-14.6634,-130.279,-116.645,-4858.04,-4518.13,-1259.15,19.8409,56.5668,-127.905,6425.7,1008.55,1045.07,-53.568,-9.98363,-49.221
3.555,4888.41,-1284.81,8093.57,-32.9613,-25.9444,-16.5436,8549.86,1472.91,11460.1,56.3375,310.682,-93.6203,-1113.39,9287.17,-1675.52,7.32789,-63.2576,-3.93118,-1110.51,-12810.6,306.85,-47.7835,23.8596,-353.737,-1499.72,9122.19,-2959.17,-15.2478,-128.332,-116.651,-4849.36,-4519.66,-1273.68,19.627,55.8164,-127.278,6443.36,1055.3,1029.22,-53.2365,-10.1896,-48.8127
3.5555,4893.68,-1242.27,8105.27,-33.0097,-25.8604,-16.6373,8632.38,1466.02,11520.5,56.391,310.38,-94.7133,-1122.04,9303.28,-1646.21,7.22474,-63.1424,-3.97361,-1119.05,-12849.4,297.924,-48.0504,24.9683,-354.113,-1472.29,9119.44,-3010.24,-15.8322,-126.386,-116.656,-4840.68,-4521.19,-1288.22,19.4131,55.066,-126.651,6461.01,1102.06,1013.36,-52.905,-10.3956,-48.4044
3.556,4902.83,-1188.29,8114.36,-33.0721,-25.7946,-16.6171,8720.5,1457.53,11582.1,56.4982,310.254,-95.9087,-1115.86,9324.03,-1612.26,7.07381,-63.0556,-4.02513,-1141.63,-12896.7,286.547,-48.219,26.1629,-354.419,-1442.86,9105.0,-3034.06,-16.3194,-124.223,-116.683,-4826.78,-4514.16,-1303.69,19.1792,54.4903,-126.043,6460.75,1052.08,1013.35,-53.3545,-10.4563,-48.441
3.5565,4912.47,-1132.87,8123.11,-33.1363,-25.731,-16.5825,8809.32,1448.85,11643.7,56.6121,310.15,-97.1168,-1107.82,9345.37,-1577.74,6.9169,-62.9722,-4.07778,-1165.97,-12945.1,274.865,-48.3753,27.3683,-354.716,-1413.18,9089.09,-3054.48,-16.7946,-122.032,-116.713,-4812.22,-4506.05,-1319.27,18.9429,53.9363,-125.437,6458.24,990.016,1015.32,-53.9016,-10.4989,-48.5332
3.557,4922.1,-1077.45,8131.87,-33.2004,-25.6675,-16.548,8898.14,1440.16,11705.4,56.726,310.046,-98.3249,-1099.79,9366.71,-1543.22,6.76,-62.8889,-4.13043,-1190.31,-12993.5,263.182,-48.5316,28.5736,-355.013,-1383.51,9073.19,-3074.89,-17.2697,-119.842,-116.742,-4797.67,-4497.94,-1334.86,18.7066,53.3823,-124.831,6455.73,927.949,1017.29,-54.4487,-10.5414,-48.6253
3.5575,4931.74,-1022.03,8140.63,-33.2646,-25.604,-16.5135,8986.97,1431.48,11767.0,56.8399,309.942,-99.5331,-1091.76,9388.04,-1508.69,6.6031,-62.8056,-4.18308,-1214.65,-13041.8,251.499,-48.6879,29.779,-355.31,-1353.83,9057.28,-3095.31,-17.7448,-117.652,-116.772,-4783.12,-4489.83,-1350.45,18.4702,52.8284,-124.225,6453.23,865.882,1019.26,-54.9958,-10.5839,-48.7175
3.558,4941.37,-966.608,8149.39,-33.3287,-25.5404,-16.479,9075.79,1422.79,11828.7,56.9539,309.838,-100.741,-1083.73,9409.38,-1474.17,6.44619,-62.7223,-4.23573,-1238.99,-13090.2,239.817,-48.8442,30.9843,-355.607,-1324.15,9041.38,-3115.72,-18.2199,-115.461,-116.802,-4768.56,-4481.73,-1366.03,18.2339,52.2744,-123.619,6450.72,803.815,1021.23,-55.5428,-10.6264,-48.8096
3.5585,4951.01,-911.188,8158.15,-33.3929,-25.4769,-16.4445,9164.61,1414.11,11890.3,57.0678,309.735,-101.949,-1075.7,9430.72,-1439.64,6.28929,-62.639,-4.28838,-1263.34,-13138.6,228.134,-49.0005,32.1897,-355.905,-1294.48,9025.47,-3136.13,-18.6951,-113.271,-116.832,-4754.01,-4473.62,-1381.62,17.9976,51.7204,-123.013,6448.22,741.748,1023.2,-56.0899,-10.669,-48.9018
3.559,4960.64,-855.769,8166.9,-33.457,-25.4133,-16.4099,9253.44,1405.42,11952.0,57.1817,309.631,-103.157,-1067.67,9452.06,-1405.12,6.13239,-62.5557,-4.34103,-1287.68,-13186.9,216.451,-49.1567,33.3951,-356.202,-1264.8,9009.57,-3156.55,-19.1702,-111.081,-116.861,-4739.46,-4465.51,-1397.21,17.7613,51.1665,-122.407,6445.71,679.681,1025.17,-56.637,-10.7115,-48.9939
3.5595,4970.28,-800.349,8175.66,-33.5211,-25.3498,-16.3754,9342.26,1396.74,12013.6,57.2956,309.527,-104.366,-1059.64,9473.39,-1370.59,5.97549,-62.4724,-4.39368,-1312.02,-13235.3,204.769,-49.313,34.6004,-356.499,-1235.13,8993.66,-3176.96,-19.6453,-108.89,-116.891,-4724.9,-4457.41,-1412.8,17.5249,50.6125,-121.802,6443.2,617.614,1027.14,-57.1841,-10.754,-49.0861
3.56,4979.92,-744.929,8184.42,-33.5853,-25.2863,-16.3409,9431.08,1388.05,12075.3,57.4095,309.423,-105.574,-1051.6,9494.73,-1336.07,5.81858,-62.3891,-4.44633,-1336.36,-13283.7,193.086,-49.4693,35.8058,-356.796,-1205.45,8977.76,-3197.38,-20.1204,-106.7,-116.921,-4710.35,-4449.3,-1428.38,17.2886,50.0585,-121.196,6440.7,555.547,1029.11,-57.7312,-10.7965,-49.1782
3.5605,4968.56,-717.542,8192.22,-33.5856,-25.2147,-16.2856,9514.88,1391.27,12125.1,57.5304,309.496,-106.807,-1043.39,9518.98,-1307.74,5.80227,-62.3222,-4.52712,-1364.73,-13331.8,168.646,-49.5908,37.0577,-357.07,-1160.2,8972.85,-3209.48,-20.2592,-104.573,-116.981,-4691.1,-4457.78,-1438.7,17.0787,49.9702,-120.679,6458.09,561.052,1005.74,-58.0962,-10.5615,-48.9533
3.561,4957.2,-690.154,8200.02,-33.586,-25.143,-16.2303,9598.68,1394.49,12174.9,57.6513,309.568,-108.04,-1035.17,9543.24,-1279.41,5.78595,-62.2553,-4.60791,-1393.11,-13379.9,144.205,-49.7123,38.3097,-357.344,-1114.94,8967.95,-3221.57,-20.398,-102.447,-117.042,-4671.86,-4466.25,-1449.02,16.8688,49.8819,-120.163,6475.49,566.557,982.371,-58.4612,-10.3265,-48.7284
3.5615,4945.85,-662.766,8207.82,-33.5863,-25.0714,-16.175,9682.48,1397.71,12224.8,57.7722,309.641,-109.274,-1026.96,9567.49,-1251.08,5.76964,-62.1884,-4.68871,-1421.48,-13428.0,119.765,-49.8338,39.5616,-357.618,-1069.69,8963.04,-3233.67,-20.5367,-100.32,-117.103,-4652.62,-4474.73,-1459.34,16.659,49.7935,-119.647,6492.88,572.062,959.002,-58.8262,-10.0915,-48.5036
3.562,4934.49,-635.378,8215.63,-33.5866,-24.9998,-16.1196,9766.28,1400.93,12274.6,57.893,309.714,-110.507,-1018.74,9591.74,-1222.76,5.75332,-62.1215,-4.7695,-1449.85,-13476.2,95.3247,-49.9553,40.8136,-357.892,-1024.44,8958.14,-3245.77,-20.6755,-98.1938,-117.163,-4633.37,-4483.21,-1469.67,16.4491,49.7052,-119.13,6510.27,577.567,935.633,-59.1913,-9.85647,-48.2787
3.5625,4923.13,-607.991,8223.43,-33.587,-24.9282,-16.0643,9850.08,1404.15,12324.5,58.0139,309.787,-111.741,-1010.53,9615.99,-1194.43,5.73701,-62.0547,-4.85029,-1478.23,-13524.3,70.8843,-50.0768,42.0655,-358.166,-979.187,8953.24,-3257.86,-20.8143,-96.0673,-117.224,-4614.13,-4491.68,-1479.99,16.2392,49.6168,-118.614,6527.67,583.072,912.264,-59.5563,-9.62145,-48.0538
3.563,4911.77,-580.603,8231.23,-33.5873,-24.8566,-16.009,9933.87,1407.37,12374.3,58.1348,309.859,-112.974,-1002.31,9640.24,-1166.1,5.72069,-61.9878,-4.93109,-1506.6,-13572.4,46.4439,-50.1983,43.3174,-358.44,-933.934,8948.33,-3269.96,-20.953,-93.9408,-117.285,-4594.88,-4500.16,-1490.31,16.0293,49.5285,-118.098,6545.06,588.577,888.894,-59.9213,-9.38643,-47.8289
3.5635,4900.42,-553.215,8239.03,-33.5876,-24.785,-15.9537,10017.7,1410.58,12424.2,58.2557,309.932,-114.207,-994.096,9664.5,-1137.77,5.70438,-61.9209,-5.01188,-1534.98,-13620.5,22.0036,-50.3198,44.5694,-358.714,-888.682,8943.43,-3282.06,-21.0918,-91.8143,-117.345,-4575.63,-4508.64,-1500.63,15.8195,49.4401,-117.581,6562.46,594.082,865.525,-60.2863,-9.15142,-47.604
3.564,4889.06,-525.827,8246.83,-33.588,-24.7134,-15.8984,10101.5,1413.8,12474.0,58.3766,310.005,-115.441,-985.88,9688.75,-1109.44,5.68806,-61.854,-5.09267,-1563.35,-13668.6,-2.43682,-50.4413,45.8213,-358.988,-843.429,8938.53,-3294.15,-21.2305,-89.6877,-117.406,-4556.39,-4517.11,-1510.95,15.6096,49.3518,-117.065,6579.85,599.586,842.156,-60.6513,-8.9164,-47.3791
3.5645,4878.33,-501.981,8253.5,-33.5925,-24.6471,-15.8453,10185.3,1420.81,12522.9,58.4888,310.094,-116.676,-979.329,9710.48,-1083.88,5.66709,-61.8077,-5.17091,-1591.47,-13718.5,-27.5391,-50.5578,47.0776,-359.263,-796.895,8933.61,-3302.83,-21.3765,-87.5897,-117.47,-4537.61,-4525.28,-1519.33,15.4112,49.3282,-116.543,6596.99,605.575,819.2,-60.9926,-8.68909,-47.1892
3.565,4872.56,-506.464,8251.15,-33.6312,-24.624,-15.8099,10269.8,1458.08,12563.6,58.5315,310.31,-117.926,-986.092,9712.05,-1080.48,5.60886,-61.9264,-5.22874,-1617.59,-13782.3,-57.9368,-50.6343,48.368,-359.542,-740.11,8928.58,-3284.17,-21.5799,-85.7201,-117.565,-4522.55,-4530.99,-1512.22,15.3044,49.823,-115.973,6612.13,615.432,799.543,-61.1438,-8.52338,-47.2799
3.5655,4866.79,-510.947,8248.79,-33.6698,-24.6008,-15.7745,10354.3,1495.35,12604.4,58.5742,310.526,-119.176,-992.855,9713.61,-1077.08,5.55062,-62.045,-5.28658,-1643.71,-13846.0,-88.3345,-50.7109,49.6584,-359.822,-683.324,8923.55,-3265.52,-21.7834,-83.8505,-117.659,-4507.49,-4536.7,-1505.11,15.1977,50.3177,-115.404,6627.26,625.29,779.886,-61.295,-8.35767,-47.3705
3.566,4861.02,-515.43,8246.43,-33.7085,-24.5776,-15.7392,10438.7,1532.62,12645.2,58.6169,310.743,-120.427,-999.618,9715.18,-1073.68,5.49238,-62.1637,-5.34441,-1669.83,-13909.8,-118.732,-50.7875,50.9489,-360.101,-626.539,8918.52,-3246.86,-21.9868,-81.9809,-117.754,-4492.44,-4542.41,-1498.0,15.0909,50.8125,-114.834,6642.39,635.147,760.229,-61.4462,-8.19196,-47.4611
3.5665,4855.25,-519.913,8244.07,-33.7471,-24.5544,-15.7038,10523.2,1569.89,12686.0,58.6596,310.959,-121.677,-1006.38,9716.75,-1070.28,5.43414,-62.2824,-5.40224,-1695.94,-13973.5,-149.13,-50.8641,52.2393,-360.381,-569.753,8913.49,-3228.2,-22.1903,-80.1113,-117.848,-4477.38,-4548.12,-1490.89,14.9842,51.3072,-114.265,6657.52,645.005,740.572,-61.5974,-8.02626,-47.5517
3.567,4849.48,-524.396,8241.71,-33.7857,-24.5313,-15.6684,10607.6,1607.16,12726.7,58.7022,311.175,-122.927,-1013.14,9718.31,-1066.88,5.37591,-62.401,-5.46007,-1722.06,-14037.3,-179.528,-50.9407,53.5298,-360.66,-512.968,8908.46,-3209.55,-22.3938,-78.2417,-117.943,-4462.32,-4553.82,-1483.78,14.8775,51.802,-113.695,6672.65,654.862,720.915,-61.7486,-7.86055,-47.6423
3.5675,4843.72,-528.879,8239.35,-33.8244,-24.5081,-15.633,10692.1,1644.44,12767.5,58.7449,311.392,-124.178,-1019.91,9719.88,-1063.48,5.31767,-62.5197,-5.51791,-1748.18,-14101.1,-209.925,-51.0172,54.8202,-360.94,-456.182,8903.43,-3190.89,-22.5972,-76.3721,-118.037,-4447.26,-4559.53,-1476.67,14.7707,52.2968,-113.126,6687.78,664.72,701.259,-61.8998,-7.69484,-47.7329
3.568,4837.95,-533.362,8236.99,-33.863,-24.4849,-15.5977,10776.5,1681.71,12808.3,58.7876,311.608,-125.428,-1026.67,9721.45,-1060.07,5.25943,-62.6384,-5.57574,-1774.3,-14164.8,-240.323,-51.0938,56.1107,-361.22,-399.396,8898.41,-3172.23,-22.8007,-74.5025,-118.132,-4432.21,-4565.24,-1469.56,14.664,52.7915,-112.557,6702.91,674.577,681.602,-62.051,-7.52913,-47.8235
3.5685,4832.18,-537.844,8234.63,-33.9016,-24.4617,-15.5623,10861.0,1718.98,12849.1,58.8303,311.824,-126.678,-1033.43,9723.01,-1056.67,5.2012,-62.757,-5.63357,-1800.41,-14228.6,-270.721,-51.1704,57.4011,-361.499,-342.611,8893.38,-3153.58,-23.0041,-72.6328,-118.226,-4417.15,-4570.95,-1462.45,14.5572,53.2863,-111.987,6718.04,684.435,661.945,-62.2022,-7.36343,-47.9141
3.569,4827.66,-548.761,8234.32,-33.9368,-24.4396,-15.5236,10943.4,1758.06,12889.0,58.835,312.082,-127.93,-1034.22,9724.49,-1055.32,5.12965,-62.8552,-5.69938,-1825.73,-14291.3,-299.017,-51.2333,58.682,-361.771,-283.508,8889.62,-3129.47,-23.2162,-70.8371,-118.339,-4401.42,-4580.31,-1452.51,14.4761,53.8307,-111.418,6732.08,689.989,646.947,-62.3389,-7.20494,-47.9451
3.5695,4827.53,-582.194,8241.16,-33.9598,-24.4211,-15.4732,11018.6,1803.46,12926.0,58.7065,312.483,-129.185,-1014.07,9725.66,-1061.12,5.01149,-62.8814,-5.79313,-1848.24,-14350.6,-319.96,-51.2482,59.9293,-362.016,-216.292,8890.32,-3086.29,-23.4586,-69.2997,-118.516,-4383.37,-4602.47,-1432.7,14.4848,54.5491,-110.852,6742.28,680.483,648.254,-62.4252,-7.07174,-47.7673
3.57,4827.39,-615.626,8248.0,-33.9828,-24.4026,-15.4228,11093.7,1848.87,12963.0,58.5781,312.885,-130.44,-993.916,9726.83,-1066.92,4.89334,-62.9076,-5.88687,-1870.75,-14409.8,-340.902,-51.2632,61.1766,-362.262,-149.077,8891.02,-3043.11,-23.7009,-67.7623,-118.693,-4365.32,-4624.63,-1412.89,14.4934,55.2675,-110.285,6752.48,670.977,649.561,-62.5114,-6.93853,-47.5895
3.5705,4827.26,-649.059,8254.85,-34.0057,-24.3841,-15.3724,11168.9,1894.27,12999.9,58.4496,313.287,-131.696,-973.766,9728.0,-1072.72,4.77519,-62.9338,-5.98061,-1893.26,-14469.0,-361.845,-51.2782,62.4239,-362.507,-81.8617,8891.72,-2999.93,-23.9433,-66.2249,-118.87,-4347.26,-4646.78,-1393.08,14.502,55.9859,-109.718,6762.67,661.471,650.868,-62.5977,-6.80533,-47.4116
3.571,4827.12,-682.492,8261.69,-34.0287,-24.3655,-15.322,11244.1,1939.68,13036.9,58.3212,313.689,-132.951,-953.616,9729.17,-1078.53,4.65704,-62.96,-6.07436,-1915.77,-14528.2,-382.787,-51.2932,63.6712,-362.752,-14.6464,8892.42,-2956.75,-24.1856,-64.6875,-119.047,-4329.21,-4668.94,-1373.27,14.5107,56.7043,-109.152,6772.87,651.964,652.175,-62.6839,-6.67213,-47.2338
3.5715,4826.99,-715.925,8268.53,-34.0517,-24.347,-15.2716,11319.3,1985.08,13073.9,58.1927,314.09,-134.207,-933.466,9730.34,-1084.33,4.53888,-62.9862,-6.1681,-1938.28,-14587.4,-403.73,-51.3082,64.9185,-362.998,52.5689,8893.12,-2913.57,-24.428,-63.1501,-119.223,-4311.15,-4691.1,-1353.46,14.5193,57.4226,-108.585,6783.07,642.458,653.482,-62.7702,-6.53892,-47.056
3.572,4826.85,-749.358,8275.38,-34.0747,-24.3285,-15.2212,11394.4,2030.48,13110.9,58.0643,314.492,-135.462,-913.316,9731.51,-1090.13,4.42073,-63.0124,-6.26184,-1960.79,-14646.7,-424.672,-51.3231,66.1658,-363.243,119.784,8893.82,-2870.39,-24.6704,-61.6127,-119.4,-4293.1,-4713.25,-1333.65,14.5279,58.141,-108.019,6793.27,632.952,654.789,-62.8564,-6.40572,-46.8782
3.5725,4826.72,-782.79,8282.22,-34.0977,-24.31,-15.1708,11469.6,2075.89,13147.9,57.9359,314.894,-136.717,-893.166,9732.68,-1095.93,4.30258,-63.0386,-6.35559,-1983.3,-14705.9,-445.615,-51.3381,67.4131,-363.488,187.0,8894.52,-2827.21,-24.9127,-60.0753,-119.577,-4275.04,-4735.41,-1313.83,14.5366,58.8594,-107.452,6803.47,623.446,656.096,-62.9427,-6.27251,-46.7004
3.573,4826.58,-816.223,8289.06,-34.1206,-24.2915,-15.1204,11544.8,2121.29,13184.8,57.8074,315.295,-137.973,-873.016,9733.85,-1101.74,4.18442,-63.0648,-6.44933,-2005.81,-14765.1,-466.557,-51.3531,68.6604,-363.734,254.215,8895.22,-2784.02,-25.1551,-58.5379,-119.754,-4256.99,-4757.57,-1294.02,14.5452,59.5778,-106.885,6813.67,613.94,657.403,-63.0289,-6.13931,-46.5226
3.5735,4823.86,-844.47,8297.37,-34.1274,-24.2775,-15.0735,11620.5,2164.81,13223.0,57.639,315.736,-139.218,-848.34,9739.26,-1110.82,4.05664,-63.0502,-6.55603,-2023.07,-14819.9,-490.13,-51.3577,69.8867,-363.962,324.633,8897.39,-2744.17,-25.3606,-57.1031,-119.945,-4235.43,-4777.19,-1268.69,14.5591,60.2383,-106.348,6822.41,617.095,660.727,-63.0722,-5.9935,-46.4281
3.574,4815.97,-862.345,8308.61,-34.1019,-24.2724,-15.0337,11697.4,2204.55,13263.4,57.3905,316.255,-140.445,-814.611,9753.16,-1126.48,3.90959,-62.954,-6.68863,-2029.84,-14865.7,-518.963,-51.3416,71.0711,-364.158,401.458,8902.5,-2710.97,-25.4926,-55.8733,-120.163,-4206.86,-4791.76,-1232.3,14.5833,60.783,-105.868,6828.26,645.575,668.086,-63.0296,-5.8225,-46.5002
3.5745,4808.07,-880.22,8319.84,-34.0764,-24.2673,-14.9938,11774.2,2244.29,13303.8,57.142,316.773,-141.671,-780.883,9767.05,-1142.14,3.76253,-62.8577,-6.82123,-2036.61,-14911.6,-547.796,-51.3255,72.2555,-364.353,478.283,8907.61,-2677.76,-25.6246,-54.6435,-120.38,-4178.29,-4806.33,-1195.92,14.6076,61.3278,-105.387,6834.1,674.054,675.445,-62.9869,-5.6515,-46.5724
3.575,4800.18,-898.095,8331.08,-34.0509,-24.2622,-14.9539,11851.1,2284.03,13344.2,56.8935,317.292,-142.897,-747.154,9780.94,-1157.8,3.61548,-62.7614,-6.95383,-2043.37,-14957.4,-576.629,-51.3093,73.4399,-364.548,555.107,8912.71,-2644.56,-25.7566,-53.4138,-120.598,-4149.71,-4820.9,-1159.53,14.6319,61.8725,-104.907,6839.95,702.534,682.804,-62.9442,-5.4805,-46.6445
3.5755,4792.29,-915.97,8342.31,-34.0254,-24.2571,-14.9141,11928.0,2323.77,13384.6,56.6451,317.81,-144.124,-713.426,9794.84,-1173.46,3.46843,-62.6652,-7.08644,-2050.14,-15003.3,-605.461,-51.2932,74.6243,-364.744,631.932,8917.82,-2611.36,-25.8886,-52.184,-120.816,-4121.14,-4835.47,-1123.15,14.6562,62.4173,-104.427,6845.79,731.013,690.163,-62.9015,-5.30949,-46.7167
3.576,4784.39,-933.845,8353.54,-33.9998,-24.252,-14.8742,12004.8,2363.51,13425.0,56.3966,318.329,-145.35,-679.697,9808.73,-1189.12,3.32138,-62.5689,-7.21904,-2056.91,-15049.2,-634.294,-51.2771,75.8086,-364.939,708.757,8922.93,-2578.15,-26.0206,-50.9542,-121.034,-4092.57,-4850.04,-1086.77,14.6805,62.962,-103.947,6851.64,759.493,697.521,-62.8589,-5.13849,-46.7889
3.5765,4776.5,-951.72,8364.78,-33.9743,-24.2469,-14.8343,12081.7,2403.25,13465.5,56.1481,318.848,-146.576,-645.969,9822.62,-1204.78,3.17432,-62.4726,-7.35164,-2063.68,-15095.0,-663.127,-51.261,76.993,-365.134,785.582,8928.04,-2544.95,-26.1526,-49.7245,-121.251,-4064.0,-4864.61,-1050.38,14.7048,63.5067,-103.467,6857.48,787.972,704.88,-62.8162,-4.96749,-46.861
3.577,4768.61,-969.595,8376.01,-33.9488,-24.2419,-14.7944,12158.5,2442.99,13505.9,55.8996,319.366,-147.802,-612.24,9836.52,-1220.44,3.02727,-62.3764,-7.48424,-2070.44,-15140.9,-691.96,-51.2449,78.1774,-365.33,862.406,8933.15,-2511.75,-26.2846,-48.4947,-121.469,-4035.43,-4879.18,-1014.0,14.7291,64.0515,-102.987,6863.33,816.451,712.239,-62.7735,-4.79648,-46.9332
3.5775,4760.71,-987.47,8387.25,-33.9233,-24.2368,-14.7546,12235.4,2482.73,13546.3,55.6512,319.885,-149.029,-578.512,9850.41,-1236.1,2.88022,-62.2801,-7.61685,-2077.21,-15186.7,-720.793,-51.2288,79.3618,-365.525,939.231,8938.25,-2478.54,-26.4166,-47.2649,-121.687,-4006.85,-4893.75,-977.612,14.7533,64.5962,-102.507,6869.17,844.931,719.598,-62.7308,-4.62548,-47.0053
3.578,4754.68,-1000.13,8396.95,-33.8544,-24.256,-14.7357,12307.9,2516.41,13576.8,55.3671,320.387,-150.188,-550.53,9858.12,-1247.44,2.74491,-62.1597,-7.78715,-2081.27,-15227.3,-752.267,-51.2049,80.5493,-365.709,1006.35,8942.88,-2456.07,-26.4884,-46.165,-121.863,-3975.3,-4908.86,-941.731,14.7522,64.982,-102.056,6874.37,853.978,723.951,-62.556,-4.4794,-46.8448
3.5785,4750.96,-1006.26,8404.72,-33.7313,-24.3055,-14.743,12375.0,2542.52,13595.1,55.0385,320.868,-151.265,-529.73,9858.1,-1253.39,2.62427,-62.0093,-8.00459,-2081.95,-15261.2,-787.043,-51.1714,81.7406,-365.88,1061.35,8946.9,-2447.0,-26.4847,-45.2273,-121.988,-3940.02,-4924.65,-906.48,14.7193,65.1691,-101.643,6878.75,838.734,724.548,-62.2158,-4.36448,-46.3934
3.579,4747.24,-1012.39,8412.5,-33.6082,-24.3551,-14.7504,12442.1,2568.63,13613.3,54.7099,321.349,-152.342,-508.931,9858.08,-1259.33,2.50363,-61.8589,-8.22202,-2082.62,-15295.1,-821.819,-51.1379,82.9319,-366.051,1116.35,8950.92,-2437.92,-26.4811,-44.2897,-122.113,-3904.74,-4940.44,-871.228,14.6865,65.3562,-101.23,6883.13,823.491,725.145,-61.8757,-4.24956,-45.942
3.5795,4743.53,-1018.52,8420.27,-33.4851,-24.4047,-14.7577,12509.3,2594.74,13631.6,54.3813,321.831,-153.419,-488.132,9858.07,-1265.28,2.38299,-61.7085,-8.43946,-2083.29,-15329.0,-856.595,-51.1044,84.1232,-366.222,1171.34,8954.94,-2428.85,-26.4775,-43.352,-122.238,-3869.46,-4956.22,-835.977,14.6536,65.5433,-100.817,6887.51,808.247,725.742,-61.5355,-4.13464,-45.4907
3.58,4739.81,-1024.65,8428.04,-33.3619,-24.4542,-14.7651,12576.4,2620.85,13649.8,54.0527,322.312,-154.495,-467.333,9858.05,-1271.23,2.26235,-61.5581,-8.65689,-2083.97,-15362.9,-891.37,-51.0709,85.3145,-366.393,1226.34,8958.96,-2419.78,-26.4739,-42.4144,-122.363,-3834.18,-4972.01,-800.725,14.6207,65.7304,-100.405,6891.89,793.004,726.338,-61.1954,-4.01972,-45.0393
3.5805,4736.1,-1030.79,8435.82,-33.2388,-24.5038,-14.7724,12643.5,2646.96,13668.0,53.7241,322.793,-155.572,-446.534,9858.03,-1277.17,2.14172,-61.4077,-8.87433,-2084.64,-15396.8,-926.146,-51.0374,86.5058,-366.564,1281.34,8962.99,-2410.71,-26.4702,-41.4767,-122.488,-3798.9,-4987.79,-765.473,14.5878,65.9175,-99.9916,6896.27,777.76,726.935,-60.8552,-3.90481,-44.5879
3.581,4732.38,-1036.92,8443.59,-33.1157,-24.5534,-14.7798,12710.6,2673.07,13686.3,53.3955,323.275,-156.649,-425.735,9858.01,-1283.12,2.02108,-61.2572,-9.09176,-2085.32,-15430.7,-960.922,-51.0039,87.6971,-366.735,1336.34,8967.01,-2401.64,-26.4666,-40.5391,-122.613,-3763.62,-5003.58,-730.222,14.555,66.1046,-99.5786,6900.65,762.517,727.532,-60.5151,-3.78989,-44.1365
3.5815,4728.66,-1043.05,8451.37,-32.9926,-24.6029,-14.7871,12777.7,2699.18,13704.5,53.0669,323.756,-157.725,-404.936,9857.99,-1289.07,1.90044,-61.1068,-9.3092,-2085.99,-15464.7,-995.698,-50.9704,88.8885,-366.906,1391.33,8971.03,-2392.57,-26.463,-39.6014,-122.737,-3728.34,-5019.36,-694.97,14.5221,66.2918,-99.1657,6905.03,747.274,728.129,-60.1749,-3.67497,-43.6852
3.582,4724.95,-1049.18,8459.14,-32.8695,-24.6525,-14.7944,12844.9,2725.28,13722.8,52.7383,324.237,-158.802,-384.137,9857.97,-1295.01,1.7798,-60.9564,-9.52663,-2086.67,-15498.6,-1030.47,-50.9369,90.0798,-367.076,1446.33,8975.05,-2383.5,-26.4594,-38.6637,-122.862,-3693.06,-5035.15,-659.719,14.4892,66.4789,-98.7527,6909.41,732.03,728.725,-59.8348,-3.56005,-43.2338
3.5825,4718.48,-1056.49,8468.42,-32.7055,-24.7079,-14.7805,12896.9,2743.04,13730.1,52.369,324.639,-159.778,-355.886,9862.07,-1303.75,1.67381,-60.7526,-9.78444,-2092.44,-15536.2,-1063.72,-50.9236,91.2518,-367.192,1489.73,8982.01,-2372.84,-26.3723,-37.7816,-122.981,-3647.47,-5049.83,-637.07,14.4594,66.459,-98.3769,6928.55,718.533,720.137,-59.7605,-3.47353,-42.9855
3.583,4709.82,-1064.74,8478.89,-32.5089,-24.7679,-14.7496,12936.9,2754.1,13728.6,51.9672,324.977,-160.673,-321.675,9869.46,-1314.7,1.57953,-60.5059,-10.0745,-2102.29,-15576.8,-1095.75,-50.9264,92.4083,-367.263,1523.85,8991.31,-2360.9,-26.2183,-36.9438,-123.095,-3593.63,-5063.62,-624.505,14.4322,66.2736,-98.0309,6959.5,706.434,704.199,-59.8988,-3.40974,-42.8996
3.5835,4701.17,-1072.99,8489.37,-32.3122,-24.8279,-14.7187,12976.9,2765.16,13727.1,51.5654,325.315,-161.569,-287.464,9876.85,-1325.66,1.48525,-60.2593,-10.3646,-2112.14,-15617.3,-1127.78,-50.9293,93.5648,-367.334,1557.97,9000.61,-2348.96,-26.0644,-36.1061,-123.209,-3539.78,-5077.41,-611.94,14.4049,66.0881,-97.6848,6990.45,694.335,688.262,-60.0371,-3.34595,-42.8137
3.584,4692.51,-1081.24,8499.85,-32.1155,-24.8879,-14.6877,13016.9,2776.23,13725.7,51.1636,325.654,-162.464,-253.253,9884.25,-1336.62,1.39098,-60.0127,-10.6548,-2122.0,-15657.9,-1159.81,-50.9321,94.7213,-367.405,1592.09,9009.91,-2337.03,-25.9104,-35.2683,-123.323,-3485.94,-5091.2,-599.374,14.3777,65.9027,-97.3387,7021.4,682.236,672.325,-60.1754,-3.28217,-42.7278
3.5845,4683.85,-1089.49,8510.33,-31.9189,-24.9479,-14.6568,13056.8,2787.29,13724.2,50.7618,325.992,-163.359,-219.042,9891.64,-1347.58,1.2967,-59.7661,-10.9449,-2131.85,-15698.5,-1191.84,-50.9349,95.8778,-367.477,1626.21,9019.21,-2325.09,-25.7565,-34.4305,-123.437,-3432.1,-5104.99,-586.809,14.3504,65.7173,-96.9927,7052.34,670.136,656.387,-60.3137,-3.21838,-42.642
3.585,4675.19,-1097.74,8520.81,-31.7222,-25.0079,-14.6259,13096.8,2798.35,13722.8,50.36,326.33,-164.254,-184.831,9899.03,-1358.54,1.20242,-59.5195,-11.235,-2141.7,-15739.0,-1223.87,-50.9378,97.0344,-367.548,1660.33,9028.51,-2313.15,-25.6025,-33.5928,-123.551,-3378.26,-5118.77,-574.244,14.3232,65.5319,-96.6466,7083.29,658.037,640.45,-60.452,-3.15459,-42.5561
3.5855,4666.53,-1105.99,8531.28,-31.5256,-25.0679,-14.5949,13136.8,2809.42,13721.3,49.9582,326.668,-165.15,-150.62,9906.42,-1369.5,1.10814,-59.2729,-11.5251,-2151.55,-15779.6,-1255.9,-50.9406,98.1909,-367.619,1694.45,9037.81,-2301.22,-25.4486,-32.755,-123.665,-3324.42,-5132.56,-561.678,14.2959,65.3464,-96.3005,7114.24,645.938,624.513,-60.5903,-3.0908,-42.4702
3.586,4657.87,-1114.24,8541.76,-31.3289,-25.1279,-14.564,13176.8,2820.48,13719.8,49.5564,327.007,-166.045,-116.409,9913.81,-1380.45,1.01386,-59.0263,-11.8152,-2161.41,-15820.2,-1287.92,-50.9434,99.3474,-367.69,1728.58,9047.11,-2289.28,-25.2946,-31.9173,-123.779,-3270.58,-5146.35,-549.113,14.2686,65.161,-95.9545,7145.19,633.839,608.575,-60.7286,-3.02701,-42.3844
3.5865,4649.21,-1122.49,8552.24,-31.1323,-25.1879,-14.5331,13216.8,2831.55,13718.4,49.1546,327.345,-166.94,-82.1975,9921.2,-1391.41,0.919586,-58.7797,-12.1053,-2171.26,-15860.8,-1319.95,-50.9463,100.504,-367.761,1762.7,9056.41,-2277.34,-25.1407,-31.0795,-123.893,-3216.74,-5160.14,-536.547,14.2414,64.9756,-95.6084,7176.14,621.739,592.638,-60.8669,-2.96322,-42.2985
3.587,4647.42,-1130.61,8561.77,-30.9578,-25.2236,-14.5021,13240.3,2832.71,13718.3,48.8176,327.49,-167.731,-48.2026,9923.1,-1397.55,0.811016,-58.4851,-12.4464,-2190.46,-15912.1,-1348.68,-50.9461,101.608,-367.815,1780.19,9074.58,-2279.42,-24.8755,-30.3619,-123.889,-3171.79,-5169.34,-525.647,14.2512,64.6614,-95.2647,7186.05,637.465,590.654,-60.9974,-2.87948,-42.3033
3.5875,4649.07,-1138.68,8570.84,-30.7945,-25.2472,-14.4711,13255.5,2828.92,13718.8,48.5131,327.54,-168.47,-14.3158,9922.26,-1401.28,0.6953,-58.1665,-12.8131,-2214.34,-15968.9,-1375.76,-50.9443,102.686,-367.861,1789.37,9097.19,-2288.51,-24.5546,-29.7044,-123.827,-3131.28,-5176.24,-515.58,14.2797,64.2829,-94.9222,7185.44,667.103,595.647,-61.124,-2.78577,-42.3535
3.588,4650.72,-1146.75,8579.9,-30.6311,-25.2708,-14.4402,13270.8,2825.13,13719.4,48.2086,327.589,-169.208,19.571,9921.41,-1405.0,0.579584,-57.848,-13.1798,-2238.21,-16025.7,-1402.85,-50.9426,103.764,-367.907,1798.56,9119.8,-2297.59,-24.2338,-29.0469,-123.764,-3090.77,-5183.14,-505.512,14.3081,63.9044,-94.5797,7184.83,696.742,600.639,-61.2505,-2.69206,-42.4036
3.5885,4652.37,-1154.81,8588.96,-30.4678,-25.2945,-14.4092,13286.0,2821.34,13719.9,47.9041,327.639,-169.947,53.4579,9920.57,-1408.73,0.463868,-57.5294,-13.5465,-2262.09,-16082.5,-1429.93,-50.9409,104.842,-367.953,1807.74,9142.41,-2306.68,-23.9129,-28.3894,-123.702,-3050.26,-5190.05,-495.445,14.3365,63.5259,-94.2372,7184.23,726.38,605.632,-61.3771,-2.59835,-42.4538
3.589,4654.02,-1162.88,8598.03,-30.3044,-25.3181,-14.3782,13301.3,2817.55,13720.5,47.5996,327.688,-170.686,87.3447,9919.73,-1412.46,0.348151,-57.2108,-13.9132,-2285.96,-16139.3,-1457.01,-50.9391,105.92,-367.999,1816.92,9165.02,-2315.76,-23.5921,-27.7319,-123.64,-3009.75,-5196.95,-485.377,14.365,63.1474,-93.8947,7183.62,756.018,610.624,-61.5037,-2.50464,-42.504
3.5895,4655.67,-1170.94,8607.09,-30.1411,-25.3417,-14.3472,13316.5,2813.76,13721.1,47.2951,327.737,-171.424,121.232,9918.88,-1416.19,0.232435,-56.8922,-14.2798,-2309.84,-16196.0,-1484.09,-50.9374,106.998,-368.045,1826.1,9187.64,-2324.85,-23.2712,-27.0744,-123.577,-2969.24,-5203.85,-475.31,14.3934,62.7689,-93.5523,7183.01,785.656,615.617,-61.6303,-2.41093,-42.5541
3.59,4657.32,-1179.01,8616.15,-29.9777,-25.3653,-14.3162,13331.8,2809.97,13721.6,46.9905,327.787,-172.163,155.118,9918.04,-1419.91,0.116719,-56.5736,-14.6465,-2333.71,-16252.8,-1511.17,-50.9357,108.075,-368.091,1835.28,9210.25,-2333.94,-22.9504,-26.4169,-123.515,-2928.74,-5210.75,-465.242,14.4218,62.3904,-93.2098,7182.4,815.295,620.61,-61.7569,-2.31722,-42.6043
3.5905,4658.97,-1187.07,8625.21,-29.8144,-25.3889,-14.2853,13347.0,2806.18,13722.2,46.686,327.836,-172.902,189.005,9917.2,-1423.64,0.00100266,-56.255,-15.0132,-2357.59,-16309.6,-1538.25,-50.934,109.153,-368.137,1844.47,9232.86,-2343.02,-22.6295,-25.7594,-123.453,-2888.23,-5217.65,-455.175,14.4503,62.0119,-92.8673,7181.8,844.933,625.602,-61.8835,-2.2235,-42.6544
3.591,4660.62,-1195.14,8634.28,-29.651,-25.4126,-14.2543,13362.3,2802.39,13722.7,46.3815,327.885,-173.64,222.892,9916.35,-1427.37,-0.114714,-55.9364,-15.3799,-2381.46,-16366.4,-1565.34,-50.9322,110.231,-368.182,1853.65,9255.47,-2352.11,-22.3087,-25.1019,-123.391,-2847.72,-5224.56,-445.107,14.4787,61.6334,-92.5248,7181.19,874.571,630.595,-62.01,-2.12979,-42.7046
3.5915,4660.3,-1198.11,8629.88,-29.5111,-25.4443,-14.174,13370.5,2790.73,13727.6,46.2416,327.747,-174.228,238.231,9912.76,-1436.27,-0.269826,-55.57,-15.72,-2401.7,-16423.3,-1594.18,-50.9173,111.186,-368.216,1853.09,9282.75,-2361.64,-22.0195,-24.5182,-123.259,-2820.43,-5245.4,-439.597,14.5088,61.2696,-92.1524,7191.13,869.276,634.372,-62.0807,-1.95484,-42.5294
3.592,4659.41,-1199.64,8621.64,-29.3778,-25.4783,-14.0797,13376.7,2776.81,13733.7,46.1488,327.555,-174.773,248.27,9908.38,-1446.65,-0.436195,-55.19,-16.0524,-2420.89,-16480.3,-1623.52,-50.8986,112.106,-368.246,1849.74,9311.37,-2371.31,-21.7393,-23.9556,-123.107,-2796.91,-5270.23,-435.389,14.5394,60.91,-91.7715,7204.09,853.999,637.802,-62.1354,-1.75667,-42.2898
3.5925,4658.53,-1201.16,8613.4,-29.2445,-25.5123,-13.9854,13382.9,2762.9,13739.7,46.056,327.363,-175.318,258.309,9904.0,-1457.04,-0.602564,-54.81,-16.3849,-2440.09,-16537.3,-1652.86,-50.8799,113.025,-368.276,1846.4,9339.98,-2380.97,-21.4592,-23.393,-122.956,-2773.39,-5295.07,-431.181,14.57,60.5505,-91.3906,7217.05,838.722,641.232,-62.1901,-1.5585,-42.0502
3.593,4657.65,-1202.68,8605.16,-29.1112,-25.5463,-13.891,13389.1,2748.99,13745.8,45.9632,327.171,-175.862,268.348,9899.62,-1467.42,-0.768933,-54.43,-16.7174,-2459.29,-16594.3,-1682.2,-50.8612,113.945,-368.307,1843.06,9368.6,-2390.63,-21.1791,-22.8303,-122.804,-2749.87,-5319.9,-426.972,14.6006,60.1909,-91.0096,7230.01,823.445,644.662,-62.2448,-1.36033,-41.8107
3.5935,4656.77,-1204.2,8596.92,-28.9779,-25.5803,-13.7967,13395.2,2735.08,13751.8,45.8704,326.979,-176.407,278.387,9895.24,-1477.8,-0.935302,-54.0499,-17.0498,-2478.48,-16651.2,-1711.55,-50.8425,114.864,-368.337,1839.71,9397.22,-2400.29,-20.8989,-22.2677,-122.653,-2726.35,-5344.73,-422.764,14.6312,59.8314,-90.6287,7242.97,808.168,648.092,-62.2995,-1.16216,-41.5711
3.594,4655.88,-1205.73,8588.68,-28.8446,-25.6143,-13.7024,13401.4,2721.17,13757.9,45.7775,326.787,-176.952,288.427,9890.86,-1488.19,-1.10167,-53.6699,-17.3823,-2497.68,-16708.2,-1740.89,-50.8238,115.784,-368.367,1836.37,9425.83,-2409.95,-20.6188,-21.7051,-122.502,-2702.84,-5369.56,-418.556,14.6618,59.4718,-90.2478,7255.93,792.891,651.522,-62.3542,-0.963996,-41.3315
3.5945,4655.0,-1207.25,8580.44,-28.7114,-25.6483,-13.6081,13407.6,2707.25,13764.0,45.6847,326.595,-177.497,298.466,9886.48,-1498.57,-1.26804,-53.2899,-17.7148,-2516.87,-16765.2,-1770.23,-50.8051,116.703,-368.397,1833.03,9454.45,-2419.61,-20.3387,-21.1425,-122.35,-2679.32,-5394.39,-414.348,14.6924,59.1122,-89.8669,7268.89,777.614,654.952,-62.4089,-0.765827,-41.0919
3.595,4654.12,-1208.77,8572.2,-28.5781,-25.6823,-13.5137,13413.8,2693.34,13770.0,45.5919,326.402,-178.041,308.505,9882.1,-1508.96,-1.43441,-52.9098,-18.0472,-2536.07,-16822.2,-1799.58,-50.7864,117.623,-368.428,1829.68,9483.07,-2429.27,-20.0585,-20.5799,-122.199,-2655.8,-5419.22,-410.139,14.723,58.7527,-89.4859,7281.85,762.338,658.382,-62.4636,-0.567659,-40.8523
3.5955,4653.23,-1210.29,8563.96,-28.4448,-25.7163,-13.4194,13420.0,2679.43,13776.1,45.4991,326.21,-178.586,318.544,9877.72,-1519.34,-1.60078,-52.5298,-18.3797,-2555.26,-16879.1,-1828.92,-50.7677,118.542,-368.458,1826.34,9511.69,-2438.94,-19.7784,-20.0172,-122.047,-2632.28,-5444.06,-405.931,14.7536,58.3931,-89.105,7294.81,747.061,661.812,-62.5182,-0.36949,-40.6128
3.596,4659.6,-1207.31,8552.32,-28.1811,-25.7682,-13.3551,13448.3,2652.57,13769.2,45.5839,325.937,-179.002,309.648,9879.33,-1538.95,-1.80785,-52.1634,-18.7506,-2598.6,-16937.7,-1857.49,-50.6739,119.172,-368.336,1818.33,9555.07,-2450.55,-19.564,-19.6305,-121.717,-2608.02,-5464.29,-413.374,14.8059,58.0921,-88.7369,7315.37,728.257,696.546,-62.5121,-0.379568,-40.6283
3.5965,4666.87,-1203.76,8540.25,-27.9011,-25.8224,-13.2946,13479.5,2624.1,13760.7,45.6909,325.653,-179.402,298.384,9881.68,-1559.71,-2.02002,-51.7987,-19.1263,-2644.95,-16996.5,-1885.96,-50.5708,119.766,-368.196,1809.73,9600.31,-2462.42,-19.3579,-19.2657,-121.364,-2583.66,-5483.95,-422.273,14.8609,57.7985,-88.3704,7336.9,709.012,735.193,-62.4984,-0.415678,-40.6757
3.597,4674.14,-1200.21,8528.19,-27.621,-25.8766,-13.2341,13510.6,2595.62,13752.2,45.7979,325.37,-179.802,287.121,9884.03,-1580.48,-2.23219,-51.434,-19.502,-2691.3,-17055.2,-1914.44,-50.4676,120.36,-368.055,1801.14,9645.55,-2474.28,-19.1517,-18.9009,-121.011,-2559.3,-5503.61,-431.173,14.916,57.5049,-88.004,7358.42,689.768,773.839,-62.4847,-0.451787,-40.7231
3.5975,4681.41,-1196.67,8516.12,-27.341,-25.9308,-13.1736,13541.7,2567.15,13743.7,45.9049,325.086,-180.201,275.857,9886.39,-1601.24,-2.44435,-51.0693,-19.8776,-2737.65,-17114.0,-1942.91,-50.3645,120.954,-367.914,1792.54,9690.78,-2486.14,-18.9455,-18.5361,-120.658,-2534.94,-5523.26,-440.072,14.971,57.2112,-87.6375,7379.94,670.523,812.486,-62.471,-0.487896,-40.7704
3.598,4688.68,-1193.12,8504.06,-27.061,-25.985,-13.1131,13572.9,2538.68,13735.2,46.0119,324.803,-180.601,264.594,9888.74,-1622.01,-2.65652,-50.7046,-20.2533,-2784.0,-17172.8,-1971.39,-50.2613,121.548,-367.774,1783.95,9736.02,-2498.0,-18.7393,-18.1713,-120.305,-2510.58,-5542.92,-448.972,15.026,56.9176,-87.271,7401.46,651.278,851.133,-62.4573,-0.524005,-40.8178
3.5985,4695.95,-1189.57,8491.99,-26.781,-26.0392,-13.0526,13604.0,2510.2,13726.7,46.1189,324.519,-181.001,253.331,9891.1,-1642.77,-2.86869,-50.3399,-20.629,-2830.35,-17231.5,-1999.86,-50.1582,122.142,-367.633,1775.35,9781.26,-2509.86,-18.5332,-17.8065,-119.952,-2486.22,-5562.58,-457.871,15.0811,56.6239,-86.9045,7422.98,632.034,889.779,-62.4436,-0.560114,-40.8652
3.599,4703.22,-1186.03,8479.92,-26.501,-26.0934,-12.9921,13635.1,2481.73,13718.2,46.2259,324.236,-181.401,242.067,9893.45,-1663.53,-3.08085,-49.9752,-21.0047,-2876.69,-17290.3,-2028.34,-50.055,122.735,-367.493,1766.76,9826.49,-2521.73,-18.327,-17.4417,-119.6,-2461.86,-5582.24,-466.771,15.1361,56.3303,-86.538,7444.5,612.789,928.426,-62.4299,-0.596223,-40.9126
3.5995,4710.49,-1182.48,8467.86,-26.2209,-26.1476,-12.9316,13666.3,2453.25,13709.7,46.3329,323.952,-181.8,230.804,9895.81,-1684.3,-3.29302,-49.6105,-21.3804,-2923.04,-17349.1,-2056.81,-49.9519,123.329,-367.352,1758.16,9871.73,-2533.59,-18.1208,-17.0769,-119.247,-2437.5,-5601.9,-475.67,15.1911,56.0367,-86.1716,7466.02,593.544,967.072,-62.4162,-0.632332,-40.96
3.6,4717.76,-1178.93,8455.79,-25.9409,-26.2018,-12.871,13697.4,2424.78,13701.2,46.4399,323.669,-182.2,219.54,9898.16,-1705.06,-3.50518,-49.2458,-21.756,-2969.39,-17407.8,-2085.28,-49.8487,123.923,-367.211,1749.57,9916.97,-2545.45,-17.9146,-16.7121,-118.894,-2413.14,-5621.56,-484.569,15.2462,55.743,-85.8051,7487.54,574.3,1005.72,-62.4025,-0.668441,-41.0074
3.6005,4725.62,-1203.7,8445.25,-25.5902,-26.2421,-12.8719,13763.7,2387.22,13686.2,46.5206,323.295,-182.372,238.433,9908.8,-1712.5,-3.68496,-48.7848,-22.1096,-3024.57,-17464.4,-2088.03,-49.7384,124.27,-366.996,1739.81,9942.86,-2535.71,-17.8387,-16.57,-118.377,-2400.21,-5640.38,-495.755,15.2302,55.6467,-85.4237,7493.21,616.912,981.969,-62.5293,-0.496799,-40.6758
3.601,4733.48,-1228.48,8434.71,-25.2394,-26.2823,-12.8727,13830.0,2349.66,13671.2,46.6014,322.922,-182.545,257.326,9919.43,-1719.93,-3.86473,-48.3237,-22.4631,-3079.74,-17521.0,-2090.78,-49.6281,124.617,-366.781,1730.06,9968.76,-2525.98,-17.7628,-16.4278,-117.86,-2387.29,-5659.2,-506.942,15.2142,55.5503,-85.0423,7498.89,659.524,958.219,-62.6561,-0.325158,-40.3443
3.6015,4741.34,-1253.25,8424.17,-24.8886,-26.3225,-12.8736,13896.4,2312.1,13656.2,46.6822,322.549,-182.717,276.219,9930.07,-1727.36,-4.0445,-47.8627,-22.8166,-3134.91,-17577.6,-2093.52,-49.5179,124.964,-366.566,1720.3,9994.66,-2516.24,-17.6868,-16.2856,-117.343,-2374.36,-5678.02,-518.128,15.1983,55.4539,-84.6609,7504.56,702.136,934.469,-62.783,-0.153516,-40.0127
3.602,4749.2,-1278.03,8413.63,-24.5379,-26.3627,-12.8744,13962.7,2274.55,13641.2,46.7629,322.176,-182.889,295.112,9940.7,-1734.8,-4.22428,-47.4016,-23.1701,-3190.08,-17634.1,-2096.27,-49.4076,125.311,-366.351,1710.55,10020.6,-2506.5,-17.6109,-16.1435,-116.826,-2361.44,-5696.85,-529.314,15.1823,55.3576,-84.2795,7510.23,744.749,910.719,-62.9098,0.0181251,-39.6811
3.6025,4757.06,-1302.8,8403.09,-24.1871,-26.403,-12.8752,14029.0,2236.99,13626.2,46.8437,321.802,-183.061,314.005,9951.34,-1742.23,-4.40405,-46.9406,-23.5237,-3245.25,-17690.7,-2099.01,-49.2973,125.659,-366.136,1700.8,10046.5,-2496.76,-17.535,-16.0013,-116.309,-2348.51,-5715.67,-540.5,15.1663,55.2612,-83.8981,7515.9,787.361,886.969,-63.0367,0.189767,-39.3496
3.603,4764.92,-1327.58,8392.55,-23.8363,-26.4432,-12.8761,14095.3,2199.43,13611.2,46.9245,321.429,-183.234,332.898,9961.98,-1749.67,-4.58382,-46.4796,-23.8772,-3300.42,-17747.3,-2101.76,-49.187,126.006,-365.921,1691.04,10072.4,-2487.03,-17.459,-15.8591,-115.792,-2335.59,-5734.49,-551.686,15.1504,55.1648,-83.5167,7521.58,829.973,863.219,-63.1635,0.361408,-39.018
3.6035,4772.78,-1352.35,8382.01,-23.4856,-26.4834,-12.8769,14161.6,2161.87,13596.3,47.0053,321.056,-183.406,351.79,9972.61,-1757.1,-4.7636,-46.0185,-24.2307,-3355.59,-17803.9,-2104.5,-49.0767,126.353,-365.705,1681.29,10098.2,-2477.29,-17.3831,-15.717,-115.275,-2322.66,-5753.31,-562.872,15.1344,55.0685,-83.1353,7527.25,872.585,839.469,-63.2903,0.53305,-38.6864
3.604,4780.64,-1377.13,8371.47,-23.1348,-26.5236,-12.8778,14228.0,2124.31,13581.3,47.086,320.682,-183.578,370.683,9983.25,-1764.53,-4.94337,-45.5575,-24.5843,-3410.76,-17860.4,-2107.25,-48.9664,126.7,-365.49,1671.54,10124.1,-2467.55,-17.3072,-15.5748,-114.758,-2309.74,-5772.14,-574.058,15.1184,54.9721,-82.7539,7532.92,915.197,815.719,-63.4172,0.704691,-38.3548
3.6045,4787.16,-1402.2,8363.5,-22.7975,-26.5616,-12.888,14297.2,2090.5,13566.1,47.1434,320.308,-183.708,389.286,9989.19,-1772.39,-5.1223,-45.0983,-24.949,-3466.52,-17917.3,-2111.84,-48.8496,127.014,-365.264,1663.34,10149.8,-2458.54,-17.247,-15.4446,-114.24,-2295.95,-5791.29,-584.541,15.0806,54.8988,-82.3662,7539.98,946.413,795.2,-63.5509,0.901876,-38.0442
3.605,4782.91,-1429.65,8376.14,-22.5677,-26.5809,-12.973,14389.5,2086.71,13549.8,47.0134,319.922,-183.5,405.566,9957.54,-1783.61,-5.29452,-44.6535,-25.4032,-3526.92,-17976.3,-2131.18,-48.6799,127.063,-364.95,1667.58,10173.2,-2455.29,-17.3133,-15.4096,-113.717,-2275.22,-5813.14,-589.398,14.8676,55.0105,-81.9283,7558.08,886.451,800.526,-63.7399,1.30341,-37.9009
3.6055,4778.66,-1457.11,8388.77,-22.3379,-26.6003,-13.0581,14481.9,2082.92,13533.4,46.8834,319.536,-183.291,421.846,9925.9,-1794.84,-5.46674,-44.2088,-25.8575,-3587.32,-18035.3,-2150.51,-48.5102,127.111,-364.635,1671.82,10196.6,-2452.05,-17.3796,-15.3746,-113.193,-2254.5,-5834.99,-594.256,14.6547,55.1221,-81.4904,7576.18,826.49,805.852,-63.9288,1.70494,-37.7577
3.606,4774.41,-1484.56,8401.41,-22.1081,-26.6197,-13.1432,14574.2,2079.13,13517.0,46.7534,319.151,-183.083,438.126,9894.25,-1806.06,-5.63896,-43.7641,-26.3118,-3647.72,-18094.2,-2169.85,-48.3405,127.16,-364.321,1676.06,10220.1,-2448.81,-17.4459,-15.3396,-112.67,-2233.78,-5856.83,-599.113,14.4418,55.2337,-81.0525,7594.28,766.528,811.179,-64.1178,2.10648,-37.6145
3.6065,4770.17,-1512.01,8414.04,-21.8783,-26.639,-13.2283,14666.6,2075.34,13500.7,46.6234,318.765,-182.875,454.406,9862.61,-1817.29,-5.81118,-43.3193,-26.766,-3708.13,-18153.2,-2189.19,-48.1709,127.209,-364.007,1680.31,10243.5,-2445.57,-17.5122,-15.3046,-112.147,-2213.05,-5878.68,-603.971,14.2289,55.3454,-80.6146,7612.38,706.567,816.505,-64.3068,2.50801,-37.4712
3.607,4765.92,-1539.47,8426.68,-21.6486,-26.6584,-13.3134,14758.9,2071.55,13484.3,46.4934,318.379,-182.666,470.686,9830.96,-1828.51,-5.98339,-42.8746,-27.2203,-3768.53,-18212.2,-2208.53,-48.0012,127.258,-363.692,1684.55,10266.9,-2442.33,-17.5785,-15.2696,-111.623,-2192.33,-5900.52,-608.829,14.0159,55.457,-80.1767,7630.48,646.605,821.831,-64.4958,2.90954,-37.328
3.6075,4761.67,-1566.92,8439.31,-21.4188,-26.6778,-13.3985,14851.3,2067.76,13468.0,46.3635,317.994,-182.458,486.966,9799.32,-1839.74,-6.15561,-42.4299,-27.6746,-3828.93,-18271.2,-2227.87,-47.8315,127.307,-363.378,1688.79,10290.3,-2439.08,-17.6448,-15.2346,-111.1,-2171.61,-5922.37,-613.686,13.803,55.5686,-79.7388,7648.58,586.644,827.157,-64.6848,3.31108,-37.1847
3.608,4757.42,-1594.37,8451.95,-21.189,-26.6971,-13.4835,14943.6,2063.97,13451.6,46.2335,317.608,-182.249,503.246,9767.68,-1850.96,-6.32783,-41.9851,-28.1288,-3889.33,-18330.2,-2247.2,-47.6618,127.355,-363.064,1693.04,10313.8,-2435.84,-17.7111,-15.1996,-110.577,-2150.88,-5944.22,-618.544,13.5901,55.6803,-79.3009,7666.68,526.683,832.484,-64.8737,3.71261,-37.0415
3.6085,4753.18,-1621.83,8464.58,-20.9592,-26.7165,-13.5686,15035.9,2060.18,13435.2,46.1035,317.222,-182.041,519.526,9736.03,-1862.19,-6.50005,-41.5404,-28.5831,-3949.74,-18389.2,-2266.54,-47.4922,127.404,-362.749,1697.28,10337.2,-2432.6,-17.7774,-15.1646,-110.053,-2130.16,-5966.06,-623.401,13.3772,55.7919,-78.863,7684.78,466.721,837.81,-65.0627,4.11414,-36.8982
3.609,4747.28,-1638.65,8478.79,-20.7211,-26.7515,-13.6548,15126.4,2068.96,13416.5,45.8769,316.801,-181.764,536.989,9709.56,-1875.19,-6.67872,-41.0792,-29.0628,-4011.22,-18446.3,-2283.2,-47.2699,127.428,-362.43,1701.96,10360.4,-2431.66,-17.8572,-15.1309,-109.533,-2102.78,-5988.75,-627.313,13.1198,55.9533,-78.4236,7699.0,418.297,838.044,-65.2183,4.52463,-36.7575
3.6095,4735.58,-1618.29,8498.51,-20.4539,-26.8409,-13.7446,15210.0,2121.71,13389.4,45.3124,316.253,-181.249,558.597,9701.21,-1894.44,-6.87998,-40.5603,-29.6318,-4076.51,-18496.9,-2290.48,-46.8636,127.365,-362.096,1708.16,10382.6,-2438.8,-17.9844,-15.1016,-109.023,-2052.09,-6014.41,-627.913,12.7066,56.2892,-77.9785,7699.61,410.255,820.456,-65.2568,4.96647,-36.6255
3.61,4723.89,-1597.93,8518.24,-20.1866,-26.9304,-13.8345,15293.6,2174.46,13362.3,44.7479,315.706,-180.734,580.205,9692.85,-1913.69,-7.08123,-40.0414,-30.2009,-4141.79,-18547.5,-2297.77,-46.4572,127.302,-361.761,1714.37,10404.9,-2445.94,-18.1115,-15.0723,-108.513,-2001.4,-6040.06,-628.513,12.2935,56.625,-77.5334,7700.22,402.212,802.867,-65.2954,5.40832,-36.4935
3.6105,4712.2,-1577.57,8537.96,-19.9194,-27.0199,-13.9243,15377.3,2227.21,13335.2,44.1833,315.158,-180.219,601.812,9684.5,-1932.93,-7.28248,-39.5225,-30.7699,-4207.08,-18598.0,-2305.05,-46.0508,127.239,-361.427,1720.58,10427.2,-2453.08,-18.2386,-15.043,-108.004,-1950.71,-6065.72,-629.113,11.8804,56.9609,-77.0883,7700.83,394.17,785.279,-65.334,5.85016,-36.3616
3.611,4700.51,-1557.21,8557.68,-19.6522,-27.1094,-14.0142,15460.9,2279.96,13308.1,43.6188,314.61,-179.703,623.42,9676.14,-1952.18,-7.48374,-39.0036,-31.3389,-4272.36,-18648.6,-2312.33,-45.6445,127.176,-361.092,1726.78,10449.5,-2460.22,-18.3657,-15.0137,-107.494,-1900.02,-6091.37,-629.713,11.4673,57.2967,-76.6432,7701.45,386.128,767.691,-65.3726,6.292,-36.2296
3.6115,4688.82,-1536.85,8577.4,-19.3849,-27.1989,-14.104,15544.6,2332.71,13281.0,43.0542,314.063,-179.188,645.027,9667.79,-1971.42,-7.68499,-38.4846,-31.9079,-4337.65,-18699.2,-2319.61,-45.2381,127.113,-360.758,1732.99,10471.8,-2467.36,-18.4928,-14.9845,-106.984,-1849.33,-6117.03,-630.313,11.0542,57.6325,-76.1981,7702.06,378.085,750.102,-65.4111,6.73384,-36.0976
3.612,4677.12,-1516.48,8597.12,-19.1177,-27.2883,-14.1939,15628.2,2385.46,13253.9,42.4897,313.515,-178.673,666.635,9659.43,-1990.67,-7.88624,-37.9657,-32.4769,-4402.93,-18749.8,-2326.9,-44.8318,127.05,-360.423,1739.2,10494.1,-2474.5,-18.6199,-14.9552,-106.474,-1798.64,-6142.68,-630.913,10.6411,57.9684,-75.7531,7702.67,370.043,732.514,-65.4497,7.17568,-35.9656
3.6125,4665.43,-1496.12,8616.84,-18.8504,-27.3778,-14.2838,15711.9,2438.21,13226.8,41.9252,312.968,-178.157,688.242,9651.08,-2009.91,-8.0875,-37.4468,-33.0459,-4468.22,-18800.4,-2334.18,-44.4254,126.987,-360.089,1745.4,10516.3,-2481.64,-18.747,-14.9259,-105.965,-1747.94,-6168.33,-631.513,10.228,58.3042,-75.308,7703.29,362.001,714.926,-65.4883,7.61752,-35.8337
3.613,4653.74,-1475.76,8636.57,-18.5832,-27.4673,-14.3736,15795.5,2490.96,13199.7,41.3606,312.42,-177.642,709.85,9642.72,-2029.16,-8.28875,-36.9279,-33.6149,-4533.51,-18850.9,-2341.46,-44.0191,126.924,-359.754,1751.61,10538.6,-2488.78,-18.8742,-14.8966,-105.455,-1697.25,-6193.99,-632.113,9.81488,58.6401,-74.8629,7703.9,353.958,697.337,-65.5268,8.05936,-35.7017
3.6135,4646.15,-1460.01,8651.07,-18.2932,-27.6097,-14.4187,15872.1,2547.45,13170.0,40.6794,311.78,-177.106,725.826,9647.89,-2044.95,-8.4738,-36.405,-34.1614,-4599.73,-18902.8,-2359.73,-43.6523,126.831,-359.364,1765.73,10556.5,-2494.71,-18.9985,-14.8443,-104.977,-1644.42,-6221.36,-632.759,9.34201,59.0737,-74.4413,7717.83,366.814,700.229,-65.4429,8.36627,-35.5613
3.614,4646.76,-1453.49,8655.16,-17.9577,-27.858,-14.3742,15934.7,2611.41,13135.0,39.7647,310.955,-176.53,730.539,9680.1,-2053.84,-8.62646,-35.8741,-34.6628,-4667.81,-18957.3,-2399.95,-43.3648,126.68,-358.862,1795.69,10565.5,-2498.19,-19.1171,-14.7459,-104.561,-1587.28,-6252.16,-633.498,8.74962,59.7028,-74.0667,7758.39,421.467,744.083,-65.1138,8.40331,-35.4039
