Time,RFoot_accel.x,RFoot_accel.y,RFoot_accel.z,RFoot_gyro.x,RFoot_gyro.y,RFoot_gyro.z,LFoot_accel.x,LFoot_accel.y,LFoot_accel.z,LFoot_gyro.x,LFoot_gyro.y,LFoot_gyro.z,RShank_accel.x,RShank_accel.y,RShank_accel.z,RShank_gyro.x,RShank_gyro.y,RShank_gyro.z,LShank_accel.x,LShank_accel.y,LShank_accel.z,LShank_gyro.x,LShank_gyro.y,LShank_gyro.z,RThigh_accel.x,RThigh_accel.y,RThigh_accel.z,RThigh_gyro.x,RThigh_gyro.y,RThigh_gyro.z,LThigh_accel.x,LThigh_accel.y,LThigh_accel.z,LThigh_gyro.x,LThigh_gyro.y,LThigh_gyro.z,Pelvis_accel.x,Pelvis_accel.y,Pelvis_accel.z,Pelvis_gyro.x,Pelvis_gyro.y,Pelvis_gyro.z
3.15,4933.19,562.535,8263.87,-15.9924,-97.9691,-6.05375,4421.45,1512.14,8214.21,66.5696,324.571,-236.094,-1038.09,9608.49,-1864.77,-7.09309,-34.0775,-52.3048,1027.62,-8396.29,-1844.43,-111.285,228.147,-230.115,-716.974,9066.33,-2741.35,-0.940581,-28.7679,-42.6887,5980.59,8126.49,5021.4,-15.3316,-183.239,-111.249,7942.55,851.138,1725.82,-14.2258,27.2347,-11.9178
3.1505,4925.43,548.299,8242.32,-16.0643,-97.9693,-6.17945,4444.11,1565.98,8243.74,66.918,324.457,-236.285,-1033.71,9601.79,-1862.45,-7.19482,-34.2003,-52.2717,1003.57,-8439.98,-1855.8,-111.539,228.529,-231.042,-698.598,9040.46,-2738.71,-0.986092,-28.737,-42.6796,5962.96,8115.97,4995.84,-16.2699,-185.447,-111.461,7944.23,839.155,1720.25,-13.9389,27.2609,-11.6689
3.151,4917.68,534.064,8220.77,-16.1362,-97.9695,-6.30516,4466.77,1619.82,8273.27,67.2664,324.343,-236.475,-1029.33,9595.08,-1860.12,-7.29655,-34.3231,-52.2385,979.517,-8483.68,-1867.16,-111.793,228.91,-231.968,-680.221,9014.59,-2736.08,-1.0316,-28.7062,-42.6706,5945.33,8105.46,4970.29,-17.2082,-187.654,-111.673,7945.91,827.171,1714.69,-13.6519,27.2871,-11.42
3.1515,4920.67,538.735,8219.52,-16.1038,-98.006,-6.39027,4462.1,1621.4,8317.67,67.5225,324.108,-236.537,-1018.41,9591.26,-1862.35,-7.35968,-34.4179,-52.2826,965.288,-8523.55,-1879.3,-112.092,229.279,-232.862,-660.176,8996.8,-2722.24,-1.05735,-28.8279,-42.6272,5938.05,8088.88,4928.07,-17.8766,-189.612,-111.928,7946.17,799.661,1704.02,-13.7096,27.2514,-11.2815
3.152,4926.73,548.807,8224.08,-16.0416,-98.0528,-6.46379,4449.63,1608.06,8366.32,67.7521,323.839,-236.562,-1005.62,9588.25,-1865.88,-7.41177,-34.5048,-52.3486,953.866,-8562.32,-1891.66,-112.404,229.646,-233.747,-639.653,8981.33,-2705.2,-1.07745,-28.9932,-42.5741,5933.73,8070.57,4881.09,-18.468,-191.499,-112.195,7946.03,767.715,1691.91,-13.8657,27.1981,-11.1745
3.1525,4932.79,558.88,8228.63,-15.9794,-98.0997,-6.5373,4437.15,1594.72,8414.98,67.9818,323.57,-236.587,-992.825,9585.25,-1869.4,-7.46386,-34.5917,-52.4147,942.444,-8601.1,-1904.02,-112.717,230.012,-234.632,-619.13,8965.86,-2688.16,-1.09756,-29.1585,-42.5209,5929.41,8052.27,4834.1,-19.0593,-193.386,-112.463,7945.9,735.769,1679.79,-14.0219,27.1448,-11.0675
3.153,4938.85,568.953,8233.19,-15.9172,-98.1465,-6.61082,4424.67,1581.38,8463.63,68.2115,323.301,-236.612,-980.033,9582.25,-1872.93,-7.51595,-34.6786,-52.4807,931.022,-8639.87,-1916.38,-113.029,230.378,-235.517,-598.607,8950.39,-2671.12,-1.11766,-29.3238,-42.4678,5925.08,8033.96,4787.12,-19.6507,-195.273,-112.73,7945.76,703.823,1667.68,-14.178,27.0916,-10.9604
3.1535,4944.91,579.025,8237.74,-15.8551,-98.1934,-6.68434,4412.2,1568.04,8512.28,68.4411,323.031,-236.637,-967.241,9579.24,-1876.45,-7.56804,-34.7654,-52.5468,919.6,-8678.65,-1928.74,-113.341,230.745,-236.402,-578.085,8934.92,-2654.08,-1.13776,-29.4891,-42.4146,5920.76,8015.66,4740.14,-20.242,-197.159,-112.997,7945.62,671.877,1655.56,-14.3341,27.0383,-10.8534
3.154,4950.97,589.098,8242.29,-15.7929,-98.2402,-6.75785,4399.72,1554.69,8560.94,68.6708,322.762,-236.662,-954.449,9576.24,-1879.98,-7.62013,-34.8523,-52.6129,908.178,-8717.42,-1941.1,-113.653,231.111,-237.287,-557.562,8919.45,-2637.05,-1.15786,-29.6545,-42.3615,5916.44,7997.35,4693.15,-20.8334,-199.046,-113.264,7945.48,639.93,1643.45,-14.4903,26.985,-10.7464
3.1545,4957.03,599.171,8246.85,-15.7307,-98.287,-6.83137,4387.24,1541.35,8609.59,68.9004,322.493,-236.687,-941.657,9573.24,-1883.51,-7.67222,-34.9392,-52.6789,896.756,-8756.2,-1953.46,-113.965,231.478,-238.172,-537.039,8903.98,-2620.01,-1.17796,-29.8198,-42.3084,5912.11,7979.04,4646.17,-21.4247,-200.933,-113.532,7945.35,607.984,1631.33,-14.6464,26.9317,-10.6394
3.155,4963.09,609.243,8251.4,-15.6685,-98.3339,-6.90488,4374.77,1528.01,8658.25,69.1301,322.224,-236.712,-928.865,9570.23,-1887.03,-7.72431,-35.026,-52.745,885.334,-8794.97,-1965.83,-114.277,231.844,-239.056,-516.517,8888.51,-2602.97,-1.19806,-29.9851,-42.2552,5907.79,7960.74,4599.19,-22.0161,-202.82,-113.799,7945.21,576.038,1619.22,-14.8026,26.8784,-10.5324
3.1555,4969.15,619.316,8255.95,-15.6063,-98.3807,-6.9784,4362.29,1514.67,8706.9,69.3597,321.954,-236.737,-916.073,9567.23,-1890.56,-7.7764,-35.1129,-52.811,873.912,-8833.75,-1978.19,-114.59,232.21,-239.941,-495.994,8873.04,-2585.93,-1.21817,-30.1504,-42.2021,5903.47,7942.43,4552.21,-22.6075,-204.707,-114.066,7945.07,544.092,1607.1,-14.9587,26.8251,-10.4254
3.156,4964.0,624.354,8253.35,-15.5376,-98.4199,-7.11226,4359.83,1448.44,8744.35,69.5309,321.572,-236.661,-914.875,9550.61,-1889.39,-7.85743,-35.1712,-52.8194,869.425,-8878.81,-1975.47,-114.734,232.511,-240.818,-481.51,8858.49,-2564.71,-1.21311,-30.3879,-42.1759,5904.71,7919.45,4472.41,-22.8867,-206.067,-114.323,7960.33,538.077,1588.88,-14.9284,26.7527,-10.4065
3.1565,4957.45,628.763,8249.84,-15.4681,-98.4582,-7.25366,4358.62,1375.6,8780.4,69.6947,321.176,-236.571,-915.127,9532.29,-1887.63,-7.94209,-35.2259,-52.8207,865.806,-8924.66,-1970.87,-114.857,232.803,-241.694,-467.782,8844.05,-2542.97,-1.2049,-30.6344,-42.1531,5906.66,7895.88,4388.51,-23.1269,-207.362,-114.579,7977.51,535.304,1569.9,-14.8747,26.678,-10.3986
3.157,4950.89,633.171,8246.34,-15.3985,-98.4964,-7.39507,4357.41,1302.76,8816.45,69.8585,320.78,-236.482,-915.378,9513.97,-1885.87,-8.02674,-35.2806,-52.8219,862.186,-8970.51,-1966.27,-114.98,233.096,-242.57,-454.053,8829.61,-2521.23,-1.19669,-30.881,-42.1304,5908.6,7872.31,4304.61,-23.3671,-208.657,-114.834,7994.69,532.531,1550.92,-14.8211,26.6033,-10.3906
3.1575,4944.34,637.58,8242.84,-15.329,-98.5347,-7.53647,4356.2,1229.93,8852.5,70.0223,320.384,-236.392,-915.63,9495.65,-1884.11,-8.11139,-35.3353,-52.8231,858.566,-9016.36,-1961.67,-115.103,233.388,-243.445,-440.324,8815.17,-2499.49,-1.18849,-31.1275,-42.1076,5910.54,7848.74,4220.71,-23.6073,-209.952,-115.09,8011.87,529.758,1531.94,-14.7675,26.5285,-10.3827
3.158,4937.79,641.988,8239.34,-15.2594,-98.5729,-7.67787,4354.99,1157.09,8888.55,70.1861,319.987,-236.302,-915.881,9477.32,-1882.35,-8.19605,-35.3899,-52.8243,854.946,-9062.21,-1957.07,-115.226,233.681,-244.321,-426.596,8800.73,-2477.75,-1.18028,-31.374,-42.0848,5912.48,7825.17,4136.81,-23.8475,-211.247,-115.345,8029.05,526.985,1512.95,-14.7138,26.4538,-10.3748
3.1585,4931.24,646.397,8235.83,-15.1899,-98.6112,-7.81928,4353.78,1084.25,8924.59,70.3499,319.591,-236.213,-916.133,9459.0,-1880.59,-8.2807,-35.4446,-52.8255,851.327,-9108.06,-1952.47,-115.349,233.973,-245.197,-412.867,8786.29,-2456.01,-1.17208,-31.6206,-42.062,5914.43,7801.6,4052.91,-24.0877,-212.542,-115.6,8046.23,524.212,1493.97,-14.6602,26.379,-10.3669
3.159,4924.69,650.805,8232.33,-15.1204,-98.6494,-7.96068,4352.57,1011.41,8960.64,70.5137,319.195,-236.123,-916.384,9440.68,-1878.83,-8.36536,-35.4993,-52.8268,847.707,-9153.91,-1947.87,-115.472,234.265,-246.073,-399.138,8771.85,-2434.27,-1.16387,-31.8671,-42.0392,5916.37,7778.03,3969.01,-24.3279,-213.837,-115.856,8063.41,521.438,1474.99,-14.6066,26.3043,-10.359
3.1595,4918.14,655.214,8228.83,-15.0508,-98.6877,-8.10209,4351.36,938.571,8996.69,70.6775,318.799,-236.034,-916.635,9422.36,-1877.07,-8.45001,-35.554,-52.828,844.087,-9199.75,-1943.27,-115.595,234.558,-246.948,-385.409,8757.41,-2412.53,-1.15567,-32.1136,-42.0165,5918.31,7754.46,3885.11,-24.5681,-215.131,-116.111,8080.6,518.665,1456.01,-14.5529,26.2296,-10.3511
3.16,4911.59,659.622,8225.33,-14.9813,-98.7259,-8.24349,4350.15,865.733,9032.74,70.8413,318.402,-235.944,-916.887,9404.04,-1875.31,-8.53467,-35.6087,-52.8292,840.467,-9245.6,-1938.67,-115.718,234.85,-247.824,-371.681,8742.97,-2390.8,-1.14746,-32.3602,-41.9937,5920.25,7730.89,3801.21,-24.8083,-216.426,-116.367,8097.78,515.892,1437.03,-14.4993,26.1548,-10.3432
3.1605,4932.39,663.663,8204.92,-14.8933,-98.6851,-8.36533,4361.16,796.911,9050.04,71.015,318.221,-235.614,-924.933,9386.67,-1874.83,-8.58642,-35.5675,-52.8078,820.76,-9294.78,-1927.96,-115.722,234.864,-248.728,-363.205,8732.22,-2376.69,-1.12531,-32.5539,-42.0075,5914.53,7688.89,3702.13,-24.7925,-216.9,-116.62,8098.59,498.917,1412.14,-14.3306,26.1539,-10.4058
3.161,4953.19,667.703,8184.51,-14.8054,-98.6443,-8.48718,4372.18,728.089,9067.33,71.1888,318.039,-235.284,-932.979,9369.31,-1874.35,-8.63817,-35.5263,-52.7865,801.053,-9343.95,-1917.24,-115.726,234.877,-249.632,-354.729,8721.48,-2362.58,-1.10315,-32.7476,-42.0214,5908.8,7646.89,3603.05,-24.7767,-217.374,-116.872,8099.41,481.942,1387.26,-14.1619,26.153,-10.4685
3.1615,4973.99,671.743,8164.11,-14.7175,-98.6035,-8.60902,4383.19,659.267,9084.63,71.3625,317.857,-234.954,-941.024,9351.94,-1873.87,-8.68992,-35.4851,-52.7651,781.346,-9393.12,-1906.52,-115.73,234.891,-250.536,-346.253,8710.73,-2348.47,-1.081,-32.9412,-42.0352,5903.08,7604.88,3503.98,-24.7609,-217.847,-117.125,8100.23,464.967,1362.37,-13.9933,26.1521,-10.5312
3.162,4994.78,675.784,8143.7,-14.6295,-98.5626,-8.73086,4394.21,590.445,9101.92,71.5363,317.675,-234.624,-949.07,9334.58,-1873.39,-8.74167,-35.4439,-52.7438,761.639,-9442.3,-1895.8,-115.735,234.904,-251.439,-337.777,8699.99,-2334.36,-1.05884,-33.1349,-42.049,5897.35,7562.88,3404.9,-24.7452,-218.321,-117.378,8101.05,447.992,1337.48,-13.8246,26.1513,-10.5939
3.1625,5015.58,679.824,8123.29,-14.5416,-98.5218,-8.85271,4405.23,521.623,9119.21,71.71,317.494,-234.294,-957.116,9317.21,-1872.92,-8.79342,-35.4028,-52.7224,741.932,-9491.47,-1885.09,-115.739,234.917,-252.343,-329.301,8689.24,-2320.25,-1.03669,-33.3286,-42.0629,5891.63,7520.88,3305.82,-24.7294,-218.795,-117.631,8101.86,431.017,1312.6,-13.6559,26.1504,-10.6566
3.163,5036.38,683.864,8102.89,-14.4537,-98.481,-8.97455,4416.24,452.801,9136.51,71.8838,317.312,-233.963,-965.162,9299.85,-1872.44,-8.84517,-35.3616,-52.7011,722.225,-9540.64,-1874.37,-115.743,234.931,-253.247,-320.825,8678.49,-2306.14,-1.01453,-33.5223,-42.0767,5885.9,7478.88,3206.75,-24.7136,-219.269,-117.883,8102.68,414.042,1287.71,-13.4873,26.1495,-10.7193
3.1635,5057.18,687.904,8082.48,-14.3658,-98.4401,-9.09639,4427.26,383.979,9153.8,72.0575,317.13,-233.633,-973.208,9282.48,-1871.96,-8.89691,-35.3204,-52.6797,702.518,-9589.82,-1863.65,-115.747,234.944,-254.151,-312.349,8667.75,-2292.03,-0.992378,-33.716,-42.0906,5880.18,7436.88,3107.67,-24.6979,-219.742,-118.136,8103.5,397.066,1262.83,-13.3186,26.1486,-10.7819
3.164,5077.98,691.945,8062.07,-14.2778,-98.3993,-9.21824,4438.27,315.157,9171.1,72.2313,316.949,-233.303,-981.254,9265.12,-1871.48,-8.94867,-35.2792,-52.6584,682.812,-9638.99,-1852.94,-115.751,234.958,-255.055,-303.873,8657.0,-2277.93,-0.970223,-33.9097,-42.1044,5874.46,7394.87,3008.59,-24.6821,-220.216,-118.389,8104.32,380.091,1237.94,-13.1499,26.1477,-10.8446
3.1645,5098.33,694.917,8040.55,-14.1883,-98.3561,-9.34072,4450.87,247.847,9190.2,72.4262,316.763,-232.941,-989.251,9249.17,-1871.25,-8.98944,-35.2388,-52.6404,664.328,-9688.43,-1842.57,-115.751,234.946,-255.956,-295.499,8646.88,-2263.45,-0.951199,-34.1036,-42.1173,5869.6,7352.49,2909.15,-24.6333,-220.584,-118.633,8108.38,364.154,1216.48,-13.0002,26.1225,-10.892
3.165,5115.1,689.344,8010.06,-14.0861,-98.2936,-9.4683,4476.1,192.638,9223.73,72.7902,316.55,-232.319,-996.861,9244.6,-1873.04,-8.94246,-35.205,-52.649,655.631,-9740.01,-1834.99,-115.716,234.734,-256.841,-287.945,8641.71,-2246.08,-0.957222,-34.2992,-42.1227,5871.75,7307.09,2806.81,-24.3201,-220.109,-118.812,8138.41,356.517,1222.35,-13.0023,25.9026,-10.8165
3.1655,5131.87,683.771,7979.58,-13.9839,-98.2311,-9.59589,4501.34,137.429,9257.27,73.1542,316.336,-231.697,-1004.47,9240.02,-1874.83,-8.89548,-35.1712,-52.6576,646.934,-9791.58,-1827.42,-115.68,234.522,-257.726,-280.391,8636.54,-2228.7,-0.963244,-34.4947,-42.1281,5873.89,7261.69,2704.47,-24.0069,-219.633,-118.991,8168.43,348.88,1228.23,-13.0043,25.6826,-10.741
3.166,5148.64,678.198,7949.1,-13.8817,-98.1686,-9.72348,4526.57,82.2199,9290.81,73.5182,316.123,-231.075,-1012.08,9235.45,-1876.63,-8.84849,-35.1374,-52.6662,638.237,-9843.16,-1819.84,-115.645,234.31,-258.611,-272.837,8631.37,-2211.32,-0.969266,-34.6903,-42.1335,5876.03,7216.28,2602.13,-23.6937,-219.157,-119.169,8198.45,341.243,1234.11,-13.0064,25.4627,-10.6655
3.1665,5165.4,672.625,7918.61,-13.7795,-98.1061,-9.85106,4551.81,27.0107,9324.35,73.8821,315.909,-230.453,-1019.69,9230.88,-1878.42,-8.80151,-35.1035,-52.6748,629.54,-9894.74,-1812.27,-115.61,234.097,-259.496,-265.282,8626.2,-2193.94,-0.975289,-34.8858,-42.139,5878.17,7170.88,2499.79,-23.3805,-218.682,-119.348,8228.48,333.606,1239.99,-13.0084,25.2428,-10.59
3.167,5182.17,667.052,7888.13,-13.6773,-98.0436,-9.97865,4577.04,-28.1984,9357.89,74.2461,315.696,-229.831,-1027.3,9226.3,-1880.21,-8.75452,-35.0697,-52.6834,620.843,-9946.31,-1804.69,-115.574,233.885,-260.381,-257.728,8621.03,-2176.57,-0.981311,-35.0814,-42.1444,5880.32,7125.48,2397.45,-23.0674,-218.206,-119.526,8258.5,325.97,1245.86,-13.0105,25.0228,-10.5145
3.1675,5198.94,661.479,7857.64,-13.5751,-97.9811,-10.1062,4602.28,-83.4076,9391.43,74.6101,315.482,-229.209,-1034.91,9221.73,-1882.0,-8.70754,-35.0359,-52.692,612.146,-9997.89,-1797.11,-115.539,233.673,-261.266,-250.174,8615.86,-2159.19,-0.987333,-35.2769,-42.1498,5882.46,7080.07,2295.11,-22.7542,-217.73,-119.705,8288.53,318.333,1251.74,-13.0125,24.8029,-10.4391
3.168,5215.71,655.907,7827.16,-13.4729,-97.9186,-10.2338,4627.51,-138.617,9424.97,74.9741,315.268,-228.587,-1042.52,9217.15,-1883.79,-8.66055,-35.0021,-52.7006,603.448,-10049.5,-1789.54,-115.504,233.461,-262.15,-242.619,8610.69,-2141.81,-0.993355,-35.4725,-42.1552,5884.6,7034.67,2192.77,-22.441,-217.255,-119.884,8318.55,310.696,1257.62,-13.0146,24.583,-10.3636
3.1685,5232.48,650.334,7796.67,-13.3708,-97.8561,-10.3614,4652.75,-193.826,9458.51,75.3381,315.055,-227.965,-1050.13,9212.58,-1885.58,-8.61357,-34.9683,-52.7092,594.751,-10101.0,-1781.96,-115.468,233.249,-263.035,-235.065,8605.52,-2124.44,-0.999378,-35.6681,-42.1606,5886.74,6989.27,2090.43,-22.1278,-216.779,-120.062,8348.58,303.059,1263.49,-13.0166,24.363,-10.2881
3.169,5248.74,645.052,7770.54,-13.2623,-97.7983,-10.4953,4682.5,-249.243,9494.06,75.7367,314.832,-227.317,-1058.97,9206.71,-1885.95,-8.57771,-34.9424,-52.7391,580.75,-10151.6,-1775.0,-115.376,232.987,-263.893,-226.42,8599.73,-2108.28,-0.998832,-35.8659,-42.1696,5890.5,6945.36,1987.89,-21.7386,-216.133,-120.224,8377.5,294.186,1266.15,-13.0751,24.1627,-10.2105
3.1695,5263.22,640.792,7759.61,-13.132,-97.7568,-10.6513,4728.04,-305.39,9536.62,76.2561,314.579,-226.576,-1072.1,9196.3,-1881.35,-8.58076,-34.9441,-52.8436,548.185,-10198.5,-1770.18,-115.083,232.552,-264.654,-213.957,8591.78,-2096.4,-0.975301,-36.0719,-42.1909,5899.91,6906.66,1884.68,-21.0833,-214.89,-120.327,8402.6,280.986,1257.52,-13.3311,24.031,-10.1256
3.17,5277.7,636.531,7748.69,-13.0017,-97.7154,-10.8072,4773.59,-361.537,9579.18,76.7756,314.326,-225.836,-1085.23,9185.89,-1876.76,-8.58382,-34.9459,-52.9481,515.62,-10245.4,-1765.35,-114.79,232.116,-265.415,-201.495,8583.84,-2084.52,-0.95177,-36.2779,-42.2122,5909.33,6867.96,1781.46,-20.428,-213.647,-120.43,8427.7,267.786,1248.89,-13.5871,23.8992,-10.0407
3.1705,5292.18,632.271,7737.77,-12.8714,-97.674,-10.9632,4819.13,-417.684,9621.74,77.295,314.072,-225.096,-1098.36,9175.48,-1872.16,-8.58687,-34.9477,-53.0525,483.054,-10292.3,-1760.53,-114.498,231.681,-266.176,-189.032,8575.89,-2072.63,-0.928238,-36.4839,-42.2336,5918.74,6829.26,1678.25,-19.7727,-212.404,-120.534,8452.8,254.586,1240.26,-13.8431,23.7675,-9.95574
3.171,5306.67,628.01,7726.84,-12.7411,-97.6325,-11.1192,4864.67,-473.831,9664.3,77.8144,313.819,-224.356,-1111.49,9165.07,-1867.56,-8.58993,-34.9494,-53.157,450.489,-10339.2,-1755.71,-114.205,231.246,-266.937,-176.57,8567.94,-2060.75,-0.904707,-36.6898,-42.2549,5928.16,6790.56,1575.03,-19.1174,-211.161,-120.637,8477.89,241.386,1231.63,-14.0991,23.6357,-9.87081
3.1715,5321.15,623.749,7715.92,-12.6109,-97.5911,-11.2751,4910.22,-529.978,9706.86,78.3339,313.566,-223.615,-1124.62,9154.66,-1862.97,-8.59298,-34.9512,-53.2615,417.924,-10386.1,-1750.89,-113.913,230.811,-267.698,-164.107,8560.0,-2048.87,-0.881176,-36.8958,-42.2763,5937.57,6751.87,1471.81,-18.4621,-209.918,-120.74,8502.99,228.186,1223.0,-14.3551,23.504,-9.78589
3.172,5335.63,619.489,7705.0,-12.4806,-97.5496,-11.4311,4955.76,-586.125,9749.42,78.8533,313.312,-222.875,-1137.75,9144.25,-1858.37,-8.59604,-34.9529,-53.3659,385.358,-10433.0,-1746.06,-113.62,230.375,-268.459,-151.645,8552.05,-2036.99,-0.857644,-37.1018,-42.2976,5946.99,6713.17,1368.6,-17.8068,-208.675,-120.843,8528.09,214.986,1214.37,-14.6111,23.3722,-9.70096
3.1725,5350.11,615.228,7694.07,-12.3503,-97.5082,-11.5871,5001.3,-642.271,9791.98,79.3728,313.059,-222.135,-1150.88,9133.85,-1853.77,-8.59909,-34.9547,-53.4704,352.793,-10479.9,-1741.24,-113.327,229.94,-269.22,-139.182,8544.11,-2025.11,-0.834113,-37.3078,-42.3189,5956.4,6674.47,1265.38,-17.1515,-207.432,-120.946,8553.19,201.786,1205.74,-14.867,23.2405,-9.61604
3.173,5364.59,610.968,7683.15,-12.22,-97.4667,-11.743,5046.85,-698.418,9834.54,79.8922,312.806,-221.394,-1164.01,9123.44,-1849.18,-8.60215,-34.9564,-53.5749,320.228,-10526.8,-1736.42,-113.035,229.505,-269.981,-126.72,8536.16,-2013.23,-0.810581,-37.5137,-42.3403,5965.82,6635.77,1162.16,-16.4962,-206.189,-121.049,8578.28,188.587,1197.12,-15.123,23.1088,-9.53111
3.1735,5381.18,608.497,7676.34,-12.0977,-97.4111,-11.8724,5096.62,-751.542,9874.08,80.4117,312.557,-220.662,-1174.56,9114.9,-1843.43,-8.63674,-34.9725,-53.6688,282.103,-10580.2,-1723.39,-112.731,228.967,-270.727,-115.853,8527.13,-1998.41,-0.762033,-37.705,-42.3588,5970.97,6602.0,1065.47,-15.8115,-204.698,-121.136,8599.86,173.021,1183.21,-15.2684,23.0282,-9.5
3.174,5401.96,609.605,7677.76,-11.9915,-97.327,-11.9484,5154.87,-798.62,9907.57,80.9311,312.317,-219.946,-1179.93,9110.11,-1835.38,-8.7344,-35.0171,-53.7415,232.858,-10646.5,-1693.95,-112.406,228.225,-271.443,-108.178,8515.93,-1977.71,-0.663453,-37.8667,-42.3718,5967.59,6578.09,981.801,-15.0679,-202.71,-121.189,8614.39,152.723,1158.75,-15.1925,23.0499,-9.57649
3.1745,5422.75,610.713,7679.18,-11.8852,-97.2429,-12.0245,5213.11,-845.698,9941.07,81.4505,312.078,-219.23,-1185.31,9105.32,-1827.32,-8.83207,-35.0618,-53.8142,183.613,-10712.9,-1664.5,-112.082,227.484,-272.159,-100.503,8504.73,-1957.02,-0.564872,-38.0285,-42.3848,5964.21,6554.17,898.136,-14.3242,-200.723,-121.243,8628.92,132.425,1134.29,-15.1166,23.0717,-9.65298
3.175,5443.53,611.821,7680.6,-11.7789,-97.1589,-12.1005,5271.35,-892.775,9974.56,81.9699,311.838,-218.514,-1190.69,9100.53,-1819.27,-8.92974,-35.1064,-53.887,134.368,-10779.2,-1635.06,-111.757,226.742,-272.874,-92.828,8493.53,-1936.33,-0.466291,-38.1903,-42.3978,5960.84,6530.26,814.471,-13.5806,-198.736,-121.296,8643.45,112.127,1109.83,-15.0407,23.0934,-9.72947
3.1755,5464.31,612.929,7682.02,-11.6727,-97.0748,-12.1765,5329.59,-939.853,10008.1,82.4894,311.599,-217.798,-1196.07,9095.74,-1811.22,-9.02741,-35.1511,-53.9597,85.123,-10845.5,-1605.61,-111.432,226.0,-273.59,-85.153,8482.33,-1915.63,-0.36771,-38.352,-42.4108,5957.46,6506.34,730.806,-12.837,-196.749,-121.35,8657.98,91.8287,1085.36,-14.9648,23.1152,-9.80596
3.176,5485.1,614.037,7683.45,-11.5664,-96.9907,-12.2526,5387.83,-986.931,10041.5,83.0088,311.359,-217.082,-1201.45,9090.96,-1803.16,-9.12507,-35.1957,-54.0325,35.8781,-10911.9,-1576.17,-111.107,225.258,-274.306,-77.478,8471.13,-1894.94,-0.269129,-38.5138,-42.4238,5954.09,6482.42,647.141,-12.0934,-194.761,-121.403,8672.51,71.5307,1060.9,-14.8889,23.1369,-9.88245
3.1765,5505.88,615.145,7684.87,-11.4602,-96.9067,-12.3286,5446.07,-1034.01,10075.0,83.5282,311.119,-216.366,-1206.83,9086.17,-1795.11,-9.22274,-35.2403,-54.1052,-13.3668,-10978.2,-1546.73,-110.782,224.517,-275.022,-69.803,8459.93,-1874.25,-0.170548,-38.6756,-42.4367,5950.71,6458.51,563.476,-11.3498,-192.774,-121.456,8687.04,51.2327,1036.44,-14.813,23.1587,-9.95894
3.177,5526.66,616.253,7686.29,-11.3539,-96.8226,-12.4047,5504.32,-1081.09,10108.5,84.0476,310.88,-215.649,-1212.21,9081.38,-1787.06,-9.32041,-35.285,-54.1779,-62.6117,-11044.6,-1517.28,-110.457,223.775,-275.737,-62.1281,8448.73,-1853.55,-0.071967,-38.8373,-42.4497,5947.34,6434.59,479.812,-10.6062,-190.787,-121.51,8701.57,30.9347,1011.98,-14.7371,23.1804,-10.0354
3.1775,5547.45,617.361,7687.71,-11.2477,-96.7385,-12.4807,5562.56,-1128.16,10142.0,84.5671,310.64,-214.933,-1217.59,9076.59,-1779.0,-9.41808,-35.3296,-54.2507,-111.857,-11110.9,-1487.84,-110.132,223.033,-276.453,-54.4531,8437.53,-1832.86,0.026614,-38.9991,-42.4627,5943.96,6410.67,396.147,-9.86256,-188.8,-121.563,8716.1,10.6367,987.519,-14.6612,23.2022,-10.1119
3.178,5565.0,617.506,7688.65,-11.1262,-96.6623,-12.5952,5622.89,-1164.76,10182.4,84.9989,310.477,-214.231,-1220.18,9071.31,-1771.13,-9.51375,-35.4194,-54.2894,-165.347,-11175.8,-1447.84,-109.665,222.218,-277.185,-43.8806,8433.11,-1817.25,0.111447,-39.1641,-42.4835,5952.44,6391.07,321.958,-9.19418,-186.495,-121.553,8731.05,1.15731,977.646,-14.4048,23.171,-10.2137
3.1785,5578.5,616.449,7689.01,-10.9858,-96.5957,-12.7577,5685.85,-1188.26,10231.4,85.3213,310.409,-213.547,-1219.28,9065.43,-1763.48,-9.60694,-35.5655,-54.2855,-224.145,-11239.1,-1394.64,-109.018,221.312,-277.937,-29.6862,8437.17,-1807.99,0.179096,-39.3331,-42.5142,5975.73,6376.87,259.614,-8.61985,-183.795,-121.464,8746.51,5.20127,986.008,-13.9228,23.0736,-10.347
3.179,5592.0,615.392,7689.36,-10.8453,-96.5292,-12.9203,5748.8,-1211.77,10280.3,85.6436,310.341,-212.863,-1218.37,9059.55,-1755.82,-9.70013,-35.7117,-54.2816,-282.944,-11302.3,-1341.44,-108.372,220.405,-278.69,-15.4918,8441.22,-1798.74,0.246745,-39.5022,-42.5448,5999.02,6362.66,197.27,-8.04551,-181.094,-121.374,8761.97,9.24523,994.369,-13.4408,22.9763,-10.4803
3.1795,5605.51,614.334,7689.71,-10.7048,-96.4627,-13.0828,5811.75,-1235.27,10329.3,85.966,310.274,-212.179,-1217.47,9053.67,-1748.17,-9.79332,-35.8579,-54.2777,-341.742,-11365.5,-1288.24,-107.726,219.499,-279.442,-1.29745,8445.28,-1789.48,0.314394,-39.6712,-42.5755,6022.31,6348.46,134.926,-7.47118,-178.393,-121.285,8777.43,13.2892,1002.73,-12.9588,22.8789,-10.6136
3.18,5619.01,613.277,7690.07,-10.5643,-96.3961,-13.2453,5874.71,-1258.77,10378.2,86.2883,310.206,-211.495,-1216.57,9047.78,-1740.52,-9.88651,-36.004,-54.2739,-400.54,-11428.7,-1235.04,-107.079,218.593,-280.194,12.8969,8449.33,-1780.23,0.382043,-39.8402,-42.6061,6045.61,6334.25,72.5817,-6.89685,-175.692,-121.195,8792.89,17.3332,1011.09,-12.4768,22.7815,-10.7469
3.1805,5632.51,612.22,7690.42,-10.4239,-96.3296,-13.4079,5937.66,-1282.27,10427.2,86.6107,310.138,-210.811,-1215.67,9041.9,-1732.87,-9.9797,-36.1502,-54.27,-459.338,-11491.9,-1181.84,-106.433,217.686,-280.946,27.0913,8453.39,-1770.97,0.449692,-40.0093,-42.6367,6068.9,6320.04,10.2377,-6.32251,-172.992,-121.106,8808.35,21.3771,1019.45,-11.9947,22.6842,-10.8802
3.181,5646.01,611.163,7690.77,-10.2834,-96.2631,-13.5704,6000.61,-1305.77,10476.2,86.9331,310.07,-210.127,-1214.76,9036.02,-1725.21,-10.0729,-36.2963,-54.2661,-518.136,-11555.2,-1128.65,-105.787,216.78,-281.699,41.2857,8457.44,-1761.72,0.517341,-40.1783,-42.6674,6092.19,6305.84,-52.1063,-5.74818,-170.291,-121.016,8823.81,25.4211,1027.82,-11.5127,22.5868,-11.0135
3.1815,5659.52,610.105,7691.13,-10.1429,-96.1965,-13.7329,6063.56,-1329.27,10525.1,87.2554,310.003,-209.443,-1213.86,9030.14,-1717.56,-10.1661,-36.4425,-54.2622,-576.934,-11618.4,-1075.45,-105.141,215.873,-282.451,55.4801,8461.49,-1752.46,0.58499,-40.3473,-42.698,6115.49,6291.63,-114.45,-5.17385,-167.59,-120.927,8839.27,29.465,1036.18,-11.0307,22.4894,-11.1469
3.182,5673.02,609.048,7691.48,-10.0025,-96.13,-13.8954,6126.52,-1352.77,10574.1,87.5778,309.935,-208.759,-1212.96,9024.25,-1709.91,-10.2593,-36.5887,-54.2584,-635.732,-11681.6,-1022.25,-104.494,214.967,-283.203,69.6744,8465.55,-1743.21,0.652639,-40.5164,-42.7287,6138.78,6277.43,-176.794,-4.59951,-164.889,-120.837,8854.73,33.509,1044.54,-10.5487,22.3921,-11.2802
3.1825,5671.53,604.312,7693.65,-9.92605,-96.0932,-14.0269,6193.02,-1378.16,10625.4,87.8153,309.808,-208.019,-1218.83,9027.5,-1698.14,-10.3348,-36.7624,-54.2825,-695.255,-11744.5,-972.652,-103.838,213.82,-283.906,77.314,8471.11,-1744.66,0.697002,-40.7101,-42.779,6160.67,6266.93,-216.505,-4.16815,-161.972,-120.641,8858.24,33.9608,1043.91,-10.3414,22.3926,-11.3202
3.183,5658.04,596.634,7697.27,-9.90084,-96.0803,-14.1336,6262.37,-1405.07,10678.7,87.9849,309.633,-207.233,-1230.13,9038.06,-1683.08,-10.3961,-36.9582,-54.3289,-755.357,-11807.1,-925.939,-103.174,212.481,-284.568,79.7097,8477.88,-1754.68,0.722736,-40.9235,-42.8452,6181.43,6259.39,-238.11,-3.85115,-158.882,-120.358,8852.19,31.5388,1036.1,-10.354,22.4714,-11.2856
3.1835,5644.56,588.955,7700.89,-9.87564,-96.0673,-14.2402,6331.72,-1431.97,10732.0,88.1545,309.459,-206.447,-1241.43,9048.62,-1668.02,-10.4575,-37.1539,-54.3754,-815.46,-11869.7,-879.226,-102.511,211.141,-285.23,82.1054,8484.66,-1764.7,0.74847,-41.1369,-42.9114,6202.2,6251.85,-259.715,-3.53416,-155.792,-120.076,8846.14,29.1169,1028.29,-10.3665,22.5503,-11.2511
3.184,5631.07,581.276,7704.51,-9.85044,-96.0544,-14.3469,6401.06,-1458.87,10785.2,88.3242,309.284,-205.661,-1252.73,9059.17,-1652.96,-10.5188,-37.3497,-54.4219,-875.562,-11932.4,-832.513,-101.847,209.802,-285.893,84.5011,8491.43,-1774.71,0.774204,-41.3503,-42.9775,6222.97,6244.31,-281.319,-3.21716,-152.701,-119.794,8840.09,26.6949,1020.47,-10.3791,22.6291,-11.2165
3.1845,5617.58,573.598,7708.13,-9.82523,-96.0414,-14.4536,6470.41,-1485.78,10838.5,88.4938,309.109,-204.875,-1264.02,9069.73,-1637.9,-10.5802,-37.5455,-54.4684,-935.664,-11995.0,-785.8,-101.183,208.463,-286.555,86.8969,8498.2,-1784.73,0.799938,-41.5638,-43.0437,6243.73,6236.77,-302.924,-2.90016,-149.611,-119.511,8834.04,24.273,1012.66,-10.3917,22.708,-11.1819
3.185,5604.1,565.919,7711.75,-9.80003,-96.0285,-14.5602,6539.75,-1512.68,10891.7,88.6634,308.935,-204.089,-1275.32,9080.29,-1622.84,-10.6415,-37.7413,-54.5148,-995.767,-12057.6,-739.087,-100.519,207.123,-287.218,89.2926,8504.97,-1794.75,0.825671,-41.7772,-43.1099,6264.5,6229.24,-324.528,-2.58317,-146.521,-119.229,8828.0,21.851,1004.84,-10.4042,22.7868,-11.1474
3.1855,5590.61,558.24,7715.37,-9.77482,-96.0155,-14.6669,6609.1,-1539.58,10945.0,88.833,308.76,-203.303,-1286.62,9090.84,-1607.78,-10.7029,-37.937,-54.5613,-1055.87,-12120.2,-692.374,-99.8555,205.784,-287.88,91.6883,8511.74,-1804.77,0.851405,-41.9906,-43.176,6285.27,6221.7,-346.133,-2.26617,-143.43,-118.946,8821.95,19.4291,997.026,-10.4168,22.8657,-11.1128
3.186,5577.13,550.562,7718.99,-9.74962,-96.0025,-14.7735,6678.45,-1566.48,10998.2,89.0027,308.585,-202.517,-1297.92,9101.4,-1592.72,-10.7642,-38.1328,-54.6078,-1115.97,-12182.9,-645.661,-99.1917,204.445,-288.543,94.084,8518.51,-1814.79,0.877139,-42.204,-43.2422,6306.03,6214.16,-367.738,-1.94918,-140.34,-118.664,8815.9,17.0071,989.212,-10.4294,22.9445,-11.0782
3.1865,5563.64,542.883,7722.61,-9.72441,-95.9896,-14.8802,6747.79,-1593.39,11051.5,89.1723,308.411,-201.731,-1309.22,9111.96,-1577.66,-10.8256,-38.3286,-54.6542,-1176.07,-12245.5,-598.947,-98.5279,203.105,-289.205,96.4797,8525.29,-1824.81,0.902873,-42.4175,-43.3084,6326.8,6206.62,-389.342,-1.63218,-137.25,-118.381,8809.85,14.5851,981.397,-10.4419,23.0234,-11.0437
3.187,5551.08,545.416,7717.57,-9.69145,-95.9268,-15.0139,6803.96,-1592.27,11091.0,89.2763,308.233,-200.864,-1304.39,9117.56,-1577.39,-10.8914,-38.4312,-54.705,-1232.73,-12307.6,-542.39,-97.7971,201.61,-289.85,91.3788,8520.33,-1827.94,0.940247,-42.59,-43.3513,6340.53,6204.44,-370.146,-1.49914,-134.298,-118.023,8792.96,21.6291,963.479,-10.4665,22.983,-11.1014
3.1875,5538.98,553.054,7708.2,-9.65461,-95.8392,-15.1611,6853.54,-1577.15,11123.6,89.3475,308.054,-199.956,-1291.51,9120.69,-1584.5,-10.9594,-38.4873,-54.7578,-1287.67,-12369.4,-480.909,-97.0327,200.036,-290.488,82.5295,8509.5,-1827.62,0.983441,-42.7421,-43.3825,6350.75,6204.94,-330.549,-1.45809,-131.417,-117.626,8770.64,33.406,940.508,-10.4972,22.8832,-11.2053
3.188,5526.89,560.692,7698.83,-9.61776,-95.7515,-15.3084,6903.12,-1562.03,11156.3,89.4186,307.875,-199.049,-1278.62,9123.83,-1591.62,-11.0275,-38.5433,-54.8107,-1342.61,-12431.2,-419.429,-96.2683,198.462,-291.125,73.6803,8498.67,-1827.3,1.02664,-42.8941,-43.4137,6360.97,6205.43,-290.953,-1.41703,-128.535,-117.229,8748.33,45.1828,917.538,-10.5278,22.7833,-11.3092
3.1885,5514.79,568.33,7689.45,-9.58092,-95.6638,-15.4556,6952.7,-1546.9,11188.9,89.4898,307.695,-198.142,-1265.73,9126.96,-1598.74,-11.0956,-38.5994,-54.8636,-1397.54,-12493.1,-357.949,-95.504,196.888,-291.762,64.831,8487.85,-1826.98,1.06983,-43.0462,-43.445,6371.19,6205.93,-251.357,-1.37597,-125.653,-116.833,8726.01,56.9597,894.567,-10.5584,22.6834,-11.413
3.189,5502.69,575.968,7680.08,-9.54407,-95.5762,-15.6028,7002.28,-1531.78,11221.6,89.561,307.516,-197.234,-1252.85,9130.09,-1605.85,-11.1636,-38.6555,-54.9164,-1452.48,-12554.9,-296.469,-94.7396,195.314,-292.399,55.9818,8477.02,-1826.66,1.11302,-43.1983,-43.4762,6381.41,6206.43,-211.76,-1.33491,-122.771,-116.436,8703.7,68.7366,871.597,-10.589,22.5835,-11.5169
3.1895,5490.6,583.607,7670.71,-9.50723,-95.4885,-15.7501,7051.86,-1516.66,11254.2,89.6321,307.337,-196.327,-1239.96,9133.22,-1612.97,-11.2317,-38.7115,-54.9693,-1507.42,-12616.7,-234.989,-93.9752,193.74,-293.036,47.1325,8466.19,-1826.34,1.15622,-43.3503,-43.5075,6391.63,6206.92,-172.164,-1.29385,-119.89,-116.039,8681.38,80.5135,848.627,-10.6196,22.4836,-11.6208
3.19,5478.5,591.245,7661.33,-9.47039,-95.4008,-15.8973,7101.44,-1501.53,11286.8,89.7033,307.158,-195.42,-1227.08,9136.35,-1620.09,-11.2997,-38.7676,-55.0222,-1562.35,-12678.6,-173.509,-93.2109,192.166,-293.673,38.2832,8455.37,-1826.03,1.19941,-43.5024,-43.5387,6401.85,6207.42,-132.567,-1.25279,-117.008,-115.643,8659.07,92.2903,825.656,-10.6503,22.3837,-11.7247
3.1905,5466.4,598.883,7651.96,-9.43354,-95.3132,-16.0445,7151.02,-1486.41,11319.5,89.7745,306.979,-194.512,-1214.19,9139.48,-1627.21,-11.3678,-38.8236,-55.075,-1617.29,-12740.4,-112.029,-92.4465,190.592,-294.31,29.434,8444.54,-1825.71,1.24261,-43.6545,-43.57,6412.06,6207.92,-92.9707,-1.21173,-114.126,-115.246,8636.75,104.067,802.686,-10.6809,22.2838,-11.8285
3.191,5454.31,606.521,7642.58,-9.3967,-95.2255,-16.1918,7200.6,-1471.29,11352.1,89.8457,306.8,-193.605,-1201.3,9142.61,-1634.32,-11.4359,-38.8797,-55.1279,-1672.23,-12802.2,-50.5487,-91.6822,189.019,-294.947,20.5847,8433.71,-1825.39,1.2858,-43.8065,-43.6012,6422.28,6208.41,-53.3742,-1.17067,-111.244,-114.849,8614.44,115.844,779.715,-10.7115,22.184,-11.9324
3.1915,5450.58,615.688,7641.88,-9.27609,-95.1603,-16.2915,7246.7,-1459.12,11381.0,89.8013,306.692,-192.646,-1185.32,9141.15,-1639.3,-11.5072,-38.8531,-55.1853,-1722.01,-12854.9,9.30782,-90.9016,187.066,-295.502,3.67653,8431.09,-1829.52,1.33845,-43.9441,-43.5994,6426.18,6191.14,3.31296,-1.42663,-108.615,-114.417,8603.96,136.195,772.73,-10.796,22.1242,-11.8502
3.192,5449.23,625.291,7643.65,-9.13156,-95.1015,-16.3777,7291.8,-1447.8,11408.8,89.724,306.606,-191.672,-1168.45,9138.38,-1643.66,-11.5794,-38.803,-55.2439,-1770.33,-12904.9,68.7005,-90.1163,185.005,-296.034,-15.5342,8430.8,-1834.92,1.39381,-44.0775,-43.5882,6428.27,6168.79,64.8831,-1.76744,-106.058,-113.975,8596.85,158.996,770.312,-10.896,22.0758,-11.7149
3.1925,5447.89,634.895,7645.43,-8.98702,-95.0427,-16.4639,7336.91,-1436.48,11436.6,89.6466,306.519,-190.697,-1151.59,9135.61,-1648.02,-11.6516,-38.7528,-55.3026,-1818.65,-12954.9,128.093,-89.3311,182.945,-296.565,-34.745,8430.52,-1840.31,1.44917,-44.2109,-43.5769,6430.36,6146.45,126.453,-2.10826,-103.501,-113.532,8589.75,181.797,767.894,-10.996,22.0275,-11.5796
3.193,5446.55,644.498,7647.2,-8.84249,-94.984,-16.5501,7382.01,-1425.17,11464.4,89.5693,306.433,-189.723,-1134.72,9132.84,-1652.38,-11.7238,-38.7026,-55.3613,-1866.96,-13004.9,187.486,-88.5459,180.884,-297.097,-53.9557,8430.23,-1845.71,1.50453,-44.3444,-43.5657,6432.46,6124.1,188.024,-2.44907,-100.944,-113.09,8582.64,204.598,765.476,-11.0959,21.9792,-11.4443
3.1935,5445.2,654.102,7648.97,-8.69795,-94.9252,-16.6363,7427.12,-1413.85,11492.2,89.4919,306.346,-188.749,-1117.85,9130.07,-1656.74,-11.796,-38.6524,-55.4199,-1915.28,-13055.0,246.879,-87.7607,178.824,-297.628,-73.1665,8429.95,-1851.11,1.55988,-44.4778,-43.5544,6434.55,6101.75,249.594,-2.78989,-98.3867,-112.647,8575.54,227.399,763.058,-11.1959,21.9309,-11.3089
3.194,5443.86,663.705,7650.75,-8.55342,-94.8664,-16.7225,7472.22,-1402.53,11520.0,89.4145,306.26,-187.775,-1100.99,9127.3,-1661.1,-11.8682,-38.6023,-55.4786,-1963.59,-13105.0,306.271,-86.9754,176.763,-298.16,-92.3772,8429.66,-1856.51,1.61524,-44.6112,-43.5432,6436.64,6079.4,311.164,-3.1307,-95.8296,-112.205,8568.44,250.2,760.64,-11.2959,21.8825,-11.1736
3.1945,5442.52,673.309,7652.52,-8.40888,-94.8076,-16.8087,7517.33,-1391.21,11547.8,89.3372,306.173,-186.801,-1084.12,9124.52,-1665.46,-11.9404,-38.5521,-55.5372,-2011.91,-13155.0,365.664,-86.1902,174.703,-298.691,-111.588,8429.38,-1861.91,1.6706,-44.7446,-43.5319,6438.73,6057.06,372.734,-3.47152,-93.2725,-111.762,8561.33,273.001,758.222,-11.3958,21.8342,-11.0383
3.195,5441.18,682.912,7654.29,-8.26435,-94.7489,-16.8949,7562.43,-1379.89,11575.6,89.2598,306.087,-185.827,-1067.25,9121.75,-1669.82,-12.0126,-38.5019,-55.5959,-2060.23,-13205.0,425.057,-85.405,172.642,-299.223,-130.799,8429.09,-1867.31,1.72595,-44.8781,-43.5207,6440.82,6034.71,434.304,-3.81233,-90.7155,-111.32,8554.23,295.802,755.805,-11.4958,21.7859,-10.9029
3.1955,5439.83,692.516,7656.06,-8.11981,-94.6901,-16.9811,7607.54,-1368.57,11603.4,89.1825,306.0,-184.853,-1050.39,9118.98,-1674.18,-12.0848,-38.4517,-55.6545,-2108.54,-13255.1,484.449,-84.6198,170.581,-299.754,-150.009,8428.81,-1872.71,1.78131,-45.0115,-43.5094,6442.91,6012.36,495.874,-4.15315,-88.1584,-110.877,8547.13,318.604,753.386,-11.5958,21.7375,-10.7676
3.196,5430.91,692.78,7657.75,-8.06422,-94.6635,-17.025,7628.64,-1355.92,11649.5,89.0919,305.908,-183.808,-1053.07,9117.54,-1671.92,-12.1353,-38.3698,-55.7113,-2156.33,-13306.0,529.837,-83.9849,168.191,-300.267,-166.169,8438.26,-1890.82,1.83258,-45.0778,-43.502,6441.19,5995.23,544.432,-4.72158,-85.7504,-110.38,8526.81,328.073,757.844,-11.6075,21.639,-10.7711
3.1965,5421.05,691.878,7659.42,-8.01974,-94.6409,-17.0638,7646.74,-1343.11,11697.8,88.9997,305.816,-182.755,-1058.2,9116.27,-1668.83,-12.1832,-38.284,-55.7678,-2204.04,-13357.1,573.474,-83.3688,165.76,-300.779,-181.946,8448.94,-1910.53,1.88334,-45.1358,-43.495,6439.0,5978.75,591.363,-5.31847,-83.3609,-109.877,8504.85,335.875,763.16,-11.6083,21.5341,-10.792
3.197,5411.18,690.975,7661.09,-7.97527,-94.6183,-17.1025,7664.84,-1330.3,11746.1,88.9075,305.723,-181.701,-1063.33,9114.99,-1665.74,-12.2311,-38.1981,-55.8243,-2251.76,-13408.2,617.11,-82.7527,163.329,-301.29,-197.724,8459.61,-1930.23,1.9341,-45.1938,-43.4881,6436.8,5962.27,638.294,-5.91536,-80.9714,-109.373,8482.88,343.678,768.476,-11.6091,21.4293,-10.8128
3.1975,5401.31,690.072,7662.77,-7.93079,-94.5958,-17.1412,7682.94,-1317.48,11794.4,88.8153,305.63,-180.648,-1068.46,9113.72,-1662.66,-12.2789,-38.1122,-55.8809,-2299.48,-13459.3,660.747,-82.1367,160.898,-301.801,-213.502,8470.29,-1949.93,1.98486,-45.2518,-43.4811,6434.61,5945.78,685.224,-6.51225,-78.582,-108.87,8460.92,351.481,773.793,-11.6098,21.3244,-10.8336
3.198,5391.45,689.169,7664.44,-7.88631,-94.5732,-17.1799,7701.04,-1304.67,11842.7,88.7231,305.538,-179.595,-1073.59,9112.45,-1659.57,-12.3268,-38.0263,-55.9374,-2347.19,-13510.4,704.384,-81.5206,158.466,-302.312,-229.279,8480.96,-1969.64,2.03562,-45.3097,-43.4741,6432.41,5929.3,732.155,-7.10914,-76.1925,-108.366,8438.95,359.283,779.109,-11.6106,21.2196,-10.8545
3.1985,5381.58,688.267,7666.11,-7.84184,-94.5506,-17.2186,7719.15,-1291.85,11891.0,88.6309,305.445,-178.541,-1078.72,9111.17,-1656.48,-12.3747,-37.9405,-55.9939,-2394.91,-13561.5,748.021,-80.9045,156.035,-302.823,-245.057,8491.63,-1989.34,2.08638,-45.3677,-43.4672,6430.22,5912.82,779.086,-7.70603,-73.8031,-107.862,8416.98,367.086,784.426,-11.6113,21.1147,-10.8753
3.199,5371.71,687.364,7667.78,-7.79736,-94.5281,-17.2573,7737.25,-1279.04,11939.3,88.5386,305.353,-177.488,-1083.85,9109.9,-1653.39,-12.4225,-37.8546,-56.0504,-2442.63,-13612.6,791.658,-80.2884,153.604,-303.334,-260.835,8502.31,-2009.04,2.13714,-45.4257,-43.4602,6428.03,5896.34,826.017,-8.30292,-71.4136,-107.359,8395.02,374.888,789.742,-11.6121,21.0099,-10.8962
3.1995,5361.85,686.461,7669.46,-7.75289,-94.5055,-17.296,7755.35,-1266.23,11987.6,88.4464,305.26,-176.435,-1088.98,9108.62,-1650.3,-12.4704,-37.7687,-56.1069,-2490.34,-13663.7,835.295,-79.6723,151.173,-303.845,-276.613,8512.98,-2028.75,2.1879,-45.4837,-43.4532,6425.83,5879.86,872.948,-8.89981,-69.0242,-106.855,8373.05,382.691,795.058,-11.6129,20.905,-10.917
3.2,5351.98,685.558,7671.13,-7.70841,-94.4829,-17.3347,7773.45,-1253.41,12036.0,88.3542,305.167,-175.381,-1094.11,9107.35,-1647.21,-12.5183,-37.6829,-56.1634,-2538.06,-13714.8,878.931,-79.0563,148.741,-304.356,-292.39,8523.66,-2048.45,2.23866,-45.5416,-43.4462,6423.64,5863.38,919.878,-9.4967,-66.6347,-106.352,8351.09,390.494,800.375,-11.6136,20.8002,-10.9379
3.2005,5360.73,694.442,7661.8,-7.68338,-94.4436,-17.4623,7809.61,-1240.75,12092.3,88.1581,305.0,-174.427,-1104.92,9102.3,-1644.79,-12.5486,-37.5301,-56.2341,-2584.41,-13784.2,896.539,-78.5725,146.343,-304.763,-312.919,8536.52,-2053.55,2.22663,-45.481,-43.4276,6419.77,5852.9,976.522,-10.2483,-64.7383,-105.873,8336.75,391.821,792.065,-11.6657,20.7428,-10.9749
3.201,5369.49,703.326,7652.48,-7.65834,-94.4043,-17.59,7845.78,-1228.09,12148.6,87.962,304.832,-173.472,-1115.73,9097.24,-1642.37,-12.5789,-37.3774,-56.3048,-2630.76,-13853.7,914.147,-78.0888,143.944,-305.169,-333.448,8549.38,-2058.65,2.2146,-45.4204,-43.409,6415.91,5842.42,1033.17,-10.9999,-62.842,-105.394,8322.41,393.149,783.755,-11.7179,20.6854,-11.0118
3.2015,5378.24,712.21,7643.15,-7.63331,-94.365,-17.7177,7881.94,-1215.43,12204.9,87.7659,304.664,-172.518,-1126.54,9092.19,-1639.94,-12.6093,-37.2246,-56.3755,-2677.11,-13923.1,931.755,-77.605,141.546,-305.576,-353.977,8562.25,-2063.74,2.20256,-45.3599,-43.3904,6412.05,5831.93,1089.81,-11.7516,-60.9456,-104.915,8308.07,394.476,775.445,-11.77,20.628,-11.0488
3.202,5386.99,721.093,7633.83,-7.60828,-94.3257,-17.8453,7918.1,-1202.77,12261.3,87.5698,304.497,-171.563,-1137.36,9087.13,-1637.52,-12.6396,-37.0719,-56.4462,-2723.46,-13992.6,949.364,-77.1213,139.147,-305.983,-374.506,8575.11,-2068.84,2.19053,-45.2993,-43.3718,6408.19,5821.45,1146.45,-12.5032,-59.0493,-104.436,8293.72,395.804,767.135,-11.8221,20.5706,-11.0858
3.2025,5395.74,729.977,7624.5,-7.58325,-94.2864,-17.973,7954.26,-1190.11,12317.6,87.3738,304.329,-170.609,-1148.17,9082.08,-1635.1,-12.6699,-36.9192,-56.5169,-2769.81,-14062.0,966.972,-76.6375,136.749,-306.39,-395.035,8587.97,-2073.94,2.17849,-45.2387,-43.3532,6404.32,5810.97,1203.1,-13.2548,-57.1529,-103.957,8279.38,397.131,758.825,-11.8742,20.5132,-11.1228
3.203,5404.5,738.861,7615.18,-7.55821,-94.2471,-18.1007,7990.43,-1177.45,12373.9,87.1777,304.161,-169.654,-1158.98,9077.02,-1632.68,-12.7003,-36.7664,-56.5876,-2816.16,-14131.5,984.58,-76.1538,134.35,-306.796,-415.564,8600.83,-2079.04,2.16646,-45.1781,-43.3346,6400.46,5800.49,1259.74,-14.0065,-55.2566,-103.478,8265.04,398.459,750.516,-11.9264,20.4558,-11.1598
3.2035,5413.25,747.745,7605.85,-7.53318,-94.2078,-18.2283,8026.59,-1164.78,12430.3,86.9816,303.994,-168.7,-1169.79,9071.97,-1630.26,-12.7306,-36.6137,-56.6583,-2862.51,-14201.0,1002.19,-75.67,131.952,-307.203,-436.092,8613.7,-2084.13,2.15442,-45.1175,-43.316,6396.6,5790.01,1316.38,-14.7581,-53.3602,-102.999,8250.7,399.786,742.206,-11.9785,20.3984,-11.1968
3.204,5422.0,756.628,7596.53,-7.50815,-94.1685,-18.356,8062.75,-1152.12,12486.6,86.7855,303.826,-167.745,-1180.6,9066.91,-1627.83,-12.761,-36.4609,-56.729,-2908.86,-14270.4,1019.8,-75.1863,129.553,-307.61,-456.621,8626.56,-2089.23,2.14239,-45.0569,-43.2974,6392.74,5779.53,1373.03,-15.5097,-51.4638,-102.52,8236.36,401.114,733.896,-12.0306,20.341,-11.2338
3.2045,5432.63,765.576,7586.48,-7.4785,-94.1305,-18.4642,8097.6,-1142.18,12542.9,86.5906,303.656,-166.788,-1192.56,9063.58,-1624.43,-12.785,-36.3036,-56.7981,-2951.8,-14340.4,1033.97,-74.7,127.166,-308.022,-478.547,8639.18,-2094.0,2.12917,-44.9797,-43.2773,6388.42,5767.84,1428.32,-16.2427,-49.6537,-102.053,8223.44,403.13,726.891,-12.1072,20.2768,-11.2582
3.205,5458.24,775.04,7570.67,-7.41194,-94.1027,-18.4162,8121.93,-1153.97,12598.5,86.4057,303.47,-165.812,-1213.66,9073.99,-1613.21,-12.7589,-36.1094,-56.8545,-2967.43,-14414.9,1020.69,-74.1933,124.866,-308.477,-511.651,8649.8,-2096.1,2.10648,-44.7699,-43.2449,6380.49,5746.5,1472.81,-16.8267,-48.5331,-101.677,8221.84,410.659,730.327,-12.3801,20.1585,-11.182
3.2055,5483.85,784.503,7554.85,-7.34538,-94.0748,-18.3683,8146.26,-1165.77,12654.2,86.2208,303.284,-164.835,-1234.76,9084.41,-1601.99,-12.7328,-35.9153,-56.9109,-2983.06,-14489.3,1007.41,-73.6866,122.567,-308.931,-544.754,8660.42,-2098.21,2.08378,-44.5601,-43.2125,6372.55,5725.16,1517.31,-17.4107,-47.4125,-101.302,8220.25,418.187,733.762,-12.6529,20.0402,-11.1058
3.206,5509.46,793.966,7539.04,-7.27883,-94.047,-18.3203,8170.59,-1177.56,12709.8,86.0359,303.098,-163.859,-1255.86,9094.83,-1590.76,-12.7066,-35.7211,-56.9674,-2998.69,-14563.7,994.133,-73.1799,120.268,-309.386,-577.858,8671.04,-2100.32,2.06109,-44.3502,-43.1801,6364.62,5703.82,1561.8,-17.9948,-46.2919,-100.926,8218.65,425.715,737.198,-12.9258,19.9219,-11.0296
3.2065,5535.07,803.429,7523.22,-7.21227,-94.0191,-18.2724,8194.92,-1189.35,12765.5,85.851,302.912,-162.882,-1276.96,9105.24,-1579.54,-12.6805,-35.5269,-57.0238,-3014.32,-14638.1,980.854,-72.6732,117.968,-309.841,-610.962,8681.66,-2102.43,2.0384,-44.1404,-43.1477,6356.69,5682.48,1606.29,-18.5788,-45.1713,-100.551,8217.05,433.243,740.634,-13.1986,19.8036,-10.9534
3.207,5560.68,812.892,7507.41,-7.14571,-93.9913,-18.2244,8219.26,-1201.14,12821.1,85.6661,302.726,-161.906,-1298.06,9115.66,-1568.32,-12.6544,-35.3328,-57.0802,-3029.95,-14712.6,967.575,-72.1665,115.669,-310.296,-644.065,8692.28,-2104.54,2.01571,-43.9306,-43.1153,6348.75,5661.14,1650.79,-19.1628,-44.0507,-100.175,8215.46,440.771,744.07,-13.4715,19.6853,-10.8772
3.2075,5586.29,822.355,7491.6,-7.07915,-93.9635,-18.1764,8243.59,-1212.94,12876.8,85.4811,302.54,-160.929,-1319.17,9126.08,-1557.1,-12.6282,-35.1386,-57.1366,-3045.59,-14787.0,954.295,-71.6598,113.369,-310.751,-677.169,8702.9,-2106.65,1.99302,-43.7207,-43.0829,6340.82,5639.81,1695.28,-19.7468,-42.9301,-99.7995,8213.86,448.299,747.505,-13.7443,19.567,-10.801
3.208,5611.9,831.819,7475.78,-7.01259,-93.9356,-18.1285,8267.92,-1224.73,12932.5,85.2962,302.354,-159.952,-1340.27,9136.49,-1545.87,-12.6021,-34.9444,-57.1931,-3061.22,-14861.4,941.016,-71.1532,111.07,-311.205,-710.272,8713.52,-2108.75,1.97033,-43.5109,-43.0506,6332.88,5618.47,1739.77,-20.3309,-41.8095,-99.424,8212.26,455.827,750.941,-14.0172,19.4487,-10.7248
3.2085,5637.51,841.282,7459.97,-6.94603,-93.9078,-18.0805,8292.25,-1236.52,12988.1,85.1113,302.168,-158.976,-1361.37,9146.91,-1534.65,-12.576,-34.7503,-57.2495,-3076.85,-14935.9,927.736,-70.6465,108.77,-311.66,-743.376,8724.14,-2110.86,1.94764,-43.3011,-43.0182,6324.95,5597.13,1784.26,-20.9149,-40.6889,-99.0485,8210.67,463.355,754.377,-14.29,19.3304,-10.6486
3.209,5661.34,853.289,7447.41,-6.89334,-93.8676,-18.0541,8320.72,-1254.55,13046.7,84.9221,301.958,-158.022,-1381.84,9154.94,-1519.49,-12.5636,-34.6196,-57.3047,-3091.91,-15009.2,913.633,-70.1815,106.486,-312.119,-773.675,8735.2,-2113.17,1.90469,-43.0784,-42.9906,6316.13,5578.54,1825.62,-21.4481,-39.7466,-98.6933,8210.29,470.56,752.351,-14.5252,19.2246,-10.5863
3.2095,5678.94,874.2,7446.23,-6.88921,-93.7843,-18.1028,8363.69,-1294.37,13115.3,84.718,301.663,-157.147,-1400.13,9154.62,-1490.57,-12.5996,-34.7111,-57.3555,-3105.01,-15078.9,896.649,-69.8627,104.254,-312.594,-794.159,8747.79,-2116.19,1.79086,-42.8107,-42.9798,6304.23,5569.56,1856.01,-21.8036,-39.4286,-98.4094,8214.21,476.634,731.213,-14.6287,19.1625,-10.5724
3.21,5696.54,895.111,7445.05,-6.88507,-93.701,-18.1516,8406.67,-1334.2,13184.0,84.5139,301.368,-156.272,-1418.41,9154.31,-1461.65,-12.6356,-34.8026,-57.4064,-3118.1,-15148.6,879.665,-69.5439,102.023,-313.069,-814.643,8760.38,-2119.21,1.67703,-42.543,-42.969,6292.33,5560.58,1886.39,-22.1591,-39.1105,-98.1255,8218.12,482.709,710.075,-14.7321,19.1003,-10.5586
3.2105,5714.13,916.022,7443.87,-6.88093,-93.6177,-18.2004,8449.64,-1374.02,13252.6,84.3098,301.073,-155.396,-1436.69,9153.99,-1432.73,-12.6716,-34.8941,-57.4572,-3131.19,-15218.3,862.682,-69.2251,99.7912,-313.544,-835.126,8772.98,-2122.23,1.5632,-42.2753,-42.9582,6280.43,5551.6,1916.78,-22.5146,-38.7925,-97.8415,8222.03,488.783,688.936,-14.8356,19.0381,-10.5448
3.211,5731.73,936.933,7442.69,-6.87679,-93.5344,-18.2491,8492.61,-1413.85,13321.2,84.1057,300.777,-154.521,-1454.98,9153.68,-1403.81,-12.7075,-34.9856,-57.5081,-3144.28,-15288.0,845.698,-68.9063,97.5596,-314.019,-855.61,8785.57,-2125.25,1.44937,-42.0076,-42.9474,6268.53,5542.62,1947.17,-22.8701,-38.4744,-97.5576,8225.94,494.858,667.798,-14.9391,18.976,-10.5309
3.2115,5749.33,957.844,7441.51,-6.87265,-93.4511,-18.2979,8535.58,-1453.67,13389.9,83.9016,300.482,-153.646,-1473.26,9153.36,-1374.88,-12.7435,-35.0771,-57.5589,-3157.37,-15357.7,828.714,-68.5875,95.328,-314.494,-876.094,8798.17,-2128.27,1.33554,-41.7398,-42.9366,6256.63,5533.64,1977.55,-23.2256,-38.1564,-97.2737,8229.86,500.932,646.66,-15.0425,18.9138,-10.5171
3.212,5766.93,978.754,7440.33,-6.86851,-93.3678,-18.3467,8578.55,-1493.5,13458.5,83.6975,300.187,-152.771,-1491.55,9153.05,-1345.96,-12.7795,-35.1686,-57.6098,-3170.46,-15427.3,811.73,-68.2687,93.0964,-314.969,-896.577,8810.76,-2131.29,1.22171,-41.4721,-42.9258,6244.73,5524.66,2007.94,-23.5811,-37.8383,-96.9898,8233.77,507.007,625.521,-15.146,18.8516,-10.5033
3.2125,5784.52,999.665,7439.16,-6.86437,-93.2845,-18.3954,8621.52,-1533.32,13527.2,83.4934,299.892,-151.896,-1509.83,9152.73,-1317.04,-12.8155,-35.2601,-57.6606,-3183.56,-15497.0,794.746,-67.9499,90.8648,-315.443,-917.061,8823.35,-2134.3,1.10788,-41.2044,-42.915,6232.83,5515.68,2038.32,-23.9366,-37.5203,-96.7058,8237.68,513.081,604.383,-15.2494,18.7895,-10.4894
3.213,5802.12,1020.58,7437.98,-6.86024,-93.2012,-18.4442,8664.5,-1573.15,13595.8,83.2893,299.596,-151.021,-1528.11,9152.42,-1288.12,-12.8514,-35.3516,-57.7115,-3196.65,-15566.7,777.762,-67.6311,88.6333,-315.918,-937.545,8835.95,-2137.32,0.994047,-40.9367,-42.9043,6220.93,5506.7,2068.71,-24.2921,-37.2022,-96.4219,8241.59,519.156,583.245,-15.3529,18.7273,-10.4756
3.2135,5818.49,1037.58,7436.81,-6.85864,-93.1168,-18.4948,8707.91,-1602.28,13662.6,83.0596,299.288,-150.169,-1545.82,9151.19,-1256.47,-12.9203,-35.4688,-57.7484,-3201.9,-15628.9,748.437,-67.2964,86.4209,-316.387,-955.293,8842.37,-2137.41,0.895613,-40.6699,-42.9131,6208.28,5500.31,2089.3,-24.57,-37.0442,-96.1336,8239.36,530.708,562.699,-15.4089,18.6937,-10.5076
3.214,5832.38,1046.79,7435.66,-6.86214,-93.0304,-18.549,8752.22,-1610.01,13725.6,82.7788,298.951,-149.365,-1562.38,9148.15,-1219.38,-13.055,-35.6374,-57.7574,-3191.46,-15676.0,694.431,-66.9299,84.247,-316.843,-967.569,8836.46,-2131.65,0.827973,-40.4049,-42.9613,6194.16,5499.1,2090.28,-24.6928,-37.2063,-95.8363,8224.83,553.216,543.339,-15.3698,18.7173,-10.6312
3.2145,5846.27,1055.99,7434.51,-6.86564,-92.944,-18.6033,8796.53,-1617.73,13788.7,82.498,298.615,-148.56,-1578.94,9145.11,-1182.3,-13.1897,-35.806,-57.7663,-3181.02,-15723.2,640.426,-66.5634,82.0731,-317.3,-979.845,8830.55,-2125.88,0.760332,-40.1398,-43.0094,6180.03,5497.89,2091.27,-24.8155,-37.3684,-95.5391,8210.3,575.724,523.98,-15.3308,18.7408,-10.7549
3.215,5860.17,1065.2,7433.36,-6.86913,-92.8576,-18.6576,8840.84,-1625.46,13851.7,82.2173,298.279,-147.756,-1595.51,9142.07,-1145.21,-13.3244,-35.9746,-57.7753,-3170.58,-15770.3,586.42,-66.197,79.8992,-317.756,-992.121,8824.63,-2120.12,0.692692,-39.8748,-43.0576,6165.91,5496.69,2092.26,-24.9383,-37.5305,-95.2419,8195.77,598.232,504.62,-15.2917,18.7644,-10.8785
3.2155,5874.06,1074.4,7432.21,-6.87263,-92.7712,-18.7119,8885.15,-1633.19,13914.8,81.9365,297.943,-146.951,-1612.07,9139.02,-1108.12,-13.4591,-36.1432,-57.7842,-3160.14,-15817.4,532.414,-65.8305,77.7253,-318.213,-1004.4,8818.72,-2114.35,0.625051,-39.6097,-43.1058,6151.78,5495.48,2093.25,-25.0611,-37.6926,-94.9446,8181.24,620.74,485.26,-15.2527,18.7879,-11.0022
3.216,5887.96,1083.61,7431.06,-6.87613,-92.6848,-18.7661,8929.46,-1640.92,13977.9,81.6557,297.607,-146.147,-1628.63,9135.98,-1071.03,-13.5937,-36.3118,-57.7932,-3149.71,-15864.6,478.408,-65.464,75.5515,-318.669,-1016.67,8812.8,-2108.59,0.557411,-39.3447,-43.1539,6137.66,5494.27,2094.24,-25.1839,-37.8547,-94.6474,8166.71,643.248,465.901,-15.2137,18.8115,-11.1258
3.2165,5901.85,1092.81,7429.91,-6.87963,-92.5984,-18.8204,8973.77,-1648.65,14040.9,81.3749,297.271,-145.342,-1645.19,9132.94,-1033.94,-13.7284,-36.4805,-57.8022,-3139.27,-15911.7,424.403,-65.0975,73.3776,-319.125,-1028.95,8806.89,-2102.82,0.48977,-39.0796,-43.2021,6123.53,5493.06,2095.22,-25.3067,-38.0168,-94.3502,8152.18,665.755,446.541,-15.1746,18.835,-11.2495
3.217,5915.74,1102.01,7428.76,-6.88313,-92.512,-18.8747,9018.07,-1656.38,14104.0,81.0941,296.935,-144.538,-1661.75,9129.89,-996.85,-13.8631,-36.6491,-57.8111,-3128.83,-15958.8,370.397,-64.731,71.2037,-319.582,-1041.23,8800.98,-2097.06,0.42213,-38.8146,-43.2503,6109.41,5491.85,2096.21,-25.4294,-38.1789,-94.0529,8137.66,688.263,427.182,-15.1356,18.8586,-11.3731
3.2175,5929.64,1111.22,7427.61,-6.88662,-92.4256,-18.929,9062.38,-1664.11,14167.0,80.8133,296.599,-143.733,-1678.31,9126.85,-959.761,-13.9978,-36.8177,-57.8201,-3118.39,-16006.0,316.391,-64.3646,69.0298,-320.038,-1053.5,8795.06,-2091.29,0.354489,-38.5495,-43.2984,6095.28,5490.65,2097.2,-25.5522,-38.3409,-93.7557,8123.13,710.771,407.822,-15.0965,18.8822,-11.4968
3.218,5936.21,1119.51,7426.64,-6.88216,-92.3472,-18.9663,9112.14,-1652.69,14217.6,80.6044,296.258,-142.872,-1697.0,9132.36,-928.559,-14.0867,-36.9806,-57.7936,-3123.3,-16058.5,280.81,-64.002,66.807,-320.461,-1064.61,8787.98,-2085.18,0.276444,-38.2594,-43.3819,6075.21,5491.85,2074.5,-25.5341,-38.5178,-93.4366,8111.93,734.257,395.763,-15.2678,18.948,-11.5179
3.2185,5933.62,1126.66,7425.92,-6.86774,-92.2787,-18.9826,9168.72,-1617.33,14252.6,80.4853,295.913,-141.94,-1718.34,9148.55,-904.716,-14.1183,-37.1364,-57.7227,-3147.38,-16117.7,268.259,-63.6443,64.5232,-320.843,-1074.27,8779.43,-2078.62,0.185393,-37.9378,-43.5097,6047.7,5496.05,2022.17,-25.34,-38.713,-93.0902,8104.88,758.966,392.829,-15.7021,19.0669,-11.411
3.219,5931.02,1133.81,7425.19,-6.85333,-92.2102,-18.9989,9225.3,-1581.98,14287.6,80.3663,295.567,-141.008,-1739.69,9164.74,-880.872,-14.15,-37.2921,-57.6519,-3171.47,-16177.0,255.709,-63.2866,62.2394,-321.225,-1083.93,8770.89,-2072.06,0.0943418,-37.6163,-43.6374,6020.19,5500.26,1969.85,-25.1459,-38.9082,-92.7438,8097.84,783.675,389.895,-16.1363,19.1857,-11.3041
3.2195,5928.43,1140.96,7424.46,-6.83891,-92.1417,-19.0152,9281.87,-1546.62,14322.6,80.2472,295.221,-140.076,-1761.04,9180.93,-857.029,-14.1816,-37.4479,-57.581,-3195.55,-16236.2,243.158,-62.929,59.9556,-321.606,-1093.58,8762.34,-2065.51,0.0032908,-37.2947,-43.7651,5992.68,5504.47,1917.53,-24.9517,-39.1034,-92.3973,8090.8,808.384,386.961,-16.5705,19.3045,-11.1972
3.22,5925.84,1148.12,7423.73,-6.82449,-92.0732,-19.0314,9338.45,-1511.26,14357.6,80.1282,294.876,-139.144,-1782.39,9197.13,-833.186,-14.2133,-37.6037,-57.5101,-3219.64,-16295.4,230.608,-62.5713,57.6718,-321.988,-1103.24,8753.79,-2058.95,-0.0877602,-36.9732,-43.8928,5965.17,5508.68,1865.21,-24.7576,-39.2986,-92.0509,8083.76,833.092,384.027,-17.0047,19.4233,-11.0903
3.2205,5923.25,1155.27,7423.0,-6.81008,-92.0047,-19.0477,9395.03,-1475.91,14392.6,80.0091,294.53,-138.212,-1803.74,9213.32,-809.342,-14.2449,-37.7595,-57.4393,-3243.72,-16354.6,218.057,-62.2136,55.388,-322.369,-1112.89,8745.25,-2052.39,-0.178811,-36.6517,-44.0205,5937.66,5512.89,1812.89,-24.5634,-39.4939,-91.7045,8076.72,857.801,381.093,-17.439,19.5421,-10.9834
3.221,5920.66,1162.42,7422.27,-6.79566,-91.9362,-19.064,9451.6,-1440.55,14427.6,79.89,294.184,-137.28,-1825.09,9229.51,-785.499,-14.2766,-37.9152,-57.3684,-3267.81,-16413.9,205.506,-61.8559,53.1042,-322.751,-1122.55,8736.7,-2045.83,-0.269862,-36.3301,-44.1482,5910.15,5517.09,1760.57,-24.3693,-39.6891,-91.3581,8069.68,882.51,378.159,-17.8732,19.6609,-10.8765
3.2215,5918.07,1169.57,7421.54,-6.78124,-91.8677,-19.0803,9508.18,-1405.19,14462.6,79.771,293.839,-136.348,-1846.44,9245.7,-761.656,-14.3082,-38.071,-57.2975,-3291.89,-16473.1,192.956,-61.4982,50.8204,-323.132,-1132.2,8728.15,-2039.28,-0.360913,-36.0086,-44.2759,5882.64,5521.3,1708.25,-24.1752,-39.8843,-91.0117,8062.64,907.219,375.224,-18.3074,19.7797,-10.7696
3.222,5915.48,1176.72,7420.81,-6.76683,-91.7992,-19.0965,9564.75,-1369.83,14497.6,79.6519,293.493,-135.416,-1867.78,9261.89,-737.812,-14.3399,-38.2268,-57.2267,-3315.98,-16532.3,180.405,-61.1406,48.5366,-323.514,-1141.86,8719.6,-2032.72,-0.451964,-35.6871,-44.4036,5855.13,5525.51,1655.93,-23.981,-40.0795,-90.6652,8055.6,931.927,372.29,-18.7417,19.8985,-10.6627
3.2225,5913.12,1192.27,7407.13,-6.7671,-91.7105,-19.1028,9616.27,-1322.56,14538.8,79.5175,293.192,-134.464,-1877.36,9269.06,-721.312,-14.411,-38.3377,-57.1572,-3341.03,-16595.2,156.845,-60.912,46.2308,-323.871,-1147.33,8717.0,-2027.65,-0.55782,-35.3601,-44.4792,5821.58,5534.38,1596.88,-23.7622,-40.0884,-90.2217,8041.07,940.279,366.082,-19.1413,19.9694,-10.5977
3.223,5910.94,1214.53,7383.09,-6.77913,-91.6056,-19.101,9663.74,-1265.77,14584.9,79.3709,292.926,-133.496,-1877.51,9269.0,-710.687,-14.5137,-38.4126,-57.0889,-3366.85,-16660.9,124.476,-60.7867,43.9075,-324.208,-1149.44,8719.15,-2023.76,-0.675519,-35.0287,-44.5132,5783.19,5546.99,1532.45,-23.5237,-39.9482,-89.7004,8020.56,935.544,357.254,-19.5133,20.002,-10.5663
3.2235,5908.76,1236.8,7359.04,-6.79115,-91.5006,-19.0992,9711.21,-1208.97,14631.1,79.2242,292.66,-132.529,-1877.66,9268.94,-700.062,-14.6163,-38.4876,-57.0206,-3392.67,-16726.7,92.1073,-60.6614,41.5842,-324.545,-1151.55,8721.3,-2019.88,-0.793219,-34.6973,-44.5471,5744.8,5559.6,1468.02,-23.2851,-39.8079,-89.1792,8000.05,930.809,348.426,-19.8853,20.0345,-10.5348
3.224,5906.59,1259.06,7335.0,-6.80318,-91.3957,-19.0974,9758.67,-1152.17,14677.2,79.0775,292.394,-131.561,-1877.82,9268.88,-689.436,-14.719,-38.5626,-56.9523,-3418.49,-16792.5,59.7386,-60.5361,39.2608,-324.882,-1153.66,8723.46,-2015.99,-0.910918,-34.3659,-44.581,5706.41,5572.21,1403.59,-23.0466,-39.6677,-88.6579,7979.54,926.074,339.598,-20.2573,20.0671,-10.5034
3.2245,5904.41,1281.33,7310.96,-6.81521,-91.2907,-19.0956,9806.14,-1095.37,14723.4,78.9309,292.129,-130.593,-1877.97,9268.82,-678.811,-14.8217,-38.6376,-56.884,-3444.31,-16858.2,27.37,-60.4108,36.9375,-325.219,-1155.78,8725.61,-2012.11,-1.02862,-34.0345,-44.615,5668.02,5584.81,1339.16,-22.808,-39.5275,-88.1366,7959.03,921.339,330.77,-20.6293,20.0997,-10.4719
3.225,5902.23,1303.59,7286.92,-6.82723,-91.1858,-19.0938,9853.61,-1038.57,14769.5,78.7842,291.863,-129.625,-1878.12,9268.76,-668.186,-14.9243,-38.7125,-56.8157,-3470.13,-16924.0,-4.99871,-60.2856,34.6142,-325.557,-1157.89,8727.76,-2008.22,-1.14632,-33.7032,-44.6489,5629.63,5597.42,1274.72,-22.5695,-39.3873,-87.6153,7938.52,916.604,321.942,-21.0013,20.1323,-10.4404
3.2255,5900.05,1325.86,7262.88,-6.83926,-91.0809,-19.092,9901.08,-981.777,14815.7,78.6376,291.597,-128.657,-1878.28,9268.7,-657.56,-15.027,-38.7875,-56.7474,-3495.95,-16989.8,-37.3674,-60.1603,32.2908,-325.894,-1160.0,8729.92,-2004.34,-1.26402,-33.3718,-44.6828,5591.24,5610.03,1210.29,-22.3309,-39.247,-87.0941,7918.01,911.869,313.114,-21.3733,20.1648,-10.409
3.226,5897.88,1348.12,7238.83,-6.85129,-90.9759,-19.0903,9948.54,-924.979,14861.8,78.4909,291.331,-127.689,-1878.43,9268.64,-646.935,-15.1296,-38.8625,-56.6791,-3521.77,-17055.5,-69.7361,-60.035,29.9675,-326.231,-1162.11,8732.07,-2000.45,-1.38171,-33.0404,-44.7168,5552.85,5622.63,1145.86,-22.0924,-39.1068,-86.5728,7897.5,907.134,304.286,-21.7453,20.1974,-10.3775
3.2265,5895.7,1370.38,7214.79,-6.86331,-90.871,-19.0885,9996.01,-868.181,14908.0,78.3442,291.065,-126.721,-1878.59,9268.58,-636.31,-15.2323,-38.9375,-56.6108,-3547.59,-17121.3,-102.105,-59.9097,27.6442,-326.568,-1164.23,8734.22,-1996.57,-1.49941,-32.709,-44.7507,5514.46,5635.24,1081.43,-21.8538,-38.9666,-86.0515,7876.99,902.399,295.458,-22.1173,20.23,-10.3461
3.227,5898.05,1383.57,7197.97,-6.87945,-90.7773,-19.0331,10057.4,-802.879,14975.9,78.1143,290.777,-125.747,-1877.49,9263.97,-624.592,-15.2846,-38.9725,-56.5346,-3534.37,-17174.8,-133.92,-59.7936,25.4165,-326.895,-1165.87,8731.77,-1989.97,-1.64041,-32.3916,-44.8193,5475.39,5663.05,1023.3,-21.63,-38.4322,-85.3877,7869.34,904.187,284.843,-22.415,20.1933,-10.2452
3.2275,5902.68,1392.22,7184.76,-6.89764,-90.6893,-18.9509,10125.8,-733.326,15054.8,77.8427,290.476,-124.771,-1875.78,9257.08,-612.328,-15.3117,-38.9876,-56.4544,-3501.62,-17222.1,-165.458,-59.6822,23.2368,-327.217,-1167.29,8727.02,-1982.01,-1.79305,-32.0812,-44.9053,5435.98,5698.46,968.31,-21.4136,-37.7007,-84.6525,7868.12,909.236,273.334,-22.6757,20.122,-10.1096
3.228,5907.3,1400.86,7171.56,-6.91584,-90.6013,-18.8687,10194.1,-663.773,15133.6,77.5711,290.176,-123.795,-1874.07,9250.19,-600.064,-15.3388,-39.0027,-56.3743,-3468.88,-17269.4,-196.997,-59.5708,21.057,-327.539,-1168.7,8722.27,-1974.05,-1.94569,-31.7708,-44.9913,5396.57,5733.87,913.326,-21.1973,-36.9692,-83.9173,7866.89,914.285,261.825,-22.9363,20.0506,-9.97404
3.2285,5911.92,1409.51,7158.35,-6.93403,-90.5133,-18.7865,10262.5,-594.22,15212.5,77.2995,289.876,-122.818,-1872.35,9243.3,-587.799,-15.3659,-39.0177,-56.2941,-3436.14,-17316.8,-228.536,-59.4593,18.8772,-327.861,-1170.12,8717.52,-1966.09,-2.09832,-31.4603,-45.0773,5357.16,5769.28,858.341,-20.9809,-36.2377,-83.1821,7865.67,919.335,250.315,-23.197,19.9793,-9.83847
3.229,5916.55,1418.15,7145.14,-6.95222,-90.4253,-18.7043,10330.9,-524.668,15291.3,77.0279,289.575,-121.842,-1870.64,9236.41,-575.535,-15.393,-39.0328,-56.2139,-3403.39,-17364.1,-260.074,-59.3479,16.6974,-328.183,-1171.53,8712.77,-1958.13,-2.25096,-31.1499,-45.1633,5317.75,5804.69,803.357,-20.7645,-35.5062,-82.447,7864.44,924.384,238.806,-23.4576,19.908,-9.7029
3.2295,5921.17,1426.8,7131.93,-6.97041,-90.3373,-18.6221,10399.2,-455.115,15370.2,76.7563,289.275,-120.865,-1868.92,9229.52,-563.271,-15.42,-39.0479,-56.1337,-3370.65,-17411.4,-291.613,-59.2364,14.5176,-328.505,-1172.95,8708.01,-1950.17,-2.4036,-30.8395,-45.2492,5278.34,5840.1,748.372,-20.5481,-34.7748,-81.7118,7863.22,929.433,227.297,-23.7183,19.8366,-9.56733
3.23,5925.79,1435.45,7118.73,-6.98861,-90.2493,-18.5399,10467.6,-385.562,15449.1,76.4847,288.975,-119.889,-1867.21,9222.63,-551.007,-15.4471,-39.063,-56.0536,-3337.91,-17458.8,-323.151,-59.125,12.3379,-328.827,-1174.36,8703.26,-1942.21,-2.55624,-30.5291,-45.3352,5238.93,5875.51,693.388,-20.3317,-34.0433,-80.9766,7861.99,934.483,215.788,-23.9789,19.7653,-9.43176
3.2305,5930.42,1444.09,7105.52,-7.0068,-90.1613,-18.4578,10536.0,-316.009,15527.9,76.2131,288.675,-118.913,-1865.49,9215.75,-538.743,-15.4742,-39.0781,-55.9734,-3305.16,-17506.1,-354.69,-59.0135,10.1581,-329.149,-1175.78,8698.51,-1934.25,-2.70888,-30.2186,-45.4212,5199.52,5910.92,638.403,-20.1153,-33.3118,-80.2414,7860.77,939.532,204.278,-24.2396,19.6939,-9.29619
3.231,5935.04,1452.74,7092.31,-7.02499,-90.0733,-18.3756,10604.3,-246.456,15606.8,75.9415,288.374,-117.936,-1863.78,9208.86,-526.479,-15.5013,-39.0932,-55.8932,-3272.42,-17553.4,-386.228,-58.9021,7.97829,-329.471,-1177.19,8693.76,-1926.29,-2.86152,-29.9082,-45.5072,5160.11,5946.33,583.419,-19.899,-32.5803,-79.5062,7859.55,944.581,192.769,-24.5003,19.6226,-9.16062
3.2315,5939.71,1462.73,7087.06,-7.10426,-89.9765,-18.2753,10671.0,-183.753,15684.3,75.6996,288.08,-116.964,-1881.46,9205.22,-516.999,-15.5324,-39.0358,-55.8246,-3261.05,-17598.6,-430.988,-58.8368,6.14133,-329.783,-1181.36,8685.64,-1930.78,-2.89899,-29.5591,-45.6743,5125.22,5966.53,526.46,-19.6876,-31.4739,-78.6781,7876.86,954.047,187.059,-24.5542,19.4943,-9.13331
3.232,5944.38,1473.1,7084.08,-7.20099,-89.8772,-18.17,10737.2,-123.007,15761.4,75.4662,287.788,-115.994,-1904.68,9202.51,-508.315,-15.5646,-38.9577,-55.7592,-3255.79,-17643.1,-479.526,-58.7848,4.40232,-330.091,-1186.3,8676.55,-1938.84,-2.90354,-29.1989,-45.8646,5091.63,5982.37,468.937,-19.4776,-30.2602,-77.8233,7899.48,964.775,183.005,-24.5492,19.3497,-9.13692
3.2325,5949.06,1483.46,7081.11,-7.29771,-89.7779,-18.0646,10803.5,-62.2619,15838.6,75.2328,287.496,-115.023,-1927.9,9199.81,-499.63,-15.5968,-38.8797,-55.6939,-3250.53,-17687.7,-528.063,-58.7327,2.6633,-330.4,-1191.25,8667.46,-1946.89,-2.9081,-28.8387,-46.0548,5058.03,5998.21,411.414,-19.2676,-29.0466,-76.9686,7922.09,975.502,178.951,-24.5441,19.2051,-9.14054
3.233,5953.74,1493.83,7078.13,-7.39443,-89.6786,-17.9592,10869.7,-1.51625,15915.7,74.9993,287.204,-114.052,-1951.12,9197.1,-490.946,-15.629,-38.8016,-55.6286,-3245.27,-17732.2,-576.601,-58.6807,0.924292,-330.709,-1196.2,8658.37,-1954.94,-2.91266,-28.4785,-46.2451,5024.44,6014.06,353.892,-19.0576,-27.833,-76.1138,7944.7,986.23,174.898,-24.5391,19.0605,-9.14416
3.2335,5958.42,1504.2,7075.15,-7.49116,-89.5793,-17.8538,10935.9,59.2294,15992.8,74.7659,286.911,-113.082,-1974.34,9194.4,-482.261,-15.6612,-38.7235,-55.5632,-3240.01,-17776.7,-625.138,-58.6286,-0.814721,-331.018,-1201.15,8649.28,-1963.0,-2.91722,-28.1183,-46.4354,4990.84,6029.9,296.369,-18.8476,-26.6194,-75.2591,7967.32,996.958,170.844,-24.534,18.916,-9.14778
3.234,5963.09,1514.57,7072.17,-7.58788,-89.48,-17.7485,11002.1,119.975,16070.0,74.5325,286.619,-112.111,-1997.56,9191.69,-473.577,-15.6935,-38.6455,-55.4979,-3234.75,-17821.2,-673.676,-58.5766,-2.55373,-331.327,-1206.09,8640.19,-1971.05,-2.92178,-27.7581,-46.6257,4957.25,6045.75,238.846,-18.6376,-25.4058,-74.4043,7989.93,1007.69,166.79,-24.5289,18.7714,-9.1514
3.2345,5967.77,1524.94,7069.2,-7.68461,-89.3807,-17.6431,11068.3,180.721,16147.1,74.2991,286.327,-111.14,-2020.78,9188.98,-464.892,-15.7257,-38.5674,-55.4326,-3229.49,-17865.8,-722.213,-58.5245,-4.29275,-331.636,-1211.04,8631.1,-1979.11,-2.92633,-27.398,-46.8159,4923.65,6061.59,181.323,-18.4276,-24.1922,-73.5496,8012.54,1018.41,162.737,-24.5239,18.6268,-9.15501
3.235,5972.45,1535.31,7066.22,-7.78133,-89.2813,-17.5377,11134.5,241.466,16224.2,74.0657,286.035,-110.169,-2044.0,9186.28,-456.208,-15.7579,-38.4893,-55.3672,-3224.23,-17910.3,-770.751,-58.4725,-6.03176,-331.945,-1215.99,8622.01,-1987.16,-2.93089,-27.0378,-47.0062,4890.06,6077.43,123.8,-18.2176,-22.9786,-72.6948,8035.16,1029.14,158.683,-24.5188,18.4822,-9.15863
3.2355,5977.13,1545.68,7063.24,-7.87805,-89.182,-17.4324,11200.7,302.212,16301.4,73.8323,285.743,-109.199,-2067.21,9183.57,-447.523,-15.7901,-38.4113,-55.3019,-3218.97,-17954.8,-819.288,-58.4204,-7.77077,-332.254,-1220.94,8612.92,-1995.21,-2.93545,-26.6776,-47.1965,4856.46,6093.28,66.2776,-18.0076,-21.765,-71.8401,8057.77,1039.87,154.629,-24.5138,18.3376,-9.16225
3.236,5985.11,1557.3,7045.27,-7.92092,-89.0836,-17.3961,11290.7,366.147,16389.3,73.751,285.525,-108.149,-2079.11,9170.46,-427.263,-15.8114,-38.4123,-55.2543,-3205.45,-18014.4,-873.327,-58.6626,-9.18684,-332.589,-1237.49,8616.18,-1986.34,-2.91851,-26.3218,-47.304,4845.37,6108.61,-1.35449,-17.8497,-19.9976,-70.9474,8070.71,1041.93,137.853,-24.7322,18.3363,-9.00247
3.2365,5993.51,1569.07,7025.42,-7.95706,-88.9852,-17.3685,11383.6,430.482,16478.5,73.6887,285.318,-107.089,-2089.59,9156.06,-405.555,-15.8314,-38.4231,-55.2088,-3190.9,-18075.9,-928.053,-58.9415,-10.5625,-332.928,-1255.49,8620.97,-1975.35,-2.89889,-25.9665,-47.4011,4837.1,6123.89,-70.2502,-17.6983,-18.161,-70.0501,8082.45,1042.92,119.486,-24.9786,18.3529,-8.82226
3.237,6001.91,1580.85,7005.58,-7.9932,-88.8868,-17.3408,11476.5,494.816,16567.7,73.6265,285.11,-106.03,-2100.07,9141.65,-383.847,-15.8514,-38.434,-55.1634,-3176.35,-18137.4,-982.779,-59.2205,-11.9382,-333.266,-1273.5,8625.77,-1964.36,-2.87926,-25.6113,-47.4982,4828.83,6139.16,-139.146,-17.5469,-16.3243,-69.1527,8094.18,1043.9,101.119,-25.2249,18.3695,-8.64205
3.2375,6010.32,1592.62,6985.73,-8.02934,-88.7885,-17.3132,11569.4,559.15,16656.9,73.5642,284.902,-104.97,-2110.55,9127.25,-362.139,-15.8714,-38.4448,-55.118,-3161.8,-18198.9,-1037.51,-59.4994,-13.3139,-333.605,-1291.5,8630.56,-1953.37,-2.85964,-25.256,-47.5953,4820.55,6154.43,-208.042,-17.3956,-14.4877,-68.2553,8105.92,1044.88,82.7516,-25.4713,18.3862,-8.46184
3.238,6018.72,1604.4,6965.89,-8.06548,-88.6901,-17.2855,11662.4,623.484,16746.2,73.5019,284.694,-103.91,-2121.02,9112.84,-340.431,-15.8914,-38.4557,-55.0726,-3147.25,-18260.4,-1092.23,-59.7784,-14.6896,-333.943,-1309.5,8635.36,-1942.38,-2.84001,-24.9008,-47.6925,4812.28,6169.71,-276.937,-17.2442,-12.6511,-67.358,8117.66,1045.87,64.3845,-25.7177,18.4028,-8.28164
3.2385,6027.12,1616.17,6946.04,-8.10161,-88.5918,-17.2579,11755.3,687.818,16835.4,73.4397,284.486,-102.85,-2131.5,9098.44,-318.723,-15.9114,-38.4665,-55.0271,-3132.7,-18321.9,-1146.96,-60.0574,-16.0653,-334.282,-1327.51,8640.16,-1931.4,-2.82038,-24.5456,-47.7896,4804.0,6184.98,-345.833,-17.0928,-10.8144,-66.4606,8129.39,1046.85,46.0175,-25.9641,18.4194,-8.10143
3.239,6035.52,1627.95,6926.2,-8.13775,-88.4934,-17.2303,11848.2,752.153,16924.6,73.3774,284.278,-101.791,-2141.98,9084.03,-297.015,-15.9314,-38.4774,-54.9817,-3118.15,-18383.3,-1201.68,-60.3363,-17.441,-334.621,-1345.51,8644.95,-1920.41,-2.80076,-24.1903,-47.8867,4795.73,6200.25,-414.729,-16.9414,-8.97779,-65.5632,8141.13,1047.83,27.6505,-26.2104,18.436,-7.92122
3.2395,6043.92,1639.72,6906.35,-8.17389,-88.395,-17.2026,11941.1,816.487,17013.8,73.3152,284.071,-100.731,-2152.46,9069.62,-275.307,-15.9514,-38.4883,-54.9363,-3103.59,-18444.8,-1256.41,-60.6153,-18.8167,-334.959,-1363.51,8649.75,-1909.42,-2.78113,-23.8351,-47.9838,4787.45,6215.53,-483.625,-16.79,-7.14116,-64.6659,8152.86,1048.81,9.28343,-26.4568,18.4526,-7.74101
3.24,6052.32,1651.5,6886.5,-8.21003,-88.2967,-17.175,12034.0,880.821,17103.1,73.2529,283.863,-99.6712,-2162.94,9055.22,-253.599,-15.9714,-38.4991,-54.8909,-3089.04,-18506.3,-1311.14,-60.8942,-20.1924,-335.298,-1381.52,8654.54,-1898.43,-2.76151,-23.4798,-48.0809,4779.18,6230.8,-552.52,-16.6386,-5.30453,-63.7685,8164.6,1049.8,-9.08361,-26.7032,18.4692,-7.56081
3.2405,6070.21,1664.31,6886.13,-8.15321,-88.1854,-17.0884,12158.1,921.685,17188.8,73.3531,283.895,-98.8175,-2148.63,9068.18,-212.134,-16.0869,-38.6116,-54.8957,-3081.46,-18558.7,-1370.25,-61.1508,-21.0942,-335.665,-1375.81,8653.78,-1893.74,-2.73908,-23.206,-48.1725,4780.29,6250.41,-584.531,-16.7713,-2.82103,-62.8528,8158.25,1070.52,-8.56412,-27.0409,18.4116,-7.3411
3.241,6088.11,1677.13,6885.75,-8.09638,-88.0742,-17.0019,12282.2,962.549,17274.5,73.4533,283.926,-97.9637,-2134.32,9081.14,-170.669,-16.2024,-38.724,-54.9005,-3073.87,-18611.1,-1429.36,-61.4073,-21.996,-336.033,-1370.11,8653.01,-1889.04,-2.71665,-22.9322,-48.2641,4781.41,6270.01,-616.543,-16.904,-0.337527,-61.9371,8151.9,1091.24,-8.04463,-27.3786,18.3539,-7.1214
3.2415,6106.0,1689.94,6885.37,-8.03956,-87.9629,-16.9153,12406.3,1003.41,17360.2,73.5535,283.958,-97.1099,-2120.0,9094.11,-129.204,-16.318,-38.8365,-54.9054,-3066.28,-18663.4,-1488.48,-61.6638,-22.8978,-336.401,-1364.4,8652.25,-1884.35,-2.69423,-22.6583,-48.3556,4782.52,6289.62,-648.554,-17.0367,2.14597,-61.0215,8145.55,1111.96,-7.52515,-27.7163,18.2963,-6.9017
3.242,6123.89,1702.75,6884.99,-7.98274,-87.8517,-16.8288,12530.3,1044.28,17445.9,73.6537,283.99,-96.2561,-2105.69,9107.07,-87.739,-16.4335,-38.949,-54.9102,-3058.69,-18715.8,-1547.59,-61.9204,-23.7996,-336.768,-1358.7,8651.49,-1879.66,-2.6718,-22.3845,-48.4472,4783.64,6309.22,-680.565,-17.1694,4.62947,-60.1058,8139.2,1132.68,-7.00566,-28.054,18.2386,-6.682
3.2425,6141.79,1715.57,6884.62,-7.92591,-87.7405,-16.7422,12654.4,1085.14,17531.6,73.7538,284.022,-95.4024,-2091.38,9120.03,-46.2739,-16.549,-39.0614,-54.915,-3051.1,-18768.2,-1606.7,-62.177,-24.7014,-337.136,-1352.99,8650.72,-1874.97,-2.64938,-22.1107,-48.5387,4784.75,6328.83,-712.576,-17.3021,7.11297,-59.1901,8132.85,1153.4,-6.48617,-28.3917,18.181,-6.4623
3.243,6159.68,1728.38,6884.24,-7.86909,-87.6292,-16.6557,12778.5,1126.0,17617.3,73.854,284.053,-94.5486,-2077.07,9132.99,-4.80887,-16.6645,-39.1739,-54.9199,-3043.51,-18820.5,-1665.81,-62.4335,-25.6032,-337.504,-1347.29,8649.96,-1870.27,-2.62695,-21.8368,-48.6303,4785.87,6348.43,-744.587,-17.4347,9.59647,-58.2744,8126.5,1174.12,-5.96669,-28.7294,18.1233,-6.2426
3.2435,6177.58,1741.19,6883.86,-7.81227,-87.518,-16.5691,12902.6,1166.87,17703.0,73.9542,284.085,-93.6948,-2062.76,9145.96,36.6562,-16.78,-39.2863,-54.9247,-3035.92,-18872.9,-1724.93,-62.6901,-26.505,-337.872,-1341.58,8649.19,-1865.58,-2.60452,-21.563,-48.7219,4786.98,6368.04,-776.598,-17.5674,12.08,-57.3588,8120.15,1194.84,-5.4472,-29.0671,18.0656,-6.0229
3.244,6195.47,1754.01,6883.48,-7.75545,-87.4067,-16.4826,13026.6,1207.73,17788.7,74.0544,284.117,-92.841,-2048.44,9158.92,78.1212,-16.8955,-39.3988,-54.9295,-3028.33,-18925.3,-1784.04,-62.9466,-27.4068,-338.239,-1335.87,8648.43,-1860.89,-2.5821,-21.2892,-48.8134,4788.1,6387.64,-808.609,-17.7001,14.5635,-56.4431,8113.8,1215.56,-4.92771,-29.4048,18.008,-5.80319
3.2445,6212.05,1766.29,6883.33,-7.70138,-87.2954,-16.3869,13155.2,1248.29,17870.6,74.1209,284.175,-92.0274,-2034.53,9170.68,115.411,-17.0024,-39.493,-54.9338,-3023.42,-18980.2,-1840.39,-63.2003,-28.2715,-338.582,-1331.71,8647.5,-1855.05,-2.56838,-21.0326,-48.9081,4790.11,6403.65,-836.37,-17.889,17.0722,-55.5414,8107.44,1234.33,-3.93245,-29.7275,17.9385,-5.58656
3.245,6218.17,1774.29,6884.94,-7.66935,-87.1829,-16.2181,13319.8,1286.42,17922.7,73.9184,284.446,-91.535,-2023.84,9172.82,119.295,-17.0396,-39.4412,-54.9336,-3039.89,-19055.5,-1874.66,-63.4313,-28.8388,-338.724,-1339.88,8645.2,-1840.0,-2.6243,-20.914,-49.0276,4799.35,6390.83,-830.13,-18.5272,19.7827,-54.7519,8100.99,1237.47,0.869015,-29.9304,17.7741,-5.39446
3.2455,6224.28,1782.29,6886.54,-7.63732,-87.0705,-16.0494,13484.4,1324.54,17974.8,73.7159,284.716,-91.0426,-2013.15,9174.96,123.18,-17.0769,-39.3893,-54.9335,-3056.36,-19130.7,-1908.92,-63.6623,-29.4062,-338.866,-1348.04,8642.9,-1824.96,-2.68023,-20.7954,-49.1472,4808.59,6378.01,-823.89,-19.1654,22.4932,-53.9624,8094.53,1240.61,5.67048,-30.1333,17.6097,-5.20235
3.246,6230.39,1790.29,6888.15,-7.60529,-86.9581,-15.8806,13649.0,1362.67,18026.8,73.5133,284.987,-90.5503,-2002.45,9177.1,127.064,-17.1142,-39.3374,-54.9333,-3072.84,-19206.0,-1943.18,-63.8932,-29.9736,-339.008,-1356.2,8640.61,-1809.92,-2.73616,-20.6769,-49.2667,4817.83,6365.19,-817.65,-19.8036,25.2036,-53.173,8088.07,1243.75,10.4719,-30.3363,17.4453,-5.01025
3.2465,6236.5,1798.29,6889.76,-7.57327,-86.8457,-15.7119,13813.5,1400.8,18078.9,73.3108,285.257,-90.0579,-1991.76,9179.25,130.949,-17.1515,-39.2856,-54.9331,-3089.31,-19281.3,-1977.45,-64.1242,-30.541,-339.15,-1364.37,8638.31,-1794.88,-2.79209,-20.5583,-49.3862,4827.08,6352.37,-811.411,-20.4418,27.9141,-52.3835,8081.62,1246.89,15.2734,-30.5392,17.2808,-4.81814
3.247,6242.62,1806.29,6891.37,-7.54124,-86.7333,-15.5432,13978.1,1438.92,18131.0,73.1082,285.528,-89.5655,-1981.07,9181.39,134.833,-17.1888,-39.2337,-54.933,-3105.78,-19356.6,-2011.71,-64.3552,-31.1083,-339.291,-1372.53,8636.02,-1779.84,-2.84802,-20.4397,-49.5058,4836.32,6339.55,-805.171,-21.08,30.6246,-51.594,8075.16,1250.03,20.0749,-30.7421,17.1164,-4.62604
3.2475,6248.73,1814.29,6892.98,-7.50921,-86.6209,-15.3744,14142.7,1477.05,18183.0,72.9057,285.798,-89.0731,-1970.37,9183.53,138.718,-17.2261,-39.1818,-54.9328,-3122.25,-19431.8,-2045.97,-64.5862,-31.6757,-339.433,-1380.7,8633.72,-1764.8,-2.90395,-20.3211,-49.6253,4845.56,6326.73,-798.931,-21.7182,33.3351,-50.8045,8068.71,1253.17,24.8763,-30.9451,16.952,-4.43393
3.248,6254.84,1822.29,6894.59,-7.47718,-86.5084,-15.2057,14307.3,1515.18,18235.1,72.7031,286.069,-88.5807,-1959.68,9185.67,142.603,-17.2634,-39.13,-54.9326,-3138.73,-19507.1,-2080.24,-64.8171,-32.2431,-339.575,-1388.86,8631.42,-1749.75,-2.95987,-20.2025,-49.7448,4854.8,6313.91,-792.691,-22.3564,36.0456,-50.015,8062.25,1256.31,29.6778,-31.148,16.7876,-4.24183
3.2485,6260.96,1830.3,6896.2,-7.44515,-86.396,-15.0369,14471.9,1553.3,18287.2,72.5006,286.339,-88.0883,-1948.98,9187.81,146.487,-17.3007,-39.0781,-54.9325,-3155.2,-19582.4,-2114.5,-65.0481,-32.8105,-339.717,-1397.03,8629.13,-1734.71,-3.0158,-20.0839,-49.8644,4864.04,6301.09,-786.451,-22.9946,38.7561,-49.2255,8055.79,1259.45,34.4793,-31.3509,16.6232,-4.04973
3.249,6266.09,1838.95,6897.4,-7.41686,-86.2862,-14.8689,14639.7,1585.66,18328.2,72.2747,286.642,-87.6666,-1939.71,9192.21,151.144,-17.338,-39.0119,-54.9284,-3174.17,-19655.1,-2148.28,-65.2989,-33.2764,-339.859,-1402.83,8628.27,-1718.92,-3.06954,-19.9818,-49.9615,4871.58,6291.17,-773.108,-23.7243,41.501,-48.4354,8050.23,1260.3,36.0953,-31.5032,16.4552,-3.88068
3.2495,6267.82,1849.9,6897.19,-7.40165,-86.1853,-14.703,14819.1,1597.86,18330.6,71.9673,287.058,-87.4921,-1935.43,9204.47,158.505,-17.3754,-38.8954,-54.9108,-3201.88,-19719.0,-2180.37,-65.6191,-33.3874,-340.001,-1400.33,8632.45,-1700.47,-3.11563,-19.9374,-49.9804,4873.19,6291.42,-734.901,-24.7746,44.3668,-47.6431,8047.79,1253.11,26.5623,-31.4783,16.2743,-3.79234
3.25,6269.54,1860.86,6896.98,-7.38645,-86.0843,-14.5372,14998.4,1610.05,18333.0,71.6598,287.474,-87.3177,-1931.15,9216.74,165.866,-17.4127,-38.7788,-54.8931,-3229.59,-19782.8,-2212.46,-65.9394,-33.4983,-340.143,-1397.84,8636.62,-1682.03,-3.16171,-19.8929,-49.9994,4874.81,6291.66,-696.694,-25.8249,47.2325,-46.8508,8045.35,1245.93,17.0293,-31.4534,16.0934,-3.70401
3.2505,6271.26,1871.81,6896.77,-7.37124,-85.9834,-14.3714,15177.8,1622.24,18335.4,71.3523,287.89,-87.1432,-1926.87,9229.01,173.226,-17.4501,-38.6623,-54.8755,-3257.3,-19846.7,-2244.55,-66.2596,-33.6092,-340.284,-1395.35,8640.8,-1663.59,-3.2078,-19.8485,-50.0183,4876.42,6291.91,-658.487,-26.8752,50.0982,-46.0585,8042.91,1238.75,7.49633,-31.4285,15.9125,-3.61567
3.251,6272.99,1882.76,6896.56,-7.35603,-85.8825,-14.2055,15357.1,1634.43,18337.9,71.0449,288.306,-86.9687,-1922.58,9241.28,180.587,-17.4875,-38.5458,-54.8579,-3285.01,-19910.5,-2276.64,-66.5798,-33.7202,-340.426,-1392.85,8644.98,-1645.14,-3.25389,-19.804,-50.0372,4878.03,6292.16,-620.281,-27.9255,52.9639,-45.2663,8040.47,1231.57,-2.03666,-31.4036,15.7316,-3.52734
3.2515,6274.71,1893.71,6896.35,-7.34082,-85.7816,-14.0397,15536.5,1646.62,18340.3,70.7374,288.722,-86.7943,-1918.3,9253.55,187.947,-17.5248,-38.4293,-54.8403,-3312.72,-19974.4,-2308.73,-66.9,-33.8311,-340.568,-1390.36,8649.15,-1626.7,-3.29997,-19.7596,-50.0561,4879.64,6292.4,-582.074,-28.9758,55.8296,-44.474,8038.03,1224.39,-11.5697,-31.3787,15.5507,-3.439
3.252,6276.43,1904.67,6896.14,-7.32561,-85.6807,-13.8739,15715.8,1658.81,18342.7,70.43,289.138,-86.6198,-1914.02,9265.82,195.308,-17.5622,-38.3127,-54.8226,-3340.43,-20038.2,-2340.82,-67.2203,-33.942,-340.71,-1387.87,8653.33,-1608.26,-3.34606,-19.7151,-50.0751,4881.25,6292.65,-543.867,-30.0261,58.6953,-43.6817,8035.59,1217.2,-21.1026,-31.3538,15.3698,-3.35066
3.2525,6278.16,1915.62,6895.94,-7.31041,-85.5798,-13.7081,15895.2,1671.0,18345.1,70.1225,289.554,-86.4454,-1909.73,9278.09,202.669,-17.5996,-38.1962,-54.805,-3368.14,-20102.1,-2372.91,-67.5405,-34.053,-340.852,-1385.38,8657.51,-1589.81,-3.39214,-19.6707,-50.094,4882.86,6292.9,-505.66,-31.0764,61.5611,-42.8895,8033.16,1210.02,-30.6356,-31.3289,15.1889,-3.26233
3.253,6279.88,1926.57,6895.73,-7.2952,-85.4789,-13.5422,16074.6,1683.19,18347.5,69.815,289.97,-86.2709,-1905.45,9290.36,210.029,-17.637,-38.0797,-54.7874,-3395.84,-20165.9,-2405.0,-67.8607,-34.1639,-340.994,-1382.88,8661.68,-1571.37,-3.43823,-19.6262,-50.1129,4884.48,6293.14,-467.453,-32.1268,64.4268,-42.0972,8030.72,1202.84,-40.1686,-31.304,15.008,-3.17399
3.2535,6276.92,1938.21,6899.27,-7.2543,-85.3755,-13.3705,16246.1,1713.75,18348.1,69.515,290.28,-86.1503,-1902.92,9300.66,219.401,-17.7106,-38.0132,-54.7777,-3423.52,-20230.1,-2439.97,-68.2356,-34.1645,-341.074,-1386.33,8669.67,-1552.96,-3.51434,-19.6029,-50.1547,4876.79,6299.7,-415.375,-33.0632,67.1115,-41.2679,8027.06,1196.79,-47.9474,-31.3737,14.8244,-3.04797
3.254,6264.61,1951.24,6910.34,-7.16203,-85.2672,-13.1867,16402.1,1781.06,18345.0,69.2298,290.376,-86.1374,-1903.91,9307.05,232.795,-17.8569,-38.0469,-54.784,-3451.13,-20294.8,-2480.69,-68.7198,-33.9446,-341.031,-1401.67,8685.29,-1534.61,-3.65049,-19.6217,-50.2424,4850.51,6318.87,-335.552,-33.7718,69.4344,-40.3646,8020.96,1193.0,-52.2177,-31.6326,14.6351,-2.84658
3.2545,6252.3,1964.27,6921.4,-7.06975,-85.1589,-13.003,16558.0,1848.37,18341.8,68.9446,290.472,-86.1245,-1904.89,9313.43,246.188,-18.0031,-38.0807,-54.7903,-3478.74,-20359.6,-2521.41,-69.204,-33.7246,-340.988,-1417.0,8700.92,-1516.26,-3.78664,-19.6405,-50.3301,4824.22,6338.04,-255.73,-34.4804,71.7573,-39.4613,8014.87,1189.21,-56.488,-31.8915,14.4458,-2.64519
3.255,6239.98,1977.3,6932.46,-6.97748,-85.0506,-12.8193,16714.0,1915.68,18338.7,68.6594,290.569,-86.1116,-1905.87,9319.82,259.582,-18.1494,-38.1144,-54.7965,-3506.35,-20424.4,-2562.14,-69.6881,-33.5046,-340.945,-1432.34,8716.54,-1497.91,-3.92279,-19.6593,-50.4178,4797.94,6357.21,-175.907,-35.189,74.0802,-38.558,8008.77,1185.42,-60.7583,-32.1503,14.2565,-2.4438
3.2555,6227.67,1990.34,6943.53,-6.8852,-84.9423,-12.6355,16869.9,1982.98,18335.6,68.3743,290.665,-86.0987,-1906.86,9326.21,272.975,-18.2957,-38.1481,-54.8028,-3533.96,-20489.1,-2602.86,-70.1723,-33.2846,-340.902,-1447.67,8732.16,-1479.56,-4.05894,-19.6782,-50.5055,4771.66,6376.38,-96.085,-35.8976,76.4031,-37.6547,8002.68,1181.64,-65.0286,-32.4092,14.0673,-2.24242
3.256,6215.36,2003.37,6954.59,-6.79292,-84.8339,-12.4518,17025.9,2050.29,18332.4,68.0891,290.762,-86.0859,-1907.84,9332.59,286.369,-18.4419,-38.1818,-54.8091,-3561.57,-20553.9,-2643.58,-70.6565,-33.0647,-340.859,-1463.0,8747.78,-1461.21,-4.19509,-19.697,-50.5932,4745.37,6395.55,-16.2625,-36.6062,78.726,-36.7513,7996.58,1177.85,-69.2989,-32.6681,13.878,-2.04103
3.2565,6203.04,2016.4,6965.66,-6.70065,-84.7256,-12.2681,17181.8,2117.6,18329.3,67.8039,290.858,-86.073,-1908.83,9338.98,299.763,-18.5882,-38.2155,-54.8153,-3589.18,-20618.6,-2684.31,-71.1407,-32.8447,-340.816,-1478.34,8763.4,-1442.87,-4.33124,-19.7158,-50.6809,4719.09,6414.72,63.5599,-37.3148,81.0489,-35.848,7990.49,1174.06,-73.5692,-32.927,13.6887,-1.83964
3.257,6190.73,2029.43,6976.72,-6.60837,-84.6173,-12.0844,17337.8,2184.91,18326.2,67.5187,290.954,-86.0601,-1909.81,9345.36,313.156,-18.7344,-38.2492,-54.8216,-3616.79,-20683.4,-2725.03,-71.6249,-32.6247,-340.773,-1493.67,8779.02,-1424.52,-4.46739,-19.7346,-50.7685,4692.81,6433.9,143.382,-38.0234,83.3718,-34.9447,7984.4,1170.27,-77.8394,-33.1859,13.4994,-1.63825
3.2575,6178.42,2042.46,6987.78,-6.5161,-84.509,-11.9006,17493.7,2252.21,18323.0,67.2335,291.051,-86.0472,-1910.79,9351.75,326.55,-18.8807,-38.2829,-54.8279,-3644.4,-20748.1,-2765.75,-72.1091,-32.4047,-340.73,-1509.0,8794.64,-1406.17,-4.60354,-19.7535,-50.8562,4666.52,6453.07,223.205,-38.732,85.6947,-34.0414,7978.3,1166.49,-82.1097,-33.4448,13.3102,-1.43686
3.258,6169.46,2050.92,6994.11,-6.40857,-84.4246,-11.7048,17625.8,2311.86,18296.9,66.9727,291.055,-86.1117,-1911.73,9357.52,339.666,-19.0122,-38.2451,-54.84,-3665.87,-20823.9,-2798.79,-72.6089,-32.0617,-340.602,-1508.2,8805.32,-1388.71,-4.69541,-19.8633,-50.9404,4630.98,6459.36,326.448,-39.1607,87.3812,-33.1493,7972.56,1164.77,-85.654,-33.7104,13.1132,-1.21277
3.2585,6164.68,2053.69,6994.52,-6.28198,-84.3701,-11.4937,17728.0,2361.95,18241.9,66.7424,290.943,-86.2728,-1912.62,9362.52,352.434,-19.1254,-38.1177,-54.8594,-3679.69,-20913.3,-2822.23,-73.1282,-31.5648,-340.367,-1487.24,8809.8,-1372.36,-4.73191,-20.087,-51.0203,4583.87,6449.57,458.968,-39.2395,88.2722,-32.2711,7967.25,1165.63,-88.2907,-33.9844,12.9066,-0.960289
3.259,6159.91,2056.46,6994.93,-6.15538,-84.3155,-11.2827,17830.2,2412.03,18186.9,66.5121,290.831,-86.434,-1913.5,9367.52,365.203,-19.2385,-37.9904,-54.8788,-3693.51,-21002.8,-2845.66,-73.6475,-31.068,-340.132,-1466.27,8814.28,-1356.0,-4.76841,-20.3107,-51.1002,4536.76,6439.78,591.488,-39.3183,89.1632,-31.3929,7961.95,1166.5,-90.9274,-34.2584,12.7001,-0.707811
3.2595,6155.14,2059.22,6995.34,-6.02879,-84.261,-11.0717,17932.4,2462.11,18132.0,66.2818,290.719,-86.5951,-1914.39,9372.52,377.972,-19.3517,-37.863,-54.8982,-3707.32,-21092.2,-2869.09,-74.1668,-30.5712,-339.898,-1445.3,8818.76,-1339.65,-4.80491,-20.5345,-51.1801,4489.65,6429.98,724.008,-39.3971,90.0542,-30.5147,7956.65,1167.37,-93.5641,-34.5323,12.4935,-0.455333
3.26,6150.37,2061.99,6995.75,-5.9022,-84.2065,-10.8606,18034.6,2512.19,18077.0,66.0515,290.607,-86.7563,-1915.27,9377.52,390.74,-19.4648,-37.7357,-54.9176,-3721.14,-21181.7,-2892.52,-74.6861,-30.0743,-339.663,-1424.33,8823.24,-1323.3,-4.84141,-20.7582,-51.26,4442.54,6420.19,856.528,-39.4759,90.9452,-29.6365,7951.34,1168.24,-96.2008,-34.8063,12.287,-0.202855
3.2605,6145.59,2064.75,6996.16,-5.7756,-84.152,-10.6496,18136.8,2562.27,18022.0,65.8211,290.496,-86.9174,-1916.16,9382.52,403.509,-19.578,-37.6084,-54.937,-3734.95,-21271.2,-2915.95,-75.2054,-29.5775,-339.428,-1403.36,8827.72,-1306.95,-4.87791,-20.9819,-51.3398,4395.42,6410.39,989.048,-39.5547,91.8362,-28.7583,7946.04,1169.1,-98.8375,-35.0803,12.0804,0.0496231
3.261,6140.82,2067.52,6996.57,-5.64901,-84.0974,-10.4386,18239.1,2612.35,17967.1,65.5908,290.384,-87.0786,-1917.04,9387.52,416.278,-19.6911,-37.481,-54.9564,-3748.77,-21360.6,-2939.39,-75.7247,-29.0806,-339.193,-1382.4,8832.21,-1290.59,-4.91441,-21.2056,-51.4197,4348.31,6400.6,1121.57,-39.6335,92.7272,-27.8801,7940.74,1169.97,-101.474,-35.3542,11.8739,0.302101
3.2615,6136.05,2070.29,6996.98,-5.52242,-84.0429,-10.2276,18341.3,2662.43,17912.1,65.3605,290.272,-87.2397,-1917.93,9392.52,429.046,-19.8043,-37.3537,-54.9758,-3762.59,-21450.1,-2962.82,-76.244,-28.5838,-338.958,-1361.43,8836.69,-1274.24,-4.95092,-21.4293,-51.4996,4301.2,6390.8,1254.09,-39.7123,93.6182,-27.0019,7935.44,1170.84,-104.111,-35.6282,11.6673,0.554579
3.262,6131.28,2073.05,6997.39,-5.39582,-83.9884,-10.0165,18443.5,2712.51,17857.1,65.1302,290.16,-87.4009,-1918.81,9397.52,441.815,-19.9174,-37.2263,-54.9952,-3776.4,-21539.5,-2986.25,-76.7633,-28.0869,-338.723,-1340.46,8841.17,-1257.89,-4.98742,-21.653,-51.5795,4254.09,6381.01,1386.61,-39.7912,94.5092,-26.1237,7930.13,1171.71,-106.748,-35.9022,11.4608,0.807057
3.2625,6129.41,2071.51,6990.52,-5.2956,-83.9165,-9.78395,18509.9,2767.29,17791.5,64.8631,289.887,-87.6365,-1913.41,9403.26,444.463,-19.9689,-37.0569,-54.9999,-3788.48,-21613.5,-3003.05,-77.236,-27.4977,-338.492,-1322.01,8846.56,-1234.72,-4.99454,-21.9032,-51.7111,4175.27,6367.7,1537.7,-39.714,94.7116,-25.2833,7923.02,1164.24,-102.658,-36.0715,11.2122,1.01718
3.263,6129.86,2066.51,6977.85,-5.21646,-83.8307,-9.53412,18547.6,2825.83,17717.4,64.5665,289.484,-87.9318,-1902.99,9409.59,439.013,-19.9712,-36.8539,-54.9928,-3799.16,-21675.2,-3014.53,-77.6715,-26.8346,-338.265,-1305.59,8852.67,-1206.11,-4.97815,-22.1747,-51.8841,4071.08,6351.58,1703.64,-39.5122,94.3632,-24.4732,7914.47,1150.09,-93.1884,-36.157,10.9301,1.19342
3.2635,6130.32,2061.51,6965.17,-5.13733,-83.7449,-9.28429,18585.4,2884.37,17643.3,64.27,289.081,-88.2271,-1892.56,9415.92,433.564,-19.9734,-36.6508,-54.9857,-3809.85,-21736.9,-3026.01,-78.1069,-26.1715,-338.037,-1289.16,8858.79,-1177.5,-4.96177,-22.4462,-52.0571,3966.9,6335.46,1869.59,-39.3103,94.0147,-23.6631,7905.92,1135.95,-83.7183,-36.2426,10.648,1.36967
3.264,6130.77,2056.51,6952.49,-5.05819,-83.6591,-9.03446,18623.1,2942.9,17569.1,63.9734,288.678,-88.5223,-1882.14,9422.26,428.115,-19.9756,-36.4478,-54.9786,-3820.53,-21798.6,-3037.49,-78.5423,-25.5084,-337.809,-1272.73,8864.9,-1148.89,-4.94539,-22.7177,-52.2301,3862.71,6319.34,2035.53,-39.1085,93.6663,-22.853,7897.37,1121.81,-74.2483,-36.3282,10.3659,1.54591
3.2645,6131.23,2051.52,6939.81,-4.97906,-83.5733,-8.78463,18660.9,3001.44,17495.0,63.6769,288.275,-88.8176,-1871.71,9428.59,422.665,-19.9778,-36.2447,-54.9715,-3831.22,-21860.3,-3048.98,-78.9778,-24.8453,-337.582,-1256.3,8871.02,-1120.27,-4.929,-22.9892,-52.4031,3758.52,6303.22,2201.47,-38.9066,93.3179,-22.0428,7888.81,1107.67,-64.7783,-36.4137,10.0838,1.72215
3.265,6131.68,2046.52,6927.13,-4.89992,-83.4874,-8.5348,18698.6,3059.98,17420.9,63.3803,287.872,-89.1129,-1861.28,9434.92,417.216,-19.9801,-36.0417,-54.9643,-3841.9,-21922.0,-3060.46,-79.4132,-24.1822,-337.354,-1239.88,8877.13,-1091.66,-4.91262,-23.2606,-52.5761,3654.34,6287.1,2367.42,-38.7048,92.9695,-21.2327,7880.26,1093.53,-55.3083,-36.4993,9.80175,1.89839
3.2655,6132.14,2041.52,6914.45,-4.82079,-83.4016,-8.28497,18736.3,3118.52,17346.7,63.0838,287.469,-89.4082,-1850.86,9441.25,411.767,-19.9823,-35.8386,-54.9572,-3852.59,-21983.7,-3071.94,-79.8487,-23.5191,-337.126,-1223.45,8883.25,-1063.05,-4.89623,-23.5321,-52.7491,3550.15,6270.98,2533.36,-38.5029,92.621,-20.4226,7871.71,1079.38,-45.8383,-36.5848,9.51965,2.07463
3.266,6132.59,2036.52,6901.78,-4.74165,-83.3158,-8.03514,18774.1,3177.05,17272.6,62.7873,287.066,-89.7034,-1840.43,9447.58,406.318,-19.9845,-35.6356,-54.9501,-3863.27,-22045.4,-3083.42,-80.2841,-22.856,-336.899,-1207.02,8889.36,-1034.43,-4.87985,-23.8036,-52.9221,3445.96,6254.86,2699.31,-38.3011,92.2726,-19.6125,7863.15,1065.24,-36.3683,-36.6704,9.23756,2.25087
3.2665,6133.05,2031.52,6889.1,-4.66252,-83.23,-7.78531,18811.8,3235.59,17198.5,62.4907,286.664,-89.9987,-1830.01,9453.91,400.868,-19.9867,-35.4326,-54.943,-3873.96,-22107.1,-3094.91,-80.7195,-22.1929,-336.671,-1190.59,8895.48,-1005.82,-4.86347,-24.0751,-53.0951,3341.78,6238.74,2865.25,-38.0992,91.9242,-18.8023,7854.6,1051.1,-26.8983,-36.7559,8.95546,2.42712
3.267,6136.69,2025.84,6878.73,-4.52901,-83.1318,-7.54868,18839.0,3290.31,17112.6,62.2754,286.133,-90.2866,-1823.75,9464.54,402.605,-19.9698,-35.1956,-54.9465,-3872.62,-22160.2,-3116.71,-81.197,-21.3246,-336.385,-1179.46,8901.14,-998.595,-4.91776,-24.4155,-53.1762,3197.04,6240.35,3032.53,-37.8068,91.1554,-17.9823,7840.62,1035.41,-24.2849,-36.7614,8.68903,2.54771
3.2675,6141.94,2019.8,6869.51,-4.36832,-83.0272,-7.31864,18860.9,3343.12,17020.9,62.1008,285.54,-90.5709,-1819.57,9477.32,407.934,-19.9433,-34.9417,-54.9553,-3865.28,-22209.0,-3143.67,-81.6954,-20.3538,-336.07,-1170.97,8906.58,-1002.06,-5.00739,-24.7904,-53.2114,3032.02,6250.82,3200.47,-37.469,90.1764,-17.1574,7823.93,1018.94,-25.0999,-36.7267,8.43044,2.64048
3.268,6147.18,2013.77,6860.29,-4.20762,-82.9227,-7.0886,18882.8,3395.94,16929.2,61.9262,284.946,-90.8551,-1815.39,9490.1,413.264,-19.9167,-34.6878,-54.9641,-3857.93,-22257.7,-3170.62,-82.1938,-19.3829,-335.754,-1162.49,8912.02,-1005.53,-5.09702,-25.1653,-53.2466,2867.0,6261.3,3368.42,-37.1312,89.1974,-16.3325,7807.24,1002.47,-25.9149,-36.6921,8.17185,2.73325
3.2685,6152.42,2007.73,6851.08,-4.04693,-82.8182,-6.85856,18904.8,3448.75,16837.5,61.7516,284.352,-91.1394,-1811.21,9502.88,418.593,-19.8902,-34.4339,-54.9729,-3850.58,-22306.5,-3197.58,-82.6922,-18.412,-335.439,-1154.0,8917.46,-1008.99,-5.18665,-25.5402,-53.2818,2701.98,6271.78,3536.37,-36.7934,88.2185,-15.5075,7790.55,986.002,-26.7299,-36.6575,7.91325,2.82603
3.269,6157.66,2001.7,6841.86,-3.88623,-82.7136,-6.62852,18926.7,3501.56,16745.8,61.577,283.758,-91.4237,-1807.03,9515.66,423.923,-19.8637,-34.1801,-54.9817,-3843.23,-22355.2,-3224.54,-83.1906,-17.4412,-335.123,-1145.51,8922.9,-1012.46,-5.27628,-25.9151,-53.3169,2536.96,6282.26,3704.31,-36.4556,87.2395,-14.6826,7773.86,969.534,-27.5449,-36.6229,7.65466,2.9188
3.2695,6162.9,1995.67,6832.64,-3.72554,-82.6091,-6.39849,18948.6,3554.37,16654.1,61.4024,283.164,-91.7079,-1802.85,9528.44,429.252,-19.8372,-33.9262,-54.9905,-3835.89,-22404.0,-3251.5,-83.6891,-16.4703,-334.808,-1137.02,8928.34,-1015.92,-5.36591,-26.29,-53.3521,2371.95,6292.73,3872.26,-36.1178,86.2605,-13.8576,7757.17,953.065,-28.3599,-36.5882,7.39606,3.01157
3.27,6168.14,1989.63,6823.43,-3.56484,-82.5046,-6.16845,18970.5,3607.18,16562.4,61.2277,282.57,-91.9922,-1798.68,9541.22,434.582,-19.8107,-33.6723,-54.9993,-3828.54,-22452.7,-3278.46,-84.1875,-15.4994,-334.492,-1128.54,8933.78,-1019.39,-5.45554,-26.6649,-53.3873,2206.93,6303.21,4040.21,-35.78,85.2815,-13.0327,7740.48,936.597,-29.1748,-36.5536,7.13747,3.10434
3.2705,6173.38,1983.6,6814.21,-3.40415,-82.4001,-5.93841,18992.4,3659.99,16470.7,61.0531,281.976,-92.2764,-1794.5,9554.0,439.912,-19.7841,-33.4184,-55.0082,-3821.19,-22501.5,-3305.42,-84.6859,-14.5285,-334.177,-1120.05,8939.22,-1022.85,-5.54517,-27.0398,-53.4225,2041.91,6313.69,4208.15,-35.4422,84.3026,-12.2078,7723.79,920.128,-29.9898,-36.519,6.87888,3.19711
3.271,6178.62,1977.56,6804.99,-3.24346,-82.2955,-5.70837,19014.3,3712.8,16379.0,60.8785,281.383,-92.5607,-1790.32,9566.78,445.241,-19.7576,-33.1645,-55.017,-3813.84,-22550.3,-3332.38,-85.1843,-13.5577,-333.862,-1111.56,8944.66,-1026.32,-5.6348,-27.4147,-53.4577,1876.89,6324.16,4376.1,-35.1044,83.3236,-11.3828,7707.1,903.66,-30.8048,-36.4843,6.62028,3.28988
3.2715,6184.94,1963.81,6808.72,-3.20988,-82.222,-5.4628,19047.4,3704.63,16247.7,61.1474,280.558,-93.3209,-1775.74,9566.94,433.873,-19.7883,-32.9654,-55.079,-3808.19,-22586.6,-3350.77,-85.4231,-12.1499,-333.366,-1104.78,8953.76,-1016.04,-5.794,-27.7799,-53.4991,1683.77,6363.18,4529.94,-34.7285,82.0003,-10.5234,7699.05,888.584,-31.4751,-36.4666,6.42738,3.39052
3.272,6191.56,1947.85,6816.14,-3.21262,-82.1574,-5.21278,19083.7,3679.03,16105.1,61.543,279.668,-94.2171,-1758.19,9563.49,417.733,-19.8354,-32.782,-55.1563,-3803.01,-22619.5,-3366.71,-85.5878,-10.6173,-332.819,-1098.49,8963.9,-1001.83,-5.97306,-28.1424,-53.5424,1482.62,6410.34,4679.76,-34.3416,80.5787,-9.65407,7693.48,873.905,-32.104,-36.4536,6.25325,3.49341
3.2725,6198.19,1931.89,6823.57,-3.21536,-82.0928,-4.96277,19120.1,3653.44,15962.4,61.9387,278.777,-95.1133,-1740.63,9560.03,401.594,-19.8825,-32.5986,-55.2336,-3797.84,-22652.3,-3382.65,-85.7524,-9.08475,-332.271,-1092.2,8974.05,-987.618,-6.15213,-28.505,-53.5857,1281.47,6457.51,4829.58,-33.9548,79.1571,-8.78476,7687.91,859.226,-32.7329,-36.4406,6.07911,3.59629
3.273,6204.81,1915.93,6830.99,-3.21811,-82.0282,-4.71275,19156.4,3627.84,15819.8,62.3343,277.887,-96.0096,-1723.08,9556.58,385.455,-19.9296,-32.4152,-55.3108,-3792.67,-22685.2,-3398.58,-85.917,-7.55216,-331.724,-1085.9,8984.19,-973.41,-6.33119,-28.8675,-53.629,1080.33,6504.67,4979.4,-33.568,77.7354,-7.91545,7682.33,844.547,-33.3618,-36.4277,5.90498,3.69918
3.2735,6211.44,1899.97,6838.42,-3.22085,-81.9635,-4.46274,19192.7,3602.24,15677.2,62.7299,276.996,-96.9058,-1705.53,9553.13,369.316,-19.9767,-32.2318,-55.3881,-3787.49,-22718.0,-3414.52,-86.0816,-6.01958,-331.177,-1079.61,8994.33,-959.201,-6.51026,-29.23,-53.6723,879.177,6551.84,5129.22,-33.1812,76.3138,-7.04615,7676.76,829.868,-33.9907,-36.4147,5.73085,3.80206
3.274,6218.06,1884.01,6845.84,-3.22359,-81.8989,-4.21272,19229.0,3576.65,15534.5,63.1255,276.105,-97.802,-1687.98,9549.67,353.177,-20.0238,-32.0483,-55.4654,-3782.32,-22750.9,-3430.46,-86.2463,-4.487,-330.63,-1073.32,9004.48,-944.992,-6.68933,-29.5925,-53.7156,678.028,6599.0,5279.04,-32.7943,74.8922,-6.17684,7671.19,815.189,-34.6197,-36.4018,5.55671,3.90495
3.2745,6224.68,1868.05,6853.27,-3.22633,-81.8343,-3.96271,19265.3,3551.05,15391.9,63.5212,275.215,-98.6982,-1670.43,9546.22,337.037,-20.0709,-31.8649,-55.5426,-3777.15,-22783.7,-3446.4,-86.4109,-2.95441,-330.082,-1067.02,9014.62,-930.783,-6.86839,-29.955,-53.7589,476.879,6646.17,5428.86,-32.4075,73.4705,-5.30753,7665.61,800.511,-35.2486,-36.3888,5.38258,4.00783
3.275,6231.31,1852.09,6860.69,-3.22908,-81.7697,-3.71269,19301.6,3525.45,15249.2,63.9168,274.324,-99.5944,-1652.87,9542.77,320.898,-20.118,-31.6815,-55.6199,-3771.97,-22816.6,-3462.34,-86.5755,-1.42183,-329.535,-1060.73,9024.76,-916.574,-7.04746,-30.3175,-53.8021,275.731,6693.33,5578.67,-32.0207,72.0489,-4.43822,7660.04,785.832,-35.8775,-36.3758,5.20845,4.11072
3.2755,6237.93,1836.14,6868.11,-3.23182,-81.705,-3.46268,19337.9,3499.85,15106.6,64.3124,273.434,-100.491,-1635.32,9539.32,304.759,-20.1651,-31.4981,-55.6972,-3766.8,-22849.4,-3478.28,-86.7402,0.110755,-328.988,-1054.44,9034.91,-902.366,-7.22652,-30.68,-53.8454,74.5818,6740.5,5728.49,-31.6339,70.6273,-3.56892,7654.47,771.153,-36.5064,-36.3629,5.03431,4.2136
3.276,6235.4,1850.74,6872.13,-3.45277,-81.7883,-3.34325,19364.2,3195.57,15058.6,66.5097,272.069,-102.596,-1639.42,9529.37,299.147,-20.2467,-31.158,-55.7861,-3795.07,-22863.7,-3566.91,-87.0366,2.40497,-328.147,-1035.84,9020.22,-906.816,-7.28845,-31.0442,-53.8694,-142.148,6786.45,5804.44,-30.9318,69.1778,-2.88847,7647.83,760.958,-22.5431,-36.2855,4.83408,4.27979
3.2765,6231.73,1869.17,6875.72,-3.701,-81.89,-3.24014,19389.3,2856.45,15022.3,68.9321,270.645,-104.852,-1646.22,9518.61,294.852,-20.3326,-30.7983,-55.8764,-3827.51,-22875.7,-3664.62,-87.3494,4.79439,-327.27,-1015.71,9002.43,-913.599,-7.33573,-31.4086,-53.891,-360.825,6832.25,5871.16,-30.1903,67.7248,-2.23163,7641.06,751.322,-6.7558,-36.2001,4.63058,4.3414
3.277,6228.06,1887.6,6879.31,-3.94923,-81.9917,-3.13704,19414.3,2517.32,14986.1,71.3545,269.221,-107.109,-1653.02,9507.85,290.557,-20.4186,-30.4386,-55.9667,-3859.95,-22887.6,-3762.33,-87.6623,7.18381,-326.393,-995.577,8984.64,-920.381,-7.38301,-31.7729,-53.9125,-579.502,6878.05,5937.88,-29.4488,66.2718,-1.57479,7634.29,741.687,9.03152,-36.1146,4.42709,4.403
3.2775,6224.39,1906.03,6882.9,-4.19746,-82.0934,-3.03393,19439.3,2178.2,14949.9,73.7769,267.797,-109.365,-1659.82,9497.09,286.261,-20.5045,-30.079,-56.0571,-3892.4,-22899.6,-3860.04,-87.9752,9.57323,-325.516,-975.444,8966.86,-927.164,-7.43029,-32.1373,-53.9341,-798.178,6923.85,6004.59,-28.7072,64.8188,-0.917956,7627.52,732.052,24.8188,-36.0292,4.22359,4.46461
3.278,6220.71,1924.46,6886.49,-4.44569,-82.1951,-2.93082,19464.4,1839.08,14913.7,76.1994,266.373,-111.621,-1666.62,9486.33,281.966,-20.5904,-29.7193,-56.1474,-3924.84,-22911.5,-3957.75,-88.2881,11.9626,-324.639,-955.311,8949.07,-933.947,-7.47758,-32.5017,-53.9557,-1016.86,6969.65,6071.31,-27.9657,63.3659,-0.261117,7620.75,722.417,40.6061,-35.9438,4.0201,4.52621
3.2785,6217.04,1942.89,6890.08,-4.69391,-82.2968,-2.82771,19489.4,1499.96,14877.5,78.6218,264.949,-113.878,-1673.42,9475.57,277.67,-20.6763,-29.3596,-56.2378,-3957.29,-22923.5,-4055.46,-88.601,14.3521,-323.761,-935.178,8931.28,-940.73,-7.52486,-32.8661,-53.9772,-1235.53,7015.45,6138.03,-27.2242,61.9129,0.395721,7613.98,712.782,56.3935,-35.8584,3.8166,4.58782
3.279,6213.37,1961.31,6893.67,-4.94214,-82.3985,-2.72461,19514.4,1160.84,14841.2,81.0442,263.525,-116.134,-1680.22,9464.82,273.375,-20.7623,-28.9999,-56.3281,-3989.73,-22935.4,-4153.17,-88.9138,16.7415,-322.884,-915.046,8913.49,-947.513,-7.57214,-33.2304,-53.9988,-1454.21,7061.25,6204.74,-26.4827,60.4599,1.05256,7607.21,703.147,72.1808,-35.7729,3.61311,4.64942
3.2795,6209.7,1979.74,6897.26,-5.19037,-82.5003,-2.6215,19539.5,821.714,14805.0,83.4666,262.101,-118.391,-1687.02,9454.06,269.08,-20.8482,-28.6402,-56.4184,-4022.18,-22947.3,-4250.88,-89.2267,19.1309,-322.007,-894.913,8895.7,-954.295,-7.61942,-33.5948,-54.0203,-1672.89,7107.05,6271.46,-25.7412,59.0069,1.7094,7600.43,693.512,87.9681,-35.6875,3.40961,4.71103
3.28,6206.02,1998.17,6900.85,-5.4386,-82.602,-2.51839,19564.5,482.592,14768.8,85.889,260.677,-120.647,-1693.82,9443.3,264.784,-20.9341,-28.2805,-56.5088,-4054.62,-22959.3,-4348.6,-89.5396,21.5203,-321.13,-874.78,8877.91,-961.078,-7.6667,-33.9592,-54.0419,-1891.56,7152.84,6338.18,-24.9997,57.554,2.36624,7593.66,683.877,103.755,-35.6021,3.20612,4.77264
3.2805,6207.12,2068.86,6873.02,-5.51824,-82.6316,-2.58968,19655.7,-50.8598,14616.5,87.3046,259.448,-122.682,-1715.59,9442.08,288.822,-21.0482,-27.9793,-56.7059,-4162.79,-22958.8,-4266.55,-89.5379,23.5192,-320.09,-838.902,8887.88,-972.776,-7.61789,-34.2919,-54.1013,-2094.41,7190.05,6204.71,-23.7274,56.816,2.73968,7586.63,680.337,95.6772,-35.209,2.99484,4.77109
3.281,6208.22,2139.56,6845.19,-5.59787,-82.6613,-2.66097,19746.8,-584.311,14464.2,88.7202,258.22,-124.718,-1737.36,9440.87,312.859,-21.1622,-27.6781,-56.9029,-4270.97,-22958.2,-4184.51,-89.5362,25.518,-319.049,-803.023,8897.85,-984.475,-7.56908,-34.6247,-54.1607,-2297.25,7227.26,6071.25,-22.4551,56.078,3.11313,7579.6,676.797,87.5989,-34.8158,2.78357,4.76954
3.2815,6209.32,2210.25,6817.36,-5.67751,-82.691,-2.73226,19838.0,-1117.76,14311.9,90.1358,256.991,-126.753,-1759.13,9439.65,336.897,-21.2763,-27.3769,-57.1,-4379.15,-22957.7,-4102.47,-89.5345,27.5169,-318.009,-767.145,8907.82,-996.173,-7.52027,-34.9575,-54.2202,-2500.1,7264.47,5937.78,-21.1828,55.34,3.48657,7572.56,673.257,79.5207,-34.4226,2.5723,4.76799
3.282,6210.42,2280.94,6789.54,-5.75715,-82.7207,-2.80354,19929.2,-1651.21,14159.5,91.5514,255.763,-128.788,-1780.89,9438.44,360.934,-21.3904,-27.0756,-57.2971,-4487.32,-22957.2,-4020.43,-89.5328,29.5158,-316.969,-731.267,8917.79,-1007.87,-7.47146,-35.2902,-54.2796,-2702.94,7301.68,5804.32,-19.9105,54.602,3.86002,7565.53,669.717,71.4425,-34.0295,2.36103,4.76645
3.2825,6211.52,2351.63,6761.71,-5.83679,-82.7504,-2.87483,20020.4,-2184.67,14007.2,92.967,254.534,-130.823,-1802.66,9437.23,384.972,-21.5044,-26.7744,-57.4942,-4595.49,-22956.7,-3938.38,-89.5311,31.5146,-315.928,-695.389,8927.77,-1019.57,-7.42264,-35.623,-54.339,-2905.79,7338.88,5670.85,-18.6382,53.864,4.23346,7558.5,666.177,63.3642,-33.6364,2.14976,4.7649
3.283,6212.62,2422.32,6733.88,-5.91642,-82.7801,-2.94612,20111.5,-2718.12,13854.9,94.3826,253.306,-132.858,-1824.43,9436.01,409.009,-21.6185,-26.4732,-57.6912,-4703.67,-22956.1,-3856.34,-89.5294,33.5135,-314.888,-659.511,8937.74,-1031.27,-7.37383,-35.9558,-54.3984,-3108.63,7376.09,5537.39,-17.3659,53.126,4.60691,7551.46,662.637,55.286,-33.2432,1.93849,4.76335
3.2835,6213.72,2493.02,6706.05,-5.99606,-82.8097,-3.01741,20202.7,-3251.57,13702.6,95.7981,252.077,-134.894,-1846.2,9434.8,433.047,-21.7325,-26.172,-57.8883,-4811.84,-22955.6,-3774.3,-89.5277,35.5124,-313.848,-623.633,8947.71,-1042.97,-7.32502,-36.2885,-54.4578,-3311.48,7413.3,5403.92,-16.0936,52.3881,4.98035,7544.43,659.097,47.2077,-32.8501,1.72722,4.76181
3.284,6214.82,2563.71,6678.22,-6.0757,-82.8394,-3.0887,20293.9,-3785.02,13550.3,97.2137,250.849,-136.929,-1867.97,9433.58,457.084,-21.8466,-25.8707,-58.0854,-4920.02,-22955.1,-3692.26,-89.526,37.5112,-312.807,-587.755,8957.68,-1054.66,-7.27621,-36.6213,-54.5172,-3514.32,7450.51,5270.46,-14.8213,51.6501,5.3538,7537.4,655.557,39.1295,-32.4569,1.51595,4.76026
3.2845,6218.48,2631.91,6653.61,-6.13054,-82.8532,-3.13105,20390.3,-4247.51,13391.5,98.498,249.608,-138.67,-1887.88,9435.92,481.917,-21.9491,-25.5934,-58.2765,-5024.82,-22959.6,-3576.36,-89.3547,39.4347,-311.742,-552.932,8967.42,-1063.52,-7.23804,-36.9494,-54.5765,-3712.91,7485.64,5117.25,-13.4445,51.0748,5.66329,7531.73,651.684,29.7317,-32.0539,1.30218,4.74422
3.285,6242.67,2680.16,6654.76,-5.98703,-82.7402,-2.9419,20528.9,-4142.33,13181.3,98.7319,248.272,-138.061,-1892.92,9466.67,513.105,-21.959,-25.5069,-58.4198,-5102.63,-23004.3,-3189.58,-87.8271,40.7553,-310.478,-526.551,8975.32,-1049.64,-7.28508,-37.2403,-54.6342,-3877.47,7504.15,4806.08,-11.2315,51.8013,5.46118,7537.0,645.153,9.77769,-31.5723,1.06849,4.61217
3.2855,6266.85,2728.41,6655.9,-5.84353,-82.6272,-2.75274,20667.4,-4037.15,12971.0,98.9658,246.936,-137.451,-1897.97,9497.42,544.294,-21.9688,-25.4205,-58.563,-5180.45,-23049.0,-2802.81,-86.2995,42.0759,-309.214,-500.169,8983.22,-1035.76,-7.33211,-37.5312,-54.6919,-4042.03,7522.65,4494.9,-9.01861,52.5278,5.25907,7542.27,638.621,-10.1764,-31.0906,0.834793,4.48013
3.286,6291.04,2776.67,6657.04,-5.70002,-82.5142,-2.56359,20805.9,-3931.97,12760.7,99.1997,245.599,-136.842,-1903.01,9528.17,575.482,-21.9787,-25.334,-58.7063,-5258.26,-23093.7,-2416.04,-84.7719,43.3965,-307.95,-473.788,8991.12,-1021.88,-7.37915,-37.822,-54.7496,-4206.59,7541.16,4183.73,-6.80567,53.2544,5.05695,7547.54,632.089,-30.1304,-30.609,0.601097,4.34808
3.2865,6315.22,2824.92,6658.19,-5.55651,-82.4011,-2.37444,20944.5,-3826.79,12550.4,99.4336,244.263,-136.232,-1908.05,9558.92,606.671,-21.9886,-25.2476,-58.8495,-5336.07,-23138.4,-2029.26,-83.2443,44.7172,-306.686,-447.407,8999.03,-1008.0,-7.42618,-38.1129,-54.8074,-4371.15,7559.67,3872.56,-4.59274,53.9809,4.85484,7552.81,625.558,-50.0844,-30.1273,0.367402,4.21604
3.287,6339.4,2873.17,6659.33,-5.413,-82.2881,-2.18529,21083.0,-3721.61,12340.2,99.6675,242.926,-135.622,-1913.09,9589.67,637.86,-21.9985,-25.1612,-58.9928,-5413.89,-23183.1,-1642.49,-81.7167,46.0378,-305.422,-421.026,9006.93,-994.117,-7.47321,-38.4038,-54.8651,-4535.71,7578.17,3561.39,-2.37981,54.7074,4.65273,7558.07,619.026,-70.0385,-29.6456,0.133706,4.08399
3.2875,6363.59,2921.42,6660.48,-5.26949,-82.1751,-1.99614,21221.6,-3616.42,12129.9,99.9015,241.59,-135.013,-1918.14,9620.43,669.048,-22.0083,-25.0747,-59.136,-5491.7,-23227.8,-1255.72,-80.1891,47.3584,-304.158,-394.645,9014.83,-980.236,-7.52025,-38.6947,-54.9228,-4700.27,7596.68,3250.22,-0.16687,55.4339,4.45061,7563.34,612.495,-89.9925,-29.164,-0.099989,3.95195
3.288,6387.77,2969.68,6661.62,-5.12599,-82.062,-1.80699,21360.1,-3511.24,11919.6,100.135,240.254,-134.403,-1923.18,9651.18,700.237,-22.0182,-24.9883,-59.2793,-5569.51,-23272.6,-868.944,-78.6615,48.679,-302.894,-368.264,9022.73,-966.355,-7.56728,-38.9855,-54.9805,-4864.83,7615.19,2939.05,2.04606,56.1604,4.2485,7568.61,605.963,-109.947,-28.6823,-0.333684,3.8199
3.2885,6411.95,3017.93,6662.77,-4.98248,-81.949,-1.61784,21498.7,-3406.06,11709.3,100.369,238.917,-133.794,-1928.22,9681.93,731.425,-22.0281,-24.9018,-59.4225,-5647.33,-23317.3,-482.171,-77.1339,49.9996,-301.629,-341.883,9030.63,-952.474,-7.61431,-39.2764,-55.0383,-5029.39,7633.7,2627.88,4.259,56.887,4.04639,7573.88,599.432,-129.901,-28.2007,-0.56738,3.68786
3.289,6436.62,3047.82,6668.49,-4.83266,-81.8547,-1.3811,21595.6,-3233.03,11531.1,100.816,237.369,-133.259,-1931.99,9708.3,758.351,-22.0844,-24.8344,-59.5633,-5729.63,-23357.1,-131.72,-75.7425,51.2998,-300.329,-313.821,9036.69,-946.881,-7.67274,-39.5463,-55.0813,-5188.36,7645.65,2283.29,6.78404,57.8328,3.74794,7580.26,597.168,-147.305,-27.7453,-0.786638,3.56984
3.2895,6462.97,3013.47,6690.23,-4.66077,-81.8256,-0.977811,21546.8,-2822.54,11465.3,102.006,235.079,-132.988,-1931.3,9719.34,770.358,-22.3031,-24.8337,-59.6953,-5827.67,-23379.8,91.6017,-74.8279,52.5288,-298.901,-279.879,9036.28,-970.294,-7.77105,-39.743,-55.0727,-5327.81,7634.65,1821.77,10.4014,59.5462,3.11231,7590.53,609.844,-155.786,-27.3818,-0.955365,3.50093
3.29,6489.32,2979.11,6711.98,-4.48889,-81.7966,-0.574519,21498.1,-2412.04,11399.4,103.196,232.79,-132.717,-1930.61,9730.37,782.364,-22.5218,-24.833,-59.8274,-5925.71,-23402.5,314.924,-73.9133,53.7579,-297.473,-245.937,9035.87,-993.706,-7.86935,-39.9397,-55.0641,-5467.25,7623.65,1360.25,14.0188,61.2596,2.47668,7600.79,622.519,-164.268,-27.0182,-1.12409,3.43201
3.2905,6515.67,2944.75,6733.72,-4.317,-81.7675,-0.171226,21449.3,-2001.55,11333.5,104.387,230.5,-132.446,-1929.92,9741.41,794.371,-22.7405,-24.8323,-59.9594,-6023.75,-23425.2,538.246,-72.9987,54.9869,-296.045,-211.995,9035.46,-1017.12,-7.96765,-40.1363,-55.0556,-5606.69,7612.66,898.722,17.6362,62.973,1.84105,7611.06,635.195,-172.749,-26.6547,-1.29282,3.3631
3.291,6542.02,2910.39,6755.47,-4.14511,-81.7385,0.232066,21400.5,-1591.05,11267.6,105.577,228.21,-132.175,-1929.23,9752.45,806.377,-22.9592,-24.8316,-60.0914,-6121.79,-23447.9,761.568,-72.0842,56.2159,-294.617,-178.052,9035.04,-1040.53,-8.06596,-40.333,-55.047,-5746.14,7601.66,437.198,21.2536,64.6864,1.20543,7621.32,647.87,-181.23,-26.2912,-1.46155,3.29418
3.2915,6568.37,2876.03,6777.21,-3.97322,-81.7094,0.635358,21351.8,-1180.56,11201.7,106.767,225.921,-131.904,-1928.54,9763.49,818.384,-23.1779,-24.8309,-60.2235,-6219.82,-23470.6,984.89,-71.1696,57.4449,-293.189,-144.11,9034.63,-1063.94,-8.16426,-40.5296,-55.0385,-5885.58,7590.67,-24.3263,24.871,66.3998,0.569797,7631.59,660.546,-189.712,-25.9277,-1.63027,3.22526
3.292,6594.72,2841.68,6798.96,-3.80133,-81.6804,1.03865,21303.0,-770.064,11135.8,107.958,223.631,-131.633,-1927.85,9774.52,830.39,-23.3966,-24.8302,-60.3555,-6317.86,-23493.3,1208.21,-70.255,58.6739,-291.761,-110.168,9034.22,-1087.36,-8.26256,-40.7263,-55.0299,-6025.03,7579.67,-485.85,28.4884,68.1132,-0.0658319,7641.85,673.221,-198.193,-25.5642,-1.799,3.15635
3.2925,6621.07,2807.32,6820.7,-3.62944,-81.6513,1.44194,21254.2,-359.57,11069.9,109.148,221.342,-131.362,-1927.16,9785.56,842.397,-23.6153,-24.8295,-60.4875,-6415.9,-23516.1,1431.53,-69.3404,59.9029,-290.333,-76.2256,9033.81,-1110.77,-8.36087,-40.9229,-55.0213,-6164.47,7568.67,-947.375,32.1058,69.8266,-0.70146,7652.12,685.897,-206.674,-25.2007,-1.96773,3.08743
3.293,6647.42,2772.96,6842.45,-3.45755,-81.6223,1.84523,21205.5,50.9253,11004.0,110.338,219.052,-131.091,-1926.47,9796.6,854.403,-23.834,-24.8288,-60.6196,-6513.94,-23538.8,1654.86,-68.4258,61.1319,-288.906,-42.2834,9033.4,-1134.18,-8.45917,-41.1196,-55.0128,-6303.91,7557.68,-1408.9,35.7232,71.54,-1.33709,7662.39,698.573,-215.156,-24.8372,-2.13645,3.01852
3.2935,6666.52,2735.63,6858.88,-3.31401,-81.6037,2.21593,21106.9,261.177,10985.0,111.995,216.493,-131.876,-1921.76,9809.25,865.983,-24.0303,-24.8368,-60.7599,-6605.73,-23541.9,1801.44,-67.8631,62.4415,-287.503,-12.7716,9031.66,-1159.22,-8.53975,-41.3048,-55.008,-6433.28,7576.48,-1895.47,39.589,73.5011,-1.8833,7671.17,717.433,-211.688,-24.4099,-2.31255,2.91711
3.294,6671.13,2692.35,6864.67,-3.22714,-81.6062,2.52141,20908.8,70.9425,11059.9,114.585,213.397,-134.773,-1909.03,9825.14,876.709,-24.1815,-24.8623,-60.9166,-6685.05,-23505.8,1794.54,-68.0043,63.9124,-286.152,7.8791,9027.27,-1187.51,-8.58488,-41.4672,-55.0107,-6542.51,7654.9,-2432.13,43.9515,75.9575,-2.25069,7677.0,748.664,-184.323,-23.8552,-2.50337,2.7507
3.2945,6675.74,2649.07,6870.45,-3.14028,-81.6086,2.8269,20710.8,-119.292,11134.9,117.175,210.301,-137.67,-1896.29,9841.02,887.435,-24.3327,-24.8878,-61.0734,-6764.36,-23469.7,1787.65,-68.1455,65.3832,-284.801,28.5298,9022.87,-1215.79,-8.63,-41.6296,-55.0134,-6651.74,7733.31,-2968.8,48.314,78.4139,-2.61807,7682.83,779.894,-156.958,-23.3004,-2.6942,2.5843
3.295,6680.35,2605.79,6876.24,-3.05342,-81.6111,3.13239,20512.7,-309.526,11209.8,119.764,207.204,-140.567,-1883.55,9856.9,898.161,-24.484,-24.9133,-61.2302,-6843.67,-23433.7,1780.75,-68.2867,66.8541,-283.45,49.1806,9018.48,-1244.08,-8.67513,-41.792,-55.0161,-6760.97,7811.72,-3505.46,52.6766,80.8703,-2.98545,7688.66,811.125,-129.593,-22.7457,-2.88502,2.4179
3.2955,6684.96,2562.52,6882.03,-2.96656,-81.6135,3.43788,20314.6,-499.761,11284.7,122.354,204.108,-143.464,-1870.82,9872.79,908.887,-24.6352,-24.9388,-61.3869,-6922.99,-23397.6,1773.85,-68.4279,68.325,-282.099,69.8313,9014.08,-1272.36,-8.72026,-41.9544,-55.0188,-6870.19,7890.14,-4042.13,57.0391,83.3267,-3.35284,7694.49,842.356,-102.228,-22.1909,-3.07585,2.2515
3.296,6689.57,2519.24,6887.82,-2.87969,-81.616,3.74336,20116.5,-689.995,11359.6,124.944,201.011,-146.361,-1858.08,9888.67,919.614,-24.7865,-24.9643,-61.5437,-7002.3,-23361.5,1766.96,-68.5691,69.7958,-280.748,90.4821,9009.69,-1300.65,-8.76539,-42.1168,-55.0216,-6979.42,7968.55,-4578.79,61.4017,85.7831,-3.72022,7700.33,873.587,-74.8628,-21.6362,-3.26667,2.08509
3.2965,6694.18,2475.96,6893.61,-2.79283,-81.6185,4.04885,19918.4,-880.23,11434.5,127.533,197.915,-149.258,-1845.35,9904.55,930.34,-24.9377,-24.9898,-61.7005,-7081.61,-23325.4,1760.06,-68.7103,71.2667,-279.396,111.133,9005.29,-1328.94,-8.81051,-42.2792,-55.0243,-7088.65,8046.96,-5115.46,65.7642,88.2395,-4.0876,7706.16,904.817,-47.4977,-21.0814,-3.4575,1.91869
3.297,6698.79,2432.68,6899.4,-2.70597,-81.6209,4.35434,19720.4,-1070.46,11509.4,130.123,194.818,-152.155,-1832.61,9920.44,941.066,-25.0889,-25.0153,-61.8572,-7160.92,-23289.4,1753.17,-68.8515,72.7376,-278.045,131.784,9000.9,-1357.22,-8.85564,-42.4416,-55.027,-7197.88,8125.38,-5652.12,70.1267,90.6959,-4.45499,7711.99,936.048,-20.1327,-20.5267,-3.64833,1.75229
3.2975,6703.4,2389.4,6905.19,-2.61911,-81.6234,4.65983,19522.3,-1260.7,11584.3,132.713,191.722,-155.052,-1819.87,9936.32,951.792,-25.2402,-25.0408,-62.014,-7240.24,-23253.3,1746.27,-68.9927,74.2084,-276.694,152.434,8996.5,-1385.51,-8.90077,-42.604,-55.0297,-7307.1,8203.79,-6188.79,74.4893,93.1523,-4.82237,7717.82,967.279,7.23239,-19.9719,-3.83915,1.58589
3.298,6696.13,2358.03,6909.2,-2.58602,-81.6713,4.90793,19309.5,-1781.23,11591.5,135.998,188.608,-158.512,-1809.56,9948.29,958.008,-25.3442,-24.9893,-62.1164,-7321.54,-23217.4,1796.76,-68.5231,75.8922,-275.491,175.599,8990.65,-1402.78,-8.99658,-42.7281,-55.0422,-7368.79,8288.95,-6646.38,78.4658,95.3908,-5.1753,7723.63,1007.7,44.1287,-19.2722,-3.94322,1.36617
3.2985,6674.0,2341.54,6910.99,-2.62016,-81.7762,5.08431,19078.4,-2714.64,11514.1,140.154,185.474,-162.678,-1802.26,9955.35,958.585,-25.3892,-24.8416,-62.1509,-7405.32,-23181.7,1918.99,-67.2901,77.8421,-274.471,201.906,8982.97,-1406.29,-9.15576,-42.8043,-55.0669,-7371.03,8382.54,-7005.14,81.9597,97.3569,-5.51015,7729.42,1059.6,92.939,-18.3912,-3.93884,1.07983
3.299,6651.86,2325.06,6912.77,-2.6543,-81.8811,5.26069,18847.2,-3648.05,11436.6,144.309,182.339,-166.843,-1794.97,9962.42,959.163,-25.4341,-24.6939,-62.1854,-7489.1,-23146.0,2041.21,-66.0571,79.7919,-273.452,228.213,8975.28,-1409.79,-9.31493,-42.8805,-55.0916,-7373.28,8476.13,-7363.89,85.4537,99.323,-5.845,7735.21,1111.51,141.749,-17.5103,-3.93446,0.793478
3.2995,6629.73,2308.57,6914.56,-2.68843,-81.9859,5.43707,18616.0,-4581.46,11359.2,148.465,179.205,-171.009,-1787.68,9969.49,959.741,-25.4791,-24.5462,-62.2198,-7572.89,-23110.3,2163.44,-64.8241,81.7418,-272.432,254.52,8967.6,-1413.3,-9.4741,-42.9567,-55.1164,-7375.53,8569.71,-7722.65,88.9476,101.289,-6.17985,7741.0,1163.41,190.56,-16.6293,-3.93008,0.507131
3.3,6607.6,2292.08,6916.35,-2.72257,-82.0907,5.61344,18384.9,-5514.87,11281.8,152.621,176.07,-175.174,-1780.39,9976.56,960.318,-25.5241,-24.3985,-62.2543,-7656.67,-23074.6,2285.66,-63.5911,83.6917,-271.413,280.827,8959.92,-1416.8,-9.63328,-43.0329,-55.1411,-7377.78,8663.3,-8081.41,92.4416,103.255,-6.5147,7746.79,1215.32,239.37,-15.7484,-3.9257,0.220783
3.3005,6585.46,2275.59,6918.13,-2.75671,-82.1956,5.78982,18153.7,-6448.28,11204.3,156.776,172.936,-179.34,-1773.09,9983.63,960.896,-25.569,-24.2508,-62.2888,-7740.45,-23038.9,2407.89,-62.3581,85.6415,-270.394,307.134,8952.24,-1420.31,-9.79245,-43.1091,-55.1658,-7380.03,8756.89,-8440.17,95.9355,105.221,-6.84956,7752.58,1267.22,288.18,-14.8674,-3.92133,-0.0655641
3.301,6563.33,2259.1,6919.92,-2.79085,-82.3005,5.9662,17922.6,-7381.69,11126.9,160.932,169.801,-183.505,-1765.8,9990.69,961.474,-25.614,-24.1031,-62.3233,-7824.24,-23003.3,2530.11,-61.1251,87.5914,-269.374,333.44,8944.55,-1423.81,-9.95162,-43.1853,-55.1905,-7382.28,8850.48,-8798.92,99.4295,107.187,-7.18441,7758.36,1319.13,336.991,-13.9865,-3.91695,-0.351912
3.3015,6541.2,2242.62,6921.7,-2.82498,-82.4053,6.14258,17691.4,-8315.1,11049.5,165.088,166.667,-187.671,-1758.51,9997.76,962.051,-25.659,-23.9554,-62.3577,-7908.02,-22967.6,2652.34,-59.8921,89.5413,-268.355,359.747,8936.87,-1427.32,-10.1108,-43.2615,-55.2152,-7384.53,8944.07,-9157.68,102.923,109.154,-7.51926,7764.15,1371.04,385.801,-13.1055,-3.91257,-0.638259
3.302,6519.07,2226.13,6923.49,-2.85912,-82.5102,6.31896,17460.3,-9248.51,10972.0,169.243,163.532,-191.836,-1751.22,10004.8,962.629,-25.7039,-23.8077,-62.3922,-7991.8,-22931.9,2774.57,-58.6591,91.4912,-267.336,386.054,8929.19,-1430.83,-10.27,-43.3377,-55.2399,-7386.78,9037.65,-9516.44,106.417,111.12,-7.85411,7769.94,1422.94,434.611,-12.2246,-3.90819,-0.924607
3.3025,6497.76,2228.95,6927.56,-2.85315,-82.6099,6.50795,17297.8,-10011.2,10765.4,171.712,160.926,-194.28,-1731.05,10001.9,966.737,-25.7856,-23.6212,-62.5179,-8108.96,-22882.3,2975.1,-57.2236,93.314,-266.107,410.79,8927.51,-1455.58,-10.3708,-43.3696,-55.2563,-7301.88,9144.96,-9770.63,108.871,112.814,-7.97935,7789.0,1477.61,484.395,-11.3327,-3.6222,-1.19813
3.303,6477.11,2247.22,6933.46,-2.81508,-82.7056,6.70703,17190.4,-10637.3,10455.4,172.832,158.743,-195.345,-1700.58,9990.94,973.668,-25.8965,-23.4036,-62.7166,-8252.81,-22821.5,3238.27,-55.626,95.0351,-264.711,434.268,8930.65,-1497.35,-10.4251,-43.366,-55.2661,-7147.27,9263.24,-9941.18,110.493,114.292,-7.93691,7818.66,1534.5,534.958,-10.4322,-3.11092,-1.4614
3.3035,6456.46,2265.49,6939.36,-2.77702,-82.8012,6.90612,17083.0,-11263.3,10145.3,173.952,156.56,-196.411,-1670.11,9979.99,980.6,-26.0075,-23.186,-62.9154,-8396.67,-22760.8,3501.45,-54.0285,96.7563,-263.315,457.746,8933.78,-1539.11,-10.4793,-43.3624,-55.2758,-6992.66,9381.52,-10111.7,112.115,115.769,-7.89446,7848.32,1591.39,585.52,-9.53174,-2.59965,-1.72468
3.304,6435.81,2283.76,6945.25,-2.73895,-82.8969,7.1052,16975.5,-11889.4,9835.34,175.071,154.378,-197.476,-1639.64,9969.04,987.532,-26.1185,-22.9684,-63.1141,-8540.53,-22700.0,3764.63,-52.431,98.4774,-261.918,481.224,8936.91,-1580.87,-10.5335,-43.3588,-55.2855,-6838.05,9499.8,-10282.3,113.737,117.246,-7.85201,7877.99,1648.28,636.083,-8.63123,-2.08837,-1.98795
3.3045,6415.16,2302.02,6951.15,-2.70089,-82.9925,7.30428,16868.1,-12515.5,9525.32,176.191,152.195,-198.542,-1609.16,9958.09,994.464,-26.2295,-22.7508,-63.3128,-8684.38,-22639.3,4027.8,-50.8334,100.199,-260.522,504.702,8940.04,-1622.63,-10.5877,-43.3553,-55.2952,-6683.44,9618.08,-10452.8,115.359,118.724,-7.80957,7907.65,1705.17,686.645,-7.73073,-1.57709,-2.25122
3.305,6394.51,2320.29,6957.05,-2.66283,-83.0882,7.50336,16760.6,-13141.6,9215.31,177.31,150.012,-199.607,-1578.69,9947.14,1001.4,-26.3404,-22.5332,-63.5115,-8828.24,-22578.5,4290.98,-49.2359,101.92,-259.126,528.18,8943.17,-1664.39,-10.6419,-43.3517,-55.305,-6528.83,9736.36,-10623.4,116.981,120.201,-7.76712,7937.31,1762.06,737.208,-6.83023,-1.06581,-2.51449
3.3055,6373.86,2338.56,6962.95,-2.62476,-83.1838,7.70245,16653.2,-13767.6,8905.3,178.43,147.829,-200.672,-1548.22,9936.19,1008.33,-26.4514,-22.3156,-63.7102,-8972.09,-22517.7,4554.16,-47.6384,103.641,-257.73,551.658,8946.3,-1706.15,-10.6962,-43.3481,-55.3147,-6374.22,9854.63,-10793.9,118.603,121.679,-7.72468,7966.98,1818.95,787.77,-5.92972,-0.554537,-2.77776
3.306,6353.21,2356.83,6968.84,-2.5867,-83.2795,7.90153,16545.8,-14393.7,8595.29,179.55,145.646,-201.738,-1517.75,9925.24,1015.26,-26.5624,-22.098,-63.9089,-9115.95,-22457.0,4817.33,-46.0408,105.362,-256.334,575.136,8949.44,-1747.91,-10.7504,-43.3445,-55.3244,-6219.61,9972.92,-10964.4,120.225,123.156,-7.68223,7996.64,1875.84,838.333,-5.02922,-0.0432593,-3.04103
3.3065,6332.56,2375.1,6974.74,-2.54863,-83.3752,8.10061,16438.3,-15019.8,8285.28,180.669,143.463,-202.803,-1487.28,9914.29,1022.19,-26.6733,-21.8804,-64.1076,-9259.81,-22396.2,5080.51,-44.4433,107.083,-254.937,598.615,8952.57,-1789.67,-10.8046,-43.3409,-55.3341,-6065.0,10091.2,-11135.0,121.847,124.633,-7.63978,8026.3,1932.72,888.895,-4.12872,0.468018,-3.3043
3.307,6331.06,2394.98,6979.45,-2.37804,-83.4614,8.35904,16433.6,-14983.0,8136.54,183.179,141.02,-201.819,-1461.71,9920.13,1020.16,-26.7762,-21.5009,-64.3947,-9409.31,-22347.4,5325.03,-43.4196,107.82,-253.559,627.349,8961.3,-1826.34,-10.8821,-43.2499,-55.3702,-5911.93,10244.4,-11274.2,123.089,126.989,-6.6925,8055.32,1986.69,948.813,-3.30542,1.24317,-3.56336
3.3075,6339.15,2415.66,6983.57,-2.14118,-83.5429,8.64714,16480.3,-14614.8,8068.45,186.384,138.446,-199.811,-1438.59,9934.35,1013.65,-26.875,-21.0403,-64.726,-9561.64,-22304.5,5560.22,-42.6827,108.064,-252.189,658.712,8972.84,-1860.45,-10.9711,-43.1151,-55.4195,-5759.62,10415.1,-11397.8,124.141,129.783,-5.2928,8084.01,2039.21,1013.41,-2.52072,2.15027,-3.82033
3.308,6347.24,2436.34,6987.69,-1.90432,-83.6244,8.93524,16527.0,-14246.6,8000.35,189.589,135.872,-197.802,-1415.46,9948.58,1007.15,-26.9739,-20.5798,-65.0573,-9713.97,-22261.6,5795.4,-41.9459,108.307,-250.82,690.074,8984.37,-1894.56,-11.0602,-42.9802,-55.4687,-5607.32,10585.9,-11521.3,125.194,132.578,-3.89311,8112.7,2091.72,1078.0,-1.73602,3.05736,-4.07729
3.3085,6355.33,2457.02,6991.81,-1.66746,-83.706,9.22334,16573.7,-13878.4,7932.25,192.793,133.298,-195.794,-1392.34,9962.81,1000.64,-27.0727,-20.1193,-65.3886,-9866.3,-22218.6,6030.59,-41.209,108.551,-249.45,721.437,8995.91,-1928.68,-11.1492,-42.8454,-55.518,-5455.02,10756.6,-11644.9,126.246,135.372,-2.49341,8141.39,2144.23,1142.6,-0.951326,3.96445,-4.33425
3.309,6363.41,2477.71,6995.93,-1.4306,-83.7875,9.51144,16620.4,-13510.2,7864.16,195.998,130.724,-193.785,-1369.22,9977.04,994.129,-27.1715,-19.6587,-65.7199,-10018.6,-22175.7,6265.78,-40.4722,108.795,-248.08,752.799,9007.44,-1962.79,-11.2383,-42.7106,-55.5673,-5302.72,10927.3,-11768.5,127.298,138.166,-1.09371,8170.08,2196.74,1207.2,-0.16663,4.87154,-4.59121
3.3095,6371.5,2498.39,7000.05,-1.19375,-83.869,9.79954,16667.1,-13142.0,7796.06,199.203,128.15,-191.777,-1346.1,9991.27,987.621,-27.2704,-19.1982,-66.0512,-10171.0,-22132.8,6500.96,-39.7354,109.039,-246.711,784.162,9018.98,-1996.91,-11.3273,-42.5758,-55.6165,-5150.42,11098.0,-11892.0,128.35,140.961,0.30599,8198.77,2249.25,1271.79,0.618067,5.77864,-4.84817
3.31,6379.59,2519.07,7004.17,-0.956887,-83.9505,10.0876,16713.8,-12773.7,7727.96,202.408,125.576,-189.768,-1322.97,10005.5,981.112,-27.3692,-18.7377,-66.3824,-10323.3,-22089.9,6736.15,-38.9985,109.283,-245.341,815.525,9030.51,-2031.02,-11.4164,-42.441,-55.6658,-4998.12,11268.7,-12015.6,129.402,143.755,1.70569,8227.46,2301.76,1336.39,1.40276,6.68573,-5.10513
3.3105,6387.68,2539.75,7008.29,-0.720029,-84.0321,10.3757,16760.5,-12405.5,7659.87,205.612,123.002,-187.76,-1299.85,10019.7,974.604,-27.468,-18.2771,-66.7137,-10475.6,-22047.0,6971.34,-38.2617,109.527,-243.972,846.887,9042.05,-2065.14,-11.5054,-42.3061,-55.7151,-4845.82,11439.4,-12139.1,130.454,146.55,3.10539,8256.15,2354.27,1400.98,2.18746,7.59282,-5.36209
3.311,6395.76,2560.44,7012.42,-0.48317,-84.1136,10.6638,16807.2,-12037.3,7591.77,208.817,120.429,-185.751,-1276.73,10034.0,968.095,-27.5668,-17.8166,-67.045,-10627.9,-22004.1,7206.52,-37.5248,109.771,-242.602,878.25,9053.58,-2099.25,-11.5945,-42.1713,-55.7643,-4693.52,11610.2,-12262.7,131.507,149.344,4.50509,8284.84,2406.79,1465.58,2.97216,8.49992,-5.61905
3.3115,6409.2,2557.07,7020.26,-0.202326,-84.2337,11.0019,16854.8,-11800.5,7451.37,211.619,118.397,-184.899,-1261.76,10055.0,969.069,-27.6898,-17.2449,-67.2364,-10784.8,-21983.0,7297.32,-36.706,108.913,-241.359,922.502,9055.43,-2136.98,-11.6802,-41.9849,-55.8754,-4631.33,11731.2,-12269.2,131.84,152.675,6.78318,8308.2,2434.0,1525.9,3.47566,9.48581,-5.76681
3.312,6424.17,2546.84,7029.16,0.0910865,-84.3648,11.3543,16902.7,-11601.3,7290.31,214.306,116.521,-184.376,-1249.13,10078.0,972.181,-27.8197,-16.6415,-67.3878,-10942.9,-21968.1,7346.85,-35.8637,107.739,-240.152,970.437,9054.5,-2175.75,-11.7649,-41.7837,-56.004,-4594.88,11838.1,-12242.3,131.969,156.16,9.31224,8330.03,2453.99,1585.0,3.89881,10.4942,-5.88337
3.3125,6439.14,2536.61,7038.07,0.384499,-84.4959,11.7066,16950.5,-11402.1,7129.26,216.993,114.646,-183.854,-1236.49,10101.0,975.293,-27.9496,-16.0381,-67.5392,-11101.0,-21953.2,7396.39,-35.0213,106.565,-238.945,1018.37,9053.58,-2214.51,-11.8496,-41.5825,-56.1327,-4558.44,11945.0,-12215.4,132.097,159.644,11.8413,8351.85,2473.97,1644.1,4.32197,11.5026,-5.99992
3.313,6454.11,2526.37,7046.97,0.677911,-84.6271,12.059,16998.4,-11202.8,6968.2,219.679,112.77,-183.331,-1223.86,10124.0,978.405,-28.0795,-15.4347,-67.6906,-11259.1,-21938.4,7445.93,-34.179,105.392,-237.738,1066.31,9052.66,-2253.28,-11.9343,-41.3814,-56.2614,-4522.0,12051.9,-12188.5,132.226,163.129,14.3704,8373.68,2493.96,1703.21,4.74512,12.511,-6.11648
3.3135,6469.09,2516.14,7055.88,0.971323,-84.7582,12.4113,17046.3,-11003.6,6807.14,222.366,110.894,-182.809,-1211.22,10147.1,981.517,-28.2094,-14.8313,-67.842,-11417.3,-21923.5,7495.46,-33.3367,104.218,-236.53,1114.24,9051.73,-2292.04,-12.019,-41.1802,-56.3901,-4485.55,12158.8,-12161.6,132.354,166.613,16.8994,8395.51,2513.94,1762.31,5.16828,13.5194,-6.23303
3.314,6484.06,2505.9,7064.78,1.26473,-84.8893,12.7637,17094.2,-10804.4,6646.09,225.053,109.018,-182.287,-1198.59,10170.1,984.629,-28.3393,-14.2279,-67.9934,-11575.4,-21908.6,7545.0,-32.4944,103.045,-235.323,1162.18,9050.81,-2330.81,-12.1037,-40.979,-56.5187,-4449.11,12265.7,-12134.7,132.483,170.098,19.4285,8417.34,2533.93,1821.41,5.59143,14.5279,-6.34959
