Time,RFoot_accel.x,RFoot_accel.y,RFoot_accel.z,RFoot_gyro.x,RFoot_gyro.y,RFoot_gyro.z,LFoot_accel.x,LFoot_accel.y,LFoot_accel.z,LFoot_gyro.x,LFoot_gyro.y,LFoot_gyro.z,RShank_accel.x,RShank_accel.y,RShank_accel.z,RShank_gyro.x,RShank_gyro.y,RShank_gyro.z,LShank_accel.x,LShank_accel.y,LShank_accel.z,LShank_gyro.x,LShank_gyro.y,LShank_gyro.z,RThigh_accel.x,RThigh_accel.y,RThigh_accel.z,RThigh_gyro.x,RThigh_gyro.y,RThigh_gyro.z,LThigh_accel.x,LThigh_accel.y,LThigh_accel.z,LThigh_gyro.x,LThigh_gyro.y,LThigh_gyro.z,Pelvis_accel.x,Pelvis_accel.y,Pelvis_accel.z,Pelvis_gyro.x,Pelvis_gyro.y,Pelvis_gyro.z
3.79,4279.14,2027.9,9347.07,-9.47839,-50.8903,-38.7407,5747.36,-4050.65,14345.4,124.326,333.062,-104.596,-1498.06,11363.8,-898.3,-18.882,-71.071,-35.4272,119.448,-13917.4,2564.3,-121.528,141.536,-338.42,-965.57,10641.5,-2730.1,-12.9764,-69.267,-66.3566,8128.98,4490.24,-3824.06,-13.2441,-202.396,-131.968,9618.09,1168.55,1566.57,10.3387,18.163,0.998221
3.7905,4238.47,2043.11,9334.67,-9.32254,-51.2011,-38.6346,5816.7,-4059.86,14402.9,124.866,333.161,-104.689,-1511.19,11377.5,-848.612,-19.0066,-71.465,-35.3185,46.6683,-14005.6,2631.46,-121.032,140.474,-339.367,-946.397,10611.0,-2721.89,-12.9463,-69.6476,-66.4041,8152.82,4392.32,-4042.99,-9.64427,-197.486,-131.627,9649.56,1181.8,1571.98,10.209,18.0329,1.12662
3.791,4197.81,2058.31,9322.26,-9.16668,-51.512,-38.5284,5886.03,-4069.08,14460.3,125.407,333.26,-104.781,-1524.32,11391.1,-798.923,-19.1312,-71.8589,-35.2098,-26.1115,-14093.9,2698.62,-120.536,139.413,-340.314,-927.224,10580.4,-2713.68,-12.9161,-70.0283,-66.4516,8176.66,4294.41,-4261.91,-6.04448,-192.576,-131.287,9681.03,1195.06,1577.38,10.0793,17.9029,1.25502
3.7915,4157.72,2082.05,9317.51,-8.9886,-51.7112,-38.3534,5943.1,-4035.26,14522.3,125.767,333.274,-104.952,-1517.44,11400.6,-754.592,-19.2719,-72.1475,-35.0143,-118.312,-14168.4,2775.6,-120.087,138.001,-341.202,-898.699,10562.7,-2712.51,-12.7984,-70.1791,-66.5109,8206.65,4381.82,-4407.66,-4.55201,-186.839,-130.779,9702.52,1205.38,1580.83,10.1496,17.7207,1.21475
3.792,4117.8,2108.23,9314.95,-8.80416,-51.8786,-38.1588,5996.66,-3989.15,14585.6,126.075,333.264,-105.146,-1504.85,11408.8,-711.793,-19.4172,-72.406,-34.794,-216.061,-14239.0,2855.39,-119.653,136.49,-342.072,-867.502,10548.7,-2713.35,-12.6556,-70.2643,-66.5737,8238.4,4522.18,-4532.51,-3.66165,-180.866,-130.224,9721.15,1214.88,1583.71,10.2771,17.5234,1.12629
3.7925,4077.88,2134.41,9312.4,-8.61973,-52.0459,-37.9641,6050.22,-3943.03,14648.9,126.383,333.254,-105.34,-1492.26,11417.1,-668.992,-19.5625,-72.6645,-34.5737,-313.81,-14309.6,2935.17,-119.218,134.979,-342.943,-836.305,10534.8,-2714.19,-12.5128,-70.3494,-66.6365,8270.15,4662.53,-4657.36,-2.77128,-174.894,-129.669,9739.77,1224.37,1586.59,10.4045,17.3262,1.03783
3.793,4037.96,2160.59,9309.84,-8.43529,-52.2133,-37.7694,6103.78,-3896.92,14712.2,126.691,333.244,-105.533,-1479.67,11425.3,-626.193,-19.7077,-72.9231,-34.3533,-411.559,-14380.2,3014.96,-118.784,133.467,-343.814,-805.108,10520.8,-2715.04,-12.37,-70.4346,-66.6992,8301.9,4802.89,-4782.2,-1.88091,-168.921,-129.114,9758.4,1233.86,1589.48,10.532,17.129,0.949373
3.7935,3998.04,2186.77,9307.28,-8.25086,-52.3806,-37.5748,6157.34,-3850.81,14775.5,127.0,333.234,-105.727,-1467.07,11433.5,-583.393,-19.853,-73.1816,-34.133,-509.308,-14450.7,3094.75,-118.349,131.956,-344.684,-773.912,10506.8,-2715.88,-12.2272,-70.5197,-66.762,8333.66,4943.25,-4907.05,-0.990546,-162.948,-128.559,9777.03,1243.35,1592.36,10.6595,16.9318,0.860915
3.794,3958.12,2212.94,9304.73,-8.06642,-52.548,-37.3801,6210.91,-3804.69,14838.8,127.308,333.223,-105.921,-1454.48,11441.8,-540.593,-19.9983,-73.4401,-33.9127,-607.057,-14521.3,3174.54,-117.914,130.444,-345.555,-742.715,10492.8,-2716.72,-12.0844,-70.6049,-66.8248,8365.41,5083.61,-5031.9,-0.100179,-156.975,-128.003,9795.66,1252.84,1595.25,10.787,16.7346,0.772457
3.7945,3918.2,2239.12,9302.17,-7.88199,-52.7153,-37.1855,6264.47,-3758.58,14902.0,127.616,333.213,-106.114,-1441.89,11450.0,-497.793,-20.1435,-73.6986,-33.6924,-704.806,-14591.9,3254.33,-117.48,128.933,-346.425,-711.518,10478.8,-2717.56,-11.9417,-70.69,-66.8875,8397.16,5223.97,-5156.75,0.790188,-151.003,-127.448,9814.29,1262.34,1598.13,10.9144,16.5373,0.683998
3.795,3878.28,2265.3,9299.61,-7.69755,-52.8827,-36.9908,6318.03,-3712.47,14965.3,127.924,333.203,-106.308,-1429.3,11458.2,-454.993,-20.2888,-73.9571,-33.4721,-802.555,-14662.4,3334.11,-117.045,127.421,-347.296,-680.321,10464.8,-2718.41,-11.7989,-70.7752,-66.9503,8428.91,5364.33,-5281.6,1.68055,-145.03,-126.893,9832.92,1271.83,1601.01,11.0419,16.3401,0.59554
3.7955,3838.37,2291.48,9297.06,-7.51312,-53.05,-36.7962,6371.59,-3666.35,15028.6,128.233,333.193,-106.502,-1416.7,11466.5,-412.193,-20.4341,-74.2156,-33.2518,-900.304,-14733.0,3413.9,-116.611,125.91,-348.166,-649.124,10450.8,-2719.25,-11.6561,-70.8603,-67.0131,8460.66,5504.69,-5406.44,2.57092,-139.057,-126.338,9851.54,1281.32,1603.9,11.1694,16.1429,0.507082
3.796,3813.23,2308.54,9288.14,-7.34604,-53.1855,-36.5581,6436.92,-3592.15,15057.7,128.44,333.038,-106.743,-1385.59,11464.0,-373.55,-20.6036,-74.3712,-33.0674,-974.892,-14820.2,3467.06,-116.116,124.0,-348.959,-625.629,10429.3,-2702.49,-11.5169,-70.7276,-67.0532,8482.9,5623.06,-5447.02,2.5649,-132.484,-125.033,9890.32,1298.12,1586.59,10.9464,15.9385,0.454893
3.7965,3789.94,2324.47,9278.42,-7.18114,-53.3171,-36.3147,6503.72,-3514.43,15082.5,128.635,332.864,-106.99,-1352.16,11460.1,-335.426,-20.7761,-74.514,-32.8875,-1046.58,-14909.6,3516.9,-115.614,122.04,-349.741,-603.097,10406.8,-2683.53,-11.3781,-70.5677,-67.0906,8503.96,5738.67,-5477.06,2.44682,-125.837,-123.634,9931.6,1315.83,1566.75,10.6795,15.7332,0.407237
3.797,3766.65,2340.39,9268.71,-7.01624,-53.4486,-36.0712,6570.52,-3436.71,15107.4,128.83,332.69,-107.237,-1318.72,11456.3,-297.303,-20.9486,-74.6567,-32.7075,-1118.28,-14998.9,3566.73,-115.112,120.08,-350.524,-580.565,10384.3,-2664.57,-11.2394,-70.4077,-67.1279,8525.02,5854.29,-5507.11,2.32874,-119.189,-122.236,9972.89,1333.54,1546.92,10.4127,15.5279,0.359581
3.7975,3743.36,2356.31,9259.0,-6.85133,-53.5801,-35.8278,6637.32,-3358.99,15132.2,129.025,332.516,-107.484,-1285.29,11452.5,-259.179,-21.1212,-74.7995,-32.5276,-1189.97,-15088.2,3616.56,-114.61,118.12,-351.306,-558.033,10361.8,-2645.61,-11.1007,-70.2478,-67.1653,8546.08,5969.91,-5537.15,2.21067,-112.541,-120.837,10014.2,1351.25,1527.08,10.1458,15.3227,0.311926
3.798,3720.07,2372.23,9249.28,-6.68643,-53.7116,-35.5843,6704.13,-3281.27,15157.0,129.22,332.343,-107.731,-1251.86,11448.6,-221.055,-21.2937,-74.9422,-32.3477,-1261.66,-15177.5,3666.4,-114.107,116.16,-352.089,-535.501,10339.3,-2626.64,-10.9619,-70.0879,-67.2026,8567.13,6085.52,-5567.19,2.09259,-105.894,-119.439,10055.5,1368.96,1507.25,9.87897,15.1174,0.26427
3.7985,3696.78,2388.15,9239.57,-6.52153,-53.8431,-35.3408,6770.93,-3203.55,15181.9,129.415,332.169,-107.979,-1218.43,11444.8,-182.932,-21.4662,-75.085,-32.1678,-1333.35,-15266.9,3716.23,-113.605,114.2,-352.872,-512.969,10316.9,-2607.68,-10.8232,-69.9279,-67.24,8588.19,6201.14,-5597.24,1.97451,-99.2462,-118.04,10096.8,1386.67,1487.42,9.61212,14.9121,0.216614
3.799,3673.49,2404.08,9229.85,-6.35663,-53.9746,-35.0974,6837.73,-3125.83,15206.7,129.61,331.995,-108.226,-1184.99,11440.9,-144.808,-21.6388,-75.2277,-31.9879,-1405.04,-15356.2,3766.06,-113.103,112.24,-353.654,-490.437,10294.4,-2588.72,-10.6844,-69.768,-67.2773,8609.25,6316.76,-5627.28,1.85644,-92.5985,-116.641,10138.0,1404.39,1467.58,9.34527,14.7068,0.168958
3.7995,3650.2,2420.0,9220.14,-6.19172,-54.1062,-34.8539,6904.53,-3048.11,15231.5,129.804,331.821,-108.473,-1151.56,11437.1,-106.685,-21.8113,-75.3704,-31.8079,-1476.74,-15445.5,3815.9,-112.601,110.28,-354.437,-467.904,10271.9,-2569.76,-10.5457,-69.6081,-67.3147,8630.3,6432.38,-5657.32,1.73836,-85.9509,-115.243,10179.3,1422.1,1447.75,9.07842,14.5015,0.121303
3.8,3626.91,2435.92,9210.43,-6.02682,-54.2377,-34.6105,6971.33,-2970.39,15256.4,129.999,331.647,-108.72,-1118.13,11433.3,-68.5613,-21.9838,-75.5132,-31.628,-1548.43,-15534.8,3865.73,-112.099,108.32,-355.22,-445.372,10249.4,-2550.8,-10.4069,-69.4481,-67.352,8651.36,6547.99,-5687.36,1.62029,-79.3032,-113.844,10220.6,1439.81,1427.91,8.81157,14.2962,0.0736467
3.8005,3628.21,2437.83,9201.61,-5.89753,-54.3825,-34.4576,7041.99,-2901.39,15280.8,130.049,331.314,-109.039,-1079.96,11403.0,-55.4612,-22.1506,-75.4618,-31.5432,-1619.47,-15618.6,3911.25,-111.612,106.168,-355.876,-418.927,10230.9,-2546.88,-10.2765,-69.2709,-67.4396,8733.66,6550.08,-5600.7,1.46052,-72.3833,-111.86,10237.6,1450.86,1404.6,8.11618,14.2921,0.211987
3.801,3629.5,2439.74,9192.79,-5.76823,-54.5274,-34.3048,7112.65,-2832.39,15305.2,130.099,330.98,-109.357,-1041.78,11372.7,-42.3611,-22.3174,-75.4105,-31.4583,-1690.51,-15702.3,3956.78,-111.125,104.015,-356.532,-392.482,10212.4,-2542.96,-10.146,-69.0937,-67.5271,8815.96,6552.17,-5514.03,1.30076,-65.4633,-109.876,10254.7,1461.9,1381.28,7.42078,14.288,0.350327
3.8015,3630.8,2441.65,9183.97,-5.63894,-54.6723,-34.1519,7183.31,-2763.38,15329.6,130.149,330.646,-109.676,-1003.61,11342.3,-29.261,-22.4842,-75.3592,-31.3735,-1761.55,-15786.1,4002.3,-110.638,101.862,-357.188,-366.037,10193.9,-2539.05,-10.0155,-68.9165,-67.6147,8898.27,6554.27,-5427.36,1.141,-58.5434,-107.891,10271.7,1472.95,1357.97,6.72539,14.2839,0.488667
3.802,3632.09,2443.56,9175.15,-5.50965,-54.8172,-33.9991,7253.97,-2694.38,15354.0,130.199,330.312,-109.995,-965.436,11312.0,-16.1609,-22.651,-75.3078,-31.2887,-1832.59,-15869.9,4047.82,-110.151,99.7089,-357.844,-339.593,10175.5,-2535.13,-9.88509,-68.7393,-67.7022,8980.57,6556.36,-5340.69,0.981238,-51.6234,-105.907,10288.7,1484.0,1334.65,6.03,14.2798,0.627006
3.8025,3633.39,2445.47,9166.33,-5.38035,-54.962,-33.8462,7324.64,-2625.38,15378.4,130.249,329.978,-110.314,-927.263,11281.7,-3.06079,-22.8178,-75.2565,-31.2039,-1903.63,-15953.6,4093.35,-109.664,97.556,-358.5,-313.148,10157.0,-2531.21,-9.75463,-68.5621,-67.7898,9062.87,6558.45,-5254.02,0.821476,-44.7035,-103.923,10305.7,1495.04,1311.34,5.3346,14.2757,0.765346
3.803,3634.68,2447.38,9157.5,-5.25106,-55.1069,-33.6934,7395.3,-2556.38,15402.9,130.299,329.644,-110.632,-889.089,11251.4,10.0393,-22.9846,-75.2051,-31.119,-1974.67,-16037.4,4138.87,-109.177,95.4031,-359.156,-286.703,10138.5,-2527.29,-9.62417,-68.3849,-67.8773,9145.17,6560.54,-5167.35,0.661714,-37.7835,-101.938,10322.7,1506.09,1288.03,4.63921,14.2716,0.903686
3.8035,3635.98,2449.29,9148.68,-5.12177,-55.2518,-33.5406,7465.96,-2487.37,15427.3,130.349,329.31,-110.951,-850.916,11221.1,23.1394,-23.1514,-75.1538,-31.0342,-2045.71,-16121.1,4184.4,-108.69,93.2503,-359.812,-260.258,10120.0,-2523.38,-9.49371,-68.2077,-67.9649,9227.47,6562.63,-5080.68,0.501952,-30.8636,-99.9542,10339.7,1517.14,1264.71,3.94382,14.2675,1.04203
3.804,3637.28,2451.2,9139.86,-4.99247,-55.3966,-33.3877,7536.62,-2418.37,15451.7,130.399,328.977,-111.27,-812.743,11190.8,36.2395,-23.3182,-75.1025,-30.9494,-2116.75,-16204.9,4229.92,-108.203,91.0974,-360.468,-233.813,10101.5,-2519.46,-9.36325,-68.0305,-68.0524,9309.77,6564.72,-4994.01,0.34219,-23.9436,-97.9698,10356.7,1528.18,1241.4,3.24842,14.2634,1.18037
3.8045,3638.92,2456.24,9131.88,-4.87009,-55.5371,-33.2341,7607.99,-2357.23,15478.0,130.424,328.614,-111.616,-774.604,11159.3,48.4032,-23.4798,-75.0135,-30.8838,-2186.65,-16287.5,4271.24,-107.721,88.9309,-361.106,-207.094,10083.0,-2513.46,-9.23543,-67.8594,-68.1385,9392.03,6556.13,-4891.07,0.143165,-17.1731,-96.039,10371.2,1535.64,1221.34,2.55712,14.2339,1.29826
3.805,3643.31,2486.26,9130.59,-4.80302,-55.6426,-33.0749,7685.05,-2359.0,15519.6,130.252,328.019,-112.183,-736.736,11118.7,53.0755,-23.5999,-74.624,-30.9724,-2247.49,-16360.5,4278.97,-107.28,86.6553,-361.603,-178.189,10064.6,-2490.84,-9.12872,-67.7374,-68.2129,9473.88,6462.06,-4657.94,-0.369967,-11.5984,-94.5353,10365.5,1514.37,1227.34,1.89859,14.0018,1.25259
3.8055,3647.71,2516.29,9129.3,-4.73595,-55.748,-32.9156,7762.1,-2360.77,15561.2,130.08,327.425,-112.749,-698.868,11078.1,57.7478,-23.7199,-74.2345,-31.061,-2308.32,-16433.6,4286.69,-106.838,84.3797,-362.101,-149.283,10046.1,-2468.22,-9.02201,-67.6155,-68.2874,9555.73,6368.0,-4424.81,-0.883099,-6.02376,-93.0316,10359.8,1493.1,1233.34,1.24006,13.7698,1.20691
3.806,3652.1,2546.32,9128.02,-4.66887,-55.8534,-32.7564,7839.16,-2362.55,15602.8,129.908,326.83,-113.316,-661.001,11037.4,62.4201,-23.8399,-73.845,-31.1495,-2369.16,-16506.6,4294.42,-106.397,82.1041,-362.598,-120.377,10027.7,-2445.6,-8.91529,-67.4935,-68.3618,9637.58,6273.94,-4191.68,-1.39623,-0.449077,-91.5279,10354.1,1471.83,1239.33,0.581522,13.5377,1.16124
3.8065,3656.5,2576.34,9126.73,-4.6018,-55.9589,-32.5971,7916.21,-2364.32,15644.4,129.736,326.236,-113.882,-623.133,10996.8,67.0924,-23.9599,-73.4555,-31.2381,-2430.0,-16579.7,4302.14,-105.955,79.8285,-363.095,-91.4707,10009.3,-2422.98,-8.80858,-67.3716,-68.4363,9719.43,6179.88,-3958.55,-1.90936,5.12561,-90.0242,10348.3,1450.55,1245.33,-0.0770114,13.3056,1.11556
3.807,3660.89,2606.37,9125.44,-4.53473,-56.0643,-32.4378,7993.27,-2366.09,15686.0,129.563,325.641,-114.449,-585.266,10956.2,71.7647,-24.0799,-73.066,-31.3267,-2490.83,-16652.8,4309.87,-105.514,77.5529,-363.592,-62.5648,9990.8,-2400.36,-8.70186,-67.2496,-68.5107,9801.28,6085.81,-3725.42,-2.4225,10.7003,-88.5205,10342.6,1429.28,1251.33,-0.735545,13.0735,1.06989
3.8075,3665.29,2636.4,9124.15,-4.46765,-56.1698,-32.2785,8070.32,-2367.86,15727.6,129.391,325.047,-115.015,-547.398,10915.6,76.437,-24.1999,-72.6765,-31.4153,-2551.67,-16725.8,4317.59,-105.073,75.2774,-364.09,-33.6588,9972.36,-2377.74,-8.59515,-67.1277,-68.5851,9883.13,5991.75,-3492.29,-2.93563,16.275,-87.0168,10336.9,1408.01,1257.33,-1.39408,12.8414,1.02421
3.808,3669.68,2666.43,9122.86,-4.40058,-56.2752,-32.1193,8147.38,-2369.63,15769.2,129.219,324.452,-115.582,-509.531,10874.9,81.1093,-24.32,-72.287,-31.5039,-2612.5,-16798.9,4325.32,-104.631,73.0018,-364.587,-4.75289,9953.91,-2355.11,-8.48843,-67.0057,-68.6596,9964.98,5897.69,-3259.16,-3.44876,21.8497,-85.5131,10331.2,1386.74,1263.33,-2.05261,12.6094,0.978539
3.8085,3674.08,2696.45,9121.57,-4.33351,-56.3806,-31.96,8224.43,-2371.4,15810.8,129.047,323.858,-116.148,-471.663,10834.3,85.7816,-24.44,-71.8975,-31.5925,-2673.34,-16871.9,4333.04,-104.19,70.7262,-365.084,24.153,9935.47,-2332.49,-8.38172,-66.8838,-68.734,10046.8,5803.63,-3026.03,-3.96189,27.4244,-84.0094,10325.4,1365.47,1269.33,-2.71115,12.3773,0.932865
3.809,3676.09,2727.49,9118.15,-4.26713,-56.4827,-31.7797,8301.31,-2381.32,15848.1,128.849,323.217,-116.764,-434.605,10797.5,93.2306,-24.5418,-71.44,-31.6869,-2729.99,-16956.2,4334.4,-103.713,68.4854,-365.546,52.4308,9920.5,-2308.87,-8.3033,-66.7784,-68.8082,10125.0,5718.6,-2780.17,-4.68468,32.5778,-82.7226,10319.4,1349.0,1269.36,-3.29558,12.1152,0.889593
3.8095,3669.79,2762.04,9107.26,-4.20321,-56.5729,-31.5255,8377.55,-2419.74,15870.4,128.562,322.413,-117.55,-400.381,10774.1,110.398,-24.5801,-70.7443,-31.8016,-2771.99,-17079.6,4313.43,-103.113,66.3663,-365.885,78.51,9917.73,-2281.76,-8.32393,-66.7309,-68.8812,10190.4,5665.19,-2489.73,-6.14128,36.2568,-82.1945,10312.1,1349.36,1248.49,-3.62068,11.7482,0.854727
3.81,3663.49,2796.6,9096.37,-4.13929,-56.663,-31.2713,8453.8,-2458.16,15892.8,128.275,321.609,-118.336,-366.158,10750.7,127.565,-24.6184,-70.0486,-31.9163,-2813.99,-17202.9,4292.47,-102.514,64.2472,-366.225,104.589,9914.95,-2254.65,-8.34455,-66.6835,-68.9542,10255.8,5611.78,-2199.29,-7.59788,39.9357,-81.6664,10304.8,1349.72,1227.63,-3.94577,11.3812,0.819862
3.8105,3657.19,2831.15,9085.48,-4.07537,-56.7532,-31.0171,8530.04,-2496.58,15915.1,127.988,320.805,-119.122,-331.934,10727.3,144.732,-24.6567,-69.353,-32.0311,-2855.99,-17326.3,4271.51,-101.914,62.1281,-366.564,130.668,9912.18,-2227.54,-8.36517,-66.636,-69.0272,10321.2,5558.37,-1908.86,-9.05449,43.6147,-81.1384,10297.5,1350.08,1206.77,-4.27087,11.0141,0.784997
3.811,3650.89,2865.71,9074.59,-4.01144,-56.8434,-30.7629,8606.28,-2534.99,15937.4,127.701,320.001,-119.909,-297.71,10703.9,161.9,-24.695,-68.6573,-32.1458,-2897.99,-17449.7,4250.55,-101.315,60.0091,-366.903,156.748,9909.4,-2200.43,-8.38579,-66.5886,-69.1002,10386.5,5504.96,-1618.42,-10.5111,47.2937,-80.6103,10290.3,1350.44,1185.9,-4.59596,10.6471,0.750131
3.8115,3644.58,2900.26,9063.7,-3.94752,-56.9335,-30.5087,8682.53,-2573.41,15959.8,127.414,319.197,-120.695,-263.487,10680.5,179.067,-24.7333,-67.9617,-32.2606,-2939.99,-17573.1,4229.59,-100.715,57.89,-367.242,182.827,9906.63,-2173.32,-8.40641,-66.5411,-69.1733,10451.9,5451.55,-1327.98,-11.9677,50.9727,-80.0822,10283.0,1350.8,1165.04,-4.92106,10.2801,0.715266
3.812,3638.28,2934.82,9052.8,-3.8836,-57.0237,-30.2545,8758.77,-2611.83,15982.1,127.128,318.393,-121.481,-229.263,10657.1,196.234,-24.7716,-67.266,-32.3753,-2981.99,-17696.5,4208.63,-100.115,55.7709,-367.581,208.906,9903.86,-2146.2,-8.42704,-66.4936,-69.2463,10517.3,5398.15,-1037.54,-13.4243,54.6517,-79.5541,10275.7,1351.16,1144.18,-5.24615,9.91309,0.680401
3.8125,3631.98,2969.37,9041.91,-3.81968,-57.1139,-30.0003,8835.02,-2650.25,16004.4,126.841,317.589,-122.267,-195.039,10633.7,213.401,-24.8099,-66.5704,-32.4901,-3023.99,-17819.8,4187.67,-99.5158,53.6518,-367.92,234.985,9901.08,-2119.09,-8.44766,-66.4462,-69.3193,10582.7,5344.74,-747.107,-14.8809,58.3307,-79.0261,10268.5,1351.52,1123.32,-5.57124,9.54608,0.645535
3.813,3625.68,3003.93,9031.02,-3.75575,-57.204,-29.7461,8911.26,-2688.67,16026.7,126.554,316.785,-123.054,-160.816,10610.3,230.569,-24.8482,-65.8747,-32.6048,-3065.99,-17943.2,4166.7,-98.9162,51.5328,-368.259,261.065,9898.31,-2091.98,-8.46828,-66.3987,-69.3923,10648.1,5291.33,-456.67,-16.3375,62.0096,-78.498,10261.2,1351.88,1102.45,-5.89634,9.17906,0.61067
3.8135,3621.41,3032.9,9021.64,-3.69224,-57.2836,-29.4735,8992.71,-2720.89,16051.3,126.302,315.937,-123.835,-132.398,10586.7,242.938,-24.8613,-65.1793,-32.7297,-3115.22,-18063.2,4149.71,-98.3729,49.3117,-368.525,288.549,9894.8,-2069.61,-8.49878,-66.3594,-69.4462,10696.1,5252.06,-155.9,-18.307,64.9241,-78.2385,10261.2,1346.36,1085.03,-6.28082,8.7944,0.641037
3.814,3621.22,3050.7,9015.27,-3.62954,-57.3421,-29.1641,9084.59,-2740.71,16080.4,126.123,315.004,-124.607,-115.593,10562.8,245.712,-24.824,-64.4843,-32.8751,-3178.91,-18176.2,4140.65,-97.9424,46.8866,-368.647,318.844,9889.82,-2056.73,-8.54902,-66.3362,-69.4619,10709.3,5241.09,165.534,-21.3023,66.3095,-78.5161,10275.7,1329.08,1074.5,-6.78407,8.37446,0.801869
3.8145,3621.03,3068.49,9008.9,-3.56684,-57.4005,-28.8546,9176.47,-2760.54,16109.5,125.944,314.07,-125.379,-98.7876,10538.9,248.485,-24.7867,-63.7893,-33.0204,-3242.6,-18289.2,4131.59,-97.5119,44.4615,-368.768,349.139,9884.84,-2043.84,-8.59926,-66.3131,-69.4776,10722.6,5230.12,486.969,-24.2977,67.6949,-78.7938,10290.3,1311.81,1063.97,-7.28733,7.95451,0.962701
3.815,3620.83,3086.29,9002.53,-3.50415,-57.4589,-28.5452,9268.35,-2780.36,16138.5,125.764,313.137,-126.15,-81.9823,10515.0,251.259,-24.7494,-63.0943,-33.1657,-3306.29,-18402.2,4122.53,-97.0814,42.0364,-368.89,379.434,9879.86,-2030.96,-8.6495,-66.29,-69.4933,10735.8,5219.14,808.403,-27.293,69.0803,-79.0714,10304.8,1294.53,1053.43,-7.79058,7.53457,1.12353
3.8155,3620.64,3104.09,8996.16,-3.44145,-57.5174,-28.2358,9360.23,-2800.18,16167.6,125.585,312.203,-126.922,-65.177,10491.1,254.032,-24.7121,-62.3993,-33.311,-3369.98,-18515.3,4113.47,-96.6509,39.6113,-369.011,409.729,9874.89,-2018.08,-8.69974,-66.2668,-69.509,10749.0,5208.17,1129.84,-30.2883,70.4657,-79.3491,10319.3,1277.25,1042.9,-8.29383,7.11463,1.28437
3.816,3620.45,3121.89,8989.79,-3.37875,-57.5758,-27.9263,9452.11,-2820.01,16196.7,125.406,311.27,-127.694,-48.3717,10467.2,256.806,-24.6749,-61.7043,-33.4564,-3433.67,-18628.3,4104.4,-96.2203,37.1862,-369.133,440.024,9869.91,-2005.19,-8.74998,-66.2437,-69.5247,10762.3,5197.2,1451.27,-33.2837,71.8512,-79.6267,10333.9,1259.98,1032.37,-8.79709,6.69469,1.4452
3.8165,3620.25,3139.69,8983.42,-3.31605,-57.6343,-27.6169,9543.99,-2839.83,16225.7,125.226,310.336,-128.466,-31.5665,10443.3,259.579,-24.6376,-61.0094,-33.6017,-3497.36,-18741.3,4095.34,-95.7898,34.7611,-369.254,470.319,9864.93,-1992.31,-8.80022,-66.2205,-69.5404,10775.5,5186.22,1772.71,-36.279,73.2366,-79.9044,10348.4,1242.7,1021.84,-9.30034,6.27475,1.60603
3.817,3620.06,3157.49,8977.05,-3.25336,-57.6927,-27.3074,9635.87,-2859.65,16254.8,125.047,309.403,-129.238,-14.7612,10419.4,262.353,-24.6003,-60.3144,-33.747,-3561.05,-18854.3,4086.28,-95.3593,32.336,-369.376,500.615,9859.96,-1979.42,-8.85046,-66.1974,-69.5561,10788.8,5175.25,2094.14,-39.2743,74.622,-80.182,10362.9,1225.43,1011.3,-9.80359,5.8548,1.76686
3.8175,3619.86,3175.29,8970.68,-3.19066,-57.7511,-26.998,9727.75,-2879.47,16283.9,124.867,308.469,-130.01,2.04406,10395.5,265.127,-24.563,-59.6194,-33.8924,-3624.73,-18967.3,4077.22,-94.9288,29.9109,-369.497,530.91,9854.98,-1966.54,-8.9007,-66.1743,-69.5718,10802.0,5164.28,2415.58,-42.2697,76.0074,-80.4596,10377.5,1208.15,1000.77,-10.3068,5.43486,1.92769
3.818,3624.33,3185.61,8969.7,-3.08639,-57.8285,-26.6296,9832.43,-2885.28,16309.7,124.718,307.54,-130.735,13.1162,10374.5,273.325,-24.5506,-58.9792,-34.0815,-3687.78,-19078.8,4045.53,-94.3968,27.6215,-369.504,558.607,9847.01,-1956.13,-8.91672,-66.0936,-69.5674,10837.0,5154.16,2660.89,-45.3555,76.8936,-80.9275,10365.3,1198.89,981.359,-10.558,4.98888,1.85454
3.8185,3634.61,3186.58,8975.45,-2.93017,-57.9297,-26.1876,9953.11,-2873.56,16331.6,124.606,306.615,-131.404,17.022,10357.1,288.303,-24.5692,-58.4074,-34.3253,-3750.02,-19188.2,3985.55,-93.7379,25.5018,-369.366,583.059,9835.31,-1948.82,-8.88995,-65.941,-69.538,10899.1,5145.13,2811.05,-48.5545,77.1557,-81.6332,10319.6,1199.65,950.849,-10.4939,4.51035,1.48891
3.819,3644.89,3187.55,8981.2,-2.77394,-58.0308,-25.7456,10073.8,-2861.85,16353.4,124.493,305.691,-132.073,20.9278,10339.7,303.282,-24.5878,-57.8356,-34.5691,-3812.26,-19297.6,3925.57,-93.0791,23.3821,-369.228,607.51,9823.61,-1941.5,-8.86319,-65.7884,-69.5085,10961.2,5136.09,2961.2,-51.7535,77.4178,-82.339,10273.9,1200.4,920.34,-10.4298,4.03182,1.12328
3.8195,3655.18,3188.52,8986.96,-2.61771,-58.1319,-25.3035,10194.5,-2850.13,16375.2,124.381,304.766,-132.741,24.8336,10322.2,318.26,-24.6064,-57.2639,-34.8129,-3874.5,-19406.9,3865.59,-92.4202,21.2623,-369.09,631.961,9811.9,-1934.19,-8.83643,-65.6359,-69.4791,11023.3,5127.05,3111.36,-54.9525,77.6799,-83.0447,10228.2,1201.16,889.831,-10.3658,3.55329,0.75765
3.82,3665.46,3189.49,8992.71,-2.46148,-58.233,-24.8615,10315.2,-2838.41,16397.1,124.269,303.842,-133.41,28.7394,10304.8,333.239,-24.625,-56.6921,-35.0567,-3936.73,-19516.3,3805.61,-91.7614,19.1426,-368.952,656.412,9800.2,-1926.87,-8.80966,-65.4833,-69.4496,11085.4,5118.02,3261.52,-58.1515,77.942,-83.7504,10182.5,1201.92,859.321,-10.3017,3.07476,0.39202
3.8205,3675.74,3190.46,8998.46,-2.30526,-58.3341,-24.4195,10435.8,-2826.7,16418.9,124.157,302.918,-134.078,32.6451,10287.4,348.217,-24.6436,-56.1203,-35.3005,-3998.97,-19625.7,3745.63,-91.1026,17.0228,-368.814,680.863,9788.5,-1919.56,-8.7829,-65.3307,-69.4202,11147.5,5108.98,3411.68,-61.3505,78.2041,-84.4561,10136.8,1202.68,828.812,-10.2377,2.59623,0.0263896
3.821,3686.03,3191.43,9004.21,-2.14903,-58.4353,-23.9774,10556.5,-2814.98,16440.7,124.045,301.993,-134.747,36.5509,10270.0,363.195,-24.6622,-55.5485,-35.5444,-4061.21,-19735.1,3685.65,-90.4437,14.9031,-368.677,705.315,9776.79,-1912.24,-8.75613,-65.1781,-69.3907,11209.7,5099.94,3561.84,-64.5495,78.4662,-85.1618,10091.2,1203.43,798.302,-10.1736,2.1177,-0.339241
3.8215,3696.31,3192.41,9009.96,-1.9928,-58.5364,-23.5354,10677.2,-2803.26,16462.6,123.932,301.069,-135.415,40.4567,10252.5,378.174,-24.6808,-54.9768,-35.7882,-4123.45,-19844.5,3625.67,-89.7849,12.7833,-368.539,729.766,9765.09,-1904.93,-8.72937,-65.0256,-69.3613,11271.8,5090.91,3712.0,-67.7485,78.7283,-85.8675,10045.5,1204.19,767.793,-10.1095,1.63917,-0.704871
3.822,3706.6,3193.38,9015.71,-1.83658,-58.6375,-23.0934,10797.9,-2791.55,16484.4,123.82,300.144,-136.084,44.3625,10235.1,393.152,-24.6994,-54.405,-36.032,-4185.69,-19953.9,3565.69,-89.1261,10.6636,-368.401,754.217,9753.39,-1897.61,-8.70261,-64.873,-69.3318,11333.9,5081.87,3862.16,-70.9475,78.9904,-86.5732,9999.79,1204.95,737.283,-10.0455,1.16064,-1.0705
3.8225,3712.74,3179.19,9022.78,-1.68029,-58.7579,-22.7556,10923.0,-2772.84,16519.4,123.791,299.243,-136.754,33.4916,10223.3,403.446,-24.7271,-53.8944,-36.2872,-4247.81,-20064.9,3498.21,-88.557,8.65445,-368.289,775.757,9748.47,-1881.33,-8.64245,-64.7244,-69.3172,11355.7,5094.11,3949.36,-73.9189,78.8328,-87.1742,9972.97,1217.12,712.696,-10.1984,0.683584,-1.3262
3.823,3715.58,3152.88,9030.91,-1.52395,-58.8938,-22.5013,11051.6,-2748.55,16565.0,123.829,298.361,-137.426,10.7995,10216.0,409.992,-24.7621,-53.4328,-36.5514,-4309.84,-20177.3,3424.73,-88.0599,6.73378,-368.196,794.969,9748.96,-1857.87,-8.55557,-64.5789,-69.3143,11345.3,5123.38,3986.21,-76.7083,78.3395,-87.6916,9961.24,1238.42,692.848,-10.525,0.207705,-1.49396
3.8235,3718.42,3126.56,9039.04,-1.36762,-59.0297,-22.2469,11180.2,-2724.25,16610.5,123.868,297.479,-138.098,-11.8926,10208.7,416.538,-24.7971,-52.9711,-36.8156,-4371.87,-20289.6,3351.25,-87.5627,4.8131,-368.104,814.181,9749.46,-1834.41,-8.4687,-64.4335,-69.3115,11334.9,5152.65,4023.06,-79.4977,77.8461,-88.2089,9949.51,1259.72,672.999,-10.8515,-0.268174,-1.66172
3.824,3721.26,3100.25,9047.16,-1.21128,-59.1656,-21.9926,11308.9,-2699.96,16656.1,123.906,296.597,-138.77,-34.5848,10201.4,423.083,-24.8321,-52.5095,-37.0798,-4433.9,-20401.9,3277.78,-87.0655,2.89243,-368.012,833.393,9749.96,-1810.95,-8.38183,-64.288,-69.3087,11324.5,5181.92,4059.91,-82.2871,77.3528,-88.7262,9937.78,1281.02,653.15,-11.178,-0.744053,-1.82948
3.8245,3724.1,3073.93,9055.29,-1.05495,-59.3015,-21.7383,11437.5,-2675.66,16701.7,123.944,295.715,-139.443,-57.2769,10194.1,429.629,-24.8671,-52.0478,-37.344,-4495.93,-20514.2,3204.3,-86.5684,0.971755,-367.92,852.604,9750.46,-1787.5,-8.29495,-64.1426,-69.3059,11314.2,5211.19,4096.75,-85.0765,76.8594,-89.2436,9926.05,1302.32,633.301,-11.5046,-1.21993,-1.99724
3.825,3726.94,3047.62,9063.42,-0.898611,-59.4374,-21.4839,11566.1,-2651.37,16747.2,123.982,294.833,-140.115,-79.9691,10186.8,436.175,-24.902,-51.5862,-37.6082,-4557.96,-20626.5,3130.82,-86.0712,-0.948919,-367.828,871.816,9750.96,-1764.04,-8.20808,-63.9972,-69.3031,11303.8,5240.45,4133.6,-87.866,76.3661,-89.7609,9914.33,1323.62,613.453,-11.8311,-1.69581,-2.165
3.8255,3729.78,3021.31,9071.54,-0.742276,-59.5733,-21.2296,11694.8,-2627.07,16792.8,124.02,293.951,-140.787,-102.661,10179.5,442.721,-24.937,-51.1245,-37.8725,-4619.99,-20738.8,3057.35,-85.574,-2.86959,-367.735,891.028,9751.46,-1740.58,-8.12121,-63.8517,-69.3003,11293.4,5269.72,4170.45,-90.6554,75.8727,-90.2783,9902.6,1344.92,593.604,-12.1576,-2.17169,-2.33276
3.826,3732.62,2994.99,9079.67,-0.58594,-59.7092,-20.9753,11823.4,-2602.78,16838.3,124.058,293.069,-141.459,-125.353,10172.2,449.266,-24.972,-50.6629,-38.1367,-4682.02,-20851.1,2983.87,-85.0769,-4.79027,-367.643,910.239,9751.96,-1717.12,-8.03433,-63.7063,-69.2974,11283.0,5298.99,4207.3,-93.4448,75.3793,-90.7956,9890.87,1366.22,573.755,-12.4842,-2.64757,-2.50052
3.8265,3735.46,2968.68,9087.79,-0.429604,-59.8451,-20.7209,11952.0,-2578.48,16883.9,124.096,292.186,-142.131,-148.046,10164.9,455.812,-25.007,-50.2012,-38.4009,-4744.05,-20963.4,2910.39,-84.5797,-6.71094,-367.551,929.451,9752.46,-1693.66,-7.94746,-63.5608,-69.2946,11272.6,5328.26,4244.14,-96.2342,74.886,-91.3129,9879.14,1387.52,553.906,-12.8107,-3.12345,-2.66828
3.827,3736.67,2958.07,9091.16,-0.302445,-60.0106,-20.5019,12117.3,-2533.24,16986.8,124.071,291.128,-142.734,-162.842,10174.3,461.205,-25.0638,-49.8396,-38.6573,-4804.43,-21076.3,2834.09,-84.0665,-8.19451,-367.464,959.592,9758.96,-1665.73,-7.93937,-63.439,-69.2987,11175.8,5401.28,4214.13,-98.5649,74.3938,-91.1471,9876.76,1412.13,537.891,-13.2787,-3.74724,-2.74821
3.8275,3737.07,2955.31,9092.15,-0.189874,-60.1908,-20.3005,12300.8,-2477.53,17118.3,124.015,289.982,-143.302,-173.691,10191.9,466.021,-25.1314,-49.5279,-38.9098,-4863.98,-21189.4,2756.37,-83.5452,-9.45953,-367.38,995.197,9768.47,-1635.55,-7.97068,-63.3291,-69.3063,11035.9,5496.18,4150.69,-100.666,73.9022,-90.6397,9879.05,1438.39,523.792,-13.8175,-4.445,-2.78423
3.828,3737.47,2952.55,9093.14,-0.0773028,-60.371,-20.0992,12484.4,-2421.82,17249.8,123.959,288.836,-143.871,-184.541,10209.6,470.838,-25.199,-49.2163,-39.1622,-4923.53,-21302.6,2678.65,-83.0239,-10.7245,-367.296,1030.8,9777.97,-1605.37,-8.00199,-63.2191,-69.3138,10896.0,5591.08,4087.25,-102.768,73.4105,-90.1324,9881.35,1464.66,509.692,-14.3562,-5.14275,-2.82025
3.8285,3737.86,2949.79,9094.13,0.0352684,-60.5513,-19.8978,12667.9,-2366.12,17381.3,123.903,287.69,-144.44,-195.39,10227.3,475.654,-25.2667,-48.9046,-39.4147,-4983.08,-21415.7,2600.93,-82.5026,-11.9896,-367.212,1066.41,9787.48,-1575.19,-8.03329,-63.1092,-69.3213,10756.0,5685.98,4023.8,-104.869,72.9189,-89.625,9883.64,1490.92,495.593,-14.895,-5.84051,-2.85627
3.829,3738.26,2947.03,9095.12,0.14784,-60.7315,-19.6964,12851.5,-2310.41,17512.8,123.848,286.544,-145.008,-206.239,10245.0,480.47,-25.3343,-48.593,-39.6672,-5042.63,-21528.8,2523.22,-81.9813,-13.2546,-367.128,1102.01,9796.99,-1545.01,-8.0646,-62.9992,-69.3289,10616.1,5780.87,3960.36,-106.97,72.4273,-89.1176,9885.93,1517.19,481.494,-15.4337,-6.53826,-2.89229
3.8295,3738.66,2944.28,9096.11,0.260411,-60.9117,-19.495,13035.1,-2254.7,17644.4,123.792,285.398,-145.577,-217.088,10262.6,485.287,-25.402,-48.2813,-39.9196,-5102.18,-21642.0,2445.5,-81.46,-14.5196,-367.044,1137.62,9806.49,-1514.83,-8.09591,-62.8892,-69.3364,10476.2,5875.77,3896.92,-109.072,71.9356,-88.6103,9888.23,1543.45,467.395,-15.9725,-7.23602,-2.92831
3.83,3739.06,2941.52,9097.09,0.372982,-61.092,-19.2937,13218.6,-2198.99,17775.9,123.736,284.252,-146.145,-227.937,10280.3,490.103,-25.4696,-47.9697,-40.1721,-5161.73,-21755.1,2367.78,-80.9387,-15.7846,-366.96,1173.22,9816.0,-1484.65,-8.12722,-62.7793,-69.3439,10336.3,5970.67,3833.48,-111.173,71.444,-88.1029,9890.52,1569.71,453.296,-16.5113,-7.93377,-2.96433
3.8305,3739.46,2938.76,9098.08,0.485553,-61.2722,-19.0923,13402.2,-2143.28,17907.4,123.68,283.105,-146.714,-238.786,10298.0,494.919,-25.5372,-47.658,-40.4246,-5221.28,-21868.2,2290.06,-80.4174,-17.0496,-366.876,1208.83,9825.51,-1454.47,-8.15852,-62.6693,-69.3515,10196.3,6065.57,3770.03,-113.274,70.9523,-87.5955,9892.81,1595.98,439.197,-17.05,-8.63152,-3.00035
3.831,3739.86,2936.0,9099.07,0.598124,-61.4524,-18.8909,13585.7,-2087.57,18038.9,123.624,281.959,-147.282,-249.635,10315.7,499.736,-25.6049,-47.3464,-40.677,-5280.83,-21981.4,2212.34,-79.8961,-18.3146,-366.792,1244.44,9835.01,-1424.3,-8.18983,-62.5594,-69.359,10056.4,6160.47,3706.59,-115.375,70.4607,-87.0881,9895.11,1622.24,425.098,-17.5888,-9.32928,-3.03637
3.8315,3742.36,2939.88,9098.18,0.634027,-61.6447,-18.6598,13789.5,-2061.92,18162.8,122.938,280.562,-148.034,-254.687,10336.6,495.513,-25.7161,-47.0845,-40.9277,-5363.96,-22049.9,2116.68,-79.6385,-19.2044,-366.831,1277.66,9854.87,-1405.36,-8.26392,-62.4686,-69.3476,9860.05,6220.93,3577.08,-116.475,70.3496,-86.1705,9899.06,1654.65,408.853,-18.12,-10.0796,-3.10862
3.832,3745.47,2945.66,9096.75,0.648025,-61.8403,-18.4202,13999.0,-2044.87,18284.6,122.072,279.093,-148.837,-258.083,10358.4,488.709,-25.8398,-46.8369,-41.178,-5453.83,-22105.6,2015.9,-79.4564,-19.987,-366.906,1310.2,9877.67,-1389.63,-8.35023,-62.3832,-69.3307,9647.6,6271.54,3428.7,-117.288,70.3472,-85.1356,9903.48,1688.81,391.995,-18.6491,-10.8449,-3.19123
3.8325,3748.58,2951.44,9095.32,0.662023,-62.0359,-18.1806,14208.5,-2027.81,18406.3,121.206,277.624,-149.64,-261.478,10380.2,481.904,-25.9635,-46.5893,-41.4282,-5543.69,-22161.3,1915.11,-79.2742,-20.7696,-366.98,1342.74,9900.49,-1373.9,-8.43653,-62.2979,-69.3138,9435.15,6322.16,3280.31,-118.101,70.3448,-84.1007,9907.91,1722.97,375.137,-19.1782,-11.6102,-3.27384
3.833,3751.68,2957.22,9093.9,0.676021,-62.2316,-17.941,14418.0,-2010.75,18528.1,120.34,276.155,-150.444,-264.874,10402.0,475.1,-26.0872,-46.3417,-41.6783,-5633.56,-22217.1,1814.33,-79.092,-21.5522,-367.054,1375.28,9923.29,-1358.18,-8.52284,-62.2126,-69.297,9222.69,6372.78,3131.93,-118.915,70.3425,-83.0658,9912.33,1757.13,358.279,-19.7073,-12.3755,-3.35644
3.8335,3754.79,2963.0,9092.47,0.690019,-62.4272,-17.7014,14627.5,-1993.7,18649.8,119.475,274.687,-151.247,-268.27,10423.8,468.295,-26.2109,-46.094,-41.9285,-5723.43,-22272.8,1713.54,-78.9098,-22.3348,-367.128,1407.82,9946.1,-1342.45,-8.60915,-62.1273,-69.2801,9010.24,6423.39,2983.55,-119.728,70.3401,-82.0309,9916.76,1791.29,341.421,-20.2363,-13.1408,-3.43905
3.834,3757.9,2968.78,9091.04,0.704017,-62.6228,-17.4618,14837.0,-1976.64,18771.5,118.609,273.218,-152.051,-271.665,10445.6,461.49,-26.3346,-45.8464,-42.1787,-5813.3,-22328.6,1612.75,-78.7276,-23.1173,-367.203,1440.36,9968.91,-1326.72,-8.69546,-62.042,-69.2632,8797.79,6474.01,2835.16,-120.541,70.3377,-80.996,9921.19,1825.46,324.563,-20.7654,-13.9062,-3.52166
3.8345,3761.01,2974.56,9089.61,0.718015,-62.8185,-17.2221,15046.6,-1959.58,18893.3,117.743,271.749,-152.854,-275.061,10467.4,454.686,-26.4583,-45.5988,-42.4289,-5903.17,-22384.3,1511.97,-78.5455,-23.8999,-367.277,1472.9,9991.72,-1311.0,-8.78177,-61.9567,-69.2464,8585.34,6524.63,2686.78,-121.354,70.3353,-79.9612,9925.61,1859.62,307.705,-21.2945,-14.6715,-3.60426
3.835,3764.11,2980.34,9088.18,0.732013,-63.0141,-16.9825,15256.1,-1942.53,19015.0,116.877,270.28,-153.658,-278.456,10489.2,447.881,-26.582,-45.3512,-42.6791,-5993.04,-22440.0,1411.18,-78.3633,-24.6825,-367.351,1505.44,10014.5,-1295.27,-8.86808,-61.8714,-69.2295,8372.89,6575.25,2538.4,-122.167,70.3329,-78.9263,9930.04,1893.78,290.847,-21.8236,-15.4368,-3.68687
3.8355,3767.22,2986.12,9086.75,0.746011,-63.2097,-16.7429,15465.6,-1925.47,19136.8,116.011,268.811,-154.461,-281.852,10511.0,441.076,-26.7057,-45.1036,-42.9293,-6082.9,-22495.8,1310.4,-78.1811,-25.4651,-367.425,1537.99,10037.3,-1279.54,-8.95439,-61.786,-69.2126,8160.43,6625.86,2390.01,-122.981,70.3305,-77.8914,9934.47,1927.94,273.989,-22.3527,-16.2021,-3.76948
3.836,3778.58,2980.05,9088.95,0.756862,-63.3696,-16.5267,15727.1,-1932.1,19052.2,115.183,267.856,-155.394,-291.475,10529.2,422.98,-26.7913,-44.8598,-43.2054,-6198.39,-22515.5,1223.86,-78.263,-26.1284,-367.538,1563.24,10056.4,-1252.69,-9.02225,-61.7477,-69.1184,7882.2,6622.32,2216.38,-122.156,70.9125,-76.9261,9922.34,1953.58,274.267,-23.0058,-16.8644,-3.89153
3.8365,3790.97,2972.51,9091.61,0.767318,-63.5249,-16.3135,15995.2,-1941.7,18941.9,114.361,266.965,-156.343,-301.876,10547.0,403.472,-26.8721,-44.6166,-43.4847,-6317.08,-22530.7,1139.1,-78.378,-26.7769,-367.656,1587.59,10074.9,-1224.44,-9.0878,-61.7152,-69.0145,7595.73,6612.0,2039.59,-121.127,71.5676,-75.9694,9908.15,1978.15,276.687,-23.6745,-17.5139,-4.01851
3.837,3803.36,2964.96,9094.26,0.777775,-63.6803,-16.1003,16263.3,-1951.29,18831.6,113.538,266.075,-157.292,-312.277,10564.8,383.965,-26.9529,-44.3733,-43.764,-6435.77,-22545.9,1054.34,-78.4929,-27.4253,-367.774,1611.94,10093.5,-1196.19,-9.15336,-61.6827,-68.9106,7309.27,6601.68,1862.81,-120.098,72.2226,-75.0128,9893.95,2002.72,279.107,-24.3432,-18.1634,-4.14549
3.8375,3815.74,2957.41,9096.91,0.788232,-63.8356,-15.887,16531.3,-1960.88,18721.3,112.715,265.184,-158.241,-322.678,10582.6,364.457,-27.0337,-44.1301,-44.0433,-6554.46,-22561.1,969.576,-78.6079,-28.0738,-367.891,1636.29,10112.0,-1167.94,-9.21892,-61.6502,-68.8067,7022.81,6591.36,1686.02,-119.069,72.8776,-74.0562,9879.76,2027.29,281.527,-25.0118,-18.8129,-4.27247
3.838,3828.13,2949.87,9099.56,0.798689,-63.991,-15.6738,16799.4,-1970.48,18611.0,111.892,264.293,-159.19,-333.079,10600.3,344.949,-27.1145,-43.8868,-44.3226,-6673.15,-22576.4,884.817,-78.7228,-28.7222,-368.009,1660.64,10130.6,-1139.69,-9.28447,-61.6177,-68.7028,6736.35,6581.04,1509.23,-118.04,73.5326,-73.0996,9865.57,2051.86,283.947,-25.6805,-19.4623,-4.39945
3.8385,3840.52,2942.32,9102.21,0.809146,-64.1463,-15.4606,17067.5,-1980.07,18500.6,111.07,263.402,-160.14,-343.48,10618.1,325.442,-27.1953,-43.6436,-44.6019,-6791.84,-22591.6,800.057,-78.8377,-29.3707,-368.127,1684.99,10149.1,-1111.44,-9.35003,-61.5852,-68.5989,6449.89,6570.72,1332.45,-117.012,74.1877,-72.143,9851.37,2076.43,286.367,-26.3492,-20.1118,-4.52643
3.839,3852.91,2934.78,9104.87,0.819603,-64.3017,-15.2473,17335.5,-1989.66,18390.3,110.247,262.512,-161.089,-353.881,10635.9,305.934,-27.2761,-43.4003,-44.8812,-6910.53,-22606.8,715.297,-78.9527,-30.0191,-368.244,1709.33,10167.7,-1083.19,-9.41559,-61.5527,-68.495,6163.42,6560.41,1155.66,-115.983,74.8427,-71.1863,9837.18,2101.0,288.787,-27.0178,-20.7613,-4.65342
3.8395,3865.3,2927.23,9107.52,0.830059,-64.457,-15.0341,17603.6,-1999.26,18280.0,109.424,261.621,-162.038,-364.282,10653.7,286.426,-27.3569,-43.1571,-45.1605,-7029.22,-22622.0,630.537,-79.0676,-30.6675,-368.362,1733.68,10186.2,-1054.94,-9.48114,-61.5202,-68.3911,5876.96,6550.09,978.872,-114.954,75.4977,-70.2297,9822.99,2125.57,291.207,-27.6865,-21.4107,-4.7804
3.84,3877.69,2919.68,9110.17,0.840516,-64.6124,-14.8209,17871.6,-2008.85,18169.7,108.601,260.73,-162.987,-374.683,10671.5,266.919,-27.4377,-42.9138,-45.4398,-7147.92,-22637.2,545.778,-79.1826,-31.316,-368.48,1758.03,10204.8,-1026.69,-9.5467,-61.4877,-68.2872,5590.5,6539.77,802.085,-113.925,76.1528,-69.2731,9808.79,2150.15,293.627,-28.3552,-22.0602,-4.90738
3.8405,3881.89,2916.05,9123.94,0.829708,-64.8178,-14.6541,18134.3,-2022.86,18044.0,108.46,260.113,-163.484,-368.639,10682.3,252.848,-27.5032,-42.7199,-45.6725,-7262.84,-22611.6,432.08,-79.446,-31.6991,-368.31,1778.76,10217.9,-1006.89,-9.62242,-61.5139,-68.1358,5328.81,6486.55,637.494,-111.551,77.5058,-68.1918,9784.8,2162.63,289.23,-28.7656,-22.641,-5.10027
3.841,3886.08,2912.42,9137.7,0.818899,-65.0233,-14.4874,18396.9,-2036.86,17918.2,108.318,259.497,-163.982,-362.595,10693.2,238.777,-27.5687,-42.526,-45.9051,-7377.77,-22586.0,318.383,-79.7094,-32.0822,-368.14,1799.48,10231.0,-987.099,-9.69813,-61.5401,-67.9844,5067.12,6433.34,472.903,-109.177,78.8589,-67.1105,9760.81,2175.11,284.833,-29.1761,-23.2219,-5.29317
3.8415,3890.28,2908.79,9151.46,0.808091,-65.2287,-14.3207,18659.5,-2050.86,17792.5,108.177,258.88,-164.479,-356.552,10704.1,224.707,-27.6341,-42.3321,-46.1378,-7492.69,-22560.4,204.685,-79.9727,-32.4652,-367.971,1820.21,10244.1,-967.305,-9.77385,-61.5663,-67.833,4805.43,6380.12,308.313,-106.803,80.2119,-66.0293,9736.82,2187.59,280.436,-29.5865,-23.8027,-5.48607
3.842,3894.48,2905.16,9165.23,0.797282,-65.4342,-14.154,18922.2,-2064.86,17666.7,108.035,258.263,-164.977,-350.508,10714.9,210.636,-27.6996,-42.1382,-46.3705,-7607.62,-22534.8,90.9876,-80.2361,-32.8483,-367.801,1840.94,10257.2,-947.51,-9.84957,-61.5925,-67.6815,4543.74,6326.9,143.722,-104.429,81.565,-64.948,9712.83,2200.07,276.039,-29.997,-24.3835,-5.67896
3.8425,3898.68,2901.53,9178.99,0.786474,-65.6396,-13.9873,19184.8,-2078.87,17541.0,107.893,257.646,-165.474,-344.464,10725.8,196.566,-27.7651,-41.9443,-46.6032,-7722.54,-22509.2,-22.7099,-80.4995,-33.2314,-367.632,1861.66,10270.3,-927.716,-9.92528,-61.6187,-67.5301,4282.04,6273.69,-20.8687,-102.055,82.918,-63.8667,9688.83,2212.55,271.642,-30.4074,-24.9643,-5.87186
3.843,3902.87,2897.9,9192.76,0.775665,-65.8451,-13.8206,19447.4,-2092.87,17415.3,107.752,257.03,-165.971,-338.421,10736.7,182.495,-27.8306,-41.7504,-46.8359,-7837.47,-22483.6,-136.407,-80.7629,-33.6145,-367.462,1882.39,10283.4,-907.921,-10.001,-61.6449,-67.3786,4020.35,6220.47,-185.459,-99.6816,84.2711,-62.7854,9664.84,2225.03,267.245,-30.8179,-25.5451,-6.06475
3.8435,3907.07,2894.27,9206.52,0.764857,-66.0505,-13.6539,19710.1,-2106.87,17289.5,107.61,256.413,-166.469,-332.377,10747.5,168.425,-27.896,-41.5565,-47.0686,-7952.39,-22458.0,-250.105,-81.0263,-33.9976,-367.293,1903.11,10296.5,-888.127,-10.0767,-61.6711,-67.2272,3758.66,6167.26,-350.05,-97.3078,85.6241,-61.7041,9640.85,2237.51,262.848,-31.2283,-26.1259,-6.25765
3.844,3911.27,2890.64,9220.29,0.754048,-66.256,-13.4871,19972.7,-2120.88,17163.8,107.469,255.796,-166.966,-326.333,10758.4,154.354,-27.9615,-41.3626,-47.3012,-8067.31,-22432.4,-363.802,-81.2897,-34.3806,-367.123,1923.84,10309.6,-868.332,-10.1524,-61.6973,-67.0758,3496.97,6114.04,-514.641,-94.9339,86.9772,-60.6228,9616.86,2249.99,258.451,-31.6388,-26.7067,-6.45054
3.8445,3915.43,2885.55,9231.34,0.748914,-66.4642,-13.3231,20229.7,-2139.93,17043.1,107.386,255.149,-167.377,-320.059,10768.7,140.241,-28.0268,-41.1726,-47.5284,-8183.23,-22407.9,-476.549,-81.5553,-34.7446,-366.914,1945.04,10322.4,-848.878,-10.2279,-61.7327,-66.9219,3241.8,6062.24,-665.722,-92.4812,88.2785,-59.515,9591.69,2267.63,256.415,-31.9948,-27.313,-6.64102
3.845,3919.29,2868.8,9220.69,0.78917,-66.6942,-13.1809,20441.4,-2199.38,16962.6,107.77,254.254,-167.094,-311.939,10774.5,125.788,-28.0913,-41.0139,-47.7118,-8307.07,-22391.9,-581.691,-81.8393,-34.9555,-366.386,1970.05,10333.3,-832.145,-10.3016,-61.8418,-66.7488,3038.79,6021.79,-708.726,-89.3969,89.1662,-58.1946,9557.07,2326.48,273.269,-31.9154,-28.123,-6.81211
3.8455,3923.15,2852.06,9210.04,0.829426,-66.9243,-13.0386,20653.2,-2258.83,16882.1,108.153,253.359,-166.811,-303.82,10780.4,111.335,-28.1558,-40.8553,-47.8952,-8430.9,-22375.8,-686.832,-82.1233,-35.1663,-365.858,1995.06,10344.2,-815.413,-10.3753,-61.9509,-66.5757,2835.77,5981.35,-751.73,-86.3127,90.0538,-56.8742,9522.45,2385.33,290.124,-31.836,-28.9329,-6.98321
3.846,3927.02,2835.32,9199.39,0.869683,-67.1543,-12.8963,20864.9,-2318.28,16801.5,108.537,252.464,-166.528,-295.7,10786.2,96.8822,-28.2203,-40.6966,-48.0786,-8554.74,-22359.8,-791.973,-82.4073,-35.3772,-365.33,2020.07,10355.1,-798.681,-10.449,-62.0599,-66.4026,2632.76,5940.9,-794.734,-83.2285,90.9415,-55.5537,9487.83,2444.18,306.979,-31.7565,-29.7429,-7.15431
3.8465,3930.88,2818.57,9188.74,0.909939,-67.3844,-12.754,21076.7,-2377.72,16721.0,108.921,251.569,-166.245,-287.58,10792.0,82.4291,-28.2848,-40.5379,-48.262,-8678.58,-22343.8,-897.115,-82.6913,-35.5881,-364.802,2045.08,10366.0,-781.948,-10.5227,-62.169,-66.2295,2429.74,5900.45,-837.739,-80.1442,91.8291,-54.2333,9453.21,2503.03,323.833,-31.6771,-30.5529,-7.32541
3.847,3934.74,2801.83,9178.09,0.950195,-67.6144,-12.6117,21288.5,-2437.17,16640.5,109.305,250.674,-165.962,-279.461,10797.8,67.9761,-28.3492,-40.3792,-48.4454,-8802.41,-22327.8,-1002.26,-82.9753,-35.799,-364.274,2070.08,10376.9,-765.216,-10.5964,-62.278,-66.0564,2226.73,5860.0,-880.743,-77.06,92.7168,-52.9129,9418.59,2561.88,340.688,-31.5977,-31.3628,-7.4965
3.8475,3938.6,2785.08,9167.44,0.990452,-67.8444,-12.4694,21500.2,-2496.62,16560.0,109.689,249.779,-165.679,-271.341,10803.6,53.5231,-28.4137,-40.2205,-48.6288,-8926.25,-22311.8,-1107.4,-83.2592,-36.0098,-363.747,2095.09,10387.8,-748.483,-10.67,-62.3871,-65.8833,2023.71,5819.55,-923.747,-73.9758,93.6044,-51.5925,9383.97,2620.73,357.543,-31.5182,-32.1728,-7.6676
3.848,3942.47,2768.34,9156.79,1.03071,-68.0745,-12.3271,21712.0,-2556.07,16479.5,110.073,248.884,-165.397,-263.222,10809.4,39.0701,-28.4782,-40.0618,-48.8122,-9050.08,-22295.7,-1212.54,-83.5432,-36.2207,-363.219,2120.1,10398.6,-731.751,-10.7437,-62.4962,-65.7103,1820.7,5779.1,-966.751,-70.8916,94.4921,-50.2721,9349.36,2679.58,374.397,-31.4388,-32.9828,-7.8387
3.8485,3946.33,2751.6,9146.14,1.07096,-68.3045,-12.1848,21923.7,-2615.52,16399.0,110.457,247.989,-165.114,-255.102,10815.3,24.6171,-28.5427,-39.9031,-48.9956,-9173.92,-22279.7,-1317.68,-83.8272,-36.4316,-362.691,2145.11,10409.5,-715.018,-10.8174,-62.6052,-65.5371,1617.68,5738.65,-1009.76,-67.8073,95.3797,-48.9516,9314.74,2738.43,391.252,-31.3594,-33.7927,-8.0098
3.849,3946.99,2736.94,9138.09,1.12198,-68.5396,-12.038,22120.2,-2679.15,16313.1,110.908,247.025,-164.734,-248.166,10822.7,12.621,-28.6124,-39.7548,-49.1928,-9300.49,-22269.2,-1406.44,-84.0766,-36.6516,-362.054,2169.54,10422.8,-699.26,-10.8945,-62.7194,-65.347,1426.31,5701.28,-1027.59,-64.7931,96.0557,-47.6617,9279.17,2788.41,407.787,-31.3644,-34.593,-8.16547
3.8495,3936.44,2729.6,9139.12,1.21064,-68.792,-11.8753,22263.1,-2757.41,16208.6,111.594,245.82,-164.016,-245.372,10835.6,9.22392,-28.7005,-39.6427,-49.438,-9436.64,-22278.1,-1437.86,-84.2049,-36.9033,-361.038,2191.95,10444.4,-686.91,-10.9833,-62.8517,-65.0973,1275.68,5674.66,-957.308,-62.0241,95.9905,-46.4786,9240.29,2807.36,423.202,-31.665,-35.3593,-8.26718
3.85,3925.89,2722.26,9140.16,1.2993,-69.0445,-11.7127,22406.1,-2835.67,16104.1,112.28,244.615,-163.298,-242.577,10848.5,5.8269,-28.7886,-39.5307,-49.6832,-9572.78,-22286.9,-1469.28,-84.3333,-37.1551,-360.021,2214.36,10466.0,-674.56,-11.0722,-62.984,-64.8475,1125.05,5648.03,-887.03,-59.2551,95.9254,-45.2956,9201.41,2826.31,438.618,-31.9655,-36.1256,-8.36889
3.8505,3915.35,2714.91,9141.2,1.38796,-69.2969,-11.5501,22549.0,-2913.93,15999.5,112.965,243.41,-162.58,-239.783,10861.4,2.42987,-28.8766,-39.4186,-49.9284,-9708.92,-22295.7,-1500.7,-84.4616,-37.4069,-359.004,2236.77,10487.6,-662.21,-11.1611,-63.1163,-64.5977,974.424,5621.41,-816.752,-56.4861,95.8603,-44.1125,9162.53,2845.26,454.033,-32.2661,-36.892,-8.4706
3.851,3904.8,2707.57,9142.24,1.47662,-69.5494,-11.3874,22692.0,-2992.19,15895.0,113.651,242.205,-161.862,-236.989,10874.3,-0.96716,-28.9647,-39.3065,-50.1737,-9845.07,-22304.6,-1532.12,-84.59,-37.6586,-357.987,2259.18,10509.2,-649.861,-11.2499,-63.2486,-64.348,823.796,5594.79,-746.474,-53.717,95.7952,-42.9294,9123.65,2864.21,469.448,-32.5667,-37.6583,-8.57232
3.8515,3894.25,2700.23,9143.27,1.56528,-69.8018,-11.2248,22834.9,-3070.46,15790.5,114.337,241.0,-161.144,-234.194,10887.3,-4.36419,-29.0528,-39.1945,-50.4189,-9981.21,-22313.4,-1563.54,-84.7183,-37.9104,-356.971,2281.59,10530.8,-637.511,-11.3388,-63.3809,-64.0982,673.168,5568.17,-676.196,-50.948,95.73,-41.7463,9084.77,2883.16,484.864,-32.8672,-38.4246,-8.67403
3.852,3883.7,2692.89,9144.31,1.65394,-70.0543,-11.0621,22977.8,-3148.72,15686.0,115.022,239.794,-160.426,-231.4,10900.2,-7.76122,-29.1409,-39.0824,-50.6641,-10117.4,-22322.3,-1594.97,-84.8466,-38.1622,-355.954,2303.99,10552.4,-625.161,-11.4277,-63.5132,-63.8485,522.539,5541.54,-605.918,-48.179,95.6649,-40.5632,9045.89,2902.11,500.279,-33.1678,-39.191,-8.77574
3.8525,3873.15,2685.54,9145.35,1.7426,-70.3067,-10.8995,23120.8,-3226.98,15581.4,115.708,238.589,-159.708,-228.606,10913.1,-11.1582,-29.2289,-38.9704,-50.9093,-10253.5,-22331.1,-1626.39,-84.9749,-38.414,-354.937,2326.4,10574.0,-612.811,-11.5165,-63.6455,-63.5987,371.911,5514.92,-535.64,-45.41,95.5998,-39.3801,9007.01,2921.06,515.695,-33.4684,-39.9573,-8.87745
3.853,3862.61,2678.2,9146.39,1.83126,-70.5592,-10.7369,23263.7,-3305.24,15476.9,116.394,237.384,-158.99,-225.812,10926.0,-14.5553,-29.317,-38.8583,-51.1546,-10389.6,-22340.0,-1657.81,-85.1033,-38.6657,-353.92,2348.81,10595.6,-600.461,-11.6054,-63.7778,-63.3489,221.283,5488.3,-465.362,-42.6409,95.5346,-38.197,8968.13,2940.01,531.11,-33.769,-40.7236,-8.97916
3.8535,3854.18,2660.98,9147.21,1.86336,-70.8051,-10.612,23397.2,-3388.96,15361.0,117.036,236.12,-158.258,-225.847,10936.4,-22.0229,-29.3891,-38.765,-51.4205,-10537.9,-22367.1,-1666.85,-85.192,-38.9109,-352.831,2370.99,10613.6,-590.328,-11.7096,-63.8976,-63.0826,74.0642,5459.56,-360.547,-40.1318,94.9649,-37.1398,8923.21,2968.96,553.083,-34.0529,-41.4828,-9.06413
3.854,3850.01,2624.02,9147.59,1.78234,-71.038,-10.5627,23511.6,-3483.59,15222.4,117.591,234.736,-157.498,-231.542,10941.6,-37.6315,-29.4293,-38.7092,-51.7279,-10710.5,-22430.8,-1631.14,-85.2015,-39.1427,-351.596,2392.72,10624.5,-584.629,-11.8445,-63.9922,-62.7832,-66.3364,5426.58,-186.656,-38.1425,93.3862,-36.3343,8866.19,3017.92,588.169,-34.3034,-42.2277,-9.11562
3.8545,3845.83,2587.06,9147.97,1.70132,-71.271,-10.5134,23626.0,-3578.21,15083.7,118.146,233.353,-156.737,-237.238,10946.8,-53.2402,-29.4695,-38.6535,-52.0353,-10883.2,-22494.4,-1595.42,-85.2109,-39.3745,-350.362,2414.45,10635.4,-578.93,-11.9795,-64.0868,-62.4839,-206.737,5393.61,-12.7648,-36.1532,91.8074,-35.5289,8809.17,3066.88,623.256,-34.554,-42.9726,-9.16711
3.855,3841.66,2550.1,9148.35,1.6203,-71.5039,-10.4642,23740.4,-3672.84,14945.1,118.701,231.969,-155.977,-242.933,10952.1,-68.8489,-29.5097,-38.5977,-52.3426,-11055.8,-22558.1,-1559.71,-85.2204,-39.6064,-349.127,2436.18,10646.3,-573.231,-12.1144,-64.1814,-62.1845,-347.138,5360.63,161.126,-34.1639,90.2286,-34.7234,8752.16,3115.85,658.342,-34.8046,-43.7175,-9.2186
3.8555,3837.48,2513.14,9148.73,1.53928,-71.7368,-10.4149,23854.9,-3767.46,14806.4,119.256,230.585,-155.216,-248.628,10957.3,-84.4576,-29.55,-38.5419,-52.65,-11228.4,-22621.8,-1523.99,-85.2299,-39.8382,-347.892,2457.9,10657.2,-567.532,-12.2493,-64.2761,-61.8851,-487.538,5327.66,335.017,-32.1746,88.6498,-33.9179,8695.14,3164.81,693.429,-35.0552,-44.4624,-9.27009
3.856,3833.3,2476.18,9149.12,1.45826,-71.9697,-10.3656,23969.3,-3862.09,14667.8,119.811,229.202,-154.456,-254.324,10962.5,-100.066,-29.5902,-38.4861,-52.9574,-11401.0,-22685.4,-1488.28,-85.2393,-40.0701,-346.658,2479.63,10668.1,-561.833,-12.3843,-64.3707,-61.5857,-627.939,5294.69,508.908,-30.1853,87.071,-33.1125,8638.13,3213.77,728.515,-35.3058,-45.2073,-9.32158
3.8565,3829.13,2439.21,9149.5,1.37724,-72.2026,-10.3163,24083.7,-3956.72,14529.1,120.366,227.818,-153.696,-260.019,10967.7,-115.675,-29.6304,-38.4304,-53.2648,-11573.6,-22749.1,-1452.57,-85.2488,-40.3019,-345.423,2501.36,10679.0,-556.134,-12.5192,-64.4653,-61.2863,-768.339,5261.71,682.799,-28.196,85.4923,-32.307,8581.11,3262.73,763.602,-35.5564,-45.9522,-9.37307
3.857,3824.95,2402.25,9149.88,1.29622,-72.4355,-10.267,24198.1,-4051.34,14390.5,120.921,226.435,-152.935,-265.714,10973.0,-131.284,-29.6706,-38.3746,-53.5722,-11746.2,-22812.7,-1416.85,-85.2582,-40.5338,-344.188,2523.09,10689.8,-550.434,-12.6541,-64.5599,-60.9869,-908.74,5228.74,856.69,-26.2066,83.9135,-31.5015,8524.1,3311.7,798.688,-35.8069,-46.6971,-9.42456
3.8575,3820.78,2365.29,9150.26,1.2152,-72.6684,-10.2177,24312.5,-4145.97,14251.8,121.476,225.051,-152.175,-271.41,10978.2,-146.892,-29.7108,-38.3188,-53.8795,-11918.8,-22876.4,-1381.14,-85.2677,-40.7656,-342.954,2544.81,10700.7,-544.735,-12.7891,-64.6546,-60.6875,-1049.14,5195.76,1030.58,-24.2173,82.3347,-30.6961,8467.08,3360.66,833.775,-36.0575,-47.442,-9.47605
3.858,3832.32,2347.06,9152.09,1.17127,-72.896,-10.2213,24433.9,-4240.64,14114.1,121.976,223.604,-151.381,-274.714,10979.8,-151.585,-29.8033,-38.2552,-54.169,-12085.5,-22941.2,-1325.8,-85.2443,-40.8853,-341.653,2575.15,10710.9,-544.085,-12.9166,-64.7395,-60.3962,-1190.52,5174.82,1210.23,-22.6004,80.1235,-30.0821,8408.08,3403.32,861.003,-36.2825,-48.1765,-9.51821
3.8585,3863.5,2352.23,9155.72,1.17369,-73.1171,-10.2911,24564.0,-4335.36,13977.7,122.409,222.078,-150.544,-275.029,10976.9,-142.634,-29.9614,-38.1819,-54.4359,-12244.9,-23007.4,-1245.92,-85.1796,-40.8649,-340.269,2616.26,10720.1,-549.745,-13.0348,-64.8124,-60.115,-1333.14,5168.93,1397.08,-21.449,77.1219,-29.7075,8346.61,3438.1,878.408,-36.4753,-48.8979,-9.54872
3.859,3894.68,2357.41,9159.35,1.17612,-73.3382,-10.3608,24694.1,-4430.08,13841.2,122.841,220.552,-149.708,-275.343,10974.0,-133.683,-30.1194,-38.1085,-54.7028,-12404.3,-23073.7,-1166.05,-85.115,-40.8445,-338.885,2657.37,10729.3,-555.406,-13.153,-64.8852,-59.8338,-1475.75,5163.04,1583.92,-20.2976,74.1202,-29.3329,8285.14,3472.88,895.813,-36.6682,-49.6193,-9.57922
3.8595,3925.86,2362.58,9162.98,1.17855,-73.5593,-10.4305,24824.3,-4524.8,13704.8,123.274,219.026,-148.872,-275.658,10971.0,-124.731,-30.2774,-38.0352,-54.9698,-12563.7,-23139.9,-1086.17,-85.0504,-40.8241,-337.501,2698.48,10738.6,-561.066,-13.2713,-64.9581,-59.5526,-1618.36,5157.15,1770.77,-19.1462,71.1186,-28.9583,8223.67,3507.65,913.218,-36.861,-50.3407,-9.60973
3.86,3957.05,2367.76,9166.61,1.18097,-73.7803,-10.5003,24954.4,-4619.52,13568.3,123.707,217.5,-148.035,-275.973,10968.1,-115.78,-30.4354,-37.9618,-55.2367,-12723.1,-23206.1,-1006.29,-84.9858,-40.8036,-336.117,2739.59,10747.8,-566.727,-13.3895,-65.031,-59.2714,-1760.98,5151.26,1957.61,-17.9948,68.1169,-28.5837,8162.2,3542.43,930.623,-37.0539,-51.0622,-9.64023
3.8605,3988.23,2372.93,9170.25,1.1834,-74.0014,-10.57,25084.5,-4714.24,13431.9,124.139,215.974,-147.199,-276.288,10965.2,-106.828,-30.5934,-37.8885,-55.5037,-12882.5,-23272.4,-926.417,-84.9212,-40.7832,-334.733,2780.7,10757.0,-572.387,-13.5077,-65.1038,-58.9902,-1903.59,5145.36,2144.46,-16.8434,65.1152,-28.2091,8100.73,3577.21,948.028,-37.2468,-51.7836,-9.67074
3.861,4019.41,2378.11,9173.88,1.18583,-74.2225,-10.6398,25214.6,-4808.96,13295.4,124.572,214.448,-146.363,-276.603,10962.3,-97.8768,-30.7514,-37.8151,-55.7706,-13041.9,-23338.6,-846.542,-84.8566,-40.7628,-333.35,2821.81,10766.2,-578.048,-13.6259,-65.1767,-58.709,-2046.21,5139.47,2331.31,-15.692,62.1136,-27.8345,8039.25,3611.99,965.433,-37.4396,-52.505,-9.70125
3.8615,4050.6,2383.28,9177.51,1.18825,-74.4436,-10.7095,25344.7,-4903.68,13158.9,125.004,212.922,-145.526,-276.918,10959.4,-88.9253,-30.9095,-37.7417,-56.0376,-13201.3,-23404.8,-766.666,-84.792,-40.7424,-331.966,2862.92,10775.5,-583.708,-13.7442,-65.2496,-58.4278,-2188.82,5133.58,2518.15,-14.5406,59.1119,-27.4599,7977.78,3646.77,982.838,-37.6325,-53.2264,-9.73175
3.862,4081.78,2388.46,9181.14,1.19068,-74.6647,-10.7792,25474.8,-4998.4,13022.5,125.437,211.396,-144.69,-277.233,10956.5,-79.9739,-31.0675,-37.6684,-56.3045,-13360.7,-23471.1,-686.79,-84.7274,-40.722,-330.582,2904.03,10784.7,-589.368,-13.8624,-65.3224,-58.1466,-2331.43,5127.69,2705.0,-13.3891,56.1103,-27.0853,7916.31,3681.55,1000.24,-37.8254,-53.9479,-9.76226
3.8625,4097.09,2403.19,9177.17,1.20397,-74.8243,-10.7104,25628.5,-5078.49,12885.7,126.014,209.783,-143.775,-274.291,10957.2,-73.64,-31.2258,-37.6341,-56.6068,-13536.1,-23558.8,-604.665,-84.6535,-40.4204,-329.205,2950.79,10786.8,-605.727,-13.9593,-65.3992,-57.8851,-2489.9,5128.44,2891.53,-12.5985,52.9044,-27.0338,7855.17,3714.51,1009.39,-37.9049,-54.5344,-9.87849
3.863,4099.69,2425.57,9167.11,1.22594,-74.9349,-10.5308,25801.0,-5146.88,12748.8,126.707,208.102,-142.796,-268.744,10960.8,-69.4,-31.3845,-37.6311,-56.9374,-13724.3,-23663.8,-520.741,-84.5723,-39.8941,-327.833,3002.08,10783.1,-630.645,-14.0391,-65.479,-57.6394,-2661.05,5134.52,3077.82,-12.0965,49.5352,-27.2409,7794.29,3746.02,1011.92,-37.8939,-55.013,-10.0633
3.8635,4102.3,2447.94,9157.06,1.24792,-75.0454,-10.3511,25973.5,-5215.26,12611.8,127.4,206.42,-141.818,-263.197,10964.4,-65.1601,-31.5432,-37.6282,-57.268,-13912.5,-23768.8,-436.817,-84.491,-39.3677,-326.461,3053.36,10779.5,-655.562,-14.1189,-65.5587,-57.3937,-2832.21,5140.59,3264.1,-11.5945,46.1659,-27.448,7733.41,3777.53,1014.46,-37.8829,-55.4917,-10.2481
3.864,4104.91,2470.32,9147.0,1.2699,-75.1559,-10.1714,26146.1,-5283.65,12474.8,128.093,204.738,-140.839,-257.65,10968.1,-60.9202,-31.7018,-37.6252,-57.5986,-14100.7,-23873.7,-352.893,-84.4097,-38.8413,-325.089,3104.65,10775.8,-680.48,-14.1987,-65.6385,-57.148,-3003.36,5146.66,3450.38,-11.0925,42.7967,-27.6551,7672.53,3809.04,1016.99,-37.8718,-55.9703,-10.4329
3.8645,4107.51,2492.69,9136.94,1.29188,-75.2664,-9.99176,26318.6,-5352.03,12337.8,128.786,203.056,-139.861,-252.103,10971.7,-56.6802,-31.8605,-37.6222,-57.9293,-14288.9,-23978.7,-268.969,-84.3285,-38.3149,-323.717,3155.93,10772.2,-705.397,-14.2785,-65.7183,-56.9023,-3174.51,5152.74,3636.67,-10.5905,39.4275,-27.8622,7611.65,3840.54,1019.53,-37.8608,-56.449,-10.6177
3.865,4110.12,2515.07,9126.89,1.31385,-75.377,-9.8121,26491.1,-5420.42,12200.9,129.479,201.374,-138.883,-246.556,10975.3,-52.4403,-32.0192,-37.6192,-58.2599,-14477.1,-24083.6,-185.045,-84.2472,-37.7885,-322.345,3207.22,10768.5,-730.315,-14.3583,-65.7981,-56.6565,-3345.67,5158.81,3822.95,-10.0884,36.0582,-28.0693,7550.77,3872.05,1022.07,-37.8497,-56.9276,-10.8025
3.8655,4112.73,2537.44,9116.83,1.33583,-75.4875,-9.63243,26663.7,-5488.8,12063.9,130.172,199.692,-137.904,-241.009,10979.0,-48.2004,-32.1778,-37.6162,-58.5905,-14665.3,-24188.6,-101.121,-84.166,-37.2621,-320.973,3258.5,10764.9,-755.232,-14.4381,-65.8779,-56.4108,-3516.82,5164.88,4009.23,-9.58644,32.689,-28.2764,7489.89,3903.56,1024.6,-37.8387,-57.4063,-10.9873
3.866,4115.33,2559.82,9106.77,1.35781,-75.598,-9.45277,26836.2,-5557.19,11926.9,130.864,198.01,-136.926,-235.462,10982.6,-43.9605,-32.3365,-37.6132,-58.9211,-14853.5,-24293.6,-17.1967,-84.0847,-36.7357,-319.601,3309.78,10761.3,-780.15,-14.5179,-65.9577,-56.1651,-3687.97,5170.96,4195.52,-9.08442,29.3198,-28.4835,7429.01,3935.07,1027.14,-37.8277,-57.8849,-11.1722
3.8665,4117.94,2582.19,9096.72,1.37978,-75.7085,-9.27311,27008.7,-5625.57,11789.9,131.557,196.328,-135.947,-229.915,10986.2,-39.7205,-32.4951,-37.6102,-59.2517,-15041.7,-24398.5,66.7273,-84.0035,-36.2093,-318.229,3361.07,10757.6,-805.068,-14.5977,-66.0376,-55.9194,-3859.13,5177.03,4381.8,-8.58241,25.9505,-28.6906,7368.13,3966.58,1029.67,-37.8166,-58.3636,-11.357
3.867,4117.92,2573.95,9089.68,1.48296,-75.8894,-9.15956,27225.9,-5681.27,11623.3,131.961,194.744,-134.9,-222.279,10978.9,-28.6202,-32.6816,-37.6667,-59.5873,-15191.6,-24474.0,158.459,-83.9423,-35.5537,-316.808,3412.41,10734.2,-833.878,-14.7017,-66.0524,-55.6864,-4054.61,5194.63,4552.76,-8.37731,23.2119,-29.2581,7320.64,3977.3,1033.03,-38.0803,-58.7865,-11.557
3.8675,4116.59,2550.4,9084.16,1.62673,-76.1055,-9.07907,27465.4,-5730.62,11441.8,132.219,193.209,-133.819,-213.597,10966.1,-14.0897,-32.882,-37.7529,-59.9254,-15322.4,-24534.7,254.094,-83.8912,-34.8333,-315.362,3463.79,10700.8,-864.634,-14.8179,-66.0348,-55.4597,-4262.25,5217.99,4716.06,-8.32066,20.7885,-30.0059,7279.83,3977.63,1036.8,-38.4815,-59.1815,-11.7647
3.868,4115.26,2526.84,9078.63,1.77051,-76.3216,-8.99858,27704.9,-5779.97,11260.3,132.478,191.673,-132.737,-204.916,10953.3,0.440762,-33.0825,-37.8391,-60.2635,-15453.2,-24595.5,349.729,-83.8401,-34.113,-313.915,3515.16,10667.5,-895.39,-14.934,-66.0173,-55.233,-4469.89,5241.35,4879.36,-8.26401,18.3651,-30.7536,7239.02,3977.96,1040.58,-38.8826,-59.5766,-11.9724
3.8685,4113.93,2503.29,9073.11,1.91428,-76.5377,-8.91809,27944.5,-5829.32,11078.8,132.737,190.138,-131.656,-196.235,10940.5,14.9713,-33.2829,-37.9253,-60.6017,-15584.0,-24656.2,445.365,-83.7889,-33.3926,-312.469,3566.54,10634.2,-926.147,-15.0501,-65.9997,-55.0063,-4677.53,5264.71,5042.66,-8.20736,15.9417,-31.5013,7198.21,3978.29,1044.35,-39.2837,-59.9716,-12.1801
3.869,4112.6,2479.74,9067.59,2.05806,-76.7538,-8.83759,28184.0,-5878.67,10897.4,132.995,188.603,-130.574,-187.553,10927.7,29.5018,-33.4833,-38.0115,-60.9398,-15714.8,-24716.9,541.0,-83.7378,-32.6723,-311.023,3617.91,10600.8,-956.903,-15.1663,-65.9821,-54.7796,-4885.17,5288.07,5205.96,-8.15071,13.5183,-32.2491,7157.4,3978.62,1048.12,-39.6848,-60.3667,-12.3878
3.8695,4111.27,2456.18,9062.06,2.20184,-76.9699,-8.7571,28423.5,-5928.02,10715.9,133.254,187.067,-129.493,-178.872,10914.9,44.0322,-33.6837,-38.0977,-61.2779,-15845.6,-24777.6,636.635,-83.6867,-31.9519,-309.576,3669.29,10567.5,-987.659,-15.2824,-65.9645,-54.5529,-5092.8,5311.43,5369.26,-8.09407,11.0949,-32.9968,7116.6,3978.96,1051.89,-40.0859,-60.7617,-12.5954
3.87,4109.93,2432.63,9056.54,2.34561,-77.186,-8.67661,28663.0,-5977.37,10534.4,133.512,185.532,-128.411,-170.19,10902.1,58.5627,-33.8841,-38.1839,-61.616,-15976.4,-24838.4,732.27,-83.6356,-31.2316,-308.13,3720.66,10534.2,-1018.42,-15.3986,-65.9469,-54.3262,-5300.45,5334.79,5532.56,-8.03742,8.67151,-33.7446,7075.79,3979.29,1055.67,-40.487,-61.1568,-12.8031
3.8705,4108.6,2409.08,9051.01,2.48939,-77.4021,-8.59612,28902.5,-6026.72,10352.9,133.771,183.997,-127.33,-161.509,10889.3,73.0932,-34.0845,-38.2701,-61.9541,-16107.2,-24899.1,827.905,-83.5845,-30.5112,-306.684,3772.04,10500.8,-1049.17,-15.5147,-65.9294,-54.0995,-5508.08,5358.15,5695.85,-7.98077,6.24812,-34.4923,7034.98,3979.62,1059.44,-40.8881,-61.5518,-13.0108
3.871,4107.27,2385.52,9045.49,2.63316,-77.6182,-8.51563,29142.1,-6076.07,10171.4,134.03,182.461,-126.248,-152.827,10876.4,87.6237,-34.2849,-38.3563,-62.2922,-16238.0,-24959.8,923.541,-83.5333,-29.7909,-305.237,3823.42,10467.5,-1079.93,-15.6309,-65.9118,-53.8728,-5715.73,5381.51,5859.15,-7.92412,3.82473,-35.2401,6994.17,3979.95,1063.21,-41.2892,-61.9469,-13.2185
3.8715,4105.96,2376.35,9040.5,2.78375,-77.8201,-8.46453,29401.7,-6107.73,9959.21,133.594,181.106,-125.291,-135.922,10864.7,89.7456,-34.3938,-38.2329,-62.6569,-16332.2,-24992.6,1041.52,-83.5302,-28.7921,-303.767,3875.26,10429.9,-1111.2,-15.6807,-65.7837,-53.628,-5939.21,5401.0,5831.24,-7.18574,2.88811,-35.9326,6940.6,3989.8,1043.23,-41.9452,-62.158,-13.2083
3.872,4104.66,2371.28,9035.67,2.93629,-78.0179,-8.42183,29667.0,-6134.33,9738.2,132.959,179.803,-124.368,-116.667,10853.2,88.322,-34.4765,-38.0495,-63.0292,-16416.0,-25017.3,1165.87,-83.5407,-27.7137,-302.289,3927.24,10391.1,-1142.62,-15.7116,-65.6242,-53.378,-6167.23,5419.39,5748.69,-6.25259,2.37629,-36.6093,6883.38,4002.38,1016.46,-42.6741,-62.3165,-13.1359
3.8725,4103.36,2366.21,9030.83,3.08883,-78.2158,-8.37913,29932.4,-6160.93,9517.19,132.325,178.499,-123.446,-97.4126,10841.7,86.8985,-34.5592,-37.8661,-63.4016,-16499.7,-25042.1,1290.23,-83.5512,-26.6353,-300.811,3979.22,10352.4,-1174.05,-15.7425,-65.4646,-53.128,-6395.25,5437.78,5666.13,-5.31943,1.86446,-37.2861,6826.16,4014.95,989.694,-43.4029,-62.475,-13.0634
3.873,4102.06,2361.14,9025.99,3.24137,-78.4136,-8.33643,30197.7,-6187.53,9296.17,131.691,177.195,-122.524,-78.1578,10830.2,85.475,-34.6419,-37.6827,-63.7739,-16583.5,-25066.9,1414.59,-83.5617,-25.5569,-299.333,4031.2,10313.6,-1205.47,-15.7733,-65.305,-52.878,-6623.27,5456.17,5583.58,-4.38628,1.35263,-37.9628,6768.94,4027.53,962.925,-44.1318,-62.6335,-12.991
3.8735,4100.76,2356.07,9021.16,3.39391,-78.6115,-8.29373,30463.0,-6214.13,9075.17,131.056,175.892,-121.602,-58.9031,10818.7,84.0515,-34.7246,-37.4993,-64.1462,-16667.3,-25091.6,1538.95,-83.5722,-24.4785,-297.855,4083.18,10274.8,-1236.89,-15.8042,-65.1454,-52.628,-6851.29,5474.55,5501.03,-3.45312,0.840799,-38.6395,6711.72,4040.1,936.157,-44.8606,-62.792,-12.9185
3.874,4099.46,2351.0,9016.32,3.54645,-78.8094,-8.25103,30728.4,-6240.74,8854.16,130.422,174.588,-120.68,-39.6483,10807.2,82.628,-34.8073,-37.316,-64.5185,-16751.0,-25116.4,1663.31,-83.5827,-23.4001,-296.378,4135.16,10236.1,-1268.31,-15.8351,-64.9859,-52.378,-7079.31,5492.94,5418.48,-2.51997,0.32897,-39.3162,6654.5,4052.68,909.389,-45.5895,-62.9505,-12.8461
3.8745,4098.15,2345.93,9011.48,3.69899,-79.0072,-8.20833,30993.7,-6267.34,8633.15,129.788,173.284,-119.757,-20.3935,10795.7,81.2044,-34.89,-37.1326,-64.8908,-16834.8,-25141.2,1787.66,-83.5932,-22.3217,-294.9,4187.14,10197.3,-1299.73,-15.866,-64.8263,-52.128,-7307.32,5511.33,5335.93,-1.58681,-0.182859,-39.993,6597.28,4065.25,882.62,-46.3183,-63.1091,-12.7736
3.875,4096.85,2340.86,9006.65,3.85153,-79.2051,-8.16563,31259.1,-6293.94,8412.13,129.153,171.981,-118.835,-1.13867,10784.3,79.7809,-34.9727,-36.9492,-65.2631,-16918.5,-25166.0,1912.02,-83.6038,-21.2434,-293.422,4239.12,10158.5,-1331.15,-15.8968,-64.6667,-51.878,-7535.34,5529.72,5253.38,-0.653658,-0.694688,-40.6697,6540.06,4077.83,855.852,-47.0472,-63.2676,-12.7012
3.8755,4095.55,2335.79,9001.81,4.00407,-79.4029,-8.12293,31524.4,-6320.54,8191.13,128.519,170.677,-117.913,18.1161,10772.8,78.3574,-35.0554,-36.7658,-65.6355,-17002.3,-25190.7,2036.38,-83.6143,-20.165,-291.944,4291.09,10119.7,-1362.58,-15.9277,-64.5071,-51.628,-7763.36,5548.11,5170.83,0.279497,-1.20652,-41.3464,6482.84,4090.4,829.084,-47.776,-63.4261,-12.6287
3.876,4101.63,2359.11,9006.4,4.17592,-79.583,-8.01405,31726.5,-6257.29,8023.06,127.717,169.279,-116.927,25.5432,10751.4,86.0938,-35.1977,-36.6317,-66.0965,-17017.4,-25183.9,2215.33,-83.6921,-18.9612,-290.51,4342.9,10075.0,-1391.71,-15.8062,-64.2204,-51.4048,-7937.8,5594.42,4696.12,3.74247,1.05644,-41.4718,6457.44,4069.58,784.357,-48.7183,-63.4233,-12.5028
3.8765,4108.63,2385.99,9012.18,4.3502,-79.7609,-7.89689,31920.6,-6182.81,7861.62,126.894,167.868,-115.934,31.4917,10728.8,94.9753,-35.3474,-36.5037,-66.5686,-17023.9,-25173.2,2401.11,-83.7783,-17.7418,-289.082,4394.68,10029.6,-1420.56,-15.6657,-63.9177,-51.185,-8105.55,5644.22,4172.38,7.52167,3.66624,-41.5284,6436.01,4044.58,737.385,-49.6873,-63.4004,-12.3701
3.877,4115.63,2412.87,9017.95,4.52447,-79.9388,-7.77974,32114.8,-6108.33,7700.17,126.071,166.458,-114.94,37.4403,10706.2,103.857,-35.4972,-36.3758,-67.0407,-17030.4,-25162.5,2586.89,-83.8645,-16.5224,-287.653,4446.46,9984.15,-1449.4,-15.5251,-63.615,-50.9652,-8273.29,5694.02,3648.65,11.3009,6.27604,-41.5849,6414.58,4019.58,690.413,-50.6562,-63.3774,-12.2374
3.8775,4122.63,2439.75,9023.72,4.69874,-80.1166,-7.66258,32309.0,-6033.85,7538.73,125.249,165.048,-113.946,43.3889,10683.6,112.738,-35.6469,-36.2478,-67.5128,-17037.0,-25151.8,2772.66,-83.9507,-15.303,-286.225,4498.25,9938.71,-1478.25,-15.3846,-63.3123,-50.7454,-8441.04,5743.82,3124.92,15.0801,8.88584,-41.6414,6393.15,3994.59,643.442,-51.6252,-63.3545,-12.1048
3.878,4129.64,2466.62,9029.49,4.87302,-80.2945,-7.54543,32503.1,-5959.37,7377.28,124.426,163.637,-112.952,49.3374,10661.0,121.62,-35.7966,-36.1198,-67.9849,-17043.5,-25141.1,2958.44,-84.037,-14.0836,-284.796,4550.03,9893.26,-1507.1,-15.2441,-63.0096,-50.5256,-8608.79,5793.62,2601.19,18.8593,11.4956,-41.6979,6371.72,3969.59,596.47,-52.5942,-63.3315,-11.9721
3.8785,4136.64,2493.5,9035.27,5.04729,-80.4724,-7.42828,32697.3,-5884.9,7215.83,123.603,162.227,-111.959,55.286,10638.4,130.501,-35.9464,-35.9919,-68.4571,-17050.0,-25130.3,3144.22,-84.1232,-12.8642,-283.368,4601.81,9847.82,-1535.95,-15.1035,-62.707,-50.3058,-8776.53,5843.42,2077.46,22.6385,14.1054,-41.7545,6350.29,3944.59,549.498,-53.5631,-63.3086,-11.8395
3.879,4143.64,2520.38,9041.04,5.22156,-80.6503,-7.31112,32891.5,-5810.42,7054.39,122.78,160.816,-110.965,61.2346,10615.8,139.382,-36.0961,-35.8639,-68.9292,-17056.5,-25119.6,3330.0,-84.2094,-11.6447,-281.939,4653.59,9802.38,-1564.79,-14.963,-62.4043,-50.086,-8944.28,5893.22,1553.73,26.4177,16.7152,-41.811,6328.86,3919.59,502.527,-54.5321,-63.2857,-11.7068
3.8795,4150.64,2547.26,9046.81,5.39584,-80.8281,-7.19397,33085.6,-5735.94,6892.94,121.957,159.406,-109.971,67.1831,10593.2,148.264,-36.2459,-35.7359,-69.4013,-17063.0,-25108.9,3515.77,-84.2956,-10.4253,-280.511,4705.38,9756.93,-1593.64,-14.8224,-62.1016,-49.8662,-9112.03,5943.02,1029.99,30.1969,19.325,-41.8675,6307.43,3894.6,455.555,-55.5011,-63.2627,-11.5741
3.88,4157.64,2574.13,9052.58,5.57011,-81.006,-7.07681,33279.8,-5661.46,6731.5,121.134,157.996,-108.978,73.1317,10570.6,157.145,-36.3956,-35.608,-69.8734,-17069.6,-25098.2,3701.55,-84.3818,-9.20592,-279.082,4757.16,9711.49,-1622.49,-14.6819,-61.7989,-49.6463,-9279.77,5992.82,506.263,33.9761,21.9348,-41.9241,6286.0,3869.6,408.583,-56.47,-63.2398,-11.4415
3.8805,4156.52,2572.65,9054.99,5.75665,-81.2116,-6.89183,33244.1,-5718.82,6688.64,120.923,156.134,-108.389,82.4722,10564.2,145.528,-36.5238,-35.4137,-70.3326,-17016.4,-25055.4,3805.86,-83.8718,-6.57136,-277.623,4807.42,9678.04,-1645.08,-14.499,-61.4786,-49.5058,-9353.5,6193.09,-139.186,39.2567,27.4274,-40.8551,6273.92,3876.15,342.806,-56.7388,-63.0674,-11.4038
3.881,4155.39,2571.16,9057.41,5.94318,-81.4173,-6.70685,33208.4,-5776.18,6645.78,120.711,154.272,-107.8,91.8126,10557.8,133.91,-36.6519,-35.2195,-70.7919,-16963.2,-25012.6,3910.16,-83.3618,-3.9368,-276.164,4857.67,9644.59,-1667.67,-14.3161,-61.1583,-49.3653,-9427.24,6393.36,-784.634,44.5373,32.92,-39.7862,6261.84,3882.7,277.028,-57.0076,-62.895,-11.3662
3.8815,4154.26,2569.67,9059.82,6.12972,-81.6229,-6.52186,33172.6,-5833.54,6602.92,120.5,152.41,-107.212,101.153,10551.4,122.293,-36.78,-35.0253,-71.2511,-16910.0,-24969.8,4014.46,-82.8518,-1.30223,-274.705,4907.93,9611.15,-1690.26,-14.1332,-60.8381,-49.2249,-9500.97,6593.63,-1430.08,49.8179,38.4125,-38.7173,6249.76,3889.25,211.251,-57.2763,-62.7225,-11.3286
3.882,4153.14,2568.19,9062.23,6.31625,-81.8285,-6.33688,33136.9,-5890.9,6560.06,120.288,150.548,-106.623,110.493,10545.0,110.675,-36.9082,-34.831,-71.7103,-16856.8,-24927.0,4118.77,-82.3418,1.33233,-273.246,4958.18,9577.7,-1712.84,-13.9503,-60.5178,-49.0844,-9574.7,6793.9,-2075.53,55.0985,43.9051,-37.6483,6237.68,3895.8,145.473,-57.5451,-62.5501,-11.291
3.8825,4152.01,2566.7,9064.64,6.50279,-82.0342,-6.1519,33101.2,-5948.26,6517.2,120.077,148.687,-106.034,119.834,10538.7,99.0578,-37.0363,-34.6368,-72.1696,-16803.6,-24884.2,4223.07,-81.8318,3.96689,-271.787,5008.44,9544.25,-1735.43,-13.7675,-60.1975,-48.9439,-9648.44,6994.17,-2720.98,60.3791,49.3977,-36.5794,6225.6,3902.35,79.6959,-57.8139,-62.3777,-11.2533
3.883,4150.88,2565.21,9067.06,6.68932,-82.2398,-5.96691,33065.5,-6005.62,6474.34,119.866,146.825,-105.446,129.174,10532.3,87.4403,-37.1644,-34.4426,-72.6288,-16750.4,-24841.5,4327.38,-81.3218,6.60146,-270.328,5058.69,9510.8,-1758.02,-13.5846,-59.8772,-48.8034,-9722.17,7194.44,-3366.43,65.6597,54.8902,-35.5104,6213.52,3908.91,13.9184,-58.0827,-62.2053,-11.2157
3.8835,4149.75,2563.73,9069.47,6.87586,-82.4454,-5.78193,33029.8,-6062.98,6431.48,119.654,144.963,-104.857,138.515,10525.9,75.8229,-37.2926,-34.2484,-73.0881,-16697.2,-24798.7,4431.68,-80.8118,9.23602,-268.869,5108.95,9477.36,-1780.61,-13.4017,-59.5569,-48.6629,-9795.9,7394.71,-4011.88,70.9403,60.3828,-34.4415,6201.44,3915.46,-51.8591,-58.3514,-62.0329,-11.1781
3.884,4148.63,2562.24,9071.88,7.06239,-82.6511,-5.59695,32994.0,-6120.34,6388.62,119.443,143.101,-104.268,147.855,10519.5,64.2054,-37.4207,-34.0541,-73.5473,-16644.0,-24755.9,4535.99,-80.3018,11.8706,-267.411,5159.2,9443.91,-1803.2,-13.2188,-59.2366,-48.5224,-9869.63,7594.98,-4657.32,76.2209,65.8754,-33.3726,6189.35,3922.01,-117.637,-58.6202,-61.8605,-11.1404
3.8845,4147.49,2561.35,9076.54,7.25767,-82.8582,-5.40676,32933.4,-6220.21,6344.02,119.25,141.219,-103.807,158.228,10513.9,53.0093,-37.551,-33.8588,-74.0153,-16595.2,-24708.3,4632.68,-79.701,14.5739,-265.897,5208.06,9411.56,-1826.89,-13.03,-58.9118,-48.3893,-9936.5,7806.23,-5278.7,81.3475,71.5119,-32.1935,6177.64,3927.38,-181.813,-58.7997,-61.6525,-11.1188
3.885,4146.32,2565.21,9099.18,7.52288,-83.0776,-5.17494,32673.0,-6660.12,6285.52,119.211,139.176,-104.361,176.855,10514.4,45.1848,-37.698,-33.6549,-74.5539,-16581.6,-24622.1,4668.5,-78.3739,17.8268,-263.945,5245.7,9387.94,-1859.4,-12.7934,-58.5505,-48.3157,-9948.4,8105.34,-5707.54,85.2425,78.3004,-30.1329,6168.81,3923.32,-233.185,-58.2653,-61.1599,-11.2247
3.8855,4145.14,2569.07,9121.81,7.78809,-83.2971,-4.94312,32412.7,-7100.04,6227.02,119.173,137.133,-104.916,195.483,10514.9,37.3603,-37.8451,-33.4511,-75.0925,-16567.9,-24536.0,4704.32,-77.0467,21.0797,-261.993,5283.35,9364.33,-1891.91,-12.5569,-58.1892,-48.2421,-9960.3,8404.46,-6136.37,89.1375,85.0889,-28.0724,6159.99,3919.27,-284.556,-57.7308,-60.6674,-11.3306
3.886,4143.97,2572.94,9144.45,8.0533,-83.5165,-4.71129,32152.4,-7539.95,6168.52,119.134,135.09,-105.47,214.111,10515.5,29.5358,-37.9922,-33.2472,-75.631,-16554.3,-24449.8,4740.14,-75.7196,24.3327,-260.041,5320.99,9340.72,-1924.42,-12.3203,-57.8279,-48.1684,-9972.2,8703.57,-6565.21,93.0324,91.8774,-26.0119,6151.16,3915.21,-335.927,-57.1964,-60.1748,-11.4366
3.8865,4142.79,2576.8,9167.09,8.3185,-83.7359,-4.47947,31892.1,-7979.87,6110.02,119.095,133.047,-106.025,232.738,10516.0,21.7114,-38.1393,-33.0433,-76.1696,-16540.7,-24363.7,4775.96,-74.3924,27.5856,-258.089,5358.64,9317.11,-1956.93,-12.0838,-57.4666,-48.0948,-9984.11,9002.68,-6994.04,96.9274,98.6659,-23.9514,6142.34,3911.15,-387.299,-56.662,-59.6823,-11.5425
3.887,4141.62,2580.67,9189.73,8.58371,-83.9553,-4.24765,31631.8,-8419.78,6051.51,119.056,131.004,-106.579,251.366,10516.6,13.8869,-38.2864,-32.8394,-76.7081,-16527.1,-24277.5,4811.78,-73.0653,30.8386,-256.137,5396.28,9293.5,-1989.44,-11.8472,-57.1053,-48.0212,-9996.01,9301.79,-7422.88,100.822,105.454,-21.8908,6133.51,3907.09,-438.67,-56.1275,-59.1897,-11.6484
3.8875,4140.44,2584.53,9212.36,8.84892,-84.1747,-4.01583,31371.5,-8859.69,5993.01,119.017,128.96,-107.134,269.994,10517.1,6.06236,-38.4335,-32.6356,-77.2467,-16513.5,-24191.4,4847.6,-71.7381,34.0915,-254.185,5433.93,9269.89,-2021.94,-11.6107,-56.744,-47.9476,-10007.9,9600.9,-7851.71,104.717,112.243,-19.8303,6124.69,3903.04,-490.041,-55.5931,-58.6971,-11.7543
3.888,4139.27,2588.39,9235.0,9.11413,-84.3941,-3.78401,31111.2,-9299.61,5934.51,118.978,126.917,-107.688,288.621,10517.7,-1.76214,-38.5806,-32.4317,-77.7852,-16499.8,-24105.2,4883.42,-70.411,37.3445,-252.233,5471.57,9246.28,-2054.45,-11.3742,-56.3827,-47.8739,-10019.8,9900.02,-8280.55,108.612,119.031,-17.7698,6115.87,3898.98,-541.413,-55.0587,-58.2046,-11.8603
3.8885,4138.09,2592.26,9257.64,9.37934,-84.6135,-3.55218,30850.8,-9739.52,5876.01,118.939,124.874,-108.243,307.249,10518.2,-9.58664,-38.7276,-32.2278,-78.3238,-16486.2,-24019.1,4919.24,-69.0838,40.5974,-250.281,5509.22,9222.66,-2086.96,-11.1376,-56.0214,-47.8003,-10031.7,10199.1,-8709.38,112.507,125.82,-15.7092,6107.04,3894.92,-592.784,-54.5242,-57.712,-11.9662
3.889,4134.23,2592.14,9278.64,9.64187,-84.8627,-3.3299,30591.7,-10200.3,5795.51,118.769,122.894,-108.916,323.354,10523.6,-20.8968,-38.8682,-32.0166,-78.8649,-16480.9,-23932.3,4993.77,-67.6306,43.5889,-248.308,5546.23,9200.03,-2114.72,-10.9091,-55.6331,-47.7369,-10024.5,10496.8,-9092.46,115.654,132.446,-13.4192,6103.68,3894.5,-632.124,-53.887,-57.197,-12.1055
3.8895,4120.95,2578.12,9293.93,9.89501,-85.216,-3.14098,30336.6,-10733.9,5638.05,118.139,121.134,-110.007,330.631,10545.9,-44.4067,-38.9859,-31.7799,-79.415,-16504.7,-23843.0,5203.79,-65.7362,45.6653,-246.262,5581.04,9180.83,-2125.82,-10.7086,-55.1504,-47.7095,-9950.37,10789.5,-9315.38,116.182,138.503,-10.3258,6119.44,3906.8,-629.356,-52.8902,-56.6033,-12.3618
3.89,4107.67,2564.09,9309.23,10.1482,-85.5693,-2.95207,30081.6,-11267.5,5480.58,117.51,119.374,-111.098,337.908,10568.1,-67.9166,-39.1035,-31.5431,-79.9651,-16528.4,-23753.8,5413.8,-63.8418,47.7417,-244.215,5615.84,9161.62,-2136.92,-10.5082,-54.6676,-47.682,-9876.24,11082.2,-9538.31,116.711,144.56,-7.23241,6135.19,3919.11,-626.587,-51.8933,-56.0096,-12.6181
3.8905,4094.39,2550.07,9324.52,10.4013,-85.9226,-2.76315,29826.5,-11801.1,5323.11,116.88,117.614,-112.189,345.184,10590.4,-91.4264,-39.2212,-31.3063,-80.5153,-16552.2,-23664.5,5623.81,-61.9474,49.8181,-242.169,5650.65,9142.42,-2148.02,-10.3077,-54.1849,-47.6546,-9802.12,11374.8,-9761.23,117.239,150.617,-4.13902,6150.95,3931.41,-623.819,-50.8965,-55.416,-12.8744
3.891,4081.1,2536.04,9339.81,10.6544,-86.2759,-2.57423,29571.5,-12334.8,5165.64,116.25,115.855,-113.281,352.461,10612.7,-114.936,-39.3389,-31.0695,-81.0654,-16575.9,-23575.3,5833.83,-60.0529,51.8945,-240.122,5685.45,9123.21,-2159.12,-10.1073,-53.7022,-47.6271,-9727.99,11667.5,-9984.16,117.767,156.674,-1.04562,6166.7,3943.72,-621.051,-49.8997,-54.8223,-13.1307
3.8915,4067.82,2522.02,9355.1,10.9076,-86.6292,-2.38532,29316.4,-12868.4,5008.18,115.62,114.095,-114.372,359.737,10635.0,-138.446,-39.4565,-30.8327,-81.6155,-16599.7,-23486.0,6043.84,-58.1585,53.9709,-238.076,5720.26,9104.0,-2170.22,-9.90683,-53.2195,-47.5996,-9653.86,11960.2,-10207.1,118.295,162.731,2.04777,6182.46,3956.03,-618.282,-48.9028,-54.2286,-13.387
3.892,4054.54,2507.99,9370.39,11.1607,-86.9825,-2.1964,29061.3,-13402.0,4850.71,114.99,112.335,-115.463,367.014,10657.3,-161.956,-39.5742,-30.5959,-82.1656,-16623.4,-23396.8,6253.85,-56.2641,56.0473,-236.029,5755.06,9084.8,-2181.32,-9.70637,-52.7367,-47.5722,-9579.73,12252.9,-10430.0,118.823,168.788,5.14116,6198.22,3968.33,-615.514,-47.906,-53.635,-13.6433
3.8925,4041.26,2493.97,9385.68,11.4139,-87.3358,-2.00749,28806.3,-13935.6,4693.24,114.36,110.575,-116.554,374.29,10679.6,-185.466,-39.6918,-30.3592,-82.7158,-16647.2,-23307.6,6463.87,-54.3697,58.1237,-233.982,5789.87,9065.59,-2192.42,-9.50592,-52.254,-47.5447,-9505.6,12545.6,-10652.9,119.352,174.845,8.23456,6213.97,3980.64,-612.745,-46.9091,-53.0413,-13.8996
3.893,4027.98,2479.94,9400.98,11.667,-87.6891,-1.81857,28551.2,-14469.3,4535.78,113.73,108.815,-117.645,381.567,10701.9,-208.976,-39.8095,-30.1224,-83.2659,-16670.9,-23218.3,6673.88,-52.4752,60.2001,-231.936,5824.67,9046.39,-2203.52,-9.30547,-51.7713,-47.5172,-9431.47,12838.2,-10875.9,119.88,180.902,11.328,6229.73,3992.94,-609.977,-45.9123,-52.4476,-14.1559
3.8935,4017.67,2465.08,9421.62,11.8897,-88.0559,-1.6315,28345.2,-14912.7,4366.39,113.033,107.113,-118.485,392.729,10728.1,-232.155,-39.8893,-29.8854,-83.8097,-16725.4,-23118.2,6897.8,-50.4933,61.7672,-229.788,5854.25,9034.12,-2209.25,-9.13372,-51.269,-47.4925,-9348.94,13083.8,-11052.3,119.572,186.25,14.3788,6249.37,4011.1,-588.751,-44.8929,-51.8554,-14.464
3.894,4013.29,2448.54,9452.97,12.0515,-88.4497,-1.44812,28237.3,-15175.9,4173.17,112.199,105.527,-118.825,411.662,10762.2,-254.671,-39.8932,-29.6481,-84.3409,-16841.4,-22996.3,7149.53,-48.3364,62.3155,-227.437,5873.38,9035.71,-2204.23,-9.01939,-50.7277,-47.4733,-9249.59,13235.0,-11135.6,117.594,190.18,17.3447,6276.77,4040.95,-530.611,-43.8285,-51.266,-14.8757
3.8945,4008.92,2432.0,9484.32,12.2133,-88.8435,-1.26473,28129.4,-15439.0,3979.96,111.365,103.941,-119.164,430.596,10796.4,-277.187,-39.8972,-29.4108,-84.8721,-16957.5,-22874.3,7401.26,-46.1795,62.8638,-225.085,5892.51,9037.31,-2199.21,-8.90506,-50.1864,-47.4541,-9150.25,13386.2,-11219.0,115.615,194.109,20.3106,6304.18,4070.8,-472.47,-42.7641,-50.6767,-15.2873
3.895,4004.54,2415.46,9515.67,12.3751,-89.2373,-1.08135,28021.5,-15702.1,3786.74,110.532,102.354,-119.503,449.529,10830.5,-299.704,-39.9012,-29.1735,-85.4032,-17073.5,-22752.4,7652.99,-44.0226,63.4121,-222.734,5911.64,9038.91,-2194.19,-8.79072,-49.6451,-47.4348,-9050.9,13537.4,-11302.3,113.636,198.039,23.2765,6331.59,4100.66,-414.33,-41.6997,-50.0873,-15.699
3.8955,4000.17,2398.91,9547.02,12.537,-89.6311,-0.897967,27913.6,-15965.3,3593.52,109.698,100.768,-119.843,468.462,10864.6,-322.22,-39.9051,-28.9363,-85.9344,-17189.5,-22630.5,7904.71,-41.8657,63.9604,-220.383,5930.77,9040.51,-2189.16,-8.67639,-49.1038,-47.4156,-8951.55,13688.6,-11385.7,111.657,201.969,26.2424,6359.0,4130.51,-356.19,-40.6353,-49.498,-16.1107
3.896,3995.79,2382.37,9578.36,12.6988,-90.0249,-0.714584,27805.6,-16228.4,3400.3,108.864,99.1817,-120.182,487.396,10898.7,-344.736,-39.9091,-28.699,-86.4656,-17305.5,-22508.6,8156.44,-39.7088,64.5087,-218.031,5949.9,9042.1,-2184.14,-8.56205,-48.5625,-47.3964,-8852.21,13839.9,-11469.0,109.678,205.899,29.2083,6386.4,4160.36,-298.05,-39.5709,-48.9086,-16.5223
3.8965,3991.41,2365.83,9609.71,12.8606,-90.4187,-0.5312,27697.7,-16491.6,3207.08,108.031,97.5954,-120.521,506.329,10932.9,-367.253,-39.9131,-28.4617,-86.9968,-17421.5,-22386.6,8408.17,-37.5519,65.0569,-215.68,5969.03,9043.7,-2179.12,-8.44772,-48.0212,-47.3772,-8752.86,13991.1,-11552.4,107.699,209.828,32.1743,6413.81,4190.22,-239.909,-38.5065,-48.3193,-16.934
3.897,3987.04,2349.29,9641.06,13.0224,-90.8125,-0.347817,27589.8,-16754.7,3013.86,107.197,96.0091,-120.861,525.262,10967.0,-389.769,-39.917,-28.2244,-87.5279,-17537.5,-22264.7,8659.9,-35.395,65.6052,-213.329,5988.16,9045.3,-2174.1,-8.33339,-47.4799,-47.3579,-8653.52,14142.3,-11635.7,105.721,213.758,35.1402,6441.22,4220.07,-181.769,-37.4421,-47.7299,-17.3457
3.8975,3982.66,2332.75,9672.41,13.1842,-91.2063,-0.164434,27481.9,-17017.8,2820.65,106.364,94.4228,-121.2,544.196,11001.1,-412.285,-39.921,-27.9871,-88.0591,-17653.5,-22142.8,8911.63,-33.2381,66.1535,-210.977,6007.29,9046.9,-2169.08,-8.21905,-46.9386,-47.3387,-8554.17,14293.5,-11719.1,103.742,217.688,38.1061,6468.63,4249.92,-123.629,-36.3777,-47.1406,-17.7574
3.898,3981.68,2303.32,9705.14,13.3499,-91.6551,0.00601226,27436.2,-17153.1,2656.44,105.571,92.9199,-121.123,558.477,11033.7,-442.92,-40.003,-27.7637,-88.6051,-17821.9,-22020.4,9102.92,-31.1579,66.1529,-208.605,6021.89,9055.78,-2167.21,-8.11232,-46.4058,-47.3454,-8461.87,14398.3,-11773.8,101.678,220.464,40.4583,6501.08,4271.6,-47.7588,-35.4428,-46.4726,-18.153
3.8985,3984.93,2257.76,9739.59,13.5203,-92.1725,0.160286,27468.2,-17128.5,2528.49,104.829,91.5212,-120.524,566.944,11064.4,-483.703,-40.1824,-27.5576,-89.1695,-18055.6,-21897.5,9218.65,-29.1734,65.466,-206.205,6030.84,9073.77,-2169.29,-8.0151,-45.8837,-47.3843,-8378.38,14445.0,-11792.8,99.5069,221.796,42.0433,6539.84,4283.06,50.2731,-34.6699,-45.7064,-18.5287
3.899,3988.19,2212.2,9774.05,13.6907,-92.69,0.314561,27500.2,-17103.9,2400.55,104.087,90.1225,-119.926,575.411,11095.1,-524.485,-40.3619,-27.3515,-89.734,-18289.3,-21774.6,9334.39,-27.189,64.7791,-203.806,6039.78,9091.76,-2171.36,-7.91788,-45.3615,-47.4233,-8294.89,14491.7,-11811.7,97.3361,223.129,43.6284,6578.59,4294.52,148.305,-33.897,-44.9402,-18.9044
3.8995,3991.44,2166.64,9808.5,13.8612,-93.2074,0.468835,27532.2,-17079.2,2272.61,103.345,88.7238,-119.327,583.878,11125.8,-565.268,-40.5414,-27.1454,-90.2984,-18523.0,-21651.7,9450.13,-25.2045,64.0922,-201.407,6048.72,9109.76,-2173.44,-7.82066,-44.8393,-47.4623,-8211.4,14538.4,-11830.7,95.1653,224.462,45.2135,6617.35,4305.98,246.337,-33.1241,-44.1739,-19.28
3.9,3994.7,2121.08,9842.96,14.0316,-93.7249,0.623109,27564.2,-17054.6,2144.66,102.603,87.3252,-118.729,592.345,11156.6,-606.051,-40.7208,-26.9393,-90.8629,-18756.7,-21528.7,9565.87,-23.2201,63.4053,-199.008,6057.67,9127.75,-2175.51,-7.72343,-44.3171,-47.5013,-8127.91,14585.1,-11849.6,92.9945,225.795,46.7986,6656.11,4317.44,344.369,-32.3512,-43.4077,-19.6557
3.9005,3997.95,2075.52,9877.41,14.202,-94.2424,0.777383,27596.2,-17030.0,2016.72,101.861,85.9265,-118.13,600.812,11187.3,-646.833,-40.9003,-26.7332,-91.4274,-18990.4,-21405.8,9681.6,-21.2357,62.7184,-196.608,6066.61,9145.74,-2177.59,-7.62621,-43.7949,-47.5403,-8044.42,14631.8,-11868.6,90.8237,227.128,48.3836,6694.87,4328.9,442.401,-31.5783,-42.6415,-20.0313
3.901,4001.21,2029.96,9911.86,14.3725,-94.7598,0.931657,27628.2,-17005.4,1888.78,101.12,84.5278,-117.532,609.279,11218.0,-687.616,-41.0798,-26.5271,-91.9918,-19224.1,-21282.9,9797.34,-19.2512,62.0315,-194.209,6075.55,9163.73,-2179.66,-7.52899,-43.2728,-47.5793,-7960.93,14678.4,-11887.5,88.653,228.461,49.9687,6733.62,4340.36,540.432,-30.8054,-41.8753,-20.407
3.9015,4004.47,1984.4,9946.32,14.5429,-95.2773,1.08593,27660.2,-16980.8,1760.83,100.378,83.1291,-116.933,617.746,11248.7,-728.399,-41.2592,-26.3211,-92.5563,-19457.8,-21160.0,9913.08,-17.2668,61.3446,-191.81,6084.5,9181.73,-2181.73,-7.43177,-42.7506,-47.6182,-7877.45,14725.1,-11906.5,86.4822,229.794,51.5538,6772.38,4351.82,638.464,-30.0325,-41.109,-20.7827
3.902,4007.72,1938.84,9980.77,14.7133,-95.7947,1.24021,27692.2,-16956.2,1632.89,99.6359,81.7304,-116.335,626.213,11279.4,-769.181,-41.4387,-26.115,-93.1207,-19691.6,-21037.1,10028.8,-15.2824,60.6577,-189.411,6093.44,9199.72,-2183.81,-7.33454,-42.2284,-47.6572,-7793.96,14771.8,-11925.4,84.3114,231.127,53.1389,6811.14,4363.28,736.496,-29.2596,-40.3428,-21.1583
3.9025,4004.25,1900.05,10010.5,14.9039,-96.3739,1.33517,27738.7,-16861.9,1567.55,99.0305,80.4607,-115.531,623.46,11316.1,-813.683,-41.6105,-25.8569,-93.6439,-19945.6,-20926.8,10068.9,-13.4978,59.7796,-187.362,6096.29,9224.95,-2171.09,-7.31764,-41.7091,-47.6712,-7709.04,14767.1,-11973.0,83.1055,230.987,53.7237,6862.39,4373.15,833.205,-28.7047,-39.539,-21.5015
3.903,3995.4,1866.68,10036.5,15.1107,-97.0025,1.38267,27796.8,-16711.8,1552.29,98.5344,79.2942,-114.563,611.732,11357.6,-861.161,-41.7761,-25.5573,-94.1342,-20215.8,-20826.5,10048.5,-11.8731,58.7485,-185.595,6094.27,9255.97,-2146.55,-7.36499,-41.1921,-47.6653,-7622.97,14721.2,-12043.5,82.6716,229.668,53.5083,6923.63,4381.75,928.855,-28.3242,-38.705,-21.8186
3.9035,3986.55,1833.31,10062.4,15.3174,-97.6311,1.43018,27855.0,-16561.6,1537.03,98.0382,78.1277,-113.594,600.003,11399.2,-908.639,-41.9417,-25.2577,-94.6244,-20486.1,-20726.3,10028.1,-10.2484,57.7174,-183.828,6092.24,9286.98,-2122.0,-7.41233,-40.6751,-47.6593,-7536.9,14675.3,-12114.1,82.2376,228.35,53.2929,6984.88,4390.35,1024.51,-27.9437,-37.8711,-22.1357
3.904,3977.7,1799.94,10088.4,15.5241,-98.2597,1.47769,27913.1,-16411.5,1521.78,97.542,76.9612,-112.626,588.275,11440.7,-956.116,-42.1073,-24.9582,-95.1146,-20756.3,-20626.1,10007.7,-8.62369,56.6863,-182.06,6090.22,9318.0,-2097.45,-7.45968,-40.1581,-47.6533,-7450.84,14629.5,-12184.6,81.8037,227.031,53.0775,7046.12,4398.95,1120.16,-27.5632,-37.0372,-22.4529
3.9045,3968.85,1766.57,10114.3,15.7309,-98.8883,1.5252,27971.2,-16261.4,1506.52,97.0458,75.7947,-111.657,576.547,11482.3,-1003.59,-42.2729,-24.6586,-95.6049,-21026.5,-20525.8,9987.35,-6.99899,55.6552,-180.293,6088.19,9349.02,-2072.9,-7.50703,-39.6411,-47.6474,-7364.77,14583.6,-12255.1,81.3697,225.713,52.8621,7107.36,4407.55,1215.81,-27.1828,-36.2033,-22.77
3.905,3960.0,1733.2,10140.3,15.9376,-99.5169,1.57271,28029.3,-16111.3,1491.26,96.5496,74.6281,-110.689,564.818,11523.8,-1051.07,-42.4385,-24.359,-96.0951,-21296.8,-20425.6,9966.96,-5.3743,54.6241,-178.525,6086.16,9380.04,-2048.36,-7.55438,-39.124,-47.6414,-7278.71,14537.7,-12325.6,80.9358,224.394,52.6467,7168.61,4416.15,1311.46,-26.8023,-35.3694,-23.0871
3.9055,3951.15,1699.83,10166.2,16.1443,-100.145,1.62022,28087.5,-15961.2,1476.0,96.0534,73.4616,-109.721,553.089,11565.3,-1098.55,-42.6041,-24.0594,-96.5854,-21567.0,-20325.4,9946.57,-3.74961,53.593,-176.758,6084.14,9411.06,-2023.81,-7.60173,-38.607,-47.6355,-7192.64,14491.9,-12396.2,80.5018,223.076,52.4313,7229.85,4424.75,1407.11,-26.4218,-34.5354,-23.4042
3.906,3942.3,1666.46,10192.2,16.351,-100.774,1.66773,28145.6,-15811.0,1460.75,95.5573,72.2951,-108.752,541.361,11606.9,-1146.03,-42.7697,-23.7598,-97.0756,-21837.3,-20225.1,9926.17,-2.12491,52.5619,-174.99,6082.11,9442.08,-1999.26,-7.64908,-38.09,-47.6295,-7106.58,14446.0,-12466.7,80.0679,221.757,52.2159,7291.1,4433.34,1502.76,-26.0413,-33.7015,-23.7214
3.9065,3933.45,1633.09,10218.2,16.5578,-101.403,1.71524,28203.7,-15660.9,1445.49,95.0611,71.1286,-107.784,529.633,11648.4,-1193.5,-42.9353,-23.4602,-97.5658,-22107.5,-20124.9,9905.78,-0.500218,51.5308,-173.223,6080.09,9473.1,-1974.71,-7.69643,-37.573,-47.6235,-7020.51,14400.1,-12537.2,79.6339,220.439,52.0005,7352.34,4441.94,1598.41,-25.6608,-32.8676,-24.0385
3.907,3931.91,1606.39,10231.6,16.6857,-102.056,1.75218,28248.3,-15550.2,1395.75,94.3788,70.4174,-106.704,518.87,11681.9,-1224.75,-43.0805,-23.1601,-98.0199,-22365.8,-20015.1,9914.89,1.07631,50.0101,-171.906,6069.65,9510.95,-1939.33,-7.74416,-37.1037,-47.5568,-6905.68,14339.6,-12608.4,79.5529,216.598,50.1056,7418.0,4415.74,1678.88,-25.5146,-32.0286,-24.3873
3.9075,3934.02,1583.03,10238.7,16.7742,-102.722,1.78383,28286.0,-15459.1,1328.78,93.6035,69.9338,-105.568,508.591,11711.3,-1247.88,-43.2155,-22.8598,-98.456,-22618.2,-19900.4,9938.75,2.62876,48.2447,-170.815,6055.02,9552.22,-1898.52,-7.79208,-36.6582,-47.4596,-6776.46,14271.7,-12679.9,79.6484,211.496,47.371,7485.87,4372.14,1751.76,-25.4854,-31.187,-24.752
3.908,3936.13,1559.67,10245.8,16.8626,-103.388,1.81549,28323.8,-15368.0,1261.8,92.8281,69.4503,-104.432,498.311,11740.7,-1271.01,-43.3505,-22.5594,-98.8921,-22870.6,-19785.8,9962.62,4.1812,46.4793,-169.723,6040.38,9593.49,-1857.71,-7.84,-36.2127,-47.3625,-6647.24,14203.9,-12751.4,79.7439,206.395,44.6363,7553.74,4328.54,1824.64,-25.4562,-30.3454,-25.1166
3.9085,3938.24,1536.31,10253.0,16.9511,-104.053,1.84714,28361.5,-15277.0,1194.83,92.0528,68.9668,-103.296,488.031,11770.2,-1294.13,-43.4855,-22.2591,-99.3281,-23122.9,-19671.2,9986.48,5.73365,44.7138,-168.632,6025.74,9634.76,-1816.91,-7.88792,-35.7673,-47.2653,-6518.02,14136.0,-12822.9,79.8394,201.293,41.9017,7621.6,4284.94,1897.52,-25.4271,-29.5039,-25.4813
3.909,3940.35,1512.95,10260.1,17.0396,-104.719,1.8788,28399.3,-15185.9,1127.86,91.2775,68.4833,-102.159,477.752,11799.6,-1317.26,-43.6205,-21.9588,-99.7642,-23375.3,-19556.6,10010.3,7.2861,42.9484,-167.54,6011.1,9676.03,-1776.1,-7.93584,-35.3218,-47.1682,-6388.79,14068.1,-12894.4,79.9348,196.192,39.167,7689.47,4241.33,1970.4,-25.3979,-28.6623,-25.8459
3.9095,3942.47,1489.59,10267.2,17.1281,-105.385,1.91046,28437.1,-15094.8,1060.88,90.5021,67.9998,-101.023,467.473,11829.0,-1340.39,-43.7555,-21.6585,-100.2,-23627.7,-19442.0,10034.2,8.83854,41.183,-166.449,5996.46,9717.3,-1735.29,-7.98376,-34.8763,-47.071,-6259.57,14000.3,-12965.9,80.0303,191.09,36.4324,7757.34,4197.73,2043.28,-25.3687,-27.8207,-26.2106
3.91,3944.58,1466.22,10274.3,17.2166,-106.051,1.94211,28474.8,-15003.8,993.91,89.7268,67.5162,-99.8873,457.193,11858.5,-1363.52,-43.8905,-21.3582,-100.636,-23880.0,-19327.4,10058.1,10.391,39.4176,-165.358,5981.82,9758.57,-1694.49,-8.03168,-34.4308,-46.9739,-6130.35,13932.4,-13037.4,80.1258,185.988,33.6977,7825.2,4154.13,2116.16,-25.3396,-26.9792,-26.5752
3.9105,3946.69,1442.86,10281.5,17.305,-106.717,1.97377,28512.6,-14912.7,926.936,88.9514,67.0327,-98.7512,446.914,11887.9,-1386.65,-44.0255,-21.0578,-101.072,-24132.4,-19212.7,10081.9,11.9434,37.6521,-164.266,5967.19,9799.85,-1653.68,-8.07961,-33.9854,-46.8767,-6001.13,13864.6,-13108.9,80.2213,180.887,30.9631,7893.07,4110.53,2189.04,-25.3104,-26.1376,-26.9399
3.911,3948.8,1419.5,10288.6,17.3935,-107.383,2.00542,28550.3,-14821.6,859.962,88.1761,66.5492,-97.6151,436.634,11917.3,-1409.77,-44.1605,-20.7575,-101.508,-24384.7,-19098.1,10105.8,13.4959,35.8867,-163.175,5952.55,9841.12,-1612.87,-8.12753,-33.5399,-46.7795,-5871.91,13796.7,-13180.4,80.3168,175.785,28.2284,7960.94,4066.93,2261.92,-25.2812,-25.2961,-27.3045
3.9115,3966.01,1388.28,10294.3,17.3576,-108.086,2.00505,28664.6,-14747.8,647.876,86.0314,66.9255,-96.3784,417.488,11956.3,-1434.07,-44.2834,-20.4926,-101.872,-24538.2,-18954.4,10193.9,15.0639,32.8227,-162.147,5916.5,9880.04,-1572.86,-8.27689,-33.1639,-46.6112,-5733.68,13777.0,-13168.0,78.4398,166.693,23.0445,8033.2,3988.81,2296.89,-25.8018,-24.5759,-27.444
3.912,3987.54,1354.81,10299.6,17.2862,-108.8,1.99552,28800.8,-14678.9,394.329,83.4955,67.5475,-95.113,395.81,11997.9,-1458.7,-44.4028,-20.2379,-102.215,-24663.5,-18802.4,10300.5,16.6364,29.3877,-161.136,5874.34,9918.3,-1533.08,-8.45523,-32.8078,-46.4226,-5592.87,13771.0,-13131.8,75.9994,156.461,17.1608,8106.72,3900.82,2321.03,-26.4795,-23.8904,-27.5191
3.9125,4009.06,1321.35,10304.9,17.2148,-109.514,1.986,28936.9,-14610.0,140.782,80.9595,68.1695,-93.8475,374.131,12039.6,-1483.32,-44.5223,-19.9831,-102.557,-24788.8,-18650.3,10407.0,18.2089,25.9527,-160.126,5832.17,9956.55,-1493.3,-8.63357,-32.4516,-46.234,-5452.06,13765.0,-13095.5,73.559,146.229,11.277,8180.23,3812.84,2345.17,-27.1571,-23.2049,-27.5942
3.913,4030.59,1287.88,10310.2,17.1433,-110.229,1.97647,29073.1,-14541.1,-112.765,78.4236,68.7915,-92.5821,352.452,12081.2,-1507.95,-44.6417,-19.7283,-102.9,-24914.0,-18498.3,10513.5,19.7814,22.5177,-159.116,5790.0,9994.81,-1453.52,-8.81191,-32.0955,-46.0453,-5311.26,13759.1,-13059.2,71.1185,135.997,5.39332,8253.75,3724.86,2369.31,-27.8348,-22.5195,-27.6693
3.9135,4052.11,1254.41,10315.5,17.0719,-110.943,1.96694,29209.2,-14472.3,-366.312,75.8877,69.4135,-91.3166,330.773,12122.9,-1532.58,-44.7612,-19.4736,-103.243,-25039.3,-18346.3,10620.0,21.3539,19.0827,-158.105,5747.84,10033.1,-1413.74,-8.99025,-31.7394,-45.8567,-5170.45,13753.1,-13023.0,68.6781,125.765,-0.490409,8327.27,3636.88,2393.45,-28.5124,-21.834,-27.7444
3.914,4073.64,1220.94,10320.8,17.0005,-111.657,1.95742,29345.3,-14403.4,-619.859,73.3517,70.0356,-90.0512,309.094,12164.5,-1557.21,-44.8806,-19.2188,-103.585,-25164.5,-18194.2,10726.5,22.9263,15.6478,-157.095,5705.67,10071.3,-1373.96,-9.16859,-31.3832,-45.668,-5029.64,13747.1,-12986.7,66.2376,115.533,-6.37413,8400.79,3548.89,2417.59,-29.19,-21.1485,-27.8195
3.9145,4095.16,1187.48,10326.1,16.929,-112.371,1.94789,29481.5,-14334.5,-873.406,70.8158,70.6576,-88.7857,287.415,12206.2,-1581.83,-45.0001,-18.9641,-103.928,-25289.8,-18042.2,10833.0,24.4988,12.2128,-156.085,5663.51,10109.6,-1334.17,-9.34693,-31.0271,-45.4794,-4888.83,13741.2,-12950.4,63.7972,105.301,-12.2579,8474.3,3460.91,2441.74,-29.8677,-20.463,-27.8946
3.915,4116.69,1154.01,10331.4,16.8576,-113.086,1.93837,29617.6,-14265.6,-1126.95,68.2798,71.2796,-87.5203,265.737,12247.9,-1606.46,-45.1195,-18.7093,-104.271,-25415.0,-17890.1,10939.6,26.0713,8.77777,-155.075,5621.34,10147.8,-1294.39,-9.52527,-30.671,-45.2907,-4748.03,13735.2,-12914.2,61.3568,95.0684,-18.1416,8547.82,3372.93,2465.88,-30.5453,-19.7775,-27.9697
3.9155,4138.21,1120.54,10336.7,16.7862,-113.8,1.92884,29753.8,-14196.7,-1380.5,65.7439,71.9016,-86.2548,244.058,12289.5,-1631.09,-45.239,-18.4545,-104.614,-25540.3,-17738.1,11046.1,27.6438,5.34278,-154.064,5579.18,10186.1,-1254.61,-9.70361,-30.3148,-45.1021,-4607.22,13729.2,-12877.9,58.9163,84.8363,-24.0253,8621.34,3284.94,2490.02,-31.223,-19.0921,-28.0448
3.916,4157.06,1120.94,10334.5,16.7602,-114.598,1.80077,30046.7,-13906.3,-1722.36,61.0538,73.2573,-84.6224,215.499,12296.4,-1642.77,-45.3232,-18.3343,-104.982,-25561.8,-17562.7,10990.2,28.9784,1.60093,-152.372,5529.75,10210.7,-1216.08,-10.0364,-30.0628,-44.7976,-4560.81,13843.8,-12769.9,53.3152,71.5315,-30.0696,8682.74,3163.72,2456.34,-32.26,-18.6744,-27.8306
3.9165,4175.57,1125.58,10331.3,16.7398,-115.407,1.65789,30359.3,-13588.2,-2075.26,56.0944,74.7048,-82.9441,186.081,12298.9,-1652.83,-45.4031,-18.231,-105.354,-25570.3,-17384.3,10914.0,30.2832,-2.17928,-150.594,5479.42,10233.6,-1177.71,-10.3885,-29.8238,-44.4786,-4526.2,13973.4,-12653.0,47.3189,57.8427,-36.134,8742.64,3038.34,2415.44,-33.3419,-18.2901,-27.5803
3.917,4194.08,1130.21,10328.1,16.7195,-116.215,1.51501,30671.9,-13270.1,-2428.16,51.135,76.1523,-81.2657,156.663,12301.4,-1662.89,-45.4829,-18.1276,-105.726,-25578.8,-17206.0,10837.8,31.588,-5.95949,-148.816,5429.09,10256.5,-1139.34,-10.7406,-29.5848,-44.1596,-4491.6,14103.0,-12536.0,41.3227,44.1538,-42.1984,8802.53,2912.95,2374.53,-34.4238,-17.9059,-27.33
3.9175,4212.59,1134.85,10324.9,16.6991,-117.024,1.37212,30984.4,-12952.0,-2781.06,46.1756,77.5998,-79.5874,127.245,12303.9,-1672.95,-45.5628,-18.0242,-106.098,-25587.3,-17027.6,10761.6,32.8928,-9.73969,-147.038,5378.76,10279.4,-1100.97,-11.0927,-29.3458,-43.8406,-4456.99,14232.7,-12419.1,35.3264,30.4649,-48.2628,8862.42,2787.57,2333.62,-35.5058,-17.5217,-27.0797
3.918,4231.1,1139.48,10321.8,16.6788,-117.833,1.22924,31297.0,-12633.9,-3133.96,41.2162,79.0473,-77.9091,97.8265,12306.4,-1683.0,-45.6426,-17.9208,-106.47,-25595.8,-16849.2,10685.4,34.1976,-13.5199,-145.261,5328.43,10302.3,-1062.6,-11.4448,-29.1067,-43.5216,-4422.38,14362.3,-12302.1,29.3302,16.776,-54.3272,8922.31,2662.19,2292.72,-36.5877,-17.1374,-26.8294
3.9185,4249.6,1144.12,10318.6,16.6585,-118.641,1.08635,31609.5,-12315.9,-3486.86,36.2569,80.4948,-76.2308,68.4082,12308.9,-1693.06,-45.7225,-17.8175,-106.842,-25604.3,-16670.9,10609.2,35.5024,-17.3001,-143.483,5278.1,10325.2,-1024.22,-11.7969,-28.8677,-43.2026,-4387.77,14491.9,-12185.1,23.334,3.08716,-60.3915,8982.2,2536.81,2251.81,-37.6696,-16.7532,-26.5791
3.919,4268.11,1148.75,10315.4,16.6381,-119.45,0.943471,31922.1,-11997.8,-3839.76,31.2975,81.9423,-74.5525,38.9899,12311.4,-1703.12,-45.8023,-17.7141,-107.214,-25612.8,-16492.5,10533.0,36.8072,-21.0803,-141.705,5227.77,10348.1,-985.853,-12.149,-28.6287,-42.8836,-4353.17,14621.6,-12068.2,17.3377,-10.6017,-66.4559,9042.09,2411.43,2210.91,-38.7515,-16.369,-26.3288
3.9195,4286.62,1153.39,10312.2,16.6178,-120.259,0.800587,32234.7,-11679.7,-4192.66,26.3381,83.3897,-72.8741,9.5717,12313.9,-1713.18,-45.8822,-17.6107,-107.586,-25621.2,-16314.2,10456.7,38.112,-24.8605,-139.928,5177.44,10370.9,-947.481,-12.5011,-28.3897,-42.5646,-4318.56,14751.2,-11951.2,11.3415,-24.2906,-72.5203,9101.99,2286.04,2170.0,-39.8335,-15.9847,-26.0784
3.92,4305.13,1158.02,10309.0,16.5974,-121.068,0.657703,32547.2,-11361.6,-4545.56,21.3787,84.8372,-71.1958,-19.8466,12316.4,-1723.24,-45.962,-17.5073,-107.957,-25629.7,-16135.8,10380.5,39.4168,-28.6407,-138.15,5127.11,10393.8,-909.109,-12.8531,-28.1507,-42.2456,-4283.95,14880.8,-11834.3,5.34525,-37.9795,-78.5847,9161.88,2160.66,2129.1,-40.9154,-15.6005,-25.8281
3.9205,4310.08,1167.83,10311.9,16.5023,-121.729,0.451406,32913.0,-10715.5,-4929.3,13.8846,86.6563,-68.9663,-48.3198,12298.1,-1707.6,-46.0644,-17.6822,-108.255,-25588.2,-15989.7,9983.73,39.9285,-31.0478,-135.647,5049.75,10407.3,-875.453,-13.3243,-27.9677,-41.8547,-4417.31,15036.0,-11643.1,-2.55434,-49.7545,-80.9869,9193.37,2011.76,2046.88,-41.7506,-15.5822,-25.6272
3.921,4315.03,1177.64,10314.9,16.4072,-122.39,0.245109,33278.8,-10069.4,-5313.04,6.39056,88.4754,-66.7368,-76.793,12279.7,-1691.96,-46.1667,-17.8571,-108.553,-25546.8,-15843.6,9586.91,40.4402,-33.4549,-133.145,4972.4,10420.8,-841.798,-13.7955,-27.7848,-41.4638,-4550.66,15191.3,-11451.9,-10.4539,-61.5295,-83.3891,9224.85,1862.86,1964.66,-42.5858,-15.5639,-25.4263
3.9215,4319.98,1187.44,10317.8,16.312,-123.051,0.0388115,33644.6,-9423.31,-5696.78,-1.10351,90.2945,-64.5073,-105.266,12261.4,-1676.32,-46.269,-18.0319,-108.851,-25505.3,-15697.5,9190.1,40.952,-35.8621,-130.643,4895.04,10434.3,-808.142,-14.2667,-27.6019,-41.0729,-4684.01,15346.5,-11260.6,-18.3535,-73.3046,-85.7913,9256.34,1713.96,1882.44,-43.4211,-15.5456,-25.2253
3.922,4324.93,1197.25,10320.7,16.2169,-123.712,-0.167486,34010.4,-8777.2,-6080.52,-8.59758,92.1135,-62.2778,-133.739,12243.0,-1660.68,-46.3713,-18.2068,-109.148,-25463.8,-15551.4,8793.28,41.4637,-38.2692,-128.141,4817.69,10447.8,-774.486,-14.7378,-27.419,-40.682,-4817.37,15501.7,-11069.4,-26.2531,-85.0796,-88.1935,9287.83,1565.06,1800.22,-44.2563,-15.5273,-25.0244
3.9225,4329.88,1207.06,10323.6,16.1217,-124.373,-0.373783,34376.2,-8131.1,-6464.25,-16.0917,93.9326,-60.0483,-162.213,12224.7,-1645.04,-46.4737,-18.3817,-109.446,-25422.3,-15405.3,8396.46,41.9754,-40.6763,-125.638,4740.33,10461.2,-740.83,-15.209,-27.236,-40.2911,-4950.72,15656.9,-10878.2,-34.1527,-96.8547,-90.5957,9319.32,1416.16,1718.0,-45.0915,-15.5091,-24.8235
3.923,4334.82,1216.87,10326.5,16.0266,-125.034,-0.58008,34742.0,-7485.0,-6847.99,-23.5857,95.7517,-57.8188,-190.686,12206.3,-1629.4,-46.576,-18.5565,-109.744,-25380.8,-15259.2,7999.65,42.4871,-43.0834,-123.136,4662.97,10474.7,-707.174,-15.6802,-27.0531,-39.9002,-5084.08,15812.2,-10687.0,-42.0523,-108.63,-92.9979,9350.8,1267.26,1635.78,-45.9267,-15.4908,-24.6225
3.9235,4339.77,1226.67,10329.5,15.9314,-125.696,-0.786377,35107.8,-6838.89,-7231.73,-31.0798,97.5708,-55.5893,-219.159,12188.0,-1613.76,-46.6783,-18.7314,-110.041,-25339.3,-15113.1,7602.83,42.9988,-45.4905,-120.634,4585.62,10488.2,-673.518,-16.1513,-26.8702,-39.5093,-5217.43,15967.4,-10495.8,-49.9519,-120.405,-95.4001,9382.29,1118.36,1553.56,-46.762,-15.4725,-24.4216
3.924,4344.72,1236.48,10332.4,15.8363,-126.357,-0.992674,35473.6,-6192.79,-7615.47,-38.5739,99.3898,-53.3598,-247.632,12169.6,-1598.13,-46.7806,-18.9063,-110.339,-25297.8,-14967.1,7206.02,43.5105,-47.8976,-118.131,4508.26,10501.7,-639.862,-16.6225,-26.6872,-39.1183,-5350.79,16122.6,-10304.6,-57.8515,-132.18,-97.8022,9413.78,969.464,1471.34,-47.5972,-15.4542,-24.2206
3.9245,4348.23,1246.9,10340.3,15.7393,-127.047,-1.18167,35821.0,-5516.93,-7987.87,-46.2119,101.152,-51.0386,-272.893,12153.0,-1580.4,-46.8795,-19.1052,-110.641,-25251.1,-14818.4,6781.97,43.9054,-50.0772,-115.631,4430.24,10513.2,-606.028,-17.0808,-26.5185,-38.722,-5507.92,16255.1,-10090.4,-65.5659,-143.428,-99.7918,9444.65,823.401,1390.11,-48.418,-15.4764,-23.9963
3.925,4340.22,1262.21,10387.6,15.6275,-127.974,-1.23227,36021.4,-4603.01,-8269.6,-55.0022,102.463,-47.9838,-272.451,12149.8,-1545.97,-46.951,-19.4964,-110.979,-25162.7,-14649.5,6140.13,43.3662,-50.4369,-113.15,4346.91,10509.5,-570.771,-17.4366,-26.4635,-38.282,-5855.27,16205.3,-9693.01,-71.7985,-150.466,-98.4798,9470.64,700.035,1316.73,-49.1234,-15.8228,-23.5842
3.9255,4332.21,1277.53,10435.0,15.5157,-128.9,-1.28286,36221.8,-3689.08,-8551.33,-63.7925,103.774,-44.9289,-272.01,12146.6,-1511.55,-47.0225,-19.8876,-111.317,-25074.3,-14480.6,5498.29,42.8269,-50.7965,-110.668,4263.58,10505.8,-535.514,-17.7924,-26.4085,-37.842,-6202.62,16155.6,-9295.57,-78.0312,-157.503,-97.1678,9496.63,576.668,1243.35,-49.8288,-16.1691,-23.1721
3.926,4324.19,1292.84,10482.4,15.4039,-129.826,-1.33345,36422.2,-2775.16,-8833.06,-72.5828,105.085,-41.8741,-271.568,12143.5,-1477.12,-47.094,-20.2789,-111.654,-24985.9,-14311.6,4856.46,42.2876,-51.1561,-108.187,4180.25,10502.1,-500.257,-18.1481,-26.3536,-37.402,-6549.98,16105.9,-8898.14,-84.2638,-164.541,-95.8559,9522.62,453.302,1169.97,-50.5343,-16.5155,-22.76
3.9265,4316.18,1308.15,10529.7,15.2921,-130.753,-1.38405,36622.6,-1861.24,-9114.79,-81.3731,106.395,-38.8193,-271.127,12140.3,-1442.7,-47.1654,-20.6701,-111.992,-24897.5,-14142.7,4214.62,41.7483,-51.5158,-105.705,4096.91,10498.4,-465.001,-18.5039,-26.2986,-36.962,-6897.33,16056.1,-8500.71,-90.4964,-171.578,-94.5439,9548.6,329.935,1096.59,-51.2397,-16.8618,-22.348
3.927,4308.17,1323.47,10577.1,15.1803,-131.679,-1.43464,36823.0,-947.317,-9396.52,-90.1633,107.706,-35.7645,-270.685,12137.1,-1408.28,-47.2369,-21.0613,-112.33,-24809.1,-13973.8,3572.78,41.2091,-51.8754,-103.224,4013.58,10494.7,-429.744,-18.8597,-26.2436,-36.5221,-7244.68,16006.4,-8103.27,-96.7291,-178.616,-93.232,9574.59,206.569,1023.21,-51.9451,-17.2082,-21.9359
3.9275,4300.16,1338.78,10624.5,15.0685,-132.606,-1.48524,37023.4,-33.3943,-9678.25,-98.9536,109.017,-32.7097,-270.244,12133.9,-1373.85,-47.3084,-21.4525,-112.668,-24720.7,-13804.8,2930.94,40.6698,-52.2351,-100.742,3930.25,10491.0,-394.487,-19.2154,-26.1886,-36.0821,-7592.03,15956.6,-7705.84,-102.962,-185.653,-91.92,9600.58,83.2024,949.832,-52.6506,-17.5545,-21.5238
3.928,4292.15,1354.09,10671.9,14.9567,-133.532,-1.53583,37223.8,880.528,-9959.98,-107.744,110.328,-29.6549,-269.802,12130.8,-1339.43,-47.3799,-21.8437,-113.005,-24632.3,-13635.9,2289.1,40.1305,-52.5947,-98.2608,3846.91,10487.3,-359.23,-19.5712,-26.1336,-35.6421,-7939.38,15906.9,-7308.4,-109.194,-192.691,-90.6081,9626.57,-40.1641,876.454,-53.356,-17.9009,-21.1118
3.9285,4284.14,1369.41,10719.2,14.8449,-134.458,-1.58643,37424.2,1794.45,-10241.7,-116.534,111.638,-26.6,-269.361,12127.6,-1305.0,-47.4514,-22.235,-113.343,-24543.9,-13467.0,1647.26,39.5912,-52.9543,-95.7793,3763.58,10483.6,-323.974,-19.927,-26.0786,-35.2021,-8286.73,15857.2,-6910.97,-115.427,-199.728,-89.2961,9652.56,-163.531,803.075,-54.0614,-18.2472,-20.6997
3.929,4280.17,1381.98,10754.2,14.7371,-135.378,-1.61874,37542.7,2683.64,-10495.0,-124.814,112.658,-23.3924,-265.986,12123.7,-1283.55,-47.4693,-22.6096,-113.704,-24452.9,-13281.3,1015.89,38.875,-52.9487,-93.377,3684.22,10477.5,-287.904,-20.2665,-26.0332,-34.777,-8681.44,15768.2,-6465.3,-120.912,-206.113,-87.6479,9680.34,-280.983,728.729,-54.7313,-18.6037,-20.2488
3.9295,4290.39,1384.96,10746.0,14.6436,-136.277,-1.58708,37374.2,3486.28,-10648.5,-131.31,112.659,-19.6497,-252.342,12117.3,-1307.49,-47.2998,-22.9264,-114.144,-24352.9,-13037.3,421.182,37.5395,-51.6644,-91.2522,3618.73,10463.1,-248.991,-20.549,-26.0212,-34.4038,-9241.9,15541.7,-5850.81,-123.78,-210.211,-84.8229,9714.41,-377.736,651.0,-55.277,-18.9956,-19.6619
3.93,4300.61,1387.94,10737.8,14.5501,-137.175,-1.55542,37205.7,4288.93,-10802.1,-137.805,112.659,-15.907,-238.699,12111.0,-1331.44,-47.1303,-23.2432,-114.584,-24252.9,-12793.2,-173.525,36.204,-50.3801,-89.1274,3553.25,10448.7,-210.079,-20.8315,-26.0092,-34.0306,-9802.35,15315.3,-5236.33,-126.649,-214.309,-81.998,9748.48,-474.489,573.271,-55.8227,-19.3875,-19.0751
3.9305,4310.83,1390.91,10729.6,14.4567,-138.073,-1.52377,37037.3,5091.57,-10955.7,-144.3,112.66,-12.1643,-225.055,12104.6,-1355.38,-46.9608,-23.56,-115.024,-24152.9,-12549.1,-768.233,34.8684,-49.0959,-87.0025,3487.77,10434.3,-171.166,-21.114,-25.9973,-33.6574,-10362.8,15088.8,-4621.84,-129.517,-218.406,-79.173,9782.55,-571.242,495.541,-56.3684,-19.7794,-18.4882
3.931,4321.05,1393.89,10721.4,14.3632,-138.971,-1.49211,36868.8,5894.21,-11109.3,-150.796,112.661,-8.42158,-211.412,12098.3,-1379.32,-46.7912,-23.8768,-115.464,-24052.9,-12305.1,-1362.94,33.5329,-47.8116,-84.8777,3422.29,10419.9,-132.253,-21.3965,-25.9853,-33.2842,-10923.3,14862.4,-4007.35,-132.386,-222.504,-76.348,9816.62,-667.995,417.812,-56.914,-20.1713,-17.9013
3.9315,4331.27,1396.87,10713.2,14.2697,-139.87,-1.46045,36700.3,6696.85,-11262.8,-157.291,112.661,-4.67889,-197.768,12091.9,-1403.27,-46.6217,-24.1936,-115.904,-23952.9,-12061.0,-1957.65,32.1974,-46.5274,-82.7528,3356.81,10405.5,-93.3403,-21.679,-25.9733,-32.911,-11483.7,14635.9,-3392.86,-135.254,-226.602,-73.523,9850.69,-764.748,340.082,-57.4597,-20.5632,-17.3145
3.932,4341.49,1399.85,10705.0,14.1762,-140.768,-1.42879,36531.9,7499.49,-11416.4,-163.786,112.662,-0.936189,-184.125,12085.6,-1427.21,-46.4522,-24.5104,-116.345,-23852.9,-11816.9,-2552.36,30.8619,-45.2431,-80.628,3291.33,10391.0,-54.4275,-21.9615,-25.9613,-32.5378,-12044.2,14409.5,-2778.38,-138.123,-230.7,-70.6981,9884.76,-861.501,262.353,-58.0054,-20.9551,-16.7276
3.9325,4351.71,1402.83,10696.8,14.0827,-141.666,-1.39713,36363.4,8302.13,-11570.0,-170.281,112.663,2.80651,-170.481,12079.2,-1451.16,-46.2827,-24.8272,-116.785,-23752.9,-11572.9,-3147.06,29.5263,-43.9588,-78.5032,3225.85,10376.6,-15.5147,-22.244,-25.9494,-32.1646,-12604.6,14183.0,-2163.89,-140.991,-234.798,-67.8731,9918.83,-958.255,184.624,-58.5511,-21.347,-16.1407
3.933,4361.93,1405.81,10688.6,13.9892,-142.564,-1.36547,36194.9,9104.77,-11723.6,-176.777,112.663,6.5492,-156.838,12072.9,-1475.1,-46.1132,-25.1439,-117.225,-23652.8,-11328.8,-3741.77,28.1908,-42.6746,-76.3783,3160.37,10362.2,23.3981,-22.5265,-25.9374,-31.7915,-13165.1,13956.6,-1549.4,-143.859,-238.896,-65.0481,9952.9,-1055.01,106.894,-59.0968,-21.7389,-15.5539
3.9335,4364.78,1401.05,10691.5,13.9199,-143.488,-1.33628,35914.9,9663.75,-11870.3,-181.728,112.275,9.96698,-149.348,12075.1,-1503.49,-45.9691,-25.4527,-117.651,-23558.6,-11061.1,-4226.65,26.7374,-41.0716,-74.2658,3095.78,10358.8,73.1696,-22.8386,-26.0042,-31.3979,-13787.1,13728.2,-938.652,-146.016,-242.35,-62.0847,9984.3,-1153.56,38.7509,-59.4934,-22.0768,-15.0334
3.934,4352.89,1380.82,10716.5,13.8988,-144.463,-1.31201,35411.6,9735.42,-12003.5,-183.592,111.107,12.7349,-154.164,12094.4,-1540.77,-45.8758,-25.7452,-118.049,-23475.9,-10746.3,-4491.88,25.0483,-38.831,-72.1778,3032.99,10377.3,144.659,-23.21,-26.2287,-30.9635,-14532.4,13495.8,-335.38,-146.75,-244.517,-58.8442,10010.4,-1255.7,-10.2209,-59.5918,-22.3067,-14.6456
3.9345,4341.01,1360.59,10741.4,13.8777,-145.438,-1.28774,34908.4,9807.09,-12136.6,-185.457,109.938,15.5028,-158.981,12113.7,-1578.04,-45.7825,-26.0378,-118.446,-23393.2,-10431.4,-4757.11,23.3591,-36.5905,-70.0898,2970.19,10395.9,216.147,-23.5813,-26.4532,-30.5292,-15277.6,13263.4,267.893,-147.484,-246.684,-55.6038,10036.4,-1357.85,-59.1926,-59.6902,-22.5366,-14.2578
3.935,4329.12,1340.36,10766.4,13.8567,-146.412,-1.26348,34405.1,9878.76,-12269.8,-187.321,108.77,18.2708,-163.798,12133.0,-1615.32,-45.6892,-26.3304,-118.844,-23310.5,-10116.6,-5022.34,21.67,-34.35,-68.0018,2907.39,10414.4,287.636,-23.9526,-26.6777,-30.0948,-16022.9,13031.1,871.165,-148.218,-248.85,-52.3634,10062.5,-1459.99,-108.164,-59.7887,-22.7665,-13.87
3.9355,4317.24,1320.13,10791.4,13.8356,-147.387,-1.23921,33901.9,9950.42,-12403.0,-189.185,107.602,21.0387,-168.615,12152.3,-1652.6,-45.596,-26.623,-119.242,-23227.8,-9801.71,-5287.57,19.9808,-32.1094,-65.9138,2844.6,10433.0,359.125,-24.3239,-26.9022,-29.6605,-16768.1,12798.7,1474.44,-148.952,-251.017,-49.123,10088.5,-1562.14,-157.136,-59.8871,-22.9964,-13.4823
3.936,4305.36,1299.9,10816.3,13.8145,-148.362,-1.21494,33398.6,10022.1,-12536.1,-191.049,106.434,23.8066,-173.431,12171.7,-1689.88,-45.5027,-26.9155,-119.639,-23145.1,-9486.86,-5552.8,18.2916,-29.8689,-63.8258,2781.8,10451.5,430.614,-24.6952,-27.1267,-29.2261,-17513.3,12566.3,2077.71,-149.686,-253.184,-45.8825,10114.6,-1664.28,-206.108,-59.9855,-23.2262,-13.0945
3.9365,4293.47,1279.68,10841.3,13.7935,-149.337,-1.19068,32895.4,10093.8,-12669.3,-192.914,105.266,26.5746,-178.248,12191.0,-1727.15,-45.4094,-27.2081,-120.037,-23062.4,-9172.01,-5818.03,16.6025,-27.6284,-61.7378,2719.0,10470.1,502.103,-25.0665,-27.3511,-28.7918,-18258.6,12334.0,2680.98,-150.42,-255.351,-42.6421,10140.6,-1766.43,-255.08,-60.084,-23.4561,-12.7067
3.937,4281.59,1259.45,10866.3,13.7724,-150.311,-1.16641,32392.2,10165.4,-12802.4,-194.778,104.098,29.3425,-183.065,12210.3,-1764.43,-45.3161,-27.5007,-120.435,-22979.7,-8857.16,-6083.26,14.9133,-25.3878,-59.6498,2656.21,10488.6,573.592,-25.4378,-27.5756,-28.3574,-19003.8,12101.6,3284.25,-151.154,-257.517,-39.4017,10166.7,-1868.57,-304.052,-60.1824,-23.686,-12.319
3.9375,4269.7,1239.22,10891.3,13.7513,-151.286,-1.14214,31888.9,10237.1,-12935.6,-196.642,102.93,32.1104,-187.882,12229.6,-1801.71,-45.2228,-27.7933,-120.833,-22897.1,-8542.3,-6348.49,13.2242,-23.1473,-57.5618,2593.41,10507.2,645.081,-25.8091,-27.8001,-27.9231,-19749.1,11869.2,3887.53,-151.888,-259.684,-36.1613,10192.7,-1970.72,-353.023,-60.2809,-23.9159,-11.9312
3.938,4264.25,1209.08,10894.0,13.5621,-152.28,-1.2195,31381.5,9951.51,-13044.3,-196.667,101.465,34.1146,-202.482,12251.2,-1842.23,-45.1309,-28.134,-121.199,-22808.1,-8213.9,-6472.94,11.6022,-20.9542,-55.1876,2539.66,10516.6,714.125,-26.1518,-28.1425,-27.5427,-20497.5,11598.2,4454.88,-151.694,-260.638,-33.1798,10220.3,-2051.89,-386.777,-59.9835,-24.1414,-11.722
3.9385,4266.83,1166.57,10868.9,13.1626,-153.298,-1.4239,30868.8,9219.35,-13122.6,-194.392,99.6283,35.164,-229.31,12275.6,-1886.81,-45.0405,-28.5348,-121.527,-22711.4,-7868.55,-6421.42,10.0642,-18.8204,-52.4555,2497.23,10514.7,780.112,-26.4589,-28.6323,-27.2298,-21250.0,11278.7,4977.32,-150.339,-260.077,-30.5219,10249.6,-2106.86,-401.508,-59.1913,-24.3616,-11.7361
3.939,4269.41,1124.05,10843.8,12.7632,-154.316,-1.6283,30356.1,8487.2,-13200.9,-192.117,97.7917,36.2135,-256.139,12300.1,-1931.39,-44.9502,-28.9357,-121.856,-22614.6,-7523.21,-6369.91,8.52622,-16.6866,-49.7235,2454.8,10512.8,846.1,-26.7659,-29.1222,-26.9169,-22002.5,10959.3,5499.77,-148.984,-259.515,-27.8641,10279.0,-2161.82,-416.24,-58.3991,-24.5817,-11.7502
3.9395,4272.0,1081.54,10818.7,12.3638,-155.334,-1.8327,29843.5,7755.04,-13279.2,-189.843,95.9551,37.2629,-282.968,12324.6,-1975.97,-44.8598,-29.3365,-122.184,-22517.9,-7177.86,-6318.39,6.98822,-14.5528,-46.9914,2412.37,10510.9,912.087,-27.073,-29.612,-26.604,-22755.0,10639.8,6022.21,-147.629,-258.954,-25.2062,10308.4,-2216.78,-430.971,-57.6068,-24.8018,-11.7643
3.94,4274.58,1039.02,10793.6,11.9643,-156.352,-2.03709,29330.8,7022.88,-13357.4,-187.568,94.1186,38.3124,-309.797,12349.0,-2020.54,-44.7695,-29.7374,-122.512,-22421.2,-6832.52,-6266.87,5.45022,-12.4189,-44.2593,2369.93,10509.0,978.075,-27.38,-30.1018,-26.2911,-23507.5,10320.4,6544.66,-146.275,-258.392,-22.5483,10337.7,-2271.75,-445.702,-56.8146,-25.0219,-11.7784
3.9405,4277.16,996.507,10768.5,11.5649,-157.37,-2.24149,28818.1,6290.72,-13435.7,-185.293,92.282,39.3618,-336.626,12373.5,-2065.12,-44.6791,-30.1382,-122.84,-22324.4,-6487.17,-6215.36,3.91223,-10.2851,-41.5273,2327.5,10507.1,1044.06,-27.687,-30.5916,-25.9782,-24260.0,10000.9,7067.1,-144.92,-257.831,-19.8905,10367.1,-2326.71,-460.433,-56.0224,-25.242,-11.7925
3.941,4279.74,953.991,10743.4,11.1655,-158.388,-2.44589,28305.4,5558.57,-13514.0,-183.019,90.4454,40.4112,-363.454,12397.9,-2109.7,-44.5888,-30.5391,-123.168,-22227.7,-6141.82,-6163.84,2.37423,-8.15132,-38.7952,2285.07,10505.2,1110.05,-27.9941,-31.0814,-25.6652,-25012.5,9681.47,7589.55,-143.565,-257.269,-17.2326,10396.5,-2381.68,-475.165,-55.2302,-25.4621,-11.8066
3.9415,4282.32,911.476,10718.3,10.7661,-159.406,-2.65029,27792.8,4826.41,-13592.2,-180.744,88.6088,41.4607,-390.283,12422.4,-2154.28,-44.4984,-30.9399,-123.496,-22131.0,-5796.48,-6112.32,0.836234,-6.01751,-36.0631,2242.64,10503.3,1176.04,-28.3011,-31.5712,-25.3523,-25764.9,9362.02,8111.99,-142.21,-256.707,-14.5748,10425.8,-2436.64,-489.896,-54.438,-25.6822,-11.8207
3.942,4284.91,868.96,10693.2,10.3666,-160.424,-2.85468,27280.1,4094.25,-13670.5,-178.469,86.7723,42.5101,-417.112,12446.8,-2198.86,-44.4081,-31.3408,-123.824,-22034.2,-5451.13,-6060.81,-0.701763,-3.88369,-33.3311,2200.21,10501.4,1242.02,-28.6081,-32.061,-25.0394,-26517.4,9042.57,8634.44,-140.856,-256.146,-11.9169,10455.2,-2491.61,-504.627,-53.6458,-25.9024,-11.8348
3.9425,4295.75,840.945,10674.5,9.96304,-161.396,-3.1451,26890.1,3235.27,-13686.9,-174.688,84.7734,43.302,-446.54,12444.3,-2235.92,-44.333,-31.835,-124.147,-21932.5,-5113.33,-5908.07,-1.91238,-2.30828,-30.0124,2170.68,10518.7,1308.43,-29.043,-32.6978,-24.7349,-27066.3,8693.08,9076.17,-138.264,-253.841,-10.4923,10478.2,-2500.16,-525.849,-52.2159,-25.9805,-12.09
3.943,4313.21,824.53,10660.9,9.55614,-162.331,-3.50432,26598.3,2274.82,-13653.8,-169.701,82.6448,43.8877,-478.048,12420.2,-2266.98,-44.2701,-32.4039,-124.467,-21826.8,-4781.57,-5674.35,-2.86109,-1.17957,-26.2243,2151.48,10551.3,1375.16,-29.5803,-33.4522,-24.4372,-27452.4,8319.56,9453.35,-134.683,-250.141,-10.0543,10496.1,-2471.6,-552.262,-50.2759,-25.945,-12.5381
3.9435,4330.67,808.116,10647.3,9.14923,-163.266,-3.86354,26306.5,1314.37,-13620.7,-164.715,80.5162,44.4735,-509.556,12396.1,-2298.04,-44.2073,-32.9728,-124.787,-21721.0,-4449.81,-5440.63,-3.8098,-0.0508715,-22.4362,2132.27,10584.0,1441.9,-30.1175,-34.2065,-24.1395,-27838.4,7946.04,9830.52,-131.102,-246.44,-9.61625,10514.1,-2443.03,-578.676,-48.3359,-25.9095,-12.9862
3.944,4348.13,791.701,10633.8,8.74233,-164.201,-4.22277,26014.6,353.918,-13587.6,-159.728,78.3875,45.0593,-541.063,12371.9,-2329.1,-44.1444,-33.5417,-125.107,-21615.3,-4118.05,-5206.91,-4.75851,1.07783,-18.6482,2113.07,10616.6,1508.63,-30.6547,-34.9608,-23.8418,-28224.5,7572.51,10207.7,-127.521,-242.74,-9.17822,10532.0,-2414.46,-605.089,-46.3958,-25.874,-13.4344
3.9445,4365.59,775.286,10620.2,8.33542,-165.137,-4.58199,25722.8,-606.532,-13554.4,-154.741,76.2589,45.6451,-572.571,12347.8,-2360.15,-44.0815,-34.1107,-125.427,-21509.6,-3786.29,-4973.19,-5.70722,2.20653,-14.8601,2093.87,10649.2,1575.36,-31.1919,-35.7152,-23.5441,-28610.5,7198.99,10584.9,-123.94,-239.04,-8.7402,10549.9,-2385.89,-631.503,-44.4558,-25.8385,-13.8825
3.945,4383.05,758.872,10606.6,7.92852,-166.072,-4.94122,25431.0,-1566.98,-13521.3,-149.755,74.1303,46.2308,-604.079,12323.7,-2391.21,-44.0187,-34.6796,-125.746,-21403.8,-3454.53,-4739.47,-6.65593,3.33523,-11.072,2074.67,10681.9,1642.1,-31.7292,-36.4695,-23.2463,-28996.6,6825.47,10962.0,-120.359,-235.34,-8.30217,10567.9,-2357.32,-657.916,-42.5157,-25.803,-14.3306
3.9455,4400.51,742.457,10593.0,7.52161,-167.007,-5.30044,25139.2,-2527.43,-13488.2,-144.768,72.0017,46.8166,-635.587,12299.6,-2422.27,-43.9558,-35.2485,-126.066,-21298.1,-3122.77,-4505.75,-7.60463,4.46394,-7.28397,2055.46,10714.5,1708.83,-32.2664,-37.2239,-22.9486,-29382.7,6451.95,11339.2,-116.778,-231.64,-7.86415,10585.8,-2328.76,-684.33,-40.5757,-25.7675,-14.7787
3.946,4417.97,726.042,10579.4,7.11471,-167.942,-5.65966,24847.3,-3487.88,-13455.1,-139.781,69.873,47.4024,-667.094,12275.5,-2453.33,-43.893,-35.8174,-126.386,-21192.4,-2791.01,-4272.03,-8.55334,5.59264,-3.4959,2036.26,10747.1,1775.57,-32.8036,-37.9782,-22.6509,-29768.7,6078.43,11716.4,-113.197,-227.94,-7.42613,10603.7,-2300.19,-710.743,-38.6357,-25.732,-15.2269
3.9465,4435.43,709.628,10565.8,6.7078,-168.878,-6.01889,24555.5,-4448.33,-13422.0,-134.795,67.7444,47.9881,-698.602,12251.4,-2484.38,-43.8301,-36.3863,-126.706,-21086.6,-2459.25,-4038.31,-9.50205,6.72134,0.292161,2017.06,10779.8,1842.3,-33.3408,-38.7326,-22.3532,-30154.8,5704.91,12093.5,-109.616,-224.24,-6.9881,10621.6,-2271.62,-737.157,-36.6956,-25.6965,-15.675
3.947,4441.39,700.913,10562.5,6.14164,-169.962,-6.38023,24380.1,-5178.18,-13316.5,-128.872,65.4929,48.8345,-716.726,12232.2,-2494.72,-43.7535,-37.0067,-127.036,-20986.9,-2211.73,-3781.95,-9.99872,7.11133,4.5239,2006.59,10799.6,1891.6,-33.8899,-39.5564,-22.0443,-30129.8,5444.07,12299.4,-105.22,-219.679,-7.73316,10645.2,-2223.94,-762.007,-34.8936,-25.4689,-16.22
3.9475,4441.59,696.048,10564.3,5.49585,-171.121,-6.74263,24262.8,-5792.73,-13174.8,-122.48,63.1801,49.8113,-728.159,12215.5,-2494.69,-43.6701,-37.6528,-127.37,-20890.2,-2006.35,-3514.26,-10.2694,7.13197,8.97749,2000.5,10813.1,1932.18,-34.4448,-40.415,-21.7299,-29899.3,5239.58,12419.6,-100.417,-214.688,-9.06976,10671.5,-2166.7,-786.076,-33.1606,-25.1453,-16.8134
3.948,4441.79,691.184,10566.1,4.85006,-172.28,-7.10502,24145.5,-6407.27,-13033.1,-116.089,60.8672,50.788,-739.592,12198.9,-2494.66,-43.5867,-38.2989,-127.705,-20793.5,-1800.96,-3246.57,-10.54,7.15261,13.4311,1994.4,10826.6,1972.76,-34.9998,-41.2736,-21.4155,-29668.8,5035.08,12539.8,-95.6141,-209.697,-10.4064,10697.8,-2109.46,-810.145,-31.4276,-24.8216,-17.4069
3.9485,4442.0,686.319,10568.0,4.20428,-173.44,-7.46742,24028.3,-7021.82,-12891.3,-109.698,58.5543,51.7647,-751.025,12182.2,-2494.63,-43.5033,-38.945,-128.04,-20696.7,-1595.57,-2978.88,-10.8107,7.17325,17.8847,1988.31,10840.1,2013.34,-35.5547,-42.1322,-21.1011,-29438.3,4830.59,12659.9,-90.8111,-204.706,-11.743,10724.1,-2052.21,-834.214,-29.6946,-24.498,-18.0003
3.949,4442.2,681.455,10569.8,3.55849,-174.599,-7.82982,23911.0,-7636.37,-12749.6,-103.307,56.2414,52.7415,-762.458,12165.5,-2494.6,-43.4199,-39.5911,-128.375,-20600.0,-1390.18,-2711.19,-11.0813,7.19389,22.3382,1982.21,10853.6,2053.93,-36.1096,-42.9907,-20.7867,-29207.8,4626.09,12780.1,-86.0081,-199.715,-13.0796,10750.5,-1994.97,-858.283,-27.9616,-24.1743,-18.5937
3.9495,4442.4,676.59,10571.6,2.9127,-175.758,-8.19222,23793.7,-8250.92,-12607.9,-96.9152,53.9286,53.7182,-773.891,12148.9,-2494.57,-43.3365,-40.2372,-128.709,-20503.3,-1184.79,-2443.51,-11.3519,7.21453,26.7918,1976.12,10867.1,2094.51,-36.6646,-43.8493,-20.4723,-28977.2,4421.6,12900.3,-81.205,-194.724,-14.4162,10776.8,-1937.73,-882.352,-26.2287,-23.8507,-19.1872
3.95,4442.6,671.726,10573.4,2.26691,-176.917,-8.55462,23676.5,-8865.46,-12466.2,-90.5239,51.6157,54.6949,-785.324,12132.2,-2494.54,-43.2531,-40.8834,-129.044,-20406.6,-979.404,-2175.82,-11.6226,7.23516,31.2454,1970.02,10880.6,2135.09,-37.2195,-44.7079,-20.1579,-28746.7,4217.1,13020.5,-76.402,-189.733,-15.7528,10803.1,-1880.49,-906.421,-24.4957,-23.5271,-19.7806
3.9505,4442.81,666.861,10575.2,1.62112,-178.076,-8.91701,23559.2,-9480.01,-12324.5,-84.1327,49.3028,55.6717,-796.757,12115.5,-2494.51,-43.1697,-41.5295,-129.379,-20309.8,-774.016,-1908.13,-11.8932,7.2558,35.699,1963.93,10894.0,2175.67,-37.7745,-45.5665,-19.8435,-28516.2,4012.61,13140.7,-71.599,-184.742,-17.0894,10829.4,-1823.25,-930.49,-22.7627,-23.2034,-20.374
3.951,4443.01,661.997,10577.1,0.975329,-179.235,-9.27941,23441.9,-10094.6,-12182.8,-77.7414,46.9899,56.6484,-808.189,12098.8,-2494.48,-43.0863,-42.1756,-129.714,-20213.1,-568.628,-1640.44,-12.1639,7.27644,40.1526,1957.83,10907.5,2216.25,-38.3294,-46.4251,-19.5292,-28285.7,3808.12,13260.8,-66.7959,-179.751,-18.426,10855.7,-1766.01,-954.559,-21.0297,-22.8798,-20.9675
3.9515,4462.15,646.432,10562.0,0.0924201,-180.304,-9.74498,23339.3,-10346.3,-12004.3,-71.0618,44.5241,57.5309,-842.886,12068.6,-2517.3,-42.9998,-42.8117,-130.103,-20118.2,-503.6,-1461.48,-12.3056,7.12722,44.5665,1957.38,10906.9,2238.14,-38.7541,-47.2352,-19.292,-27705.3,3788.14,13127.2,-62.5419,-175.55,-19.8884,10883.0,-1688.06,-972.691,-19.7963,-22.391,-21.6314
3.952,4486.69,627.811,10542.2,-0.858238,-181.346,-10.24,23240.9,-10494.5,-11815.2,-64.2999,42.0145,58.3866,-884.229,12034.5,-2546.65,-42.9124,-43.445,-130.509,-20023.9,-478.676,-1307.88,-12.4105,6.92947,48.969,1958.54,10902.1,2254.68,-39.1416,-48.0314,-19.077,-27024.8,3820.87,12921.1,-58.4447,-171.576,-21.3869,10910.5,-1604.19,-989.127,-18.7056,-21.855,-22.3156
3.9525,4511.24,609.19,10522.4,-1.8089,-182.389,-10.7351,23142.4,-10642.6,-11626.1,-57.5379,39.5049,59.2422,-925.573,12000.5,-2575.99,-42.825,-44.0782,-130.914,-19929.6,-453.751,-1154.27,-12.5154,6.73172,53.3715,1959.69,10897.4,2271.23,-39.5291,-48.8277,-18.8619,-26344.4,3853.61,12715.0,-54.3476,-167.602,-22.8853,10938.0,-1520.32,-1005.56,-17.6149,-21.3191,-22.9997
3.953,4535.79,590.568,10502.5,-2.75955,-183.432,-11.2301,23043.9,-10790.7,-11437.1,-50.776,36.9954,60.0978,-966.916,11966.4,-2605.34,-42.7376,-44.7115,-131.319,-19835.2,-428.827,-1000.67,-12.6203,6.53396,57.774,1960.85,10892.7,2287.78,-39.9166,-49.6239,-18.6469,-25663.9,3886.35,12508.9,-50.2504,-163.628,-24.3838,10965.5,-1436.46,-1022.0,-16.5242,-20.7831,-23.6838
3.9535,4560.33,571.947,10482.7,-3.71021,-184.475,-11.7252,22945.5,-10938.8,-11248.0,-44.014,34.4858,60.9534,-1008.26,11932.3,-2634.68,-42.6502,-45.3447,-131.724,-19740.9,-403.902,-847.06,-12.7252,6.33621,62.1766,1962.01,10888.0,2304.33,-40.3041,-50.4202,-18.4318,-24983.5,3919.08,12302.8,-46.1533,-159.654,-25.8822,10993.0,-1352.59,-1038.43,-15.4335,-20.2471,-24.3679
3.954,4584.88,553.326,10462.9,-4.66087,-185.517,-12.2202,22847.0,-11086.9,-11059.0,-37.2521,31.9762,61.8091,-1049.6,11898.2,-2664.03,-42.5628,-45.978,-132.13,-19646.6,-378.978,-693.453,-12.8301,6.13846,66.5791,1963.17,10883.3,2320.87,-40.6915,-51.2164,-18.2168,-24303.1,3951.82,12096.7,-42.0561,-155.679,-27.3807,11020.5,-1268.72,-1054.87,-14.3429,-19.7112,-25.0521
