Time,RFoot_accel.x,RFoot_accel.y,RFoot_accel.z,RFoot_gyro.x,RFoot_gyro.y,RFoot_gyro.z,LFoot_accel.x,LFoot_accel.y,LFoot_accel.z,LFoot_gyro.x,LFoot_gyro.y,LFoot_gyro.z,RShank_accel.x,RShank_accel.y,RShank_accel.z,RShank_gyro.x,RShank_gyro.y,RShank_gyro.z,LShank_accel.x,LShank_accel.y,LShank_accel.z,LShank_gyro.x,LShank_gyro.y,LShank_gyro.z,RThigh_accel.x,RThigh_accel.y,RThigh_accel.z,RThigh_gyro.x,RThigh_gyro.y,RThigh_gyro.z,LThigh_accel.x,LThigh_accel.y,LThigh_accel.z,LThigh_gyro.x,LThigh_gyro.y,LThigh_gyro.z,Pelvis_accel.x,Pelvis_accel.y,Pelvis_accel.z,Pelvis_gyro.x,Pelvis_gyro.y,Pelvis_gyro.z
3.83,4071.3,-1106.74,6370.47,-10.6594,347.703,99.7494,4684.67,-929.327,8946.17,21.2959,-70.8805,12.9492,2417.3,5379.59,-1592.61,62.7389,143.96,206.484,-1567.2,-10733.9,-1227.0,2.48161,-58.8926,34.1554,-5985.08,9893.35,-1264.25,16.435,37.2049,104.627,1275.04,10307.7,-1488.4,-19.129,79.8099,70.3039,9103.47,312.881,2375.35,27.0325,19.5945,3.84066
3.8305,4075.93,-1030.7,6410.55,-11.0172,348.305,99.904,4697.73,-941.41,8928.11,21.5202,-70.8917,12.9426,2380.41,5429.87,-1585.35,62.8408,143.88,207.403,-1582.93,-10677.6,-1203.05,2.49462,-58.9872,34.1075,-6010.06,9851.8,-1256.34,16.1497,37.4906,104.472,1264.14,10258.5,-1461.9,-19.1901,79.6167,70.3303,9077.85,357.62,2403.78,27.4933,19.3875,3.55834
3.831,4080.55,-954.665,6450.62,-11.3749,348.907,100.059,4710.79,-953.494,8910.05,21.7444,-70.9028,12.9359,2343.53,5480.16,-1578.09,62.9427,143.8,208.321,-1598.65,-10621.3,-1179.09,2.50762,-59.0817,34.0596,-6035.04,9810.26,-1248.42,15.8645,37.7764,104.316,1253.23,10209.2,-1435.41,-19.2513,79.4235,70.3567,9052.22,402.358,2432.21,27.9542,19.1805,3.27602
3.8315,4078.55,-923.849,6481.42,-12.0444,349.48,100.257,4710.29,-936.957,8894.99,21.879,-70.9589,12.8863,2307.43,5512.17,-1563.68,62.8609,143.768,209.368,-1609.92,-10575.9,-1171.99,2.51443,-59.3076,33.9547,-6045.81,9782.13,-1244.38,15.4199,38.2419,104.14,1223.77,10158.7,-1414.21,-19.4768,79.0929,70.3478,9037.81,440.043,2457.26,27.8259,18.8819,3.16705
3.832,4074.66,-905.954,6509.58,-12.8029,350.045,100.469,4705.92,-912.244,8880.8,21.988,-71.0278,12.8244,2271.56,5538.97,-1547.22,62.7266,143.75,210.451,-1619.93,-10533.6,-1169.7,2.51948,-59.5711,33.8334,-6052.51,9757.85,-1241.44,14.9299,38.7587,103.958,1189.01,10107.7,-1394.53,-19.7493,78.723,70.3288,9026.61,475.712,2481.34,27.5293,18.5571,3.1076
3.8325,4070.76,-888.059,6537.73,-13.5615,350.61,100.68,4701.55,-887.531,8866.6,22.097,-71.0967,12.7626,2235.69,5565.76,-1530.75,62.5924,143.731,211.534,-1629.93,-10491.3,-1167.41,2.52452,-59.8346,33.7122,-6059.22,9733.56,-1238.5,14.4399,39.2755,103.776,1154.25,10056.8,-1374.85,-20.0218,78.3531,70.3098,9015.41,511.382,2505.43,27.2327,18.2324,3.04816
3.833,4066.87,-870.164,6565.89,-14.32,351.174,100.892,4697.18,-862.817,8852.41,22.206,-71.1657,12.7007,2199.82,5592.55,-1514.29,62.4581,143.713,212.618,-1639.93,-10449.0,-1165.12,2.52956,-60.098,33.591,-6065.92,9709.27,-1235.56,13.9499,39.7923,103.594,1119.49,10005.8,-1355.16,-20.2943,77.9833,70.2908,9004.21,547.051,2529.51,26.9361,17.9077,2.98871
3.8335,4062.97,-852.269,6594.04,-15.0785,351.739,101.103,4692.81,-838.104,8838.22,22.315,-71.2346,12.6388,2163.95,5619.34,-1497.83,62.3238,143.695,213.701,-1649.93,-10406.7,-1162.83,2.5346,-60.3615,33.4697,-6072.62,9684.98,-1232.62,13.4599,40.3091,103.411,1084.73,9954.91,-1335.48,-20.5669,77.6134,70.2718,8993.01,582.721,2553.59,26.6394,17.5829,2.92927
3.834,4059.08,-834.373,6622.2,-15.8371,352.304,101.314,4688.44,-813.391,8824.02,22.424,-71.3036,12.577,2128.07,5646.14,-1481.37,62.1896,143.676,214.784,-1659.93,-10364.3,-1160.54,2.53965,-60.625,33.3485,-6079.33,9660.7,-1229.68,12.9699,40.8258,103.229,1049.97,9903.97,-1315.8,-20.8394,77.2435,70.2528,8981.81,618.39,2577.67,26.3428,17.2582,2.86982
3.8345,4055.18,-816.478,6650.35,-16.5956,352.869,101.526,4684.07,-788.677,8809.83,22.533,-71.3725,12.5151,2092.2,5672.93,-1464.9,62.0553,143.658,215.867,-1669.94,-10322.0,-1158.25,2.54469,-60.8884,33.2273,-6086.03,9636.41,-1226.74,12.4799,41.3426,103.047,1015.21,9853.03,-1296.11,-21.1119,76.8736,70.2337,8970.61,654.06,2601.75,26.0462,16.9334,2.81038
3.835,4051.29,-798.583,6678.5,-17.3542,353.434,101.737,4679.7,-763.964,8795.63,22.6419,-71.4414,12.4532,2056.33,5699.72,-1448.44,61.921,143.64,216.95,-1679.94,-10279.7,-1155.96,2.54973,-61.1519,33.106,-6092.73,9612.12,-1223.8,11.9899,41.8594,102.865,980.45,9802.09,-1276.43,-21.3844,76.5038,70.2147,8959.41,689.729,2625.83,25.7496,16.6087,2.75093
3.8355,4047.39,-780.688,6706.66,-18.1127,353.999,101.948,4675.33,-739.251,8781.44,22.7509,-71.5104,12.3914,2020.46,5726.52,-1431.98,61.7867,143.622,218.034,-1689.94,-10237.4,-1153.67,2.55478,-61.4154,32.9848,-6099.44,9587.83,-1220.86,11.4999,42.3762,102.683,945.69,9751.15,-1256.75,-21.6569,76.1339,70.1957,8948.21,725.399,2649.92,25.4529,16.2839,2.69149
3.836,4028.9,-771.607,6724.12,-19.073,354.468,102.281,4657.96,-695.453,8782.94,22.6667,-71.5919,12.1972,1985.59,5749.32,-1428.4,61.7102,143.419,219.128,-1706.1,-10191.1,-1174.08,2.57797,-61.4809,33.0063,-6132.98,9561.46,-1234.78,10.9506,43.1675,102.619,884.076,9719.18,-1256.37,-21.7282,76.0951,70.1418,8961.6,755.695,2636.09,25.1638,16.0229,2.77337
3.8365,4008.59,-763.627,6740.25,-20.0586,354.926,102.629,4638.97,-649.27,8786.4,22.5582,-71.6749,11.9864,1950.85,5771.62,-1426.44,61.6409,143.193,220.223,-1723.03,-10144.2,-1197.33,2.60343,-61.5216,33.0456,-6169.88,9534.82,-1250.8,10.3938,43.9931,102.571,819.105,9689.59,-1258.41,-21.7743,76.0976,70.0835,8978.07,785.319,2617.52,24.8757,15.7699,2.87292
3.837,3988.28,-755.647,6756.37,-21.0441,355.384,102.977,4619.98,-603.087,8789.86,22.4498,-71.758,11.7757,1916.11,5793.92,-1424.47,61.5715,142.967,221.319,-1739.96,-10097.4,-1220.58,2.62889,-61.5624,33.085,-6206.77,9508.18,-1266.82,9.83709,44.8187,102.522,754.134,9659.99,-1260.45,-21.8205,76.1002,70.0253,8994.53,814.944,2598.95,24.5875,15.5169,2.97247
3.8375,3967.97,-747.667,6772.5,-22.0297,355.842,103.325,4601.0,-556.904,8793.31,22.3414,-71.8411,11.565,1881.36,5816.23,-1422.51,61.5022,142.741,222.414,-1756.89,-10050.5,-1243.82,2.65435,-61.6031,33.1243,-6243.67,9481.54,-1282.84,9.28035,45.6443,102.474,689.163,9630.39,-1262.48,-21.8666,76.1028,69.967,9011.0,844.568,2580.39,24.2994,15.2639,3.07203
3.838,3947.66,-739.687,6788.62,-23.0152,356.3,103.673,4582.01,-510.72,8796.77,22.233,-71.9241,11.3542,1846.62,5838.53,-1420.54,61.4328,142.515,223.51,-1773.82,-10003.7,-1267.07,2.67981,-61.6439,33.1637,-6280.57,9454.91,-1298.86,8.72361,46.4699,102.425,624.192,9600.79,-1264.52,-21.9128,76.1054,69.9087,9027.47,874.193,2561.82,24.0112,15.0109,3.17158
3.8385,3927.34,-731.707,6804.75,-24.0008,356.758,104.021,4563.02,-464.537,8800.23,22.1246,-72.0072,11.1435,1811.88,5860.83,-1418.58,61.3635,142.289,224.605,-1790.75,-9956.8,-1290.32,2.70528,-61.6847,33.203,-6317.47,9428.27,-1314.88,8.16686,47.2955,102.377,559.221,9571.19,-1266.56,-21.9589,76.1079,69.8504,9043.93,903.817,2543.25,23.723,14.7578,3.27113
3.839,3907.03,-723.728,6820.87,-24.9863,357.215,104.369,4544.03,-418.354,8803.69,22.0162,-72.0903,10.9328,1777.14,5883.13,-1416.61,61.2942,142.063,225.701,-1807.69,-9909.95,-1313.57,2.73074,-61.7254,33.2424,-6354.36,9401.63,-1330.9,7.61012,48.1211,102.329,494.25,9541.6,-1268.6,-22.0051,76.1105,69.7922,9060.4,933.441,2524.68,23.4349,14.5048,3.37068
3.8395,3886.72,-715.748,6837.0,-25.9719,357.673,104.717,4525.04,-372.171,8807.15,21.9077,-72.1734,10.722,1742.4,5905.44,-1414.65,61.2248,141.837,226.796,-1824.62,-9863.1,-1336.81,2.7562,-61.7662,33.2818,-6391.26,9374.99,-1346.92,7.05338,48.9467,102.28,429.279,9512.0,-1270.63,-22.0512,76.1131,69.7339,9076.87,963.066,2506.12,23.1467,14.2518,3.47023
3.84,3866.41,-707.768,6853.12,-26.9574,358.131,105.065,4506.05,-325.988,8810.61,21.7993,-72.2564,10.5113,1707.65,5927.74,-1412.68,61.1555,141.611,227.891,-1841.55,-9816.25,-1360.06,2.78166,-61.8069,33.3211,-6428.16,9348.36,-1362.94,6.49664,49.7723,102.232,364.308,9482.4,-1272.67,-22.0973,76.1156,69.6756,9093.33,992.69,2487.55,22.8586,13.9988,3.56978
3.8405,3833.73,-696.085,6888.05,-27.9063,358.443,105.394,4507.4,-290.35,8813.99,21.6715,-72.4216,10.5514,1678.41,5940.75,-1394.92,61.3092,141.171,229.036,-1833.02,-9810.9,-1353.86,2.7845,-61.8202,33.3212,-6428.63,9340.93,-1345.17,5.90767,50.7681,102.183,298.672,9461.73,-1276.63,-21.9181,76.2609,69.7422,9091.9,1003.73,2458.14,23.0543,14.0052,3.50409
3.841,3801.05,-684.402,6922.97,-28.8551,358.754,105.722,4508.75,-254.712,8817.37,21.5437,-72.5867,10.5915,1649.17,5953.76,-1377.16,61.463,140.731,230.181,-1824.5,-9805.56,-1347.65,2.78734,-61.8335,33.3213,-6429.1,9333.51,-1327.4,5.3187,51.7638,102.133,233.036,9441.05,-1280.59,-21.7389,76.4063,69.8089,9090.48,1014.77,2428.73,23.25,14.0117,3.4384
3.8415,3768.37,-672.719,6957.9,-29.804,359.066,106.051,4510.09,-219.074,8820.76,21.4159,-72.7518,10.6316,1619.92,5966.78,-1359.4,61.6167,140.291,231.326,-1815.98,-9800.21,-1341.44,2.79018,-61.8468,33.3214,-6429.58,9326.09,-1309.63,4.72973,52.7595,102.084,167.4,9420.37,-1284.56,-21.5597,76.5516,69.8755,9089.05,1025.8,2399.31,23.4457,14.0181,3.37271
3.842,3735.69,-661.036,6992.82,-30.7528,359.378,106.38,4511.44,-183.436,8824.14,21.2882,-72.9169,10.6716,1590.68,5979.79,-1341.63,61.7705,139.851,232.471,-1807.46,-9794.87,-1335.24,2.79303,-61.8601,33.3215,-6430.05,9318.66,-1291.86,4.14076,53.7552,102.035,101.765,9399.7,-1288.52,-21.3805,76.6969,69.9421,9087.62,1036.84,2369.9,23.6415,14.0245,3.30701
3.8425,3703.01,-649.353,7027.74,-31.7017,359.689,106.708,4512.79,-147.798,8827.52,21.1604,-73.082,10.7117,1561.43,5992.8,-1323.87,61.9242,139.411,233.615,-1798.94,-9789.53,-1329.03,2.79587,-61.8734,33.3216,-6430.52,9311.24,-1274.09,3.55179,54.7509,101.986,36.1289,9379.02,-1292.48,-21.2013,76.8422,70.0088,9086.2,1047.88,2340.49,23.8372,14.031,3.24132
3.843,3670.33,-637.67,7062.67,-32.6505,360.001,107.037,4514.14,-112.16,8830.91,21.0326,-73.2472,10.7518,1532.19,6005.82,-1306.11,62.0779,138.971,234.76,-1790.41,-9784.18,-1322.83,2.79871,-61.8867,33.3217,-6430.99,9303.82,-1256.32,2.96281,55.7467,101.937,-29.5069,9358.35,-1296.44,-21.022,76.9875,70.0754,9084.77,1058.92,2311.08,24.0329,14.0374,3.17563
3.8435,3637.65,-625.987,7097.59,-33.5994,360.312,107.366,4515.49,-76.5217,8834.29,20.9048,-73.4123,10.7919,1502.95,6018.83,-1288.34,62.2317,138.53,235.905,-1781.89,-9778.84,-1316.62,2.80155,-61.8999,33.3218,-6431.46,9296.39,-1238.55,2.37384,56.7424,101.888,-95.1427,9337.67,-1300.4,-20.8428,77.1328,70.142,9083.34,1069.95,2281.67,24.2286,14.0438,3.10993
3.844,3604.97,-614.304,7132.52,-34.5482,360.624,107.694,4516.84,-40.8837,8837.67,20.777,-73.5774,10.8319,1473.7,6031.84,-1270.58,62.3854,138.09,237.05,-1773.37,-9773.5,-1310.42,2.80439,-61.9132,33.322,-6431.94,9288.97,-1220.78,1.78487,57.7381,101.839,-160.778,9317.0,-1304.36,-20.6636,77.2781,70.2086,9081.91,1080.99,2252.26,24.4244,14.0503,3.04424
3.8445,3570.99,-602.709,7168.36,-35.4909,360.914,108.007,4519.36,-6.50404,8840.26,20.6666,-73.7389,10.8828,1445.9,6045.6,-1255.44,62.5481,137.654,238.186,-1764.79,-9768.46,-1305.2,2.80407,-61.9273,33.3291,-6430.06,9278.42,-1205.82,1.19857,58.7392,101.789,-222.798,9297.35,-1305.86,-20.4967,77.3623,70.2793,9078.17,1092.42,2222.15,24.6347,14.0724,2.99813
3.845,3526.61,-591.816,7211.5,-36.3845,361.029,108.193,4531.3,17.8092,8836.47,20.6959,-73.8716,11.0202,1429.66,6065.32,-1261.31,62.7829,137.242,239.252,-1755.78,-9765.9,-1307.91,2.77838,-61.9477,33.3928,-6409.36,9242.88,-1213.29,0.633643,59.7833,101.73,-255.884,9285.95,-1287.69,-20.4278,76.9579,70.3818,9055.93,1106.98,2186.49,24.9615,14.2201,3.10871
3.8455,3482.23,-580.924,7254.65,-37.2782,361.145,108.379,4543.23,42.1225,8832.69,20.7252,-74.0042,11.1575,1413.42,6085.04,-1267.18,63.0177,136.831,240.319,-1746.77,-9763.33,-1310.63,2.7527,-61.9681,33.4564,-6388.67,9207.34,-1220.77,0.0687121,60.8274,101.671,-288.971,9274.54,-1269.52,-20.359,76.5535,70.4844,9033.69,1121.55,2150.84,25.2884,14.3678,3.21928
3.846,3437.85,-570.032,7297.8,-38.1718,361.26,108.565,4555.17,66.4358,8828.9,20.7545,-74.1368,11.2949,1397.17,6104.76,-1273.04,63.2525,136.42,241.386,-1737.75,-9760.77,-1313.34,2.72701,-61.9886,33.52,-6367.97,9171.8,-1228.25,-0.496219,61.8715,101.612,-322.058,9263.14,-1251.35,-20.2902,76.1491,70.587,9011.45,1136.11,2115.19,25.6153,14.5155,3.32985
3.8465,3393.47,-559.14,7340.95,-39.0654,361.375,108.751,4567.1,90.749,8825.11,20.7837,-74.2695,11.4322,1380.93,6124.48,-1278.91,63.4873,136.009,242.452,-1728.74,-9758.2,-1316.05,2.70132,-62.009,33.5837,-6347.28,9136.26,-1235.73,-1.06115,62.9156,101.553,-355.144,9251.73,-1233.18,-20.2214,75.7447,70.6895,8989.2,1150.67,2079.53,25.9421,14.6632,3.44042
3.847,3349.09,-548.248,7384.09,-39.959,361.491,108.937,4579.04,115.062,8821.33,20.813,-74.4021,11.5695,1364.69,6144.2,-1284.78,63.7221,135.598,243.519,-1719.73,-9755.64,-1318.76,2.67564,-62.0294,33.6473,-6326.58,9100.72,-1243.21,-1.62608,63.9597,101.494,-388.231,9240.33,-1215.0,-20.1525,75.3403,70.7921,8966.96,1165.23,2043.88,26.269,14.8109,3.551
3.8475,3304.71,-537.356,7427.24,-40.8526,361.606,109.123,4590.97,139.376,8817.54,20.8423,-74.5348,11.7069,1348.44,6163.92,-1290.64,63.9568,135.187,244.586,-1710.71,-9753.07,-1321.48,2.64995,-62.0498,33.7109,-6305.88,9065.18,-1250.69,-2.19101,65.0038,101.435,-421.318,9228.92,-1196.83,-20.0837,74.9359,70.8947,8944.72,1179.8,2008.22,26.5959,14.9587,3.66157
3.848,3260.33,-526.464,7470.39,-41.7462,361.721,109.309,4602.91,163.689,8813.76,20.8716,-74.6674,11.8442,1332.2,6183.64,-1296.51,64.1916,134.776,245.652,-1701.7,-9750.51,-1324.19,2.62427,-62.0702,33.7746,-6285.19,9029.64,-1258.16,-2.75594,66.0479,101.376,-454.404,9217.52,-1178.66,-20.0149,74.5315,70.9972,8922.48,1194.36,1972.57,26.9227,15.1064,3.77214
3.8485,3215.94,-515.571,7513.53,-42.6398,361.837,109.495,4614.84,188.002,8809.97,20.9008,-74.8001,11.9816,1315.96,6203.36,-1302.38,64.4264,134.364,246.719,-1692.69,-9747.94,-1326.9,2.59858,-62.0907,33.8382,-6264.49,8994.1,-1265.64,-3.32087,67.092,101.317,-487.491,9206.11,-1160.49,-19.9461,74.1272,71.0998,8900.23,1208.92,1936.91,27.2496,15.2541,3.88271
3.849,3176.71,-504.281,7550.59,-43.5541,361.927,109.657,4626.92,208.335,8804.58,20.9107,-74.9216,12.1181,1304.99,6224.91,-1314.85,64.6284,133.991,247.743,-1680.07,-9744.42,-1336.95,2.619,-62.0733,33.912,-6243.95,8960.4,-1269.76,-3.82396,68.1147,101.248,-511.415,9197.27,-1145.15,-19.9057,73.6583,71.1814,8881.06,1222.47,1912.2,27.5126,15.3804,4.00931
3.8495,3155.49,-491.595,7566.33,-44.5406,361.93,109.731,4639.48,214.736,8793.6,20.8525,-75.0044,12.2515,1312.5,6252.87,-1350.46,64.7158,133.75,248.62,-1654.82,-9737.56,-1372.69,2.80076,-61.9239,34.0213,-6223.93,8933.13,-1262.09,-4.11061,69.0626,101.147,-503.272,9197.41,-1139.71,-19.9651,72.9639,71.1895,8872.63,1232.49,1925.77,27.5521,15.4318,4.19198
3.85,3134.27,-478.909,7582.06,-45.5271,361.932,109.806,4652.05,221.138,8782.61,20.7943,-75.0872,12.3849,1320.01,6280.83,-1386.07,64.8032,133.509,249.497,-1629.57,-9730.7,-1408.43,2.98253,-61.7745,34.1306,-6203.9,8905.87,-1254.43,-4.39725,70.0105,101.045,-495.129,9197.56,-1134.27,-20.0244,72.2694,71.1976,8864.21,1242.5,1939.35,27.5915,15.4832,4.37466
3.8505,3113.05,-466.223,7597.8,-46.5137,361.935,109.881,4664.62,227.539,8771.63,20.7362,-75.1699,12.5183,1327.52,6308.79,-1421.68,64.8906,133.268,250.374,-1604.33,-9723.84,-1444.16,3.16429,-61.625,34.2399,-6183.88,8878.6,-1246.76,-4.6839,70.9584,100.943,-486.985,9197.7,-1128.84,-20.0838,71.575,71.2057,8855.78,1252.51,1952.92,27.631,15.5346,4.55733
3.851,3091.83,-453.538,7613.53,-47.5002,361.938,109.955,4677.19,233.94,8760.64,20.678,-75.2527,12.6517,1335.02,6336.74,-1457.29,64.978,133.026,251.251,-1579.08,-9716.98,-1479.9,3.34606,-61.4756,34.3493,-6163.86,8851.33,-1239.1,-4.97054,71.9063,100.842,-478.842,9197.84,-1123.4,-20.1431,70.8805,71.2137,8847.35,1262.53,1966.5,27.6705,15.586,4.74
3.8515,3070.61,-440.852,7629.27,-48.4867,361.94,110.03,4689.76,240.342,8749.65,20.6198,-75.3355,12.7852,1342.53,6364.7,-1492.9,65.0654,132.785,252.129,-1553.83,-9710.12,-1515.63,3.52783,-61.3262,34.4586,-6143.84,8824.07,-1231.43,-5.25719,72.8541,100.74,-470.699,9197.98,-1117.97,-20.2025,70.1861,71.2218,8838.93,1272.54,1980.08,27.7099,15.6374,4.92267
3.852,3049.39,-428.166,7645.0,-49.4733,361.943,110.104,4702.33,246.743,8738.67,20.5616,-75.4183,12.9186,1350.04,6392.66,-1528.5,65.1528,132.544,253.006,-1528.58,-9703.26,-1551.37,3.70959,-61.1767,34.5679,-6123.81,8796.8,-1223.77,-5.54383,73.802,100.638,-462.556,9198.12,-1112.53,-20.2619,69.4917,71.2299,8830.5,1282.55,1993.65,27.7494,15.6888,5.10535
3.8525,3028.16,-415.481,7660.74,-50.4598,361.946,110.179,4714.9,253.145,8727.68,20.5035,-75.501,13.052,1357.55,6420.62,-1564.11,65.2401,132.303,253.883,-1503.34,-9696.4,-1587.11,3.89136,-61.0273,34.6772,-6103.79,8769.54,-1216.1,-5.83047,74.7499,100.537,-454.412,9198.26,-1107.1,-20.3212,68.7972,71.238,8822.07,1292.57,2007.23,27.7888,15.7402,5.28802
3.853,3006.94,-402.795,7676.48,-51.4463,361.949,110.254,4727.47,259.546,8716.7,20.4453,-75.5838,13.1854,1365.06,6448.58,-1599.72,65.3275,132.062,254.76,-1478.09,-9689.54,-1622.84,4.07312,-60.8779,34.7865,-6083.77,8742.27,-1208.44,-6.11712,75.6978,100.435,-446.269,9198.41,-1101.66,-20.3806,68.1028,71.2461,8813.65,1302.58,2020.81,27.8283,15.7916,5.47069
3.8535,2999.13,-388.949,7692.37,-52.42,361.921,110.284,4737.17,255.137,8710.91,20.4214,-75.6744,13.3202,1385.82,6476.6,-1629.17,65.4619,131.865,255.611,-1459.99,-9681.36,-1653.7,4.2507,-60.6755,34.9123,-6066.12,8717.77,-1200.33,-6.35166,76.5648,100.302,-440.745,9200.99,-1098.27,-20.427,67.5074,71.2043,8798.15,1310.79,2023.04,27.8807,15.8799,5.58881
3.854,3018.11,-372.781,7708.58,-53.3681,361.833,110.226,4741.14,229.106,8715.54,20.4659,-75.7807,13.4578,1433.1,6504.76,-1646.31,65.6903,131.759,256.41,-1456.2,-9670.54,-1674.8,4.4199,-60.3674,35.0711,-6053.23,8698.81,-1191.33,-6.48199,77.2698,100.106,-440.46,9208.46,-1098.98,-20.4476,67.1103,71.0627,8768.53,1315.38,2002.59,27.9591,16.0418,5.57783
3.8545,3037.1,-356.613,7724.8,-54.3162,361.745,110.167,4745.11,203.076,8720.16,20.5104,-75.8871,13.5954,1480.39,6532.91,-1663.44,65.9187,131.652,257.209,-1452.41,-9659.73,-1695.89,4.5891,-60.0593,35.2299,-6040.34,8679.84,-1182.33,-6.61232,77.9749,99.9093,-440.175,9215.92,-1099.68,-20.4682,66.7132,70.9212,8738.9,1319.97,1982.14,28.0375,16.2038,5.56685
3.855,3056.09,-340.446,7741.01,-55.2643,361.656,110.109,4749.08,177.046,8724.78,20.555,-75.9934,13.7329,1527.67,6561.06,-1680.57,66.147,131.546,258.009,-1448.62,-9648.92,-1716.99,4.7583,-59.7512,35.3887,-6027.45,8660.88,-1173.33,-6.74264,78.6799,99.713,-439.89,9223.39,-1100.38,-20.4888,66.3161,70.7796,8709.27,1324.57,1961.7,28.1158,16.3657,5.55587
3.8555,3075.08,-324.278,7757.23,-56.2124,361.568,110.051,4753.05,151.015,8729.4,20.5995,-76.0997,13.8705,1574.95,6589.21,-1697.71,66.3754,131.44,258.808,-1444.83,-9638.1,-1738.09,4.92749,-59.4431,35.5475,-6014.55,8641.92,-1164.34,-6.87297,79.3849,99.5167,-439.605,9230.86,-1101.08,-20.5094,65.919,70.638,8679.65,1329.16,1941.25,28.1942,16.5277,5.54489
3.856,3094.07,-308.111,7773.44,-57.1605,361.48,109.993,4757.02,124.985,8734.03,20.6441,-76.206,14.0081,1622.23,6617.37,-1714.84,66.6038,131.333,259.607,-1441.04,-9627.29,-1759.19,5.09669,-59.135,35.7063,-6001.66,8622.95,-1155.34,-7.0033,80.09,99.3204,-439.32,9238.33,-1101.79,-20.53,65.5219,70.4964,8650.02,1333.76,1920.8,28.2726,16.6897,5.53391
3.8565,3113.06,-291.943,7789.66,-58.1085,361.392,109.934,4761.0,98.9548,8738.65,20.6886,-76.3123,14.1456,1669.51,6645.52,-1731.97,66.8322,131.227,260.406,-1437.25,-9616.48,-1780.28,5.26589,-58.8269,35.8651,-5988.77,8603.99,-1146.34,-7.13363,80.795,99.1242,-439.035,9245.8,-1102.49,-20.5506,65.1247,70.3549,8620.39,1338.35,1900.35,28.3509,16.8516,5.52293
3.857,3132.05,-275.776,7805.87,-59.0566,361.303,109.876,4764.97,72.9245,8743.27,20.7331,-76.4187,14.2832,1716.8,6673.67,-1749.1,67.0605,131.12,261.206,-1433.46,-9605.66,-1801.38,5.43509,-58.5188,36.0239,-5975.88,8585.03,-1137.34,-7.26396,81.5,98.9279,-438.749,9253.26,-1103.19,-20.5712,64.7276,70.2133,8590.77,1342.94,1879.9,28.4293,17.0136,5.51195
3.8575,3151.03,-259.608,7822.08,-60.0047,361.215,109.818,4768.94,46.8941,8747.89,20.7777,-76.525,14.4208,1764.08,6701.83,-1766.24,67.2889,131.014,262.005,-1429.66,-9594.85,-1822.48,5.60429,-58.2107,36.1827,-5962.99,8566.06,-1128.34,-7.39428,82.2051,98.7316,-438.464,9260.73,-1103.89,-20.5918,64.3305,70.0717,8561.14,1347.54,1859.46,28.5077,17.1756,5.50097
3.858,3176.61,-241.398,7847.52,-60.9219,361.06,109.751,4761.94,37.1857,8746.38,20.8247,-76.6279,14.4856,1801.79,6733.65,-1785.11,67.5852,131.087,262.766,-1419.68,-9587.53,-1850.61,5.75171,-57.945,36.3242,-5944.94,8548.23,-1117.27,-7.47512,82.8275,98.5256,-432.273,9266.02,-1115.1,-20.6432,64.0492,69.9697,8547.57,1353.64,1847.84,28.3501,17.249,5.6414
3.8585,3210.42,-220.636,7884.47,-61.8005,360.822,109.673,4741.23,47.8796,8737.18,20.8748,-76.7264,14.4596,1827.55,6770.06,-1806.15,67.9664,131.384,263.479,-1401.94,-9584.58,-1887.52,5.87192,-57.7324,36.4443,-5920.46,8531.82,-1103.6,-7.49411,83.3467,98.3074,-418.698,9268.59,-1139.45,-20.7333,63.9126,69.917,8554.07,1361.63,1847.27,27.8976,17.2118,5.97111
3.859,3244.23,-199.874,7921.42,-62.6791,360.584,109.595,4720.52,58.5735,8727.99,20.9249,-76.825,14.4335,1853.31,6806.47,-1827.19,68.3476,131.681,264.192,-1384.2,-9581.62,-1924.44,5.99212,-57.5198,36.5643,-5895.97,8515.41,-1089.93,-7.51309,83.8658,98.0893,-405.124,9271.16,-1163.79,-20.8234,63.776,69.8643,8560.58,1369.61,1846.69,27.445,17.1746,6.30081
3.8595,3278.04,-179.111,7958.38,-63.5577,360.346,109.517,4699.81,69.2674,8718.8,20.9751,-76.9236,14.4075,1879.06,6842.88,-1848.23,68.7287,131.978,264.905,-1366.47,-9578.67,-1961.35,6.11233,-57.3072,36.6843,-5871.49,8499.0,-1076.26,-7.53207,84.385,97.8712,-391.549,9273.72,-1188.14,-20.9134,63.6394,69.8116,8567.08,1377.6,1846.12,26.9925,17.1374,6.63051
3.86,3311.85,-158.349,7995.33,-64.4363,360.107,109.439,4679.1,79.9613,8709.6,21.0252,-77.0222,14.3815,1904.82,6879.29,-1869.27,69.1099,132.275,265.617,-1348.73,-9575.72,-1998.27,6.23253,-57.0946,36.8043,-5847.01,8482.59,-1062.59,-7.55105,84.9042,97.6531,-377.975,9276.29,-1212.48,-21.0035,63.5028,69.7589,8573.59,1385.59,1845.55,26.54,17.1002,6.96022
3.8605,3345.66,-137.587,8032.28,-65.3149,359.869,109.361,4658.39,90.6552,8700.41,21.0753,-77.1208,14.3554,1930.58,6915.7,-1890.31,69.4911,132.572,266.33,-1331.0,-9572.76,-2035.18,6.35274,-56.882,36.9244,-5822.52,8466.17,-1048.92,-7.57004,85.4233,97.435,-364.4,9278.86,-1236.83,-21.0936,63.3662,69.7062,8580.09,1393.57,1844.97,26.0874,17.063,7.28992
3.861,3379.47,-116.825,8069.24,-66.1935,359.631,109.283,4637.68,101.349,8691.22,21.1254,-77.2193,14.3294,1956.33,6952.11,-1911.35,69.8723,132.869,267.043,-1313.26,-9569.81,-2072.1,6.47294,-56.6694,37.0444,-5798.04,8449.76,-1035.25,-7.58902,85.9425,97.2168,-350.826,9281.42,-1261.17,-21.1836,63.2296,69.6535,8586.59,1401.56,1844.4,25.6349,17.0258,7.61962
3.8615,3413.28,-96.0623,8106.19,-67.0721,359.393,109.205,4616.97,112.043,8682.03,21.1755,-77.3179,14.3033,1982.09,6988.52,-1932.39,70.2535,133.166,267.756,-1295.53,-9566.86,-2109.01,6.59315,-56.4569,37.1644,-5773.55,8433.35,-1021.58,-7.608,86.4617,96.9987,-337.251,9283.99,-1285.51,-21.2737,63.093,69.6009,8593.1,1409.55,1843.83,25.1824,16.9885,7.94933
3.862,3447.09,-75.3,8143.15,-67.9507,359.154,109.127,4596.26,122.737,8672.83,21.2256,-77.4165,14.2773,2007.85,7024.93,-1953.43,70.6347,133.463,268.469,-1277.79,-9563.9,-2145.93,6.71335,-56.2443,37.2845,-5749.07,8416.94,-1007.91,-7.62698,86.9808,96.7806,-323.677,9286.56,-1309.86,-21.3638,62.9565,69.5482,8599.6,1417.54,1843.25,24.7299,16.9513,8.27903
3.8625,3481.69,-67.8888,8194.86,-68.7645,358.839,108.951,4579.67,132.254,8665.63,21.2099,-77.4937,14.2969,2030.7,7058.04,-1986.18,70.9779,133.86,269.215,-1261.98,-9554.54,-2160.14,6.78971,-55.9831,37.3927,-5737.96,8392.96,-1000.32,-7.62979,87.3845,96.5406,-322.78,9289.61,-1278.42,-21.4676,62.6172,69.4337,8597.27,1430.36,1833.41,24.5268,16.9323,8.52562
3.863,3516.93,-71.1585,8258.38,-69.5265,358.461,108.696,4566.39,140.829,8660.01,21.1415,-77.5537,14.353,2051.22,7088.51,-2028.3,71.2908,134.336,269.986,-1247.71,-9540.05,-2156.2,6.83099,-55.683,37.4914,-5737.55,8362.94,-997.577,-7.61966,87.6959,96.2832,-332.025,9293.04,-1202.36,-21.5825,62.1158,69.2698,8587.86,1447.07,1816.16,24.5233,16.9278,8.70572
3.8635,3552.16,-74.4283,8321.9,-70.2885,358.083,108.442,4553.1,149.404,8654.39,21.0731,-77.6137,14.4091,2071.75,7118.98,-2070.43,71.6036,134.813,270.758,-1233.43,-9525.56,-2152.25,6.87226,-55.3829,37.5901,-5737.14,8332.91,-994.838,-7.60953,88.0073,96.0258,-341.27,9296.48,-1126.3,-21.6973,61.6145,69.1059,8578.46,1463.77,1798.91,24.5197,16.9233,8.88582
3.864,3587.39,-77.698,8385.42,-71.0505,357.705,108.188,4539.82,157.979,8648.78,21.0047,-77.6737,14.4652,2092.27,7149.46,-2112.55,71.9165,135.29,271.53,-1219.16,-9511.07,-2148.3,6.91354,-55.0828,37.6889,-5736.73,8302.88,-992.1,-7.5994,88.3187,95.7684,-350.515,9299.91,-1050.24,-21.8122,61.1131,68.942,8569.06,1480.47,1781.65,24.5162,16.9188,9.06592
3.8645,3622.62,-80.9677,8448.94,-71.8124,357.327,107.933,4526.53,166.554,8643.16,20.9363,-77.7337,14.5213,2112.79,7179.93,-2154.67,72.2294,135.767,272.301,-1204.88,-9496.58,-2144.36,6.95482,-54.7827,37.7876,-5736.32,8272.85,-989.361,-7.58927,88.6301,95.511,-359.76,9303.35,-974.174,-21.9271,60.6117,68.7781,8559.65,1497.17,1764.4,24.5127,16.9143,9.24602
3.865,3657.85,-84.2374,8512.46,-72.5744,356.949,107.679,4513.25,175.129,8637.54,20.8679,-77.7937,14.5774,2133.32,7210.4,-2196.79,72.5423,136.244,273.073,-1190.61,-9482.09,-2140.41,6.99609,-54.4826,37.8864,-5735.9,8242.83,-986.623,-7.57914,88.9414,95.2536,-369.005,9306.78,-898.112,-22.0419,60.1104,68.6142,8550.25,1513.87,1747.15,24.5092,16.9098,9.42612
3.8655,3693.08,-87.5072,8575.98,-73.3364,356.572,107.425,4499.96,183.704,8631.93,20.7995,-77.8537,14.6335,2153.84,7240.87,-2238.91,72.8552,136.721,273.845,-1176.34,-9467.6,-2136.46,7.03737,-54.1824,37.9851,-5735.49,8212.8,-983.885,-7.56901,89.2528,94.9962,-378.25,9310.22,-822.05,-22.1568,59.609,68.4503,8540.84,1530.57,1729.89,24.5056,16.9053,9.60622
3.866,3728.31,-90.7769,8639.5,-74.0983,356.194,107.17,4486.68,192.28,8626.31,20.7311,-77.9138,14.6896,2174.37,7271.34,-2281.04,73.168,137.197,274.617,-1162.06,-9453.11,-2132.52,7.07865,-53.8823,38.0838,-5735.08,8182.77,-981.146,-7.55888,89.5642,94.7388,-387.495,9313.65,-745.988,-22.2717,59.1076,68.2864,8531.44,1547.27,1712.64,24.5021,16.9007,9.78632
3.8665,3763.54,-94.0466,8703.02,-74.8603,355.816,106.916,4473.4,200.855,8620.7,20.6627,-77.9738,14.7457,2194.89,7301.81,-2323.16,73.4809,137.674,275.388,-1147.79,-9438.62,-2128.57,7.11992,-53.5823,38.1826,-5734.67,8152.75,-978.408,-7.54875,89.8756,94.4814,-396.74,9317.08,-669.926,-22.3865,58.6063,68.1226,8522.04,1563.97,1695.39,24.4986,16.8962,9.96642
3.867,3816.22,-92.449,8757.19,-75.4284,355.442,106.666,4478.86,222.749,8624.98,20.6425,-78.039,14.8105,2192.28,7349.73,-2352.39,73.7174,138.182,276.055,-1135.8,-9437.61,-2134.04,7.10432,-53.2953,38.3136,-5747.41,8116.43,-977.437,-7.48767,90.0966,94.1643,-397.771,9315.99,-632.094,-22.4031,58.0525,67.9124,8528.27,1566.93,1696.45,24.4236,16.7417,10.1236
3.8675,3877.62,-88.4176,8806.68,-75.8996,355.069,106.419,4493.71,251.303,8634.22,20.6464,-78.1068,14.8797,2178.1,7406.39,-2375.19,73.9158,138.706,276.669,-1124.95,-9443.35,-2144.21,7.06027,-53.0149,38.4608,-5766.73,8076.96,-977.35,-7.40113,90.2726,93.8174,-394.695,9312.62,-613.377,-22.3705,57.4724,67.6791,8542.31,1563.02,1706.68,24.3129,16.5122,10.2694
3.868,3939.02,-84.3862,8856.17,-76.3708,354.696,106.171,4508.55,279.857,8643.46,20.6502,-78.1746,14.949,2163.92,7463.04,-2397.98,74.1142,139.229,277.284,-1114.1,-9449.09,-2154.38,7.01622,-52.7345,38.608,-5786.06,8037.5,-977.263,-7.31459,90.4485,93.4704,-391.619,9309.25,-594.661,-22.3379,56.8924,67.4458,8556.36,1559.11,1716.91,24.2022,16.2827,10.4151
3.8685,4000.42,-80.3549,8905.66,-76.842,354.324,105.924,4523.39,308.412,8652.7,20.654,-78.2424,15.0182,2149.74,7519.69,-2420.78,74.3125,139.753,277.898,-1103.25,-9454.83,-2164.55,6.97217,-52.4542,38.7552,-5805.38,7998.03,-977.176,-7.22805,90.6245,93.1234,-388.543,9305.89,-575.944,-22.3053,56.3124,67.2125,8570.41,1555.2,1727.14,24.0914,16.0532,10.5609
3.869,4061.82,-76.3235,8955.16,-77.3132,353.951,105.676,4538.24,336.966,8661.94,20.6579,-78.3102,15.0874,2135.56,7576.35,-2443.57,74.5109,140.276,278.512,-1092.41,-9460.57,-2174.72,6.92812,-52.1738,38.9024,-5824.7,7958.56,-977.089,-7.1415,90.8004,92.7765,-385.467,9302.52,-557.227,-22.2727,55.7323,66.9793,8584.45,1551.29,1737.36,23.9807,15.8237,10.7066
3.8695,4123.22,-72.2921,9004.65,-77.7844,353.579,105.429,4553.08,365.52,8671.18,20.6617,-78.378,15.1566,2121.38,7633.0,-2466.36,74.7092,140.799,279.126,-1081.56,-9466.31,-2184.89,6.88407,-51.8934,39.0496,-5844.02,7919.1,-977.002,-7.05496,90.9763,92.4295,-382.391,9299.15,-538.51,-22.2401,55.1523,66.746,8598.5,1547.38,1747.59,23.87,15.5942,10.8524
3.87,4184.62,-68.2607,9054.14,-78.2556,353.206,105.181,4567.92,394.074,8680.42,20.6656,-78.4458,15.2259,2107.2,7689.65,-2489.16,74.9076,141.323,279.741,-1070.71,-9472.05,-2195.06,6.84002,-51.613,39.1968,-5863.34,7879.63,-976.915,-6.96842,91.1523,92.0826,-379.315,9295.79,-519.793,-22.2074,54.5723,66.5127,8612.55,1543.46,1757.82,23.7593,15.3647,10.9982
3.8705,4246.02,-64.2294,9103.63,-78.7268,352.834,104.934,4582.77,422.628,8689.66,20.6694,-78.5136,15.2951,2093.02,7746.31,-2511.95,75.106,141.846,280.355,-1059.86,-9477.78,-2205.23,6.79597,-51.3326,39.3439,-5882.66,7840.17,-976.828,-6.88187,91.3282,91.7356,-376.24,9292.42,-501.076,-22.1748,53.9922,66.2794,8626.59,1539.55,1768.05,23.6486,15.1352,11.1439
3.871,4307.42,-60.198,9153.12,-79.198,352.461,104.686,4597.61,451.182,8698.89,20.6733,-78.5814,15.3643,2078.84,7802.96,-2534.74,75.3043,142.37,280.969,-1049.01,-9483.52,-2215.4,6.75192,-51.0522,39.4911,-5901.98,7800.7,-976.741,-6.79533,91.5042,91.3886,-373.164,9289.05,-482.359,-22.1422,53.4122,66.0461,8640.64,1535.64,1778.28,23.5378,14.9057,11.2897
3.8715,4391.6,-56.9291,9174.2,-79.6235,352.238,104.416,4589.23,478.552,8697.16,20.6898,-78.6649,15.492,2063.74,7860.74,-2529.01,75.4426,142.76,281.539,-1066.42,-9495.42,-2218.82,6.81821,-50.7619,39.6397,-5943.65,7771.35,-974.865,-6.84239,91.6518,91.052,-381.034,9290.37,-499.877,-22.1111,52.9446,65.955,8660.37,1538.63,1780.37,23.2238,14.7546,11.5357
3.872,4482.28,-53.8781,9187.17,-80.0358,352.057,104.138,4574.21,505.583,8692.29,20.7099,-78.7529,15.6365,2048.37,7918.83,-2515.12,75.5636,143.113,282.096,-1091.91,-9509.08,-2220.31,6.91602,-50.4687,39.7886,-5991.7,7744.9,-972.477,-6.92763,91.7913,90.7183,-392.032,9293.02,-527.749,-22.0804,52.5092,65.9046,8681.71,1543.6,1780.14,22.8517,14.6259,11.8104
3.8725,4572.96,-50.827,9200.13,-80.4482,351.876,103.861,4559.19,532.614,8687.42,20.73,-78.8409,15.7809,2033.01,7976.92,-2501.23,75.6847,143.465,282.653,-1117.4,-9522.74,-2221.81,7.01384,-50.1755,39.9376,-6039.75,7718.44,-970.09,-7.01286,91.9309,90.3845,-403.029,9295.68,-555.62,-22.0497,52.0737,65.8541,8703.06,1548.56,1779.92,22.4796,14.4972,12.085
3.873,4663.64,-47.776,9213.1,-80.8605,351.695,103.583,4544.17,559.645,8682.55,20.7501,-78.929,15.9253,2017.65,8035.02,-2487.34,75.8058,143.818,283.211,-1142.89,-9536.39,-2223.3,7.11165,-49.8822,40.0865,-6087.81,7691.98,-967.702,-7.09809,92.0704,90.0508,-414.027,9298.33,-583.491,-22.019,51.6383,65.8037,8724.4,1553.52,1779.69,22.1076,14.3685,12.3597
3.8735,4754.32,-44.7249,9226.06,-81.2729,351.515,103.306,4529.15,586.675,8677.68,20.7702,-79.017,16.0697,2002.28,8093.11,-2473.45,75.9269,144.17,283.768,-1168.38,-9550.05,-2224.8,7.20946,-49.589,40.2355,-6135.86,7665.53,-965.315,-7.18333,92.21,89.7171,-425.024,9300.99,-611.362,-21.9883,51.2029,65.7532,8745.75,1558.48,1779.46,21.7355,14.2398,12.6344
3.874,4845.01,-41.6739,9239.03,-81.6853,351.334,103.028,4514.13,613.706,8672.81,20.7903,-79.105,16.2141,1986.92,8151.21,-2459.56,76.048,144.523,284.325,-1193.87,-9563.71,-2226.29,7.30728,-49.2958,40.3844,-6183.92,7639.07,-962.927,-7.26856,92.3495,89.3834,-436.022,9303.64,-639.233,-21.9576,50.7675,65.7028,8767.09,1563.45,1779.23,21.3634,14.1111,12.9091
3.8745,4935.69,-38.6228,9251.99,-82.0976,351.153,102.751,4499.12,640.737,8667.94,20.8104,-79.193,16.3586,1971.55,8209.3,-2445.67,76.1691,144.875,284.882,-1219.36,-9577.37,-2227.79,7.40509,-49.0026,40.5334,-6231.97,7612.62,-960.54,-7.3538,92.489,89.0496,-447.02,9306.3,-667.104,-21.9269,50.332,65.6523,8788.44,1568.41,1779.0,20.9913,13.9824,13.1837
3.875,5026.37,-35.5718,9264.96,-82.51,350.972,102.473,4484.1,667.768,8663.07,20.8305,-79.2811,16.503,1956.19,8267.4,-2431.78,76.2901,145.227,285.44,-1244.85,-9591.02,-2229.28,7.5029,-48.7094,40.6823,-6280.02,7586.16,-958.153,-7.43903,92.6286,88.7159,-458.017,9308.95,-694.975,-21.8962,49.8966,65.6019,8809.79,1573.37,1778.78,20.6192,13.8537,13.4584
3.8755,5117.05,-32.5208,9277.92,-82.9223,350.792,102.196,4469.08,694.799,8658.2,20.8506,-79.3691,16.6474,1940.83,8325.49,-2417.89,76.4112,145.58,285.997,-1270.34,-9604.68,-2230.77,7.60072,-48.4162,40.8313,-6328.08,7559.7,-955.765,-7.52427,92.7681,88.3822,-469.015,9311.61,-722.846,-21.8655,49.4612,65.5514,8831.13,1578.33,1778.55,20.2471,13.725,13.7331
3.876,5189.74,-32.6658,9297.77,-83.3194,350.731,101.8,4478.34,687.056,8654.51,20.8938,-79.4476,16.7707,1915.72,8392.93,-2421.01,76.6948,145.729,286.494,-1281.44,-9625.87,-2220.04,7.5866,-48.1365,40.898,-6364.47,7542.75,-955.732,-7.54921,92.8293,87.947,-479.277,9325.46,-685.69,-21.8604,49.1954,65.5554,8833.36,1572.12,1774.85,20.1186,13.5899,14.0227
3.8765,5260.17,-33.2105,9318.48,-83.7145,350.685,101.389,4490.64,674.965,8650.97,20.9399,-79.525,16.8914,1889.39,8461.53,-2426.25,76.9987,145.852,286.984,-1290.73,-9648.0,-2207.77,7.55849,-47.8585,40.9545,-6399.4,7526.98,-955.992,-7.56663,92.8806,87.4991,-489.447,9340.7,-640.406,-21.8585,48.9509,65.5661,8833.2,1564.52,1770.72,20.0206,13.454,14.3142
3.877,5330.61,-33.7551,9339.18,-84.1096,350.639,100.978,4502.94,662.875,8647.42,20.986,-79.6023,17.0121,1863.06,8530.14,-2431.5,77.3026,145.975,287.474,-1300.03,-9670.13,-2195.51,7.53038,-47.5806,41.011,-6434.34,7511.21,-956.253,-7.58404,92.932,87.0513,-499.617,9355.95,-595.122,-21.8566,48.7064,65.5769,8833.04,1556.91,1766.59,19.9225,13.3181,14.6057
3.8775,5401.05,-34.2997,9359.89,-84.5047,350.594,100.567,4515.24,650.784,8643.88,21.032,-79.6797,17.1328,1836.73,8598.74,-2436.74,77.6065,146.099,287.964,-1309.33,-9692.26,-2183.24,7.50227,-47.3026,41.0675,-6469.27,7495.44,-956.513,-7.60145,92.9833,86.6034,-509.787,9371.2,-549.837,-21.8547,48.4619,65.5876,8832.88,1549.3,1762.46,19.8245,13.1822,14.8972
3.878,5471.48,-34.8443,9380.59,-84.8999,350.548,100.156,4527.54,638.694,8640.34,21.0781,-79.757,17.2534,1810.41,8667.34,-2441.99,77.9104,146.222,288.454,-1318.63,-9714.39,-2170.97,7.47416,-47.0247,41.124,-6504.21,7479.67,-956.774,-7.61887,93.0347,86.1555,-519.957,9386.45,-504.553,-21.8528,48.2174,65.5984,8832.72,1541.69,1758.33,19.7265,13.0462,15.1888
3.8785,5541.92,-35.3889,9401.3,-85.295,350.502,99.7455,4539.84,626.604,8636.8,21.1242,-79.8344,17.3741,1784.08,8735.95,-2447.23,78.2143,146.346,288.944,-1327.92,-9736.52,-2158.71,7.44606,-46.7467,41.1804,-6539.14,7463.9,-957.035,-7.63628,93.086,85.7077,-530.128,9401.69,-459.269,-21.8509,47.9729,65.6091,8832.56,1534.09,1754.21,19.6284,12.9103,15.4803
3.879,5612.36,-35.9335,9422.0,-85.6901,350.456,99.3346,4552.13,614.513,8633.26,21.1702,-79.9117,17.4948,1757.75,8804.55,-2452.48,78.5182,146.469,289.434,-1337.22,-9758.65,-2146.44,7.41795,-46.4687,41.2369,-6574.08,7448.13,-957.295,-7.65369,93.1373,85.2598,-540.298,9416.94,-413.985,-21.849,47.7284,65.6199,8832.4,1526.48,1750.08,19.5304,12.7744,15.7718
3.8795,5682.79,-36.4781,9442.71,-86.0852,350.411,98.9238,4564.43,602.423,8629.72,21.2163,-79.9891,17.6155,1731.42,8873.15,-2457.72,78.8221,146.592,289.924,-1346.52,-9780.79,-2134.18,7.38984,-46.1908,41.2934,-6609.01,7432.36,-957.556,-7.67111,93.1887,84.8119,-550.468,9432.19,-368.7,-21.8471,47.4838,65.6306,8832.24,1518.87,1745.95,19.4324,12.6385,16.0633
3.88,5753.23,-37.0227,9463.41,-86.4804,350.365,98.5129,4576.73,590.332,8626.18,21.2623,-80.0664,17.7362,1705.1,8941.75,-2462.97,79.126,146.716,290.414,-1355.82,-9802.92,-2121.91,7.36173,-45.9128,41.3499,-6643.95,7416.59,-957.816,-7.68852,93.24,84.3641,-560.638,9447.43,-323.416,-21.8452,47.2393,65.6413,8832.08,1511.27,1741.82,19.3343,12.5026,16.3548
3.8805,5838.74,-21.9634,9481.99,-87.0558,350.482,98.327,4598.45,573.076,8612.9,21.298,-80.1872,17.8092,1659.36,9012.69,-2463.67,79.3597,146.779,290.897,-1365.04,-9818.66,-2100.97,7.43347,-45.6777,41.4072,-6663.74,7391.74,-933.781,-7.67444,93.1621,83.965,-539.292,9477.22,-373.023,-21.9271,47.2824,65.6534,8855.52,1488.68,1743.88,19.4354,12.4833,16.3821
3.881,5924.25,-6.90417,9500.56,-87.6313,350.599,98.141,4620.17,555.819,8599.63,21.3337,-80.3081,17.8822,1613.63,9083.63,-2464.38,79.5933,146.842,291.381,-1374.27,-9834.41,-2080.04,7.5052,-45.4427,41.4646,-6683.53,7366.88,-909.746,-7.66036,93.0842,83.5659,-517.946,9507.01,-422.63,-22.0091,47.3255,65.6655,8878.96,1466.09,1745.94,19.5365,12.464,16.4094
3.8815,6009.77,8.1551,9519.13,-88.2067,350.715,97.955,4641.9,538.563,8586.35,21.3694,-80.4289,17.9552,1567.89,9154.57,-2465.08,79.8269,146.905,291.865,-1383.5,-9850.16,-2059.1,7.57694,-45.2076,41.5219,-6703.32,7342.03,-885.711,-7.64628,93.0063,83.1668,-496.6,9536.79,-472.237,-22.0911,47.3685,65.6775,8902.4,1443.5,1748.0,19.6376,12.4447,16.4367
3.882,6095.28,23.2144,9537.7,-88.7822,350.832,97.769,4663.62,521.307,8573.07,21.4051,-80.5497,18.0282,1522.16,9225.51,-2465.78,80.0605,146.968,292.349,-1392.73,-9865.91,-2038.16,7.64868,-44.9725,41.5793,-6723.11,7317.17,-861.675,-7.6322,92.9284,82.7677,-475.254,9566.58,-521.845,-22.1731,47.4116,65.6896,8925.84,1420.91,1750.06,19.7387,12.4254,16.464
3.8825,6180.79,38.2736,9556.28,-89.3576,350.949,97.583,4685.34,504.05,8559.8,21.4408,-80.6705,18.1012,1476.42,9296.45,-2466.48,80.2941,147.031,292.833,-1401.96,-9881.66,-2017.23,7.72042,-44.7375,41.6367,-6742.9,7292.32,-837.64,-7.61812,92.8505,82.3686,-453.908,9596.36,-571.452,-22.2551,47.4546,65.7017,8949.29,1398.32,1752.12,19.8398,12.4062,16.4913
3.883,6266.31,53.3329,9574.85,-89.9331,351.066,97.397,4707.06,486.794,8546.52,21.4765,-80.7914,18.1742,1430.69,9367.39,-2467.19,80.5277,147.095,293.316,-1411.19,-9897.41,-1996.29,7.79215,-44.5024,41.694,-6762.7,7267.47,-813.605,-7.60404,92.7726,81.9696,-432.562,9626.15,-621.059,-22.337,47.4977,65.7138,8972.73,1375.74,1754.18,19.9409,12.3869,16.5186
3.8835,6351.82,68.3922,9593.42,-90.5085,351.183,97.2111,4728.78,469.537,8533.25,21.5122,-80.9122,18.2472,1384.96,9438.33,-2467.89,80.7614,147.158,293.8,-1420.42,-9913.16,-1975.35,7.86389,-44.2674,41.7514,-6782.49,7242.61,-789.569,-7.58996,92.6947,81.5705,-411.216,9655.94,-670.666,-22.419,47.5408,65.7258,8996.17,1353.15,1756.24,20.042,12.3676,16.5459
3.884,6437.33,83.4514,9611.99,-91.084,351.3,97.0251,4750.5,452.281,8519.97,21.5479,-81.033,18.3202,1339.22,9509.27,-2468.59,80.995,147.221,294.284,-1429.64,-9928.91,-1954.42,7.93563,-44.0323,41.8087,-6802.28,7217.76,-765.534,-7.57588,92.6168,81.1714,-389.87,9685.72,-720.273,-22.501,47.5838,65.7379,9019.61,1330.56,1758.3,20.1431,12.3483,16.5732
3.8845,6519.95,102.52,9635.61,-91.639,351.408,96.8503,4770.71,436.863,8507.61,21.5863,-81.1471,18.4,1295.78,9580.61,-2467.39,81.2139,147.276,294.767,-1439.25,-9943.2,-1934.45,8.01576,-43.8165,41.8605,-6821.37,7194.11,-742.398,-7.55537,92.5176,80.7721,-370.62,9710.74,-758.662,-22.5457,47.5851,65.7374,9038.91,1307.6,1758.32,20.2333,12.3233,16.6123
3.885,6579.39,153.666,9699.58,-92.0309,351.451,96.7653,4778.84,436.156,8502.58,21.6467,-81.2073,18.5336,1270.73,9655.16,-2450.91,81.3149,147.267,295.247,-1451.84,-9945.82,-1922.23,8.16307,-43.7542,41.8673,-6834.88,7180.15,-726.457,-7.48338,92.248,80.371,-368.14,9697.57,-707.304,-22.2926,47.2522,65.6368,9025.08,1281.63,1742.06,20.2367,12.2527,16.746
3.8855,6638.83,204.812,9763.55,-92.4228,351.493,96.6802,4786.96,435.45,8497.56,21.7071,-81.2675,18.6672,1245.67,9729.71,-2434.44,81.416,147.258,295.727,-1464.44,-9948.45,-1910.01,8.31037,-43.692,41.8741,-6848.38,7166.18,-710.515,-7.4114,91.9784,79.9698,-365.66,9684.4,-655.945,-22.0395,46.9194,65.5363,9011.25,1255.67,1725.8,20.2401,12.1821,16.8797
3.886,6698.27,255.958,9827.52,-92.8147,351.535,96.5952,4795.08,434.743,8492.53,21.7675,-81.3277,18.8009,1220.61,9804.25,-2417.97,81.517,147.249,296.207,-1477.04,-9951.08,-1897.79,8.45767,-43.6298,41.881,-6861.88,7152.22,-694.574,-7.33941,91.7088,79.5687,-363.18,9671.23,-604.587,-21.7864,46.5865,65.4357,8997.43,1229.71,1709.54,20.2435,12.1115,17.0134
3.8865,6757.7,307.104,9891.49,-93.2066,351.578,96.5101,4803.2,434.036,8487.5,21.8278,-81.3879,18.9345,1195.55,9878.8,-2401.49,81.618,147.239,296.687,-1489.64,-9953.71,-1885.57,8.60498,-43.5676,41.8878,-6875.39,7138.25,-678.632,-7.26742,91.4392,79.1676,-360.701,9658.06,-553.229,-21.5333,46.2536,65.3351,8983.6,1203.74,1693.27,20.2469,12.0409,17.1471
3.887,6817.14,358.25,9955.46,-93.5985,351.62,96.4251,4811.33,433.33,8482.47,21.8882,-81.4481,19.0681,1170.49,9953.35,-2385.02,81.7191,147.23,297.167,-1502.24,-9956.33,-1873.35,8.75228,-43.5053,41.8946,-6888.89,7124.29,-662.691,-7.19544,91.1696,78.7665,-358.221,9644.89,-501.871,-21.2801,45.9207,65.2345,8969.78,1177.78,1677.01,20.2503,11.9702,17.2808
3.8875,6876.58,409.396,10019.4,-93.9905,351.663,96.34,4819.45,432.623,8477.44,21.9486,-81.5083,19.2017,1145.44,10027.9,-2368.54,81.8202,147.221,297.647,-1514.83,-9958.96,-1861.12,8.89959,-43.4431,41.9015,-6902.4,7110.33,-646.749,-7.12345,90.8999,78.3654,-355.741,9631.72,-450.513,-21.027,45.5878,65.1339,8955.95,1151.82,1660.75,20.2537,11.8996,17.4145
3.888,6936.02,460.542,10083.4,-94.3824,351.705,96.255,4827.57,431.916,8472.42,22.009,-81.5685,19.3354,1120.38,10102.4,-2352.07,81.9212,147.212,298.127,-1527.43,-9961.58,-1848.9,9.04689,-43.3809,41.9083,-6915.9,7096.36,-630.808,-7.05146,90.6303,77.9643,-353.261,9618.55,-399.154,-20.7739,45.2549,65.0333,8942.12,1125.85,1644.49,20.257,11.829,17.5482
3.8885,6995.46,511.688,10147.4,-94.7743,351.747,96.17,4835.7,431.21,8467.39,22.0693,-81.6288,19.469,1095.32,10177.0,-2335.59,82.0223,147.203,298.607,-1540.03,-9964.21,-1836.68,9.19419,-43.3186,41.9151,-6929.4,7082.4,-614.867,-6.97948,90.3607,77.5631,-350.781,9605.38,-347.796,-20.5208,44.922,64.9328,8928.3,1099.89,1628.22,20.2604,11.7584,17.6819
3.889,7050.02,561.116,10211.9,-95.1189,351.769,96.0585,4843.36,427.495,8464.55,22.1258,-81.6864,19.5748,1066.39,10257.2,-2319.16,82.0951,147.166,299.103,-1550.98,-9966.92,-1821.67,9.31674,-43.2596,41.9332,-6944.91,7068.06,-594.059,-6.91801,90.0706,77.1538,-357.889,9588.9,-294.165,-20.264,44.5152,64.846,8914.91,1080.51,1614.17,20.2615,11.7051,17.8054
3.8895,7087.52,604.532,10278.5,-95.2983,351.716,95.8545,4849.4,413.25,8469.38,22.1686,-81.7353,19.5833,1023.89,10357.1,-2302.86,82.069,147.032,299.655,-1556.17,-9969.89,-1796.86,9.35262,-43.2116,41.9909,-6967.39,7052.41,-556.217,-6.89339,89.7088,76.7158,-398.553,9560.85,-232.58,-19.9947,43.8494,64.8075,8903.04,1084.2,1607.82,20.2546,11.7126,17.8932
3.89,7125.01,647.948,10345.1,-95.4777,351.664,95.6504,4855.44,399.006,8474.22,22.2114,-81.7842,19.5918,981.395,10457.1,-2286.55,82.043,146.897,300.206,-1561.35,-9972.87,-1772.05,9.3885,-43.1637,42.0485,-6989.88,7036.76,-518.376,-6.86877,89.347,76.2778,-439.218,9532.79,-170.995,-19.7254,43.1837,64.769,8891.17,1087.89,1601.47,20.2476,11.72,17.981
3.8905,7162.51,691.364,10411.7,-95.6571,351.611,95.4464,4861.48,384.762,8479.05,22.2542,-81.8331,19.6003,938.899,10557.0,-2270.25,82.017,146.763,300.758,-1566.54,-9975.85,-1747.24,9.42439,-43.1157,42.1061,-7012.37,7021.11,-480.535,-6.84415,88.9852,75.8398,-479.882,9504.74,-109.41,-19.456,42.518,64.7304,8879.3,1091.57,1595.13,20.2407,11.7274,18.0687
3.891,7200.0,734.78,10478.3,-95.8365,351.559,95.2424,4867.52,370.518,8483.88,22.297,-81.882,19.6088,896.403,10657.0,-2253.95,81.991,146.629,301.309,-1571.72,-9978.83,-1722.43,9.46027,-43.0678,42.1638,-7034.86,7005.46,-442.694,-6.81952,88.6234,75.4018,-520.546,9476.69,-47.8254,-19.1867,41.8522,64.6919,8867.44,1095.26,1588.78,20.2338,11.7348,18.1565
3.8915,7237.5,778.196,10544.9,-96.0159,351.506,95.0384,4873.57,356.274,8488.71,22.3398,-81.9309,19.6173,853.907,10756.9,-2237.65,81.965,146.495,301.861,-1576.91,-9981.81,-1697.62,9.49616,-43.0198,42.2214,-7057.35,6989.81,-404.852,-6.7949,88.2616,74.9638,-561.211,9448.63,13.7596,-18.9174,41.1865,64.6534,8855.57,1098.95,1582.44,20.2268,11.7422,18.2443
3.892,7274.99,821.612,10611.5,-96.1952,351.454,94.8344,4879.61,342.029,8493.55,22.3827,-81.9798,19.6258,811.411,10856.9,-2221.34,81.9389,146.361,302.413,-1582.1,-9984.78,-1672.81,9.53204,-42.9719,42.279,-7079.84,6974.16,-367.011,-6.77028,87.8998,74.5258,-601.875,9420.58,75.3445,-18.648,40.5208,64.6149,8843.7,1102.63,1576.09,20.2199,11.7496,18.3321
3.8925,7312.48,865.028,10678.1,-96.3746,351.401,94.6304,4885.65,327.785,8498.38,22.4255,-82.0286,19.6343,768.915,10956.8,-2205.04,81.9129,146.226,302.964,-1587.28,-9987.76,-1648.0,9.56792,-42.9239,42.3366,-7102.33,6958.51,-329.17,-6.74566,87.538,74.0878,-642.539,9392.53,136.93,-18.3787,39.8551,64.5764,8831.83,1106.32,1569.75,20.2129,11.757,18.4198
3.893,7349.98,908.444,10744.7,-96.554,351.349,94.4263,4891.69,313.541,8503.21,22.4683,-82.0775,19.6428,726.419,11056.8,-2188.74,81.8869,146.092,303.516,-1592.47,-9990.74,-1623.19,9.60381,-42.8759,42.3943,-7124.82,6942.86,-291.329,-6.72103,87.1762,73.6498,-683.203,9364.48,198.515,-18.1093,39.1893,64.5379,8819.96,1110.0,1563.4,20.206,11.7644,18.5076
3.8935,7394.34,937.659,10802.7,-96.734,351.294,94.2254,4898.23,298.117,8503.44,22.5041,-82.1241,19.6725,687.393,11152.0,-2165.01,81.8605,145.913,304.069,-1599.98,-9995.84,-1602.34,9.63831,-42.8566,42.4431,-7139.22,6925.04,-252.126,-6.6948,86.7582,73.2516,-708.591,9353.62,228.748,-17.9422,38.6335,64.5117,8809.77,1112.07,1555.65,20.2447,11.7675,18.5417
3.894,7452.43,938.473,10843.4,-96.9153,351.235,94.0305,4905.75,280.334,8494.47,22.526,-82.166,19.7446,655.304,11237.9,-2126.41,81.8332,145.644,304.626,-1612.15,-10005.2,-1589.41,9.67004,-42.8943,42.4744,-7137.46,6902.88,-210.2,-6.66536,86.2278,72.9331,-703.427,9377.17,196.278,-17.9796,38.2974,64.5101,8802.94,1110.9,1545.09,20.3746,11.7618,18.4686
3.8945,7510.53,939.287,10884.2,-97.0966,351.177,93.8356,4913.27,262.551,8485.5,22.5478,-82.2079,19.8167,623.216,11323.8,-2087.81,81.806,145.375,305.183,-1624.31,-10014.5,-1576.48,9.70177,-42.9321,42.5056,-7135.69,6880.72,-168.273,-6.63592,85.6975,72.6145,-698.262,9400.72,163.809,-18.017,37.9612,64.5085,8796.11,1109.73,1534.53,20.5046,11.7561,18.3954
3.895,7568.62,940.1,10925.0,-97.2779,351.118,93.6407,4920.79,244.768,8476.53,22.5697,-82.2498,19.8888,591.128,11409.7,-2049.22,81.7788,145.106,305.74,-1636.48,-10023.9,-1563.55,9.7335,-42.9699,42.5369,-7133.92,6858.55,-126.347,-6.60648,85.1671,72.2959,-693.097,9424.27,131.339,-18.0544,37.6251,64.5069,8789.27,1108.56,1523.97,20.6346,11.7504,18.3222
3.8955,7626.71,940.914,10965.7,-97.4592,351.059,93.4458,4928.3,226.985,8467.55,22.5916,-82.2917,19.9609,559.039,11495.6,-2010.62,81.7516,144.837,306.297,-1648.64,-10033.2,-1550.62,9.76523,-43.0077,42.5681,-7132.15,6836.39,-84.4209,-6.57703,84.6368,71.9773,-687.932,9447.81,98.8698,-18.0918,37.289,64.5054,8782.44,1107.39,1513.4,20.7645,11.7448,18.2491
3.896,7684.81,941.728,11006.5,-97.6405,351.001,93.2509,4935.82,209.202,8458.58,22.6135,-82.3336,20.0331,526.951,11581.5,-1972.02,81.7244,144.567,306.854,-1660.81,-10042.6,-1537.69,9.79696,-43.0454,42.5994,-7130.39,6814.23,-42.4946,-6.54759,84.1064,71.6587,-682.768,9471.36,66.4003,-18.1292,36.9529,64.5038,8775.61,1106.22,1502.84,20.8945,11.7391,18.1759
3.8965,7742.9,942.541,11047.2,-97.8218,350.942,93.056,4943.34,191.419,8449.61,22.6353,-82.3755,20.1052,494.863,11667.3,-1933.42,81.6972,144.298,307.411,-1672.97,-10051.9,-1524.76,9.82869,-43.0832,42.6306,-7128.62,6792.07,-0.568299,-6.51815,83.5761,71.3401,-677.603,9494.91,33.9307,-18.1665,36.6168,64.5022,8768.77,1105.05,1492.28,21.0244,11.7334,18.1027
3.897,7801.0,943.355,11088.0,-98.0031,350.883,92.8612,4950.86,173.636,8440.64,22.6572,-82.4174,20.1773,462.774,11753.2,-1894.83,81.67,144.029,307.968,-1685.14,-10061.3,-1511.83,9.86043,-43.121,42.6619,-7126.85,6769.91,41.358,-6.48871,83.0458,71.0216,-672.438,9518.46,1.46119,-18.2039,36.2807,64.5006,8761.94,1103.88,1481.72,21.1544,11.7277,18.0296
3.8975,7859.09,944.168,11128.8,-98.1844,350.824,92.6663,4958.38,155.853,8431.66,22.6791,-82.4593,20.2494,430.686,11839.1,-1856.23,81.6427,143.76,308.525,-1697.3,-10070.6,-1498.9,9.89216,-43.1588,42.6931,-7125.08,6747.74,83.2843,-6.45927,82.5154,70.703,-667.273,9542.0,-31.0084,-18.2413,35.9446,64.499,8755.1,1102.71,1471.16,21.2843,11.7221,17.9564
3.898,7919.83,948.863,11161.7,-98.4002,350.786,92.485,4968.01,137.314,8425.33,22.7004,-82.5363,20.2792,401.225,11913.9,-1832.65,81.5968,143.535,309.098,-1697.94,-10073.7,-1480.65,9.9025,-43.2561,42.7442,-7124.73,6715.03,125.063,-6.45587,81.9113,70.3974,-661.17,9561.65,-54.3057,-18.4185,35.8647,64.5247,8750.7,1107.08,1461.6,21.3127,11.7627,17.9491
3.8985,7983.87,958.408,11185.0,-98.6591,350.774,92.3209,4980.29,117.829,8422.3,22.7212,-82.6572,20.2562,375.048,11974.7,-1827.84,81.5273,143.364,309.69,-1684.16,-10068.9,-1455.74,9.8861,-43.4278,42.8201,-7126.13,6669.14,166.659,-6.48503,81.215,70.1081,-653.892,9576.43,-66.1378,-18.7706,36.1051,64.5846,8749.34,1118.38,1453.29,21.2141,11.8613,18.0241
3.899,8047.91,967.954,11208.3,-98.918,350.762,92.1567,4992.57,98.3455,8419.27,22.742,-82.7781,20.2331,348.87,12035.5,-1823.03,81.4579,143.193,310.282,-1670.37,-10064.1,-1430.83,9.8697,-43.5995,42.8961,-7127.53,6623.25,208.254,-6.51419,80.5186,69.8188,-646.615,9591.2,-77.9699,-19.1227,36.3454,64.6445,8747.98,1129.69,1444.98,21.1155,11.9599,18.0991
3.8995,8111.95,977.499,11231.6,-99.1769,350.749,91.9926,5004.84,78.8615,8416.24,22.7627,-82.899,20.21,322.693,12096.4,-1818.22,81.3885,143.022,310.875,-1656.59,-10059.4,-1405.92,9.8533,-43.7713,42.972,-7128.94,6577.35,249.85,-6.54335,79.8223,69.5295,-639.337,9605.98,-89.802,-19.4748,36.5858,64.7044,8746.62,1140.99,1436.68,21.0169,12.0585,18.174
3.9,8175.99,987.045,11254.9,-99.4358,350.737,91.8284,5017.12,59.3775,8413.21,22.7835,-83.0199,20.187,296.516,12157.2,-1813.41,81.319,142.851,311.467,-1642.81,-10054.6,-1381.0,9.8369,-43.943,43.0479,-7130.34,6531.46,291.445,-6.57251,79.126,69.2402,-632.06,9620.75,-101.634,-19.8268,36.8262,64.7642,8745.26,1152.3,1428.37,20.9183,12.157,18.249
3.9005,8240.03,996.591,11278.2,-99.6947,350.725,91.6643,5029.4,39.8935,8410.18,22.8043,-83.1408,20.1639,270.338,12218.1,-1808.6,81.2496,142.68,312.059,-1629.03,-10049.8,-1356.09,9.8205,-44.1147,43.1238,-7131.75,6485.57,333.04,-6.60166,78.4297,68.9509,-624.782,9635.53,-113.466,-20.1789,37.0665,64.8241,8743.9,1163.6,1420.07,20.8197,12.2556,18.324
3.901,8304.07,1006.14,11301.5,-99.9536,350.712,91.5001,5041.67,20.4095,8407.15,22.825,-83.2617,20.1409,244.161,12278.9,-1803.78,81.1802,142.509,312.652,-1615.25,-10045.0,-1331.18,9.8041,-44.2864,43.1997,-7133.15,6439.67,374.636,-6.63082,77.7334,68.6616,-617.505,9650.3,-125.298,-20.531,37.3069,64.8839,8742.54,1174.91,1411.76,20.7211,12.3542,18.399
3.9015,8368.11,1015.68,11324.8,-100.212,350.7,91.336,5053.95,0.925501,8404.11,22.8458,-83.3826,20.1178,217.984,12339.8,-1798.97,81.1107,142.338,313.244,-1601.47,-10040.3,-1306.27,9.7877,-44.4582,43.2756,-7134.55,6393.78,416.231,-6.65998,77.037,68.3723,-610.227,9665.08,-137.13,-20.8831,37.5473,64.9438,8741.18,1186.21,1403.46,20.6225,12.4528,18.474
3.902,8432.15,1025.23,11348.0,-100.471,350.687,91.1718,5066.23,-18.5585,8401.08,22.8666,-83.5035,20.0948,191.807,12400.6,-1794.16,81.0413,142.167,313.836,-1587.68,-10035.5,-1281.36,9.77131,-44.6299,43.3515,-7135.96,6347.89,457.827,-6.68914,76.3407,68.0831,-602.95,9679.86,-148.962,-21.2351,37.7877,65.0037,8739.82,1197.51,1395.15,20.5239,12.5514,18.549
3.9025,8485.75,1033.65,11388.4,-100.756,350.697,91.0376,5072.52,-29.9387,8396.77,22.9022,-83.5857,20.0765,161.8,12458.3,-1796.06,81.004,142.01,314.386,-1594.62,-10033.4,-1263.52,9.78375,-44.6888,43.3931,-7136.06,6310.26,498.245,-6.74318,75.6109,67.8138,-584.418,9688.8,-169.807,-21.4881,38.0376,64.9745,8727.27,1192.33,1383.14,20.5481,12.6197,18.6175
3.903,8530.99,1041.17,11442.4,-101.06,350.724,90.9272,5074.02,-34.836,8391.44,22.9496,-83.6369,20.0622,128.729,12513.5,-1803.31,80.9924,141.863,314.901,-1618.13,-10033.4,-1251.34,9.81928,-44.6574,43.4073,-7135.11,6279.25,537.721,-6.81712,74.8544,67.5606,-556.882,9693.07,-197.861,-21.6618,38.2952,64.8742,8705.76,1173.95,1368.17,20.6705,12.6637,18.6808
3.9035,8576.24,1048.69,11496.4,-101.365,350.752,90.8169,5075.52,-39.7333,8386.1,22.9971,-83.6881,20.0478,95.658,12568.6,-1810.57,80.9808,141.717,315.416,-1641.63,-10033.5,-1239.15,9.8548,-44.6259,43.4216,-7134.17,6248.24,577.197,-6.89105,74.0978,67.3074,-529.346,9697.35,-225.915,-21.8355,38.5528,64.7739,8684.25,1155.57,1353.19,20.793,12.7078,18.744
3.904,8621.48,1056.22,11550.4,-101.67,350.779,90.7065,5077.02,-44.6305,8380.77,23.0445,-83.7394,20.0335,62.5872,12623.7,-1817.83,80.9692,141.57,315.931,-1665.14,-10033.5,-1226.97,9.89033,-44.5945,43.4358,-7133.23,6217.23,616.673,-6.96499,73.3412,67.0542,-501.811,9701.62,-253.97,-22.0092,38.8105,64.6736,8662.75,1137.19,1338.21,20.9154,12.7519,18.8073
3.9045,8666.72,1063.74,11604.4,-101.975,350.806,90.5962,5078.52,-49.5278,8375.44,23.092,-83.7906,20.0191,29.5165,12678.9,-1825.08,80.9576,141.424,316.446,-1688.65,-10033.5,-1214.79,9.92585,-44.5631,43.45,-7132.28,6186.22,656.149,-7.03893,72.5847,66.801,-474.275,9705.89,-282.024,-22.1829,39.0681,64.5733,8641.24,1118.81,1323.24,21.0378,12.7959,18.8706
3.905,8711.97,1071.26,11658.4,-102.279,350.834,90.4858,5080.02,-54.425,8370.1,23.1395,-83.8418,20.0048,-3.5543,12734.0,-1832.34,80.946,141.277,316.961,-1712.16,-10033.6,-1202.6,9.96138,-44.5317,43.4642,-7131.34,6155.21,695.625,-7.11287,71.8281,66.5478,-446.74,9710.17,-310.078,-22.3566,39.3257,64.473,8619.74,1100.43,1308.26,21.1602,12.84,18.9339
3.9055,8757.21,1078.79,11712.4,-102.584,350.861,90.3755,5081.51,-59.3223,8364.77,23.1869,-83.893,19.9904,-36.6251,12789.2,-1839.6,80.9344,141.131,317.476,-1735.67,-10033.6,-1190.42,9.9969,-44.5003,43.4785,-7130.39,6124.2,735.101,-7.1868,71.0715,66.2946,-419.204,9714.44,-338.132,-22.5303,39.5833,64.3727,8598.23,1082.05,1293.29,21.2827,12.8841,18.9971
3.906,8802.46,1086.31,11766.4,-102.889,350.888,90.2651,5083.02,-64.2195,8359.43,23.2344,-83.9442,19.9761,-69.6958,12844.3,-1846.86,80.9228,140.984,317.991,-1759.17,-10033.6,-1178.24,10.0324,-44.4688,43.4927,-7129.45,6093.19,774.577,-7.26074,70.315,66.0414,-391.668,9718.72,-366.187,-22.704,39.8409,64.2724,8576.73,1063.67,1278.31,21.4051,12.9282,19.0604
3.9065,8847.7,1093.83,11820.4,-103.194,350.916,90.1548,5084.51,-69.1168,8354.1,23.2818,-83.9955,19.9618,-102.767,12899.4,-1854.11,80.9112,140.838,318.506,-1782.68,-10033.6,-1166.05,10.068,-44.4374,43.5069,-7128.51,6062.18,814.053,-7.33468,69.5584,65.7882,-364.133,9722.99,-394.241,-22.8777,40.0985,64.172,8555.22,1045.29,1263.34,21.5275,12.9722,19.1237
3.907,8900.92,1110.39,11870.4,-103.374,350.893,90.1196,5083.98,-75.0547,8346.94,23.2582,-84.0314,19.9163,-127.72,12948.3,-1836.01,80.8958,140.493,318.914,-1786.49,-10023.3,-1157.97,10.094,-44.4583,43.5668,-7128.72,6021.8,856.37,-7.42264,68.6532,65.5964,-338.29,9719.27,-431.016,-23.0657,40.3895,64.0787,8529.99,1026.44,1252.41,21.6923,12.9922,19.0875
3.9075,8958.13,1131.46,11918.3,-103.493,350.844,90.1221,5082.43,-81.5131,8338.87,23.1989,-84.0597,19.8554,-148.614,12994.1,-1805.22,80.8785,140.05,319.267,-1780.45,-10007.8,-1151.95,10.1152,-44.5053,43.6495,-7129.52,5976.73,900.108,-7.51762,67.6737,65.4353,-313.295,9711.55,-472.152,-23.2608,40.6971,63.9889,8502.89,1007.36,1243.52,21.8781,13.0001,19.0015
3.908,9015.34,1152.54,11966.2,-103.611,350.796,90.1246,5080.87,-87.9714,8330.79,23.1397,-84.0879,19.7944,-169.508,13039.9,-1774.43,80.8613,139.606,319.62,-1774.41,-9992.25,-1145.92,10.1365,-44.5523,43.7322,-7130.32,5931.65,943.846,-7.6126,66.6942,65.2742,-288.3,9703.83,-513.288,-23.456,41.0046,63.8991,8475.8,988.286,1234.62,22.064,13.008,18.9155
3.9085,9072.55,1173.61,12014.2,-103.729,350.748,90.1272,5079.32,-94.4297,8322.72,23.0805,-84.1162,19.7335,-190.402,13085.7,-1743.64,80.844,139.163,319.973,-1768.37,-9976.72,-1139.9,10.1578,-44.5994,43.8148,-7131.12,5886.58,987.584,-7.70757,65.7147,65.1131,-263.305,9696.11,-554.424,-23.6511,41.3122,63.8093,8448.7,969.207,1225.72,22.2498,13.0159,18.8296
3.909,9129.76,1194.69,12062.1,-103.848,350.699,90.1297,5077.76,-100.888,8314.65,23.0213,-84.1445,19.6725,-211.296,13131.5,-1712.86,80.8268,138.719,320.327,-1762.33,-9961.2,-1133.87,10.179,-44.6464,43.8975,-7131.92,5841.51,1031.32,-7.80255,64.7352,64.952,-238.31,9688.39,-595.56,-23.8462,41.6198,63.7195,8421.6,950.129,1216.83,22.4357,13.0238,18.7436
3.9095,9186.97,1215.76,12110.0,-103.966,350.651,90.1322,5076.21,-107.346,8306.58,22.9621,-84.1727,19.6116,-232.189,13177.2,-1682.07,80.8095,138.276,320.68,-1756.29,-9945.67,-1127.84,10.2003,-44.6934,43.9802,-7132.72,5796.44,1075.06,-7.89753,63.7557,64.7909,-213.314,9680.67,-636.696,-24.0414,41.9274,63.6296,8394.51,931.05,1207.93,22.6215,13.0317,18.6576
3.91,9244.17,1236.84,12158.0,-104.085,350.603,90.1347,5074.66,-113.805,8298.5,22.9029,-84.201,19.5506,-253.083,13223.0,-1651.28,80.7922,137.833,321.033,-1750.25,-9930.14,-1121.82,10.2216,-44.7404,44.0629,-7133.52,5751.37,1118.8,-7.9925,62.7762,64.6298,-188.319,9672.95,-677.832,-24.2365,42.235,63.5398,8367.41,911.972,1199.03,22.8074,13.0397,18.5717
3.9105,9301.38,1257.91,12205.9,-104.203,350.554,90.1372,5073.1,-120.263,8290.43,22.8436,-84.2293,19.4897,-273.977,13268.8,-1620.49,80.775,137.389,321.386,-1744.2,-9914.62,-1115.79,10.2428,-44.7875,44.1456,-7134.31,5706.3,1162.54,-8.08748,61.7967,64.4686,-163.324,9665.23,-718.968,-24.4316,42.5426,63.45,8340.31,892.894,1190.14,22.9932,13.0476,18.4857
3.911,9358.59,1278.98,12253.8,-104.322,350.506,90.1397,5071.55,-126.721,8282.36,22.7844,-84.2575,19.4287,-294.871,13314.6,-1589.71,80.7577,136.946,321.739,-1738.16,-9899.09,-1109.76,10.2641,-44.8345,44.2283,-7135.11,5661.23,1206.27,-8.18246,60.8172,64.3075,-138.329,9657.51,-760.104,-24.6268,42.8502,63.3602,8313.22,873.815,1181.24,23.1791,13.0555,18.3997
3.9115,9418.11,1294.25,12291.3,-104.38,350.428,90.1749,5072.83,-114.17,8286.65,22.8548,-84.3645,19.4248,-305.184,13370.1,-1555.3,80.5631,136.275,321.929,-1733.65,-9891.83,-1115.42,10.325,-44.7917,44.3332,-7133.5,5631.16,1250.12,-8.20457,59.6639,64.0919,-135.778,9640.46,-702.788,-24.5415,42.7393,63.3294,8307.67,871.823,1170.82,23.3237,13.0361,18.3317
3.912,9478.29,1307.85,12325.7,-104.421,350.342,90.2194,5074.93,-96.1872,8294.48,22.9622,-84.4941,19.4371,-312.473,13428.4,-1519.85,80.3178,135.539,322.071,-1729.56,-9886.94,-1124.42,10.3973,-44.7233,44.4444,-7131.21,5605.37,1294.0,-8.20586,58.4609,63.8606,-139.639,9620.75,-617.342,-24.3761,42.509,63.3155,8308.28,874.712,1159.96,23.4565,13.0089,18.2687
3.9125,9538.47,1321.45,12360.1,-104.463,350.256,90.264,5077.03,-78.2044,8302.31,23.0696,-84.6236,19.4495,-319.762,13486.8,-1484.41,80.0725,134.804,322.214,-1725.48,-9882.05,-1133.42,10.4696,-44.6549,44.5556,-7128.91,5579.58,1337.88,-8.20716,57.2579,63.6293,-143.501,9601.03,-531.897,-24.2108,42.2786,63.3016,8308.89,877.601,1149.11,23.5893,12.9817,18.2058
3.913,9598.65,1335.05,12394.5,-104.504,350.17,90.3085,5079.13,-60.2216,8310.15,23.1769,-84.7531,19.4619,-327.051,13545.1,-1448.96,79.8272,134.068,322.356,-1721.4,-9877.15,-1142.41,10.5419,-44.5864,44.6668,-7126.62,5553.8,1381.75,-8.20845,56.0548,63.3981,-147.363,9581.31,-446.451,-24.0454,42.0482,63.2877,8309.5,880.49,1138.25,23.7221,12.9546,18.1429
3.9135,9658.83,1348.65,12428.9,-104.545,350.083,90.3531,5081.23,-42.2389,8317.98,23.2843,-84.8826,19.4742,-334.34,13603.4,-1413.52,79.5819,133.332,322.499,-1717.32,-9872.26,-1151.41,10.6142,-44.518,44.778,-7124.32,5528.01,1425.63,-8.20974,54.8518,63.1668,-151.224,9561.6,-361.006,-23.88,41.8178,63.2738,8310.11,883.379,1127.39,23.8549,12.9274,18.0799
3.914,9719.02,1362.25,12463.3,-104.587,349.997,90.3977,5083.33,-24.2561,8325.81,23.3917,-85.0121,19.4866,-341.629,13661.8,-1378.07,79.3366,132.596,322.641,-1713.24,-9867.37,-1160.41,10.6865,-44.4496,44.8892,-7122.03,5502.22,1469.51,-8.21103,53.6488,62.9356,-155.086,9541.88,-275.56,-23.7147,41.5875,63.2599,8310.72,886.268,1116.54,23.9877,12.9002,18.017
3.9145,9779.2,1375.85,12497.7,-104.628,349.911,90.4422,5085.43,-6.27333,8333.64,23.4991,-85.1416,19.4989,-348.918,13720.1,-1342.63,79.0913,131.861,322.784,-1709.15,-9862.47,-1169.4,10.7588,-44.3812,45.0004,-7119.73,5476.43,1513.39,-8.21233,52.4458,62.7043,-158.947,9522.16,-190.115,-23.5493,41.3571,63.2461,8311.32,889.158,1105.68,24.1206,12.8731,17.954
3.915,9839.38,1389.46,12532.1,-104.669,349.825,90.4868,5087.53,11.7094,8341.47,23.6065,-85.2711,19.5113,-356.207,13778.4,-1307.18,78.846,131.125,322.926,-1705.07,-9857.58,-1178.4,10.8312,-44.3128,45.1117,-7117.44,5450.65,1557.26,-8.21362,51.2428,62.473,-162.809,9502.45,-104.669,-23.3839,41.1267,63.2322,8311.93,892.047,1094.82,24.2534,12.8459,17.8911
3.9155,9899.56,1403.06,12566.5,-104.711,349.739,90.5313,5089.62,29.6922,8349.3,23.7139,-85.4006,19.5237,-363.496,13836.7,-1271.74,78.6007,130.389,323.069,-1700.99,-9852.68,-1187.4,10.9035,-44.2443,45.2229,-7115.14,5424.86,1601.14,-8.21491,50.0398,62.2418,-166.671,9482.73,-19.2239,-23.2186,40.8963,63.2183,8312.54,894.936,1083.97,24.3862,12.8187,17.8282
3.916,9953.92,1411.47,12604.8,-104.776,349.644,90.6853,5095.61,18.503,8348.82,23.7573,-85.4224,19.5799,-394.176,13912.2,-1264.34,78.2875,129.646,323.144,-1702.03,-9843.95,-1166.56,10.9402,-44.1958,45.3218,-7113.49,5388.0,1631.44,-8.16369,48.7554,62.0106,-171.399,9475.63,-3.32617,-23.1828,40.5815,63.2167,8304.88,890.064,1080.77,24.4393,12.7786,17.7902
3.9165,10007.5,1419.24,12643.6,-104.845,349.548,90.8531,5102.08,3.66739,8347.3,23.7928,-85.4307,19.6417,-427.78,13989.8,-1260.45,77.9657,128.902,323.211,-1703.71,-9834.73,-1141.99,10.9724,-44.1498,45.4192,-7111.92,5349.75,1660.05,-8.10591,47.4608,61.7794,-176.235,9470.11,3.87808,-23.1632,40.2562,63.2167,8296.17,884.223,1078.54,24.4825,12.7368,17.7554
3.917,10061.2,1427.01,12682.4,-104.914,349.452,91.0208,5108.55,-11.1683,8345.78,23.8283,-85.439,19.7035,-461.384,14067.4,-1256.56,77.644,128.157,323.277,-1705.4,-9825.51,-1117.42,11.0047,-44.1037,45.5166,-7110.36,5311.51,1688.65,-8.04813,46.1663,61.5482,-181.071,9464.58,11.0823,-23.1437,39.9308,63.2167,8287.47,878.382,1076.3,24.5257,12.695,17.7206
3.9175,10114.8,1434.78,12721.2,-104.983,349.357,91.1885,5115.02,-26.0039,8344.25,23.8637,-85.4473,19.7652,-494.988,14145.0,-1252.67,77.3223,127.413,323.344,-1707.08,-9816.29,-1092.85,11.037,-44.0577,45.614,-7108.79,5273.26,1717.26,-7.99035,44.8717,61.3171,-185.907,9459.06,18.2866,-23.1241,39.6054,63.2167,8278.77,872.54,1074.06,24.5689,12.6533,17.6858
3.918,10168.4,1442.54,12760.0,-105.051,349.261,91.3562,5121.49,-40.8396,8342.73,23.8992,-85.4556,19.827,-528.593,14222.6,-1248.78,77.0005,126.669,323.411,-1708.76,-9807.08,-1068.28,11.0693,-44.0116,45.7114,-7107.22,5235.02,1745.87,-7.93257,43.5771,61.0859,-190.744,9453.54,25.4908,-23.1046,39.2801,63.2167,8270.07,866.699,1071.83,24.6121,12.6115,17.651
3.9185,10222.1,1450.31,12798.8,-105.12,349.165,91.5239,5127.96,-55.6752,8341.21,23.9346,-85.4639,19.8888,-562.197,14300.3,-1244.89,76.6788,125.925,323.478,-1710.44,-9797.86,-1043.71,11.1015,-43.9656,45.8088,-7105.65,5196.77,1774.47,-7.87479,42.2825,60.8547,-195.58,9448.02,32.6951,-23.085,38.9547,63.2167,8261.37,860.857,1069.59,24.6552,12.5697,17.6162
3.919,10275.7,1458.08,12837.6,-105.189,349.069,91.6917,5134.43,-70.5109,8339.69,23.9701,-85.4722,19.9505,-595.801,14377.9,-1241.0,76.3571,125.18,323.544,-1712.13,-9788.64,-1019.14,11.1338,-43.9195,45.9062,-7104.08,5158.53,1803.08,-7.81701,40.9879,60.6235,-200.416,9442.49,39.8993,-23.0654,38.6294,63.2167,8252.67,855.016,1067.35,24.6984,12.528,17.5814
3.9195,10329.3,1465.85,12876.4,-105.257,348.973,91.8594,5140.9,-85.3465,8338.17,24.0056,-85.4805,20.0123,-629.405,14455.5,-1237.1,76.0354,124.436,323.611,-1713.81,-9779.42,-994.566,11.1661,-43.8735,46.0036,-7102.52,5120.28,1831.68,-7.75923,39.6933,60.3923,-205.252,9436.97,47.1036,-23.0459,38.304,63.2167,8243.96,849.174,1065.12,24.7416,12.4862,17.5466
3.92,10383.0,1473.61,12915.2,-105.326,348.877,92.0271,5147.37,-100.182,8336.65,24.041,-85.4889,20.074,-663.009,14533.1,-1233.21,75.7136,123.692,323.678,-1715.49,-9770.2,-969.997,11.1984,-43.8274,46.101,-7100.95,5082.03,1860.29,-7.70145,38.3988,60.1612,-210.088,9431.45,54.3079,-23.0263,37.9786,63.2167,8235.26,843.333,1062.88,24.7848,12.4444,17.5118
3.9205,10461.4,1473.03,12963.5,-105.362,348.711,92.3247,5152.8,-116.985,8330.17,24.0685,-85.5715,19.9984,-709.502,14625.3,-1251.0,75.408,123.138,323.721,-1708.54,-9781.85,-962.216,11.1874,-43.8015,46.1382,-7099.69,5050.34,1874.43,-7.59408,36.9083,59.7712,-202.445,9424.22,2.01161,-23.1534,37.8695,63.3277,8217.73,855.963,1059.34,25.0279,12.3615,17.4886
3.921,10539.8,1472.44,13011.9,-105.398,348.545,92.6223,5158.22,-133.787,8323.69,24.0959,-85.6542,19.9227,-755.996,14717.5,-1268.79,75.1024,122.583,323.764,-1701.59,-9793.5,-954.436,11.1765,-43.7756,46.1753,-7098.43,5018.65,1888.58,-7.4867,35.4178,59.3812,-194.801,9417.0,-50.2846,-23.2804,37.7603,63.4387,8200.2,868.594,1055.79,25.2711,12.2785,17.4653
3.9215,10618.2,1471.85,13060.3,-105.434,348.379,92.9199,5163.64,-150.59,8317.21,24.1233,-85.7369,19.847,-802.49,14809.7,-1286.58,74.7968,122.029,323.807,-1694.63,-9805.14,-946.656,11.1656,-43.7497,46.2125,-7097.17,4986.95,1902.73,-7.37932,33.9274,58.9912,-187.158,9409.78,-102.581,-23.4075,37.6511,63.5496,8182.67,881.224,1052.25,25.5142,12.1955,17.4421
3.922,10696.6,1471.26,13108.7,-105.471,348.213,93.2176,5169.07,-167.393,8310.73,24.1508,-85.8195,19.7713,-848.983,14901.9,-1304.37,74.4912,121.475,323.85,-1687.68,-9816.79,-938.876,11.1547,-43.7239,46.2497,-7095.91,4955.26,1916.87,-7.27195,32.4369,58.6012,-179.514,9402.56,-154.877,-23.5346,37.5419,63.6606,8165.13,893.855,1048.7,25.7574,12.1126,17.4188
3.9225,10775.0,1470.67,13157.1,-105.507,348.047,93.5152,5174.49,-184.195,8304.25,24.1782,-85.9022,19.6956,-895.477,14994.2,-1322.16,74.1856,120.921,323.893,-1680.73,-9828.43,-931.096,11.1437,-43.698,46.2868,-7094.66,4923.56,1931.02,-7.16457,30.9465,58.2113,-171.871,9395.34,-207.173,-23.6616,37.4327,63.7716,8147.6,906.485,1045.16,26.0005,12.0296,17.3956
3.923,10853.4,1470.08,13205.5,-105.543,347.881,93.8128,5179.91,-200.998,8297.76,24.2057,-85.9849,19.6199,-941.971,15086.4,-1339.94,73.88,120.367,323.936,-1673.77,-9840.08,-923.316,11.1328,-43.6721,46.324,-7093.4,4891.87,1945.17,-7.05719,29.456,57.8213,-164.227,9388.12,-259.47,-23.7887,37.3236,63.8825,8130.07,919.115,1041.61,26.2437,11.9467,17.3723
3.9235,10931.8,1469.49,13253.9,-105.579,347.715,94.1104,5185.34,-217.8,8291.28,24.2331,-86.0675,19.5442,-988.464,15178.6,-1357.73,73.5744,119.813,323.98,-1666.82,-9851.72,-915.536,11.1219,-43.6462,46.3612,-7092.14,4860.17,1959.31,-6.94982,27.9655,57.4313,-156.584,9380.9,-311.766,-23.9158,37.2144,63.9935,8112.54,931.746,1038.07,26.4868,11.8637,17.3491
3.924,11010.2,1468.9,13302.3,-105.615,347.549,94.408,5190.76,-234.603,8284.8,24.2605,-86.1502,19.4685,-1034.96,15270.8,-1375.52,73.2688,119.259,324.023,-1659.87,-9863.37,-907.755,11.111,-43.6203,46.3983,-7090.88,4828.48,1973.46,-6.84244,26.4751,57.0413,-148.94,9373.68,-364.062,-24.0429,37.1052,64.1045,8095.0,944.376,1034.52,26.73,11.7808,17.3258
3.9245,11085.3,1468.64,13350.7,-105.645,347.367,94.7106,5195.95,-250.695,8278.8,24.2826,-86.229,19.3943,-1080.63,15363.3,-1394.55,72.9751,118.727,324.074,-1652.05,-9872.99,-900.695,11.1072,-43.5864,46.4477,-7089.04,4798.05,1988.26,-6.73874,24.9701,56.6378,-141.056,9367.95,-407.7,-24.1746,37.0294,64.1974,8080.51,953.997,1029.14,26.9741,11.7001,17.2866
3.925,11134.4,1471.03,13399.9,-105.632,347.059,95.0529,5199.32,-261.1,8276.66,24.2616,-86.2772,19.3321,-1119.74,15458.3,-1423.53,72.7764,118.372,324.196,-1637.32,-9866.45,-899.393,11.1606,-43.489,46.5944,-7082.55,4777.7,2008.33,-6.66444,23.3487,56.1256,-131.245,9374.18,-382.075,-24.3442,37.2205,64.1458,8090.33,939.54,1009.11,27.2265,11.6376,17.119
3.9255,11183.6,1473.41,13449.1,-105.619,346.751,95.3952,5202.68,-271.505,8274.52,24.2406,-86.3254,19.2698,-1158.84,15553.3,-1452.5,72.5777,118.018,324.318,-1622.58,-9859.9,-898.091,11.2141,-43.3916,46.741,-7076.05,4757.36,2028.4,-6.59014,21.7273,55.6134,-121.435,9380.41,-356.45,-24.5137,37.4115,64.0942,8100.15,925.082,989.066,27.4788,11.5751,16.9514
3.926,11232.7,1475.8,13498.2,-105.606,346.442,95.7375,5206.04,-281.91,8272.38,24.2196,-86.3736,19.2075,-1197.95,15648.3,-1481.48,72.3791,117.663,324.44,-1607.85,-9853.36,-896.789,11.2675,-43.2942,46.8877,-7069.56,4737.01,2048.47,-6.51584,20.106,55.1011,-111.624,9386.64,-330.825,-24.6833,37.6026,64.0426,8109.97,910.625,969.027,27.7311,11.5127,16.7839
3.9265,11281.8,1478.19,13547.4,-105.594,346.134,96.0798,5209.41,-292.315,8270.23,24.1986,-86.4219,19.1452,-1237.05,15743.3,-1510.45,72.1804,117.309,324.562,-1593.11,-9846.81,-895.487,11.321,-43.1968,47.0344,-7063.07,4716.67,2068.54,-6.44154,18.4846,54.5889,-101.813,9392.87,-305.2,-24.8528,37.7937,63.991,8119.79,896.168,948.988,27.9835,11.4502,16.6163
3.927,11330.9,1480.58,13596.5,-105.581,345.826,96.4221,5212.77,-302.72,8268.09,24.1776,-86.4701,19.0829,-1276.16,15838.3,-1539.43,71.9817,116.955,324.684,-1578.38,-9840.27,-894.185,11.3744,-43.0994,47.181,-7056.58,4696.33,2088.61,-6.36724,16.8632,54.0767,-92.0026,9399.09,-279.575,-25.0224,37.9848,63.9394,8129.6,881.71,928.949,28.2358,11.3877,16.4488
3.9275,11380.1,1482.96,13645.7,-105.568,345.518,96.7644,5216.14,-313.125,8265.95,24.1565,-86.5183,19.0206,-1315.27,15933.2,-1568.4,71.783,116.6,324.806,-1563.64,-9833.72,-892.883,11.4279,-43.002,47.3277,-7050.08,4675.98,2108.67,-6.29294,15.2418,53.5645,-82.1919,9405.32,-253.95,-25.1919,38.1759,63.8878,8139.42,867.253,908.91,28.4882,11.3253,16.2812
3.928,11429.2,1485.35,13694.9,-105.555,345.209,97.1067,5219.5,-323.53,8263.8,24.1355,-86.5665,18.9584,-1354.37,16028.2,-1597.38,71.5843,116.246,324.928,-1548.91,-9827.18,-891.581,11.4813,-42.9046,47.4744,-7043.59,4655.64,2128.74,-6.21864,13.6205,53.0523,-72.3813,9411.55,-228.325,-25.3614,38.367,63.8362,8149.24,852.796,888.871,28.7405,11.2628,16.1137
3.9285,11478.3,1487.74,13744.0,-105.542,344.901,97.449,5222.86,-333.935,8261.66,24.1145,-86.6147,18.8961,-1393.48,16123.2,-1626.36,71.3856,115.892,325.05,-1534.17,-9820.63,-890.279,11.5348,-42.8072,47.621,-7037.1,4635.3,2148.81,-6.14434,11.9991,52.5401,-62.5706,9417.78,-202.7,-25.531,38.5581,63.7846,8159.06,838.339,868.832,28.9928,11.2003,15.9461
3.929,11533.6,1494.02,13789.2,-105.514,344.611,97.8171,5227.63,-337.763,8259.87,24.0911,-86.6585,18.8353,-1432.96,16216.7,-1647.0,71.196,115.49,325.151,-1523.94,-9814.94,-886.896,11.5809,-42.7169,47.7555,-7030.34,4618.64,2163.93,-6.0894,10.3737,52.013,-59.5636,9421.95,-168.468,-25.6561,38.6778,63.7433,8169.0,825.792,854.033,29.2116,11.1378,15.8251
3.9295,11610.2,1513.91,13820.7,-105.434,344.384,98.2758,5237.3,-318.575,8259.33,24.059,-86.6869,18.7799,-1473.76,16304.8,-1638.49,71.0385,114.921,325.182,-1529.43,-9812.25,-876.233,11.6012,-42.6519,47.8472,-7022.65,4614.88,2161.74,-6.10222,8.73443,51.4333,-80.3693,9418.89,-104.111,-25.6256,38.5478,63.738,8179.37,819.934,857.578,29.3128,11.0751,15.8668
3.93,11686.8,1533.81,13852.1,-105.354,344.157,98.7344,5246.97,-299.386,8258.79,24.0269,-86.7153,18.7244,-1514.57,16393.0,-1629.97,70.8808,114.352,325.212,-1534.92,-9809.56,-865.569,11.6214,-42.5868,47.9389,-7014.96,4611.11,2159.55,-6.11504,7.09513,50.8538,-101.175,9415.84,-39.7552,-25.5952,38.4178,63.7327,8189.74,814.075,861.123,29.4141,11.0124,15.9086
3.9305,11763.5,1553.7,13883.5,-105.275,343.93,99.193,5256.64,-280.198,8258.24,23.9949,-86.7438,18.6689,-1555.37,16481.1,-1621.46,70.7232,113.783,325.242,-1540.41,-9806.87,-854.905,11.6417,-42.5217,48.0306,-7007.28,4607.35,2157.35,-6.12786,5.45582,50.2742,-121.981,9412.78,24.601,-25.5648,38.2878,63.7273,8200.11,808.217,864.668,29.5153,10.9496,15.9503
3.931,11840.1,1573.6,13914.9,-105.195,343.703,99.6516,5266.31,-261.009,8257.7,23.9628,-86.7722,18.6135,-1596.18,16569.2,-1612.95,70.5656,113.215,325.272,-1545.91,-9804.18,-844.242,11.662,-42.4566,48.1223,-6999.59,4603.59,2155.16,-6.14068,3.81652,49.6945,-142.786,9409.73,88.9573,-25.5343,38.1578,63.722,8210.48,802.359,868.213,29.6166,10.8869,15.9921
3.9315,11916.7,1593.5,13946.4,-105.115,343.476,100.11,5275.97,-241.821,8257.15,23.9308,-86.8006,18.558,-1636.98,16657.4,-1604.44,70.408,112.646,325.303,-1551.4,-9801.48,-833.578,11.6823,-42.3915,48.214,-6991.9,4599.83,2152.97,-6.1535,2.17721,49.115,-163.592,9406.67,153.314,-25.5039,38.0278,63.7167,8220.85,796.5,871.758,29.7178,10.8242,16.0339
3.932,11993.4,1613.39,13977.8,-105.036,343.249,100.569,5285.64,-222.632,8256.61,23.8987,-86.829,18.5026,-1677.78,16745.5,-1595.92,70.2504,112.077,325.333,-1556.89,-9798.79,-822.915,11.7026,-42.3264,48.3056,-6984.21,4596.07,2150.77,-6.16632,0.53791,48.5354,-184.398,9403.62,217.67,-25.4735,37.8978,63.7114,8231.22,790.642,875.303,29.8191,10.7614,16.0756
3.9325,12070.0,1633.29,14009.2,-104.956,343.022,101.028,5295.31,-203.444,8256.07,23.8666,-86.8574,18.4471,-1718.59,16833.6,-1587.41,70.0928,111.508,325.363,-1562.39,-9796.1,-812.251,11.7228,-42.2613,48.3973,-6976.53,4592.31,2148.58,-6.17914,-1.10139,47.9558,-205.203,9400.56,282.026,-25.443,37.7679,63.7061,8241.58,784.784,878.848,29.9203,10.6987,16.1174
3.933,12146.7,1653.19,14040.6,-104.876,342.795,101.486,5304.98,-184.255,8255.52,23.8346,-86.8859,18.3917,-1759.39,16921.8,-1578.9,69.9352,110.94,325.393,-1567.88,-9793.41,-801.588,11.7431,-42.1962,48.489,-6968.84,4588.55,2146.38,-6.19197,-2.7407,47.3762,-226.009,9397.51,346.382,-25.4126,37.6379,63.7008,8251.95,778.925,882.393,30.0216,10.636,16.1592
3.9335,12219.1,1664.56,14070.3,-104.823,342.571,101.951,5313.27,-177.133,8248.11,23.8364,-86.9232,18.3369,-1798.81,17009.7,-1573.16,69.7909,110.3,325.417,-1576.0,-9792.5,-793.917,11.7817,-42.122,48.5958,-6941.28,4588.52,2141.24,-6.23716,-4.3181,46.7453,-237.28,9392.25,397.357,-25.4282,37.5475,63.6914,8262.32,769.768,883.207,30.2158,10.5703,16.1441
3.934,12283.1,1658.9,14096.2,-104.822,342.351,102.43,5318.81,-194.144,8226.95,23.906,-86.9784,18.2836,-1835.44,17097.1,-1572.99,69.673,109.517,325.427,-1589.38,-9795.14,-792.232,11.8568,-42.0298,48.7329,-6873.97,4595.97,2130.21,-6.3471,-5.77172,46.0121,-229.481,9382.57,421.57,-25.5361,37.5364,63.674,8272.68,754.012,878.558,30.5958,10.4989,16.0152
3.9345,12347.1,1653.24,14122.2,-104.821,342.131,102.909,5324.35,-211.154,8205.8,23.9755,-87.0336,18.2304,-1872.08,17184.5,-1572.82,69.5552,108.734,325.436,-1602.75,-9797.79,-790.546,11.9318,-41.9376,48.8699,-6806.67,4603.41,2119.18,-6.45704,-7.22533,45.2788,-221.681,9372.89,445.782,-25.6439,37.5253,63.6566,8283.05,738.257,873.91,30.9759,10.4275,15.8864
3.935,12411.2,1647.58,14148.1,-104.821,341.911,103.387,5329.89,-228.165,8184.64,24.0451,-87.0889,18.1771,-1908.71,17271.9,-1572.66,69.4374,107.951,325.446,-1616.13,-9800.43,-788.861,12.0069,-41.8454,49.0069,-6739.36,4610.86,2108.15,-6.56698,-8.67894,44.5456,-213.882,9363.21,469.994,-25.7517,37.5141,63.6393,8293.41,722.501,869.261,31.3559,10.356,15.7576
3.9355,12475.2,1641.92,14174.1,-104.82,341.691,103.866,5335.42,-245.176,8163.49,24.1146,-87.1441,18.1238,-1945.35,17359.3,-1572.49,69.3195,107.169,325.456,-1629.5,-9803.08,-787.176,12.082,-41.7532,49.144,-6672.06,4618.31,2097.11,-6.67692,-10.1325,43.8123,-206.083,9353.53,494.207,-25.8595,37.503,63.6219,8303.77,706.745,864.612,31.736,10.2846,15.6288
3.936,12539.2,1636.26,14200.1,-104.819,341.471,104.344,5340.96,-262.186,8142.33,24.1842,-87.1993,18.0705,-1981.98,17446.7,-1572.32,69.2017,106.386,325.465,-1642.88,-9805.72,-785.491,12.1571,-41.661,49.281,-6604.75,4625.75,2086.08,-6.78686,-11.5862,43.0791,-198.283,9343.85,518.419,-25.9674,37.4919,63.6045,8314.13,690.99,859.963,32.116,10.2132,15.4999
3.9365,12603.2,1630.6,14226.0,-104.818,341.251,104.823,5346.5,-279.197,8121.18,24.2538,-87.2545,18.0172,-2018.62,17534.2,-1572.15,69.0839,105.603,325.475,-1656.26,-9808.37,-783.806,12.2321,-41.5688,49.418,-6537.45,4633.2,2075.05,-6.8968,-13.0398,42.3458,-190.484,9334.17,542.632,-26.0752,37.4808,63.5871,8324.49,675.234,855.315,32.4961,10.1417,15.3711
3.937,12667.3,1624.94,14252.0,-104.817,341.031,105.301,5352.04,-296.208,8100.02,24.3233,-87.3097,17.9639,-2055.26,17621.6,-1571.98,68.966,104.82,325.485,-1669.63,-9811.01,-782.121,12.3072,-41.4766,49.5551,-6470.14,4640.65,2064.02,-7.00674,-14.4934,41.6126,-182.684,9324.49,566.844,-26.183,37.4697,63.5697,8334.86,659.478,850.666,32.8761,10.0703,15.2423
3.9375,12731.3,1619.28,14278.0,-104.817,340.811,105.78,5357.57,-313.218,8078.87,24.3929,-87.3649,17.9106,-2091.89,17709.0,-1571.81,68.8482,104.037,325.494,-1683.01,-9813.66,-780.436,12.3823,-41.3844,49.6921,-6402.84,4648.1,2052.98,-7.11668,-15.947,40.8793,-174.885,9314.81,591.056,-26.2908,37.4586,63.5523,8345.22,643.723,846.017,33.2562,9.99885,15.1134
3.938,12801.9,1614.9,14310.9,-104.927,340.507,106.194,5370.58,-325.028,8065.09,24.4638,-87.415,17.8822,-2124.43,17792.1,-1595.13,68.7205,103.312,325.473,-1694.16,-9819.23,-773.772,12.4531,-41.305,49.7815,-6319.03,4663.2,2049.37,-7.28212,-17.2354,40.1213,-167.345,9312.14,616.802,-26.319,37.349,63.5389,8350.83,633.134,830.478,33.6162,9.91183,15.011
3.9385,12880.9,1612.13,14352.6,-105.176,340.098,106.528,5392.94,-330.335,8060.52,24.5363,-87.4586,17.8848,-2151.85,17869.8,-1647.82,68.5803,102.657,325.411,-1702.55,-9828.45,-760.884,12.5186,-41.2415,49.8115,-6214.59,4687.89,2055.02,-7.51696,-18.3173,39.3323,-160.13,9318.23,644.463,-26.2475,37.1163,63.5304,8350.51,629.004,801.327,33.9512,9.80533,14.9416
3.939,12959.8,1609.36,14394.2,-105.425,339.689,106.862,5415.29,-335.642,8055.95,24.6089,-87.5022,17.8874,-2179.26,17947.5,-1700.5,68.4402,102.002,325.35,-1710.94,-9837.67,-747.997,12.5841,-41.178,49.8414,-6110.15,4712.58,2060.67,-7.75179,-19.3993,38.5432,-152.915,9324.32,672.125,-26.1761,36.8836,63.5219,8350.18,624.875,772.176,34.2862,9.69884,14.8722
3.9395,13038.7,1606.59,14435.9,-105.674,339.28,107.196,5437.64,-340.95,8051.38,24.6814,-87.5458,17.89,-2206.68,18025.2,-1753.19,68.3,101.347,325.289,-1719.32,-9846.89,-735.109,12.6496,-41.1146,49.8713,-6005.71,4737.27,2066.32,-7.98663,-20.4812,37.7542,-145.7,9330.42,699.786,-26.1046,36.6509,63.5133,8349.86,620.745,743.024,34.6213,9.59234,14.8028
3.94,13117.7,1603.82,14477.6,-105.923,338.872,107.53,5459.99,-346.257,8046.81,24.754,-87.5894,17.8927,-2234.1,18102.9,-1805.88,68.1599,100.692,325.228,-1727.71,-9856.11,-722.222,12.7151,-41.0511,49.9012,-5901.27,4761.96,2071.97,-8.22146,-21.5632,36.9652,-138.485,9336.51,727.448,-26.0331,36.4182,63.5048,8349.53,616.615,713.873,34.9563,9.48585,14.7334
3.9405,13196.6,1601.05,14519.2,-106.172,338.463,107.863,5482.35,-351.564,8042.24,24.8266,-87.633,17.8953,-2261.51,18180.6,-1858.57,68.0197,100.038,325.166,-1736.09,-9865.34,-709.335,12.7806,-40.9876,49.9311,-5796.83,4786.65,2077.62,-8.4563,-22.6451,36.1762,-131.27,9342.6,755.11,-25.9617,36.1855,63.4963,8349.21,612.486,684.721,35.2913,9.37936,14.664
3.941,13275.5,1598.27,14560.9,-106.421,338.054,108.197,5504.7,-356.872,8037.67,24.8991,-87.6766,17.8979,-2288.93,18258.3,-1911.25,67.8796,99.3828,325.105,-1744.48,-9874.56,-696.447,12.8462,-40.9241,49.961,-5692.39,4811.33,2083.27,-8.69113,-23.727,35.3872,-124.055,9348.69,782.771,-25.8902,35.9529,63.4878,8348.88,608.356,655.57,35.6263,9.27286,14.5946
3.9415,13354.5,1595.5,14602.5,-106.67,337.645,108.531,5527.05,-362.179,8033.1,24.9717,-87.7202,17.9005,-2316.35,18336.0,-1963.94,67.7394,98.728,325.044,-1752.86,-9883.78,-683.56,12.9117,-40.8606,49.9909,-5587.95,4836.02,2088.92,-8.92596,-24.809,34.5981,-116.84,9354.78,810.433,-25.8188,35.7202,63.4793,8348.56,604.226,626.418,35.9614,9.16637,14.5252
3.942,13433.4,1592.73,14644.2,-106.919,337.236,108.865,5549.4,-367.487,8028.53,25.0442,-87.7638,17.9031,-2343.77,18413.7,-2016.63,67.5993,98.0732,324.982,-1761.25,-9893.0,-670.672,12.9772,-40.7971,50.0209,-5483.5,4860.71,2094.57,-9.1608,-25.8909,33.8091,-109.625,9360.87,838.094,-25.7473,35.4875,63.4708,8348.23,600.097,597.267,36.2964,9.05987,14.4558
3.9425,13508.5,1569.05,14687.2,-107.228,336.842,109.204,5558.71,-365.019,8021.33,25.072,-87.7483,17.8538,-2369.79,18488.8,-2074.66,67.4674,97.5124,324.823,-1759.17,-9896.54,-657.722,13.0348,-40.7237,50.0685,-5361.02,4879.82,2110.57,-9.41622,-26.7891,33.0212,-86.4479,9346.88,830.497,-25.6476,35.3415,63.425,8345.64,596.377,588.792,36.5238,8.98781,14.3853
3.943,13580.6,1528.65,14731.3,-107.586,336.46,109.546,5557.6,-356.33,8012.03,25.064,-87.6855,17.763,-2394.71,18561.7,-2136.96,67.3421,97.027,324.584,-1748.72,-9895.53,-644.721,13.0862,-40.6423,50.1303,-5224.11,4894.47,2134.85,-9.68811,-27.5402,32.2341,-50.5013,9316.83,794.691,-25.5254,35.2649,63.3494,8341.23,592.984,596.858,36.6651,8.9433,14.3139
3.9435,13652.6,1488.25,14775.4,-107.943,336.078,109.889,5556.48,-347.642,8002.72,25.0559,-87.6228,17.6721,-2419.63,18634.6,-2199.27,67.2168,96.5415,324.346,-1738.27,-9894.53,-631.72,13.1376,-40.561,50.1921,-5087.2,4909.12,2159.13,-9.96,-28.2913,31.4471,-14.5547,9286.78,758.886,-25.4032,35.1884,63.2737,8336.82,589.592,604.924,36.8065,8.89879,14.2425
3.944,13724.7,1447.85,14819.5,-108.301,335.696,110.231,5555.36,-338.954,7993.41,25.0478,-87.56,17.5812,-2444.54,18707.5,-2261.57,67.0915,96.0561,324.107,-1727.82,-9893.52,-618.719,13.189,-40.4796,50.2539,-4950.29,4923.77,2183.41,-10.2319,-29.0425,30.66,21.3919,9256.73,723.081,-25.281,35.1118,63.1981,8332.41,586.199,612.991,36.9478,8.85428,14.1711
3.9445,13796.8,1407.45,14863.6,-108.658,335.314,110.574,5554.24,-330.265,7984.11,25.0398,-87.4972,17.4904,-2469.46,18780.4,-2323.88,66.9663,95.5706,323.869,-1717.37,-9892.52,-605.717,13.2404,-40.3982,50.3158,-4813.37,4938.42,2207.69,-10.5038,-29.7936,29.8729,57.3385,9226.67,687.275,-25.1588,35.0352,63.1224,8328.01,582.807,621.057,37.0892,8.80977,14.0998
3.945,13868.8,1367.05,14907.6,-109.016,334.932,110.917,5553.12,-321.577,7974.8,25.0317,-87.4345,17.3995,-2494.38,18853.3,-2386.18,66.841,95.0851,323.63,-1706.92,-9891.51,-592.716,13.2918,-40.3168,50.3776,-4676.46,4953.07,2231.97,-10.7757,-30.5447,29.0859,93.285,9196.62,651.47,-25.0365,34.9586,63.0468,8323.6,579.414,629.123,37.2305,8.76525,14.0284
3.9455,13940.9,1326.64,14951.7,-109.373,334.55,111.259,5552.0,-312.889,7965.49,25.0237,-87.3717,17.3086,-2519.29,18926.3,-2448.49,66.7157,94.5997,323.392,-1696.46,-9890.5,-579.715,13.3432,-40.2354,50.4394,-4539.55,4967.72,2256.25,-11.0476,-31.2959,28.2988,129.232,9166.57,615.665,-24.9143,34.8821,62.9711,8319.19,576.022,637.189,37.3719,8.72074,13.957
3.946,14013.0,1286.24,14995.8,-109.731,334.168,111.602,5550.89,-304.2,7956.19,25.0156,-87.309,17.2178,-2544.21,18999.2,-2510.79,66.5904,94.1142,323.153,-1686.01,-9889.5,-566.714,13.3946,-40.154,50.5012,-4402.64,4982.37,2280.52,-11.3195,-32.047,27.5118,165.178,9136.52,579.86,-24.7921,34.8055,62.8955,8314.78,572.629,645.256,37.5132,8.67623,13.8857
3.9465,14085.0,1245.84,15039.9,-110.088,333.786,111.944,5549.77,-295.512,7946.88,25.0076,-87.2462,17.1269,-2569.13,19072.1,-2573.1,66.4652,93.6288,322.915,-1675.56,-9888.49,-553.713,13.446,-40.0727,50.563,-4265.72,4997.02,2304.8,-11.5914,-32.7982,26.7247,201.125,9106.47,544.054,-24.6699,34.7289,62.8198,8310.38,569.237,653.322,37.6545,8.63172,13.8143
3.947,14163.6,1239.99,15077.8,-110.284,333.327,112.372,5537.42,-293.457,7937.65,24.9914,-87.187,17.0317,-2594.11,19151.5,-2635.01,66.3212,93.1208,322.671,-1673.17,-9885.82,-545.82,13.4761,-39.9991,50.6919,-4127.28,5011.5,2330.53,-11.9002,-33.3781,25.9706,223.714,9116.92,546.439,-24.7862,34.7929,62.7433,8315.02,542.236,650.127,37.7549,8.51177,13.728
3.9475,14245.5,1251.4,15112.7,-110.399,332.829,112.842,5519.46,-294.718,7928.46,24.9712,-87.1296,16.9344,-2619.12,19234.1,-2696.73,66.1678,92.6017,322.424,-1674.8,-9882.31,-540.48,13.4956,-39.9296,50.8543,-3988.06,5025.88,2356.99,-12.2276,-33.8723,25.233,239.624,9147.61,567.92,-25.0218,34.9271,62.6662,8324.19,503.431,641.302,37.8348,8.35411,13.6342
3.948,14327.4,1262.82,15147.6,-110.513,332.331,113.312,5501.49,-295.98,7919.27,24.951,-87.0723,16.837,-2644.13,19316.7,-2758.45,66.0145,92.0826,322.177,-1676.44,-9878.8,-535.14,13.515,-39.86,51.0167,-3848.85,5040.27,2383.44,-12.555,-34.3666,24.4953,255.535,9178.31,589.4,-25.2574,35.0613,62.5892,8333.36,464.626,632.476,37.9147,8.19646,13.5405
3.9485,14409.3,1274.23,15182.5,-110.628,331.833,113.783,5483.53,-297.241,7910.08,24.9308,-87.0149,16.7397,-2669.14,19399.3,-2820.17,65.8611,91.5635,321.93,-1678.08,-9875.29,-529.801,13.5345,-39.7904,51.1791,-3709.64,5054.66,2409.9,-12.8823,-34.8609,23.7577,271.445,9209.01,610.88,-25.4929,35.1956,62.5122,8342.53,425.821,623.651,37.9946,8.0388,13.4467
3.949,14491.2,1285.65,15217.4,-110.742,331.335,114.253,5465.56,-298.503,7900.89,24.9106,-86.9575,16.6423,-2694.15,19481.8,-2881.89,65.7078,91.0443,321.683,-1679.71,-9871.78,-524.461,13.5539,-39.7208,51.3415,-3570.43,5069.04,2436.35,-13.2097,-35.3552,23.02,287.355,9239.71,632.36,-25.7285,35.3298,62.4352,8351.7,387.016,614.825,38.0745,7.88114,13.3529
3.9495,14573.1,1297.07,15252.3,-110.857,330.837,114.723,5447.6,-299.764,7891.7,24.8903,-86.9001,16.545,-2719.16,19564.4,-2943.61,65.5544,90.5252,321.436,-1681.35,-9868.27,-519.121,13.5734,-39.6512,51.504,-3431.22,5083.43,2462.81,-13.5371,-35.8495,22.2824,303.266,9270.4,653.84,-25.9641,35.464,62.3582,8360.87,348.212,606.0,38.1544,7.72348,13.2591
3.95,14655.0,1308.48,15287.2,-110.972,330.339,115.193,5429.64,-301.026,7882.51,24.8701,-86.8427,16.4476,-2744.17,19647.0,-3005.33,65.4011,90.0061,321.19,-1682.98,-9864.76,-513.782,13.5929,-39.5816,51.6664,-3292.01,5097.82,2489.26,-13.8644,-36.3438,21.5447,319.176,9301.1,675.321,-26.1997,35.5983,62.2811,8370.04,309.407,597.175,38.2343,7.56582,13.1654
3.9505,14736.9,1319.9,15322.0,-111.086,329.841,115.663,5411.67,-302.287,7873.32,24.8499,-86.7854,16.3503,-2769.18,19729.6,-3067.05,65.2477,89.487,320.943,-1684.62,-9861.25,-508.442,13.6123,-39.512,51.8288,-3152.79,5112.21,2515.72,-14.1918,-36.8381,20.8071,335.086,9331.8,696.801,-26.4353,35.7325,62.2041,8379.21,270.602,588.349,38.3141,7.40816,13.0716
3.951,14818.7,1331.32,15356.9,-111.201,329.343,116.133,5393.71,-303.549,7864.13,24.8297,-86.728,16.253,-2794.19,19812.2,-3128.76,65.0944,88.9678,320.696,-1686.25,-9857.74,-503.103,13.6318,-39.4425,51.9912,-3013.58,5126.59,2542.17,-14.5192,-37.3324,20.0694,350.997,9362.5,718.281,-26.6709,35.8667,62.1271,8388.38,231.797,579.524,38.394,7.2505,12.9778
3.9515,14896.4,1352.82,15370.7,-111.155,328.834,116.543,5404.68,-308.501,7867.42,24.8902,-86.7986,16.2218,-2826.18,19881.8,-3186.72,64.934,88.3757,320.462,-1688.31,-9846.42,-495.47,13.6743,-39.2953,52.0818,-2898.96,5133.64,2568.71,-14.8934,-37.7495,19.4512,369.041,9341.83,718.864,-26.61,35.9157,62.0904,8396.15,211.555,561.566,38.4632,7.22666,12.9078
3.952,14972.8,1377.2,15378.5,-111.064,328.32,116.935,5423.92,-314.508,7874.28,24.9737,-86.9057,16.2096,-2860.17,19947.6,-3243.61,64.7717,87.7628,320.232,-1690.49,-9832.87,-487.181,13.7234,-39.1259,52.1519,-2791.37,5138.58,2595.27,-15.2809,-38.1447,18.8671,387.696,9306.49,713.476,-26.4644,35.9404,62.0653,8403.51,196.617,541.0,38.5292,7.24106,12.8446
3.9525,15049.2,1401.58,15386.3,-110.972,327.807,117.327,5443.16,-320.515,7881.13,25.0572,-87.0129,16.1974,-2894.15,20013.5,-3300.49,64.6094,87.1498,320.002,-1692.66,-9819.32,-478.893,13.7725,-38.9565,52.222,-2683.78,5143.52,2621.83,-15.6685,-38.5399,18.2829,406.35,9271.15,708.088,-26.3188,35.965,62.0401,8410.88,181.679,520.433,38.5953,7.25546,12.7813
3.953,15125.6,1425.96,15394.1,-110.881,327.294,117.718,5462.4,-326.522,7887.99,25.1406,-87.12,16.1851,-2928.14,20079.3,-3357.38,64.447,86.5368,319.772,-1694.84,-9805.76,-470.604,13.8216,-38.7871,52.2921,-2576.19,5148.47,2648.38,-16.0561,-38.9351,17.6988,425.005,9235.8,702.7,-26.1732,35.9897,62.015,8418.24,166.741,499.867,38.6613,7.26986,12.7181
3.9535,15202.0,1450.34,15401.9,-110.789,326.781,118.11,5481.64,-332.529,7894.85,25.2241,-87.2271,16.1729,-2962.12,20145.2,-3414.27,64.2847,85.9239,319.542,-1697.02,-9792.21,-462.316,13.8707,-38.6177,52.3622,-2468.6,5153.41,2674.94,-16.4436,-39.3302,17.1147,443.659,9200.46,697.311,-26.0276,36.0143,61.9898,8425.6,151.803,479.3,38.7274,7.28425,12.6549
3.954,15278.4,1474.72,15409.7,-110.698,326.267,118.502,5500.88,-338.536,7901.7,25.3076,-87.3343,16.1607,-2996.11,20211.0,-3471.15,64.1224,85.3109,319.312,-1699.2,-9778.66,-454.028,13.9198,-38.4483,52.4323,-2361.01,5158.36,2701.5,-16.8312,-39.7254,16.5305,462.314,9165.12,691.923,-25.882,36.039,61.9647,8432.96,136.865,458.734,38.7935,7.29865,12.5916
3.9545,15354.9,1499.1,15417.5,-110.606,325.754,118.894,5520.12,-344.543,7908.56,25.3911,-87.4414,16.1484,-3030.09,20276.9,-3528.04,63.9601,84.6979,319.082,-1701.37,-9765.11,-445.739,13.9689,-38.2789,52.5024,-2253.42,5163.3,2728.06,-17.2188,-40.1206,15.9464,480.968,9129.78,686.535,-25.7364,36.0637,61.9396,8440.33,121.926,438.167,38.8595,7.31305,12.5284
3.955,15431.3,1523.49,15425.2,-110.515,325.241,119.286,5539.36,-350.55,7915.41,25.4746,-87.5486,16.1362,-3064.08,20342.7,-3584.92,63.7977,84.0849,318.852,-1703.55,-9751.56,-437.451,14.018,-38.1095,52.5725,-2145.83,5168.24,2754.62,-17.6063,-40.5157,15.3623,499.623,9094.44,681.147,-25.5908,36.0883,61.9144,8447.69,106.988,417.6,38.9256,7.32745,12.4651
3.9555,15507.7,1547.87,15433.0,-110.423,324.728,119.678,5558.6,-356.557,7922.27,25.5581,-87.6557,16.124,-3098.06,20408.6,-3641.81,63.6354,83.472,318.622,-1705.73,-9738.01,-429.162,14.0671,-37.9401,52.6426,-2038.24,5173.19,2781.18,-17.9939,-40.9109,14.7781,518.277,9059.1,675.759,-25.4452,36.113,61.8893,8455.05,92.0502,397.034,38.9916,7.34184,12.4019
3.956,15566.3,1538.49,15433.4,-110.628,323.94,119.965,5552.23,-385.514,7919.89,25.571,-87.6471,15.9819,-3137.67,20451.2,-3695.15,63.4957,82.9479,318.42,-1709.88,-9732.51,-420.782,14.1312,-37.8036,52.7355,-1952.32,5185.02,2790.0,-18.2257,-41.0375,14.3134,531.876,9034.64,667.441,-25.4934,36.3876,61.966,8454.89,84.1297,391.944,39.273,7.30792,12.2657
3.9565,15622.6,1524.89,15432.9,-110.871,323.117,120.239,5542.66,-417.339,7916.35,25.575,-87.624,15.8236,-3177.97,20491.0,-3748.06,63.3588,82.4349,318.221,-1714.27,-9728.03,-412.39,14.1972,-37.6712,52.8313,-1869.11,5197.72,2796.6,-18.4381,-41.1304,13.8635,544.843,9011.55,658.756,-25.5658,36.6935,62.0555,8453.78,77.0863,388.789,39.5813,7.26796,12.1205
3.957,15678.9,1511.3,15432.3,-111.113,322.295,120.513,5533.09,-449.164,7912.82,25.579,-87.6009,15.6653,-3218.28,20530.8,-3800.97,63.2219,81.922,318.022,-1718.66,-9723.54,-403.998,14.2632,-37.5388,52.927,-1785.9,5210.42,2803.21,-18.6505,-41.2234,13.4137,557.81,8988.45,650.071,-25.6383,36.9994,62.1449,8452.67,70.0429,385.634,39.8895,7.22799,11.9752
3.9575,15735.3,1497.7,15431.8,-111.356,321.472,120.787,5523.52,-480.989,7909.29,25.5831,-87.5777,15.507,-3258.59,20570.5,-3853.87,63.085,81.409,317.824,-1723.05,-9719.05,-395.605,14.3291,-37.4064,53.0227,-1702.69,5223.11,2809.81,-18.8628,-41.3164,12.9639,570.776,8965.36,641.386,-25.7108,37.3052,62.2344,8451.56,62.9996,382.478,40.1978,7.18803,11.8299
3.958,15791.6,1484.1,15431.2,-111.598,320.65,121.062,5513.95,-512.815,7905.75,25.5871,-87.5546,15.3487,-3298.9,20610.3,-3906.78,62.9481,80.8961,317.625,-1727.45,-9714.57,-387.213,14.3951,-37.274,53.1185,-1619.48,5235.81,2816.41,-19.0752,-41.4094,12.5141,583.743,8942.26,632.701,-25.7832,37.6111,62.3239,8450.45,55.9562,379.323,40.5061,7.14807,11.6846
3.9585,15847.9,1470.51,15430.7,-111.841,319.827,121.336,5504.39,-544.64,7902.22,25.5912,-87.5315,15.1904,-3339.21,20650.1,-3959.68,62.8112,80.3831,317.427,-1731.84,-9710.08,-378.821,14.4611,-37.1417,53.2142,-1536.28,5248.5,2823.01,-19.2876,-41.5024,12.0642,596.71,8919.17,624.016,-25.8557,37.917,62.4133,8449.34,48.9129,376.168,40.8143,7.1081,11.5393
3.959,15904.3,1456.91,15430.1,-112.083,319.005,121.61,5494.82,-576.465,7898.68,25.5952,-87.5084,15.0322,-3379.51,20689.9,-4012.59,62.6744,79.8702,317.228,-1736.23,-9705.59,-370.429,14.5271,-37.0093,53.31,-1453.07,5261.2,2829.61,-19.5,-41.5954,11.6144,609.677,8896.08,615.331,-25.9282,38.2229,62.5028,8448.24,41.8695,373.013,41.1226,7.06814,11.3941
3.9595,15960.6,1443.31,15429.6,-112.326,318.182,121.884,5485.25,-608.29,7895.15,25.5992,-87.4853,14.8739,-3419.82,20729.6,-4065.49,62.5375,79.3572,317.03,-1740.62,-9701.11,-362.037,14.593,-36.8769,53.4057,-1369.86,5273.9,2836.22,-19.7123,-41.6884,11.1646,622.644,8872.98,606.646,-26.0006,38.5287,62.5923,8447.13,34.8261,369.858,41.4309,7.02818,11.2488
3.96,16016.9,1429.72,15429.0,-112.568,317.36,122.158,5475.68,-640.116,7891.61,25.6033,-87.4622,14.7156,-3460.13,20769.4,-4118.4,62.4006,78.8443,316.831,-1745.02,-9696.62,-353.645,14.659,-36.7445,53.5015,-1286.65,5286.59,2842.82,-19.9247,-41.7814,10.7147,635.61,8849.89,597.961,-26.0731,38.8346,62.6817,8446.02,27.7828,366.702,41.7391,6.98821,11.1035
3.9605,16043.3,1561.05,15465.5,-114.728,316.124,122.581,5497.61,-649.883,7880.01,25.6576,-87.4796,14.6411,-3546.3,20806.2,-4230.03,62.2413,78.6687,316.682,-1754.2,-9693.74,-336.358,14.723,-36.6631,53.6564,-1231.62,5287.47,2784.55,-19.9342,-41.4819,10.3534,651.755,8863.14,546.966,-26.1371,39.253,62.7987,8440.59,14.1004,364.15,42.0461,7.03325,10.9046
3.961,16069.7,1692.38,15502.0,-116.889,314.888,123.004,5519.55,-659.651,7868.41,25.7119,-87.497,14.5666,-3632.47,20843.0,-4341.66,62.0819,78.4932,316.532,-1763.39,-9690.85,-319.071,14.787,-36.5817,53.8113,-1176.58,5288.34,2726.29,-19.9438,-41.1825,9.99213,667.9,8876.4,495.972,-26.2011,39.6715,62.9156,8435.16,0.418062,361.597,42.353,7.07828,10.7057
3.9615,16096.1,1823.71,15538.4,-119.049,313.652,123.428,5541.49,-669.419,7856.81,25.7662,-87.5144,14.4922,-3718.65,20879.7,-4453.29,61.9226,78.3176,316.382,-1772.58,-9687.96,-301.784,14.851,-36.5004,53.9662,-1121.55,5289.21,2668.02,-19.9534,-40.883,9.63082,684.045,8889.65,444.978,-26.2651,40.0899,63.0326,8429.73,-13.2643,359.044,42.66,7.12331,10.5068
3.962,16122.4,1955.04,15574.9,-121.209,312.416,123.851,5563.43,-679.186,7845.21,25.8206,-87.5319,14.4177,-3804.82,20916.5,-4564.92,61.7633,78.1421,316.233,-1781.77,-9685.08,-284.498,14.915,-36.419,54.1212,-1066.51,5290.09,2609.76,-19.9629,-40.5836,9.26952,700.19,8902.91,393.983,-26.3292,40.5083,63.1495,8424.3,-26.9467,356.492,42.9669,7.16834,10.3079
3.9625,16148.8,2086.38,15611.4,-123.369,311.18,124.274,5585.36,-688.954,7833.6,25.8749,-87.5493,14.3432,-3890.99,20953.3,-4676.55,61.604,77.9665,316.083,-1790.95,-9682.19,-267.211,14.979,-36.3377,54.2761,-1011.48,5290.96,2551.49,-19.9725,-40.2841,8.90821,716.335,8916.16,342.989,-26.3932,40.9267,63.2665,8418.87,-40.629,353.939,43.2738,7.21337,10.109
3.963,16175.2,2217.71,15647.9,-125.529,309.944,124.697,5607.3,-698.721,7822.0,25.9292,-87.5667,14.2687,-3977.16,20990.0,-4788.19,61.4446,77.791,315.934,-1800.14,-9679.3,-249.924,15.043,-36.2563,54.431,-956.441,5291.83,2493.23,-19.982,-39.9847,8.5469,732.48,8929.41,291.995,-26.4572,41.3452,63.3834,8413.44,-54.3114,351.386,43.5808,7.25841,9.9101
3.9635,16201.6,2349.04,15684.3,-127.69,308.708,125.12,5629.24,-708.489,7810.4,25.9835,-87.5841,14.1943,-4063.33,21026.8,-4899.82,61.2853,77.6154,315.784,-1809.33,-9676.42,-232.637,15.1069,-36.1749,54.5859,-901.406,5292.71,2434.96,-19.9916,-39.6852,8.18559,748.625,8942.67,241.0,-26.5212,41.7636,63.5004,8408.01,-67.9937,348.833,43.8877,7.30344,9.7112
3.964,16228.0,2480.37,15720.8,-129.85,307.472,125.543,5651.17,-718.257,7798.8,26.0378,-87.6016,14.1198,-4149.51,21063.6,-5011.45,61.126,77.4399,315.634,-1818.51,-9673.53,-215.35,15.1709,-36.0936,54.7409,-846.371,5293.58,2376.7,-20.0011,-39.3858,7.82429,764.77,8955.92,190.006,-26.5852,42.182,63.6173,8402.58,-81.6761,346.281,44.1946,7.34847,9.5123
3.9645,16250.6,2643.24,15749.3,-132.024,306.279,125.979,5672.22,-726.843,7788.17,26.0984,-87.6088,14.0396,-4238.07,21101.5,-5110.1,60.9444,77.2177,315.496,-1829.0,-9671.03,-198.517,15.2285,-36.016,54.8896,-793.808,5293.87,2315.73,-19.9681,-39.028,7.4633,780.532,8967.2,151.21,-26.607,42.5722,63.713,8397.52,-97.0448,343.004,44.475,7.40364,9.31632
3.965,16243.1,3058.38,15713.5,-134.309,305.436,126.519,5686.11,-725.978,7785.34,26.2086,-87.5341,13.9134,-4345.79,21148.4,-5104.96,60.5843,76.6226,315.453,-1849.83,-9671.64,-185.309,15.2342,-35.9685,54.9887,-761.03,5289.49,2233.17,-19.5945,-38.2033,7.10484,793.23,8962.63,210.001,-26.2904,42.7365,63.6382,8395.48,-125.905,333.937,44.5425,7.53989,9.1437
3.9655,16235.7,3473.52,15677.8,-136.593,304.593,127.06,5700.0,-725.113,7782.51,26.3188,-87.4594,13.7872,-4453.51,21195.4,-5099.81,60.2243,76.0275,315.409,-1870.66,-9672.25,-172.102,15.24,-35.9209,55.0878,-728.252,5285.1,2150.61,-19.2208,-37.3786,6.74639,805.929,8958.05,268.791,-25.9738,42.9008,63.5634,8393.43,-154.764,324.87,44.6101,7.67614,8.97107
3.966,16228.2,3888.67,15642.1,-138.878,303.749,127.6,5713.9,-724.249,7779.68,26.429,-87.3848,13.661,-4561.22,21242.4,-5094.67,59.8643,75.4323,315.365,-1891.49,-9672.86,-158.894,15.2458,-35.8734,55.1869,-695.474,5280.72,2068.06,-18.8472,-36.5539,6.38793,818.627,8953.48,327.582,-25.6572,43.0652,63.4886,8391.39,-183.624,315.803,44.6776,7.81239,8.79845
3.9665,16220.8,4303.81,15606.4,-141.163,302.906,128.14,5727.79,-723.384,7776.85,26.5392,-87.3102,13.5348,-4668.94,21289.4,-5089.52,59.5043,74.8372,315.321,-1912.32,-9673.46,-145.687,15.2516,-35.8259,55.286,-662.695,5276.34,1985.5,-18.4735,-35.7293,6.02947,831.325,8948.91,386.373,-25.3407,43.2295,63.4138,8389.34,-212.484,306.735,44.7452,7.94864,8.62582
3.967,16213.3,4718.95,15570.6,-143.447,302.063,128.68,5741.68,-722.519,7774.01,26.6494,-87.2355,13.4086,-4776.66,21336.3,-5084.38,59.1442,74.2421,315.277,-1933.15,-9674.07,-132.48,15.2573,-35.7784,55.3852,-629.917,5271.96,1902.94,-18.0999,-34.9046,5.67102,844.024,8944.34,445.164,-25.0241,43.3938,63.339,8387.3,-241.343,297.668,44.8127,8.08489,8.4532
3.9675,16205.9,5134.09,15534.9,-145.732,301.22,129.22,5755.57,-721.655,7771.18,26.7596,-87.1609,13.2824,-4884.37,21383.3,-5079.23,58.7842,73.6469,315.233,-1953.98,-9674.68,-119.272,15.2631,-35.7308,55.4843,-597.139,5267.58,1820.38,-17.7263,-34.0799,5.31256,856.722,8939.77,503.955,-24.7075,43.5581,63.2643,8385.25,-270.203,288.601,44.8803,8.22114,8.28057
3.968,16198.4,5549.23,15499.2,-148.017,300.376,129.76,5769.47,-720.79,7768.35,26.8698,-87.0862,13.1562,-4992.09,21430.3,-5074.09,58.4242,73.0518,315.189,-1974.81,-9675.29,-106.065,15.2689,-35.6833,55.5834,-564.361,5263.19,1737.82,-17.3526,-33.2552,4.95411,869.421,8935.2,562.746,-24.391,43.7224,63.1895,8383.2,-299.063,279.534,44.9478,8.35739,8.10795
3.9685,16191.0,5964.38,15463.5,-150.301,299.533,130.301,5783.36,-719.925,7765.52,26.98,-87.0116,13.03,-5099.81,21477.3,-5068.94,58.0642,72.4566,315.145,-1995.64,-9675.9,-92.8575,15.2747,-35.6358,55.6825,-531.583,5258.81,1655.26,-16.979,-32.4305,4.59565,882.119,8930.63,621.536,-24.0744,43.8868,63.1147,8381.16,-327.922,270.467,45.0154,8.49364,7.93532
3.969,16202.5,6357.97,15412.4,-152.268,298.824,130.621,5798.23,-720.228,7762.53,27.0874,-86.9535,12.9022,-5206.76,21519.5,-5012.43,57.6375,71.4804,315.046,-2014.51,-9677.57,-78.2476,15.2942,-35.6005,55.7874,-496.397,5258.5,1580.51,-16.5546,-31.5231,4.22455,892.786,8926.81,666.761,-23.8767,44.0605,63.0619,8378.31,-353.295,256.895,45.0235,8.64364,7.77883
3.9695,16280.2,6676.13,15307.6,-153.121,298.587,130.171,5816.51,-724.615,7758.96,27.1852,-86.9535,12.769,-5311.04,21545.2,-4776.15,56.9775,69.1703,314.756,-2026.53,-9682.95,-58.7291,15.3619,-35.6082,55.9127,-452.785,5272.44,1533.06,-15.9525,-30.3259,3.80918,896.342,8925.58,664.501,-24.0953,44.2671,63.0863,8372.64,-366.466,227.558,44.8238,8.84177,7.67882
3.97,16358.0,6994.3,15202.7,-153.974,298.35,129.72,5834.79,-729.002,7755.4,27.2829,-86.9535,12.6359,-5415.33,21570.9,-4539.86,56.3175,66.8602,314.465,-2038.55,-9688.34,-39.2105,15.4295,-35.6159,56.038,-409.173,5286.38,1485.62,-15.3504,-29.1287,3.39381,899.898,8924.36,662.241,-24.3139,44.4738,63.1106,8366.97,-379.636,198.221,44.6242,9.03989,7.57881
3.9705,16435.7,7312.46,15097.9,-154.827,298.112,129.27,5853.07,-733.389,7751.84,27.3807,-86.9535,12.5027,-5519.61,21596.6,-4303.58,55.6576,64.5501,314.175,-2050.56,-9693.73,-19.692,15.4971,-35.6236,56.1633,-365.561,5300.32,1438.17,-14.7483,-27.9314,2.97844,903.454,8923.13,659.982,-24.5325,44.6805,63.135,8361.3,-392.807,168.884,44.4245,9.23801,7.4788
3.971,16513.4,7630.62,14993.0,-155.68,297.875,128.82,5871.36,-737.775,7748.27,27.4784,-86.9535,12.3695,-5623.89,21622.3,-4067.3,54.9976,62.24,313.884,-2062.58,-9699.12,-0.173388,15.5648,-35.6313,56.2886,-321.949,5314.25,1390.73,-14.1463,-26.7342,2.56308,907.01,8921.91,657.722,-24.7511,44.8871,63.1593,8355.63,-405.977,139.547,44.2248,9.43613,7.37879
3.9715,16591.2,7948.79,14888.2,-156.533,297.637,128.37,5889.64,-742.162,7744.71,27.5762,-86.9535,12.2363,-5728.18,21647.9,-3831.02,54.3376,59.9299,313.594,-2074.6,-9704.51,19.3452,15.6324,-35.6389,56.4139,-278.338,5328.19,1343.28,-13.5442,-25.537,2.14771,910.566,8920.68,655.463,-24.9697,45.0938,63.1837,8349.96,-419.147,110.21,44.0251,9.63425,7.27878
3.972,16668.9,8266.95,14783.3,-157.386,297.4,127.919,5907.92,-746.549,7741.14,27.6739,-86.9535,12.1031,-5832.46,21673.6,-3594.73,53.6776,57.6198,313.303,-2086.61,-9709.9,38.8637,15.7001,-35.6466,56.5392,-234.726,5342.13,1295.84,-12.9421,-24.3398,1.73234,914.122,8919.46,653.203,-25.1883,45.3004,63.2081,8344.29,-432.318,80.8724,43.8254,9.83238,7.17877
3.9725,16746.7,8585.12,14678.5,-158.239,297.163,127.469,5926.2,-750.936,7737.58,27.7717,-86.9535,11.9699,-5936.74,21699.3,-3358.45,53.0177,55.3097,313.013,-2098.63,-9715.28,58.3823,15.7677,-35.6543,56.6645,-191.114,5356.07,1248.39,-12.34,-23.1426,1.31697,917.678,8918.23,650.943,-25.4069,45.5071,63.2324,8338.62,-445.488,51.5353,43.6257,10.0305,7.07876
3.973,16824.4,8903.28,14573.7,-159.092,296.925,127.019,5944.49,-755.323,7734.02,27.8694,-86.9535,11.8367,-6041.02,21725.0,-3122.17,52.3577,52.9996,312.722,-2110.65,-9720.67,77.9009,15.8354,-35.662,56.7898,-147.502,5370.0,1200.95,-11.738,-21.9454,0.901605,921.234,8917.01,648.684,-25.6255,45.7138,63.2568,8332.95,-458.659,22.1982,43.426,10.2286,6.97876
3.9735,16903.7,9055.1,14492.8,-159.63,296.667,126.156,5955.62,-767.141,7731.5,27.9457,-86.9555,11.7117,-6149.4,21741.4,-2915.32,51.7332,50.4934,312.291,-2119.39,-9726.65,95.3274,15.9144,-35.6659,56.9215,-96.3444,5385.59,1163.84,-11.1278,-20.6395,0.53734,920.418,8922.42,653.208,-25.7773,45.8461,63.3186,8333.12,-470.647,4.5399,43.2174,10.3812,6.91365
3.974,16985.9,8874.25,14460.1,-159.535,296.367,124.469,5952.45,-793.82,7731.06,27.979,-86.9614,11.603,-6265.97,21739.3,-2767.35,51.1797,47.595,311.578,-2121.58,-9733.79,108.57,16.0161,-35.6624,57.0657,-30.0951,5404.46,1147.38,-10.5016,-19.1161,0.27528,910.858,8941.11,671.302,-25.7954,45.8296,63.4554,8344.97,-480.272,10.2393,42.9908,10.4429,6.91835
3.9745,17068.1,8693.4,14427.3,-159.441,296.067,122.782,5949.28,-820.5,7730.62,28.0123,-86.9673,11.4942,-6382.54,21737.1,-2619.37,50.6263,44.6965,310.865,-2123.77,-9740.94,121.812,16.1177,-35.6588,57.2099,36.1542,5423.34,1130.93,-9.87541,-17.5928,0.0132194,901.297,8959.8,689.394,-25.8136,45.8132,63.5922,8356.82,-489.897,15.9387,42.7643,10.5045,6.92304
3.975,17150.4,8512.55,14394.5,-159.346,295.767,121.095,5946.11,-847.179,7730.18,28.0456,-86.9732,11.3855,-6499.11,21735.0,-2471.4,50.0728,41.7981,310.152,-2125.97,-9748.09,135.055,16.2194,-35.6553,57.3541,102.404,5442.21,1114.48,-9.2492,-16.0695,-0.248841,891.737,8978.49,707.487,-25.8317,45.7967,63.729,8368.67,-499.521,21.6382,42.5377,10.5662,6.92774
3.9755,17232.6,8331.7,14361.7,-159.252,295.467,119.408,5942.94,-873.859,7729.75,28.0789,-86.9792,11.2768,-6615.68,21732.9,-2323.42,49.5193,38.8997,309.438,-2128.16,-9755.24,148.297,16.3211,-35.6518,57.4983,168.653,5461.08,1098.02,-8.62298,-14.5462,-0.510901,882.177,8997.18,725.58,-25.8499,45.7803,63.8657,8380.52,-509.146,27.3376,42.3112,10.6278,6.93244
3.976,17314.8,8150.85,14328.9,-159.158,295.167,117.721,5939.77,-900.538,7729.31,28.1122,-86.9851,11.1681,-6732.25,21730.7,-2175.45,48.9658,36.0013,308.725,-2130.35,-9762.39,161.54,16.4228,-35.6482,57.6425,234.902,5479.96,1081.57,-7.99677,-13.0229,-0.772961,872.617,9015.87,743.673,-25.868,45.7638,64.0025,8392.38,-518.771,33.037,42.0846,10.6895,6.93714
3.9765,17397.1,7970.0,14296.2,-159.063,294.867,116.034,5936.6,-927.217,7728.87,28.1455,-86.991,11.0593,-6848.82,21728.6,-2027.47,48.4124,33.1028,308.012,-2132.54,-9769.53,174.782,16.5245,-35.6447,57.7867,301.151,5498.83,1065.12,-7.37056,-11.4996,-1.03502,863.057,9034.56,761.766,-25.8862,45.7474,64.1393,8404.23,-528.396,38.7364,41.8581,10.7511,6.94183
3.977,17479.3,7789.15,14263.4,-158.969,294.567,114.347,5933.43,-953.897,7728.44,28.1788,-86.9969,10.9506,-6965.39,21726.4,-1879.5,47.8589,30.2044,307.299,-2134.74,-9776.68,188.024,16.6262,-35.6412,57.9309,367.401,5517.71,1048.66,-6.74435,-9.97627,-1.29708,853.497,9053.25,779.859,-25.9043,45.731,64.2761,8416.08,-538.02,44.4358,41.6316,10.8127,6.94653
3.9775,17561.5,7608.3,14230.6,-158.875,294.267,112.66,5930.26,-980.576,7728.0,28.2121,-87.0028,10.8419,-7081.96,21724.3,-1731.52,47.3054,27.306,306.586,-2136.93,-9783.83,201.267,16.7279,-35.6376,58.0752,433.65,5536.58,1032.21,-6.11814,-8.45296,-1.55914,843.936,9071.94,797.952,-25.9225,45.7145,64.4129,8427.93,-547.645,50.1352,41.405,10.8744,6.95123
3.978,17636.5,7292.02,14247.7,-158.784,293.733,110.884,5931.46,-994.042,7730.81,28.2137,-87.0249,10.6789,-7167.74,21721.1,-1673.54,46.9921,24.9766,305.817,-2136.6,-9796.14,210.792,16.8121,-35.6132,58.18,503.214,5558.89,1038.14,-5.57268,-6.80859,-1.77827,847.676,9083.9,780.596,-25.9389,45.7639,64.5078,8434.36,-555.641,64.8789,41.3139,10.8638,6.91864
3.9785,17702.5,6806.44,14327.1,-158.699,292.908,108.996,5938.13,-990.99,7737.68,28.1758,-87.067,10.4482,-7215.05,21716.5,-1728.03,46.979,23.3587,304.979,-2133.13,-9814.9,215.672,16.8745,-35.5628,58.2356,576.922,5585.49,1072.04,-5.12816,-5.01292,-1.94372,868.041,9087.44,718.928,-25.953,45.8955,64.5505,8434.02,-561.601,90.928,41.392,10.763,6.83946
3.979,17768.5,6320.87,14406.5,-158.613,292.083,107.108,5944.8,-987.938,7744.55,28.1379,-87.1091,10.2174,-7262.36,21712.0,-1782.53,46.9658,21.7407,304.141,-2129.65,-9833.66,220.551,16.9369,-35.5123,58.2912,650.63,5612.09,1105.94,-4.68364,-3.21725,-2.10918,888.406,9090.97,657.26,-25.9671,46.0272,64.5932,8433.68,-567.56,116.977,41.4702,10.6622,6.76027
3.9795,17834.4,5835.3,14486.0,-158.528,291.258,105.221,5951.46,-984.887,7751.42,28.1,-87.1513,9.98669,-7309.66,21707.4,-1837.03,46.9527,20.1227,303.303,-2126.17,-9852.42,225.43,16.9993,-35.4618,58.3468,724.337,5638.7,1139.84,-4.23913,-1.42157,-2.27463,908.771,9094.51,595.592,-25.9812,46.1589,64.6358,8433.34,-573.52,143.026,41.5483,10.5614,6.68108
3.98,17900.4,5349.72,14565.4,-158.443,290.433,103.333,5958.13,-981.835,7758.29,28.0621,-87.1934,9.75593,-7356.97,21702.8,-1891.52,46.9395,18.5047,302.464,-2122.69,-9871.18,230.309,17.0616,-35.4113,58.4024,798.045,5665.3,1173.74,-3.79461,0.374099,-2.44009,929.137,9098.04,533.924,-25.9953,46.2905,64.6785,8433.0,-579.48,169.075,41.6264,10.4607,6.60189
3.9805,17966.4,4864.15,14644.8,-158.357,289.608,101.445,5964.8,-978.784,7765.16,28.0242,-87.2355,9.52518,-7404.28,21698.3,-1946.02,46.9264,16.8868,301.626,-2119.22,-9889.94,235.189,17.124,-35.3609,58.458,871.753,5691.91,1207.65,-3.35009,2.16977,-2.60554,949.502,9101.58,472.255,-26.0095,46.4222,64.7212,8432.66,-585.439,195.124,41.7046,10.3599,6.5227
3.981,18032.3,4378.57,14724.2,-158.272,288.783,99.5574,5971.47,-975.732,7772.03,27.9863,-87.2777,9.29443,-7451.59,21693.7,-2000.52,46.9132,15.2688,300.788,-2115.74,-9908.7,240.068,17.1864,-35.3104,58.5136,945.46,5718.51,1241.55,-2.90557,3.96545,-2.771,969.867,9105.12,410.587,-26.0236,46.5539,64.7638,8432.32,-591.399,221.173,41.7827,10.2591,6.44351
3.9815,18098.3,3893.0,14803.7,-158.186,287.958,97.6697,5978.14,-972.68,7778.9,27.9484,-87.3198,9.06368,-7498.89,21689.2,-2055.01,46.9001,13.6508,299.95,-2112.26,-9927.46,244.947,17.2488,-35.2599,58.5692,1019.17,5745.11,1275.45,-2.46105,5.76112,-2.93645,990.232,9108.65,348.919,-26.0377,46.6855,64.8065,8431.98,-597.359,247.223,41.8608,10.1583,6.36432
3.982,18164.3,3407.43,14883.1,-158.101,287.133,95.782,5984.81,-969.629,7785.77,27.9105,-87.3619,8.83293,-7546.2,21684.6,-2109.51,46.887,12.0329,299.112,-2108.78,-9946.21,249.827,17.3112,-35.2094,58.6248,1092.88,5771.72,1309.35,-2.01653,7.55679,-3.10191,1010.6,9112.19,287.251,-26.0518,46.8172,64.8492,8431.64,-603.318,273.272,41.9389,10.0575,6.28513
3.9825,18203.2,3016.29,14927.7,-157.792,286.057,94.2916,5981.73,-959.615,7787.53,27.9989,-87.3872,8.65491,-7528.06,21684.3,-2173.84,46.9733,11.0757,298.322,-2102.21,-9955.68,249.769,17.3706,-35.1305,58.6894,1176.82,5806.99,1364.16,-1.69841,9.26696,-3.21251,1015.54,9134.77,278.465,-26.096,47.06,64.9246,8425.54,-608.873,300.338,42.01,9.94048,6.11827
3.983,18220.4,2700.7,14944.3,-157.305,284.779,93.1189,5970.85,-944.032,7785.21,28.1883,-87.3989,8.51907,-7457.55,21687.5,-2246.03,47.1391,10.6472,297.571,-2093.17,-9957.7,245.761,17.4276,-35.0287,58.7614,1268.96,5849.2,1435.7,-1.48142,10.9087,-3.27923,1008.15,9172.59,311.984,-26.1643,47.3917,65.0263,8414.83,-614.104,328.218,42.0753,9.81053,5.88126
3.9835,18237.6,2385.11,14961.0,-156.818,283.502,91.9463,5959.98,-928.449,7782.88,28.3777,-87.4107,8.38323,-7387.05,21690.7,-2318.22,47.3049,10.2186,296.82,-2084.12,-9959.73,241.754,17.4845,-34.9269,58.8333,1361.1,5891.41,1507.24,-1.26442,12.5505,-3.34594,1000.76,9210.41,345.503,-26.2325,47.7235,65.1279,8404.13,-619.335,356.099,42.1407,9.68058,5.64425
3.984,18254.8,2069.52,14977.7,-156.33,282.225,90.7737,5949.11,-912.866,7780.56,28.5671,-87.4225,8.24739,-7316.55,21693.8,-2390.41,47.4708,9.79012,296.069,-2075.07,-9961.75,237.746,17.5415,-34.8252,58.9053,1453.24,5933.63,1578.78,-1.04742,14.1922,-3.41266,993.375,9248.23,379.022,-26.3008,48.0552,65.2296,8393.42,-624.566,383.979,42.2061,9.55062,5.40724
3.9845,18272.0,1753.93,14994.4,-155.843,280.948,89.601,5938.23,-897.283,7778.23,28.7565,-87.4342,8.11155,-7246.05,21697.0,-2462.61,47.6366,9.36159,295.318,-2066.02,-9963.78,233.739,17.5985,-34.7234,58.9772,1545.38,5975.84,1650.32,-0.830424,15.834,-3.47938,985.986,9286.05,412.541,-26.369,48.387,65.3312,8382.71,-629.797,411.859,42.2714,9.42067,5.17023
3.985,18289.2,1438.34,15011.1,-155.355,279.67,88.4284,5927.36,-881.7,7775.91,28.9459,-87.446,7.97571,-7175.55,21700.1,-2534.8,47.8025,8.93307,294.567,-2056.98,-9965.8,229.731,17.6555,-34.6216,59.0492,1637.52,6018.05,1721.86,-0.613427,17.4757,-3.5461,978.596,9323.87,446.06,-26.4373,48.7187,65.4329,8372.01,-635.028,439.74,42.3368,9.29072,4.93322
3.9855,18306.4,1122.75,15027.8,-154.868,278.393,87.2558,5916.48,-866.117,7773.59,29.1353,-87.4578,7.83987,-7105.05,21703.3,-2606.99,47.9683,8.50454,293.816,-2047.93,-9967.83,225.723,17.7125,-34.5199,59.1211,1729.66,6060.26,1793.4,-0.39643,19.1175,-3.61281,971.207,9361.69,479.579,-26.5055,49.0505,65.5345,8361.3,-640.259,467.62,42.4022,9.16077,4.69621
3.986,18323.6,807.158,15044.4,-154.381,277.116,86.0831,5905.61,-850.534,7771.26,29.3247,-87.4695,7.70403,-7034.54,21706.5,-2679.18,48.1342,8.07602,293.065,-2038.88,-9969.86,221.716,17.7694,-34.4181,59.1931,1821.79,6102.47,1864.94,-0.179433,20.7593,-3.67953,963.818,9399.51,513.098,-26.5738,49.3822,65.6362,8350.6,-645.49,495.501,42.4675,9.03082,4.4592
3.9865,18340.8,491.568,15061.1,-153.893,275.839,84.9105,5894.74,-834.951,7768.94,29.5141,-87.4813,7.56819,-6964.04,21709.6,-2751.37,48.3,7.64749,292.314,-2029.84,-9971.88,217.708,17.8264,-34.3163,59.265,1913.93,6144.68,1936.48,0.0375646,22.401,-3.74625,956.429,9437.33,546.617,-26.642,49.714,65.7379,8339.89,-650.72,523.381,42.5329,8.90087,4.2222
3.987,18377.0,343.718,15007.4,-152.849,274.648,84.047,5884.26,-834.738,7762.6,29.5822,-87.5483,7.48514,-6868.13,21723.3,-2749.26,48.4169,7.64914,291.496,-2028.47,-9968.7,216.883,17.9154,-34.1969,59.3207,2010.95,6194.89,1973.85,0.245942,23.677,-3.74045,959.382,9439.7,546.042,-26.6646,49.9784,65.7403,8328.88,-642.206,555.174,42.3888,8.6377,4.01435
3.9875,18422.7,279.738,14918.5,-151.526,273.501,83.3382,5873.98,-842.208,7754.27,29.5896,-87.6431,7.42848,-6759.51,21742.3,-2709.98,48.5093,7.86586,290.644,-2030.94,-9962.92,217.648,18.0203,-34.0686,59.3683,2110.41,6249.08,1994.14,0.45001,24.7702,-3.69839,967.508,9424.34,528.421,-26.6643,50.2091,65.6931,8317.71,-626.82,588.923,42.14,8.30792,3.82109
3.988,18468.4,215.758,14829.5,-150.203,272.354,82.6293,5863.7,-849.679,7745.93,29.597,-87.7378,7.37183,-6650.88,21761.2,-2670.71,48.6016,8.08258,289.792,-2033.42,-9957.13,218.413,18.1252,-33.9403,59.4159,2209.86,6303.28,2014.42,0.654078,25.8633,-3.65633,975.633,9408.99,510.799,-26.6641,50.4399,65.646,8306.55,-611.433,622.672,41.8911,7.97815,3.62783
3.9885,18514.1,151.778,14740.6,-148.88,271.207,81.9205,5853.42,-857.149,7737.6,29.6045,-87.8325,7.31517,-6542.26,21780.2,-2631.44,48.694,8.29931,288.94,-2035.89,-9951.35,219.178,18.2302,-33.812,59.4635,2309.32,6357.48,2034.71,0.858146,26.9565,-3.61427,983.758,9393.64,493.178,-26.6638,50.6706,65.5988,8295.39,-596.046,656.421,41.6423,7.64838,3.43457
3.989,18559.8,87.7984,14651.7,-147.557,270.06,81.2116,5843.14,-864.62,7729.26,29.6119,-87.9272,7.25851,-6433.64,21799.1,-2592.17,48.7864,8.51603,288.089,-2038.36,-9945.57,219.943,18.3351,-33.6837,59.5111,2408.78,6411.68,2055.0,1.06221,28.0496,-3.57222,991.883,9378.28,475.556,-26.6635,50.9013,65.5516,8284.22,-580.659,690.17,41.3935,7.3186,3.2413
3.9895,18605.5,23.8185,14562.7,-146.234,268.913,80.5028,5832.86,-872.09,7720.92,29.6193,-88.0219,7.20185,-6325.02,21818.1,-2552.9,48.8787,8.73276,287.237,-2040.84,-9939.79,220.709,18.44,-33.5554,59.5587,2508.23,6465.88,2075.28,1.26628,29.1428,-3.53016,1000.01,9362.93,457.935,-26.6633,51.1321,65.5045,8273.06,-565.272,723.919,41.1447,6.98883,3.04804
3.99,18651.2,-40.1614,14473.8,-144.911,267.766,79.7939,5822.58,-879.561,7712.59,29.6267,-88.1166,7.1452,-6216.4,21837.0,-2513.63,48.9711,8.94948,286.385,-2043.31,-9934.0,221.474,18.545,-33.427,59.6063,2607.69,6520.08,2095.57,1.47035,30.2359,-3.4881,1008.13,9347.58,440.313,-26.663,51.3628,65.4573,8261.89,-549.886,757.668,40.8958,6.65905,2.85478
3.9905,18696.9,-104.141,14384.9,-143.588,266.619,79.0851,5812.3,-887.031,7704.25,29.6342,-88.2113,7.08854,-6107.77,21856.0,-2474.35,49.0635,9.16621,285.533,-2045.78,-9928.22,222.239,18.6499,-33.2987,59.6539,2707.15,6574.27,2115.86,1.67442,31.329,-3.44604,1016.26,9332.22,422.692,-26.6627,51.5936,65.4101,8250.73,-534.499,791.418,40.647,6.32928,2.66152
3.991,18742.6,-168.121,14296.0,-142.265,265.472,78.3762,5802.02,-894.502,7695.92,29.6416,-88.306,7.03188,-5999.15,21875.0,-2435.08,49.1558,9.38293,284.682,-2048.25,-9922.43,223.004,18.7548,-33.1704,59.7015,2806.6,6628.47,2136.14,1.87849,32.4222,-3.40398,1024.38,9316.87,405.07,-26.6625,51.8243,65.363,8239.57,-519.112,825.167,40.3982,5.9995,2.46826
3.9915,18760.4,-58.0306,14205.5,-140.803,263.954,77.6319,5811.21,-895.429,7678.59,29.55,-88.458,6.87304,-5915.48,21898.7,-2366.74,49.2161,10.0348,283.612,-2059.98,-9927.13,232.891,18.8629,-33.0182,59.7706,2917.87,6681.59,2050.33,2.66946,33.0922,-3.44758,1044.42,9342.02,383.746,-26.8417,52.1026,65.5347,8218.4,-496.449,838.72,40.0325,5.75495,2.30875
3.992,18770.3,101.794,14114.5,-139.302,262.331,76.8774,5825.95,-894.485,7658.7,29.43,-88.6263,6.68501,-5838.93,21923.8,-2290.08,49.2672,10.8109,282.48,-2074.36,-9934.82,245.383,18.9718,-32.8591,59.8459,3032.5,6734.39,1934.21,3.62812,33.6414,-3.51566,1067.86,9378.75,361.365,-27.0721,52.3944,65.769,8194.37,-471.706,846.503,39.6333,5.53475,2.15888
3.9925,18780.1,261.62,14023.6,-137.8,260.707,76.123,5840.7,-893.542,7638.8,29.3101,-88.7947,6.49697,-5762.38,21949.0,-2213.43,49.3183,11.5871,281.348,-2088.73,-9942.52,257.875,19.0807,-32.7,59.9212,3147.13,6787.2,1818.08,4.58678,34.1906,-3.58373,1091.3,9415.47,338.983,-27.3025,52.6863,66.0033,8170.35,-446.964,854.286,39.2342,5.31454,2.00901
3.993,18790.0,421.445,13932.7,-136.299,259.083,75.3685,5855.45,-892.599,7618.91,29.1902,-88.963,6.30894,-5685.83,21974.1,-2136.78,49.3694,12.3632,280.216,-2103.11,-9950.21,270.368,19.1897,-32.5409,59.9965,3261.77,6840.0,1701.95,5.54544,34.7397,-3.6518,1114.74,9452.2,316.601,-27.533,52.9781,66.2375,8146.32,-422.222,862.07,38.835,5.09434,1.85914
3.9935,18799.9,581.27,13841.7,-134.797,257.46,74.614,5870.2,-891.656,7599.01,29.0702,-89.1314,6.1209,-5609.28,21999.3,-2060.13,49.4206,13.1393,279.085,-2117.48,-9957.9,282.86,19.2986,-32.3819,60.0717,3376.4,6892.81,1585.83,6.5041,35.2889,-3.71988,1138.18,9488.92,294.219,-27.7634,53.2699,66.4718,8122.3,-397.479,869.853,38.4359,4.87414,1.70927
3.994,18809.7,741.095,13750.8,-133.296,255.836,73.8596,5884.94,-890.713,7579.12,28.9503,-89.2998,5.93287,-5532.74,22024.4,-1983.47,49.4717,13.9155,277.953,-2131.86,-9965.59,295.353,19.4075,-32.2228,60.147,3491.04,6945.61,1469.7,7.46276,35.838,-3.78795,1161.62,9525.65,271.837,-27.9939,53.5618,66.7061,8098.27,-372.737,877.636,38.0368,4.65393,1.5594
3.9945,18819.6,900.92,13659.9,-131.794,254.212,73.1051,5899.69,-889.77,7559.22,28.8304,-89.4681,5.74483,-5456.19,22049.5,-1906.82,49.5228,14.6916,276.821,-2146.23,-9973.29,307.845,19.5165,-32.0637,60.2223,3605.67,6998.42,1353.58,8.42142,36.3872,-3.85602,1185.07,9562.38,249.456,-28.2243,53.8536,66.9404,8074.25,-347.994,885.419,37.6376,4.43373,1.40953
3.995,18829.5,1060.75,13568.9,-130.293,252.589,72.3507,5914.44,-888.827,7539.33,28.7104,-89.6365,5.5568,-5379.64,22074.7,-1830.17,49.5739,15.4678,275.689,-2160.61,-9980.98,320.337,19.6254,-31.9046,60.2976,3720.3,7051.22,1237.45,9.38007,36.9363,-3.9241,1208.51,9599.1,227.074,-28.4548,54.1455,67.1746,8050.22,-323.252,893.202,37.2385,4.21353,1.25966
3.9955,18839.3,1220.57,13478.0,-128.791,250.965,71.5962,5929.19,-887.883,7519.43,28.5905,-89.8048,5.36876,-5303.09,22099.8,-1753.51,49.625,16.2439,274.557,-2174.98,-9988.67,332.83,19.7343,-31.7455,60.3729,3834.94,7104.03,1121.32,10.3387,37.4855,-3.99217,1231.95,9635.83,204.692,-28.6852,54.4373,67.4089,8026.19,-298.51,900.986,36.8393,3.99333,1.10979
3.996,18732.9,1665.81,13619.2,-131.629,247.07,71.3606,5957.62,-881.609,7494.28,28.6021,-89.9673,5.15819,-5278.83,22138.0,-1632.11,49.3955,17.1976,273.222,-2185.15,-9997.52,341.031,19.8384,-31.5785,60.4896,3949.88,7170.49,964.599,12.2887,37.3786,-4.20254,1208.03,9620.08,215.673,-28.7914,54.8765,67.3126,7984.23,-297.89,912.307,36.04,3.60372,0.934049
3.9965,18611.9,2146.72,13789.5,-135.009,242.89,71.1899,5987.77,-874.667,7468.48,28.6302,-90.129,4.9448,-5261.1,22177.8,-1505.11,49.131,18.1734,271.862,-2194.79,-10006.5,348.695,19.9419,-31.4104,60.6114,4064.86,7238.66,802.8,14.3627,37.1897,-4.4307,1178.19,9597.78,230.825,-28.882,55.3341,67.175,7940.02,-300.286,924.071,35.1907,3.19295,0.755071
3.997,18491.0,2627.63,13959.7,-138.389,238.711,71.0192,6017.91,-867.726,7442.67,28.6582,-90.2907,4.73141,-5243.36,22217.6,-1378.1,48.8664,19.1493,270.502,-2204.43,-10015.5,356.36,20.0454,-31.2424,60.7333,4179.84,7306.83,641.001,16.4366,37.0008,-4.65885,1148.35,9575.48,245.976,-28.9727,55.7917,67.0374,7895.81,-302.682,935.836,34.3413,2.78217,0.576093
3.9975,18370.0,3108.54,14130.0,-141.769,234.531,70.8484,6048.06,-860.785,7416.86,28.6863,-90.4524,4.51802,-5225.63,22257.4,-1251.1,48.6019,20.1251,269.141,-2214.07,-10024.5,364.024,20.1489,-31.0743,60.8552,4294.82,7375.0,479.202,18.5106,36.8119,-4.88701,1118.51,9553.17,261.128,-29.0633,56.2493,66.8997,7851.6,-305.078,947.6,33.492,2.3714,0.397115
3.998,18249.0,3589.45,14300.2,-145.149,230.352,70.6777,6078.21,-853.844,7391.05,28.7143,-90.6141,4.30463,-5207.9,22297.3,-1124.1,48.3373,21.1009,267.781,-2223.7,-10033.5,371.689,20.2524,-30.9063,60.9771,4409.8,7443.17,317.403,20.5845,36.623,-5.11517,1088.67,9530.87,276.28,-29.154,56.7069,66.7621,7807.4,-307.473,959.364,32.6426,1.96062,0.218137
3.9985,18128.1,4070.36,14470.5,-148.53,226.172,70.507,6108.35,-846.902,7365.25,28.7423,-90.7758,4.09124,-5190.17,22337.1,-997.101,48.0728,22.0768,266.421,-2233.34,-10042.5,379.353,20.3558,-30.7383,61.0989,4524.78,7511.34,155.604,22.6584,36.4341,-5.34333,1058.83,9508.57,291.431,-29.2446,57.1645,66.6245,7763.19,-309.869,971.128,31.7933,1.54984,0.0391594
3.999,18007.1,4551.28,14640.7,-151.91,221.993,70.3363,6138.5,-839.961,7339.44,28.7704,-90.9375,3.87785,-5172.44,22376.9,-870.1,47.8082,23.0526,265.06,-2242.98,-10051.5,387.018,20.4593,-30.5702,61.2208,4639.76,7579.51,-6.19502,24.7324,36.2452,-5.57149,1028.99,9486.27,306.583,-29.3353,57.6221,66.4868,7718.98,-312.265,982.892,30.9439,1.13907,-0.139818
3.9995,17886.1,5032.19,14811.0,-155.29,217.814,70.1656,6168.65,-833.02,7313.63,28.7984,-91.0992,3.66446,-5154.71,22416.7,-743.099,47.5437,24.0284,263.7,-2252.62,-10060.5,394.682,20.5628,-30.4022,61.3427,4754.74,7647.68,-167.994,26.8063,36.0563,-5.79964,999.152,9463.96,321.735,-29.4259,58.0797,66.3492,7674.77,-314.661,994.656,30.0946,0.72829,-0.318796
