Time,RFoot_accel.x,RFoot_accel.y,RFoot_accel.z,RFoot_gyro.x,RFoot_gyro.y,RFoot_gyro.z,LFoot_accel.x,LFoot_accel.y,LFoot_accel.z,LFoot_gyro.x,LFoot_gyro.y,LFoot_gyro.z,RShank_accel.x,RShank_accel.y,RShank_accel.z,RShank_gyro.x,RShank_gyro.y,RShank_gyro.z,LShank_accel.x,LShank_accel.y,LShank_accel.z,LShank_gyro.x,LShank_gyro.y,LShank_gyro.z,RThigh_accel.x,RThigh_accel.y,RThigh_accel.z,RThigh_gyro.x,RThigh_gyro.y,RThigh_gyro.z,LThigh_accel.x,LThigh_accel.y,LThigh_accel.z,LThigh_gyro.x,LThigh_gyro.y,LThigh_gyro.z,Pelvis_accel.x,Pelvis_accel.y,Pelvis_accel.z,Pelvis_gyro.x,Pelvis_gyro.y,Pelvis_gyro.z
4.14,4079.57,2002.76,9188.72,-5.94496,-64.3656,3.56965,1971.86,3360.72,6807.26,6.37999,273.619,-166.736,-262.526,10569.7,-1301.88,-10.5415,-43.9708,-39.6834,3522.57,-4161.06,-1147.25,-86.8783,117.652,-170.638,1285.39,10495.8,-3064.58,-21.937,-109.236,-48.1818,5578.66,9275.39,4015.53,75.2506,-66.7796,-110.132,7816.53,1736.29,2369.2,-16.1623,15.7336,-21.264
4.1405,4100.07,1985.25,9188.77,-6.10385,-64.4915,3.70008,1953.73,3280.45,6874.27,6.26682,273.822,-167.925,-246.161,10545.6,-1320.78,-10.5998,-44.045,-39.6942,3490.07,-4186.3,-1120.44,-87.4924,118.803,-171.603,1348.89,10460.2,-3074.95,-22.0261,-108.192,-48.1083,5598.32,9254.0,4014.78,74.7415,-67.2188,-110.107,7784.2,1761.67,2346.64,-16.7271,16.2058,-21.0145
4.141,4120.57,1967.74,9188.82,-6.26274,-64.6174,3.8305,1935.61,3200.17,6941.29,6.15365,274.025,-169.113,-229.795,10521.4,-1339.69,-10.6581,-44.1192,-39.7051,3457.57,-4211.54,-1093.62,-88.1066,119.953,-172.567,1412.39,10424.6,-3085.32,-22.1153,-107.148,-48.0347,5617.99,9232.62,4014.04,74.2323,-67.658,-110.081,7751.88,1787.04,2324.09,-17.2918,16.678,-20.7651
4.1415,4141.08,1950.23,9188.87,-6.42163,-64.7434,3.96093,1917.49,3119.9,7008.31,6.04048,274.228,-170.302,-213.429,10497.3,-1358.6,-10.7163,-44.1934,-39.7159,3425.06,-4236.78,-1066.81,-88.7207,121.104,-173.532,1475.88,10389.0,-3095.69,-22.2045,-106.104,-47.9612,5637.65,9211.24,4013.29,73.7232,-68.0971,-110.056,7719.55,1812.42,2301.53,-17.8566,17.1501,-20.5156
4.142,4161.58,1932.72,9188.92,-6.58052,-64.8693,4.09135,1899.36,3039.62,7075.32,5.92731,274.431,-171.49,-197.063,10473.1,-1377.5,-10.7746,-44.2676,-39.7268,3392.56,-4262.02,-1040.0,-89.3349,122.255,-174.497,1539.38,10353.4,-3106.06,-22.2937,-105.06,-47.8876,5657.32,9189.85,4012.55,73.2141,-68.5363,-110.031,7687.22,1837.79,2278.98,-18.4214,17.6223,-20.2661
4.1425,4152.36,1903.37,9187.52,-6.64728,-65.0754,4.07273,1890.99,2955.58,7102.54,6.10748,274.835,-172.696,-183.886,10443.7,-1409.84,-10.7977,-44.2813,-39.7914,3357.35,-4304.39,-1023.07,-89.9644,123.402,-175.464,1600.54,10314.5,-3113.0,-22.2236,-103.872,-47.8355,5676.89,9176.25,4011.31,72.6265,-69.0895,-109.994,7661.32,1849.37,2269.0,-18.7486,17.981,-20.1475
4.143,4119.37,1864.53,9184.96,-6.64035,-65.3456,3.93487,1890.4,2868.52,7097.92,6.52231,275.4,-173.916,-173.258,10410.2,-1452.92,-10.7924,-44.2466,-39.8991,3319.95,-4360.47,-1014.06,-90.6063,124.547,-176.433,1659.82,10272.9,-3117.2,-22.0261,-102.57,-47.8005,5696.38,9168.87,4009.67,71.9762,-69.734,-109.948,7640.57,1849.9,2269.09,-18.8859,18.2491,-20.1337
4.1435,4086.38,1825.69,9182.41,-6.63342,-65.6158,3.79701,1889.82,2781.46,7093.29,6.93715,275.965,-175.136,-162.631,10376.6,-1496.0,-10.7872,-44.2119,-40.0068,3282.56,-4416.55,-1005.04,-91.2482,125.692,-177.402,1719.11,10231.4,-3121.41,-21.8286,-101.267,-47.7655,5715.88,9161.49,4008.04,71.3259,-70.3785,-109.902,7619.82,1850.43,2269.17,-19.0232,18.5171,-20.1198
4.144,4053.38,1786.86,9179.85,-6.62649,-65.886,3.65915,1889.24,2694.39,7088.67,7.35198,276.531,-176.356,-152.004,10343.1,-1539.09,-10.782,-44.1772,-40.1144,3245.16,-4472.62,-996.028,-91.8901,126.837,-178.372,1778.4,10189.8,-3125.61,-21.6311,-99.965,-47.7304,5735.38,9154.11,4006.41,70.6756,-71.0231,-109.856,7599.07,1850.96,2269.25,-19.1604,18.7852,-20.1059
4.1445,4020.39,1748.02,9177.29,-6.61956,-66.1563,3.52129,1888.65,2607.33,7084.05,7.76682,277.096,-177.576,-141.377,10309.5,-1582.17,-10.7768,-44.1426,-40.2221,3207.77,-4528.7,-987.012,-92.532,127.982,-179.341,1837.69,10148.3,-3129.81,-21.4337,-98.6626,-47.6954,5754.87,9146.74,4004.77,70.0253,-71.6676,-109.81,7578.32,1851.5,2269.34,-19.2977,19.0532,-20.0921
4.145,3987.39,1709.18,9174.73,-6.61263,-66.4265,3.38343,1888.07,2520.27,7079.42,8.18166,277.661,-178.796,-130.75,10276.0,-1625.25,-10.7716,-44.1079,-40.3298,3170.37,-4584.77,-977.996,-93.1739,129.127,-180.31,1896.97,10106.7,-3134.01,-21.2362,-97.3601,-47.6604,5774.37,9139.36,4003.14,69.3749,-72.3121,-109.764,7557.57,1852.03,2269.42,-19.4349,19.3213,-20.0782
4.1455,3954.4,1670.35,9172.17,-6.6057,-66.6967,3.24557,1887.49,2433.21,7074.8,8.59649,278.226,-180.016,-120.123,10242.5,-1668.34,-10.7664,-44.0732,-40.4375,3132.98,-4640.85,-968.98,-93.8158,130.272,-181.279,1956.26,10065.2,-3138.22,-21.0387,-96.0577,-47.6254,5793.86,9131.98,4001.5,68.7246,-72.9566,-109.718,7536.82,1852.56,2269.5,-19.5722,19.5893,-20.0643
4.146,3921.41,1631.51,9169.61,-6.59877,-66.9669,3.10771,1886.91,2346.15,7070.17,9.01133,278.792,-181.235,-109.496,10208.9,-1711.42,-10.7612,-44.0385,-40.5451,3095.58,-4696.93,-959.965,-94.4576,131.416,-182.248,2015.55,10023.6,-3142.42,-20.8412,-94.7552,-47.5904,5813.36,9124.6,3999.87,68.0743,-73.6011,-109.672,7516.07,1853.09,2269.59,-19.7094,19.8574,-20.0504
4.1465,3888.41,1592.67,9167.05,-6.59184,-67.2372,2.96984,1886.32,2259.09,7065.55,9.42616,279.357,-182.455,-98.8691,10175.4,-1754.5,-10.756,-44.0039,-40.6528,3058.19,-4753.0,-950.949,-95.0995,132.561,-183.217,2074.83,9982.07,-3146.62,-20.6437,-93.4528,-47.5554,5832.86,9117.22,3998.24,67.424,-74.2456,-109.626,7495.32,1853.62,2269.67,-19.8467,20.1254,-20.0366
4.147,3869.03,1576.14,9174.47,-6.58624,-67.4879,2.88556,1884.79,2165.99,7057.71,10.194,279.971,-183.625,-83.2861,10146.9,-1790.37,-10.7392,-43.89,-40.7989,3026.41,-4814.43,-940.202,-95.6585,133.681,-184.161,2122.26,9937.51,-3151.63,-20.3107,-92.062,-47.5629,5846.22,9117.43,3996.39,66.754,-75.0617,-109.593,7497.25,1848.72,2268.19,-19.9566,20.3198,-20.0313
4.1475,3856.46,1570.76,9186.89,-6.5813,-67.729,2.82808,1882.78,2069.86,7048.26,11.1383,280.61,-184.769,-65.2251,10120.9,-1822.64,-10.7165,-43.7364,-40.9641,2997.42,-4878.53,-928.588,-96.176,134.788,-185.093,2163.77,9891.45,-3157.05,-19.9099,-90.627,-47.5917,5856.51,9121.43,3994.43,66.0741,-75.9637,-109.567,7510.53,1841.09,2265.92,-20.0528,20.4773,-20.0302
4.148,3843.89,1565.38,9199.3,-6.57636,-67.9701,2.77059,1880.76,1973.73,7038.81,12.0827,281.249,-185.914,-47.1641,10094.9,-1854.9,-10.6939,-43.5829,-41.1294,2968.44,-4942.64,-916.975,-96.6935,135.895,-186.024,2205.27,9845.39,-3162.47,-19.509,-89.192,-47.6205,5866.81,9125.44,3992.47,65.3941,-76.8656,-109.541,7523.8,1833.46,2263.66,-20.1491,20.6348,-20.0292
4.1485,3831.32,1560.0,9211.71,-6.57142,-68.2111,2.7131,1878.75,1877.61,7029.36,13.027,281.887,-187.058,-29.1031,10068.9,-1887.17,-10.6712,-43.4294,-41.2947,2939.46,-5006.74,-905.362,-97.211,137.002,-186.956,2246.77,9799.33,-3167.88,-19.1082,-87.757,-47.6493,5877.1,9129.44,3990.51,64.7142,-77.7675,-109.514,7537.08,1825.83,2261.39,-20.2453,20.7923,-20.0281
4.149,3818.75,1554.62,9224.13,-6.56649,-68.4522,2.65561,1876.74,1781.48,7019.91,13.9714,282.526,-188.203,-11.0421,10042.9,-1919.43,-10.6485,-43.2759,-41.4599,2910.48,-5070.85,-893.749,-97.7285,138.109,-187.887,2288.28,9753.28,-3173.3,-18.7074,-86.322,-47.6781,5887.4,9133.45,3988.56,64.0343,-78.6694,-109.488,7550.35,1818.2,2259.13,-20.3415,20.9497,-20.0271
4.1495,3806.18,1549.24,9236.54,-6.56155,-68.6932,2.59812,1874.72,1685.36,7010.46,14.9157,283.165,-189.347,7.01892,10016.9,-1951.69,-10.6259,-43.1224,-41.6252,2881.5,-5134.95,-882.135,-98.246,139.216,-188.818,2329.78,9707.22,-3178.71,-18.3066,-84.887,-47.707,5897.69,9137.45,3986.6,63.3544,-79.5713,-109.462,7563.63,1810.57,2256.86,-20.4378,21.1072,-20.026
4.15,3793.61,1543.85,9248.95,-6.55661,-68.9343,2.54063,1872.71,1589.23,7001.01,15.86,283.803,-190.492,25.0799,9990.97,-1983.96,-10.6032,-42.9689,-41.7905,2852.52,-5199.05,-870.522,-98.7635,140.323,-189.75,2371.28,9661.16,-3184.13,-17.9058,-83.4521,-47.7358,5907.98,9141.46,3984.64,62.6745,-80.4733,-109.435,7576.9,1802.95,2254.59,-20.534,21.2647,-20.025
4.1505,3781.04,1538.47,9261.37,-6.55168,-69.1753,2.48314,1870.7,1493.11,6991.56,16.8044,284.442,-191.636,43.1409,9964.99,-2016.22,-10.5806,-42.8154,-41.9558,2823.54,-5263.16,-858.909,-99.2811,141.431,-190.681,2412.79,9615.1,-3189.55,-17.505,-82.0171,-47.7646,5918.28,9145.46,3982.68,61.9946,-81.3752,-109.409,7590.18,1795.32,2252.33,-20.6302,21.4222,-20.0239
4.151,3768.47,1533.09,9273.78,-6.54674,-69.4164,2.42565,1868.69,1396.98,6982.11,17.7487,285.081,-192.781,61.2019,9939.0,-2048.48,-10.5579,-42.6618,-42.121,2794.56,-5327.26,-847.296,-99.7986,142.538,-191.612,2454.29,9569.04,-3194.96,-17.1041,-80.5821,-47.7934,5928.57,9149.47,3980.72,61.3147,-82.2771,-109.382,7603.45,1787.69,2250.06,-20.7264,21.5797,-20.0229
4.1515,3774.64,1510.75,9262.5,-6.61361,-69.5959,2.29502,1863.77,1334.35,7014.19,18.6826,285.706,-193.885,67.6941,9908.48,-2071.36,-10.5209,-42.4868,-42.2879,2786.75,-5385.9,-858.545,-100.214,143.491,-192.518,2469.76,9520.61,-3190.02,-16.5722,-79.1101,-47.8278,5934.25,9161.69,3972.93,60.5927,-83.2715,-109.29,7635.53,1778.9,2251.44,-20.9789,21.6765,-19.9234
4.152,3786.17,1483.55,9244.45,-6.70099,-69.7578,2.14349,1858.03,1281.28,7058.13,19.6135,286.328,-194.978,70.8808,9876.67,-2091.55,-10.4798,-42.3055,-42.4553,2784.99,-5442.98,-876.326,-100.6,144.4,-193.416,2477.79,9471.5,-3182.13,-16.0027,-77.6275,-47.8639,5938.61,9176.27,3963.46,59.8587,-84.2923,-109.179,7672.97,1769.79,2253.85,-21.276,21.7558,-19.7958
4.1525,3797.69,1456.36,9226.39,-6.78838,-69.9197,1.99197,1852.29,1228.22,7102.08,20.5443,286.95,-196.071,74.0675,9844.85,-2111.75,-10.4387,-42.1243,-42.6226,2783.23,-5500.06,-894.107,-100.986,145.309,-194.314,2485.82,9422.39,-3174.23,-15.4332,-76.145,-47.8999,5942.97,9190.85,3953.99,59.1248,-85.3131,-109.068,7710.42,1760.68,2256.26,-21.5731,21.8352,-19.6683
4.153,3809.22,1429.17,9208.34,-6.87576,-70.0815,1.84044,1846.55,1175.15,7146.02,21.4752,287.571,-197.164,77.2543,9813.03,-2131.94,-10.3976,-41.943,-42.79,2781.48,-5557.14,-911.888,-101.372,146.218,-195.212,2493.86,9373.28,-3166.33,-14.8638,-74.6624,-47.9359,5947.33,9205.42,3944.52,58.3908,-86.3339,-108.957,7747.86,1751.56,2258.67,-21.8702,21.9146,-19.5407
4.1535,3820.74,1401.97,9190.29,-6.96315,-70.2434,1.68892,1840.8,1122.09,7189.96,22.4061,288.193,-198.257,80.441,9781.21,-2152.13,-10.3565,-41.7618,-42.9573,2779.72,-5614.22,-929.669,-101.758,147.127,-196.11,2501.89,9324.17,-3158.44,-14.2943,-73.1798,-47.972,5951.7,9220.0,3935.05,57.6569,-87.3547,-108.846,7785.31,1742.45,2261.09,-22.1672,21.994,-19.4131
4.154,3832.27,1374.78,9172.24,-7.05054,-70.4053,1.53739,1835.06,1069.02,7233.91,23.337,288.814,-199.35,83.6277,9749.4,-2172.33,-10.3154,-41.5805,-43.1247,2777.96,-5671.3,-947.45,-102.144,148.036,-197.008,2509.92,9275.07,-3150.54,-13.7249,-71.6972,-48.008,5956.06,9234.58,3925.58,56.9229,-88.3755,-108.735,7822.75,1733.33,2263.5,-22.4643,22.0733,-19.2856
4.1545,3843.79,1347.58,9154.18,-7.13792,-70.5672,1.38586,1829.32,1015.96,7277.85,24.2679,289.436,-200.442,86.8145,9717.58,-2192.52,-10.2743,-41.3993,-43.292,2776.2,-5728.38,-965.231,-102.53,148.945,-197.906,2517.95,9225.96,-3142.64,-13.1554,-70.2147,-48.0441,5960.42,9249.15,3916.11,56.1889,-89.3963,-108.624,7860.2,1724.22,2265.91,-22.7614,22.1527,-19.158
4.155,3855.32,1320.39,9136.13,-7.22531,-70.7291,1.23434,1823.58,962.893,7321.79,25.1987,290.058,-201.535,90.0012,9685.76,-2212.71,-10.2331,-41.218,-43.4594,2774.44,-5785.46,-983.012,-102.916,149.854,-198.804,2525.99,9176.85,-3134.75,-12.5859,-68.7321,-48.0801,5964.78,9263.73,3906.64,55.455,-90.4171,-108.513,7897.64,1715.1,2268.32,-23.0585,22.2321,-19.0305
4.1555,3866.84,1293.2,9118.08,-7.31269,-70.891,1.08281,1817.83,909.827,7365.74,26.1296,290.679,-202.628,93.1879,9653.94,-2232.91,-10.192,-41.0368,-43.6268,2772.68,-5842.54,-1000.79,-103.302,150.763,-199.702,2534.02,9127.74,-3126.85,-12.0165,-67.2495,-48.1161,5969.14,9278.31,3897.18,54.721,-91.4379,-108.402,7935.09,1705.99,2270.74,-23.3556,22.3114,-18.9029
4.156,3894.71,1296.31,9112.51,-7.32723,-71.1143,0.959381,1867.03,886.531,7418.49,26.9887,291.148,-203.443,75.4701,9658.09,-2237.09,-10.1548,-40.9381,-43.7874,2768.75,-5912.26,-1004.46,-103.621,151.619,-200.706,2530.94,9088.27,-3110.77,-11.4274,-65.9332,-48.182,5977.16,9285.42,3895.52,53.8159,-92.6295,-108.238,7953.77,1691.64,2284.55,-23.5537,22.3982,-18.8623
4.1565,3924.62,1303.21,9108.5,-7.33266,-71.3453,0.839463,1923.1,866.956,7472.34,27.8387,291.597,-204.223,55.1392,9666.74,-2239.27,-10.1181,-40.8497,-43.9472,2764.54,-5983.56,-1006.37,-103.932,152.468,-201.722,2526.47,9050.01,-3093.68,-10.8359,-64.6378,-48.2516,5985.64,9291.59,3894.83,52.8894,-93.8425,-108.068,7970.11,1676.63,2299.8,-23.7394,22.4859,-18.8326
4.157,3954.53,1310.11,9104.48,-7.33809,-71.5762,0.719546,1979.17,847.38,7526.18,28.6888,292.046,-205.002,34.8083,9675.39,-2241.45,-10.0814,-40.7614,-44.107,2760.34,-6054.86,-1008.27,-104.244,153.317,-202.739,2522.0,9011.75,-3076.58,-10.2444,-63.3423,-48.3212,5994.12,9297.76,3894.15,51.963,-95.0555,-107.898,7986.45,1661.63,2315.04,-23.9251,22.5736,-18.8029
4.1575,3984.44,1317.02,9100.47,-7.34352,-71.8072,0.599628,2035.23,827.805,7580.03,29.5389,292.495,-205.782,14.4774,9684.03,-2243.63,-10.0446,-40.673,-44.2669,2756.13,-6126.16,-1010.18,-104.555,154.166,-203.756,2517.53,8973.49,-3059.49,-9.65288,-62.0468,-48.3908,6002.59,9303.94,3893.47,51.0365,-96.2684,-107.728,8002.79,1646.62,2330.29,-24.1108,22.6613,-18.7732
4.158,4014.35,1323.92,9096.46,-7.34895,-72.0382,0.479711,2091.3,808.23,7633.88,30.389,292.944,-206.562,-5.85352,9692.68,-2245.81,-10.0079,-40.5847,-44.4267,2751.93,-6197.46,-1012.08,-104.866,155.015,-204.772,2513.06,8935.22,-3042.4,-9.06137,-60.7514,-48.4604,6011.07,9310.12,3892.78,50.11,-97.4814,-107.559,8019.13,1631.61,2345.53,-24.2965,22.749,-18.7435
4.1585,4044.26,1330.82,9092.45,-7.35438,-72.2692,0.359794,2147.36,788.655,7687.73,31.239,293.393,-207.342,-26.1844,9701.33,-2248.0,-9.97119,-40.4964,-44.5865,2747.72,-6268.77,-1013.98,-105.177,155.865,-205.789,2508.59,8896.96,-3025.3,-8.46986,-59.4559,-48.53,6019.55,9316.29,3892.1,49.1835,-98.6943,-107.389,8035.46,1616.61,2360.78,-24.4822,22.8367,-18.7137
4.159,4074.17,1337.72,9088.44,-7.35981,-72.5002,0.239876,2203.43,769.08,7741.58,32.0891,293.842,-208.121,-46.5153,9709.97,-2250.18,-9.93447,-40.408,-44.7463,2743.52,-6340.07,-1015.89,-105.488,156.714,-206.805,2504.12,8858.7,-3008.21,-7.87835,-58.1604,-48.5996,6028.03,9322.47,3891.42,48.257,-99.9073,-107.219,8051.8,1601.6,2376.02,-24.6679,22.9244,-18.684
4.1595,4104.08,1344.63,9084.42,-7.36524,-72.7311,0.119959,2259.5,749.505,7795.43,32.9392,294.291,-208.901,-66.8462,9718.62,-2252.36,-9.89774,-40.3197,-44.9061,2739.31,-6411.37,-1017.79,-105.799,157.563,-207.822,2499.65,8820.44,-2991.11,-7.28684,-56.8649,-48.6692,6036.5,9328.64,3890.73,47.3305,-101.12,-107.049,8068.14,1586.6,2391.27,-24.8536,23.0122,-18.6543
4.16,4133.99,1351.53,9080.41,-7.37068,-72.9621,4.13e-05,2315.56,729.929,7849.27,33.7893,294.74,-209.681,-87.1771,9727.27,-2254.54,-9.86101,-40.2313,-45.066,2735.11,-6482.67,-1019.7,-106.11,158.412,-208.839,2495.18,8782.18,-2974.02,-6.69533,-55.5695,-48.7388,6044.98,9334.82,3890.05,46.404,-102.333,-106.879,8084.48,1571.59,2406.51,-25.0393,23.0999,-18.6246
4.1605,4126.63,1340.55,9072.38,-7.49425,-73.0825,-0.168931,2314.2,725.834,7846.69,35.0521,295.143,-210.278,-99.2655,9722.93,-2262.85,-9.907,-40.2538,-45.2539,2717.84,-6509.58,-1005.24,-106.349,159.068,-209.758,2471.95,8774.13,-2950.12,-6.27444,-54.6272,-48.8475,6060.76,9348.94,3894.94,45.0673,-103.805,-106.667,8115.0,1558.22,2406.91,-25.1069,23.0974,-18.5057
4.161,4119.26,1329.58,9064.34,-7.61782,-73.2029,-0.337902,2312.83,721.74,7844.1,36.315,295.546,-210.875,-111.354,9718.59,-2271.16,-9.95298,-40.2763,-45.4418,2700.57,-6536.5,-990.79,-106.589,159.724,-210.678,2448.73,8766.09,-2926.23,-5.85356,-53.6849,-48.9562,6076.53,9363.05,3899.83,43.7306,-105.276,-106.455,8145.53,1544.86,2407.3,-25.1746,23.0949,-18.3867
4.1615,4111.9,1318.6,9056.3,-7.74138,-73.3233,-0.506874,2311.47,717.645,7841.52,37.5779,295.948,-211.473,-123.442,9714.25,-2279.47,-9.99896,-40.2988,-45.6297,2683.31,-6563.41,-976.336,-106.829,160.379,-211.597,2425.51,8758.04,-2902.34,-5.43268,-52.7426,-49.0649,6092.3,9377.17,3904.72,42.3939,-106.747,-106.243,8176.06,1531.49,2407.69,-25.2423,23.0924,-18.2678
4.162,4104.54,1307.63,9048.27,-7.86495,-73.4438,-0.675846,2310.1,713.55,7838.93,38.8408,296.351,-212.07,-135.531,9709.91,-2287.78,-10.0449,-40.3212,-45.8176,2666.04,-6590.33,-961.882,-107.068,161.035,-212.517,2402.29,8749.99,-2878.44,-5.01179,-51.8003,-49.1735,6108.07,9391.29,3909.61,41.0572,-108.219,-106.031,8206.58,1518.13,2408.08,-25.3099,23.0899,-18.1489
4.1625,4097.18,1296.65,9040.23,-7.98852,-73.5642,-0.844818,2308.74,709.455,7836.35,40.1036,296.754,-212.667,-147.619,9705.58,-2296.09,-10.0909,-40.3437,-46.0056,2648.78,-6617.24,-947.429,-107.308,161.691,-213.436,2379.06,8741.95,-2854.55,-4.59091,-50.858,-49.2822,6123.85,9405.41,3914.5,39.7205,-109.69,-105.819,8237.11,1504.76,2408.47,-25.3776,23.0874,-18.0299
4.163,4089.81,1285.68,9032.2,-8.11209,-73.6846,-1.01379,2307.37,705.36,7833.76,41.3665,297.156,-213.265,-159.707,9701.24,-2304.4,-10.1369,-40.3662,-46.1935,2631.51,-6644.16,-932.975,-107.548,162.346,-214.356,2355.84,8733.9,-2830.66,-4.17002,-49.9157,-49.3909,6139.62,9419.52,3919.39,38.3838,-111.162,-105.607,8267.63,1491.39,2408.87,-25.4452,23.0849,-17.911
4.1635,4082.45,1274.7,9024.16,-8.23566,-73.805,-1.18276,2306.0,701.266,7831.18,42.6294,297.559,-213.862,-171.796,9696.9,-2312.71,-10.1829,-40.3887,-46.3814,2614.25,-6671.08,-918.521,-107.788,163.002,-215.276,2332.62,8725.85,-2806.76,-3.74914,-48.9734,-49.4996,6155.39,9433.64,3924.28,37.047,-112.633,-105.395,8298.16,1478.03,2409.26,-25.5129,23.0824,-17.7921
4.164,4075.09,1263.73,9016.12,-8.35923,-73.9254,-1.35173,2304.64,697.171,7828.59,43.8923,297.961,-214.459,-183.884,9692.56,-2321.02,-10.2289,-40.4112,-46.5693,2596.98,-6697.99,-904.067,-108.027,163.658,-216.195,2309.4,8717.81,-2782.87,-3.32826,-48.0311,-49.6083,6171.17,9447.76,3929.17,35.7103,-114.105,-105.183,8328.68,1464.66,2409.65,-25.5806,23.08,-17.6732
4.1645,4070.43,1250.56,9009.29,-8.46632,-74.0509,-1.52601,2305.72,693.308,7830.52,45.1586,298.344,-215.029,-196.005,9687.82,-2327.77,-10.2712,-40.4319,-46.7464,2580.11,-6725.63,-890.743,-108.268,164.323,-217.123,2285.63,8711.69,-2758.73,-2.92126,-47.1218,-49.7069,6186.69,9461.03,3935.5,34.3372,-115.62,-104.974,8359.88,1449.2,2409.6,-25.6483,23.0804,-17.582
4.165,4087.45,1219.82,9012.06,-8.44158,-74.217,-1.74275,2326.34,691.306,7868.52,46.4523,298.57,-215.374,-208.385,9679.88,-2322.1,-10.2847,-40.4388,-46.8367,2566.42,-6759.09,-886.459,-108.522,165.069,-218.117,2257.43,8721.04,-2732.55,-2.62533,-46.4765,-49.7249,6200.21,9467.52,3953.31,32.673,-117.492,-104.791,8396.48,1416.99,2406.0,-25.7163,23.104,-17.7128
4.1655,4104.46,1189.07,9014.83,-8.41684,-74.383,-1.95949,2346.96,689.304,7906.52,47.7461,298.796,-215.719,-220.765,9671.94,-2316.42,-10.2981,-40.4456,-46.9271,2552.73,-6792.55,-882.176,-108.776,165.815,-219.111,2229.24,8730.38,-2706.38,-2.32941,-45.8313,-49.7429,6213.72,9474.0,3971.12,31.0087,-119.364,-104.608,8433.08,1384.79,2402.41,-25.7843,23.1277,-17.8436
4.166,4121.47,1158.33,9017.61,-8.3921,-74.5491,-2.17623,2367.59,687.302,7944.52,49.0398,299.021,-216.064,-233.145,9664.0,-2310.75,-10.3115,-40.4525,-47.0174,2539.03,-6826.01,-877.892,-109.03,166.561,-220.104,2201.05,8739.73,-2680.21,-2.03349,-45.1861,-49.7609,6227.24,9480.49,3988.93,29.3445,-121.236,-104.425,8469.67,1352.58,2398.81,-25.8523,23.1513,-17.9744
4.1665,4138.49,1127.59,9020.38,-8.36735,-74.7151,-2.39297,2388.21,685.299,7982.53,50.3336,299.247,-216.409,-245.524,9656.06,-2305.07,-10.3249,-40.4593,-47.1077,2525.34,-6859.47,-873.609,-109.284,167.307,-221.098,2172.86,8749.07,-2654.04,-1.73756,-44.5408,-49.7789,6240.76,9486.98,4006.74,27.6802,-123.108,-104.242,8506.27,1320.37,2395.22,-25.9203,23.1749,-18.1052
4.167,4155.5,1096.85,9023.15,-8.34261,-74.8811,-2.60971,2408.84,683.297,8020.53,51.6273,299.473,-216.754,-257.904,9648.12,-2299.39,-10.3383,-40.4662,-47.1981,2511.65,-6892.93,-869.325,-109.538,168.053,-222.092,2144.67,8758.42,-2627.86,-1.44164,-43.8956,-49.797,6254.28,9493.46,4024.55,26.016,-124.98,-104.058,8542.87,1288.17,2391.62,-25.9883,23.1986,-18.2361
4.1675,4172.52,1066.11,9025.92,-8.31787,-75.0472,-2.82645,2429.46,681.295,8058.53,52.9211,299.698,-217.099,-270.284,9640.18,-2293.72,-10.3517,-40.473,-47.2884,2497.95,-6926.39,-865.042,-109.792,168.799,-223.086,2116.48,8767.76,-2601.69,-1.14571,-43.2503,-49.815,6267.8,9499.95,4042.36,24.3517,-126.852,-103.875,8579.46,1255.96,2388.02,-26.0564,23.2222,-18.3669
4.168,4189.53,1035.37,9028.7,-8.29312,-75.2132,-3.04319,2450.08,679.293,8096.53,54.2149,299.924,-217.444,-282.664,9632.24,-2288.04,-10.3651,-40.4799,-47.3787,2484.26,-6959.85,-860.758,-110.045,169.545,-224.08,2088.29,8777.1,-2575.52,-0.84979,-42.6051,-49.833,6281.32,9506.44,4060.17,22.6875,-128.724,-103.692,8616.06,1223.75,2384.43,-26.1244,23.2459,-18.4977
4.1685,4206.54,1004.63,9031.47,-8.26838,-75.3793,-3.25993,2470.71,677.29,8134.53,55.5086,300.15,-217.789,-295.044,9624.29,-2282.37,-10.3785,-40.4867,-47.4691,2470.57,-6993.31,-856.474,-110.299,170.291,-225.074,2060.1,8786.45,-2549.35,-0.553866,-41.9598,-49.851,6294.83,9512.92,4077.98,21.0232,-130.596,-103.509,8652.66,1191.54,2380.83,-26.1924,23.2695,-18.6285
4.169,4221.97,980.301,9029.42,-8.25543,-75.5439,-3.48134,2492.07,673.361,8176.52,56.7166,300.337,-218.099,-305.618,9619.26,-2280.77,-10.3951,-40.5185,-47.5639,2457.63,-7026.43,-854.448,-110.581,170.997,-226.07,2029.21,8794.28,-2523.45,-0.278228,-41.3705,-49.8571,6307.39,9516.66,4098.82,19.2771,-132.553,-103.342,8679.75,1164.39,2376.08,-26.1791,23.2814,-18.784
4.1695,4231.84,978.393,9010.46,-8.28374,-75.7034,-3.71911,2516.0,662.688,8232.48,57.6243,300.388,-218.287,-309.868,9624.39,-2293.47,-10.4229,-40.6376,-47.6743,2447.33,-7058.33,-860.32,-110.959,171.565,-227.073,1988.88,8796.83,-2498.54,-0.073592,-40.9768,-49.8215,6316.56,9510.76,4130.23,17.2445,-134.806,-103.23,8673.57,1154.91,2367.3,-25.8814,23.2522,-19.0259
4.17,4241.7,976.486,8991.51,-8.31206,-75.8629,-3.95687,2539.93,652.015,8288.43,58.5321,300.439,-218.474,-314.118,9629.51,-2306.16,-10.4507,-40.7567,-47.7848,2437.02,-7090.23,-866.193,-111.337,172.133,-228.077,1948.55,8799.38,-2473.63,0.131044,-40.583,-49.7858,6325.74,9504.86,4161.64,15.2119,-137.06,-103.119,8667.39,1145.43,2358.52,-25.5837,23.223,-19.2679
4.1705,4251.57,974.578,8972.56,-8.34037,-76.0225,-4.19464,2563.86,641.341,8344.38,59.4398,300.49,-218.662,-318.369,9634.64,-2318.85,-10.4785,-40.8758,-47.8953,2426.72,-7122.13,-872.066,-111.716,172.701,-229.08,1908.22,8801.93,-2448.72,0.33568,-40.1893,-49.7502,6334.92,9498.96,4193.05,13.1793,-139.313,-103.008,8661.22,1135.95,2349.74,-25.286,23.1938,-19.5098
4.171,4261.43,972.67,8953.61,-8.36869,-76.182,-4.43241,2587.8,630.668,8400.33,60.3475,300.542,-218.849,-322.619,9639.77,-2331.54,-10.5063,-40.9948,-48.0057,2416.41,-7154.03,-877.938,-112.094,173.269,-230.084,1867.88,8804.48,-2423.81,0.540316,-39.7956,-49.7146,6344.1,9493.05,4224.46,11.1468,-141.566,-102.897,8655.04,1126.47,2340.96,-24.9883,23.1646,-19.7517
4.1715,4271.3,970.762,8934.66,-8.397,-76.3415,-4.67017,2611.73,619.995,8456.28,61.2553,300.593,-219.037,-326.87,9644.9,-2344.23,-10.5341,-41.1139,-48.1162,2406.11,-7185.93,-883.811,-112.472,173.837,-231.087,1827.55,8807.03,-2398.91,0.744952,-39.4019,-49.6789,6353.27,9487.15,4255.87,9.11418,-143.82,-102.785,8648.87,1117.0,2332.18,-24.6906,23.1354,-19.9936
4.172,4281.16,968.855,8915.71,-8.42532,-76.5011,-4.90794,2635.66,609.322,8512.24,62.163,300.644,-219.224,-331.12,9650.03,-2356.92,-10.5619,-41.233,-48.2267,2395.8,-7217.83,-889.684,-112.85,174.405,-232.09,1787.22,8809.58,-2374.0,0.949588,-39.0082,-49.6433,6362.45,9481.25,4287.28,7.0816,-146.073,-102.674,8642.69,1107.52,2323.4,-24.3929,23.1062,-20.2355
4.1725,4291.03,966.947,8896.76,-8.45363,-76.6606,-5.1457,2659.59,598.648,8568.19,63.0708,300.695,-219.412,-335.37,9655.15,-2369.61,-10.5897,-41.3521,-48.3371,2385.5,-7249.73,-895.557,-113.229,174.973,-233.094,1746.89,8812.13,-2349.09,1.15422,-38.6145,-49.6076,6371.63,9475.35,4318.69,5.04902,-148.326,-102.563,8636.51,1098.04,2314.62,-24.0952,23.077,-20.4775
4.173,4300.89,965.039,8877.81,-8.48195,-76.8201,-5.38347,2683.52,587.975,8624.14,63.9785,300.746,-219.599,-339.621,9660.28,-2382.3,-10.6175,-41.4711,-48.4476,2375.2,-7281.64,-901.429,-113.607,175.541,-234.097,1706.56,8814.67,-2324.18,1.35886,-38.2208,-49.572,6380.8,9469.45,4350.1,3.01643,-150.58,-102.451,8630.34,1088.56,2305.84,-23.7974,23.0478,-20.7194
4.1735,4306.71,961.983,8868.0,-8.53748,-76.9787,-5.60035,2704.25,579.158,8675.99,64.685,300.779,-219.787,-345.422,9666.67,-2394.1,-10.6445,-41.569,-48.5536,2360.81,-7309.52,-905.563,-113.987,176.12,-235.122,1662.89,8819.66,-2300.76,1.55213,-37.9062,-49.5271,6385.97,9453.37,4379.27,0.97159,-152.913,-102.408,8641.03,1081.22,2294.39,-23.5755,23.0125,-20.9405
4.174,4304.43,956.629,8876.45,-8.64747,-77.1354,-5.77547,2718.54,574.052,8719.62,64.9892,300.775,-219.976,-354.324,9675.56,-2404.11,-10.67,-41.6246,-48.6508,2338.24,-7329.38,-906.218,-114.369,176.722,-236.187,1612.54,8829.5,-2280.34,1.72265,-37.7499,-49.4638,6383.12,9416.92,4403.96,-1.09778,-155.407,-102.501,8685.48,1078.16,2277.59,-23.5049,22.965,-21.1199
4.1745,4302.15,951.276,8884.91,-8.75745,-77.2921,-5.9506,2732.84,568.946,8763.25,65.2933,300.771,-220.164,-363.226,9684.46,-2414.11,-10.6954,-41.6802,-48.748,2315.68,-7349.23,-906.874,-114.751,177.323,-237.253,1562.2,8839.34,-2259.91,1.89317,-37.5936,-49.4005,6380.28,9380.47,4428.64,-3.16715,-157.9,-102.593,8729.92,1075.1,2260.79,-23.4344,22.9175,-21.2993
4.175,4299.87,945.923,8893.37,-8.86743,-77.4487,-6.12572,2747.14,563.841,8806.89,65.5974,300.768,-220.352,-372.128,9693.36,-2424.12,-10.7209,-41.7358,-48.8451,2293.11,-7369.09,-907.529,-115.134,177.924,-238.319,1511.85,8849.19,-2239.49,2.0637,-37.4372,-49.3372,6377.43,9344.03,4453.33,-5.23652,-160.393,-102.686,8774.36,1072.05,2243.99,-23.3639,22.8699,-21.4787
4.1755,4297.6,940.569,8901.83,-8.97742,-77.6054,-6.30084,2761.44,558.735,8850.52,65.9016,300.764,-220.541,-381.03,9702.25,-2434.13,-10.7464,-41.7914,-48.9423,2270.55,-7388.94,-908.184,-115.516,178.526,-239.385,1461.51,8859.03,-2219.06,2.23422,-37.2809,-49.2739,6374.58,9307.58,4478.02,-7.30589,-162.887,-102.778,8818.81,1068.99,2227.19,-23.2934,22.8224,-21.6581
4.176,4295.32,935.216,8910.28,-9.0874,-77.7621,-6.47596,2775.74,553.629,8894.16,66.2057,300.76,-220.729,-389.932,9711.15,-2444.14,-10.7719,-41.8469,-49.0395,2247.98,-7408.79,-908.84,-115.898,179.127,-240.451,1411.16,8868.88,-2198.63,2.40475,-37.1245,-49.2105,6371.73,9271.13,4502.71,-9.37526,-165.38,-102.871,8863.25,1065.93,2210.39,-23.2228,22.7749,-21.8375
4.1765,4293.04,929.863,8918.74,-9.19738,-77.9188,-6.65109,2790.04,548.523,8937.79,66.5098,300.756,-220.917,-398.835,9720.05,-2454.15,-10.7973,-41.9025,-49.1366,2225.42,-7428.65,-909.495,-116.281,179.729,-241.517,1360.81,8878.72,-2178.21,2.57527,-36.9682,-49.1472,6368.88,9234.68,4527.39,-11.4446,-167.873,-102.963,8907.69,1062.87,2193.59,-23.1523,22.7274,-22.0169
4.177,4290.76,924.509,8927.2,-9.30737,-78.0754,-6.82621,2804.34,543.418,8981.42,66.814,300.752,-221.106,-407.737,9728.94,-2464.16,-10.8228,-41.9581,-49.2338,2202.85,-7448.5,-910.151,-116.663,180.33,-242.582,1310.47,8888.56,-2157.78,2.7458,-36.8119,-49.0839,6366.03,9198.23,4552.08,-13.514,-170.367,-103.056,8952.14,1059.81,2176.79,-23.0818,22.6799,-22.1963
4.1775,4288.48,919.156,8935.65,-9.41735,-78.2321,-7.00133,2818.64,538.312,9025.06,67.1181,300.748,-221.294,-416.639,9737.84,-2474.17,-10.8483,-42.0136,-49.331,2180.29,-7468.36,-910.806,-117.046,180.932,-243.648,1260.12,8898.41,-2137.36,2.91632,-36.6555,-49.0206,6363.18,9161.79,4576.77,-15.5834,-172.86,-103.148,8996.58,1056.75,2159.99,-23.0113,22.6324,-22.3757
4.178,4290.41,914.426,8935.17,-9.45865,-78.3741,-7.18809,2834.51,543.765,9077.46,67.2622,300.687,-221.479,-422.34,9741.03,-2483.96,-10.8877,-42.0716,-49.4044,2153.8,-7505.81,-907.978,-117.406,181.578,-244.666,1209.62,8910.87,-2115.9,3.06267,-36.5615,-48.929,6359.64,9115.99,4593.42,-17.5298,-175.435,-103.281,9024.07,1054.29,2144.72,-23.0369,22.5786,-22.5064
4.1785,4297.61,910.476,8923.51,-9.4141,-78.4976,-7.38938,2852.34,562.415,9140.82,67.2062,300.553,-221.66,-424.039,9737.09,-2493.49,-10.9446,-42.1325,-49.4482,2122.41,-7565.24,-900.796,-117.738,182.282,-245.623,1158.93,8926.61,-2093.16,3.17879,-36.5452,-48.8021,6355.23,9058.53,4600.03,-19.3227,-178.111,-103.463,9030.36,1052.59,2131.36,-23.1828,22.517,-22.5763
4.179,4304.8,906.525,8911.85,-9.36955,-78.6212,-7.59067,2870.17,581.066,9204.19,67.1502,300.419,-221.841,-425.739,9733.15,-2503.01,-11.0016,-42.1935,-49.4921,2091.01,-7624.68,-893.615,-118.069,182.985,-246.58,1108.24,8942.34,-2070.41,3.29492,-36.5289,-48.6752,6350.83,9001.06,4606.63,-21.1155,-180.787,-103.644,9036.65,1050.88,2118.0,-23.3287,22.4555,-22.6461
4.1795,4312.0,902.575,8900.19,-9.325,-78.7448,-7.79196,2888.0,599.716,9267.55,67.0942,300.286,-222.023,-427.438,9729.2,-2512.54,-11.0585,-42.2544,-49.5359,2059.62,-7684.11,-886.433,-118.401,183.688,-247.537,1057.55,8958.08,-2047.66,3.41104,-36.5126,-48.5483,6346.42,8943.59,4613.24,-22.9083,-183.463,-103.826,9042.95,1049.17,2104.64,-23.4745,22.3939,-22.7159
4.18,4319.19,898.624,8888.53,-9.28044,-78.8683,-7.99326,2905.84,618.367,9330.92,67.0383,300.152,-222.204,-429.138,9725.26,-2522.06,-11.1154,-42.3153,-49.5797,2028.23,-7743.55,-879.251,-118.733,184.391,-248.494,1006.86,8973.82,-2024.92,3.52717,-36.4964,-48.4214,6342.01,8886.12,4619.84,-24.7011,-186.139,-104.008,9049.24,1047.47,2091.28,-23.6204,22.3324,-22.7857
4.1805,4326.38,894.674,8876.86,-9.23589,-78.9919,-8.19455,2923.67,637.017,9394.28,66.9823,300.019,-222.385,-430.837,9721.32,-2531.58,-11.1723,-42.3763,-49.6235,1996.83,-7802.99,-872.07,-119.065,185.095,-249.452,956.164,8989.55,-2002.17,3.6433,-36.4801,-48.2945,6337.6,8828.65,4626.45,-26.4939,-188.816,-104.19,9055.53,1045.76,2077.92,-23.7663,22.2708,-22.8555
4.181,4333.58,890.723,8865.2,-9.19134,-79.1155,-8.39584,2941.5,655.668,9457.65,66.9263,299.885,-222.566,-432.536,9717.38,-2541.11,-11.2292,-42.4372,-49.6673,1965.44,-7862.42,-864.888,-119.397,185.798,-250.409,905.473,9005.29,-1979.43,3.75942,-36.4638,-48.1676,6333.19,8771.18,4633.06,-28.2867,-191.492,-104.372,9061.83,1044.05,2064.56,-23.9122,22.2093,-22.9253
4.1815,4340.77,886.773,8853.54,-9.14679,-79.239,-8.59714,2959.33,674.318,9521.01,66.8703,299.752,-222.747,-434.236,9713.44,-2550.63,-11.2862,-42.4981,-49.7111,1934.05,-7921.86,-857.706,-119.729,186.501,-251.366,854.781,9021.03,-1956.68,3.87555,-36.4476,-48.0407,6328.79,8713.71,4639.66,-30.0796,-194.168,-104.553,9068.12,1042.35,2051.2,-24.058,22.1477,-22.9951
4.182,4347.97,882.822,8841.88,-9.10224,-79.3626,-8.79843,2977.17,692.969,9584.37,66.8144,299.618,-222.928,-435.935,9709.49,-2560.16,-11.3431,-42.559,-49.755,1902.66,-7981.3,-850.525,-120.061,187.205,-252.323,804.089,9036.76,-1933.94,3.99167,-36.4313,-47.9138,6324.38,8656.25,4646.27,-31.8724,-196.844,-104.735,9074.41,1040.64,2037.84,-24.2039,22.0862,-23.0649
4.1825,4347.68,881.534,8834.98,-9.11275,-79.4871,-9.035,3005.34,692.749,9626.64,66.8478,299.519,-223.058,-435.786,9705.67,-2556.75,-11.4074,-42.6305,-49.822,1881.96,-8037.85,-841.732,-120.353,187.833,-253.169,756.608,9057.58,-1917.39,4.07453,-36.5098,-47.7807,6326.0,8593.15,4647.31,-33.5085,-199.623,-104.955,9078.74,1038.98,2027.5,-24.1862,22.0424,-23.1015
4.183,4341.4,882.375,8831.88,-9.16731,-79.6124,-9.2998,3041.79,677.433,9652.03,66.9528,299.446,-223.147,-434.158,9701.96,-2543.01,-11.4778,-42.7104,-49.9077,1869.81,-8092.09,-831.651,-120.613,188.4,-253.927,711.694,9082.45,-1905.82,4.13078,-36.664,-47.6425,6332.44,8525.55,4643.88,-35.0192,-202.484,-105.205,9081.49,1037.34,2019.57,-24.0376,22.0127,-23.1115
4.1835,4335.13,883.217,8828.78,-9.22187,-79.7377,-9.56459,3078.24,662.117,9677.43,67.0577,299.374,-223.236,-432.53,9698.23,-2529.26,-11.5481,-42.7902,-49.9934,1857.66,-8146.33,-821.57,-120.873,188.968,-254.684,666.781,9107.33,-1894.24,4.18703,-36.8183,-47.5043,6338.89,8457.96,4640.46,-36.53,-205.344,-105.455,9084.25,1035.71,2011.65,-23.889,21.983,-23.1215
4.184,4328.86,884.058,8825.69,-9.27643,-79.863,-9.82939,3114.7,646.801,9702.82,67.1627,299.302,-223.325,-430.902,9694.51,-2515.51,-11.6184,-42.8701,-50.0791,1845.52,-8200.58,-811.489,-121.133,189.536,-255.441,621.868,9132.2,-1882.66,4.24328,-36.9725,-47.3661,6345.33,8390.36,4637.04,-38.0407,-208.205,-105.705,9087.0,1034.07,2003.72,-23.7404,21.9533,-23.1315
4.1845,4322.58,884.9,8822.59,-9.33099,-79.9882,-10.0942,3151.15,631.486,9728.21,67.2677,299.229,-223.415,-429.273,9690.79,-2501.77,-11.6887,-42.9499,-50.1647,1833.37,-8254.82,-801.408,-121.393,190.103,-256.199,576.955,9157.07,-1871.09,4.29952,-37.1268,-47.228,6351.78,8322.76,4633.62,-39.5514,-211.066,-105.954,9089.75,1032.44,1995.8,-23.5918,21.9236,-23.1415
4.185,4316.31,885.741,8819.49,-9.38556,-80.1135,-10.359,3187.6,616.17,9753.6,67.3726,299.157,-223.504,-427.645,9687.07,-2488.02,-11.7591,-43.0298,-50.2504,1821.22,-8309.06,-791.327,-121.653,190.671,-256.956,532.042,9181.95,-1859.51,4.35577,-37.281,-47.0898,6358.22,8255.16,4630.2,-41.0622,-213.927,-106.204,9092.51,1030.81,1987.87,-23.4432,21.894,-23.1515
4.1855,4310.04,886.583,8816.39,-9.44012,-80.2388,-10.6238,3224.05,600.854,9778.99,67.4776,299.085,-223.593,-426.017,9683.35,-2474.28,-11.8294,-43.1096,-50.3361,1809.08,-8363.3,-781.246,-121.912,191.239,-257.713,487.128,9206.82,-1847.93,4.41202,-37.4353,-46.9516,6364.67,8187.57,4626.78,-42.5729,-216.788,-106.454,9095.26,1029.17,1979.94,-23.2946,21.8643,-23.1615
4.186,4303.76,887.425,8813.3,-9.49468,-80.3641,-10.8886,3260.5,585.538,9804.38,67.5826,299.013,-223.682,-424.389,9679.63,-2460.53,-11.8997,-43.1895,-50.4218,1796.93,-8417.55,-771.165,-122.172,191.806,-258.471,442.215,9231.7,-1836.35,4.46827,-37.5895,-46.8134,6371.11,8119.97,4623.36,-44.0836,-219.649,-106.704,9098.01,1027.54,1972.02,-23.146,21.8346,-23.1715
4.1865,4297.49,888.266,8810.2,-9.54924,-80.4893,-11.1534,3296.95,570.222,9829.77,67.6875,298.94,-223.771,-422.761,9675.91,-2446.78,-11.97,-43.2694,-50.5074,1784.78,-8471.79,-761.084,-122.432,192.374,-259.228,397.302,9256.57,-1824.78,4.52451,-37.7438,-46.6753,6377.56,8052.37,4619.94,-45.5944,-222.509,-106.954,9100.77,1025.9,1964.09,-22.9974,21.8049,-23.1815
4.187,4298.49,894.237,8808.04,-9.56185,-80.6834,-11.3845,3339.47,519.435,9852.85,67.8983,298.966,-223.826,-422.381,9675.01,-2437.7,-11.9835,-43.3404,-50.5386,1767.54,-8531.07,-738.336,-122.554,192.931,-259.999,351.031,9278.08,-1820.9,4.56484,-37.9592,-46.4711,6384.13,7981.07,4611.63,-46.948,-225.318,-107.386,9096.56,1005.53,1955.33,-22.9342,21.7367,-23.2957
4.1875,4303.13,902.771,8806.34,-9.55348,-80.9119,-11.5987,3385.02,450.912,9874.76,68.162,299.04,-223.863,-422.624,9675.52,-2430.96,-11.9686,-43.4071,-50.5424,1747.75,-8592.87,-709.254,-122.606,193.482,-260.776,304.082,9297.9,-1820.87,4.5972,-38.2051,-46.2339,6390.77,7907.93,4600.88,-48.2232,-228.101,-107.909,9088.87,975.781,1946.14,-22.9135,21.6493,-23.4618
4.188,4307.77,911.306,8804.65,-9.54512,-81.1404,-11.8129,3430.57,382.389,9896.68,68.4257,299.114,-223.901,-422.868,9676.03,-2424.21,-11.9537,-43.4737,-50.5462,1727.96,-8654.67,-680.173,-122.658,194.033,-261.553,257.132,9317.73,-1820.84,4.62957,-38.451,-45.9968,6397.41,7834.78,4590.12,-49.4983,-230.884,-108.433,9081.18,946.034,1936.95,-22.8929,21.5618,-23.628
4.1885,4312.41,919.841,8802.95,-9.53675,-81.3688,-12.0272,3476.13,313.866,9918.59,68.6894,299.188,-223.938,-423.111,9676.53,-2417.46,-11.9387,-43.5404,-50.5501,1708.17,-8716.46,-651.091,-122.71,194.585,-262.33,210.183,9337.55,-1820.81,4.66193,-38.697,-45.7596,6404.05,7761.63,4579.36,-50.7735,-233.667,-108.956,9073.49,916.287,1927.76,-22.8723,21.4743,-23.7941
4.189,4317.05,928.376,8801.26,-9.52838,-81.5973,-12.2414,3521.68,245.343,9940.51,68.9531,299.262,-223.976,-423.355,9677.04,-2410.71,-11.9238,-43.607,-50.5539,1688.39,-8778.26,-622.009,-122.762,195.136,-263.107,163.234,9357.38,-1820.78,4.6943,-38.9429,-45.5224,6410.69,7688.48,4568.6,-52.0486,-236.45,-109.479,9065.8,886.539,1918.58,-22.8516,21.3868,-23.9603
4.1895,4321.69,936.911,8799.56,-9.52001,-81.8258,-12.4556,3567.23,176.82,9962.43,69.2168,299.336,-224.014,-423.598,9677.55,-2403.97,-11.9089,-43.6737,-50.5578,1668.6,-8840.06,-592.927,-122.814,195.687,-263.884,116.284,9377.2,-1820.74,4.72666,-39.1888,-45.2853,6417.33,7615.33,4557.85,-53.3238,-239.233,-110.002,9058.12,856.792,1909.39,-22.831,21.2994,-24.1265
4.19,4326.33,945.446,8797.87,-9.51165,-82.0542,-12.6699,3612.78,108.297,9984.34,69.4805,299.41,-224.051,-423.842,9678.06,-2397.22,-11.8939,-43.7403,-50.5616,1648.81,-8901.86,-563.846,-122.866,196.239,-264.661,69.3349,9397.03,-1820.71,4.75903,-39.4348,-45.0481,6423.96,7542.19,4547.09,-54.5989,-242.016,-110.526,9050.43,827.045,1900.2,-22.8104,21.2119,-24.2926
4.1905,4330.98,953.981,8796.17,-9.50328,-82.2827,-12.8841,3658.34,39.7744,10006.3,69.7442,299.484,-224.089,-424.085,9678.57,-2390.47,-11.879,-43.807,-50.5655,1629.02,-8963.65,-534.764,-122.918,196.79,-265.438,22.3855,9416.85,-1820.68,4.79139,-39.6807,-44.8109,6430.6,7469.04,4536.33,-55.874,-244.799,-111.049,9042.74,797.298,1891.02,-22.7898,21.1244,-24.4588
4.191,4335.62,962.516,8794.48,-9.49491,-82.5112,-13.0984,3703.89,-28.7486,10028.2,70.0079,299.558,-224.126,-424.329,9679.07,-2383.73,-11.8641,-43.8736,-50.5693,1609.23,-9025.45,-505.682,-122.97,197.341,-266.215,-24.5638,9436.68,-1820.65,4.82375,-39.9266,-44.5738,6437.24,7395.89,4525.58,-57.1492,-247.582,-111.572,9035.05,767.55,1881.83,-22.7691,21.0369,-24.625
4.1915,4335.8,971.837,8792.2,-9.5207,-82.6205,-13.3085,3755.94,-85.6876,10087.2,70.3582,299.595,-223.938,-424.457,9673.81,-2373.71,-11.8868,-43.9765,-50.618,1580.43,-9108.58,-502.516,-122.953,197.737,-267.04,-59.2997,9448.43,-1823.64,4.83157,-40.1521,-44.3346,6448.68,7320.88,4476.65,-58.1525,-249.825,-112.276,9051.15,753.995,1876.27,-22.6911,20.9056,-24.682
4.192,4334.7,981.382,8789.75,-9.55623,-82.6958,-13.5174,3809.85,-139.317,10156.8,70.7333,299.621,-223.684,-424.553,9666.9,-2362.76,-11.9203,-44.0897,-50.6795,1549.06,-9197.81,-506.755,-122.916,198.087,-267.877,-90.546,9457.87,-1827.49,4.83237,-40.3716,-44.0948,6461.49,7245.35,4416.82,-59.0781,-251.913,-113.031,9074.05,745.065,1871.75,-22.5967,20.7617,-24.7079
4.1925,4333.61,990.927,8787.31,-9.59177,-82.7711,-13.7264,3863.76,-192.946,10226.4,71.1083,299.647,-223.431,-424.648,9659.98,-2351.8,-11.9538,-44.2029,-50.7411,1517.68,-9287.04,-510.994,-122.879,198.438,-268.715,-121.792,9467.31,-1831.35,4.83317,-40.5911,-43.855,6474.3,7169.82,4357.0,-60.0037,-254.001,-113.786,9096.95,736.136,1867.23,-22.5023,20.6177,-24.7338
4.193,4332.51,1000.47,8784.86,-9.62731,-82.8464,-13.9353,3917.68,-246.576,10296.0,71.4833,299.673,-223.178,-424.744,9653.07,-2340.85,-11.9874,-44.3161,-50.8026,1486.31,-9376.27,-515.233,-122.842,198.789,-269.553,-153.039,9476.76,-1835.2,4.83397,-40.8107,-43.6153,6487.11,7094.29,4297.17,-60.9293,-256.09,-114.541,9119.85,727.206,1862.71,-22.4079,20.4738,-24.7597
4.1935,4331.42,1010.02,8782.41,-9.66285,-82.9217,-14.1443,3971.59,-300.205,10365.6,71.8583,299.699,-222.924,-424.839,9646.16,-2329.9,-12.0209,-44.4294,-50.8641,1454.94,-9465.49,-519.472,-122.805,199.14,-270.39,-184.285,9486.2,-1839.05,4.83477,-41.0302,-43.3755,6499.92,7018.75,4237.34,-61.855,-258.178,-115.296,9142.75,718.277,1858.19,-22.3135,20.3299,-24.7856
4.194,4330.33,1019.56,8779.97,-9.69839,-82.997,-14.3532,4025.5,-353.835,10435.2,72.2334,299.725,-222.671,-424.935,9639.25,-2318.95,-12.0544,-44.5426,-50.9256,1423.56,-9554.72,-523.711,-122.769,199.491,-271.228,-215.531,9495.64,-1842.9,4.83557,-41.2498,-43.1358,6512.73,6943.22,4177.51,-62.7806,-260.266,-116.051,9165.64,709.347,1853.67,-22.2191,20.186,-24.8115
4.1945,4329.23,1029.11,8777.52,-9.73393,-83.0723,-14.5622,4079.41,-407.464,10504.8,72.6084,299.751,-222.418,-425.03,9632.33,-2308.0,-12.0879,-44.6558,-50.9871,1392.19,-9643.95,-527.95,-122.732,199.841,-272.066,-246.777,9505.08,-1846.75,4.83637,-41.4693,-42.896,6525.54,6867.69,4117.68,-63.7062,-262.355,-116.806,9188.54,700.418,1849.15,-22.1247,20.0421,-24.8374
4.195,4328.14,1038.65,8775.07,-9.76947,-83.1476,-14.7711,4133.32,-461.093,10574.4,72.9834,299.778,-222.165,-425.126,9625.42,-2297.05,-12.1214,-44.769,-51.0486,1360.82,-9733.17,-532.189,-122.695,200.192,-272.903,-278.024,9514.53,-1850.6,4.83717,-41.6889,-42.6562,6538.35,6792.15,4057.85,-64.6318,-264.443,-117.561,9211.44,691.489,1844.63,-22.0303,19.8982,-24.8633
4.1955,4327.04,1048.2,8772.63,-9.80501,-83.2229,-14.98,4187.23,-514.723,10644.0,73.3585,299.804,-221.911,-425.221,9618.51,-2286.09,-12.1549,-44.8822,-51.1102,1329.44,-9822.4,-536.428,-122.658,200.543,-273.741,-309.27,9523.97,-1854.45,4.83798,-41.9084,-42.4165,6551.16,6716.62,3998.02,-65.5575,-266.531,-118.316,9234.34,682.559,1840.11,-21.9359,19.7542,-24.8892
4.196,4330.64,1049.11,8766.61,-9.85091,-83.3735,-15.1853,4228.49,-557.397,10714.3,73.7388,299.874,-221.529,-439.001,9618.15,-2264.5,-12.1925,-44.9989,-51.1895,1306.22,-9901.31,-533.522,-122.562,200.736,-274.619,-322.26,9528.03,-1862.06,4.72683,-42.0524,-42.2832,6555.69,6620.66,3866.94,-65.903,-267.336,-119.294,9224.1,697.974,1851.83,-22.2251,19.6147,-24.8804
4.1965,4334.82,1048.95,8760.14,-9.8981,-83.5334,-15.3901,4268.17,-598.701,10784.6,74.1197,299.95,-221.131,-454.492,9618.61,-2241.58,-12.2306,-45.1159,-51.271,1284.02,-9978.93,-529.723,-122.458,200.908,-275.501,-332.969,9531.42,-1870.13,4.60168,-42.1869,-42.1632,6559.18,6522.15,3726.95,-66.176,-267.979,-120.299,9209.72,716.433,1865.58,-22.5623,19.4757,-24.8673
4.197,4339.0,1048.79,8753.67,-9.9453,-83.6934,-15.5949,4307.85,-640.006,10855.0,74.5007,300.026,-220.733,-469.982,9619.07,-2218.65,-12.2686,-45.233,-51.3525,1261.82,-10056.6,-525.924,-122.354,201.081,-276.384,-343.677,9534.82,-1878.2,4.47654,-42.3214,-42.0432,6562.67,6423.64,3586.97,-66.449,-268.623,-121.305,9195.34,734.891,1879.33,-22.8994,19.3368,-24.8542
4.1975,4343.18,1048.63,8747.2,-9.99249,-83.8533,-15.7997,4347.53,-681.311,10925.4,74.8816,300.102,-220.335,-485.473,9619.53,-2195.73,-12.3067,-45.35,-51.434,1239.62,-10134.2,-522.125,-122.25,201.254,-277.267,-354.385,9538.21,-1886.28,4.3514,-42.456,-41.9232,6566.16,6325.13,3446.98,-66.722,-269.267,-122.311,9180.97,753.35,1893.08,-23.2366,19.1978,-24.8411
4.198,4347.36,1048.46,8740.73,-10.0397,-84.0133,-16.0045,4387.21,-722.616,10995.8,75.2626,300.178,-219.937,-500.963,9619.99,-2172.8,-12.3448,-45.4671,-51.5156,1217.42,-10211.8,-518.326,-122.146,201.426,-278.15,-365.094,9541.6,-1894.35,4.22626,-42.5905,-41.8032,6569.65,6226.62,3306.99,-66.9949,-269.911,-123.316,9166.59,771.808,1906.83,-23.5738,19.0588,-24.828
4.1985,4351.54,1048.3,8734.26,-10.0869,-84.1733,-16.2093,4426.89,-763.92,11066.2,75.6436,300.254,-219.538,-516.453,9620.45,-2149.88,-12.3828,-45.5841,-51.5971,1195.22,-10289.4,-514.527,-122.042,201.599,-279.033,-375.802,9544.99,-1902.42,4.10111,-42.725,-41.6831,6573.15,6128.12,3167.0,-67.2679,-270.555,-124.322,9152.21,790.267,1920.58,-23.911,18.9199,-24.8148
4.199,4355.72,1048.14,8727.79,-10.1341,-84.3332,-16.4141,4466.57,-805.225,11136.6,76.0245,300.329,-219.14,-531.944,9620.91,-2126.95,-12.4209,-45.7012,-51.6786,1173.02,-10367.0,-510.728,-121.938,201.772,-279.916,-386.511,9548.38,-1910.5,3.97597,-42.8595,-41.5631,6576.64,6029.61,3027.02,-67.5409,-271.199,-125.328,9137.83,808.725,1934.33,-24.2481,18.7809,-24.8017
4.1995,4359.9,1047.97,8721.32,-10.1813,-84.4932,-16.6189,4506.25,-846.53,11207.0,76.4055,300.405,-218.742,-547.434,9621.37,-2104.03,-12.459,-45.8182,-51.7601,1150.82,-10444.7,-506.929,-121.835,201.944,-280.798,-397.219,9551.77,-1918.57,3.85083,-42.994,-41.4431,6580.13,5931.1,2887.03,-67.8139,-271.843,-126.333,9123.45,827.183,1948.08,-24.5853,18.6419,-24.7886
4.2,4364.08,1047.81,8714.85,-10.2285,-84.6532,-16.8237,4545.93,-887.834,11277.4,76.7864,300.481,-218.344,-562.925,9621.83,-2081.1,-12.497,-45.9353,-51.8416,1128.62,-10522.3,-503.13,-121.731,202.117,-281.681,-407.927,9555.16,-1926.64,3.72569,-43.1286,-41.3231,6583.62,5832.59,2747.04,-68.0869,-272.487,-127.339,9109.07,845.642,1961.83,-24.9225,18.5029,-24.7755
4.2005,4378.79,1070.27,8696.28,-10.3037,-84.7651,-16.9644,4613.42,-931.395,11292.8,77.5362,300.689,-217.882,-586.762,9622.98,-2065.51,-12.4649,-46.0271,-51.9341,1092.23,-10568.8,-518.548,-121.346,201.992,-282.631,-418.961,9552.55,-1929.92,3.60242,-43.1944,-41.2037,6584.96,5744.71,2537.28,-67.2806,-270.974,-128.292,9116.97,829.161,1939.91,-25.0156,18.371,-24.7067
4.201,4393.49,1092.73,8677.71,-10.3789,-84.877,-17.1052,4680.91,-974.955,11308.3,78.2859,300.897,-217.419,-610.6,9624.12,-2049.91,-12.4328,-46.119,-52.0266,1055.84,-10615.4,-533.966,-120.962,201.868,-283.58,-429.994,9549.95,-1933.19,3.47916,-43.2603,-41.0844,6586.3,5656.84,2327.52,-66.4742,-269.461,-129.245,9124.88,812.681,1917.99,-25.1087,18.239,-24.6379
4.2015,4408.2,1115.2,8659.14,-10.4541,-84.9889,-17.2459,4748.39,-1018.52,11323.8,79.0356,301.104,-216.957,-634.438,9625.26,-2034.32,-12.4006,-46.2108,-52.1191,1019.44,-10661.9,-549.385,-120.577,201.743,-284.529,-441.028,9547.34,-1936.47,3.3559,-43.3261,-40.965,6587.65,5568.97,2117.76,-65.6679,-267.949,-130.198,9132.79,796.2,1896.07,-25.2019,18.1071,-24.5692
4.202,4422.91,1137.66,8640.57,-10.5294,-85.1008,-17.3866,4815.88,-1062.08,11339.2,79.7853,301.312,-216.495,-658.275,9626.41,-2018.72,-12.3685,-46.3027,-52.2116,983.049,-10708.5,-564.803,-120.193,201.619,-285.479,-452.061,9544.73,-1939.75,3.23263,-43.392,-40.8456,6588.99,5481.09,1908.0,-64.8615,-266.436,-131.151,9140.69,779.719,1874.14,-25.295,17.9751,-24.5004
4.2025,4437.62,1160.12,8622.01,-10.6046,-85.2127,-17.5273,4883.37,-1105.64,11354.7,80.5351,301.52,-216.033,-682.113,9627.55,-2003.13,-12.3363,-46.3945,-52.3041,946.656,-10755.0,-580.221,-119.808,201.494,-286.428,-463.095,9542.12,-1943.02,3.10937,-43.4578,-40.7262,6590.33,5393.22,1698.24,-64.0551,-264.923,-132.104,9148.6,763.239,1852.22,-25.3881,17.8432,-24.4316
4.203,4452.32,1182.58,8603.44,-10.6798,-85.3246,-17.6681,4950.86,-1149.2,11370.2,81.2848,301.727,-215.57,-705.95,9628.69,-1987.53,-12.3042,-46.4864,-52.3966,910.262,-10801.6,-595.639,-119.424,201.369,-287.378,-474.128,9539.51,-1946.3,2.9861,-43.5237,-40.6068,6591.67,5305.34,1488.48,-63.2488,-263.41,-133.057,9156.51,746.758,1830.3,-25.4812,17.7112,-24.3628
4.2035,4467.03,1205.05,8584.87,-10.7551,-85.4365,-17.8088,5018.35,-1192.76,11385.7,82.0345,301.935,-215.108,-729.788,9629.84,-1971.94,-12.272,-46.5783,-52.489,873.869,-10848.2,-611.057,-119.04,201.245,-288.327,-485.162,9536.91,-1949.57,2.86284,-43.5895,-40.4874,6593.01,5217.47,1278.72,-62.4424,-261.897,-134.01,9164.41,730.278,1808.38,-25.5743,17.5792,-24.294
4.204,4481.74,1227.51,8566.3,-10.8303,-85.5484,-17.9495,5085.84,-1236.32,11401.1,82.7843,302.143,-214.646,-753.625,9630.98,-1956.35,-12.2399,-46.6701,-52.5815,837.475,-10894.7,-626.476,-118.655,201.12,-289.276,-496.195,9534.3,-1952.85,2.73958,-43.6554,-40.368,6594.35,5129.6,1068.96,-61.636,-260.385,-134.963,9172.32,713.797,1786.46,-25.6675,17.4473,-24.2252
4.2045,4496.78,1249.19,8548.64,-10.8995,-85.656,-18.0901,5151.98,-1280.03,11418.3,83.5242,302.362,-214.181,-776.691,9633.02,-1939.71,-12.2098,-46.7621,-52.6728,797.492,-10942.4,-640.135,-118.281,200.964,-290.219,-505.763,9531.97,-1955.97,2.62272,-43.7129,-40.2533,6598.33,5046.94,859.772,-60.7216,-258.676,-135.847,9181.66,698.129,1768.61,-25.764,17.3008,-24.1516
4.205,4514.47,1264.64,8538.2,-10.9208,-85.7291,-18.2299,5207.38,-1324.9,11449.3,84.1861,302.671,-213.693,-793.582,9642.21,-1914.77,-12.1961,-46.8546,-52.754,728.795,-10999.4,-639.73,-117.991,200.559,-291.107,-503.601,9531.87,-1957.89,2.55716,-43.7038,-40.1755,6623.43,5006.0,655.146,-58.9428,-255.404,-136.184,9202.45,688.967,1783.31,-25.8883,17.0379,-24.0389
4.2055,4532.16,1280.08,8527.77,-10.9421,-85.8022,-18.3696,5262.78,-1369.78,11480.3,84.848,302.98,-213.205,-810.474,9651.4,-1889.82,-12.1823,-46.9472,-52.8353,660.098,-11056.4,-639.325,-117.701,200.155,-291.995,-501.439,9531.77,-1959.8,2.4916,-43.6946,-40.0977,6648.52,4965.06,450.521,-57.164,-252.132,-136.52,9223.24,679.805,1798.0,-26.0125,16.775,-23.9262
4.206,4549.86,1295.52,8517.34,-10.9634,-85.8753,-18.5093,5318.18,-1414.66,11511.3,85.5098,303.289,-212.717,-827.366,9660.59,-1864.88,-12.1686,-47.0398,-52.9166,591.401,-11113.4,-638.92,-117.411,199.75,-292.883,-499.278,9531.66,-1961.72,2.42604,-43.6855,-40.02,6673.61,4924.12,245.895,-55.3852,-248.859,-136.857,9244.03,670.642,1812.7,-26.1368,16.5121,-23.8135
4.2065,4567.55,1310.96,8506.91,-10.9848,-85.9484,-18.649,5373.57,-1459.53,11542.3,86.1717,303.598,-212.229,-844.257,9669.79,-1839.94,-12.1548,-47.1324,-52.9979,522.704,-11170.4,-638.514,-117.121,199.345,-293.771,-497.116,9531.56,-1963.63,2.36047,-43.6763,-39.9422,6698.7,4883.18,41.2692,-53.6064,-245.587,-137.194,9264.82,661.48,1827.4,-26.2611,16.2492,-23.7009
4.207,4585.24,1326.41,8496.48,-11.0061,-86.0214,-18.7888,5428.97,-1504.41,11573.3,86.8335,303.907,-211.741,-861.149,9678.98,-1814.99,-12.1411,-47.225,-53.0791,454.007,-11227.4,-638.109,-116.831,198.94,-294.659,-494.954,9531.46,-1965.55,2.29491,-43.6672,-39.8644,6723.8,4842.24,-163.356,-51.8276,-242.314,-137.53,9285.61,652.318,1842.1,-26.3853,15.9863,-23.5882
4.2075,4602.94,1341.85,8486.05,-11.0274,-86.0945,-18.9285,5484.37,-1549.29,11604.3,87.4954,304.217,-211.253,-878.04,9688.17,-1790.05,-12.1273,-47.3176,-53.1604,385.31,-11284.4,-637.704,-116.54,198.535,-295.547,-492.793,9531.36,-1967.46,2.22935,-43.658,-39.7867,6748.89,4801.3,-367.982,-50.0487,-239.042,-137.867,9306.4,643.155,1856.8,-26.5096,15.7234,-23.4755
4.208,4620.63,1357.29,8475.62,-11.0487,-86.1676,-19.0682,5539.77,-1594.16,11635.3,88.1573,304.526,-210.765,-894.932,9697.37,-1765.11,-12.1136,-47.4102,-53.2417,316.613,-11341.4,-637.298,-116.25,198.131,-296.435,-490.631,9531.26,-1969.38,2.16379,-43.6489,-39.7089,6773.98,4760.37,-572.608,-48.2699,-235.77,-138.203,9327.19,633.993,1871.5,-26.6338,15.4605,-23.3628
4.2085,4638.32,1372.73,8465.18,-11.07,-86.2407,-19.208,5595.17,-1639.04,11666.3,88.8191,304.835,-210.277,-911.823,9706.56,-1740.16,-12.0999,-47.5028,-53.3229,247.915,-11398.4,-636.893,-115.96,197.726,-297.323,-488.469,9531.16,-1971.29,2.09823,-43.6398,-39.6311,6799.07,4719.43,-777.234,-46.4911,-232.497,-138.54,9347.98,624.83,1886.2,-26.7581,15.1976,-23.2501
4.209,4652.7,1386.48,8454.3,-11.0863,-86.3093,-19.3366,5651.15,-1687.89,11703.8,89.4936,305.115,-209.806,-926.982,9714.7,-1713.61,-12.1069,-47.5985,-53.3966,178.821,-11455.7,-633.963,-115.63,197.253,-298.224,-484.312,9530.54,-1972.66,2.02801,-43.608,-39.5676,6826.51,4687.48,-960.986,-44.6035,-229.071,-138.709,9359.58,617.861,1889.88,-26.8682,14.9522,-23.1057
4.2095,4655.46,1394.28,8441.82,-11.085,-86.3625,-19.4266,5709.19,-1750.64,11764.2,90.2122,305.292,-209.398,-936.078,9719.18,-1681.4,-12.1865,-47.7048,-53.4438,108.333,-11514.2,-622.198,-115.16,196.543,-299.17,-473.172,9528.1,-1972.12,1.94153,-43.4974,-39.5538,6862.17,4687.01,-1071.68,-42.3349,-225.108,-138.293,9339.01,618.57,1855.01,-26.9287,14.7681,-22.8499
4.21,4658.23,1402.08,8429.35,-11.0837,-86.4158,-19.5165,5767.22,-1813.4,11824.5,90.9308,305.469,-208.989,-945.173,9723.65,-1649.19,-12.2661,-47.8112,-53.491,37.8457,-11572.6,-610.432,-114.69,195.833,-300.117,-462.031,9525.67,-1971.58,1.85504,-43.3867,-39.54,6897.82,4686.54,-1182.38,-40.0664,-221.144,-137.877,9318.44,619.278,1820.13,-26.9892,14.584,-22.5941
4.2105,4661.0,1409.88,8416.88,-11.0824,-86.469,-19.6065,5825.26,-1876.15,11884.8,91.6494,305.646,-208.581,-954.268,9728.13,-1616.98,-12.3457,-47.9175,-53.5382,-32.6417,-11631.0,-598.666,-114.22,195.123,-301.064,-450.891,9523.23,-1971.03,1.76855,-43.276,-39.5262,6933.47,4686.07,-1293.08,-37.7978,-217.181,-137.461,9297.87,619.987,1785.26,-27.0497,14.3999,-22.3383
4.211,4663.76,1417.68,8404.4,-11.0811,-86.5222,-19.6964,5883.3,-1938.9,11945.2,92.3679,305.823,-208.172,-963.364,9732.61,-1584.77,-12.4254,-48.0239,-53.5854,-103.129,-11689.5,-586.9,-113.751,194.414,-302.011,-439.75,9520.8,-1970.49,1.68207,-43.1653,-39.5124,6969.13,4685.59,-1403.77,-35.5293,-213.217,-137.045,9277.31,620.695,1750.39,-27.1102,14.2158,-22.0825
4.2115,4666.53,1425.48,8391.93,-11.0798,-86.5754,-19.7864,5941.33,-2001.65,12005.5,93.0865,306.0,-207.764,-972.459,9737.08,-1552.56,-12.505,-48.1303,-53.6326,-173.617,-11747.9,-575.134,-113.281,193.704,-302.957,-428.61,9518.36,-1969.95,1.59558,-43.0546,-39.4986,7004.78,4685.12,-1514.47,-33.2607,-209.254,-136.629,9256.74,621.404,1715.52,-27.1708,14.0317,-21.8268
4.212,4669.29,1433.28,8379.45,-11.0786,-86.6286,-19.8764,5999.37,-2064.41,12065.8,93.8051,306.178,-207.355,-981.554,9741.56,-1520.35,-12.5846,-48.2366,-53.6798,-244.104,-11806.3,-563.369,-112.811,192.994,-303.904,-417.469,9515.93,-1969.41,1.50909,-42.9439,-39.4848,7040.44,4684.65,-1625.17,-30.9922,-205.29,-136.213,9236.17,622.112,1680.64,-27.2313,13.8476,-21.571
4.2125,4672.06,1441.08,8366.98,-11.0773,-86.6818,-19.9663,6057.4,-2127.16,12126.2,94.5237,306.355,-206.946,-990.65,9746.03,-1488.14,-12.6642,-48.343,-53.727,-314.591,-11864.8,-551.603,-112.341,192.284,-304.851,-406.329,9513.49,-1968.87,1.4226,-42.8332,-39.471,7076.09,4684.18,-1735.86,-28.7236,-201.327,-135.797,9215.6,622.821,1645.77,-27.2918,13.6635,-21.3152
4.213,4674.83,1448.88,8354.5,-11.076,-86.735,-20.0563,6115.44,-2189.91,12186.5,95.2423,306.532,-206.538,-999.745,9750.51,-1455.93,-12.7438,-48.4493,-53.7741,-385.079,-11923.2,-539.837,-111.871,191.574,-305.798,-395.188,9511.06,-1968.33,1.33612,-42.7225,-39.4572,7111.74,4683.71,-1846.56,-26.4551,-197.363,-135.381,9195.04,623.529,1610.9,-27.3523,13.4794,-21.0594
4.2135,4682.28,1458.41,8347.19,-11.0866,-86.7843,-20.1709,6172.32,-2254.72,12244.6,96.0331,306.712,-206.023,-1009.33,9751.91,-1426.05,-12.8227,-48.5689,-53.7952,-461.138,-11979.4,-526.444,-111.422,190.696,-306.716,-381.715,9504.62,-1969.17,1.2567,-42.578,-39.4388,7142.77,4690.4,-1938.35,-24.2278,-193.342,-134.802,9176.44,634.753,1584.07,-27.3863,13.3447,-20.9204
4.214,4699.12,1471.41,8350.22,-11.1211,-86.8259,-20.3347,6226.9,-2323.65,12298.1,96.9683,306.899,-205.296,-1019.91,9747.17,-1400.83,-12.9002,-48.7148,-53.7641,-548.341,-12031.2,-509.796,-111.013,189.482,-307.58,-363.578,9490.18,-1972.79,1.19142,-42.3659,-39.4115,7164.56,4711.41,-1992.32,-22.0832,-189.206,-133.896,9161.79,667.006,1573.32,-27.3674,13.3089,-21.015
4.2145,4715.95,1484.41,8353.24,-11.1556,-86.8675,-20.4985,6281.47,-2392.58,12351.5,97.9035,307.086,-204.568,-1030.48,9742.44,-1375.62,-12.9777,-48.8607,-53.733,-635.544,-12082.9,-493.148,-110.604,188.269,-308.443,-345.441,9475.74,-1976.4,1.12615,-42.1538,-39.3841,7186.34,4732.42,-2046.29,-19.9386,-185.07,-132.991,9147.13,699.26,1562.56,-27.3485,13.2731,-21.1096
4.215,4732.79,1497.42,8356.27,-11.19,-86.9092,-20.6623,6336.04,-2461.5,12405.0,98.8387,307.273,-203.841,-1041.06,9737.7,-1350.4,-13.0551,-49.0066,-53.702,-722.747,-12134.6,-476.5,-110.195,187.055,-309.306,-327.303,9461.3,-1980.01,1.06087,-41.9416,-39.3567,7208.13,4753.43,-2100.26,-17.7939,-180.934,-132.085,9132.48,731.513,1551.81,-27.3295,13.2372,-21.2042
4.2155,4749.62,1510.42,8359.29,-11.2245,-86.9508,-20.8262,6390.61,-2530.43,12458.5,99.7739,307.46,-203.113,-1051.63,9732.96,-1325.19,-13.1326,-49.1525,-53.6709,-809.95,-12186.4,-459.852,-109.786,185.842,-310.169,-309.166,9446.85,-1983.63,0.995594,-41.7295,-39.3293,7229.91,4774.44,-2154.23,-15.6493,-176.797,-131.179,9117.83,763.767,1541.06,-27.3106,13.2014,-21.2988
4.216,4766.46,1523.42,8362.32,-11.259,-86.9924,-20.99,6445.19,-2599.35,12512.0,100.709,307.647,-202.386,-1062.21,9728.22,-1299.97,-13.21,-49.2985,-53.6398,-897.152,-12238.1,-443.204,-109.377,184.628,-311.032,-291.029,9432.41,-1987.24,0.930317,-41.5174,-39.302,7251.7,4795.46,-2208.2,-13.5047,-172.661,-130.273,9103.18,796.02,1530.31,-27.2917,13.1656,-21.3934
4.2165,4783.29,1536.42,8365.34,-11.2934,-87.034,-21.1538,6499.76,-2668.28,12565.5,101.644,307.834,-201.659,-1072.78,9723.49,-1274.76,-13.2875,-49.4444,-53.6087,-984.355,-12289.9,-426.556,-108.969,183.415,-311.895,-272.892,9417.97,-1990.86,0.865041,-41.3052,-39.2746,7273.48,4816.47,-2262.17,-11.36,-168.525,-129.368,9088.52,828.274,1519.56,-27.2728,13.1297,-21.488
4.217,4800.13,1549.42,8368.37,-11.3279,-87.0756,-21.3176,6554.33,-2737.21,12619.0,102.579,308.021,-200.931,-1083.36,9718.75,-1249.54,-13.3649,-49.5903,-53.5776,-1071.56,-12341.6,-409.908,-108.56,182.201,-312.758,-254.754,9403.53,-1994.47,0.799764,-41.0931,-39.2472,7295.27,4837.48,-2316.14,-9.21541,-164.389,-128.462,9073.87,860.527,1508.81,-27.2539,13.0939,-21.5826
4.2175,4816.96,1562.42,8371.39,-11.3624,-87.1173,-21.4815,6608.91,-2806.13,12672.5,103.515,308.209,-200.204,-1093.94,9714.01,-1224.32,-13.4424,-49.7362,-53.5465,-1158.76,-12393.3,-393.259,-108.151,180.988,-313.621,-236.617,9389.08,-1998.09,0.734488,-40.881,-39.2199,7317.06,4858.49,-2370.11,-7.07078,-160.253,-127.556,9059.22,892.781,1498.06,-27.2349,13.058,-21.6772
4.218,4818.88,1583.19,8362.95,-11.3401,-87.1566,-21.5749,6654.61,-2869.19,12713.1,104.566,308.373,-199.34,-1102.23,9712.55,-1206.9,-13.484,-49.8414,-53.5306,-1248.35,-12438.7,-370.28,-107.733,179.545,-314.48,-219.648,9373.97,-2003.82,0.66541,-40.6085,-39.2222,7332.06,4887.77,-2415.46,-5.24373,-156.026,-126.54,9045.09,918.823,1489.19,-27.3294,13.0066,-21.6494
4.2185,4802.16,1613.67,8340.16,-11.2468,-87.1931,-21.5802,6689.22,-2924.9,12737.7,105.761,308.509,-198.305,-1107.68,9715.18,-1199.21,-13.4809,-49.8957,-53.5338,-1340.91,-12476.2,-339.385,-107.305,177.817,-315.335,-204.138,9358.01,-2012.22,0.59158,-40.2606,-39.2616,7338.58,4927.38,-2450.05,-3.81366,-151.686,-125.384,9031.61,937.1,1482.68,-27.5657,12.9357,-21.4687
4.219,4785.44,1644.14,8317.37,-11.1536,-87.2295,-21.5856,6723.83,-2980.62,12762.3,106.957,308.645,-197.271,-1113.13,9717.81,-1191.53,-13.4777,-49.95,-53.5369,-1433.47,-12513.6,-308.491,-106.877,176.089,-316.189,-188.629,9342.04,-2020.61,0.51775,-39.9127,-39.3011,7345.1,4966.98,-2484.63,-2.38359,-147.345,-124.229,9018.13,955.378,1476.17,-27.802,12.8648,-21.2879
4.2195,4768.71,1674.62,8294.58,-11.0603,-87.266,-21.591,6758.45,-3036.34,12787.0,108.153,308.781,-196.236,-1118.57,9720.43,-1183.84,-13.4745,-50.0043,-53.54,-1526.03,-12551.1,-277.597,-106.449,174.361,-317.044,-173.119,9326.08,-2029.0,0.44392,-39.5648,-39.3405,7351.63,5006.59,-2519.21,-0.953525,-143.005,-123.074,9004.66,973.655,1469.65,-28.0382,12.7938,-21.1072
4.22,4751.99,1705.09,8271.79,-10.9671,-87.3025,-21.5963,6793.06,-3092.05,12811.6,109.349,308.917,-195.202,-1124.02,9723.06,-1176.16,-13.4714,-50.0586,-53.5432,-1618.59,-12588.6,-246.702,-106.02,172.633,-317.899,-157.61,9310.12,-2037.39,0.37009,-39.2168,-39.38,7358.15,5046.2,-2553.8,0.476543,-138.665,-121.918,8991.18,991.933,1463.14,-28.2745,12.7229,-20.9264
4.2205,4735.27,1735.57,8249.0,-10.8738,-87.3389,-21.6017,6827.67,-3147.77,12836.2,110.545,309.054,-194.167,-1129.47,9725.69,-1168.47,-13.4682,-50.1129,-53.5463,-1711.16,-12626.0,-215.808,-105.592,170.905,-318.753,-142.1,9294.16,-2045.78,0.296261,-38.8689,-39.4194,7364.67,5085.8,-2588.38,1.90661,-134.325,-120.763,8977.71,1010.21,1456.63,-28.5108,12.652,-20.7457
4.221,4718.55,1766.04,8226.22,-10.7806,-87.3754,-21.607,6862.28,-3203.49,12860.8,111.74,309.19,-193.133,-1134.92,9728.32,-1160.79,-13.4651,-50.1672,-53.5495,-1803.72,-12663.5,-184.914,-105.164,169.177,-319.608,-126.591,9278.2,-2054.17,0.222431,-38.521,-39.4588,7371.19,5125.41,-2622.96,3.33668,-129.984,-119.608,8964.23,1028.49,1450.12,-28.747,12.5811,-20.565
4.2215,4701.83,1796.52,8203.43,-10.6873,-87.4119,-21.6124,6896.9,-3259.2,12885.4,112.936,309.326,-192.098,-1140.36,9730.95,-1153.1,-13.4619,-50.2215,-53.5526,-1896.28,-12700.9,-154.019,-104.736,167.448,-320.463,-111.082,9262.24,-2062.57,0.148601,-38.1731,-39.4983,7377.72,5165.02,-2657.55,4.76675,-125.644,-118.452,8950.75,1046.77,1443.6,-28.9833,12.5102,-20.3842
4.222,4685.1,1827.0,8180.64,-10.5941,-87.4483,-21.6178,6931.51,-3314.92,12910.0,114.132,309.462,-191.064,-1145.81,9733.58,-1145.42,-13.4587,-50.2757,-53.5558,-1988.84,-12738.4,-123.125,-104.307,165.72,-321.317,-95.572,9246.28,-2070.96,0.0747711,-37.8252,-39.5377,7384.24,5204.62,-2692.13,6.19681,-121.304,-117.297,8937.28,1065.04,1437.09,-29.2196,12.4392,-20.2035
4.2225,4680.99,1846.62,8169.37,-10.5057,-87.4677,-21.593,6971.59,-3357.5,12930.0,115.454,309.573,-189.82,-1147.55,9734.44,-1132.17,-13.4751,-50.3014,-53.5541,-2080.56,-12781.9,-88.8005,-103.769,163.715,-322.04,-87.7176,9233.24,-2071.02,0.00257942,-37.4639,-39.5712,7382.81,5246.7,-2698.0,7.27868,-116.859,-116.068,8918.83,1067.79,1430.69,-29.3688,12.3501,-20.1053
4.223,4686.97,1857.55,8167.32,-10.4213,-87.4734,-21.5442,7016.04,-3389.57,12946.1,116.878,309.664,-188.41,-1146.31,9733.89,-1114.46,-13.5071,-50.3042,-53.5485,-2171.6,-12830.3,-51.7319,-103.143,161.487,-322.656,-85.9871,9222.53,-2064.41,-0.0683017,-37.0918,-39.5999,7375.03,5290.74,-2680.91,8.08199,-112.331,-114.779,8896.41,1058.12,1424.37,-29.4484,12.2463,-20.0733
4.2235,4692.94,1868.49,8165.26,-10.3368,-87.4792,-21.4953,7060.5,-3421.64,12962.3,118.301,309.755,-186.999,-1145.08,9733.35,-1096.76,-13.539,-50.307,-53.543,-2262.64,-12878.7,-14.6632,-102.516,159.26,-323.272,-84.2566,9211.82,-2057.8,-0.139183,-36.7198,-39.6286,7367.25,5334.79,-2663.81,8.88529,-107.803,-113.49,8873.99,1048.44,1418.05,-29.5281,12.1426,-20.0412
4.224,4698.92,1879.43,8163.21,-10.2524,-87.4849,-21.4465,7104.95,-3453.72,12978.5,119.725,309.845,-185.589,-1143.85,9732.8,-1079.05,-13.571,-50.3098,-53.5374,-2353.69,-12927.2,22.4054,-101.89,157.033,-323.889,-82.526,9201.11,-2051.2,-0.210064,-36.3477,-39.6574,7359.46,5378.83,-2646.72,9.68859,-103.275,-112.202,8851.57,1038.77,1411.73,-29.6077,12.0389,-20.0092
4.2245,4704.9,1890.36,8161.16,-10.1679,-87.4906,-21.3977,7149.41,-3485.79,12994.7,121.149,309.936,-184.178,-1142.61,9732.25,-1061.35,-13.603,-50.3126,-53.5319,-2444.73,-12975.6,59.4741,-101.264,154.805,-324.505,-80.7955,9190.41,-2044.59,-0.280945,-35.9757,-39.6861,7351.68,5422.88,-2629.62,10.4919,-98.7469,-110.913,8829.15,1029.1,1405.41,-29.6873,11.9351,-19.9771
4.225,4710.87,1901.3,8159.1,-10.0835,-87.4963,-21.3488,7193.86,-3517.86,13010.9,122.572,310.027,-182.767,-1141.38,9731.71,-1043.64,-13.635,-50.3154,-53.5263,-2535.77,-13024.0,96.5428,-100.637,152.578,-325.122,-79.065,9179.7,-2037.98,-0.351826,-35.6036,-39.7148,7343.89,5466.92,-2612.53,11.2952,-94.2188,-109.624,8806.73,1019.42,1399.09,-29.7669,11.8314,-19.9451
4.2255,4716.85,1912.24,8157.05,-9.99903,-87.5021,-21.3,7238.32,-3549.93,13027.0,123.996,310.118,-181.357,-1140.15,9731.16,-1025.94,-13.6669,-50.3182,-53.5208,-2626.81,-13072.4,133.611,-100.011,150.351,-325.738,-77.3345,9168.99,-2031.37,-0.422707,-35.2315,-39.7435,7336.11,5510.97,-2595.43,12.0985,-89.6908,-108.335,8784.31,1009.75,1392.78,-29.8465,11.7277,-19.913
4.226,4722.82,1923.18,8155.0,-9.91458,-87.5078,-21.2511,7282.78,-3582.0,13043.2,125.419,310.209,-179.946,-1138.91,9730.61,-1008.23,-13.6989,-50.321,-53.5152,-2717.85,-13120.8,170.68,-99.3848,148.123,-326.355,-75.604,9158.28,-2024.77,-0.493589,-34.8595,-39.7722,7328.32,5555.02,-2578.34,12.9018,-85.1627,-107.047,8761.89,1000.07,1386.46,-29.9262,11.6239,-19.881
4.2265,4728.8,1934.11,8152.94,-9.83013,-87.5135,-21.2023,7327.23,-3614.08,13059.4,126.843,310.299,-178.536,-1137.68,9730.06,-990.529,-13.7309,-50.3238,-53.5097,-2808.89,-13169.2,207.749,-98.7584,145.896,-326.971,-73.8735,9147.57,-2018.16,-0.56447,-34.4874,-39.8009,7320.54,5599.06,-2561.24,13.7051,-80.6347,-105.758,8739.47,990.399,1380.14,-30.0058,11.5202,-19.8489
4.227,4736.46,1929.05,8139.25,-9.7329,-87.4979,-21.1821,7387.4,-3633.14,13071.1,128.152,310.502,-177.005,-1134.76,9725.27,-963.109,-13.7925,-50.34,-53.5175,-2889.14,-13221.7,259.047,-98.129,143.253,-327.499,-72.686,9141.63,-2012.54,-0.598907,-34.1496,-39.8629,7310.04,5618.73,-2494.58,14.0287,-76.3397,-104.563,8716.35,994.728,1369.12,-29.9735,11.4196,-19.842
4.2275,4744.96,1915.98,8119.75,-9.62929,-87.4715,-21.1761,7455.42,-3645.7,13080.5,129.404,310.76,-175.414,-1131.0,9718.35,-930.83,-13.8689,-50.3629,-53.532,-2963.98,-13276.3,317.461,-97.4982,140.403,-327.982,-71.77,9138.06,-2007.42,-0.615124,-33.8289,-39.9414,7298.17,5626.2,-2403.13,14.1123,-72.1613,-103.415,8692.88,1006.06,1355.74,-29.8854,11.3206,-19.8477
4.228,4753.46,1902.91,8100.24,-9.52567,-87.4452,-21.1702,7523.44,-3658.26,13089.9,130.656,311.018,-173.823,-1127.23,9711.43,-898.551,-13.9454,-50.3858,-53.5465,-3038.82,-13330.9,375.874,-96.8673,137.552,-328.465,-70.854,9134.5,-2002.3,-0.63134,-33.5082,-40.0199,7286.31,5633.68,-2311.67,14.196,-67.9829,-102.267,8669.42,1017.39,1342.36,-29.7972,11.2216,-19.8534
4.2285,4761.96,1889.84,8080.74,-9.42206,-87.4189,-21.1643,7591.47,-3670.82,13099.4,131.908,311.276,-172.233,-1123.47,9704.51,-866.273,-14.0218,-50.4087,-53.5609,-3113.66,-13385.4,434.288,-96.2364,134.702,-328.948,-69.9381,9130.94,-1997.17,-0.647556,-33.1875,-40.0984,7274.45,5641.15,-2220.22,14.2796,-63.8045,-101.119,8645.95,1028.72,1328.99,-29.709,11.1226,-19.8591
4.229,4770.46,1876.77,8061.23,-9.31844,-87.3926,-21.1583,7659.49,-3683.38,13108.8,133.16,311.535,-170.642,-1119.71,9697.59,-833.994,-14.0982,-50.4316,-53.5754,-3188.51,-13440.0,492.702,-95.6055,131.851,-329.431,-69.0221,9127.38,-1992.05,-0.663772,-32.8669,-40.1769,7262.58,5648.62,-2128.77,14.3633,-59.6261,-99.971,8622.49,1040.05,1315.61,-29.6208,11.0236,-19.8648
4.2295,4778.97,1863.7,8041.73,-9.21483,-87.3663,-21.1524,7727.51,-3695.94,13118.3,134.412,311.793,-169.051,-1115.95,9690.67,-801.715,-14.1747,-50.4545,-53.5899,-3263.35,-13494.6,551.115,-94.9746,129.001,-329.914,-68.1061,9123.81,-1986.93,-0.679988,-32.5462,-40.2554,7250.72,5656.1,-2037.32,14.4469,-55.4477,-98.823,8599.02,1051.38,1302.24,-29.5326,10.9247,-19.8705
4.23,4787.47,1850.63,8022.22,-9.11121,-87.34,-21.1465,7795.54,-3708.51,13127.7,135.664,312.051,-167.46,-1112.18,9683.75,-769.436,-14.2511,-50.4774,-53.6044,-3338.19,-13549.1,609.529,-94.3437,126.15,-330.397,-67.1901,9120.25,-1981.8,-0.696204,-32.2255,-40.3339,7238.86,5663.57,-1945.86,14.5306,-51.2693,-97.675,8575.56,1062.71,1288.86,-29.4444,10.8257,-19.8762
4.2305,4795.97,1837.56,8002.72,-9.0076,-87.3137,-21.1405,7863.56,-3721.07,13137.1,136.916,312.309,-165.87,-1108.42,9676.83,-737.158,-14.3276,-50.5003,-53.6189,-3413.04,-13603.7,667.942,-93.7129,123.3,-330.88,-66.2741,9116.69,-1976.68,-0.71242,-31.9048,-40.4124,7226.99,5671.05,-1854.41,14.6142,-47.0909,-96.527,8552.09,1074.05,1275.48,-29.3563,10.7267,-19.8819
4.231,4804.47,1824.49,7983.21,-8.90398,-87.2873,-21.1346,7931.58,-3733.63,13146.6,138.168,312.567,-164.279,-1104.66,9669.91,-704.879,-14.404,-50.5232,-53.6334,-3487.88,-13658.3,726.356,-93.082,120.449,-331.363,-65.3582,9113.12,-1971.56,-0.728637,-31.5841,-40.4909,7215.13,5678.52,-1762.96,14.6979,-42.9125,-95.379,8528.63,1085.38,1262.11,-29.2681,10.6277,-19.8875
4.2315,4814.35,1831.49,7981.52,-8.83618,-87.2723,-21.0936,8010.73,-3673.89,13168.2,139.058,312.875,-162.674,-1100.85,9663.73,-681.691,-14.491,-50.4775,-53.6605,-3544.21,-13722.2,804.412,-92.6048,117.327,-331.813,-69.1548,9099.35,-1969.5,-0.75546,-31.3137,-40.6114,7197.12,5679.31,-1612.46,13.9346,-39.5586,-94.453,8509.63,1095.78,1235.24,-29.3742,10.5093,-19.7942
4.232,4824.62,1844.23,7984.91,-8.77862,-87.2605,-21.0426,8093.05,-3593.5,13193.2,139.844,313.196,-161.064,-1097.04,9657.76,-661.101,-14.5811,-50.4122,-53.6912,-3595.26,-13788.9,888.081,-92.1716,114.128,-332.253,-74.298,9082.66,-1968.32,-0.785314,-31.0578,-40.7439,7177.35,5678.19,-1445.09,12.9294,-36.4403,-93.5904,8491.92,1105.92,1204.52,-29.5359,10.3855,-19.6725
4.2325,4834.88,1856.97,7988.31,-8.72106,-87.2487,-20.9916,8175.37,-3513.11,13218.3,140.63,313.518,-159.455,-1093.22,9651.79,-640.51,-14.6712,-50.3469,-53.7219,-3646.3,-13855.6,971.749,-91.7384,110.928,-332.693,-79.4412,9065.96,-1967.13,-0.815168,-30.8018,-40.8764,7157.59,5677.06,-1277.72,11.9242,-33.322,-92.7279,8474.2,1116.05,1173.79,-29.6975,10.2616,-19.5508
4.233,4845.15,1869.71,7991.7,-8.66349,-87.2369,-20.9407,8257.69,-3432.72,13243.3,141.416,313.839,-157.846,-1089.4,9645.82,-619.92,-14.7613,-50.2815,-53.7526,-3697.34,-13922.2,1055.42,-91.3052,107.729,-333.133,-84.5843,9049.27,-1965.95,-0.845022,-30.5459,-41.0089,7137.82,5675.94,-1110.35,10.919,-30.2037,-91.8653,8456.48,1126.19,1143.07,-29.8592,10.1377,-19.4291
4.2335,4855.42,1882.45,7995.1,-8.60593,-87.2251,-20.8897,8340.01,-3352.32,13268.4,142.202,314.161,-156.236,-1085.59,9639.86,-599.329,-14.8514,-50.2162,-53.7833,-3748.39,-13988.9,1139.09,-90.872,104.529,-333.573,-89.7275,9032.58,-1964.77,-0.874876,-30.2899,-41.1414,7118.05,5674.81,-942.986,9.91374,-27.0853,-91.0028,8438.77,1136.33,1112.35,-30.0209,10.0138,-19.3074
4.234,4865.69,1895.18,7998.49,-8.54837,-87.2133,-20.8387,8422.33,-3271.93,13293.4,142.988,314.483,-154.627,-1081.77,9633.89,-578.739,-14.9414,-50.1509,-53.814,-3799.43,-14055.5,1222.76,-90.4388,101.33,-334.014,-94.8707,9015.89,-1963.58,-0.904731,-30.0339,-41.2739,7098.29,5673.69,-775.617,8.90851,-23.967,-90.1402,8421.05,1146.47,1081.62,-30.1825,9.88996,-19.1858
4.2345,4875.96,1907.92,8001.89,-8.4908,-87.2015,-20.7877,8504.65,-3191.54,13318.5,143.775,314.804,-153.018,-1077.96,9627.92,-558.149,-15.0315,-50.0856,-53.8447,-3850.47,-14122.2,1306.42,-90.0056,98.1305,-334.454,-100.014,8999.2,-1962.4,-0.934585,-29.778,-41.4064,7078.52,5672.56,-608.249,7.90329,-20.8487,-89.2776,8403.33,1156.6,1050.9,-30.3442,9.76608,-19.0641
4.235,4886.23,1920.66,8005.28,-8.43324,-87.1897,-20.7367,8586.97,-3111.15,13343.5,144.561,315.126,-151.408,-1074.14,9621.95,-537.558,-15.1216,-50.0203,-53.8754,-3901.52,-14188.9,1390.09,-89.5723,94.9311,-334.894,-105.157,8982.51,-1961.22,-0.964439,-29.522,-41.5389,7058.75,5671.44,-440.88,6.89806,-17.7304,-88.4151,8385.62,1166.74,1020.18,-30.5059,9.64221,-18.9424
4.2355,4896.5,1933.4,8008.68,-8.37567,-87.1779,-20.6857,8669.29,-3030.76,13368.6,145.347,315.447,-149.799,-1070.32,9615.98,-516.968,-15.2117,-49.9549,-53.9061,-3952.56,-14255.5,1473.76,-89.1391,91.7316,-335.334,-110.3,8965.81,-1960.04,-0.994293,-29.2661,-41.6713,7038.99,5670.32,-273.512,5.89283,-14.6121,-87.5525,8367.9,1176.88,989.454,-30.6675,9.51834,-18.8207
4.236,4900.93,1947.73,8007.02,-8.27235,-87.2007,-20.638,8786.91,-2867.57,13411.7,145.408,315.74,-148.083,-1073.25,9614.38,-507.839,-15.2584,-49.8457,-53.9185,-3992.08,-14314.7,1535.69,-88.8146,88.5461,-335.646,-128.414,8952.29,-1952.45,-1.00306,-29.0907,-41.775,7038.61,5668.96,-82.3606,4.14153,-12.8547,-87.0141,8338.52,1190.3,984.582,-31.0386,9.39668,-18.6034
4.2365,4904.63,1962.27,8004.74,-8.1633,-87.2278,-20.5908,8908.94,-2694.03,13457.1,145.378,316.028,-146.354,-1077.02,9613.33,-500.143,-15.2997,-49.731,-53.9286,-4030.15,-14372.9,1594.91,-88.5036,85.3624,-335.941,-148.149,8939.17,-1944.05,-1.00919,-28.9254,-41.875,7040.66,5667.57,111.764,2.29696,-11.2674,-86.5161,8307.69,1204.13,982.94,-31.4357,9.27529,-18.3742
4.237,4908.34,1976.8,8002.46,-8.05425,-87.2549,-20.5435,9030.97,-2520.5,13502.4,145.348,316.317,-144.625,-1080.79,9612.28,-492.447,-15.341,-49.6163,-53.9387,-4068.22,-14431.1,1654.13,-88.1926,82.1787,-336.236,-167.883,8926.05,-1935.66,-1.01532,-28.7601,-41.975,7042.71,5666.18,305.888,0.45239,-9.68016,-86.0182,8276.86,1217.95,981.299,-31.8329,9.15391,-18.145
4.2375,4912.04,1991.33,8000.17,-7.9452,-87.282,-20.4962,9153.0,-2346.96,13547.8,145.318,316.606,-142.896,-1084.57,9611.23,-484.75,-15.3824,-49.5016,-53.9488,-4106.3,-14489.4,1713.34,-87.8816,78.9949,-336.531,-187.618,8912.93,-1927.27,-1.02145,-28.5948,-42.075,7044.76,5664.79,500.012,-1.39218,-8.09289,-85.5203,8246.02,1231.78,979.658,-32.2301,9.03253,-17.9158
4.238,4915.75,2005.87,7997.89,-7.83615,-87.3091,-20.449,9275.03,-2173.42,13593.2,145.288,316.895,-141.166,-1088.34,9610.18,-477.054,-15.4237,-49.3869,-53.9589,-4144.37,-14547.6,1772.56,-87.5707,75.8112,-336.826,-207.353,8899.81,-1918.88,-1.02758,-28.4295,-42.175,7046.81,5663.4,694.136,-3.23675,-6.50561,-85.0224,8215.19,1245.61,978.017,-32.6273,8.91115,-17.6866
4.2385,4919.45,2020.4,7995.6,-7.7271,-87.3362,-20.4017,9397.06,-1999.89,13638.5,145.259,317.183,-139.437,-1092.11,9609.13,-469.358,-15.465,-49.2721,-53.969,-4182.44,-14605.8,1831.77,-87.2597,72.6275,-337.122,-227.088,8886.68,-1910.49,-1.03371,-28.2643,-42.275,7048.86,5662.01,888.261,-5.08131,-4.91833,-84.5244,8184.35,1259.44,976.376,-33.0245,8.78976,-17.4574
4.239,4923.15,2034.93,7993.32,-7.61805,-87.3633,-20.3544,9519.09,-1826.35,13683.9,145.229,317.472,-137.708,-1095.88,9608.08,-461.662,-15.5063,-49.1574,-53.9791,-4220.52,-14664.0,1890.99,-86.9487,69.4438,-337.417,-246.823,8873.56,-1902.1,-1.03984,-28.099,-42.375,7050.92,5660.62,1082.38,-6.92588,-3.33106,-84.0265,8153.52,1273.26,974.735,-33.4217,8.66838,-17.2281
4.2395,4926.86,2049.47,7991.04,-7.509,-87.3904,-20.3072,9641.13,-1652.81,13729.3,145.199,317.761,-135.979,-1099.65,9607.03,-453.966,-15.5476,-49.0427,-53.9892,-4258.59,-14722.3,1950.2,-86.6377,66.26,-337.712,-266.557,8860.44,-1893.71,-1.04596,-27.9337,-42.475,7052.97,5659.23,1276.51,-8.77045,-1.74378,-83.5286,8122.68,1287.09,973.094,-33.8188,8.547,-16.9989
4.24,4930.56,2064.0,7988.75,-7.39995,-87.4175,-20.2599,9763.16,-1479.28,13774.7,145.169,318.049,-134.25,-1103.42,9605.98,-446.269,-15.5889,-48.928,-53.9994,-4296.67,-14780.5,2009.42,-86.3268,63.0763,-338.007,-286.292,8847.32,-1885.32,-1.05209,-27.7684,-42.5751,7055.02,5657.84,1470.63,-10.615,-0.156506,-83.0306,8091.85,1300.92,971.452,-34.216,8.42562,-16.7697
4.2405,4919.75,2093.71,7992.25,-7.23641,-87.4348,-20.1648,9887.94,-1303.34,13838.8,144.17,318.083,-132.826,-1101.85,9596.54,-430.803,-15.5824,-48.7528,-54.0328,-4296.56,-14875.2,1997.23,-86.1618,60.3597,-338.206,-308.983,8850.15,-1875.66,-1.08665,-27.6976,-42.6719,7082.84,5633.58,1641.09,-12.6028,-0.091128,-82.915,8097.14,1312.77,959.561,-34.2308,8.18494,-16.7387
4.241,4908.93,2123.43,7995.76,-7.07287,-87.4521,-20.0697,10012.7,-1127.41,13903.0,143.17,318.117,-131.401,-1100.28,9587.11,-415.336,-15.5759,-48.5776,-54.0663,-4296.45,-14969.8,1985.05,-85.9969,57.6432,-338.404,-331.673,8852.99,-1866.01,-1.12121,-27.6269,-42.7688,7110.67,5609.33,1811.55,-14.5906,-0.0257498,-82.7994,8102.42,1324.62,947.669,-34.2455,7.94427,-16.7078
4.2415,4898.12,2153.14,7999.26,-6.90934,-87.4694,-19.9746,10137.5,-951.477,13967.2,142.171,318.151,-129.977,-1098.71,9577.68,-399.87,-15.5693,-48.4024,-54.0998,-4296.34,-15064.5,1972.86,-85.832,54.9266,-338.603,-354.363,8855.82,-1856.36,-1.15576,-27.5561,-42.8657,7138.49,5585.08,1982.01,-16.5783,0.0396284,-82.6838,8107.71,1336.47,935.777,-34.2602,7.7036,-16.6768
4.242,4887.31,2182.85,8002.76,-6.7458,-87.4867,-19.8795,10262.3,-775.543,14031.4,141.172,318.184,-128.553,-1097.14,9568.25,-384.404,-15.5628,-48.2273,-54.1332,-4296.23,-15159.2,1960.67,-85.667,52.2101,-338.801,-377.053,8858.66,-1846.7,-1.19032,-27.4853,-42.9626,7166.31,5560.83,2152.48,-18.5661,0.105007,-82.5682,8112.99,1348.32,923.885,-34.2749,7.46292,-16.6458
4.2425,4876.49,2212.56,8006.26,-6.58226,-87.504,-19.7844,10387.1,-599.61,14095.6,140.172,318.218,-127.129,-1095.57,9558.81,-368.937,-15.5563,-48.0521,-54.1667,-4296.12,-15253.9,1948.49,-85.5021,49.4935,-338.999,-399.744,8861.49,-1837.05,-1.22488,-27.4146,-43.0594,7194.14,5536.57,2322.94,-20.5539,0.170385,-82.4525,8118.28,1360.18,911.993,-34.2897,7.22225,-16.6148
4.243,4865.68,2242.28,8009.76,-6.41872,-87.5213,-19.6893,10511.9,-423.676,14159.8,139.173,318.252,-125.705,-1094.0,9549.38,-353.471,-15.5498,-47.8769,-54.2002,-4296.02,-15348.5,1936.3,-85.3372,46.777,-339.198,-422.434,8864.33,-1827.4,-1.25943,-27.3438,-43.1563,7221.96,5512.32,2493.4,-22.5416,0.235763,-82.3369,8123.56,1372.03,900.101,-34.3044,6.98158,-16.5839
4.2435,4854.87,2271.99,8013.26,-6.25518,-87.5386,-19.5942,10636.7,-247.743,14224.0,138.174,318.285,-124.28,-1092.43,9539.95,-338.004,-15.5432,-47.7017,-54.2336,-4295.91,-15443.2,1924.11,-85.1722,44.0604,-339.396,-445.124,8867.16,-1817.75,-1.29399,-27.273,-43.2532,7249.79,5488.07,2663.86,-24.5294,0.301141,-82.2213,8128.85,1383.88,888.21,-34.3191,6.74091,-16.5529
4.244,4844.05,2301.7,8016.76,-6.09164,-87.5559,-19.4991,10761.4,-71.8091,14288.2,137.174,318.319,-122.856,-1090.86,9530.51,-322.538,-15.5367,-47.5265,-54.2671,-4295.8,-15537.9,1911.92,-85.0073,41.3439,-339.595,-467.815,8870.0,-1808.09,-1.32855,-27.2022,-43.3501,7277.61,5463.82,2834.32,-26.5172,0.366519,-82.1057,8134.14,1395.73,876.318,-34.3339,6.50023,-16.5219
4.2445,4836.89,2328.68,8018.17,-5.93354,-87.5644,-19.399,10886.9,97.6034,14350.4,136.086,318.332,-121.494,-1091.47,9521.41,-307.623,-15.5345,-47.3551,-54.3052,-4293.94,-15632.9,1895.2,-84.8543,38.6863,-339.785,-490.934,8872.87,-1798.1,-1.36666,-27.1371,-43.4452,7304.04,5436.59,2997.7,-28.4696,0.353341,-82.0193,8138.94,1408.7,865.54,-34.3839,6.24816,-16.474
4.245,4858.91,2333.83,8002.76,-5.81891,-87.5017,-19.2588,11017.3,214.848,14397.2,134.291,318.181,-120.632,-1109.55,9514.92,-297.124,-15.5671,-47.2133,-54.3801,-4278.12,-15730.4,1842.21,-84.797,36.5004,-339.906,-517.485,8876.06,-1785.41,-1.43324,-27.1172,-43.5265,7319.31,5385.55,3104.46,-30.139,-0.288295,-82.1666,8139.89,1430.6,863.676,-34.7164,5.90492,-16.2904
4.2455,4880.94,2338.97,7987.35,-5.70428,-87.4391,-19.1186,11147.8,332.092,14444.1,132.496,318.029,-119.769,-1127.63,9508.43,-286.624,-15.5997,-47.0715,-54.455,-4262.29,-15827.8,1789.22,-84.7396,34.3145,-340.027,-544.036,8879.25,-1772.71,-1.49981,-27.0974,-43.6078,7334.57,5334.51,3211.22,-31.8084,-0.929931,-82.3139,8140.84,1452.5,861.811,-35.0489,5.56167,-16.1068
4.246,4902.96,2344.12,7971.94,-5.58966,-87.3764,-18.9785,11278.3,449.336,14490.9,130.701,317.877,-118.906,-1145.71,9501.94,-276.124,-15.6323,-46.9297,-54.53,-4246.46,-15925.3,1736.23,-84.6823,32.1286,-340.149,-570.588,8882.44,-1760.02,-1.56639,-27.0775,-43.6891,7349.84,5283.47,3317.98,-33.4778,-1.57157,-82.4613,8141.79,1474.4,859.946,-35.3814,5.21842,-15.9232
4.2465,4924.99,2349.27,7956.53,-5.47503,-87.3138,-18.8383,11408.7,566.58,14537.7,128.905,317.726,-118.044,-1163.79,9495.46,-265.625,-15.6649,-46.788,-54.6049,-4230.63,-16022.8,1683.24,-84.6249,29.9427,-340.27,-597.139,8885.63,-1747.32,-1.63296,-27.0576,-43.7704,7365.1,5232.43,3424.74,-35.1472,-2.2132,-82.6086,8142.74,1496.31,858.082,-35.7139,4.87517,-15.7396
4.247,4947.01,2354.41,7941.12,-5.3604,-87.2512,-18.6982,11539.2,683.825,14584.5,127.11,317.574,-117.181,-1181.87,9488.97,-255.125,-15.6975,-46.6462,-54.6798,-4214.8,-16120.3,1630.25,-84.5676,27.7568,-340.392,-623.69,8888.82,-1734.63,-1.69954,-27.0377,-43.8517,7380.37,5181.39,3531.5,-36.8165,-2.85484,-82.7559,8143.69,1518.21,856.218,-36.0464,4.53193,-15.5559
4.2475,4969.04,2359.56,7925.71,-5.24577,-87.1885,-18.558,11669.6,801.069,14631.3,125.315,317.422,-116.319,-1199.95,9482.48,-244.625,-15.7301,-46.5044,-54.7547,-4198.97,-16217.7,1577.26,-84.5102,25.5708,-340.513,-650.241,8892.01,-1721.93,-1.76612,-27.0178,-43.933,7395.63,5130.35,3638.27,-38.4859,-3.49647,-82.9033,8144.64,1540.11,854.353,-36.3789,4.18868,-15.3723
4.248,4991.06,2364.7,7910.3,-5.13115,-87.1259,-18.4179,11800.1,918.313,14678.1,123.52,317.271,-115.456,-1218.03,9475.99,-234.126,-15.7626,-46.3627,-54.8297,-4183.14,-16315.2,1524.27,-84.4529,23.3849,-340.635,-676.792,8895.2,-1709.24,-1.83269,-26.9979,-44.0143,7410.9,5079.32,3745.03,-40.1553,-4.13811,-83.0506,8145.59,1562.01,852.488,-36.7114,3.84543,-15.1887
4.2485,5013.09,2369.85,7894.89,-5.01652,-87.0632,-18.2777,11930.6,1035.56,14724.9,121.724,317.119,-114.593,-1236.11,9469.5,-223.626,-15.7952,-46.2209,-54.9046,-4167.31,-16412.7,1471.28,-84.3955,21.199,-340.756,-703.344,8898.39,-1696.54,-1.89927,-26.978,-44.0955,7426.16,5028.28,3851.79,-41.8247,-4.77975,-83.1979,8146.55,1583.92,850.624,-37.0439,3.50219,-15.0051
4.249,5028.62,2375.79,7881.24,-4.90793,-87.0086,-18.1246,12060.2,1148.94,14768.6,119.821,316.948,-113.782,-1252.91,9465.75,-212.466,-15.8396,-46.0819,-54.9662,-4151.43,-16508.5,1418.07,-84.2908,19.1166,-340.835,-728.099,8902.23,-1683.46,-1.96357,-26.9727,-44.1662,7442.88,4981.55,3936.6,-43.4642,-5.33329,-83.337,8142.91,1599.87,847.169,-37.3622,3.16209,-14.8267
4.2495,5021.41,2384.52,7873.71,-4.82048,-86.9818,-17.9261,12186.8,1248.79,14801.4,117.539,316.71,-113.148,-1265.26,9471.53,-198.994,-15.9252,-45.9524,-54.9811,-4135.38,-16598.3,1364.05,-84.0202,17.3965,-340.766,-746.569,8908.36,-1669.03,-2.01991,-27.0181,-44.1999,7464.71,4949.89,3944.57,-44.9991,-5.5785,-83.4473,8123.2,1594.98,838.146,-37.6303,2.83303,-14.6665
4.25,5014.21,2393.25,7866.17,-4.73302,-86.9549,-17.7276,12313.4,1348.64,14834.1,115.257,316.472,-112.515,-1277.6,9477.31,-185.523,-16.0107,-45.823,-54.996,-4119.33,-16688.1,1310.03,-83.7496,15.6764,-340.697,-765.039,8914.48,-1654.6,-2.07626,-27.0636,-44.2335,7486.53,4918.24,3952.55,-46.534,-5.82371,-83.5575,8103.49,1590.09,829.123,-37.8985,2.50397,-14.5063
4.2505,5007.0,2401.99,7858.64,-4.64557,-86.9281,-17.5291,12440.0,1448.49,14866.9,112.975,316.234,-111.881,-1289.94,9483.1,-172.051,-16.0963,-45.6936,-55.0109,-4103.28,-16777.9,1256.01,-83.4791,13.9563,-340.627,-783.51,8920.61,-1640.17,-2.1326,-27.109,-44.2671,7508.35,4886.59,3960.53,-48.0688,-6.06892,-83.6678,8083.78,1585.2,820.1,-38.1667,2.17491,-14.346
4.251,4999.8,2410.72,7851.11,-4.55811,-86.9013,-17.3306,12566.6,1548.35,14899.7,110.693,315.996,-111.247,-1302.29,9488.88,-158.58,-16.1818,-45.5641,-55.0259,-4087.22,-16867.7,1201.99,-83.2085,12.2362,-340.558,-801.98,8926.74,-1625.75,-2.18894,-27.1545,-44.3008,7530.17,4854.93,3968.51,-49.6037,-6.31413,-83.778,8064.08,1580.31,811.077,-38.4349,1.84584,-14.1858
4.2515,4992.59,2419.45,7843.58,-4.47066,-86.8745,-17.1321,12693.2,1648.2,14932.5,108.41,315.758,-110.614,-1314.63,9494.67,-145.108,-16.2674,-45.4347,-55.0408,-4071.17,-16957.6,1147.97,-82.9379,10.5161,-340.489,-820.45,8932.86,-1611.32,-2.24529,-27.1999,-44.3344,7551.99,4823.28,3976.49,-51.1386,-6.55934,-83.8882,8044.37,1575.42,802.054,-38.7031,1.51678,-14.0256
4.252,4985.39,2428.18,7836.05,-4.38321,-86.8477,-16.9336,12819.9,1748.05,14965.3,106.128,315.52,-109.98,-1326.97,9500.45,-131.636,-16.353,-45.3052,-55.0557,-4055.12,-17047.4,1093.96,-82.6673,8.79601,-340.42,-838.921,8938.99,-1596.89,-2.30163,-27.2453,-44.368,7573.81,4791.63,3984.47,-52.6735,-6.80455,-83.9985,8024.66,1570.53,793.031,-38.9713,1.18772,-13.8654
4.2525,4978.18,2436.91,7828.52,-4.29575,-86.8209,-16.7351,12946.5,1847.9,14998.0,103.846,315.282,-109.347,-1339.32,9506.23,-118.165,-16.4385,-45.1758,-55.0706,-4039.07,-17137.2,1039.94,-82.3967,7.07591,-340.35,-857.391,8945.12,-1582.46,-2.35797,-27.2908,-44.4016,7595.64,4759.97,3992.44,-54.2083,-7.04976,-84.1087,8004.95,1565.64,784.008,-39.2395,0.858657,-13.7051
4.253,4970.98,2445.64,7820.99,-4.2083,-86.794,-16.5365,13073.1,1947.75,15030.8,101.564,315.044,-108.713,-1351.66,9512.02,-104.693,-16.5241,-45.0464,-55.0855,-4023.02,-17227.0,985.919,-82.1261,5.35581,-340.281,-875.861,8951.24,-1568.03,-2.41432,-27.3362,-44.4353,7617.46,4728.32,4000.42,-55.7432,-7.29498,-84.219,7985.25,1560.75,774.985,-39.5077,0.529595,-13.5449
4.2535,4970.05,2450.15,7811.69,-4.10735,-86.7495,-16.3585,13197.0,2030.89,15055.8,99.2782,314.766,-108.15,-1358.39,9516.76,-91.0165,-16.6131,-44.9152,-55.0921,-4004.33,-17325.3,938.068,-81.8024,3.79355,-340.181,-893.672,8954.97,-1551.95,-2.45394,-27.4139,-44.4827,7627.73,4706.65,3987.73,-57.2786,-7.17864,-84.2669,7971.33,1563.06,764.053,-39.7685,0.164091,-13.364
4.254,4981.69,2446.23,7798.84,-3.97942,-86.6697,-16.2215,13315.7,2080.57,15065.0,96.9849,314.406,-107.729,-1353.89,9519.43,-76.9303,-16.709,-44.7805,-55.0821,-3980.35,-17440.6,902.551,-81.3725,2.54698,-340.02,-910.166,8953.92,-1532.57,-2.46011,-27.5559,-44.5578,7614.88,4704.94,3933.69,-58.8152,-6.33921,-84.19,7969.0,1579.76,749.303,-40.0147,-0.274299,-13.1415
4.2545,4993.33,2442.3,7785.99,-3.8515,-86.5898,-16.0845,13434.3,2130.26,15074.2,94.6915,314.046,-107.308,-1349.4,9522.11,-62.844,-16.8048,-44.6458,-55.072,-3956.37,-17555.8,867.034,-80.9426,1.30041,-339.859,-926.659,8952.85,-1513.19,-2.46629,-27.698,-44.6328,7602.04,4703.24,3879.65,-60.3517,-5.49978,-84.1132,7966.66,1596.46,734.554,-40.261,-0.712688,-12.919
4.255,5004.97,2438.37,7773.14,-3.72357,-86.5099,-15.9475,13552.9,2179.95,15083.4,92.3982,313.687,-106.887,-1344.9,9524.78,-48.7578,-16.9007,-44.5111,-55.0619,-3932.39,-17671.0,831.517,-80.5126,0.0538422,-339.698,-943.152,8951.79,-1493.82,-2.47247,-27.84,-44.7078,7589.19,4701.53,3825.61,-61.8882,-4.66034,-84.0363,7964.33,1613.16,719.804,-40.5072,-1.15108,-12.6966
4.2555,5016.6,2434.44,7760.29,-3.59564,-86.43,-15.8105,13671.5,2229.64,15092.6,90.1049,313.327,-106.466,-1340.41,9527.45,-34.6715,-16.9965,-44.3764,-55.0519,-3908.41,-17786.3,796.001,-80.0827,-1.19273,-339.537,-959.646,8950.73,-1474.44,-2.47864,-27.9821,-44.7829,7576.35,4699.82,3771.56,-63.4248,-3.82091,-83.9595,7961.99,1629.86,705.054,-40.7534,-1.58947,-12.4741
4.256,5028.24,2430.51,7747.44,-3.46772,-86.3502,-15.6735,13790.1,2279.33,15101.8,87.8115,312.968,-106.045,-1335.91,9530.12,-20.5852,-17.0924,-44.2417,-55.0418,-3884.43,-17901.5,760.484,-79.6527,-2.4393,-339.375,-976.139,8949.67,-1455.06,-2.48482,-28.1241,-44.8579,7563.5,4698.12,3717.52,-64.9613,-2.98148,-83.8827,7959.66,1646.56,690.304,-40.9996,-2.02786,-12.2516
4.2565,5039.88,2426.59,7734.59,-3.33979,-86.2703,-15.5365,13908.8,2329.02,15111.0,85.5182,312.608,-105.624,-1331.42,9532.79,-6.49896,-17.1882,-44.107,-55.0317,-3860.45,-18016.8,724.967,-79.2228,-3.68587,-339.214,-992.632,8948.61,-1435.68,-2.49099,-28.2662,-44.933,7550.66,4696.41,3663.48,-66.4978,-2.14205,-83.8058,7957.32,1663.26,675.555,-41.2459,-2.46624,-12.0292
4.257,5051.52,2422.66,7721.74,-3.21186,-86.1904,-15.3995,14027.4,2378.7,15120.2,83.2249,312.249,-105.203,-1326.92,9535.46,7.58731,-17.2841,-43.9723,-55.0217,-3836.47,-18132.0,689.451,-78.7928,-4.93244,-339.053,-1009.13,8947.55,-1416.3,-2.49717,-28.4083,-45.008,7537.82,4694.7,3609.44,-68.0344,-1.30262,-83.729,7954.99,1679.96,660.805,-41.4921,-2.90463,-11.8067
4.2575,5063.16,2418.73,7708.89,-3.08393,-86.1105,-15.2625,14146.0,2428.39,15129.4,80.9316,311.889,-104.782,-1322.43,9538.13,21.6736,-17.3799,-43.8376,-55.0116,-3812.49,-18247.3,653.934,-78.3629,-6.17901,-338.892,-1025.62,8946.49,-1396.92,-2.50334,-28.5503,-45.0831,7524.97,4693.0,3555.4,-69.5709,-0.463186,-83.6521,7952.66,1696.67,646.055,-41.7383,-3.34302,-11.5842
4.258,5080.39,2415.1,7694.44,-2.99351,-86.0506,-15.1093,14264.4,2464.54,15137.3,78.7829,311.475,-104.494,-1324.08,9544.95,32.4348,-17.4494,-43.7126,-55.029,-3787.59,-18369.2,623.362,-77.8968,-7.26995,-338.715,-1042.61,8948.95,-1379.85,-2.54197,-28.693,-45.153,7489.93,4703.36,3482.37,-70.9501,0.95436,-83.4346,7944.72,1706.7,634.018,-41.9743,-3.75444,-11.3421
4.2585,5104.61,2411.85,7677.98,-2.94996,-86.0155,-14.936,14382.4,2483.76,15143.6,76.8151,310.993,-104.374,-1333.4,9556.96,39.0397,-17.4858,-43.5997,-55.0808,-3761.55,-18499.4,598.972,-77.3856,-8.16634,-338.518,-1060.23,8955.79,-1365.64,-2.62116,-28.8363,-45.2167,7427.15,4728.82,3385.61,-72.1328,3.09455,-83.0413,7929.78,1708.41,625.372,-42.1974,-4.13215,-11.0753
4.259,5128.82,2408.59,7661.53,-2.90641,-85.9803,-14.7626,14500.4,2502.98,15150.0,74.8473,310.511,-104.253,-1342.72,9568.97,45.6446,-17.5222,-43.4867,-55.1325,-3735.51,-18629.7,574.582,-76.8745,-9.06273,-338.322,-1077.84,8962.63,-1351.44,-2.70036,-28.9797,-45.2803,7364.37,4754.27,3288.85,-73.3154,5.23474,-82.6479,7914.85,1710.12,616.726,-42.4205,-4.50986,-10.8086
4.2595,5153.04,2405.34,7645.08,-2.86286,-85.9452,-14.5893,14618.4,2522.2,15156.3,72.8795,310.028,-104.132,-1352.05,9580.98,52.2495,-17.5586,-43.3738,-55.1843,-3709.47,-18759.9,550.192,-76.3633,-9.95912,-338.125,-1095.46,8969.47,-1337.24,-2.77955,-29.1231,-45.3439,7301.59,4779.73,3192.08,-74.498,7.37493,-82.2546,7899.91,1711.83,608.08,-42.6436,-4.88757,-10.5419
4.26,5177.26,2402.08,7628.63,-2.81931,-85.9101,-14.416,14736.4,2541.42,15162.6,70.9118,309.546,-104.011,-1361.37,9593.0,58.8544,-17.595,-43.2608,-55.2361,-3683.43,-18890.1,525.802,-75.8521,-10.8555,-337.928,-1113.07,8976.32,-1323.04,-2.85874,-29.2665,-45.4075,7238.81,4805.18,3095.32,-75.6807,9.51511,-81.8612,7884.97,1713.54,599.434,-42.8667,-5.26528,-10.2751
4.2605,5201.48,2398.83,7612.17,-2.77577,-85.875,-14.2426,14854.4,2560.64,15168.9,68.944,309.064,-103.891,-1370.69,9605.0,65.4593,-17.6314,-43.1479,-55.2879,-3657.39,-19020.4,501.412,-75.3409,-11.7519,-337.731,-1130.69,8983.16,-1308.84,-2.93793,-29.4099,-45.4712,7176.03,4830.64,2998.55,-76.8633,11.6553,-81.4678,7870.04,1715.25,590.788,-43.0898,-5.64298,-10.0084
4.261,5225.7,2395.57,7595.72,-2.73222,-85.8399,-14.0693,14972.5,2579.87,15175.2,66.9762,308.582,-103.77,-1380.01,9617.02,72.0642,-17.6678,-43.035,-55.3396,-3631.35,-19150.6,477.021,-74.8297,-12.6483,-337.534,-1148.3,8990.0,-1294.64,-3.01713,-29.5533,-45.5348,7113.25,4856.09,2901.79,-78.0459,13.7955,-81.0745,7855.1,1716.96,582.142,-43.3129,-6.02069,-9.74162
4.2615,5249.92,2392.32,7579.27,-2.68867,-85.8048,-13.896,15090.5,2599.09,15181.5,65.0084,308.1,-103.649,-1389.34,9629.03,78.6691,-17.7042,-42.922,-55.3914,-3605.31,-19280.8,452.631,-74.3185,-13.5447,-337.338,-1165.92,8996.84,-1280.43,-3.09632,-29.6967,-45.5984,7050.47,4881.55,2805.03,-79.2285,15.9357,-80.6811,7840.16,1718.67,573.496,-43.536,-6.3984,-9.47488
4.262,5274.14,2389.06,7562.81,-2.64512,-85.7697,-13.7226,15208.5,2618.31,15187.9,63.0406,307.617,-103.529,-1398.66,9641.04,85.274,-17.7406,-42.8091,-55.4432,-3579.27,-19411.1,428.241,-73.8074,-14.4411,-337.141,-1183.53,9003.69,-1266.23,-3.17551,-29.84,-45.662,6987.69,4907.01,2708.26,-80.4112,18.0759,-80.2878,7825.22,1720.38,564.85,-43.7591,-6.77611,-9.20814
4.2625,5292.73,2394.1,7549.68,-2.58656,-85.7151,-13.5905,15322.5,2631.43,15183.6,61.288,307.092,-103.549,-1406.09,9642.64,95.6052,-17.7857,-42.7205,-55.4958,-3570.29,-19533.0,398.146,-73.2569,-15.0798,-336.979,-1198.55,9013.69,-1254.32,-3.26252,-30.0379,-45.7019,6921.44,4948.54,2582.93,-81.4177,21.0845,-79.5495,7810.38,1724.12,564.294,-43.9949,-7.23377,-8.95048
4.263,5306.81,2405.77,7539.2,-2.51598,-85.645,-13.4912,15433.3,2639.67,15171.0,59.7075,306.532,-103.682,-1411.99,9635.91,108.918,-17.8377,-42.6514,-55.5491,-3574.95,-19648.4,363.488,-72.6751,-15.5124,-336.846,-1211.48,9026.22,-1244.22,-3.35579,-30.2792,-45.7226,6852.43,5002.94,2434.74,-82.2832,24.7879,-78.5355,7795.62,1729.49,570.208,-44.241,-7.75541,-8.7001
4.2635,5320.9,2417.45,7528.71,-2.4454,-85.5748,-13.3919,15544.1,2647.92,15158.3,58.1271,305.973,-103.814,-1417.9,9629.19,122.23,-17.8897,-42.5823,-55.6024,-3579.61,-19763.8,328.829,-72.0932,-15.945,-336.712,-1224.42,9038.75,-1234.13,-3.44906,-30.5206,-45.7434,6783.41,5057.34,2286.55,-83.1488,28.4913,-77.5214,7780.86,1734.85,576.123,-44.4871,-8.27704,-8.44971
4.264,5334.98,2429.12,7518.23,-2.37482,-85.5047,-13.2927,15654.9,2656.16,15145.6,56.5466,305.413,-103.947,-1423.8,9622.46,135.542,-17.9416,-42.5132,-55.6557,-3584.26,-19879.2,294.17,-71.5113,-16.3775,-336.579,-1237.35,9051.29,-1224.04,-3.54233,-30.762,-45.7642,6714.39,5111.75,2138.36,-84.0143,32.1947,-76.5073,7766.09,1740.21,582.037,-44.7332,-8.79868,-8.19933
4.2645,5349.06,2440.79,7507.75,-2.30424,-85.4345,-13.1934,15765.8,2664.41,15132.9,54.9661,304.854,-104.08,-1429.71,9615.73,148.855,-17.9936,-42.4441,-55.709,-3588.92,-19994.6,259.511,-70.9295,-16.8101,-336.445,-1250.29,9063.82,-1213.95,-3.63559,-31.0033,-45.7849,6645.38,5166.15,1990.18,-84.8799,35.8981,-75.4932,7751.33,1745.57,587.952,-44.9793,-9.32031,-7.94895
4.265,5363.15,2452.46,7497.27,-2.23366,-85.3644,-13.0942,15876.6,2672.65,15120.3,53.3857,304.294,-104.213,-1435.62,9609.01,162.167,-18.0456,-42.375,-55.7623,-3593.58,-20110.0,224.853,-70.3476,-17.2427,-336.311,-1263.22,9076.35,-1203.86,-3.72886,-31.2447,-45.8057,6576.36,5220.55,1841.99,-85.7454,39.6015,-74.4791,7736.57,1750.94,593.866,-45.2253,-9.84194,-7.69856
4.2655,5377.23,2464.13,7486.79,-2.16308,-85.2942,-12.9949,15987.4,2680.9,15107.6,51.8052,303.734,-104.346,-1441.52,9602.28,175.479,-18.0976,-42.3059,-55.8156,-3598.24,-20225.4,190.194,-69.7658,-17.6753,-336.178,-1276.16,9088.88,-1193.77,-3.82213,-31.4861,-45.8265,6507.34,5274.95,1693.8,-86.611,43.3049,-73.465,7721.81,1756.3,599.781,-45.4714,-10.3636,-7.44818
4.266,5391.32,2475.8,7476.3,-2.0925,-85.2241,-12.8957,16098.2,2689.14,15094.9,50.2247,303.175,-104.478,-1447.43,9595.55,188.792,-18.1496,-42.2368,-55.8689,-3602.9,-20340.8,155.535,-69.1839,-18.1078,-336.044,-1289.09,9101.41,-1183.68,-3.9154,-31.7274,-45.8472,6438.32,5329.35,1545.61,-87.4765,47.0083,-72.4509,7707.04,1761.66,605.696,-45.7175,-10.8852,-7.19779
4.2665,5405.4,2487.48,7465.82,-2.02193,-85.1539,-12.7964,16209.0,2697.39,15082.3,48.6443,302.615,-104.611,-1453.34,9588.83,202.104,-18.2015,-42.1677,-55.9222,-3607.56,-20456.2,120.876,-68.602,-18.5404,-335.911,-1302.02,9113.94,-1173.59,-4.00867,-31.9688,-45.868,6369.31,5383.75,1397.42,-88.3421,50.7116,-71.4368,7692.28,1767.03,611.61,-45.9636,-11.4068,-6.94741
4.267,5407.78,2500.87,7466.62,-1.9124,-85.118,-12.6667,16334.9,2698.26,15064.3,47.4467,301.952,-105.021,-1454.26,9581.09,214.802,-18.2818,-42.1044,-55.9565,-3636.83,-20551.8,84.9548,-68.0319,-18.613,-335.848,-1308.32,9117.72,-1164.59,-4.0637,-32.2383,-45.8944,6277.06,5434.67,1267.29,-88.8488,55.0249,-70.0483,7687.77,1770.59,608.27,-46.2442,-11.9332,-6.69242
4.2675,5404.3,2515.13,7473.06,-1.7834,-85.0993,-12.5218,16468.2,2695.45,15043.7,46.4405,301.238,-105.571,-1452.68,9572.86,227.194,-18.3762,-42.0439,-55.9815,-3678.4,-20637.7,48.4019,-67.4675,-18.5056,-335.82,-1311.3,9117.11,-1156.14,-4.09962,-32.5219,-45.9235,6173.21,5483.84,1146.18,-89.1761,59.6432,-68.4727,7688.38,1773.26,600.301,-46.5421,-12.4618,-6.43512
4.268,5400.82,2529.39,7479.51,-1.6544,-85.0806,-12.3768,16601.6,2692.64,15023.0,45.4343,300.524,-106.12,-1451.11,9564.63,239.585,-18.4706,-41.9835,-56.0064,-3719.97,-20723.5,11.8489,-66.9031,-18.3982,-335.792,-1314.28,9116.5,-1147.68,-4.13554,-32.8055,-45.9526,6069.35,5533.02,1025.07,-89.5034,64.2614,-66.8971,7689.0,1775.92,592.333,-46.84,-12.9905,-6.17782
4.2685,5397.34,2543.65,7485.95,-1.5254,-85.0618,-12.2319,16734.9,2689.83,15002.4,44.4282,299.81,-106.669,-1449.53,9556.39,251.976,-18.5651,-41.923,-56.0313,-3761.55,-20809.3,-24.7041,-66.3388,-18.2907,-335.764,-1317.27,9115.9,-1139.23,-4.17146,-33.089,-45.9818,5965.49,5582.2,903.959,-89.8307,68.8796,-65.3215,7689.61,1778.58,584.365,-47.1379,-13.5191,-5.92053
4.269,5393.86,2557.91,7492.39,-1.3964,-85.0431,-12.0869,16868.3,2687.02,14981.7,43.422,299.096,-107.218,-1447.96,9548.16,264.368,-18.6595,-41.8626,-56.0563,-3803.12,-20895.1,-61.257,-65.7744,-18.1833,-335.736,-1320.25,9115.29,-1130.77,-4.20738,-33.3726,-46.0109,5861.64,5631.37,782.849,-90.158,73.4978,-63.7458,7690.23,1781.25,576.396,-47.4358,-14.0478,-5.66323
4.2695,5390.38,2572.17,7498.83,-1.2674,-85.0244,-11.942,17001.6,2684.21,14961.1,42.4158,298.382,-107.768,-1446.38,9539.93,276.759,-18.7539,-41.8021,-56.0812,-3844.7,-20980.9,-97.81,-65.2101,-18.0759,-335.708,-1323.23,9114.68,-1122.31,-4.24329,-33.6562,-46.04,5757.78,5680.55,661.739,-90.4853,78.1161,-62.1702,7690.84,1783.91,568.428,-47.7337,-14.5764,-5.40593
4.27,5386.9,2586.42,7505.27,-1.1384,-85.0056,-11.797,17135.0,2681.4,14940.5,41.4097,297.667,-108.317,-1444.81,9531.69,289.151,-18.8483,-41.7417,-56.1061,-3886.27,-21066.7,-134.363,-64.6457,-17.9685,-335.68,-1326.21,9114.08,-1113.86,-4.27921,-33.9398,-46.0691,5653.93,5729.73,540.629,-90.8126,82.7343,-60.5946,7691.45,1786.58,560.46,-48.0316,-15.1051,-5.14863
4.2705,5383.42,2600.68,7511.71,-1.0094,-84.9869,-11.6521,17268.3,2678.59,14919.8,40.4035,296.953,-108.866,-1443.23,9523.46,301.542,-18.9427,-41.6812,-56.131,-3927.85,-21152.5,-170.916,-64.0814,-17.8611,-335.652,-1329.19,9113.47,-1105.4,-4.31513,-34.2233,-46.0983,5550.07,5778.9,419.52,-91.1399,87.3525,-59.019,7692.07,1789.24,552.491,-48.3295,-15.6337,-4.89134
4.271,5379.95,2614.94,7518.16,-0.880396,-84.9682,-11.5071,17401.7,2675.78,14899.2,39.3973,296.239,-109.415,-1441.66,9515.23,313.933,-19.0371,-41.6208,-56.156,-3969.42,-21238.4,-207.469,-63.517,-17.7537,-335.624,-1332.17,9112.86,-1096.95,-4.35105,-34.5069,-46.1274,5446.21,5828.08,298.41,-91.4672,91.9707,-57.4434,7692.68,1791.91,544.523,-48.6274,-16.1624,-4.63404
4.2715,5375.27,2626.59,7512.02,-0.783878,-84.9532,-11.3275,17537.0,2579.35,14877.6,39.2178,295.345,-110.559,-1449.19,9508.14,307.536,-19.0916,-41.4485,-56.1831,-4049.9,-21294.7,-282.991,-63.1524,-17.0413,-335.572,-1329.26,9109.56,-1085.86,-4.38716,-34.7889,-46.1179,5313.23,5846.02,213.147,-91.0216,96.0368,-55.8057,7656.36,1789.14,536.609,-48.748,-16.7012,-4.50356
4.272,5370.25,2637.49,7502.29,-0.696639,-84.9393,-11.1379,17672.8,2456.17,14855.7,39.2744,294.399,-111.874,-1459.33,9501.39,295.771,-19.1348,-41.2443,-56.2109,-4141.5,-21342.6,-369.646,-62.8448,-16.1561,-335.514,-1324.67,9105.49,-1074.02,-4.42333,-35.0705,-46.0974,5171.91,5855.03,138.126,-90.3552,99.9452,-54.1502,7609.48,1784.81,528.711,-48.8179,-17.243,-4.40932
4.2725,5365.24,2648.4,7492.56,-0.609401,-84.9255,-10.9484,17808.7,2332.99,14833.8,39.331,293.453,-113.188,-1469.46,9494.64,284.006,-19.1779,-41.0401,-56.2387,-4233.09,-21390.5,-456.302,-62.5372,-15.2709,-335.455,-1320.08,9101.42,-1062.17,-4.4595,-35.3521,-46.077,5030.6,5864.05,63.1057,-89.6888,103.854,-52.4948,7562.6,1780.49,520.814,-48.8878,-17.7847,-4.31508
4.273,5360.22,2659.3,7482.83,-0.522162,-84.9116,-10.7588,17944.6,2209.81,14811.9,39.3876,292.507,-114.502,-1479.6,9487.88,272.241,-19.221,-40.8359,-56.2665,-4324.69,-21438.5,-542.958,-62.2296,-14.3856,-335.397,-1315.49,9097.36,-1050.33,-4.49567,-35.6337,-46.0565,4889.29,5873.06,-11.9151,-89.0224,107.762,-50.8394,7515.73,1776.17,512.916,-48.9577,-18.3265,-4.22083
4.2735,5355.2,2670.2,7473.1,-0.434924,-84.8977,-10.5692,18080.4,2086.63,14790.0,39.4442,291.56,-115.817,-1489.73,9481.13,260.476,-19.2641,-40.6317,-56.2943,-4416.28,-21486.4,-629.613,-61.9221,-13.5004,-335.339,-1310.9,9093.29,-1038.49,-4.53184,-35.9153,-46.036,4747.98,5882.08,-86.9358,-88.356,111.67,-49.184,7468.85,1771.85,505.018,-49.0276,-18.8682,-4.12659
4.274,5350.19,2681.1,7463.37,-0.347685,-84.8838,-10.3796,18216.3,1963.45,14768.2,39.5008,290.614,-117.131,-1499.87,9474.38,248.711,-19.3072,-40.4275,-56.3221,-4507.88,-21534.3,-716.269,-61.6145,-12.6152,-335.281,-1306.31,9089.22,-1026.65,-4.56801,-36.1968,-46.0155,4606.67,5891.09,-161.957,-87.6896,115.579,-47.5286,7421.97,1767.52,497.12,-49.0975,-19.41,-4.03235
4.2745,5345.17,2692.01,7453.64,-0.260447,-84.87,-10.1901,18352.1,1840.28,14746.3,39.5574,289.668,-118.445,-1510.0,9467.62,236.946,-19.3504,-40.2233,-56.3499,-4599.47,-21582.2,-802.924,-61.3069,-11.73,-335.222,-1301.72,9085.15,-1014.81,-4.60419,-36.4784,-45.995,4465.36,5900.11,-236.977,-87.0232,119.487,-45.8731,7375.09,1763.2,489.222,-49.1674,-19.9517,-3.9381
4.275,5340.15,2702.91,7443.91,-0.173209,-84.8561,-10.0005,18488.0,1717.1,14724.4,39.614,288.722,-119.76,-1520.14,9460.87,225.181,-19.3935,-40.0191,-56.3777,-4691.07,-21630.1,-889.58,-60.9994,-10.8448,-335.164,-1297.13,9081.08,-1002.97,-4.64036,-36.76,-45.9745,4324.04,5909.12,-311.998,-86.3568,123.395,-44.2177,7328.22,1758.88,481.324,-49.2373,-20.4935,-3.84386
4.2755,5335.14,2713.81,7434.18,-0.0859701,-84.8422,-9.81094,18623.8,1593.92,14702.5,39.6706,287.776,-121.074,-1530.27,9454.12,213.416,-19.4366,-39.8149,-56.4055,-4782.66,-21678.0,-976.236,-60.6918,-9.95953,-335.106,-1292.54,9077.01,-991.125,-4.67653,-37.0416,-45.954,4182.73,5918.14,-387.019,-85.6903,127.304,-42.5623,7281.34,1754.56,473.426,-49.3072,-21.0352,-3.74962
4.276,5340.24,2711.93,7426.76,-0.0733523,-84.8008,-9.58737,18761.5,1293.84,14700.9,40.7477,286.741,-123.12,-1541.68,9456.18,213.906,-19.4702,-39.6674,-56.4711,-4946.88,-21696.1,-1112.58,-60.8317,-8.43938,-334.888,-1278.81,9077.33,-987.978,-4.79768,-37.3337,-45.956,3986.99,5882.71,-405.743,-83.9222,129.345,-41.4359,7272.17,1765.36,490.32,-49.3821,-21.596,-3.58889
4.2765,5346.61,2708.45,7419.63,-0.0700621,-84.7559,-9.35955,18899.4,971.646,14701.9,41.9524,285.694,-125.257,-1553.25,9459.34,215.928,-19.5027,-39.527,-56.5414,-5120.18,-21710.4,-1255.13,-61.0276,-6.83985,-334.65,-1263.93,9078.19,-985.918,-4.92947,-37.6271,-45.9607,3784.45,5841.72,-417.431,-82.0164,131.152,-40.3756,7267.72,1778.04,510.311,-49.4575,-22.1592,-3.41986
4.277,5352.98,2704.97,7412.49,-0.0667719,-84.711,-9.13172,19037.3,649.454,14702.9,43.1571,284.648,-127.394,-1564.82,9462.51,217.95,-19.5351,-39.3866,-56.6117,-5293.48,-21724.7,-1397.69,-61.2235,-5.24033,-334.412,-1249.06,9079.05,-983.859,-5.06125,-37.9205,-45.9655,3581.91,5800.74,-429.118,-80.1106,132.96,-39.3153,7263.26,1790.73,530.303,-49.533,-22.7223,-3.25082
4.2775,5359.35,2701.49,7405.36,-0.0634817,-84.666,-8.9039,19175.2,327.262,14703.9,44.3617,283.601,-129.531,-1576.38,9465.68,219.972,-19.5676,-39.2462,-56.6819,-5466.78,-21739.0,-1540.24,-61.4194,-3.64081,-334.174,-1234.18,9079.91,-981.799,-5.19303,-38.2139,-45.9703,3379.36,5759.75,-440.806,-78.2048,134.768,-38.255,7258.81,1803.42,550.295,-49.6085,-23.2855,-3.08179
4.278,5365.72,2698.02,7398.23,-0.0601915,-84.6211,-8.67608,19313.1,5.06999,14704.9,45.5664,282.555,-131.668,-1587.95,9468.84,221.995,-19.6,-39.1058,-56.7522,-5640.08,-21753.3,-1682.8,-61.6152,-2.04128,-333.936,-1219.31,9080.78,-979.739,-5.32481,-38.5072,-45.9751,3176.82,5718.77,-452.493,-76.299,136.575,-37.1947,7254.35,1816.1,570.287,-49.684,-23.8487,-2.91275
4.2785,5372.09,2694.54,7391.1,-0.0569013,-84.5762,-8.44825,19451.0,-317.122,14705.9,46.7711,281.508,-133.805,-1599.52,9472.01,224.017,-19.6325,-38.9654,-56.8225,-5813.38,-21767.6,-1825.35,-61.8111,-0.441757,-333.698,-1204.43,9081.64,-977.679,-5.45659,-38.8006,-45.9799,2974.27,5677.79,-464.181,-74.3932,138.383,-36.1344,7249.9,1828.79,590.279,-49.7594,-24.4118,-2.74372
4.279,5378.46,2691.06,7383.97,-0.0536111,-84.5313,-8.22043,19588.9,-639.314,14706.9,47.9758,280.461,-135.942,-1611.08,9475.17,226.039,-19.6649,-38.8251,-56.8928,-5986.68,-21781.9,-1967.91,-62.007,1.15777,-333.46,-1189.56,9082.5,-975.62,-5.58837,-39.094,-45.9846,2771.73,5636.8,-475.868,-72.4873,140.19,-35.0741,7245.45,1841.48,610.271,-49.8349,-24.975,-2.57468
4.2795,5384.83,2687.58,7376.84,-0.0503208,-84.4864,-7.99261,19726.8,-961.506,14707.9,49.1805,279.415,-138.08,-1622.65,9478.34,228.061,-19.6974,-38.6847,-56.9631,-6159.98,-21796.1,-2110.46,-62.2029,2.75729,-333.222,-1174.68,9083.36,-973.56,-5.72016,-39.3874,-45.9894,2569.19,5595.82,-487.556,-70.5815,141.998,-34.0138,7240.99,1854.17,630.263,-49.9104,-25.5382,-2.40565
4.28,5391.2,2684.1,7369.7,-0.0470306,-84.4415,-7.76478,19864.7,-1283.7,14708.9,50.3851,278.368,-140.217,-1634.22,9481.5,230.083,-19.7298,-38.5443,-57.0334,-6333.28,-21810.4,-2253.02,-62.3988,4.35682,-332.984,-1159.81,9084.22,-971.5,-5.85194,-39.6808,-45.9942,2366.64,5554.83,-499.243,-68.6757,143.806,-32.9535,7236.54,1866.85,650.255,-49.9859,-26.1013,-2.23662
4.2805,5409.03,2678.78,7382.23,0.0795401,-84.3488,-7.59602,20022.2,-1656.73,14600.1,51.4265,277.512,-142.251,-1635.94,9502.14,260.186,-19.8088,-38.487,-57.135,-6538.94,-21800.2,-2234.97,-62.324,5.62361,-332.48,-1130.62,9091.38,-983.628,-5.91255,-40.05,-46.0052,2163.2,5487.14,-466.367,-65.9793,143.361,-32.3111,7204.74,1865.2,644.756,-50.2415,-26.6012,-1.9892
4.281,5426.87,2673.46,7394.76,0.206111,-84.2562,-7.42726,20179.7,-2029.76,14491.3,52.4679,276.657,-144.285,-1637.65,9522.78,290.289,-19.8878,-38.4297,-57.2367,-6744.59,-21790.0,-2216.92,-62.2493,6.89041,-331.975,-1101.43,9098.54,-995.756,-5.97316,-40.4191,-46.0163,1959.76,5419.45,-433.49,-63.2829,142.917,-31.6686,7172.94,1863.54,639.257,-50.4972,-27.101,-1.74178
4.2815,5444.71,2668.14,7407.29,0.332682,-84.1635,-7.25851,20337.1,-2402.8,14382.5,53.5092,275.801,-146.319,-1639.37,9543.42,320.392,-19.9668,-38.3723,-57.3383,-6950.25,-21779.8,-2198.87,-62.1746,8.15721,-331.47,-1072.24,9105.7,-1007.88,-6.03377,-40.7883,-46.0273,1756.32,5351.76,-400.614,-60.5866,142.473,-31.0262,7141.14,1861.89,633.758,-50.7529,-27.6009,-1.49436
4.282,5462.55,2662.82,7419.82,0.459252,-84.0708,-7.08975,20494.6,-2775.83,14273.6,54.5506,274.945,-148.353,-1641.09,9564.06,350.495,-20.0457,-38.315,-57.4399,-7155.91,-21769.6,-2180.83,-62.0998,9.424,-330.965,-1043.05,9112.86,-1020.01,-6.09438,-41.1575,-46.0384,1552.88,5284.07,-367.737,-57.8902,142.028,-30.3838,7109.34,1860.23,628.26,-51.0086,-28.1007,-1.24694
4.2825,5480.39,2657.5,7432.35,0.585823,-83.9781,-6.92099,20652.1,-3148.86,14164.8,55.5919,274.089,-150.387,-1642.81,9584.7,380.598,-20.1247,-38.2577,-57.5415,-7361.56,-21759.4,-2162.78,-62.0251,10.6908,-330.46,-1013.86,9120.02,-1032.14,-6.15498,-41.5266,-46.0494,1349.44,5216.38,-334.86,-55.1938,141.584,-29.7414,7077.55,1858.57,622.761,-51.2643,-28.6005,-0.999521
4.283,5498.23,2652.18,7444.88,0.712394,-83.8855,-6.75223,20809.6,-3521.9,14056.0,56.6333,273.233,-152.421,-1644.52,9605.34,410.701,-20.2037,-38.2004,-57.6431,-7567.22,-21749.1,-2144.73,-61.9504,11.9576,-329.955,-984.675,9127.18,-1044.27,-6.21559,-41.8958,-46.0605,1146.0,5148.69,-301.984,-52.4974,141.14,-29.099,7045.75,1856.92,617.262,-51.52,-29.1004,-0.752102
4.2835,5516.06,2646.86,7457.41,0.838965,-83.7928,-6.58347,20967.1,-3894.93,13947.2,57.6746,272.377,-154.455,-1646.24,9625.98,440.803,-20.2827,-38.1431,-57.7447,-7772.88,-21738.9,-2126.68,-61.8756,13.2244,-329.45,-955.486,9134.34,-1056.4,-6.2762,-42.265,-46.0715,942.555,5081.0,-269.107,-49.801,140.695,-28.4566,7013.95,1855.26,611.763,-51.7757,-29.6002,-0.504683
4.284,5533.9,2641.54,7469.94,0.965535,-83.7001,-6.41471,21124.5,-4267.96,13838.4,58.716,271.521,-156.49,-1647.96,9646.62,470.906,-20.3617,-38.0858,-57.8463,-7978.53,-21728.7,-2108.64,-61.8009,14.4912,-328.945,-926.297,9141.5,-1068.53,-6.33681,-42.6341,-46.0826,739.114,5013.31,-236.23,-47.1046,140.251,-27.8142,6982.15,1853.6,606.265,-52.0313,-30.1001,-0.257264
4.2845,5550.49,2637.67,7481.14,1.10371,-83.6147,-6.24544,21282.8,-4603.38,13719.6,59.7746,270.688,-158.374,-1648.28,9664.92,498.009,-20.4402,-38.0137,-57.9419,-8184.84,-21718.0,-2070.96,-61.6701,15.6463,-328.399,-896.433,9148.53,-1080.67,-6.40092,-42.9967,-46.0975,534.091,4948.45,-204.893,-44.3938,139.715,-27.1881,6950.24,1852.23,602.492,-52.2271,-30.5992,-0.023903
4.285,5557.02,2645.32,7481.67,1.33468,-83.5876,-6.07203,21447.2,-4637.85,13521.7,60.9713,270.032,-159.062,-1637.43,9664.49,501.113,-20.5154,-37.823,-57.9887,-8396.34,-21703.5,-1876.23,-61.0901,15.9074,-327.523,-861.169,9154.5,-1092.96,-6.49301,-43.3061,-46.1436,316.417,4906.19,-185.866,-41.5677,138.45,-26.6924,6917.42,1853.17,612.522,-51.9431,-31.0929,0.0969981
4.2855,5563.55,2652.97,7482.2,1.56565,-83.5604,-5.89862,21611.5,-4672.33,13323.7,62.168,269.377,-159.751,-1626.58,9664.07,504.217,-20.5906,-37.6324,-58.0355,-8607.83,-21689.0,-1681.51,-60.5101,16.1685,-326.646,-825.904,9160.46,-1105.25,-6.58509,-43.6156,-46.1896,98.744,4863.93,-166.839,-38.7416,137.184,-26.1967,6884.6,1854.1,622.553,-51.6591,-31.5866,0.217899
4.286,5570.08,2660.63,7482.72,1.79662,-83.5332,-5.72522,21775.9,-4706.8,13125.7,63.3647,268.721,-160.439,-1615.73,9663.64,507.321,-20.6658,-37.4417,-58.0823,-8819.33,-21674.5,-1486.79,-59.9302,16.4297,-325.77,-790.639,9166.43,-1117.55,-6.67718,-43.925,-46.2357,-118.93,4821.67,-147.812,-35.9155,135.919,-25.701,6851.79,1855.03,632.584,-51.3751,-32.0802,0.3388
4.2865,5576.61,2668.28,7483.25,2.02759,-83.506,-5.55181,21940.3,-4741.28,12927.7,64.5614,268.065,-161.127,-1604.89,9663.22,510.425,-20.741,-37.2511,-58.1291,-9030.83,-21660.0,-1292.06,-59.3502,16.6908,-324.894,-755.374,9172.4,-1129.84,-6.76926,-44.2345,-46.2817,-336.603,4779.42,-128.785,-33.0894,134.653,-25.2053,6818.97,1855.96,642.615,-51.0912,-32.5739,0.459701
4.287,5583.14,2675.94,7483.78,2.25856,-83.4789,-5.3784,22104.6,-4775.75,12729.8,65.7582,267.41,-161.815,-1594.04,9662.8,513.529,-20.8162,-37.0604,-58.1759,-9242.33,-21645.6,-1097.34,-58.7702,16.9519,-324.018,-720.109,9178.37,-1142.13,-6.86135,-44.5439,-46.3277,-554.277,4737.16,-109.758,-30.2632,133.388,-24.7097,6786.15,1856.9,652.646,-50.8072,-33.0675,0.580603
4.2875,5589.68,2683.59,7484.3,2.48953,-83.4517,-5.205,22269.0,-4810.23,12531.8,66.9549,266.754,-162.504,-1583.19,9662.37,516.633,-20.8914,-36.8697,-58.2226,-9453.83,-21631.1,-902.615,-58.1903,17.2131,-323.142,-684.844,9184.34,-1154.42,-6.95343,-44.8534,-46.3738,-771.95,4694.9,-90.7311,-27.4371,132.122,-24.214,6753.33,1857.83,662.677,-50.5232,-33.5612,0.701504
4.288,5596.21,2691.24,7484.83,2.7205,-83.4245,-5.03159,22433.4,-4844.7,12333.8,68.1516,266.099,-163.192,-1572.34,9661.95,519.737,-20.9666,-36.6791,-58.2695,-9665.33,-21616.6,-707.891,-57.6103,17.4742,-322.266,-649.579,9190.31,-1166.71,-7.04552,-45.1628,-46.4198,-989.623,4652.64,-71.7042,-24.611,130.857,-23.7183,6720.52,1858.76,672.708,-50.2392,-34.0549,0.822405
4.2885,5602.74,2698.9,7485.36,2.95147,-83.3973,-4.85818,22597.7,-4879.18,12135.8,69.3483,265.443,-163.88,-1561.49,9661.53,522.841,-21.0417,-36.4884,-58.3162,-9876.83,-21602.1,-513.167,-57.0303,17.7353,-321.389,-614.314,9196.28,-1179.0,-7.13761,-45.4723,-46.4659,-1207.3,4610.38,-52.6773,-21.7849,129.591,-23.2226,6687.7,1859.69,682.739,-49.9553,-34.5485,0.943306
4.289,5607.62,2704.34,7483.1,3.16276,-83.3727,-4.68099,22758.3,-4852.2,11948.7,70.5798,264.717,-164.365,-1553.62,9661.3,521.62,-21.1211,-36.2775,-58.3677,-10086.2,-21584.8,-328.765,-56.529,17.8139,-320.415,-579.698,9201.3,-1190.62,-7.23711,-45.7604,-46.5067,-1418.86,4581.85,-45.1397,-19.2051,128.567,-22.7019,6657.69,1858.78,693.439,-49.6435,-35.0548,1.04512
4.2895,5606.71,2702.07,7471.08,3.30521,-83.3566,-4.49057,22905.5,-4610.12,11799.2,71.9333,263.743,-164.136,-1556.18,9661.77,505.262,-21.2152,-35.9954,-58.4357,-10288.0,-21558.0,-180.486,-56.3027,17.2532,-319.097,-547.352,9202.99,-1199.89,-7.36258,-45.9738,-46.5292,-1609.02,4601.36,-77.8148,-17.4877,128.387,-22.0934,6637.54,1851.43,706.482,-49.2344,-35.605,1.08011
4.29,5605.8,2699.79,7459.06,3.44765,-83.3406,-4.30014,23052.6,-4368.04,11649.8,73.2868,262.769,-163.908,-1558.74,9662.24,488.904,-21.3092,-35.7134,-58.5036,-10489.9,-21531.2,-32.2072,-56.0763,16.6925,-317.78,-515.006,9204.69,-1209.16,-7.48806,-46.1873,-46.5517,-1799.18,4620.87,-110.49,-15.7702,128.207,-21.4848,6617.38,1844.07,719.525,-48.8252,-36.1552,1.11511
4.2905,5604.89,2697.51,7447.04,3.59009,-83.3246,-4.10972,23199.8,-4125.96,11500.4,74.6403,261.796,-163.679,-1561.29,9662.71,472.545,-21.4033,-35.4313,-58.5715,-10691.7,-21504.3,116.071,-55.85,16.1318,-316.462,-482.659,9206.39,-1218.43,-7.61353,-46.4007,-46.5741,-1989.34,4640.37,-143.165,-14.0527,128.028,-20.8763,6597.22,1836.72,732.568,-48.4161,-36.7055,1.15011
4.291,5603.98,2695.23,7435.02,3.73253,-83.3086,-3.91929,23347.0,-3883.88,11351.0,75.9938,260.822,-163.45,-1563.85,9663.17,456.187,-21.4973,-35.1492,-58.6394,-10893.6,-21477.5,264.35,-55.6237,15.5711,-315.144,-450.313,9208.09,-1227.7,-7.739,-46.6142,-46.5966,-2179.5,4659.88,-175.84,-12.3352,127.848,-20.2678,6577.06,1829.36,745.61,-48.007,-37.2557,1.1851
4.2915,5603.07,2692.95,7423.0,3.87497,-83.2925,-3.72886,23494.1,-3641.81,11201.5,77.3473,259.848,-163.222,-1566.41,9663.64,439.829,-21.5914,-34.8672,-58.7073,-11095.4,-21450.7,412.629,-55.3974,15.0104,-313.826,-417.967,9209.78,-1236.97,-7.86448,-46.8276,-46.6191,-2369.67,4679.39,-208.515,-10.6178,127.668,-19.6593,6556.9,1822.0,758.653,-47.5979,-37.8059,1.2201
4.292,5602.16,2690.67,7410.98,4.01741,-83.2765,-3.53844,23641.3,-3399.73,11052.1,78.7008,258.875,-162.993,-1568.96,9664.11,423.47,-21.6854,-34.5851,-58.7752,-11297.3,-21423.8,560.907,-55.1711,14.4497,-312.508,-385.621,9211.48,-1246.24,-7.98995,-47.0411,-46.6416,-2559.83,4698.9,-241.19,-8.90028,127.488,-19.0508,6536.74,1814.65,771.696,-47.1888,-38.3562,1.2551
4.2925,5601.25,2688.39,7398.96,4.15985,-83.2605,-3.34801,23788.5,-3157.65,10902.7,80.0543,257.901,-162.765,-1571.52,9664.58,407.112,-21.7795,-34.3031,-58.8432,-11499.1,-21397.0,709.186,-54.9448,13.889,-311.191,-353.275,9213.18,-1255.5,-8.11543,-47.2545,-46.6641,-2749.99,4718.4,-273.865,-7.18281,127.309,-18.4423,6516.58,1807.29,784.738,-46.7796,-38.9064,1.29009
4.293,5600.34,2686.11,7386.94,4.3023,-83.2445,-3.15758,23935.6,-2915.57,10753.3,81.4077,256.927,-162.536,-1574.08,9665.04,390.754,-21.8735,-34.021,-58.9111,-11701.0,-21370.1,857.465,-54.7185,13.3283,-309.873,-320.928,9214.88,-1264.77,-8.2409,-47.468,-46.6866,-2940.15,4737.91,-306.541,-5.46533,127.129,-17.8338,6496.42,1799.94,797.781,-46.3705,-39.4566,1.32509
4.2935,5597.39,2681.6,7376.7,4.41254,-83.209,-2.97166,24067.8,-2678.51,10615.2,82.4833,255.828,-162.419,-1573.6,9668.86,384.471,-21.9977,-33.7602,-58.975,-11881.9,-21345.9,956.897,-54.6364,12.8506,-308.456,-283.654,9216.78,-1275.75,-8.36902,-47.6658,-46.7068,-3137.14,4789.98,-330.032,-3.85829,127.307,-17.2068,6479.98,1798.99,809.029,-46.0661,-39.9484,1.39311
4.294,5590.35,2672.6,7370.03,4.45837,-83.1344,-2.79476,24170.1,-2451.5,10499.8,83.0029,254.477,-162.525,-1567.07,9679.39,398.34,-22.1823,-33.5417,-59.031,-12021.1,-21326.8,958.638,-54.8427,12.5388,-306.839,-236.522,9219.1,-1290.13,-8.50244,-47.8325,-46.7225,-3347.79,4907.18,-335.155,-2.47213,128.203,-16.5428,6470.99,1810.86,816.687,-45.971,-40.3235,1.52719
4.2945,5583.32,2663.61,7363.35,4.50421,-83.0598,-2.61785,24272.3,-2224.49,10384.4,83.5226,253.127,-162.631,-1560.54,9689.91,412.209,-22.3668,-33.3232,-59.0871,-12160.3,-21307.8,960.379,-55.049,12.2271,-305.223,-189.39,9221.42,-1304.51,-8.63586,-47.9992,-46.7383,-3558.44,5024.37,-340.278,-1.08596,129.098,-15.8789,6462.0,1822.73,824.345,-45.8759,-40.6985,1.66127
4.295,5576.28,2654.61,7356.67,4.55005,-82.9852,-2.44094,24374.5,-1997.48,10269.0,84.0422,251.776,-162.738,-1554.01,9700.44,426.077,-22.5514,-33.1047,-59.1431,-12299.5,-21288.7,962.119,-55.2554,11.9154,-303.606,-142.258,9223.74,-1318.89,-8.76928,-48.1658,-46.754,-3769.09,5141.56,-345.401,0.300204,129.993,-15.2149,6453.0,1834.6,832.003,-45.7809,-41.0735,1.79534
4.2955,5569.25,2645.62,7349.99,4.59589,-82.9106,-2.26403,24476.8,-1770.47,10153.6,84.5619,250.425,-162.844,-1547.48,9710.96,439.946,-22.7359,-32.8863,-59.1991,-12438.7,-21269.6,963.86,-55.4617,11.6036,-301.99,-95.1267,9226.06,-1333.27,-8.9027,-48.3325,-46.7697,-3979.75,5258.76,-350.524,1.68637,130.889,-14.5509,6444.01,1846.47,839.661,-45.6858,-41.4485,1.92942
4.296,5562.21,2636.62,7343.31,4.64172,-82.836,-2.08712,24579.0,-1543.46,10038.2,85.0815,249.075,-162.95,-1540.95,9721.48,453.815,-22.9205,-32.6678,-59.2551,-12577.9,-21250.5,965.601,-55.668,11.2919,-300.374,-47.995,9228.38,-1347.65,-9.03612,-48.4992,-46.7855,-4190.4,5375.95,-355.647,3.07254,131.784,-13.8869,6435.02,1858.34,847.319,-45.5907,-41.8235,2.0635
4.2965,5555.17,2627.63,7336.64,4.68756,-82.7615,-1.91021,24681.2,-1316.45,9922.85,85.6012,247.724,-163.056,-1534.42,9732.01,467.684,-23.105,-32.4493,-59.3111,-12717.0,-21231.5,967.342,-55.8743,10.9801,-298.757,-0.863311,9230.71,-1362.03,-9.16954,-48.6658,-46.8012,-4401.05,5493.15,-360.77,4.4587,132.68,-13.223,6426.03,1870.21,854.977,-45.4956,-42.1985,2.19758
4.297,5548.14,2618.64,7329.96,4.7334,-82.6869,-1.7333,24783.5,-1089.44,9807.46,86.1208,246.373,-163.162,-1527.89,9742.53,481.553,-23.2896,-32.2309,-59.3671,-12856.2,-21212.4,969.082,-56.0807,10.6684,-297.141,46.2684,9233.03,-1376.41,-9.30296,-48.8325,-46.8169,-4611.7,5610.34,-365.893,5.84487,133.575,-12.559,6417.04,1882.08,862.635,-45.4005,-42.5736,2.33165
4.2975,5541.1,2609.64,7323.28,4.77924,-82.6123,-1.55639,24885.7,-862.433,9692.07,86.6405,245.022,-163.268,-1521.36,9753.05,495.421,-23.4741,-32.0124,-59.4231,-12995.4,-21193.3,970.823,-56.287,10.3566,-295.525,93.4001,9235.35,-1390.79,-9.43638,-48.9991,-46.8326,-4822.35,5727.54,-371.016,7.23103,134.47,-11.895,6408.04,1893.95,870.293,-45.3055,-42.9486,2.46573
4.298,5542.16,2611.78,7312.69,4.8791,-82.552,-1.38635,24977.1,-691.934,9552.41,86.6052,243.619,-163.589,-1513.23,9758.94,511.49,-23.6444,-31.8003,-59.5029,-13101.5,-21180.2,928.314,-56.502,10.5895,-293.875,150.215,9236.48,-1402.34,-9.59959,-49.1044,-46.8618,-5009.21,5836.45,-342.153,8.39424,135.217,-11.3351,6388.92,1898.36,861.08,-45.2289,-43.1726,2.54693
4.2985,5553.34,2627.83,7297.22,5.04651,-82.5096,-1.22488,25055.0,-592.072,9382.41,85.8764,242.151,-164.178,-1503.1,9759.03,530.309,-23.7967,-31.5963,-59.6123,-13166.2,-21174.5,830.492,-56.7278,11.5033,-292.183,219.134,9236.14,-1410.37,-9.80003,-49.1328,-46.9079,-5166.33,5935.01,-270.808,9.27874,135.779,-10.9054,6357.12,1893.46,830.78,-45.1756,-43.2078,2.56204
4.299,5564.52,2643.89,7281.74,5.21391,-82.4672,-1.06341,25133.0,-492.211,9212.41,85.1475,240.682,-164.768,-1492.97,9759.12,549.127,-23.949,-31.3923,-59.7218,-13230.9,-21168.7,732.67,-56.9537,12.417,-290.492,288.054,9235.8,-1418.39,-10.0005,-49.1612,-46.9539,-5323.45,6033.57,-199.463,10.1632,136.341,-10.4756,6325.32,1888.56,800.48,-45.1222,-43.2431,2.57715
4.2995,5575.69,2659.94,7266.26,5.38131,-82.4248,-0.901945,25210.9,-392.349,9042.4,84.4187,239.213,-165.357,-1482.84,9759.22,567.946,-24.1013,-31.1883,-59.8312,-13295.6,-21163.0,634.849,-57.1795,13.3308,-288.801,356.973,9235.46,-1426.41,-10.2009,-49.1896,-47.0,-5480.57,6132.13,-128.118,11.0478,136.903,-10.0458,6293.53,1883.66,770.18,-45.0688,-43.2783,2.59225
4.3,5586.87,2676.0,7250.79,5.54872,-82.3824,-0.740478,25288.8,-292.488,8872.4,83.6898,237.744,-165.947,-1472.71,9759.31,586.764,-24.2536,-30.9843,-59.9407,-13360.3,-21157.3,537.027,-57.4053,14.2445,-287.109,425.892,9235.12,-1434.43,-10.4014,-49.218,-47.046,-5637.69,6230.69,-56.7734,11.9323,137.465,-9.61605,6261.73,1878.76,739.88,-45.0155,-43.3135,2.60736
4.3005,5598.05,2692.05,7235.31,5.71612,-82.34,-0.57901,25366.7,-192.626,8702.4,82.961,236.276,-166.536,-1462.59,9759.4,605.583,-24.4059,-30.7803,-60.0502,-13425.0,-21151.6,439.206,-57.6312,15.1582,-285.418,494.811,9234.78,-1442.46,-10.6018,-49.2464,-47.0921,-5794.81,6329.25,14.5716,12.8168,138.027,-9.18628,6229.94,1873.85,709.58,-44.9621,-43.3488,2.62247
4.301,5609.23,2708.1,7219.84,5.88352,-82.2976,-0.417543,25444.7,-92.7645,8532.39,82.2321,234.807,-167.125,-1452.46,9759.49,624.401,-24.5582,-30.5763,-60.1596,-13489.7,-21145.9,341.384,-57.857,16.072,-283.726,563.73,9234.44,-1450.48,-10.8023,-49.2748,-47.1381,-5951.93,6427.81,85.9165,13.7013,138.589,-8.75651,6198.14,1868.95,679.28,-44.9088,-43.384,2.63758
4.3015,5620.41,2724.16,7204.36,6.05093,-82.2552,-0.256075,25522.6,7.09706,8362.39,81.5033,233.338,-167.715,-1442.33,9759.58,643.22,-24.7105,-30.3723,-60.2691,-13554.4,-21140.1,243.562,-58.0828,16.9857,-282.035,632.65,9234.1,-1458.5,-11.0027,-49.3033,-47.1842,-6109.05,6526.37,157.261,14.5858,139.151,-8.32674,6166.34,1864.05,648.98,-44.8554,-43.4192,2.65268
4.302,5631.58,2740.21,7188.88,6.21833,-82.2128,-0.0946075,25600.5,106.959,8192.39,80.7744,231.869,-168.304,-1432.2,9759.67,662.039,-24.8629,-30.1682,-60.3785,-13619.2,-21134.4,145.741,-58.3087,17.8994,-280.344,701.569,9233.75,-1466.52,-11.2032,-49.3317,-47.2302,-6266.17,6624.93,228.606,15.4703,139.713,-7.89698,6134.55,1859.15,618.68,-44.802,-43.4545,2.66779
4.3025,5642.29,2752.79,7175.8,6.4158,-82.1425,0.112742,25674.1,161.408,8022.94,79.7155,230.315,-168.848,-1425.21,9752.75,674.867,-25.0041,-29.9896,-60.5214,-13652.7,-21119.6,53.9697,-58.5015,19.4319,-278.548,766.454,9221.05,-1475.55,-11.3598,-49.2915,-47.2401,-6438.09,6680.28,315.951,16.0361,139.779,-7.82763,6105.64,1853.86,598.559,-44.7155,-43.3552,2.64091
4.303,5652.62,2762.6,7164.63,6.63733,-82.05,0.356798,25744.1,179.529,7853.94,78.3926,228.692,-169.357,-1420.73,9740.21,682.904,-25.1365,-29.8312,-60.6911,-13661.2,-21097.6,-32.9607,-58.6679,21.4594,-276.67,828.111,9198.46,-1485.37,-11.4814,-49.1965,-47.2212,-6621.85,6701.06,416.096,16.347,139.448,-8.04663,6079.05,1848.28,586.581,-44.6026,-43.1483,2.58043
4.3035,5662.95,2772.4,7153.45,6.85886,-81.9575,0.600853,25814.2,197.649,7684.94,77.0697,227.068,-169.865,-1416.25,9727.67,690.941,-25.2689,-29.6729,-60.8608,-13669.7,-21075.7,-119.891,-58.8343,23.4869,-274.791,889.769,9175.87,-1495.19,-11.603,-49.1015,-47.2022,-6805.6,6721.84,516.242,16.6579,139.117,-8.26563,6052.45,1842.69,574.603,-44.4896,-42.9414,2.51995
4.304,5673.28,2782.2,7142.28,7.08039,-81.8649,0.844908,25884.3,215.769,7515.94,75.7468,225.445,-170.373,-1411.78,9715.13,698.977,-25.4013,-29.5145,-61.0305,-13678.3,-21053.7,-206.822,-59.0006,25.5144,-272.913,951.426,9153.27,-1505.02,-11.7245,-49.0064,-47.1833,-6989.36,6742.62,616.387,16.9688,138.786,-8.48462,6025.85,1837.1,562.625,-44.3766,-42.7345,2.45947
4.3045,5683.61,2792.01,7131.11,7.30191,-81.7724,1.08896,25954.3,233.889,7346.93,74.4239,223.822,-170.881,-1407.3,9702.59,707.014,-25.5337,-29.3561,-61.2002,-13686.8,-21031.7,-293.752,-59.167,27.5419,-271.034,1013.08,9130.68,-1514.84,-11.8461,-48.9114,-47.1643,-7173.11,6763.4,716.532,17.2797,138.455,-8.70362,5999.26,1831.51,550.647,-44.2636,-42.5276,2.39899
