Time,RFoot_accel.x,RFoot_accel.y,RFoot_accel.z,RFoot_gyro.x,RFoot_gyro.y,RFoot_gyro.z,LFoot_accel.x,LFoot_accel.y,LFoot_accel.z,LFoot_gyro.x,LFoot_gyro.y,LFoot_gyro.z,RShank_accel.x,RShank_accel.y,RShank_accel.z,RShank_gyro.x,RShank_gyro.y,RShank_gyro.z,LShank_accel.x,LShank_accel.y,LShank_accel.z,LShank_gyro.x,LShank_gyro.y,LShank_gyro.z,RThigh_accel.x,RThigh_accel.y,RThigh_accel.z,RThigh_gyro.x,RThigh_gyro.y,RThigh_gyro.z,LThigh_accel.x,LThigh_accel.y,LThigh_accel.z,LThigh_gyro.x,LThigh_gyro.y,LThigh_gyro.z,Pelvis_accel.x,Pelvis_accel.y,Pelvis_accel.z,Pelvis_gyro.x,Pelvis_gyro.y,Pelvis_gyro.z
5.28,4268.82,2058.29,8697.31,-21.7507,-66.8888,-36.4892,19584.4,3102.59,14369.9,56.6181,280.54,-178.76,-429.835,10429.8,-646.995,-17.6354,-71.6686,-55.2043,-5789.55,-20261.6,-1437.3,-89.6245,74.5712,-347.078,-1047.73,9602.25,-1495.75,-7.06063,-81.9406,-49.3198,6929.99,6248.01,4007.39,-94.0293,27.2251,-79.143,9132.35,489.415,992.581,-65.2321,-17.4183,0.911633
5.2805,4282.31,2059.78,8709.79,-21.6676,-67.0355,-36.2406,19714.7,3250.56,14258.3,56.0443,280.091,-179.371,-423.748,10438.7,-643.503,-17.677,-71.4272,-55.3632,-5847.81,-20303.1,-1469.5,-89.2518,74.3157,-346.834,-1000.82,9619.45,-1503.24,-7.28435,-82.3984,-49.2599,6703.73,6230.87,3953.98,-93.8122,29.0884,-77.6066,9156.25,517.211,1031.39,-65.2761,-18.2017,0.806339
5.281,4295.8,2061.28,8722.27,-21.5844,-67.1822,-35.992,19844.9,3398.54,14146.8,55.4706,279.642,-179.982,-417.66,10447.5,-640.01,-17.7185,-71.1858,-55.522,-5906.08,-20344.5,-1501.71,-88.879,74.0602,-346.589,-953.911,9636.65,-1510.72,-7.50807,-82.8563,-49.2,6477.47,6213.74,3900.56,-93.5951,30.9516,-76.0701,9180.14,545.008,1070.19,-65.3201,-18.985,0.701045
5.2815,4309.29,2062.77,8734.75,-21.5012,-67.3289,-35.7434,19975.2,3546.51,14035.2,54.8969,279.193,-180.593,-411.573,10456.4,-636.517,-17.76,-70.9444,-55.6809,-5964.35,-20386.0,-1533.92,-88.5063,73.8048,-346.344,-907.002,9653.86,-1518.2,-7.7318,-83.3142,-49.1401,6251.22,6196.6,3847.15,-93.378,32.8149,-74.5337,9204.04,572.804,1109.0,-65.3641,-19.7684,0.595751
5.282,4322.78,2064.26,8747.23,-21.4181,-67.4756,-35.4948,20105.5,3694.48,13923.6,54.3232,278.743,-181.204,-405.486,10465.2,-633.024,-17.8015,-70.703,-55.8397,-6022.61,-20427.5,-1566.12,-88.1335,73.5493,-346.1,-860.094,9671.06,-1525.68,-7.95552,-83.7721,-49.0802,6024.96,6179.46,3793.73,-93.1609,34.6782,-72.9972,9227.94,600.601,1147.8,-65.4081,-20.5517,0.490456
5.2825,4336.27,2065.75,8759.71,-21.3349,-67.6223,-35.2463,20235.8,3842.46,13812.1,53.7495,278.294,-181.815,-399.399,10474.1,-629.532,-17.843,-70.4616,-55.9986,-6080.88,-20468.9,-1598.33,-87.7608,73.2938,-345.855,-813.185,9688.26,-1533.16,-8.17925,-84.23,-49.0203,5798.71,6162.33,3740.31,-92.9438,36.5415,-71.4608,9251.84,628.398,1186.61,-65.4522,-21.3351,0.385162
5.283,4349.77,2067.25,8772.19,-21.2518,-67.769,-34.9977,20366.1,3990.43,13700.5,53.1757,277.845,-182.427,-393.312,10483.0,-626.039,-17.8845,-70.2202,-56.1574,-6139.15,-20510.4,-1630.54,-87.3881,73.0384,-345.61,-766.276,9705.46,-1540.64,-8.40297,-84.6878,-48.9604,5572.45,6145.19,3686.9,-92.7267,38.4048,-69.9243,9275.74,656.194,1225.41,-65.4962,-22.1184,0.279868
5.2835,4363.26,2068.74,8784.67,-21.1686,-67.9158,-34.7491,20496.3,4138.41,13589.0,52.602,277.396,-183.038,-387.225,10491.8,-622.546,-17.926,-69.9788,-56.3163,-6197.41,-20551.8,-1662.74,-87.0153,72.7829,-345.366,-719.368,9722.67,-1548.12,-8.6267,-85.1457,-48.9005,5346.19,6128.06,3633.48,-92.5096,40.2681,-68.3878,9299.63,683.991,1264.22,-65.5402,-22.9018,0.174574
5.284,4376.75,2070.23,8797.14,-21.0854,-68.0625,-34.5005,20626.6,4286.38,13477.4,52.0283,276.947,-183.649,-381.137,10500.7,-619.053,-17.9675,-69.7374,-56.4751,-6255.68,-20593.3,-1694.95,-86.6426,72.5274,-345.121,-672.459,9739.87,-1555.6,-8.85042,-85.6036,-48.8406,5119.94,6110.92,3580.07,-92.2925,42.1313,-66.8514,9323.53,711.787,1303.03,-65.5842,-23.6851,0.0692793
5.2845,4388.3,2071.85,8809.78,-21.0043,-68.2177,-34.2648,20750.4,4391.6,13374.7,51.5698,276.397,-184.435,-375.04,10508.7,-613.965,-18.0066,-69.5055,-56.6376,-6318.8,-20633.4,-1739.18,-86.2974,72.4076,-344.839,-624.731,9757.03,-1563.66,-9.06727,-86.043,-48.7819,4893.33,6087.8,3518.17,-91.9011,43.9212,-65.3373,9342.91,735.857,1338.78,-65.5937,-24.4619,-0.0454037
5.285,4384.31,2074.46,8823.66,-20.9397,-68.4413,-34.133,20822.1,4154.82,13342.6,52.0327,275.049,-186.625,-368.864,10510.0,-596.114,-18.0265,-69.3489,-56.8289,-6420.73,-20662.8,-1879.63,-86.1727,73.3728,-344.256,-570.441,9773.86,-1576.35,-9.22909,-86.3343,-48.7326,4663.97,6016.77,3388.45,-90.1154,45.124,-64.0021,9326.17,730.112,1350.13,-65.3274,-25.1866,-0.235197
5.2855,4380.31,2077.07,8837.54,-20.875,-68.6648,-34.0012,20893.9,3918.04,13310.5,52.4957,273.701,-188.815,-362.687,10511.2,-578.263,-18.0463,-69.1924,-57.0202,-6522.67,-20692.3,-2020.08,-86.048,74.338,-343.673,-516.151,9790.68,-1589.05,-9.39092,-86.6257,-48.6832,4434.6,5945.74,3258.72,-88.3296,46.3267,-62.6669,9309.43,724.366,1361.47,-65.0611,-25.9112,-0.42499
5.286,4376.32,2079.69,8851.43,-20.8104,-68.8883,-33.8695,20965.6,3681.25,13278.5,52.9586,272.352,-191.004,-356.51,10512.5,-560.412,-18.0661,-69.0358,-57.2115,-6624.61,-20721.7,-2160.53,-85.9234,75.3032,-343.091,-461.861,9807.51,-1601.75,-9.55274,-86.9171,-48.6339,4205.24,5874.72,3129.0,-86.5439,47.5294,-61.3317,9292.69,718.621,1372.82,-64.7948,-26.6358,-0.614783
5.2865,4372.33,2082.3,8865.31,-20.7457,-69.1119,-33.7377,21037.4,3444.47,13246.4,53.4215,271.004,-193.194,-350.334,10513.8,-542.56,-18.086,-68.8792,-57.4028,-6726.54,-20751.2,-2300.98,-85.7987,76.2683,-342.508,-407.571,9824.33,-1614.44,-9.71456,-87.2085,-48.5845,3975.87,5803.69,2999.27,-84.7581,48.7322,-59.9965,9275.95,712.876,1384.17,-64.5285,-27.3605,-0.804576
5.287,4368.34,2084.91,8879.19,-20.6811,-69.3354,-33.6059,21109.1,3207.68,13214.4,53.8845,269.655,-195.383,-344.157,10515.0,-524.709,-18.1058,-68.7227,-57.5941,-6828.48,-20780.6,-2441.43,-85.674,77.2335,-341.925,-353.281,9841.16,-1627.14,-9.87639,-87.4998,-48.5352,3746.5,5732.66,2869.55,-82.9723,49.9349,-58.6613,9259.2,707.131,1395.51,-64.2623,-28.0851,-0.994369
5.2875,4364.35,2087.53,8893.08,-20.6164,-69.559,-33.4741,21180.9,2970.9,13182.3,54.3474,268.307,-197.573,-337.98,10516.3,-506.858,-18.1256,-68.5661,-57.7854,-6930.42,-20810.1,-2581.88,-85.5493,78.1987,-341.343,-298.991,9857.99,-1639.83,-10.0382,-87.7912,-48.4858,3517.14,5661.64,2739.82,-81.1866,51.1377,-57.3261,9242.46,701.385,1406.86,-63.996,-28.8097,-1.18416
5.288,4360.36,2090.14,8906.96,-20.5518,-69.7825,-33.3423,21252.6,2734.11,13150.3,54.8104,266.959,-199.763,-331.804,10517.6,-489.007,-18.1455,-68.4096,-57.9767,-7032.35,-20839.5,-2722.33,-85.4246,79.1639,-340.76,-244.701,9874.81,-1652.53,-10.2,-88.0826,-48.4365,3287.77,5590.61,2610.09,-79.4008,52.3404,-55.9909,9225.72,695.64,1418.21,-63.7297,-29.5343,-1.37396
5.2885,4356.37,2092.75,8920.84,-20.4871,-70.0061,-33.2105,21324.4,2497.33,13118.2,55.2733,265.61,-201.952,-325.627,10518.8,-471.156,-18.1653,-68.253,-58.168,-7134.29,-20868.9,-2862.77,-85.2999,80.1291,-340.177,-190.412,9891.64,-1665.23,-10.3619,-88.3739,-48.3871,3058.4,5519.58,2480.37,-77.6151,53.5431,-54.6557,9208.98,689.895,1429.55,-63.4634,-30.259,-1.56375
5.289,4352.21,2097.05,8931.37,-20.4272,-70.221,-33.072,21388.4,2185.16,13076.0,55.7169,264.231,-204.259,-320.107,10522.8,-456.113,-18.2158,-68.1011,-58.3578,-7247.66,-20901.7,-2993.7,-85.1767,81.1364,-339.556,-134.33,9909.25,-1680.62,-10.5302,-88.6473,-48.3395,2848.99,5440.16,2335.66,-75.3741,54.5731,-53.3919,9193.33,695.516,1435.63,-63.1754,-30.892,-1.7727
5.2895,4347.49,2107.27,8930.15,-20.3838,-70.4057,-32.9099,21425.4,1609.15,12998.1,56.0928,262.742,-206.978,-316.886,10536.4,-450.902,-18.3736,-67.9653,-58.5426,-7401.02,-20946.2,-3091.29,-85.0585,82.2914,-338.799,-71.979,9929.62,-1705.43,-10.7216,-88.8578,-48.2978,2709.39,5331.35,2138.53,-71.5399,54.9981,-52.3779,9181.5,740.921,1423.29,-62.8117,-31.2042,-2.04872
5.29,4342.77,2117.48,8928.94,-20.3405,-70.5904,-32.7478,21462.5,1033.14,12920.1,56.4688,261.254,-209.696,-313.665,10550.0,-445.691,-18.5315,-67.8295,-58.7274,-7554.38,-20990.8,-3188.89,-84.9404,83.4464,-338.042,-9.62766,9949.99,-1730.25,-10.9129,-89.0683,-48.2561,2569.8,5222.54,1941.4,-67.7057,55.4231,-51.3639,9169.68,786.326,1410.94,-62.4479,-31.5165,-2.32474
5.2905,4338.04,2127.7,8927.72,-20.2971,-70.7752,-32.5857,21499.5,457.136,12842.2,56.8447,259.765,-212.415,-310.444,10563.6,-440.479,-18.6893,-67.6938,-58.9122,-7707.74,-21035.3,-3286.48,-84.8223,84.6014,-337.284,52.7237,9970.36,-1755.07,-11.1042,-89.2788,-48.2144,2430.21,5113.73,1744.27,-63.8715,55.8481,-50.3498,9157.86,831.731,1398.6,-62.0841,-31.8288,-2.60075
5.291,4333.32,2137.91,8926.5,-20.2538,-70.9599,-32.4236,21536.5,-118.873,12764.3,57.2206,258.277,-215.133,-307.223,10577.2,-435.268,-18.8471,-67.558,-59.097,-7861.11,-21079.8,-3384.08,-84.7041,85.7564,-336.527,115.075,9990.73,-1779.88,-11.2955,-89.4893,-48.1727,2290.61,5004.92,1547.14,-60.0373,56.2731,-49.3358,9146.03,877.136,1386.25,-61.7204,-32.141,-2.87677
5.2915,4328.6,2148.13,8925.29,-20.2104,-71.1447,-32.2615,21573.5,-694.881,12686.4,57.5965,256.788,-217.852,-304.002,10590.8,-430.056,-19.005,-67.4222,-59.2818,-8014.47,-21124.3,-3481.67,-84.586,86.9114,-335.77,177.426,10011.1,-1804.7,-11.4869,-89.6998,-48.131,2151.02,4896.11,1350.01,-56.2031,56.6981,-48.3218,9134.21,922.541,1373.91,-61.3566,-32.4533,-3.15279
5.292,4323.88,2158.34,8924.07,-20.1671,-71.3294,-32.0994,21610.5,-1270.89,12608.5,57.9724,255.3,-220.57,-300.782,10604.4,-424.845,-19.1628,-67.2864,-59.4666,-8167.83,-21168.8,-3579.26,-84.4679,88.0664,-335.013,239.778,10031.5,-1829.52,-11.6782,-89.9103,-48.0893,2011.43,4787.29,1152.88,-52.3689,57.1231,-47.3077,9122.38,967.945,1361.56,-60.9929,-32.7656,-3.4288
5.2925,4319.15,2168.55,8922.85,-20.1237,-71.5141,-31.9373,21647.5,-1846.9,12530.6,58.3484,253.811,-223.289,-297.561,10618.0,-419.634,-19.3207,-67.1507,-59.6514,-8321.2,-21213.3,-3676.86,-84.3497,89.2214,-334.256,302.129,10051.8,-1854.33,-11.8695,-90.1208,-48.0476,1871.83,4678.48,955.746,-48.5347,57.5481,-46.2937,9110.56,1013.35,1349.22,-60.6291,-33.0778,-3.70482
5.293,4314.43,2178.77,8921.64,-20.0804,-71.6989,-31.7752,21684.6,-2422.91,12452.7,58.7243,252.323,-226.007,-294.34,10631.5,-414.422,-19.4785,-67.0149,-59.8362,-8474.56,-21257.8,-3774.45,-84.2316,90.3764,-333.498,364.48,10072.2,-1879.15,-12.0609,-90.3313,-48.0059,1732.24,4569.67,758.615,-44.7005,57.9731,-45.2797,9098.73,1058.76,1336.88,-60.2653,-33.3901,-3.98084
5.2935,4309.4,2190.0,8919.74,-20.0343,-71.8664,-31.5837,21742.5,-2858.6,12334.5,59.1865,250.8,-227.755,-287.132,10642.2,-404.501,-19.624,-66.8613,-60.0445,-8622.8,-21303.0,-3778.93,-83.8365,91.0588,-332.708,429.72,10087.0,-1897.1,-12.1891,-90.4988,-47.949,1618.15,4502.5,550.567,-41.0675,58.4443,-44.2738,9083.08,1101.3,1331.53,-59.9361,-33.7703,-4.18276
5.294,4303.75,2203.27,8916.47,-19.983,-71.9995,-31.3332,21842.3,-3013.65,12135.6,59.8215,249.21,-227.56,-271.953,10647.0,-385.16,-19.7448,-66.6721,-60.2997,-8760.79,-21349.7,-3597.19,-82.8874,90.7961,-331.851,500.735,10090.5,-1901.34,-12.1911,-90.5805,-47.8615,1555.09,4518.61,320.687,-37.837,59.0077,-43.2844,9059.76,1138.14,1340.18,-59.6758,-34.2863,-4.2365
5.2945,4298.11,2216.53,8913.2,-19.9316,-72.1326,-31.0827,21942.1,-3168.7,11936.7,60.4564,247.62,-227.366,-256.773,10651.7,-365.819,-19.8656,-66.4829,-60.5549,-8898.78,-21396.4,-3415.45,-81.9384,90.5333,-330.994,571.75,10094.0,-1905.58,-12.1931,-90.6622,-47.7741,1492.02,4534.72,90.8066,-34.6065,59.5711,-42.2949,9036.45,1174.97,1348.83,-59.4155,-34.8024,-4.29023
5.295,4292.47,2229.8,8909.94,-19.8802,-72.2656,-30.8322,22041.9,-3323.75,11737.8,61.0914,246.029,-227.172,-241.593,10656.5,-346.478,-19.9864,-66.2938,-60.8101,-9036.77,-21443.1,-3233.7,-80.9893,90.2706,-330.136,642.766,10097.5,-1909.81,-12.1952,-90.7438,-47.6866,1428.96,4550.83,-139.074,-31.376,60.1345,-41.3055,9013.14,1211.81,1357.47,-59.1552,-35.3184,-4.34396
5.2955,4286.82,2243.06,8906.67,-19.8288,-72.3987,-30.5817,22141.8,-3478.8,11538.9,61.7263,244.439,-226.978,-226.413,10661.2,-327.136,-20.1072,-66.1046,-61.0654,-9174.76,-21489.8,-3051.96,-80.0403,90.0078,-329.279,713.781,10101.0,-1914.05,-12.1972,-90.8255,-47.5992,1365.89,4566.94,-368.954,-28.1454,60.6979,-40.316,8989.83,1248.64,1366.12,-58.895,-35.8344,-4.3977
5.296,4281.18,2256.33,8903.41,-19.7774,-72.5318,-30.3312,22241.6,-3633.85,11340.0,62.3612,242.849,-226.783,-211.234,10666.0,-307.795,-20.228,-65.9154,-61.3206,-9312.75,-21536.5,-2870.22,-79.0912,89.7451,-328.422,784.796,10104.5,-1918.28,-12.1993,-90.9072,-47.5117,1302.83,4583.05,-598.834,-24.9149,61.2613,-39.3265,8966.52,1285.48,1374.77,-58.6347,-36.3505,-4.45143
5.2965,4275.53,2269.59,8900.14,-19.726,-72.6649,-30.0807,22341.4,-3788.9,11141.1,62.9962,241.259,-226.589,-196.054,10670.8,-288.454,-20.3488,-65.7262,-61.5758,-9450.74,-21583.2,-2688.47,-78.1422,89.4824,-327.565,855.812,10108.0,-1922.52,-12.2013,-90.9889,-47.4243,1239.76,4599.16,-828.714,-21.6844,61.8247,-38.3371,8943.21,1322.32,1383.42,-58.3744,-36.8665,-4.50517
5.297,4269.89,2282.86,8896.87,-19.6747,-72.7979,-29.8302,22441.2,-3943.95,10942.3,63.6311,239.668,-226.395,-180.874,10675.5,-269.113,-20.4697,-65.537,-61.831,-9588.73,-21629.9,-2506.73,-77.1931,89.2196,-326.708,926.827,10111.5,-1926.76,-12.2033,-91.0705,-47.3368,1176.7,4615.27,-1058.59,-18.4539,62.3881,-37.3476,8919.89,1359.15,1392.07,-58.1141,-37.3826,-4.5589
5.2975,4264.24,2296.12,8893.61,-19.6233,-72.931,-29.5798,22541.0,-4099.0,10743.4,64.2661,238.078,-226.201,-165.694,10680.3,-249.772,-20.5905,-65.3479,-62.0862,-9726.71,-21676.6,-2324.99,-76.2441,88.9569,-325.851,997.842,10115.0,-1930.99,-12.2054,-91.1522,-47.2493,1113.63,4631.38,-1288.47,-15.2233,62.9515,-36.3582,8896.58,1395.99,1400.72,-57.8538,-37.8986,-4.61263
5.298,4265.9,2305.48,8886.98,-19.5233,-73.0707,-29.3032,22645.1,-4089.42,10555.2,65.3107,236.355,-225.303,-151.614,10684.5,-236.072,-20.7064,-65.1255,-62.3305,-9875.85,-21737.5,-2115.53,-75.3316,88.2364,-324.863,1066.49,10135.0,-1934.56,-12.2416,-91.2166,-47.1345,1054.1,4659.83,-1486.17,-12.4856,63.7934,-35.5148,8863.68,1435.79,1422.97,-57.5651,-38.5642,-4.71042
5.2985,4276.69,2309.95,8876.14,-19.3626,-73.2188,-28.9939,22754.5,-3874.05,10380.3,66.8674,234.467,-223.526,-138.908,10688.0,-229.425,-20.8162,-64.8617,-62.5612,-10038.9,-21816.3,-1871.44,-74.4648,86.9437,-323.712,1132.18,10175.6,-1937.28,-12.3207,-91.2593,-46.9853,998.979,4703.71,-1643.65,-10.3637,64.9834,-34.8541,8818.78,1479.3,1462.22,-57.2408,-39.4169,-4.86326
5.299,4287.48,2314.42,8865.3,-19.202,-73.3668,-28.6847,22864.0,-3658.68,10205.4,68.4242,232.579,-221.75,-126.202,10691.5,-222.778,-20.9261,-64.5979,-62.7918,-10202.0,-21895.0,-1627.34,-73.598,85.6511,-322.561,1197.88,10216.1,-1940.01,-12.3998,-91.3021,-46.8362,943.86,4747.59,-1801.13,-8.24187,66.1734,-34.1933,8773.88,1522.81,1501.47,-56.9165,-40.2695,-5.01611
5.2995,4298.27,2318.89,8854.46,-19.0413,-73.5149,-28.3754,22973.4,-3443.31,10030.5,69.9809,230.691,-219.973,-113.495,10695.0,-216.131,-21.0359,-64.3341,-63.0224,-10365.0,-21973.8,-1383.25,-72.7311,84.3584,-321.409,1263.57,10256.7,-1942.74,-12.4789,-91.3449,-46.6871,888.741,4791.48,-1958.6,-6.12002,67.3634,-33.5326,8728.98,1566.33,1540.71,-56.5921,-41.1222,-5.16895
5.3,4309.06,2323.37,8843.62,-18.8806,-73.6629,-28.0662,23082.8,-3227.95,9855.67,71.5377,228.803,-218.196,-100.789,10698.5,-209.484,-21.1458,-64.0703,-63.253,-10528.1,-22052.5,-1139.15,-71.8643,83.0658,-320.258,1329.26,10297.3,-1945.46,-12.558,-91.3876,-46.5379,833.621,4835.36,-2116.08,-3.99817,68.5535,-32.8719,8684.09,1609.84,1579.96,-56.2678,-41.9748,-5.3218
5.3005,4319.85,2327.84,8832.78,-18.7199,-73.811,-27.7569,23192.2,-3012.58,9680.8,73.0944,226.915,-216.42,-88.0831,10702.0,-202.836,-21.2556,-63.8065,-63.4836,-10691.1,-22131.3,-895.058,-70.9975,81.7731,-319.107,1394.96,10337.9,-1948.19,-12.6371,-91.4304,-46.3888,778.502,4879.24,-2273.55,-1.87633,69.7435,-32.2111,8639.19,1653.35,1619.21,-55.9435,-42.8275,-5.47464
5.301,4330.64,2332.31,8821.95,-18.5592,-73.959,-27.4477,23301.7,-2797.21,9505.92,74.6511,225.027,-214.643,-75.3769,10705.5,-196.189,-21.3655,-63.5427,-63.7143,-10854.2,-22210.1,-650.963,-70.1307,80.4805,-317.956,1460.65,10378.5,-1950.92,-12.7161,-91.4731,-46.2397,723.383,4923.12,-2431.03,0.245523,70.9335,-31.5504,8594.29,1696.86,1658.46,-55.6191,-43.6801,-5.62749
5.3015,4341.43,2336.78,8811.11,-18.3985,-74.107,-27.1384,23411.1,-2581.84,9331.05,76.2079,223.139,-212.867,-62.6707,10709.0,-189.542,-21.4753,-63.2789,-63.9449,-11017.3,-22288.8,-406.868,-69.2639,79.1878,-316.805,1526.34,10419.1,-1953.64,-12.7952,-91.5159,-46.0905,668.263,4967.0,-2588.5,2.36737,72.1235,-30.8897,8549.4,1740.37,1697.71,-55.2948,-44.5328,-5.78033
5.302,4352.22,2341.25,8800.27,-18.2379,-74.2551,-26.8292,23520.5,-2366.48,9156.17,77.7646,221.25,-211.09,-49.9645,10712.5,-182.895,-21.5852,-63.0151,-64.1755,-11180.3,-22367.6,-162.773,-68.3971,77.8952,-315.654,1592.04,10459.7,-1956.37,-12.8743,-91.5586,-45.9414,613.144,5010.89,-2745.98,4.48922,73.3136,-30.2289,8504.5,1783.89,1736.96,-54.9705,-45.3854,-5.93318
5.3025,4360.99,2339.26,8787.46,-18.1097,-74.4227,-26.5568,23624.3,-2233.86,9015.0,78.847,219.39,-210.032,-47.2546,10725.1,-177.095,-21.7386,-62.7341,-64.3874,-11335.3,-22425.8,-54.7002,-67.7936,76.8233,-314.429,1658.17,10473.4,-1961.69,-12.8964,-91.5194,-45.8056,536.788,5047.17,-2795.11,6.23314,74.6424,-29.6719,8448.53,1821.82,1761.36,-54.7366,-46.2274,-6.01588
5.303,4368.15,2332.11,8773.08,-18.0076,-74.606,-26.314,23723.7,-2167.45,8900.79,79.5498,217.552,-209.549,-52.5418,10744.9,-171.973,-21.9269,-62.4394,-64.5844,-11484.0,-22467.5,-55.4456,-67.4009,75.9282,-313.147,1724.67,10465.5,-1969.09,-12.8728,-91.4147,-45.6805,443.441,5077.38,-2757.57,7.6747,76.0823,-29.1977,8383.7,1855.28,1773.87,-54.575,-47.0609,-6.04246
5.3035,4375.3,2324.96,8758.7,-17.9055,-74.7894,-26.0711,23823.0,-2101.05,8786.58,80.2526,215.713,-209.065,-57.829,10764.7,-166.85,-22.1152,-62.1447,-64.7813,-11632.6,-22509.2,-56.191,-67.0081,75.0331,-311.865,1791.16,10457.7,-1976.48,-12.8493,-91.3099,-45.5555,350.095,5107.59,-2720.04,9.11627,77.5221,-28.7236,8318.87,1888.74,1786.39,-54.4134,-47.8943,-6.06904
5.304,4382.45,2317.8,8744.32,-17.8034,-74.9727,-25.8283,23922.3,-2034.64,8672.36,80.9555,213.875,-208.582,-63.1162,10784.5,-161.728,-22.3035,-61.85,-64.9782,-11781.2,-22551.0,-56.9365,-66.6154,74.138,-310.582,1857.66,10449.8,-1983.88,-12.8257,-91.2051,-45.4304,256.749,5137.79,-2682.5,10.5578,78.962,-28.2495,8254.04,1922.2,1798.9,-54.2518,-48.7278,-6.09561
5.3045,4389.61,2310.65,8729.94,-17.7012,-75.156,-25.5854,24021.7,-1968.23,8558.15,81.6583,212.037,-208.099,-68.4033,10804.4,-156.606,-22.4918,-61.5553,-65.1752,-11929.8,-22592.7,-57.6819,-66.2226,73.2428,-309.3,1924.15,10442.0,-1991.27,-12.8022,-91.1004,-45.3053,163.403,5168.0,-2644.96,11.9994,80.4019,-27.7754,8189.2,1955.67,1811.41,-54.0902,-49.5612,-6.12219
5.305,4396.76,2303.5,8715.56,-17.5991,-75.3393,-25.3426,24121.0,-1901.82,8443.94,82.3612,210.198,-207.616,-73.6905,10824.2,-151.484,-22.6802,-61.2606,-65.3721,-12078.4,-22634.5,-58.4273,-65.8298,72.3477,-308.017,1990.64,10434.1,-1998.67,-12.7786,-90.9956,-45.1802,70.0566,5198.21,-2607.42,13.441,81.8418,-27.3012,8124.37,1989.13,1823.93,-53.9286,-50.3947,-6.14877
5.3055,4403.92,2296.35,8701.18,-17.497,-75.5226,-25.0997,24220.4,-1835.41,8329.73,83.064,208.36,-207.132,-78.9777,10844.0,-146.362,-22.8685,-60.9659,-65.5691,-12227.0,-22676.2,-59.1728,-65.4371,71.4526,-306.735,2057.14,10426.3,-2006.06,-12.755,-90.8908,-45.0551,-23.2896,5228.42,-2569.88,14.8826,83.2816,-26.8271,8059.54,2022.59,1836.44,-53.7671,-51.2281,-6.17535
5.306,4411.07,2289.19,8686.8,-17.3949,-75.706,-24.8569,24319.7,-1769.0,8215.51,83.7668,206.522,-206.649,-84.2649,10863.8,-141.24,-23.0568,-60.6712,-65.766,-12375.6,-22718.0,-59.9182,-65.0443,70.5574,-305.452,2123.63,10418.5,-2013.46,-12.7315,-90.7861,-44.9301,-116.636,5258.63,-2532.35,16.3241,84.7215,-26.353,7994.71,2056.06,1848.96,-53.6055,-52.0616,-6.20193
5.3065,4418.23,2282.04,8672.42,-17.2928,-75.8893,-24.614,24419.0,-1702.59,8101.3,84.4697,204.684,-206.166,-89.552,10883.6,-136.117,-23.2451,-60.3764,-65.963,-12524.2,-22759.7,-60.6636,-64.6516,69.6623,-304.17,2190.13,10410.6,-2020.85,-12.7079,-90.6813,-44.805,-209.982,5288.83,-2494.81,17.7657,86.1614,-25.8788,7929.88,2089.52,1861.47,-53.4439,-52.895,-6.22851
5.307,4430.22,2277.03,8660.79,-17.2092,-76.0469,-24.4105,24551.1,-1746.2,7981.19,84.5726,202.973,-206.161,-84.9312,10890.8,-126.142,-23.4609,-60.0982,-66.1974,-12682.0,-22804.9,-116.758,-64.317,69.7418,-302.871,2254.55,10414.4,-2019.64,-12.7751,-90.5328,-44.7295,-323.819,5317.44,-2344.04,18.7018,87.1565,-25.6616,7883.08,2119.53,1867.03,-53.4287,-53.6496,-6.12617
5.3075,4444.63,2273.1,8650.54,-17.135,-76.1916,-24.2266,24699.5,-1844.82,7858.13,84.3755,201.327,-206.396,-75.3564,10891.7,-113.741,-23.6904,-59.8281,-66.4506,-12844.2,-22851.9,-200.526,-64.0116,70.3086,-301.565,2317.95,10424.0,-2014.13,-12.8876,-90.3625,-44.6788,-447.902,5345.24,-2136.67,19.3852,87.9293,-25.5728,7845.3,2147.83,1869.11,-53.4866,-54.3647,-5.95937
5.308,4459.03,2269.16,8640.29,-17.0608,-76.3363,-24.0428,24848.0,-1943.43,7735.06,84.1785,199.68,-206.63,-65.7815,10892.6,-101.339,-23.92,-59.5581,-66.7038,-13006.5,-22898.9,-284.294,-63.7062,70.8754,-300.259,2381.34,10433.7,-2008.62,-13.0001,-90.1922,-44.6281,-571.984,5373.04,-1929.29,20.0685,88.7021,-25.484,7807.51,2176.12,1871.19,-53.5446,-55.0797,-5.79257
5.3085,4473.44,2265.22,8630.04,-16.9866,-76.481,-23.8589,24996.4,-2042.05,7612.0,83.9814,198.033,-206.865,-56.2067,10893.5,-88.9371,-24.1495,-59.288,-66.957,-13168.8,-22945.8,-368.063,-63.4008,71.4422,-298.952,2444.73,10443.3,-2003.1,-13.1126,-90.0219,-44.5774,-696.067,5400.84,-1721.91,20.7519,89.4748,-25.3952,7769.73,2204.41,1873.28,-53.6025,-55.7948,-5.62578
5.309,4487.85,2261.29,8619.79,-16.9123,-76.6257,-23.675,25144.9,-2140.67,7488.94,83.7843,196.387,-207.099,-46.6318,10894.3,-76.5354,-24.379,-59.018,-67.2102,-13331.1,-22992.8,-451.831,-63.0954,72.0089,-297.646,2508.12,10452.9,-1997.59,-13.2251,-89.8515,-44.5267,-820.15,5428.64,-1514.53,21.4353,90.2476,-25.3064,7731.95,2232.7,1875.36,-53.6605,-56.5099,-5.45898
5.3095,4502.26,2257.35,8609.54,-16.8381,-76.7704,-23.4912,25293.3,-2239.28,7365.88,83.5872,194.74,-207.334,-37.057,10895.2,-64.1336,-24.6086,-58.7479,-67.4634,-13493.3,-23039.8,-535.599,-62.79,72.5757,-296.34,2571.52,10462.6,-1992.08,-13.3376,-89.6812,-44.476,-944.232,5456.44,-1307.15,22.1187,91.0204,-25.2175,7694.16,2260.99,1877.44,-53.7184,-57.225,-5.29218
5.31,4516.67,2253.42,8599.29,-16.7639,-76.9151,-23.3073,25441.7,-2337.9,7242.81,83.3902,193.094,-207.568,-27.4822,10896.1,-51.7319,-24.8381,-58.4779,-67.7166,-13655.6,-23086.7,-619.368,-62.4845,73.1425,-295.033,2634.91,10472.2,-1986.56,-13.4501,-89.5109,-44.4253,-1068.31,5484.24,-1099.78,22.802,91.7931,-25.1287,7656.38,2289.29,1879.52,-53.7764,-57.9401,-5.12538
5.3105,4531.08,2249.48,8589.04,-16.6897,-77.0598,-23.1234,25590.2,-2436.52,7119.75,83.1931,191.447,-207.803,-17.9073,10897.0,-39.3302,-25.0677,-58.2078,-67.9698,-13817.9,-23133.7,-703.136,-62.1791,73.7093,-293.727,2698.3,10481.8,-1981.05,-13.5626,-89.3406,-44.3746,-1192.4,5512.04,-892.398,23.4854,92.5659,-25.0399,7618.6,2317.58,1881.6,-53.8344,-58.6551,-4.95859
5.311,4545.48,2245.55,8578.79,-16.6154,-77.2045,-22.9395,25738.6,-2535.14,6996.69,82.996,189.801,-208.037,-8.33247,10897.9,-26.9285,-25.2972,-57.9378,-68.223,-13980.2,-23180.6,-786.905,-61.8737,74.2761,-292.421,2761.7,10491.5,-1975.54,-13.6751,-89.1702,-44.3239,-1316.48,5539.84,-685.02,24.1688,93.3387,-24.9511,7580.81,2345.87,1883.68,-53.8923,-59.3702,-4.79179
5.3115,4566.22,2257.77,8577.39,-16.4873,-77.3262,-22.6878,25937.0,-2581.94,6852.18,82.5031,188.372,-207.73,-4.74549,10895.4,-9.58854,-25.4642,-57.7094,-68.5199,-14094.3,-23212.0,-795.197,-61.6525,75.4037,-291.001,2818.47,10484.0,-1970.5,-13.7548,-88.9306,-44.2959,-1465.42,5574.35,-465.291,24.4116,93.1852,-25.049,7524.34,2362.73,1858.27,-53.596,-59.747,-4.75654
5.312,4588.76,2274.6,8578.51,-16.3438,-77.4413,-22.4168,26149.6,-2613.95,6701.54,81.9256,187.006,-207.268,-2.86931,10892.0,9.16233,-25.6134,-57.493,-68.8294,-14194.8,-23238.8,-781.925,-61.4553,76.6915,-289.549,2873.34,10471.7,-1965.6,-13.8251,-88.6712,-44.2745,-1621.46,5610.78,-242.033,24.5285,92.7671,-25.2003,7462.54,2376.33,1825.01,-53.1985,-60.0271,-4.75887
5.3125,4611.3,2291.44,8579.64,-16.2002,-77.5564,-22.1457,26362.2,-2645.96,6550.9,81.3481,185.64,-206.807,-0.993139,10888.7,27.9132,-25.7625,-57.2766,-69.1388,-14295.2,-23265.7,-768.653,-61.2582,77.9793,-288.096,2928.22,10459.4,-1960.71,-13.8954,-88.4118,-44.253,-1777.5,5647.2,-18.7752,24.6454,92.349,-25.3516,7400.73,2389.93,1791.74,-52.8011,-60.3072,-4.7612
5.313,4633.84,2308.27,8580.76,-16.0567,-77.6714,-21.8746,26574.8,-2677.96,6400.26,80.7706,184.273,-206.345,0.883035,10885.3,46.6641,-25.9116,-57.0602,-69.4483,-14395.6,-23292.5,-755.381,-61.061,79.2671,-286.644,2983.1,10447.0,-1955.81,-13.9657,-88.1524,-44.2316,-1933.54,5683.63,204.483,24.7624,91.9309,-25.5029,7338.92,2403.52,1758.47,-52.4036,-60.5873,-4.76353
5.3135,4656.38,2325.11,8581.88,-15.9132,-77.7865,-21.6035,26787.5,-2709.97,6249.63,80.1932,182.907,-205.883,2.75921,10881.9,65.4149,-26.0608,-56.8438,-69.7577,-14496.0,-23319.4,-742.109,-60.8638,80.5548,-285.192,3037.97,10434.7,-1950.91,-14.036,-87.893,-44.2101,-2089.59,5720.05,427.741,24.8793,91.5128,-25.6542,7277.11,2417.12,1725.21,-52.0061,-60.8674,-4.76586
5.314,4678.92,2341.95,8583.0,-15.7696,-77.9016,-21.3325,27000.1,-2741.98,6098.99,79.6157,181.541,-205.421,4.63538,10878.5,84.1658,-26.2099,-56.6273,-70.0672,-14596.5,-23346.2,-728.837,-60.6667,81.8426,-283.74,3092.85,10422.4,-1946.01,-14.1063,-87.6335,-44.1886,-2245.63,5756.48,650.999,24.9962,91.0947,-25.8054,7215.3,2430.72,1691.94,-51.6086,-61.1475,-4.76819
5.3145,4701.46,2358.78,8584.13,-15.6261,-78.0167,-21.0614,27212.7,-2773.98,5948.35,79.0382,180.174,-204.959,6.51156,10875.2,102.917,-26.3591,-56.4109,-70.3766,-14696.9,-23373.1,-715.565,-60.4695,83.1304,-282.288,3147.73,10410.1,-1941.11,-14.1766,-87.3741,-44.1672,-2401.67,5792.9,874.257,25.1131,90.6766,-25.9567,7153.49,2444.31,1658.67,-51.2111,-61.4276,-4.77053
5.315,4724.0,2375.62,8585.25,-15.4825,-78.1318,-20.7903,27425.3,-2805.99,5797.71,78.4607,178.808,-204.498,8.38773,10871.8,121.668,-26.5082,-56.1945,-70.6861,-14797.3,-23400.0,-702.292,-60.2723,84.4182,-280.836,3202.61,10397.7,-1936.21,-14.2469,-87.1147,-44.1457,-2557.71,5829.33,1097.51,25.2301,90.2585,-26.108,7091.68,2457.91,1625.41,-50.8136,-61.7077,-4.77286
5.3155,4746.54,2392.45,8586.37,-15.339,-78.2468,-20.5192,27637.9,-2838.0,5647.08,77.8832,177.442,-204.036,10.2639,10868.4,140.418,-26.6573,-55.9781,-70.9955,-14897.7,-23426.8,-689.02,-60.0752,85.706,-279.384,3257.48,10385.4,-1931.31,-14.3171,-86.8553,-44.1243,-2713.75,5865.75,1320.77,25.347,89.8404,-26.2593,7029.87,2471.51,1592.14,-50.4161,-61.9878,-4.77519
5.316,4748.06,2409.52,8581.67,-15.2345,-78.3495,-20.2295,27907.1,-2838.45,5490.42,76.7536,176.512,-203.012,8.46496,10851.6,160.969,-26.7809,-55.8016,-71.357,-14958.5,-23427.4,-656.246,-59.8786,86.9583,-277.725,3315.43,10363.1,-1932.07,-14.3085,-86.3844,-44.1513,-2905.53,5875.03,1496.7,26.2002,88.1775,-26.9286,7004.81,2471.75,1538.64,-50.0808,-61.9573,-4.86671
5.3165,4746.96,2426.61,8576.25,-15.1349,-78.4505,-19.9374,28183.2,-2834.96,5333.0,75.5551,175.637,-201.917,6.20664,10833.1,181.745,-26.9012,-55.6302,-71.725,-15014.3,-23424.8,-621.034,-59.682,88.2061,-276.04,3373.76,10339.6,-1933.54,-14.29,-85.887,-44.1845,-3101.78,5880.91,1666.71,27.1455,86.359,-27.6627,6984.33,2470.33,1482.61,-49.7532,-61.8879,-4.96939
5.317,4745.85,2443.7,8570.82,-15.0354,-78.5516,-19.6452,28459.4,-2831.47,5175.59,74.3565,174.762,-200.823,3.94831,10814.6,202.521,-27.0215,-55.4588,-72.093,-15070.2,-23422.2,-585.822,-59.4855,89.454,-274.356,3432.08,10316.0,-1935.0,-14.2714,-85.3896,-44.2176,-3298.03,5886.79,1836.72,28.0908,84.5405,-28.3968,6963.86,2468.91,1426.58,-49.4257,-61.8186,-5.07206
5.3175,4744.75,2460.79,8565.39,-14.9358,-78.6527,-19.3531,28735.6,-2827.99,5018.18,73.1579,173.886,-199.728,1.68998,10796.2,223.297,-27.1418,-55.2874,-72.461,-15126.0,-23419.5,-550.61,-59.2889,90.7018,-272.671,3490.41,10292.5,-1936.47,-14.2529,-84.8922,-44.2508,-3494.28,5892.66,2006.73,29.036,82.722,-29.1309,6943.39,2467.49,1370.56,-49.0981,-61.7493,-5.17474
5.318,4743.64,2477.88,8559.97,-14.8362,-78.7538,-19.061,29011.8,-2824.5,4860.77,71.9593,173.011,-198.634,-0.568346,10777.7,244.073,-27.2621,-55.116,-72.829,-15181.8,-23416.9,-515.398,-59.0924,91.9497,-270.987,3548.74,10268.9,-1937.94,-14.2344,-84.3948,-44.2839,-3690.53,5898.54,2176.74,29.9813,80.9036,-29.8651,6922.92,2466.07,1314.53,-48.7705,-61.68,-5.27741
5.3185,4742.54,2494.97,8554.54,-14.7366,-78.8549,-18.7689,29288.0,-2821.01,4703.35,70.7607,172.136,-197.539,-2.82667,10759.2,264.849,-27.3825,-54.9445,-73.197,-15237.6,-23414.3,-480.186,-58.8958,93.1976,-269.302,3607.07,10245.4,-1939.4,-14.2159,-83.8974,-44.317,-3886.78,5904.42,2346.75,30.9266,79.0851,-30.5992,6902.45,2464.65,1258.5,-48.443,-61.6106,-5.38009
5.319,4741.43,2512.06,8549.11,-14.637,-78.9559,-18.4768,29564.2,-2817.52,4545.94,69.5621,171.261,-196.445,-5.085,10740.7,285.625,-27.5028,-54.7731,-73.565,-15293.4,-23411.6,-444.973,-58.6993,94.4454,-267.618,3665.4,10221.9,-1940.87,-14.1974,-83.4,-44.3502,-4083.03,5910.3,2516.76,31.8718,77.2666,-31.3333,6881.98,2463.23,1202.47,-48.1154,-61.5413,-5.48276
5.3195,4740.32,2529.15,8543.69,-14.5374,-79.057,-18.1847,29840.3,-2814.03,4388.53,68.3635,170.386,-195.35,-7.34333,10722.2,306.401,-27.6231,-54.6017,-73.933,-15349.2,-23409.0,-409.761,-58.5027,95.6933,-265.933,3723.73,10198.3,-1942.34,-14.1788,-82.9026,-44.3833,-4279.28,5916.18,2686.77,32.8171,75.4481,-32.0674,6861.5,2461.81,1146.45,-47.7879,-61.472,-5.58544
5.32,4739.22,2546.24,8538.26,-14.4378,-79.1581,-17.8925,30116.5,-2810.54,4231.12,67.165,169.51,-194.256,-9.60166,10703.7,327.177,-27.7434,-54.4303,-74.301,-15405.1,-23406.3,-374.549,-58.3062,96.9411,-264.249,3782.06,10174.8,-1943.8,-14.1603,-82.4052,-44.4165,-4475.53,5922.06,2856.78,33.7624,73.6296,-32.8015,6841.03,2460.39,1090.42,-47.4603,-61.4027,-5.68811
5.3205,4730.47,2550.61,8534.12,-14.2379,-79.249,-17.6079,30351.9,-2689.51,4118.22,64.4846,169.047,-192.913,4.30433,10689.5,335.081,-27.8847,-54.2114,-74.6991,-15435.2,-23393.2,-301.923,-57.9388,97.6659,-262.329,3837.83,10119.7,-1956.03,-14.1937,-81.902,-44.3496,-4743.45,5911.89,2765.74,36.0455,71.7129,-33.749,6819.24,2474.25,1032.96,-47.3766,-61.1184,-5.80477
5.321,4721.72,2554.98,8529.98,-14.0379,-79.3399,-17.3232,30587.3,-2568.49,4005.32,61.8043,168.584,-191.571,18.2103,10675.3,342.986,-28.0261,-53.9925,-75.0972,-15465.4,-23380.1,-229.296,-57.5714,98.3907,-260.409,3893.59,10064.6,-1968.25,-14.227,-81.3988,-44.2827,-5011.36,5901.71,2674.7,38.3286,69.7961,-34.6966,6797.45,2488.11,975.497,-47.2928,-60.8341,-5.92144
5.3215,4712.98,2559.35,8525.83,-13.838,-79.4308,-17.0385,30822.6,-2447.46,3892.43,59.1239,168.121,-190.228,32.1163,10661.0,350.89,-28.1674,-53.7736,-75.4953,-15495.6,-23366.9,-156.669,-57.2041,99.1155,-258.489,3949.36,10009.6,-1980.48,-14.2604,-80.8956,-44.2158,-5279.28,5891.54,2583.66,40.6116,67.8793,-35.6441,6775.66,2501.98,918.036,-47.2091,-60.5498,-6.0381
5.322,4704.23,2563.72,8521.69,-13.638,-79.5217,-16.7538,31058.0,-2326.43,3779.53,56.4436,167.658,-188.886,46.0223,10646.8,358.794,-28.3088,-53.5547,-75.8934,-15525.8,-23353.8,-84.0426,-56.8367,99.8403,-256.569,4005.13,9954.48,-1992.71,-14.2938,-80.3924,-44.149,-5547.2,5881.36,2492.62,42.8947,65.9626,-36.5916,6753.87,2515.84,860.576,-47.1254,-60.2655,-6.15476
5.3225,4695.48,2568.09,8517.55,-13.4381,-79.6126,-16.4691,31293.4,-2205.4,3666.63,53.7632,167.195,-187.543,59.9283,10632.5,366.699,-28.4501,-53.3358,-76.2915,-15556.0,-23340.6,-11.416,-56.4693,100.565,-254.65,4060.9,9899.4,-2004.93,-14.3271,-79.8892,-44.0821,-5815.12,5871.19,2401.59,45.1778,64.0458,-37.5392,6732.08,2529.71,803.115,-47.0416,-59.9812,-6.27143
5.323,4686.73,2572.45,8513.41,-13.2382,-79.7035,-16.1844,31528.8,-2084.37,3553.74,51.0829,166.732,-186.2,73.8343,10618.3,374.603,-28.5914,-53.1169,-76.6896,-15586.2,-23327.5,61.2106,-56.102,101.29,-252.73,4116.67,9844.32,-2017.16,-14.3605,-79.386,-44.0152,-6083.03,5861.02,2310.55,47.4609,62.1291,-38.4867,6710.29,2543.57,745.655,-46.9579,-59.6969,-6.38809
5.3235,4677.98,2576.82,8509.27,-13.0382,-79.7944,-15.8997,31764.2,-1963.34,3440.84,48.4026,166.269,-184.858,87.7403,10604.0,382.507,-28.7328,-52.898,-77.0877,-15616.4,-23314.4,133.837,-55.7346,102.015,-250.81,4172.44,9789.24,-2029.38,-14.3939,-78.8828,-43.9484,-6350.95,5850.84,2219.51,49.744,60.2123,-39.4342,6688.5,2557.43,688.195,-46.8741,-59.4126,-6.50475
5.324,4669.23,2581.19,8505.13,-12.8383,-79.8853,-15.615,31999.5,-1842.31,3327.94,45.7222,165.806,-183.515,101.646,10589.8,390.411,-28.8741,-52.6791,-77.4858,-15646.6,-23301.2,206.464,-55.3672,102.74,-248.89,4228.21,9734.16,-2041.61,-14.4272,-78.3796,-43.8815,-6618.87,5840.67,2128.47,52.0271,58.2956,-40.3818,6666.71,2571.3,630.734,-46.7904,-59.1283,-6.62142
5.3245,4661.54,2585.08,8501.8,-12.6358,-79.9833,-15.326,32213.3,-1725.02,3230.89,43.1343,165.31,-182.256,116.259,10578.0,397.502,-29.017,-52.4454,-77.886,-15675.7,-23286.6,289.146,-55.0379,103.427,-247.018,4282.67,9681.85,-2051.08,-14.4494,-77.8591,-43.8325,-6888.19,5856.02,1983.83,54.4983,56.6321,-41.2012,6646.38,2584.14,572.422,-46.7567,-58.8228,-6.7092
5.325,4662.24,2585.1,8505.0,-12.4132,-80.1387,-15.0027,32254.7,-1637.65,3260.65,41.2855,164.551,-181.665,136.529,10585.6,398.079,-29.1728,-52.0939,-78.3029,-15696.9,-23260.1,452.268,-55.0126,103.821,-245.525,4326.67,9651.69,-2038.5,-14.3821,-77.1999,-43.9264,-7168.76,6075.58,1410.41,58.4747,56.9954,-40.9957,6637.73,2588.84,507.3,-47.1236,-58.3474,-6.56596
5.3255,4662.93,2585.13,8508.2,-12.1907,-80.2941,-14.6795,32296.0,-1550.27,3290.4,39.4367,163.791,-181.073,156.799,10593.2,398.657,-29.3285,-51.7424,-78.7199,-15718.1,-23233.5,615.391,-54.9873,104.215,-244.033,4370.68,9621.53,-2025.92,-14.3148,-76.5406,-44.0203,-7449.32,6295.13,836.978,62.451,57.3587,-40.7902,6629.08,2593.54,442.178,-47.4905,-57.8719,-6.42271
5.326,4663.63,2585.15,8511.4,-11.9681,-80.4494,-14.3562,32337.4,-1462.89,3320.15,37.5879,163.032,-180.481,177.069,10600.9,399.234,-29.4842,-51.3909,-79.1368,-15739.3,-23207.0,778.514,-54.962,104.608,-242.54,4414.68,9591.37,-2013.34,-14.2475,-75.8814,-44.1141,-7729.89,6514.68,263.55,66.4274,57.722,-40.5847,6620.44,2598.24,377.056,-47.8574,-57.3965,-6.27947
5.3265,4664.33,2585.18,8514.6,-11.7455,-80.6048,-14.033,32378.7,-1375.51,3349.91,35.7391,162.272,-179.89,197.339,10608.5,399.812,-29.64,-51.0394,-79.5537,-15760.5,-23180.5,941.636,-54.9367,105.002,-241.048,4458.68,9561.21,-2000.76,-14.1802,-75.2222,-44.208,-8010.45,6734.24,-309.878,70.4038,58.0852,-40.3791,6611.79,2602.94,311.933,-48.2243,-56.921,-6.13623
5.327,4665.03,2585.2,8517.8,-11.523,-80.7602,-13.7097,32420.1,-1288.13,3379.66,33.8903,161.513,-179.298,217.609,10616.1,400.39,-29.7957,-50.6878,-79.9706,-15781.7,-23154.0,1104.76,-54.9114,105.395,-239.555,4502.69,9531.04,-1988.18,-14.1129,-74.5629,-44.3019,-8291.02,6953.79,-883.306,74.3801,58.4485,-40.1736,6603.15,2607.64,246.811,-48.5912,-56.4455,-5.99298
5.3275,4665.73,2585.23,8521.0,-11.3004,-80.9156,-13.3865,32461.4,-1200.74,3409.42,32.0415,160.754,-178.707,237.879,10623.8,400.967,-29.9514,-50.3363,-80.3875,-15802.9,-23127.4,1267.88,-54.8861,105.789,-238.063,4546.69,9500.88,-1975.6,-14.0456,-73.9037,-44.3958,-8571.58,7173.35,-1456.73,78.3565,58.8118,-39.9681,6594.5,2612.33,181.689,-48.9581,-55.9701,-5.84974
5.328,4666.43,2585.25,8524.2,-11.0779,-81.0709,-13.0632,32502.8,-1113.37,3439.17,30.1927,159.994,-178.115,258.149,10631.4,401.545,-30.1071,-49.9848,-80.8045,-15824.1,-23100.9,1431.0,-54.8608,106.182,-236.57,4590.69,9470.72,-1963.02,-13.9784,-73.2445,-44.4897,-8852.15,7392.9,-2030.16,82.3328,59.1751,-39.7626,6585.85,2617.03,116.566,-49.325,-55.4946,-5.7065
5.3285,4667.13,2585.27,8527.4,-10.8553,-81.2263,-12.74,32544.1,-1025.98,3468.92,28.3439,159.235,-177.524,278.419,10639.0,402.122,-30.2629,-49.6333,-81.2214,-15845.2,-23074.4,1594.13,-54.8355,106.576,-235.078,4634.7,9440.56,-1950.44,-13.9111,-72.5852,-44.5836,-9132.71,7612.45,-2603.59,86.3092,59.5383,-39.5571,6577.21,2621.73,51.4442,-49.6918,-55.0192,-5.56325
5.329,4666.44,2585.7,8532.05,-10.6662,-81.3766,-12.4064,32503.2,-1089.03,3510.82,27.3554,158.225,-177.476,295.496,10644.8,401.387,-30.4198,-49.266,-81.653,-15873.4,-23050.4,1733.29,-54.5131,107.337,-233.667,4679.21,9409.12,-1949.36,-13.8387,-71.9441,-44.6523,-9384.66,7855.41,-3155.67,90.3114,60.0501,-39.0782,6569.02,2629.65,-0.639205,-49.8646,-54.5922,-5.47651
5.3295,4660.9,2587.55,8541.75,-10.5942,-81.5092,-12.0366,32174.5,-1678.57,3595.25,29.378,156.34,-179.331,301.397,10644.3,396.054,-30.5808,-48.8433,-82.1362,-15926.2,-23035.5,1788.62,-53.1508,109.388,-232.545,4725.54,9373.21,-1988.54,-13.7487,-71.3661,-44.6328,-9536.46,8180.26,-3633.02,94.4041,61.0817,-37.6427,6562.43,2648.85,-7.08651,-49.3576,-54.3351,-5.58754
5.33,4655.36,2589.4,8551.45,-10.5223,-81.6418,-11.6668,31845.9,-2268.11,3679.67,31.4005,154.456,-181.187,307.298,10643.7,390.722,-30.7418,-48.4207,-82.6194,-15979.0,-23020.6,1843.94,-51.7885,111.439,-231.422,4771.86,9337.29,-2027.72,-13.6586,-70.7882,-44.6132,-9688.26,8505.11,-4110.38,98.4969,62.1132,-36.2072,6555.84,2668.05,-13.5338,-48.8507,-54.0781,-5.69857
5.3305,4649.82,2591.25,8561.15,-10.4503,-81.7745,-11.2969,31517.2,-2857.65,3764.1,33.423,152.571,-183.042,313.199,10643.2,385.389,-30.9029,-47.998,-83.1026,-16031.8,-23005.6,1899.26,-50.4262,113.49,-230.299,4818.18,9301.38,-2066.9,-13.5686,-70.2103,-44.5937,-9840.06,8829.95,-4587.73,102.59,63.1447,-34.7717,6549.25,2687.25,-19.9811,-48.3438,-53.821,-5.8096
5.331,4644.28,2593.1,8570.86,-10.3784,-81.9071,-10.9271,31188.5,-3447.18,3848.52,35.4455,150.686,-184.897,319.099,10642.6,380.057,-31.0639,-47.5754,-83.5858,-16084.5,-22990.7,1954.58,-49.0639,115.541,-229.176,4864.51,9265.47,-2106.09,-13.4786,-69.6324,-44.5742,-9991.86,9154.8,-5065.09,106.682,64.1763,-33.3362,6542.66,2706.45,-26.4284,-47.8369,-53.5639,-5.92063
5.3315,4638.75,2594.95,8580.56,-10.3064,-82.0397,-10.5573,30859.8,-4036.72,3932.95,37.468,148.801,-186.752,325.0,10642.1,374.724,-31.2249,-47.1528,-84.069,-16137.3,-22975.8,2009.9,-47.7016,117.592,-228.054,4910.83,9229.56,-2145.27,-13.3885,-69.0544,-44.5547,-10143.7,9479.65,-5542.44,110.775,65.2078,-31.9007,6536.06,2725.65,-32.8758,-47.33,-53.3068,-6.03166
5.332,4633.21,2596.79,8590.26,-10.2345,-82.1723,-10.1875,30531.2,-4626.26,4017.37,39.4906,146.916,-188.607,330.901,10641.5,369.392,-31.3859,-46.7301,-84.5521,-16190.1,-22960.8,2065.22,-46.3393,119.643,-226.931,4957.15,9193.65,-2184.45,-13.2985,-68.4765,-44.5352,-10295.5,9804.5,-6019.8,114.868,66.2394,-30.4652,6529.47,2744.85,-39.3231,-46.823,-53.0497,-6.14269
5.3325,4627.67,2598.64,8599.96,-10.1625,-82.3049,-9.81765,30202.5,-5215.8,4101.79,41.5131,145.032,-190.463,336.802,10641.0,364.059,-31.5469,-46.3075,-85.0353,-16242.9,-22945.9,2120.55,-44.977,121.694,-225.808,5003.48,9157.74,-2223.63,-13.2085,-67.8986,-44.5157,-10447.3,10129.3,-6497.15,118.96,67.2709,-29.0297,6522.88,2764.06,-45.7704,-46.3161,-52.7926,-6.25371
5.333,4622.13,2600.49,8609.67,-10.0906,-82.4375,-9.44782,29873.8,-5805.34,4186.22,43.5356,143.147,-192.318,342.702,10640.4,358.727,-31.708,-45.8848,-85.5185,-16295.6,-22930.9,2175.87,-43.6146,123.745,-224.686,5049.8,9121.82,-2262.81,-13.1184,-67.3207,-44.4962,-10599.1,10454.2,-6974.51,123.053,68.3024,-27.5942,6516.29,2783.26,-52.2177,-45.8092,-52.5355,-6.36474
5.3335,4618.98,2602.44,8626.85,-9.94772,-82.5768,-9.06487,29521.7,-6527.24,4182.15,44.8779,141.22,-194.153,345.133,10640.1,351.481,-31.8704,-45.468,-86.015,-16378.1,-22883.8,2185.83,-42.2213,125.729,-223.381,5091.79,9092.75,-2293.39,-13.0645,-66.7198,-44.4604,-10666.0,10781.9,-7297.38,126.124,69.1479,-25.9951,6514.93,2803.44,-50.5963,-45.0385,-52.264,-6.54781
5.334,4620.62,2604.6,8658.98,-9.66312,-82.7295,-8.65564,29122.5,-7513.87,4001.08,44.8598,139.208,-195.946,340.622,10640.3,340.408,-32.0356,-45.0626,-86.5382,-16520.0,-22772.3,2105.08,-40.766,127.58,-221.712,5125.13,9077.36,-2306.76,-13.083,-66.0729,-44.3918,-10563.2,11115.4,-7311.28,127.152,69.6214,-24.0685,6524.0,2825.6,-32.8377,-43.7402,-51.9636,-6.87497
5.3345,4622.25,2606.76,8691.12,-9.37852,-82.8821,-8.24642,28723.4,-8500.5,3820.01,44.8418,137.196,-197.74,336.111,10640.4,329.335,-32.2007,-44.6572,-87.0614,-16661.9,-22660.8,2024.34,-39.3106,129.431,-220.044,5158.46,9061.97,-2320.13,-13.1014,-65.4261,-44.3233,-10460.4,11448.9,-7325.19,128.18,70.0948,-22.1419,6533.08,2847.76,-15.079,-42.442,-51.6632,-7.20213
5.335,4623.89,2608.91,8723.26,-9.09391,-83.0348,-7.83719,28324.3,-9487.13,3638.94,44.8237,135.184,-199.533,331.6,10640.6,318.262,-32.3659,-44.2518,-87.5846,-16803.8,-22549.3,1943.59,-37.8553,131.282,-218.375,5191.79,9046.57,-2333.51,-13.1198,-64.7792,-44.2548,-10357.6,11782.3,-7339.09,129.208,70.5683,-20.2153,6542.16,2869.92,2.67962,-41.1437,-51.3629,-7.52929
5.3355,4625.52,2611.07,8755.39,-8.80931,-83.1875,-7.42797,27925.2,-10473.8,3457.87,44.8056,133.172,-201.327,327.089,10640.7,307.189,-32.5311,-43.8464,-88.1078,-16945.7,-22437.8,1862.84,-36.4,133.133,-216.707,5225.13,9031.18,-2346.88,-13.1382,-64.1324,-44.1863,-10254.8,12115.8,-7353.0,130.236,71.0417,-18.2887,6551.24,2892.08,20.4383,-39.8454,-51.0625,-7.85644
5.336,4627.16,2613.23,8787.53,-8.52471,-83.3402,-7.01874,27526.1,-11460.4,3276.8,44.7875,131.161,-203.12,322.578,10640.9,296.116,-32.6963,-43.441,-88.631,-17087.6,-22326.3,1782.09,-34.9446,134.984,-215.038,5258.46,9015.79,-2360.25,-13.1566,-63.4855,-44.1178,-10152.0,12449.3,-7366.9,131.264,71.5152,-16.3621,6560.32,2914.24,38.1969,-38.5472,-50.7622,-8.1836
5.3365,4628.8,2615.38,8819.67,-8.24011,-83.4929,-6.60952,27126.9,-12447.0,3095.73,44.7694,129.149,-204.914,318.067,10641.1,285.043,-32.8614,-43.0357,-89.1542,-17229.5,-22214.8,1701.34,-33.4893,136.835,-213.369,5291.8,9000.4,-2373.62,-13.1751,-62.8387,-44.0493,-10049.3,12782.7,-7380.81,132.292,71.9886,-14.4355,6569.4,2936.4,55.9556,-37.2489,-50.4618,-8.51076
5.337,4630.43,2617.54,8851.8,-7.95551,-83.6455,-6.2003,26727.8,-13433.7,2914.67,44.7514,127.137,-206.707,313.556,10641.2,273.97,-33.0266,-42.6303,-89.6774,-17371.4,-22103.3,1620.59,-32.034,138.686,-211.701,5325.13,8985.01,-2387.0,-13.1935,-62.1918,-43.9808,-9946.46,13116.2,-7394.71,133.32,72.4621,-12.5089,6578.48,2958.56,73.7142,-35.9506,-50.1614,-8.83792
5.3375,4632.07,2619.7,8883.94,-7.67091,-83.7982,-5.79107,26328.7,-14420.3,2733.6,44.7333,125.125,-208.501,309.046,10641.4,262.897,-33.1918,-42.2249,-90.2006,-17513.3,-21991.8,1539.84,-30.5786,140.537,-210.032,5358.47,8969.62,-2400.37,-13.2119,-61.545,-43.9122,-9843.67,13449.7,-7408.62,134.348,72.9355,-10.5824,6587.55,2980.72,91.4729,-34.6524,-49.8611,-9.16508
5.338,4633.43,2615.48,8920.22,-7.3833,-84.0464,-5.38629,26059.6,-14953.2,2581.5,45.1908,123.223,-208.296,314.081,10649.3,248.015,-33.3497,-41.8123,-90.7697,-17622.2,-21902.9,1571.43,-29.1621,141.429,-208.654,5393.7,8950.55,-2423.17,-13.1489,-60.8836,-43.8755,-9707.81,13726.4,-7502.12,134.359,74.2188,-8.53104,6611.67,3009.02,143.614,-33.2321,-49.5518,-9.45785
5.3385,4634.46,2603.28,8961.69,-7.09191,-84.4138,-4.98705,25953.2,-14918.9,2465.62,46.2428,121.458,-205.593,331.048,10666.9,228.371,-33.4987,-41.3907,-91.3962,-17689.9,-21842.4,1743.44,-27.794,141.123,-207.64,5431.3,8926.91,-2457.76,-12.984,-60.204,-43.8784,-9530.63,13932.2,-7695.11,133.098,76.5144,-6.32383,6654.59,3044.99,238.733,-31.6593,-49.2313,-9.70763
5.339,4635.49,2591.09,9003.16,-6.80053,-84.7812,-4.58782,25846.7,-14884.7,2349.74,47.2948,119.693,-202.89,348.016,10684.5,208.727,-33.6477,-40.9691,-92.0227,-17757.7,-21781.8,1915.45,-26.4259,140.817,-206.626,5468.9,8903.26,-2492.35,-12.8191,-59.5245,-43.8813,-9353.45,14137.9,-7888.1,131.838,78.81,-4.11662,6697.51,3080.95,333.852,-30.0865,-48.9109,-9.95742
5.3395,4636.52,2578.89,9044.63,-6.50914,-85.1487,-4.18859,25740.3,-14850.4,2233.86,48.3468,117.928,-200.187,364.984,10702.1,189.083,-33.7966,-40.5475,-92.6492,-17825.4,-21721.2,2087.46,-25.0579,140.51,-205.611,5506.5,8879.61,-2526.94,-12.6542,-58.8449,-43.8842,-9176.26,14343.7,-8081.1,130.577,81.1056,-1.90941,6740.43,3116.92,428.97,-28.5137,-48.5904,-10.2072
5.34,4637.55,2566.7,9086.1,-6.21776,-85.5161,-3.78935,25633.8,-14816.2,2117.98,49.3988,116.163,-197.485,381.952,10719.7,169.439,-33.9456,-40.1259,-93.2758,-17893.1,-21660.7,2259.47,-23.6898,140.204,-204.597,5544.1,8855.96,-2561.53,-12.4893,-58.1654,-43.8871,-8999.08,14549.5,-8274.09,129.316,83.4012,0.297803,6783.34,3152.89,524.089,-26.941,-48.2699,-10.457
5.3405,4638.58,2554.51,9127.57,-5.92638,-85.8835,-3.39012,25527.3,-14782.0,2002.1,50.4508,114.398,-194.782,398.919,10737.3,149.794,-34.0945,-39.7043,-93.9023,-17960.8,-21600.1,2431.48,-22.3217,139.898,-203.582,5581.7,8832.32,-2596.12,-12.3245,-57.4858,-43.89,-8821.89,14755.2,-8467.08,128.056,85.6968,2.50501,6826.26,3188.86,619.208,-25.3682,-47.9495,-10.7068
5.341,4639.61,2542.31,9169.03,-5.63499,-86.251,-2.99089,25420.9,-14747.7,1886.21,51.5028,112.633,-192.079,415.887,10755.0,130.15,-34.2435,-39.2827,-94.5288,-18028.5,-21539.6,2603.49,-20.9536,139.592,-202.568,5619.3,8808.67,-2630.71,-12.1596,-56.8062,-43.8929,-8644.71,14961.0,-8660.07,126.795,87.9924,4.71223,6869.18,3224.83,714.327,-23.7954,-47.629,-10.9566
5.3415,4640.64,2530.12,9210.5,-5.34361,-86.6184,-2.59166,25314.4,-14713.5,1770.33,52.5548,110.869,-189.376,432.855,10772.6,110.506,-34.3924,-38.8611,-95.1553,-18096.2,-21479.0,2775.5,-19.5856,139.285,-201.553,5656.9,8785.02,-2665.3,-11.9947,-56.1267,-43.8958,-8467.53,15166.8,-8853.07,125.534,90.288,6.91944,6912.1,3260.79,809.446,-22.2226,-47.3085,-11.2064
5.342,4641.67,2517.93,9251.97,-5.05223,-86.9859,-2.19242,25208.0,-14679.2,1654.45,53.6068,109.104,-186.673,449.822,10790.2,90.8621,-34.5414,-38.4396,-95.7818,-18164.0,-21418.4,2947.51,-18.2175,138.979,-200.539,5694.5,8761.38,-2699.89,-11.8298,-55.4471,-43.8987,-8290.34,15372.5,-9046.06,124.274,92.5836,9.12665,6955.02,3296.76,904.565,-20.6498,-46.9881,-11.4562
5.3425,4638.06,2505.01,9285.68,-4.78337,-87.4303,-1.80988,25179.0,-14513.5,1505.18,55.3619,107.696,-183.514,465.159,10818.1,55.0526,-34.6741,-37.9472,-96.3906,-18329.0,-21345.7,3081.48,-16.8649,137.922,-199.517,5719.73,8757.17,-2727.25,-11.7062,-54.7997,-43.8173,-8135.8,15446.3,-9246.41,123.521,95.6174,11.3845,7007.61,3333.6,996.45,-19.3651,-46.4637,-11.7085
5.343,4630.75,2491.53,9313.19,-4.53254,-87.9364,-1.4407,25212.0,-14242.6,1329.2,57.6795,106.576,-179.991,479.192,10854.2,6.31096,-34.7938,-37.3983,-96.9852,-18571.8,-21263.1,3185.03,-15.5248,136.264,-198.489,5735.06,8768.5,-2748.84,-11.6156,-54.1779,-43.6683,-7999.38,15414.6,-9452.65,123.174,99.2417,13.6828,7067.93,3371.13,1085.75,-18.3108,-45.7762,-11.9628
5.3435,4623.45,2478.04,9340.69,-4.28171,-88.4425,-1.07151,25245.1,-13971.7,1153.22,59.9971,105.455,-176.469,493.224,10890.3,-42.4307,-34.9135,-36.8494,-97.5798,-18814.6,-21180.6,3288.58,-14.1846,134.607,-197.46,5750.4,8779.84,-2770.42,-11.525,-53.5562,-43.5193,-7862.95,15382.8,-9658.88,122.827,102.866,15.9811,7128.26,3408.67,1175.05,-17.2566,-45.0887,-12.2171
5.344,4616.14,2464.55,9368.2,-4.03088,-88.9485,-0.702328,25278.1,-13700.8,977.243,62.3147,104.334,-172.946,507.256,10926.4,-91.1724,-35.0332,-36.3005,-98.1745,-19057.4,-21098.0,3392.13,-12.8445,132.949,-196.432,5765.73,8791.18,-2792.0,-11.4344,-52.9345,-43.3703,-7726.52,15351.0,-9865.12,122.48,106.49,18.2795,7188.58,3446.2,1264.35,-16.2023,-44.4012,-12.4714
5.3445,4608.83,2451.07,9395.71,-3.78005,-89.4546,-0.333143,25311.2,-13429.9,801.263,64.6323,103.213,-169.423,521.289,10962.5,-139.914,-35.1529,-35.7516,-98.7691,-19300.3,-21015.4,3495.68,-11.5043,131.292,-195.404,5781.06,8802.52,-2813.58,-11.3437,-52.3127,-43.2213,-7590.1,15319.2,-10071.4,122.133,110.115,20.5778,7248.91,3483.74,1353.65,-15.1481,-43.7137,-12.7258
5.345,4601.52,2437.58,9423.21,-3.52921,-89.9607,0.0360415,25344.2,-13159.0,625.283,66.95,102.092,-165.9,535.321,10998.6,-188.656,-35.2726,-35.2027,-99.3637,-19543.1,-20932.9,3599.23,-10.1642,129.634,-194.376,5796.4,8813.86,-2835.17,-11.2531,-51.691,-43.0723,-7453.67,15287.4,-10277.6,121.787,113.739,22.8761,7309.23,3521.27,1442.94,-14.0938,-43.0262,-12.9801
5.3455,4594.21,2424.09,9450.72,-3.27838,-90.4668,0.405226,25377.2,-12888.1,449.302,69.2676,100.971,-162.377,549.353,11034.7,-237.397,-35.3923,-34.6538,-99.9583,-19785.9,-20850.3,3702.78,-8.82399,127.977,-193.347,5811.73,8825.2,-2856.75,-11.1625,-51.0693,-42.9233,-7317.24,15255.6,-10483.8,121.44,117.363,25.1744,7369.56,3558.81,1532.24,-13.0396,-42.3387,-13.2344
5.346,4586.9,2410.6,9478.22,-3.02755,-90.9728,0.774411,25410.3,-12617.2,273.322,71.5852,99.8505,-158.854,563.385,11070.8,-286.139,-35.512,-34.1049,-100.553,-20028.8,-20767.8,3806.33,-7.48384,126.319,-192.319,5827.06,8836.54,-2878.33,-11.0719,-50.4475,-42.7743,-7180.82,15223.9,-10690.1,121.093,120.987,27.4728,7429.88,3596.34,1621.54,-11.9853,-41.6512,-13.4888
5.3465,4579.6,2397.12,9505.73,-2.77672,-91.4789,1.1436,25443.3,-12346.3,97.3421,73.9028,98.7296,-155.331,577.418,11106.9,-334.881,-35.6317,-33.556,-101.148,-20271.6,-20685.2,3909.88,-6.14368,124.661,-191.291,5842.4,8847.88,-2899.91,-10.9813,-49.8258,-42.6254,-7044.39,15192.1,-10896.3,120.746,124.612,29.7711,7490.21,3633.88,1710.84,-10.9311,-40.9637,-13.7431
5.347,4567.85,2379.64,9535.39,-2.48923,-92.047,1.46188,25563.4,-12171.3,-118.466,74.0136,98.5264,-152.311,582.167,11144.0,-369.234,-35.8018,-33.0033,-101.692,-20535.6,-20579.3,4001.66,-4.85631,121.753,-190.294,5857.93,8867.19,-2907.38,-10.8887,-49.1547,-42.543,-6904.06,15153.8,-10972.2,119.92,127.055,31.8287,7567.98,3639.42,1777.69,-10.5456,-39.9715,-14.0
5.3475,4553.88,2360.16,9566.14,-2.18341,-92.646,1.7547,25726.9,-12044.3,-354.188,73.0212,98.782,-149.541,582.275,11181.7,-396.393,-35.9971,-32.4486,-102.212,-20810.2,-20461.6,4087.54,-3.59534,118.22,-189.312,5873.55,8890.47,-2907.79,-10.7952,-48.459,-42.494,-6761.78,15112.3,-10982.8,118.855,128.909,33.766,7654.48,3628.97,1833.31,-10.4946,-38.827,-14.2582
5.348,4539.92,2340.68,9596.88,-1.87758,-93.245,2.04753,25890.5,-11917.3,-589.91,72.0287,99.0375,-146.772,582.383,11219.3,-423.552,-36.1924,-31.894,-102.731,-21084.8,-20344.0,4173.43,-2.33436,114.686,-188.33,5889.18,8913.76,-2908.2,-10.7018,-47.7632,-42.445,-6619.49,15070.8,-10993.5,117.79,130.762,35.7033,7740.98,3618.51,1888.93,-10.4436,-37.6824,-14.5164
5.3485,4525.95,2321.2,9627.63,-1.57176,-93.844,2.34036,26054.0,-11790.2,-825.632,71.0362,99.2931,-144.003,582.491,11256.9,-450.712,-36.3877,-31.3393,-103.25,-21359.4,-20226.3,4259.31,-1.07338,111.153,-187.348,5904.81,8937.05,-2908.61,-10.6083,-47.0675,-42.396,-6477.21,15029.3,-11004.1,116.724,132.615,37.6405,7827.47,3608.06,1944.55,-10.3926,-36.5379,-14.7746
5.349,4511.98,2301.72,9658.37,-1.26594,-94.443,2.63319,26217.6,-11663.2,-1061.35,70.0437,99.5487,-141.234,582.599,11294.6,-477.871,-36.583,-30.7847,-103.77,-21634.0,-20108.7,4345.2,0.187591,107.619,-186.366,5920.44,8960.34,-2909.02,-10.5148,-46.3717,-42.347,-6334.93,14987.7,-11014.8,115.659,134.469,39.5778,7913.97,3597.61,2000.17,-10.3416,-35.3933,-15.0328
5.3495,4498.02,2282.24,9689.12,-0.960118,-95.042,2.92601,26381.2,-11536.2,-1297.08,69.0513,99.8043,-138.465,582.707,11332.2,-505.03,-36.7783,-30.2301,-104.289,-21908.6,-19991.0,4431.08,1.44857,104.086,-185.384,5936.06,8983.63,-2909.43,-10.4213,-45.676,-42.298,-6192.65,14946.2,-11025.5,114.594,136.322,41.5151,8000.47,3587.15,2055.78,-10.2906,-34.2488,-15.291
5.35,4484.05,2262.76,9719.86,-0.654296,-95.641,3.21884,26544.7,-11409.2,-1532.8,68.0588,100.06,-135.696,582.815,11369.9,-532.189,-36.9736,-29.6754,-104.809,-22183.2,-19873.4,4516.97,2.70954,100.552,-184.402,5951.69,9006.92,-2909.84,-10.3278,-44.9803,-42.249,-6050.36,14904.7,-11036.1,113.529,138.175,43.4524,8086.96,3576.7,2111.4,-10.2396,-33.1042,-15.5492
5.3505,4470.08,2243.28,9750.61,-0.348474,-96.24,3.51167,26708.3,-11282.1,-1768.52,67.0663,100.315,-132.927,582.923,11407.5,-559.348,-37.1688,-29.1208,-105.328,-22457.8,-19755.7,4602.86,3.97052,97.0189,-183.42,5967.32,9030.21,-2910.25,-10.2343,-44.2845,-42.2,-5908.08,14863.2,-11046.8,112.463,140.029,45.3897,8173.46,3566.25,2167.02,-10.1886,-31.9597,-15.8074
5.351,4456.12,2223.81,9781.35,-0.0426523,-96.839,3.8045,26871.8,-11155.1,-2004.24,66.0738,100.571,-130.157,583.031,11445.2,-586.507,-37.3641,-28.5661,-105.848,-22732.4,-19638.1,4688.74,5.2315,93.4854,-182.438,5982.94,9053.5,-2910.66,-10.1408,-43.5888,-42.151,-5765.8,14821.7,-11057.5,111.398,141.882,47.3269,8259.96,3555.79,2222.64,-10.1376,-30.8151,-16.0656
5.3515,4450.34,2202.54,9802.87,0.063639,-97.5238,4.03364,27124.4,-10860.2,-2210.46,62.6477,101.61,-126.812,574.069,11479.8,-599.385,-37.5395,-28.0741,-106.351,-22941.4,-19453.1,4742.33,6.14836,89.0001,-181.417,5979.13,9090.43,-2893.52,-10.1096,-42.9831,-42.0898,-5688.04,14751.5,-10816.8,108.324,139.912,48.2917,8334.46,3505.46,2236.81,-10.8632,-29.7472,-16.2136
5.352,4446.9,2180.77,9821.75,0.112922,-98.2331,4.2446,27402.3,-10517.3,-2408.24,58.5263,102.873,-123.303,562.516,11513.6,-608.182,-37.7092,-27.5999,-106.849,-23131.7,-19248.8,4786.69,6.9669,84.2429,-180.385,5969.76,9131.27,-2871.36,-10.0961,-42.4032,-42.0251,-5628.73,14673.2,-10504.4,104.675,136.85,48.9785,8405.55,3443.72,2239.13,-11.8108,-28.7011,-16.3302
5.3525,4443.46,2159.0,9840.63,0.162204,-98.9423,4.45555,27680.3,-10174.4,-2606.03,54.4049,104.136,-119.793,550.962,11547.4,-616.979,-37.879,-27.1257,-107.347,-23322.0,-19044.6,4831.06,7.78544,79.4856,-179.353,5960.38,9172.11,-2849.2,-10.0826,-41.8233,-41.9604,-5569.41,14594.9,-10191.9,101.027,133.787,49.6654,8476.63,3381.99,2241.45,-12.7583,-27.655,-16.4467
5.353,4440.02,2137.22,9859.51,0.211487,-99.6516,4.6665,27958.2,-9831.5,-2803.81,50.2835,105.4,-116.283,539.409,11581.2,-625.776,-38.0487,-26.6516,-107.846,-23512.2,-18840.3,4875.42,8.60398,74.7284,-178.321,5951.01,9212.95,-2827.04,-10.0691,-41.2433,-41.8957,-5510.09,14516.6,-9879.48,97.3784,130.725,50.3522,8547.71,3320.26,2243.78,-13.7059,-26.609,-16.5632
5.3535,4436.58,2115.45,9878.39,0.260769,-100.361,4.87745,28236.2,-9488.61,-3001.6,46.1621,106.663,-112.774,527.856,11615.0,-634.573,-38.2184,-26.1774,-108.344,-23702.5,-18636.1,4919.78,9.42252,69.9711,-177.29,5941.64,9253.79,-2804.88,-10.0556,-40.6634,-41.831,-5450.77,14438.3,-9567.04,93.73,127.663,51.0391,8618.79,3258.53,2246.1,-14.6534,-25.5629,-16.6797
5.354,4433.14,2093.68,9897.27,0.310052,-101.07,5.08841,28514.1,-9145.72,-3199.39,42.0407,107.926,-109.264,516.302,11648.8,-643.37,-38.3881,-25.7032,-108.842,-23892.8,-18431.9,4964.15,10.2411,65.2139,-176.258,5932.27,9294.63,-2782.72,-10.0421,-40.0835,-41.7663,-5391.46,14360.0,-9254.6,90.0816,124.6,51.7259,8689.87,3196.79,2248.42,-15.601,-24.5168,-16.7962
5.3545,4429.7,2071.9,9916.15,0.359335,-101.779,5.29936,28792.1,-8802.82,-3397.17,37.9193,109.189,-105.754,504.749,11682.6,-652.167,-38.5578,-25.2291,-109.341,-24083.1,-18227.6,5008.51,11.0596,60.4567,-175.226,5922.89,9335.47,-2760.56,-10.0286,-39.5036,-41.7016,-5332.14,14281.7,-8942.15,86.4332,121.538,52.4128,8760.96,3135.06,2250.75,-16.5485,-23.4707,-16.9127
5.355,4426.26,2050.13,9935.03,0.408617,-102.489,5.51031,29070.0,-8459.93,-3594.96,33.7978,110.452,-102.245,493.195,11716.5,-660.964,-38.7275,-24.7549,-109.839,-24273.3,-18023.4,5052.87,11.8781,55.6994,-174.194,5913.52,9376.31,-2738.4,-10.0151,-38.9237,-41.6369,-5272.82,14203.4,-8629.71,82.7848,118.475,53.0996,8832.04,3073.33,2253.07,-17.4961,-22.4247,-17.0292
5.3555,4422.82,2028.36,9953.91,0.4579,-103.198,5.72127,29348.0,-8117.03,-3792.74,29.6764,111.715,-98.7349,481.642,11750.3,-669.761,-38.8972,-24.2807,-110.338,-24463.6,-17819.1,5097.23,12.6967,50.9422,-173.162,5904.15,9417.14,-2716.24,-10.0016,-38.3437,-41.5722,-5213.5,14125.1,-8317.27,79.1364,115.413,53.7865,8903.12,3011.6,2255.39,-18.4436,-21.3786,-17.1457
5.356,4439.2,2024.22,9975.31,0.475648,-103.931,5.87906,29621.6,-7624.11,-3995.85,24.5425,113.081,-94.8222,449.886,11783.0,-680.287,-39.0867,-23.9806,-110.785,-24573.1,-17574.1,4946.58,12.9622,46.8883,-171.642,5885.09,9457.54,-2703.43,-10.0935,-37.7214,-41.3845,-5327.07,14065.2,-8042.64,73.7267,108.081,52.6616,8979.61,2903.68,2198.86,-19.7133,-20.6309,-17.0553
5.3565,4458.06,2022.29,9997.03,0.489453,-104.667,6.03021,29894.7,-7112.44,-4199.62,19.2819,114.459,-90.8591,415.604,11815.6,-691.03,-39.2786,-23.7022,-111.226,-24672.5,-17323.9,4771.55,13.1586,42.9224,-170.06,5864.82,9497.89,-2691.78,-10.1986,-37.0938,-41.1814,-5462.24,14007.6,-7772.73,68.0968,100.215,51.3102,9056.77,2789.99,2134.97,-21.0233,-19.9205,-16.939
5.357,4476.92,2020.36,10018.8,0.503259,-105.403,6.18137,30167.9,-6600.76,-4403.39,14.0214,115.838,-86.8961,381.323,11848.2,-701.772,-39.4705,-23.4238,-111.666,-24771.9,-17073.7,4596.51,13.3549,38.9565,-168.478,5844.55,9538.23,-2680.14,-10.3037,-36.4662,-40.9783,-5597.41,13950.0,-7502.82,62.4669,92.3494,49.9588,9133.94,2676.3,2071.09,-22.3332,-19.2101,-16.8227
5.3575,4495.78,2018.44,10040.5,0.517065,-106.139,6.33252,30441.0,-6089.09,-4607.16,8.76085,117.216,-82.933,347.041,11880.8,-712.515,-39.6625,-23.1454,-112.107,-24871.3,-16823.5,4421.48,13.5513,34.9906,-166.896,5824.28,9578.58,-2668.5,-10.4088,-35.8386,-40.7751,-5732.58,13892.4,-7232.92,56.8371,84.4837,48.6074,9211.1,2562.61,2007.2,-23.6432,-18.4997,-16.7064
5.358,4514.64,2016.51,10062.2,0.530871,-106.875,6.48367,30714.1,-5577.41,-4810.93,3.50031,118.595,-78.9699,312.76,11913.5,-723.257,-39.8544,-22.8669,-112.548,-24970.7,-16573.3,4246.45,13.7477,31.0247,-165.315,5804.01,9618.92,-2656.86,-10.5139,-35.2109,-40.572,-5867.75,13834.8,-6963.01,51.2072,76.6179,47.2561,9288.26,2448.92,1943.31,-24.9532,-17.7893,-16.5901
5.3585,4533.5,2014.58,10083.9,0.544677,-107.611,6.63482,30987.2,-5065.74,-5014.71,-1.76023,119.973,-75.0069,278.478,11946.1,-734.0,-40.0463,-22.5885,-112.989,-25070.1,-16323.1,4071.42,13.9441,27.0588,-163.733,5783.74,9659.27,-2645.22,-10.619,-34.5833,-40.3689,-6002.93,13777.2,-6693.11,45.5774,68.7522,45.9047,9365.43,2335.23,1879.43,-26.2631,-17.0788,-16.4738
5.359,4552.36,2012.65,10105.6,0.558483,-108.347,6.78597,31260.3,-4554.07,-5218.48,-7.02077,121.351,-71.0438,244.197,11978.7,-744.742,-40.2383,-22.3101,-113.43,-25169.5,-16072.9,3896.38,14.1405,23.0929,-162.151,5763.47,9699.61,-2633.58,-10.7241,-33.9557,-40.1658,-6138.1,13719.6,-6423.2,39.9475,60.8864,44.5533,9442.59,2221.54,1815.54,-27.5731,-16.3684,-16.3575
5.3595,4571.22,2010.72,10127.4,0.572289,-109.083,6.93712,31533.5,-4042.39,-5422.25,-12.2813,122.73,-67.0808,209.915,12011.3,-755.485,-40.4302,-22.0317,-113.87,-25268.9,-15822.8,3721.35,14.3368,19.127,-160.57,5743.2,9739.96,-2621.94,-10.8292,-33.3281,-39.9627,-6273.27,13662.0,-6153.29,34.3177,53.0207,43.2019,9519.76,2107.85,1751.65,-28.8831,-15.658,-16.2411
5.36,4590.08,2008.79,10149.1,0.586095,-109.819,7.08827,31806.6,-3530.72,-5626.02,-17.5419,124.108,-63.1177,175.634,12043.9,-766.228,-40.6221,-21.7533,-114.311,-25368.4,-15572.6,3546.32,14.5332,15.1611,-158.988,5722.93,9780.3,-2610.3,-10.9342,-32.7005,-39.7595,-6408.44,13604.4,-5883.39,28.6878,45.155,41.8506,9596.92,1994.16,1687.77,-30.193,-14.9476,-16.1248
5.3605,4599.63,2009.16,10169.2,0.608594,-110.612,7.18016,31943.5,-3062.37,-5833.07,-22.9733,125.168,-59.4121,158.618,12077.2,-766.709,-40.7969,-21.7131,-114.69,-25328.2,-15370.3,3192.14,13.925,12.4931,-157.18,5687.45,9826.55,-2590.52,-11.1376,-32.0471,-39.5287,-6648.47,13554.4,-5701.48,23.5461,34.9937,38.7418,9642.95,1840.77,1583.77,-30.6912,-14.4993,-15.944
5.361,4609.18,2009.53,10189.3,0.631093,-111.405,7.27205,32080.5,-2594.02,-6040.11,-28.4047,126.228,-55.7065,141.602,12110.5,-767.19,-40.9718,-21.6729,-115.069,-25288.0,-15168.0,2837.95,13.3168,9.82509,-155.372,5651.98,9872.79,-2570.74,-11.341,-31.3938,-39.2978,-6888.5,13504.4,-5519.57,18.4044,24.8323,35.633,9688.98,1687.39,1479.78,-31.1894,-14.051,-15.7631
5.3615,4618.73,2009.9,10209.4,0.653592,-112.198,7.36395,32217.5,-2125.67,-6247.16,-33.8361,127.288,-52.0009,124.586,12143.8,-767.671,-41.1466,-21.6327,-115.448,-25247.8,-14965.7,2483.77,12.7085,7.1571,-153.564,5616.5,9919.03,-2550.96,-11.5444,-30.7404,-39.0669,-7128.53,13454.3,-5337.66,13.2628,14.671,32.5242,9735.01,1534.0,1375.79,-31.6876,-13.6027,-15.5822
5.362,4628.29,2010.27,10229.5,0.676091,-112.991,7.45584,32354.5,-1657.33,-6454.21,-39.2675,128.347,-48.2953,107.571,12177.0,-768.152,-41.3214,-21.5925,-115.827,-25207.6,-14763.4,2129.59,12.1003,4.48911,-151.757,5581.02,9965.27,-2531.19,-11.7478,-30.0871,-38.836,-7368.56,13404.3,-5155.75,8.12107,4.50971,29.4154,9781.03,1380.62,1271.79,-32.1859,-13.1544,-15.4014
5.3625,4637.84,2010.64,10249.6,0.69859,-113.784,7.54773,32491.4,-1188.98,-6661.25,-44.6989,129.407,-44.5896,90.5548,12210.3,-768.634,-41.4962,-21.5523,-116.206,-25167.4,-14561.1,1775.41,11.4921,1.82112,-149.949,5545.55,10011.5,-2511.41,-11.9511,-29.4338,-38.6052,-7608.59,13354.2,-4973.84,2.97938,-5.65161,26.3066,9827.06,1227.24,1167.8,-32.6841,-12.7061,-15.2205
5.363,4647.39,2011.0,10269.7,0.721089,-114.577,7.63962,32628.4,-720.633,-6868.3,-50.1303,130.467,-40.884,73.539,12243.6,-769.115,-41.671,-21.5121,-116.585,-25127.2,-14358.8,1421.22,10.8838,-0.846872,-148.141,5510.07,10057.8,-2491.63,-12.1545,-28.7804,-38.3743,-7848.62,13304.2,-4791.93,-2.16231,-15.8129,23.1979,9873.09,1073.85,1063.81,-33.1823,-12.2578,-15.0396
5.3635,4656.94,2011.37,10289.8,0.743588,-115.37,7.73151,32765.4,-252.285,-7075.35,-55.5617,131.527,-37.1784,56.5232,12276.9,-769.596,-41.8458,-21.4719,-116.964,-25087.0,-14156.5,1067.04,10.2756,-3.51486,-146.333,5474.6,10104.0,-2471.85,-12.3579,-28.1271,-38.1434,-8088.65,13254.2,-4610.02,-7.30399,-25.9742,20.0891,9919.12,920.469,959.813,-33.6805,-11.8094,-14.8588
5.364,4666.49,2011.74,10309.9,0.766087,-116.163,7.8234,32902.4,216.062,-7282.39,-60.9931,132.586,-33.4728,39.5075,12310.2,-770.077,-42.0207,-21.4317,-117.343,-25046.8,-13954.2,712.858,9.66739,-6.18286,-144.525,5439.12,10150.2,-2452.08,-12.5613,-27.4737,-37.9125,-8328.68,13204.1,-4428.11,-12.4457,-36.1356,16.9803,9965.15,767.085,855.82,-34.1787,-11.3611,-14.6779
5.3645,4673.89,2011.99,10330.1,0.783566,-116.966,7.91654,33018.7,663.147,-7487.7,-66.3235,133.615,-29.8145,23.9776,12342.0,-773.332,-42.1821,-21.421,-117.718,-24999.3,-13751.8,352.635,9.04524,-8.68904,-142.692,5402.59,10195.2,-2433.02,-12.7657,-26.8221,-37.6719,-8572.03,13159.1,-4242.79,-17.3738,-46.1299,13.8097,10011.6,616.076,756.327,-34.6359,-10.9452,-14.4841
5.365,4664.08,2011.32,10350.9,0.76089,-117.85,8.01974,32970.0,940.138,-7679.15,-70.8457,134.394,-26.5351,20.3349,12362.4,-798.777,-42.2367,-21.6459,-118.062,-24893.3,-13548.6,-55.9128,8.31167,-9.90076,-140.654,5357.68,10229.7,-2419.68,-12.9784,-26.1839,-37.3536,-8841.87,13154.2,-4030.2,-20.5935,-54.7879,10.1447,10061.9,484.064,692.836,-34.7651,-10.7881,-14.1863
5.3655,4654.27,2010.65,10371.8,0.738213,-118.734,8.12294,32921.3,1217.13,-7870.59,-75.3679,135.174,-23.2557,16.6921,12382.8,-824.223,-42.2912,-21.8709,-118.405,-24787.3,-13345.4,-464.461,7.57811,-11.1125,-138.616,5312.76,10264.3,-2406.34,-13.1912,-25.5457,-37.0353,-9111.71,13149.3,-3817.61,-23.8131,-63.446,6.47977,10112.2,352.052,629.345,-34.8942,-10.6311,-13.8886
5.366,4644.46,2009.98,10392.7,0.715536,-119.618,8.22613,32872.5,1494.12,-8062.03,-79.8901,135.953,-19.9762,13.0494,12403.2,-849.668,-42.3458,-22.0958,-118.748,-24681.3,-13142.2,-873.008,6.84454,-12.3242,-136.578,5267.84,10298.9,-2393.0,-13.4039,-24.9076,-36.7169,-9381.55,13144.5,-3605.02,-27.0328,-72.1041,2.8148,10162.5,220.04,565.854,-35.0234,-10.474,-13.5909
5.3665,4634.65,2009.31,10413.6,0.69286,-120.502,8.32933,32823.8,1771.11,-8253.47,-84.4123,136.732,-16.6968,9.4066,12423.6,-875.113,-42.4004,-22.3207,-119.091,-24575.3,-12939.0,-1281.56,6.11098,-13.5359,-134.54,5222.92,10333.4,-2379.66,-13.6167,-24.2694,-36.3986,-9651.39,13139.6,-3392.43,-30.2525,-80.7622,-0.850175,10212.8,88.0279,502.363,-35.1525,-10.317,-13.2932
5.367,4624.84,2008.63,10434.5,0.670183,-121.386,8.43252,32775.1,2048.1,-8444.91,-88.9345,137.511,-13.4173,5.76385,12444.0,-900.558,-42.4549,-22.5457,-119.434,-24469.3,-12735.9,-1690.1,5.37741,-14.7477,-132.502,5178.0,10368.0,-2366.33,-13.8294,-23.6313,-36.0802,-9921.23,13134.7,-3179.85,-33.4721,-89.4203,-4.51515,10263.2,-43.9841,438.873,-35.2817,-10.1599,-12.9955
5.3675,4615.03,2007.96,10455.4,0.647506,-122.27,8.53572,32726.3,2325.09,-8636.35,-93.4567,138.29,-10.1379,2.12109,12464.4,-926.004,-42.5095,-22.7706,-119.777,-24363.3,-12532.7,-2098.65,4.64384,-15.9594,-130.465,5133.09,10402.5,-2352.99,-14.0422,-22.9931,-35.7619,-10191.1,13129.8,-2967.26,-36.6918,-98.0784,-8.18012,10313.5,-175.996,375.382,-35.4108,-10.0029,-12.6978
5.368,4605.22,2007.29,10476.2,0.62483,-123.154,8.63891,32677.6,2602.08,-8827.79,-97.9789,139.07,-6.85845,-1.52166,12484.8,-951.449,-42.5641,-22.9956,-120.12,-24257.3,-12329.5,-2507.2,3.91028,-17.1711,-128.427,5088.17,10437.1,-2339.65,-14.255,-22.3549,-35.4435,-10460.9,13124.9,-2754.67,-39.9115,-106.736,-11.8451,10363.8,-308.008,311.891,-35.54,-9.84585,-12.4001
5.3685,4595.41,2006.62,10497.1,0.602153,-124.038,8.74211,32628.9,2879.07,-9019.23,-102.501,139.849,-3.57901,-5.16442,12505.2,-976.894,-42.6186,-23.2205,-120.464,-24151.3,-12126.3,-2915.75,3.17671,-18.3828,-126.389,5043.25,10471.7,-2326.31,-14.4677,-21.7168,-35.1252,-10730.8,13120.0,-2542.08,-43.1311,-115.395,-15.5101,10414.1,-440.02,248.4,-35.6692,-9.6888,-12.1023
5.369,4584.88,2000.98,10521.7,0.579762,-124.954,8.83252,32552.9,3082.24,-9200.57,-106.55,140.488,-0.502481,-10.3961,12524.6,-1007.39,-42.6542,-23.4798,-120.795,-24054.6,-11919.7,-3288.4,2.38259,-19.4174,-124.294,4991.02,10497.7,-2305.42,-14.661,-21.1109,-34.8112,-10982.5,13115.3,-2311.28,-46.3717,-123.71,-19.0113,10468.1,-560.607,193.98,-35.7485,-9.64169,-11.7832
5.3695,4571.81,1977.98,10559.3,0.558369,-125.982,8.87817,32381.7,3027.05,-9346.57,-108.942,140.637,1.86387,-21.1889,12540.7,-1055.57,-42.6231,-23.8594,-121.084,-23990.4,-11701.0,-3535.41,1.37653,-19.8319,-122.0,4913.2,10494.2,-2258.08,-14.7861,-20.6183,-34.5124,-11171.2,13111.1,-2016.71,-49.6855,-130.824,-21.9396,10535.3,-641.208,171.309,-35.6534,-9.97936,-11.3893
5.37,4558.75,1954.98,10596.9,0.536976,-127.01,8.92381,32210.5,2971.86,-9492.57,-111.334,140.785,4.23022,-31.9818,12556.8,-1103.75,-42.592,-24.2389,-121.373,-23926.3,-11482.4,-3782.42,0.370462,-20.2464,-119.705,4835.38,10490.6,-2210.74,-14.9112,-20.1256,-34.2135,-11359.8,13106.9,-1722.13,-52.9992,-137.938,-24.8678,10602.4,-721.808,148.637,-35.5583,-10.317,-10.9953
5.3705,4545.68,1931.97,10634.5,0.515583,-128.038,8.96946,32039.2,2916.67,-9638.57,-113.726,140.934,6.59658,-42.7746,12573.0,-1151.93,-42.5609,-24.6185,-121.663,-23862.1,-11263.8,-4029.43,-0.635603,-20.6609,-117.411,4757.56,10487.1,-2163.4,-15.0363,-19.6329,-33.9147,-11548.4,13102.7,-1427.56,-56.313,-145.052,-27.7961,10669.6,-802.409,125.966,-35.4633,-10.6547,-10.6014
5.371,4532.62,1908.97,10672.1,0.49419,-129.066,9.01511,31868.0,2861.48,-9784.56,-116.118,141.082,8.96293,-53.5674,12589.1,-1200.11,-42.5299,-24.998,-121.952,-23797.9,-11045.2,-4276.44,-1.64167,-21.0754,-115.117,4679.74,10483.5,-2116.06,-15.1614,-19.1402,-33.6158,-11737.0,13098.5,-1132.99,-59.6268,-152.166,-30.7243,10736.7,-883.009,103.295,-35.3682,-10.9924,-10.2074
5.3715,4519.56,1885.97,10709.7,0.472797,-130.093,9.06076,31696.8,2806.29,-9930.56,-118.51,141.231,11.3293,-64.3603,12605.2,-1248.29,-42.4988,-25.3775,-122.241,-23733.8,-10826.5,-4523.46,-2.64773,-21.4899,-112.822,4601.92,10480.0,-2068.72,-15.2865,-18.6476,-33.317,-11925.6,13094.3,-838.422,-62.9406,-159.28,-33.6525,10803.9,-963.61,80.6231,-35.2732,-11.33,-9.81349
5.372,4506.49,1862.96,10747.3,0.451404,-131.121,9.10641,31525.5,2751.1,-10076.6,-120.902,141.38,13.6956,-75.1531,12621.3,-1296.47,-42.4677,-25.7571,-122.53,-23669.6,-10607.9,-4770.47,-3.6538,-21.9044,-110.528,4524.1,10476.4,-2021.38,-15.4116,-18.1549,-33.0182,-12114.2,13090.1,-543.852,-66.2543,-166.394,-36.5808,10871.0,-1044.21,57.9516,-35.1781,-11.6677,-9.41954
5.3725,4493.43,1839.96,10784.9,0.430011,-132.149,9.15206,31354.3,2695.91,-10222.6,-123.294,141.528,16.062,-85.946,12637.4,-1344.66,-42.4366,-26.1366,-122.82,-23605.5,-10389.3,-5017.48,-4.65986,-22.3189,-108.234,4446.28,10472.9,-1974.04,-15.5367,-17.6622,-32.7193,-12302.8,13085.9,-249.281,-69.5681,-173.509,-39.509,10938.2,-1124.81,35.2802,-35.083,-12.0054,-9.02559
5.373,4480.36,1816.96,10822.6,0.408618,-133.177,9.19771,31183.1,2640.71,-10368.6,-125.686,141.677,18.4283,-96.7388,12653.5,-1392.84,-42.4055,-26.5162,-123.109,-23541.3,-10170.7,-5264.49,-5.66593,-22.7334,-105.94,4368.46,10469.3,-1926.7,-15.6619,-17.1695,-32.4205,-12491.4,13081.6,45.29,-72.8819,-180.623,-42.4373,11005.4,-1205.41,12.6088,-34.988,-12.3431,-8.63164
5.3735,4463.42,1784.23,10855.7,0.310462,-134.22,9.21708,31004.5,2505.69,-10503.8,-127.237,141.644,20.6135,-103.568,12674.3,-1441.14,-42.3923,-26.906,-123.394,-23494.4,-9947.07,-5439.56,-6.63059,-23.2149,-103.505,4288.04,10476.6,-1872.92,-15.789,-16.7141,-32.1448,-12671.3,13081.7,316.763,-76.3485,-187.215,-44.9653,11056.8,-1273.91,-5.49636,-34.6978,-12.758,-8.38885
5.374,4438.72,1732.06,10879.8,0.0587783,-135.294,9.18392,30811.2,2210.98,-10617.7,-127.107,141.249,22.4364,-102.471,12704.3,-1489.7,-42.4149,-27.3166,-123.672,-23481.9,-9713.54,-5470.76,-7.51245,-23.8305,-100.788,4202.45,10505.6,-1806.27,-15.9201,-16.3331,-31.9153,-12833.6,13090.4,542.041,-80.1207,-192.764,-46.6927,11076.8,-1318.2,-14.4688,-34.0173,-13.3274,-8.44839
5.3745,4414.02,1679.89,10903.9,-0.192905,-136.368,9.15075,30617.8,1916.28,-10731.6,-126.977,140.853,24.2593,-101.375,12734.4,-1538.26,-42.4375,-27.7271,-123.95,-23469.4,-9480.01,-5501.96,-8.39431,-24.446,-98.0715,4116.85,10534.6,-1739.61,-16.0513,-15.9522,-31.6858,-12996.0,13099.1,767.318,-83.893,-198.314,-48.4202,11096.8,-1362.48,-23.4413,-33.3368,-13.8968,-8.50793
5.375,4389.32,1627.72,10928.1,-0.444588,-137.442,9.11758,30424.5,1621.58,-10845.4,-126.848,140.458,26.0822,-100.278,12764.4,-1586.82,-42.46,-28.1377,-124.228,-23456.8,-9246.48,-5533.16,-9.27617,-25.0615,-95.355,4031.26,10563.6,-1672.96,-16.1824,-15.5712,-31.4563,-13158.3,13107.7,992.596,-87.6652,-203.863,-50.1477,11116.9,-1406.77,-32.4138,-32.6564,-14.4663,-8.56746
5.3755,4364.62,1575.55,10952.2,-0.696272,-138.516,9.08442,30231.2,1326.88,-10959.3,-126.718,140.063,27.9051,-99.1807,12794.4,-1635.38,-42.4826,-28.5483,-124.505,-23444.3,-9012.96,-5564.36,-10.158,-25.6771,-92.6384,3945.66,10592.7,-1606.3,-16.3135,-15.1903,-31.2268,-13320.6,13116.4,1217.87,-91.4374,-209.412,-51.8752,11136.9,-1451.06,-41.3862,-31.9759,-15.0357,-8.627
5.376,4339.92,1523.37,10976.4,-0.947955,-139.59,9.05125,30037.9,1032.17,-11073.1,-126.588,139.667,29.728,-98.0837,12824.5,-1683.93,-42.5052,-28.9588,-124.783,-23431.8,-8779.43,-5595.56,-11.0399,-26.2926,-89.9219,3860.07,10621.7,-1539.65,-16.4447,-14.8093,-30.9974,-13483.0,13125.1,1443.15,-95.2097,-214.961,-53.6026,11156.9,-1495.35,-50.3587,-31.2954,-15.6051,-8.68654
5.3765,4315.22,1471.2,11000.5,-1.19964,-140.664,9.01808,29844.6,737.47,-11187.0,-126.458,139.272,31.5509,-96.9868,12854.5,-1732.49,-42.5278,-29.3694,-125.061,-23419.3,-8545.9,-5626.76,-11.9217,-26.9081,-87.2054,3774.47,10650.7,-1473.0,-16.5758,-14.4283,-30.7679,-13645.3,13133.7,1668.43,-98.9819,-220.51,-55.3301,11176.9,-1539.64,-59.3312,-30.615,-16.1746,-8.74608
5.377,4290.52,1419.03,11024.6,-1.45132,-141.738,8.98492,29651.2,442.768,-11300.8,-126.328,138.876,33.3738,-95.8899,12884.5,-1781.05,-42.5503,-29.7799,-125.338,-23406.8,-8312.37,-5657.96,-12.8036,-27.5237,-84.4889,3688.88,10679.7,-1406.34,-16.7069,-14.0474,-30.5384,-13807.7,13142.4,1893.71,-102.754,-226.059,-57.0576,11196.9,-1583.93,-68.3036,-29.9345,-16.744,-8.80562
5.3775,4265.82,1366.86,11048.8,-1.703,-142.813,8.95175,29457.9,148.065,-11414.7,-126.198,138.481,35.1967,-94.7929,12914.6,-1829.61,-42.5729,-30.1905,-125.616,-23394.3,-8078.84,-5689.16,-13.6855,-28.1392,-81.7723,3603.28,10708.7,-1339.69,-16.8381,-13.6664,-30.3089,-13970.0,13151.1,2118.98,-106.526,-231.609,-58.7851,11217.0,-1628.21,-77.2761,-29.2541,-17.3134,-8.86515
5.378,4245.48,1315.3,11072.6,-1.97758,-143.947,8.88316,29277.9,-156.341,-11511.5,-124.928,137.76,37.0455,-95.7241,12946.2,-1876.1,-42.6025,-30.5976,-125.916,-23387.4,-7853.51,-5651.21,-14.398,-29.0427,-78.885,3531.14,10730.4,-1267.72,-16.9928,-13.4378,-30.1114,-14093.7,13091.1,2278.04,-108.288,-235.753,-60.0527,11253.9,-1650.35,-72.8765,-28.5683,-17.8789,-8.93992
5.3785,4230.58,1264.51,11096.1,-2.28077,-145.156,8.7703,29114.4,-472.876,-11587.0,-122.234,136.631,38.9267,-99.1906,12979.7,-1920.02,-42.641,-31.0006,-126.242,-23387.4,-7638.43,-5526.83,-14.899,-30.3062,-75.784,3475.83,10742.8,-1189.1,-17.177,-13.3996,-29.9537,-14169.1,12945.3,2354.32,-107.537,-238.142,-60.7454,11312.0,-1644.79,-51.7617,-27.8759,-18.4395,-9.0337
5.379,4215.67,1213.72,11119.6,-2.58396,-146.366,8.65744,28951.0,-789.411,-11662.5,-119.54,135.502,40.808,-102.657,13013.2,-1963.93,-42.6795,-31.4035,-126.568,-23387.3,-7423.34,-5402.46,-15.3999,-31.5696,-72.6831,3420.52,10755.2,-1110.48,-17.3612,-13.3614,-29.7961,-14244.4,12799.5,2430.61,-106.786,-240.531,-61.4382,11370.2,-1639.23,-30.6469,-27.1835,-19.0001,-9.12749
5.3795,4200.77,1162.92,11143.1,-2.88715,-147.575,8.54458,28787.5,-1105.95,-11738.0,-116.846,134.374,42.6892,-106.123,13046.7,-2007.84,-42.7179,-31.8064,-126.894,-23387.3,-7208.26,-5278.08,-15.9008,-32.8331,-69.5821,3365.21,10767.7,-1031.86,-17.5453,-13.3231,-29.6385,-14319.8,12653.6,2506.89,-106.035,-242.92,-62.131,11428.3,-1633.68,-9.53208,-26.4911,-19.5607,-9.22128
5.38,4185.87,1112.13,11166.5,-3.19034,-148.784,8.43172,28624.1,-1422.48,-11813.5,-114.152,133.245,44.5704,-109.59,13080.2,-2051.75,-42.7564,-32.2093,-127.221,-23387.3,-6993.17,-5153.7,-16.4018,-34.0965,-66.4811,3309.9,10780.1,-953.238,-17.7295,-13.2849,-29.4808,-14395.2,12507.8,2583.17,-105.284,-245.309,-62.8237,11486.4,-1628.12,11.5827,-25.7987,-20.1213,-9.31507
5.3805,4170.97,1061.34,11190.0,-3.49352,-149.994,8.31886,28460.6,-1739.02,-11889.0,-111.458,132.116,46.4517,-113.056,13113.7,-2095.66,-42.7949,-32.6122,-127.547,-23387.3,-6778.09,-5029.32,-16.9027,-35.36,-63.3802,3254.58,10792.5,-874.619,-17.9137,-13.2467,-29.3232,-14470.6,12362.0,2659.45,-104.534,-247.698,-63.5165,11544.5,-1622.56,32.6975,-25.1063,-20.6819,-9.40886
5.381,4156.07,1010.54,11213.5,-3.79671,-151.203,8.20599,28297.1,-2055.55,-11964.6,-108.763,130.988,48.3329,-116.523,13147.2,-2139.57,-42.8333,-33.0151,-127.873,-23387.3,-6563.0,-4904.94,-17.4036,-36.6235,-60.2792,3199.27,10805.0,-795.999,-18.0979,-13.2085,-29.1656,-14546.0,12216.2,2735.73,-103.783,-250.087,-64.2093,11602.7,-1617.01,53.8123,-24.4139,-21.2425,-9.50265
5.3815,4141.17,959.75,11237.0,-4.0999,-152.413,8.09313,28133.7,-2372.09,-12040.1,-106.069,129.859,50.2142,-119.989,13180.7,-2183.48,-42.8718,-33.418,-128.2,-23387.3,-6347.92,-4780.56,-17.9046,-37.8869,-57.1783,3143.96,10817.4,-717.38,-18.2821,-13.1702,-29.0079,-14621.3,12070.4,2812.02,-103.032,-252.476,-64.902,11660.8,-1611.45,74.9271,-23.7215,-21.8031,-9.59644
5.382,4126.26,908.956,11260.5,-4.40309,-153.622,7.98027,27970.2,-2688.62,-12115.6,-103.375,128.73,52.0954,-123.455,13214.2,-2227.4,-42.9103,-33.821,-128.526,-23387.3,-6132.83,-4656.18,-18.4055,-39.1504,-54.0773,3088.65,10829.9,-638.761,-18.4663,-13.132,-28.8503,-14696.7,11924.6,2888.3,-102.281,-254.864,-65.5948,11718.9,-1605.89,96.0419,-23.0291,-22.3637,-9.69023
5.3825,4124.15,868.854,11274.2,-4.81717,-154.895,7.79175,27785.9,-2952.63,-12160.9,-99.5276,127.136,53.999,-130.37,13242.1,-2273.65,-42.955,-34.1687,-128.913,-23390.8,-5964.86,-4520.64,-18.8331,-40.5235,-50.9113,3042.49,10886.0,-586.776,-18.6906,-13.0686,-28.6106,-14745.6,11801.7,3008.44,-101.09,-255.881,-65.4567,11774.1,-1590.88,106.115,-22.3967,-22.7182,-9.79906
5.383,4132.25,837.303,11280.2,-5.31997,-156.219,7.54269,27585.0,-3174.62,-12182.2,-94.7578,125.169,55.9206,-140.044,13265.5,-2321.77,-43.0046,-34.4724,-129.349,-23397.1,-5834.58,-4376.16,-19.202,-41.9845,-47.6932,3003.65,10977.1,-556.101,-18.947,-12.985,-28.3054,-14773.2,11697.2,3163.67,-99.5474,-255.798,-64.6539,11826.9,-1568.3,107.354,-21.8123,-22.9079,-9.91991
5.3835,4140.36,805.753,11286.1,-5.82276,-157.543,7.29364,27384.0,-3396.62,-12203.4,-89.9879,123.203,57.8422,-149.718,13289.0,-2369.89,-43.0543,-34.7761,-129.784,-23403.4,-5704.3,-4231.69,-19.5709,-43.4454,-44.4751,2964.82,11068.3,-525.425,-19.2034,-12.9014,-28.0001,-14800.9,11592.6,3318.89,-98.0048,-255.716,-63.8511,11879.6,-1545.72,108.594,-21.228,-23.0976,-10.0408
5.384,4148.47,774.202,11292.0,-6.32556,-158.866,7.04458,27183.1,-3618.61,-12224.6,-85.218,121.236,59.7637,-159.391,13312.4,-2418.01,-43.1039,-35.0797,-130.22,-23409.7,-5574.02,-4087.21,-19.9399,-44.9064,-41.2571,2925.98,11159.4,-494.749,-19.4598,-12.8178,-27.6949,-14828.5,11488.1,3474.12,-96.4623,-255.634,-63.0484,11932.4,-1523.14,109.833,-20.6436,-23.2872,-10.1616
5.3845,4156.57,742.652,11298.0,-6.82835,-160.19,6.79553,26982.1,-3840.6,-12245.9,-80.4482,119.27,61.6853,-169.065,13335.9,-2466.13,-43.1536,-35.3834,-130.655,-23415.9,-5443.74,-3942.74,-20.3088,-46.3673,-38.039,2887.15,11250.5,-464.073,-19.7162,-12.7342,-27.3896,-14856.2,11383.5,3629.35,-94.9197,-255.552,-62.2456,11985.2,-1500.57,111.073,-20.0592,-23.4769,-10.2825
5.385,4164.68,711.101,11303.9,-7.33115,-161.514,6.54647,26781.1,-4062.59,-12267.1,-75.6784,117.303,63.6068,-178.739,13359.3,-2514.25,-43.2033,-35.6871,-131.09,-23422.2,-5313.45,-3798.26,-20.6777,-47.8283,-34.8209,2848.31,11341.6,-433.397,-19.9726,-12.6506,-27.0843,-14883.8,11279.0,3784.57,-93.3772,-255.47,-61.4428,12038.0,-1477.99,112.312,-19.4748,-23.6666,-10.4033
5.3855,4172.79,679.551,11309.9,-7.83395,-162.838,6.29742,26580.2,-4284.59,-12288.4,-70.9085,115.336,65.5284,-188.413,13382.7,-2562.38,-43.2529,-35.9908,-131.526,-23428.5,-5183.17,-3653.79,-21.0466,-49.2892,-31.6028,2809.48,11432.8,-402.721,-20.2291,-12.567,-26.7791,-14911.5,11174.4,3939.8,-91.8346,-255.388,-60.64,12090.8,-1455.41,113.552,-18.8904,-23.8563,-10.5242
5.386,4180.89,648.0,11315.8,-8.33674,-164.162,6.04836,26379.2,-4506.58,-12309.6,-66.1387,113.37,67.45,-198.086,13406.2,-2610.5,-43.3026,-36.2944,-131.961,-23434.8,-5052.89,-3509.31,-21.4156,-50.7502,-28.3847,2770.64,11523.9,-372.046,-20.4855,-12.4834,-26.4738,-14939.2,11069.9,4095.03,-90.2921,-255.306,-59.8372,12143.6,-1432.83,114.791,-18.306,-24.0459,-10.6451
5.3865,4189.0,616.45,11321.7,-8.83954,-165.485,5.79931,26178.2,-4728.57,-12330.9,-61.3688,111.403,69.3715,-207.76,13429.6,-2658.62,-43.3522,-36.5981,-132.397,-23441.1,-4922.61,-3364.84,-21.7845,-52.2111,-25.1667,2731.81,11615.0,-341.37,-20.7419,-12.3998,-26.1686,-14966.8,10965.3,4250.26,-88.7495,-255.223,-59.0344,12196.3,-1410.25,116.031,-17.7216,-24.2356,-10.7659
5.387,4206.17,590.828,11335.3,-9.32393,-166.748,5.4608,25930.3,-4875.31,-12323.5,-56.2108,108.915,71.2363,-214.144,13447.4,-2688.24,-43.4359,-36.8725,-132.856,-23417.5,-4843.41,-3232.72,-22.2108,-53.6923,-22.0572,2687.75,11678.9,-297.341,-21.0369,-12.4138,-25.9126,-14934.5,10855.3,4405.56,-87.2449,-253.784,-57.7125,12229.4,-1402.09,108.607,-16.83,-24.1696,-11.181
5.3875,4227.88,568.17,11352.7,-9.79913,-167.98,5.07758,25658.8,-4984.42,-12301.8,-50.8587,106.167,73.0727,-218.882,13462.4,-2708.62,-43.5365,-37.1322,-133.328,-23379.0,-4789.74,-3106.78,-22.6657,-55.1836,-19.0021,2641.09,11729.2,-246.635,-21.3512,-12.4765,-25.6812,-14872.2,10742.4,4560.91,-85.7593,-251.667,-56.131,12252.7,-1401.12,96.8522,-15.7847,-23.9758,-11.7432
5.388,4249.58,545.512,11370.2,-10.2743,-169.212,4.69435,25387.3,-5093.53,-12280.1,-45.5066,103.418,74.9091,-223.621,13477.4,-2728.99,-43.6371,-37.3919,-133.799,-23340.4,-4736.08,-2980.83,-23.1206,-56.6748,-15.947,2594.44,11779.5,-195.93,-21.6655,-12.5392,-25.4498,-14809.9,10629.5,4716.26,-84.2736,-249.549,-54.5495,12275.9,-1400.16,85.0971,-14.7394,-23.782,-12.3055
5.3885,4271.28,522.855,11387.6,-10.7495,-170.445,4.31112,25115.8,-5202.64,-12258.4,-40.1544,100.669,76.7456,-228.359,13492.4,-2749.37,-43.7377,-37.6517,-134.27,-23301.9,-4682.41,-2854.89,-23.5756,-58.1661,-12.8918,2547.78,11829.8,-145.224,-21.9798,-12.6019,-25.2185,-14747.6,10516.7,4871.61,-82.788,-247.432,-52.968,12299.2,-1399.2,73.3421,-13.6941,-23.5882,-12.8677
5.389,4292.99,500.197,11405.0,-11.2247,-171.677,3.92789,24844.3,-5311.75,-12236.7,-34.8023,97.9207,78.582,-233.098,13507.3,-2769.75,-43.8383,-37.9114,-134.741,-23263.3,-4628.75,-2728.95,-24.0305,-59.6574,-9.8367,2501.12,11880.0,-94.5183,-22.2941,-12.6647,-24.9871,-14685.3,10403.8,5026.97,-81.3023,-245.314,-51.3865,12322.4,-1398.24,61.587,-12.6488,-23.3945,-13.4299
5.3895,4314.69,477.539,11422.4,-11.6999,-172.909,3.54466,24572.8,-5420.86,-12215.0,-29.4502,95.1721,80.4184,-237.837,13522.3,-2790.12,-43.9389,-38.1711,-135.213,-23224.8,-4575.08,-2603.01,-24.4855,-61.1487,-6.78157,2454.46,11930.3,-43.8127,-22.6084,-12.7274,-24.7557,-14623.0,10290.9,5182.32,-79.8167,-243.197,-49.805,12345.7,-1397.28,49.832,-11.6035,-23.2007,-13.9922
5.39,4336.39,454.882,11439.8,-12.1751,-174.141,3.16144,24301.4,-5529.97,-12193.4,-24.0981,92.4235,82.2548,-242.575,13537.3,-2810.5,-44.0395,-38.4309,-135.684,-23186.2,-4521.42,-2477.07,-24.9404,-62.6399,-3.72644,2407.8,11980.6,6.89295,-22.9227,-12.7901,-24.5244,-14560.7,10178.1,5337.67,-78.331,-241.079,-48.2236,12368.9,-1396.32,38.077,-10.5582,-23.0069,-14.5544
5.3905,4358.1,432.224,11457.2,-12.6503,-175.373,2.77821,24029.9,-5639.08,-12171.7,-18.746,89.6748,84.0912,-247.314,13552.3,-2830.87,-44.1401,-38.6906,-136.155,-23147.7,-4467.75,-2351.13,-25.3954,-64.1312,-0.67131,2361.14,12030.9,57.5986,-23.237,-12.8528,-24.293,-14498.4,10065.2,5493.02,-76.8454,-238.961,-46.6421,12392.2,-1395.36,26.3219,-9.51289,-22.8131,-15.1166
5.391,4379.8,409.566,11474.6,-13.1255,-176.605,2.39498,23758.4,-5748.19,-12150.0,-13.3939,86.9262,85.9277,-252.052,13567.2,-2851.25,-44.2407,-38.9503,-136.627,-23109.1,-4414.09,-2225.19,-25.8503,-65.6225,2.38382,2314.48,12081.2,108.304,-23.5513,-12.9155,-24.0616,-14436.1,9952.32,5648.37,-75.3597,-236.844,-45.0606,12415.4,-1394.4,14.5669,-8.46759,-22.6193,-15.6789
5.3915,4406.4,396.969,11488.9,-13.5391,-177.876,1.96161,23477.2,-5723.69,-12096.7,-8.43503,83.9049,87.4829,-244.599,13587.1,-2841.7,-44.3099,-39.2134,-137.048,-23026.8,-4415.14,-2106.92,-26.3111,-67.1625,5.26349,2298.61,12124.7,156.588,-23.9291,-13.1235,-23.8062,-14266.4,9810.31,5654.33,-72.4405,-233.994,-44.1707,12441.8,-1345.76,-10.0103,-7.08665,-22.0057,-16.1963
5.392,4434.41,387.246,11502.2,-13.935,-179.159,1.51392,23193.1,-5661.02,-12034.4,-3.58855,80.8057,88.9578,-233.662,13608.4,-2823.6,-44.3701,-39.4775,-137.456,-22932.0,-4431.81,-1990.85,-26.7735,-68.7165,8.09303,2291.53,12166.3,204.179,-24.3251,-13.373,-23.5438,-14065.9,9659.97,5617.6,-69.1117,-230.936,-43.4785,12469.1,-1283.49,-38.251,-5.6098,-21.2721,-16.7009
5.3925,4462.41,377.523,11515.6,-14.331,-180.441,1.06623,22909.1,-5598.35,-11972.1,1.25794,77.7065,90.4327,-222.725,13629.7,-2805.5,-44.4303,-39.7415,-137.864,-22837.3,-4448.49,-1874.77,-27.2359,-70.2705,10.9226,2284.46,12207.8,251.77,-24.7211,-13.6224,-23.2814,-13865.4,9509.63,5580.88,-65.783,-227.877,-42.7862,12496.4,-1221.23,-66.4916,-4.13296,-20.5386,-17.2056
5.393,4490.42,367.8,11528.9,-14.7269,-181.724,0.618537,22625.1,-5535.68,-11909.9,6.10442,74.6073,91.9076,-211.788,13651.0,-2787.4,-44.4905,-40.0056,-138.271,-22742.5,-4465.17,-1758.7,-27.6983,-71.8244,13.7521,2277.38,12249.4,299.361,-25.1171,-13.8719,-23.0191,-13665.0,9359.29,5544.16,-62.4542,-224.819,-42.094,12523.7,-1158.96,-94.7323,-2.65611,-19.8051,-17.7102
5.3935,4518.42,358.078,11542.3,-15.1229,-183.006,0.170844,22341.1,-5473.0,-11847.6,10.9509,71.5081,93.3825,-200.851,13672.3,-2769.3,-44.5508,-40.2696,-138.679,-22647.7,-4481.84,-1642.63,-28.1607,-73.3784,16.5816,2270.31,12291.0,346.952,-25.5131,-14.1214,-22.7567,-13464.5,9208.95,5507.44,-59.1254,-221.76,-41.4018,12551.0,-1096.7,-122.973,-1.17927,-19.0715,-18.2148
5.394,4546.42,348.355,11555.6,-15.5188,-184.289,-0.276848,22057.1,-5410.33,-11785.3,15.7974,68.4089,94.8574,-189.914,13693.6,-2751.2,-44.611,-40.5336,-139.087,-22552.9,-4498.52,-1526.56,-28.6231,-74.9324,19.4112,2263.23,12332.5,394.544,-25.9091,-14.3708,-22.4944,-13264.0,9058.61,5470.71,-55.7966,-218.702,-40.7095,12578.2,-1034.44,-151.214,0.297575,-18.338,-18.7194
5.3945,4574.43,338.632,11569.0,-15.9148,-185.571,-0.724541,21773.0,-5347.66,-11723.0,20.6439,65.3097,96.3323,-178.978,13714.9,-2733.09,-44.6712,-40.7977,-139.494,-22458.1,-4515.2,-1410.48,-29.0856,-76.4863,22.2407,2256.16,12374.1,442.135,-26.3051,-14.6203,-22.232,-13063.5,8908.27,5433.99,-52.4678,-215.643,-40.0173,12605.5,-972.172,-179.454,1.77442,-17.6045,-19.2241
5.395,4602.43,328.909,11582.3,-16.3107,-186.854,-1.17223,21489.0,-5284.98,-11660.7,25.4904,62.2105,97.8072,-168.041,13736.2,-2714.99,-44.7314,-41.0617,-139.902,-22363.3,-4531.87,-1294.41,-29.548,-78.0403,25.0703,2249.08,12415.7,489.726,-26.7011,-14.8698,-21.9696,-12863.1,8757.93,5397.27,-49.139,-212.585,-39.3251,12632.8,-909.908,-207.695,3.25126,-16.8709,-19.7287
5.3955,4630.44,319.186,11595.7,-16.7067,-188.136,-1.61993,21205.0,-5222.31,-11598.4,30.3368,59.1113,99.2821,-157.104,13757.5,-2696.89,-44.7917,-41.3258,-140.309,-22268.5,-4548.55,-1178.34,-30.0104,-79.5943,27.8998,2242.01,12457.2,537.317,-27.0971,-15.1192,-21.7073,-12662.6,8607.59,5360.55,-45.8102,-209.527,-38.6328,12660.1,-847.643,-235.936,4.72811,-16.1374,-20.2333
5.396,4645.31,328.04,11604.9,-17.2082,-189.411,-2.07661,20976.7,-5087.61,-11505.1,34.2899,55.8772,100.089,-151.166,13774.8,-2683.29,-44.7658,-41.5634,-140.665,-22108.3,-4648.16,-1103.72,-30.4055,-80.8939,30.6982,2220.9,12466.3,555.109,-27.3484,-15.5699,-21.5423,-12403.7,8498.25,5309.68,-42.016,-206.332,-39.3222,12668.5,-773.283,-280.309,6.48266,-15.2427,-20.7912
5.3965,4658.54,339.216,11613.5,-17.7229,-190.685,-2.53443,20755.3,-4943.91,-11407.8,38.1314,52.6262,100.812,-145.852,13791.5,-2670.25,-44.7292,-41.7977,-141.013,-21939.9,-4758.13,-1034.29,-30.7923,-82.1617,33.4926,2198.05,12471.4,569.176,-27.5817,-16.0457,-21.3895,-12137.5,8394.03,5257.05,-38.1637,-203.12,-40.1843,12674.4,-697.41,-326.7,8.27192,-14.3279,-21.3558
5.397,4671.77,350.392,11622.2,-18.2376,-191.959,-2.99224,20534.0,-4800.2,-11310.6,41.9728,49.3753,101.536,-140.539,13808.3,-2657.21,-44.6926,-42.0321,-141.362,-21771.5,-4868.1,-964.865,-31.179,-83.4296,36.2871,2175.19,12476.4,583.242,-27.8149,-16.5215,-21.2366,-11871.4,8289.81,5204.42,-34.3113,-199.909,-41.0463,12680.4,-621.537,-373.09,10.0612,-13.4131,-21.9204
5.3975,4685.0,361.568,11630.8,-18.7523,-193.233,-3.45006,20312.7,-4656.5,-11213.4,45.8142,46.1243,102.259,-135.226,13825.1,-2644.17,-44.656,-42.2664,-141.711,-21603.1,-4978.07,-895.436,-31.5658,-84.6974,39.0816,2152.34,12481.4,597.309,-28.0481,-16.9973,-21.0838,-11605.2,8185.59,5151.79,-30.4589,-196.697,-41.9084,12686.4,-545.665,-419.481,11.8504,-12.4982,-22.485
5.398,4698.23,372.744,11639.5,-19.2671,-194.507,-3.90787,20091.3,-4512.79,-11116.1,49.6557,42.8733,102.982,-129.912,13841.8,-2631.13,-44.6194,-42.5007,-142.059,-21434.7,-5088.04,-826.007,-31.9525,-85.9653,41.876,2129.48,12486.5,611.376,-28.2814,-17.4731,-20.931,-11339.0,8081.37,5099.16,-26.6066,-193.486,-42.7705,12692.4,-469.792,-465.872,13.6397,-11.5834,-23.0496
5.3985,4711.46,383.92,11648.2,-19.7818,-195.781,-4.36568,19870.0,-4369.09,-11018.9,53.4971,39.6223,103.706,-124.599,13858.6,-2618.09,-44.5828,-42.7351,-142.408,-21266.2,-5198.01,-756.577,-32.3393,-87.2331,44.6705,2106.63,12491.5,625.442,-28.5146,-17.9489,-20.7781,-11072.8,7977.15,5046.53,-22.7542,-190.274,-43.6325,12698.4,-393.919,-512.262,15.429,-10.6686,-23.6142
5.399,4724.68,395.096,11656.8,-20.2965,-197.055,-4.8235,19648.6,-4225.39,-10921.6,57.3385,36.3714,104.429,-119.286,13875.3,-2605.05,-44.5462,-42.9694,-142.757,-21097.8,-5307.98,-687.148,-32.726,-88.5009,47.465,2083.77,12496.6,639.509,-28.7478,-18.4247,-20.6253,-10806.7,7872.93,4993.9,-18.9018,-187.063,-44.4946,12704.4,-318.046,-558.653,17.2182,-9.75373,-24.1788
5.3995,4737.91,406.272,11665.5,-20.8112,-198.329,-5.28131,19427.3,-4081.68,-10824.4,61.1799,33.1204,105.152,-113.972,13892.1,-2592.0,-44.5096,-43.2037,-143.105,-20929.4,-5417.95,-617.718,-33.1128,-89.7688,50.2594,2060.92,12501.6,653.576,-28.9811,-18.9005,-20.4725,-10540.5,7768.71,4941.27,-15.0494,-183.851,-45.3567,12710.3,-242.174,-605.043,19.0075,-8.8389,-24.7434
5.4,4751.14,417.448,11674.1,-21.3259,-199.603,-5.73913,19205.9,-3937.98,-10727.2,65.0214,29.8694,105.876,-108.659,13908.8,-2578.96,-44.473,-43.4381,-143.454,-20761.0,-5527.92,-548.289,-33.4995,-91.0366,53.0539,2038.06,12506.6,667.642,-29.2143,-19.3762,-20.3197,-10274.3,7664.49,4888.64,-11.1971,-180.64,-46.2187,12716.3,-166.301,-651.434,20.7967,-7.92407,-25.3079
5.4005,4741.93,453.093,11683.5,-21.5944,-200.874,-6.02405,19057.7,-3799.61,-10616.0,67.666,26.5058,105.752,-101.148,13936.6,-2538.45,-44.4949,-43.754,-143.8,-20550.8,-5723.23,-548.041,-33.5969,-91.4334,55.479,2037.51,12488.6,660.303,-29.4549,-20.0292,-20.3018,-9962.77,7639.04,4743.8,-8.79293,-176.802,-46.8381,12714.0,-100.996,-694.081,22.0999,-7.19512,-25.9265
5.401,4732.72,488.738,11692.8,-21.8629,-202.146,-6.30897,18909.5,-3661.24,-10504.7,70.3106,23.1422,105.628,-93.6368,13964.3,-2497.93,-44.5169,-44.07,-144.146,-20340.6,-5918.53,-547.793,-33.6942,-91.8301,57.904,2036.96,12470.6,652.963,-29.6955,-20.6821,-20.2839,-9651.23,7613.59,4598.95,-6.38878,-172.964,-47.4575,12711.6,-35.6903,-736.728,23.4031,-6.46617,-26.5451
5.4015,4723.5,524.383,11702.1,-22.1314,-203.417,-6.59389,18761.3,-3522.87,-10393.5,72.9552,19.7786,105.504,-86.1257,13992.0,-2457.42,-44.5388,-44.3859,-144.492,-20130.3,-6113.84,-547.545,-33.7915,-92.2269,60.3291,2036.41,12452.5,645.623,-29.9361,-21.335,-20.266,-9339.7,7588.15,4454.1,-3.98463,-169.126,-48.0769,12709.2,29.6151,-779.375,24.7063,-5.73723,-27.1637
5.402,4714.29,560.028,11711.4,-22.3999,-204.688,-6.87881,18613.1,-3384.5,-10282.3,75.5999,16.4149,105.381,-78.6146,14019.8,-2416.9,-44.5608,-44.7019,-144.838,-19920.1,-6309.14,-547.297,-33.8889,-92.6236,62.7542,2035.86,12434.5,638.283,-30.1767,-21.9879,-20.2481,-9028.16,7562.7,4309.26,-1.58048,-165.289,-48.6963,12706.8,94.9204,-822.021,26.0094,-5.00828,-27.7823
5.4025,4705.08,595.674,11720.7,-22.6684,-205.959,-7.16373,18464.9,-3246.13,-10171.1,78.2445,13.0513,105.257,-71.1035,14047.5,-2376.39,-44.5827,-45.0178,-145.184,-19709.9,-6504.45,-547.049,-33.9862,-93.0203,65.1792,2035.31,12416.5,630.943,-30.4172,-22.6409,-20.2302,-8716.63,7537.25,4164.41,0.823669,-161.451,-49.3157,12704.4,160.226,-864.669,27.3126,-4.27933,-28.4009
5.403,4695.87,631.319,11730.0,-22.937,-207.23,-7.44865,18316.8,-3107.76,-10059.9,80.8891,9.6877,105.133,-63.5924,14075.2,-2335.87,-44.6047,-45.3338,-145.53,-19499.6,-6699.75,-546.801,-34.0835,-93.4171,67.6043,2034.75,12398.5,623.604,-30.6578,-23.2938,-20.2123,-8405.09,7511.81,4019.57,3.22782,-157.613,-49.9351,12702.0,225.531,-907.315,28.6158,-3.55038,-29.0195
5.4035,4686.65,666.964,11739.3,-23.2055,-208.501,-7.73356,18168.6,-2969.4,-9948.63,83.5337,6.32408,105.009,-56.0813,14103.0,-2295.36,-44.6266,-45.6497,-145.876,-19289.4,-6895.06,-546.553,-34.1808,-93.8138,70.0294,2034.2,12380.4,616.264,-30.8984,-23.9467,-20.1945,-8093.55,7486.36,3874.72,5.63197,-153.775,-50.5544,12699.7,290.836,-949.963,29.919,-2.82143,-29.6381
5.404,4677.44,702.609,11748.6,-23.474,-209.772,-8.01849,18020.4,-2831.03,-9837.41,86.1784,2.96046,104.885,-48.5702,14130.7,-2254.84,-44.6486,-45.9657,-146.221,-19079.2,-7090.36,-546.305,-34.2782,-94.2106,72.4545,2033.65,12362.4,608.924,-31.139,-24.5996,-20.1766,-7782.02,7460.91,3729.87,8.03612,-149.938,-51.1738,12697.3,356.142,-992.609,31.2221,-2.09248,-30.2567
5.4045,4668.44,735.989,11755.5,-23.7311,-211.04,-8.29435,17880.0,-2699.64,-9723.83,88.7075,-0.405226,104.68,-38.8404,14158.2,-2212.68,-44.6765,-46.2786,-146.566,-18864.6,-7289.42,-545.164,-34.3418,-94.4892,74.8209,2033.85,12345.4,602.487,-31.373,-25.2716,-20.1527,-7473.04,7441.48,3582.8,10.2719,-146.01,-51.7573,12699.0,422.247,-1031.22,32.4191,-1.42607,-30.8342
5.405,4661.18,751.247,11743.2,-23.8976,-212.279,-8.49782,17802.4,-2624.07,-9591.35,90.3122,-3.78744,103.826,-11.3605,14184.0,-2157.4,-44.7521,-46.5678,-146.904,-18615.5,-7518.5,-536.881,-34.1361,-93.8233,76.7187,2040.08,12336.2,603.266,-31.5541,-26.0961,-20.0814,-7184.51,7470.13,3417.96,11.1611,-141.365,-52.0536,12733.6,494.753,-1037.57,32.7666,-1.25996,-31.0829
5.4055,4653.92,766.506,11730.8,-24.064,-213.519,-8.70129,17724.7,-2548.51,-9458.87,91.9169,-7.16965,102.971,16.1193,14209.9,-2102.13,-44.8276,-46.8569,-147.242,-18366.3,-7747.59,-528.597,-33.9303,-93.1573,78.6164,2046.3,12327.1,604.046,-31.7352,-26.9207,-20.01,-6895.98,7498.77,3253.12,12.0502,-136.72,-52.3499,12768.2,567.258,-1043.92,33.1141,-1.09384,-31.3317
5.406,4646.65,781.764,11718.5,-24.2305,-214.758,-8.90476,17647.0,-2472.95,-9326.39,93.5217,-10.5519,102.116,43.5992,14235.7,-2046.85,-44.9032,-47.1461,-147.579,-18117.2,-7976.67,-520.313,-33.7246,-92.4913,80.5142,2052.53,12317.9,604.825,-31.9163,-27.7452,-19.9387,-6607.46,7527.42,3088.28,12.9393,-132.075,-52.6461,12802.7,639.763,-1050.28,33.4616,-0.927729,-31.5804
5.4065,4639.39,797.023,11706.2,-24.3969,-215.997,-9.10822,17569.4,-2397.38,-9193.91,95.1264,-13.9341,101.261,71.079,14261.6,-1991.57,-44.9788,-47.4352,-147.917,-17868.0,-8205.76,-512.029,-33.5188,-91.8254,82.412,2058.75,12308.8,605.605,-32.0974,-28.5698,-19.8673,-6318.93,7556.07,2923.43,13.8285,-127.43,-52.9424,12837.3,712.269,-1056.63,33.809,-0.761615,-31.8292
5.407,4632.13,812.281,11693.9,-24.5634,-217.237,-9.31169,17491.7,-2321.82,-9061.43,96.7311,-17.3163,100.407,98.5589,14287.4,-1936.29,-45.0544,-47.7244,-148.254,-17618.9,-8434.84,-503.745,-33.3131,-91.1594,84.3097,2064.98,12299.6,606.384,-32.2785,-29.3943,-19.796,-6030.4,7584.71,2758.59,14.7176,-122.785,-53.2387,12871.9,784.774,-1062.98,34.1565,-0.595502,-32.0779
5.4075,4624.87,827.54,11681.5,-24.7298,-218.476,-9.51516,17414.1,-2246.26,-8928.95,98.3359,-20.6985,99.5521,126.039,14313.2,-1881.01,-45.1299,-48.0135,-148.592,-17369.8,-8663.93,-495.462,-33.1073,-90.4935,86.2075,2071.2,12290.4,607.164,-32.4596,-30.2188,-19.7246,-5741.87,7613.36,2593.75,15.6068,-118.139,-53.5349,12906.4,857.279,-1069.33,34.504,-0.429389,-32.3267
5.408,4617.6,842.799,11669.2,-24.8963,-219.715,-9.71863,17336.4,-2170.7,-8796.47,99.9406,-24.0807,98.6974,153.519,14339.1,-1825.73,-45.2055,-48.3027,-148.929,-17120.6,-8893.01,-487.178,-32.9016,-89.8275,88.1053,2077.42,12281.3,607.944,-32.6407,-31.0434,-19.6533,-5453.35,7642.01,2428.91,16.4959,-113.494,-53.8312,12941.0,929.785,-1075.68,34.8515,-0.263275,-32.5754
5.4085,4610.34,858.057,11656.9,-25.0627,-220.955,-9.92209,17258.7,-2095.13,-8663.99,101.545,-27.4629,97.8427,180.998,14364.9,-1770.45,-45.2811,-48.5918,-149.267,-16871.5,-9122.1,-478.894,-32.6958,-89.1615,90.003,2083.65,12272.1,608.723,-32.8218,-31.8679,-19.5819,-5164.82,7670.65,2264.06,17.385,-108.849,-54.1275,12975.6,1002.29,-1082.03,35.199,-0.0971621,-32.8242
5.409,4606.7,869.555,11652.2,-25.1717,-222.2,-10.1016,17190.0,-2026.39,-8530.84,102.945,-30.8122,96.8965,209.65,14391.2,-1722.8,-45.3264,-48.8704,-149.585,-16619.4,-9336.86,-464.086,-32.4472,-88.3689,91.8011,2093.24,12260.9,606.516,-32.9951,-32.704,-19.5309,-4887.57,7678.22,2114.87,18.4439,-104.093,-54.4029,13007.4,1067.15,-1085.51,35.3717,-0.0704379,-32.9854
5.4095,4615.77,867.889,11674.0,-25.0796,-223.465,-10.197,17152.4,-1981.5,-8395.37,103.628,-34.0459,95.6297,242.401,14419.1,-1701.86,-45.266,-49.1118,-149.836,-16357.0,-9501.5,-426.44,-32.0486,-87.1327,93.2503,2114.63,12242.3,593.854,-33.1411,-33.5806,-19.551,-4649.81,7612.03,2020.44,20.0966,-98.9464,-54.6053,13029.6,1105.27,-1078.97,34.933,-0.531576,-32.84
5.41,4624.83,866.224,11695.9,-24.9875,-224.731,-10.2925,17114.8,-1936.61,-8259.9,104.312,-37.2796,94.363,275.153,14447.1,-1680.92,-45.2057,-49.3532,-150.087,-16094.6,-9666.15,-388.794,-31.6501,-85.8965,94.6995,2136.02,12223.7,581.191,-33.2872,-34.4572,-19.5711,-4412.05,7545.83,1926.01,21.7493,-93.8001,-54.8078,13051.8,1143.38,-1072.43,34.4943,-0.992713,-32.6947
5.4105,4633.9,864.558,11717.8,-24.8955,-225.996,-10.3879,17077.2,-1891.72,-8124.43,104.995,-40.5133,93.0962,307.905,14475.0,-1659.97,-45.1453,-49.5946,-150.338,-15832.3,-9830.79,-351.149,-31.2515,-84.6603,96.1487,2157.41,12205.1,568.529,-33.4332,-35.3338,-19.5912,-4174.29,7479.63,1831.58,23.4021,-88.6538,-55.0103,13074.0,1181.5,-1065.88,34.0555,-1.45385,-32.5494
5.411,4642.96,862.893,11739.7,-24.8034,-227.262,-10.4834,17039.6,-1846.83,-7988.96,105.678,-43.747,91.8295,340.656,14503.0,-1639.03,-45.0849,-49.836,-150.589,-15569.9,-9995.42,-313.503,-30.8529,-83.4241,97.598,2178.8,12186.4,555.867,-33.5792,-36.2104,-19.6113,-3936.53,7413.43,1737.15,25.0548,-83.5074,-55.2127,13096.3,1219.61,-1059.34,33.6168,-1.91499,-32.4041
5.4115,4652.03,861.227,11761.6,-24.7113,-228.528,-10.5788,17002.0,-1801.94,-7853.49,106.361,-46.9807,90.5627,373.408,14530.9,-1618.09,-45.0245,-50.0774,-150.84,-15307.5,-10160.1,-275.858,-30.4543,-82.1879,99.0472,2200.19,12167.8,543.205,-33.7253,-37.087,-19.6315,-3698.77,7347.23,1642.71,26.7076,-78.3611,-55.4152,13118.5,1257.72,-1052.79,33.1781,-2.37613,-32.2588
5.412,4661.09,859.562,11783.4,-24.6192,-229.793,-10.6743,16964.4,-1757.05,-7718.02,107.044,-50.2145,89.296,406.16,14558.9,-1597.15,-44.9641,-50.3188,-151.091,-15045.1,-10324.7,-238.212,-30.0558,-80.9517,100.496,2221.58,12149.2,530.543,-33.8713,-37.9636,-19.6516,-3461.01,7281.03,1548.28,28.3603,-73.2148,-55.6176,13140.7,1295.84,-1046.25,32.7394,-2.83726,-32.1135
5.4125,4670.16,857.896,11805.3,-24.5271,-231.059,-10.7697,16926.8,-1712.17,-7582.55,107.727,-53.4482,88.0292,438.911,14586.8,-1576.21,-44.9037,-50.5602,-151.342,-14782.8,-10489.3,-200.567,-29.6572,-79.7154,101.946,2242.96,12130.6,517.881,-34.0173,-38.8402,-19.6717,-3223.24,7214.83,1453.85,30.013,-68.0685,-55.8201,13162.9,1333.95,-1039.71,32.3006,-3.2984,-31.9682
5.413,4679.22,856.23,11827.2,-24.4351,-232.324,-10.8652,16889.2,-1667.28,-7447.08,108.411,-56.6819,86.7624,471.663,14614.7,-1555.26,-44.8433,-50.8016,-151.593,-14520.4,-10654.0,-162.921,-29.2586,-78.4792,103.395,2264.35,12112.0,505.219,-34.1634,-39.7168,-19.6918,-2985.48,7148.63,1359.42,31.6658,-62.9221,-56.0226,13185.1,1372.07,-1033.16,31.8619,-3.75954,-31.8229
5.4135,4678.19,850.473,11842.4,-24.3276,-233.598,-10.9459,16855.6,-1609.54,-7314.37,108.864,-59.8041,85.4938,507.319,14644.1,-1539.92,-44.8006,-51.0336,-151.822,-14269.3,-10797.1,-121.477,-28.8053,-77.1631,104.722,2281.84,12092.3,497.394,-34.3727,-40.6348,-19.7228,-2760.64,7098.87,1277.06,33.1413,-57.7203,-55.9639,13200.9,1409.11,-1022.51,31.4137,-4.41493,-31.5918
5.414,4656.99,836.533,11844.3,-24.1892,-234.888,-10.997,16830.0,-1526.11,-7187.16,108.859,-62.7032,84.2214,548.785,14676.3,-1535.78,-44.7936,-51.2466,-152.007,-14040.7,-10897.2,-72.4339,-28.2427,-75.6872,105.807,2291.54,12070.3,499.245,-34.7088,-41.6357,-19.7756,-2561.64,7081.99,1218.84,34.2622,-52.4076,-55.3832,13203.8,1444.03,-1003.64,30.9467,-5.45882,-31.189
5.4145,4635.79,822.593,11846.1,-24.0508,-236.178,-11.0482,16804.4,-1442.67,-7059.95,108.854,-65.6023,82.949,590.251,14708.6,-1531.64,-44.7865,-51.4596,-152.192,-13812.1,-10997.3,-23.3912,-27.6801,-74.2113,106.891,2301.24,12048.3,501.095,-35.0448,-42.6366,-19.8284,-2362.65,7065.1,1160.61,35.3832,-47.0948,-54.8025,13206.7,1478.94,-984.772,30.4797,-6.50271,-30.7862
5.415,4614.59,808.653,11848.0,-23.9125,-237.468,-11.0993,16778.8,-1359.24,-6932.75,108.848,-68.5014,81.6766,631.716,14740.8,-1527.5,-44.7794,-51.6727,-152.377,-13583.6,-11097.4,25.6515,-27.1174,-72.7354,107.976,2310.93,12026.3,502.946,-35.3808,-43.6374,-19.8812,-2163.65,7048.22,1102.39,36.5041,-41.7821,-54.2217,13209.6,1513.86,-965.903,30.0126,-7.5466,-30.3835
5.4155,4593.39,794.713,11849.9,-23.7741,-238.759,-11.1505,16753.2,-1275.8,-6805.54,108.843,-71.4005,80.4041,673.182,14773.0,-1523.36,-44.7724,-51.8857,-152.562,-13355.0,-11197.5,74.6943,-26.5548,-71.2594,109.06,2320.63,12004.4,504.796,-35.7168,-44.6383,-19.934,-1964.65,7031.34,1044.17,37.6251,-36.4694,-53.641,13212.5,1548.78,-947.033,29.5456,-8.59049,-29.9807
5.416,4572.19,780.773,11851.7,-23.6357,-240.049,-11.2016,16727.6,-1192.37,-6678.33,108.837,-74.2996,79.1317,714.648,14805.2,-1519.22,-44.7653,-52.0987,-152.747,-13126.4,-11297.6,123.737,-25.9921,-69.7835,110.144,2330.32,11982.4,506.647,-36.0528,-45.6392,-19.9868,-1765.65,7014.46,985.943,38.746,-31.1566,-53.0602,13215.4,1583.69,-928.163,29.0785,-9.63438,-29.5779
5.4165,4550.98,766.833,11853.6,-23.4974,-241.339,-11.2528,16702.0,-1108.93,-6551.13,108.832,-77.1987,77.8593,756.114,14837.5,-1515.08,-44.7582,-52.3118,-152.932,-12897.8,-11397.7,172.78,-25.4295,-68.3076,111.229,2340.02,11960.4,508.498,-36.3888,-46.64,-20.0396,-1566.65,6997.57,927.72,39.867,-25.8439,-52.4795,13218.3,1618.61,-909.294,28.6115,-10.6783,-29.1752
5.417,4529.78,752.893,11855.5,-23.359,-242.629,-11.3039,16676.4,-1025.5,-6423.92,108.827,-80.0978,76.5869,797.579,14869.7,-1510.94,-44.7512,-52.5248,-153.117,-12669.3,-11497.8,221.822,-24.8668,-66.8316,112.313,2349.71,11938.4,510.348,-36.7248,-47.6409,-20.0924,-1367.66,6980.69,869.497,40.9879,-20.5311,-51.8988,13221.2,1653.52,-890.424,28.1444,-11.7222,-28.7724
5.4175,4508.58,738.953,11857.4,-23.2206,-243.919,-11.3551,16650.8,-942.066,-6296.71,108.821,-82.9969,75.3145,839.045,14901.9,-1506.8,-44.7441,-52.7379,-153.302,-12440.7,-11597.9,270.865,-24.3042,-65.3557,113.398,2359.41,11916.4,512.199,-37.0608,-48.6418,-20.1452,-1168.66,6963.81,811.274,42.1089,-15.2184,-51.318,13224.1,1688.44,-871.555,27.6774,-12.766,-28.3696
5.418,4495.12,719.53,11859.2,-23.1974,-245.238,-11.4254,16639.0,-844.394,-6168.19,108.564,-85.7092,73.9459,872.267,14926.6,-1504.76,-44.7473,-52.919,-153.486,-12250.7,-11672.4,315.911,-23.7477,-63.7961,114.404,2367.47,11901.2,519.345,-37.4423,-49.6312,-20.1474,-1011.54,6965.39,781.5,42.6735,-10.095,-50.3974,13227.6,1713.8,-854.565,27.2818,-13.8927,-27.9118
5.4185,4491.35,693.254,11860.9,-23.318,-246.592,-11.5196,16644.6,-728.924,-6038.03,107.992,-88.188,72.4573,895.183,14942.0,-1505.35,-44.7634,-53.0604,-153.668,-12108.9,-11714.7,355.96,-23.1989,-62.1319,115.311,2373.49,11894.3,533.11,-37.8807,-50.6063,-20.0865,-906.775,6990.06,787.29,42.5428,-5.20835,-49.0518,13231.8,1727.21,-839.925,26.9754,-15.1229,-27.3852
5.419,4487.58,666.977,11862.6,-23.4387,-247.945,-11.6138,16650.1,-613.454,-5907.87,107.42,-90.6669,70.9686,918.099,14957.4,-1505.94,-44.7795,-53.2017,-153.85,-11967.0,-11757.0,396.008,-22.6502,-60.4677,116.219,2379.5,11887.4,546.875,-38.319,-51.5814,-20.0256,-802.009,7014.73,793.079,42.412,-0.321695,-47.7062,13236.0,1740.62,-825.286,26.6691,-16.353,-26.8586
5.4195,4483.81,640.701,11864.3,-23.5593,-249.299,-11.7081,16655.7,-497.985,-5777.71,106.847,-93.1457,69.48,941.016,14972.7,-1506.53,-44.7956,-53.3431,-154.032,-11825.2,-11799.3,436.057,-22.1014,-58.8034,117.127,2385.52,11880.5,560.641,-38.7573,-52.5565,-19.9647,-697.244,7039.4,798.868,42.2813,4.56496,-46.3606,13240.2,1754.03,-810.646,26.3627,-17.5832,-26.332
5.42,4480.04,614.425,11866.1,-23.68,-250.653,-11.8023,16661.2,-382.515,-5647.55,106.275,-95.6245,67.9913,963.932,14988.1,-1507.11,-44.8117,-53.4844,-154.214,-11683.4,-11841.6,476.106,-21.5526,-57.1392,118.035,2391.54,11873.6,574.406,-39.1957,-53.5315,-19.9038,-592.478,7064.07,804.658,42.1506,9.45162,-45.0151,13244.5,1767.44,-796.007,26.0563,-18.8133,-25.8054
5.4205,4476.27,588.149,11867.8,-23.8006,-252.006,-11.8966,16666.7,-267.045,-5517.39,105.703,-98.1033,66.5027,986.849,15003.5,-1507.7,-44.8278,-53.6257,-154.396,-11541.6,-11883.9,516.155,-21.0039,-55.475,118.943,2397.55,11866.7,588.171,-39.634,-54.5066,-19.8429,-487.712,7088.74,810.447,42.0198,14.3383,-43.6695,13248.7,1780.85,-781.367,25.75,-20.0435,-25.2788
5.421,4472.5,561.872,11869.5,-23.9213,-253.36,-11.9908,16672.3,-151.576,-5387.23,105.131,-100.582,65.014,1009.77,15018.9,-1508.29,-44.8439,-53.7671,-154.579,-11399.8,-11926.2,556.204,-20.4551,-53.8107,119.851,2403.57,11859.8,601.936,-40.0723,-55.4817,-19.782,-382.946,7113.41,816.236,41.8891,19.2249,-42.3239,13252.9,1794.26,-766.728,25.4436,-21.2736,-24.7521
5.4215,4468.72,535.596,11871.3,-24.0419,-254.714,-12.085,16677.8,-36.1059,-5257.06,104.558,-103.061,63.5254,1032.68,15034.2,-1508.88,-44.86,-53.9084,-154.761,-11258.0,-11968.5,596.253,-19.9064,-52.1465,120.758,2409.59,11852.9,615.702,-40.5107,-56.4568,-19.7211,-278.181,7138.08,822.026,41.7584,24.1116,-40.9783,13257.1,1807.67,-752.088,25.1372,-22.5038,-24.2255
5.422,4464.95,509.32,11873.0,-24.1626,-256.067,-12.1793,16683.3,79.3638,-5126.9,103.986,-105.54,62.0367,1055.6,15049.6,-1509.46,-44.8761,-54.0498,-154.943,-11116.1,-12010.8,636.302,-19.3576,-50.4823,121.666,2415.6,11846.0,629.467,-40.949,-57.4319,-19.6601,-173.415,7162.75,827.815,41.6276,28.9983,-39.6328,13261.3,1821.08,-737.449,24.8309,-23.7339,-23.6989
5.4225,4465.26,489.66,11879.9,-24.2047,-257.548,-12.2992,16702.3,190.492,-4985.01,103.051,-107.685,60.3393,1072.64,15053.1,-1509.98,-44.8654,-54.2053,-155.149,-11017.9,-12033.1,655.419,-18.8898,-48.745,122.59,2439.94,11851.6,627.803,-41.3226,-58.3293,-19.5897,-99.7706,7188.86,840.455,41.665,33.4559,-38.184,13261.5,1844.37,-738.849,24.6694,-24.8468,-23.1529
5.423,4468.82,475.294,11890.8,-24.1838,-259.131,-12.4398,16732.0,298.148,-4833.73,101.827,-109.564,58.4749,1084.99,15047.2,-1510.43,-44.8333,-54.3722,-155.376,-10954.4,-12039.5,657.791,-18.4867,-46.9492,123.527,2478.92,11867.0,613.795,-41.6444,-59.1645,-19.5116,-51.0234,7216.14,858.575,41.8368,37.5703,-36.6527,13258.6,1875.57,-753.08,24.6238,-25.866,-22.5912
5.4235,4472.38,460.928,11901.8,-24.163,-260.714,-12.5803,16761.7,405.804,-4682.45,100.602,-111.442,56.6104,1097.33,15041.3,-1510.88,-44.8013,-54.5392,-155.602,-10891.0,-12045.8,660.163,-18.0836,-45.1534,124.464,2517.91,11882.5,599.788,-41.9662,-59.9998,-19.4336,-2.27619,7243.42,876.695,42.0087,41.6847,-35.1214,13255.6,1906.77,-767.311,24.5781,-26.8851,-22.0296
5.424,4475.95,446.562,11912.7,-24.1422,-262.297,-12.7209,16791.4,513.46,-4531.17,99.3772,-113.321,54.7459,1109.68,15035.4,-1511.33,-44.7692,-54.7061,-155.828,-10827.5,-12052.1,662.535,-17.6805,-43.3576,125.4,2556.9,11898.0,585.781,-42.288,-60.8351,-19.3555,46.471,7270.69,894.815,42.1805,45.7991,-33.5901,13252.7,1937.96,-781.542,24.5325,-27.9043,-21.468
5.4245,4479.51,432.195,11923.7,-24.1214,-263.879,-12.8614,16821.1,621.115,-4379.9,98.1525,-115.199,52.8815,1122.02,15029.5,-1511.78,-44.7371,-54.873,-156.054,-10764.0,-12058.5,664.907,-17.2774,-41.5619,126.337,2595.89,11913.5,571.773,-42.6097,-61.6703,-19.2775,95.2182,7297.97,912.935,42.3524,49.9134,-32.0587,13249.7,1969.16,-795.773,24.4869,-28.9234,-20.9064
5.425,4483.07,417.829,11934.7,-24.1006,-265.462,-13.002,16850.9,728.771,-4228.62,96.9277,-117.078,51.017,1134.36,15023.6,-1512.23,-44.705,-55.0399,-156.28,-10700.6,-12064.8,667.279,-16.8744,-39.7661,127.274,2634.87,11928.9,557.766,-42.9315,-62.5056,-19.1994,143.965,7325.25,931.055,42.5242,54.0278,-30.5274,13246.8,2000.36,-810.004,24.4413,-29.9426,-20.3448
5.4255,4486.64,403.463,11945.6,-24.0798,-267.045,-13.1425,16880.6,836.427,-4077.34,95.703,-118.957,49.1526,1146.71,15017.7,-1512.68,-44.6729,-55.2069,-156.507,-10637.1,-12071.1,669.651,-16.4713,-37.9703,128.211,2673.86,11944.4,543.758,-43.2533,-63.3408,-19.1213,192.713,7352.52,949.175,42.696,58.1422,-28.9961,13243.8,2031.56,-824.235,24.3957,-30.9617,-19.7832
5.426,4490.2,389.096,11956.6,-24.059,-268.628,-13.2831,16910.3,944.083,-3926.06,94.4783,-120.835,47.2881,1159.05,15011.8,-1513.14,-44.6409,-55.3738,-156.733,-10573.7,-12077.5,672.023,-16.0682,-36.1745,129.148,2712.85,11959.9,529.751,-43.5751,-64.1761,-19.0433,241.46,7379.8,967.295,42.8679,62.2566,-27.4648,13240.8,2062.75,-838.466,24.35,-31.9809,-19.2216
5.4265,4493.76,374.73,11967.5,-24.0382,-270.211,-13.4236,16940.0,1051.74,-3774.78,93.2535,-122.714,45.4237,1171.4,15005.9,-1513.59,-44.6088,-55.5407,-156.959,-10510.2,-12083.8,674.395,-15.6651,-34.3787,130.084,2751.83,11975.4,515.744,-43.8969,-65.0113,-18.9652,290.207,7407.07,985.415,43.0397,66.371,-25.9335,13237.9,2093.95,-852.697,24.3044,-33.0,-18.66
5.427,4492.7,377.292,11938.3,-24.2288,-271.895,-13.5889,16988.4,1159.05,-3614.9,91.6177,-124.172,43.4944,1180.43,14992.3,-1513.79,-44.5603,-55.7277,-157.251,-10486.7,-12087.7,676.759,-15.3833,-32.7208,131.05,2789.19,11993.8,510.994,-44.2397,-65.6821,-18.7859,348.305,7443.46,1025.56,43.1229,69.4501,-24.0596,13227.4,2116.88,-889.325,24.2655,-33.7216,-18.1183
5.4275,4489.33,388.318,11889.1,-24.5252,-273.631,-13.7666,17046.1,1266.2,-3450.72,89.7764,-125.42,41.5327,1187.81,14974.9,-1513.87,-44.5037,-55.9249,-157.575,-10483.2,-12090.4,679.118,-15.162,-31.1318,132.029,2825.74,12013.6,510.873,-44.5928,-66.2705,-18.556,411.077,7484.39,1076.73,43.1618,72.0115,-22.0143,13213.1,2135.68,-937.152,24.2299,-34.2945,-17.5866
5.428,4485.96,399.344,11839.8,-24.8215,-275.367,-13.9442,17103.8,1373.34,-3286.54,87.935,-126.669,39.571,1195.18,14957.5,-1513.95,-44.4471,-56.122,-157.9,-10479.6,-12093.1,681.478,-14.9407,-29.5428,133.009,2862.29,12033.4,510.752,-44.946,-66.859,-18.3261,473.85,7525.33,1127.89,43.2007,74.5729,-19.9691,13198.9,2154.47,-984.978,24.1943,-34.8673,-17.0549
5.4285,4482.58,410.37,11790.5,-25.1179,-277.102,-14.1219,17161.5,1480.49,-3122.36,86.0937,-127.917,37.6092,1202.56,14940.1,-1514.03,-44.3906,-56.3191,-158.224,-10476.1,-12095.8,683.837,-14.7195,-27.9538,133.989,2898.84,12053.3,510.631,-45.2992,-67.4475,-18.0962,536.622,7566.26,1179.06,43.2396,77.1344,-17.9238,13184.6,2173.27,-1032.8,24.1588,-35.4402,-16.5232
5.429,4479.21,421.396,11741.2,-25.4143,-278.838,-14.2996,17219.2,1587.63,-2958.18,84.2523,-129.165,35.6475,1209.94,14922.7,-1514.11,-44.334,-56.5162,-158.548,-10472.5,-12098.5,686.197,-14.4982,-26.3648,134.968,2935.39,12073.1,510.51,-45.6524,-68.0359,-17.8662,599.395,7607.19,1230.22,43.2785,79.6958,-15.8785,13170.4,2192.07,-1080.63,24.1232,-36.0131,-15.9915
5.4295,4475.84,432.422,11691.9,-25.7106,-280.574,-14.4772,17276.9,1694.77,-2794.0,82.411,-130.414,33.6858,1217.31,14905.3,-1514.19,-44.2774,-56.7134,-158.873,-10469.0,-12101.2,688.556,-14.277,-24.7758,135.948,2971.93,12092.9,510.389,-46.0056,-68.6244,-17.6363,662.168,7648.13,1281.39,43.3174,82.2572,-13.8333,13156.1,2210.86,-1128.46,24.0876,-36.5859,-15.4598
5.43,4472.47,443.448,11642.6,-26.007,-282.309,-14.6549,17334.6,1801.92,-2629.82,80.5697,-131.662,31.7241,1224.69,14887.9,-1514.27,-44.2208,-56.9105,-159.197,-10465.5,-12103.9,690.916,-14.0557,-23.1867,136.927,3008.48,12112.8,510.269,-46.3588,-69.2128,-17.4064,724.94,7689.06,1332.55,43.3563,84.8186,-11.788,13141.9,2229.66,-1176.28,24.052,-37.1588,-14.928
5.4305,4469.09,454.474,11593.4,-26.3033,-284.045,-14.8325,17392.3,1909.06,-2465.64,78.7283,-132.91,29.7624,1232.06,14870.5,-1514.35,-44.1642,-57.1076,-159.522,-10461.9,-12106.6,693.275,-13.8345,-21.5977,137.907,3045.03,12132.6,510.148,-46.712,-69.8013,-17.1765,787.713,7730.0,1383.72,43.3952,87.38,-9.74279,13127.6,2248.46,-1224.11,24.0164,-37.7316,-14.3963
5.431,4465.72,465.5,11544.1,-26.5997,-285.781,-15.0102,17450.0,2016.21,-2301.46,76.887,-134.159,27.8007,1239.44,14853.1,-1514.43,-44.1076,-57.3047,-159.846,-10458.4,-12109.3,695.635,-13.6132,-20.0087,138.887,3081.58,12152.4,510.027,-47.0652,-70.3898,-16.9466,850.486,7770.93,1434.88,43.4341,89.9414,-7.69754,13113.4,2267.25,-1271.94,23.9808,-38.3045,-13.8646
5.4315,4483.43,484.21,11514.7,-26.5804,-287.431,-15.1048,17508.6,2142.85,-2082.09,73.0866,-134.662,26.0811,1242.38,14846.7,-1493.0,-43.9994,-57.6142,-160.125,-10457.5,-12131.3,705.832,-13.4869,-18.789,139.882,3125.58,12163.2,488.61,-47.3887,-70.7334,-16.6453,931.169,7830.57,1527.18,43.1222,90.4953,-5.8936,13094.8,2280.77,-1301.93,23.5941,-38.6932,-13.2286
5.432,4507.16,505.115,11491.0,-26.4708,-289.057,-15.1756,17567.4,2275.05,-1846.96,68.7265,-134.952,24.4307,1244.06,14843.5,-1465.42,-43.8764,-57.9558,-160.391,-10457.3,-12158.9,718.268,-13.3877,-17.6747,140.881,3171.72,12171.3,461.109,-47.7037,-71.0071,-16.3237,1016.97,7895.56,1631.23,42.71,90.4755,-4.15862,13075.0,2292.77,-1326.84,23.1071,-39.0292,-12.5627
5.4325,4530.9,526.02,11467.4,-26.3612,-290.683,-15.2464,17626.3,2407.26,-1611.83,64.3664,-135.243,22.7803,1245.74,14840.3,-1437.84,-43.7535,-58.2973,-160.657,-10457.2,-12186.5,730.704,-13.2885,-16.5605,141.88,3217.85,12179.5,433.608,-48.0188,-71.2807,-16.0021,1102.77,7960.54,1735.28,42.2978,90.4557,-2.42363,13055.2,2304.77,-1351.74,22.6201,-39.3653,-11.8969
5.433,4554.63,546.925,11443.7,-26.2517,-292.31,-15.3173,17685.1,2539.47,-1376.69,60.0064,-135.533,21.13,1247.42,14837.1,-1410.26,-43.6305,-58.6389,-160.922,-10457.1,-12214.0,743.14,-13.1894,-15.4463,142.879,3263.99,12187.6,406.107,-48.3338,-71.5544,-15.6804,1188.57,8025.52,1839.33,41.8855,90.436,-0.68864,13035.4,2316.77,-1376.64,22.1331,-39.7014,-11.2311
5.4335,4578.37,567.829,11420.0,-26.1421,-293.936,-15.3881,17743.9,2671.67,-1141.56,55.6463,-135.824,19.4796,1249.09,14833.9,-1382.69,-43.5076,-58.9805,-161.188,-10456.9,-12241.6,755.576,-13.0902,-14.332,143.878,3310.13,12195.8,378.606,-48.6488,-71.8281,-15.3588,1274.37,8090.51,1943.38,41.4733,90.4162,1.04635,13015.6,2328.78,-1401.54,21.6461,-40.0374,-10.5652
5.434,4602.1,588.734,11396.4,-26.0326,-295.562,-15.4589,17802.8,2803.88,-906.423,51.2862,-136.114,17.8292,1250.77,14830.7,-1355.11,-43.3846,-59.3221,-161.454,-10456.8,-12269.2,768.012,-12.991,-13.2178,144.877,3356.26,12203.9,351.105,-48.9638,-72.1017,-15.0372,1360.17,8155.49,2047.43,41.0611,90.3965,2.78134,12995.8,2340.78,-1426.44,21.159,-40.3735,-9.89936
5.4345,4625.83,609.639,11372.7,-25.923,-297.188,-15.5298,17861.6,2936.09,-671.289,46.9261,-136.404,16.1788,1252.45,14827.5,-1327.53,-43.2617,-59.6636,-161.72,-10456.7,-12296.8,780.449,-12.8918,-12.1036,145.877,3402.4,12212.1,323.604,-49.2789,-72.3754,-14.7155,1445.97,8220.47,2151.48,40.6489,90.3767,4.51632,12976.0,2352.78,-1451.34,20.672,-40.7096,-9.23352
5.435,4649.57,630.544,11349.0,-25.8135,-298.814,-15.6006,17920.5,3068.29,-436.155,42.566,-136.695,14.5284,1254.12,14824.3,-1299.95,-43.1387,-60.0052,-161.986,-10456.5,-12324.3,792.885,-12.7926,-10.9893,146.876,3448.53,12220.2,296.103,-49.5939,-72.649,-14.3939,1531.77,8285.46,2255.53,40.2367,90.3569,6.25131,12956.2,2364.79,-1476.25,20.185,-41.0456,-8.56767
5.4355,4673.3,651.449,11325.4,-25.7039,-300.44,-15.6714,17979.3,3200.5,-201.02,38.2059,-136.985,12.878,1255.8,14821.1,-1272.37,-43.0158,-60.3468,-162.251,-10456.4,-12351.9,805.321,-12.6934,-9.8751,147.875,3494.67,12228.4,268.602,-49.9089,-72.9227,-14.0723,1617.57,8350.44,2359.58,39.8245,90.3372,7.9863,12936.4,2376.79,-1501.15,19.698,-41.3817,-7.90183
5.436,4710.75,609.265,11365.3,-25.2067,-302.236,-15.7131,18016.5,3407.99,-36.5134,29.5365,-136.452,11.2064,1283.55,14818.2,-1223.57,-42.8824,-61.1044,-162.498,-10354.7,-12409.4,918.907,-12.4608,-9.91164,148.686,3569.01,12221.3,239.51,-50.1797,-72.8929,-13.7299,1769.85,8391.31,2458.59,39.1555,88.0433,9.35462,12903.8,2371.91,-1511.62,18.8275,-41.6891,-7.12186
5.4365,4749.91,559.194,11413.1,-24.6611,-304.054,-15.7512,18050.9,3624.89,119.165,20.3285,-135.816,9.53205,1314.56,14815.3,-1172.12,-42.7477,-61.914,-162.743,-10240.3,-12470.6,1045.14,-12.2115,-10.092,149.473,3646.88,12212.4,210.219,-50.4449,-72.8252,-13.385,1930.45,8429.18,2556.97,38.4544,85.4653,10.6771,12869.6,2364.92,-1520.28,17.9091,-41.993,-6.32763
5.437,4789.06,509.123,11460.9,-24.1155,-305.871,-15.7892,18085.4,3841.79,274.843,11.1204,-135.179,7.85775,1345.57,14812.4,-1120.66,-42.613,-62.7236,-162.988,-10125.9,-12531.8,1171.37,-11.9622,-10.2724,150.261,3724.75,12203.4,180.928,-50.7102,-72.7574,-13.0401,2091.04,8467.04,2655.34,37.7533,82.8872,11.9996,12835.4,2357.94,-1528.95,16.9907,-42.2969,-5.5334
5.4375,4828.22,459.052,11508.8,-23.5698,-307.688,-15.8273,18119.8,4058.69,430.522,1.91234,-134.543,6.18345,1376.57,14809.5,-1069.21,-42.4783,-63.5332,-163.233,-10011.4,-12593.0,1297.6,-11.7129,-10.4528,151.048,3802.62,12194.4,151.637,-50.9754,-72.6897,-12.6951,2251.63,8504.9,2753.72,37.0522,80.3091,13.3221,12801.2,2350.95,-1537.61,16.0723,-42.6007,-4.73917
5.438,4867.38,408.982,11556.6,-23.0242,-309.506,-15.8653,18154.3,4275.59,586.2,-7.29573,-133.906,4.50914,1407.58,14806.6,-1017.76,-42.3436,-64.3428,-163.477,-9897.04,-12654.2,1423.83,-11.4636,-10.6332,151.835,3880.49,12185.5,122.346,-51.2407,-72.6219,-12.3502,2412.22,8542.76,2852.1,36.3511,77.731,14.6446,12767.0,2343.96,-1546.28,15.1539,-42.9046,-3.94495
5.4385,4906.54,358.911,11604.5,-22.4786,-311.323,-15.9034,18188.7,4492.49,741.879,-16.5038,-133.27,2.83484,1438.59,14803.7,-966.301,-42.2089,-65.1525,-163.722,-9782.63,-12715.4,1550.06,-11.2142,-10.8136,152.623,3958.36,12176.5,93.0548,-51.5059,-72.5542,-12.0053,2572.81,8580.62,2950.47,35.65,75.1529,15.9671,12732.7,2336.97,-1554.94,14.2355,-43.2084,-3.15072
5.439,4945.7,308.84,11652.3,-21.9329,-313.14,-15.9414,18223.2,4709.39,897.557,-25.7119,-132.633,1.16054,1469.6,14800.8,-914.846,-42.0742,-65.9621,-163.967,-9668.22,-12776.6,1676.29,-10.9649,-10.994,153.41,4036.23,12167.6,63.7638,-51.7711,-72.4865,-11.6604,2733.4,8618.48,3048.85,34.949,72.5748,17.2896,12698.5,2329.98,-1563.61,13.3171,-43.5123,-2.35649
5.4395,4984.85,258.77,11700.2,-21.3873,-314.958,-15.9795,18257.7,4926.29,1053.24,-34.9199,-131.997,-0.513762,1500.6,14797.8,-863.392,-41.9395,-66.7717,-164.212,-9553.82,-12837.8,1802.52,-10.7156,-11.1744,154.198,4114.1,12158.6,34.4727,-52.0364,-72.4187,-11.3154,2893.99,8656.34,3147.22,34.2479,69.9967,18.612,12664.3,2323.0,-1572.27,12.3987,-43.8162,-1.56226
5.44,5024.01,208.699,11748.0,-20.8417,-316.775,-16.0175,18292.1,5143.19,1208.91,-44.128,-131.361,-2.18806,1531.61,14794.9,-811.937,-41.8048,-67.5813,-164.456,-9439.41,-12899.0,1928.75,-10.4663,-11.3548,154.985,4191.97,12149.6,5.18173,-52.3016,-72.351,-10.9705,3054.59,8694.2,3245.6,33.5468,67.4186,19.9345,12630.1,2316.01,-1580.94,11.4803,-44.12,-0.768029
5.4405,5007.1,102.81,11765.7,-20.4206,-318.447,-15.699,18027.0,5651.67,1489.95,-53.4434,-133.182,-2.12301,1594.1,14798.2,-755.235,-41.6658,-68.7252,-164.702,-9044.82,-13016.2,2397.29,-9.26027,-12.9193,155.759,4272.07,12146.4,-29.1182,-52.7372,-72.016,-10.6518,3284.84,8709.58,3270.09,32.6089,61.8485,20.9216,12609.1,2298.47,-1566.24,10.7545,-44.467,0.0605341
5.441,4990.19,-3.07798,11783.4,-19.9995,-320.119,-15.3804,17761.9,6160.16,1770.98,-62.7589,-135.004,-2.05795,1656.58,14801.4,-698.532,-41.5269,-69.869,-164.948,-8650.23,-13133.4,2865.83,-8.05424,-14.4838,156.534,4352.16,12143.1,-63.4182,-53.1729,-71.6811,-10.3331,3515.09,8724.96,3294.58,31.671,56.2784,21.9087,12588.1,2280.93,-1551.53,10.0288,-44.8139,0.889097
5.4415,4973.28,-108.966,11801.1,-19.5785,-321.791,-15.0618,17496.8,6668.64,2052.01,-72.0743,-136.825,-1.9929,1719.07,14804.7,-641.83,-41.388,-71.0128,-165.193,-8255.64,-13250.7,3334.36,-6.84822,-16.0483,157.308,4432.26,12139.8,-97.7181,-53.6085,-71.3462,-10.0144,3745.34,8740.34,3319.07,30.7332,50.7082,22.8958,12567.1,2263.39,-1536.83,9.303,-45.1609,1.71766
5.442,4956.36,-214.855,11818.8,-19.1574,-323.463,-14.7433,17231.7,7177.12,2333.04,-81.3898,-138.647,-1.92784,1781.56,14807.9,-585.127,-41.249,-72.1567,-165.439,-7861.04,-13367.9,3802.9,-5.6422,-17.6128,158.083,4512.35,12136.6,-132.018,-54.0441,-71.0112,-9.69567,3975.59,8755.72,3343.56,29.7953,45.1381,23.8829,12546.0,2245.85,-1522.12,8.57723,-45.5079,2.54622
5.4425,4939.45,-320.743,11836.5,-18.7363,-325.136,-14.4247,16966.6,7685.6,2614.08,-90.7052,-140.469,-1.86278,1844.04,14811.2,-528.425,-41.1101,-73.3005,-165.684,-7466.45,-13485.1,4271.44,-4.43617,-19.1773,158.857,4592.44,12133.3,-166.318,-54.4797,-70.6763,-9.37696,4205.84,8771.1,3368.05,28.8574,39.568,24.87,12525.0,2228.32,-1507.42,7.85146,-45.8548,3.37479
5.443,4922.54,-426.631,11854.2,-18.3152,-326.808,-14.1061,16701.5,8194.08,2895.11,-100.021,-142.29,-1.79773,1906.53,14814.4,-471.723,-40.9712,-74.4444,-165.93,-7071.86,-13602.3,4739.98,-3.23015,-20.7418,159.631,4672.54,12130.0,-200.618,-54.9153,-70.3414,-9.05826,4436.1,8786.48,3392.54,27.9196,33.9978,25.8571,12504.0,2210.78,-1492.72,7.12569,-46.2018,4.20335
5.4435,4905.63,-532.52,11871.9,-17.8941,-328.48,-13.7876,16436.4,8702.56,3176.14,-109.336,-144.112,-1.73267,1969.02,14817.7,-415.02,-40.8322,-75.5882,-166.175,-6677.27,-13719.6,5208.52,-2.02412,-22.3063,160.406,4752.63,12126.8,-234.918,-55.3509,-70.0064,-8.73955,4666.35,8801.86,3417.04,26.9817,28.4277,26.8442,12483.0,2193.24,-1478.01,6.39992,-46.5487,5.03191
5.444,4888.71,-638.408,11889.6,-17.4731,-330.152,-13.469,16171.3,9211.04,3457.17,-118.652,-145.933,-1.66762,2031.5,14820.9,-358.318,-40.6933,-76.732,-166.421,-6282.68,-13836.8,5677.06,-0.818096,-23.8708,161.18,4832.72,12123.5,-269.218,-55.7866,-69.6715,-8.42085,4896.6,8817.25,3441.53,26.0438,22.8576,27.8313,12462.0,2175.7,-1463.31,5.67415,-46.8957,5.86048
