Time,RFoot_accel.x,RFoot_accel.y,RFoot_accel.z,RFoot_gyro.x,RFoot_gyro.y,RFoot_gyro.z,LFoot_accel.x,LFoot_accel.y,LFoot_accel.z,LFoot_gyro.x,LFoot_gyro.y,LFoot_gyro.z,RShank_accel.x,RShank_accel.y,RShank_accel.z,RShank_gyro.x,RShank_gyro.y,RShank_gyro.z,LShank_accel.x,LShank_accel.y,LShank_accel.z,LShank_gyro.x,LShank_gyro.y,LShank_gyro.z,RThigh_accel.x,RThigh_accel.y,RThigh_accel.z,RThigh_gyro.x,RThigh_gyro.y,RThigh_gyro.z,LThigh_accel.x,LThigh_accel.y,LThigh_accel.z,LThigh_gyro.x,LThigh_gyro.y,LThigh_gyro.z,Pelvis_accel.x,Pelvis_accel.y,Pelvis_accel.z,Pelvis_gyro.x,Pelvis_gyro.y,Pelvis_gyro.z
0.0,5344.27,-3310.65,7359.17,0.350176,-3.15188,1.14083,4914.07,3622.78,7443.63,0.42714,0.469542,-1.33127,1309.32,9424.73,-2251.42,-1.72829,1.52918,1.79851,1376.95,-9621.58,-2538.52,-1.6582,-5.17494,-2.89257,-1011.58,9660.46,-1735.0,-1.99426,4.03751,0.566716,-2092.8,-9734.55,-1893.14,-2.02632,-4.51778,-3.20528,7244.75,506.109,6736.34,0.184447,-1.04011,5.2915
0.001,5344.53,-3300.83,7383.5,0.35792,-3.18785,1.21406,4916.62,3617.95,7433.66,0.422359,0.404127,-1.2859,1314.88,9394.58,-2242.63,-1.74218,1.50108,1.66844,1368.97,-9614.4,-2546.29,-1.63575,-5.23199,-2.924,-1036.44,9648.22,-1745.01,-1.95082,3.92844,0.677694,-2081.91,-9718.17,-1862.09,-2.09072,-4.82883,-3.10973,7231.63,494.084,6741.36,0.141611,-1.32435,5.24539
0.002,5344.8,-3291.01,7407.83,0.365663,-3.22382,1.28729,4919.16,3613.12,7423.69,0.417577,0.338712,-1.24053,1320.45,9364.43,-2233.84,-1.75608,1.47297,1.53836,1360.99,-9607.23,-2554.06,-1.6133,-5.28904,-2.95543,-1061.3,9635.99,-1755.02,-1.90738,3.81938,0.788671,-2071.01,-9701.79,-1831.04,-2.15511,-5.13989,-3.01419,7218.52,482.059,6746.39,0.098774,-1.60859,5.19928
0.003,5345.07,-3281.19,7432.16,0.373407,-3.25978,1.36052,4921.71,3608.29,7413.72,0.412796,0.273298,-1.19516,1326.01,9334.28,-2225.06,-1.76998,1.44486,1.40829,1353.01,-9600.06,-2561.83,-1.59085,-5.34609,-2.98686,-1086.16,9623.75,-1765.03,-1.86393,3.71032,0.899649,-2060.11,-9685.4,-1799.99,-2.21951,-5.45094,-2.91865,7205.4,470.034,6751.41,0.0559374,-1.89283,5.15317
0.004,5345.33,-3271.36,7456.48,0.381151,-3.29575,1.43375,4924.25,3603.45,7403.75,0.408015,0.207883,-1.14979,1331.57,9304.13,-2216.27,-1.78388,1.41675,1.27821,1345.03,-9592.89,-2569.61,-1.56839,-5.40315,-3.01829,-1111.02,9611.51,-1775.04,-1.82049,3.60125,1.01063,-2049.21,-9669.02,-1768.94,-2.28391,-5.76199,-2.8231,7192.29,458.009,6756.44,0.0131009,-2.17707,5.10706
0.005,5342.63,-3279.57,7459.35,0.370718,-3.28415,1.50683,4913.45,3617.92,7387.84,0.375782,0.180073,-1.07637,1320.88,9276.4,-2216.1,-1.77655,1.40019,1.20979,1343.71,-9587.37,-2589.6,-1.5713,-5.46267,-3.07351,-1131.02,9593.57,-1769.29,-1.81248,3.45799,1.10577,-2051.72,-9644.6,-1765.2,-2.31075,-6.0255,-2.68389,7190.82,448.339,6749.73,-0.0937119,-2.49197,5.05366
0.006,5337.56,-3302.19,7445.04,0.345745,-3.23448,1.5798,4891.97,3647.82,7367.16,0.321588,0.182345,-0.980513,1297.19,9250.59,-2222.82,-1.75225,1.39286,1.19069,1347.72,-9583.18,-2619.37,-1.59449,-5.52419,-3.14774,-1147.14,9571.08,-1750.92,-1.83283,3.28738,1.18824,-2064.97,-9613.75,-1783.3,-2.30757,-6.25097,-2.50973,7198.66,440.552,6733.64,-0.251706,-2.8314,4.99443
0.007,5332.48,-3324.81,7430.74,0.320771,-3.18482,1.65276,4870.49,3677.72,7346.49,0.267394,0.184618,-0.884652,1273.5,9224.78,-2229.53,-1.72796,1.38552,1.17159,1351.72,-9578.98,-2649.14,-1.61768,-5.5857,-3.22198,-1163.26,9548.58,-1732.55,-1.85318,3.11676,1.27071,-2078.21,-9582.89,-1801.41,-2.30438,-6.47644,-2.33557,7206.5,432.764,6717.54,-0.409699,-3.17083,4.93519
0.008,5327.41,-3347.43,7416.43,0.295797,-3.13516,1.72572,4849.01,3707.63,7325.82,0.2132,0.18689,-0.788791,1249.81,9198.98,-2236.25,-1.70366,1.37819,1.1525,1355.73,-9574.79,-2678.92,-1.64087,-5.64721,-3.29622,-1179.38,9526.08,-1714.19,-1.87353,2.94614,1.35318,-2091.45,-9552.04,-1819.51,-2.30119,-6.7019,-2.16141,7214.34,424.977,6701.45,-0.567693,-3.51026,4.87596
0.009,5325.32,-3368.42,7400.74,0.273448,-3.08667,1.79493,4828.08,3733.98,7312.77,0.17755,0.208065,-0.695543,1228.09,9174.76,-2242.95,-1.6729,1.36423,1.1266,1359.75,-9568.8,-2706.09,-1.65597,-5.70979,-3.35475,-1191.64,9503.89,-1696.46,-1.89852,2.76692,1.43004,-2104.38,-9525.56,-1832.05,-2.30577,-6.92359,-1.99135,7222.05,418.168,6684.93,-0.698448,-3.84366,4.81485
0.01,5347.1,-3376.37,7373.92,0.272101,-3.04756,1.83404,4811.57,3732.0,7360.76,0.29025,0.38046,-0.623193,1222.18,9163.27,-2249.52,-1.59044,1.29725,1.04629,1363.86,-9548.44,-2712.49,-1.60632,-5.78094,-3.28765,-1173.05,9484.13,-1683.85,-1.9606,2.51882,1.46204,-2114.85,-9534.08,-1800.08,-2.37254,-7.11501,-1.85416,7228.69,419.184,6664.97,-0.611288,-4.12882,4.73877
0.011,5368.88,-3384.33,7347.1,0.270754,-3.00845,1.87315,4795.07,3730.01,7408.75,0.40295,0.552855,-0.550844,1216.26,9151.78,-2256.1,-1.50799,1.23026,0.965988,1367.97,-9528.07,-2718.89,-1.55668,-5.85208,-3.22054,-1154.46,9464.38,-1671.24,-2.02269,2.27072,1.49404,-2125.32,-9542.6,-1768.11,-2.43932,-7.30643,-1.71696,7235.33,420.199,6645.02,-0.524129,-4.41397,4.66268
0.012,5390.66,-3392.28,7320.28,0.269406,-2.96934,1.91226,4778.56,3728.03,7456.73,0.51565,0.725249,-0.478494,1210.35,9140.29,-2262.67,-1.42553,1.16327,0.885684,1372.08,-9507.71,-2725.29,-1.50703,-5.92323,-3.15344,-1135.87,9444.62,-1658.64,-2.08478,2.02262,1.52604,-2135.79,-9551.12,-1736.13,-2.50609,-7.49784,-1.57976,7241.98,421.215,6625.06,-0.43697,-4.69912,4.5866
0.013,5412.44,-3400.23,7293.46,0.268059,-2.93023,1.95137,4762.05,3726.04,7504.72,0.62835,0.897644,-0.406145,1204.43,9128.8,-2269.24,-1.34308,1.09628,0.805381,1376.19,-9487.35,-2731.69,-1.45738,-5.99438,-3.08634,-1117.28,9424.87,-1646.03,-2.14686,1.77453,1.55803,-2146.26,-9559.63,-1704.16,-2.57286,-7.68926,-1.44257,7248.62,422.231,6605.11,-0.34981,-4.98428,4.51052
0.014,5430.56,-3394.9,7290.49,0.271279,-2.78207,2.04399,4760.48,3725.45,7496.86,0.659308,0.927799,-0.401855,1201.99,9116.23,-2278.83,-1.30919,1.1155,0.69182,1383.6,-9467.83,-2722.47,-1.46138,-6.01875,-2.99256,-1100.56,9402.33,-1633.49,-2.18425,1.49253,1.5203,-2164.9,-9539.44,-1681.95,-2.69662,-7.78,-1.3355,7230.08,410.551,6596.13,-0.290949,-5.22726,4.38791
0.015,5446.86,-3382.93,7299.44,0.276783,-2.57939,2.16337,4766.37,3725.55,7461.06,0.649395,0.886835,-0.431595,1201.29,9103.11,-2289.94,-1.2996,1.17781,0.561631,1392.65,-9448.74,-2705.45,-1.4922,-6.01974,-2.88544,-1084.77,9378.39,-1620.97,-2.20929,1.19358,1.4477,-2187.62,-9504.88,-1664.63,-2.84887,-7.82039,-1.24351,7198.95,392.525,6592.63,-0.246238,-5.44915,4.24203
0.016,5463.16,-3370.96,7308.4,0.282286,-2.3767,2.28275,4772.26,3725.65,7425.27,0.639482,0.84587,-0.461334,1200.59,9090.0,-2301.05,-1.29001,1.24013,0.431442,1401.7,-9429.65,-2688.43,-1.52301,-6.02072,-2.77833,-1068.98,9354.46,-1608.46,-2.23432,0.894625,1.3751,-2210.34,-9470.32,-1647.3,-3.00113,-7.86079,-1.15151,7167.82,374.498,6589.13,-0.201527,-5.67104,4.09616
0.017,5479.46,-3358.99,7317.36,0.28779,-2.17402,2.40213,4778.15,3725.76,7389.48,0.629569,0.804906,-0.491074,1199.88,9076.88,-2312.16,-1.28041,1.30244,0.301252,1410.75,-9410.55,-2671.4,-1.55383,-6.0217,-2.67121,-1053.2,9330.53,-1595.94,-2.25936,0.595674,1.3025,-2233.06,-9435.76,-1629.98,-3.15338,-7.90118,-1.05951,7136.69,356.471,6585.63,-0.156815,-5.89294,3.95029
0.018,5488.42,-3349.86,7320.85,0.289671,-1.97372,2.5087,4786.77,3725.85,7366.82,0.626424,0.790137,-0.499554,1203.72,9066.92,-2321.29,-1.28018,1.33312,0.178495,1419.32,-9397.59,-2655.99,-1.58278,-6.01427,-2.59733,-1038.52,9313.24,-1583.2,-2.30406,0.308575,1.24067,-2249.78,-9410.25,-1620.6,-3.34358,-7.97974,-0.924774,7117.43,342.606,6581.12,-0.10793,-6.10237,3.79042
0.019,5471.67,-3350.7,7305.21,0.278873,-1.78176,2.57041,4804.95,3725.93,7390.18,0.64697,0.867052,-0.433627,1223.43,9068.0,-2323.46,-1.31272,1.25307,0.0817504,1426.21,-9406.06,-2646.19,-1.60522,-5.97739,-2.63977,-1027.75,9319.23,-1569.67,-2.41757,0.0629564,1.21654,-2245.49,-9416.4,-1639.05,-3.66659,-8.19189,-0.640452,7139.74,343.306,6573.07,-0.0444336,-6.26817,3.58158
0.02,5454.92,-3351.54,7289.57,0.268075,-1.5898,2.63212,4823.13,3726.01,7413.53,0.667516,0.943968,-0.367699,1243.15,9069.07,-2325.63,-1.34525,1.17303,-0.0149946,1433.1,-9414.54,-2636.39,-1.62765,-5.94052,-2.68221,-1016.98,9325.22,-1556.13,-2.53108,-0.182662,1.19241,-2241.2,-9422.55,-1657.49,-3.98959,-8.40404,-0.356129,7162.05,344.006,6565.03,0.0190626,-6.43398,3.37274
0.021,5438.18,-3352.39,7273.93,0.257277,-1.39784,2.69384,4841.3,3726.08,7436.88,0.688062,1.02088,-0.301772,1262.86,9070.14,-2327.8,-1.37779,1.09298,-0.11174,1439.98,-9423.01,-2626.59,-1.65009,-5.90364,-2.72465,-1006.21,9331.21,-1542.6,-2.64459,-0.42828,1.16828,-2236.9,-9428.7,-1675.93,-4.31259,-8.61618,-0.0718071,7184.36,344.706,6556.98,0.0825588,-6.59979,3.1639
0.022,5421.43,-3353.23,7258.29,0.24648,-1.20588,2.75555,4859.48,3726.16,7460.23,0.708607,1.0978,-0.235844,1282.58,9071.22,-2329.98,-1.41033,1.01294,-0.208485,1446.87,-9431.49,-2616.8,-1.67253,-5.86676,-2.76709,-995.445,9337.2,-1529.07,-2.7581,-0.673899,1.14415,-2232.61,-9434.85,-1694.37,-4.63559,-8.82833,0.212515,7206.67,345.406,6548.93,0.146055,-6.76559,2.95506
0.023,5402.24,-3365.65,7252.91,0.277583,-1.05011,2.72497,4863.25,3719.51,7457.34,0.685679,1.05274,-0.278591,1293.75,9064.68,-2350.47,-1.40441,0.987268,-0.306677,1432.88,-9429.37,-2623.45,-1.61194,-5.86822,-2.7707,-984.878,9344.47,-1548.53,-2.86598,-0.811185,1.13523,-2256.2,-9440.41,-1682.71,-4.88255,-9.08074,0.367604,7205.37,356.266,6539.99,0.141471,-6.98791,2.88618
0.024,5382.35,-3381.38,7250.46,0.320658,-0.904676,2.66802,4862.91,3710.94,7446.95,0.650329,0.972842,-0.352388,1302.49,9055.97,-2376.2,-1.38751,0.977137,-0.405283,1412.94,-9424.23,-2634.79,-1.52763,-5.88063,-2.76323,-974.37,9352.11,-1577.43,-2.97226,-0.917519,1.13065,-2287.76,-9445.81,-1662.45,-5.10778,-9.34466,0.48577,7197.32,370.029,6530.78,0.117436,-7.22637,2.85729
0.025,5362.46,-3397.12,7248.01,0.363733,-0.759242,2.61108,4862.57,3702.37,7436.57,0.614979,0.892939,-0.426185,1311.23,9047.26,-2401.93,-1.37061,0.967005,-0.503889,1392.99,-9419.09,-2646.14,-1.44332,-5.89304,-2.75575,-963.862,9359.75,-1606.32,-3.07854,-1.02385,1.12607,-2319.33,-9451.21,-1642.19,-5.33301,-9.60857,0.603935,7189.27,383.791,6521.58,0.0934013,-7.46484,2.8284
0.026,5342.56,-3412.85,7245.55,0.406808,-0.613808,2.55413,4862.22,3693.79,7426.18,0.579629,0.813037,-0.499982,1319.96,9038.56,-2427.66,-1.35371,0.956874,-0.602495,1373.04,-9413.95,-2657.49,-1.359,-5.90545,-2.74827,-953.354,9367.39,-1635.21,-3.18482,-1.13019,1.1215,-2350.89,-9456.61,-1621.94,-5.55824,-9.87249,0.7221,7181.22,397.554,6512.37,0.0693663,-7.70331,2.79951
0.027,5330.6,-3424.27,7244.8,0.476159,-0.473041,2.53221,4868.38,3686.02,7413.4,0.561234,0.784344,-0.551958,1321.83,9034.78,-2447.94,-1.32934,0.980582,-0.719003,1355.83,-9412.84,-2669.07,-1.30232,-5.92972,-2.73148,-939.549,9367.0,-1663.33,-3.23212,-1.19778,1.10451,-2373.42,-9456.43,-1608.47,-5.76938,-10.0943,0.81254,7178.75,409.25,6502.76,0.0529673,-7.98641,2.72062
0.028,5334.48,-3427.09,7247.45,0.598061,-0.341609,2.58034,4887.54,3679.85,7395.83,0.576748,0.858072,-0.560293,1309.97,9040.89,-2457.32,-1.29003,1.07197,-0.871316,1344.11,-9419.78,-2681.11,-1.30089,-5.97771,-2.69606,-919.152,9350.55,-1689.91,-3.16148,-1.18788,1.06269,-2377.88,-9445.09,-1608.6,-5.95236,-10.2318,0.84753,7187.46,416.813,6492.34,0.0518404,-8.3588,2.54174
0.029,5338.37,-3429.9,7250.09,0.719964,-0.210178,2.62847,4906.7,3673.69,7378.26,0.592263,0.931799,-0.568627,1298.11,9046.99,-2466.69,-1.25073,1.16336,-1.02363,1332.38,-9426.73,-2693.14,-1.29946,-6.02571,-2.66063,-898.755,9334.1,-1716.49,-3.09084,-1.17799,1.02088,-2382.34,-9433.75,-1608.73,-6.13534,-10.3694,0.88252,7196.17,424.377,6481.93,0.0507134,-8.7312,2.36287
0.03,5342.26,-3432.72,7252.73,0.841866,-0.0787459,2.67659,4925.85,3667.52,7360.69,0.607778,1.00553,-0.576962,1286.24,9053.09,-2476.07,-1.21142,1.25475,-1.17594,1320.66,-9433.68,-2705.18,-1.29803,-6.0737,-2.6252,-878.358,9317.64,-1743.07,-3.0202,-1.1681,0.979064,-2386.8,-9422.41,-1608.86,-6.31831,-10.507,0.91751,7204.88,431.94,6471.51,0.0495865,-9.10359,2.18399
0.031,5346.14,-3435.53,7255.38,0.963768,0.0526859,2.72472,4945.01,3661.35,7343.13,0.623293,1.07925,-0.585296,1274.38,9059.2,-2485.44,-1.17212,1.34613,-1.32826,1308.93,-9440.63,-2717.22,-1.2966,-6.1217,-2.58978,-857.961,9301.19,-1769.65,-2.94956,-1.1582,0.93725,-2391.26,-9411.06,-1608.99,-6.50129,-10.6445,0.9525,7213.59,439.504,6461.09,0.0484595,-9.47598,2.00511
0.032,5351.78,-3445.84,7246.34,0.954734,0.165933,2.7303,4942.87,3666.65,7318.73,0.638527,1.23876,-0.616029,1279.04,9063.51,-2493.83,-1.15324,1.40877,-1.41723,1317.63,-9452.35,-2722.71,-1.3232,-6.20357,-2.60325,-843.711,9289.97,-1781.16,-2.87738,-1.12858,0.84144,-2375.85,-9418.33,-1603.44,-6.68213,-10.8414,1.12603,7201.6,433.652,6457.17,0.0704652,-9.76728,1.9519
0.033,5357.63,-3457.07,7235.85,0.929334,0.276907,2.73055,4938.06,3673.38,7293.48,0.653725,1.40899,-0.649562,1285.76,9067.6,-2502.11,-1.13692,1.46781,-1.49828,1328.89,-9464.66,-2727.39,-1.35332,-6.28968,-2.62283,-830.229,9279.4,-1790.79,-2.80501,-1.09648,0.73888,-2357.96,-9427.93,-1597.18,-6.8627,-11.0457,1.31688,7187.02,426.123,6454.07,0.0953625,-10.0484,1.9144
0.034,5363.48,-3468.31,7225.35,0.903933,0.387881,2.7308,4933.26,3680.1,7268.24,0.668924,1.57921,-0.683096,1292.49,9071.69,-2510.38,-1.12061,1.52685,-1.57934,1340.15,-9476.97,-2732.06,-1.38343,-6.37579,-2.64241,-816.748,9268.83,-1800.42,-2.73264,-1.06439,0.636321,-2340.06,-9437.52,-1590.93,-7.04327,-11.25,1.50773,7172.44,418.594,6450.96,0.12026,-10.3296,1.8769
0.035,5369.34,-3479.54,7214.86,0.878532,0.498855,2.73105,4928.45,3686.83,7242.99,0.684122,1.74944,-0.716629,1299.22,9075.79,-2518.65,-1.10429,1.5859,-1.66039,1351.41,-9489.29,-2736.73,-1.41354,-6.46189,-2.66199,-803.267,9258.27,-1810.05,-2.66027,-1.0323,0.533762,-2322.17,-9447.12,-1584.67,-7.22385,-11.4543,1.69858,7157.87,411.065,6447.86,0.145157,-10.6108,1.8394
0.036,5368.17,-3489.15,7209.55,0.865193,0.621884,2.73252,4930.07,3699.65,7243.23,0.670254,1.81554,-0.657323,1304.55,9082.76,-2526.01,-1.12523,1.64518,-1.73014,1366.52,-9489.29,-2736.74,-1.42759,-6.52486,-2.67211,-788.067,9240.47,-1825.29,-2.5719,-0.976698,0.400188,-2296.02,-9452.57,-1594.61,-7.36244,-11.6456,1.79842,7149.73,420.349,6449.16,0.136579,-10.8184,1.7751
0.037,5358.24,-3496.74,7210.73,0.866931,0.759983,2.73549,4939.72,3720.08,7275.33,0.620052,1.75149,-0.481968,1308.13,9093.35,-2532.25,-1.19276,1.70476,-1.78577,1386.44,-9473.91,-2730.93,-1.42156,-6.55889,-2.67041,-770.719,9213.64,-1847.55,-2.46351,-0.891706,0.227845,-2259.56,-9452.84,-1624.81,-7.44854,-11.8206,1.78449,7149.65,450.649,6455.96,0.0861559,-10.9342,1.6773
0.038,5348.31,-3504.32,7211.9,0.86867,0.898082,2.73847,4949.36,3740.51,7307.43,0.56985,1.68744,-0.306612,1311.72,9103.94,-2538.48,-1.26029,1.76434,-1.84139,1406.37,-9458.53,-2725.12,-1.41552,-6.59292,-2.6687,-753.372,9186.81,-1869.81,-2.35512,-0.806714,0.055502,-2223.1,-9453.11,-1655.01,-7.53464,-11.9956,1.77057,7149.57,480.95,6462.75,0.0357332,-11.0499,1.57949
0.039,5338.37,-3511.9,7213.08,0.870409,1.03618,2.74144,4959.01,3760.94,7339.53,0.519648,1.62339,-0.131257,1315.3,9114.53,-2544.71,-1.32781,1.82392,-1.89702,1426.29,-9443.15,-2719.3,-1.40949,-6.62695,-2.66699,-736.024,9159.98,-1892.06,-2.24674,-0.721722,-0.116841,-2186.63,-9453.38,-1685.21,-7.62075,-12.1706,1.75664,7149.49,511.25,6469.55,-0.0146895,-11.1657,1.48169
0.04,5328.44,-3519.48,7214.26,0.872148,1.17428,2.74442,4968.65,3781.37,7371.63,0.469446,1.55934,0.0440977,1318.89,9125.11,-2550.94,-1.39534,1.8835,-1.95264,1446.22,-9427.77,-2713.49,-1.40346,-6.66098,-2.66529,-718.677,9133.15,-1914.32,-2.13835,-0.636729,-0.289184,-2150.17,-9453.65,-1715.41,-7.70685,-12.3456,1.74271,7149.41,541.551,6476.35,-0.0651123,-11.2814,1.38389
0.041,5316.08,-3529.57,7226.92,0.932322,1.40034,2.67582,4954.3,3787.6,7362.37,0.516441,1.63294,0.0305572,1321.9,9135.4,-2555.79,-1.3497,1.96637,-2.0016,1445.76,-9416.27,-2710.39,-1.29639,-6.63132,-2.69989,-731.837,9136.41,-1932.27,-1.9226,-0.496991,-0.424999,-2115.63,-9470.25,-1730.87,-7.896,-12.249,1.77093,7145.09,515.251,6465.53,0.0125911,-11.5683,1.34952
0.042,5303.73,-3539.66,7239.59,0.992497,1.6264,2.60723,4939.96,3793.82,7353.11,0.563437,1.70653,0.0170167,1324.91,9145.69,-2560.63,-1.30407,2.04924,-2.05055,1445.31,-9404.77,-2707.28,-1.18931,-6.60166,-2.7345,-744.998,9139.67,-1950.23,-1.70686,-0.357252,-0.560815,-2081.08,-9486.86,-1746.33,-8.08514,-12.1523,1.79916,7140.76,488.951,6454.71,0.0902945,-11.8552,1.31515
0.043,5291.37,-3549.75,7252.25,1.05267,1.85246,2.53864,4925.61,3800.05,7343.86,0.610432,1.78012,0.00347626,1327.92,9155.97,-2565.47,-1.25843,2.13211,-2.09951,1444.85,-9393.27,-2704.18,-1.08224,-6.57201,-2.7691,-758.158,9142.93,-1968.18,-1.49111,-0.217514,-0.696631,-2046.54,-9503.46,-1761.78,-8.27429,-12.0557,1.82738,7136.44,462.651,6443.89,0.167998,-12.1421,1.28078
0.044,5279.01,-3559.84,7264.92,1.11285,2.07852,2.47005,4911.26,3806.28,7334.6,0.657428,1.85371,-0.0100642,1330.93,9166.26,-2570.31,-1.21279,2.21498,-2.14846,1444.39,-9381.77,-2701.08,-0.975169,-6.54235,-2.8037,-771.319,9146.19,-1986.14,-1.27536,-0.0777754,-0.832447,-2011.99,-9520.07,-1777.24,-8.46343,-11.9591,1.85561,7132.12,436.351,6433.06,0.245701,-12.429,1.24641
0.045,5274.79,-3576.04,7283.89,1.13415,2.21143,2.38575,4908.64,3813.03,7334.39,0.621452,1.97097,0.0318983,1327.9,9169.23,-2570.01,-1.13626,2.29133,-2.23199,1448.99,-9363.24,-2701.08,-0.911536,-6.51391,-2.77429,-777.939,9147.17,-1997.95,-1.07907,0.0743596,-0.997793,-1990.56,-9529.89,-1787.07,-8.54195,-11.8861,1.88456,7145.06,430.153,6431.28,0.297338,-12.6652,1.19159
0.046,5277.08,-3597.13,7307.91,1.12435,2.26982,2.28888,4915.39,3820.2,7341.42,0.519098,2.12317,0.118263,1320.03,9166.35,-2565.6,-1.03501,2.36247,-2.34317,1457.64,-9339.1,-2703.55,-0.882654,-6.48645,-2.69366,-779.327,9146.33,-2004.85,-0.89834,0.236412,-1.18676,-1979.62,-9534.28,-1792.4,-8.53196,-11.8321,1.9141,7171.8,440.037,6436.72,0.328123,-12.8607,1.12042
0.047,5279.37,-3618.23,7331.93,1.11456,2.32821,2.19201,4922.15,3827.37,7348.44,0.416745,2.27536,0.204628,1312.16,9163.47,-2561.18,-0.933755,2.4336,-2.45435,1466.29,-9314.96,-2706.03,-0.853773,-6.45898,-2.61303,-780.715,9145.48,-2011.74,-0.717612,0.398464,-1.37573,-1968.67,-9538.67,-1797.72,-8.52197,-11.7781,1.94364,7198.54,449.921,6442.16,0.358907,-13.0561,1.04924
0.048,5281.65,-3639.32,7355.96,1.10476,2.38659,2.09514,4928.91,3834.54,7355.46,0.314392,2.42756,0.290993,1304.29,9160.58,-2556.77,-0.832504,2.50474,-2.56553,1474.94,-9290.82,-2708.5,-0.824892,-6.43151,-2.5324,-782.102,9144.64,-2018.64,-0.536884,0.560516,-1.5647,-1957.73,-9543.06,-1803.05,-8.51198,-11.7241,1.97318,7225.28,459.806,6447.6,0.389691,-13.2516,0.978061
0.049,5285.32,-3655.62,7375.09,1.08722,2.43597,1.99769,4933.85,3840.12,7362.3,0.206857,2.5651,0.384501,1296.6,9159.53,-2553.28,-0.739912,2.55843,-2.66954,1484.78,-9269.1,-2711.77,-0.802121,-6.411,-2.43407,-788.977,9146.25,-2025.34,-0.36701,0.719723,-1.75399,-1947.58,-9549.02,-1810.73,-8.5053,-11.6579,1.99707,7249.06,470.182,6454.03,0.432782,-13.4413,0.919728
0.05,5299.97,-3633.5,7355.09,1.00773,2.41329,1.89552,4924.24,3832.93,7367.65,0.057874,2.58543,0.535156,1290.34,9173.13,-2557.18,-0.7166,2.47253,-2.71616,1504.13,-9266.72,-2721.4,-0.82824,-6.4461,-2.19421,-839.746,9167.52,-2030.46,-0.283979,0.856165,-1.9458,-1943.81,-9567.6,-1837.28,-8.52509,-11.4933,1.97568,7249.11,484.495,6468.38,0.57433,-13.5846,0.964145
0.051,5314.62,-3611.38,7335.1,0.92824,2.39061,1.79335,4914.64,3825.74,7373.0,-0.0911091,2.60576,0.685811,1284.08,9186.73,-2561.09,-0.693287,2.38664,-2.76279,1523.48,-9264.34,-2731.02,-0.854358,-6.4812,-1.95435,-890.516,9188.8,-2035.58,-0.200947,0.992607,-2.13762,-1940.03,-9586.18,-1863.82,-8.54487,-11.3287,1.9543,7249.17,498.808,6482.74,0.715878,-13.7279,1.00856
0.052,5329.27,-3589.26,7315.11,0.848751,2.36794,1.69119,4905.04,3818.55,7378.35,-0.240092,2.62609,0.836466,1277.82,9200.33,-2564.99,-0.669975,2.30074,-2.80941,1542.82,-9261.97,-2740.65,-0.880476,-6.5163,-1.71449,-941.285,9210.07,-2040.7,-0.117915,1.12905,-2.32943,-1936.26,-9604.75,-1890.36,-8.56465,-11.1641,1.93292,7249.22,513.121,6497.09,0.857425,-13.8712,1.05298
0.053,5343.93,-3567.14,7295.11,0.769262,2.34526,1.58902,4895.43,3811.36,7383.69,-0.389075,2.64643,0.987122,1271.55,9213.93,-2568.9,-0.646662,2.21485,-2.85604,1562.17,-9259.59,-2750.27,-0.906594,-6.55141,-1.47462,-992.055,9231.34,-2045.83,-0.0348836,1.26549,-2.52125,-1932.49,-9623.33,-1916.91,-8.58444,-10.9995,1.91154,7249.28,527.434,6511.44,0.998973,-14.0145,1.0974
0.054,5346.34,-3556.38,7295.84,0.710067,2.36049,1.47457,4888.55,3815.97,7376.62,-0.36096,2.72361,1.031,1270.6,9242.64,-2582.14,-0.652572,2.13729,-2.86188,1560.68,-9267.42,-2760.59,-0.89118,-6.53411,-1.31986,-1018.64,9256.7,-2041.21,0.0430491,1.36068,-2.76519,-1893.88,-9640.72,-1919.32,-8.58465,-10.7579,1.86929,7259.08,515.092,6507.33,1.0553,-14.194,1.15846
0.055,5342.64,-3551.3,7306.94,0.661018,2.39467,1.35399,4883.03,3826.47,7363.34,-0.244295,2.82922,1.02149,1272.3,9278.89,-2600.05,-0.673094,2.0639,-2.84733,1548.77,-9280.35,-2771.25,-0.855001,-6.49061,-1.20764,-1033.14,9284.09,-2031.72,0.118432,1.43524,-3.0352,-1837.84,-9657.53,-1909.67,-8.57507,-10.4777,1.8166,7273.76,489.423,6493.98,1.06903,-14.3915,1.22783
0.056,5338.94,-3546.22,7318.03,0.611969,2.42885,1.23341,4877.51,3836.98,7350.06,-0.127631,2.93483,1.01198,1274.01,9315.15,-2617.96,-0.693615,1.99051,-2.83278,1536.85,-9293.27,-2781.92,-0.818821,-6.44711,-1.09542,-1047.64,9311.48,-2022.24,0.193815,1.5098,-3.30521,-1781.81,-9674.33,-1900.01,-8.5655,-10.1975,1.76392,7288.44,463.754,6480.64,1.08275,-14.589,1.29721
0.057,5335.24,-3541.14,7329.12,0.562921,2.46303,1.11282,4871.99,3847.49,7336.77,-0.010966,3.04044,1.00247,1275.71,9351.4,-2635.86,-0.714136,1.91712,-2.81824,1524.94,-9306.2,-2792.58,-0.782642,-6.40362,-0.983202,-1062.14,9338.88,-2012.75,0.269198,1.58436,-3.57522,-1725.77,-9691.13,-1890.36,-8.55593,-9.91734,1.71124,7303.12,438.085,6467.29,1.09647,-14.7865,1.36659
0.058,5334.57,-3537.13,7340.22,0.509937,2.48678,1.01513,4868.69,3848.58,7328.11,0.0669092,3.12345,0.98831,1276.26,9385.14,-2648.53,-0.739293,1.842,-2.81447,1515.74,-9320.16,-2801.61,-0.768967,-6.34594,-0.871071,-1072.01,9365.21,-2007.81,0.305811,1.64791,-3.80568,-1673.66,-9712.67,-1888.94,-8.50896,-9.60376,1.68314,7318.24,424.141,6463.38,1.09084,-14.9864,1.42275
0.059,5344.46,-3536.86,7351.33,0.443182,2.47399,0.997566,4873.18,3816.72,7335.61,0.00902147,3.12731,0.957878,1272.79,9410.09,-2642.84,-0.780671,1.76081,-2.84843,1516.06,-9337.73,-2804.92,-0.834058,-6.23863,-0.759243,-1065.71,9387.81,-2018.81,0.206729,1.67293,-3.89773,-1635.29,-9750.79,-1916.33,-8.33111,-9.17333,1.74109,7334.88,451.235,6492.49,1.01747,-15.1945,1.43263
0.06,5354.36,-3536.59,7362.43,0.376427,2.46121,0.980003,4877.67,3784.86,7343.11,-0.0488662,3.13117,0.927446,1269.33,9435.03,-2637.15,-0.82205,1.67962,-2.88238,1516.37,-9355.29,-2808.23,-0.899149,-6.13132,-0.647416,-1059.4,9410.41,-2029.81,0.107646,1.69794,-3.98978,-1596.91,-9788.92,-1943.73,-8.15326,-8.7429,1.79904,7351.52,478.329,6521.6,0.944098,-15.4027,1.44252
0.061,5364.26,-3536.32,7373.54,0.309672,2.44843,0.962439,4882.17,3753.0,7350.61,-0.106754,3.13504,0.897014,1265.86,9459.98,-2631.46,-0.863429,1.59844,-2.91634,1516.68,-9372.85,-2811.54,-0.96424,-6.02402,-0.535588,-1053.09,9433.02,-2040.8,0.00856329,1.72296,-4.08183,-1558.53,-9827.04,-1971.13,-7.97541,-8.31247,1.85699,7368.17,505.423,6550.71,0.870727,-15.6108,1.4524
0.062,5374.16,-3536.05,7384.65,0.242916,2.43564,0.944876,4886.66,3721.14,7358.11,-0.164642,3.1389,0.866581,1262.39,9484.92,-2625.77,-0.904808,1.51725,-2.9503,1516.99,-9390.42,-2814.85,-1.02933,-5.91671,-0.423761,-1046.78,9455.62,-2051.8,-0.0905194,1.74797,-4.17388,-1520.16,-9865.16,-1998.53,-7.79756,-7.88204,1.91494,7384.81,532.517,6579.82,0.797356,-15.819,1.46228
0.063,5356.57,-3539.61,7382.53,0.255702,2.35426,0.931766,4874.52,3740.78,7369.87,-0.213058,3.11762,0.928509,1257.36,9492.15,-2612.21,-0.892281,1.3641,-2.95776,1532.85,-9391.84,-2810.32,-0.985252,-5.85794,-0.286595,-1062.39,9494.4,-2051.56,-0.0666496,1.74838,-4.21306,-1499.24,-9859.79,-2008.93,-7.6962,-7.62944,1.96196,7380.63,530.573,6578.33,0.753772,-16.0084,1.56753
0.064,5331.12,-3544.26,7376.63,0.291214,2.25327,0.919929,4857.62,3775.13,7382.85,-0.258768,3.08914,1.01683,1251.89,9494.33,-2596.4,-0.864353,1.19039,-2.95765,1553.14,-9388.64,-2803.55,-0.909981,-5.81303,-0.14219,-1084.26,9537.81,-2048.11,-0.00765061,1.74176,-4.23713,-1483.32,-9841.98,-2014.48,-7.61669,-7.42764,2.00587,7370.49,520.333,6568.09,0.718699,-16.1924,1.70003
0.065,5305.68,-3548.91,7370.73,0.326725,2.15228,0.908092,4840.73,3809.49,7395.83,-0.304478,3.06067,1.10514,1246.42,9496.5,-2580.59,-0.836425,1.01668,-2.95754,1573.44,-9385.45,-2796.78,-0.83471,-5.76813,0.00221531,-1106.13,9581.22,-2044.66,0.0513484,1.73514,-4.26121,-1467.4,-9824.18,-2020.03,-7.53718,-7.22584,2.04977,7360.36,510.093,6557.85,0.683626,-16.3765,1.83253
0.066,5280.24,-3553.56,7364.83,0.362237,2.0513,0.896255,4823.84,3843.85,7408.81,-0.350189,3.0322,1.19346,1240.95,9498.68,-2564.79,-0.808497,0.842973,-2.95743,1593.74,-9382.25,-2790.01,-0.75944,-5.72322,0.14662,-1128.0,9624.62,-2041.21,0.110347,1.72852,-4.28529,-1451.47,-9806.37,-2025.58,-7.45768,-7.02404,2.09368,7350.23,499.853,6547.61,0.648553,-16.5605,1.96503
0.067,5267.4,-3553.79,7359.83,0.356776,2.01931,0.855695,4811.62,3864.47,7420.75,-0.368575,3.0352,1.27651,1232.41,9495.11,-2553.79,-0.778953,0.688208,-2.94132,1607.23,-9379.49,-2783.49,-0.692677,-5.66234,0.273132,-1145.23,9652.72,-2028.97,0.119952,1.6988,-4.25539,-1438.16,-9796.34,-2030.03,-7.32979,-6.77758,2.14546,7348.64,488.814,6540.08,0.697197,-16.7474,2.0189
0.068,5279.78,-3545.17,7356.64,0.269371,2.12533,0.757689,4808.76,3857.64,7430.64,-0.332313,3.10116,1.34903,1217.73,9480.06,-2552.42,-0.74618,0.571333,-2.89322,1607.1,-9377.58,-2777.47,-0.64293,-5.56952,0.363855,-1153.19,9650.19,-1999.16,0.0307677,1.62288,-4.11753,-1430.08,-9801.87,-2032.29,-7.10513,-6.4418,2.213,7364.14,476.176,6537.96,0.913278,-16.94,1.91551
0.069,5292.17,-3536.55,7353.44,0.181965,2.23134,0.659684,4805.9,3850.8,7440.52,-0.296051,3.16712,1.42156,1203.05,9465.02,-2551.05,-0.713407,0.454457,-2.84511,1606.97,-9375.67,-2771.45,-0.593182,-5.47669,0.454578,-1161.15,9647.66,-1969.35,-0.0584166,1.54696,-3.97968,-1422.0,-9807.4,-2034.54,-6.88048,-6.10602,2.28054,7379.64,463.537,6535.85,1.12936,-17.1325,1.81212
0.07,5304.55,-3527.93,7350.25,0.0945598,2.33736,0.561679,4803.04,3843.97,7450.4,-0.259789,3.23307,1.49408,1188.37,9449.97,-2549.69,-0.680634,0.337582,-2.79701,1606.85,-9373.76,-2765.43,-0.543435,-5.38386,0.545301,-1169.11,9645.13,-1939.54,-0.147601,1.47104,-3.84183,-1413.92,-9812.93,-2036.8,-6.65582,-5.77024,2.34808,7395.15,450.899,6533.73,1.34544,-17.3251,1.70873
0.071,5316.93,-3519.31,7347.05,0.00715441,2.44337,0.463674,4800.18,3837.13,7460.28,-0.223527,3.29903,1.56661,1173.69,9434.93,-2548.32,-0.647861,0.220707,-2.74891,1606.72,-9371.85,-2759.41,-0.493688,-5.29104,0.636024,-1177.06,9642.6,-1909.73,-0.236785,1.39512,-3.70398,-1405.84,-9818.46,-2039.05,-6.43116,-5.43446,2.41561,7410.65,438.261,6531.62,1.56152,-17.5177,1.60534
0.072,5315.64,-3516.17,7354.25,-0.0929492,2.45585,0.477539,4804.44,3842.74,7449.98,-0.253891,3.45261,1.52869,1169.58,9431.92,-2535.56,-0.668309,0.0616433,-2.75128,1604.98,-9369.63,-2770.37,-0.416175,-5.24972,0.870288,-1177.22,9655.35,-1903.74,-0.347866,1.27265,-3.67445,-1399.99,-9826.77,-2024.8,-6.3709,-5.33291,2.33354,7401.39,452.028,6537.41,1.4566,-17.7447,1.68985
0.073,5312.64,-3513.71,7362.75,-0.19464,2.45664,0.505388,4809.58,3849.89,7437.17,-0.292584,3.61716,1.47696,1166.8,9430.42,-2521.39,-0.69541,-0.102694,-2.75997,1603.03,-9367.36,-2783.45,-0.335192,-5.21483,1.1225,-1176.4,9670.0,-1900.72,-0.461685,1.14437,-3.65846,-1394.41,-9835.43,-2008.49,-6.33118,-5.26064,2.23276,7389.04,469.096,6544.18,1.31155,-17.9759,1.79785
0.074,5309.64,-3511.25,7371.25,-0.296331,2.45744,0.533237,4814.73,3857.05,7424.35,-0.331276,3.7817,1.42524,1164.02,9428.92,-2507.21,-0.722511,-0.267031,-2.76865,1601.09,-9365.09,-2796.53,-0.254209,-5.17995,1.3747,-1175.58,9684.66,-1897.7,-0.575503,1.01609,-3.64247,-1388.84,-9844.08,-1992.17,-6.29147,-5.18837,2.13198,7376.69,486.164,6550.96,1.1665,-18.2072,1.90585
0.075,5306.64,-3508.79,7379.74,-0.398022,2.45823,0.561085,4819.87,3864.21,7411.54,-0.369969,3.94624,1.37352,1161.24,9427.42,-2493.03,-0.749611,-0.431368,-2.77734,1599.15,-9362.83,-2809.61,-0.173226,-5.14506,1.62691,-1174.76,9699.31,-1894.69,-0.689322,0.88781,-3.62649,-1383.26,-9852.74,-1975.85,-6.25175,-5.1161,2.0312,7364.34,503.232,6557.74,1.02145,-18.4385,2.01385
0.076,5303.83,-3503.71,7390.87,-0.463983,2.42325,0.512623,4821.84,3853.12,7408.31,-0.390575,4.01303,1.37292,1168.07,9421.96,-2481.62,-0.770844,-0.633847,-2.79406,1601.46,-9367.96,-2803.2,-0.106174,-5.11644,1.81775,-1172.34,9703.92,-1894.92,-0.795622,0.755018,-3.57967,-1390.69,-9861.43,-1961.81,-6.15843,-5.0218,1.99652,7360.67,514.507,6556.62,0.926663,-18.6718,2.08558
0.077,5301.27,-3495.36,7405.27,-0.485282,2.34357,0.368773,4819.82,3819.21,7417.08,-0.388574,3.95764,1.43622,1186.92,9411.56,-2473.67,-0.784741,-0.884004,-2.82082,1609.08,-9382.32,-2772.41,-0.0565361,-5.09566,1.93188,-1167.94,9695.98,-1899.2,-0.892523,0.616587,-3.49432,-1414.36,-9870.15,-1950.61,-5.99809,-4.89996,2.04447,7367.85,518.541,6545.63,0.894696,-18.9077,2.11198
0.078,5298.71,-3487.01,7419.67,-0.506582,2.26389,0.224922,4817.8,3785.31,7425.84,-0.386573,3.90225,1.49952,1205.76,9401.16,-2465.71,-0.798639,-1.13416,-2.84759,1616.7,-9396.68,-2741.62,-0.00689842,-5.07487,2.04601,-1163.53,9688.03,-1903.49,-0.989425,0.478156,-3.40897,-1438.04,-9878.87,-1939.41,-5.83776,-4.77812,2.09241,7375.03,522.576,6534.64,0.862729,-19.1436,2.13838
0.079,5296.16,-3478.65,7434.08,-0.527881,2.18421,0.0810709,4815.79,3751.4,7434.61,-0.384572,3.84686,1.56282,1224.6,9390.75,-2457.76,-0.812537,-1.38432,-2.87435,1624.32,-9411.04,-2710.83,0.0427392,-5.05409,2.16014,-1159.13,9680.08,-1907.77,-1.08633,0.339725,-3.32362,-1461.71,-9887.59,-1928.21,-5.67743,-4.65629,2.14035,7382.21,526.61,6523.64,0.830762,-19.3795,2.16478
0.08,5293.6,-3470.3,7448.48,-0.54918,2.10453,-0.0627799,4813.77,3717.5,7443.37,-0.382571,3.79147,1.62612,1243.45,9380.35,-2449.8,-0.826434,-1.63447,-2.90111,1631.95,-9425.41,-2680.04,0.0923769,-5.0333,2.27427,-1154.72,9672.13,-1912.06,-1.18323,0.201294,-3.23827,-1485.39,-9896.31,-1917.02,-5.51709,-4.53445,2.18829,7389.39,530.644,6512.65,0.798795,-19.6154,2.19118
0.081,5282.64,-3455.86,7439.09,-0.622429,2.06316,-0.0231249,4815.69,3741.84,7433.64,-0.318109,3.7299,1.67075,1252.53,9369.73,-2452.49,-0.886125,-1.82357,-2.94554,1633.47,-9432.89,-2675.22,0.120375,-4.96266,2.36957,-1119.94,9662.05,-1917.0,-1.24807,-0.0333194,-3.19917,-1500.98,-9894.5,-1917.7,-5.36383,-4.58385,2.25727,7380.35,542.733,6523.37,0.860702,-19.7376,2.20506
0.082,5271.67,-3441.43,7429.69,-0.695678,2.02178,0.0165301,4817.6,3766.19,7423.9,-0.253648,3.66833,1.71538,1261.61,9359.11,-2455.18,-0.945817,-2.01267,-2.98997,1634.99,-9440.38,-2670.39,0.148373,-4.89201,2.46488,-1085.15,9651.97,-1921.93,-1.31291,-0.267933,-3.16008,-1516.58,-9892.69,-1918.38,-5.21056,-4.63324,2.32624,7371.32,554.822,6534.09,0.922608,-19.8598,2.21894
0.083,5260.71,-3426.99,7420.3,-0.768926,1.98041,0.056185,4819.52,3790.53,7414.17,-0.189186,3.60676,1.76001,1270.69,9348.49,-2457.87,-1.00551,-2.20177,-3.03439,1636.51,-9447.86,-2665.56,0.176371,-4.82137,2.56018,-1050.37,9641.89,-1926.87,-1.37775,-0.502546,-3.12099,-1532.17,-9890.88,-1919.06,-5.05729,-4.68264,2.39522,7362.29,566.912,6544.81,0.984515,-19.982,2.23281
0.084,5249.75,-3412.55,7410.9,-0.842175,1.93903,0.09584,4821.43,3814.88,7404.43,-0.124725,3.54519,1.80464,1279.78,9337.87,-2460.56,-1.0652,-2.39087,-3.07882,1638.03,-9455.35,-2660.73,0.204369,-4.75072,2.65549,-1015.59,9631.81,-1931.8,-1.44259,-0.737159,-3.0819,-1547.77,-9889.08,-1919.74,-4.90402,-4.73203,2.4642,7353.26,579.001,6555.54,1.04642,-20.1042,2.24669
0.085,5249.36,-3417.55,7413.7,-0.863859,1.89934,0.0885445,4817.37,3817.07,7415.14,-0.148147,3.48948,1.85882,1283.99,9343.55,-2467.38,-1.08944,-2.53912,-3.11117,1637.14,-9453.83,-2660.6,0.189856,-4.71517,2.76614,-1010.83,9624.52,-1943.61,-1.45417,-0.891549,-3.00283,-1556.67,-9873.45,-1920.65,-4.75856,-4.69434,2.49572,7366.03,583.278,6564.77,0.998909,-20.3267,2.26766
0.086,5257.43,-3438.1,7426.24,-0.844292,1.86099,0.0436885,4808.53,3801.54,7442.19,-0.241876,3.43846,1.92062,1284.32,9362.28,-2477.5,-1.08532,-2.6547,-3.13386,1634.33,-9445.12,-2664.25,0.141334,-4.7077,2.88906,-1030.1,9619.46,-1960.9,-1.42314,-0.981759,-2.89178,-1560.21,-9846.76,-1921.74,-4.61935,-4.58698,2.49729,7396.25,581.305,6572.83,0.863861,-20.6293,2.29431
0.087,5265.49,-3458.65,7438.79,-0.824724,1.82264,-0.00116739,4799.69,3786.0,7469.24,-0.335605,3.38744,1.98243,1284.64,9381.01,-2487.61,-1.0812,-2.77027,-3.15654,1631.51,-9436.41,-2667.89,0.0928122,-4.70022,3.01199,-1049.36,9614.4,-1978.2,-1.39211,-1.07197,-2.78073,-1563.75,-9820.08,-1922.83,-4.48013,-4.47962,2.49886,7426.47,579.332,6580.88,0.728814,-20.932,2.32097
0.088,5273.56,-3479.2,7451.34,-0.805156,1.78429,-0.0460233,4790.85,3770.47,7496.3,-0.429334,3.33642,2.04423,1284.96,9399.74,-2497.73,-1.07707,-2.88585,-3.17923,1628.7,-9427.69,-2671.53,0.0442904,-4.69275,3.13491,-1068.63,9609.33,-1995.5,-1.36107,-1.16218,-2.66969,-1567.29,-9793.39,-1923.92,-4.34092,-4.37226,2.50043,7456.69,577.359,6588.94,0.593766,-21.2347,2.34762
0.089,5278.58,-3497.13,7461.82,-0.807872,1.74558,-0.0895187,4784.56,3755.43,7519.93,-0.5156,3.2939,2.10397,1286.12,9417.46,-2506.33,-1.073,-2.98876,-3.19519,1624.85,-9421.53,-2672.28,0.0108063,-4.67273,3.27187,-1083.01,9606.35,-2008.69,-1.33583,-1.25426,-2.55802,-1574.51,-9770.84,-1920.1,-4.20327,-4.2767,2.52014,7483.24,570.51,6595.25,0.494097,-21.532,2.36721
0.09,5259.23,-3494.12,7455.75,-0.988854,1.70396,-0.122129,4798.73,3744.39,7516.19,-0.542162,3.31936,2.14716,1293.91,9427.07,-2502.81,-1.0693,-2.99042,-3.15739,1612.77,-9435.82,-2649.86,0.097624,-4.55231,3.52107,-1058.28,9619.99,-1989.08,-1.35685,-1.36127,-2.44142,-1611.19,-9781.32,-1877.02,-4.0782,-4.27548,2.68501,7480.49,524.651,6587.66,0.67746,-21.7865,2.33035
0.091,5239.89,-3491.1,7449.69,-1.16984,1.66235,-0.15474,4812.91,3733.34,7512.45,-0.568725,3.34483,2.19034,1301.7,9436.68,-2499.29,-1.0656,-2.99209,-3.11959,1600.68,-9450.1,-2627.45,0.184442,-4.4319,3.77027,-1033.54,9633.63,-1969.47,-1.37788,-1.46829,-2.32482,-1647.88,-9791.81,-1833.94,-3.95313,-4.27427,2.84989,7477.74,478.793,6580.07,0.860822,-22.041,2.29349
0.092,5220.55,-3488.09,7443.63,-1.35082,1.62073,-0.187351,4827.08,3722.3,7508.71,-0.595287,3.3703,2.23353,1309.5,9446.29,-2495.77,-1.0619,-2.99375,-3.08178,1588.6,-9464.39,-2605.03,0.271259,-4.31149,4.01947,-1008.81,9647.27,-1949.85,-1.39891,-1.5753,-2.20821,-1684.56,-9802.29,-1790.86,-3.82806,-4.27305,3.01476,7474.99,432.934,6572.48,1.04418,-22.2955,2.25663
0.093,5201.21,-3485.07,7437.56,-1.5318,1.57912,-0.219961,4841.25,3711.25,7504.97,-0.62185,3.39576,2.27672,1317.29,9455.9,-2492.25,-1.0582,-2.99541,-3.04398,1576.51,-9478.67,-2582.62,0.358077,-4.19108,4.26867,-984.083,9660.91,-1930.24,-1.41993,-1.68231,-2.09161,-1721.24,-9812.77,-1747.79,-3.703,-4.27184,3.17964,7472.23,387.075,6564.89,1.22755,-22.5501,2.21976
0.094,5207.07,-3483.91,7446.62,-1.65694,1.56654,-0.232819,4861.4,3691.76,7498.65,-0.568178,3.3512,2.23802,1310.81,9449.44,-2488.28,-1.07232,-2.98761,-3.05399,1563.56,-9495.55,-2583.71,0.432776,-4.14004,4.40839,-991.012,9665.66,-1924.19,-1.45463,-1.72753,-2.04508,-1750.41,-9826.46,-1739.87,-3.68999,-4.28115,3.3708,7473.84,367.155,6548.35,1.39257,-22.845,2.05774
0.095,5225.54,-3483.66,7463.23,-1.75416,1.56849,-0.2358,4884.54,3668.04,7491.04,-0.474389,3.27163,2.15837,1297.19,9434.94,-2484.08,-1.09537,-2.97508,-3.0879,1550.18,-9513.72,-2596.55,0.501415,-4.1237,4.49337,-1013.77,9665.95,-1924.93,-1.49616,-1.74184,-2.03358,-1775.82,-9841.74,-1749.53,-3.73301,-4.29571,3.5751,7477.63,360.205,6527.33,1.54843,-23.1601,1.83315
0.096,5244.01,-3483.42,7479.85,-1.85138,1.57044,-0.238781,4907.67,3644.32,7483.43,-0.380601,3.19206,2.07873,1283.56,9420.44,-2479.88,-1.11841,-2.96254,-3.12181,1536.8,-9531.89,-2609.4,0.570054,-4.10736,4.57836,-1036.53,9666.24,-1925.67,-1.53769,-1.75615,-2.02209,-1801.24,-9857.03,-1759.2,-3.77603,-4.31028,3.7794,7481.41,353.254,6506.32,1.70429,-23.4752,1.60855
0.097,5262.48,-3483.18,7496.46,-1.9486,1.57239,-0.241762,4930.81,3620.61,7475.81,-0.286812,3.11249,1.99908,1269.94,9405.94,-2475.68,-1.14146,-2.95001,-3.15572,1523.42,-9550.07,-2622.24,0.638693,-4.09101,4.66334,-1059.29,9666.54,-1926.4,-1.57922,-1.77046,-2.01059,-1826.65,-9872.32,-1768.86,-3.81905,-4.32484,3.98371,7485.2,346.304,6485.3,1.86015,-23.7903,1.38396
0.098,5281.35,-3479.48,7499.37,-2.01938,1.57944,-0.24408,4949.69,3605.37,7470.54,-0.225205,3.02995,1.9265,1256.42,9394.55,-2464.75,-1.14646,-2.97966,-3.19449,1512.13,-9567.29,-2633.02,0.68626,-4.08402,4.74138,-1078.88,9667.55,-1927.16,-1.63312,-1.75375,-1.9874,-1857.94,-9887.81,-1775.73,-3.88485,-4.35234,4.11563,7488.88,343.617,6467.8,1.98593,-24.121,1.19209
0.099,5301.67,-3463.7,7454.27,-1.99764,1.60434,-0.24408,4953.67,3619.8,7473.46,-0.276236,2.93697,1.87863,1243.27,9394.02,-2430.25,-1.08833,-3.15694,-3.25025,1508.16,-9581.18,-2636.56,0.660077,-4.10976,4.79512,-1087.38,9671.07,-1927.98,-1.73036,-1.6285,-1.92325,-1909.77,-9904.0,-1772.8,-4.0304,-4.42508,3.99425,7492.2,355.855,6462.61,2.00641,-24.5062,1.11479
0.1,5321.98,-3447.92,7409.18,-1.97589,1.62925,-0.24408,4957.64,3634.24,7476.38,-0.327267,2.844,1.83076,1230.11,9393.48,-2395.75,-1.0302,-3.33422,-3.30601,1504.19,-9595.07,-2640.11,0.633893,-4.1355,4.84885,-1095.89,9674.6,-1928.8,-1.8276,-1.50324,-1.85911,-1961.6,-9920.2,-1769.87,-4.17594,-4.49783,3.87286,7495.52,368.092,6457.43,2.02689,-24.8914,1.03749
0.101,5342.29,-3432.14,7364.09,-1.95415,1.65415,-0.24408,4961.62,3648.67,7479.3,-0.378297,2.75102,1.7829,1216.96,9392.95,-2361.25,-0.972064,-3.5115,-3.36177,1500.22,-9608.96,-2643.65,0.60771,-4.16124,4.90259,-1104.4,9678.12,-1929.62,-1.92483,-1.37798,-1.79496,-2013.44,-9936.4,-1766.94,-4.32148,-4.57057,3.75147,7498.83,380.329,6452.24,2.04737,-25.2767,0.960184
0.102,5362.6,-3416.35,7319.0,-1.9324,1.67906,-0.24408,4965.59,3663.11,7482.23,-0.429328,2.65805,1.73503,1203.81,9392.42,-2326.75,-0.913931,-3.68878,-3.41753,1496.25,-9622.85,-2647.2,0.581526,-4.18698,4.95633,-1112.9,9681.64,-1930.45,-2.02207,-1.25273,-1.73081,-2065.27,-9952.6,-1764.01,-4.46703,-4.64332,3.63008,7502.15,392.567,6447.06,2.06784,-25.6619,0.882882
0.103,5375.89,-3402.9,7313.75,-1.97343,1.68879,-0.122393,4964.06,3662.97,7495.63,-0.411219,2.62511,1.74375,1199.71,9400.56,-2315.06,-0.884657,-3.81256,-3.45154,1507.59,-9631.8,-2615.74,0.402934,-4.17711,5.05853,-1117.01,9670.17,-1927.04,-2.05103,-1.33406,-1.59943,-2067.42,-9929.43,-1737.91,-4.39159,-4.81887,3.627,7500.54,387.507,6438.44,2.27025,-25.9769,0.853312
0.104,5387.17,-3390.11,7319.9,-2.03239,1.69418,0.0340607,4960.96,3658.68,7512.03,-0.373355,2.60933,1.76864,1198.19,9411.17,-2309.89,-0.863629,-3.92106,-3.47933,1523.3,-9639.32,-2574.27,0.180795,-4.15707,5.17457,-1119.87,9654.4,-1922.42,-2.06048,-1.47441,-1.44885,-2055.38,-9895.01,-1705.2,-4.25301,-5.02379,3.65773,7497.51,377.506,6428.84,2.52464,-26.2719,0.83738
0.105,5398.45,-3377.32,7326.04,-2.09136,1.69957,0.190515,4957.86,3654.39,7528.42,-0.335492,2.59355,1.79353,1196.67,9421.79,-2304.72,-0.842601,-4.02955,-3.50713,1539.01,-9646.85,-2532.8,-0.0413429,-4.13703,5.29061,-1122.72,9638.63,-1917.8,-2.06993,-1.61476,-1.29826,-2043.34,-9860.59,-1672.49,-4.11444,-5.22871,3.68845,7494.49,367.505,6419.25,2.77903,-26.5669,0.821448
0.106,5409.72,-3364.53,7332.18,-2.15032,1.70496,0.346969,4954.75,3650.1,7544.82,-0.297628,2.57777,1.81842,1195.16,9432.4,-2299.55,-0.821572,-4.13805,-3.53492,1554.71,-9654.38,-2491.34,-0.263481,-4.11699,5.40665,-1125.57,9622.87,-1913.18,-2.07938,-1.75512,-1.14767,-2031.3,-9826.18,-1639.78,-3.97586,-5.43364,3.71917,7491.46,357.504,6409.65,3.03341,-26.8619,0.805516
0.107,5417.25,-3345.27,7332.95,-2.16078,1.74251,0.433011,4935.83,3647.58,7556.69,-0.26442,2.56798,1.84714,1197.17,9437.95,-2303.85,-0.845622,-4.2363,-3.60304,1555.99,-9666.73,-2473.6,-0.393243,-4.08202,5.49736,-1129.45,9606.07,-1908.29,-2.1038,-1.87622,-1.03738,-2028.86,-9796.49,-1616.37,-3.964,-5.60838,3.77083,7486.95,358.16,6398.57,3.16931,-27.0926,0.754248
0.108,5417.28,-3313.07,7322.95,-2.07425,1.84437,0.37823,4885.28,3648.61,7559.5,-0.240523,2.57019,1.88354,1206.25,9433.38,-2327.07,-0.959825,-4.31407,-3.75181,1528.42,-9688.74,-2503.31,-0.338252,-4.01718,5.5374,-1135.39,9587.22,-1902.86,-2.15817,-1.95881,-1.00768,-2045.62,-9776.28,-1611.56,-4.20556,-5.72275,3.86438,7479.44,380.132,6384.53,3.06823,-27.1949,0.632308
0.109,5417.31,-3280.87,7312.95,-1.98772,1.94623,0.323449,4834.72,3649.64,7562.31,-0.216626,2.5724,1.91994,1215.33,9428.81,-2350.3,-1.07403,-4.39184,-3.90058,1500.84,-9710.75,-2533.02,-0.283261,-3.95235,5.57744,-1141.32,9568.36,-1897.43,-2.21254,-2.0414,-0.97799,-2062.37,-9756.06,-1606.76,-4.44712,-5.83713,3.95792,7471.93,402.103,6370.49,2.96716,-27.2972,0.510369
0.11,5417.34,-3248.67,7302.94,-1.90119,2.04809,0.268667,4784.16,3650.67,7565.11,-0.192729,2.57461,1.95633,1224.41,9424.24,-2373.52,-1.18823,-4.46961,-4.04935,1473.27,-9732.76,-2562.74,-0.22827,-3.88751,5.61748,-1147.26,9549.51,-1891.99,-2.2669,-2.124,-0.948295,-2079.13,-9735.84,-1601.96,-4.68868,-5.95151,4.05147,7464.43,424.075,6356.45,2.86608,-27.3995,0.388429
0.111,5417.36,-3216.47,7292.94,-1.81465,2.14994,0.213886,4733.61,3651.7,7567.92,-0.168832,2.57682,1.99273,1233.49,9419.67,-2396.74,-1.30244,-4.54737,-4.19811,1445.69,-9754.77,-2592.45,-0.173279,-3.82268,5.65752,-1153.19,9530.65,-1886.56,-2.32127,-2.20659,-0.918599,-2095.89,-9715.63,-1597.16,-4.93025,-6.06588,4.14501,7456.92,446.046,6342.41,2.76501,-27.5018,0.26649
0.112,5403.44,-3239.14,7302.73,-1.86723,2.2213,0.343444,4731.45,3630.14,7580.99,-0.164313,2.46094,1.96358,1258.52,9404.81,-2403.16,-1.42422,-4.62021,-4.35749,1438.62,-9724.43,-2575.86,-0.124681,-3.90942,5.66455,-1117.2,9529.76,-1866.72,-2.29698,-2.37726,-0.966332,-2117.49,-9725.62,-1566.01,-5.01954,-6.22828,3.93741,7463.6,459.289,6343.51,2.72793,-27.8301,0.239032
0.113,5387.77,-3268.68,7314.99,-1.93721,2.28885,0.496045,4735.35,3605.76,7595.35,-0.162217,2.33029,1.92622,1285.54,9388.66,-2407.48,-1.54694,-4.69244,-4.51818,1434.1,-9687.54,-2553.48,-0.0768815,-4.0151,5.66745,-1075.96,9531.12,-1845.07,-2.26286,-2.55893,-1.02374,-2139.69,-9739.4,-1531.57,-5.08981,-6.39668,3.69217,7472.05,471.44,6346.5,2.69885,-28.1866,0.223384
0.114,5372.11,-3298.22,7327.25,-2.00718,2.3564,0.648646,4739.25,3581.38,7609.71,-0.160121,2.19965,1.88887,1312.56,9372.52,-2411.79,-1.66967,-4.76466,-4.67888,1429.59,-9650.66,-2531.11,-0.0290822,-4.12078,5.67035,-1034.72,9532.47,-1823.42,-2.22873,-2.74061,-1.08115,-2161.9,-9753.17,-1497.13,-5.16007,-6.56507,3.44692,7480.5,483.591,6349.48,2.66977,-28.5432,0.207736
0.115,5356.44,-3327.75,7339.51,-2.07715,2.42394,0.801247,4743.14,3557.0,7624.06,-0.158024,2.069,1.85152,1339.58,9356.38,-2416.11,-1.7924,-4.83689,-4.83958,1425.08,-9613.78,-2508.73,0.0187171,-4.22646,5.67325,-993.488,9533.83,-1801.77,-2.19461,-2.92228,-1.13856,-2184.1,-9766.94,-1462.68,-5.23033,-6.73347,3.20168,7488.95,495.743,6352.47,2.64069,-28.8998,0.192088
0.116,5335.87,-3341.26,7348.07,-2.12409,2.4655,0.911469,4745.03,3542.61,7627.29,-0.156614,1.97947,1.78948,1353.96,9339.17,-2424.88,-1.85594,-4.82373,-4.92859,1421.19,-9575.54,-2498.32,0.0696345,-4.30129,5.72044,-972.961,9534.16,-1781.87,-2.20773,-3.1155,-1.22699,-2186.73,-9792.4,-1440.21,-5.30986,-6.8177,3.08753,7501.26,497.292,6346.53,2.58801,-29.2278,0.152883
0.117,5309.17,-3334.72,7352.01,-2.14225,2.47458,0.968719,4744.39,3540.69,7616.61,-0.15606,1.94133,1.69658,1352.55,9320.63,-2439.22,-1.84549,-4.70383,-4.92799,1418.08,-9535.62,-2502.86,0.124449,-4.33756,5.82298,-978.321,9533.23,-1764.16,-2.27991,-3.32315,-1.35418,-2164.89,-9832.47,-1432.69,-5.40099,-6.79673,3.13726,7518.41,485.59,6329.42,2.50584,-29.5203,0.0842308
0.118,5282.47,-3328.19,7355.95,-2.1604,2.48366,1.02597,4743.76,3538.77,7605.93,-0.155506,1.90319,1.60368,1351.13,9302.09,-2453.56,-1.83505,-4.58394,-4.92739,1414.96,-9495.71,-2507.4,0.179264,-4.37383,5.92552,-983.681,9532.29,-1746.46,-2.35209,-3.53079,-1.48138,-2143.04,-9872.54,-1425.17,-5.49211,-6.77576,3.18698,7535.55,473.887,6312.31,2.42366,-29.8128,0.0155791
0.119,5255.77,-3321.66,7359.88,-2.17856,2.49274,1.08322,4743.13,3536.85,7595.25,-0.154953,1.86504,1.51078,1349.72,9283.55,-2467.9,-1.82461,-4.46404,-4.92679,1411.85,-9455.79,-2511.94,0.234079,-4.41009,6.02807,-989.041,9531.35,-1728.75,-2.42427,-3.73844,-1.60857,-2121.2,-9912.61,-1417.65,-5.58323,-6.75478,3.23671,7552.7,462.184,6295.2,2.34149,-30.1053,-0.0530727
0.12,5229.08,-3315.13,7363.82,-2.19672,2.50182,1.14047,4742.49,3534.93,7584.57,-0.154399,1.8269,1.41788,1348.3,9265.01,-2482.24,-1.81417,-4.34415,-4.92619,1408.74,-9415.87,-2516.47,0.288894,-4.44636,6.13061,-994.402,9530.41,-1711.05,-2.49646,-3.94609,-1.73576,-2099.36,-9952.68,-1410.12,-5.67435,-6.73381,3.28644,7569.85,450.481,6278.09,2.25932,-30.3977,-0.121724
0.121,5249.62,-3344.88,7363.07,-2.33765,2.53705,1.03903,4750.1,3568.51,7570.55,-0.110084,1.89061,1.36387,1321.84,9270.87,-2469.63,-1.74468,-4.26372,-4.99388,1424.96,-9468.75,-2529.3,0.187841,-4.31731,6.16408,-983.13,9497.92,-1709.45,-2.40601,-4.16544,-1.68685,-2105.1,-9959.6,-1430.44,-5.85182,-6.80666,3.25299,7542.9,466.525,6299.27,2.32783,-30.8231,-0.11089
0.122,5270.16,-3374.63,7362.31,-2.47858,2.57229,0.937583,4757.71,3602.09,7556.53,-0.0657687,1.95431,1.30986,1295.38,9276.73,-2457.02,-1.67519,-4.18329,-5.06157,1441.18,-9521.64,-2542.12,0.086788,-4.18825,6.19754,-971.859,9465.42,-1707.86,-2.31556,-4.3848,-1.63793,-2110.83,-9966.51,-1450.75,-6.02928,-6.87951,3.21954,7515.95,482.568,6320.45,2.39634,-31.2485,-0.100056
0.123,5290.7,-3404.38,7361.56,-2.61951,2.60752,0.836139,4765.31,3635.67,7542.51,-0.0214535,2.01802,1.25586,1268.92,9282.59,-2444.41,-1.60571,-4.10285,-5.12926,1457.4,-9574.52,-2554.95,-0.0142652,-4.0592,6.23101,-960.588,9432.93,-1706.27,-2.22511,-4.60415,-1.58901,-2116.57,-9973.43,-1471.06,-6.20675,-6.95236,3.1861,7489.0,498.611,6341.63,2.46485,-31.6739,-0.0892225
0.124,5311.25,-3434.14,7360.8,-2.76044,2.64275,0.734696,4772.92,3669.25,7528.49,0.0228618,2.08173,1.20185,1242.45,9288.45,-2431.81,-1.53622,-4.02242,-5.19695,1473.61,-9627.4,-2567.77,-0.115318,-3.93015,6.26448,-949.317,9400.43,-1704.67,-2.13467,-4.82351,-1.54009,-2122.31,-9980.35,-1491.37,-6.38421,-7.02521,3.15265,7462.05,514.654,6362.81,2.53336,-32.0992,-0.0783885
0.125,5315.98,-3436.4,7347.95,-2.8099,2.75417,0.666477,4787.8,3680.54,7520.61,0.0491059,2.06511,1.16655,1215.55,9284.71,-2437.46,-1.55469,-4.00482,-5.30424,1473.7,-9636.7,-2561.58,-0.10372,-3.85439,6.33201,-934.224,9376.21,-1719.0,-2.04496,-4.9915,-1.55103,-2124.23,-9983.05,-1495.72,-6.45752,-7.11358,3.08449,7445.03,520.701,6363.33,2.56647,-32.3595,-0.171364
0.126,5308.06,-3416.66,7325.4,-2.78618,2.92654,0.624837,4808.5,3674.01,7517.64,0.060893,1.98423,1.14621,1188.3,9273.28,-2457.72,-1.64353,-4.03749,-5.44322,1460.88,-9611.12,-2540.17,-0.00200144,-3.82125,6.42679,-916.074,9358.6,-1746.07,-1.95584,-5.11841,-1.60984,-2123.1,-9982.36,-1487.31,-6.44752,-7.21435,2.98855,7435.94,518.752,6347.31,2.57125,-32.4876,-0.347386
0.127,5300.14,-3396.93,7302.86,-2.76245,3.0989,0.583196,4829.21,3667.48,7514.67,0.0726801,1.90336,1.12588,1161.05,9261.86,-2477.99,-1.73236,-4.07016,-5.58219,1448.06,-9585.54,-2518.77,0.0997175,-3.78812,6.52158,-897.924,9340.99,-1773.13,-1.86672,-5.24532,-1.66866,-2121.96,-9981.68,-1478.89,-6.43751,-7.31512,2.89261,7426.85,516.802,6331.29,2.57604,-32.6158,-0.523409
0.128,5292.22,-3377.2,7280.32,-2.73873,3.27127,0.541556,4849.91,3660.95,7511.69,0.0844672,1.82248,1.10555,1133.79,9250.43,-2498.25,-1.8212,-4.10283,-5.72117,1435.24,-9559.96,-2497.36,0.201436,-3.75498,6.61636,-879.774,9323.38,-1800.19,-1.7776,-5.37222,-1.72748,-2120.82,-9980.99,-1470.48,-6.4275,-7.41589,2.79667,7417.77,514.853,6315.27,2.58083,-32.7439,-0.699431
0.129,5288.43,-3365.73,7261.36,-2.68876,3.44339,0.508142,4869.08,3653.45,7507.03,0.100199,1.74905,1.08159,1109.31,9238.77,-2517.79,-1.90711,-4.14542,-5.84961,1423.92,-9539.39,-2480.05,0.286128,-3.73453,6.7115,-865.231,9310.21,-1822.86,-1.70772,-5.50795,-1.78103,-2121.46,-9980.15,-1462.38,-6.42347,-7.5095,2.70246,7411.5,513.775,6300.46,2.54876,-32.8863,-0.857437
0.13,5317.7,-3420.35,7271.11,-2.42878,3.61354,0.540543,4875.91,3638.18,7488.82,0.147483,1.7352,1.02856,1106.94,9225.25,-2531.61,-1.96959,-4.26738,-5.89377,1424.61,-9558.92,-2495.47,0.234603,-3.81555,6.80949,-879.548,9332.62,-1810.34,-1.79177,-5.71418,-1.79247,-2136.28,-9978.06,-1456.81,-6.46725,-7.54587,2.62203,7427.85,519.668,6295.35,2.22186,-33.1422,-0.871313
0.131,5346.97,-3474.97,7280.85,-2.16881,3.78368,0.572943,4882.75,3622.91,7470.61,0.194768,1.72136,0.975534,1104.58,9211.72,-2545.42,-2.03206,-4.38934,-5.93794,1425.3,-9578.44,-2510.9,0.183078,-3.89656,6.90748,-893.865,9355.03,-1797.82,-1.87583,-5.92042,-1.80391,-2151.11,-9975.96,-1451.25,-6.51103,-7.58224,2.54159,7444.19,525.561,6290.23,1.89496,-33.398,-0.885189
0.132,5376.24,-3529.58,7290.6,-1.90883,3.95383,0.605343,4889.59,3607.65,7452.41,0.242053,1.70751,0.922507,1102.21,9198.2,-2559.23,-2.09454,-4.5113,-5.9821,1425.99,-9597.97,-2526.32,0.131553,-3.97757,7.00548,-908.182,9377.44,-1785.3,-1.95988,-6.12665,-1.81535,-2165.93,-9973.87,-1445.68,-6.55481,-7.6186,2.46116,7460.53,531.454,6285.12,1.56806,-33.6539,-0.899065
0.133,5405.51,-3584.2,7300.34,-1.64886,4.12398,0.637743,4896.43,3592.38,7434.2,0.289338,1.69366,0.869481,1099.85,9184.67,-2573.04,-2.15701,-4.63326,-6.02626,1426.68,-9617.5,-2541.75,0.0800273,-4.05859,7.10347,-922.498,9399.85,-1772.77,-2.04393,-6.33289,-1.82679,-2180.76,-9971.77,-1440.12,-6.5986,-7.65497,2.38073,7476.87,537.347,6280.0,1.24116,-33.9098,-0.912941
0.134,5418.2,-3597.74,7308.02,-1.61141,4.30789,0.643831,4903.56,3578.6,7433.8,0.266014,1.70387,0.86447,1126.08,9180.12,-2566.82,-2.23214,-4.85303,-6.15677,1404.01,-9620.36,-2521.85,0.143845,-4.12317,7.11015,-879.788,9407.87,-1770.06,-1.93691,-6.49306,-1.686,-2169.61,-9941.38,-1435.0,-6.7325,-7.88675,2.31688,7474.95,532.602,6262.29,1.02512,-34.263,-0.928566
0.135,5422.6,-3590.73,7314.66,-1.68524,4.4987,0.636762,4910.83,3565.56,7442.31,0.207386,1.7261,0.883466,1166.6,9180.06,-2550.58,-2.31358,-5.12169,-6.33046,1369.66,-9614.89,-2484.29,0.265334,-4.17954,7.07119,-808.564,9408.69,-1772.26,-1.73435,-6.6302,-1.4691,-2145.48,-9896.84,-1430.11,-6.91145,-8.21624,2.26132,7463.9,522.537,6238.27,0.864516,-34.6648,-0.945066
0.136,5427.01,-3583.73,7321.3,-1.75906,4.6895,0.629693,4918.11,3552.52,7450.83,0.148758,1.74833,0.902462,1207.13,9180.0,-2534.35,-2.39502,-5.39036,-6.50415,1335.31,-9609.43,-2446.73,0.386822,-4.23591,7.03222,-737.339,9409.51,-1774.45,-1.5318,-6.76734,-1.2522,-2121.35,-9852.31,-1425.22,-7.09041,-8.54572,2.20576,7452.85,512.472,6214.26,0.703912,-35.0667,-0.961566
0.137,5431.41,-3576.72,7327.95,-1.83288,4.8803,0.622625,4925.38,3539.47,7459.34,0.0901293,1.77056,0.921458,1247.66,9179.94,-2518.11,-2.47647,-5.65903,-6.67785,1300.96,-9603.96,-2409.17,0.508311,-4.29228,6.99325,-666.115,9410.33,-1776.65,-1.32924,-6.90448,-1.0353,-2097.22,-9807.77,-1420.33,-7.26937,-8.87521,2.1502,7441.8,502.407,6190.24,0.543307,-35.4685,-0.978066
0.138,5420.24,-3577.28,7329.6,-1.87153,5.03903,0.564792,4925.65,3530.47,7462.43,0.0322989,1.79704,0.937279,1286.85,9176.85,-2515.46,-2.53834,-5.89757,-6.83798,1276.59,-9595.33,-2380.56,0.572178,-4.35206,6.99036,-614.161,9412.16,-1780.41,-1.13524,-7.08478,-0.854471,-2075.95,-9768.64,-1419.46,-7.44915,-9.17982,2.09266,7434.7,495.974,6170.63,0.409499,-35.8073,-1.00649
0.139,5354.53,-3604.31,7313.79,-1.78705,5.08547,0.329282,4901.38,3535.59,7446.56,-0.0227388,1.83843,0.941989,1321.35,9163.17,-2560.36,-2.53171,-6.03068,-6.9507,1287.2,-9575.66,-2383.31,0.434368,-4.4238,7.11373,-629.654,9417.49,-1789.66,-0.971214,-7.41615,-0.799914,-2064.72,-9748.44,-1432.66,-7.63182,-9.39738,2.02822,7441.44,502.256,6166.42,0.369476,-35.9255,-1.07668
0.14,5288.83,-3631.34,7297.97,-1.70257,5.13192,0.0937731,4877.12,3540.72,7430.68,-0.0777765,1.87982,0.946699,1355.84,9149.49,-2605.25,-2.52508,-6.16379,-7.06341,1297.81,-9555.99,-2386.05,0.296558,-4.49554,7.23711,-645.146,9422.82,-1798.91,-0.807183,-7.74752,-0.745357,-2053.49,-9728.24,-1445.87,-7.81449,-9.61493,1.96378,7448.18,508.537,6162.21,0.329453,-36.0438,-1.14686
0.141,5223.12,-3658.37,7282.16,-1.61809,5.17836,-0.141736,4852.86,3545.84,7414.81,-0.132814,1.92121,0.951408,1390.34,9135.82,-2650.15,-2.51845,-6.2969,-7.17612,1308.41,-9536.32,-2388.8,0.158747,-4.56728,7.36048,-660.638,9428.15,-1808.16,-0.643153,-8.07889,-0.6908,-2042.27,-9708.03,-1459.07,-7.99716,-9.83249,1.89933,7454.92,514.818,6158.0,0.289431,-36.162,-1.21704
0.142,5157.42,-3685.4,7266.34,-1.53361,5.22481,-0.377245,4828.59,3550.97,7398.94,-0.187852,1.9626,0.956118,1424.84,9122.14,-2695.04,-2.51182,-6.43002,-7.28883,1319.02,-9516.65,-2391.54,0.0209369,-4.63902,7.48386,-676.131,9433.48,-1817.41,-0.479123,-8.41026,-0.636242,-2031.04,-9687.83,-1472.28,-8.17983,-10.05,1.83489,7461.66,521.1,6153.79,0.249408,-36.2802,-1.28722
0.143,5134.66,-3716.8,7284.17,-1.53509,5.30515,-0.663637,4814.34,3569.44,7399.66,-0.119468,1.93641,0.951916,1449.82,9126.14,-2735.03,-2.55254,-6.464,-7.34158,1344.77,-9499.55,-2408.18,-0.0619335,-4.74966,7.54613,-701.636,9423.25,-1816.58,-0.352884,-8.56331,-0.659879,-2006.74,-9661.12,-1508.08,-8.44127,-10.3615,1.76251,7457.99,524.942,6139.63,0.217179,-36.487,-1.36019
0.144,5124.17,-3749.46,7311.6,-1.56112,5.39517,-0.964566,4802.95,3591.73,7405.11,-0.0158216,1.89091,0.945167,1472.07,9135.2,-2773.62,-2.60679,-6.46966,-7.3772,1374.84,-9483.18,-2428.78,-0.129107,-4.87142,7.59095,-730.003,9408.57,-1812.87,-0.237441,-8.66541,-0.705856,-1978.7,-9632.55,-1550.35,-8.72521,-10.6997,1.68786,7451.33,528.088,6122.64,0.187178,-36.7191,-1.43396
0.145,5113.68,-3782.12,7339.03,-1.58716,5.48519,-1.2655,4791.55,3614.02,7410.57,0.0878252,1.84541,0.938418,1494.33,9144.26,-2812.21,-2.66105,-6.47532,-7.41282,1404.92,-9466.81,-2449.38,-0.19628,-4.99318,7.63577,-758.37,9393.9,-1809.16,-0.121999,-8.7675,-0.751833,-1950.66,-9603.98,-1592.61,-9.00916,-11.0379,1.61321,7444.68,531.233,6105.64,0.157176,-36.9512,-1.50773
0.146,5103.19,-3814.77,7366.46,-1.6132,5.57521,-1.56642,4780.16,3636.31,7416.03,0.191472,1.79991,0.931669,1516.58,9153.31,-2850.8,-2.7153,-6.48099,-7.44844,1435.0,-9450.45,-2469.99,-0.263453,-5.11493,7.68059,-786.737,9379.22,-1805.45,-0.00655684,-8.8696,-0.797811,-1922.63,-9575.41,-1634.87,-9.29311,-11.3762,1.53855,7438.02,534.378,6088.65,0.127174,-37.1833,-1.5815
0.147,5095.76,-3833.59,7389.71,-1.62343,5.6298,-1.78479,4772.91,3654.1,7414.97,0.256966,1.76958,0.90236,1527.44,9168.65,-2875.86,-2.73651,-6.45982,-7.52206,1448.09,-9435.61,-2495.17,-0.309977,-5.20913,7.74346,-793.995,9381.79,-1815.75,0.140362,-8.94009,-0.801487,-1895.33,-9553.64,-1661.81,-9.55063,-11.6296,1.5633,7435.45,542.378,6083.06,0.0301223,-37.4022,-1.61108
0.148,5094.48,-3824.73,7404.57,-1.60205,5.61352,-1.83801,4773.93,3662.9,7400.86,0.246155,1.76958,0.827931,1515.49,9196.54,-2873.85,-2.69164,-6.385,-7.6717,1427.21,-9423.86,-2529.51,-0.315201,-5.2482,7.84242,-759.037,9418.86,-1854.07,0.350233,-8.94735,-0.72056,-1869.5,-9545.48,-1658.12,-9.7553,-11.7135,1.78685,7441.04,560.086,6100.28,-0.201029,-37.5946,-1.55229
0.149,5093.19,-3815.86,7419.43,-1.58068,5.59724,-1.89124,4774.96,3671.7,7386.75,0.235345,1.76958,0.753503,1503.54,9224.43,-2871.84,-2.64677,-6.31018,-7.82134,1406.33,-9412.1,-2563.85,-0.320426,-5.28727,7.94139,-724.078,9455.93,-1892.39,0.560105,-8.95461,-0.639633,-1843.66,-9537.31,-1654.42,-9.95997,-11.7973,2.0104,7446.63,577.794,6117.5,-0.43218,-37.787,-1.4935
0.15,5091.9,-3807.0,7434.29,-1.55931,5.58097,-1.94446,4775.99,3680.5,7372.65,0.224534,1.76958,0.679074,1491.6,9252.32,-2869.84,-2.6019,-6.23536,-7.97098,1385.46,-9400.35,-2598.19,-0.32565,-5.32635,8.04036,-689.12,9493.0,-1930.72,0.769977,-8.96187,-0.558706,-1817.83,-9529.15,-1650.72,-10.1646,-11.8812,2.23395,7452.21,595.502,6134.73,-0.663332,-37.9795,-1.43472
0.151,5090.61,-3798.14,7449.16,-1.53794,5.56469,-1.99769,4777.01,3689.3,7358.54,0.213723,1.76958,0.604646,1479.65,9280.21,-2867.83,-2.55703,-6.16054,-8.12062,1364.58,-9388.59,-2632.53,-0.330875,-5.36542,8.13933,-654.162,9530.07,-1969.04,0.979848,-8.96913,-0.477779,-1792.0,-9520.98,-1647.02,-10.3693,-11.965,2.45749,7457.8,613.209,6151.95,-0.894483,-38.1719,-1.37593
0.152,5143.71,-3767.77,7434.87,-1.49958,5.53822,-2.1415,4775.81,3716.89,7380.34,0.236603,1.79176,0.631317,1441.88,9312.62,-2855.5,-2.59402,-6.02905,-8.24597,1381.29,-9404.82,-2643.55,-0.248499,-5.36202,8.25983,-676.292,9537.92,-1979.65,1.04444,-8.90325,-0.593838,-1774.75,-9522.94,-1679.03,-10.4328,-11.9307,2.64023,7456.88,642.497,6155.19,-0.955689,-38.486,-1.29299
0.153,5203.6,-3734.71,7416.94,-1.45909,5.51048,-2.29665,4774.34,3746.83,7406.63,0.263694,1.8167,0.670627,1400.87,9345.58,-2841.89,-2.64124,-5.89048,-8.36829,1402.7,-9424.54,-2651.65,-0.155174,-5.35331,8.38302,-705.557,9542.13,-1986.8,1.09086,-8.82822,-0.734521,-1758.57,-9526.15,-1715.5,-10.4786,-11.8815,2.81787,7455.14,673.233,6156.69,-0.995651,-38.8153,-1.20703
0.154,5263.5,-3701.65,7399.01,-1.41861,5.48273,-2.45179,4772.86,3776.76,7432.92,0.290785,1.84165,0.709936,1359.87,9378.55,-2828.27,-2.68847,-5.75191,-8.4906,1424.11,-9444.27,-2659.76,-0.0618489,-5.34459,8.50621,-734.823,9546.33,-1993.94,1.13729,-8.7532,-0.875204,-1742.38,-9529.37,-1751.96,-10.5245,-11.8324,2.9955,7453.39,703.969,6158.18,-1.03561,-39.1446,-1.12107
0.155,5323.39,-3668.6,7381.08,-1.37813,5.45499,-2.60693,4771.38,3806.7,7459.22,0.317876,1.8666,0.749245,1318.87,9411.52,-2814.65,-2.73569,-5.61334,-8.61291,1445.52,-9463.99,-2667.86,0.0314763,-5.33588,8.62941,-764.089,9550.53,-2001.09,1.18372,-8.67817,-1.01589,-1726.2,-9532.59,-1788.43,-10.5703,-11.7833,3.17314,7451.65,734.704,6159.68,-1.07558,-39.4739,-1.03512
0.156,5367.28,-3641.04,7385.29,-1.40012,5.4616,-2.77856,4772.62,3820.66,7469.47,0.298923,1.90442,0.783096,1294.64,9444.49,-2788.71,-2.79584,-5.52902,-8.67748,1458.31,-9474.12,-2674.86,0.05121,-5.28547,8.79016,-794.123,9559.91,-2010.91,1.14891,-8.54349,-1.17348,-1726.94,-9539.15,-1800.82,-10.6468,-11.7871,3.40011,7464.67,750.422,6157.9,-1.22482,-39.787,-0.995991
0.157,5391.14,-3620.36,7417.18,-1.50021,5.51115,-2.97078,4777.26,3814.66,7459.66,0.222415,1.95834,0.810123,1291.37,9477.48,-2747.37,-2.87214,-5.51252,-8.66986,1460.33,-9472.25,-2680.47,-0.0210458,-5.18294,8.99786,-825.116,9575.75,-2024.07,1.01256,-8.33425,-1.35222,-1748.83,-9549.91,-1783.11,-10.7615,-11.8572,3.68877,7496.14,747.37,6152.01,-1.51065,-40.0798,-1.01541
0.158,5415.01,-3599.68,7449.06,-1.60029,5.5607,-3.16301,4781.91,3808.65,7449.86,0.145908,2.01226,0.837151,1288.1,9510.46,-2706.03,-2.94844,-5.49601,-8.66225,1462.34,-9470.38,-2686.08,-0.0933015,-5.0804,9.20557,-856.11,9591.59,-2037.23,0.876215,-8.12502,-1.53095,-1770.73,-9560.66,-1765.4,-10.8762,-11.9273,3.97742,7527.6,744.317,6146.13,-1.79649,-40.3726,-1.03483
0.159,5438.88,-3579.0,7480.94,-1.70038,5.61025,-3.35523,4786.55,3802.65,7440.06,0.0693999,2.06618,0.864178,1284.84,9543.45,-2664.69,-3.02475,-5.47951,-8.65463,1464.36,-9468.51,-2691.7,-0.165557,-4.97787,9.41327,-887.103,9607.43,-2050.39,0.739866,-7.91578,-1.70969,-1792.62,-9571.41,-1747.69,-10.9909,-11.9974,4.26607,7559.07,741.264,6140.25,-2.08233,-40.6654,-1.05424
0.16,5462.74,-3558.31,7512.83,-1.80047,5.6598,-3.54746,4791.19,3796.65,7430.25,-0.00710787,2.1201,0.891205,1281.57,9576.43,-2623.35,-3.10105,-5.463,-8.64701,1466.38,-9466.64,-2697.31,-0.237813,-4.87533,9.62097,-918.096,9623.28,-2063.55,0.603518,-7.70654,-1.88842,-1814.51,-9582.17,-1729.98,-11.1056,-12.0674,4.55472,7590.53,738.211,6134.37,-2.36816,-40.9582,-1.07366
0.161,5441.52,-3548.94,7509.91,-1.89842,5.74133,-3.63747,4786.57,3802.0,7409.98,-0.0748039,2.14257,0.962004,1279.09,9598.28,-2612.49,-3.22383,-5.43751,-8.61598,1454.54,-9474.99,-2734.0,-0.112091,-4.76209,9.59324,-926.533,9625.67,-2072.68,0.629487,-7.49778,-1.85195,-1822.25,-9580.36,-1758.84,-11.1185,-12.1934,4.73985,7584.83,712.303,6126.26,-2.46074,-41.2651,-1.02891
0.162,5420.3,-3539.57,7507.0,-1.99637,5.82287,-3.72747,4781.94,3807.36,7389.71,-0.1425,2.16504,1.0328,1276.62,9620.12,-2601.63,-3.34661,-5.41201,-8.58494,1442.7,-9483.33,-2770.68,0.0136317,-4.64886,9.56552,-934.97,9628.07,-2081.8,0.655456,-7.28902,-1.81547,-1829.99,-9578.55,-1787.69,-11.1314,-12.3194,4.92499,7579.14,686.395,6118.15,-2.55331,-41.5719,-0.984159
0.163,5399.08,-3530.19,7504.08,-2.09432,5.9044,-3.81748,4777.31,3812.72,7369.44,-0.210196,2.18751,1.1036,1274.14,9641.96,-2590.77,-3.46939,-5.38652,-8.55391,1430.86,-9491.68,-2807.37,0.139354,-4.53562,9.53779,-943.406,9630.46,-2090.93,0.681425,-7.08026,-1.77899,-1837.72,-9576.75,-1816.54,-11.1443,-12.4454,5.11012,7573.44,660.486,6110.04,-2.64588,-41.8787,-0.939408
0.164,5377.85,-3520.82,7501.17,-2.19227,5.98594,-3.90749,4772.68,3818.08,7349.17,-0.277892,2.20998,1.1744,1271.67,9663.81,-2579.92,-3.59216,-5.36102,-8.52288,1419.03,-9500.03,-2844.05,0.265076,-4.42238,9.51006,-951.843,9632.86,-2100.06,0.707393,-6.87151,-1.74251,-1845.46,-9574.94,-1845.4,-11.1572,-12.5715,5.29526,7567.74,634.578,6101.92,-2.73846,-42.1855,-0.894658
0.165,5359.71,-3485.99,7493.98,-2.2166,5.8636,-3.89864,4767.32,3821.76,7348.78,-0.348729,2.2128,1.23611,1257.96,9675.32,-2562.95,-3.67582,-5.29646,-8.45154,1423.38,-9501.17,-2858.74,0.34107,-4.39497,9.5389,-971.534,9642.36,-2105.02,0.656372,-6.62055,-1.72408,-1841.41,-9580.34,-1869.42,-11.197,-12.663,5.41775,7573.73,627.498,6099.87,-2.75625,-42.4973,-0.896026
0.166,5344.03,-3430.78,7483.37,-2.18204,5.57817,-3.81071,4761.35,3824.11,7364.29,-0.422078,2.1999,1.29056,1235.28,9678.57,-2541.1,-3.72819,-5.20063,-8.34796,1440.7,-9496.56,-2855.82,0.377279,-4.43622,9.613,-1000.23,9657.56,-2106.66,0.543759,-6.33583,-1.72009,-1827.93,-9591.5,-1889.59,-11.2582,-12.727,5.49013,7589.07,635.48,6102.68,-2.71421,-42.8131,-0.934288
0.167,5328.34,-3375.58,7472.76,-2.14747,5.29273,-3.72277,4755.39,3826.47,7379.8,-0.495427,2.187,1.34501,1212.59,9681.82,-2519.26,-3.78056,-5.10481,-8.24438,1458.01,-9491.95,-2852.91,0.413489,-4.47748,9.6871,-1028.92,9672.76,-2108.29,0.431145,-6.05111,-1.7161,-1814.45,-9602.66,-1909.75,-11.3194,-12.7909,5.56251,7604.42,643.463,6105.48,-2.67218,-43.1289,-0.972551
0.168,5312.66,-3320.38,7462.15,-2.11291,5.0073,-3.63484,4749.43,3828.82,7395.31,-0.568776,2.1741,1.39945,1189.91,9685.07,-2497.41,-3.83292,-5.00899,-8.1408,1475.33,-9487.33,-2849.99,0.449699,-4.51873,9.7612,-1057.61,9687.96,-2109.92,0.318532,-5.76639,-1.71211,-1800.97,-9613.82,-1929.91,-11.3807,-12.8549,5.63489,7619.76,651.445,6108.28,-2.63014,-43.4447,-1.01081
0.169,5300.86,-3273.37,7452.09,-2.09235,4.74481,-3.54736,4746.27,3829.66,7409.97,-0.628829,2.17289,1.4574,1169.49,9685.53,-2478.1,-3.88745,-4.92612,-8.05194,1487.19,-9481.3,-2848.26,0.487864,-4.54321,9.83847,-1084.47,9699.55,-2111.95,0.220426,-5.49109,-1.71144,-1787.46,-9624.8,-1952.38,-11.4337,-12.907,5.70392,7632.48,657.584,6109.16,-2.60057,-43.7574,-1.04982
0.17,5320.08,-3291.91,7446.43,-2.18382,4.66588,-3.46357,4765.54,3818.39,7417.88,-0.582515,2.26517,1.54341,1167.25,9663.73,-2479.08,-3.95922,-4.94687,-8.08078,1455.47,-9463.9,-2855.97,0.541666,-4.43348,9.94111,-1096.58,9682.29,-2117.1,0.238385,-5.2911,-1.73736,-1773.73,-9634.42,-1993.26,-11.4208,-12.8646,5.74621,7624.28,648.971,6094.7,-2.67073,-44.0452,-1.09483
0.171,5339.31,-3310.46,7440.76,-2.2753,4.58695,-3.37978,4784.8,3807.13,7425.79,-0.536201,2.35744,1.62942,1165.0,9641.94,-2480.06,-4.03099,-4.96762,-8.10962,1423.75,-9446.5,-2863.68,0.595468,-4.32374,10.0438,-1108.69,9665.02,-2122.26,0.256345,-5.0911,-1.76328,-1759.99,-9644.02,-2034.15,-11.408,-12.8221,5.7885,7616.09,640.358,6080.23,-2.74088,-44.3329,-1.13984
0.172,5358.53,-3329.01,7435.1,-2.36677,4.50802,-3.29598,4804.06,3795.87,7433.71,-0.489887,2.44972,1.71543,1162.76,9620.14,-2481.03,-4.10276,-4.98837,-8.13846,1392.03,-9429.1,-2871.39,0.64927,-4.21401,10.1464,-1120.8,9647.76,-2127.41,0.274304,-4.89111,-1.78919,-1746.26,-9653.64,-2075.04,-11.3952,-12.7796,5.83078,7607.89,631.745,6065.76,-2.81104,-44.6207,-1.18484
0.173,5377.76,-3347.55,7429.43,-2.45824,4.4291,-3.21219,4823.33,3784.61,7441.62,-0.443573,2.542,1.80143,1160.51,9598.34,-2482.01,-4.17454,-5.00912,-8.1673,1360.31,-9411.7,-2879.1,0.703072,-4.10427,10.249,-1132.91,9630.5,-2132.57,0.292263,-4.69112,-1.81511,-1732.52,-9663.25,-2115.93,-11.3823,-12.7372,5.87307,7599.69,623.132,6051.3,-2.8812,-44.9084,-1.22985
0.174,5372.62,-3383.73,7416.18,-2.44586,4.44622,-3.23638,4816.29,3785.91,7436.82,-0.35071,2.68451,1.88372,1155.08,9565.31,-2468.3,-4.23173,-5.08286,-8.25301,1359.07,-9399.12,-2876.48,0.679869,-4.05767,10.3811,-1125.73,9639.06,-2111.23,0.290562,-4.49525,-1.77249,-1737.93,-9691.87,-2131.6,-11.2812,-12.4496,5.90503,7591.15,631.985,6045.13,-2.99977,-45.1761,-1.38631
0.175,5355.3,-3428.73,7399.12,-2.38155,4.51137,-3.31456,4796.1,3793.5,7425.67,-0.234573,2.85213,1.96415,1148.06,9526.66,-2447.24,-4.28162,-5.1831,-8.36715,1373.06,-9388.95,-2868.71,0.618163,-4.04263,10.5278,-1108.9,9660.54,-2076.66,0.279031,-4.30145,-1.69559,-1752.91,-9729.99,-2134.68,-11.136,-12.0394,5.93184,7582.43,649.57,6043.1,-3.14255,-45.4339,-1.59851
0.176,5337.99,-3473.72,7382.07,-2.31724,4.57653,-3.39274,4775.9,3801.09,7414.52,-0.118436,3.01975,2.04457,1141.03,9488.01,-2426.19,-4.33152,-5.28334,-8.48128,1387.06,-9378.78,-2860.94,0.556458,-4.02759,10.6745,-1092.06,9682.02,-2042.08,0.2675,-4.10764,-1.6187,-1767.89,-9768.12,-2137.75,-10.9907,-11.6293,5.95864,7573.71,667.155,6041.08,-3.28533,-45.6916,-1.8107
0.177,5320.67,-3518.71,7365.02,-2.25293,4.64168,-3.47093,4755.71,3808.68,7403.37,-0.00229911,3.18738,2.125,1134.01,9449.36,-2405.13,-4.38142,-5.38358,-8.59542,1401.06,-9368.61,-2853.17,0.494752,-4.01256,10.8212,-1075.23,9703.5,-2007.51,0.255969,-3.91384,-1.54181,-1782.86,-9806.24,-2140.82,-10.8455,-11.2192,5.98544,7564.99,684.74,6039.06,-3.42811,-45.9493,-2.02289
0.178,5307.83,-3549.17,7353.1,-2.17843,4.71079,-3.52607,4738.08,3815.35,7395.35,0.0823896,3.32321,2.20275,1128.54,9416.01,-2389.17,-4.41439,-5.51647,-8.68681,1410.78,-9359.48,-2849.67,0.465356,-4.00638,10.9787,-1064.24,9715.86,-1975.63,0.226343,-3.79036,-1.46941,-1790.75,-9836.45,-2149.31,-10.7013,-10.7669,5.96048,7560.0,698.286,6036.65,-3.53491,-46.1996,-2.18532
0.179,5310.66,-3528.75,7359.15,-2.06829,4.79374,-3.50055,4729.39,3818.8,7398.27,0.0570095,3.34774,2.27115,1128.5,9401.24,-2391.04,-4.3881,-5.76361,-8.69859,1405.53,-9354.01,-2861.11,0.549042,-4.03121,11.1738,-1073.71,9696.3,-1953.18,0.133384,-3.91302,-1.41272,-1773.84,-9838.92,-2176.76,-10.5609,-10.1674,5.75435,7568.06,697.698,6032.89,-3.51578,-46.4237,-2.17356
0.18,5313.49,-3508.34,7365.2,-1.95815,4.87669,-3.47503,4720.71,3822.25,7401.2,0.0316294,3.37227,2.33955,1128.47,9386.48,-2392.92,-4.36181,-6.01076,-8.71036,1400.29,-9348.54,-2872.55,0.632727,-4.05603,11.3688,-1083.18,9676.74,-1930.73,0.0404244,-4.03569,-1.35603,-1756.92,-9841.38,-2204.21,-10.4206,-9.56793,5.54822,7576.11,697.109,6029.14,-3.49665,-46.6479,-2.16181
0.181,5316.32,-3487.92,7371.25,-1.84802,4.95964,-3.44952,4712.02,3825.7,7404.13,0.00624921,3.3968,2.40795,1128.43,9371.71,-2394.79,-4.33552,-6.2579,-8.72213,1395.05,-9343.07,-2883.99,0.716413,-4.08086,11.5639,-1092.65,9657.18,-1908.28,-0.0525348,-4.15835,-1.29935,-1740.0,-9843.85,-2231.66,-10.2802,-8.96842,5.34209,7584.16,696.521,6025.38,-3.47752,-46.872,-2.15006
0.182,5319.15,-3467.5,7377.3,-1.73788,5.0426,-3.424,4703.34,3829.15,7407.06,-0.0191309,3.42134,2.47635,1128.4,9356.94,-2396.67,-4.30923,-6.50505,-8.73391,1389.8,-9337.6,-2895.43,0.800099,-4.10569,11.7589,-1102.12,9637.62,-1885.83,-0.145494,-4.28101,-1.24266,-1723.09,-9846.32,-2259.11,-10.1399,-8.36892,5.13596,7592.22,695.932,6021.62,-3.45839,-47.0962,-2.13831
0.183,5332.37,-3470.33,7373.68,-1.78732,5.01896,-3.40745,4704.16,3820.93,7397.56,-0.114932,3.5209,2.51309,1134.3,9332.83,-2383.52,-4.35145,-6.65095,-8.75254,1382.14,-9334.96,-2877.56,0.859956,-4.09803,11.8436,-1087.51,9637.48,-1875.31,-0.251864,-4.27112,-1.23872,-1718.42,-9865.13,-2257.48,-9.88805,-7.71477,4.97921,7593.35,697.218,6009.16,-3.38175,-47.3313,-2.15338
0.184,5348.56,-3479.8,7367.3,-1.88236,4.96488,-3.39346,4707.71,3809.38,7384.52,-0.230853,3.64191,2.54079,1141.89,9306.06,-2366.08,-4.41324,-6.76792,-8.77314,1373.78,-9333.13,-2851.31,0.913006,-4.08108,11.8966,-1066.02,9642.89,-1868.2,-0.362065,-4.22335,-1.24984,-1717.24,-9888.61,-2247.54,-9.60438,-7.04501,4.83657,7592.5,699.039,5994.22,-3.28868,-47.5694,-2.17611
0.185,5364.75,-3489.28,7360.93,-1.97741,4.9108,-3.37947,4711.26,3797.83,7371.48,-0.346774,3.76292,2.56849,1149.49,9279.29,-2348.63,-4.47504,-6.88489,-8.79374,1365.43,-9331.29,-2825.06,0.966056,-4.06413,11.9497,-1044.53,9648.29,-1861.08,-0.472266,-4.17559,-1.26097,-1716.07,-9912.08,-2237.61,-9.3207,-6.37525,4.69393,7591.66,700.86,5979.27,-3.19561,-47.8076,-2.19884
0.186,5380.94,-3498.75,7354.55,-2.07245,4.85672,-3.36548,4714.8,3786.29,7358.44,-0.462695,3.88392,2.59619,1157.08,9252.52,-2331.19,-4.53683,-7.00187,-8.81434,1357.07,-9329.45,-2798.81,1.01911,-4.04718,12.0027,-1023.04,9653.71,-1853.97,-0.582467,-4.12783,-1.27209,-1714.89,-9935.56,-2227.67,-9.03702,-5.70549,4.55129,7590.81,702.681,5964.33,-3.10254,-48.0458,-2.22156
0.187,5390.98,-3496.78,7366.22,-2.1542,4.83478,-3.36486,4721.0,3775.6,7348.98,-0.517479,3.99493,2.63182,1154.37,9240.37,-2320.47,-4.59027,-7.14264,-8.814,1342.97,-9330.33,-2774.18,1.09093,-4.04788,12.0836,-1004.97,9649.66,-1841.79,-0.69285,-4.03281,-1.21259,-1715.07,-9953.96,-2210.76,-8.83727,-5.07257,4.41088,7599.16,703.769,5955.2,-3.05878,-48.2798,-2.27894
0.188,5388.7,-3471.93,7414.01,-2.20939,4.87714,-3.39097,4732.5,3766.65,7346.67,-0.449991,4.08592,2.68332,1131.05,9257.43,-2323.2,-4.62699,-7.33103,-8.7718,1317.36,-9336.61,-2752.79,1.20032,-4.08386,12.2202,-993.734,9626.71,-1819.48,-0.803595,-3.84331,-1.01182,-1717.95,-9962.2,-2179.89,-8.80537,-4.51332,4.27495,7625.89,703.389,5957.71,-3.11364,-48.5053,-2.40561
0.189,5386.41,-3447.08,7461.8,-2.26459,4.91949,-3.41708,4744.01,3757.69,7344.37,-0.382503,4.17692,2.73481,1107.74,9274.51,-2325.94,-4.66371,-7.51941,-8.72959,1291.76,-9342.9,-2731.4,1.3097,-4.11983,12.3568,-982.5,9603.75,-1797.18,-0.914339,-3.65381,-0.81105,-1720.83,-9970.43,-2149.03,-8.77347,-3.95406,4.13902,7652.62,703.009,5960.21,-3.1685,-48.7309,-2.53227
0.19,5384.13,-3422.23,7509.58,-2.31978,4.96185,-3.44319,4755.51,3748.73,7342.06,-0.315015,4.26792,2.78631,1084.42,9291.58,-2328.67,-4.70042,-7.7078,-8.68739,1266.15,-9349.18,-2710.02,1.41909,-4.15581,12.4934,-971.266,9580.8,-1774.87,-1.02508,-3.4643,-0.610282,-1723.71,-9978.67,-2118.16,-8.74157,-3.39481,4.00308,7679.35,702.629,5962.72,-3.22337,-48.9565,-2.65894
0.191,5381.85,-3397.38,7557.37,-2.37497,5.00421,-3.46931,4767.01,3739.78,7339.76,-0.247527,4.35891,2.8378,1061.1,9308.65,-2331.4,-4.73714,-7.89619,-8.64518,1240.54,-9355.47,-2688.63,1.52847,-4.19179,12.63,-960.032,9557.84,-1752.56,-1.13583,-3.2748,-0.409514,-1726.59,-9986.91,-2087.3,-8.70967,-2.83556,3.86715,7706.08,702.249,5965.23,-3.27823,-49.1821,-2.78561
0.192,5371.34,-3387.9,7508.4,-2.4024,5.11091,-3.36459,4792.03,3754.06,7346.74,-0.159391,4.45368,2.89581,1076.09,9283.45,-2328.58,-4.85009,-8.04982,-8.86459,1253.61,-9375.18,-2682.73,1.52694,-4.1205,12.7572,-944.41,9555.75,-1746.79,-1.2586,-3.44219,-0.395013,-1713.28,-9972.59,-2046.79,-8.64111,-2.68946,3.67673,7701.81,695.257,5959.7,-3.32904,-49.3172,-2.86136
0.193,5359.8,-3380.35,7447.34,-2.42637,5.22567,-3.24352,4818.74,3771.24,7354.89,-0.0686739,4.54891,2.95463,1095.86,9252.98,-2325.07,-4.97256,-8.19911,-9.11671,1271.52,-9396.57,-2678.76,1.51155,-4.0358,12.8832,-928.24,9556.27,-1743.08,-1.38287,-3.65419,-0.403795,-1697.95,-9955.44,-2005.08,-8.56797,-2.595,3.47949,7693.67,687.438,5953.17,-3.37935,-49.4411,-2.93074
0.194,5348.26,-3372.8,7386.28,-2.45033,5.34042,-3.12245,4845.44,3788.42,7363.03,0.022043,4.64415,3.01345,1115.64,9222.5,-2321.56,-5.09504,-8.3484,-9.36882,1289.43,-9417.96,-2674.8,1.49616,-3.9511,13.0092,-912.069,9556.78,-1739.38,-1.50714,-3.86619,-0.412578,-1682.61,-9938.29,-1963.37,-8.49483,-2.50055,3.28225,7685.52,679.619,5946.65,-3.42966,-49.5649,-3.00012
0.195,5336.72,-3365.25,7325.22,-2.4743,5.45517,-3.00139,4872.15,3805.6,7371.18,0.11276,4.73938,3.07227,1135.41,9192.02,-2318.05,-5.21751,-8.49769,-9.62093,1307.33,-9439.35,-2670.83,1.48077,-3.8664,13.1352,-895.899,9557.3,-1735.67,-1.63141,-4.07819,-0.42136,-1667.28,-9921.14,-1921.66,-8.42169,-2.40609,3.08501,7677.38,671.8,5940.12,-3.47996,-49.6888,-3.06951
0.196,5334.29,-3359.48,7306.35,-2.42249,5.64473,-2.95706,4886.09,3809.55,7376.07,0.128188,4.83053,3.098,1139.33,9176.83,-2317.87,-5.36332,-8.58372,-9.8222,1327.97,-9441.21,-2660.55,1.4497,-3.78789,13.2665,-866.828,9541.89,-1739.78,-1.75582,-4.18528,-0.311144,-1657.0,-9908.6,-1886.74,-8.39302,-2.29634,2.88073,7668.82,657.86,5925.5,-3.62336,-49.839,-3.13648
0.197,5343.27,-3355.94,7340.24,-2.27596,5.92782,-3.00865,4884.07,3796.97,7376.9,0.0495053,4.91657,3.08238,1123.41,9180.75,-2321.83,-5.53831,-8.59066,-9.95991,1352.01,-9418.67,-2642.37,1.39904,-3.71711,13.4043,-821.633,9506.58,-1753.64,-1.88041,-4.16124,-0.0521789,-1653.03,-9901.81,-1860.3,-8.41995,-2.16746,2.66766,7659.75,636.269,5900.76,-3.8831,-50.0221,-3.20043
0.198,5352.25,-3352.4,7374.12,-2.12943,6.2109,-3.06024,4882.05,3784.38,7377.74,-0.0291775,5.00261,3.06675,1107.5,9184.67,-2325.8,-5.71329,-8.5976,-10.0976,1376.05,-9396.12,-2624.19,1.34838,-3.64634,13.5422,-776.438,9471.28,-1767.51,-2.005,-4.13721,0.206786,-1649.06,-9895.02,-1833.87,-8.44688,-2.03858,2.45459,7650.69,614.678,5876.02,-4.14285,-50.2052,-3.26439
0.199,5361.23,-3348.86,7408.01,-1.9829,6.49398,-3.11183,4880.03,3771.8,7378.57,-0.10786,5.08865,3.05113,1091.59,9188.58,-2329.76,-5.88827,-8.60455,-10.2353,1400.09,-9373.58,-2606.01,1.29771,-3.57557,13.68,-731.242,9435.97,-1781.38,-2.12959,-4.11317,0.465751,-1645.09,-9888.24,-1807.44,-8.4738,-1.9097,2.24151,7641.62,593.086,5851.28,-4.4026,-50.3883,-3.32834
0.2,5370.21,-3345.32,7441.89,-1.83637,6.77707,-3.16342,4878.02,3759.22,7379.4,-0.186543,5.17469,3.03551,1075.67,9192.5,-2333.73,-6.06326,-8.61149,-10.373,1424.14,-9351.04,-2587.83,1.24705,-3.50479,13.8179,-686.047,9400.66,-1795.25,-2.25418,-4.08913,0.724715,-1641.12,-9881.45,-1781.01,-8.50073,-1.78082,2.02844,7632.55,571.495,5826.54,-4.66235,-50.5714,-3.3923
0.201,5385.69,-3366.28,7413.45,-1.86994,6.80711,-3.09234,4852.38,3737.83,7386.63,-0.23548,5.27425,3.01042,1104.34,9208.18,-2353.51,-6.20741,-8.68279,-10.5329,1416.23,-9349.62,-2584.39,1.34235,-3.48625,13.9901,-656.6,9405.81,-1747.93,-2.19982,-4.29502,0.809006,-1655.32,-9860.47,-1800.06,-8.42947,-1.6379,1.8199,7644.39,588.49,5818.49,-4.65506,-50.7628,-3.41675
0.202,5401.17,-3387.24,7385.01,-1.90351,6.83715,-3.02126,4826.74,3716.44,7393.87,-0.284417,5.37381,2.98534,1133.02,9223.86,-2373.29,-6.35157,-8.75409,-10.6928,1408.33,-9348.2,-2580.95,1.43766,-3.46771,14.1623,-627.154,9410.96,-1700.62,-2.14545,-4.50091,0.893296,-1669.52,-9839.49,-1819.11,-8.35821,-1.49497,1.61136,7656.24,605.485,5810.44,-4.64777,-50.9543,-3.44121
0.203,5416.65,-3408.2,7356.56,-1.93708,6.86719,-2.95018,4801.1,3695.06,7401.1,-0.333353,5.47337,2.96025,1161.69,9239.54,-2393.07,-6.49573,-8.82539,-10.8526,1400.43,-9346.79,-2577.51,1.53296,-3.44917,14.3345,-597.707,9416.11,-1653.3,-2.09109,-4.70679,0.977587,-1683.72,-9818.51,-1838.16,-8.28695,-1.35204,1.40282,7668.08,622.48,5802.39,-4.64048,-51.1457,-3.46567
0.204,5432.13,-3429.16,7328.12,-1.97065,6.89723,-2.8791,4775.47,3673.67,7408.33,-0.38229,5.57293,2.93517,1190.36,9255.23,-2412.85,-6.63988,-8.89669,-11.0125,1392.53,-9345.37,-2574.07,1.62826,-3.43062,14.5068,-568.26,9421.26,-1605.99,-2.03673,-4.91268,1.06188,-1697.92,-9797.53,-1857.22,-8.21569,-1.20911,1.19428,7679.92,639.475,5794.34,-4.63319,-51.3371,-3.49013
0.205,5424.05,-3439.59,7311.72,-1.90359,6.9608,-2.79064,4766.96,3652.98,7414.52,-0.416674,5.69467,2.92869,1207.5,9239.54,-2430.53,-6.82915,-8.77591,-11.2859,1386.79,-9339.77,-2563.81,1.7113,-3.31538,14.6819,-535.318,9421.03,-1584.97,-1.93574,-5.04348,1.16786,-1693.13,-9776.76,-1872.12,-8.16784,-1.04675,1.14398,7683.6,639.484,5773.5,-4.69098,-51.5374,-3.4762
0.206,5397.13,-3441.6,7304.97,-1.75602,7.05119,-2.68826,4772.16,3632.84,7419.88,-0.439415,5.83416,2.93711,1215.41,9198.78,-2446.53,-7.0545,-8.50146,-11.6501,1382.79,-9330.83,-2548.09,1.78453,-3.12279,14.8595,-499.578,9416.5,-1584.98,-1.79745,-5.11422,1.29121,-1673.14,-9756.14,-1883.7,-8.13873,-0.868836,1.22027,7680.76,625.906,5742.43,-4.80083,-51.7449,-3.43156
0.207,5370.22,-3443.61,7298.21,-1.60845,7.14158,-2.58589,4777.36,3612.7,7425.24,-0.462156,5.97365,2.94552,1223.32,9158.01,-2462.53,-7.27984,-8.22701,-12.0143,1378.79,-9321.88,-2532.37,1.85776,-2.93019,15.037,-463.838,9411.97,-1584.99,-1.65916,-5.18495,1.41455,-1653.15,-9735.53,-1895.28,-8.10962,-0.690924,1.29657,7677.91,612.327,5711.36,-4.91067,-51.9524,-3.38692
0.208,5343.3,-3445.62,7291.46,-1.46088,7.23198,-2.48351,4782.56,3592.56,7430.6,-0.484898,6.11313,2.95393,1231.23,9117.24,-2478.53,-7.50519,-7.95257,-12.3785,1374.79,-9312.93,-2516.65,1.93099,-2.73759,15.2145,-428.098,9407.44,-1585.0,-1.52086,-5.25568,1.5379,-1633.16,-9714.91,-1906.87,-8.08051,-0.513012,1.37286,7675.06,598.749,5680.29,-5.02052,-52.1599,-3.34228
0.209,5321.21,-3447.26,7284.08,-1.32259,7.33727,-2.39725,4787.64,3573.37,7435.71,-0.512246,6.24951,2.94677,1237.21,9079.48,-2491.51,-7.71091,-7.68977,-12.7232,1370.17,-9302.41,-2502.26,1.98836,-2.54922,15.3894,-393.519,9401.02,-1585.08,-1.38446,-5.34297,1.64765,-1615.17,-9696.79,-1915.04,-8.04595,-0.335394,1.45198,7673.23,585.057,5651.38,-5.12292,-52.3729,-3.29433
0.21,5337.69,-3445.97,7271.79,-1.25852,7.56179,-2.43986,4791.71,3561.8,7438.77,-0.576447,6.36106,2.81504,1227.84,9065.85,-2480.28,-7.75956,-7.52022,-12.9122,1360.57,-9279.29,-2498.48,1.91891,-2.39466,15.5431,-368.218,9379.49,-1585.73,-1.26314,-5.5627,1.64866,-1613.17,-9698.66,-1895.98,-7.96769,-0.160129,1.55366,7679.51,570.466,5639.65,-5.1658,-52.6309,-3.21989
0.211,5354.18,-3444.68,7259.49,-1.19445,7.7863,-2.48248,4795.78,3550.24,7441.84,-0.640649,6.47261,2.68331,1218.46,9052.21,-2469.05,-7.80821,-7.35066,-13.1012,1350.96,-9256.17,-2494.7,1.84946,-2.2401,15.6969,-342.917,9357.96,-1586.39,-1.14183,-5.78243,1.64967,-1611.17,-9700.54,-1876.92,-7.88944,0.0151353,1.65535,7685.8,555.874,5627.92,-5.20868,-52.8888,-3.14544
0.212,5370.66,-3443.39,7247.19,-1.13038,8.01082,-2.52509,4799.85,3538.67,7444.9,-0.70485,6.58415,2.55158,1209.08,9038.58,-2457.81,-7.85687,-7.1811,-13.2902,1341.36,-9233.05,-2490.92,1.78001,-2.08553,15.8506,-317.616,9336.44,-1587.04,-1.02051,-6.00216,1.65067,-1609.17,-9702.41,-1857.86,-7.81118,0.1904,1.75704,7692.09,541.283,5616.2,-5.25156,-53.1468,-3.071
0.213,5387.15,-3442.09,7234.89,-1.06632,8.23533,-2.5677,4803.92,3527.1,7447.97,-0.769052,6.6957,2.41985,1199.7,9024.94,-2446.58,-7.90552,-7.01154,-13.4793,1331.76,-9209.93,-2487.15,1.71056,-1.93097,16.0043,-292.315,9314.91,-1587.69,-0.899193,-6.22188,1.65168,-1607.18,-9704.28,-1838.8,-7.73293,0.365665,1.85873,7698.37,526.691,5604.47,-5.29445,-53.4047,-2.99655
0.214,5383.52,-3440.17,7210.49,-0.916828,8.48388,-2.49351,4817.81,3523.03,7450.82,-0.871161,6.78418,2.26276,1216.49,9009.88,-2450.63,-7.99097,-6.72635,-13.6619,1322.89,-9214.93,-2477.21,1.69484,-1.75957,16.1228,-255.905,9338.64,-1572.62,-0.891042,-6.37721,1.69429,-1602.64,-9674.09,-1832.19,-7.58524,0.514978,2.04151,7700.81,529.987,5605.47,-5.31535,-53.5797,-2.92768
0.215,5369.84,-3437.94,7180.04,-0.72463,8.74443,-2.36093,4836.61,3522.7,7453.55,-0.992224,6.86112,2.09298,1246.37,8994.09,-2462.31,-8.09481,-6.38335,-13.8413,1314.4,-9233.98,-2464.2,1.70599,-1.57974,16.2237,-213.94,9385.0,-1549.69,-0.939475,-6.50034,1.75769,-1596.82,-9627.87,-1831.8,-7.40284,0.651315,2.26485,7701.33,542.227,5612.83,-5.32526,-53.7132,-2.86159
0.216,5356.16,-3435.7,7149.59,-0.532431,9.00499,-2.22835,4855.4,3522.38,7456.29,-1.11329,6.93806,1.92321,1276.24,8978.31,-2474.0,-8.19866,-6.04035,-14.0208,1305.9,-9253.03,-2451.18,1.71714,-1.39991,16.3245,-171.975,9431.37,-1526.77,-0.987907,-6.62347,1.8211,-1591.01,-9581.65,-1831.42,-7.22044,0.787652,2.48819,7701.85,554.466,5620.2,-5.33517,-53.8466,-2.7955
0.217,5342.48,-3433.47,7119.14,-0.340233,9.26554,-2.09576,4874.2,3522.05,7459.02,-1.23435,7.015,1.75343,1306.12,8962.53,-2485.68,-8.30251,-5.69734,-14.2002,1297.4,-9272.08,-2438.17,1.72829,-1.22008,16.4254,-130.011,9477.73,-1503.84,-1.03634,-6.74659,1.88451,-1585.19,-9535.43,-1831.04,-7.03804,0.923989,2.71153,7702.37,566.706,5627.56,-5.34508,-53.9801,-2.72941
0.218,5330.88,-3436.14,7097.96,-0.154009,9.5198,-2.01683,4889.0,3517.38,7459.08,-1.34909,7.08262,1.61505,1327.69,8949.3,-2494.56,-8.41654,-5.35312,-14.4028,1291.94,-9292.06,-2427.3,1.73645,-1.05221,16.5233,-91.7123,9512.42,-1480.42,-1.0284,-6.85763,2.01307,-1587.25,-9493.45,-1830.01,-6.8672,1.08959,2.91299,7698.18,570.282,5633.17,-5.36204,-54.1425,-2.70351
0.219,5326.58,-3455.98,7109.22,0.0113053,9.75202,-2.12569,4889.79,3497.47,7449.77,-1.44169,7.11765,1.58653,1320.17,8945.04,-2493.62,-8.56626,-5.00463,-14.6862,1297.13,-9315.27,-2423.92,1.73414,-0.926201,16.6111,-66.2456,9506.24,-1455.3,-0.823146,-6.92637,2.36963,-1616.88,-9466.31,-1826.7,-6.73683,1.35759,3.03788,7677.52,543.536,5632.67,-5.40367,-54.4061,-2.81827
0.22,5322.28,-3475.82,7120.48,0.176619,9.98423,-2.23454,4890.58,3477.57,7440.46,-1.5343,7.15269,1.55802,1312.66,8940.78,-2492.68,-8.71597,-4.65613,-14.9696,1302.33,-9338.48,-2420.54,1.73183,-0.800194,16.6989,-40.7789,9500.06,-1430.17,-0.617894,-6.9951,2.7262,-1646.5,-9439.17,-1823.4,-6.60646,1.62559,3.16278,7656.86,516.791,5632.16,-5.4453,-54.6697,-2.93303
0.221,5317.97,-3495.66,7131.73,0.341933,10.2165,-2.3434,4891.37,3457.67,7431.15,-1.6269,7.18772,1.5295,1305.14,8936.51,-2491.74,-8.86568,-4.30764,-15.253,1307.52,-9361.69,-2417.16,1.72951,-0.674187,16.7868,-15.3121,9493.88,-1405.04,-0.412643,-7.06384,3.08277,-1676.12,-9412.03,-1820.09,-6.47609,1.89359,3.28767,7636.2,490.046,5631.65,-5.48693,-54.9333,-3.04779
0.222,5313.67,-3515.49,7142.99,0.507247,10.4487,-2.45226,4892.16,3437.76,7421.83,-1.7195,7.22275,1.50099,1297.63,8932.25,-2490.8,-9.01539,-3.95914,-15.5365,1312.72,-9384.9,-2413.77,1.7272,-0.54818,16.8746,10.1546,9487.7,-1379.91,-0.207392,-7.13258,3.43933,-1705.75,-9384.89,-1816.78,-6.34572,2.16159,3.41257,7615.54,463.3,5631.15,-5.52856,-55.1968,-3.16255
0.223,5334.27,-3493.01,7148.58,0.676638,10.763,-2.41951,4869.07,3447.67,7436.2,-1.71314,7.28967,1.45169,1296.21,8931.14,-2479.41,-9.25779,-3.60245,-15.8255,1315.75,-9376.79,-2421.38,1.6808,-0.391832,17.029,0.863938,9487.93,-1398.72,-0.0587192,-7.1877,3.71944,-1714.76,-9376.53,-1805.25,-6.15044,2.37425,3.58355,7595.77,457.701,5619.37,-5.5562,-55.4705,-3.16127
0.224,5361.99,-3458.44,7152.55,0.847194,11.1008,-2.3463,4839.16,3466.1,7457.33,-1.6785,7.36569,1.39645,1296.53,8930.93,-2465.03,-9.52668,-3.24342,-16.1162,1318.16,-9359.74,-2432.12,1.6218,-0.226815,17.2024,-18.3574,9489.98,-1430.08,0.0737879,-7.23893,3.9777,-1717.88,-9373.55,-1791.36,-5.93661,2.5711,3.7677,7576.25,458.143,5604.36,-5.57984,-55.747,-3.12683
0.225,5389.71,-3423.87,7156.52,1.01775,11.4386,-2.27309,4809.25,3484.53,7478.46,-1.64386,7.44172,1.34121,1296.85,8930.72,-2450.66,-9.79556,-2.88439,-16.4069,1320.57,-9342.68,-2442.86,1.56281,-0.0617987,17.3759,-37.5787,9492.03,-1461.43,0.206295,-7.29016,4.23595,-1721.0,-9370.56,-1777.48,-5.72278,2.76794,3.95185,7556.73,458.586,5589.36,-5.60348,-56.0235,-3.0924
0.226,5417.43,-3389.3,7160.49,1.18831,11.7764,-2.19988,4779.34,3502.96,7499.59,-1.60922,7.51775,1.28598,1297.17,8930.51,-2436.29,-10.0644,-2.52535,-16.6976,1322.98,-9325.63,-2453.6,1.50381,0.103218,17.5493,-56.8,9494.09,-1492.79,0.338802,-7.34139,4.49421,-1724.12,-9367.58,-1763.6,-5.50895,2.96479,4.136,7537.21,459.028,5574.36,-5.62712,-56.3,-3.05796
0.227,5428.34,-3367.33,7166.62,1.41333,12.0815,-2.12122,4753.24,3524.42,7516.93,-1.60501,7.57009,1.21229,1297.41,8927.3,-2420.95,-10.2358,-2.20961,-16.9753,1322.23,-9312.05,-2461.03,1.46448,0.322964,17.7201,-58.0206,9487.63,-1522.82,0.429947,-7.36264,4.71713,-1738.23,-9360.41,-1754.66,-5.34253,3.22782,4.3662,7532.8,453.931,5563.75,-5.64611,-56.5691,-3.03163
0.228,5405.65,-3370.57,7177.06,1.74728,12.3212,-2.03163,4734.78,3551.96,7526.7,-1.66166,7.57504,1.1017,1297.47,8918.07,-2403.7,-10.212,-1.98046,-17.2267,1315.16,-9305.43,-2461.82,1.46448,0.65217,17.8857,-23.2398,9464.13,-1550.18,0.43837,-7.32393,4.86938,-1774.32,-9344.86,-1755.62,-5.27092,3.62321,4.6885,7558.58,437.756,5561.93,-5.65581,-56.8233,-3.0215
0.229,5382.95,-3373.82,7187.5,2.08123,12.5609,-1.94204,4716.33,3579.51,7536.46,-1.7183,7.57998,0.991113,1297.53,8908.84,-2386.44,-10.1883,-1.7513,-17.4781,1308.09,-9298.81,-2462.61,1.46448,0.981376,18.0513,11.5411,9440.64,-1577.54,0.446792,-7.28521,5.02163,-1810.4,-9329.32,-1756.58,-5.19931,4.01859,5.01081,7584.37,421.58,5560.12,-5.66551,-57.0775,-3.01137
0.23,5360.26,-3377.06,7197.93,2.41519,12.8006,-1.85245,4697.87,3607.05,7546.22,-1.77495,7.58493,0.880525,1297.59,8899.61,-2369.19,-10.1645,-1.52214,-17.7295,1301.02,-9292.2,-2463.4,1.46448,1.31058,18.2169,46.3219,9417.14,-1604.9,0.455215,-7.2465,5.17389,-1846.49,-9313.77,-1757.55,-5.12771,4.41398,5.33311,7610.16,405.404,5558.3,-5.67521,-57.3317,-3.00124
0.231,5337.56,-3380.3,7208.37,2.74914,13.0403,-1.76286,4679.41,3634.59,7555.98,-1.83159,7.58988,0.769938,1297.65,8890.38,-2351.93,-10.1408,-1.29299,-17.981,1293.95,-9285.58,-2464.19,1.46448,1.63979,18.3824,81.1028,9393.65,-1632.25,0.463637,-7.20778,5.32614,-1882.57,-9298.23,-1758.51,-5.0561,4.80937,5.65541,7635.95,389.228,5556.49,-5.68491,-57.5859,-2.99111
0.232,5307.11,-3405.01,7216.98,3.00025,13.2151,-1.82668,4671.87,3634.69,7545.38,-1.89745,7.54318,0.728665,1300.41,8897.21,-2375.01,-10.2535,-1.08241,-18.3592,1287.16,-9303.0,-2459.43,1.47535,2.06145,18.519,80.0833,9394.56,-1645.23,0.599919,-7.21289,5.46827,-1915.2,-9288.16,-1778.23,-4.92329,5.20526,5.94731,7650.7,393.45,5542.0,-5.72239,-57.9357,-2.9796
0.233,5275.69,-3432.39,7225.35,3.24099,13.3818,-1.90967,4665.7,3631.36,7532.23,-1.96446,7.49002,0.696056,1303.52,8906.05,-2403.13,-10.3833,-0.874161,-18.7532,1280.4,-9323.44,-2453.98,1.48758,2.49467,18.6519,74.5887,9398.52,-1656.41,0.752184,-7.22348,5.60913,-1947.4,-9278.78,-1800.3,-4.78283,5.60121,6.23541,7664.07,400.222,5525.93,-5.76333,-58.2975,-2.96792
0.234,5244.27,-3459.78,7233.73,3.48174,13.5485,-1.99267,4659.53,3628.02,7519.09,-2.03147,7.43686,0.663448,1306.62,8914.89,-2431.25,-10.5131,-0.665908,-19.1473,1273.64,-9343.87,-2448.52,1.49981,2.92789,18.7848,69.0942,9402.48,-1667.59,0.904448,-7.23407,5.74999,-1979.6,-9269.39,-1822.37,-4.64237,5.99717,6.52351,7677.45,406.994,5509.86,-5.80428,-58.6593,-2.95624
0.235,5212.85,-3487.16,7242.1,3.72249,13.7152,-2.07566,4653.36,3624.69,7505.94,-2.09847,7.3837,0.630839,1309.72,8923.73,-2459.37,-10.6428,-0.457655,-19.5413,1266.89,-9364.3,-2443.07,1.51204,3.36111,18.9178,63.5996,9406.44,-1678.77,1.05671,-7.24465,5.89086,-2011.8,-9260.01,-1844.44,-4.50191,6.39312,6.81161,7690.82,413.765,5493.8,-5.84523,-59.0211,-2.94457
0.236,5209.59,-3503.18,7255.43,4.01899,13.922,-2.11628,4662.77,3614.19,7502.95,-2.16477,7.37325,0.59919,1313.36,8929.74,-2476.46,-10.7706,-0.14931,-19.9091,1258.57,-9377.5,-2444.77,1.49438,3.80953,19.0674,57.0378,9406.65,-1692.81,1.12,-7.22386,5.95559,-2034.7,-9266.65,-1863.41,-4.33564,6.71586,7.10276,7703.27,411.83,5478.12,-5.85119,-59.3029,-2.93215
0.237,5241.52,-3504.98,7274.93,4.38517,14.1789,-2.10391,4691.64,3594.74,7512.65,-2.23019,7.41617,0.568741,1317.66,8932.21,-2479.76,-10.8957,0.28415,-20.244,1248.29,-9381.64,-2455.43,1.43936,4.27697,19.2378,49.1419,9402.15,-1710.41,1.07207,-7.16384,5.92517,-2045.99,-9293.33,-1878.51,-4.1371,6.94707,7.39771,7714.57,399.01,5462.93,-5.81342,-59.4845,-2.91879
0.238,5273.44,-3506.78,7294.44,4.75134,14.4358,-2.09155,4720.52,3575.29,7522.34,-2.29561,7.4591,0.538291,1321.96,8934.69,-2483.06,-11.0208,0.717611,-20.5789,1238.02,-9385.78,-2466.09,1.38433,4.7444,19.4083,41.2459,9397.66,-1728.0,1.02414,-7.10381,5.89475,-2057.27,-9320.0,-1893.61,-3.93856,7.17829,7.69267,7725.88,386.19,5447.74,-5.77565,-59.6661,-2.90544
0.239,5305.37,-3508.58,7313.94,5.11752,14.6927,-2.07919,4749.39,3555.83,7532.04,-2.36103,7.50202,0.507841,1326.26,8937.16,-2486.36,-11.1459,1.15107,-20.9138,1227.74,-9389.93,-2476.75,1.32931,5.21183,19.5788,33.35,9393.16,-1745.6,0.976207,-7.04379,5.86432,-2068.55,-9346.67,-1908.71,-3.74001,7.40951,7.98763,7737.18,373.37,5432.55,-5.73787,-59.8477,-2.89209
0.24,5337.3,-3510.38,7333.45,5.4837,14.9496,-2.06683,4778.26,3536.38,7541.74,-2.42644,7.54494,0.477392,1330.56,8939.64,-2489.66,-11.271,1.58453,-21.2487,1217.47,-9394.07,-2487.41,1.27428,5.67927,19.7492,25.4541,9388.67,-1763.2,0.928275,-6.98377,5.8339,-2079.84,-9373.34,-1923.81,-3.54147,7.64072,8.28259,7748.48,360.549,5417.36,-5.7001,-60.0294,-2.87874
0.241,5329.25,-3557.32,7333.02,5.69362,15.0384,-2.17874,4803.25,3516.09,7543.4,-2.49937,7.59941,0.482957,1339.11,8974.4,-2499.19,-11.3152,2.10777,-21.6077,1194.64,-9411.29,-2493.21,1.23346,6.01361,19.7761,-1.61817,9355.48,-1798.47,1.15461,-6.64159,5.92634,-2120.72,-9393.03,-1942.18,-3.41728,7.95053,8.4838,7752.84,375.879,5394.63,-5.85801,-60.1671,-2.87144
0.242,5321.2,-3604.27,7332.59,5.90354,15.1272,-2.29065,4828.24,3495.8,7545.06,-2.57229,7.65388,0.488522,1347.66,9009.16,-2508.72,-11.3593,2.63101,-21.9666,1171.8,-9428.51,-2499.01,1.19264,6.34796,19.8029,-28.6904,9322.29,-1833.75,1.38095,-6.2994,6.01877,-2161.61,-9412.72,-1960.54,-3.29309,8.26033,8.68501,7757.2,391.209,5371.9,-6.01591,-60.3048,-2.86414
0.243,5313.15,-3651.22,7332.15,6.11346,15.2159,-2.40255,4853.23,3475.51,7546.72,-2.64522,7.70835,0.494088,1356.21,9043.92,-2518.25,-11.4035,3.15424,-22.3255,1148.97,-9445.73,-2504.81,1.15181,6.68231,19.8297,-55.7627,9289.11,-1869.02,1.60728,-5.95722,6.11121,-2202.5,-9432.4,-1978.91,-3.1689,8.57014,8.88622,7761.55,406.538,5349.18,-6.17382,-60.4424,-2.85684
0.244,5305.09,-3698.16,7331.72,6.32338,15.3047,-2.51446,4878.22,3455.23,7548.38,-2.71814,7.76283,0.499653,1364.75,9078.68,-2527.78,-11.4477,3.67748,-22.6845,1126.13,-9462.94,-2510.61,1.11099,7.01665,19.8565,-82.8349,9255.92,-1904.29,1.83362,-5.61504,6.20365,-2243.39,-9452.09,-1997.28,-3.04471,8.87995,9.08742,7765.91,421.868,5326.45,-6.33173,-60.5801,-2.84954
0.245,5307.98,-3719.71,7344.83,6.54552,15.3177,-2.67315,4884.31,3451.86,7545.8,-2.70754,7.78509,0.435665,1388.1,9111.69,-2544.52,-11.4454,4.23221,-23.0289,1118.08,-9476.71,-2520.8,1.10487,7.21569,19.8602,-110.0,9248.41,-1935.11,1.91238,-5.09266,6.07238,-2288.27,-9460.5,-2004.28,-2.99368,9.13214,9.20751,7774.23,436.43,5309.02,-6.4154,-60.7372,-2.76631
0.246,5319.61,-3720.93,7368.77,6.77742,15.2702,-2.86926,4875.29,3462.03,7539.83,-2.63013,7.78159,0.316033,1423.29,9143.29,-2567.01,-11.4058,4.81213,-23.3617,1121.84,-9487.72,-2534.51,1.12651,7.30648,19.8453,-137.238,9261.44,-1962.36,1.87309,-4.42612,5.76214,-2336.34,-9459.88,-2002.19,-3.00119,9.33824,9.26269,7785.73,450.378,5295.81,-6.4397,-60.9099,-2.62234
0.247,5331.24,-3722.15,7392.71,7.00933,15.2227,-3.06537,4866.27,3472.21,7533.86,-2.55271,7.77808,0.196402,1458.47,9174.88,-2589.5,-11.3663,5.39205,-23.6945,1125.6,-9498.73,-2548.22,1.14815,7.39728,19.8305,-164.477,9274.48,-1989.61,1.8338,-3.75959,5.45189,-2384.42,-9459.26,-2000.1,-3.00869,9.54433,9.31787,7797.23,464.326,5282.61,-6.46399,-61.0825,-2.47836
0.248,5342.87,-3723.37,7416.65,7.24123,15.1752,-3.26149,4857.25,3482.38,7527.89,-2.47529,7.77458,0.0767704,1493.65,9206.48,-2611.99,-11.3268,5.97197,-24.0273,1129.36,-9509.74,-2561.92,1.16979,7.48807,19.8156,-191.715,9287.51,-2016.86,1.79451,-3.09305,5.14165,-2432.5,-9458.64,-1998.01,-3.0162,9.75043,9.37306,7808.73,478.273,5269.41,-6.48828,-61.2552,-2.33439
0.249,5351.34,-3721.66,7439.52,7.4776,15.1311,-3.4466,4847.71,3494.98,7523.58,-2.39733,7.766,-0.0466273,1522.74,9239.85,-2632.5,-11.2901,6.58078,-24.348,1132.48,-9520.44,-2574.3,1.18676,7.57402,19.8046,-220.239,9300.53,-2042.89,1.77552,-2.39125,4.82436,-2475.47,-9457.5,-1996.14,-3.01683,9.95652,9.42816,7821.0,493.481,5256.78,-6.50834,-61.4155,-2.19602
0.25,5334.51,-3696.54,7453.75,7.74969,15.114,-3.54369,4834.02,3527.03,7532.56,-2.31505,7.71683,-0.200155,1503.02,9287.37,-2637.14,-11.2758,7.42074,-24.5712,1130.44,-9528.66,-2576.09,1.16636,7.62122,19.8242,-259.042,9313.47,-2059.18,1.91897,-1.40729,4.45065,-2477.64,-9452.25,-1996.04,-2.96245,10.1625,9.48259,7839.43,518.764,5248.75,-6.49446,-61.4774,-2.1025
0.251,5317.68,-3671.42,7467.98,8.02178,15.0969,-3.64078,4820.34,3559.09,7541.54,-2.23277,7.66765,-0.353682,1483.29,9334.89,-2641.79,-11.2615,8.26069,-24.7944,1128.4,-9536.89,-2577.88,1.14596,7.66842,19.8438,-297.846,9326.4,-2075.47,2.06242,-0.423327,4.07694,-2479.82,-9446.99,-1995.94,-2.90807,10.3685,9.53702,7857.86,544.047,5240.72,-6.48058,-61.5392,-2.00898
0.252,5300.85,-3646.3,7482.22,8.29386,15.0798,-3.73788,4806.65,3591.14,7550.52,-2.15048,7.61847,-0.507209,1463.57,9382.42,-2646.43,-11.2472,9.10065,-25.0176,1126.36,-9545.11,-2579.67,1.12556,7.71562,19.8634,-336.65,9339.34,-2091.76,2.20587,0.560632,3.70323,-2481.99,-9441.73,-1995.85,-2.85369,10.5745,9.59145,7876.29,569.33,5232.7,-6.4667,-61.6011,-1.91546
0.253,5284.02,-3621.18,7496.45,8.56595,15.0628,-3.83497,4792.96,3623.19,7559.5,-2.0682,7.5693,-0.660736,1443.85,9429.94,-2651.07,-11.2329,9.94061,-25.2408,1124.32,-9553.34,-2581.46,1.10516,7.76282,19.883,-375.453,9352.27,-2108.06,2.34932,1.54459,3.32952,-2484.16,-9436.48,-1995.75,-2.79931,10.7805,9.64589,7894.72,594.613,5224.67,-6.45283,-61.663,-1.82194
0.254,5286.79,-3593.43,7504.73,8.74637,14.9634,-3.844,4780.26,3657.26,7572.55,-2.0832,7.56246,-0.708618,1434.29,9452.5,-2626.79,-11.2373,10.7285,-25.4354,1116.12,-9561.6,-2585.73,1.08342,7.69949,19.846,-407.05,9367.49,-2123.34,2.49707,2.44285,2.94485,-2488.62,-9439.71,-1992.5,-2.83144,10.9642,9.7262,7906.19,603.521,5231.91,-6.42044,-61.7946,-1.79078
0.255,5299.37,-3564.36,7510.04,8.88095,14.8228,-3.809,4768.04,3692.33,7587.63,-2.14683,7.5768,-0.703676,1429.81,9462.59,-2588.05,-11.2509,11.4903,-25.6157,1104.84,-9569.87,-2591.23,1.061,7.58088,19.7806,-435.044,9383.85,-2138.13,2.64697,3.29825,2.55469,-2494.22,-9447.18,-1987.67,-2.90684,11.1369,9.81947,7914.18,604.24,5246.79,-6.37879,-61.9611,-1.7908
0.256,5311.95,-3535.3,7515.35,9.01554,14.6822,-3.774,4755.83,3727.41,7602.72,-2.21047,7.59114,-0.698734,1425.33,9472.67,-2549.31,-11.2645,12.2522,-25.7959,1093.56,-9578.15,-2596.73,1.03859,7.46228,19.7152,-463.038,9400.21,-2152.92,2.79686,4.15365,2.16452,-2499.83,-9454.66,-1982.84,-2.98223,11.3095,9.91273,7922.18,604.96,5261.67,-6.33714,-62.1275,-1.79082
0.257,5324.52,-3506.23,7520.66,9.15013,14.5417,-3.73901,4743.62,3762.48,7617.81,-2.2741,7.60547,-0.693792,1420.86,9482.76,-2510.57,-11.2781,13.014,-25.9762,1082.29,-9586.43,-2602.24,1.01617,7.34367,19.6499,-491.032,9416.57,-2167.7,2.94676,5.00905,1.77436,-2505.43,-9462.13,-1978.02,-3.05762,11.4821,10.006,7930.17,605.68,5276.55,-6.29549,-62.294,-1.79083
0.258,5331.84,-3479.79,7534.87,9.24166,14.3719,-3.71806,4732.76,3790.57,7630.62,-2.31632,7.59704,-0.656237,1415.44,9500.72,-2475.84,-11.2949,13.7235,-26.162,1076.13,-9595.49,-2610.62,0.987683,7.23573,19.5824,-525.089,9440.7,-2179.03,3.01095,5.85166,1.3605,-2516.78,-9465.91,-1975.2,-3.15132,11.658,10.0845,7940.96,601.951,5290.81,-6.23408,-62.4383,-1.80212
0.259,5320.76,-3462.51,7580.25,9.18248,14.1,-3.74631,4726.66,3794.2,7635.49,-2.2836,7.50893,-0.504533,1406.72,9546.22,-2455.15,-11.3229,14.2497,-26.3672,1087.88,-9607.32,-2629.06,0.937937,7.16509,19.5077,-580.366,9492.06,-2178.25,2.77516,6.64951,0.863699,-2548.26,-9456.76,-1979.43,-3.30911,11.8452,10.1111,7961.54,582.654,5302.93,-6.10351,-62.5052,-1.85285
0.26,5309.67,-3445.23,7625.63,9.1233,13.828,-3.77456,4720.56,3797.84,7640.35,-2.25088,7.42081,-0.352828,1398.01,9591.72,-2434.46,-11.3509,14.7758,-26.5725,1099.63,-9619.15,-2647.51,0.888192,7.09445,19.4329,-635.643,9543.42,-2177.48,2.53936,7.44735,0.366895,-2579.74,-9447.6,-1983.66,-3.46689,12.0324,10.1378,7982.12,563.357,5315.05,-5.97294,-62.572,-1.90359
0.261,5298.59,-3427.96,7671.01,9.06412,13.556,-3.80281,4714.46,3801.47,7645.22,-2.21816,7.33269,-0.201124,1389.3,9637.23,-2413.77,-11.3789,15.302,-26.7777,1111.39,-9630.98,-2665.95,0.838447,7.02382,19.3581,-690.92,9594.79,-2176.7,2.30357,8.2452,-0.129909,-2611.22,-9438.44,-1987.89,-3.62468,12.2197,10.1644,8002.71,544.06,5327.17,-5.84237,-62.6389,-1.95432
0.262,5287.5,-3410.68,7716.39,9.00494,13.2841,-3.83105,4708.36,3805.11,7650.09,-2.18544,7.24457,-0.0494198,1380.59,9682.73,-2393.08,-11.4069,15.8282,-26.9829,1123.14,-9642.8,-2684.4,0.788701,6.95318,19.2833,-746.197,9646.14,-2175.93,2.06777,9.04304,-0.626714,-2642.7,-9429.29,-1992.12,-3.78246,12.4069,10.1911,8023.29,524.763,5339.29,-5.7118,-62.7058,-2.00505
0.263,5259.64,-3389.75,7751.92,8.84987,13.0635,-3.70189,4715.29,3794.27,7648.02,-2.19637,7.06341,0.0617906,1369.16,9718.26,-2367.86,-11.4679,16.3701,-26.9537,1131.46,-9670.24,-2689.57,0.771489,6.98885,19.2668,-801.011,9658.58,-2164.54,1.93957,9.65546,-0.859646,-2669.77,-9428.02,-1997.68,-3.91371,12.4335,10.2632,8040.98,518.614,5340.65,-5.5738,-62.8028,-2.04487
0.264,5226.98,-3367.78,7784.64,8.6674,12.8576,-3.52775,4725.95,3779.31,7643.96,-2.21976,6.85567,0.161431,1356.96,9750.94,-2341.34,-11.5384,16.9166,-26.8575,1138.8,-9702.13,-2690.96,0.763571,7.05489,19.2669,-855.694,9659.88,-2150.13,1.8421,10.2149,-1.01719,-2695.58,-9429.0,-2003.62,-4.03737,12.4142,10.3484,8057.84,516.223,5338.93,-5.43369,-62.9085,-2.08158
0.265,5194.33,-3345.81,7817.36,8.48493,12.6516,-3.35362,4736.6,3764.34,7639.91,-2.24316,6.64793,0.261072,1344.76,9783.62,-2314.81,-11.6089,17.463,-26.7613,1146.14,-9734.02,-2692.35,0.755654,7.12094,19.267,-910.376,9661.19,-2135.71,1.74463,10.7743,-1.17473,-2721.38,-9429.99,-2009.56,-4.16104,12.395,10.4335,8074.7,513.831,5337.22,-5.29357,-63.0141,-2.11828
0.266,5161.67,-3323.84,7850.08,8.30246,12.4457,-3.17948,4747.26,3749.37,7635.85,-2.26656,6.44019,0.360713,1332.56,9816.3,-2288.29,-11.6794,18.0094,-26.665,1153.49,-9765.91,-2693.73,0.747736,7.18698,19.2671,-965.059,9662.5,-2121.3,1.64716,11.3338,-1.33227,-2747.19,-9430.97,-2015.51,-4.28471,12.3757,10.5187,8091.56,511.439,5335.5,-5.15345,-63.1198,-2.15499
0.267,5127.6,-3303.83,7886.13,8.14148,12.194,-3.00214,4753.73,3739.62,7635.16,-2.30321,6.25947,0.42714,1315.13,9850.5,-2274.56,-11.7766,18.4059,-26.5824,1154.73,-9795.04,-2697.0,0.760077,7.25902,19.2673,-1021.37,9647.76,-2112.04,1.61454,11.9687,-1.53254,-2766.0,-9435.84,-2018.45,-4.41345,12.2852,10.6323,8106.88,512.043,5324.31,-5.01912,-63.192,-2.16167
0.268,5090.71,-3287.76,7928.84,8.02349,11.8506,-2.81839,4751.85,3740.28,7641.18,-2.36636,6.13281,0.42714,1287.22,9887.73,-2286.42,-11.9272,18.5025,-26.5271,1143.79,-9818.63,-2704.01,0.812935,7.34302,19.2679,-1080.94,9600.94,-2113.11,1.71163,12.7546,-1.81828,-2770.82,-9448.47,-2015.4,-4.55235,12.0521,10.8031,8119.11,518.639,5294.17,-4.89636,-63.1973,-2.1083
0.269,5053.81,-3271.68,7971.55,7.9055,11.5073,-2.63463,4749.96,3740.94,7647.19,-2.42951,6.00615,0.42714,1259.32,9924.96,-2298.27,-12.0778,18.599,-26.4717,1132.85,-9842.22,-2711.03,0.865794,7.42702,19.2685,-1140.52,9554.11,-2114.18,1.80871,13.5405,-2.10402,-2775.64,-9461.1,-2012.35,-4.69125,11.819,10.9739,8131.34,525.234,5264.04,-4.7736,-63.2027,-2.05492
0.27,5016.92,-3255.61,8014.26,7.78751,11.1639,-2.45088,4748.08,3741.61,7653.21,-2.49267,5.87949,0.42714,1231.42,9962.19,-2310.13,-12.2284,18.6956,-26.4164,1121.91,-9865.81,-2718.05,0.918652,7.51103,19.2691,-1200.09,9507.28,-2115.26,1.90579,14.3265,-2.38976,-2780.46,-9473.74,-2009.29,-4.83015,11.586,11.1446,8143.57,531.83,5233.91,-4.65084,-63.208,-2.00155
0.271,4980.02,-3239.54,8056.96,7.66952,10.8206,-2.26713,4746.19,3742.27,7659.23,-2.55582,5.75283,0.42714,1203.51,9999.42,-2321.98,-12.379,18.7921,-26.361,1110.97,-9889.4,-2725.06,0.97151,7.59503,19.2696,-1259.66,9460.46,-2116.33,2.00287,15.1124,-2.6755,-2785.27,-9486.37,-2006.24,-4.96905,11.3529,11.3154,8155.79,538.425,5203.77,-4.52808,-63.2134,-1.94817
0.272,4940.43,-3247.0,8060.25,7.38546,10.3954,-2.22328,4740.68,3730.35,7662.13,-2.46776,5.69183,0.42714,1188.2,9969.66,-2292.54,-12.4696,18.8801,-26.2983,1094.45,-9896.25,-2723.35,1.01679,7.60298,19.1992,-1331.3,9469.58,-2120.75,2.02012,15.688,-2.87328,-2796.87,-9497.12,-1995.61,-5.11967,11.0097,11.269,8165.66,521.426,5187.95,-4.37748,-63.2199,-1.81593
0.273,4900.51,-3257.42,8058.6,7.08064,9.96007,-2.19693,4734.71,3716.85,7664.63,-2.36079,5.63904,0.42714,1174.45,9931.53,-2257.95,-12.5526,18.9671,-26.2346,1077.24,-9901.01,-2720.54,1.06112,7.60141,19.1198,-1404.45,9485.7,-2125.58,2.02739,16.2373,-3.06005,-2809.31,-9507.63,-1984.02,-5.27176,10.6528,11.1955,8175.22,501.477,5173.91,-4.22339,-63.2265,-1.67384
0.274,4860.59,-3267.83,8056.96,6.77582,9.52472,-2.17057,4728.74,3703.36,7667.14,-2.25383,5.58625,0.42714,1160.71,9893.4,-2223.35,-12.6356,19.0541,-26.171,1060.03,-9905.77,-2717.73,1.10546,7.59985,19.0405,-1477.59,9501.81,-2130.42,2.03466,16.7866,-3.24683,-2821.75,-9518.15,-1972.44,-5.42385,10.2959,11.122,8184.79,481.528,5159.88,-4.06931,-63.2332,-1.53174
0.275,4820.67,-3278.24,8055.32,6.47099,9.08937,-2.14422,4722.76,3689.86,7669.65,-2.14686,5.53346,0.42714,1146.97,9855.27,-2188.75,-12.7187,19.141,-26.1074,1042.81,-9910.53,-2714.92,1.14979,7.59829,18.9611,-1550.74,9517.93,-2135.26,2.04193,17.3359,-3.43361,-2834.19,-9528.66,-1960.86,-5.57594,9.93896,11.0485,8194.35,461.579,5145.85,-3.91522,-63.2398,-1.38964
0.276,4805.96,-3285.96,8043.65,6.17741,8.66341,-2.19466,4724.3,3670.87,7661.35,-2.02597,5.45969,0.43085,1136.77,9845.17,-2184.74,-12.7954,19.276,-25.9347,1031.23,-9901.84,-2705.11,1.16725,7.56076,18.8712,-1622.86,9538.77,-2129.18,2.068,17.8318,-3.70564,-2849.33,-9545.33,-1943.25,-5.76153,9.53712,10.9232,8213.25,457.304,5132.38,-3.83957,-63.2291,-1.26457
0.277,4822.75,-3290.31,8019.46,5.89787,8.2492,-2.34109,4735.21,3645.01,7639.53,-1.88767,5.35971,0.439198,1131.0,9870.11,-2218.96,-12.8643,19.4711,-25.6256,1026.7,-9876.32,-2686.55,1.15111,7.47827,18.768,-1693.71,9565.53,-2109.45,2.11758,18.2608,-4.08422,-2867.84,-9569.69,-1918.09,-5.989,9.07913,10.7332,8243.81,472.622,5119.61,-3.86196,-63.1968,-1.16078
0.278,4839.55,-3294.67,7995.26,5.61833,7.83499,-2.48752,4746.12,3619.15,7617.72,-1.74937,5.25973,0.447546,1125.24,9895.04,-2253.19,-12.9331,19.6661,-25.3166,1022.16,-9850.81,-2667.99,1.13497,7.39578,18.6648,-1764.56,9592.28,-2089.73,2.16716,18.6899,-4.46281,-2886.34,-9594.05,-1892.94,-6.21647,8.62114,10.5432,8274.38,487.94,5106.85,-3.88435,-63.1644,-1.05699
0.279,4856.35,-3299.02,7971.06,5.33879,7.42078,-2.63395,4757.04,3593.29,7595.91,-1.61106,5.15974,0.455894,1119.47,9919.98,-2287.42,-13.002,19.8611,-25.0076,1017.63,-9825.3,-2649.43,1.11883,7.3133,18.5617,-1835.41,9619.03,-2070.0,2.21673,19.119,-4.84139,-2904.85,-9618.41,-1867.79,-6.44394,8.16315,10.3532,8304.94,503.258,5094.08,-3.90674,-63.132,-0.953193
0.28,4873.14,-3303.37,7946.87,5.05926,7.00657,-2.78038,4767.95,3567.43,7574.1,-1.47276,5.05976,0.464242,1113.7,9944.91,-2321.65,-13.0708,20.0562,-24.6986,1013.09,-9799.78,-2630.87,1.10269,7.23081,18.4585,-1906.26,9645.78,-2050.27,2.26631,19.5481,-5.21998,-2923.36,-9642.77,-1842.64,-6.67141,7.70516,10.1633,8335.5,518.577,5081.32,-3.92912,-63.0996,-0.849401
0.281,4900.97,-3305.03,7912.07,4.7678,6.59885,-2.74013,4783.35,3554.4,7572.06,-1.3535,4.98054,0.48656,1021.28,9967.93,-2290.1,-12.7966,19.935,-24.609,961.077,-9793.74,-2625.38,1.17898,7.03271,18.3696,-1989.02,9657.45,-2035.03,2.23527,19.9384,-5.37631,-2927.15,-9681.97,-1810.98,-6.9147,7.08769,10.0107,8363.16,524.067,5072.04,-3.88788,-63.1587,-0.63593
0.282,4928.8,-3306.68,7877.26,4.47635,6.19114,-2.69988,4798.74,3541.36,7570.03,-1.23423,4.90132,0.508877,928.859,9990.95,-2258.55,-12.5225,19.8138,-24.5194,909.062,-9787.69,-2619.88,1.25527,6.83461,18.2807,-2071.78,9669.11,-2019.79,2.20422,20.3287,-5.53264,-2930.95,-9721.17,-1779.33,-7.15798,6.47021,9.85816,8390.82,529.556,5062.77,-3.84663,-63.2178,-0.422458
0.283,4956.63,-3308.34,7842.46,4.1849,5.78342,-2.65963,4814.14,3528.33,7567.99,-1.11497,4.8221,0.531195,836.439,10014.0,-2227.01,-12.2483,19.6926,-24.4298,857.046,-9781.64,-2614.39,1.33156,6.63652,18.1918,-2154.54,9680.77,-2004.55,2.17317,20.719,-5.68897,-2934.74,-9760.37,-1747.67,-7.40126,5.85273,9.7056,8418.47,535.046,5053.49,-3.80539,-63.277,-0.208987
0.284,4984.46,-3309.99,7807.66,3.89345,5.3757,-2.61938,4829.53,3515.29,7565.95,-0.995706,4.74288,0.553512,744.019,10037.0,-2195.46,-11.9741,19.5714,-24.3402,805.031,-9775.59,-2608.89,1.40785,6.43842,18.1029,-2237.31,9692.43,-1989.31,2.14213,21.1093,-5.8453,-2938.53,-9799.58,-1716.01,-7.64455,5.23526,9.55305,8446.13,540.536,5044.21,-3.76414,-63.3361,0.00448407
0.285,5033.37,-3306.35,7783.63,3.76706,5.07802,-2.55706,4823.26,3517.71,7575.83,-0.945019,4.66551,0.574048,663.621,10049.7,-2163.18,-11.7408,19.327,-24.1752,780.664,-9755.72,-2605.22,1.4831,6.18954,18.0583,-2306.26,9706.76,-1971.21,1.98837,21.3583,-6.0016,-2933.65,-9829.45,-1706.17,-7.88036,4.61502,9.34985,8474.64,535.128,5036.94,-3.69844,-63.3401,0.23326
0.286,5099.14,-3298.48,7768.22,3.77271,4.86836,-2.47711,4799.65,3532.49,7595.24,-0.949193,4.58961,0.593159,592.84,10054.3,-2130.29,-11.54,18.9842,-23.95,778.415,-9724.78,-2603.01,1.55751,5.90005,18.0493,-2364.17,9723.22,-1950.84,1.73644,21.4943,-6.15786,-2921.83,-9851.87,-1713.78,-8.1102,3.99259,9.10612,8503.85,521.002,5031.28,-3.61316,-63.3001,0.47428
0.287,5164.91,-3290.6,7752.81,3.77837,4.6587,-2.39715,4776.03,3547.28,7614.65,-0.953367,4.51371,0.61227,522.06,10058.8,-2097.41,-11.3392,18.6413,-23.7247,776.166,-9693.85,-2600.79,1.63192,5.61055,18.0403,-2422.08,9739.68,-1930.47,1.48451,21.6302,-6.31412,-2910.0,-9874.29,-1721.39,-8.34004,3.37015,8.8624,8533.05,506.876,5025.62,-3.52789,-63.2601,0.715301
0.288,5230.68,-3282.72,7737.4,3.78402,4.44904,-2.31719,4752.42,3562.06,7634.06,-0.957541,4.43781,0.631381,451.279,10063.3,-2064.53,-11.1385,18.2985,-23.4995,773.917,-9662.91,-2598.58,1.70634,5.32105,18.0312,-2479.99,9756.14,-1910.1,1.23259,21.7662,-6.47039,-2898.18,-9896.71,-1728.99,-8.56987,2.74771,8.61867,8562.25,492.749,5019.95,-3.44261,-63.2201,0.956321
0.289,5296.16,-3274.16,7724.9,3.77747,4.24691,-2.23765,4730.34,3577.77,7650.12,-0.965647,4.36247,0.655713,384.511,10066.2,-2031.3,-10.9742,17.9344,-23.2677,774.302,-9632.58,-2597.04,1.79108,5.03057,18.0166,-2533.57,9772.11,-1889.91,0.997245,21.88,-6.60633,-2883.59,-9914.69,-1738.43,-8.78179,2.15328,8.36553,8590.38,478.059,5015.67,-3.36244,-63.1926,1.18853
0.29,5359.39,-3260.1,7735.71,3.67332,4.10501,-2.16147,4720.51,3600.84,7639.33,-1.0052,4.29165,0.721809,349.853,10055.6,-1995.29,-11.1019,17.4006,-22.9841,795.768,-9607.08,-2600.97,1.95842,4.73219,17.9579,-2552.57,9784.16,-1871.19,0.89461,21.8161,-6.57969,-2846.87,-9897.18,-1762.52,-8.85033,1.78291,8.03707,8609.93,458.86,5022.39,-3.32307,-63.2642,1.35022
0.291,5422.61,-3246.04,7746.53,3.56918,3.96312,-2.08529,4710.68,3623.91,7628.55,-1.04476,4.22083,0.787906,315.195,10045.0,-1959.27,-11.2296,16.8668,-22.7005,817.234,-9581.58,-2604.9,2.12577,4.43382,17.8991,-2571.56,9796.21,-1852.48,0.791976,21.7522,-6.55305,-2810.15,-9879.67,-1786.61,-8.91886,1.41254,7.70862,8629.48,439.661,5029.1,-3.28371,-63.3358,1.51192
0.292,5485.83,-3231.98,7757.34,3.46503,3.82122,-2.00911,4700.85,3646.98,7617.77,-1.08432,4.15,0.854003,280.537,10034.4,-1923.25,-11.3574,16.3331,-22.4168,838.7,-9556.09,-2608.83,2.29312,4.13544,17.8403,-2590.56,9808.26,-1833.76,0.689341,21.6883,-6.52641,-2773.43,-9862.16,-1810.7,-8.9874,1.04217,7.38017,8649.04,420.462,5035.82,-3.24434,-63.4075,1.67362
0.293,5549.06,-3217.92,7768.15,3.36088,3.67932,-1.93294,4691.01,3670.05,7606.98,-1.12388,4.07918,0.9201,245.879,10023.8,-1887.23,-11.4851,15.7993,-22.1332,860.166,-9530.59,-2612.76,2.46046,3.83707,17.7815,-2609.56,9820.31,-1815.04,0.586706,21.6244,-6.49977,-2736.71,-9844.65,-1834.79,-9.05593,0.671793,7.05172,8668.59,401.263,5042.54,-3.20497,-63.4791,1.83532
0.294,5559.22,-3199.23,7754.34,3.25647,3.53335,-1.82386,4692.93,3686.88,7602.3,-1.18749,4.04807,1.00676,233.036,10016.2,-1871.81,-11.3787,15.1766,-21.9168,865.434,-9523.15,-2618.67,2.54002,3.65395,17.7957,-2623.79,9812.95,-1778.93,0.320006,21.4085,-6.30531,-2714.66,-9832.05,-1859.62,-9.03429,0.397051,6.6577,8674.9,385.835,5042.41,-3.18263,-63.5599,1.99764
0.295,5542.85,-3178.23,7728.22,3.15192,3.38534,-1.69834,4700.73,3700.61,7600.66,-1.26314,4.03681,1.10371,231.099,10010.0,-1866.68,-11.1553,14.5094,-21.7339,862.603,-9524.75,-2625.59,2.57568,3.52846,17.8464,-2635.63,9795.88,-1734.12,-0.0287271,21.1166,-6.02693,-2699.94,-9821.92,-1884.82,-8.96754,0.170124,6.23089,8674.58,372.293,5038.85,-3.1688,-63.6451,2.16027
0.296,5526.48,-3157.23,7702.09,3.04738,3.23732,-1.57282,4708.53,3714.33,7599.03,-1.33878,4.02555,1.20065,229.163,10003.7,-1861.56,-10.9318,13.8422,-21.551,859.771,-9526.35,-2632.5,2.61134,3.40296,17.8971,-2647.48,9778.81,-1689.31,-0.37746,20.8247,-5.74855,-2685.22,-9811.79,-1910.02,-8.9008,-0.0568027,5.80409,8674.27,358.751,5035.29,-3.15497,-63.7304,2.3229
0.297,5510.11,-3136.23,7675.97,2.94283,3.08931,-1.4473,4716.33,3728.05,7597.4,-1.41442,4.01429,1.2976,227.227,9997.54,-1856.43,-10.7084,13.175,-21.3682,856.94,-9527.94,-2639.41,2.64701,3.27747,17.9478,-2659.32,9761.74,-1644.5,-0.726193,20.5328,-5.47017,-2670.5,-9801.65,-1935.22,-8.83406,-0.28373,5.37728,8673.95,345.209,5031.74,-3.14114,-63.8157,2.48553
0.298,5487.03,-3123.8,7651.58,2.83685,2.96536,-1.30754,4725.16,3740.12,7595.36,-1.4601,4.00265,1.3687,223.722,9991.14,-1854.73,-10.5187,12.4597,-21.1775,858.579,-9530.18,-2645.37,2.69483,3.17874,17.985,-2660.27,9742.28,-1603.03,-0.993084,20.1868,-5.21871,-2658.35,-9791.09,-1965.99,-8.78102,-0.495045,4.979,8669.91,330.552,5028.35,-3.12337,-63.8881,2.65126
0.299,5440.43,-3141.34,7633.29,2.72581,2.92563,-1.11794,4737.62,3746.39,7591.94,-1.40089,3.98965,1.34932,214.728,9984.07,-1865.01,-10.4473,11.5762,-20.9593,875.864,-9534.68,-2647.96,2.78523,3.17366,17.9748,-2623.06,9714.46,-1573.2,-0.973523,19.6512,-5.06149,-2655.21,-9779.06,-2016.29,-8.77591,-0.65172,4.68055,8652.84,311.993,5025.58,-3.09178,-63.9154,2.82782
0.3,5393.83,-3158.89,7614.99,2.61477,2.88589,-0.928344,4750.07,3752.66,7588.51,-1.34168,3.97666,1.32995,205.734,9977.0,-1875.3,-10.3759,10.6927,-20.7412,893.149,-9539.17,-2650.56,2.87562,3.16858,17.9646,-2585.85,9686.63,-1543.37,-0.953962,19.1156,-4.90427,-2652.07,-9767.02,-2066.59,-8.7708,-0.808394,4.38211,8635.78,293.434,5022.81,-3.0602,-63.9426,3.00439
0.301,5347.23,-3176.44,7596.69,2.50373,2.84616,-0.738747,4762.53,3758.93,7585.09,-1.28246,3.96367,1.31057,196.74,9969.93,-1885.58,-10.3045,9.80913,-20.523,910.433,-9543.66,-2653.15,2.96602,3.16349,17.9544,-2548.64,9658.81,-1513.55,-0.934401,18.5801,-4.74704,-2648.93,-9754.99,-2116.89,-8.76569,-0.965069,4.08366,8618.71,274.875,5020.04,-3.02861,-63.9699,3.18096
0.302,5300.63,-3193.99,7578.4,2.3927,2.80643,-0.54915,4774.98,3765.2,7581.66,-1.22325,3.95067,1.2912,187.746,9962.86,-1895.86,-10.2332,8.92561,-20.3049,927.718,-9548.16,-2655.75,3.05641,3.15841,17.9442,-2511.43,9630.99,-1483.72,-0.914841,18.0445,-4.58982,-2645.79,-9742.95,-2167.18,-8.76058,-1.12174,3.78521,8601.64,256.317,5017.27,-2.99703,-63.9972,3.35752
0.303,5275.02,-3231.86,7571.02,2.3795,2.72024,-0.434936,4779.36,3758.9,7582.38,-1.19739,3.91919,1.28574,213.326,9913.81,-1886.92,-10.1532,8.0947,-20.1268,938.883,-9533.21,-2670.58,3.10407,3.27389,17.939,-2472.86,9600.57,-1462.47,-0.727485,17.3764,-4.39674,-2633.97,-9731.52,-2193.62,-8.78826,-1.25979,3.58204,8589.77,242.792,5000.02,-2.92203,-63.9277,3.4518
0.304,5255.4,-3275.54,7566.76,2.39426,2.62078,-0.342259,4781.43,3749.02,7584.28,-1.18107,3.88242,1.28425,248.784,9852.76,-1872.47,-10.0708,7.27882,-19.9601,948.299,-9512.72,-2688.91,3.13952,3.42382,17.9353,-2433.9,9569.42,-1443.68,-0.492187,16.6705,-4.19343,-2619.68,-9720.26,-2213.23,-8.8253,-1.39252,3.4061,8579.39,230.705,4978.63,-2.83463,-63.8305,3.52256
0.305,5235.79,-3319.22,7562.5,2.40902,2.52132,-0.249582,4783.5,3739.14,7586.18,-1.16474,3.84566,1.28276,284.241,9791.71,-1858.03,-9.98836,6.46295,-19.7935,957.715,-9492.22,-2707.24,3.17498,3.57374,17.9315,-2394.94,9538.27,-1424.88,-0.256889,15.9646,-3.99011,-2605.39,-9709.0,-2232.85,-8.86234,-1.52525,3.23016,8569.0,218.618,4957.24,-2.74723,-63.7334,3.59333
0.306,5216.17,-3362.9,7558.24,2.42378,2.42186,-0.156906,4785.58,3729.25,7588.08,-1.14841,3.80889,1.28127,319.699,9730.66,-1843.59,-9.90594,5.64707,-19.6268,967.131,-9471.72,-2725.57,3.21043,3.72367,17.9278,-2355.98,9507.11,-1406.09,-0.0215918,15.2588,-3.7868,-2591.1,-9697.73,-2252.46,-8.89938,-1.65797,3.05422,8558.61,206.532,4935.85,-2.65983,-63.6363,3.66409
0.307,5200.97,-3400.2,7549.49,2.42573,2.34038,-0.0990644,4785.39,3723.11,7591.17,-1.13455,3.78278,1.30332,346.578,9678.98,-1853.29,-9.86529,4.98517,-19.5008,977.314,-9462.0,-2739.11,3.22691,3.87823,17.9479,-2321.65,9481.8,-1399.14,0.215512,14.57,-3.55698,-2577.31,-9675.24,-2264.78,-8.9426,-1.73236,2.89311,8552.73,198.023,4919.22,-2.62393,-63.5711,3.72977
0.308,5194.59,-3424.74,7531.79,2.40207,2.2949,-0.110894,4780.67,3724.47,7596.63,-1.12564,3.77798,1.37243,356.297,9646.05,-1911.28,-9.9082,4.63123,-19.456,989.027,-9473.84,-2743.08,3.20546,4.04206,18.0155,-2296.57,9468.18,-1415.88,0.456229,13.9156,-3.27415,-2564.52,-9630.29,-2262.5,-8.99816,-1.69007,2.76167,8555.84,196.669,4912.09,-2.69103,-63.5699,3.78527
0.309,5188.21,-3449.28,7514.09,2.37841,2.24941,-0.122724,4775.96,3725.83,7602.08,-1.11672,3.77318,1.44154,366.017,9613.12,-1969.26,-9.95111,4.27729,-19.4112,1000.74,-9485.68,-2747.05,3.184,4.20589,18.0831,-2271.49,9454.55,-1432.62,0.696946,13.2612,-2.99132,-2551.74,-9585.34,-2260.23,-9.05372,-1.64778,2.63024,8558.96,195.316,4904.97,-2.75813,-63.5687,3.84078
0.31,5181.83,-3473.82,7496.38,2.35475,2.20392,-0.134554,4771.25,3727.18,7607.54,-1.1078,3.76838,1.51065,375.737,9580.18,-2027.24,-9.99401,3.92334,-19.3665,1012.45,-9497.52,-2751.02,3.16255,4.36972,18.1508,-2246.41,9440.92,-1449.36,0.937662,12.6068,-2.7085,-2538.95,-9540.39,-2257.95,-9.10928,-1.60548,2.4988,8562.07,193.962,4897.85,-2.82522,-63.5675,3.89629
0.311,5175.45,-3498.36,7478.68,2.33109,2.15844,-0.146384,4766.53,3728.54,7612.99,-1.09889,3.76359,1.57977,385.456,9547.25,-2085.22,-10.0369,3.5694,-19.3217,1024.17,-9509.36,-2754.99,3.14109,4.53355,18.2184,-2221.33,9427.3,-1466.1,1.17838,11.9524,-2.42567,-2526.16,-9495.44,-2255.67,-9.16484,-1.56319,2.36737,8565.19,192.609,4890.73,-2.89232,-63.5663,3.95179
0.312,5166.43,-3501.79,7479.37,2.37412,2.20233,-0.170647,4767.34,3725.37,7608.06,-1.17679,3.72572,1.57857,408.98,9486.33,-2110.6,-9.87995,3.39131,-19.1563,1017.45,-9496.87,-2759.61,3.19203,4.73753,18.3397,-2180.59,9401.22,-1480.51,1.40879,11.5286,-2.19943,-2525.15,-9465.44,-2256.03,-9.12751,-1.36226,2.22152,8561.38,189.303,4883.22,-2.96196,-63.5892,3.95496
0.313,5157.07,-3502.59,7482.37,2.42549,2.2574,-0.196465,4768.83,3721.63,7601.82,-1.26555,3.68373,1.56859,434.229,9421.9,-2131.91,-9.698,3.23521,-18.9757,1008.43,-9481.34,-2764.32,3.25201,4.94653,18.4677,-2137.89,9373.58,-1494.63,1.63792,11.1336,-1.98027,-2525.6,-9437.31,-2256.72,-9.07857,-1.14149,2.07387,8556.72,185.754,4875.66,-3.03192,-63.6152,3.95158
0.314,5147.72,-3503.39,7485.37,2.47685,2.31248,-0.222282,4770.33,3717.89,7595.59,-1.35431,3.64173,1.55862,459.477,9357.47,-2153.21,-9.51605,3.07911,-18.7952,999.413,-9465.81,-2769.02,3.312,5.15553,18.5957,-2095.19,9345.94,-1508.75,1.86705,10.7387,-1.76111,-2526.06,-9409.18,-2257.41,-9.02963,-0.920733,1.92622,8552.05,182.205,4868.1,-3.10188,-63.6411,3.9482
0.315,5138.36,-3504.19,7488.36,2.52822,2.36755,-0.248099,4771.83,3714.15,7589.35,-1.44307,3.59974,1.54864,484.726,9293.04,-2174.52,-9.3341,2.92301,-18.6147,990.393,-9450.28,-2773.73,3.37198,5.36453,18.7237,-2052.5,9318.3,-1522.87,2.09617,10.3437,-1.54194,-2526.51,-9381.05,-2258.1,-8.98069,-0.699971,1.77858,8547.39,178.656,4860.54,-3.17184,-63.6671,3.94482
0.316,5131.89,-3502.14,7493.68,2.57904,2.44891,-0.315105,4776.89,3717.1,7580.07,-1.4721,3.61267,1.5897,528.794,9242.5,-2197.03,-9.24192,2.82122,-18.5308,988.765,-9448.01,-2777.31,3.36751,5.56016,18.7719,-2020.38,9289.74,-1536.48,2.29911,10.0177,-1.32301,-2527.49,-9359.11,-2269.42,-8.92709,-0.440698,1.68665,8540.84,173.824,4860.4,-3.24231,-63.6537,3.96563
0.317,5129.04,-3496.52,7501.89,2.62917,2.56314,-0.433595,4786.42,3728.43,7566.98,-1.42646,3.69426,1.69457,596.384,9209.3,-2221.05,-9.26196,2.78731,-18.5678,996.376,-9462.32,-2779.48,3.28247,5.7391,18.7203,-2001.48,9260.01,-1549.45,2.46932,9.77782,-1.10438,-2529.14,-9344.92,-2294.01,-8.86768,-0.133286,1.66437,8531.96,167.387,4869.54,-3.31342,-63.591,4.01667
0.318,5126.18,-3490.91,7510.11,2.67931,2.67737,-0.552085,4795.94,3739.76,7553.9,-1.38083,3.77586,1.79944,663.975,9176.1,-2245.07,-9.282,2.7534,-18.6047,1003.99,-9476.64,-2781.65,3.19744,5.91803,18.6687,-1982.58,9230.28,-1562.42,2.63952,9.53795,-0.885742,-2530.78,-9330.73,-2318.6,-8.80826,0.174126,1.64208,8523.07,160.949,4878.68,-3.38453,-63.5283,4.06771
0.319,5123.32,-3485.3,7518.33,2.72945,2.79159,-0.670574,4805.47,3751.08,7540.81,-1.33519,3.85745,1.90431,731.565,9142.91,-2269.09,-9.30203,2.71949,-18.6416,1011.6,-9490.95,-2783.82,3.1124,6.09697,18.6172,-1963.69,9200.54,-1575.39,2.80972,9.29807,-0.667107,-2532.42,-9316.54,-2343.2,-8.74884,0.481538,1.6198,8514.19,154.512,4887.82,-3.45564,-63.4656,4.11875
0.32,5120.46,-3479.68,7526.54,2.77959,2.90582,-0.789064,4814.99,3762.41,7527.72,-1.28956,3.93904,2.00918,799.156,9109.71,-2293.11,-9.32207,2.68558,-18.6786,1019.21,-9505.26,-2785.99,3.02736,6.2759,18.5656,-1944.79,9170.81,-1588.36,2.97992,9.0582,-0.448472,-2534.06,-9302.34,-2367.79,-8.68942,0.788949,1.59752,8505.3,148.075,4896.95,-3.52675,-63.4029,4.16979
0.321,5135.7,-3474.1,7518.23,2.81812,2.91155,-0.861504,4799.98,3757.92,7521.83,-1.37066,3.89089,2.0842,804.876,9125.76,-2291.25,-9.18792,2.9462,-18.6073,1001.6,-9491.39,-2759.92,3.15525,6.31696,18.6984,-1930.89,9166.88,-1602.54,3.33151,8.75922,-0.570282,-2528.83,-9295.01,-2384.93,-8.57522,1.0944,1.72818,8491.6,156.219,4914.0,-3.48895,-63.3405,4.21343
0.322,5150.94,-3468.52,7509.92,2.85665,2.91727,-0.933943,4784.96,3753.43,7515.95,-1.45175,3.84274,2.15922,810.597,9141.82,-2289.39,-9.05378,3.20681,-18.5361,983.996,-9477.53,-2733.85,3.28314,6.35802,18.8312,-1916.99,9162.95,-1616.72,3.6831,8.46023,-0.692092,-2523.59,-9287.67,-2402.07,-8.46102,1.39985,1.85885,8477.9,164.362,4931.04,-3.45116,-63.2782,4.25708
0.323,5166.18,-3462.94,7501.61,2.89518,2.923,-1.00638,4769.94,3748.95,7510.06,-1.53285,3.79458,2.23424,816.318,9157.87,-2287.53,-8.91963,3.46743,-18.4648,966.389,-9463.66,-2707.78,3.41103,6.39908,18.964,-1903.09,9159.02,-1630.91,4.03469,8.16125,-0.813902,-2518.35,-9280.33,-2419.2,-8.34681,1.70531,1.98952,8464.2,172.505,4948.09,-3.41336,-63.2159,4.30073
0.324,5181.42,-3457.36,7493.3,2.93371,2.92872,-1.07882,4754.93,3744.46,7504.17,-1.61395,3.74643,2.30926,822.039,9173.92,-2285.67,-8.78548,3.72805,-18.3936,948.781,-9449.8,-2681.71,3.53892,6.44014,19.0968,-1889.19,9155.09,-1645.09,4.38628,7.86227,-0.935712,-2513.11,-9272.99,-2436.34,-8.23261,2.01076,2.12019,8450.5,180.649,4965.13,-3.37557,-63.1535,4.34438
0.325,5191.7,-3452.56,7489.31,2.96573,2.92835,-1.18303,4740.74,3740.58,7507.09,-1.66408,3.66957,2.39022,818.895,9194.51,-2281.92,-8.72391,4.02927,-18.4693,934.222,-9465.41,-2665.81,3.64438,6.64991,19.2045,-1864.72,9144.86,-1666.8,4.59649,7.67097,-0.999292,-2527.95,-9279.77,-2438.15,-8.08627,2.30558,2.24894,8444.14,180.577,4971.78,-3.29393,-63.1067,4.34086
0.326,5198.02,-3448.37,7488.79,2.99253,2.9231,-1.31265,4727.23,3737.17,7517.06,-1.68945,3.56974,2.47592,808.661,9218.73,-2276.66,-8.7204,4.36298,-18.6627,922.101,-9504.62,-2658.05,3.73189,6.99465,19.292,-1831.78,9129.57,-1694.52,4.69359,7.56584,-1.01629,-2558.85,-9297.86,-2427.7,-7.91422,2.5919,2.37617,8443.64,173.935,4970.09,-3.17723,-63.0722,4.2996
0.327,5204.35,-3444.19,7488.27,3.01933,2.91785,-1.44227,4713.72,3733.77,7527.02,-1.71481,3.46992,2.56163,798.427,9242.94,-2271.4,-8.7169,4.69668,-18.8561,909.98,-9543.82,-2650.29,3.81941,7.33939,19.3795,-1798.85,9114.29,-1722.25,4.7907,7.4607,-1.03329,-2589.75,-9315.94,-2417.25,-7.74217,2.87822,2.5034,8443.15,167.292,4968.41,-3.06053,-63.0377,4.25834
0.328,5210.67,-3440.01,7487.75,3.04614,2.9126,-1.5719,4700.2,3730.36,7536.99,-1.74018,3.3701,2.64733,788.193,9267.16,-2266.13,-8.71339,5.03039,-19.0494,897.859,-9583.02,-2642.53,3.90692,7.68413,19.467,-1765.92,9099.0,-1749.98,4.88781,7.35557,-1.05028,-2620.65,-9334.01,-2406.8,-7.57012,3.16454,2.63064,8442.65,160.649,4966.73,-2.94383,-63.0033,4.21708
