Time,RFoot_accel.x,RFoot_accel.y,RFoot_accel.z,RFoot_gyro.x,RFoot_gyro.y,RFoot_gyro.z,LFoot_accel.x,LFoot_accel.y,LFoot_accel.z,LFoot_gyro.x,LFoot_gyro.y,LFoot_gyro.z,RShank_accel.x,RShank_accel.y,RShank_accel.z,RShank_gyro.x,RShank_gyro.y,RShank_gyro.z,LShank_accel.x,LShank_accel.y,LShank_accel.z,LShank_gyro.x,LShank_gyro.y,LShank_gyro.z,RThigh_accel.x,RThigh_accel.y,RThigh_accel.z,RThigh_gyro.x,RThigh_gyro.y,RThigh_gyro.z,LThigh_accel.x,LThigh_accel.y,LThigh_accel.z,LThigh_gyro.x,LThigh_gyro.y,LThigh_gyro.z,Pelvis_accel.x,Pelvis_accel.y,Pelvis_accel.z,Pelvis_gyro.x,Pelvis_gyro.y,Pelvis_gyro.z
3.95,2128.68,1869.63,11078.9,-172.757,399.603,60.6238,4546.45,381.766,8717.75,-35.4105,12.6623,14.0079,2058.18,9255.59,3120.93,83.8917,-46.4039,366.927,332.178,-9794.74,-1045.58,-0.30965,-26.5322,66.8971,-7708.99,5716.32,1091.57,49.9542,79.7029,192.297,354.93,-9860.14,113.119,-46.0614,-59.3657,86.6344,6576.46,-2505.83,2016.47,61.0346,-5.93154,58.8707
3.9505,2144.63,1839.05,11100.1,-172.96,399.82,61.5832,4550.27,391.656,8713.82,-35.0394,12.7472,14.0717,2092.77,9280.97,3076.78,83.9244,-46.6649,368.207,309.198,-9793.35,-1053.45,-0.349831,-25.9263,67.0866,-7727.12,5691.16,1042.98,49.216,78.9132,191.534,382.684,-9839.08,90.1293,-45.94,-59.5632,86.5978,6622.56,-2513.77,2002.42,61.0713,-6.19853,58.4615
3.951,2160.59,1808.47,11121.2,-173.163,400.038,62.5426,4554.09,401.546,8709.89,-34.6683,12.8322,14.1355,2127.35,9306.34,3032.63,83.9571,-46.926,369.486,286.218,-9791.96,-1061.32,-0.390012,-25.3203,67.2762,-7745.26,5666.0,994.379,48.4779,78.1235,190.77,410.438,-9818.02,67.1395,-45.8187,-59.7607,86.5612,6668.66,-2521.72,1988.38,61.1079,-6.46552,58.0523
3.9515,2213.88,1745.76,11156.2,-173.184,400.195,63.1538,4557.41,427.477,8708.85,-34.2949,12.9188,14.2629,2147.07,9322.46,2994.56,84.1863,-47.0154,370.672,258.004,-9804.49,-1080.27,-0.467594,-24.8648,67.4093,-7771.09,5642.95,964.89,47.6067,77.2554,189.975,425.304,-9799.82,41.7951,-45.7254,-59.8682,86.4948,6735.44,-2521.69,1990.97,61.2753,-6.69977,57.5793
3.952,2277.85,1673.88,11195.2,-173.153,400.336,63.6655,4560.58,457.991,8708.63,-33.9209,13.0058,14.4085,2162.53,9335.94,2958.24,84.4717,-47.0557,371.83,228.294,-9821.0,-1102.37,-0.555862,-24.4522,67.5263,-7799.12,5620.49,940.86,46.6975,76.3649,189.17,436.486,-9782.42,15.778,-45.6401,-59.95,86.4199,6808.14,-2519.38,1998.3,61.4799,-6.92467,57.0882
3.9525,2341.82,1602.0,11234.1,-173.121,400.476,64.1772,4563.76,488.506,8708.41,-33.5468,13.0929,14.5541,2177.99,9349.42,2921.92,84.7571,-47.0961,372.989,198.584,-9837.51,-1124.48,-0.644131,-24.0397,67.6432,-7827.15,5598.04,916.83,45.7882,75.4744,188.365,447.669,-9765.02,-10.2391,-45.5548,-60.0317,86.345,6880.83,-2517.07,2005.63,61.6846,-7.14957,56.597
3.953,2405.78,1530.12,11273.1,-173.09,400.617,64.6889,4566.93,519.02,8708.19,-33.1728,13.18,14.6997,2193.46,9362.9,2885.6,85.0424,-47.1364,374.148,168.874,-9854.02,-1146.59,-0.732399,-23.6271,67.7602,-7855.18,5575.59,892.8,44.879,74.5839,187.56,458.852,-9747.63,-36.2562,-45.4695,-60.1135,86.2701,6953.53,-2514.77,2012.96,61.8893,-7.37447,56.1059
3.9535,2469.75,1458.24,11312.0,-173.058,400.757,65.2006,4570.1,549.534,8707.97,-32.7987,13.2671,14.8453,2208.92,9376.38,2849.27,85.3278,-47.1768,375.306,139.164,-9870.53,-1168.7,-0.820668,-23.2146,67.8772,-7883.21,5553.14,868.77,43.9698,73.6934,186.756,470.035,-9730.23,-62.2733,-45.3842,-60.1953,86.1951,7026.23,-2512.46,2020.29,62.0939,-7.59937,55.6147
3.954,2533.71,1386.36,11350.9,-173.027,400.897,65.7123,4573.27,580.049,8707.75,-32.4247,13.3542,14.9909,2224.38,9389.86,2812.95,85.6132,-47.2171,376.465,109.454,-9887.04,-1190.8,-0.908936,-22.802,67.9942,-7911.24,5530.68,844.741,43.0606,72.8029,185.951,481.218,-9712.84,-88.2904,-45.2989,-60.277,86.1202,7098.92,-2510.15,2027.63,62.2986,-7.82427,55.1236
3.9545,2597.68,1314.48,11389.9,-172.995,401.038,66.2241,4576.45,610.563,8707.53,-32.0506,13.4412,15.1365,2239.85,9403.34,2776.63,85.8986,-47.2575,377.624,79.744,-9903.54,-1212.91,-0.997205,-22.3895,68.1111,-7939.27,5508.23,820.711,42.1514,71.9124,185.146,492.401,-9695.44,-114.308,-45.2137,-60.3588,86.0453,7171.62,-2507.84,2034.96,62.5033,-8.04918,54.6324
3.955,2661.65,1242.6,11428.8,-172.964,401.178,66.7358,4579.62,641.078,8707.31,-31.6766,13.5283,15.2821,2255.31,9416.82,2740.31,86.1839,-47.2978,378.782,50.034,-9920.05,-1235.02,-1.08547,-21.977,68.2281,-7967.29,5485.78,796.681,41.2422,71.0219,184.341,503.583,-9678.04,-140.325,-45.1284,-60.4406,85.9704,7244.31,-2505.53,2042.29,62.708,-8.27408,54.1413
3.9555,2725.61,1170.72,11467.7,-172.933,401.318,67.2475,4582.79,671.592,8707.09,-31.3025,13.6154,15.4278,2270.77,9430.3,2703.98,86.4693,-47.3382,379.941,20.324,-9936.56,-1257.13,-1.17374,-21.5644,68.3451,-7995.32,5463.33,772.651,40.3329,70.1314,183.537,514.766,-9660.65,-166.342,-45.0431,-60.5223,85.8955,7317.01,-2503.22,2049.62,62.9126,-8.49898,53.6501
3.956,2773.98,1164.9,11495.5,-173.002,401.338,67.7968,4570.52,694.425,8704.78,-30.9054,13.6362,15.5747,2289.39,9436.48,2673.76,86.9251,-47.1592,380.96,-17.7499,-9924.66,-1270.3,-1.24068,-21.3837,68.4814,-8018.4,5434.2,733.502,39.3567,69.368,182.719,522.048,-9628.72,-201.337,-45.0991,-60.481,85.9559,7388.39,-2478.71,2036.72,63.1329,-8.68107,53.0704
3.9565,2820.39,1167.33,11522.0,-173.084,401.342,68.3509,4556.32,716.299,8702.21,-30.5054,13.6487,15.7219,2308.41,9441.76,2644.3,87.4022,-46.9529,381.963,-56.8694,-9909.21,-1282.36,-1.30494,-21.2319,68.6201,-8040.86,5404.25,692.462,38.3721,68.6205,181.901,528.842,-9594.99,-237.455,-45.1727,-60.4243,86.0332,7459.61,-2451.42,2021.3,63.3552,-8.85781,52.4795
3.957,2866.8,1169.77,11548.4,-173.166,401.346,68.9049,4542.12,738.172,8699.64,-30.1054,13.6612,15.869,2327.42,9447.03,2614.84,87.8794,-46.7466,382.965,-95.9888,-9893.76,-1294.42,-1.36921,-21.0801,68.7588,-8063.32,5374.29,651.423,37.3875,67.8731,181.082,535.636,-9561.25,-273.573,-45.2463,-60.3676,86.1106,7530.83,-2424.13,2005.87,63.5775,-9.03455,51.8887
3.9575,2913.22,1172.2,11574.8,-173.249,401.35,69.4589,4527.92,760.046,8697.08,-29.7055,13.6737,16.0162,2346.44,9452.3,2585.37,88.3565,-46.5402,383.967,-135.108,-9878.31,-1306.48,-1.43348,-20.9283,68.8975,-8085.78,5344.33,610.384,36.4028,67.1256,180.264,542.429,-9527.51,-309.69,-45.32,-60.3109,86.1879,7602.05,-2396.84,1990.44,63.7998,-9.21129,51.2979
3.958,2959.63,1174.64,11601.2,-173.331,401.354,70.013,4513.72,781.919,8694.51,-29.3055,13.6862,16.1633,2365.45,9457.57,2555.91,88.8336,-46.3339,384.969,-174.228,-9862.86,-1318.54,-1.49774,-20.7765,69.0362,-8108.24,5314.37,569.344,35.4182,66.3781,179.445,549.223,-9493.77,-345.808,-45.3936,-60.2542,86.2652,7673.27,-2369.55,1975.02,64.0221,-9.38804,50.707
3.9585,3006.04,1177.07,11627.6,-173.413,401.358,70.567,4499.52,803.793,8691.94,-28.9055,13.6987,16.3104,2384.47,9462.84,2526.45,89.3107,-46.1275,385.972,-213.347,-9847.41,-1330.6,-1.56201,-20.6248,69.1749,-8130.7,5284.42,528.305,34.4336,65.6307,178.626,556.017,-9460.03,-381.926,-45.4672,-60.1975,86.3426,7744.49,-2342.27,1959.59,64.2444,-9.56478,50.1162
3.959,3052.46,1179.51,11654.0,-173.495,401.363,71.1211,4485.32,825.666,8689.37,-28.5055,13.7113,16.4576,2403.48,9468.11,2496.99,89.7879,-45.9212,386.974,-252.467,-9831.96,-1342.66,-1.62628,-20.473,69.3136,-8153.17,5254.46,487.266,33.449,64.8832,177.808,562.811,-9426.29,-418.044,-45.5409,-60.1408,86.4199,7815.71,-2314.98,1944.17,64.4666,-9.74152,49.5253
3.9595,3098.87,1181.94,11680.4,-173.577,401.367,71.6751,4471.11,847.539,8686.8,-28.1055,13.7238,16.6047,2422.5,9473.38,2467.53,90.265,-45.7149,387.976,-291.586,-9816.51,-1354.72,-1.69055,-20.3212,69.4523,-8175.63,5224.5,446.226,32.4644,64.1357,176.989,569.605,-9392.55,-454.162,-45.6145,-60.0841,86.4972,7886.92,-2287.69,1928.74,64.6889,-9.91826,48.9345
3.96,3145.29,1184.38,11706.8,-173.66,401.371,72.2291,4456.91,869.413,8684.23,-27.7055,13.7363,16.7519,2441.51,9478.66,2438.07,90.7421,-45.5085,388.978,-330.706,-9801.07,-1366.78,-1.75481,-20.1694,69.591,-8198.09,5194.54,405.187,31.4797,63.3882,176.17,576.399,-9358.81,-490.279,-45.6881,-60.0274,86.5746,7958.14,-2260.4,1913.31,64.9112,-10.095,48.3437
3.9605,3185.32,1215.8,11757.8,-173.803,401.352,72.7992,4455.09,879.77,8680.72,-27.3001,13.6063,16.9305,2449.37,9500.33,2401.12,91.3601,-45.1108,389.868,-364.368,-9813.99,-1359.06,-1.70877,-20.2407,69.6765,-8236.65,5139.72,348.778,30.5568,63.0338,175.519,586.621,-9355.49,-539.104,-45.7735,-59.8602,86.6067,7996.96,-2208.0,1896.3,65.0031,-10.1835,47.8879
3.961,3225.35,1247.22,11808.9,-173.946,401.334,73.3693,4453.27,890.128,8677.21,-26.8946,13.4763,17.1091,2457.23,9522.01,2364.17,91.978,-44.713,390.757,-398.031,-9826.9,-1351.35,-1.66273,-20.312,69.7619,-8275.22,5084.9,292.369,29.6338,62.6795,174.868,596.844,-9352.18,-587.928,-45.8589,-59.693,86.6389,8035.78,-2155.6,1879.29,65.0949,-10.2721,47.4322
3.9615,3265.39,1278.64,11860.0,-174.09,401.315,73.9393,4451.45,900.486,8673.69,-26.4892,13.3462,17.2877,2465.09,9543.69,2327.23,92.5959,-44.3152,391.646,-431.693,-9839.82,-1343.63,-1.61669,-20.3832,69.8474,-8313.78,5030.08,235.961,28.7108,62.3251,174.217,607.066,-9348.87,-636.753,-45.9442,-59.5258,86.6711,8074.59,-2103.2,1862.27,65.1868,-10.3606,46.9764
3.962,3305.42,1310.06,11911.0,-174.233,401.297,74.5094,4449.63,910.843,8670.18,-26.0838,13.2162,17.4664,2472.95,9565.37,2290.28,93.2139,-43.9174,392.535,-465.356,-9852.74,-1335.91,-1.57065,-20.4545,69.9329,-8352.35,4975.26,179.552,27.7878,61.9707,173.566,617.289,-9345.56,-685.577,-46.0296,-59.3586,86.7032,8113.41,-2050.8,1845.26,65.2786,-10.4492,46.5207
3.9625,3345.46,1341.49,11962.1,-174.377,401.278,75.0794,4447.81,921.201,8666.67,-25.6783,13.0862,17.645,2480.8,9587.04,2253.33,93.8318,-43.5197,393.425,-499.019,-9865.66,-1328.19,-1.52461,-20.5258,70.0183,-8390.91,4920.44,123.144,26.8648,61.6163,172.915,627.511,-9342.25,-734.402,-46.1149,-59.1914,86.7354,8152.22,-1998.4,1828.25,65.3705,-10.5377,46.0649
3.963,3385.49,1372.91,12013.1,-174.52,401.26,75.6495,4445.99,931.559,8663.16,-25.2729,12.9562,17.8236,2488.66,9608.72,2216.39,94.4498,-43.1219,394.314,-532.681,-9878.58,-1320.48,-1.47857,-20.597,70.1038,-8429.48,4865.62,66.7349,25.9418,61.2619,172.264,637.733,-9338.94,-783.226,-46.2003,-59.0242,86.7675,8191.04,-1946.0,1811.24,65.4623,-10.6263,45.6092
3.9635,3425.52,1404.33,12064.2,-174.663,401.241,76.2195,4444.17,941.916,8659.64,-24.8675,12.8262,18.0023,2496.52,9630.4,2179.44,95.0677,-42.7241,395.203,-566.344,-9891.5,-1312.76,-1.43253,-20.6683,70.1893,-8468.04,4810.8,10.3262,25.0188,60.9075,171.613,647.956,-9335.62,-832.05,-46.2857,-58.857,86.7997,8229.86,-1893.6,1794.22,65.5542,-10.7148,45.1534
3.964,3465.56,1435.75,12115.2,-174.807,401.223,76.7896,4442.35,952.274,8656.13,-24.462,12.6962,18.1809,2504.38,9652.08,2142.49,95.6856,-42.3263,396.093,-600.007,-9904.42,-1305.04,-1.38649,-20.7396,70.2747,-8506.61,4755.98,-46.0824,24.0959,60.5531,170.962,658.178,-9332.31,-880.875,-46.371,-58.6898,86.8318,8268.67,-1841.2,1777.21,65.646,-10.8034,44.6977
3.9645,3508.91,1465.4,12165.1,-174.956,401.211,77.3396,4441.99,961.004,8653.14,-24.083,12.572,18.348,2510.47,9676.88,2107.87,96.3015,-41.9184,396.969,-632.884,-9917.54,-1299.35,-1.3361,-20.8153,70.3668,-8544.2,4700.04,-102.137,23.1967,60.2676,170.333,667.468,-9328.63,-927.62,-46.4472,-58.5159,86.8669,8307.3,-1793.59,1760.4,65.7284,-10.8928,44.2668
3.965,3578.84,1480.91,12205.2,-175.15,401.249,77.729,4453.3,956.711,8654.28,-23.9153,12.4937,18.4234,2502.4,9726.75,2091.83,96.9012,-41.4288,397.747,-659.482,-9932.19,-1309.81,-1.25085,-20.927,70.5116,-8574.03,4635.1,-155.362,22.4883,60.5334,169.88,669.293,-9321.99,-957.728,-46.45,-58.2886,86.9255,8344.38,-1784.29,1745.21,65.7353,-10.9891,44.0344
3.9655,3648.76,1496.41,12245.3,-175.344,401.288,78.1184,4464.61,952.418,8655.43,-23.7476,12.4155,18.4988,2494.33,9776.62,2075.79,97.5009,-40.9393,398.525,-686.079,-9946.85,-1320.28,-1.1656,-21.0386,70.6563,-8603.87,4570.17,-208.586,21.7798,60.7992,169.428,671.117,-9315.35,-987.836,-46.4528,-58.0612,86.9841,8381.46,-1775.0,1730.02,65.7422,-11.0854,43.8021
3.966,3718.68,1511.91,12285.5,-175.538,401.326,78.5078,4475.92,948.125,8656.58,-23.5799,12.3372,18.5741,2486.26,9826.48,2059.74,98.1006,-40.4497,399.302,-712.676,-9961.5,-1330.74,-1.08035,-21.1503,70.8011,-8633.7,4505.24,-261.811,21.0714,61.0649,168.975,672.942,-9308.71,-1017.94,-46.4555,-57.8339,87.0426,8418.54,-1765.7,1714.83,65.749,-11.1818,43.5698
3.9665,3788.61,1527.41,12325.6,-175.732,401.364,78.8971,4487.24,943.832,8657.73,-23.4122,12.259,18.6495,2478.19,9876.35,2043.7,98.7003,-39.9601,400.08,-739.273,-9976.16,-1341.21,-0.995101,-21.2619,70.9458,-8663.53,4440.3,-315.036,20.3629,61.3307,168.523,674.767,-9302.07,-1048.05,-46.4583,-57.6066,87.1012,8455.63,-1756.4,1699.64,65.7559,-11.2781,43.3375
3.967,3858.53,1542.92,12365.7,-175.926,401.403,79.2865,4498.55,939.539,8658.88,-23.2445,12.1807,18.7248,2470.12,9926.22,2027.66,99.3,-39.4706,400.857,-765.871,-9990.82,-1351.68,-0.909851,-21.3736,71.0906,-8693.36,4375.37,-368.26,19.6545,61.5965,168.07,676.592,-9295.43,-1078.16,-46.4611,-57.3793,87.1598,8492.71,-1747.11,1684.45,65.7627,-11.3744,43.1052
3.9675,3928.45,1558.42,12405.9,-176.12,401.441,79.6759,4509.86,935.246,8660.02,-23.0767,12.1025,18.8002,2462.06,9976.09,2011.62,99.8997,-38.981,401.635,-792.468,-10005.5,-1362.14,-0.824602,-21.4852,71.2354,-8723.2,4310.44,-421.485,18.946,61.8623,167.618,678.417,-9288.79,-1108.27,-46.4639,-57.152,87.2183,8529.79,-1737.81,1669.27,65.7696,-11.4708,42.8729
3.968,3998.37,1573.92,12446.0,-176.314,401.479,80.0653,4521.17,930.953,8661.17,-22.909,12.0242,18.8756,2453.99,10026.0,1995.58,100.499,-38.4915,402.412,-819.065,-10020.1,-1372.61,-0.739353,-21.5969,71.3801,-8753.03,4245.5,-474.709,18.2376,62.1281,167.165,680.242,-9282.15,-1138.38,-46.4666,-56.9246,87.2769,8566.88,-1728.51,1654.08,65.7765,-11.5671,42.6406
3.9685,4068.3,1589.43,12486.2,-176.508,401.518,80.4547,4532.48,926.66,8662.32,-22.7413,11.946,18.9509,2445.92,10075.8,1979.53,101.099,-38.0019,403.19,-845.663,-10034.8,-1383.07,-0.654104,-21.7085,71.5249,-8782.86,4180.57,-527.934,17.5291,62.3939,166.712,682.067,-9275.51,-1168.49,-46.4694,-56.6973,87.3355,8603.96,-1719.22,1638.89,65.7833,-11.6634,42.4083
3.969,4143.36,1607.63,12526.0,-176.642,401.618,80.819,4541.2,927.882,8664.0,-22.5937,11.8594,19.0379,2434.32,10128.9,1963.66,101.676,-37.476,403.945,-865.564,-10046.5,-1396.7,-0.541624,-21.8195,71.6383,-8816.54,4118.45,-572.89,16.8244,62.8424,166.3,685.971,-9270.78,-1198.43,-46.4855,-56.4857,87.3864,8641.57,-1704.67,1626.6,65.8652,-11.784,42.1815
3.9695,4236.44,1635.31,12564.9,-176.57,401.933,81.0955,4540.8,948.406,8667.56,-22.5162,11.7439,19.1656,2410.36,10193.0,1948.37,102.173,-36.823,404.624,-862.029,-10047.7,-1421.36,-0.333835,-21.9282,71.642,-8863.67,4066.17,-588.907,16.1326,63.9307,166.026,697.15,-9272.71,-1227.81,-46.548,-56.3289,87.4104,8681.06,-1671.75,1624.46,66.2094,-11.9894,41.9743
3.97,4329.52,1662.98,12603.9,-176.497,402.248,81.372,4540.41,968.93,8671.11,-22.4388,11.6283,19.2933,2386.4,10257.1,1933.08,102.669,-36.17,405.302,-858.493,-10048.9,-1446.02,-0.126047,-22.0369,71.6457,-8910.8,4013.89,-604.925,15.4408,65.019,165.753,708.33,-9274.63,-1257.19,-46.6105,-56.1721,87.4345,8720.54,-1638.82,1622.33,66.5536,-12.1948,41.7671
3.9705,4422.59,1690.65,12642.8,-176.425,402.563,81.6485,4540.02,989.455,8674.67,-22.3614,11.5127,19.4209,2362.44,10321.2,1917.78,103.166,-35.517,405.981,-854.958,-10050.2,-1470.69,0.081742,-22.1456,71.6494,-8957.93,3961.61,-620.942,14.7491,66.1073,165.479,719.51,-9276.56,-1286.57,-46.673,-56.0153,87.4585,8760.02,-1605.9,1620.19,66.8979,-12.4002,41.5599
3.971,4515.67,1718.33,12681.7,-176.353,402.878,81.9251,4539.63,1009.98,8678.22,-22.2839,11.3972,19.5486,2338.49,10385.4,1902.49,103.663,-34.8639,406.659,-851.423,-10051.4,-1495.35,0.289531,-22.2543,71.6532,-9005.06,3909.34,-636.96,14.0573,67.1955,165.206,730.689,-9278.49,-1315.96,-46.7355,-55.8585,87.4825,8799.51,-1572.98,1618.05,67.2421,-12.6056,41.3527
3.9715,4608.74,1746.0,12720.7,-176.28,403.193,82.2016,4539.24,1030.5,8681.77,-22.2065,11.2816,19.6763,2314.53,10449.5,1887.2,104.159,-34.2109,407.338,-847.888,-10052.6,-1520.01,0.497319,-22.363,71.6569,-9052.19,3857.06,-652.977,13.3655,68.2838,164.932,741.869,-9280.42,-1345.34,-46.798,-55.7017,87.5066,8838.99,-1540.06,1615.92,67.5864,-12.811,41.1455
3.972,4701.82,1773.67,12759.6,-176.208,403.508,82.4781,4538.85,1051.03,8685.33,-22.129,11.166,19.804,2290.57,10513.6,1871.91,104.656,-33.5579,408.016,-844.352,-10053.9,-1544.67,0.705108,-22.4717,71.6606,-9099.32,3804.78,-668.994,12.6737,69.3721,164.659,753.049,-9282.34,-1374.72,-46.8605,-55.5449,87.5306,8878.47,-1507.13,1613.78,67.9306,-13.0164,40.9383
3.9725,4794.89,1801.34,12798.5,-176.135,403.823,82.7546,4538.45,1071.55,8688.88,-22.0516,11.0504,19.9316,2266.61,10577.7,1856.62,105.153,-32.9049,408.695,-840.817,-10055.1,-1569.34,0.912896,-22.5804,71.6643,-9146.46,3752.5,-685.012,11.9819,70.4604,164.385,764.228,-9284.27,-1404.1,-46.923,-55.3881,87.5547,8917.96,-1474.21,1611.65,68.2749,-13.2218,40.7311
3.973,4887.97,1829.02,12837.4,-176.063,404.138,83.0311,4538.06,1092.08,8692.44,-21.9742,10.9349,20.0593,2242.65,10641.9,1841.32,105.649,-32.2518,409.373,-837.282,-10056.3,-1594.0,1.12068,-22.6891,71.668,-9193.59,3700.23,-701.029,11.2902,71.5486,164.112,775.408,-9286.2,-1433.48,-46.9855,-55.2313,87.5787,8957.44,-1441.29,1609.51,68.6191,-13.4272,40.5239
3.9735,4982.07,1840.6,12877.0,-175.926,404.483,83.2815,4538.25,1115.77,8692.76,-21.9041,10.8074,20.2183,2224.33,10705.8,1825.84,106.123,-31.5244,410.0,-831.439,-10059.0,-1623.53,1.30317,-22.8327,71.709,-9225.32,3646.11,-705.442,10.6299,72.8188,163.806,782.323,-9288.05,-1456.61,-47.048,-55.1132,87.5903,8986.79,-1412.45,1597.44,68.899,-13.5835,40.3215
3.974,5078.22,1820.0,12918.0,-175.662,404.889,83.4798,4539.6,1145.81,8686.63,-21.8489,10.6563,20.4399,2217.29,10769.4,1809.97,106.549,-30.6483,410.524,-820.98,-10064.5,-1662.79,1.43504,-23.0461,71.8244,-9226.24,3588.32,-686.646,10.0328,74.4529,163.434,780.708,-9289.75,-1467.22,-47.1105,-55.0724,87.5768,8995.87,-1391.8,1565.49,69.0501,-13.6417,40.1287
3.9745,5174.37,1799.41,12958.9,-175.398,405.294,83.6781,4540.95,1175.85,8680.49,-21.7937,10.5051,20.6616,2210.26,10833.0,1794.1,106.975,-29.7721,411.048,-810.521,-10069.9,-1702.06,1.56691,-23.2595,71.9399,-9227.16,3530.52,-667.849,9.43563,76.0869,163.062,779.094,-9291.45,-1477.84,-47.173,-55.0316,87.5634,9004.95,-1371.14,1533.55,69.2013,-13.7,39.9359
3.975,5270.51,1778.81,12999.9,-175.133,405.699,83.8764,4542.29,1205.89,8674.36,-21.7385,10.3539,20.8832,2203.22,10896.5,1778.22,107.401,-28.8959,411.572,-800.062,-10075.4,-1741.32,1.69878,-23.4728,72.0553,-9228.08,3472.73,-649.053,8.83849,77.721,162.69,777.479,-9293.15,-1488.46,-47.2355,-54.9908,87.5499,9014.03,-1350.48,1501.6,69.3524,-13.7582,39.7432
3.9755,5366.66,1758.22,13040.8,-174.869,406.104,84.0747,4543.64,1235.93,8668.22,-21.6832,10.2028,21.1048,2196.18,10960.1,1762.35,107.827,-28.0198,412.096,-789.603,-10080.8,-1780.59,1.83065,-23.6862,72.1708,-9229.0,3414.94,-630.257,8.24134,79.355,162.318,775.864,-9294.85,-1499.08,-47.298,-54.95,87.5365,9023.12,-1329.83,1469.66,69.5036,-13.8164,39.5504
3.976,5462.81,1737.62,13081.7,-174.604,406.509,84.2729,4544.99,1265.97,8662.09,-21.628,10.0516,21.3264,2189.14,11023.7,1746.48,108.254,-27.1436,412.62,-779.144,-10086.3,-1819.85,1.96252,-23.8996,72.2862,-9229.92,3357.15,-611.461,7.64419,80.989,161.946,774.25,-9296.55,-1509.7,-47.3605,-54.9092,87.523,9032.2,-1309.17,1437.71,69.6547,-13.8746,39.3576
3.9765,5558.96,1717.02,13122.7,-174.34,406.915,84.4712,4546.34,1296.01,8655.95,-21.5728,9.90044,21.5481,2182.1,11087.3,1730.61,108.68,-26.2675,413.144,-768.685,-10091.8,-1859.11,2.09439,-24.113,72.4017,-9230.84,3299.35,-592.664,7.04704,82.6231,161.574,772.635,-9298.25,-1520.32,-47.423,-54.8684,87.5096,9041.28,-1288.51,1405.77,69.8058,-13.9329,39.1648
3.977,5655.1,1696.43,13163.6,-174.075,407.32,84.6695,4547.69,1326.05,8649.82,-21.5175,9.74927,21.7697,2175.06,11150.9,1714.74,109.106,-25.3913,413.668,-758.226,-10097.2,-1898.38,2.22626,-24.3264,72.5172,-9231.76,3241.56,-573.868,6.44989,84.2571,161.203,771.021,-9299.95,-1530.94,-47.4855,-54.8276,87.4961,9050.36,-1267.86,1373.82,69.957,-13.9911,38.972
3.9775,5751.25,1675.83,13204.5,-173.811,407.725,84.8678,4549.03,1356.09,8643.68,-21.4623,9.5981,21.9913,2168.02,11214.4,1698.87,109.532,-24.5151,414.192,-747.767,-10102.7,-1937.64,2.35814,-24.5398,72.6326,-9232.68,3183.77,-555.072,5.85275,85.8912,160.831,769.406,-9301.65,-1541.56,-47.548,-54.7868,87.4826,9059.44,-1247.2,1341.88,70.1081,-14.0493,38.7793
3.978,5841.25,1651.09,13242.6,-173.428,408.106,85.1277,4542.85,1384.08,8641.91,-21.4115,9.45935,22.2516,2169.19,11273.6,1687.56,109.91,-23.5615,414.707,-741.492,-10107.2,-1969.99,2.42531,-24.6622,72.7207,-9225.8,3126.36,-510.994,5.23974,87.5577,160.344,762.576,-9300.86,-1547.08,-47.6134,-54.8026,87.5004,9066.79,-1226.04,1317.82,70.2258,-14.1021,38.6109
3.9785,5923.55,1621.17,13277.1,-172.898,408.456,85.4648,4527.24,1409.52,8645.6,-21.3661,9.33612,22.5602,2180.6,11327.1,1681.96,110.226,-22.5111,415.209,-740.446,-10110.6,-1993.68,2.41162,-24.6708,72.7746,-9209.15,3069.43,-435.316,4.60692,89.2648,159.715,749.228,-9296.96,-1546.22,-47.6825,-54.889,87.5572,9071.97,-1204.26,1303.63,70.3015,-14.1481,38.4731
3.979,6005.85,1591.25,13311.6,-172.368,408.806,85.8019,4511.64,1434.95,8649.28,-21.3207,9.21289,22.8688,2192.02,11380.7,1676.36,110.542,-21.4606,415.711,-739.4,-10114.0,-2017.37,2.39792,-24.6795,72.8284,-9192.5,3012.5,-359.637,3.97409,90.972,159.085,735.879,-9293.07,-1545.36,-47.7516,-54.9755,87.614,9077.14,-1182.47,1289.44,70.3773,-14.1942,38.3353
3.9795,6088.15,1561.33,13346.1,-171.838,409.156,86.1389,4496.03,1460.38,8652.96,-21.2753,9.08965,23.1774,2203.43,11434.3,1670.76,110.859,-20.4102,416.214,-738.354,-10117.4,-2041.07,2.38423,-24.6881,72.8823,-9175.85,2955.57,-283.958,3.34127,92.6791,158.455,722.53,-9289.17,-1544.5,-47.8208,-55.0619,87.6708,9082.32,-1160.69,1275.25,70.4531,-14.2402,38.1975
3.98,6170.46,1531.41,13380.6,-171.308,409.505,86.476,4480.43,1485.81,8656.65,-21.2299,8.96642,23.486,2214.84,11487.9,1665.16,111.175,-19.3598,416.716,-737.308,-10120.8,-2064.76,2.37054,-24.6968,72.9361,-9159.2,2898.64,-208.279,2.70844,94.3862,157.826,709.181,-9285.27,-1543.64,-47.8899,-55.1484,87.7276,9087.5,-1138.91,1261.06,70.5288,-14.2862,38.0597
3.9805,6252.76,1501.49,13415.1,-170.777,409.855,86.8131,4464.83,1511.25,8660.33,-21.1845,8.84319,23.7946,2226.26,11541.4,1659.56,111.492,-18.3093,417.218,-736.262,-10124.1,-2088.45,2.35684,-24.7054,72.99,-9142.55,2841.71,-132.6,2.07561,96.0934,157.196,695.833,-9281.38,-1542.78,-47.959,-55.2348,87.7844,9092.67,-1117.12,1246.86,70.6046,-14.3323,37.9219
3.981,6335.06,1471.57,13449.6,-170.247,410.205,87.1501,4449.22,1536.68,8664.02,-21.1391,8.71996,24.1032,2237.67,11595.0,1653.96,111.808,-17.2589,417.721,-735.216,-10127.5,-2112.15,2.34315,-24.714,73.0439,-9125.9,2784.78,-56.9211,1.44279,97.8005,156.566,682.484,-9277.48,-1541.92,-48.0281,-55.3213,87.8411,9097.85,-1095.34,1232.67,70.6803,-14.3783,37.7841
3.9815,6417.36,1441.64,13484.1,-169.717,410.555,87.4872,4433.62,1562.11,8667.7,-21.0937,8.59672,24.4118,2249.09,11648.6,1648.36,112.125,-16.2085,418.223,-734.17,-10130.9,-2135.84,2.32946,-24.7227,73.0977,-9109.25,2727.85,18.7578,0.809963,99.5077,155.937,669.135,-9273.58,-1541.06,-48.0973,-55.4077,87.8979,9103.03,-1073.55,1218.48,70.7561,-14.4243,37.6463
3.982,6499.66,1411.72,13518.6,-169.187,410.905,87.8243,4418.01,1587.55,8671.38,-21.0483,8.47349,24.7204,2260.5,11702.2,1642.76,112.441,-15.158,418.725,-733.124,-10134.3,-2159.53,2.31576,-24.7313,73.1516,-9092.6,2670.92,94.4367,0.177137,101.215,155.307,655.787,-9269.69,-1540.2,-48.1664,-55.4942,87.9547,9108.2,-1051.77,1204.29,70.8319,-14.4704,37.5085
3.9825,6566.55,1375.65,13569.0,-168.658,411.163,88.3082,4396.7,1605.38,8680.09,-21.0293,8.3603,25.0513,2266.91,11759.7,1644.96,112.712,-14.038,419.162,-728.794,-10126.9,-2183.66,2.35634,-24.706,73.2378,-9043.59,2626.67,179.248,-0.271559,102.496,154.497,634.783,-9271.3,-1539.04,-48.2624,-55.6149,88.0416,9090.08,-1021.9,1193.23,70.8511,-14.5473,37.3879
3.983,6621.1,1334.64,13632.2,-168.13,411.348,88.9095,4370.84,1617.15,8692.83,-21.0313,8.25515,25.4,2269.32,11820.3,1653.4,112.947,-12.8622,419.546,-721.836,-10111.1,-2208.13,2.44033,-24.6536,73.35,-8968.68,2592.55,271.366,-0.57295,103.435,153.544,607.657,-9277.31,-1537.65,-48.3801,-55.7631,88.1527,9053.31,-985.566,1184.68,70.8252,-14.649,37.2811
3.9835,6675.65,1293.64,13695.4,-167.601,411.532,89.5108,4344.97,1628.91,8705.55,-21.0332,8.15,25.7488,2271.73,11881.0,1661.83,113.181,-11.6865,419.93,-714.878,-10095.2,-2232.6,2.52432,-24.6012,73.4622,-8893.78,2558.43,363.483,-0.874341,104.375,152.59,580.53,-9283.33,-1536.26,-48.4977,-55.9113,88.2637,9016.55,-949.23,1176.13,70.7993,-14.7507,37.1743
3.984,6730.2,1252.63,13758.6,-167.073,411.717,90.1122,4319.1,1640.67,8718.29,-21.0352,8.04485,26.0976,2274.14,11941.7,1670.27,113.416,-10.5107,420.314,-707.919,-10079.3,-2257.08,2.6083,-24.5487,73.5743,-8818.88,2524.32,455.6,-1.17573,105.314,151.636,553.403,-9289.34,-1534.87,-48.6153,-56.0595,88.3747,8979.78,-912.894,1167.58,70.7734,-14.8523,37.0675
3.9845,6784.75,1211.63,13821.9,-166.545,411.901,90.7135,4293.23,1652.43,8731.02,-21.0372,7.9397,26.4463,2276.54,12002.4,1678.7,113.651,-9.33497,420.698,-700.961,-10063.5,-2281.55,2.69229,-24.4963,73.6865,-8743.98,2490.2,547.718,-1.47712,106.254,150.682,526.276,-9295.35,-1533.48,-48.733,-56.2077,88.4857,8943.01,-876.559,1159.03,70.7475,-14.954,36.9607
3.985,6839.3,1170.63,13885.1,-166.017,412.086,91.3149,4267.36,1664.19,8743.75,-21.0392,7.83455,26.7951,2278.95,12063.0,1687.14,113.885,-8.15922,421.082,-694.003,-10047.6,-2306.02,2.77628,-24.4439,73.7986,-8669.08,2456.08,639.835,-1.77852,107.194,149.729,499.15,-9301.37,-1532.09,-48.8506,-56.3559,88.5968,8906.25,-840.223,1150.48,70.7216,-15.0557,36.8538
3.9855,6893.85,1129.62,13948.3,-165.488,412.27,91.9162,4241.49,1675.96,8756.48,-21.0412,7.7294,27.1439,2281.36,12123.7,1695.58,114.12,-6.98347,421.465,-687.045,-10031.7,-2330.49,2.86027,-24.3915,73.9108,-8594.18,2421.97,731.953,-2.07991,108.133,148.775,472.023,-9307.38,-1530.7,-48.9682,-56.5041,88.7078,8869.48,-803.887,1141.93,70.6957,-15.1574,36.747
3.986,6948.39,1088.62,14011.5,-164.96,412.455,92.5175,4215.63,1687.72,8769.21,-21.0432,7.62425,27.4926,2283.77,12184.4,1704.01,114.355,-5.80772,421.849,-680.087,-10015.9,-2354.96,2.94426,-24.339,74.0229,-8519.27,2387.85,824.07,-2.3813,109.073,147.821,444.896,-9313.4,-1529.31,-49.0858,-56.6523,88.8188,8832.72,-767.551,1133.38,70.6698,-15.259,36.6402
3.9865,7002.94,1047.61,14074.7,-164.432,412.639,93.1189,4189.76,1699.48,8781.94,-21.0452,7.5191,27.8414,2286.17,12245.0,1712.45,114.589,-4.63197,422.233,-673.129,-9999.99,-2379.44,3.02825,-24.2866,74.1351,-8444.37,2353.73,916.188,-2.68269,110.013,146.868,417.769,-9319.41,-1527.92,-49.2035,-56.8006,88.9298,8795.95,-731.215,1124.83,70.6439,-15.3607,36.5334
3.987,7052.31,1039.56,14137.0,-163.879,412.695,93.9113,4174.58,1702.86,8789.71,-21.0085,7.40457,28.1743,2293.59,12314.3,1723.63,114.809,-3.36534,422.539,-671.966,-9996.03,-2399.83,3.1067,-24.3155,74.2035,-8364.6,2307.37,1013.34,-2.72266,109.861,145.643,382.31,-9322.62,-1535.24,-49.3282,-56.9662,89.0754,8773.29,-716.781,1109.19,70.759,-15.4873,36.402
3.9875,7099.09,1047.98,14198.9,-163.314,412.685,94.7992,4164.75,1702.04,8795.0,-20.9526,7.28536,28.4994,2303.52,12388.0,1736.18,115.02,-2.05326,422.806,-673.701,-9998.04,-2418.18,3.18237,-24.3851,74.25,-8282.39,2254.88,1113.01,-2.63193,109.164,144.283,342.686,-9324.41,-1546.91,-49.4566,-57.1406,89.2383,8757.67,-713.299,1090.01,70.9446,-15.6262,36.2583
3.988,7145.87,1056.4,14260.7,-162.748,412.676,95.6871,4154.92,1701.22,8800.29,-20.8966,7.16615,28.8244,2313.45,12461.6,1748.73,115.232,-0.741187,423.072,-675.436,-10000.0,-2436.53,3.25805,-24.4547,74.2965,-8200.18,2202.39,1212.67,-2.54119,108.466,142.923,303.061,-9326.21,-1558.58,-49.5849,-57.315,89.4011,8742.06,-709.816,1070.83,71.1301,-15.7652,36.1146
3.9885,7192.65,1064.82,14322.6,-162.183,412.667,96.5751,4145.1,1700.41,8805.58,-20.8407,7.04694,29.1494,2323.38,12535.2,1761.28,115.444,0.570889,423.339,-677.171,-10002.0,-2454.89,3.33373,-24.5243,74.343,-8117.97,2149.9,1312.34,-2.45045,107.769,141.563,263.436,-9328.01,-1570.25,-49.7133,-57.4893,89.564,8726.44,-706.334,1051.64,71.3157,-15.9042,35.9709
3.989,7239.42,1073.24,14384.5,-161.618,412.657,97.463,4135.27,1699.59,8810.87,-20.7848,6.92773,29.4745,2333.31,12608.8,1773.83,115.655,1.88296,423.606,-678.906,-10004.0,-2473.24,3.40941,-24.5939,74.3896,-8035.76,2097.41,1412.01,-2.35972,107.071,140.203,223.811,-9329.8,-1581.92,-49.8416,-57.6637,89.7269,8710.83,-702.851,1032.46,71.5012,-16.0431,35.8272
3.9895,7286.2,1081.66,14446.3,-161.053,412.648,98.3509,4125.44,1698.77,8816.16,-20.7288,6.80852,29.7995,2343.23,12682.4,1786.38,115.867,3.19504,423.872,-680.641,-10006.0,-2491.59,3.48508,-24.6635,74.4361,-7953.56,2044.93,1511.67,-2.26898,106.374,138.843,184.186,-9331.6,-1593.59,-49.97,-57.8381,89.8897,8695.22,-699.368,1013.28,71.6868,-16.1821,35.6835
3.99,7332.98,1090.08,14508.2,-160.487,412.639,99.2389,4115.61,1697.96,8821.45,-20.6729,6.68931,30.1245,2353.16,12756.0,1798.93,116.079,4.50712,424.139,-682.376,-10008.1,-2509.94,3.56076,-24.7331,74.4826,-7871.35,1992.44,1611.34,-2.17824,105.677,137.483,144.562,-9333.39,-1605.26,-50.0983,-58.0125,90.0526,8679.6,-695.886,994.092,71.8724,-16.3211,35.5398
3.9905,7379.75,1098.5,14570.0,-159.922,412.629,100.127,4105.78,1697.14,8826.74,-20.6169,6.5701,30.4496,2363.09,12829.6,1811.48,116.29,5.81919,424.406,-684.111,-10010.1,-2528.3,3.63644,-24.8027,74.5291,-7789.14,1939.95,1711.01,-2.08751,104.979,136.123,104.937,-9335.19,-1616.93,-50.2267,-58.1869,90.2154,8663.99,-692.403,974.909,72.0579,-16.46,35.3962
3.991,7426.53,1106.92,14631.9,-159.357,412.62,101.015,4095.96,1696.32,8832.03,-20.561,6.45089,30.7746,2373.02,12903.3,1824.03,116.502,7.13127,424.672,-685.846,-10012.1,-2546.65,3.71212,-24.8722,74.5757,-7706.93,1887.46,1810.67,-1.99677,104.282,134.763,65.3119,-9336.99,-1628.6,-50.355,-58.3612,90.3783,8648.37,-688.92,955.725,72.2435,-16.599,35.2525
3.9915,7489.4,1126.46,14665.5,-158.552,412.499,102.176,4095.26,1694.35,8835.98,-20.3986,6.32178,31.0963,2390.81,12985.8,1829.54,116.662,8.56567,424.923,-696.017,-10017.5,-2544.2,3.74615,-25.0209,74.659,-7632.87,1870.6,1905.74,-2.38827,102.445,133.974,28.5244,-9344.4,-1633.31,-50.4115,-58.6005,90.5753,8637.32,-673.949,939.4,72.4065,-16.8682,35.1501
3.992,7556.86,1149.19,14691.0,-157.678,412.346,103.416,4097.18,1692.04,8839.54,-20.2059,6.18984,31.417,2410.85,13071.0,1833.05,116.808,10.035,425.168,-708.599,-10024.0,-2535.81,3.76827,-25.1922,74.7527,-7561.14,1863.91,1999.48,-2.91754,100.283,133.347,-7.45247,-9353.42,-1636.03,-50.4474,-58.8582,90.7821,8627.56,-655.694,923.892,72.5631,-17.1746,35.0596
3.9925,7624.32,1171.91,14716.5,-156.804,412.194,104.656,4099.1,1689.73,8843.11,-20.0131,6.05789,31.7378,2430.88,13156.1,1836.56,116.953,11.5044,425.414,-721.18,-10030.5,-2527.42,3.7904,-25.3635,74.8465,-7489.4,1857.23,2093.23,-3.44682,98.1203,132.721,-43.4293,-9362.44,-1638.74,-50.4833,-59.1159,90.9888,8617.81,-637.439,908.383,72.7197,-17.481,34.9691
3.993,7691.79,1194.63,14742.0,-155.931,412.041,105.896,4101.02,1687.43,8846.67,-19.8204,5.92595,32.0585,2450.92,13241.2,1840.07,117.098,12.9737,425.659,-733.761,-10037.0,-2519.03,3.81252,-25.5348,74.9403,-7417.67,1850.54,2186.98,-3.9761,95.9578,132.095,-79.4062,-9371.46,-1641.46,-50.5192,-59.3737,91.1956,8608.05,-619.184,892.875,72.8763,-17.7874,34.8786
3.9935,7759.25,1217.35,14767.5,-155.057,411.888,107.136,4102.93,1685.12,8850.24,-19.6276,5.794,32.3793,2470.96,13326.4,1843.57,117.244,14.443,425.905,-746.343,-10043.5,-2510.64,3.83465,-25.7061,75.0341,-7345.94,1843.86,2280.73,-4.50537,93.7954,131.468,-115.383,-9380.49,-1644.18,-50.5551,-59.6314,91.4024,8598.3,-600.93,877.366,73.0329,-18.0938,34.7881
3.994,7826.71,1240.07,14793.0,-154.183,411.736,108.376,4104.85,1682.81,8853.8,-19.4349,5.66206,32.7,2491.0,13411.5,1847.08,117.389,15.9124,426.151,-758.924,-10049.9,-2502.24,3.85677,-25.8774,75.1278,-7274.2,1837.17,2374.48,-5.03465,91.633,130.842,-151.36,-9389.51,-1646.9,-50.591,-59.8891,91.6091,8588.54,-582.675,861.858,73.1895,-18.4002,34.6976
3.9945,7894.17,1262.8,14818.5,-153.31,411.583,109.616,4106.77,1680.51,8857.37,-19.2422,5.53011,33.0207,2511.03,13496.6,1850.59,117.535,17.3817,426.396,-771.505,-10056.4,-2493.85,3.8789,-26.0487,75.2216,-7202.47,1830.49,2468.22,-5.56392,89.4706,130.215,-187.337,-9398.53,-1649.62,-50.6269,-60.1469,91.8159,8578.79,-564.42,846.349,73.346,-18.7066,34.607
3.995,7961.64,1285.52,14844.0,-152.436,411.43,110.856,4108.69,1678.2,8860.94,-19.0494,5.39817,33.3415,2531.07,13581.8,1854.1,117.68,18.8511,426.642,-784.087,-10062.9,-2485.46,3.90103,-26.22,75.3154,-7130.73,1823.8,2561.97,-6.0932,87.3082,129.589,-223.314,-9407.55,-1652.33,-50.6628,-60.4046,92.0226,8569.03,-546.166,830.84,73.5026,-19.013,34.5165
3.9955,8029.1,1308.24,14869.5,-151.563,411.278,112.096,4110.61,1675.9,8864.5,-18.8567,5.26623,33.6622,2551.11,13666.9,1857.6,117.825,20.3204,426.888,-796.668,-10069.4,-2477.07,3.92315,-26.3913,75.4092,-7059.0,1817.12,2655.72,-6.62248,85.1457,128.963,-259.291,-9416.57,-1655.05,-50.6987,-60.6623,92.2294,8559.28,-527.911,815.332,73.6592,-19.3194,34.426
3.996,8094.97,1305.29,14884.8,-150.668,410.924,113.347,4121.84,1669.92,8874.56,-18.6816,5.1077,34.0016,2554.5,13759.0,1852.5,118.009,21.9829,427.109,-819.713,-10086.4,-2485.21,4.02576,-26.5047,75.5472,-7056.92,1799.91,2669.69,-7.71381,82.8808,128.786,-304.814,-9436.46,-1658.7,-50.8088,-60.9755,92.4151,8539.34,-522.657,792.519,73.6693,-19.4635,34.352
3.9965,8160.64,1299.14,14898.8,-149.77,410.544,114.599,4134.25,1663.48,8885.43,-18.5087,4.94585,34.3433,2555.81,13852.0,1846.32,118.197,23.6696,427.327,-844.066,-10104.7,-2495.42,4.13843,-26.6109,75.6908,-7063.54,1781.38,2673.69,-8.8754,80.6029,128.665,-351.53,-9457.71,-1662.46,-50.9281,-61.2956,92.5982,8518.13,-519.027,768.794,73.6611,-19.5875,34.2801
3.997,8226.31,1292.99,14912.8,-148.873,410.165,115.852,4146.65,1657.04,8896.3,-18.3359,4.78399,34.685,2557.12,13945.0,1840.15,118.386,25.3562,427.545,-868.42,-10123.0,-2505.63,4.2511,-26.7171,75.8343,-7070.17,1762.85,2677.69,-10.037,78.3251,128.544,-398.247,-9478.97,-1666.23,-51.0474,-61.6156,92.7813,8496.91,-515.398,745.068,73.6528,-19.7114,34.2081
3.9975,8291.98,1286.83,14926.9,-147.975,409.786,117.104,4159.05,1650.6,8907.17,-18.163,4.62214,35.0267,2558.43,14037.9,1833.97,118.574,27.0429,427.763,-892.773,-10141.3,-2515.83,4.36377,-26.8233,75.9779,-7076.79,1744.32,2681.69,-11.1986,76.0473,128.423,-444.963,-9500.22,-1669.99,-51.1667,-61.9357,92.9644,8475.7,-511.768,721.343,73.6446,-19.8353,34.1362
3.998,8357.65,1280.68,14940.9,-147.078,409.407,118.356,4171.45,1644.16,8918.04,-17.9902,4.46029,35.3684,2559.74,14130.9,1827.79,118.762,28.7295,427.981,-917.126,-10159.6,-2526.04,4.47644,-26.9295,76.1215,-7083.41,1725.8,2685.69,-12.3602,73.7695,128.302,-491.68,-9521.47,-1673.76,-51.286,-62.2558,93.1475,8454.49,-508.139,697.617,73.6363,-19.9592,34.0642
3.9985,8423.32,1274.52,14954.9,-146.18,409.027,119.608,4183.86,1637.73,8928.9,-17.8173,4.29844,35.7101,2561.04,14223.9,1821.61,118.951,30.4162,428.199,-941.48,-10177.9,-2536.25,4.58911,-27.0356,76.265,-7090.04,1707.27,2689.69,-13.5218,71.4917,128.181,-538.396,-9542.72,-1677.52,-51.4054,-62.5759,93.3305,8433.27,-504.509,673.892,73.6281,-20.0832,33.9923
3.999,8488.99,1268.37,14969.0,-145.283,408.648,120.861,4196.26,1631.29,8939.77,-17.6445,4.13659,36.0519,2562.35,14316.9,1815.43,119.139,32.1028,428.417,-965.833,-10196.3,-2546.46,4.70178,-27.1418,76.4086,-7096.66,1688.74,2693.69,-14.6833,69.2139,128.06,-585.113,-9563.98,-1681.29,-51.5247,-62.896,93.5136,8412.06,-500.88,650.167,73.6198,-20.2071,33.9203
3.9995,8554.66,1262.21,14983.0,-144.385,408.269,122.113,4208.66,1624.85,8950.64,-17.4716,3.97474,36.3936,2563.66,14409.8,1809.26,119.328,33.7895,428.635,-990.186,-10214.6,-2556.67,4.81445,-27.248,76.5522,-7103.28,1670.21,2697.69,-15.8449,66.9361,127.939,-631.829,-9585.23,-1685.05,-51.644,-63.216,93.6967,8390.85,-497.251,626.441,73.6116,-20.331,33.8484
4.0,8620.32,1256.06,14997.0,-143.488,407.89,123.365,4221.06,1618.41,8961.51,-17.2988,3.81289,36.7353,2564.97,14502.8,1803.08,119.516,35.4761,428.853,-1014.54,-10232.9,-2566.87,4.92712,-27.3542,76.6957,-7109.91,1651.69,2701.69,-17.0065,64.6583,127.819,-678.545,-9606.48,-1688.82,-51.7633,-63.5361,93.8798,8369.63,-493.621,602.716,73.6034,-20.4549,33.7765
4.0005,8654.18,1254.24,15022.4,-142.734,407.274,124.761,4245.72,1608.72,8957.13,-17.0633,3.59905,37.0805,2550.64,14596.9,1796.85,119.759,37.2622,429.068,-1059.35,-10256.5,-2561.73,4.954,-27.5163,76.7308,-7186.41,1626.9,2670.09,-18.1753,62.4853,127.768,-710.493,-9635.44,-1685.55,-51.8927,-63.8894,94.1472,8341.13,-496.938,596.085,73.7316,-20.6179,33.5945
4.001,8688.03,1252.42,15047.7,-141.981,406.659,126.157,4270.37,1599.03,8952.74,-16.8278,3.38522,37.4256,2536.31,14690.9,1790.63,120.001,39.0483,429.283,-1104.15,-10280.1,-2556.59,4.98089,-27.6784,76.7658,-7262.92,1602.12,2638.49,-19.344,60.3123,127.717,-742.441,-9664.4,-1682.28,-52.022,-64.2427,94.4145,8312.62,-500.255,589.454,73.8599,-20.7808,33.4125
4.0015,8721.88,1250.6,15073.0,-141.228,406.044,127.553,4295.02,1589.34,8948.35,-16.5923,3.17139,37.7708,2521.97,14784.9,1784.41,120.244,40.8343,429.498,-1148.96,-10303.8,-2551.45,5.00778,-27.8404,76.8009,-7339.43,1577.33,2606.89,-20.5128,58.1392,127.666,-774.389,-9693.35,-1679.01,-52.1513,-64.596,94.6819,8284.11,-503.572,582.823,73.9882,-20.9437,33.2306
4.002,8755.74,1248.79,15098.4,-140.474,405.429,128.949,4319.67,1579.66,8943.97,-16.3568,2.95755,38.116,2507.64,14878.9,1778.19,120.487,42.6204,429.712,-1193.76,-10327.4,-2546.31,5.03466,-28.0025,76.8359,-7415.93,1552.55,2575.29,-21.6815,55.9662,127.615,-806.337,-9722.31,-1675.74,-52.2806,-64.9493,94.9493,8255.6,-506.889,576.193,74.1165,-21.1066,33.0486
4.0025,8789.59,1246.97,15123.7,-139.721,404.813,130.344,4344.32,1569.97,8939.58,-16.1214,2.74372,38.4612,2493.31,14973.0,1771.97,120.73,44.4065,429.927,-1238.57,-10351.0,-2541.17,5.06155,-28.1646,76.871,-7492.44,1527.77,2543.69,-22.8503,53.7932,127.564,-838.284,-9751.27,-1672.47,-52.4099,-65.3026,95.2167,8227.1,-510.206,569.562,74.2447,-21.2696,32.8667
4.003,8823.45,1245.15,15149.1,-138.968,404.198,131.74,4368.97,1560.28,8935.19,-15.8859,2.52989,38.8063,2478.98,15067.0,1765.74,120.972,46.1926,430.142,-1283.38,-10374.7,-2536.03,5.08843,-28.3267,76.906,-7568.94,1502.98,2512.1,-24.019,51.6202,127.513,-870.232,-9780.22,-1669.2,-52.5392,-65.6559,95.4841,8198.59,-513.523,562.931,74.373,-21.4325,32.6847
4.0035,8857.3,1243.33,15174.4,-138.215,403.583,133.136,4393.62,1550.59,8930.81,-15.6504,2.31605,39.1515,2464.65,15161.0,1759.52,121.215,47.9786,430.357,-1328.18,-10398.3,-2530.89,5.11532,-28.4888,76.941,-7645.45,1478.2,2480.5,-25.1878,49.4472,127.463,-902.18,-9809.18,-1665.93,-52.6685,-66.0091,95.7514,8170.08,-516.84,556.301,74.5013,-21.5954,32.5028
4.004,8891.15,1241.51,15199.8,-137.461,402.968,134.532,4418.27,1540.9,8926.42,-15.4149,2.10222,39.4967,2450.31,15255.1,1753.3,121.458,49.7647,430.571,-1372.99,-10421.9,-2525.75,5.14221,-28.6509,76.9761,-7721.96,1453.42,2448.9,-26.3566,47.2741,127.412,-934.128,-9838.14,-1662.66,-52.7979,-66.3624,96.0188,8141.57,-520.157,549.67,74.6295,-21.7583,32.3208
4.0045,8923.28,1237.21,15227.2,-136.713,402.323,135.94,4441.91,1531.8,8922.64,-15.1497,1.89222,39.8415,2434.94,15349.8,1747.57,121.696,51.5494,430.777,-1414.19,-10444.8,-2521.41,5.16297,-28.8145,77.0075,-7801.82,1429.53,2419.96,-27.5051,45.1306,127.332,-964.258,-9868.01,-1659.91,-52.9118,-66.7104,96.2938,8114.3,-522.759,543.669,74.7379,-21.9186,32.1526
4.005,8941.62,1212.98,15271.3,-136.007,401.44,137.44,4457.46,1527.39,8923.69,-14.6466,1.71285,40.1832,2411.26,15450.2,1745.84,121.893,53.323,430.911,-1426.56,-10461.1,-2523.41,5.13475,-28.9903,77.0101,-7908.59,1412.82,2412.31,-28.4923,43.2232,127.017,-979.852,-9905.23,-1661.26,-52.9031,-67.016,96.6293,8096.87,-519.644,542.704,74.6874,-22.0577,32.0949
4.0055,8959.96,1188.76,15315.4,-135.301,400.558,138.939,4473.01,1522.98,8924.73,-14.1435,1.53347,40.5248,2387.57,15550.6,1744.11,122.091,55.0966,431.044,-1438.93,-10477.5,-2525.41,5.10653,-29.1662,77.0127,-8015.37,1396.1,2404.67,-29.4794,41.3157,126.702,-995.447,-9942.45,-1662.61,-52.8944,-67.3215,96.9649,8079.45,-516.528,541.739,74.6369,-22.1969,32.0372
4.006,8978.3,1164.54,15359.5,-134.595,399.676,140.439,4488.56,1518.57,8925.78,-13.6403,1.3541,40.8665,2363.89,15651.0,1742.37,122.289,56.8703,431.178,-1451.3,-10493.9,-2527.41,5.0783,-29.342,77.0153,-8122.14,1379.39,2397.02,-30.4666,39.4083,126.387,-1011.04,-9979.67,-1663.96,-52.8857,-67.6271,97.3004,8062.02,-513.412,540.774,74.5864,-22.336,31.9795
4.0065,8996.64,1140.31,15403.6,-133.888,398.794,141.939,4504.1,1514.16,8926.83,-13.1372,1.17473,41.2082,2340.21,15751.4,1740.64,122.487,58.6439,431.312,-1463.67,-10510.3,-2529.41,5.05008,-29.5178,77.0179,-8228.91,1362.68,2389.37,-31.4537,37.5008,126.072,-1026.63,-10016.9,-1665.31,-52.877,-67.9327,97.636,8044.6,-510.297,539.809,74.5359,-22.4751,31.9218
4.007,9014.98,1116.09,15447.7,-133.182,397.911,143.439,4519.65,1509.75,8927.88,-12.6341,0.995361,41.5498,2316.52,15851.8,1738.9,122.685,60.4175,431.445,-1476.05,-10526.7,-2531.41,5.02186,-29.6936,77.0205,-8335.68,1345.97,2381.72,-32.4408,35.5934,125.757,-1042.23,-10054.1,-1666.67,-52.8683,-68.2382,97.9715,8027.17,-507.181,538.844,74.4854,-22.6143,31.8641
4.0075,9033.32,1091.86,15491.8,-132.476,397.029,144.939,4535.2,1505.34,8928.92,-12.1309,0.815991,41.8915,2292.84,15952.2,1737.17,122.882,62.1911,431.579,-1488.42,-10543.1,-2533.41,4.99364,-29.8695,77.023,-8442.45,1329.25,2374.08,-33.428,33.6859,125.442,-1057.82,-10091.3,-1668.02,-52.8596,-68.5438,98.3071,8009.75,-504.065,537.879,74.4349,-22.7534,31.8064
4.008,9051.66,1067.64,15535.9,-131.77,396.147,146.439,4550.75,1500.93,8929.97,-11.6278,0.63662,42.2332,2269.15,16052.6,1735.43,123.08,63.9647,431.713,-1500.79,-10559.5,-2535.41,4.96541,-30.0453,77.0256,-8549.22,1312.54,2366.43,-34.4151,31.7785,125.127,-1073.42,-10128.5,-1669.37,-52.8509,-68.8493,98.6427,7992.33,-500.95,536.914,74.3844,-22.8925,31.7487
4.0085,9070.0,1043.42,15580.0,-131.064,395.265,147.939,4566.29,1496.51,8931.02,-11.1247,0.457249,42.5748,2245.47,16153.0,1733.7,123.278,65.7384,431.846,-1513.16,-10575.9,-2537.41,4.93719,-30.2211,77.0282,-8655.99,1295.83,2358.78,-35.4023,29.871,124.812,-1089.01,-10165.8,-1670.72,-52.8422,-69.1549,98.9782,7974.9,-497.834,535.949,74.3339,-23.0316,31.691
4.009,9098.26,1027.22,15624.2,-130.387,394.361,149.455,4577.85,1484.28,8936.51,-10.6097,0.278596,42.8952,2215.6,16255.4,1728.55,123.47,67.5184,431.949,-1523.91,-10595.6,-2535.33,4.90264,-30.3811,77.0337,-8750.8,1284.83,2355.38,-36.2873,28.0499,124.511,-1100.5,-10198.1,-1672.79,-52.8225,-69.4586,99.3151,7957.13,-496.288,534.587,74.2701,-23.1749,31.6376
4.0095,9161.24,1039.15,15668.8,-129.815,393.384,151.024,4575.43,1444.68,8957.56,-10.0531,0.102455,43.1411,2164.12,16364.9,1711.48,123.641,69.321,431.944,-1529.0,-10627.2,-2518.96,4.84593,-30.4857,77.0491,-8803.72,1293.87,2366.82,-36.8152,26.5311,124.259,-1097.64,-10213.3,-1677.36,-52.7642,-69.7559,99.6569,7938.15,-500.234,531.835,74.1594,-23.3324,31.5993
4.01,9224.22,1051.08,15713.4,-129.243,392.406,152.593,4573.01,1405.08,8978.62,-9.49647,-0.0736865,43.3871,2112.63,16474.4,1694.4,123.812,71.1236,431.939,-1534.09,-10658.9,-2502.59,4.78922,-30.5903,77.0645,-8856.64,1302.9,2378.26,-37.343,25.0123,124.006,-1094.77,-10228.6,-1681.94,-52.7058,-70.0531,99.9987,7919.17,-504.18,529.083,74.0487,-23.49,31.5609
4.0105,9287.2,1063.01,15758.0,-128.672,391.428,154.162,4570.6,1365.47,8999.67,-8.93987,-0.249827,43.633,2061.14,16583.9,1677.32,123.983,72.9261,431.934,-1539.18,-10690.5,-2486.22,4.7325,-30.6949,77.08,-8909.56,1311.93,2389.7,-37.8708,23.4934,123.754,-1091.9,-10243.8,-1686.52,-52.6475,-70.3504,100.34,7900.18,-508.125,526.331,73.938,-23.6475,31.5226
4.011,9350.18,1074.93,15802.6,-128.1,390.451,155.732,4568.18,1325.87,9020.72,-8.38328,-0.425968,43.8789,2009.66,16693.4,1660.24,124.154,74.7287,431.929,-1544.27,-10722.1,-2469.85,4.67579,-30.7995,77.0954,-8962.48,1320.97,2401.14,-38.3987,21.9746,123.502,-1089.04,-10259.0,-1691.09,-52.5892,-70.6476,100.682,7881.2,-512.071,523.578,73.8272,-23.8051,31.4843
4.0115,9413.16,1086.86,15847.2,-127.528,389.473,157.301,4565.76,1286.26,9041.77,-7.82669,-0.602109,44.1249,1958.17,16803.0,1643.17,124.325,76.5313,431.924,-1549.35,-10753.7,-2453.48,4.61908,-30.9041,77.1108,-9015.4,1330.0,2412.58,-38.9265,20.4558,123.249,-1086.17,-10274.3,-1695.67,-52.5309,-70.9449,101.024,7862.22,-516.017,520.826,73.7165,-23.9627,31.446
4.012,9476.13,1098.79,15891.8,-126.956,388.495,158.87,4563.34,1246.66,9062.83,-7.27009,-0.77825,44.3708,1906.68,16912.5,1626.09,124.496,78.3339,431.919,-1554.44,-10785.3,-2437.11,4.56237,-31.0087,77.1262,-9068.33,1339.03,2424.02,-39.4544,18.9369,122.997,-1083.3,-10289.5,-1700.25,-52.4726,-71.2422,101.366,7843.24,-519.963,518.074,73.6059,-24.1202,31.4076
4.0125,9539.12,1110.71,15936.4,-126.384,387.518,160.439,4560.93,1207.05,9083.88,-6.7135,-0.954391,44.6167,1855.2,17022.0,1609.01,124.668,80.1365,431.913,-1559.53,-10816.9,-2420.74,4.50566,-31.1133,77.1417,-9121.25,1348.07,2435.46,-39.9822,17.4181,122.745,-1080.44,-10304.7,-1704.82,-52.4142,-71.5394,101.707,7824.25,-523.909,515.322,73.4951,-24.2778,31.3693
4.013,9602.09,1122.64,15981.0,-125.812,386.54,162.009,4558.51,1167.45,9104.93,-6.1569,-1.13053,44.8627,1803.71,17131.5,1591.93,124.839,81.9391,431.908,-1564.62,-10848.6,-2404.36,4.44895,-31.2179,77.1571,-9174.17,1357.1,2446.9,-40.51,15.8993,122.492,-1077.57,-10320.0,-1709.4,-52.3559,-71.8367,102.049,7805.27,-527.855,512.57,73.3844,-24.4353,31.331
4.0135,9683.28,1125.61,16029.7,-125.223,385.526,163.567,4554.32,1125.53,9126.96,-5.64013,-1.32933,45.0688,1736.49,17244.9,1572.54,124.988,83.6972,431.883,-1565.64,-10878.1,-2383.21,4.43629,-31.3778,77.1713,-9206.37,1368.0,2449.07,-40.9901,14.4934,122.164,-1076.57,-10335.1,-1717.58,-52.2896,-72.1042,102.4,7785.71,-534.751,508.192,73.2701,-24.5785,31.2933
4.014,9800.87,1110.65,16086.4,-124.599,384.441,165.105,4546.58,1078.99,9150.92,-5.203,-1.57345,45.1953,1637.79,17366.1,1548.51,125.095,85.3666,431.817,-1558.51,-10903.7,-2352.48,4.51173,-31.6484,77.1829,-9197.13,1382.62,2432.69,-41.3745,13.3136,121.682,-1079.28,-10350.0,-1732.98,-52.2072,-72.3121,102.77,7765.01,-547.548,500.561,73.1487,-24.6928,31.2569
4.0145,9918.46,1095.69,16143.1,-123.975,383.356,166.643,4538.85,1032.45,9174.89,-4.76587,-1.81758,45.3217,1539.1,17487.3,1524.49,125.203,87.0359,431.751,-1551.38,-10929.2,-2321.76,4.58718,-31.9189,77.1945,-9187.88,1397.25,2416.32,-41.7589,12.1337,121.2,-1082.0,-10365.0,-1748.37,-52.1247,-72.52,103.139,7744.31,-560.345,492.931,73.0272,-24.8071,31.2205
4.015,10036.0,1080.73,16199.8,-123.352,382.271,168.18,4531.11,985.904,9198.85,-4.32874,-2.0617,45.4482,1440.41,17608.5,1500.46,125.31,88.7053,431.685,-1544.25,-10954.7,-2291.03,4.66262,-32.1895,77.2061,-9178.64,1411.88,2399.94,-42.1433,10.9538,120.718,-1084.72,-10379.9,-1763.77,-52.0423,-72.728,103.508,7723.61,-573.142,485.301,72.9058,-24.9214,31.1841
4.0155,10153.6,1065.77,16256.5,-122.728,381.186,169.718,4523.38,939.362,9222.82,-3.89162,-2.30582,45.5747,1341.71,17729.6,1476.43,125.417,90.3746,431.618,-1537.12,-10980.2,-2260.31,4.73807,-32.4601,77.2177,-9169.39,1426.51,2383.57,-42.5277,9.77394,120.236,-1087.44,-10394.9,-1779.17,-51.9599,-72.9359,103.878,7702.91,-585.939,477.67,72.7843,-25.0358,31.1477
4.016,10271.2,1050.81,16313.2,-122.104,380.1,171.256,4515.64,892.819,9246.79,-3.45449,-2.54994,45.7011,1243.02,17850.8,1452.41,125.524,92.044,431.552,-1530.0,-11005.7,-2229.59,4.81351,-32.7306,77.2293,-9160.15,1441.14,2367.19,-42.9121,8.59406,119.754,-1090.16,-10409.8,-1794.56,-51.8775,-73.1438,104.247,7682.2,-598.736,470.04,72.6628,-25.1501,31.1113
4.0165,10388.8,1035.85,16370.0,-121.481,379.015,172.793,4507.9,846.276,9270.75,-3.01736,-2.79406,45.8276,1144.32,17972.0,1428.38,125.631,93.7133,431.486,-1522.87,-11031.2,-2198.86,4.88895,-33.0012,77.2409,-9150.91,1455.76,2350.82,-43.2965,7.41418,119.272,-1092.88,-10424.8,-1809.96,-51.7951,-73.3517,104.617,7661.5,-611.533,462.409,72.5414,-25.2644,31.0749
4.017,10506.4,1020.89,16426.7,-120.857,377.93,174.331,4500.17,799.733,9294.72,-2.58023,-3.03818,45.9541,1045.63,18093.2,1404.35,125.738,95.3827,431.42,-1515.74,-11056.7,-2168.14,4.9644,-33.2717,77.2525,-9141.66,1470.39,2334.44,-43.6809,6.2343,118.79,-1095.6,-10439.7,-1825.35,-51.7127,-73.5596,104.986,7640.8,-624.33,454.779,72.4199,-25.3787,31.0385
4.0175,10624.0,1005.94,16483.4,-120.233,376.845,175.869,4492.43,753.19,9318.69,-2.1431,-3.2823,46.0805,946.937,18214.3,1380.33,125.845,97.052,431.354,-1508.61,-11082.2,-2137.41,5.03984,-33.5423,77.2642,-9132.42,1485.02,2318.07,-44.0653,5.05443,118.308,-1098.31,-10454.7,-1840.75,-51.6303,-73.7676,105.355,7620.1,-637.127,447.149,72.2984,-25.493,31.0021
4.018,10750.1,998.972,16540.3,-119.613,375.805,177.338,4485.72,719.953,9338.62,-1.68051,-3.58357,46.1825,844.175,18334.5,1355.61,125.897,98.6522,431.254,-1507.33,-11108.8,-2112.83,5.10758,-33.7743,77.2673,-9114.22,1514.32,2294.66,-44.3954,4.05033,117.827,-1096.46,-10466.9,-1862.76,-51.5442,-73.8912,105.77,7602.37,-647.548,441.482,72.1812,-25.6776,30.9621
4.0185,10886.9,1002.0,16597.4,-118.996,374.823,178.72,4480.27,703.348,9353.51,-1.1861,-3.95629,46.2537,736.326,18453.4,1330.03,125.88,100.166,431.111,-1513.35,-11136.8,-2095.93,5.16568,-33.9582,77.2599,-9084.82,1561.97,2262.47,-44.6575,3.26595,117.348,-1088.89,-10475.6,-1893.05,-51.4536,-73.9095,106.242,7588.37,-654.999,438.271,72.0694,-25.95,30.9177
4.019,11023.7,1005.03,16654.4,-118.379,373.841,180.103,4474.83,686.743,9368.4,-0.691684,-4.329,46.3249,628.478,18572.2,1304.46,125.864,101.679,430.968,-1519.37,-11164.8,-2079.02,5.22378,-34.1422,77.2525,-9055.43,1609.61,2230.28,-44.9196,2.48157,116.869,-1081.32,-10484.3,-1923.34,-51.3629,-73.9277,106.714,7574.37,-662.451,435.059,71.9576,-26.2225,30.8733
4.0195,11160.5,1008.06,16711.5,-117.762,372.858,181.486,4469.38,670.137,9383.29,-0.197271,-4.70171,46.3962,520.629,18691.1,1278.88,125.848,103.193,430.825,-1525.4,-11192.8,-2062.12,5.28187,-34.3261,77.2451,-9026.03,1657.25,2198.09,-45.1817,1.69719,116.389,-1073.74,-10492.9,-1953.63,-51.2723,-73.946,107.186,7560.36,-669.902,431.848,71.8457,-26.4949,30.8289
4.02,11297.3,1011.09,16768.6,-117.145,371.876,182.869,4463.94,653.532,9398.18,0.297143,-5.07443,46.4674,412.78,18809.9,1253.3,125.831,104.707,430.682,-1531.42,-11220.8,-2045.22,5.33997,-34.51,77.2378,-8996.64,1704.9,2165.89,-45.4438,0.912806,115.91,-1066.17,-10501.6,-1983.91,-51.1816,-73.9643,107.658,7546.36,-677.354,428.637,71.7339,-26.7673,30.7845
4.0205,11434.1,1014.12,16825.7,-116.529,370.894,184.252,4458.49,636.927,9413.07,0.791556,-5.44714,46.5387,304.932,18928.8,1227.73,125.815,106.22,430.54,-1537.44,-11248.8,-2028.31,5.39807,-34.6939,77.2304,-8967.24,1752.54,2133.7,-45.7059,0.128426,115.431,-1058.6,-10510.3,-2014.2,-51.091,-73.9825,108.13,7532.36,-684.806,425.425,71.622,-27.0397,30.74
4.021,11570.9,1017.15,16882.8,-115.912,369.912,185.634,4453.04,620.322,9427.96,1.28597,-5.81985,46.6099,197.083,19047.7,1202.15,125.798,107.734,430.397,-1543.47,-11276.8,-2011.41,5.45617,-34.8778,77.223,-8937.84,1800.18,2101.51,-45.9681,-0.655954,114.952,-1051.03,-10519.0,-2044.49,-51.0004,-74.0008,108.601,7518.35,-692.257,422.214,71.5102,-27.3121,30.6956
4.0215,11707.7,1020.18,16939.9,-115.295,368.929,187.017,4447.6,603.716,9442.85,1.78038,-6.19257,46.6812,89.2342,19166.5,1176.57,125.782,109.248,430.254,-1549.49,-11304.8,-1994.5,5.51427,-35.0618,77.2156,-8908.45,1847.83,2069.32,-46.2302,-1.44033,114.472,-1043.45,-10527.7,-2074.78,-50.9097,-74.0191,109.073,7504.35,-699.709,419.003,71.3984,-27.5846,30.6512
4.022,11844.5,1023.21,16997.0,-114.678,367.947,188.4,4442.15,587.111,9457.74,2.2748,-6.56528,46.7524,-18.6144,19285.4,1151.0,125.765,110.761,430.111,-1555.51,-11332.8,-1977.6,5.57237,-35.2457,77.2082,-8879.05,1895.47,2037.13,-46.4923,-2.22471,113.993,-1035.88,-10536.4,-2105.07,-50.8191,-74.0374,109.545,7490.35,-707.16,415.791,71.2865,-27.857,30.6068
4.0225,11992.3,1010.28,17055.4,-113.999,366.952,189.646,4443.46,576.496,9477.61,2.77822,-6.98071,46.7844,-139.966,19402.2,1126.96,125.684,112.139,429.954,-1568.05,-11365.9,-1948.2,5.61394,-35.4514,77.2192,-8840.52,1931.78,1991.25,-46.4803,-2.69019,113.516,-1023.24,-10542.3,-2124.05,-50.7307,-73.8835,110.041,7475.1,-709.575,405.048,71.1801,-28.1229,30.5607
4.023,12148.8,984.574,17115.0,-113.269,365.947,190.783,4450.17,570.672,9501.47,3.28886,-7.43031,46.7851,-272.119,19517.3,1104.16,125.551,113.408,429.784,-1585.79,-11403.0,-1908.8,5.64229,-35.6745,77.2451,-8794.68,1959.03,1934.42,-46.2491,-2.90054,113.039,-1006.53,-10546.0,-2133.98,-50.6442,-73.592,110.556,7458.86,-707.96,388.278,71.0779,-28.3835,30.5132
4.0235,12305.3,958.872,17174.5,-112.54,364.943,191.921,4456.87,564.849,9525.32,3.7995,-7.8799,46.7857,-404.272,19632.4,1081.37,125.418,114.677,429.615,-1603.52,-11440.1,-1869.4,5.67065,-35.8977,77.2709,-8748.84,1986.27,1877.6,-46.0179,-3.11089,112.563,-989.829,-10549.7,-2143.92,-50.5576,-73.3004,111.071,7442.62,-706.344,371.509,70.9758,-28.6442,30.4657
4.024,12461.9,933.171,17234.0,-111.811,363.938,193.058,4463.58,559.026,9549.18,4.31014,-8.3295,46.7864,-536.425,19747.6,1058.57,125.285,115.946,429.445,-1621.26,-11477.3,-1830.01,5.699,-36.1208,77.2967,-8702.99,2013.51,1820.77,-45.7866,-3.32123,112.087,-973.126,-10553.4,-2153.85,-50.4711,-73.0089,111.586,7426.38,-704.729,354.74,70.8736,-28.9048,30.4182
4.0245,12618.4,907.47,17293.5,-111.081,362.933,194.195,4470.28,553.202,9573.03,4.82078,-8.7791,46.787,-668.578,19862.7,1035.77,125.151,117.215,429.276,-1639.0,-11514.4,-1790.61,5.72735,-36.344,77.3225,-8657.15,2040.76,1763.95,-45.5554,-3.53158,111.611,-956.422,-10557.1,-2163.79,-50.3846,-72.7173,112.101,7410.14,-703.114,337.971,70.7715,-29.1655,30.3707
4.025,12774.9,881.768,17353.0,-110.352,361.928,195.332,4476.99,547.379,9596.89,5.33142,-9.2287,46.7876,-800.731,19977.8,1012.97,125.018,118.484,429.107,-1656.74,-11551.5,-1751.21,5.7557,-36.5671,77.3483,-8611.31,2068.0,1707.12,-45.3241,-3.74193,111.135,-939.719,-10560.8,-2173.72,-50.298,-72.4258,112.616,7393.9,-701.499,321.201,70.6694,-29.4262,30.3232
4.0255,12931.4,856.067,17412.5,-109.623,360.923,196.469,4483.69,541.555,9620.75,5.84206,-9.67829,46.7883,-932.884,20092.9,990.168,124.885,119.753,428.937,-1674.48,-11588.6,-1711.81,5.78406,-36.7903,77.3741,-8565.47,2095.25,1650.3,-45.0929,-3.95228,110.659,-923.015,-10564.5,-2183.66,-50.2115,-72.1342,113.131,7377.66,-699.884,304.432,70.5672,-29.6868,30.2757
4.026,13088.0,830.365,17472.0,-108.894,359.918,197.606,4490.4,535.732,9644.6,6.3527,-10.1279,46.7889,-1065.04,20208.1,967.369,124.752,121.022,428.768,-1692.22,-11625.7,-1672.41,5.81241,-37.0134,77.4,-8519.63,2122.49,1593.47,-44.8617,-4.16263,110.183,-906.312,-10568.2,-2193.59,-50.125,-71.8427,113.646,7361.42,-698.269,287.663,70.4651,-29.9475,30.2282
4.0265,13244.5,804.664,17531.5,-108.164,358.913,198.744,4497.11,529.909,9668.46,6.86334,-10.5775,46.7896,-1197.19,20323.2,944.569,124.619,122.291,428.598,-1709.96,-11662.8,-1633.02,5.84076,-37.2366,77.4258,-8473.78,2149.73,1536.65,-44.6304,-4.37298,109.707,-889.608,-10571.9,-2203.53,-50.0385,-71.5511,114.161,7345.18,-696.653,270.893,70.363,-30.2081,30.1807
4.027,13422.2,770.386,17599.0,-107.317,358.053,199.883,4506.8,530.87,9691.69,7.31012,-11.1222,46.7547,-1343.5,20435.8,915.974,124.37,123.411,428.37,-1721.31,-11689.8,-1610.29,5.88288,-37.5643,77.4396,-8403.6,2176.56,1474.6,-44.0404,-4.11456,109.086,-868.62,-10575.8,-2196.75,-49.9165,-71.0733,114.689,7342.18,-701.311,244.498,70.4085,-30.4332,30.0561
4.0275,13610.4,731.819,17670.4,-106.411,357.265,201.024,4517.99,535.222,9714.6,7.72498,-11.7145,46.7022,-1496.89,20547.2,884.481,124.063,124.457,428.113,-1729.48,-11711.6,-1595.91,5.93189,-37.9443,77.4475,-8321.24,2203.17,1409.94,-43.2709,-3.62175,108.393,-845.49,-10579.8,-2181.61,-49.7769,-70.5023,115.224,7345.8,-709.104,213.29,70.528,-30.6405,29.8931
4.028,13798.7,693.252,17741.9,-105.505,356.477,202.165,4529.17,539.575,9737.52,8.13984,-12.3068,46.6497,-1650.27,20658.6,852.987,123.757,125.502,427.856,-1737.65,-11733.4,-1581.52,5.9809,-38.3243,77.4554,-8238.88,2229.79,1345.28,-42.5014,-3.12894,107.7,-822.36,-10583.9,-2166.47,-49.6372,-69.9314,115.759,7349.43,-716.898,182.082,70.6475,-30.8478,29.73
4.0285,13986.9,654.685,17813.3,-104.599,355.69,203.306,4540.36,543.928,9760.43,8.5547,-12.8991,46.5971,-1803.66,20769.9,821.494,123.45,126.548,427.599,-1745.82,-11755.2,-1567.13,6.0299,-38.7043,77.4633,-8156.53,2256.4,1280.62,-41.7319,-2.63613,107.006,-799.23,-10587.9,-2151.33,-49.4976,-69.3604,116.294,7353.05,-724.691,150.874,70.767,-31.0551,29.5669
4.029,14175.2,616.119,17884.8,-103.692,354.902,204.446,4551.55,548.281,9783.35,8.96956,-13.4913,46.5446,-1957.05,20881.3,790.0,123.143,127.593,427.341,-1753.98,-11777.0,-1552.75,6.07891,-39.0844,77.4712,-8074.17,2283.02,1215.96,-40.9625,-2.14332,106.313,-776.1,-10591.9,-2136.19,-49.3579,-68.7894,116.828,7356.67,-732.484,119.666,70.8865,-31.2624,29.4039
4.0295,14363.4,577.552,17956.2,-102.786,354.114,205.587,4562.73,552.633,9806.26,9.38442,-14.0836,46.492,-2110.43,20992.7,758.507,122.836,128.638,427.084,-1762.15,-11798.8,-1538.36,6.12791,-39.4644,77.4791,-7991.81,2309.63,1151.3,-40.193,-1.65051,105.62,-752.97,-10596.0,-2121.06,-49.2183,-68.2184,117.363,7360.3,-740.278,88.4576,71.0059,-31.4697,29.2408
4.03,14551.7,538.985,18027.7,-101.88,353.326,206.728,4573.92,556.986,9829.18,9.79928,-14.6759,46.4395,-2263.82,21104.0,727.014,122.529,129.684,426.827,-1770.32,-11820.6,-1523.98,6.17692,-39.8444,77.487,-7909.45,2336.24,1086.64,-39.4235,-1.1577,104.927,-729.84,-10600.0,-2105.92,-49.0787,-67.6474,117.898,7363.92,-748.071,57.2495,71.1254,-31.677,29.0777
4.0305,14739.9,500.418,18099.2,-100.974,352.538,207.869,4585.11,561.339,9852.1,10.2141,-15.2682,46.3869,-2417.21,21215.4,695.52,122.223,130.729,426.57,-1778.49,-11842.4,-1509.59,6.22593,-40.2244,77.4949,-7827.1,2362.86,1021.98,-38.654,-0.664886,104.234,-706.71,-10604.1,-2090.78,-48.939,-67.0765,118.432,7367.55,-755.865,26.0414,71.2449,-31.8843,28.9146
4.031,14928.2,461.852,18170.6,-100.068,351.75,209.01,4596.3,565.692,9875.01,10.629,-15.8605,46.3344,-2570.59,21326.8,664.027,121.916,131.775,426.312,-1786.65,-11864.2,-1495.2,6.27493,-40.6044,77.5028,-7744.74,2389.47,957.324,-37.8846,-0.172076,103.54,-683.58,-10608.1,-2075.64,-48.7994,-66.5055,118.967,7371.17,-763.658,-5.16674,71.3643,-32.0916,28.7516
4.0315,15146.9,414.764,18242.6,-99.0961,351.084,210.178,4605.51,577.794,9887.58,11.0165,-16.5165,46.3006,-2704.6,21439.8,616.805,121.452,132.757,425.95,-1797.45,-11896.2,-1494.44,6.30425,-40.9408,77.5362,-7616.95,2414.4,899.489,-36.5943,0.683012,102.881,-654.808,-10626.5,-2046.23,-48.6486,-65.9146,119.48,7376.28,-765.793,-31.3588,71.5247,-32.255,28.638
4.032,15374.3,365.242,18314.7,-98.1055,350.453,211.354,4614.16,592.11,9897.19,11.3962,-17.1907,46.2722,-2833.08,21553.3,565.089,120.944,133.72,425.558,-1808.99,-11931.1,-1497.56,6.32794,-41.2647,77.5768,-7476.18,2438.85,843.604,-35.1553,1.64161,102.23,-624.424,-10648.9,-2012.75,-48.4945,-65.318,119.986,7381.81,-766.311,-56.1178,71.6967,-32.4059,28.5385
4.0325,15601.6,315.72,18386.8,-97.1149,349.822,212.531,4622.81,606.426,9906.81,11.7759,-17.8649,46.2438,-2961.55,21666.9,513.373,120.435,134.684,425.166,-1820.54,-11966.0,-1500.68,6.35163,-41.5885,77.6175,-7335.42,2463.3,787.719,-33.7162,2.6002,101.58,-594.041,-10671.3,-1979.27,-48.3405,-64.7214,120.492,7387.35,-766.829,-80.8768,71.8687,-32.5568,28.439
4.033,15829.0,266.197,18458.8,-96.1243,349.191,213.707,4631.46,620.742,9916.42,12.1556,-18.5391,46.2154,-3090.02,21780.4,461.657,119.927,135.648,424.774,-1832.08,-12000.9,-1503.81,6.37532,-41.9124,77.6582,-7194.65,2487.75,731.834,-32.2772,3.5588,100.93,-563.657,-10693.8,-1945.78,-48.1865,-64.1248,120.998,7392.88,-767.347,-105.636,72.0407,-32.7077,28.3396
4.0335,16056.4,216.675,18530.9,-95.1337,348.56,214.883,4640.11,635.057,9926.03,12.5353,-19.2133,46.1869,-3218.5,21894.0,409.941,119.419,136.612,424.382,-1843.63,-12035.9,-1506.93,6.399,-42.2363,77.6988,-7053.88,2512.2,675.949,-30.8381,4.5174,100.28,-533.273,-10716.2,-1912.3,-48.0325,-63.5281,121.505,7398.41,-767.865,-130.395,72.2127,-32.8586,28.2401
4.034,16283.8,167.153,18603.0,-94.1431,347.929,216.059,4648.76,649.373,9935.65,12.915,-19.8874,46.1585,-3346.97,22007.5,358.225,118.91,137.576,423.99,-1855.17,-12070.8,-1510.05,6.42269,-42.5601,77.7395,-6913.11,2536.65,620.064,-29.3991,5.47599,99.6297,-502.889,-10738.6,-1878.82,-47.8785,-62.9315,122.011,7403.95,-768.383,-155.154,72.3847,-33.0095,28.1406
4.0345,16511.1,117.631,18675.1,-93.1525,347.298,217.235,4657.42,663.689,9945.26,13.2947,-20.5616,46.1301,-3475.44,22121.0,306.509,118.402,138.539,423.598,-1866.72,-12105.7,-1513.18,6.44638,-42.884,77.7802,-6772.34,2561.1,564.179,-27.96,6.43459,98.9796,-472.505,-10761.1,-1845.33,-47.7245,-62.3349,122.517,7409.48,-768.902,-179.913,72.5567,-33.1604,28.0412
4.035,16738.5,68.1086,18747.2,-92.1619,346.667,218.412,4666.07,678.005,9954.87,13.6744,-21.2358,46.1017,-3603.92,22234.6,254.793,117.894,139.503,423.205,-1878.26,-12140.6,-1516.3,6.47007,-43.2078,77.8208,-6631.57,2585.55,508.294,-26.521,7.39318,98.3294,-442.121,-10783.5,-1811.85,-47.5705,-61.7383,123.024,7415.01,-769.42,-204.672,72.7287,-33.3113,27.9417
4.0355,16965.9,18.5864,18819.3,-91.1713,346.036,219.588,4674.72,692.321,9964.48,14.0541,-21.91,46.0733,-3732.39,22348.1,203.077,117.385,140.467,422.813,-1889.81,-12175.5,-1519.42,6.49376,-43.5317,77.8615,-6490.81,2610.0,452.409,-25.0819,8.35178,97.6792,-411.738,-10805.9,-1778.37,-47.4164,-61.1417,123.53,7420.55,-769.938,-229.43,72.9007,-33.4622,27.8422
4.036,17223.0,3.65623,18869.5,-90.1276,345.686,220.764,4669.69,710.952,9980.69,14.4708,-22.5853,46.1475,-3851.09,22470.3,166.973,116.674,141.402,422.216,-1869.83,-12199.6,-1519.58,6.4533,-43.7495,77.9123,-6323.9,2654.6,436.938,-23.3239,9.45304,96.9421,-377.589,-10831.2,-1726.5,-47.2903,-60.5268,123.957,7423.33,-757.195,-271.476,72.9706,-33.5139,27.7115
4.0365,17483.8,-6.94996,18916.9,-89.0772,345.371,221.939,4662.95,730.122,9997.73,14.8921,-23.2608,46.2345,-3968.56,22593.7,132.82,115.937,142.333,421.593,-1845.92,-12222.4,-1519.36,6.40482,-43.9539,77.9643,-6153.73,2701.72,426.519,-21.526,10.5721,96.1941,-342.969,-10856.8,-1672.33,-47.1676,-59.9097,124.374,7425.76,-742.795,-315.681,73.0277,-33.5533,27.577
4.037,17744.7,-17.5562,18964.3,-88.0268,345.057,223.115,4656.21,749.292,10014.8,15.3134,-23.9362,46.3216,-4086.04,22717.0,98.6676,115.2,143.263,420.97,-1822.0,-12245.2,-1519.14,6.35634,-44.1584,78.0163,-5983.55,2748.84,416.1,-19.7281,11.6912,95.4461,-308.349,-10882.4,-1618.17,-47.0449,-59.2926,124.791,7428.2,-728.394,-359.887,73.0847,-33.5926,27.4424
4.0375,18005.5,-28.1624,19011.7,-86.9764,344.742,224.291,4649.47,768.462,10031.8,15.7348,-24.6116,46.4086,-4203.52,22840.3,64.5151,114.463,144.194,420.347,-1798.09,-12267.9,-1518.92,6.30787,-44.3629,78.0684,-5813.38,2795.96,405.681,-17.9302,12.8103,94.6981,-273.73,-10908.0,-1564.0,-46.9223,-58.6754,125.208,7430.63,-713.994,-404.093,73.1418,-33.632,27.3078
4.038,18266.3,-38.7685,19059.1,-85.9261,344.428,225.466,4642.73,787.631,10048.8,16.1561,-25.287,46.4957,-4320.99,22963.7,30.3626,113.726,145.125,419.724,-1774.18,-12290.7,-1518.71,6.25939,-44.5674,78.1204,-5643.21,2843.08,395.262,-16.1323,13.9294,93.9501,-239.11,-10933.7,-1509.83,-46.7996,-58.0583,125.625,7433.07,-699.594,-448.299,73.1989,-33.6714,27.1732
4.0385,18527.1,-49.3747,19106.5,-84.8757,344.113,226.642,4635.99,806.801,10065.9,16.5774,-25.9625,46.5827,-4438.47,23087.0,-3.78983,112.989,146.056,419.102,-1750.26,-12313.5,-1518.49,6.21091,-44.7719,78.1725,-5473.03,2890.21,384.843,-14.3344,15.0485,93.2022,-204.49,-10959.3,-1455.67,-46.6769,-57.4411,126.042,7435.5,-685.194,-492.505,73.256,-33.7107,27.0387
4.039,18788.0,-59.9809,19153.8,-83.8253,343.799,227.817,4629.25,825.971,10082.9,16.9987,-26.6379,46.6697,-4555.94,23210.4,-37.9423,112.252,146.987,418.479,-1726.35,-12336.2,-1518.27,6.16243,-44.9763,78.2245,-5302.86,2937.33,374.424,-12.5365,16.1676,92.4542,-169.871,-10984.9,-1401.5,-46.5542,-56.824,126.459,7437.94,-670.793,-536.711,73.313,-33.7501,26.9041
4.0395,19048.8,-70.5871,19201.2,-82.775,343.484,228.993,4622.51,845.141,10099.9,17.4201,-27.3133,46.7568,-4673.42,23333.7,-72.0948,111.515,147.918,417.856,-1702.43,-12359.0,-1518.05,6.11395,-45.1808,78.2766,-5132.69,2984.45,364.005,-10.7386,17.2867,91.7062,-135.251,-11010.5,-1347.34,-46.4316,-56.2068,126.876,7440.37,-656.393,-580.917,73.3701,-33.7894,26.7695
4.04,19309.6,-81.1933,19248.6,-81.7246,343.17,230.169,4615.77,864.311,10117.0,17.8414,-27.9888,46.8438,-4790.89,23457.0,-106.247,110.778,148.849,417.233,-1678.52,-12381.7,-1517.83,6.06547,-45.3853,78.3286,-4962.51,3031.57,353.585,-8.94068,18.4058,90.9582,-100.632,-11036.1,-1293.17,-46.3089,-55.5897,127.294,7442.81,-641.993,-625.123,73.4272,-33.8288,26.6349
4.0405,19592.7,-36.8706,19244.3,-80.6764,343.161,231.37,4583.0,859.036,10140.2,18.6947,-28.8122,46.9835,-4908.39,23587.9,-135.772,109.898,149.66,416.361,-1634.27,-12398.2,-1521.73,5.93844,-45.6635,78.3974,-4788.78,3056.18,353.756,-7.14881,19.3864,90.2453,-69.0947,-11062.6,-1240.92,-46.1482,-54.9843,127.601,7456.56,-627.239,-664.833,73.3744,-33.7562,26.5057
4.041,19875.8,7.45209,19239.9,-79.6282,343.152,232.571,4550.23,853.761,10163.3,19.5479,-29.6356,47.1232,-5025.89,23718.8,-165.296,109.019,150.472,415.489,-1590.03,-12414.6,-1525.62,5.81141,-45.9418,78.4662,-4615.05,3080.8,353.927,-5.35694,20.367,89.5324,-37.5577,-11089.2,-1188.68,-45.9876,-54.379,127.909,7470.31,-612.484,-704.543,73.3215,-33.6837,26.3764
4.0415,20158.9,51.7748,19235.5,-78.58,343.142,233.772,4517.46,848.486,10186.5,20.4012,-30.4591,47.2628,-5143.39,23849.7,-194.82,108.139,151.283,414.617,-1545.78,-12431.0,-1529.51,5.68438,-46.22,78.535,-4441.31,3105.42,354.098,-3.56506,21.3476,88.8195,-6.02075,-11115.7,-1136.43,-45.8269,-53.7736,128.216,7484.06,-597.73,-744.253,73.2687,-33.6111,26.2472
4.042,20442.0,96.0975,19231.1,-77.5318,343.133,234.973,4484.69,843.212,10209.7,21.2545,-31.2825,47.4025,-5260.89,23980.7,-224.344,107.259,152.094,413.745,-1501.54,-12447.4,-1533.4,5.55735,-46.4982,78.6037,-4267.58,3130.03,354.269,-1.77319,22.3282,88.1066,25.5162,-11142.2,-1084.19,-45.6663,-53.1682,128.524,7497.81,-582.975,-783.962,73.2159,-33.5385,26.1179
4.0425,20725.1,140.42,19226.7,-76.4837,343.124,236.174,4451.92,837.937,10232.9,22.1077,-32.1059,47.5422,-5378.39,24111.6,-253.869,106.379,152.905,412.873,-1457.29,-12463.8,-1537.29,5.43032,-46.7765,78.6725,-4093.85,3154.65,354.44,0.018678,23.3088,87.3937,57.0532,-11168.7,-1031.94,-45.5056,-52.5629,128.832,7511.56,-568.221,-823.672,73.163,-33.466,25.9887
4.043,21008.2,184.743,19222.3,-75.4355,343.115,237.375,4419.15,832.662,10256.0,22.961,-32.9294,47.6818,-5495.89,24242.5,-283.393,105.499,153.716,412.001,-1413.05,-12480.2,-1541.18,5.30329,-47.0547,78.7413,-3920.11,3179.26,354.611,1.81055,24.2894,86.6807,88.5901,-11195.2,-979.699,-45.345,-51.9575,129.139,7525.31,-553.467,-863.382,73.1102,-33.3934,25.8594
4.0435,21291.3,229.066,19217.9,-74.3873,343.106,238.576,4386.38,827.387,10279.2,23.8143,-33.7528,47.8215,-5613.39,24373.4,-312.917,104.619,154.527,411.129,-1368.81,-12496.6,-1545.07,5.17626,-47.3329,78.8101,-3746.38,3203.88,354.782,3.60242,25.27,85.9678,120.127,-11221.7,-927.454,-45.1843,-51.3521,129.447,7539.06,-538.712,-903.092,73.0574,-33.3208,25.7302
4.044,21574.4,273.388,19213.5,-73.3391,343.097,239.777,4353.6,822.112,10302.4,24.6675,-34.5762,47.9612,-5730.89,24504.3,-342.442,103.739,155.339,410.257,-1324.56,-12513.0,-1548.96,5.04923,-47.6112,78.8789,-3572.65,3228.49,354.953,5.39429,26.2506,85.2549,151.664,-11248.2,-875.209,-45.0236,-50.7468,129.755,7552.81,-523.958,-942.802,73.0045,-33.2483,25.601
4.0445,21857.4,319.925,19205.7,-72.2874,343.082,240.982,4316.34,807.806,10321.7,25.6139,-35.42,48.0948,-5849.67,24637.6,-373.888,102.845,156.144,409.351,-1281.76,-12527.8,-1559.51,4.87925,-47.9339,78.9564,-3396.17,3257.65,357.926,7.20833,27.1841,84.5345,182.945,-11275.5,-821.706,-44.8471,-50.1492,130.045,7567.08,-510.88,-980.639,72.9578,-33.1624,25.4644
4.045,22139.5,384.175,19171.3,-71.2077,343.021,242.217,4243.1,721.251,10310.0,27.3051,-36.4261,48.1805,-5978.76,24789.9,-420.708,101.836,156.904,408.173,-1250.53,-12529.0,-1623.27,4.36565,-48.613,79.1037,-3197.74,3323.11,383.319,9.19971,27.7415,83.754,212.182,-11309.0,-758.143,-44.5432,-49.6136,130.196,7585.5,-511.218,-1003.49,72.9605,-32.9702,25.2694
4.0455,22421.6,448.424,19136.9,-70.1281,342.961,243.451,4169.87,634.696,10298.2,28.9962,-37.4323,48.2661,-6107.84,24942.3,-467.528,100.827,157.663,406.995,-1219.3,-12530.2,-1687.04,3.85205,-49.292,79.251,-2999.31,3388.57,408.712,11.1911,28.2989,82.9734,241.419,-11342.4,-694.58,-44.2393,-49.078,130.348,7603.92,-511.555,-1026.35,72.9631,-32.7779,25.0745
4.046,22703.7,512.674,19102.5,-69.0484,342.9,244.686,4096.63,548.142,10286.5,30.6873,-38.4385,48.3517,-6236.92,25094.6,-514.348,99.8177,158.423,405.817,-1188.07,-12531.4,-1750.8,3.33845,-49.9711,79.3984,-2800.88,3454.03,434.105,13.1825,28.8563,82.1928,270.656,-11375.9,-631.017,-43.9354,-48.5425,130.499,7622.34,-511.893,-1049.2,72.9658,-32.5857,24.8795
4.0465,22985.9,576.923,19068.1,-67.9687,342.839,245.921,4023.4,461.587,10274.8,32.3785,-39.4447,48.4374,-6366.0,25246.9,-561.168,98.8086,159.183,404.639,-1156.83,-12532.5,-1814.57,2.82485,-50.6501,79.5457,-2602.44,3519.49,459.498,15.1738,29.4137,81.4123,299.893,-11409.4,-567.454,-43.6315,-48.0069,130.651,7640.77,-512.23,-1072.06,72.9684,-32.3935,24.6845
4.047,23268.0,641.173,19033.6,-66.889,342.779,247.155,3950.17,375.032,10263.0,34.0696,-40.4509,48.523,-6495.09,25399.3,-607.988,97.7994,159.942,403.462,-1125.6,-12533.7,-1878.33,2.31124,-51.3292,79.693,-2404.01,3584.95,484.891,17.1652,29.9712,80.6317,329.13,-11442.8,-503.891,-43.3276,-47.4714,130.802,7659.19,-512.567,-1094.91,72.971,-32.2012,24.4896
4.0475,23550.1,705.422,18999.2,-65.8094,342.718,248.39,3876.93,288.477,10251.3,35.7608,-41.4571,48.6087,-6624.17,25551.6,-654.808,96.7903,160.702,402.284,-1094.37,-12534.9,-1942.1,1.79764,-52.0082,79.8403,-2205.58,3650.41,510.283,19.1566,30.5286,79.8512,358.367,-11476.3,-440.328,-43.0237,-46.9358,130.954,7677.61,-512.905,-1117.77,72.9737,-32.009,24.2946
4.048,23832.2,769.672,18964.8,-64.7297,342.657,249.625,3803.7,201.922,10239.6,37.4519,-42.4633,48.6943,-6753.25,25704.0,-701.628,95.7812,161.461,401.106,-1063.14,-12536.1,-2005.86,1.28404,-52.6873,79.9876,-2007.15,3715.86,535.676,21.148,31.086,79.0706,387.604,-11509.8,-376.765,-42.7198,-46.4002,131.105,7696.03,-513.242,-1140.62,72.9763,-31.8167,24.0996
4.0485,24114.3,833.921,18930.4,-63.65,342.597,250.859,3730.46,115.367,10227.8,39.1431,-43.4694,48.78,-6882.33,25856.3,-748.448,94.7721,162.221,399.928,-1031.91,-12537.3,-2069.63,0.770441,-53.3663,80.135,-1808.72,3781.32,561.069,23.1394,31.6434,78.29,416.84,-11543.3,-313.203,-42.416,-45.8647,131.257,7714.45,-513.58,-1163.48,72.979,-31.6245,23.9046
4.049,24385.1,894.526,18888.2,-62.5716,342.465,252.068,3689.47,111.373,10222.1,40.4263,-44.4153,48.8961,-7014.46,26011.0,-793.078,93.7486,162.998,398.702,-1011.61,-12528.0,-2165.59,0.233699,-54.1702,80.2513,-1602.05,3846.49,582.446,25.1252,32.1035,77.4999,444.118,-11574.1,-246.08,-42.1164,-45.3703,131.366,7736.85,-514.326,-1181.25,72.9542,-31.4411,23.6908
4.0495,24616.3,942.374,18819.0,-61.4975,342.087,253.186,3761.31,396.342,10237.6,40.2819,-45.1498,49.1191,-7157.27,26174.1,-830.043,92.6752,163.838,397.309,-1029.61,-12482.1,-2374.24,-0.384035,-55.4114,80.2591,-1366.58,3910.65,589.766,27.0914,32.223,76.6764,464.541,-11595.8,-166.499,-41.832,-45.02,131.328,7773.2,-516.504,-1181.26,72.8335,-31.2885,23.4111
4.05,24847.4,990.222,18749.8,-60.4234,341.708,254.304,3833.16,681.31,10253.0,40.1375,-45.8844,49.3421,-7300.08,26337.2,-867.007,91.6017,164.677,395.916,-1047.61,-12436.2,-2582.88,-1.00177,-56.6525,80.2668,-1131.11,3974.81,597.085,29.0577,32.3426,75.8528,484.963,-11617.6,-86.9187,-41.5476,-44.6697,131.289,7809.54,-518.682,-1181.27,72.7129,-31.1359,23.1314
4.0505,25078.5,1038.07,18680.6,-59.3493,341.33,255.423,3905.0,966.279,10268.4,39.9931,-46.619,49.565,-7442.89,26500.3,-903.972,90.5282,165.517,394.523,-1065.6,-12390.2,-2791.52,-1.6195,-57.8936,80.2746,-895.638,4038.97,604.405,31.024,32.4621,75.0292,505.385,-11639.3,-7.33803,-41.2631,-44.3195,131.251,7845.89,-520.86,-1181.28,72.5922,-30.9834,22.8516
4.051,25309.6,1085.92,18611.4,-58.2752,340.951,256.541,3976.84,1251.25,10283.8,39.8487,-47.3535,49.788,-7585.7,26663.4,-940.936,89.4548,166.356,393.13,-1083.6,-12344.3,-3000.17,-2.23724,-59.1347,80.2824,-660.166,4103.13,611.725,32.9903,32.5816,74.2057,525.807,-11661.0,72.2426,-40.9787,-43.9692,131.212,7882.23,-523.038,-1181.29,72.4716,-30.8308,22.5719
4.0515,25540.8,1133.77,18542.2,-57.2011,340.573,257.659,4048.69,1536.22,10299.2,39.7043,-48.0881,50.011,-7728.51,26826.5,-977.901,88.3813,167.195,391.737,-1101.59,-12298.3,-3208.81,-2.85497,-60.3758,80.2901,-424.693,4167.29,619.045,34.9566,32.7012,73.3821,546.229,-11682.7,151.823,-40.6943,-43.6189,131.174,7918.57,-525.216,-1181.3,72.3509,-30.6782,22.2921
4.052,25771.9,1181.61,18473.0,-56.127,340.194,258.777,4120.53,1821.18,10314.6,39.5599,-48.8227,50.234,-7871.32,26989.6,-1014.87,87.3078,168.035,390.344,-1119.59,-12252.4,-3417.46,-3.47271,-61.6169,80.2979,-189.221,4231.45,626.365,36.9229,32.8207,72.5586,566.651,-11704.4,231.404,-40.4099,-43.2686,131.135,7954.92,-527.394,-1181.3,72.2303,-30.5256,22.0124
4.0525,26003.0,1229.46,18403.7,-55.0529,339.815,259.896,4192.38,2106.15,10330.0,39.4154,-49.5572,50.4569,-8014.12,27152.7,-1051.83,86.2343,168.874,388.951,-1137.59,-12206.5,-3626.1,-4.09044,-62.8581,80.3057,46.2511,4295.61,633.685,38.8892,32.9403,71.735,587.074,-11726.1,310.985,-40.1255,-42.9183,131.097,7991.26,-529.572,-1181.31,72.1096,-30.3731,21.7326
4.053,26234.2,1277.31,18334.5,-53.9788,339.437,261.014,4264.22,2391.12,10345.5,39.271,-50.2918,50.6799,-8156.93,27315.8,-1088.79,85.1609,169.714,387.558,-1155.58,-12160.5,-3834.75,-4.70818,-64.0992,80.3135,281.723,4359.77,641.005,40.8555,33.0598,70.9115,607.496,-11747.9,390.565,-39.841,-42.5681,131.059,8027.6,-531.75,-1181.32,71.989,-30.2205,21.4529
4.0535,26450.1,1319.79,18237.7,-52.9692,338.939,262.124,4347.19,2713.86,10339.1,38.9845,-50.8418,51.357,-8307.54,27481.4,-1125.8,84.0446,170.535,386.124,-1190.34,-12110.4,-3983.56,-4.99251,-65.0391,80.4385,528.676,4441.8,640.142,42.8107,33.072,70.059,622.651,-11760.4,462.168,-39.6506,-42.4135,130.996,8072.56,-533.49,-1180.71,71.8013,-30.085,21.1891
4.054,26635.6,1351.53,18085.5,-52.0883,338.204,263.218,4452.41,3112.16,10289.4,38.4138,-51.0226,52.9422,-8473.76,27652.2,-1162.89,82.8426,171.32,384.608,-1258.62,-12052.0,-4012.72,-4.61005,-65.3766,80.7979,798.59,4559.6,622.915,44.7435,32.8695,69.1488,627.274,-11754.7,517.816,-39.6482,-42.6505,130.885,8134.76,-534.352,-1178.86,71.4797,-29.9835,20.9572
4.0545,26821.1,1383.27,17933.3,-51.2074,337.468,264.312,4557.64,3510.45,10239.6,37.8431,-51.2035,54.5275,-8639.98,27823.0,-1199.98,81.6406,172.105,383.093,-1326.9,-11993.7,-4041.89,-4.22758,-65.7142,81.1573,1068.5,4677.39,605.688,46.6763,32.6671,68.2385,631.896,-11749.0,573.464,-39.6457,-42.8874,130.774,8196.95,-535.214,-1177.01,71.1582,-29.8821,20.7254
4.055,27006.7,1415.01,17781.1,-50.3266,336.733,265.406,4662.86,3908.74,10189.8,37.2724,-51.3844,56.1128,-8806.2,27993.8,-1237.07,80.4386,172.89,381.577,-1395.17,-11935.3,-4071.04,-3.84512,-66.0517,81.5168,1338.42,4795.19,588.462,48.6092,32.4646,67.3282,636.518,-11743.3,629.111,-39.6433,-43.1243,130.663,8259.14,-536.076,-1175.17,70.8366,-29.7806,20.4935
4.0555,27192.2,1446.75,17629.0,-49.4457,335.997,266.499,4768.08,4307.04,10140.0,36.7017,-51.5652,57.698,-8972.42,28164.6,-1274.16,79.2367,173.675,380.061,-1463.45,-11876.9,-4100.21,-3.46265,-66.3893,81.8762,1608.33,4912.98,571.235,50.542,32.2622,66.418,641.141,-11737.6,684.759,-39.6408,-43.3613,130.552,8321.33,-536.938,-1173.32,70.515,-29.6792,20.2616
4.056,27377.7,1478.49,17476.8,-48.5649,335.262,267.593,4873.3,4705.33,10090.2,36.131,-51.7461,59.2833,-9138.64,28335.4,-1311.25,78.0347,174.461,378.546,-1531.73,-11818.5,-4129.37,-3.08018,-66.7268,82.2356,1878.25,5030.77,554.008,52.4749,32.0597,65.5077,645.763,-11731.8,740.407,-39.6384,-43.5982,130.441,8383.52,-537.8,-1171.47,70.1934,-29.5778,20.0297
4.0565,27563.2,1510.23,17324.6,-47.684,334.527,268.687,4978.53,5103.62,10040.4,35.5602,-51.9269,60.8685,-9304.86,28506.2,-1348.34,76.8327,175.246,377.03,-1600.01,-11760.2,-4158.53,-2.69772,-67.0644,82.5951,2148.16,5148.57,536.781,54.4077,31.8572,64.5975,650.385,-11726.1,796.054,-39.6359,-43.8351,130.33,8445.71,-538.662,-1169.62,69.8718,-29.4763,19.7978
4.057,27748.7,1541.97,17172.5,-46.8031,333.791,269.781,5083.75,5501.92,9990.67,34.9895,-52.1078,62.4538,-9471.08,28677.0,-1385.43,75.6307,176.031,375.514,-1668.28,-11701.8,-4187.69,-2.31525,-67.4019,82.9545,2418.07,5266.36,519.554,56.3406,31.6548,63.6872,655.008,-11720.4,851.702,-39.6335,-44.0721,130.219,8507.9,-539.523,-1167.77,69.5503,-29.3749,19.566
4.0575,27934.3,1573.71,17020.3,-45.9223,333.056,270.875,5188.97,5900.21,9940.89,34.4188,-52.2886,64.039,-9637.3,28847.8,-1422.52,74.4287,176.816,373.999,-1736.56,-11643.4,-4216.85,-1.93279,-67.7395,83.3139,2687.99,5384.16,502.327,58.2734,31.4523,62.777,659.63,-11714.7,907.35,-39.631,-44.309,130.108,8570.09,-540.385,-1165.92,69.2287,-29.2735,19.3341
4.058,28121.9,1618.98,16845.6,-45.175,332.132,271.921,5207.24,5886.71,9945.92,34.0281,-52.6819,65.209,-9820.84,29007.6,-1447.05,73.19,177.523,372.414,-1726.96,-11659.1,-4056.5,-1.31836,-67.5992,83.9342,2957.19,5520.08,468.637,60.0046,31.3901,61.9828,678.205,-11709.2,918.367,-39.8365,-44.9718,129.942,8636.78,-539.363,-1157.21,68.9051,-29.1537,19.0892
4.0585,28312.1,1681.18,16642.7,-44.5946,330.974,272.908,5116.81,5358.48,10019.5,33.8625,-53.3408,65.8599,-10026.0,29153.6,-1455.87,71.9054,178.132,370.744,-1620.02,-11767.5,-3659.25,-0.413993,-66.8616,84.8806,3225.5,5678.66,414.368,61.4839,31.5031,61.3337,714.222,-11704.1,873.595,-40.3018,-46.1669,129.707,8709.07,-535.985,-1139.91,68.5789,-29.0112,18.828
4.059,28502.3,1743.38,16439.8,-44.0142,329.816,273.896,5026.38,4830.25,10093.0,33.6969,-53.9996,66.5108,-10231.2,29299.6,-1464.7,70.6208,178.742,369.074,-1513.08,-11875.8,-3262.01,0.490377,-66.1241,85.8269,3493.8,5837.24,360.1,62.9631,31.6161,60.6845,750.239,-11698.9,828.824,-40.7671,-47.3619,129.472,8781.36,-532.607,-1122.62,68.2528,-28.8687,18.5668
4.0595,28692.5,1805.58,16237.0,-43.4338,328.658,274.883,4935.96,4302.02,10166.6,33.5313,-54.6584,67.1616,-10436.4,29445.6,-1473.52,69.3362,179.351,367.404,-1406.14,-11984.2,-2864.77,1.39475,-65.3865,86.7732,3762.11,5995.82,305.831,64.4424,31.7292,60.0354,786.255,-11693.7,784.053,-41.2324,-48.557,129.236,8853.65,-529.229,-1105.32,67.9267,-28.7261,18.3056
4.06,28882.7,1867.78,16034.1,-42.8534,327.5,275.87,4845.53,3773.79,10240.1,33.3657,-55.3172,67.8125,-10641.6,29591.6,-1482.34,68.0516,179.96,365.733,-1299.2,-12092.5,-2467.53,2.29912,-64.6489,87.7196,4030.42,6154.4,251.562,65.9216,31.8422,59.3863,822.272,-11688.6,739.281,-41.6977,-49.7521,129.001,8925.94,-525.851,-1088.03,67.6006,-28.5836,18.0444
4.0605,29072.9,1929.97,15831.2,-42.2731,326.341,276.857,4755.1,3245.56,10313.7,33.2,-55.9761,68.4634,-10846.8,29737.7,-1491.17,66.767,180.569,364.063,-1192.26,-12200.8,-2070.29,3.20349,-63.9114,88.6659,4298.73,6312.99,197.293,67.4009,31.9552,58.7372,858.288,-11683.4,694.51,-42.163,-50.9472,128.766,8998.23,-522.473,-1070.73,67.2744,-28.441,17.7832
4.061,29263.1,1992.17,15628.4,-41.6927,325.183,277.844,4664.68,2717.33,10387.2,33.0344,-56.6349,69.1143,-11052.0,29883.7,-1499.99,65.4824,181.179,362.393,-1085.32,-12309.2,-1673.05,4.10786,-63.1738,89.6122,4567.03,6471.57,143.025,68.8801,32.0682,58.0881,894.305,-11678.3,649.739,-42.6283,-52.1423,128.531,9070.52,-519.095,-1053.44,66.9483,-28.2985,17.5219
4.0615,29453.3,2054.37,15425.5,-41.1123,324.025,278.831,4574.25,2189.1,10460.8,32.8688,-57.2937,69.7652,-11257.2,30029.7,-1508.81,64.1978,181.788,360.723,-978.383,-12417.5,-1275.81,5.01223,-62.4362,90.5586,4835.34,6630.15,88.7558,70.3594,32.1813,57.4389,930.322,-11673.1,604.967,-43.0936,-53.3374,128.295,9142.81,-515.717,-1036.14,66.6222,-28.1559,17.2607
4.062,29643.6,2116.57,15222.6,-40.5319,322.867,279.818,4483.82,1660.87,10534.3,32.7032,-57.9525,70.416,-11462.4,30175.7,-1517.64,62.9132,182.397,359.052,-871.443,-12525.9,-878.57,5.9166,-61.6987,91.5049,5103.65,6788.73,34.4871,71.8386,32.2943,56.7898,966.338,-11667.9,560.196,-43.5589,-54.5325,128.06,9215.1,-512.339,-1018.85,66.2961,-28.0134,16.9995
4.0625,29839.0,2203.27,14996.6,-39.8857,321.504,280.606,4379.49,1054.2,10632.5,32.1696,-58.9264,69.7462,-11688.5,30281.5,-1503.43,61.7962,182.849,357.352,-697.34,-12664.1,-518.426,6.80958,-61.0471,92.2167,5358.34,6972.74,-17.5374,72.8581,32.7751,56.1892,1023.52,-11664.0,480.596,-44.0382,-56.0139,127.726,9291.87,-509.315,-988.865,65.9827,-27.8522,16.7337
4.063,30038.6,2309.58,14752.0,-39.1867,319.978,281.233,4264.04,384.766,10750.4,31.3418,-60.1522,68.0199,-11931.3,30355.2,-1470.81,60.8133,183.174,355.629,-469.507,-12826.4,-187.959,7.69345,-60.4642,92.7409,5602.14,7177.09,-67.7664,73.5099,33.5501,55.6275,1097.65,-11661.2,373.132,-44.5287,-57.7244,127.312,9372.22,-506.574,-948.735,65.6794,-27.6762,16.4643
4.0635,30238.3,2415.88,14507.4,-38.4878,318.452,281.861,4148.58,-284.665,10868.3,30.5139,-61.378,66.2935,-12174.1,30428.9,-1438.18,59.8304,183.5,353.905,-241.675,-12988.6,142.507,8.57732,-59.8814,93.2652,5845.94,7381.44,-117.995,74.1616,34.3251,55.0657,1171.77,-11658.3,265.668,-45.0192,-59.435,126.898,9452.58,-503.833,-908.606,65.3762,-27.5002,16.1948
4.064,30437.9,2522.19,14262.8,-37.7889,316.925,282.488,4033.13,-954.096,10986.2,29.6861,-62.6039,64.5671,-12417.0,30502.6,-1405.56,58.8475,183.825,352.181,-13.8425,-13150.9,472.974,9.46118,-59.2986,93.7894,6089.73,7585.78,-168.224,74.8134,35.1002,54.5039,1245.89,-11655.5,158.204,-45.5098,-61.1455,126.484,9532.93,-501.092,-868.476,65.073,-27.3242,15.9254
4.0645,30637.5,2628.49,14018.2,-37.09,315.399,283.116,3917.67,-1623.53,11104.1,28.8582,-63.8297,62.8408,-12659.8,30576.2,-1372.93,57.8645,184.15,350.457,213.99,-13313.1,803.44,10.345,-58.7158,94.3136,6333.53,7790.13,-218.453,75.4651,35.8752,53.9421,1320.01,-11652.6,50.7401,-46.0003,-62.856,126.071,9613.28,-498.351,-828.346,64.7697,-27.1482,15.6559
4.065,30837.2,2734.79,13773.6,-36.3911,313.873,283.743,3802.22,-2292.96,11222.0,28.0304,-65.0556,61.1144,-12902.7,30649.9,-1340.31,56.8816,184.476,348.733,441.823,-13475.4,1133.91,11.2289,-58.133,94.8378,6577.33,7994.48,-268.682,76.1169,36.6502,53.3804,1394.13,-11649.7,-56.7238,-46.4908,-64.5666,125.657,9693.63,-495.611,-788.217,64.4665,-26.9721,15.3865
4.0655,31036.8,2841.1,13529.0,-35.6921,312.347,284.371,3686.76,-2962.39,11339.9,27.2025,-66.2814,59.388,-13145.5,30723.6,-1307.68,55.8987,184.801,347.009,669.655,-13637.6,1464.37,12.1128,-57.5502,95.362,6821.12,8198.83,-318.912,76.7686,37.4252,52.8186,1468.26,-11646.9,-164.188,-46.9813,-66.2771,125.243,9773.98,-492.87,-748.087,64.1633,-26.7961,15.117
4.066,31236.4,2947.4,13284.4,-34.9932,310.82,284.998,3571.3,-3631.82,11457.8,26.3747,-67.5072,57.6617,-13388.3,30797.3,-1275.06,54.9158,185.126,345.285,897.487,-13799.9,1794.84,12.9966,-56.9673,95.8862,7064.92,8403.18,-369.141,77.4204,38.2003,52.2568,1542.38,-11644.0,-271.652,-47.4718,-67.9876,124.829,9854.33,-490.129,-707.957,63.86,-26.6201,14.8475
4.0665,31436.1,3053.71,13039.8,-34.2943,309.294,285.626,3455.85,-4301.25,11575.7,25.5468,-68.7331,55.9353,-13631.2,30871.0,-1242.43,53.9329,185.452,343.561,1125.32,-13962.1,2125.31,13.8805,-56.3845,96.4104,7308.72,8607.53,-419.37,78.0721,38.9753,51.6951,1616.5,-11641.2,-379.115,-47.9624,-69.6982,124.415,9934.69,-487.388,-667.828,63.5568,-26.4441,14.5781
4.067,31629.8,3141.82,12790.4,-33.4567,307.604,285.859,3412.03,-4466.76,11591.6,24.7495,-69.8027,54.2749,-13898.1,30858.0,-1210.22,53.3214,185.663,341.88,1225.44,-13996.3,2292.41,14.6074,-55.7425,96.8124,7539.59,8823.45,-479.861,78.1773,40.2149,51.1467,1700.77,-11640.3,-448.256,-47.9257,-71.0355,124.054,10016.0,-494.631,-619.348,63.2712,-26.2518,14.3236
4.0675,31820.6,3220.83,12538.5,-32.5497,305.832,285.894,3404.02,-4380.3,11556.5,23.9676,-70.7943,52.6476,-14177.0,30801.6,-1178.22,52.8957,185.817,340.22,1261.71,-13966.3,2377.83,15.2558,-55.0708,97.1532,7764.0,9045.15,-545.483,78.0093,41.6867,50.6049,1790.13,-11640.4,-498.235,-47.6253,-72.1862,123.717,10097.7,-506.867,-566.694,62.9945,-26.0514,14.0767
4.068,32011.4,3299.85,12286.6,-31.6427,304.06,285.93,3396.02,-4293.85,11521.4,23.1856,-71.7859,51.0203,-14456.0,30745.2,-1146.22,52.47,185.972,338.56,1297.97,-13936.3,2463.25,15.9041,-54.3992,97.494,7988.41,9266.85,-611.106,77.8413,43.1586,50.0632,1879.48,-11640.5,-548.214,-47.325,-73.337,123.381,10179.4,-519.102,-514.039,62.7177,-25.8509,13.8298
4.0685,32202.1,3378.86,12034.7,-30.7358,302.288,285.966,3388.02,-4207.39,11486.3,22.4036,-72.7775,49.3929,-14734.9,30688.9,-1114.21,52.0443,186.126,336.9,1334.24,-13906.3,2548.67,16.5525,-53.7275,97.8348,8212.82,9488.55,-676.728,77.6732,44.6304,49.5215,1968.83,-11640.6,-598.194,-47.0247,-74.4877,123.045,10261.2,-531.337,-461.385,62.4409,-25.6505,13.5829
4.069,32392.9,3457.87,11782.8,-29.8288,300.516,286.001,3380.01,-4120.94,11451.2,21.6216,-73.769,47.7656,-15013.8,30632.5,-1082.21,51.6186,186.28,335.24,1370.5,-13876.4,2634.09,17.2009,-53.0558,98.1756,8437.23,9710.26,-742.351,77.5052,46.1023,48.9797,2058.18,-11640.7,-648.173,-46.7244,-75.6384,122.709,10342.9,-543.573,-408.731,62.1642,-25.4501,13.336
4.0695,32583.7,3536.89,11531.0,-28.9218,298.744,286.037,3372.01,-4034.48,11416.1,20.8397,-74.7606,46.1383,-15292.8,30576.2,-1050.21,51.193,186.435,333.58,1406.77,-13846.4,2719.52,17.8492,-52.3842,98.5164,8661.64,9931.96,-807.973,77.3372,47.5741,48.438,2147.53,-11640.8,-698.152,-46.4241,-76.7892,122.373,10424.7,-555.808,-356.076,61.8874,-25.2496,13.089
4.07,32774.5,3615.9,11279.1,-28.0149,296.972,286.072,3364.0,-3948.03,11381.0,20.0577,-75.7522,44.5109,-15571.7,30519.8,-1018.2,50.7673,186.589,331.921,1443.04,-13816.4,2804.94,18.4976,-51.7125,98.8572,8886.05,10153.7,-873.595,77.1691,49.046,47.8963,2236.88,-11640.9,-748.131,-46.1238,-77.9399,122.037,10506.4,-568.044,-303.422,61.6106,-25.0492,12.8421
4.0705,32965.3,3694.92,11027.2,-27.1079,295.2,286.108,3356.0,-3861.57,11345.9,19.2757,-76.7438,42.8836,-15850.7,30463.4,-986.201,50.3416,186.743,330.261,1479.3,-13786.4,2890.36,19.146,-51.0409,99.198,9110.46,10375.4,-939.218,77.0011,50.5178,47.3546,2326.24,-11641.0,-798.11,-45.8235,-79.0906,121.701,10588.1,-580.279,-250.768,61.3339,-24.8488,12.5952
4.071,33156.0,3773.93,10775.3,-26.2009,293.428,286.144,3348.0,-3775.12,11310.8,18.4937,-77.7354,41.2563,-16129.6,30407.1,-954.197,49.9159,186.898,328.601,1515.57,-13756.5,2975.78,19.7943,-50.3692,99.5388,9334.87,10597.1,-1004.84,76.833,51.9897,46.8128,2415.59,-11641.1,-848.089,-45.5232,-80.2414,121.365,10669.9,-592.514,-198.113,61.0571,-24.6483,12.3483
4.0715,33316.9,3798.66,10508.9,-25.0411,291.395,285.568,3347.19,-3562.14,11282.5,17.9237,-78.5658,40.346,-16418.4,30228.1,-918.368,49.788,186.848,326.737,1509.82,-13661.4,2968.98,20.1915,-49.7499,100.032,9590.52,10827.7,-1063.65,75.9785,53.8448,46.3829,2494.57,-11648.6,-825.836,-44.6973,-80.6169,121.151,10753.7,-606.853,-159.485,60.7635,-24.2865,12.1417
4.072,33469.3,3807.89,10238.4,-23.8091,289.288,284.817,3348.44,-3313.02,11256.1,17.4142,-79.3503,39.6407,-16709.9,30014.0,-881.446,49.7452,186.741,324.815,1492.06,-13547.7,2935.83,20.5168,-49.1455,100.568,9855.1,11060.9,-1120.51,74.9279,55.8093,45.985,2570.58,-11658.2,-782.944,-43.7212,-80.7709,120.973,10838.2,-621.792,-124.865,60.4651,-23.8786,11.9467
4.0725,33621.7,3817.11,9967.88,-22.577,287.181,284.066,3349.69,-3063.89,11229.7,16.9048,-80.1347,38.9353,-17001.5,29800.0,-844.524,49.7025,186.633,322.892,1474.3,-13434.1,2902.68,20.8421,-48.5411,101.105,10119.7,11294.1,-1177.38,73.8772,57.7739,45.5871,2646.6,-11667.9,-740.053,-42.7451,-80.9249,120.794,10922.7,-636.73,-90.2451,60.1668,-23.4706,11.7517
4.073,33774.1,3826.33,9697.35,-21.345,285.074,283.315,3350.94,-2814.77,11203.3,16.3953,-80.9191,38.23,-17293.1,29586.0,-807.601,49.6597,186.526,320.97,1456.55,-13320.4,2869.52,21.1675,-47.9368,101.641,10384.3,11527.2,-1234.24,72.8266,59.7385,45.1892,2722.61,-11677.5,-697.161,-41.769,-81.0789,120.615,11007.2,-651.669,-55.625,59.8684,-23.0627,11.5567
4.0735,33926.4,3835.56,9426.83,-20.1129,282.968,282.564,3352.19,-2565.64,11176.9,15.8858,-81.7036,37.5246,-17584.7,29371.9,-770.679,49.6169,186.418,319.048,1438.79,-13206.7,2836.37,21.4928,-47.3324,102.178,10648.9,11760.4,-1291.11,71.7759,61.703,44.7913,2798.63,-11687.1,-654.27,-40.793,-81.2329,120.437,11091.7,-666.608,-21.0048,59.57,-22.6547,11.3617
4.074,34078.8,3844.78,9156.3,-18.8809,280.861,281.814,3353.44,-2316.51,11150.5,15.3764,-82.488,36.8193,-17876.3,29157.9,-733.757,49.5741,186.31,317.125,1421.04,-13093.1,2803.22,21.8181,-46.728,102.714,10913.4,11993.6,-1347.97,70.7253,63.6676,44.3934,2874.64,-11696.7,-611.378,-39.8169,-81.3869,120.258,11176.1,-681.547,13.6153,59.2717,-22.2468,11.1667
4.0745,34231.2,3854.0,8885.78,-17.6489,278.754,281.063,3354.69,-2067.39,11124.1,14.8669,-83.2724,36.1139,-18167.8,28943.9,-696.835,49.5314,186.203,315.203,1403.28,-12979.4,2770.07,22.1435,-46.1236,103.25,11178.0,12226.8,-1404.83,69.6746,65.6322,43.9954,2950.66,-11706.4,-568.487,-38.8408,-81.541,120.079,11260.6,-696.486,48.2355,58.9733,-21.8388,10.9717
4.075,34383.6,3863.23,8615.25,-16.4168,276.647,280.312,3355.94,-1818.26,11097.7,14.3574,-84.0569,35.4086,-18459.4,28729.8,-659.912,49.4886,186.095,313.281,1385.52,-12865.7,2736.92,22.4688,-45.5193,103.787,11442.6,12459.9,-1461.7,68.624,67.5967,43.5975,3026.67,-11716.0,-525.595,-37.8648,-81.695,119.9,11345.1,-711.425,82.8556,58.6749,-21.4309,10.7766
4.0755,34535.9,3872.45,8344.73,-15.1848,274.54,279.561,3357.19,-1569.14,11071.3,13.848,-84.8413,34.7032,-18751.0,28515.8,-622.99,49.4458,185.988,311.358,1367.77,-12752.1,2703.77,22.7941,-44.9149,104.323,11707.2,12693.1,-1518.56,67.5733,69.5613,43.1996,3102.69,-11725.6,-482.704,-36.8887,-81.849,119.722,11429.6,-726.364,117.476,58.3765,-21.0229,10.5816
4.076,34609.8,3814.62,8069.31,-13.6816,272.183,278.189,3352.78,-1502.37,11080.7,13.4403,-85.7223,34.1047,-18989.4,28188.6,-615.847,49.4959,185.508,308.821,1388.63,-12676.3,2654.66,22.9766,-44.403,105.051,11934.4,12916.3,-1547.55,65.5272,71.7981,43.1405,3151.7,-11739.0,-364.666,-36.003,-81.7602,119.55,11509.9,-735.253,164.393,57.9995,-20.6557,10.3638
4.0765,34673.9,3748.4,7793.28,-12.1446,269.796,276.74,3347.65,-1458.4,11094.6,13.0454,-86.6154,33.5195,-19221.1,27847.2,-612.427,49.5575,184.981,306.206,1414.32,-12605.4,2603.55,23.1412,-43.9026,105.803,12156.9,13138.3,-1573.06,63.3567,74.0689,43.1237,3197.34,-11752.9,-237.235,-35.1286,-81.641,119.379,11589.6,-743.384,212.847,57.6126,-20.2936,10.1431
4.077,34738.0,3682.19,7517.25,-10.6076,267.408,275.29,3342.53,-1414.43,11108.4,12.6504,-87.5085,32.9343,-19452.9,27505.8,-609.006,49.6192,184.454,303.591,1440.01,-12534.4,2552.43,23.3058,-43.4023,106.555,12379.5,13360.3,-1598.56,61.1861,76.3397,43.107,3242.98,-11766.7,-109.804,-34.2542,-81.5218,119.209,11669.4,-751.516,261.302,57.2257,-19.9314,9.92244
4.0775,34802.1,3615.97,7241.22,-9.07055,265.021,273.841,3337.4,-1370.47,11122.3,12.2555,-88.4016,32.3491,-19684.6,27164.3,-605.586,49.6809,183.928,300.976,1465.7,-12463.4,2501.32,23.4704,-42.9019,107.307,12602.0,13582.3,-1624.07,59.0156,78.6106,43.0902,3288.61,-11780.6,17.6266,-33.3798,-81.4026,119.038,11749.1,-759.648,309.756,56.8388,-19.5693,9.70176
4.078,34866.2,3549.76,6965.19,-7.53352,262.633,272.391,3332.28,-1326.5,11136.2,11.8605,-89.2947,31.7639,-19916.3,26822.9,-602.165,49.7425,183.401,298.362,1491.39,-12392.5,2450.21,23.635,-42.4016,108.059,12824.5,13804.3,-1649.57,56.845,80.8814,43.0735,3334.25,-11794.5,145.058,-32.5054,-81.2835,118.868,11828.9,-767.78,358.21,56.4519,-19.2072,9.48107
4.0785,34930.3,3483.54,6689.16,-5.99649,260.245,270.942,3327.15,-1282.53,11150.1,11.4656,-90.1877,31.1787,-20148.1,26481.5,-598.745,49.8042,182.875,295.747,1517.08,-12321.5,2399.1,23.7996,-41.9012,108.811,13047.1,14026.3,-1675.08,54.6745,83.1522,43.0567,3379.89,-11808.3,272.488,-31.631,-81.1643,118.697,11908.6,-775.912,406.665,56.065,-18.845,9.26039
4.079,34994.3,3417.33,6413.13,-4.45946,257.858,269.493,3322.03,-1238.56,11163.9,11.0706,-91.0808,30.5935,-20379.8,26140.1,-595.324,49.8659,182.348,293.132,1542.77,-12250.5,2347.99,23.9643,-41.4009,109.563,13269.6,14248.3,-1700.58,52.5039,85.423,43.04,3425.53,-11822.2,399.919,-30.7566,-81.0451,118.526,11988.4,-784.044,455.119,55.6781,-18.4829,9.03971
4.0795,35058.4,3351.11,6137.1,-2.92243,255.47,268.043,3316.9,-1194.59,11177.8,10.6757,-91.9739,30.0083,-20611.6,25798.7,-591.904,49.9275,181.822,290.518,1568.46,-12179.6,2296.88,24.1289,-40.9005,110.315,13492.2,14470.3,-1726.09,50.3334,87.6939,43.0232,3471.16,-11836.0,527.35,-29.8822,-80.9259,118.356,12068.1,-792.176,503.573,55.2912,-18.1208,8.81903
4.08,35122.5,3284.9,5861.06,-1.3854,253.083,266.594,3311.78,-1150.62,11191.7,10.2807,-92.867,29.4231,-20843.3,25457.3,-588.483,49.9892,181.295,287.903,1594.15,-12108.6,2245.77,24.2935,-40.4001,111.067,13714.7,14692.3,-1751.59,48.1628,89.9647,43.0065,3516.8,-11849.9,654.781,-29.0078,-80.8068,118.185,12147.9,-800.308,552.027,54.9043,-17.7586,8.59834
4.0805,35096.8,3199.5,5589.81,0.101176,250.23,264.673,3330.18,-1157.98,11203.9,10.0707,-93.9405,28.8188,-20993.8,25083.7,-631.922,49.7448,180.31,284.395,1607.34,-12116.5,2186.69,24.4222,-39.738,111.979,13842.5,14887.0,-1705.25,44.8354,92.3631,43.3879,3561.94,-11842.5,804.735,-28.578,-80.9923,117.962,12197.0,-818.57,598.406,54.3839,-17.5023,8.46971
4.081,35071.0,3114.1,5318.55,1.58775,247.377,262.751,3348.58,-1165.34,11216.2,9.8606,-95.0141,28.2145,-21144.2,24710.2,-675.36,49.5004,179.326,280.888,1620.52,-12124.3,2127.6,24.551,-39.0759,112.891,13970.3,15081.8,-1658.91,41.5081,94.7615,43.7693,3607.09,-11835.1,954.688,-28.1483,-81.1779,117.739,12246.2,-836.831,644.785,53.8635,-17.246,8.34108
4.0815,35045.2,3028.7,5047.29,3.07432,244.524,260.83,3366.98,-1172.71,11228.4,9.65055,-96.0876,27.6102,-21294.7,24336.6,-718.799,49.256,178.342,277.381,1633.7,-12132.2,2068.52,24.6798,-38.4138,113.804,14098.0,15276.5,-1612.56,38.1807,97.1599,44.1507,3652.23,-11827.8,1104.64,-27.7185,-81.3635,117.517,12295.3,-855.093,691.164,53.3431,-16.9896,8.21245
4.082,35019.5,2943.3,4776.03,4.5609,241.671,258.909,3385.39,-1180.07,11240.7,9.4405,-97.1612,27.0058,-21445.1,23963.0,-762.237,49.0116,177.357,273.873,1646.88,-12140.1,2009.43,24.8086,-37.7516,114.716,14225.8,15471.3,-1566.22,34.8534,99.5583,44.5321,3697.37,-11820.4,1254.6,-27.2887,-81.549,117.294,12344.5,-873.355,737.543,52.8227,-16.7333,8.08382
4.0825,34993.7,2857.9,4504.77,6.04747,238.819,256.988,3403.79,-1187.43,11252.9,9.23044,-98.2348,26.4015,-21595.6,23589.4,-805.676,48.7673,176.373,270.366,1660.06,-12148.0,1950.35,24.9373,-37.0895,115.629,14353.6,15666.0,-1519.87,31.526,101.957,44.9135,3742.51,-11813.0,1404.55,-26.8589,-81.7346,117.071,12393.6,-891.616,783.921,52.3022,-16.477,7.95519
4.083,34967.9,2772.5,4233.52,7.53405,235.966,255.067,3422.19,-1194.8,11265.2,9.02039,-99.3083,25.7972,-21746.0,23215.9,-849.114,48.5229,175.388,266.858,1673.25,-12155.9,1891.27,25.0661,-36.4274,116.541,14481.4,15860.8,-1473.53,28.1986,104.355,45.2949,3787.65,-11805.6,1554.5,-26.4291,-81.9202,116.848,12442.8,-909.878,830.3,51.7818,-16.2206,7.82656
4.0835,34942.2,2687.1,3962.26,9.02062,233.113,253.146,3440.59,-1202.16,11277.4,8.81034,-100.382,25.1929,-21896.5,22842.3,-892.553,48.2785,174.404,263.351,1686.43,-12163.7,1832.18,25.1949,-35.7653,117.454,14609.2,16055.5,-1427.18,24.8713,106.754,45.6763,3832.79,-11798.2,1704.46,-25.9994,-82.1058,116.625,12491.9,-928.14,876.679,51.2614,-15.9643,7.69793
4.084,34916.4,2601.7,3691.0,10.5072,230.26,251.225,3458.99,-1209.52,11289.7,8.60028,-101.455,24.5886,-22046.9,22468.7,-935.991,48.0341,173.419,259.843,1699.61,-12171.6,1773.1,25.3236,-35.1031,118.366,14736.9,16250.3,-1380.84,21.5439,109.152,46.0577,3877.94,-11790.9,1854.41,-25.5696,-82.2913,116.402,12541.1,-946.401,923.058,50.741,-15.708,7.5693
4.0845,34884.6,2523.09,3421.09,11.9636,227.337,249.254,3477.49,-1214.85,11302.8,8.39738,-102.542,23.9857,-22189.8,22102.2,-983.717,47.7467,172.415,256.257,1706.83,-12183.5,1714.97,25.4568,-34.435,119.281,14853.5,16432.1,-1334.22,18.2149,111.537,46.46,3920.14,-11784.3,1997.75,-25.1602,-82.5011,116.176,12588.0,-963.891,964.945,50.2313,-15.461,7.4586
4.085,34804.9,2498.87,3161.99,13.1784,223.854,246.878,3496.77,-1203.88,11323.2,8.25171,-103.731,23.3943,-22272.2,21792.4,-1065.74,47.1154,171.249,252.034,1666.33,-12227.7,1664.51,25.6255,-33.7188,120.216,14880.4,16510.1,-1285.39,14.8727,113.817,47.0297,3938.86,-11784.1,2088.16,-24.9143,-82.9047,115.925,12617.1,-975.206,970.898,49.807,-15.2889,7.49136
4.0855,34725.2,2474.65,2902.89,14.3933,220.37,244.503,3516.04,-1192.91,11343.6,8.10604,-104.921,22.8029,-22354.6,21482.5,-1147.77,46.484,170.084,247.812,1625.82,-12272.0,1614.05,25.7941,-33.0025,121.151,14907.3,16588.1,-1236.56,11.5304,116.097,47.5993,3957.59,-11783.9,2178.57,-24.6684,-83.3083,115.674,12646.2,-986.521,976.851,49.3828,-15.1168,7.52411
4.086,34645.6,2450.43,2643.79,15.6082,216.887,242.128,3535.32,-1181.93,11364.0,7.96037,-106.111,22.2116,-22437.0,21172.6,-1229.79,45.8527,168.919,243.59,1585.32,-12316.2,1563.59,25.9628,-32.2863,122.085,14934.2,16666.0,-1187.73,8.1882,118.376,48.169,3976.31,-11783.7,2268.99,-24.4225,-83.7119,115.422,12675.3,-997.836,982.805,48.9586,-14.9447,7.55687
4.0865,34565.9,2426.21,2384.69,16.823,213.403,239.752,3554.59,-1170.96,11384.4,7.8147,-107.3,21.6202,-22519.5,20862.8,-1311.82,45.2213,167.754,239.367,1544.82,-12360.4,1513.13,26.1314,-31.57,123.02,14961.1,16744.0,-1138.9,4.84597,120.656,48.7387,3995.03,-11783.5,2359.4,-24.1765,-84.1155,115.171,12704.5,-1009.15,988.758,48.5343,-14.7726,7.58963
4.087,34486.2,2401.99,2125.59,18.0379,209.92,237.377,3573.87,-1159.99,11404.8,7.66903,-108.49,21.0289,-22601.9,20552.9,-1393.85,44.59,166.589,235.145,1504.32,-12404.6,1462.67,26.3001,-30.8538,123.955,14988.0,16822.0,-1090.07,1.50373,122.936,49.3083,4013.75,-11783.3,2449.81,-23.9306,-84.5191,114.92,12733.6,-1020.47,994.711,48.1101,-14.6005,7.62239
4.0875,34406.5,2377.77,1866.49,19.2528,206.436,235.002,3593.14,-1149.02,11425.2,7.52336,-109.68,20.4375,-22684.3,20243.0,-1475.87,43.9586,165.424,230.923,1463.82,-12448.8,1412.21,26.4687,-30.1376,124.889,15014.9,16900.0,-1041.24,-1.8385,125.215,49.878,4032.47,-11783.1,2540.22,-23.6847,-84.9226,114.668,12762.7,-1031.78,1000.66,47.6859,-14.4284,7.65514
4.088,34326.8,2353.55,1607.39,20.4677,202.953,232.626,3612.41,-1138.05,11445.5,7.37769,-110.869,19.8461,-22766.7,19933.2,-1557.9,43.3273,164.259,226.701,1423.32,-12493.0,1361.74,26.6373,-29.4213,125.824,15041.7,16978.0,-992.415,-5.18073,127.495,50.4476,4051.19,-11782.9,2630.64,-23.4388,-85.3262,114.417,12791.8,-1043.1,1006.62,47.2617,-14.2563,7.6879
4.0885,34247.1,2329.33,1348.29,21.6825,199.469,230.251,3631.69,-1127.08,11465.9,7.23202,-112.059,19.2548,-22849.1,19623.3,-1639.92,42.6959,163.094,222.478,1382.82,-12537.3,1311.28,26.806,-28.7051,126.759,15068.6,17056.0,-943.587,-8.52297,129.775,51.0173,4069.91,-11782.7,2721.05,-23.1928,-85.7298,114.166,12820.9,-1054.41,1012.57,46.8374,-14.0842,7.72066
4.089,34158.5,2319.84,1100.85,22.7497,195.864,227.794,3645.19,-1110.63,11485.8,7.06715,-113.247,18.6834,-22924.9,19341.3,-1723.65,42.0532,161.955,218.22,1345.96,-12580.4,1265.49,26.9757,-28.0421,127.662,15076.1,17121.2,-902.299,-11.7374,132.017,51.5588,4075.13,-11784.5,2794.59,-22.9672,-86.1422,113.911,12848.2,-1065.0,1010.1,46.4474,-13.9003,7.77635
4.0895,34038.8,2361.87,894.25,23.3001,191.833,225.049,3638.47,-1075.04,11503.5,6.83505,-114.431,18.1822,-22977.4,19156.7,-1813.34,41.3705,160.907,213.836,1321.87,-12620.0,1236.06,27.1493,-27.5656,128.454,15015.4,17141.7,-887.407,-14.5046,134.128,52.0018,4033.1,-11793.4,2809.11,-22.8125,-86.5853,113.646,12869.1,-1073.06,978.17,46.1768,-13.6748,7.91235
4.09,33919.2,2403.91,687.648,23.8506,187.801,222.305,3631.75,-1039.44,11521.3,6.60296,-115.615,17.6809,-23029.9,18972.1,-1903.03,40.6878,159.859,209.452,1297.77,-12659.6,1206.62,27.3229,-27.0891,129.246,14954.8,17162.1,-872.515,-17.2718,136.238,52.4447,3991.06,-11802.3,2823.63,-22.6578,-87.0283,113.38,12890.0,-1081.12,946.236,45.9063,-13.4494,8.04835
4.0905,33799.5,2445.95,481.046,24.401,183.77,219.56,3625.03,-1003.84,11539.1,6.37086,-116.798,17.1797,-23082.5,18787.5,-1992.71,40.0051,158.811,205.068,1273.67,-12699.2,1177.19,27.4965,-26.6126,130.038,14894.1,17182.6,-857.623,-20.039,138.349,52.8877,3949.03,-11811.2,2838.15,-22.5031,-87.4714,113.115,12910.9,-1089.18,914.302,45.6358,-13.2239,8.18435
4.091,33679.8,2487.99,274.444,24.9514,179.738,216.816,3618.31,-968.243,11556.9,6.13876,-117.982,16.6784,-23135.0,18602.9,-2082.4,39.3225,157.764,200.683,1249.58,-12738.8,1147.75,27.6701,-26.1361,130.83,14833.5,17203.0,-842.73,-22.8062,140.46,53.3306,3906.99,-11820.0,2852.67,-22.3484,-87.9145,112.849,12931.8,-1097.24,882.368,45.3653,-12.9984,8.32035
4.0915,33560.1,2530.02,67.8414,25.5018,175.707,214.072,3611.59,-932.645,11574.7,5.90667,-119.166,16.1772,-23187.5,18418.3,-2172.08,38.6398,156.716,196.299,1225.48,-12778.3,1118.32,27.8437,-25.6595,131.623,14772.8,17223.5,-827.838,-25.5734,142.571,53.7736,3864.95,-11828.9,2867.19,-22.1937,-88.3575,112.584,12952.7,-1105.3,850.434,45.0948,-12.7729,8.45634
4.092,33440.4,2572.06,-138.761,26.0522,171.675,211.327,3604.87,-897.047,11592.5,5.67457,-120.349,15.6759,-23240.0,18233.7,-2261.77,37.9571,155.668,191.915,1201.39,-12817.9,1088.88,28.0173,-25.183,132.415,14712.2,17243.9,-812.946,-28.3406,144.682,54.2166,3822.92,-11837.8,2881.71,-22.0389,-88.8006,112.319,12973.6,-1113.36,818.499,44.8243,-12.5475,8.59234
4.0925,33320.8,2614.1,-345.363,26.6027,167.644,208.583,3598.15,-861.449,11610.3,5.44248,-121.533,15.1747,-23292.5,18049.1,-2351.46,37.2744,154.621,187.531,1177.29,-12857.5,1059.44,28.1909,-24.7065,133.207,14651.5,17264.4,-798.054,-31.1078,146.792,54.6595,3780.88,-11846.7,2896.23,-21.8842,-89.2437,112.053,12994.5,-1121.42,786.565,44.5538,-12.322,8.72834
4.093,33201.1,2656.14,-551.965,27.1531,163.612,205.838,3591.43,-825.852,11628.1,5.21038,-122.717,14.6734,-23345.0,17864.5,-2441.14,36.5918,153.573,183.147,1153.2,-12897.1,1030.01,28.3645,-24.23,133.999,14590.9,17284.8,-783.161,-33.875,148.903,55.1025,3738.85,-11855.6,2910.75,-21.7295,-89.6867,111.788,13015.4,-1129.48,754.631,44.2833,-12.0965,8.86434
4.0935,33078.1,2719.44,-744.618,27.4326,159.434,203.045,3581.73,-778.151,11646.1,4.97305,-123.938,14.2171,-23396.7,17693.2,-2515.73,35.989,152.527,178.811,1137.15,-12933.0,999.65,28.534,-23.8123,134.737,14532.5,17272.5,-800.294,-36.325,150.91,55.4288,3690.88,-11871.3,2905.7,-21.5911,-90.1108,111.513,13032.2,-1133.25,724.858,44.0199,-11.9093,9.03379
4.094,32948.5,2825.27,-909.372,27.1704,154.96,200.154,3566.06,-706.243,11664.5,4.72526,-125.235,13.8508,-23446.5,17548.4,-2560.12,35.5459,151.486,174.572,1137.2,-12961.5,967.447,28.6951,-23.5124,135.367,14478.6,17194.7,-881.479,-38.1403,152.708,55.5217,3631.03,-11900.7,2861.51,-21.4853,-90.4969,111.221,13040.9,-1128.44,699.409,43.7709,-11.7984,9.27014
4.0945,32818.9,2931.1,-1074.13,26.9082,150.487,197.263,3550.39,-634.335,11682.8,4.47747,-126.532,13.4845,-23496.3,17403.7,-2604.5,35.1028,150.444,170.333,1137.24,-12990.1,935.243,28.8562,-23.2125,135.996,14424.7,17116.8,-962.663,-39.9556,154.506,55.6146,3571.19,-11930.0,2817.32,-21.3795,-90.883,110.929,13049.6,-1123.64,673.959,43.522,-11.6876,9.5065
4.095,32689.3,3036.92,-1238.88,26.646,146.014,194.372,3534.72,-562.427,11701.2,4.22967,-127.829,13.1182,-23546.1,17258.9,-2648.89,34.6597,149.403,166.094,1137.29,-13018.6,903.04,29.0173,-22.9126,136.626,14370.8,17038.9,-1043.85,-41.771,156.305,55.7075,3511.34,-11959.4,2773.14,-21.2736,-91.2691,110.636,13058.2,-1118.83,648.51,43.273,-11.5768,9.74285
4.0955,32559.7,3142.75,-1403.63,26.3838,141.541,191.48,3519.05,-490.519,11719.6,3.98188,-129.126,12.7519,-23595.9,17114.2,-2693.28,34.2166,148.362,161.855,1137.34,-13047.2,870.837,29.1785,-22.6127,137.256,14316.9,16961.1,-1125.03,-43.5863,158.103,55.8004,3451.5,-11988.7,2728.95,-21.1678,-91.6552,110.344,13066.9,-1114.02,623.06,43.024,-11.4659,9.97921
4.096,32430.1,3248.58,-1568.39,26.1216,137.068,188.589,3503.38,-418.611,11738.0,3.73409,-130.423,12.3856,-23645.8,16969.4,-2737.67,33.7735,147.32,157.617,1137.39,-13075.7,838.634,29.3396,-22.3128,137.886,14263.0,16883.2,-1206.22,-45.4016,159.902,55.8933,3391.66,-12018.1,2684.76,-21.062,-92.0413,110.052,13075.6,-1109.21,597.611,42.775,-11.3551,10.2156
4.0965,32300.5,3354.41,-1733.14,25.8593,132.594,185.698,3487.71,-346.703,11756.4,3.4863,-131.72,12.0193,-23695.6,16824.7,-2782.05,33.3304,146.279,153.378,1137.44,-13104.3,806.431,29.5007,-22.0129,138.516,14209.1,16805.4,-1287.4,-47.217,161.7,55.9862,3331.81,-12047.4,2640.57,-20.9562,-92.4274,109.759,13084.3,-1104.41,572.161,42.526,-11.2443,10.4519
4.097,32170.9,3460.24,-1897.9,25.5971,128.121,182.807,3472.04,-274.796,11774.8,3.2385,-133.017,11.6531,-23745.4,16679.9,-2826.44,32.8873,145.238,149.139,1137.49,-13132.8,774.228,29.6618,-21.713,139.145,14155.1,16727.5,-1368.58,-49.0323,163.498,56.0792,3271.97,-12076.8,2596.39,-20.8503,-92.8135,109.467,13093.0,-1099.6,546.712,42.277,-11.1335,10.6883
4.0975,32041.3,3566.07,-2062.65,25.3349,123.648,179.916,3456.38,-202.888,11793.2,2.99071,-134.315,11.2868,-23795.2,16535.2,-2870.83,32.4442,144.196,144.9,1137.54,-13161.4,742.024,29.8229,-21.4131,139.775,14101.2,16649.7,-1449.77,-50.8477,165.297,56.1721,3212.12,-12106.2,2552.2,-20.7445,-93.1996,109.175,13101.6,-1094.79,521.262,42.028,-11.0226,10.9246
4.098,31928.1,3686.77,-2218.74,24.8686,119.153,176.991,3438.57,-150.831,11810.4,2.85645,-135.739,10.9564,-23840.1,16407.2,-2882.93,32.0893,143.038,140.775,1121.12,-13192.1,718.679,29.986,-21.0809,140.37,14076.0,16570.5,-1542.07,-52.1849,166.809,56.1296,3154.56,-12137.5,2495.19,-20.6461,-93.5599,108.892,13105.4,-1086.41,493.18,41.8063,-10.8642,11.1983
4.0985,31835.4,3826.07,-2363.99,24.147,114.633,174.023,3418.1,-123.589,11826.3,2.8641,-137.323,10.6708,-23878.8,16300.2,-2854.69,31.8446,141.733,136.793,1084.13,-13225.5,706.405,30.1514,-20.7082,140.92,14086.6,16489.5,-1648.28,-52.9247,167.963,55.9178,3099.85,-12171.4,2422.15,-20.5568,-93.8879,108.621,13103.1,-1073.55,461.807,41.6186,-10.6463,11.5186
4.099,31742.7,3965.37,-2509.25,23.4255,110.112,171.055,3397.62,-96.3471,11842.2,2.87175,-138.907,10.3853,-23917.5,16193.2,-2826.44,31.6,140.428,132.811,1047.14,-13258.9,694.132,30.3168,-20.3355,141.471,14097.1,16408.6,-1754.49,-53.6644,169.117,55.706,3045.15,-12205.2,2349.12,-20.4675,-94.216,108.351,13100.7,-1060.69,430.434,41.4308,-10.4285,11.839
4.0995,31649.9,4104.67,-2654.51,22.704,105.592,168.087,3377.15,-69.1049,11858.1,2.8794,-140.492,10.0998,-23956.2,16086.2,-2798.2,31.3553,139.123,128.829,1010.15,-13292.3,681.858,30.4822,-19.9629,142.021,14107.7,16327.6,-1860.7,-54.4042,170.271,55.4942,2990.44,-12239.1,2276.08,-20.3782,-94.544,108.08,13098.4,-1047.83,399.062,41.2431,-10.2106,12.1593
4.1,31557.2,4243.96,-2799.76,21.9825,101.071,165.119,3356.68,-41.8628,11874.0,2.88706,-142.076,9.8143,-23994.9,15979.1,-2769.95,31.1106,137.818,124.847,973.158,-13325.7,669.584,30.6476,-19.5902,142.571,14118.3,16246.7,-1966.9,-55.1439,171.425,55.2824,2935.73,-12272.9,2203.05,-20.289,-94.872,107.809,13096.0,-1034.97,367.689,41.0554,-9.99275,12.4796
4.1005,31464.5,4383.26,-2945.02,21.261,96.5503,162.152,3336.2,-14.6206,11889.9,2.89471,-143.66,9.52879,-24033.6,15872.1,-2741.71,30.8659,136.513,120.865,936.167,-13359.2,657.311,30.8131,-19.2175,143.122,14128.8,16165.8,-2073.11,-55.8836,172.579,55.0706,2881.02,-12306.8,2130.01,-20.1997,-95.2,107.539,13093.7,-1022.11,336.316,40.8677,-9.77488,12.8
4.101,31371.8,4522.56,-3090.27,20.5394,92.0297,159.184,3315.73,12.6215,11905.8,2.90236,-145.244,9.24327,-24072.3,15765.1,-2713.46,30.6212,135.208,116.883,899.177,-13392.6,645.037,30.9785,-18.8449,143.672,14139.4,16084.8,-2179.32,-56.6234,173.733,54.8588,2826.31,-12340.7,2056.97,-20.1104,-95.528,107.268,13091.4,-1009.25,304.943,40.6799,-9.55702,13.1203
4.1015,31279.1,4661.86,-3235.53,19.8179,87.509,156.216,3295.25,39.8637,11921.7,2.91001,-146.828,8.95776,-24111.0,15658.1,-2685.21,30.3765,133.904,112.901,862.186,-13426.0,632.763,31.1439,-18.4722,144.223,14150.0,16003.9,-2285.52,-57.3631,174.887,54.6471,2771.6,-12374.5,1983.94,-20.0211,-95.856,106.997,13089.0,-996.39,273.57,40.4922,-9.33915,13.4406
4.102,31186.4,4801.15,-3380.79,19.0964,82.9884,153.248,3274.78,67.1059,11937.6,2.91766,-148.412,8.67224,-24149.7,15551.1,-2656.97,30.1318,132.599,108.919,825.195,-13459.4,620.49,31.3093,-18.0995,144.773,14160.5,15923.0,-2391.73,-58.1028,176.041,54.4353,2716.89,-12408.4,1910.9,-19.9319,-96.184,106.727,13086.7,-983.531,242.197,40.3045,-9.12129,13.7609
4.1025,31119.1,4925.13,-3511.04,18.3302,78.5747,150.259,3282.3,52.0438,11956.4,2.93023,-150.005,8.32925,-24206.9,15457.0,-2596.88,29.9659,131.073,105.072,777.898,-13494.4,591.427,31.4732,-17.5555,145.356,14190.6,15838.7,-2465.76,-58.4188,176.544,54.2263,2672.39,-12444.5,1848.43,-19.8374,-96.5134,106.433,13075.6,-964.166,209.918,40.0723,-8.85484,14.0978
4.103,31072.1,5036.85,-3629.3,17.5281,74.2466,147.254,3312.21,3.13822,11977.4,2.94674,-151.606,7.94027,-24278.8,15373.2,-2511.33,29.8631,129.369,101.332,722.355,-13530.7,548.932,31.6358,-16.8743,145.963,14236.2,15751.9,-2514.05,-58.3957,176.525,54.0195,2636.06,-12482.4,1794.4,-19.7387,-96.8437,106.12,13057.4,-939.596,176.914,39.8044,-8.54953,14.448
4.1035,31025.1,5148.56,-3747.56,16.7261,69.9185,144.249,3342.12,-45.7673,11998.4,2.96324,-153.206,7.55129,-24350.8,15289.5,-2425.77,29.7602,127.666,97.5929,666.813,-13567.1,506.438,31.7984,-16.1932,146.571,14281.9,15665.0,-2562.33,-58.3727,176.506,53.8126,2599.72,-12520.4,1740.37,-19.64,-97.1741,105.808,13039.3,-915.026,143.911,39.5366,-8.24422,14.7982
4.104,30978.1,5260.28,-3865.81,15.9241,65.5905,141.244,3372.02,-94.6729,12019.4,2.97974,-154.807,7.16232,-24422.8,15205.7,-2340.21,29.6574,125.963,93.8533,611.271,-13603.4,463.943,31.9609,-15.512,147.179,14327.6,15578.1,-2610.62,-58.3496,176.488,53.6059,2563.39,-12558.3,1686.34,-19.5413,-97.5045,105.496,13021.2,-890.457,110.907,39.2687,-7.93891,15.1483
4.1045,30931.0,5372.0,-3984.07,15.1221,61.2624,138.238,3401.93,-143.578,12040.5,2.99625,-156.407,6.77334,-24494.8,15122.0,-2254.66,29.5546,124.26,90.1136,555.728,-13639.7,421.449,32.1235,-14.8309,147.786,14373.2,15491.3,-2658.91,-58.3266,176.469,53.3991,2527.05,-12596.2,1632.31,-19.4427,-97.8349,105.183,13003.1,-865.887,77.9032,39.0009,-7.6336,15.4985
4.105,30884.0,5483.71,-4102.33,14.32,56.9343,135.233,3431.84,-192.484,12061.5,3.01275,-158.007,6.38436,-24566.7,15038.2,-2169.1,29.4517,122.557,86.3741,500.186,-13676.0,378.954,32.2861,-14.1497,148.394,14418.9,15404.4,-2707.2,-58.3035,176.451,53.1922,2490.72,-12634.2,1578.29,-19.344,-98.1653,104.871,12985.0,-841.317,44.8995,38.733,-7.32829,15.8486
4.1055,30837.0,5595.43,-4220.58,13.518,52.6062,132.228,3461.75,-241.389,12082.5,3.02926,-159.608,5.99539,-24638.7,14954.4,-2083.54,29.3489,120.854,82.6345,444.644,-13712.3,336.459,32.4487,-13.4686,149.002,14464.6,15317.5,-2755.48,-58.2805,176.432,52.9855,2454.38,-12672.1,1524.26,-19.2453,-98.4956,104.558,12966.9,-816.748,11.8958,38.4652,-7.02298,16.1988
4.106,30790.0,5707.15,-4338.84,12.716,48.2781,129.223,3491.66,-290.295,12103.5,3.04576,-161.208,5.60641,-24710.7,14870.7,-1997.98,29.246,119.151,78.8949,389.101,-13748.6,293.965,32.6113,-12.7874,149.609,14510.2,15230.7,-2803.77,-58.2574,176.413,52.7787,2418.05,-12710.0,1470.23,-19.1467,-98.826,104.246,12948.7,-792.178,-21.108,38.1973,-6.71767,16.5489
4.1065,30743.0,5818.86,-4457.09,11.914,43.95,126.217,3521.57,-339.201,12124.6,3.06227,-162.808,5.21743,-24782.7,14786.9,-1912.43,29.1432,117.448,75.1553,333.559,-13784.9,251.47,32.7739,-12.1063,150.217,14555.9,15143.8,-2852.06,-58.2344,176.395,52.5718,2381.71,-12748.0,1416.2,-19.048,-99.1564,103.934,12930.6,-767.609,-54.1117,37.9295,-6.41236,16.8991
4.107,30713.1,5884.39,-4526.72,11.3074,39.8298,123.197,3556.12,-354.574,12133.2,2.97054,-164.351,4.83522,-24849.3,14717.0,-1815.33,28.9096,115.448,71.4953,319.882,-13816.0,213.491,32.9224,-11.427,150.794,14597.9,15037.1,-2862.06,-57.7598,175.496,52.3143,2365.2,-12772.6,1369.41,-18.9229,-99.4723,103.677,12911.1,-742.87,-87.5615,37.5108,-6.08515,17.2473
4.1075,30691.8,5926.82,-4572.04,10.7985,35.8136,120.168,3592.98,-353.181,12135.7,2.8247,-165.864,4.45639,-24913.3,14654.1,-1712.46,28.6107,113.299,67.8753,327.138,-13844.3,177.769,33.0639,-10.7488,151.357,14638.1,14920.4,-2852.92,-57.0596,174.158,52.0313,2358.61,-12790.6,1326.22,-18.7845,-99.7809,103.447,12890.8,-718.046,-121.234,37.0167,-5.74699,17.5946
4.108,30670.5,5969.24,-4617.35,10.2897,31.7974,117.14,3629.85,-351.788,12138.2,2.67886,-167.377,4.07756,-24977.2,14591.1,-1609.58,28.3119,111.15,64.2552,334.393,-13872.7,142.046,33.2054,-10.0705,151.92,14678.2,14803.8,-2843.77,-56.3593,172.82,51.7483,2352.02,-12808.6,1283.04,-18.6462,-100.089,103.218,12870.5,-693.223,-154.907,36.5226,-5.40883,17.942
4.1085,30649.2,6011.67,-4662.66,9.78083,27.7813,114.111,3666.72,-350.395,12140.7,2.53302,-168.89,3.69873,-25041.2,14528.1,-1506.71,28.013,109.001,60.6351,341.649,-13901.0,106.324,33.3469,-9.39221,152.482,14718.4,14687.1,-2834.63,-55.6591,171.482,51.4653,2345.43,-12826.5,1239.86,-18.5078,-100.398,102.988,12850.2,-668.399,-188.58,36.0285,-5.07067,18.2893
4.109,30627.9,6054.1,-4707.98,9.27198,23.7651,111.083,3703.58,-349.002,12143.2,2.38717,-170.403,3.3199,-25105.1,14465.2,-1403.84,27.7141,106.852,57.0151,348.904,-13929.4,70.602,33.4884,-8.71393,153.045,14758.6,14570.4,-2825.49,-54.9588,170.144,51.1823,2338.83,-12844.5,1196.68,-18.3695,-100.707,102.759,12829.9,-643.576,-222.253,35.5344,-4.7325,18.6366
4.1095,30606.6,6096.53,-4753.29,8.76313,19.7489,108.054,3740.45,-347.609,12145.7,2.24133,-171.916,2.94107,-25169.1,14402.2,-1300.97,27.4152,104.703,53.395,356.16,-13957.8,34.8799,33.6298,-8.03565,153.608,14798.8,14453.8,-2816.34,-54.2585,168.806,50.8993,2332.24,-12862.5,1153.5,-18.2312,-101.015,102.53,12809.6,-618.752,-255.926,35.0403,-4.39434,18.9839
4.11,30585.3,6138.95,-4798.6,8.25428,15.7327,105.026,3777.31,-346.216,12148.2,2.09549,-173.429,2.56224,-25233.1,14339.3,-1198.09,27.1163,102.554,49.7749,363.415,-13986.1,-0.842318,33.7713,-7.35738,154.17,14839.0,14337.1,-2807.2,-53.5583,167.468,50.6163,2325.65,-12880.5,1110.32,-18.0928,-101.324,102.3,12789.3,-593.929,-289.599,34.5462,-4.05618,19.3312
4.1105,30564.0,6181.38,-4843.91,7.74543,11.7165,101.997,3814.18,-344.823,12150.7,1.94965,-174.942,2.18341,-25297.0,14276.3,-1095.22,26.8174,100.405,46.1549,370.671,-14014.5,-36.5645,33.9128,-6.6791,154.733,14879.1,14220.4,-2798.05,-52.858,166.129,50.3333,2319.05,-12898.5,1067.13,-17.9545,-101.633,102.071,12769.0,-569.105,-323.272,34.0521,-3.71802,19.6785
4.111,30542.7,6223.81,-4889.23,7.23658,7.7003,98.9686,3851.05,-343.43,12153.2,1.80381,-176.455,1.80458,-25361.0,14213.3,-992.35,26.5185,98.2556,42.5348,377.926,-14042.9,-72.2867,34.0543,-6.00082,155.295,14919.3,14103.7,-2788.91,-52.1578,164.791,50.0503,2312.46,-12916.5,1023.95,-17.8161,-101.941,101.841,12748.7,-544.282,-356.945,33.558,-3.37986,20.0258
4.1115,30528.3,6224.01,-4898.74,7.03358,4.0364,95.855,3843.3,-299.104,12155.9,1.66945,-178.015,1.55254,-25402.5,14141.7,-916.217,26.0321,95.9666,38.9547,397.839,-14080.4,-84.3772,34.1979,-5.51682,155.722,14903.0,13999.5,-2720.32,-51.1728,162.713,49.9661,2311.43,-12913.2,957.902,-17.706,-102.161,101.603,12726.9,-515.684,-387.445,33.064,-3.00022,20.3309
4.112,30516.0,6212.15,-4898.02,6.91797,0.473154,92.717,3822.8,-242.511,12158.7,1.53837,-179.589,1.33673,-25437.6,14067.6,-847.723,25.4921,93.6375,35.386,421.369,-14120.5,-89.7157,34.3422,-5.08834,156.11,14870.5,13898.9,-2634.74,-50.1065,160.424,49.9387,2311.99,-12903.8,885.318,-17.604,-102.356,101.363,12704.6,-486.008,-417.039,32.57,-2.60872,20.6238
4.1125,30503.7,6200.3,-4897.3,6.80236,-3.09009,89.5791,3802.31,-185.918,12161.4,1.4073,-181.163,1.12092,-25472.8,13993.5,-779.23,24.9521,91.3084,31.8172,444.899,-14160.6,-95.0543,34.4864,-4.65986,156.498,14838.0,13798.2,-2549.16,-49.0402,158.135,49.9112,2312.54,-12894.4,812.733,-17.5019,-102.551,101.122,12682.4,-456.332,-446.633,32.076,-2.21723,20.9168
4.113,30491.4,6188.44,-4896.59,6.68675,-6.65334,86.4411,3781.81,-129.325,12164.2,1.27622,-182.736,0.905103,-25507.9,13919.4,-710.737,24.4121,88.9793,28.2485,468.428,-14200.7,-100.393,34.6307,-4.23137,156.886,14805.5,13697.5,-2463.58,-47.9739,155.846,49.8838,2313.1,-12885.0,740.148,-17.3999,-102.746,100.882,12660.1,-426.656,-476.226,31.582,-1.82573,21.2098
4.1135,30479.0,6176.58,-4895.87,6.57114,-10.2166,83.3032,3761.32,-72.7324,12167.0,1.14515,-184.31,0.68929,-25543.0,13845.3,-642.243,23.8721,86.6502,24.6798,491.958,-14240.8,-105.731,34.7749,-3.80289,157.274,14773.0,13596.9,-2377.99,-46.9076,153.557,49.8564,2313.65,-12875.5,667.563,-17.2979,-102.94,100.641,12637.8,-396.981,-505.82,31.088,-1.43424,21.5028
4.114,30466.7,6164.72,-4895.15,6.45553,-13.7798,80.1652,3740.82,-16.1395,12169.7,1.01407,-185.883,0.473477,-25578.1,13771.2,-573.75,23.3321,84.3212,21.1111,515.488,-14280.9,-111.07,34.9192,-3.3744,157.662,14740.5,13496.2,-2292.41,-45.8413,151.268,49.829,2314.21,-12866.1,594.978,-17.1958,-103.135,100.4,12615.6,-367.305,-535.414,30.5941,-1.04274,21.7957
4.1145,30454.4,6152.86,-4894.43,6.33992,-17.3431,77.0273,3720.33,40.4534,12172.5,0.882994,-187.457,0.257665,-25613.2,13697.1,-505.256,22.792,81.9921,17.5424,539.018,-14321.0,-116.409,35.0634,-2.94592,158.05,14708.0,13395.5,-2206.83,-44.7751,148.979,49.8015,2314.76,-12856.7,522.394,-17.0938,-103.33,100.16,12593.3,-337.629,-565.007,30.1001,-0.651247,22.0887
4.115,30442.0,6141.0,-4893.72,6.22431,-20.9063,73.8894,3699.83,97.0463,12175.3,0.751918,-189.031,0.0418518,-25648.3,13623.0,-436.763,22.252,79.663,13.9737,562.547,-14361.1,-121.747,35.2077,-2.51743,158.438,14675.5,13294.9,-2121.25,-43.7088,146.689,49.7741,2315.32,-12847.3,449.809,-16.9918,-103.525,99.9194,12571.1,-307.953,-594.601,29.6061,-0.259752,22.3817
4.1155,30429.7,6129.14,-4893.0,6.1087,-24.4696,70.7514,3679.34,153.639,12178.0,0.620842,-190.604,-0.173961,-25683.5,13548.9,-368.27,21.712,77.3339,10.405,586.077,-14401.2,-127.086,35.3519,-2.08895,158.826,14643.0,13194.2,-2035.67,-42.6425,144.4,49.7467,2315.87,-12837.9,377.224,-16.8897,-103.72,99.6788,12548.8,-278.277,-624.195,29.1121,0.131743,22.6747
4.116,30394.8,6090.52,-4870.59,6.36035,-27.6495,67.6381,3637.57,193.608,12170.3,0.588116,-192.283,-0.404678,-25678.3,13491.9,-328.874,20.9907,75.0607,6.84249,589.602,-14442.4,-145.2,35.5007,-1.84911,159.134,14512.6,13134.9,-1962.84,-41.544,141.71,50.1736,2327.42,-12824.3,278.035,-17.0902,-103.529,99.3091,12522.3,-260.892,-658.833,28.696,0.542199,22.9506
4.1165,30357.1,6048.55,-4845.46,6.65791,-30.7816,64.5279,3593.15,231.498,12161.2,0.567684,-193.975,-0.637257,-25668.0,13437.0,-293.116,20.2468,72.7945,3.28078,590.627,-14483.8,-164.91,35.65,-1.63286,159.433,14370.1,13080.7,-1891.6,-40.4416,138.969,50.6573,2340.33,-12810.2,175.521,-17.3285,-103.289,98.9232,12495.3,-245.042,-694.102,28.2896,0.955025,23.2243
4.117,30319.3,6006.59,-4820.34,6.95547,-33.9137,61.4177,3548.73,269.389,12152.2,0.547251,-195.666,-0.869837,-25657.7,13382.2,-257.357,19.5028,70.5283,-0.28093,591.652,-14525.1,-184.621,35.7993,-1.4166,159.731,14227.6,13026.5,-1820.36,-39.3391,136.228,51.1411,2353.25,-12796.0,73.0069,-17.5667,-103.05,98.5374,12468.3,-229.193,-729.371,27.8832,1.36785,23.4981
4.1175,30281.6,5964.62,-4795.21,7.25303,-37.0457,58.3075,3504.3,307.28,12143.1,0.526819,-197.358,-1.10242,-25647.5,13327.3,-221.599,18.7589,68.2621,-3.84264,592.677,-14566.5,-204.332,35.9487,-1.20034,160.03,14085.0,12972.3,-1749.12,-38.2367,133.488,51.6248,2366.16,-12781.9,-29.5073,-17.805,-102.811,98.1515,12441.3,-213.343,-764.639,27.4768,1.78068,23.7718
4.118,30243.9,5922.65,-4770.09,7.55059,-40.1778,55.1972,3459.88,345.17,12134.1,0.506387,-199.05,-1.335,-25637.2,13272.4,-185.84,18.0149,65.9959,-7.40435,593.702,-14607.8,-224.043,36.098,-0.984085,160.328,13942.5,12918.0,-1677.88,-37.1342,130.747,52.1085,2379.08,-12767.8,-132.021,-18.0433,-102.572,97.7657,12414.2,-197.494,-799.908,27.0704,2.1935,24.0456
