Time,RFoot_accel.x,RFoot_accel.y,RFoot_accel.z,RFoot_gyro.x,RFoot_gyro.y,RFoot_gyro.z,LFoot_accel.x,LFoot_accel.y,LFoot_accel.z,LFoot_gyro.x,LFoot_gyro.y,LFoot_gyro.z,RShank_accel.x,RShank_accel.y,RShank_accel.z,RShank_gyro.x,RShank_gyro.y,RShank_gyro.z,LShank_accel.x,LShank_accel.y,LShank_accel.z,LShank_gyro.x,LShank_gyro.y,LShank_gyro.z,RThigh_accel.x,RThigh_accel.y,RThigh_accel.z,RThigh_gyro.x,RThigh_gyro.y,RThigh_gyro.z,LThigh_accel.x,LThigh_accel.y,LThigh_accel.z,LThigh_gyro.x,LThigh_gyro.y,LThigh_gyro.z,Pelvis_accel.x,Pelvis_accel.y,Pelvis_accel.z,Pelvis_gyro.x,Pelvis_gyro.y,Pelvis_gyro.z
3.33,4662.41,1893.47,14268.2,-11.6155,306.594,208.775,4166.77,152.251,8948.33,4.1556,-7.67153,18.5057,4377.72,14795.8,3626.25,70.8867,140.244,372.887,-2690.01,-10170.9,-1356.05,-9.07263,-41.0208,37.4936,-7532.42,3479.06,99.776,-19.3902,16.9958,128.856,-2328.8,-9883.01,-1858.59,-48.7593,-70.5011,94.408,7805.42,-574.494,785.385,66.1789,6.38834,36.7728
3.3305,4716.12,1928.41,14326.6,-10.528,305.654,210.317,4186.17,140.277,8956.03,4.33204,-7.87063,18.5906,4364.22,14906.8,3614.95,70.3476,142.554,373.289,-2698.33,-10179.0,-1379.01,-9.01726,-41.1946,37.44,-7548.96,3509.8,55.3153,-19.8465,14.7627,128.228,-2333.51,-9894.83,-1865.53,-48.9957,-71.0945,94.6956,7821.82,-586.319,791.921,66.309,6.33035,36.8021
3.331,4769.84,1963.35,14385.1,-9.44055,304.715,211.859,4205.57,128.304,8963.74,4.50848,-8.06972,18.6756,4350.71,15017.8,3603.65,69.8084,144.863,373.691,-2706.65,-10187.1,-1401.97,-8.96189,-41.3685,37.3864,-7565.5,3540.53,10.8546,-20.3027,12.5295,127.599,-2338.23,-9906.65,-1872.48,-49.2322,-71.688,94.9833,7838.22,-598.144,798.457,66.4391,6.27235,36.8313
3.3315,4823.55,1998.28,14443.6,-8.35309,303.776,213.401,4224.97,116.331,8971.44,4.68491,-8.26882,18.7606,4337.2,15128.8,3592.34,69.2692,147.172,374.093,-2714.97,-10195.3,-1424.93,-8.90652,-41.5423,37.3329,-7582.04,3571.26,-33.6061,-20.759,10.2964,126.97,-2342.94,-9918.47,-1879.42,-49.4686,-72.2814,95.2709,7854.61,-609.969,804.992,66.5693,6.21436,36.8606
3.332,4877.27,2033.22,14502.0,-7.26563,302.837,214.942,4244.37,104.357,8979.14,4.86135,-8.46791,18.8456,4323.7,15239.8,3581.04,68.73,149.482,374.495,-2723.29,-10203.4,-1447.9,-8.85116,-41.7161,37.2793,-7598.57,3601.99,-78.0668,-21.2153,8.06329,126.342,-2347.66,-9930.29,-1886.37,-49.7051,-72.8748,95.5586,7871.01,-621.794,811.528,66.6994,6.15636,36.8898
3.3325,4930.98,2068.16,14560.5,-6.17817,301.898,216.484,4263.77,92.3839,8986.84,5.03779,-8.667,18.9306,4310.19,15350.8,3569.73,68.1908,151.791,374.897,-2731.61,-10211.5,-1470.86,-8.79579,-41.8899,37.2257,-7615.11,3632.73,-122.528,-21.6715,5.83017,125.713,-2352.37,-9942.11,-1893.31,-49.9415,-73.4682,95.8462,7887.41,-633.618,818.064,66.8295,6.09837,36.919
3.333,4984.7,2103.1,14618.9,-5.09071,300.959,218.026,4283.17,80.4106,8994.54,5.21423,-8.8661,19.0156,4296.69,15461.8,3558.43,67.6516,154.1,375.299,-2739.93,-10219.6,-1493.82,-8.74042,-42.0637,37.1722,-7631.65,3663.46,-166.988,-22.1278,3.59704,125.085,-2357.09,-9953.93,-1900.25,-50.178,-74.0617,96.1338,7903.8,-645.443,824.6,66.9596,6.04037,36.9483
3.3335,5034.57,2135.73,14686.1,-4.01482,299.949,219.566,4297.05,75.6808,9004.52,5.39142,-9.03853,19.1088,4273.77,15576.0,3548.49,67.0705,156.296,375.693,-2743.34,-10228.7,-1514.44,-8.6724,-42.1951,37.0991,-7645.4,3696.81,-215.69,-22.5945,1.3936,124.485,-2362.14,-9965.35,-1900.58,-50.3959,-74.6664,96.4342,7916.13,-655.175,826.0,67.0484,5.96973,36.9585
3.334,5076.73,2163.73,14770.7,-2.96206,298.797,221.102,4299.87,85.4382,9019.04,5.57015,-9.15766,19.2182,4232.04,15696.3,3541.31,66.4057,158.265,376.071,-2736.93,-10239.6,-1530.37,-8.57908,-42.2418,36.9871,-7653.58,3735.38,-272.875,-23.0821,-0.750489,123.944,-2367.85,-9975.94,-1887.65,-50.5767,-75.2937,96.7602,7920.33,-660.719,817.128,67.0544,5.87378,36.9308
3.3345,5118.9,2191.73,14855.4,-1.9093,297.646,222.638,4302.7,95.1956,9033.57,5.74887,-9.27678,19.3276,4190.3,15816.7,3534.12,65.7409,160.233,376.449,-2730.52,-10250.6,-1546.3,-8.48575,-42.2885,36.8751,-7661.76,3773.96,-330.059,-23.5698,-2.89457,123.403,-2373.57,-9986.54,-1874.73,-50.7575,-75.921,97.0862,7924.52,-666.263,808.256,67.0604,5.77783,36.9031
3.335,5161.07,2219.73,14940.0,-0.856537,296.494,224.174,4305.52,104.953,9048.09,5.92759,-9.3959,19.4371,4148.56,15937.0,3526.93,65.0761,162.202,376.827,-2724.12,-10261.6,-1562.23,-8.39243,-42.3351,36.7631,-7669.93,3812.53,-387.244,-24.0574,-5.03866,122.862,-2379.29,-9997.13,-1861.81,-50.9383,-76.5483,97.4121,7928.72,-671.807,799.385,67.0664,5.68189,36.8754
3.3355,5203.24,2247.73,15024.6,0.196223,295.343,225.71,4308.35,114.71,9062.62,6.10632,-9.51503,19.5465,4106.83,16057.4,3519.75,64.4113,164.17,377.204,-2717.71,-10272.6,-1578.15,-8.29911,-42.3818,36.6512,-7678.11,3851.11,-444.428,-24.5451,-7.18275,122.321,-2385.0,-10007.7,-1848.89,-51.1191,-77.1757,97.7381,7932.91,-677.351,790.513,67.0724,5.58594,36.8477
3.336,5245.41,2275.73,15109.2,1.24898,294.191,227.246,4311.17,124.468,9077.14,6.28504,-9.63415,19.656,4065.09,16177.7,3512.56,63.7465,166.139,377.582,-2711.3,-10283.6,-1594.08,-8.20579,-42.4284,36.5392,-7686.29,3889.68,-501.612,-25.0327,-9.32683,121.78,-2390.72,-10018.3,-1835.97,-51.3,-77.803,98.064,7937.1,-682.895,781.641,67.0784,5.48999,36.82
3.3365,5287.58,2303.73,15193.8,2.30174,293.04,228.782,4314.0,134.225,9091.66,6.46376,-9.75327,19.7654,4023.36,16298.1,3505.37,63.0816,168.107,377.96,-2704.89,-10294.6,-1610.01,-8.11247,-42.4751,36.4272,-7694.47,3928.26,-558.797,-25.5203,-11.4709,121.239,-2396.44,-10028.9,-1823.05,-51.4808,-78.4303,98.39,7941.3,-688.439,772.77,67.0844,5.39405,36.7922
3.337,5329.75,2331.73,15278.5,3.3545,291.888,230.318,4316.83,143.983,9106.19,6.64249,-9.87239,19.8748,3981.62,16418.4,3498.18,62.4168,170.076,378.337,-2698.48,-10305.6,-1625.94,-8.01914,-42.5218,36.3152,-7702.65,3966.83,-615.981,-26.008,-13.615,120.698,-2402.16,-10039.5,-1810.12,-51.6616,-79.0576,98.7159,7945.49,-693.982,763.898,67.0904,5.2981,36.7645
3.3375,5371.92,2359.73,15363.1,4.40726,290.737,231.855,4319.65,153.74,9120.71,6.82121,-9.99152,19.9843,3939.88,16538.8,3491.0,61.752,172.045,378.715,-2692.07,-10316.5,-1641.87,-7.92582,-42.5684,36.2032,-7710.82,4005.41,-673.166,-26.4956,-15.7591,120.157,-2407.87,-10050.1,-1797.2,-51.8424,-79.6849,99.0419,7949.69,-699.526,755.026,67.0964,5.20215,36.7368
3.338,5416.95,2374.49,15442.8,5.56748,289.565,233.268,4317.25,154.185,9136.55,7.07838,-10.1169,20.1088,3894.41,16658.3,3482.26,61.038,173.904,379.117,-2679.48,-10328.5,-1659.84,-7.86522,-42.6086,36.0942,-7712.99,4039.95,-723.014,-26.9646,-17.7362,119.638,-2404.32,-10063.9,-1787.81,-51.9647,-80.3303,99.3442,7949.03,-699.033,744.531,67.1238,5.11038,36.7268
3.3385,5465.54,2372.7,15516.4,6.86202,288.37,234.527,4308.31,142.991,9154.02,7.43362,-10.2503,20.2521,3844.27,16776.9,3471.58,60.2625,175.627,379.548,-2659.17,-10341.6,-1680.37,-7.84552,-42.6408,35.9888,-7707.63,4069.45,-763.693,-27.4102,-19.5047,119.146,-2389.17,-10081.6,-1782.83,-52.014,-80.9984,99.6168,7942.32,-690.994,732.006,67.1779,5.02384,36.7389
3.339,5514.13,2370.91,15590.0,8.15656,287.174,235.786,4299.37,131.796,9171.5,7.78886,-10.3836,20.3954,3794.13,16895.5,3460.9,59.4871,177.35,379.979,-2638.85,-10354.7,-1700.9,-7.82583,-42.6729,35.8835,-7702.28,4098.94,-804.373,-27.8557,-21.2732,118.655,-2374.03,-10099.3,-1777.86,-52.0632,-81.6664,99.8895,7935.6,-682.955,719.481,67.2321,4.9373,36.751
3.3395,5562.73,2369.13,15663.6,9.45111,285.978,237.045,4290.43,120.602,9188.97,8.1441,-10.5169,20.5386,3743.99,17014.2,3450.22,58.7116,179.073,380.41,-2618.53,-10367.8,-1721.43,-7.80613,-42.705,35.7781,-7696.92,4128.44,-845.052,-28.3013,-23.0417,118.163,-2358.88,-10117.1,-1772.88,-52.1125,-82.3345,100.162,7928.89,-674.915,706.956,67.2862,4.85076,36.7631
3.34,5611.32,2367.34,15737.2,10.7456,284.782,238.304,4281.49,109.407,9206.45,8.49933,-10.6502,20.6819,3693.84,17132.8,3439.55,57.9361,180.797,380.841,-2598.21,-10380.9,-1741.96,-7.78643,-42.7371,35.6728,-7691.57,4157.94,-885.731,-28.7469,-24.8101,117.672,-2343.73,-10134.8,-1767.9,-52.1617,-83.0025,100.435,7922.17,-666.876,694.43,67.3404,4.76421,36.7752
3.3405,5659.91,2365.55,15810.8,12.0402,283.586,239.563,4272.55,98.2124,9223.92,8.85457,-10.7835,20.8252,3643.7,17251.4,3428.87,57.1606,182.52,381.273,-2577.89,-10394.0,-1762.49,-7.76673,-42.7693,35.5674,-7686.21,4187.44,-926.41,-29.1925,-26.5786,117.18,-2328.59,-10152.5,-1762.92,-52.2109,-83.6706,100.707,7915.46,-658.836,681.905,67.3945,4.67767,36.7873
3.341,5708.5,2363.76,15884.4,13.3347,282.39,240.822,4263.61,87.0178,9241.4,9.20981,-10.9168,20.9685,3593.56,17370.0,3418.19,56.3852,184.243,381.704,-2557.57,-10407.1,-1783.02,-7.74703,-42.8014,35.4621,-7680.86,4216.93,-967.089,-29.638,-28.3471,116.688,-2313.44,-10170.3,-1757.95,-52.2602,-84.3386,100.98,7908.74,-650.797,669.38,67.4487,4.59113,36.7994
3.3415,5757.1,2361.97,15958.0,14.6293,281.194,242.082,4254.67,75.8232,9258.87,9.56504,-11.0501,21.1118,3543.42,17488.6,3407.51,55.6097,185.966,382.135,-2537.25,-10420.3,-1803.55,-7.72734,-42.8335,35.3567,-7675.5,4246.43,-1007.77,-30.0836,-30.1156,116.197,-2298.3,-10188.0,-1752.97,-52.3094,-85.0067,101.253,7902.02,-642.757,656.855,67.5028,4.50458,36.8116
3.342,5805.69,2360.18,16031.6,15.9238,279.998,243.341,4245.72,64.6286,9276.35,9.92028,-11.1834,21.2551,3493.27,17607.2,3396.83,54.8342,187.689,382.566,-2516.93,-10433.4,-1824.08,-7.70764,-42.8656,35.2514,-7670.15,4275.93,-1048.45,-30.5292,-31.8841,115.705,-2283.15,-10205.7,-1747.99,-52.3586,-85.6747,101.525,7895.31,-634.718,644.33,67.557,4.41804,36.8237
3.3425,5891.33,2322.32,16095.9,17.326,278.931,244.555,4232.08,60.8932,9286.19,10.2874,-11.394,21.3891,3423.16,17736.3,3373.2,53.9526,189.405,382.999,-2498.25,-10450.8,-1834.78,-7.65392,-42.8978,35.1231,-7653.71,4299.59,-1072.17,-30.9405,-33.4193,115.221,-2260.75,-10229.4,-1747.56,-52.4108,-86.3561,101.849,7891.66,-637.28,642.913,67.6097,4.35636,36.8373
3.343,6006.61,2255.6,16152.7,18.8143,277.968,245.734,4214.66,63.1251,9289.92,10.6641,-11.6663,21.5157,3337.06,17873.8,3339.21,52.986,191.116,383.432,-2480.87,-10471.6,-1837.62,-7.57298,-42.9301,34.9766,-7628.41,4318.57,-1082.32,-31.3245,-34.7679,114.742,-2232.55,-10257.8,-1750.77,-52.4653,-87.0482,102.212,7890.47,-648.322,650.382,67.6613,4.31456,36.8522
3.3435,6121.89,2188.89,16209.6,20.3026,277.005,246.913,4197.24,65.357,9293.66,11.0408,-11.9387,21.6423,3250.97,18011.3,3305.21,52.0194,192.827,383.865,-2463.49,-10492.4,-1840.45,-7.49204,-42.9623,34.83,-7603.1,4337.56,-1092.48,-31.7085,-36.1166,114.263,-2204.35,-10286.3,-1753.97,-52.5198,-87.7402,102.576,7889.27,-659.365,657.851,67.713,4.27276,36.8671
3.344,6237.16,2122.17,16266.5,21.7909,276.042,248.092,4179.83,67.5889,9297.39,11.4174,-12.211,21.7689,3164.87,18148.8,3271.22,51.0528,194.537,384.299,-2446.11,-10513.2,-1843.29,-7.4111,-42.9945,34.6835,-7577.8,4356.55,-1102.63,-32.0925,-37.4652,113.784,-2176.15,-10314.7,-1757.18,-52.5743,-88.4323,102.94,7888.08,-670.407,665.321,67.7646,4.23096,36.882
3.3445,6352.44,2055.46,16323.3,23.2792,275.078,249.271,4162.41,69.8208,9301.13,11.7941,-12.4833,21.8954,3078.77,18286.3,3237.22,50.0863,196.248,384.732,-2428.73,-10534.1,-1846.12,-7.33016,-43.0268,34.5369,-7552.5,4375.53,-1112.79,-32.4764,-38.8139,113.306,-2147.95,-10343.1,-1760.39,-52.6288,-89.1243,103.303,7886.88,-681.45,672.79,67.8162,4.18917,36.8969
3.345,6467.72,1988.74,16380.2,24.7675,274.115,250.45,4144.99,72.0528,9304.87,12.1708,-12.7557,22.022,2992.68,18423.8,3203.23,49.1197,197.959,385.166,-2411.35,-10554.9,-1848.96,-7.24923,-43.059,34.3903,-7527.19,4394.52,-1122.94,-32.8604,-40.1625,112.827,-2119.75,-10371.5,-1763.59,-52.6833,-89.8163,103.667,7885.69,-692.493,680.259,67.8678,4.14737,36.9118
3.3455,6582.99,1922.02,16437.1,26.2558,273.152,251.63,4127.58,74.2847,9308.6,12.5474,-13.028,22.1486,2906.58,18561.3,3169.23,48.1531,199.669,385.599,-2393.97,-10575.7,-1851.79,-7.16829,-43.0912,34.2438,-7501.89,4413.51,-1133.1,-33.2444,-41.5112,112.348,-2091.55,-10400.0,-1766.8,-52.7378,-90.5084,104.03,7884.5,-703.535,687.729,67.9194,4.10557,36.9267
3.346,6698.27,1855.31,16493.9,27.7441,272.189,252.809,4110.16,76.5166,9312.33,12.9241,-13.3003,22.2752,2820.49,18698.8,3135.24,47.1865,201.38,386.032,-2376.59,-10596.6,-1854.63,-7.08735,-43.1235,34.0972,-7476.59,4432.49,-1143.25,-33.6284,-42.8598,111.87,-2063.35,-10428.4,-1770.01,-52.7923,-91.2004,104.394,7883.3,-714.578,695.198,67.9711,4.06377,36.9416
3.3465,6813.55,1788.59,16550.8,29.2324,271.225,253.988,4092.74,78.7485,9316.07,13.3008,-13.5727,22.4018,2734.39,18836.4,3101.24,46.2199,203.09,386.466,-2359.21,-10617.4,-1857.46,-7.00641,-43.1557,33.9507,-7451.28,4451.48,-1153.41,-34.0123,-44.2085,111.391,-2035.15,-10456.8,-1773.21,-52.8468,-91.8925,104.758,7882.11,-725.621,702.667,68.0227,4.02198,36.9565
3.347,6988.15,1717.69,16595.9,30.9003,270.613,255.16,4095.49,82.5511,9322.67,13.6949,-13.8186,22.5485,2642.77,18941.2,3064.79,45.1878,204.69,386.855,-2358.27,-10637.3,-1858.73,-6.95848,-43.2231,33.8763,-7400.75,4469.09,-1166.77,-34.2844,-45.3987,110.882,-2019.76,-10486.1,-1777.19,-52.9029,-92.5104,105.1,7883.28,-727.175,693.27,68.0723,3.88891,36.9387
3.3475,7192.4,1644.7,16635.1,32.658,270.177,256.33,4108.31,87.1391,9330.7,14.0977,-14.0515,22.7052,2548.39,19029.8,3027.1,44.1229,206.235,387.223,-2365.55,-10656.7,-1859.21,-6.92706,-43.3081,33.8379,-7337.59,4486.01,-1181.74,-34.5004,-46.5097,110.358,-2010.77,-10515.7,-1781.55,-52.9597,-93.0913,105.432,7885.64,-723.986,675.438,68.1208,3.7102,36.9046
3.348,7396.65,1571.71,16674.4,34.4156,269.741,257.499,4121.13,91.727,9338.73,14.5005,-14.2843,22.8619,2454.01,19118.4,2989.42,43.0579,207.78,387.591,-2372.82,-10676.1,-1859.7,-6.89564,-43.3931,33.7996,-7274.44,4502.93,-1196.71,-34.7165,-47.6208,109.833,-2001.78,-10545.3,-1785.91,-53.0165,-93.6722,105.765,7887.99,-720.796,657.607,68.1694,3.53149,36.8704
3.3485,7600.91,1498.72,16713.6,36.1733,269.305,258.669,4133.95,96.315,9346.76,14.9033,-14.5171,23.0186,2359.63,19207.0,2951.73,41.993,209.325,387.959,-2380.1,-10695.5,-1860.18,-6.86422,-43.4781,33.7612,-7211.28,4519.85,-1211.68,-34.9325,-48.7318,109.309,-1992.79,-10575.0,-1790.28,-53.0734,-94.253,106.097,7890.34,-717.607,639.775,68.218,3.35278,36.8363
3.349,7805.16,1425.73,16752.9,37.931,268.868,259.839,4146.77,100.903,9354.79,15.3062,-14.7499,23.1753,2265.25,19295.6,2914.04,40.9281,210.87,388.327,-2387.38,-10714.9,-1860.67,-6.8328,-43.5631,33.7229,-7148.13,4536.77,-1226.65,-35.1486,-49.8429,108.785,-1983.8,-10604.6,-1794.64,-53.1302,-94.8339,106.429,7892.7,-714.417,621.944,68.2666,3.17408,36.8022
3.3495,8009.42,1352.74,16792.1,39.6887,268.432,261.008,4159.59,105.491,9362.82,15.709,-14.9827,23.332,2170.87,19384.2,2876.36,39.8631,212.414,388.695,-2394.66,-10734.3,-1861.15,-6.80138,-43.6481,33.6846,-7084.98,4553.7,-1241.62,-35.3647,-50.9539,108.261,-1974.81,-10634.3,-1799.0,-53.187,-95.4148,106.761,7895.05,-711.228,604.112,68.3152,2.99537,36.7681
3.35,8213.67,1279.75,16831.4,41.4464,267.996,262.178,4172.41,110.079,9370.84,16.1118,-15.2155,23.4887,2076.49,19472.8,2838.67,38.7982,213.959,389.063,-2401.94,-10753.7,-1861.64,-6.76995,-43.7331,33.6462,-7021.82,4570.62,-1256.59,-35.5807,-52.0649,107.736,-1965.82,-10663.9,-1803.36,-53.2439,-95.9957,107.093,7897.41,-708.038,586.281,68.3637,2.81666,36.7339
3.3505,8417.93,1206.76,16870.6,43.2041,267.559,263.347,4185.23,114.667,9378.87,16.5146,-15.4483,23.6454,1982.11,19561.3,2800.98,37.7333,215.504,389.43,-2409.22,-10773.1,-1862.12,-6.73853,-43.8181,33.6079,-6958.67,4587.54,-1271.56,-35.7968,-53.176,107.212,-1956.83,-10693.5,-1807.72,-53.3007,-96.5765,107.425,7899.76,-704.849,568.45,68.4123,2.63795,36.6998
3.351,8622.18,1133.77,16909.9,44.9618,267.123,264.517,4198.05,119.255,9386.9,16.9175,-15.6811,23.8022,1887.74,19649.9,2763.3,36.6683,217.049,389.798,-2416.49,-10792.5,-1862.61,-6.70711,-43.9031,33.5695,-6895.51,4604.46,-1286.53,-36.0129,-54.287,106.688,-1947.84,-10723.2,-1812.08,-53.3575,-97.1574,107.757,7902.12,-701.659,550.618,68.4609,2.45924,36.6657
3.3515,8852.71,1077.94,16950.9,46.9183,267.02,265.665,4217.08,123.86,9396.83,17.2792,-15.918,23.9314,1776.61,19744.5,2715.4,35.6339,218.609,390.095,-2423.94,-10817.3,-1861.14,-6.66745,-43.9855,33.5722,-6814.46,4604.76,-1307.27,-36.0732,-55.337,106.235,-1907.21,-10745.2,-1809.75,-53.3954,-97.7951,108.102,7915.14,-703.707,557.1,68.5898,2.24883,36.6304
3.352,9090.75,1027.01,16992.5,48.9317,267.013,266.806,4237.88,128.471,9407.3,17.6291,-16.1561,24.0528,1660.7,19840.8,2664.59,34.6083,220.174,390.371,-2431.44,-10843.5,-1859.1,-6.62543,-44.0671,33.5866,-6728.28,4600.32,-1329.66,-36.0891,-56.3695,105.802,-1857.53,-10765.2,-1805.5,-53.4279,-98.4491,108.451,7931.21,-707.252,570.528,68.7417,2.02935,36.5949
3.3525,9328.79,976.078,17034.1,50.945,267.006,267.948,4258.67,133.081,9417.76,17.9791,-16.3941,24.1741,1544.79,19937.0,2613.78,33.5826,221.739,390.648,-2438.94,-10869.8,-1857.07,-6.58341,-44.1486,33.6011,-6642.11,4595.87,-1352.05,-36.105,-57.402,105.369,-1807.85,-10785.1,-1801.25,-53.4604,-99.103,108.799,7947.28,-710.797,583.957,68.8935,1.80988,36.5593
3.353,9566.83,925.147,17075.6,52.9584,266.998,269.089,4279.47,137.691,9428.23,18.3291,-16.6322,24.2955,1428.89,20033.3,2562.97,32.5569,223.305,390.924,-2446.44,-10896.1,-1855.04,-6.54139,-44.2302,33.6155,-6555.93,4591.42,-1374.44,-36.1209,-58.4345,104.937,-1758.17,-10805.0,-1797.0,-53.4929,-99.757,109.147,7963.35,-714.341,597.385,69.0454,1.5904,36.5238
3.3535,9804.87,874.217,17117.2,54.9717,266.991,270.231,4300.27,142.302,9438.7,18.6791,-16.8702,24.4169,1312.98,20129.6,2512.17,31.5312,224.87,391.201,-2453.94,-10922.3,-1853.0,-6.49937,-44.3118,33.6299,-6469.76,4586.98,-1396.82,-36.1368,-59.467,104.504,-1708.49,-10824.9,-1792.75,-53.5253,-100.411,109.496,7979.43,-717.886,610.813,69.1972,1.37093,36.4882
3.354,10042.9,823.286,17158.8,56.9851,266.983,271.372,4321.07,146.912,9449.17,19.029,-17.1082,24.5383,1197.07,20225.9,2461.36,30.5055,226.435,391.477,-2461.44,-10948.6,-1850.97,-6.45735,-44.3934,33.6444,-6383.58,4582.53,-1419.21,-36.1527,-60.4995,104.071,-1658.82,-10844.9,-1788.5,-53.5578,-101.065,109.844,7995.5,-721.43,624.242,69.3491,1.15145,36.4526
3.3545,10280.9,772.355,17200.4,58.9984,266.976,272.514,4341.87,151.523,9459.63,19.379,-17.3463,24.6597,1081.16,20322.1,2410.55,29.4799,228.0,391.754,-2468.94,-10974.8,-1848.93,-6.41533,-44.475,33.6588,-6297.41,4578.08,-1441.6,-36.1685,-61.532,103.639,-1609.14,-10864.8,-1784.25,-53.5903,-101.719,110.193,8011.57,-724.975,637.67,69.5009,0.931974,36.4171
3.355,10519.0,721.425,17241.9,61.0118,266.969,273.655,4362.67,156.133,9470.1,19.729,-17.5843,24.781,965.252,20418.4,2359.74,28.4542,229.565,392.03,-2476.44,-11001.1,-1846.9,-6.37331,-44.5565,33.6732,-6211.23,4573.64,-1463.99,-36.1844,-62.5646,103.206,-1559.46,-10884.7,-1780.0,-53.6228,-102.373,110.541,8027.64,-728.52,651.098,69.6528,0.712498,36.3815
3.3555,10757.0,670.494,17283.5,63.0252,266.961,274.797,4383.46,160.743,9480.57,20.0789,-17.8224,24.9024,849.343,20514.7,2308.93,27.4285,231.13,392.307,-2483.93,-11027.3,-1844.87,-6.33129,-44.6381,33.6876,-6125.06,4569.19,-1486.38,-36.2003,-63.5971,102.773,-1509.78,-10904.6,-1775.76,-53.6552,-103.027,110.89,8043.71,-732.064,664.527,69.8047,0.493022,36.3459
3.356,10996.8,651.123,17312.7,64.9882,267.293,275.849,4393.66,160.96,9495.98,20.3606,-18.06,25.0655,716.252,20598.2,2257.34,26.2617,232.644,392.504,-2477.89,-11049.8,-1853.07,-6.27354,-44.6775,33.7015,-6029.67,4562.7,-1518.34,-36.0363,-64.4583,102.483,-1465.0,-10931.0,-1764.23,-53.6888,-103.625,111.243,8037.02,-735.528,665.317,70.2539,0.172839,36.2018
3.3565,11236.7,635.696,17340.4,66.9449,267.668,276.89,4402.53,160.628,9512.0,20.6337,-18.2975,25.2338,581.012,20680.1,2205.66,25.0772,234.151,392.692,-2470.16,-11071.8,-1862.55,-6.21382,-44.7115,33.7154,-5933.13,4555.96,-1551.51,-35.8499,-65.2981,102.211,-1420.83,-10958.2,-1751.8,-53.7224,-104.217,111.598,8027.48,-738.981,664.528,70.7402,-0.159934,36.0441
3.357,11476.7,620.27,17368.0,68.9017,268.043,277.931,4411.4,160.295,9528.03,20.9068,-18.5351,25.4021,445.773,20762.1,2153.97,23.8928,235.659,392.88,-2462.43,-11093.8,-1872.03,-6.15411,-44.7456,33.7292,-5836.58,4549.21,-1584.67,-35.6634,-66.1378,101.938,-1376.66,-10985.4,-1739.37,-53.7561,-104.809,111.952,8017.94,-742.434,663.738,71.2266,-0.492706,35.8864
3.3575,11716.6,604.844,17395.7,70.8584,268.418,278.972,4420.27,159.963,9544.05,21.1799,-18.7727,25.5704,310.534,20844.0,2102.29,22.7083,237.166,393.068,-2454.7,-11115.8,-1881.51,-6.09439,-44.7797,33.7431,-5740.04,4542.46,-1617.83,-35.477,-66.9776,101.666,-1332.49,-11012.5,-1726.94,-53.7897,-105.401,112.306,8008.4,-745.888,662.949,71.7129,-0.825478,35.7287
3.358,11956.6,589.417,17423.3,72.8151,268.792,280.012,4429.14,159.63,9560.08,21.453,-19.0102,25.7387,175.294,20925.9,2050.61,21.5239,238.673,393.256,-2446.96,-11137.8,-1890.99,-6.03468,-44.8138,33.7569,-5643.49,4535.72,-1650.99,-35.2905,-67.8174,101.393,-1288.32,-11039.7,-1714.51,-53.8233,-105.993,112.661,7998.87,-749.341,662.159,72.1993,-1.15825,35.571
3.3585,12196.5,573.991,17451.0,74.7719,269.167,281.053,4438.01,159.298,9576.1,21.7261,-19.2478,25.907,40.055,21007.8,1998.92,20.3394,240.181,393.444,-2439.23,-11159.8,-1900.47,-5.97496,-44.8478,33.7708,-5546.95,4528.97,-1684.16,-35.1041,-68.6572,101.121,-1244.15,-11066.9,-1702.07,-53.857,-106.585,113.015,7989.33,-752.794,661.37,72.6857,-1.49102,35.4133
3.359,12436.5,558.564,17478.7,76.7286,269.542,282.094,4446.88,158.965,9592.13,21.9992,-19.4853,26.0753,-95.1844,21089.8,1947.24,19.155,241.688,393.632,-2431.5,-11181.8,-1909.95,-5.91525,-44.8819,33.7846,-5450.41,4522.23,-1717.32,-34.9176,-69.497,100.849,-1199.98,-11094.1,-1689.64,-53.8906,-107.177,113.369,7979.79,-756.247,660.581,73.172,-1.8238,35.2556
3.3595,12676.4,543.138,17506.3,78.6854,269.917,283.135,4455.75,158.633,9608.15,22.2723,-19.7229,26.2435,-230.424,21171.7,1895.56,17.9705,243.196,393.82,-2423.77,-11203.8,-1919.43,-5.85553,-44.916,33.7985,-5353.86,4515.48,-1750.48,-34.7312,-70.3368,100.576,-1155.81,-11121.3,-1677.21,-53.9243,-107.769,113.724,7970.25,-759.701,659.791,73.6584,-2.15657,35.0979
3.36,12916.4,527.711,17534.0,80.6421,270.291,284.176,4464.62,158.3,9624.18,22.5454,-19.9604,26.4118,-365.663,21253.6,1843.87,16.7861,244.703,394.008,-2416.03,-11225.8,-1928.91,-5.79582,-44.95,33.8123,-5257.32,4508.74,-1783.64,-34.5447,-71.1766,100.304,-1111.64,-11148.5,-1664.78,-53.9579,-108.361,114.078,7960.71,-763.154,659.002,74.1447,-2.48934,34.9402
3.3605,13126.5,551.927,17543.6,82.4941,270.738,284.983,4457.73,183.664,9634.14,22.8155,-20.2698,26.6058,-464.186,21321.2,1794.57,15.7361,246.105,394.123,-2403.81,-11245.9,-1927.18,-5.71566,-45.0744,33.8236,-5160.97,4474.87,-1845.75,-34.1138,-71.1512,100.289,-1060.42,-11155.9,-1663.27,-53.8264,-108.979,114.408,7956.92,-768.375,651.338,74.3671,-2.87367,34.7854
3.361,13336.7,576.143,17553.2,84.346,271.185,285.79,4450.85,209.029,9644.11,23.0857,-20.5792,26.7997,-562.71,21388.8,1745.28,14.6861,247.507,394.238,-2391.58,-11266.1,-1925.45,-5.63551,-45.1987,33.8349,-5064.63,4441.01,-1907.86,-33.683,-71.1258,100.274,-1009.2,-11163.4,-1661.76,-53.6948,-109.597,114.739,7953.14,-773.597,643.674,74.5895,-3.25801,34.6306
3.3615,13546.9,600.359,17562.9,86.198,271.632,286.597,4443.96,234.393,9654.07,23.3558,-20.8885,26.9936,-661.233,21456.4,1695.98,13.6361,248.909,394.353,-2379.36,-11286.2,-1923.71,-5.55535,-45.323,33.8463,-4968.28,4407.14,-1969.96,-33.2521,-71.1003,100.259,-957.981,-11170.8,-1660.25,-53.5632,-110.215,115.069,7949.35,-778.818,636.01,74.8119,-3.64234,34.4757
3.362,13757.1,624.575,17572.5,88.05,272.079,287.404,4437.08,259.757,9664.04,23.6259,-21.1979,27.1876,-759.756,21523.9,1646.68,12.5862,250.311,394.467,-2367.13,-11306.3,-1921.98,-5.47519,-45.4474,33.8576,-4871.94,4373.28,-2032.07,-32.8213,-71.0749,100.244,-906.76,-11178.3,-1658.74,-53.4316,-110.833,115.4,7945.56,-784.04,628.346,75.0343,-4.02667,34.3209
3.3625,13967.3,648.791,17582.1,89.9019,272.526,288.211,4430.19,285.121,9674.0,23.896,-21.5073,27.3815,-858.279,21591.5,1597.38,11.5362,251.713,394.582,-2354.91,-11326.5,-1920.24,-5.39504,-45.5717,33.8689,-4775.59,4339.42,-2094.18,-32.3904,-71.0495,100.23,-855.539,-11185.7,-1657.23,-53.3,-111.451,115.731,7941.77,-789.261,620.682,75.2567,-4.41101,34.1661
3.363,14177.5,673.006,17591.7,91.7539,272.972,289.018,4423.31,310.485,9683.96,24.1662,-21.8166,27.5754,-956.803,21659.1,1548.08,10.4862,253.115,394.697,-2342.68,-11346.6,-1918.51,-5.31488,-45.6961,33.8802,-4679.25,4305.55,-2156.28,-31.9596,-71.0241,100.215,-804.318,-11193.2,-1655.72,-53.1685,-112.07,116.061,7937.98,-794.483,613.018,75.479,-4.79534,34.0113
3.3635,14387.7,697.222,17601.4,93.6059,273.419,289.825,4416.42,335.849,9693.93,24.4363,-22.126,27.7694,-1055.33,21726.7,1498.78,9.43621,254.517,394.812,-2330.46,-11366.7,-1916.78,-5.23472,-45.8204,33.8915,-4582.9,4271.69,-2218.39,-31.5287,-70.9987,100.2,-753.097,-11200.6,-1654.21,-53.0369,-112.688,116.392,7934.19,-799.704,605.354,75.7014,-5.17967,33.8565
3.364,14597.9,721.438,17611.0,95.4578,273.866,290.632,4409.54,361.213,9703.89,24.7064,-22.4354,27.9633,-1153.85,21794.3,1449.49,8.38623,255.919,394.927,-2318.23,-11386.9,-1915.04,-5.15457,-45.9447,33.9028,-4486.56,4237.82,-2280.49,-31.0978,-70.9733,100.185,-701.876,-11208.1,-1652.7,-52.9053,-113.306,116.722,7930.41,-804.925,597.69,75.9238,-5.564,33.7017
3.3645,14803.4,747.45,17619.4,97.293,274.31,291.406,4401.39,385.687,9715.28,24.9902,-22.76,28.1575,-1256.09,21860.3,1401.18,7.32538,257.279,395.023,-2305.9,-11407.6,-1915.09,-5.0828,-46.0816,33.9168,-4389.92,4204.55,-2342.59,-30.6431,-70.7821,100.188,-651.311,-11216.8,-1652.62,-52.7713,-113.895,117.058,7924.76,-810.941,588.597,76.1458,-5.95301,33.5548
3.365,14970.5,787.835,17618.5,98.9936,274.734,291.908,4383.11,403.034,9738.07,25.3834,-23.2064,28.3534,-1388.03,21914.4,1360.85,6.17762,258.304,394.972,-2292.75,-11433.0,-1929.41,-5.07815,-46.319,33.9522,-4290.93,4176.05,-2404.56,-29.9975,-69.2653,100.337,-605.991,-11235.8,-1664.04,-52.6175,-114.249,117.432,7904.24,-823.308,568.069,76.3647,-6.37943,33.4714
3.3655,15137.7,828.22,17617.5,100.694,275.158,292.411,4364.83,420.381,9760.86,25.7765,-23.6528,28.5493,-1519.97,21968.5,1320.51,5.02987,259.33,394.92,-2279.59,-11458.4,-1943.73,-5.07351,-46.5564,33.9877,-4191.95,4147.55,-2466.54,-29.3518,-67.7485,100.485,-560.671,-11254.7,-1675.45,-52.4637,-114.603,117.807,7883.72,-835.675,547.541,76.5835,-6.80585,33.388
3.366,15304.9,868.605,17616.5,102.395,275.582,292.914,4346.55,437.728,9783.65,26.1697,-24.0991,28.7453,-1651.91,22022.6,1280.17,3.88211,260.356,394.868,-2266.44,-11483.8,-1958.04,-5.06886,-46.7938,34.0231,-4092.96,4119.06,-2528.51,-28.7062,-66.2316,100.633,-515.352,-11273.6,-1686.87,-52.31,-114.958,118.182,7863.2,-848.042,527.013,76.8024,-7.23228,33.3047
3.3665,15472.1,908.99,17615.6,104.095,276.006,293.416,4328.26,455.075,9806.44,26.5628,-24.5455,28.9412,-1783.85,22076.7,1239.84,2.73436,261.381,394.816,-2253.28,-11509.2,-1972.36,-5.06422,-47.0312,34.0585,-3993.97,4090.56,-2590.49,-28.0605,-64.7148,100.781,-470.032,-11292.6,-1698.28,-52.1562,-115.312,118.556,7842.68,-860.409,506.485,77.0213,-7.6587,33.2213
3.367,15639.3,949.375,17614.6,105.796,276.429,293.919,4309.98,472.422,9829.23,26.956,-24.9919,29.1371,-1915.79,22130.7,1199.5,1.5866,262.407,394.765,-2240.13,-11534.6,-1986.68,-5.05957,-47.2686,34.0939,-3894.99,4062.06,-2652.47,-27.4149,-63.198,100.929,-424.712,-11311.5,-1709.69,-52.0024,-115.666,118.931,7822.16,-872.776,485.957,77.2402,-8.08512,33.1379
3.3675,15806.5,989.76,17613.6,107.497,276.853,294.422,4291.7,489.768,9852.01,27.3492,-25.4383,29.3331,-2047.73,22184.8,1159.16,0.438848,263.433,394.713,-2226.97,-11560.0,-2001.0,-5.05492,-47.5059,34.1293,-3796.0,4033.56,-2714.44,-26.7692,-61.6811,101.077,-379.392,-11330.5,-1721.11,-51.8487,-116.02,119.306,7801.64,-885.143,465.429,77.459,-8.51154,33.0546
3.368,15973.7,1030.14,17612.7,109.197,277.277,294.924,4273.42,507.115,9874.8,27.7423,-25.8847,29.529,-2179.68,22238.9,1118.83,-0.708908,264.458,394.661,-2213.82,-11585.4,-2015.31,-5.05028,-47.7433,34.1648,-3697.01,4005.06,-2776.42,-26.1236,-60.1643,101.225,-334.072,-11349.4,-1732.52,-51.6949,-116.375,119.681,7781.12,-897.51,444.901,77.6779,-8.93796,32.9712
3.3685,16140.9,1070.53,17611.7,110.898,277.701,295.427,4255.14,524.462,9897.59,28.1355,-26.3311,29.7249,-2311.62,22293.0,1078.49,-1.85666,265.484,394.61,-2200.66,-11610.8,-2029.63,-5.04563,-47.9807,34.2002,-3598.03,3976.56,-2838.4,-25.4779,-58.6475,101.373,-288.752,-11368.3,-1743.94,-51.5412,-116.729,120.055,7760.59,-909.877,424.373,77.8968,-9.36438,32.8878
3.369,16305.9,1104.92,17605.7,112.538,278.125,295.836,4237.72,538.075,9921.42,28.5414,-26.7944,29.9153,-2440.89,22345.1,1035.73,-2.98735,266.423,394.491,-2191.58,-11633.9,-2043.86,-5.03495,-48.2229,34.2508,-3490.52,3947.08,-2904.51,-24.7749,-56.7151,101.539,-242.2,-11386.0,-1758.7,-51.374,-116.993,120.432,7744.45,-920.621,404.9,78.1249,-9.79448,32.7791
3.3695,16463.2,1118.34,17582.3,113.969,278.553,295.917,4223.31,538.619,9948.89,28.992,-27.317,30.086,-2560.82,22390.5,984.474,-4.0583,267.056,394.138,-2196.74,-11649.1,-2057.77,-5.00314,-48.482,34.3546,-3353.18,3914.16,-2985.09,-23.8709,-53.3285,101.766,-191.335,-11399.1,-1785.2,-51.1601,-116.939,120.814,7743.64,-925.687,389.12,78.3852,-10.2375,32.5816
3.37,16620.5,1131.76,17558.9,115.399,278.98,295.998,4208.9,539.162,9976.36,29.4425,-27.8397,30.2567,-2680.75,22435.8,933.221,-5.12924,267.69,393.785,-2201.91,-11664.2,-2071.68,-4.97134,-48.7411,34.4585,-3215.85,3881.24,-3065.68,-22.967,-49.9418,101.994,-140.47,-11412.2,-1811.7,-50.9463,-116.885,121.196,7742.82,-930.753,373.34,78.6455,-10.6805,32.3842
3.3705,16777.8,1145.18,17535.4,116.83,279.407,296.079,4194.49,539.706,10003.8,29.8931,-28.3623,30.4274,-2800.67,22481.2,881.967,-6.20019,268.324,393.432,-2207.07,-11679.4,-2085.59,-4.93954,-49.0001,34.5623,-3078.51,3848.32,-3146.26,-22.063,-46.5551,102.221,-89.6046,-11425.3,-1838.2,-50.7324,-116.832,121.578,7742.0,-935.818,357.56,78.9058,-11.1235,32.1867
3.371,16935.1,1158.61,17512.0,118.26,279.834,296.16,4180.08,540.249,10031.3,30.3437,-28.8849,30.5982,-2920.6,22526.5,830.714,-7.27113,268.958,393.079,-2212.24,-11694.5,-2099.5,-4.90773,-49.2592,34.6662,-2941.18,3815.4,-3226.85,-21.1591,-43.1685,102.448,-38.7394,-11438.4,-1864.69,-50.5185,-116.778,121.96,7741.19,-940.884,341.78,79.1661,-11.5665,31.9892
3.3715,17092.4,1172.03,17488.6,119.69,280.261,296.242,4165.68,540.793,10058.8,30.7943,-29.4076,30.7689,-3040.53,22571.9,779.461,-8.34208,269.591,392.726,-2217.4,-11709.7,-2113.41,-4.87593,-49.5183,34.77,-2803.84,3782.48,-3307.43,-20.2552,-39.7818,102.676,12.1258,-11451.6,-1891.19,-50.3046,-116.724,122.342,7740.37,-945.95,326.001,79.4264,-12.0095,31.7918
3.372,17249.7,1185.45,17465.2,121.121,280.689,296.323,4151.27,541.336,10086.2,31.2448,-29.9302,30.9396,-3160.46,22617.2,728.208,-9.41302,270.225,392.374,-2222.57,-11724.9,-2127.32,-4.84412,-49.7774,34.8738,-2666.51,3749.56,-3388.02,-19.3512,-36.3952,102.903,62.991,-11464.7,-1917.69,-50.0907,-116.671,122.724,7739.55,-951.016,310.221,79.6868,-12.4525,31.5943
3.3725,17407.0,1198.87,17441.7,122.551,281.116,296.404,4136.86,541.88,10113.7,31.6954,-30.4528,31.1103,-3280.39,22662.6,676.955,-10.484,270.859,392.021,-2227.73,-11740.0,-2141.23,-4.81232,-50.0364,34.9777,-2529.17,3716.64,-3468.6,-18.4473,-33.0085,103.13,113.856,-11477.8,-1944.19,-49.8768,-116.617,123.106,7738.74,-956.081,294.441,79.9471,-12.8955,31.3969
3.373,17564.3,1212.29,17418.3,123.981,281.543,296.485,4122.45,542.423,10141.2,32.146,-30.9755,31.2811,-3400.32,22708.0,625.702,-11.5549,271.493,391.668,-2232.9,-11755.2,-2155.14,-4.78052,-50.2955,35.0815,-2391.83,3683.72,-3549.19,-17.5434,-29.6219,103.358,164.721,-11490.9,-1970.68,-49.6629,-116.563,123.488,7737.92,-961.147,278.661,80.2074,-13.3385,31.1994
3.3735,17722.4,1220.88,17384.4,125.314,281.922,296.426,4117.59,542.51,10161.1,32.5886,-31.5235,31.4619,-3526.32,22749.5,574.281,-12.6357,272.008,391.204,-2236.46,-11773.7,-2165.05,-4.75464,-50.5582,35.1995,-2243.31,3657.82,-3610.73,-16.5655,-25.7977,103.544,212.335,-11507.7,-1998.28,-49.4174,-116.369,123.893,7730.82,-964.795,264.408,80.5033,-13.7991,30.9898
3.374,17882.3,1219.82,17329.3,126.45,282.207,296.087,4131.83,541.684,10166.1,33.0152,-32.1225,31.663,-3664.48,22783.6,522.526,-13.7362,272.286,390.519,-2236.81,-11798.7,-2166.94,-4.74063,-50.8279,35.3458,-2072.42,3645.96,-3634.21,-15.4396,-21.0985,103.65,253.444,-11531.8,-2028.09,-49.1084,-115.894,124.343,7711.16,-965.609,253.209,80.8701,-14.2949,30.7558
3.3745,18042.2,1218.75,17274.3,127.587,282.491,295.747,4146.07,540.859,10171.1,33.4419,-32.7215,31.8642,-3802.63,22817.7,470.77,-14.8368,272.564,389.834,-2237.16,-11823.7,-2168.83,-4.72662,-51.0977,35.492,-1901.52,3634.1,-3657.68,-14.3138,-16.3992,103.756,294.553,-11556.0,-2057.9,-48.7995,-115.418,124.793,7691.5,-966.422,242.01,81.2371,-14.7906,30.5218
3.375,18202.0,1217.68,17219.3,128.723,282.775,295.408,4160.31,540.033,10176.0,33.8685,-33.3204,32.0653,-3940.78,22851.7,419.015,-15.9373,272.842,389.149,-2237.51,-11848.8,-2170.72,-4.71261,-51.3675,35.6383,-1730.63,3622.24,-3681.15,-13.188,-11.7,103.861,335.663,-11580.1,-2087.7,-48.4906,-114.943,125.244,7671.84,-967.236,230.811,81.604,-15.2863,30.2878
3.3755,18361.9,1216.62,17164.3,129.86,283.059,295.069,4174.55,539.207,10181.0,34.2952,-33.9194,32.2664,-4078.94,22885.8,367.259,-17.0378,273.12,388.464,-2237.86,-11873.8,-2172.61,-4.6986,-51.6373,35.7845,-1559.73,3610.38,-3704.62,-12.0621,-7.00078,103.967,376.772,-11604.2,-2117.51,-48.1817,-114.467,125.694,7652.17,-968.05,219.612,81.9709,-15.7821,30.0538
3.376,18521.8,1215.55,17109.3,130.997,283.343,294.73,4188.79,538.381,10185.9,34.7219,-34.5184,32.4676,-4217.09,22919.8,315.504,-18.1384,273.398,387.778,-2238.22,-11898.9,-2174.5,-4.68459,-51.907,35.9308,-1388.84,3598.52,-3728.09,-10.9363,-2.30155,104.072,417.881,-11628.4,-2147.31,-47.8727,-113.992,126.144,7632.51,-968.863,208.413,82.3378,-16.2778,29.8198
3.3765,18681.7,1214.49,17054.3,132.133,283.627,294.39,4203.04,537.555,10190.9,35.1485,-35.1174,32.6687,-4355.24,22953.9,263.749,-19.2389,273.676,387.093,-2238.57,-11923.9,-2176.39,-4.67058,-52.1768,36.0771,-1217.94,3586.67,-3751.56,-9.81045,2.39768,104.178,458.99,-11652.5,-2177.12,-47.5638,-113.516,126.594,7612.85,-969.677,197.214,82.7047,-16.7736,29.5858
3.377,18841.5,1213.42,16999.2,133.27,283.911,294.051,4217.28,536.729,10195.8,35.5752,-35.7163,32.8698,-4493.4,22987.9,211.993,-20.3394,273.954,386.408,-2238.92,-11948.9,-2178.28,-4.65657,-52.4466,36.2233,-1047.05,3574.81,-3775.04,-8.68462,7.09692,104.284,500.1,-11676.6,-2206.92,-47.2549,-113.041,127.044,7593.19,-970.491,186.015,83.0716,-17.2693,29.3519
3.3775,19001.4,1212.36,16944.2,134.406,284.195,293.712,4231.52,535.903,10200.8,36.0018,-36.3153,33.071,-4631.55,23022.0,160.238,-21.4399,274.232,385.723,-2239.27,-11974.0,-2180.17,-4.64256,-52.7164,36.3696,-876.15,3562.95,-3798.51,-7.55878,11.7962,104.389,541.209,-11700.8,-2236.73,-46.9459,-112.566,127.494,7573.52,-971.304,174.816,83.4385,-17.765,29.1179
3.378,19158.2,1212.69,16884.5,135.311,284.381,293.176,4239.1,533.727,10213.6,36.4046,-36.9475,33.3042,-4776.42,23059.5,106.409,-22.5047,274.291,384.9,-2239.56,-11999.7,-2175.62,-4.60702,-53.0655,36.5239,-699.811,3569.0,-3815.96,-6.4421,16.8836,104.488,587.42,-11725.3,-2255.46,-46.6741,-111.997,127.918,7563.86,-972.909,172.401,83.777,-18.3553,28.7931
3.3785,19311.3,1214.77,16819.0,135.927,284.443,292.394,4238.37,529.865,10236.3,36.7775,-37.6211,33.5776,-4929.69,23101.3,49.9887,-23.5248,274.077,383.905,-2239.76,-12026.3,-2163.01,-4.54456,-53.5139,36.6881,-516.668,3597.43,-3825.9,-5.33684,22.4562,104.578,640.009,-11750.5,-2260.35,-46.4485,-111.313,128.307,7566.68,-975.501,180.966,84.0799,-19.0637,28.3549
3.379,19464.4,1216.84,16753.4,136.543,284.504,291.613,4237.64,526.002,10258.9,37.1505,-38.2948,33.8511,-5082.97,23143.1,-6.43152,-24.5449,273.862,382.909,-2239.96,-12052.8,-2150.4,-4.4821,-53.9622,36.8524,-333.524,3625.86,-3835.83,-4.23159,28.0289,104.668,692.598,-11775.6,-2265.24,-46.223,-110.629,128.697,7569.51,-978.094,189.531,84.3829,-19.7722,27.9167
3.3795,19617.4,1218.92,16687.8,137.16,284.566,290.831,4236.91,522.14,10281.6,37.5234,-38.9684,34.1245,-5236.24,23184.9,-62.8518,-25.565,273.647,381.914,-2240.16,-12079.4,-2137.79,-4.41964,-54.4106,37.0166,-150.38,3654.29,-3845.77,-3.12633,33.6016,104.758,745.187,-11800.7,-2270.14,-45.9975,-109.945,129.086,7572.33,-980.687,198.096,84.6859,-20.4806,27.4785
3.38,19770.5,1220.99,16622.3,137.776,284.628,290.05,4236.19,518.277,10304.2,37.8963,-39.6421,34.3979,-5389.51,23226.7,-119.272,-26.5851,273.433,380.918,-2240.36,-12105.9,-2125.18,-4.35718,-54.859,37.1809,32.7632,3682.73,-3855.7,-2.02108,39.1742,104.848,797.776,-11825.9,-2275.03,-45.772,-109.261,129.476,7575.16,-983.279,206.661,84.9888,-21.1891,27.0403
3.3805,19923.6,1223.07,16556.7,138.392,284.69,289.268,4235.46,514.415,10326.9,38.2693,-40.3158,34.6713,-5542.78,23268.5,-175.692,-27.6052,273.218,379.922,-2240.56,-12132.5,-2112.57,-4.29472,-55.3073,37.3452,215.907,3711.16,-3865.63,-0.915824,44.7469,104.938,850.365,-11851.0,-2279.92,-45.5464,-108.577,129.865,7577.99,-985.872,215.226,85.2918,-21.8975,26.602
3.381,20076.6,1225.15,16491.2,139.008,284.751,288.487,4234.73,510.552,10349.5,38.6422,-40.9894,34.9447,-5696.05,23310.3,-232.113,-28.6253,273.003,378.927,-2240.76,-12159.1,-2099.96,-4.23226,-55.7557,37.5094,399.05,3739.59,-3875.57,0.18943,50.3196,105.028,902.954,-11876.1,-2284.81,-45.3209,-107.893,130.255,7580.81,-988.464,223.791,85.5948,-22.606,26.1638
3.3815,20229.7,1227.22,16425.6,139.624,284.813,287.705,4234.0,506.69,10372.2,39.0152,-41.6631,35.2181,-5849.32,23352.1,-288.533,-29.6454,272.789,377.931,-2240.96,-12185.6,-2087.34,-4.16981,-56.204,37.6737,582.194,3768.03,-3885.5,1.29468,55.8922,105.118,955.543,-11901.2,-2289.71,-45.0954,-107.209,130.644,7583.64,-991.057,232.356,85.8977,-23.3144,25.7256
3.382,20382.7,1229.3,16360.0,140.24,284.875,286.923,4233.27,502.827,10394.8,39.3881,-42.3367,35.4915,-6002.6,23393.9,-344.953,-30.6655,272.574,376.936,-2241.16,-12212.2,-2074.73,-4.10735,-56.6524,37.8379,765.338,3796.46,-3895.44,2.39994,61.4649,105.208,1008.13,-11926.4,-2294.6,-44.8698,-106.525,131.034,7586.47,-993.65,240.921,86.2007,-24.0229,25.2874
3.3825,20540.3,1236.5,16291.7,140.571,284.781,285.832,4220.87,504.78,10413.7,40.1409,-43.1087,35.8633,-6171.71,23437.7,-405.122,-31.7623,271.988,375.751,-2235.1,-12237.3,-2060.92,-4.06418,-57.1928,38.0298,933.117,3844.2,-3873.17,3.10067,67.1739,105.165,1060.38,-11939.3,-2296.32,-44.6676,-105.81,131.49,7582.37,-993.437,232.622,86.3362,-24.6617,24.9007
3.383,20701.4,1247.81,16221.1,140.674,284.562,284.494,4199.14,511.384,10429.6,41.1975,-43.9594,36.3138,-6353.49,23483.2,-468.289,-32.9205,271.104,374.415,-2224.04,-12261.3,-2046.14,-4.03645,-57.8068,38.2438,1088.6,3907.39,-3825.15,3.47778,72.9919,105.016,1112.36,-11942.4,-2295.51,-44.484,-105.07,131.999,7572.75,-990.981,210.834,86.3376,-25.2448,24.5552
3.3835,20862.6,1259.12,16150.6,140.777,284.342,283.155,4177.41,517.988,10445.5,42.2541,-44.81,36.7643,-6535.27,23528.6,-531.456,-34.0786,270.221,373.079,-2212.98,-12285.4,-2031.36,-4.00871,-58.4209,38.4579,1244.09,3970.58,-3777.13,3.85489,78.8099,104.867,1164.34,-11945.6,-2294.7,-44.3004,-104.33,132.508,7563.12,-988.525,189.045,86.339,-25.8279,24.2097
3.384,21023.7,1270.42,16080.0,140.879,284.123,281.816,4155.68,524.592,10461.5,43.3108,-45.6607,37.2147,-6717.05,23574.1,-594.622,-35.2368,269.337,371.743,-2201.92,-12309.4,-2016.58,-3.98098,-59.0349,38.6719,1399.58,4033.77,-3729.11,4.232,84.6279,104.718,1216.31,-11948.7,-2293.89,-44.1168,-103.591,133.017,7553.49,-986.069,167.256,86.3404,-26.4111,23.8643
3.3845,21184.9,1281.73,16009.5,140.982,283.904,280.477,4133.95,531.196,10477.4,44.3674,-46.5113,37.6652,-6898.83,23619.5,-657.79,-36.3949,268.454,370.407,-2190.86,-12333.4,-2001.8,-3.95325,-59.6489,38.8859,1555.06,4096.95,-3681.08,4.60912,90.4459,104.569,1268.29,-11951.9,-2293.08,-43.9332,-102.851,133.527,7543.87,-983.613,145.467,86.3419,-26.9942,23.5188
3.385,21346.0,1293.04,15938.9,141.085,283.685,279.139,4112.23,537.801,10493.3,45.424,-47.362,38.1157,-7080.61,23665.0,-720.956,-37.5531,267.57,369.071,-2179.79,-12357.4,-1987.02,-3.92552,-60.263,39.0999,1710.55,4160.14,-3633.06,4.98623,96.2639,104.42,1320.27,-11955.0,-2292.27,-43.7496,-102.111,134.036,7534.24,-981.157,123.678,86.3433,-27.5773,23.1733
3.3855,21507.2,1304.34,15868.4,141.188,283.466,277.8,4090.5,544.405,10509.2,46.4807,-48.2126,38.5662,-7262.39,23710.5,-784.123,-38.7112,266.687,367.735,-2168.73,-12381.4,-1972.24,-3.89778,-60.877,39.3139,1866.04,4223.33,-3585.04,5.36334,102.082,104.271,1372.25,-11958.2,-2291.46,-43.566,-101.371,134.545,7524.62,-978.701,101.889,86.3447,-28.1605,22.8278
3.386,21668.3,1315.65,15797.8,141.291,283.246,276.461,4068.77,551.009,10525.1,47.5373,-49.0633,39.0166,-7444.17,23755.9,-847.29,-39.8694,265.803,366.399,-2157.67,-12405.5,-1957.46,-3.87005,-61.4911,39.528,2021.53,4286.52,-3537.02,5.74045,107.9,104.121,1424.22,-11961.3,-2290.65,-43.3824,-100.631,135.054,7514.99,-976.245,80.1005,86.3461,-28.7436,22.4823
3.3865,21829.5,1326.96,15727.3,141.394,283.027,275.122,4047.04,557.613,10541.1,48.5939,-49.9139,39.4671,-7625.95,23801.4,-910.458,-41.0275,264.92,365.063,-2146.61,-12429.5,-1942.68,-3.84232,-62.1051,39.742,2177.01,4349.71,-3488.99,6.11756,113.718,103.972,1476.2,-11964.5,-2289.84,-43.1988,-99.8917,135.563,7505.36,-973.789,58.3116,86.3475,-29.3267,22.1368
3.387,22000.6,1336.76,15609.9,141.452,282.882,273.299,4038.32,534.964,10536.2,49.8617,-50.8865,39.8912,-7817.53,23854.7,-966.54,-42.2777,263.622,363.55,-2132.41,-12455.2,-1969.47,-4.16099,-63.0914,40.0062,2308.34,4451.46,-3378.05,5.7059,119.45,103.862,1517.62,-11990.1,-2273.36,-42.9485,-99.2868,136.02,7514.81,-985.472,55.6899,86.4589,-29.9585,21.7905
3.3875,22176.7,1345.8,15469.0,141.487,282.774,271.234,4036.1,497.688,10520.9,51.2351,-51.92,40.302,-8014.01,23912.0,-1019.08,-43.5739,262.117,361.948,-2116.63,-12481.7,-2017.04,-4.65286,-64.2639,40.2955,2427.59,4572.5,-3235.63,4.89986,125.138,103.772,1553.76,-12027.1,-2249.04,-42.665,-98.7494,136.451,7533.79,-1004.22,62.6516,86.6252,-30.6146,21.4438
3.388,22352.7,1354.85,15328.2,141.523,282.665,269.169,4033.89,460.412,10505.6,52.6084,-52.9535,40.7129,-8210.49,23969.3,-1071.62,-44.8701,260.612,360.346,-2100.86,-12508.3,-2064.61,-5.14474,-65.4364,40.5848,2546.84,4693.54,-3093.22,4.09382,130.827,103.681,1589.9,-12064.0,-2224.73,-42.3814,-98.2119,136.882,7552.78,-1022.97,69.6134,86.7916,-31.2707,21.0971
3.3885,22528.8,1363.89,15187.4,141.559,282.557,267.103,4031.68,423.136,10490.4,53.9818,-53.987,41.1237,-8406.96,24026.6,-1124.16,-46.1664,259.107,358.744,-2085.09,-12534.8,-2112.19,-5.63661,-66.6088,40.8741,2666.09,4814.58,-2950.81,3.28777,136.515,103.591,1626.03,-12101.0,-2200.41,-42.0978,-97.6745,137.313,7571.76,-1041.73,76.5752,86.9579,-31.9268,20.7504
3.389,22704.9,1372.94,15046.6,141.595,282.449,265.038,4029.46,385.86,10475.1,55.3551,-55.0205,41.5346,-8603.44,24083.9,-1176.7,-47.4626,257.602,357.142,-2069.32,-12561.3,-2159.76,-6.12848,-67.7813,41.1633,2785.33,4935.62,-2808.4,2.48173,142.203,103.5,1662.17,-12137.9,-2176.09,-41.8142,-97.137,137.744,7590.75,-1060.48,83.5369,87.1242,-32.5828,20.4037
3.3895,22881.0,1381.99,14905.8,141.63,282.341,262.973,4027.25,348.584,10459.8,56.7284,-56.054,41.9454,-8799.92,24141.2,-1229.24,-48.7588,256.097,355.54,-2053.54,-12587.9,-2207.33,-6.62036,-68.9538,41.4526,2904.58,5056.66,-2665.99,1.67569,147.892,103.41,1698.31,-12174.8,-2151.77,-41.5306,-96.5996,138.175,7609.73,-1079.23,90.4987,87.2906,-33.2389,20.0569
3.39,23057.0,1391.03,14764.9,141.666,282.233,260.907,4025.03,311.309,10444.5,58.1018,-57.0875,42.3563,-8996.39,24198.4,-1281.78,-50.055,254.592,353.938,-2037.77,-12614.4,-2254.9,-7.11223,-70.1262,41.7419,3023.83,5177.7,-2523.58,0.869642,153.58,103.319,1734.45,-12211.8,-2127.46,-41.247,-96.0621,138.606,7628.71,-1097.98,97.4604,87.4569,-33.895,19.7102
3.3905,23233.1,1400.08,14624.1,141.702,282.124,258.842,4022.82,274.033,10429.3,59.4751,-58.1211,42.7671,-9192.87,24255.7,-1334.32,-51.3512,253.087,352.336,-2022.0,-12641.0,-2302.48,-7.60411,-71.2987,42.0312,3143.08,5298.74,-2381.17,0.0635986,159.269,103.229,1770.58,-12248.7,-2103.14,-40.9635,-95.5247,139.037,7647.7,-1116.73,104.422,87.6232,-34.5511,19.3635
3.391,23409.2,1409.12,14483.3,141.737,282.016,256.776,4020.6,236.757,10414.0,60.8485,-59.1546,43.178,-9389.35,24313.0,-1386.86,-52.6475,251.582,350.734,-2006.22,-12667.5,-2350.05,-8.09598,-72.4712,42.3205,3262.33,5419.78,-2238.76,-0.742445,164.957,103.138,1806.72,-12285.7,-2078.82,-40.6799,-94.9872,139.468,7666.68,-1135.48,111.384,87.7896,-35.2072,19.0168
3.3915,23599.0,1331.26,14225.1,142.941,282.482,253.881,4095.13,404.452,10384.0,60.926,-59.7954,43.7096,-9577.77,24375.1,-1462.52,-53.6662,249.727,349.086,-2061.11,-12654.0,-2596.79,-8.57943,-73.7179,42.455,3365.94,5576.72,-1944.34,-3.13059,170.023,103.208,1853.03,-12289.8,-2020.85,-40.2886,-94.6146,139.746,7670.09,-1167.67,89.2124,87.699,-35.7398,18.7066
3.392,23792.7,1228.56,13933.4,144.478,283.111,250.749,4191.59,630.71,10349.7,60.6332,-60.3239,44.2758,-9763.88,24438.7,-1544.79,-54.6057,247.771,347.425,-2136.19,-12629.0,-2900.44,-9.06047,-74.9858,42.5452,3465.08,5743.92,-1606.5,-5.97076,174.911,103.323,1902.24,-12284.6,-1953.25,-39.8664,-94.2891,139.981,7669.06,-1203.69,58.7171,87.535,-36.237,18.4069
3.3925,23986.4,1125.86,13641.7,146.016,283.741,247.617,4288.05,856.969,10315.5,60.3404,-60.8525,44.8419,-9949.99,24502.2,-1627.06,-55.5452,245.816,345.763,-2211.27,-12604.1,-3204.09,-9.54151,-76.2537,42.6354,3564.23,5911.12,-1268.66,-8.81093,179.798,103.439,1951.45,-12279.4,-1885.66,-39.4443,-93.9636,140.216,7668.02,-1239.72,28.2217,87.371,-36.7343,18.1071
3.393,24180.1,1023.16,13350.0,147.553,284.37,244.485,4384.51,1083.23,10281.2,60.0477,-61.3811,45.4081,-10136.1,24565.7,-1709.33,-56.4846,243.861,344.102,-2286.35,-12579.1,-3507.74,-10.0226,-77.5216,42.7257,3663.37,6078.32,-930.82,-11.6511,184.686,103.554,2000.66,-12274.2,-1818.07,-39.0222,-93.638,140.451,7666.98,-1275.74,-2.27364,87.2071,-37.2316,17.8074
3.3935,24373.8,920.461,13058.3,149.09,284.999,241.353,4480.97,1309.49,10247.0,59.7549,-61.9097,45.9742,-10322.2,24629.2,-1791.6,-57.4241,241.905,342.441,-2361.43,-12554.1,-3811.38,-10.5036,-78.7895,42.8159,3762.52,6245.52,-592.978,-14.4913,189.574,103.67,2049.87,-12269.0,-1750.48,-38.6001,-93.3125,140.685,7665.95,-1311.76,-32.769,87.0431,-37.7289,17.5077
3.394,24567.6,817.763,12766.6,150.628,285.629,238.221,4577.42,1535.74,10212.7,59.4621,-62.4382,46.5404,-10508.3,24692.7,-1873.87,-58.3636,239.95,340.779,-2436.5,-12529.2,-4115.03,-10.9846,-80.0574,42.9061,3861.66,6412.72,-255.137,-17.3314,194.462,103.785,2099.08,-12263.8,-1682.89,-38.1779,-92.987,140.92,7664.91,-1347.79,-63.2644,86.8791,-38.2262,17.2079
3.3945,24761.3,715.064,12474.9,152.165,286.258,235.089,4673.88,1762.0,10178.5,59.1693,-62.9668,47.1065,-10694.4,24756.2,-1956.14,-59.3031,237.995,339.118,-2511.58,-12504.2,-4418.68,-11.4657,-81.3253,42.9964,3960.8,6579.92,82.704,-20.1716,199.349,103.9,2148.29,-12258.6,-1615.29,-37.7558,-92.6614,141.155,7663.88,-1383.81,-93.7597,86.7151,-38.7234,16.9082
3.395,24955.0,612.365,12183.2,153.702,286.888,231.957,4770.34,1988.26,10144.2,58.8766,-63.4954,47.6727,-10880.6,24819.7,-2038.41,-60.2426,236.039,337.456,-2586.66,-12479.3,-4722.33,-11.9467,-82.5933,43.0866,4059.95,6747.11,420.545,-23.0118,204.237,104.016,2197.5,-12253.4,-1547.7,-37.3337,-92.3359,141.39,7662.84,-1419.83,-124.255,86.5511,-39.2207,16.6085
3.3955,25148.7,509.666,11891.5,155.24,287.517,228.825,4866.8,2214.52,10110.0,58.5838,-64.024,48.2388,-11066.7,24883.3,-2120.68,-61.182,234.084,335.795,-2661.74,-12454.3,-5025.97,-12.4278,-83.8612,43.1768,4159.09,6914.31,758.387,-25.852,209.125,104.131,2246.71,-12248.2,-1480.11,-36.9116,-92.0104,141.624,7661.8,-1455.86,-154.75,86.3872,-39.718,16.3087
3.396,25349.9,101.91,11606.0,158.969,288.628,224.707,4903.08,2614.44,10126.3,58.0739,-64.3485,50.0369,-11225.8,24885.4,-2324.42,-61.3206,232.28,334.416,-2672.69,-12375.0,-5098.25,-12.1822,-84.208,43.4628,4272.77,7097.54,1171.89,-30.0886,213.91,104.76,2265.92,-12233.4,-1428.96,-36.4231,-91.8723,141.737,7666.42,-1464.68,-146.705,86.5544,-40.0535,15.9434
3.3965,25552.1,-343.978,11321.4,162.973,289.798,220.466,4931.84,3036.07,10148.9,57.5368,-64.6476,51.989,-11381.5,24879.8,-2543.34,-61.3591,230.496,333.072,-2675.61,-12288.9,-5141.6,-11.8457,-84.4398,43.7733,4388.27,7282.78,1594.86,-34.4999,218.682,105.454,2281.37,-12217.5,-1379.87,-35.9264,-91.7577,141.834,7671.75,-1470.11,-133.842,86.7631,-40.3688,15.57
3.397,25754.3,-789.866,11036.7,166.977,290.969,216.226,4960.6,3457.7,10171.5,56.9997,-64.9466,53.941,-11537.2,24874.2,-2762.27,-61.3976,228.711,331.728,-2678.54,-12202.9,-5184.96,-11.5093,-84.6715,44.0837,4503.77,7468.02,2017.82,-38.9111,223.455,106.147,2296.83,-12201.5,-1330.77,-35.4297,-91.643,141.931,7677.08,-1475.54,-120.979,86.9718,-40.6841,15.1965
3.3975,25956.5,-1235.75,10752.0,170.981,292.139,211.985,4989.37,3879.34,10194.1,56.4626,-65.2456,55.8931,-11692.9,24868.7,-2981.19,-61.4361,226.927,330.384,-2681.47,-12116.8,-5228.31,-11.1729,-84.9033,44.3941,4619.27,7653.25,2440.79,-43.3224,228.227,106.841,2312.29,-12185.6,-1281.68,-34.933,-91.5284,142.027,7682.41,-1480.96,-108.116,87.1804,-40.9994,14.823
3.398,26158.7,-1681.64,10467.4,174.985,293.309,207.744,5018.13,4300.97,10216.7,55.9255,-65.5447,57.8452,-11848.6,24863.1,-3200.12,-61.4746,225.143,329.04,-2684.4,-12030.7,-5271.66,-10.8365,-85.135,44.7046,4734.77,7838.48,2863.75,-47.7336,232.999,107.534,2327.75,-12169.6,-1232.59,-34.4362,-91.4137,142.124,7687.73,-1486.39,-95.2531,87.3891,-41.3146,14.4495
3.3985,26360.8,-2127.53,10182.7,178.989,294.48,203.503,5046.89,4722.6,10239.3,55.3884,-65.8437,59.7972,-12004.3,24857.5,-3419.04,-61.5131,223.358,327.695,-2687.33,-11944.6,-5315.02,-10.5,-85.3668,45.015,4850.27,8023.72,3286.71,-52.1449,237.771,108.227,2343.2,-12153.7,-1183.49,-33.9395,-91.2991,142.221,7693.06,-1491.81,-82.3901,87.5978,-41.6299,14.0761
3.399,26563.0,-2573.42,9898.08,182.993,295.65,199.262,5075.65,5144.23,10261.9,54.8513,-66.1427,61.7493,-12160.0,24852.0,-3637.97,-61.5516,221.574,326.351,-2690.26,-11858.6,-5358.37,-10.1636,-85.5985,45.3255,4965.77,8208.96,3709.68,-56.5561,242.544,108.921,2358.66,-12137.7,-1134.4,-33.4428,-91.1845,142.318,7698.39,-1497.24,-69.5271,87.8064,-41.9452,13.7026
3.3995,26765.2,-3019.31,9613.43,186.996,296.821,195.021,5104.41,5565.86,10284.4,54.3142,-66.4418,63.7013,-12315.7,24846.4,-3856.89,-61.5901,219.789,325.007,-2693.19,-11772.5,-5401.73,-9.8272,-85.8302,45.6359,5081.26,8394.19,4132.64,-60.9674,247.316,109.614,2374.12,-12121.8,-1085.31,-32.9461,-91.0698,142.415,7703.72,-1502.67,-56.6641,88.0151,-42.2605,13.3291
3.4,26967.4,-3465.19,9328.77,191.0,297.991,190.78,5133.17,5987.49,10307.0,53.7771,-66.7408,65.6534,-12471.5,24840.8,-4075.82,-61.6286,218.005,323.663,-2696.12,-11686.4,-5445.08,-9.49077,-86.062,45.9463,5196.76,8579.42,4555.61,-65.3786,252.088,110.308,2389.58,-12105.8,-1036.21,-32.4494,-90.9552,142.512,7709.05,-1508.09,-43.8011,88.2238,-42.5758,12.9557
3.4005,27094.0,-4154.16,9171.0,193.668,298.153,186.385,4932.11,5602.34,10338.5,53.747,-67.6048,66.8568,-12575.3,24662.3,-4490.05,-60.7224,217.118,322.289,-2471.35,-11786.7,-5073.22,-8.78141,-86.532,46.52,5336.54,8625.12,4811.29,-68.2168,256.642,111.1,2435.71,-12093.2,-1055.36,-32.6708,-91.7263,142.415,7756.66,-1482.67,-82.6051,88.79,-42.5909,12.6918
3.401,27220.5,-4843.13,9013.24,196.335,298.315,181.989,4731.06,5217.2,10369.9,53.7168,-68.4689,68.0601,-12679.1,24483.7,-4904.28,-59.8163,216.231,320.915,-2246.59,-11887.0,-4701.36,-8.07205,-87.0021,47.0937,5476.31,8670.82,5066.97,-71.0549,261.195,111.892,2481.85,-12080.5,-1074.5,-32.8923,-92.4974,142.319,7804.27,-1457.25,-121.409,89.3563,-42.6061,12.4279
3.4015,27347.1,-5532.1,8855.47,199.002,298.477,177.593,4530.0,4832.05,10401.3,53.6867,-69.3329,69.2635,-12782.9,24305.1,-5318.51,-58.9101,215.345,319.541,-2021.83,-11987.3,-4329.5,-7.36269,-87.4721,47.6674,5616.09,8716.51,5322.66,-73.8931,265.749,112.684,2527.99,-12067.8,-1093.64,-33.1137,-93.2685,142.222,7851.89,-1431.83,-160.213,89.9226,-42.6212,12.164
3.402,27473.7,-6221.08,8697.71,201.67,298.639,173.197,4328.95,4446.9,10432.8,53.6565,-70.1969,70.4668,-12886.8,24126.5,-5732.73,-58.004,214.458,318.167,-1797.07,-12087.6,-3957.64,-6.65332,-87.9421,48.2411,5755.86,8762.21,5578.34,-76.7313,270.303,113.477,2574.13,-12055.1,-1112.78,-33.3352,-94.0397,142.125,7899.5,-1406.4,-199.017,90.4888,-42.6363,11.9002
3.4025,27600.3,-6910.04,8539.94,204.337,298.801,168.801,4127.89,4061.75,10464.2,53.6264,-71.061,71.6702,-12990.6,23948.0,-6146.96,-57.0978,213.571,316.793,-1572.31,-12187.9,-3585.77,-5.94396,-88.4122,48.8148,5895.64,8807.9,5834.02,-79.5695,274.856,114.269,2620.27,-12042.4,-1131.92,-33.5566,-94.8108,142.028,7947.11,-1380.98,-237.821,91.0551,-42.6515,11.6363
3.403,27726.9,-7599.02,8382.17,207.004,298.963,164.405,3926.84,3676.61,10495.6,53.5962,-71.925,72.8736,-13094.4,23769.4,-6561.19,-56.1917,212.685,315.419,-1347.55,-12288.2,-3213.91,-5.2346,-88.8822,49.3885,6035.41,8853.6,6089.7,-82.4076,279.41,115.061,2666.41,-12029.7,-1151.07,-33.7781,-95.5819,141.931,7994.72,-1355.56,-276.625,91.6214,-42.6666,11.3724
3.4035,27853.5,-8287.99,8224.41,209.672,299.124,160.009,3725.78,3291.46,10527.1,53.566,-72.789,74.0769,-13198.2,23590.8,-6975.42,-55.2855,211.798,314.045,-1122.78,-12388.5,-2842.05,-4.52524,-89.3522,49.9622,6175.19,8899.29,6345.39,-85.2458,283.963,115.853,2712.55,-12017.1,-1170.21,-33.9995,-96.3531,141.835,8042.34,-1330.14,-315.429,92.1876,-42.6817,11.1086
3.404,27980.0,-8976.96,8066.64,212.339,299.286,155.613,3524.73,2906.31,10558.5,53.5359,-73.6531,75.2803,-13302.1,23412.3,-7389.65,-54.3794,210.911,312.671,-898.023,-12488.8,-2470.19,-3.81588,-89.8223,50.5358,6314.96,8944.99,6601.07,-88.084,288.517,116.646,2758.69,-12004.4,-1189.35,-34.221,-97.1242,141.738,8089.95,-1304.71,-354.233,92.7539,-42.6969,10.8447
3.4045,28090.6,-9624.25,7903.7,214.61,299.268,151.302,3345.87,2506.82,10588.4,53.4598,-74.5327,76.2347,-13405.3,23222.1,-7790.18,-53.4572,210.004,311.247,-695.039,-12594.9,-2116.34,-3.09021,-90.3103,51.1134,6460.17,8980.31,6838.54,-90.6703,292.913,117.328,2809.51,-11989.9,-1212.15,-34.5072,-98.0194,141.598,8136.18,-1279.16,-390.934,93.3037,-42.7006,10.592
3.405,28072.9,-9938.16,7699.34,213.707,297.812,147.668,3344.57,1992.62,10606.0,53.0163,-75.5374,75.1976,-13503.4,22938.9,-8081.15,-52.4071,208.938,309.433,-666.271,-12747.7,-1906.6,-2.23407,-90.9423,51.7223,6648.82,8932.68,6930.33,-91.2422,296.047,117.132,2897.81,-11960.9,-1264.21,-35.312,-99.9076,141.115,8171.37,-1252.53,-410.814,93.7219,-42.6128,10.4284
3.4055,28055.3,-10252.1,7494.98,212.804,296.357,144.034,3343.28,1478.42,10623.6,52.5728,-76.5421,74.1605,-13601.6,22655.7,-8372.11,-51.3569,207.871,307.618,-637.503,-12900.5,-1696.86,-1.37792,-91.5742,52.3311,6837.47,8885.04,7022.13,-91.8141,299.181,116.935,2986.11,-11931.9,-1316.28,-36.1168,-101.796,140.632,8206.56,-1225.91,-430.693,94.1401,-42.5251,10.2648
3.406,28037.6,-10566.0,7290.61,211.901,294.901,140.401,3341.98,964.214,10641.2,52.1294,-77.5467,73.1234,-13699.7,22372.4,-8663.07,-50.3068,206.804,305.804,-608.734,-13053.3,-1487.12,-0.52178,-92.2062,52.9399,7026.11,8837.4,7113.92,-92.386,302.315,116.739,3074.42,-11902.9,-1368.34,-36.9216,-103.684,140.149,8241.75,-1199.28,-450.572,94.5582,-42.4373,10.1012
3.4065,28020.0,-10879.9,7086.25,210.999,293.445,136.767,3340.68,450.011,10658.8,51.6859,-78.5514,72.0863,-13797.9,22089.2,-8954.04,-49.2566,205.737,303.989,-579.966,-13206.2,-1277.38,0.334363,-92.8382,53.5488,7214.76,8789.77,7205.71,-92.9579,305.449,116.543,3162.72,-11873.9,-1420.4,-37.7263,-105.572,139.666,8276.95,-1172.66,-470.451,94.9764,-42.3495,9.93756
3.407,28002.3,-11193.8,6881.89,210.096,291.989,133.134,3339.39,-64.1925,10676.5,51.2424,-79.5561,71.0492,-13896.0,21806.0,-9245.0,-48.2065,204.67,302.174,-551.198,-13359.0,-1067.64,1.19051,-93.4702,54.1576,7403.41,8742.13,7297.5,-93.5297,308.583,116.346,3251.02,-11844.9,-1472.47,-38.5311,-107.46,139.183,8312.14,-1146.04,-490.33,95.3946,-42.2618,9.77396
3.4075,27984.7,-11507.7,6677.53,209.193,290.533,129.5,3338.09,-578.396,10694.1,50.7989,-80.5607,70.0121,-13994.2,21522.8,-9535.96,-47.1563,203.603,300.36,-522.43,-13511.8,-857.896,2.04665,-94.1021,54.7664,7592.06,8694.49,7389.3,-94.1016,311.717,116.15,3339.33,-11815.9,-1524.53,-39.3359,-109.348,138.7,8347.33,-1119.41,-510.21,95.8128,-42.174,9.61036
3.408,27967.0,-11821.6,6473.17,208.29,289.077,125.866,3336.8,-1092.6,10711.7,50.3554,-81.5654,68.975,-14092.3,21239.6,-9826.93,-46.1062,202.536,298.545,-493.662,-13664.6,-648.155,2.90279,-94.7341,55.3753,7780.71,8646.86,7481.09,-94.6735,314.851,115.954,3427.63,-11786.9,-1576.59,-40.1407,-111.237,138.217,8382.52,-1092.79,-530.089,96.231,-42.0863,9.44676
3.4085,27949.4,-12135.5,6268.8,207.388,287.621,122.233,3335.5,-1606.8,10729.3,49.9119,-82.5701,67.9378,-14190.5,20956.4,-10117.9,-45.056,201.469,296.731,-464.894,-13817.4,-438.413,3.75893,-95.3661,55.9841,7969.36,8599.22,7572.88,-95.2454,317.985,115.757,3515.93,-11757.9,-1628.66,-40.9455,-113.125,137.734,8417.71,-1066.16,-549.968,96.6491,-41.9985,9.28316
3.409,27911.2,-12332.5,6073.08,206.087,285.95,118.616,3369.09,-2000.36,10733.1,49.4311,-83.4774,66.9557,-14289.2,20686.1,-10369.6,-43.9938,200.14,294.814,-457.732,-13928.1,-277.801,4.5628,-95.8039,56.6119,8153.83,8557.17,7654.43,-95.559,320.617,115.352,3605.08,-11733.5,-1684.96,-41.5816,-114.939,137.183,8450.38,-1040.2,-573.537,96.9936,-41.8486,9.16067
3.4095,27801.5,-12120.4,5907.58,203.392,283.527,115.057,3524.79,-1971.65,10688.8,48.8195,-84.0441,66.1658,-14390.2,20461.2,-10484.0,-42.889,197.891,292.543,-526.195,-13891.3,-289.14,5.18368,-95.562,57.3059,8323.69,8534.68,7700.1,-94.9687,321.496,114.215,3697.17,-11725.0,-1756.11,-41.6277,-116.493,136.396,8474.21,-1016.55,-610.018,97.0798,-41.4814,9.18204
3.41,27691.7,-11908.2,5742.09,200.697,281.104,111.499,3680.48,-1942.94,10644.5,48.2079,-84.6108,65.3759,-14491.2,20236.2,-10598.4,-41.7842,195.642,290.271,-594.658,-13854.4,-300.479,5.80456,-95.3202,58.0,8493.54,8512.18,7745.77,-94.3783,322.375,113.078,3789.26,-11716.5,-1827.26,-41.6738,-118.048,135.608,8498.04,-992.895,-646.5,97.1661,-41.1141,9.20341
3.4105,27581.9,-11696.1,5576.59,198.002,278.681,107.94,3836.18,-1914.22,10600.2,47.5964,-85.1775,64.586,-14592.2,20011.3,-10712.8,-40.6795,193.393,287.999,-663.121,-13817.6,-311.818,6.42544,-95.0784,58.6941,8663.39,8489.69,7791.45,-93.788,323.253,111.94,3881.36,-11708.0,-1898.41,-41.7199,-119.603,134.82,8521.87,-969.242,-682.981,97.2524,-40.7469,9.22478
3.411,27472.1,-11484.0,5411.09,195.307,276.258,104.382,3991.87,-1885.51,10555.9,46.9848,-85.7442,63.7961,-14693.2,19786.3,-10827.2,-39.5747,191.144,285.727,-731.584,-13780.8,-323.157,7.04632,-94.8365,59.3882,8833.24,8467.19,7837.12,-93.1976,324.132,110.803,3973.45,-11699.5,-1969.56,-41.7659,-121.157,134.033,8545.7,-945.59,-719.463,97.3387,-40.3796,9.24615
3.4115,27362.4,-11271.9,5245.6,192.613,273.835,100.824,4147.57,-1856.8,10511.6,46.3732,-86.3109,63.0062,-14794.2,19561.4,-10941.6,-38.47,188.895,283.455,-800.047,-13744.0,-334.496,7.6672,-94.5947,60.0823,9003.09,8444.7,7882.79,-92.6073,325.011,109.666,4065.54,-11691.1,-2040.71,-41.812,-122.712,133.245,8569.53,-921.937,-755.944,97.425,-40.0124,9.26752
3.412,27252.6,-11059.8,5080.1,189.918,271.412,97.265,4303.26,-1828.09,10467.3,45.7616,-86.8776,62.2164,-14895.2,19336.5,-11056.1,-37.3652,186.646,281.183,-868.51,-13707.1,-345.834,8.28809,-94.3529,60.7764,9172.95,8422.21,7928.47,-92.0169,325.889,108.529,4157.64,-11682.6,-2111.86,-41.8581,-124.266,132.457,8593.36,-898.284,-792.426,97.5113,-39.6451,9.2889
3.4125,27142.8,-10847.6,4914.6,187.223,268.989,93.7066,4458.96,-1799.38,10423.0,45.1501,-87.4443,61.4265,-14996.2,19111.5,-11170.5,-36.2604,184.397,278.911,-936.973,-13670.3,-357.173,8.90897,-94.1111,61.4704,9342.8,8399.71,7974.14,-91.4266,326.768,107.391,4249.73,-11674.1,-2183.0,-41.9042,-125.821,131.67,8617.2,-874.631,-828.908,97.5976,-39.2779,9.31027
3.413,27033.1,-10635.5,4749.11,184.528,266.566,90.1481,4614.65,-1770.67,10378.7,44.5385,-88.011,60.6366,-15097.2,18886.6,-11284.9,-35.1557,182.148,276.639,-1005.44,-13633.5,-368.512,9.52985,-93.8692,62.1645,9512.65,8377.22,8019.81,-90.8362,327.647,106.254,4341.83,-11665.6,-2254.15,-41.9502,-127.375,130.882,8641.03,-850.978,-865.389,97.6838,-38.9106,9.33164
3.4135,26925.8,-10342.2,4617.3,181.295,263.906,86.5116,4718.88,-1687.98,10336.4,43.9433,-88.4867,60.119,-15220.6,18689.6,-11362.8,-34.0525,179.436,274.27,-1006.51,-13557.1,-385.474,10.0695,-93.6162,62.8345,9659.81,8396.94,8031.01,-90.2638,328.059,105.035,4422.86,-11652.5,-2328.53,-41.6644,-128.339,130.098,8683.62,-818.468,-895.183,97.6389,-38.5425,9.35873
3.414,26823.7,-9886.37,4552.85,176.985,260.772,82.7191,4720.18,-1497.35,10297.9,43.381,-88.7803,60.1459,-15388.9,18548.5,-11368.0,-32.9523,175.801,271.706,-872.824,-13401.6,-413.68,10.4467,-93.3409,63.4564,9761.58,8501.12,7973.25,-89.7273,327.537,103.651,4481.76,-11630.1,-2409.35,-40.7147,-128.12,129.32,8763.72,-768.243,-911.602,97.3316,-38.1724,9.39726
3.4145,26721.5,-9430.56,4488.41,172.674,257.638,78.9265,4721.48,-1306.71,10259.4,42.8187,-89.074,60.1728,-15557.2,18407.4,-11373.1,-31.8521,172.165,269.142,-739.134,-13246.1,-441.886,10.8239,-93.0655,64.0782,9863.36,8605.29,7915.49,-89.1909,327.016,102.267,4540.66,-11607.7,-2490.18,-39.7651,-127.901,128.542,8843.82,-718.018,-928.02,97.0242,-37.8024,9.43579
3.415,26619.4,-8974.76,4423.96,168.364,254.504,75.1339,4722.78,-1116.07,10220.9,42.2563,-89.3676,60.1997,-15725.5,18266.3,-11378.3,-30.752,168.53,266.578,-605.444,-13090.5,-470.092,11.2011,-92.7901,64.7001,9965.13,8709.46,7857.73,-88.6544,326.495,100.883,4599.56,-11585.3,-2571.0,-38.8154,-127.682,127.764,8923.92,-667.793,-944.439,96.7168,-37.4323,9.47431
3.4155,26517.2,-8518.96,4359.52,164.054,251.37,71.3414,4724.08,-925.432,10182.5,41.694,-89.6613,60.2266,-15893.8,18125.3,-11383.4,-29.6518,164.894,264.014,-471.754,-12935.0,-498.299,11.5783,-92.5147,65.3219,10066.9,8813.63,7799.97,-88.1179,325.974,99.4997,4658.47,-11563.0,-2651.83,-37.8657,-127.463,126.986,9004.02,-617.568,-960.857,96.4095,-37.0623,9.51284
3.416,26415.1,-8063.15,4295.08,159.743,248.236,67.5488,4725.38,-734.795,10144.0,41.1317,-89.9549,60.2535,-16062.1,17984.2,-11388.6,-28.5517,161.258,261.45,-338.064,-12779.5,-526.505,11.9555,-92.2393,65.9437,10168.7,8917.8,7742.22,-87.5814,325.452,98.1159,4717.37,-11540.6,-2732.65,-36.916,-127.244,126.208,9084.13,-567.343,-977.276,96.1021,-36.6922,9.55137
3.4165,26313.0,-7607.35,4230.63,155.433,245.102,63.7563,4726.68,-544.157,10105.5,40.5693,-90.2486,60.2804,-16230.4,17843.1,-11393.7,-27.4515,157.623,258.886,-204.374,-12624.0,-554.711,12.3327,-91.964,66.5656,10270.4,9021.97,7684.46,-87.0449,324.931,96.7322,4776.27,-11518.2,-2813.48,-35.9663,-127.025,125.43,9164.23,-517.117,-993.694,95.7947,-36.3222,9.5899
3.417,26210.8,-7151.55,4166.19,151.123,241.968,59.9637,4727.98,-353.519,10067.0,40.007,-90.5423,60.3073,-16398.7,17702.0,-11398.9,-26.3514,153.987,256.322,-70.6844,-12468.5,-582.917,12.7099,-91.6886,67.1874,10372.2,9126.15,7626.7,-86.5085,324.41,95.3484,4835.18,-11495.8,-2894.3,-35.0167,-126.806,124.653,9244.33,-466.892,-1010.11,95.4874,-35.9521,9.62843
3.4175,26108.7,-6695.74,4101.75,146.813,238.834,56.1712,4729.28,-162.881,10028.6,39.4447,-90.8359,60.3342,-16567.0,17560.9,-11404.0,-25.2512,150.352,253.759,63.0055,-12312.9,-611.124,13.0871,-91.4132,67.8093,10474.0,9230.32,7568.94,-85.972,323.889,93.9646,4894.08,-11473.4,-2975.12,-34.067,-126.587,123.875,9324.43,-416.667,-1026.53,95.18,-35.5821,9.66695
3.418,26050.4,-6265.43,4014.98,141.801,235.626,52.6245,4672.68,-20.8567,10010.6,38.8994,-91.2076,60.3712,-16793.4,17462.6,-11374.0,-24.2125,146.13,251.193,207.742,-12180.7,-621.838,13.4151,-91.1611,68.4389,10538.5,9345.4,7499.23,-85.6258,323.131,92.4608,4950.48,-11448.0,-3037.19,-33.0995,-125.654,123.109,9416.66,-389.742,-1042.62,94.915,-34.952,9.67757
3.4185,26046.8,-5866.98,3900.31,135.914,232.327,49.3851,4543.7,60.4003,10018.3,38.3754,-91.6768,60.4207,-17092.6,17417.7,-11299.8,-23.2508,141.177,248.625,366.287,-12077.5,-610.688,13.6815,-90.9382,69.0781,10556.4,9474.12,7414.59,-85.5175,322.078,90.8068,5003.77,-11418.8,-3075.82,-32.1097,-123.828,122.358,9524.05,-391.94,-1058.31,94.7028,-33.9967,9.65331
3.419,26043.3,-5468.54,3785.64,130.027,229.027,46.1457,4414.71,141.657,10026.0,37.8513,-92.146,60.4703,-17391.8,17372.9,-11225.7,-22.289,136.224,246.058,524.832,-11974.4,-599.538,13.9479,-90.7153,69.7174,10574.4,9602.84,7329.94,-85.4092,321.025,89.1528,5057.05,-11389.5,-3114.44,-31.1198,-122.002,121.607,9631.44,-394.139,-1073.99,94.4906,-33.0414,9.62904
3.4195,26039.8,-5070.09,3670.97,124.14,225.727,42.9063,4285.73,222.914,10033.7,37.3273,-92.6152,60.5198,-17691.0,17328.1,-11151.6,-21.3272,131.27,243.49,683.377,-11871.2,-588.388,14.2142,-90.4924,70.3567,10592.3,9731.56,7245.3,-85.3009,319.973,87.4988,5110.33,-11360.2,-3153.06,-30.13,-120.176,120.857,9738.83,-396.337,-1089.68,94.2785,-32.0862,9.60477
3.42,26036.3,-4671.64,3556.3,118.253,222.428,39.6669,4156.74,304.171,10041.4,36.8033,-93.0843,60.5693,-17990.1,17283.2,-11077.5,-20.3654,126.317,240.922,841.922,-11768.1,-577.237,14.4806,-90.2695,70.996,10610.3,9860.28,7160.66,-85.1926,318.92,85.8448,5163.61,-11331.0,-3191.69,-29.1402,-118.35,120.106,9846.21,-398.536,-1105.36,94.0663,-31.1309,9.5805
3.4205,26032.7,-4273.2,3441.63,112.366,219.128,36.4275,4027.76,385.428,10049.0,36.2793,-93.5535,60.6189,-18289.3,17238.4,-11003.4,-19.4036,121.364,238.354,1000.47,-11664.9,-566.087,14.747,-90.0466,71.6352,10628.2,9989.0,7076.01,-85.0843,317.867,84.1908,5216.89,-11301.7,-3230.31,-28.1504,-116.524,119.355,9953.6,-400.735,-1121.05,93.8542,-30.1757,9.55624
3.421,26029.2,-3874.75,3326.96,106.479,215.828,33.1881,3898.77,466.685,10056.7,35.7552,-94.0227,60.6684,-18588.5,17193.5,-10929.3,-18.4418,116.41,235.787,1159.01,-11561.8,-554.937,15.0134,-89.8237,72.2745,10646.1,10117.7,6991.37,-84.976,316.814,82.5369,5270.18,-11272.5,-3268.93,-27.1606,-114.698,118.604,10061.0,-402.933,-1136.73,93.642,-29.2204,9.53197
3.4215,26025.7,-3476.3,3212.29,100.592,212.528,29.9487,3769.79,547.942,10064.4,35.2312,-94.4919,60.7179,-18887.7,17148.7,-10855.2,-17.4801,111.457,233.219,1317.56,-11458.6,-543.787,15.2798,-89.6008,72.9138,10664.1,10246.4,6906.73,-84.8677,315.761,80.8829,5323.46,-11243.2,-3307.56,-26.1708,-112.872,117.854,10168.4,-405.132,-1152.41,93.4298,-28.2651,9.5077
3.422,26022.1,-3077.86,3097.62,94.7053,209.229,26.7093,3640.8,629.199,10072.1,34.7072,-94.9611,60.7675,-19186.9,17103.9,-10781.0,-16.5183,106.504,230.651,1476.1,-11355.5,-532.637,15.5462,-89.3779,73.5531,10682.0,10375.2,6822.08,-84.7594,314.709,79.2289,5376.74,-11214.0,-3346.18,-25.181,-111.047,117.103,10275.8,-407.33,-1168.1,93.2177,-27.3099,9.48343
3.4225,26100.4,-2818.99,2938.02,88.2895,206.22,23.7163,3545.71,652.847,10088.8,34.3462,-95.5254,60.7684,-19545.3,17090.3,-10674.9,-15.6668,100.981,228.139,1537.85,-11285.4,-543.115,15.8995,-89.0123,74.2896,10705.5,10457.4,6711.91,-84.5253,313.399,77.235,5454.0,-11189.5,-3339.22,-24.4714,-109.262,116.342,10360.8,-404.055,-1152.66,92.6444,-26.4617,9.6475
3.423,26244.2,-2671.79,2742.46,81.4507,203.445,20.9203,3477.72,630.406,10112.8,34.1156,-96.1658,60.7304,-19951.2,17101.9,-10543.1,-14.9035,95.0038,225.67,1522.16,-11241.8,-570.896,16.3223,-88.5325,75.1038,10733.6,10502.4,6581.31,-84.1905,311.885,74.969,5550.45,-11168.7,-3295.79,-23.9862,-107.512,115.572,10428.1,-396.4,-1112.33,91.7822,-25.6992,9.96222
3.4235,26387.9,-2524.59,2546.9,74.6119,200.67,18.1243,3409.73,607.966,10136.7,33.8851,-96.8061,60.6924,-20357.1,17113.4,-10411.3,-14.1401,89.0264,223.202,1506.47,-11198.2,-598.677,16.7452,-88.0527,75.9181,10761.6,10547.4,6450.71,-83.8558,310.371,72.7031,5646.89,-11148.0,-3252.37,-23.5009,-105.761,114.802,10495.3,-388.744,-1072.0,90.92,-24.9366,10.2769
3.424,26531.7,-2377.39,2351.34,67.7731,197.894,15.3283,3341.75,585.526,10160.7,33.6545,-97.4465,60.6544,-20763.0,17124.9,-10279.5,-13.3768,83.0489,220.733,1490.78,-11154.5,-626.458,17.168,-87.573,76.7323,10789.6,10592.4,6320.11,-83.521,308.856,70.4372,5743.34,-11127.3,-3208.94,-23.0156,-104.01,114.032,10562.6,-381.089,-1031.67,90.0578,-24.1741,10.5917
3.4245,26675.4,-2230.19,2155.78,60.9343,195.119,12.5324,3273.76,563.086,10184.7,33.424,-98.0869,60.6164,-21168.9,17136.4,-10147.7,-12.6135,77.0714,218.264,1475.09,-11110.9,-654.239,17.5909,-87.0932,77.5465,10817.6,10637.4,6189.51,-83.1863,307.342,68.1713,5839.78,-11106.6,-3165.51,-22.5303,-102.26,113.263,10629.8,-373.434,-991.342,89.1956,-23.4116,10.9064
3.425,26819.2,-2082.99,1960.22,54.0955,192.344,9.73638,3205.78,540.646,10208.6,33.1934,-98.7273,60.5784,-21574.8,17148.0,-10015.9,-11.8502,71.094,215.796,1459.4,-11067.3,-682.02,18.0137,-86.6134,78.3608,10845.6,10682.4,6058.91,-82.8515,305.827,65.9054,5936.23,-11085.9,-3122.09,-22.045,-100.509,112.493,10697.0,-365.779,-951.012,88.3334,-22.649,11.2211
3.4255,26962.9,-1935.79,1764.67,47.2567,189.568,6.94039,3137.79,518.206,10232.6,32.9629,-99.3677,60.5404,-21980.7,17159.5,-9884.13,-11.0869,65.1165,213.327,1443.71,-11023.7,-709.801,18.4366,-86.1337,79.175,10873.6,10727.3,5928.3,-82.5167,304.313,63.6395,6032.67,-11065.2,-3078.66,-21.5597,-98.7585,111.723,10764.3,-358.124,-910.681,87.4712,-21.8865,11.5358
3.426,27106.7,-1788.59,1569.11,40.4179,186.793,4.14441,3069.8,495.766,10256.5,32.7323,-100.008,60.5025,-22386.6,17171.0,-9752.33,-10.3236,59.1391,210.858,1428.02,-10980.1,-737.582,18.8594,-85.6539,79.9893,10901.7,10772.3,5797.7,-82.182,302.799,61.3736,6129.12,-11044.4,-3035.23,-21.0745,-97.0078,110.953,10831.5,-350.469,-870.351,86.609,-21.124,11.8506
3.4265,27250.4,-1641.39,1373.55,33.5791,184.018,1.34842,3001.82,473.326,10280.5,32.5018,-100.648,60.4645,-22792.5,17182.5,-9620.54,-9.56026,53.1616,208.39,1412.33,-10936.5,-765.363,19.2823,-85.1741,80.8035,10929.7,10817.3,5667.1,-81.8472,301.284,59.1076,6225.56,-11023.7,-2991.81,-20.5892,-95.2571,110.184,10898.8,-342.814,-830.02,85.7468,-20.3615,12.1653
3.427,27456.2,-1600.62,1155.8,26.7269,181.599,-1.1586,3017.29,406.55,10312.1,32.1618,-101.365,60.2163,-23184.9,17197.2,-9469.69,-8.83748,46.9672,206.124,1345.39,-10924.3,-773.149,19.708,-84.4509,81.8121,10964.3,10916.5,5566.06,-81.24,299.655,56.944,6308.47,-11004.3,-2899.49,-20.4025,-93.9309,109.446,10975.0,-341.815,-789.323,84.6371,-19.6826,12.4418
3.4275,27692.9,-1613.06,926.959,19.868,179.359,-3.52114,3074.5,317.607,10347.5,31.767,-102.118,59.8631,-23570.6,17213.3,-9309.3,-8.13496,40.6643,203.959,1252.84,-10927.8,-770.938,20.1351,-83.6059,82.9179,11002.2,11042.8,5479.8,-80.4966,297.968,54.8314,6384.61,-10985.5,-2782.74,-20.3651,-92.8168,108.724,11055.8,-344.144,-748.442,83.4037,-19.0456,12.6992
3.428,27929.6,-1625.5,698.116,13.0091,177.119,-5.88368,3131.7,228.663,10383.0,31.3723,-102.872,59.5099,-23956.3,17229.5,-9148.92,-7.43245,34.3613,201.795,1160.29,-10931.4,-768.726,20.5622,-82.7609,84.0237,11040.1,11169.0,5393.53,-79.7531,296.281,52.7189,6460.74,-10966.7,-2665.99,-20.3277,-91.7027,108.002,11136.6,-346.473,-707.561,82.1702,-18.4086,12.9566
3.4285,28166.3,-1637.95,469.274,6.15023,174.878,-8.24622,3188.91,139.72,10418.4,30.9776,-103.626,59.1567,-24342.0,17245.7,-8988.53,-6.72994,28.0584,199.63,1067.73,-10934.9,-766.515,20.9893,-81.9159,85.1295,11078.1,11295.3,5307.27,-79.0097,294.594,50.6063,6536.88,-10948.0,-2549.24,-20.2903,-90.5887,107.281,11217.4,-348.802,-666.68,80.9367,-17.7716,13.214
3.429,28403.0,-1650.39,240.432,-0.708652,172.638,-10.6088,3246.11,50.7763,10453.9,30.5829,-104.38,58.8035,-24727.7,17261.8,-8828.15,-6.02742,21.7554,197.465,975.18,-10938.5,-764.304,21.4164,-81.0709,86.2352,11116.0,11421.5,5221.01,-78.2663,292.906,48.4938,6613.01,-10929.2,-2432.49,-20.2529,-89.4746,106.559,11298.1,-351.131,-625.799,79.7032,-17.1346,13.4714
3.4295,28639.8,-1662.83,11.5899,-7.56753,170.398,-12.9713,3303.31,-38.1671,10489.3,30.1882,-105.134,58.4503,-25113.4,17278.0,-8667.76,-5.32491,15.4525,195.301,882.627,-10942.0,-762.092,21.8435,-80.2259,87.341,11153.9,11547.8,5134.75,-77.5228,291.219,46.3812,6689.15,-10910.4,-2315.73,-20.2155,-88.3605,105.838,11378.9,-353.46,-584.918,78.4698,-16.4976,13.7288
3.43,28876.5,-1675.27,-217.252,-14.4264,168.158,-15.3338,3360.52,-127.111,10524.7,29.7935,-105.888,58.0971,-25499.1,17294.2,-8507.37,-4.6224,9.14953,193.136,790.074,-10945.6,-759.881,22.2706,-79.3809,88.4468,11191.8,11674.1,5048.48,-76.7794,289.532,44.2686,6765.29,-10891.6,-2198.98,-20.1781,-87.2464,105.116,11459.7,-355.789,-544.037,77.2363,-15.8606,13.9862
3.4305,29113.2,-1687.71,-446.095,-21.2853,165.918,-17.6964,3417.72,-216.054,10560.2,29.3988,-106.642,57.7439,-25884.8,17310.3,-8346.99,-3.91988,2.84659,190.972,697.521,-10949.1,-757.669,22.6977,-78.5359,89.5526,11229.7,11800.3,4962.22,-76.036,287.845,42.1561,6841.42,-10872.8,-2082.23,-20.1407,-86.1324,104.394,11540.4,-358.118,-503.156,76.0028,-15.2236,14.2436
3.431,29349.9,-1700.16,-674.937,-28.1442,163.677,-20.0589,3474.93,-304.997,10595.6,29.0041,-107.396,57.3907,-26270.5,17326.5,-8186.6,-3.21737,-3.45635,188.807,604.967,-10952.7,-755.458,23.1249,-77.6909,90.6584,11267.7,11926.6,4875.96,-75.2926,286.158,40.0435,6917.56,-10854.0,-1965.48,-20.1033,-85.0183,103.673,11621.2,-360.447,-462.275,74.7693,-14.5866,14.501
3.4315,29569.3,-1702.37,-908.784,-34.2357,161.617,-21.8983,3530.77,-313.652,10632.8,28.48,-108.289,56.9969,-26565.9,17304.0,-8035.69,-2.59821,-9.52919,186.639,564.142,-10982.6,-730.951,23.5231,-76.954,91.7407,11300.9,12022.0,4798.6,-74.735,283.94,37.7466,6942.3,-10865.7,-1867.42,-20.2492,-84.3219,103.09,11707.1,-381.296,-423.49,73.4429,-13.956,14.9121
3.432,29783.8,-1701.66,-1144.06,-40.1081,159.607,-23.5883,3586.22,-299.367,10670.4,27.919,-109.221,56.5915,-26835.5,17270.4,-7887.49,-2.00288,-15.5363,184.47,538.096,-11020.1,-700.074,23.9132,-76.248,92.8164,11332.7,12108.5,4723.78,-74.2305,281.571,35.397,6952.36,-10886.1,-1774.71,-20.4475,-83.7449,102.548,11794.5,-407.435,-385.303,72.09,-13.3272,15.3671
3.4325,29998.2,-1700.96,-1379.34,-45.9804,157.598,-25.2782,3641.68,-285.082,10708.0,27.358,-110.154,56.1862,-27105.2,17236.9,-7739.29,-1.40754,-21.5434,182.301,512.05,-11057.5,-669.196,24.3033,-75.542,93.892,11364.6,12195.1,4648.97,-73.726,279.202,33.0474,6962.42,-10906.5,-1682.0,-20.6458,-83.1679,102.006,11881.9,-433.575,-347.116,70.737,-12.6984,15.8221
3.433,30212.6,-1700.25,-1614.61,-51.8527,155.589,-26.9682,3697.13,-270.796,10745.6,26.7969,-111.086,55.7808,-27374.8,17203.3,-7591.09,-0.812206,-27.5504,180.132,486.004,-11095.0,-638.319,24.6933,-74.8359,94.9677,11396.5,12281.7,4574.15,-73.2215,276.833,30.6978,6972.47,-10926.9,-1589.29,-20.8442,-82.5909,101.463,11969.3,-459.714,-308.929,69.384,-12.0696,16.2771
3.4335,30427.1,-1699.54,-1849.89,-57.725,153.579,-28.6581,3752.59,-256.511,10783.2,26.2359,-112.018,55.3755,-27644.4,17169.8,-7442.89,-0.21687,-33.5575,177.963,459.958,-11132.5,-607.441,25.0834,-74.1299,96.0433,11428.3,12368.2,4499.34,-72.7171,274.464,28.3483,6982.53,-10947.3,-1496.58,-21.0425,-82.0139,100.921,12056.6,-485.854,-270.742,68.0311,-11.4408,16.7321
3.434,30641.5,-1698.83,-2085.17,-63.5974,151.57,-30.348,3808.04,-242.226,10820.8,25.6749,-112.95,54.9701,-27914.0,17136.3,-7294.69,0.378467,-39.5646,175.795,433.912,-11169.9,-576.564,25.4735,-73.4239,97.1189,11460.2,12454.8,4424.52,-72.2126,272.095,25.9987,6992.59,-10967.7,-1403.87,-21.2408,-81.4369,100.379,12144.0,-511.993,-232.556,66.6781,-10.812,17.1871
3.4345,30856.0,-1698.13,-2320.45,-69.4697,149.561,-32.038,3863.49,-227.941,10858.4,25.1139,-113.883,54.5648,-28183.6,17102.7,-7146.49,0.973803,-45.5717,173.626,407.866,-11207.4,-545.687,25.8635,-72.7179,98.1946,11492.0,12541.4,4349.71,-71.7081,269.726,23.6491,7002.65,-10988.1,-1311.15,-21.4391,-80.8598,99.8361,12231.4,-538.133,-194.369,65.3251,-10.1832,17.642
3.435,31070.4,-1697.42,-2555.72,-75.342,147.551,-33.7279,3918.95,-213.656,10896.1,24.5529,-114.815,54.1594,-28453.2,17069.2,-6998.29,1.56914,-51.5788,171.457,381.82,-11244.9,-514.809,26.2536,-72.0118,99.2702,11523.9,12627.9,4274.89,-71.2036,267.356,21.2995,7012.71,-11008.5,-1218.44,-21.6374,-80.2828,99.2938,12318.7,-564.272,-156.182,63.9722,-9.55439,18.097
3.4355,31284.9,-1696.71,-2791.0,-81.2143,145.542,-35.4179,3974.4,-199.371,10933.7,23.9918,-115.747,53.7541,-28722.8,17035.6,-6850.09,2.16448,-57.5859,169.288,355.775,-11282.4,-483.932,26.6436,-71.3058,100.346,11555.8,12714.5,4200.08,-70.6991,264.987,18.9499,7022.76,-11029.0,-1125.73,-21.8357,-79.7058,98.7514,12406.1,-590.412,-117.995,62.6192,-8.92558,18.552
3.436,31404.4,-1645.23,-3013.0,-85.5369,143.465,-36.735,3995.5,-144.46,10960.5,23.5173,-116.776,53.656,-28819.3,16949.9,-6704.06,2.44534,-62.8047,166.896,341.615,-11356.6,-472.174,26.911,-70.715,101.22,11560.7,12819.9,4294.09,-69.414,260.221,17.0393,6971.83,-11023.4,-1070.96,-21.987,-79.1344,98.4266,12460.4,-614.43,-110.267,61.7575,-8.20475,19.0394
3.4365,31512.0,-1587.41,-3233.34,-89.6658,141.379,-38.0056,4012.31,-84.4708,10985.9,23.0535,-117.817,53.5963,-28894.2,16857.7,-6558.29,2.6869,-67.9249,164.476,328.941,-11435.4,-462.806,27.1631,-70.1386,102.07,11562.2,12927.7,4409.2,-68.0313,255.155,15.1835,6913.27,-11014.6,-1020.92,-22.1324,-78.5637,98.1289,12510.6,-638.182,-106.346,60.9573,-7.4724,19.5308
3.437,31619.6,-1529.58,-3453.68,-93.7948,139.294,-39.2761,4029.11,-24.4818,11011.3,22.5897,-118.857,53.5366,-28969.1,16765.5,-6412.53,2.92845,-73.0451,162.056,316.268,-11514.2,-453.439,27.4151,-69.5622,102.919,11563.8,13035.4,4524.32,-66.6486,250.089,13.3278,6854.72,-11005.8,-970.891,-22.2779,-77.993,97.8313,12560.8,-661.935,-102.425,60.157,-6.74006,20.0222
3.4375,31727.3,-1471.76,-3674.02,-97.9237,137.208,-40.5467,4045.92,35.5073,11036.7,22.1259,-119.898,53.4769,-29044.0,16673.3,-6266.77,3.17001,-78.1654,159.637,303.594,-11593.0,-444.071,27.6672,-68.9858,103.769,11565.3,13143.2,4639.43,-65.2659,245.023,11.4721,6796.16,-10996.9,-920.858,-22.4233,-77.4224,97.5337,12611.0,-685.688,-98.5041,59.3568,-6.00772,20.5136
3.438,31834.9,-1413.94,-3894.36,-102.053,135.122,-41.8173,4062.72,95.4964,11062.2,21.6621,-120.939,53.4172,-29118.9,16581.1,-6121.01,3.41156,-83.2856,157.217,290.921,-11671.9,-434.703,27.9193,-68.4094,104.618,11566.9,13250.9,4754.55,-63.8832,239.957,9.61634,6737.6,-10988.1,-870.825,-22.5687,-76.8517,97.236,12661.2,-709.441,-94.583,58.5565,-5.27537,21.0051
3.4385,31942.5,-1356.11,-4114.7,-106.181,133.037,-43.0878,4079.53,155.485,11087.6,21.1984,-121.98,53.3576,-29193.8,16488.9,-5975.25,3.65312,-88.4058,154.797,278.247,-11750.7,-425.335,28.1713,-67.833,105.468,11568.4,13358.7,4869.66,-62.5005,234.891,7.7606,6679.04,-10979.3,-820.792,-22.7141,-76.281,96.9384,12711.4,-733.194,-90.662,57.7563,-4.54303,21.4965
3.439,32050.2,-1298.29,-4335.04,-110.31,130.951,-44.3584,4096.33,215.474,11113.0,20.7346,-123.02,53.2979,-29268.7,16396.7,-5829.49,3.89468,-93.5261,152.377,265.573,-11829.5,-415.968,28.4234,-67.2566,106.317,11570.0,13466.4,4984.78,-61.1178,229.825,5.90487,6620.49,-10970.5,-770.759,-22.8595,-75.7103,96.6408,12761.6,-756.946,-86.741,56.956,-3.81069,21.9879
3.4395,32157.8,-1240.46,-4555.39,-114.439,128.866,-45.6289,4113.14,275.464,11138.5,20.2708,-124.061,53.2382,-29343.5,16304.5,-5683.73,4.13623,-98.6463,149.957,252.9,-11908.3,-406.6,28.6754,-66.6802,107.167,11571.5,13574.2,5099.9,-59.7351,224.759,4.04913,6561.93,-10961.7,-720.727,-23.0049,-75.1396,96.3431,12811.8,-780.699,-82.82,56.1557,-3.07834,22.4793
3.44,32265.4,-1182.64,-4775.73,-118.568,126.78,-46.8995,4129.94,335.453,11163.9,19.807,-125.102,53.1785,-29418.4,16212.2,-5537.97,4.37779,-103.767,147.538,240.226,-11987.2,-397.232,28.9275,-66.1038,108.016,11573.1,13681.9,5215.01,-58.3524,219.693,2.1934,6503.37,-10952.9,-670.694,-23.1503,-74.5689,96.0455,12861.9,-804.452,-78.899,55.3555,-2.346,22.9707
3.4405,32233.5,-1106.69,-4968.46,-120.794,124.382,-47.8475,4120.3,336.075,11178.4,19.5015,-126.251,53.1213,-29275.9,16106.6,-5391.85,4.21554,-107.599,144.809,199.482,-12084.0,-411.9,29.156,-65.5263,108.718,11565.4,13762.8,5107.59,-57.9901,213.675,0.759432,6438.69,-10987.2,-595.369,-23.2742,-74.1858,96.0623,12885.3,-802.895,-54.4946,55.2881,-1.90784,23.3972
3.441,32201.6,-1030.74,-5161.19,-123.021,121.984,-48.7956,4110.66,336.698,11192.9,19.196,-127.4,53.0641,-29133.3,16001.0,-5245.74,4.0533,-111.431,142.081,158.737,-12180.9,-426.569,29.3846,-64.9488,109.42,11557.8,13843.7,5000.18,-57.6278,207.656,-0.674533,6374.02,-11021.6,-520.043,-23.398,-73.8027,96.079,12908.6,-801.338,-30.0901,55.2206,-1.46969,23.8236
3.4415,32169.6,-954.795,-5353.92,-125.247,119.586,-49.7436,4101.02,337.32,11207.4,18.8905,-128.549,53.0069,-28990.8,15895.4,-5099.63,3.89106,-115.264,139.352,117.993,-12277.8,-441.237,29.6131,-64.3714,110.122,11550.1,13924.6,4892.76,-57.2655,201.638,-2.1085,6309.34,-11055.9,-444.718,-23.5219,-73.4195,96.0958,12932.0,-799.781,-5.68572,55.1532,-1.03153,24.2501
3.442,32137.7,-878.847,-5546.65,-127.473,117.188,-50.6916,4091.39,337.943,11221.9,18.5849,-129.698,52.9497,-28848.2,15789.8,-4953.52,3.72882,-119.096,136.624,77.249,-12374.7,-455.906,29.8417,-63.7939,110.824,11542.5,14005.4,4785.35,-56.9032,195.62,-3.54246,6244.67,-11090.3,-369.393,-23.6457,-73.0364,96.1126,12955.3,-798.224,18.7187,55.0858,-0.593371,24.6765
3.4425,32105.8,-802.899,-5739.38,-129.7,114.79,-51.6396,4081.75,338.565,11236.4,18.2794,-130.847,52.8925,-28705.7,15684.2,-4807.4,3.56657,-122.929,133.895,36.5048,-12471.6,-470.574,30.0702,-63.2164,111.525,11534.8,14086.3,4677.93,-56.5409,189.601,-4.97643,6179.99,-11124.6,-294.068,-23.7696,-72.6533,96.1294,12978.7,-796.668,43.1231,55.0184,-0.155214,25.103
3.443,32073.9,-726.951,-5932.12,-131.926,112.392,-52.5877,4072.11,339.188,11250.9,17.9739,-131.996,52.8353,-28563.1,15578.6,-4661.29,3.40433,-126.761,131.167,-4.23946,-12568.5,-485.243,30.2987,-62.6389,112.227,11527.2,14167.2,4570.52,-56.1786,183.583,-6.4104,6115.31,-11159.0,-218.742,-23.8934,-72.2701,96.1462,13002.0,-795.111,67.5275,54.951,0.282944,25.5294
3.4435,32041.9,-651.003,-6124.85,-134.152,109.994,-53.5357,4062.47,339.81,11265.4,17.6684,-133.145,52.7781,-28420.6,15473.0,-4515.18,3.24209,-130.594,128.438,-44.9837,-12665.4,-499.911,30.5273,-62.0614,112.929,11519.5,14248.0,4463.1,-55.8163,177.565,-7.84436,6050.64,-11193.3,-143.417,-24.0172,-71.887,96.1629,13025.4,-793.554,91.9319,54.8836,0.721101,25.9558
3.444,32010.0,-575.054,-6317.58,-136.379,107.596,-54.4837,4052.83,340.433,11280.0,17.3628,-134.294,52.7208,-28278.0,15367.4,-4369.07,3.07985,-134.426,125.709,-85.7279,-12762.2,-514.58,30.7558,-61.484,113.631,11511.9,14328.9,4355.69,-55.454,171.546,-9.27833,5985.96,-11227.6,-68.0918,-24.1411,-71.5039,96.1797,13048.7,-791.997,116.336,54.8161,1.15926,26.3823
3.4445,31971.2,-500.373,-6506.59,-138.387,105.153,-55.3885,4042.42,340.429,11296.8,17.0585,-135.456,52.6443,-28122.9,15260.4,-4228.58,2.88395,-138.087,122.943,-120.324,-12857.7,-529.441,30.9782,-60.8963,114.305,11485.5,14386.2,4251.53,-54.9701,165.401,-10.6476,5917.49,-11262.1,3.83569,-24.2468,-71.1404,96.2179,13071.2,-788.748,138.021,54.7435,1.54498,26.8233
3.445,31877.7,-435.824,-6665.86,-138.649,102.35,-55.9476,4025.86,335.414,11332.1,16.764,-136.72,52.413,-27866.6,15142.5,-4133.15,2.41882,-140.375,119.869,-105.73,-12942.0,-545.843,31.151,-60.2274,114.757,11309.0,14254.8,4173.41,-53.5134,158.242,-11.4989,5818.63,-11297.8,48.5809,-24.2071,-70.9344,96.4276,13086.0,-771.963,137.951,54.6294,1.51117,27.3813
3.4455,31784.1,-371.274,-6825.13,-138.911,99.5464,-56.5066,4009.29,330.4,11367.5,16.4695,-137.984,52.1817,-27610.3,15024.6,-4037.72,1.95368,-142.663,116.796,-91.1368,-13026.3,-562.245,31.3239,-59.5586,115.209,11132.6,14123.3,4095.29,-52.0567,151.083,-12.3502,5719.77,-11333.6,93.326,-24.1675,-70.7284,96.6373,13100.9,-755.178,137.882,54.5152,1.47737,27.9393
3.446,31690.6,-306.725,-6984.4,-139.173,96.7429,-57.0656,3992.73,325.385,11402.9,16.1749,-139.248,51.9504,-27354.0,14906.6,-3942.29,1.48855,-144.951,113.723,-76.5435,-13110.6,-578.647,31.4967,-58.8897,115.661,10956.1,13991.9,4017.18,-50.6001,143.924,-13.2015,5620.91,-11369.3,138.071,-24.1278,-70.5223,96.847,13115.8,-738.393,137.812,54.401,1.44356,28.4973
3.4465,31597.1,-242.176,-7143.67,-139.435,93.9394,-57.6246,3976.17,320.37,11438.2,15.8804,-140.513,51.7192,-27097.7,14788.7,-3846.86,1.02342,-147.239,110.65,-61.9501,-13194.9,-595.049,31.6696,-58.2208,116.113,10779.7,13860.4,3939.06,-49.1434,136.765,-14.0528,5522.05,-11405.0,182.816,-24.0882,-70.3163,97.0567,13130.7,-721.608,137.742,54.2869,1.40976,29.0552
3.447,31503.5,-177.627,-7302.94,-139.697,91.1359,-58.1836,3959.6,315.356,11473.6,15.5859,-141.777,51.4879,-26841.4,14670.7,-3751.43,0.558284,-149.527,107.577,-47.3568,-13279.2,-611.451,31.8424,-57.5519,116.565,10603.2,13729.0,3860.94,-47.6867,129.606,-14.9041,5423.19,-11440.7,227.562,-24.0485,-70.1102,97.2664,13145.6,-704.823,137.672,54.1727,1.37596,29.6132
3.4475,31410.0,-113.077,-7462.21,-139.959,88.3324,-58.7427,3943.04,310.341,11508.9,15.2913,-143.041,51.2566,-26585.2,14552.8,-3656.0,0.0931511,-151.814,104.504,-32.7634,-13363.5,-627.853,32.0153,-56.883,117.017,10426.8,13597.5,3782.83,-46.23,122.447,-15.7554,5324.33,-11476.4,272.307,-24.0089,-69.9042,97.4761,13160.5,-688.038,137.602,54.0585,1.34215,30.1712
3.448,31316.5,-48.5281,-7621.48,-140.221,85.5289,-59.3017,3926.47,305.326,11544.3,14.9968,-144.305,51.0253,-26328.9,14434.8,-3560.57,-0.371982,-154.102,101.43,-18.1701,-13447.9,-644.255,32.1881,-56.2141,117.469,10250.3,13466.1,3704.71,-44.7734,115.288,-16.6067,5225.47,-11512.1,317.052,-23.9692,-69.6982,97.6858,13175.4,-671.253,137.532,53.9444,1.30835,30.7292
3.4485,31222.9,16.0212,-7780.75,-140.484,82.7254,-59.8607,3909.91,300.311,11579.7,14.7023,-145.57,50.794,-26072.6,14316.9,-3465.14,-0.837115,-156.39,98.3571,-3.57673,-13532.2,-660.657,32.361,-55.5452,117.922,10073.9,13334.6,3626.6,-43.3167,108.129,-17.458,5126.62,-11547.8,361.797,-23.9296,-69.4921,97.8955,13190.3,-654.468,137.462,53.8302,1.27455,31.2871
3.449,31124.9,64.2635,-7922.7,-140.317,79.8554,-60.3911,3894.44,297.481,11613.3,14.4088,-146.85,50.6041,-25810.2,14198.5,-3383.44,-1.38268,-158.359,95.2376,13.7593,-13607.9,-670.187,32.5299,-54.8791,118.373,9879.49,13211.0,3550.23,-41.2304,100.492,-18.0127,5030.87,-11587.1,403.978,-23.9118,-69.363,98.106,13200.0,-635.314,130.127,53.6884,1.24985,31.8083
3.4495,31011.1,55.4318,-8003.99,-138.651,76.7523,-60.8213,3882.78,302.297,11640.6,14.1189,-148.187,50.5588,-25526.6,14078.3,-3349.8,-2.20977,-159.208,91.9559,40.6949,-13653.6,-655.669,32.6851,-54.2224,118.821,9622.29,13114.9,3479.99,-36.9405,91.1823,-17.5296,4946.03,-11639.0,437.182,-23.9706,-69.5033,98.3188,13191.4,-607.866,97.3621,53.4501,1.257,32.2006
3.45,30897.4,46.6001,-8085.29,-136.985,73.6493,-61.2515,3871.12,307.112,11668.0,13.8291,-149.524,50.5136,-25243.0,13958.2,-3316.16,-3.03686,-160.058,88.6742,67.6304,-13699.4,-641.151,32.8402,-53.5658,119.269,9365.1,13018.8,3409.76,-32.6506,81.8729,-17.0464,4861.2,-11690.9,470.386,-24.0294,-69.6436,98.5317,13182.8,-580.418,64.5975,53.2117,1.26416,32.593
3.4505,30783.7,37.7684,-8166.59,-135.319,70.5462,-61.6817,3859.47,311.927,11695.4,13.5392,-150.861,50.4684,-24959.3,13838.0,-3282.52,-3.86395,-160.908,85.3924,94.5659,-13745.1,-626.633,32.9954,-52.9091,119.717,9107.91,12922.7,3339.52,-28.3608,72.5636,-16.5632,4776.36,-11742.8,503.591,-24.0881,-69.7839,98.7446,13174.3,-552.97,31.8329,52.9733,1.27132,32.9853
3.451,30669.9,28.9367,-8247.89,-133.653,67.4432,-62.1119,3847.81,316.743,11722.7,13.2493,-152.198,50.4231,-24675.7,13717.9,-3248.88,-4.69104,-161.758,82.1107,121.501,-13790.9,-612.115,33.1505,-52.2525,120.165,8850.71,12826.6,3269.29,-24.0709,63.2542,-16.0801,4691.52,-11794.7,536.795,-24.1469,-69.9242,98.9575,13165.7,-525.522,-0.931728,52.735,1.27848,33.3777
3.4515,30556.2,20.105,-8329.18,-131.987,64.3401,-62.5421,3836.16,321.558,11750.1,12.9595,-153.535,50.3779,-24392.1,13597.7,-3215.24,-5.51812,-162.608,78.829,148.437,-13836.6,-597.597,33.3056,-51.5959,120.613,8593.52,12730.6,3199.05,-19.781,53.9448,-15.5969,4606.69,-11846.6,569.999,-24.2057,-70.0645,99.1704,13157.1,-498.074,-33.6963,52.4966,1.28564,33.77
3.452,30442.4,11.2733,-8410.48,-130.321,61.2371,-62.9723,3824.5,326.374,11777.5,12.6696,-154.872,50.3326,-24108.5,13477.6,-3181.6,-6.34521,-163.458,75.5473,175.373,-13882.3,-583.079,33.4608,-50.9392,121.061,8336.33,12634.5,3128.82,-15.4911,44.6355,-15.1138,4521.85,-11898.5,603.204,-24.2644,-70.2048,99.3833,13148.5,-470.626,-66.461,52.2582,1.2928,34.1624
3.4525,30328.7,2.4416,-8491.78,-128.655,58.134,-63.4025,3812.84,331.189,11804.8,12.3798,-156.209,50.2874,-23824.9,13357.4,-3147.96,-7.1723,-164.308,72.2655,202.308,-13928.1,-568.561,33.6159,-50.2826,121.509,8079.13,12538.4,3058.58,-11.2012,35.3261,-14.6306,4437.01,-11950.4,636.408,-24.3232,-70.3451,99.5962,13139.9,-443.178,-99.2256,52.0199,1.29995,34.5547
3.453,30215.0,-6.39011,-8573.08,-126.989,55.031,-63.8327,3801.19,336.004,11832.2,12.0899,-157.546,50.2421,-23541.2,13237.2,-3114.32,-7.99939,-165.157,68.9838,229.244,-13973.8,-554.043,33.7711,-49.626,121.957,7821.94,12442.3,2988.35,-6.91133,26.0168,-14.1474,4352.17,-12002.3,669.613,-24.382,-70.4853,99.8091,13131.3,-415.73,-131.99,51.7815,1.30711,34.9471
3.4535,30096.9,-37.3574,-8628.39,-124.926,51.864,-64.305,3791.1,339.332,11860.2,11.7655,-158.925,50.1131,-23273.0,13112.9,-3087.41,-8.93375,-165.618,65.604,257.298,-14016.9,-537.767,33.9442,-48.9894,122.443,7589.47,12359.1,2821.04,-3.47404,17.693,-13.4513,4280.87,-12062.7,683.344,-24.4606,-70.7728,99.9891,13123.4,-391.721,-161.093,51.2999,1.26531,35.2976
3.454,29970.1,-112.596,-8631.74,-122.07,48.5692,-64.8614,3784.16,339.685,11889.4,11.3719,-160.387,49.8166,-23035.5,12980.0,-3073.96,-10.0827,-165.298,62.0282,287.591,-14054.5,-517.978,34.1533,-48.3929,123.002,7406.45,12301.8,2459.61,-1.74194,11.3403,-12.3293,4236.63,-12140.0,658.129,-24.5791,-71.3546,100.103,13116.7,-374.587,-182.872,50.3319,1.12558,35.5644
3.4545,29843.4,-187.834,-8635.09,-119.213,45.2745,-65.4178,3777.23,340.037,11918.6,10.9783,-161.85,49.52,-22798.1,12847.1,-3060.52,-11.2316,-164.978,58.4524,317.884,-14092.2,-498.189,34.3624,-47.7965,123.561,7223.44,12244.6,2098.18,-0.00984684,4.98768,-11.2072,4192.38,-12217.3,632.914,-24.6976,-71.9363,100.218,13110.1,-357.454,-204.651,49.3638,0.985857,35.8313
3.455,29716.6,-263.073,-8638.44,-116.356,41.9797,-65.9742,3770.29,340.39,11947.8,10.5847,-163.312,49.2235,-22560.6,12714.3,-3047.07,-12.3805,-164.659,54.8765,348.177,-14129.9,-478.399,34.5716,-47.2,124.12,7040.42,12187.3,1736.75,1.72225,-1.36498,-10.0852,4148.14,-12294.5,607.7,-24.816,-72.5181,100.332,13103.4,-340.321,-226.43,48.3958,0.846131,36.0982
3.4555,29589.9,-338.311,-8641.79,-113.499,38.685,-66.5307,3763.35,340.743,11977.0,10.1912,-164.774,48.9269,-22323.1,12581.4,-3033.62,-13.5294,-164.339,51.3007,378.47,-14167.5,-458.61,34.7807,-46.6035,124.68,6857.4,12130.0,1375.32,3.45434,-7.71764,-8.96319,4103.9,-12371.8,582.485,-24.9345,-73.0999,100.446,13096.7,-323.187,-248.209,47.4277,0.706405,36.365
3.456,29463.1,-413.55,-8645.14,-110.642,35.3902,-67.0871,3756.41,341.095,12006.2,9.7976,-166.236,48.6304,-22085.7,12448.5,-3020.18,-14.6784,-164.02,47.7248,408.763,-14205.2,-438.82,34.9898,-46.0071,125.239,6674.39,12072.7,1013.88,5.18644,-14.0703,-7.84115,4059.65,-12449.1,557.27,-25.053,-73.6817,100.56,13090.0,-306.054,-269.988,46.4596,0.566679,36.6319
3.4565,29336.4,-488.788,-8648.5,-107.785,32.0955,-67.6435,3749.48,341.448,12035.4,9.40402,-167.698,48.3339,-21848.2,12315.7,-3006.73,-15.8273,-163.7,44.149,439.056,-14242.8,-419.031,35.1989,-45.4106,125.798,6491.37,12015.4,652.453,6.91853,-20.423,-6.71912,4015.41,-12526.3,532.056,-25.1714,-74.2634,100.675,13083.4,-288.92,-291.768,45.4916,0.426952,36.8988
3.457,29209.6,-564.027,-8651.84,-104.929,28.8007,-68.1999,3742.54,341.801,12064.6,9.01044,-169.16,48.0373,-21610.8,12182.8,-2993.28,-16.9762,-163.381,40.5731,469.348,-14280.5,-399.242,35.408,-44.8142,126.357,6308.35,11958.2,291.021,8.65063,-26.7756,-5.59709,3971.17,-12603.6,506.841,-25.2899,-74.8452,100.789,13076.7,-271.787,-313.547,44.5235,0.287226,37.1656
3.4575,29082.9,-639.266,-8655.2,-102.072,25.506,-68.7564,3735.6,342.153,12093.8,8.61687,-170.623,47.7408,-21373.3,12049.9,-2979.84,-18.1251,-163.061,36.9973,499.641,-14318.2,-379.452,35.6172,-44.2177,126.916,6125.34,11900.9,-70.4112,10.3827,-33.1283,-4.47506,3926.93,-12680.9,481.626,-25.4083,-75.427,100.903,13070.0,-254.654,-335.326,43.5555,0.1475,37.4325
3.458,28969.1,-720.497,-8650.65,-98.8911,22.2687,-69.357,3731.84,344.721,12115.4,8.17094,-172.142,47.4216,-21166.9,11906.0,-2973.68,-19.2778,-162.382,33.2985,509.001,-14366.4,-352.249,35.816,-43.6276,127.488,5953.06,11825.0,-354.814,12.4353,-38.8681,-3.45315,3876.88,-12759.9,449.702,-25.4218,-76.0465,100.956,13055.2,-239.8,-366.17,42.5279,0.00331182,37.8208
3.4585,28871.4,-809.22,-8636.24,-95.3056,19.1034,-70.0129,3732.06,350.057,12127.5,7.65959,-173.733,47.0742,-20999.4,11748.4,-2976.63,-20.4353,-161.253,29.446,492.193,-14427.8,-315.778,36.0019,-43.0454,128.075,5794.22,11725.8,-542.93,14.8886,-43.842,-2.5564,3819.59,-12841.1,409.39,-25.3039,-76.7133,100.933,13030.2,-227.795,-408.344,41.4258,-0.146453,38.3608
3.459,28773.8,-897.944,-8621.82,-91.7201,15.9381,-70.6689,3732.28,355.394,12139.5,7.14824,-175.324,46.7268,-20831.9,11590.7,-2979.59,-21.5927,-160.125,25.5936,475.386,-14489.2,-279.308,36.1877,-42.4632,128.662,5635.38,11626.6,-731.046,17.3418,-48.8159,-1.65964,3762.3,-12922.4,369.078,-25.186,-77.3801,100.909,13005.1,-215.791,-450.519,40.3238,-0.296219,38.9009
3.4595,28676.2,-986.667,-8607.41,-88.1347,12.7728,-71.3248,3732.49,360.73,12151.6,6.63688,-176.915,46.3793,-20664.4,11433.1,-2982.54,-22.7502,-158.996,21.7411,458.578,-14550.6,-242.837,36.3736,-41.8811,129.249,5476.53,11527.5,-919.162,19.7951,-53.7897,-0.762885,3705.01,-13003.6,328.767,-25.0681,-78.0468,100.886,12980.1,-203.786,-492.694,39.2217,-0.445984,39.4409
3.46,28578.6,-1075.39,-8592.99,-84.5492,9.60744,-71.9807,3732.71,366.067,12163.6,6.12553,-178.506,46.0319,-20496.9,11275.4,-2985.5,-23.9076,-157.867,17.8886,441.771,-14612.1,-206.366,36.5595,-41.2989,129.836,5317.69,11428.3,-1107.28,22.2483,-58.7636,0.13387,3647.72,-13084.8,288.455,-24.9503,-78.7136,100.862,12955.0,-191.782,-534.869,38.1197,-0.595749,39.981
3.4605,28481.0,-1164.11,-8578.58,-80.9637,6.44211,-72.6367,3732.93,371.404,12175.7,5.61417,-180.097,45.6845,-20329.4,11117.8,-2988.45,-25.0651,-156.739,14.0361,424.964,-14673.5,-169.895,36.7454,-40.7167,130.423,5158.85,11329.1,-1295.39,24.7016,-63.7375,1.03063,3590.43,-13166.0,248.143,-24.8324,-79.3803,100.839,12930.0,-179.777,-577.044,37.0176,-0.745514,40.521
3.461,28383.4,-1252.84,-8564.16,-77.3782,3.27678,-73.2926,3733.14,376.74,12187.7,5.10282,-181.688,45.3371,-20161.9,10960.1,-2991.41,-26.2225,-155.61,10.1837,408.156,-14734.9,-133.425,36.9313,-40.1345,131.01,5000.0,11230.0,-1483.51,27.1548,-68.7114,1.92738,3533.14,-13247.2,207.832,-24.7145,-80.0471,100.815,12904.9,-167.773,-619.219,35.9156,-0.89528,41.0611
3.4615,28285.8,-1341.56,-8549.75,-73.7927,0.111459,-73.9485,3733.36,382.077,12199.7,4.59147,-183.279,44.9897,-19994.3,10802.4,-2994.36,-27.38,-154.481,6.33119,391.349,-14796.3,-96.9539,37.1172,-39.5524,131.596,4841.16,11130.8,-1671.63,29.6081,-73.6852,2.82414,3475.85,-13328.5,167.52,-24.5966,-80.7139,100.792,12879.9,-155.768,-661.394,34.8136,-1.04504,41.6011
3.462,28188.2,-1430.28,-8535.33,-70.2073,-3.05387,-74.6044,3733.58,387.413,12211.8,4.08011,-184.87,44.6422,-19826.8,10644.8,-2997.31,-28.5374,-153.353,2.47872,374.541,-14857.7,-60.4832,37.3031,-38.9702,132.183,4682.31,11031.6,-1859.74,32.0613,-78.6591,3.72089,3418.55,-13409.7,127.208,-24.4787,-81.3806,100.768,12854.8,-143.764,-703.569,33.7115,-1.19481,42.1412
3.4625,28101.7,-1506.3,-8518.9,-66.4178,-6.03236,-75.3795,3740.98,383.052,12229.7,3.51348,-186.5,44.3305,-19695.9,10485.7,-3005.66,-29.4813,-151.977,-1.46359,356.78,-14916.0,-29.8638,37.5935,-38.424,132.789,4542.12,10998.9,-2018.37,34.3455,-82.6485,4.97923,3407.05,-13475.6,81.3307,-24.2538,-81.9973,100.72,12830.4,-144.109,-733.43,32.7373,-1.32767,42.6167
3.463,28024.1,-1572.15,-8500.86,-62.4652,-8.86139,-76.2498,3754.13,370.932,12252.4,2.90262,-188.162,44.0472,-19594.3,10325.5,-3018.31,-30.2543,-150.404,-5.47776,338.255,-14971.8,-3.92538,37.9674,-37.9065,133.409,4416.84,11019.5,-2153.42,36.4944,-85.8503,6.52682,3432.19,-13529.2,31.0,-23.9433,-82.5738,100.653,12806.6,-154.333,-753.441,31.8654,-1.44701,43.0407
3.4635,27946.5,-1638.0,-8482.82,-58.5126,-11.6904,-77.1201,3767.28,358.812,12275.1,2.29175,-189.824,43.7639,-19492.7,10165.2,-3030.96,-31.0273,-148.831,-9.49193,319.73,-15027.6,22.013,38.3413,-37.389,134.03,4291.56,11040.0,-2288.46,38.6434,-89.0521,8.07442,3457.32,-13582.8,-19.3307,-23.6328,-83.1503,100.587,12782.7,-164.557,-773.451,30.9935,-1.56635,43.4647
3.464,27868.9,-1703.85,-8464.77,-54.56,-14.5194,-77.9904,3780.43,346.692,12297.7,1.68089,-191.487,43.4807,-19391.0,10005.0,-3043.61,-31.8003,-147.258,-13.5061,301.205,-15083.4,47.9515,38.7152,-36.8715,134.65,4166.28,11060.6,-2423.51,40.7923,-92.254,9.62201,3482.46,-13636.4,-69.6613,-23.3222,-83.7268,100.52,12758.8,-174.781,-793.462,30.1216,-1.68569,43.8887
3.4645,27791.3,-1769.71,-8446.73,-50.6074,-17.3485,-78.8607,3793.58,334.572,12320.4,1.07003,-193.149,43.1974,-19289.4,9844.73,-3056.27,-32.5733,-145.684,-17.5203,282.681,-15139.2,73.8899,39.0891,-36.354,135.27,4041.0,11081.1,-2558.55,42.9412,-95.4558,11.1696,3507.59,-13690.0,-119.992,-23.0117,-84.3034,100.453,12735.0,-185.005,-813.473,29.2497,-1.80503,44.3127
3.465,27713.7,-1835.56,-8428.69,-46.6548,-20.1775,-79.7311,3806.73,322.452,12343.0,0.459169,-194.811,42.9142,-19187.7,9684.49,-3068.92,-33.3463,-144.111,-21.5344,264.156,-15195.0,99.8283,39.463,-35.8365,135.891,3915.72,11101.7,-2693.6,45.0902,-98.6576,12.7172,3532.73,-13743.7,-170.323,-22.7012,-84.8799,100.386,12711.1,-195.229,-833.483,28.3778,-1.92437,44.7367
3.4655,27636.1,-1901.41,-8410.64,-42.7022,-23.0065,-80.6014,3819.89,310.333,12365.7,-0.151692,-196.473,42.6309,-19086.1,9524.25,-3081.57,-34.1193,-142.538,-25.5486,245.631,-15250.8,125.767,39.8369,-35.319,136.511,3790.44,11122.2,-2828.64,47.2391,-101.859,14.2648,3557.86,-13797.3,-220.653,-22.3906,-85.4564,100.319,12687.3,-205.453,-853.494,27.5059,-2.04371,45.1608
3.466,27558.5,-1967.26,-8392.6,-38.7496,-25.8356,-81.4717,3833.04,298.213,12388.4,-0.762554,-198.135,42.3476,-18984.5,9364.01,-3094.22,-34.8923,-140.965,-29.5628,227.106,-15306.5,151.705,40.2108,-34.8015,137.132,3665.16,11142.7,-2963.68,49.388,-105.061,15.8124,3583.0,-13850.9,-270.984,-22.0801,-86.0329,100.252,12663.4,-215.677,-873.505,26.6339,-2.16304,45.5848
3.4665,27480.9,-2033.11,-8374.55,-34.797,-28.6646,-82.342,3846.19,286.093,12411.0,-1.37342,-199.798,42.0644,-18882.8,9203.77,-3106.88,-35.6652,-139.392,-33.577,208.581,-15362.3,177.644,40.5847,-34.284,137.752,3539.88,11163.3,-3098.73,51.537,-108.263,17.36,3608.13,-13904.5,-321.315,-21.7696,-86.6094,100.185,12639.5,-225.901,-893.515,25.762,-2.28238,46.0088
3.467,27374.6,-2090.43,-8298.82,-31.3017,-31.3065,-83.4347,3853.42,278.174,12443.7,-2.11821,-201.513,41.7097,-18797.2,9071.11,-3148.82,-36.096,-137.481,-37.559,211.844,-15411.1,198.68,40.9317,-33.9405,138.335,3424.1,11131.7,-3137.17,53.6006,-110.678,18.7871,3630.43,-13936.2,-366.626,-21.4454,-86.9809,100.002,12619.7,-248.613,-920.516,25.2648,-2.20264,46.3537
3.4675,27253.9,-2143.47,-8194.25,-28.0352,-33.8547,-84.6386,3857.69,272.355,12481.5,-2.92998,-203.254,41.3192,-18719.5,8952.25,-3205.42,-36.3557,-135.401,-41.525,226.001,-15456.3,217.265,41.2652,-33.6839,138.9,3313.07,11074.1,-3127.32,55.6215,-112.7,20.154,3651.32,-13957.0,-409.427,-21.1145,-87.2499,99.7622,12601.9,-277.568,-951.011,24.9548,-2.02336,46.659
3.468,27133.2,-2196.52,-8089.67,-24.7686,-36.403,-85.8425,3861.97,266.537,12519.2,-3.74174,-204.996,40.9288,-18641.9,8833.39,-3262.02,-36.6154,-133.321,-45.4911,240.157,-15501.5,235.85,41.5986,-33.4273,139.464,3202.04,11016.5,-3117.47,57.6425,-114.722,21.521,3672.2,-13977.8,-452.228,-20.7836,-87.5189,99.5219,12584.1,-306.523,-981.507,24.6449,-1.84408,46.9644
3.4685,27012.6,-2249.56,-7985.09,-21.5021,-38.9513,-87.0464,3866.24,260.718,12556.9,-4.55351,-206.738,40.5384,-18564.2,8714.53,-3318.62,-36.8751,-131.242,-49.4571,254.314,-15546.8,254.435,41.9321,-33.1707,140.029,3091.01,10958.9,-3107.61,59.6635,-116.744,22.8879,3693.08,-13998.5,-495.029,-20.4526,-87.7879,99.2817,12566.3,-335.478,-1012.0,24.3349,-1.6648,47.2698
3.469,26891.9,-2302.61,-7880.52,-18.2355,-41.4996,-88.2503,3870.52,254.9,12594.6,-5.36527,-208.479,40.148,-18486.6,8595.67,-3375.21,-37.1348,-129.162,-53.4231,268.47,-15592.0,273.02,42.2656,-32.9141,140.594,2979.98,10901.3,-3097.76,61.6844,-118.766,24.2548,3713.96,-14019.3,-537.83,-20.1217,-88.0568,99.0415,12548.6,-364.433,-1042.5,24.025,-1.48552,47.5752
3.4695,26771.2,-2355.65,-7775.94,-14.9689,-44.0479,-89.4541,3874.79,249.081,12632.3,-6.17704,-210.221,39.7575,-18408.9,8476.8,-3431.81,-37.3944,-127.082,-57.3891,282.627,-15637.2,291.604,42.5991,-32.6575,141.158,2868.95,10843.7,-3087.9,63.7054,-120.788,25.6217,3734.84,-14040.0,-580.631,-19.7908,-88.3258,98.8012,12530.8,-393.388,-1072.99,23.715,-1.30624,47.8806
3.47,26650.5,-2408.7,-7671.36,-11.7024,-46.5962,-90.658,3879.07,243.263,12670.1,-6.98881,-211.963,39.3671,-18331.3,8357.94,-3488.41,-37.6541,-125.003,-61.3551,296.783,-15682.5,310.189,42.9326,-32.4009,141.723,2757.93,10786.1,-3078.05,65.7263,-122.81,26.9886,3755.73,-14060.8,-623.432,-19.4599,-88.5948,98.561,12513.0,-422.343,-1103.49,23.4051,-1.12696,48.1859
3.4705,26529.8,-2461.74,-7566.78,-8.43581,-49.1445,-91.8619,3883.34,237.445,12707.8,-7.80057,-213.704,38.9767,-18253.6,8239.08,-3545.01,-37.9138,-122.923,-65.3212,310.94,-15727.7,328.774,43.2661,-32.1443,142.288,2646.9,10728.5,-3068.19,67.7473,-124.832,28.3555,3776.61,-14081.6,-666.234,-19.1289,-88.8638,98.3208,12495.2,-451.299,-1133.98,23.0952,-0.947676,48.4913
3.471,26409.2,-2514.79,-7462.21,-5.16924,-51.6928,-93.0658,3887.62,231.626,12745.5,-8.61234,-215.446,38.5862,-18175.9,8120.22,-3601.6,-38.1735,-120.844,-69.2872,325.096,-15772.9,347.359,43.5996,-31.8877,142.852,2535.87,10670.9,-3058.34,69.7683,-126.854,29.7224,3797.49,-14102.3,-709.035,-18.798,-89.1327,98.0806,12477.4,-480.254,-1164.48,22.7852,-0.768395,48.7967
3.4715,26271.7,-2549.65,-7376.67,-3.5294,-53.5975,-94.5752,3887.06,280.928,12756.3,-9.43084,-217.254,38.2241,-18087.5,8053.3,-3702.41,-38.0136,-118.265,-72.915,350.843,-15806.2,357.86,43.8467,-31.7752,143.46,2465.33,10570.1,-3081.27,70.9685,-127.605,30.6621,3873.54,-14117.3,-738.638,-18.5154,-89.1711,97.758,12457.5,-517.343,-1196.02,22.6084,-0.543616,49.1755
3.472,26129.5,-2579.32,-7296.58,-2.35433,-55.3184,-96.1719,3885.12,345.978,12759.4,-10.2513,-219.081,37.8701,-17995.9,8001.22,-3815.84,-37.7338,-115.545,-76.4462,379.902,-15836.1,366.051,44.0692,-31.7039,144.081,2406.36,10457.0,-3113.57,71.9342,-127.993,31.4796,3965.34,-14130.7,-764.47,-18.2466,-89.1436,97.4119,12437.0,-556.757,-1227.85,22.4695,-0.305838,49.5752
3.4725,25987.2,-2608.99,-7216.48,-1.17926,-57.0392,-97.7685,3883.18,411.028,12762.5,-11.0717,-220.908,37.516,-17904.4,7949.13,-3929.27,-37.4541,-112.825,-79.9774,408.961,-15865.9,374.242,44.2916,-31.6325,144.701,2347.39,10344.0,-3145.88,72.8999,-128.381,32.2972,4057.15,-14144.0,-790.303,-17.9778,-89.116,97.0658,12416.6,-596.171,-1259.69,22.3307,-0.0680606,49.975
3.473,25845.0,-2638.66,-7136.39,-0.00419707,-58.76,-99.3652,3881.24,476.078,12765.6,-11.8921,-222.735,37.1619,-17812.8,7897.05,-4042.7,-37.1743,-110.104,-83.5086,438.02,-15895.8,382.432,44.5141,-31.5612,145.322,2288.42,10230.9,-3178.18,73.8657,-128.769,33.1147,4148.95,-14157.4,-816.135,-17.709,-89.0885,96.7197,12396.1,-635.584,-1291.53,22.1919,0.169717,50.3747
3.4735,25702.8,-2668.33,-7056.3,1.17087,-60.4808,-100.962,3879.3,541.128,12768.7,-12.7125,-224.562,36.8079,-17721.2,7844.97,-4156.14,-36.8945,-107.384,-87.0397,467.079,-15925.7,390.623,44.7366,-31.4899,145.942,2229.44,10117.8,-3210.48,74.8314,-129.157,33.9323,4240.76,-14170.8,-841.967,-17.4402,-89.061,96.3736,12375.6,-674.998,-1323.36,22.053,0.407495,50.7745
3.474,25560.5,-2698.01,-6976.2,2.34594,-62.2016,-102.559,3877.36,606.179,12771.8,-13.533,-226.389,36.4538,-17629.7,7792.89,-4269.57,-36.6148,-104.663,-90.5709,496.138,-15955.5,398.814,44.9591,-31.4185,146.563,2170.47,10004.7,-3242.78,75.7971,-129.545,34.7498,4332.56,-14184.1,-867.8,-17.1714,-89.0334,96.0275,12355.1,-714.412,-1355.2,21.9142,0.645273,51.1742
3.4745,25418.3,-2727.68,-6896.11,3.521,-63.9224,-104.155,3875.42,671.229,12774.9,-14.3534,-228.216,36.0998,-17538.1,7740.81,-4383.0,-36.335,-101.943,-94.1021,525.197,-15985.4,407.005,45.1815,-31.3472,147.183,2111.5,9891.61,-3275.09,76.7628,-129.933,35.5674,4424.37,-14197.5,-893.632,-16.9026,-89.0059,95.6814,12334.7,-753.825,-1387.04,21.7754,0.883051,51.574
3.475,25276.0,-2757.35,-6816.01,4.69607,-65.6433,-105.752,3873.49,736.279,12778.0,-15.1738,-230.043,35.7457,-17446.6,7688.73,-4496.43,-36.0553,-99.2223,-97.6333,554.256,-16015.2,415.195,45.404,-31.2758,147.804,2052.53,9778.53,-3307.39,77.7286,-130.321,36.3849,4516.17,-14210.8,-919.465,-16.6338,-88.9784,95.3353,12314.2,-793.239,-1418.87,21.6365,1.12083,51.9738
3.4755,25133.8,-2787.02,-6735.92,5.87114,-67.3641,-107.349,3871.55,801.329,12781.0,-15.9943,-231.87,35.3917,-17355.0,7636.65,-4609.87,-35.7755,-96.5018,-101.165,583.314,-16045.1,423.386,45.6265,-31.2045,148.424,1993.56,9665.44,-3339.69,78.6943,-130.709,37.2025,4607.98,-14224.2,-945.297,-16.365,-88.9508,94.9892,12293.7,-832.653,-1450.71,21.4977,1.35861,52.3735
3.476,25009.7,-2692.97,-7031.02,-6.773,-64.8215,-110.416,3870.02,868.078,12782.7,-16.8772,-233.707,35.1335,-17209.2,7674.79,-4740.48,-35.1929,-93.268,-104.057,622.434,-16051.5,384.087,46.0259,-31.4191,148.999,1990.35,9549.58,-3439.32,78.9511,-129.833,37.3429,4714.52,-14214.0,-939.206,-16.1267,-88.8494,94.6097,12268.4,-872.332,-1498.9,21.5976,1.73905,52.5883
3.4765,24887.9,-2583.46,-7373.02,-21.1445,-61.746,-113.668,3868.54,935.038,12784.1,-17.768,-235.546,34.8874,-17056.6,7724.22,-4873.25,-34.5725,-89.97,-106.87,662.812,-16055.0,338.85,46.4474,-31.6695,149.568,1994.1,9433.38,-3547.37,79.1193,-128.798,37.3987,4822.9,-14200.8,-929.125,-15.8922,-88.7387,94.226,12242.4,-912.045,-1549.14,21.7274,2.13733,52.78
3.477,24766.1,-2473.94,-7715.01,-35.5161,-58.6705,-116.92,3867.07,1002.0,12785.6,-18.6588,-237.385,34.6412,-16903.9,7773.65,-5006.02,-33.9521,-86.672,-109.684,703.189,-16058.5,293.614,46.869,-31.9198,150.137,1997.86,9317.18,-3655.42,79.2875,-127.764,37.4545,4931.29,-14187.7,-919.043,-15.6577,-88.6281,93.8423,12216.5,-951.757,-1599.37,21.8571,2.53561,52.9717
3.4775,24644.3,-2364.43,-8057.01,-49.8876,-55.5951,-120.171,3865.59,1068.96,12787.1,-19.5496,-239.224,34.395,-16751.3,7823.07,-5138.78,-33.3317,-83.3741,-112.497,743.566,-16061.9,248.378,47.2906,-32.1702,150.706,2001.61,9200.97,-3763.47,79.4557,-126.729,37.5103,5039.67,-14174.6,-908.962,-15.4232,-88.5174,93.4587,12190.6,-991.47,-1649.6,21.9868,2.93389,53.1634
3.478,24522.5,-2254.92,-8399.01,-64.2592,-52.5196,-123.423,3864.12,1135.92,12788.5,-20.4404,-241.062,34.1489,-16598.7,7872.5,-5271.55,-32.7113,-80.0761,-115.31,783.944,-16065.4,203.142,47.7121,-32.4206,151.275,2005.37,9084.77,-3871.52,79.6239,-125.695,37.5661,5148.05,-14161.4,-898.88,-15.1887,-88.4067,93.075,12164.6,-1031.18,-1699.84,22.1166,3.33218,53.3551
3.4785,24400.7,-2145.41,-8741.01,-78.6307,-49.4441,-126.675,3862.64,1202.88,12790.0,-21.3312,-242.901,33.9027,-16446.1,7921.92,-5404.31,-32.0909,-76.7781,-118.123,824.321,-16068.9,157.906,48.1337,-32.671,151.844,2009.12,8968.56,-3979.57,79.792,-124.66,37.6219,5256.44,-14148.3,-888.799,-14.9542,-88.296,92.6913,12138.7,-1070.9,-1750.07,22.2463,3.73046,53.5468
3.479,24278.9,-2035.89,-9083.0,-93.0022,-46.3686,-129.926,3861.16,1269.84,12791.5,-22.222,-244.74,33.6566,-16293.5,7971.35,-5537.08,-31.4705,-73.4801,-120.936,864.699,-16072.3,112.67,48.5552,-32.9213,152.413,2012.88,8852.36,-4087.62,79.9602,-123.626,37.6778,5364.82,-14135.2,-878.717,-14.7197,-88.1854,92.3076,12112.7,-1110.61,-1800.31,22.3761,4.12874,53.7385
3.4795,24157.1,-1926.38,-9425.0,-107.374,-43.2931,-133.178,3859.69,1336.8,12792.9,-23.1127,-246.579,33.4104,-16140.9,8020.77,-5669.85,-30.8501,-70.1821,-123.749,905.076,-16075.8,67.4342,48.9768,-33.1717,152.981,2016.64,8736.15,-4195.67,80.1284,-122.591,37.7336,5473.2,-14122.0,-868.636,-14.4852,-88.0747,91.9239,12086.8,-1150.32,-1850.54,22.5058,4.52702,53.9302
3.48,24035.3,-1816.87,-9767.0,-121.745,-40.2176,-136.43,3858.21,1403.76,12794.4,-24.0035,-248.418,33.1643,-15988.3,8070.2,-5802.61,-30.2297,-66.8841,-126.562,945.453,-16079.3,22.1982,49.3984,-33.4221,153.55,2020.39,8619.95,-4303.72,80.2966,-121.557,37.7894,5581.59,-14108.9,-858.555,-14.2507,-87.964,91.5402,12060.8,-1190.03,-1900.78,22.6356,4.9253,54.1219
3.4805,24172.5,-1155.23,-10026.1,-129.096,-48.6494,-150.685,3860.64,1443.47,12790.5,-24.9027,-250.355,32.9475,-15549.7,8214.32,-6026.8,-29.7018,-61.3632,-128.566,944.533,-16060.3,-21.7134,49.6719,-33.612,154.252,2004.36,8319.58,-4266.53,79.7991,-119.861,36.4137,5693.79,-14085.7,-833.986,-13.955,-87.7643,91.0865,12031.6,-1199.71,-1930.69,22.5201,5.37518,54.2912
3.481,24309.6,-493.598,-10285.2,-136.446,-57.0811,-164.939,3863.07,1483.17,12786.7,-25.8019,-252.293,32.7308,-15111.1,8358.45,-6250.99,-29.1739,-55.8424,-130.57,943.613,-16041.4,-65.6249,49.9454,-33.8019,154.953,1988.32,8019.21,-4229.34,79.3016,-118.165,35.038,5806.0,-14062.5,-809.418,-13.6593,-87.5646,90.6328,12002.4,-1209.38,-1960.61,22.4046,5.82506,54.4606
3.4815,24446.8,168.037,-10544.3,-143.797,-65.5129,-179.194,3865.5,1522.87,12782.8,-26.7011,-254.231,32.5141,-14672.6,8502.57,-6475.18,-28.646,-50.3215,-132.574,942.693,-16022.4,-109.536,50.2189,-33.9918,155.654,1972.29,7718.84,-4192.15,78.8041,-116.469,33.6623,5918.2,-14039.3,-784.849,-13.3637,-87.3649,90.1791,11973.2,-1219.05,-1990.52,22.2892,6.27494,54.63
3.482,24584.0,829.673,-10803.4,-151.147,-73.9446,-193.449,3867.92,1562.58,12779.0,-27.6003,-256.168,32.2973,-14234.0,8646.7,-6699.37,-28.1181,-44.8006,-134.579,941.773,-16003.5,-153.448,50.4925,-34.1817,156.355,1956.25,7418.47,-4154.96,78.3066,-114.773,32.2866,6030.41,-14016.1,-760.281,-13.068,-87.1652,89.7254,11944.0,-1228.73,-2020.43,22.1737,6.72482,54.7994
3.4825,24721.1,1491.31,-11062.5,-158.498,-82.3763,-207.703,3870.35,1602.28,12775.2,-28.4995,-258.106,32.0806,-13795.4,8790.82,-6923.56,-27.5902,-39.2798,-136.583,940.853,-15984.5,-197.36,50.766,-34.3717,157.056,1940.22,7118.1,-4117.77,77.8091,-113.077,30.9109,6142.61,-13992.9,-735.713,-12.7723,-86.9655,89.2717,11914.8,-1238.4,-2050.35,22.0583,7.1747,54.9687
3.483,24858.3,2152.94,-11321.6,-165.848,-90.8081,-221.958,3872.78,1641.99,12771.3,-29.3987,-260.044,31.8639,-13356.9,8934.95,-7147.75,-27.0623,-33.7589,-138.587,939.933,-15965.6,-241.271,51.0395,-34.5616,157.757,1924.19,6817.73,-4080.58,77.3116,-111.382,29.5352,6254.81,-13969.7,-711.144,-12.4766,-86.7658,88.8179,11885.6,-1248.07,-2080.26,21.9428,7.62458,55.1381
3.4835,24995.4,2814.58,-11580.7,-173.198,-99.2398,-236.213,3875.21,1681.69,12767.5,-30.2978,-261.981,31.6471,-12918.3,9079.07,-7371.94,-26.5344,-28.238,-140.591,939.013,-15946.6,-285.183,51.313,-34.7515,158.458,1908.15,6517.36,-4043.39,76.8141,-109.686,28.1595,6367.02,-13946.5,-686.576,-12.1809,-86.5661,88.3642,11856.4,-1257.74,-2110.17,21.8274,8.07445,55.3075
3.484,25132.6,3476.21,-11839.7,-180.549,-107.672,-250.468,3877.63,1721.39,12763.6,-31.197,-263.919,31.4304,-12479.7,9223.19,-7596.13,-26.0065,-22.7172,-142.595,938.093,-15927.7,-329.094,51.5866,-34.9414,159.159,1892.12,6217.0,-4006.2,76.3166,-107.99,26.7838,6479.23,-13923.3,-662.007,-11.8852,-86.3663,87.9105,11827.2,-1267.42,-2140.09,21.7119,8.52433,55.4768
3.4845,24989.1,4192.53,-11866.3,-185.715,-119.512,-263.919,3881.11,1766.32,12764.5,-32.099,-265.885,31.2352,-11988.1,9368.29,-7851.98,-25.5714,-17.0281,-144.526,940.803,-15909.8,-376.839,51.8532,-35.1322,159.875,1885.04,5947.55,-3978.41,75.5752,-106.359,25.3261,6589.58,-13901.1,-639.8,-11.5915,-86.1601,87.4433,11800.8,-1279.5,-2152.67,21.3746,8.95684,55.6322
3.485,22600.1,5346.26,-10032.9,-173.407,-158.624,-270.948,3892.97,1853.04,12803.0,-33.0228,-268.075,31.2121,-11071.6,9521.12,-8361.02,-25.8786,-9.99386,-145.873,972.55,-15900.7,-455.251,52.0645,-35.3302,160.704,1949.64,5925.51,-4025.79,72.8827,-105.248,23.2128,6685.1,-13887.1,-636.482,-11.3135,-85.9014,86.868,11796.4,-1310.89,-2026.57,19.2625,9.2504,55.6755
3.4855,20211.0,6499.99,-8199.41,-161.099,-197.736,-277.976,3904.83,1939.76,12841.6,-33.9466,-270.266,31.189,-10155.1,9673.95,-8870.08,-26.1859,-2.95958,-147.22,1004.3,-15891.6,-533.663,52.2758,-35.5282,161.533,2014.23,5903.46,-4073.17,70.1903,-104.138,21.0995,6780.62,-13873.2,-633.163,-11.0354,-85.6428,86.2928,11792.0,-1342.27,-1900.48,17.1503,9.54395,55.7188
3.486,17822.0,7653.72,-6365.95,-148.79,-236.848,-285.005,3916.68,2026.48,12880.1,-34.8704,-272.456,31.166,-9238.57,9826.78,-9379.13,-26.4931,4.07469,-148.567,1036.04,-15882.5,-612.075,52.4871,-35.7262,162.363,2078.82,5881.42,-4120.55,67.4978,-103.027,18.9863,6876.14,-13859.3,-629.845,-10.7574,-85.3841,85.7175,11787.6,-1373.65,-1774.39,15.0382,9.83751,55.7621
3.4865,15433.0,8807.45,-4532.49,-136.482,-275.96,-292.033,3928.54,2113.2,12918.6,-35.7942,-274.647,31.1429,-8322.07,9979.61,-9888.17,-26.8004,11.109,-149.914,1067.79,-15873.4,-690.487,52.6984,-35.9242,163.192,2143.42,5859.37,-4167.92,64.8053,-101.917,16.873,6971.66,-13845.3,-626.526,-10.4794,-85.1255,85.1423,11783.2,-1405.04,-1648.3,12.9261,10.1311,55.8054
3.487,13044.0,9961.18,-2699.03,-124.174,-315.072,-299.062,3940.4,2199.92,12957.2,-36.718,-276.837,31.1198,-7405.57,10132.4,-10397.2,-27.1076,18.1432,-151.261,1099.54,-15864.2,-768.899,52.9097,-36.1222,164.022,2208.01,5837.33,-4215.3,62.1128,-100.806,14.7597,7067.18,-13831.4,-623.208,-10.2014,-84.8668,84.567,11778.9,-1436.42,-1522.21,10.8139,10.4246,55.8487
3.4875,10655.0,11114.9,-865.572,-111.865,-354.184,-306.09,3952.26,2286.64,12995.7,-37.6418,-279.028,31.0967,-6489.08,10285.3,-10906.3,-27.4149,25.1775,-152.608,1131.28,-15855.1,-847.311,53.121,-36.3202,164.851,2272.61,5815.28,-4262.68,59.4204,-99.6956,12.6464,7162.7,-13817.4,-619.89,-9.92334,-84.6082,83.9917,11774.5,-1467.81,-1396.12,8.7018,10.7182,55.8919
3.488,8265.96,12268.6,967.889,-99.5571,-393.295,-313.119,3964.12,2373.36,13034.2,-38.5657,-281.219,31.0737,-5572.58,10438.1,-11415.3,-27.7221,32.2118,-153.955,1163.03,-15846.0,-925.723,53.3323,-36.5182,165.68,2337.2,5793.24,-4310.06,56.7279,-98.5851,10.5331,7258.23,-13803.5,-616.571,-9.64531,-84.3495,83.4165,11770.1,-1499.19,-1270.02,6.58966,11.0117,55.9352
3.4885,5876.95,13422.4,2801.35,-87.2489,-432.407,-320.147,3975.97,2460.08,13072.8,-39.4895,-283.409,31.0506,-4656.08,10590.9,-11924.4,-28.0293,39.2461,-155.302,1194.78,-15836.9,-1004.13,53.5436,-36.7162,166.51,2401.79,5771.19,-4357.44,54.0354,-97.4745,8.41987,7353.75,-13789.6,-613.253,-9.36729,-84.0909,82.8412,11765.7,-1530.57,-1143.93,4.47753,11.3053,55.9785
3.489,3124.68,13449.0,4611.61,-73.4506,-468.942,-328.365,3986.2,2554.72,13139.3,-40.4854,-285.704,31.0476,-3741.97,10747.8,-12246.5,-28.0225,44.2835,-156.793,1230.15,-15830.4,-1073.05,53.7645,-36.8291,167.359,2465.38,5746.33,-4333.32,51.8282,-97.0487,6.07641,7447.32,-13772.2,-626.001,-9.17003,-83.8984,82.2828,11774.8,-1547.84,-939.566,1.74054,11.6922,56.006
3.4895,-898.991,9530.82,6340.69,-54.4373,-496.455,-340.742,3990.7,2677.11,13303.8,-41.7335,-288.367,31.115,-2836.2,10918.7,-11914.5,-26.9163,42.3322,-158.792,1278.22,-15832.9,-1108.75,54.0193,-36.644,168.281,2525.42,5711.6,-4058.97,51.3197,-99.0195,2.92736,7534.09,-13742.9,-694.986,-9.25544,-83.9373,81.7835,11831.1,-1515.7,-461.237,-3.18341,12.4062,55.9783
3.49,-4922.66,5612.63,8069.77,-35.424,-523.968,-353.12,3995.2,2799.49,13468.3,-42.9817,-291.029,31.1824,-1930.44,11089.5,-11582.5,-25.8101,40.3808,-160.79,1326.28,-15835.5,-1144.44,54.2741,-36.4588,169.203,2585.46,5676.87,-3784.61,50.8111,-100.99,-0.221684,7620.86,-13713.7,-763.97,-9.34086,-83.9763,81.2841,11887.4,-1483.55,17.0913,-8.10736,13.1201,55.9506
3.4905,-8946.33,1694.45,9798.84,-16.4108,-551.481,-365.498,3999.7,2921.88,13632.7,-44.2298,-293.691,31.2498,-1024.67,11260.4,-11250.5,-24.7039,38.4294,-162.788,1374.35,-15838.1,-1180.13,54.5289,-36.2737,170.125,2645.51,5642.14,-3510.26,50.3026,-102.961,-3.37073,7707.62,-13684.4,-832.954,-9.42628,-84.0153,80.7847,11943.8,-1451.41,495.42,-13.0313,13.8341,55.9229
3.491,-12970.0,-2223.74,11527.9,2.60251,-578.994,-377.875,4004.2,3044.26,13797.2,-45.478,-296.354,31.3172,-118.909,11431.3,-10918.5,-23.5977,36.4781,-164.787,1422.41,-15840.6,-1215.82,54.7837,-36.0885,171.046,2705.55,5607.41,-3235.91,49.7941,-104.932,-6.51978,7794.39,-13655.1,-901.938,-9.51169,-84.0543,80.2854,12000.1,-1419.27,973.748,-17.9553,14.548,55.8952
3.4915,-16993.7,-6141.93,13257.0,21.6158,-606.508,-390.253,4008.71,3166.65,13961.7,-46.7261,-299.016,31.3846,786.856,11602.1,-10586.5,-22.4915,34.5267,-166.785,1470.48,-15843.2,-1251.51,55.0384,-35.9034,171.968,2765.6,5572.67,-2961.55,49.2855,-106.903,-9.66883,7881.15,-13625.9,-970.922,-9.59711,-84.0932,79.786,12056.4,-1387.12,1452.08,-22.8792,15.2619,55.8675
3.492,-21017.3,-10060.1,14986.1,40.6291,-634.021,-402.631,4013.21,3289.04,14126.2,-47.9743,-301.678,31.452,1692.62,11773.0,-10254.5,-21.3853,32.5753,-168.783,1518.54,-15845.7,-1287.2,55.2932,-35.7183,172.89,2825.64,5537.94,-2687.2,48.777,-108.873,-12.8179,7967.92,-13596.6,-1039.91,-9.68253,-84.1322,79.2867,12112.7,-1354.98,1930.4,-27.8032,15.9759,55.8398
3.4925,-25041.0,-13978.3,16715.1,59.6423,-661.534,-415.008,4017.71,3411.42,14290.7,-49.2224,-304.341,31.5194,2598.38,11943.9,-9922.51,-20.2791,30.6239,-170.782,1566.61,-15848.3,-1322.89,55.548,-35.5331,173.812,2885.69,5503.21,-2412.85,48.2684,-110.844,-15.9669,8054.69,-13567.3,-1108.89,-9.76794,-84.1712,78.7873,12169.0,-1322.84,2408.73,-32.7271,16.6898,55.8121
3.493,-29064.7,-17896.5,18444.2,78.6556,-689.047,-427.386,4022.21,3533.81,14455.2,-50.4706,-307.003,31.5868,3504.15,12114.8,-9590.5,-19.1729,28.6726,-172.78,1614.67,-15850.8,-1358.59,55.8028,-35.348,174.733,2945.73,5468.48,-2138.49,47.7599,-112.815,-19.116,8141.45,-13538.1,-1177.87,-9.85336,-84.2101,78.288,12225.4,-1290.7,2887.06,-37.6511,17.4037,55.7844
3.4935,-30490.7,-21013.2,18527.9,93.3465,-705.082,-428.936,4027.96,3658.08,14571.7,-51.9803,-309.727,31.5746,4313.95,12419.2,-8905.94,-18.9644,23.9282,-176.458,1687.45,-15884.4,-1372.54,56.1239,-35.0035,175.716,3095.03,5617.68,-1982.0,47.9049,-113.517,-22.6906,8228.9,-13517.0,-1279.7,-10.1971,-84.2396,77.8426,12303.1,-1189.46,3393.65,-42.0165,18.2836,56.1082
3.494,-26721.5,-22527.0,15320.9,99.3928,-698.161,-408.832,4036.21,3786.14,14592.1,-54.0133,-312.573,31.403,4931.81,12990.9,-7516.24,-20.5512,13.5979,-183.496,1809.66,-15979.9,-1343.0,56.5778,-34.3401,176.82,3422.83,6134.75,-2061.22,49.3569,-111.681,-27.1165,8317.72,-13512.4,-1447.21,-11.0576,-84.2501,77.5053,12423.8,-950.056,3956.75,-45.2647,19.4955,57.135
3.4945,-22952.3,-24040.8,12113.9,105.439,-691.239,-388.727,4044.47,3914.19,14612.5,-56.0463,-315.42,31.2314,5549.68,13562.6,-6126.54,-22.138,3.26763,-190.534,1931.86,-16075.4,-1313.47,57.0316,-33.6768,177.924,3750.63,6651.83,-2140.44,50.8089,-109.845,-31.5424,8406.53,-13507.7,-1614.73,-11.9181,-84.2606,77.168,12544.5,-710.648,4519.84,-48.513,20.7074,58.1618
3.495,-19183.1,-25554.6,8906.85,111.485,-684.318,-368.622,4052.72,4042.24,14632.9,-58.0793,-318.267,31.0598,6167.55,14134.3,-4736.85,-23.7249,-7.06266,-197.573,2054.07,-16170.9,-1283.94,57.4854,-33.0134,179.028,4078.43,7168.9,-2219.66,52.261,-108.009,-35.9683,8495.34,-13503.1,-1782.24,-12.7786,-84.2711,76.8307,12665.2,-471.24,5082.94,-51.7613,21.9193,59.1886
3.4955,-15413.9,-27068.4,5699.83,117.532,-677.396,-348.517,4060.97,4170.29,14653.3,-60.1123,-321.113,30.8882,6785.42,14706.0,-3347.15,-25.3117,-17.393,-204.611,2176.27,-16266.4,-1254.4,57.9392,-32.3501,180.132,4406.23,7685.97,-2298.89,53.713,-106.173,-40.3942,8584.16,-13498.5,-1949.75,-13.639,-84.2816,76.4934,12785.9,-231.832,5646.04,-55.0095,23.1312,60.2154
3.496,-11644.7,-28582.1,2492.8,123.578,-670.475,-328.413,4069.22,4298.35,14673.7,-62.1453,-323.96,30.7166,7403.28,15277.7,-1957.46,-26.8985,-27.7233,-211.649,2298.48,-16362.0,-1224.87,58.393,-31.6867,181.236,4734.03,8203.04,-2378.11,55.165,-104.338,-44.8201,8672.97,-13493.8,-2117.26,-14.4995,-84.2921,76.156,12906.6,7.57574,6209.14,-58.2578,24.3431,61.2422
3.4965,-7875.47,-30095.9,-714.221,129.624,-663.553,-308.308,4077.47,4426.4,14694.1,-64.1783,-326.807,30.545,8021.15,15849.4,-567.763,-28.4853,-38.0536,-218.687,2420.68,-16457.5,-1195.34,58.8468,-31.0234,182.34,5061.83,8720.11,-2457.33,56.6171,-102.502,-49.246,8761.78,-13489.2,-2284.78,-15.36,-84.3026,75.8187,13027.3,246.984,6772.24,-61.5061,25.555,62.269
