Time,RFoot_accel.x,RFoot_accel.y,RFoot_accel.z,RFoot_gyro.x,RFoot_gyro.y,RFoot_gyro.z,LFoot_accel.x,LFoot_accel.y,LFoot_accel.z,LFoot_gyro.x,LFoot_gyro.y,LFoot_gyro.z,RShank_accel.x,RShank_accel.y,RShank_accel.z,RShank_gyro.x,RShank_gyro.y,RShank_gyro.z,LShank_accel.x,LShank_accel.y,LShank_accel.z,LShank_gyro.x,LShank_gyro.y,LShank_gyro.z,RThigh_accel.x,RThigh_accel.y,RThigh_accel.z,RThigh_gyro.x,RThigh_gyro.y,RThigh_gyro.z,LThigh_accel.x,LThigh_accel.y,LThigh_accel.z,LThigh_gyro.x,LThigh_gyro.y,LThigh_gyro.z,Pelvis_accel.x,Pelvis_accel.y,Pelvis_accel.z,Pelvis_gyro.x,Pelvis_gyro.y,Pelvis_gyro.z
3.79,4702.42,-3301.34,8111.91,-53.2329,-16.2535,-14.9309,4123.44,2214.08,7776.72,38.5168,353.112,-145.411,224.813,10233.0,-2727.99,10.2351,-73.5678,9.30893,1236.82,-6742.93,-1978.61,-38.1146,88.6612,-292.652,-96.1264,10338.4,-3152.93,-3.81388,-120.777,-113.792,-4669.57,-7448.08,-4886.78,0.504496,147.365,-188.094,5332.21,316.808,2063.27,-119.604,22.8092,-86.2353
3.7905,4696.06,-3313.82,8110.97,-53.0393,-16.1994,-14.9706,4179.14,2224.02,7776.56,38.5383,354.242,-145.713,238.542,10222.6,-2731.23,10.0402,-73.7582,9.21351,1208.74,-6789.79,-1997.68,-38.1647,89.7993,-293.666,-38.4325,10326.6,-3159.48,-4.00913,-120.7,-113.817,-4671.14,-7421.3,-4864.08,0.975055,148.38,-187.772,5336.55,298.82,2055.86,-119.091,22.4634,-85.5283
3.791,4689.69,-3326.31,8110.04,-52.8458,-16.1453,-15.0104,4234.84,2233.96,7776.4,38.5598,355.371,-146.014,252.272,10212.2,-2734.47,9.8453,-73.9486,9.11808,1180.67,-6836.65,-2016.75,-38.2149,90.9373,-294.679,19.2614,10314.8,-3166.02,-4.20439,-120.623,-113.842,-4672.7,-7394.53,-4841.38,1.44561,149.395,-187.449,5340.88,280.833,2048.44,-118.578,22.1177,-84.8213
3.7915,4682.25,-3336.45,8104.03,-52.686,-16.1645,-15.0639,4235.67,2236.41,7790.17,38.76,356.21,-146.086,257.291,10214.1,-2751.61,9.69824,-74.1589,9.09734,1160.09,-6882.52,-2036.43,-38.3313,91.9542,-295.734,60.9791,10293.4,-3174.27,-4.36643,-120.521,-113.885,-4689.2,-7356.04,-4812.26,1.93929,149.787,-187.127,5334.1,266.949,2039.59,-118.228,21.913,-84.058
3.792,4674.49,-3345.92,8096.57,-52.5358,-16.2045,-15.1214,4220.82,2236.72,7807.93,39.0113,356.964,-146.093,259.821,10219.5,-2772.72,9.56485,-74.375,9.09794,1141.65,-6928.11,-2056.28,-38.4667,92.9364,-296.8,98.1321,10269.2,-3183.0,-4.51897,-120.41,-113.933,-4709.96,-7314.19,-4781.3,2.43956,150.001,-186.804,5324.15,254.237,2030.33,-117.925,21.7485,-83.2787
3.7925,4666.74,-3355.39,8089.11,-52.3857,-16.2446,-15.1789,4205.98,2237.03,7825.68,39.2626,357.719,-146.099,262.351,10225.0,-2793.84,9.43147,-74.591,9.09853,1123.22,-6973.7,-2076.13,-38.6021,93.9186,-297.866,135.285,10244.9,-3191.74,-4.67151,-120.3,-113.981,-4730.72,-7272.34,-4750.33,2.93984,150.216,-186.481,5314.2,241.525,2021.06,-117.621,21.5841,-82.4993
3.793,4658.98,-3364.86,8081.65,-52.2355,-16.2847,-15.2364,4191.14,2237.34,7843.43,39.5139,358.474,-146.105,264.882,10230.4,-2814.95,9.29808,-74.807,9.09912,1104.79,-7019.3,-2095.99,-38.7375,94.9008,-298.932,172.438,10220.7,-3200.47,-4.82406,-120.19,-114.028,-4751.48,-7230.5,-4719.37,3.44011,150.43,-186.158,5304.25,228.813,2011.8,-117.318,21.4196,-81.72
3.7935,4651.23,-3374.34,8074.19,-52.0854,-16.3247,-15.2939,4176.3,2237.65,7861.18,39.7651,359.229,-146.111,267.412,10235.8,-2836.07,9.16469,-75.023,9.09972,1086.35,-7064.89,-2115.84,-38.8729,95.883,-299.998,209.591,10196.5,-3209.2,-4.9766,-120.08,-114.076,-4772.25,-7188.65,-4688.41,3.94039,150.644,-185.835,5294.3,216.101,2002.54,-117.014,21.2552,-80.9406
3.794,4643.47,-3383.81,8066.74,-51.9352,-16.3648,-15.3514,4161.45,2237.96,7878.93,40.0164,359.984,-146.118,269.942,10241.3,-2857.18,9.0313,-75.239,9.10032,1067.92,-7110.48,-2135.69,-39.0082,96.8652,-301.064,246.744,10172.3,-3217.94,-5.12915,-119.97,-114.124,-4793.01,-7146.81,-4657.44,4.44066,150.858,-185.512,5284.34,203.39,1993.28,-116.711,21.0908,-80.1612
3.7945,4635.72,-3393.28,8059.28,-51.7851,-16.4049,-15.409,4146.61,2238.27,7896.69,40.2677,360.739,-146.124,272.473,10246.7,-2878.3,8.89792,-75.4551,9.10091,1049.49,-7156.07,-2155.54,-39.1436,97.8474,-302.13,283.897,10148.1,-3226.67,-5.28169,-119.86,-114.172,-4813.77,-7104.96,-4626.48,4.94094,151.073,-185.189,5274.39,190.678,1984.01,-116.408,20.9263,-79.3819
3.795,4627.96,-3402.75,8051.82,-51.6349,-16.4449,-15.4665,4131.77,2238.58,7914.44,40.519,361.494,-146.13,275.003,10252.1,-2899.41,8.76453,-75.6711,9.10151,1031.05,-7201.66,-2175.39,-39.279,98.8296,-303.196,321.05,10123.9,-3235.41,-5.43423,-119.749,-114.22,-4834.53,-7063.12,-4595.52,5.44121,151.287,-184.866,5264.44,177.966,1974.75,-116.104,20.7619,-78.6025
3.7955,4620.21,-3412.22,8044.36,-51.4848,-16.485,-15.524,4116.92,2238.9,7932.19,40.7702,362.248,-146.137,277.533,10257.6,-2920.53,8.63114,-75.8871,9.1021,1012.62,-7247.25,-2195.24,-39.4144,99.8119,-304.262,358.203,10099.7,-3244.14,-5.58678,-119.639,-114.268,-4855.29,-7021.27,-4564.56,5.94149,151.501,-184.543,5254.49,165.254,1965.49,-115.801,20.5975,-77.8232
3.796,4604.22,-3408.55,8041.35,-51.3927,-16.5247,-15.578,4085.56,2215.69,7932.09,41.1973,362.945,-146.077,282.996,10240.5,-2933.22,8.37458,-76.0534,9.05489,998.436,-7279.48,-2193.89,-39.5147,100.549,-305.271,382.615,10070.5,-3238.58,-5.67473,-119.481,-114.32,-4889.62,-7010.68,-4546.22,6.8334,151.459,-184.486,5220.42,137.297,1952.6,-115.581,20.4281,-77.0879
3.7965,4587.21,-3403.24,8038.9,-51.3079,-16.5643,-15.6317,4052.12,2189.54,7929.75,41.6463,363.634,-146.009,288.825,10220.5,-2944.85,8.10262,-76.2135,9.00171,984.784,-7310.04,-2189.88,-39.6107,101.256,-306.274,405.434,10040.6,-3231.24,-5.75461,-119.317,-114.372,-4925.65,-7003.99,-4529.47,7.77426,151.386,-184.462,5183.33,107.435,1939.26,-115.372,20.2581,-76.3581
3.797,4570.19,-3397.92,8036.45,-51.2231,-16.6039,-15.6853,4018.69,2163.39,7927.42,42.0953,364.322,-145.942,294.654,10200.6,-2956.49,7.83066,-76.3736,8.94852,971.133,-7340.6,-2185.87,-39.7066,101.963,-307.276,428.253,10010.7,-3223.9,-5.83449,-119.153,-114.425,-4961.68,-6997.31,-4512.72,8.71513,151.313,-184.438,5146.25,77.5726,1925.92,-115.163,20.0882,-75.6283
3.7975,4553.17,-3392.61,8033.99,-51.1383,-16.6435,-15.7389,3985.26,2137.25,7925.08,42.5444,365.011,-145.874,300.483,10180.6,-2968.13,7.5587,-76.5337,8.89534,957.481,-7371.16,-2181.86,-39.8025,102.67,-308.279,451.072,9980.84,-3216.55,-5.91437,-118.989,-114.477,-4997.7,-6990.62,-4495.96,9.65599,151.239,-184.415,5109.16,47.7104,1912.59,-114.954,19.9182,-74.8985
3.798,4536.16,-3387.29,8031.54,-51.0535,-16.6831,-15.7926,3951.82,2111.1,7922.75,42.9934,365.7,-145.806,306.312,10160.7,-2979.76,7.28674,-76.6937,8.84215,943.829,-7401.72,-2177.85,-39.8985,103.377,-309.282,473.891,9950.97,-3209.21,-5.99425,-118.824,-114.53,-5033.73,-6983.93,-4479.21,10.5969,151.166,-184.391,5072.08,17.8481,1899.25,-114.745,19.7482,-74.1687
3.7985,4519.15,-3381.98,8029.09,-50.9687,-16.7227,-15.8462,3918.39,2084.95,7920.41,43.4424,366.389,-145.738,312.141,10140.7,-2991.4,7.01478,-76.8538,8.78897,930.177,-7432.27,-2173.84,-39.9944,104.084,-310.284,496.71,9921.1,-3201.86,-6.07413,-118.66,-114.582,-5069.76,-6977.25,-4462.45,11.5377,151.092,-184.367,5034.99,-12.0142,1885.91,-114.536,19.5782,-73.4389
3.799,4502.13,-3376.67,8026.63,-50.8839,-16.7623,-15.8998,3884.96,2058.81,7918.08,43.8914,367.078,-145.671,317.971,10120.8,-3003.03,6.74282,-77.0139,8.73579,916.525,-7462.83,-2169.83,-40.0904,104.791,-311.287,519.529,9891.23,-3194.52,-6.15401,-118.496,-114.635,-5105.78,-6970.56,-4445.7,12.4786,151.019,-184.343,4997.91,-41.8765,1872.57,-114.328,19.4082,-72.7091
3.7995,4485.12,-3371.35,8024.18,-50.799,-16.8019,-15.9535,3851.52,2032.66,7915.74,44.3405,367.767,-145.603,323.8,10100.8,-3014.67,6.47086,-77.174,8.6826,902.874,-7493.39,-2165.82,-40.1863,105.498,-312.289,542.348,9861.36,-3187.18,-6.23389,-118.332,-114.687,-5141.81,-6963.88,-4428.95,13.4194,150.945,-184.32,4960.82,-71.7388,1859.23,-114.119,19.2383,-71.9793
3.8,4468.1,-3366.04,8021.73,-50.7142,-16.8415,-16.0071,3818.09,2006.51,7913.41,44.7895,368.456,-145.535,329.629,10080.9,-3026.31,6.1989,-77.3341,8.62942,889.222,-7523.95,-2161.81,-40.2823,106.205,-313.292,565.167,9831.49,-3179.83,-6.31377,-118.168,-114.74,-5177.84,-6957.19,-4412.19,14.3603,150.872,-184.296,4923.74,-101.601,1845.89,-113.91,19.0683,-71.2495
3.8005,4472.8,-3370.39,8011.52,-50.7272,-16.818,-16.1139,3800.96,1921.55,7931.34,45.1569,368.917,-145.545,333.549,10074.9,-3017.9,6.03183,-77.5548,8.65158,861.121,-7566.33,-2139.04,-40.1465,106.732,-314.225,582.023,9801.3,-3171.21,-6.33919,-118.015,-114.816,-5206.62,-6925.68,-4375.35,14.9983,151.347,-184.243,4901.73,-111.255,1858.36,-113.326,18.5646,-70.6462
3.801,4477.51,-3374.75,8001.32,-50.7402,-16.7946,-16.2207,3783.82,1836.59,7949.27,45.5243,369.378,-145.555,337.47,10068.9,-3009.5,5.86475,-77.7756,8.67375,833.02,-7608.71,-2116.27,-40.0106,107.26,-315.159,598.879,9771.12,-3162.59,-6.3646,-117.862,-114.892,-5235.4,-6894.17,-4338.5,15.6362,151.822,-184.191,4879.73,-120.909,1870.83,-112.742,18.0609,-70.0429
3.8015,4482.21,-3379.1,7991.12,-50.7532,-16.7711,-16.3275,3766.69,1751.63,7967.2,45.8918,369.838,-145.564,341.391,10063.0,-3001.09,5.69768,-77.9964,8.69592,804.919,-7651.09,-2093.49,-39.8748,107.787,-316.092,615.735,9740.93,-3153.97,-6.39002,-117.709,-114.968,-5264.18,-6862.66,-4301.65,16.2742,152.296,-184.138,4857.73,-130.564,1883.29,-112.158,17.5572,-69.4396
3.802,4486.92,-3383.46,7980.91,-50.7662,-16.7476,-16.4343,3749.55,1666.66,7985.13,46.2592,370.299,-145.574,345.312,10057.0,-2992.69,5.53061,-78.2171,8.71808,776.818,-7693.48,-2070.72,-39.739,108.314,-317.026,632.591,9710.74,-3145.35,-6.41544,-117.556,-115.044,-5292.96,-6831.15,-4264.8,16.9121,152.771,-184.085,4835.73,-140.218,1895.76,-111.574,17.0536,-68.8363
3.8025,4491.62,-3387.81,7970.71,-50.7792,-16.7241,-16.5411,3732.42,1581.7,8003.06,46.6266,370.76,-145.584,349.232,10051.0,-2984.28,5.36354,-78.4379,8.74025,748.717,-7735.86,-2047.94,-39.6032,108.842,-317.959,649.446,9680.56,-3136.73,-6.44086,-117.403,-115.12,-5321.74,-6799.64,-4227.96,17.5501,153.246,-184.033,4813.72,-149.872,1908.23,-110.99,16.5499,-68.233
3.803,4496.33,-3392.17,7960.5,-50.7922,-16.7006,-16.6479,3715.28,1496.74,8020.99,46.994,371.221,-145.594,353.153,10045.1,-2975.88,5.19647,-78.6587,8.76241,720.616,-7778.24,-2025.17,-39.4674,109.369,-318.893,666.302,9650.37,-3128.11,-6.46628,-117.25,-115.197,-5350.52,-6768.12,-4191.11,18.188,153.721,-183.98,4791.72,-159.526,1920.69,-110.406,16.0462,-67.6297
3.8035,4501.03,-3396.52,7950.3,-50.8051,-16.6771,-16.7546,3698.15,1411.78,8038.92,47.3615,371.682,-145.604,357.074,10039.1,-2967.48,5.0294,-78.8794,8.78458,692.515,-7820.63,-2002.4,-39.3316,109.896,-319.826,683.158,9620.18,-3119.49,-6.4917,-117.097,-115.273,-5379.3,-6736.61,-4154.26,18.826,154.196,-183.927,4769.72,-169.18,1933.16,-109.823,15.5425,-67.0264
3.804,4505.73,-3400.88,7940.1,-50.8181,-16.6537,-16.8614,3681.01,1326.81,8056.85,47.7289,372.143,-145.613,360.995,10033.2,-2959.07,4.86232,-79.1002,8.80675,664.414,-7863.01,-1979.62,-39.1958,110.423,-320.76,700.014,9590.0,-3110.87,-6.51711,-116.945,-115.349,-5408.08,-6705.1,-4117.41,19.4639,154.671,-183.874,4747.72,-178.835,1945.62,-109.239,15.0388,-66.4231
3.8045,4510.28,-3405.63,7930.45,-50.8475,-16.6264,-16.9815,3669.18,1245.83,8074.6,48.0695,372.564,-145.606,364.192,10025.4,-2952.22,4.68822,-79.3182,8.82423,635.753,-7906.53,-1957.42,-39.053,110.942,-321.703,714.911,9560.28,-3101.48,-6.54125,-116.799,-115.43,-5438.23,-6673.26,-4081.7,20.0716,155.188,-183.818,4729.46,-186.36,1952.88,-108.704,14.581,-65.8126
3.805,4513.56,-3413.56,7925.23,-51.0084,-16.5694,-17.2074,3699.76,1196.67,8090.9,48.1952,372.66,-145.459,361.598,10003.6,-2957.79,4.45784,-79.5142,8.80427,602.608,-7959.21,-1939.78,-38.8537,111.391,-322.724,714.141,9534.36,-3085.95,-6.55509,-116.714,-115.555,-5479.4,-6638.8,-4055.03,20.437,156.051,-183.729,4741.2,-176.851,1918.46,-108.567,14.4896,-65.144
3.8055,4516.83,-3421.5,7920.01,-51.1693,-16.5123,-17.4334,3730.34,1147.51,8107.21,48.3209,372.757,-145.312,359.005,9981.83,-2963.35,4.22747,-79.7103,8.78432,569.463,-8011.88,-1922.14,-38.6544,111.841,-323.745,713.371,9508.43,-3070.42,-6.56893,-116.628,-115.681,-5520.57,-6604.34,-4028.35,20.8024,156.914,-183.64,4752.94,-167.342,1884.03,-108.43,14.3982,-64.4755
3.806,4520.11,-3429.43,7914.79,-51.3302,-16.4552,-17.6593,3760.92,1098.34,8123.51,48.4466,372.854,-145.165,356.411,9960.03,-2968.92,3.99709,-79.9063,8.76436,536.318,-8064.55,-1904.5,-38.455,112.29,-324.767,712.601,9482.5,-3054.89,-6.58277,-116.543,-115.806,-5561.74,-6569.88,-4001.68,21.1678,157.777,-183.552,4764.67,-157.833,1849.61,-108.292,14.3068,-63.807
3.8065,4523.38,-3437.36,7909.57,-51.4911,-16.3982,-17.8853,3791.5,1049.18,8139.82,48.5723,372.951,-145.018,353.818,9938.23,-2974.49,3.76672,-80.1023,8.7444,503.174,-8117.22,-1886.86,-38.2557,112.739,-325.788,711.831,9456.57,-3039.35,-6.59661,-116.458,-115.931,-5602.92,-6535.42,-3975.01,21.5333,158.64,-183.463,4776.41,-148.324,1815.19,-108.155,14.2154,-63.1385
3.807,4526.66,-3445.29,7904.35,-51.652,-16.3411,-18.1113,3822.08,1000.02,8156.12,48.698,373.047,-144.871,351.224,9916.43,-2980.06,3.53634,-80.2984,8.72444,470.029,-8169.89,-1869.22,-38.0564,113.189,-326.809,711.061,9430.64,-3023.82,-6.61046,-116.372,-116.056,-5644.09,-6500.96,-3948.34,21.8987,159.503,-183.374,4788.14,-138.815,1780.77,-108.017,14.124,-62.47
3.8075,4529.93,-3453.23,7899.13,-51.8129,-16.284,-18.3372,3852.66,950.858,8172.42,48.8237,373.144,-144.724,348.63,9894.63,-2985.62,3.30597,-80.4944,8.70448,436.884,-8222.56,-1851.58,-37.8571,113.638,-327.83,710.29,9404.71,-3008.29,-6.6243,-116.287,-116.181,-5685.26,-6466.5,-3921.67,22.2641,160.366,-183.286,4799.88,-129.306,1746.34,-107.88,14.0326,-61.8015
3.808,4533.21,-3461.16,7893.91,-51.9738,-16.2269,-18.5632,3883.23,901.697,8188.73,48.9494,373.241,-144.577,346.037,9872.83,-2991.19,3.07559,-80.6904,8.68452,403.739,-8275.23,-1833.94,-37.6578,114.087,-328.851,709.52,9378.79,-2992.76,-6.63814,-116.202,-116.306,-5726.43,-6432.04,-3894.99,22.6295,161.229,-183.197,4811.61,-119.797,1711.92,-107.743,13.9412,-61.133
3.8085,4536.48,-3469.09,7888.69,-52.1347,-16.1699,-18.7891,3913.81,852.535,8205.03,49.0751,373.337,-144.43,343.443,9851.03,-2996.76,2.84522,-80.8865,8.66456,370.595,-8327.9,-1816.3,-37.4585,114.537,-329.873,708.75,9352.86,-2977.23,-6.65198,-116.116,-116.431,-5767.6,-6397.58,-3868.32,22.9949,162.092,-183.108,4823.35,-110.288,1677.5,-107.605,13.8498,-60.4644
3.809,4537.51,-3474.88,7882.83,-52.3389,-16.1122,-19.0526,3947.96,818.157,8215.58,49.1673,373.391,-144.195,336.586,9830.13,-3000.91,2.60402,-81.065,8.64617,338.235,-8375.63,-1800.76,-37.2722,114.991,-330.852,705.161,9326.97,-2958.71,-6.66766,-116.024,-116.537,-5810.63,-6363.8,-3836.29,23.3609,162.962,-183.014,4832.26,-103.144,1649.72,-107.529,13.7696,-59.8064
3.8095,4530.65,-3473.14,7874.72,-52.6946,-16.0527,-19.4473,3994.6,835.519,8205.98,49.1422,373.293,-143.652,314.807,9812.36,-3000.13,2.32494,-81.182,8.63324,308.625,-8406.07,-1792.57,-37.1313,115.463,-331.683,691.706,9301.24,-2929.72,-6.68978,-115.905,-116.577,-5860.17,-6332.42,-3785.5,23.7285,163.855,-182.902,4831.29,-104.276,1645.2,-107.669,13.7286,-59.1851
3.81,4523.78,-3471.4,7866.61,-53.0502,-15.9931,-19.842,4041.23,852.882,8196.38,49.1171,373.196,-143.11,293.028,9794.59,-2999.34,2.04586,-81.299,8.62032,279.015,-8436.51,-1784.38,-36.9904,115.935,-332.514,678.25,9275.5,-2900.73,-6.7119,-115.786,-116.616,-5909.71,-6301.04,-3734.7,24.0962,164.747,-182.79,4830.31,-105.409,1640.67,-107.809,13.6876,-58.5638
3.8105,4516.92,-3469.67,7858.5,-53.4059,-15.9335,-20.2367,4087.86,870.245,8186.79,49.0919,373.098,-142.567,271.249,9776.83,-2998.56,1.76678,-81.416,8.60739,249.405,-8466.95,-1776.18,-36.8495,116.407,-333.345,664.795,9249.77,-2871.74,-6.73402,-115.667,-116.655,-5959.26,-6269.66,-3683.91,24.4639,165.64,-182.677,4829.34,-106.542,1636.15,-107.948,13.6465,-57.9425
3.811,4510.06,-3467.93,7850.39,-53.7615,-15.8739,-20.6314,4134.5,887.608,8177.19,49.0668,373.001,-142.024,249.469,9759.06,-2997.77,1.4877,-81.5331,8.59447,219.795,-8497.39,-1767.99,-36.7086,116.879,-334.176,651.34,9224.04,-2842.76,-6.75614,-115.548,-116.694,-6008.8,-6238.28,-3633.11,24.8316,166.532,-182.565,4828.37,-107.674,1631.63,-108.088,13.6055,-57.3212
3.8115,4503.2,-3466.2,7842.28,-54.1171,-15.8144,-21.0261,4181.13,904.97,8167.59,49.0417,372.903,-141.481,227.69,9741.29,-2996.99,1.20863,-81.6501,8.58154,190.185,-8527.83,-1759.79,-36.5677,117.351,-335.007,637.884,9198.3,-2813.77,-6.77826,-115.43,-116.733,-6058.34,-6206.9,-3582.32,25.1993,167.425,-182.452,4827.4,-108.807,1627.11,-108.228,13.5645,-56.6999
3.812,4496.34,-3464.46,7834.17,-54.4728,-15.7548,-21.4208,4227.77,922.333,8157.99,49.0166,372.806,-140.938,205.911,9723.53,-2996.2,0.929548,-81.7671,8.56861,160.575,-8558.27,-1751.6,-36.4268,117.823,-335.838,624.429,9172.57,-2784.78,-6.80038,-115.311,-116.772,-6107.88,-6175.52,-3531.53,25.567,168.318,-182.34,4826.42,-109.94,1622.59,-108.367,13.5235,-56.0786
3.8125,4489.48,-3462.73,7826.06,-54.8284,-15.6952,-21.8155,4274.4,939.696,8148.39,48.9914,372.708,-140.396,184.132,9705.76,-2995.42,0.65047,-81.8841,8.55569,130.964,-8588.71,-1743.41,-36.2859,118.295,-336.669,610.974,9146.84,-2755.8,-6.8225,-115.192,-116.811,-6157.43,-6144.14,-3480.73,25.9347,169.21,-182.228,4825.45,-111.072,1618.06,-108.507,13.4824,-55.4573
3.813,4482.62,-3460.99,7817.96,-55.1841,-15.6356,-22.2102,4321.03,957.058,8138.79,48.9663,372.61,-139.853,162.353,9687.99,-2994.63,0.371391,-82.0012,8.54277,101.354,-8619.14,-1735.21,-36.1451,118.768,-337.5,597.518,9121.1,-2726.81,-6.84462,-115.073,-116.851,-6206.97,-6112.75,-3429.94,26.3024,170.103,-182.115,4824.48,-112.205,1613.54,-108.647,13.4414,-54.836
3.8135,4478.9,-3447.79,7808.31,-55.4704,-15.5723,-22.6113,4359.7,987.907,8145.63,48.9632,372.46,-139.294,144.857,9670.56,-2994.17,0.109554,-82.1376,8.53183,73.9015,-8648.59,-1730.69,-36.0618,119.192,-338.318,578.179,9089.56,-2699.77,-6.86021,-114.953,-116.899,-6261.24,-6081.76,-3382.66,26.722,171.042,-182.03,4820.9,-111.354,1607.04,-108.728,13.3598,-54.2607
3.814,4481.46,-3411.66,7795.59,-55.6181,-15.5017,-23.0252,4382.43,1045.73,8185.34,49.0042,372.202,-138.705,135.93,9653.78,-2994.35,-0.117802,-82.3127,8.52488,50.7632,-8676.06,-1733.51,-36.0938,119.522,-339.111,547.071,9046.38,-2676.61,-6.86272,-114.828,-116.967,-6324.95,-6051.54,-3342.39,27.2457,172.075,-181.998,4812.12,-106.537,1596.59,-108.695,13.1969,-53.7776
3.8145,4484.02,-3375.52,7782.87,-55.7659,-15.431,-23.4391,4405.16,1103.55,8225.05,49.0451,371.945,-138.116,127.003,9637.01,-2994.52,-0.345157,-82.4878,8.51793,27.625,-8703.53,-1736.33,-36.1258,119.852,-339.903,515.962,9003.21,-2653.46,-6.86523,-114.704,-117.034,-6388.66,-6021.31,-3302.13,27.7693,173.108,-181.967,4803.35,-101.719,1586.14,-108.661,13.0341,-53.2946
3.815,4486.59,-3339.39,7770.15,-55.9136,-15.3604,-23.853,4427.89,1161.37,8264.76,49.0861,371.688,-137.526,118.077,9620.23,-2994.7,-0.572513,-82.6628,8.51098,4.48676,-8730.99,-1739.15,-36.1578,120.182,-340.695,484.854,8960.04,-2630.3,-6.86774,-114.58,-117.102,-6452.38,-5991.09,-3261.87,28.293,174.14,-181.935,4794.57,-96.9017,1575.69,-108.627,12.8712,-52.8115
3.8155,4489.15,-3303.26,7757.42,-56.0613,-15.2897,-24.2669,4450.62,1219.19,8304.47,49.127,371.431,-136.937,109.15,9603.46,-2994.88,-0.799869,-82.838,8.50403,-18.6515,-8758.46,-1741.97,-36.1899,120.512,-341.488,453.746,8916.87,-2607.15,-6.87025,-114.456,-117.169,-6516.09,-5960.87,-3221.6,28.8166,175.173,-181.904,4785.79,-92.0842,1565.23,-108.593,12.7084,-52.3284
3.816,4491.71,-3267.12,7744.7,-56.209,-15.2191,-24.6808,4473.35,1277.02,8344.18,49.168,371.173,-136.347,100.223,9586.68,-2995.06,-1.02722,-83.013,8.49709,-41.7897,-8785.93,-1744.79,-36.2219,120.843,-342.28,422.638,8873.7,-2584.0,-6.87277,-114.332,-117.237,-6579.81,-5930.64,-3181.34,29.3403,176.206,-181.872,4777.01,-87.2667,1554.78,-108.559,12.5455,-51.8453
3.8165,4494.27,-3230.99,7731.98,-56.3567,-15.1484,-25.0947,4496.08,1334.84,8383.89,49.2089,370.916,-135.758,91.2956,9569.91,-2995.23,-1.25458,-83.1881,8.49014,-64.9279,-8813.39,-1747.61,-36.2539,121.173,-343.072,391.53,8830.53,-2560.84,-6.87528,-114.208,-117.304,-6643.52,-5900.42,-3141.08,29.8639,177.239,-181.841,4768.23,-82.4492,1544.33,-108.525,12.3827,-51.3622
3.817,4496.83,-3194.86,7719.26,-56.5045,-15.0778,-25.5086,4518.81,1392.66,8423.6,49.2499,370.659,-135.168,82.3686,9553.13,-2995.41,-1.48194,-83.3632,8.48319,-88.0662,-8840.86,-1750.43,-36.2859,121.503,-343.865,360.422,8787.35,-2537.69,-6.87779,-114.084,-117.372,-6707.23,-5870.2,-3100.81,30.3876,178.271,-181.809,4759.45,-77.6317,1533.87,-108.491,12.2198,-50.8792
3.8175,4499.4,-3158.72,7706.54,-56.6522,-15.0071,-25.9225,4541.54,1450.48,8463.31,49.2908,370.402,-134.579,73.4417,9536.36,-2995.59,-1.70929,-83.5383,8.47624,-111.204,-8868.33,-1753.25,-36.3179,121.833,-344.657,329.314,8744.18,-2514.53,-6.8803,-113.959,-117.44,-6770.95,-5839.97,-3060.55,30.9112,179.304,-181.777,4750.67,-72.8141,1523.42,-108.458,12.057,-50.3961
3.818,4508.85,-3145.76,7703.01,-56.7443,-14.9543,-26.1846,4571.69,1484.61,8510.5,49.448,370.091,-133.995,63.2232,9517.64,-2993.27,-1.8994,-83.7638,8.46218,-146.731,-8897.83,-1745.67,-36.3604,121.943,-345.385,289.628,8710.33,-2491.28,-6.88688,-113.861,-117.539,-6829.19,-5809.57,-3021.46,31.5003,180.434,-181.758,4742.51,-75.2041,1512.35,-108.345,11.8976,-50.0136
3.8185,4526.91,-3161.75,7710.99,-56.767,-14.9237,-26.257,4611.13,1489.13,8567.05,49.7504,369.714,-133.418,51.3904,9496.49,-2987.82,-2.04296,-84.0524,8.43924,-197.742,-8929.87,-1725.1,-36.4159,121.778,-346.034,239.22,8688.14,-2467.89,-6.89855,-113.793,-117.677,-6880.6,-5778.94,-2983.85,32.171,181.684,-181.753,4735.14,-86.6034,1500.5,-108.135,11.7425,-49.7568
3.819,4544.97,-3177.75,7718.96,-56.7897,-14.8932,-26.3294,4650.57,1493.65,8623.59,50.0528,369.337,-132.841,39.5575,9475.34,-2982.38,-2.18651,-84.3409,8.4163,-248.753,-8961.92,-1704.53,-36.4713,121.613,-346.682,188.812,8665.94,-2444.51,-6.91022,-113.726,-117.815,-6932.01,-5748.3,-2946.23,32.8417,182.935,-181.748,4727.77,-98.0027,1488.65,-107.924,11.5874,-49.5
3.8195,4563.03,-3193.74,7726.93,-56.8124,-14.8626,-26.4018,4690.01,1498.17,8680.14,50.3552,368.96,-132.265,27.7247,9454.2,-2976.93,-2.33006,-84.6295,8.39336,-299.765,-8993.97,-1683.95,-36.5268,121.449,-347.331,138.403,8643.74,-2421.12,-6.92188,-113.659,-117.954,-6983.42,-5717.67,-2908.62,33.5124,184.185,-181.743,4720.39,-109.402,1476.8,-107.714,11.4323,-49.2432
3.82,4581.1,-3209.73,7734.9,-56.835,-14.8321,-26.4741,4729.45,1502.69,8736.69,50.6576,368.582,-131.688,15.8919,9433.05,-2971.48,-2.47362,-84.918,8.37041,-350.776,-9026.01,-1663.38,-36.5823,121.284,-347.979,87.9952,8621.55,-2397.74,-6.93355,-113.592,-118.092,-7034.83,-5687.04,-2871.0,34.1831,185.436,-181.738,4713.02,-120.801,1464.95,-107.504,11.2772,-48.9865
3.8205,4599.16,-3225.73,7742.87,-56.8577,-14.8015,-26.5465,4768.89,1507.21,8793.23,50.96,368.205,-131.111,4.05905,9411.9,-2966.04,-2.61717,-85.2065,8.34747,-401.787,-9058.06,-1642.81,-36.6378,121.119,-348.628,37.5871,8599.35,-2374.35,-6.94522,-113.525,-118.231,-7086.24,-5656.41,-2833.38,34.8538,186.686,-181.734,4705.65,-132.201,1453.1,-107.293,11.1221,-48.7297
3.821,4617.22,-3241.72,7750.84,-56.8804,-14.771,-26.6189,4808.33,1511.73,8849.78,51.2624,367.828,-130.534,-7.77377,9390.75,-2960.59,-2.76072,-85.4951,8.32453,-452.798,-9090.1,-1622.23,-36.6933,120.955,-349.276,-12.8211,8577.15,-2350.97,-6.95689,-113.458,-118.369,-7137.64,-5625.78,-2795.77,35.5245,187.937,-181.729,4698.28,-143.6,1441.25,-107.083,10.967,-48.4729
3.8215,4635.28,-3257.72,7758.81,-56.9031,-14.7405,-26.6912,4847.77,1516.25,8906.33,51.5648,367.451,-129.957,-19.6066,9369.6,-2955.15,-2.90428,-85.7836,8.30159,-503.81,-9122.15,-1601.66,-36.7488,120.79,-349.924,-63.2292,8554.96,-2327.58,-6.96855,-113.391,-118.508,-7189.05,-5595.15,-2758.15,36.1952,189.187,-181.724,4690.9,-154.999,1429.4,-106.873,10.8119,-48.2161
3.822,4653.35,-3273.71,7766.78,-56.9257,-14.7099,-26.7636,4887.2,1520.77,8962.88,51.8672,367.074,-129.38,-31.4394,9348.46,-2949.7,-3.04783,-86.0721,8.27865,-554.821,-9154.19,-1581.09,-36.8043,120.625,-350.573,-113.637,8532.76,-2304.2,-6.98022,-113.324,-118.646,-7240.46,-5564.51,-2720.54,36.8659,190.438,-181.719,4683.53,-166.398,1417.55,-106.662,10.6568,-47.9593
3.8225,4659.18,-3351.32,7766.7,-56.9391,-14.6826,-26.8106,4929.15,1511.86,9006.73,52.4735,366.792,-128.956,-36.626,9321.27,-2950.01,-3.16408,-86.335,8.23235,-611.135,-9175.48,-1563.18,-36.8453,120.222,-351.211,-164.04,8517.82,-2283.79,-6.99839,-113.284,-118.765,-7289.73,-5536.03,-2671.23,37.4493,191.748,-181.725,4682.81,-172.424,1402.82,-106.476,10.4755,-47.7098
3.823,4655.22,-3478.24,7760.18,-56.9451,-14.6578,-26.8373,4973.1,1492.21,9040.43,53.3229,366.586,-128.654,-36.4956,9289.26,-2954.92,-3.25848,-86.5775,8.16737,-671.693,-9188.15,-1547.41,-36.8749,119.629,-351.842,-214.438,8508.68,-2265.76,-7.02177,-113.265,-118.869,-7337.29,-5509.27,-2612.58,37.9627,193.106,-181.74,4687.42,-174.152,1385.79,-106.308,10.2733,-47.4659
3.8235,4651.27,-3605.15,7753.66,-56.9511,-14.6331,-26.864,5017.06,1472.55,9074.14,54.1724,366.381,-128.352,-36.3652,9257.24,-2959.84,-3.35288,-86.8199,8.10239,-732.25,-9200.83,-1531.64,-36.9044,119.035,-352.472,-264.836,8499.54,-2247.73,-7.04515,-113.247,-118.973,-7384.84,-5482.52,-2553.92,38.4762,194.464,-181.755,4692.03,-175.879,1368.76,-106.14,10.0711,-47.2221
3.824,4647.31,-3732.06,7747.14,-56.9571,-14.6083,-26.8906,5061.01,1452.89,9107.84,55.0218,366.175,-128.051,-36.2348,9225.23,-2964.75,-3.44728,-87.0623,8.03741,-792.807,-9213.5,-1515.87,-36.9339,118.442,-353.103,-315.234,8490.4,-2229.71,-7.06852,-113.229,-119.077,-7432.4,-5455.76,-2495.27,38.9897,195.822,-181.77,4696.64,-177.606,1351.72,-105.973,9.86894,-46.9782
3.8245,4643.35,-3858.98,7740.62,-56.9631,-14.5836,-26.9173,5104.96,1433.24,9141.54,55.8712,365.969,-127.749,-36.1044,9193.21,-2969.66,-3.54168,-87.3047,7.97243,-853.365,-9226.18,-1500.1,-36.9634,117.848,-353.733,-365.633,8481.27,-2211.68,-7.0919,-113.21,-119.181,-7479.96,-5429.0,-2436.61,39.5031,197.18,-181.785,4701.25,-179.334,1334.69,-105.805,9.66673,-46.7344
3.825,4639.4,-3985.89,7734.1,-56.969,-14.5588,-26.944,5148.91,1413.58,9175.24,56.7207,365.764,-127.447,-35.974,9161.2,-2974.57,-3.63608,-87.5471,7.90745,-913.922,-9238.85,-1484.33,-36.993,117.255,-354.363,-416.031,8472.13,-2193.65,-7.11527,-113.192,-119.285,-7527.51,-5402.24,-2377.96,40.0166,198.537,-181.8,4705.86,-181.061,1317.66,-105.637,9.46453,-46.4906
3.8255,4635.44,-4112.81,7727.58,-56.975,-14.534,-26.9707,5192.87,1393.93,9208.94,57.5701,365.558,-127.145,-35.8436,9129.19,-2979.49,-3.73048,-87.7895,7.84246,-974.479,-9251.53,-1468.55,-37.0225,116.661,-354.994,-466.429,8462.99,-2175.62,-7.13865,-113.174,-119.389,-7575.07,-5375.48,-2319.3,40.53,199.895,-181.815,4710.47,-182.789,1300.62,-105.47,9.26232,-46.2467
3.826,4631.49,-4239.72,7721.06,-56.981,-14.5093,-26.9974,5236.82,1374.27,9242.64,58.4195,365.352,-126.843,-35.7132,9097.17,-2984.4,-3.82488,-88.0319,7.77748,-1035.04,-9264.21,-1452.78,-37.052,116.068,-355.624,-516.827,8453.85,-2157.59,-7.16203,-113.155,-119.493,-7622.63,-5348.72,-2260.65,41.0435,201.253,-181.83,4715.08,-184.516,1283.59,-105.302,9.06012,-46.0029
3.8265,4627.53,-4366.63,7714.54,-56.987,-14.4845,-27.0241,5280.77,1354.61,9276.35,59.269,365.147,-126.542,-35.5828,9065.16,-2989.31,-3.91928,-88.2743,7.7125,-1095.59,-9276.88,-1437.01,-37.0816,115.474,-356.255,-567.225,8444.71,-2139.56,-7.1854,-113.137,-119.597,-7670.18,-5321.97,-2201.99,41.5569,202.611,-181.845,4719.69,-186.243,1266.55,-105.135,8.85791,-45.7591
3.827,4596.39,-4486.63,7675.83,-56.8207,-14.3462,-27.3116,5329.51,1310.97,9314.23,60.0259,365.088,-126.262,-18.8435,9030.23,-3038.99,-3.78511,-88.5008,7.75649,-1194.94,-9301.87,-1424.68,-37.065,114.537,-356.777,-607.857,8435.72,-2124.54,-7.22158,-113.192,-119.681,-7701.26,-5291.41,-2142.16,41.9622,203.633,-181.78,4716.67,-184.46,1258.35,-105.045,8.6286,-45.5749
3.8275,4551.67,-4603.17,7621.03,-56.5683,-14.1512,-27.7297,5380.65,1255.34,9354.19,60.7366,365.103,-125.994,6.20021,8993.85,-3111.04,-3.53664,-88.7194,7.85496,-1313.69,-9333.02,-1414.07,-37.0255,113.428,-357.245,-643.606,8426.79,-2111.02,-7.26416,-113.284,-119.755,-7724.1,-5258.95,-2081.74,42.3133,204.486,-181.676,4709.85,-180.922,1254.55,-104.995,8.38572,-45.4207
3.828,4506.94,-4719.71,7566.22,-56.3159,-13.9561,-28.1477,5431.79,1199.71,9394.16,61.4473,365.117,-125.726,31.2439,8957.47,-3183.1,-3.28817,-88.938,7.95342,-1432.44,-9364.16,-1403.46,-36.986,112.319,-357.713,-679.354,8417.87,-2097.51,-7.30675,-113.375,-119.83,-7746.93,-5226.49,-2021.31,42.6645,205.34,-181.571,4703.03,-177.383,1250.76,-104.945,8.14285,-45.2664
3.8285,4462.21,-4836.24,7511.41,-56.0636,-13.7611,-28.5657,5482.93,1144.08,9434.12,62.158,365.132,-125.458,56.2876,8921.08,-3255.15,-3.0397,-89.1565,8.05189,-1551.19,-9395.31,-1392.85,-36.9464,111.21,-358.181,-715.103,8408.94,-2083.99,-7.34933,-113.467,-119.904,-7769.77,-5194.02,-1960.89,43.0156,206.193,-181.466,4696.21,-173.845,1246.97,-104.895,7.89997,-45.1121
3.829,4417.48,-4952.78,7456.6,-55.8112,-13.5661,-28.9838,5534.06,1088.45,9474.09,62.8686,365.147,-125.19,81.3313,8884.7,-3327.21,-2.79123,-89.3751,8.15036,-1669.94,-9426.46,-1382.24,-36.9069,110.101,-358.649,-750.851,8400.02,-2070.47,-7.39191,-113.559,-119.978,-7792.6,-5161.56,-1900.47,43.3668,207.047,-181.362,4689.38,-170.307,1243.17,-104.844,7.6571,-44.9579
3.8295,4372.75,-5069.32,7401.8,-55.5588,-13.371,-29.4018,5585.2,1032.82,9514.06,63.5793,365.161,-124.922,106.375,8848.32,-3399.26,-2.54276,-89.5937,8.24883,-1788.69,-9457.6,-1371.62,-36.8673,108.992,-359.117,-786.6,8391.09,-2056.95,-7.43449,-113.65,-120.053,-7815.44,-5129.1,-1840.05,43.7179,207.9,-181.257,4682.56,-166.769,1239.38,-104.794,7.41423,-44.8036
3.83,4328.02,-5185.86,7346.99,-55.3064,-13.176,-29.8198,5636.34,977.185,9554.02,64.29,365.176,-124.654,131.419,8811.94,-3471.32,-2.2943,-89.8122,8.34729,-1907.43,-9488.75,-1361.01,-36.8278,107.883,-359.584,-822.349,8382.17,-2043.43,-7.47708,-113.742,-120.127,-7838.27,-5096.65,-1779.62,44.069,208.754,-181.152,4675.74,-163.23,1235.59,-104.744,7.17135,-44.6494
3.8305,4283.29,-5302.4,7292.18,-55.054,-12.9809,-30.2379,5687.48,921.553,9593.99,65.0007,365.191,-124.386,156.462,8775.55,-3543.38,-2.04583,-90.0308,8.44576,-2026.18,-9519.9,-1350.4,-36.7883,106.773,-360.052,-858.097,8373.24,-2029.91,-7.51966,-113.834,-120.201,-7861.11,-5064.18,-1719.2,44.4202,209.607,-181.048,4668.91,-159.692,1231.79,-104.694,6.92848,-44.4951
3.831,4238.56,-5418.94,7237.38,-54.8016,-12.7859,-30.6559,5738.61,865.921,9633.96,65.7114,365.205,-124.118,181.506,8739.17,-3615.43,-1.79736,-90.2494,8.54423,-2144.93,-9551.04,-1339.79,-36.7487,105.664,-360.52,-893.846,8364.32,-2016.39,-7.56224,-113.925,-120.276,-7883.94,-5031.73,-1658.78,44.7713,210.46,-180.943,4662.09,-156.154,1228.0,-104.644,6.6856,-44.3408
3.8315,4202.3,-5471.77,7195.04,-54.4627,-12.4825,-31.2635,5803.42,858.237,9671.88,66.2719,365.415,-123.81,202.168,8694.95,-3699.53,-1.61168,-90.2969,8.54218,-2237.51,-9597.03,-1332.28,-36.6,104.096,-360.983,-940.517,8368.86,-1990.54,-7.64915,-114.079,-120.332,-7894.16,-5001.25,-1618.61,45.1068,210.67,-180.831,4669.64,-154.761,1218.43,-104.534,6.47433,-44.186
3.832,4168.46,-5506.4,7156.26,-54.099,-12.1481,-31.9253,5872.12,864.253,9709.21,66.7894,365.68,-123.49,221.579,8648.5,-3787.06,-1.44395,-90.2955,8.51142,-2322.61,-9647.27,-1325.65,-36.42,102.397,-361.445,-990.31,8377.26,-1961.15,-7.74872,-114.251,-120.384,-7900.76,-4971.34,-1584.23,45.4378,210.694,-180.718,4681.29,-153.982,1207.21,-104.408,6.2721,-44.0311
3.8325,4134.62,-5541.04,7117.49,-53.7354,-11.8137,-32.587,5940.83,870.268,9746.55,67.307,365.945,-123.17,240.989,8602.04,-3874.59,-1.27622,-90.2942,8.48065,-2407.71,-9697.5,-1319.02,-36.2401,100.698,-361.907,-1040.1,8385.66,-1931.77,-7.84828,-114.423,-120.435,-7907.37,-4941.44,-1549.85,45.7687,210.719,-180.604,4692.95,-153.203,1195.99,-104.281,6.06986,-43.8762
3.833,4100.78,-5575.67,7078.71,-53.3717,-11.4793,-33.2488,6009.53,876.283,9783.88,67.8246,366.21,-122.85,260.399,8555.58,-3962.13,-1.10848,-90.2928,8.44989,-2492.8,-9747.73,-1312.39,-36.0601,98.9992,-362.368,-1089.89,8394.06,-1902.39,-7.94785,-114.595,-120.487,-7913.98,-4911.53,-1515.47,46.0997,210.744,-180.491,4704.6,-152.423,1184.77,-104.155,5.86762,-43.7212
3.8335,4066.95,-5610.3,7039.93,-53.0081,-11.1449,-33.9105,6078.24,882.298,9821.22,68.3422,366.475,-122.53,279.81,8509.12,-4049.66,-0.940749,-90.2914,8.41912,-2577.9,-9797.96,-1305.77,-35.8802,97.3001,-362.83,-1139.69,8402.45,-1873.01,-8.04742,-114.767,-120.538,-7920.58,-4881.63,-1481.09,46.4307,210.769,-180.377,4716.25,-151.644,1173.55,-104.028,5.66538,-43.5663
3.834,4033.11,-5644.94,7001.16,-52.6444,-10.8105,-34.5723,6146.95,888.313,9858.55,68.8597,366.74,-122.209,299.22,8462.67,-4137.2,-0.773015,-90.2901,8.38835,-2663.0,-9848.2,-1299.14,-35.7002,95.601,-363.291,-1189.48,8410.85,-1843.62,-8.14699,-114.939,-120.59,-7927.19,-4851.72,-1446.71,46.7616,210.794,-180.264,4727.91,-150.865,1162.33,-103.902,5.46314,-43.4113
3.8345,3999.27,-5679.57,6962.38,-52.2808,-10.4761,-35.2341,6215.65,894.328,9895.89,69.3773,367.005,-121.889,318.63,8416.21,-4224.73,-0.605281,-90.2887,8.35759,-2748.1,-9898.43,-1292.51,-35.5203,93.902,-363.753,-1239.27,8419.25,-1814.24,-8.24656,-115.111,-120.641,-7933.79,-4821.81,-1412.33,47.0926,210.819,-180.15,4739.56,-150.086,1151.11,-103.775,5.2609,-43.2564
3.835,3965.43,-5714.2,6923.61,-51.9171,-10.1417,-35.8958,6284.36,900.343,9933.22,69.8949,367.27,-121.569,338.04,8369.75,-4312.26,-0.437546,-90.2873,8.32682,-2833.2,-9948.66,-1285.88,-35.3403,92.2029,-364.215,-1289.06,8427.65,-1784.86,-8.34613,-115.282,-120.693,-7940.4,-4791.91,-1377.95,47.4236,210.844,-180.037,4751.22,-149.306,1139.89,-103.649,5.05867,-43.1015
3.8355,3931.6,-5748.84,6884.83,-51.5535,-9.80729,-36.5576,6353.06,906.359,9970.56,70.4125,367.535,-121.249,357.451,8323.29,-4399.8,-0.269812,-90.286,8.29606,-2918.3,-9998.89,-1279.26,-35.1604,90.5038,-364.676,-1338.86,8436.05,-1755.48,-8.4457,-115.454,-120.745,-7947.01,-4762.0,-1343.57,47.7546,210.869,-179.923,4762.87,-148.527,1128.67,-103.522,4.85643,-42.9465
3.836,3941.86,-5707.69,6883.51,-51.2424,-9.50065,-37.2034,6421.35,956.778,10012.4,70.8233,367.915,-120.928,366.302,8287.03,-4434.79,-0.525267,-90.2964,8.08627,-2984.69,-10046.3,-1279.65,-34.9464,88.7614,-365.036,-1395.82,8447.88,-1735.28,-8.57545,-115.528,-120.815,-7936.09,-4743.85,-1326.76,47.9725,210.375,-179.658,4773.63,-143.582,1112.01,-103.347,4.63886,-42.8432
3.8365,3957.63,-5657.07,6886.87,-50.9379,-9.19749,-37.8472,6489.58,1012.75,10054.8,71.2208,368.31,-120.606,373.834,8252.05,-4463.21,-0.833621,-90.3084,7.85411,-3048.73,-10093.3,-1280.92,-34.7282,87.0135,-365.383,-1453.68,8460.15,-1716.23,-8.70898,-115.59,-120.888,-7922.98,-4727.17,-1312.15,48.1764,209.817,-179.374,4784.28,-138.117,1094.66,-103.166,4.41937,-42.7463
3.837,3973.41,-5606.45,6890.23,-50.6334,-8.89432,-38.491,6557.8,1068.72,10097.2,71.6183,368.704,-120.284,381.366,8217.06,-4491.62,-1.14197,-90.3204,7.62195,-3112.78,-10140.3,-1282.18,-34.51,85.2657,-365.73,-1511.53,8472.42,-1697.18,-8.84251,-115.651,-120.961,-7909.87,-4710.48,-1297.54,48.3803,209.258,-179.089,4794.93,-132.652,1077.31,-102.985,4.19988,-42.6494
3.8375,3989.18,-5555.83,6893.59,-50.3288,-8.59115,-39.1348,6626.03,1124.69,10139.6,72.0158,369.098,-119.962,388.898,8182.08,-4520.04,-1.45033,-90.3323,7.38979,-3176.82,-10187.3,-1283.45,-34.2917,83.5178,-366.078,-1569.39,8484.69,-1678.13,-8.97604,-115.713,-121.034,-7896.76,-4693.8,-1282.93,48.5841,208.699,-178.805,4805.58,-127.187,1059.96,-102.804,3.9804,-42.5525
3.838,4004.96,-5505.2,6896.95,-50.0243,-8.28798,-39.7786,6694.26,1180.66,10182.1,72.4133,369.493,-119.64,396.429,8147.09,-4548.46,-1.75868,-90.3443,7.15763,-3240.87,-10234.3,-1284.72,-34.0735,81.77,-366.425,-1627.25,8496.96,-1659.08,-9.10957,-115.774,-121.106,-7883.65,-4677.12,-1268.32,48.788,208.141,-178.521,4816.23,-121.721,1042.62,-102.623,3.76091,-42.4557
3.8385,4020.73,-5454.58,6900.31,-49.7198,-7.98481,-40.4225,6762.49,1236.63,10224.5,72.8107,369.887,-119.318,403.961,8112.11,-4576.88,-2.06703,-90.3563,6.92547,-3304.92,-10281.4,-1285.99,-33.8553,80.0221,-366.772,-1685.11,8509.23,-1640.03,-9.2431,-115.836,-121.179,-7870.54,-4660.44,-1253.71,48.9918,207.582,-178.237,4826.88,-116.256,1025.27,-102.442,3.54142,-42.3588
3.839,4036.5,-5403.96,6903.67,-49.4153,-7.68164,-41.0663,6830.72,1292.6,10266.9,73.2082,370.281,-118.996,411.493,8077.12,-4605.3,-2.37539,-90.3682,6.69331,-3368.96,-10328.4,-1287.26,-33.6371,78.2743,-367.119,-1742.97,8521.5,-1620.99,-9.37663,-115.897,-121.252,-7857.43,-4643.75,-1239.1,49.1957,207.024,-177.952,4837.52,-110.791,1007.92,-102.261,3.32194,-42.2619
3.8395,4052.28,-5353.34,6907.03,-49.1108,-7.37848,-41.7101,6898.95,1348.57,10309.3,73.6057,370.676,-118.674,419.024,8042.14,-4633.72,-2.68374,-90.3802,6.46115,-3433.01,-10375.4,-1288.52,-33.4188,76.5264,-367.466,-1800.82,8533.77,-1601.94,-9.51016,-115.959,-121.325,-7844.31,-4627.07,-1224.49,49.3996,206.465,-177.668,4848.17,-105.325,990.573,-102.08,3.10245,-42.165
3.84,4068.05,-5302.72,6910.39,-48.8062,-7.07531,-42.3539,6967.18,1404.54,10351.7,74.0032,371.07,-118.352,426.556,8007.15,-4662.14,-2.9921,-90.3922,6.22899,-3497.05,-10422.4,-1289.79,-33.2006,74.7786,-367.814,-1858.68,8546.04,-1582.89,-9.64369,-116.02,-121.398,-7831.2,-4610.39,-1209.88,49.6034,205.906,-177.384,4858.82,-99.86,973.225,-101.899,2.88296,-42.0681
3.8405,4102.74,-5233.31,6929.85,-48.4814,-6.77783,-42.9782,7057.28,1523.72,10403.9,74.1179,371.28,-118.145,405.278,8008.04,-4618.87,-3.46598,-90.3885,5.93279,-3547.69,-10460.9,-1320.05,-33.2336,73.1294,-368.346,-1924.23,8538.75,-1591.63,-9.71865,-116.0,-121.329,-7843.37,-4582.3,-1199.42,49.9197,205.088,-177.001,4868.27,-95.7651,942.897,-101.88,2.72459,-41.9429
3.841,4137.43,-5163.9,6949.32,-48.1565,-6.48035,-43.6025,7147.38,1642.9,10456.1,74.2326,371.491,-117.939,383.999,8008.94,-4575.61,-3.93986,-90.3849,5.6366,-3598.33,-10499.4,-1350.31,-33.2667,71.4803,-368.879,-1989.77,8531.45,-1600.36,-9.79362,-115.979,-121.261,-7855.54,-4554.21,-1188.97,50.236,204.27,-176.618,4877.71,-91.6701,912.568,-101.861,2.56623,-41.8177
3.8415,4172.12,-5094.49,6968.78,-47.8317,-6.18288,-44.2268,7237.48,1762.08,10508.3,74.3473,371.701,-117.732,362.721,8009.83,-4532.34,-4.41374,-90.3813,5.34041,-3648.98,-10537.9,-1380.56,-33.2997,69.8312,-369.412,-2055.31,8524.15,-1609.1,-9.86858,-115.959,-121.192,-7867.71,-4526.12,-1178.51,50.5522,203.453,-176.236,4887.16,-87.5752,882.24,-101.842,2.40786,-41.6925
3.842,4206.81,-5025.08,6988.25,-47.5068,-5.8854,-44.8512,7327.58,1881.26,10560.5,74.462,371.911,-117.525,341.442,8010.72,-4489.08,-4.88763,-90.3776,5.04421,-3699.62,-10576.4,-1410.82,-33.3328,68.182,-369.945,-2120.85,8516.86,-1617.84,-9.94355,-115.938,-121.123,-7879.88,-4498.03,-1168.06,50.8685,202.635,-175.853,4896.61,-83.4802,851.912,-101.823,2.24949,-41.5673
3.8425,4241.5,-4955.67,7007.71,-47.1819,-5.58792,-45.4755,7417.68,2000.44,10612.8,74.5767,372.121,-117.318,320.164,8011.61,-4445.81,-5.36151,-90.374,4.74802,-3750.26,-10614.9,-1441.08,-33.3658,66.5329,-370.477,-2186.4,8509.56,-1626.58,-10.0185,-115.918,-121.055,-7892.05,-4469.95,-1157.61,51.1848,201.817,-175.47,4906.05,-79.3852,821.584,-101.804,2.09112,-41.4421
3.843,4276.19,-4886.26,7027.18,-46.8571,-5.29045,-46.0998,7507.78,2119.62,10665.0,74.6913,372.332,-117.111,298.885,8012.5,-4402.55,-5.83539,-90.3704,4.45182,-3800.9,-10653.4,-1471.34,-33.3988,64.8837,-371.01,-2251.94,8502.26,-1635.32,-10.0935,-115.897,-120.986,-7904.21,-4441.86,-1147.15,51.501,200.999,-175.088,4915.5,-75.2903,791.256,-101.785,1.93275,-41.3169
3.8435,4310.88,-4816.85,7046.64,-46.5322,-4.99297,-46.7241,7597.88,2238.8,10717.2,74.806,372.542,-116.904,277.606,8013.4,-4359.28,-6.30928,-90.3667,4.15563,-3851.54,-10691.9,-1501.59,-33.4319,63.2346,-371.543,-2317.48,8494.97,-1644.06,-10.1684,-115.877,-120.917,-7916.38,-4413.77,-1136.7,51.8173,200.181,-174.705,4924.94,-71.1953,760.928,-101.766,1.77439,-41.1917
3.844,4345.56,-4747.44,7066.11,-46.2074,-4.69549,-47.3484,7687.98,2357.98,10769.4,74.9207,372.752,-116.697,256.328,8014.29,-4316.02,-6.78316,-90.3631,3.85944,-3902.18,-10730.4,-1531.85,-33.4649,61.5855,-372.076,-2383.03,8487.67,-1652.8,-10.2434,-115.856,-120.849,-7928.55,-4385.68,-1126.24,52.1336,199.363,-174.322,4934.39,-67.1004,730.6,-101.747,1.61602,-41.0665
3.8445,4377.25,-4683.54,7084.16,-45.8826,-4.39156,-47.9856,7774.66,2474.81,10818.1,75.0332,372.964,-116.512,235.829,8017.5,-4269.9,-7.21916,-90.3585,3.57863,-3943.48,-10771.5,-1558.26,-33.5125,59.9457,-372.628,-2447.13,8481.17,-1662.87,-10.3208,-115.818,-120.783,-7941.34,-4356.84,-1114.03,52.465,198.543,-173.931,4945.17,-64.0094,702.05,-101.754,1.46594,-40.9624
3.845,4384.94,-4663.74,7090.95,-45.5581,-4.03604,-48.7257,7833.99,2572.77,10838.3,75.1284,373.19,-116.496,221.566,8039.26,-4200.96,-7.35213,-90.3465,3.42093,-3910.03,-10833.8,-1553.88,-33.6768,58.3804,-373.335,-2499.73,8481.08,-1683.68,-10.4174,-115.644,-120.741,-7959.1,-4321.96,-1087.74,52.9179,197.706,-173.466,4966.64,-68.9504,687.732,-101.963,1.38222,-41.0273
3.8455,4392.63,-4643.93,7097.74,-45.2337,-3.68051,-49.4659,7893.32,2670.73,10858.6,75.2236,373.416,-116.48,207.304,8061.01,-4132.02,-7.48509,-90.3345,3.26322,-3876.58,-10896.2,-1549.5,-33.8411,56.8152,-374.042,-2552.33,8481.0,-1704.48,-10.5139,-115.469,-120.699,-7976.86,-4287.08,-1061.46,53.3709,196.869,-173.001,4988.1,-73.8915,673.414,-102.173,1.2985,-41.0922
3.846,4400.31,-4624.13,7104.53,-44.9092,-3.32498,-50.206,7952.65,2768.7,10878.8,75.3187,373.642,-116.464,193.042,8082.77,-4063.08,-7.61806,-90.3224,3.10552,-3843.13,-10958.5,-1545.11,-34.0054,55.2499,-374.749,-2604.93,8480.91,-1725.28,-10.6105,-115.295,-120.656,-7994.62,-4252.2,-1035.17,53.8238,196.032,-172.536,5009.57,-78.8325,659.095,-102.382,1.21478,-41.1572
3.8465,4408.0,-4604.33,7111.31,-44.5848,-2.96945,-50.9462,8011.97,2866.66,10899.1,75.4139,373.869,-116.448,178.779,8104.53,-3994.14,-7.75103,-90.3104,2.94781,-3809.68,-11020.9,-1540.73,-34.1697,53.6847,-375.456,-2657.53,8480.82,-1746.09,-10.7071,-115.12,-120.614,-8012.38,-4217.32,-1008.88,54.2767,195.195,-172.071,5031.03,-83.7736,644.777,-102.591,1.13106,-41.2221
3.847,4415.69,-4584.53,7118.1,-44.2603,-2.61392,-51.6863,8071.3,2964.63,10919.4,75.509,374.095,-116.431,164.517,8126.28,-3925.2,-7.88399,-90.2984,2.79011,-3776.23,-11083.2,-1536.35,-34.334,52.1194,-376.163,-2710.13,8480.73,-1766.89,-10.8037,-114.946,-120.572,-8030.13,-4182.44,-982.594,54.7296,194.358,-171.606,5052.5,-88.7146,630.458,-102.801,1.04734,-41.287
3.8475,4423.38,-4564.73,7124.89,-43.9359,-2.2584,-52.4265,8130.63,3062.59,10939.6,75.6042,374.321,-116.415,150.254,8148.04,-3856.26,-8.01696,-90.2864,2.63241,-3742.78,-11145.5,-1531.97,-34.4983,50.5542,-376.87,-2762.73,8480.64,-1787.69,-10.9003,-114.771,-120.53,-8047.89,-4147.55,-956.307,55.1826,193.521,-171.142,5073.96,-93.6557,616.14,-103.01,0.963617,-41.3519
3.848,4431.06,-4544.92,7131.68,-43.6115,-1.90287,-53.1666,8189.96,3160.56,10959.9,75.6993,374.547,-116.399,135.992,8169.79,-3787.31,-8.14992,-90.2744,2.4747,-3709.33,-11207.9,-1527.59,-34.6626,48.9889,-377.577,-2815.33,8480.55,-1808.5,-10.9969,-114.597,-120.488,-8065.65,-4112.67,-930.02,55.6355,192.684,-170.677,5095.43,-98.5967,601.821,-103.22,0.879896,-41.4168
3.8485,4438.75,-4525.12,7138.47,-43.287,-1.54734,-53.9068,8249.29,3258.52,10980.2,75.7945,374.773,-116.383,121.729,8191.55,-3718.37,-8.28289,-90.2623,2.317,-3675.89,-11270.2,-1523.21,-34.8269,47.4237,-378.284,-2867.93,8480.46,-1829.3,-11.0935,-114.422,-120.446,-8083.41,-4077.79,-903.732,56.0884,191.847,-170.212,5116.89,-103.538,587.503,-103.429,0.796175,-41.4817
3.849,4441.96,-4513.02,7140.06,-42.9234,-1.18368,-54.6431,8309.42,3353.0,11003.5,75.9057,374.996,-116.405,103.093,8209.74,-3655.42,-8.34695,-90.1928,2.20283,-3644.38,-11326.4,-1524.34,-35.0505,45.9253,-378.991,-2918.01,8484.55,-1850.43,-11.1973,-114.193,-120.389,-8103.76,-4043.83,-877.826,56.5614,191.03,-169.726,5137.67,-105.062,568.666,-103.642,0.746633,-41.5212
3.8495,4429.51,-4527.86,7123.49,-42.4229,-0.791535,-55.3659,8372.41,3435.27,11037.6,76.0728,375.207,-116.559,69.1464,8215.46,-3613.42,-8.16984,-89.9218,2.24103,-3619.67,-11361.0,-1544.77,-35.4821,44.6611,-379.695,-2959.27,8503.27,-1872.7,-11.3265,-113.772,-120.282,-8133.15,-4013.08,-853.251,57.1049,190.283,-169.167,5156.04,-94.6288,534.018,-103.865,0.816721,-41.4718
3.85,4417.06,-4542.7,7106.92,-41.9223,-0.399393,-56.0887,8435.39,3517.53,11071.6,76.24,375.417,-116.713,35.2002,8221.17,-3571.42,-7.99273,-89.6509,2.27922,-3594.97,-11395.5,-1565.2,-35.9137,43.3969,-380.4,-3000.53,8521.98,-1894.96,-11.4558,-113.351,-120.175,-8162.54,-3982.32,-828.676,57.6484,189.537,-168.608,5174.41,-84.1954,499.369,-104.088,0.886809,-41.4224
3.8505,4404.6,-4557.54,7090.35,-41.4218,-0.00725123,-56.8116,8498.37,3599.8,11105.7,76.4071,375.628,-116.868,1.25402,8226.89,-3529.42,-7.81562,-89.38,2.31742,-3570.26,-11430.1,-1585.63,-36.3452,42.1326,-381.105,-3041.79,8540.7,-1917.23,-11.585,-112.93,-120.068,-8191.93,-3951.57,-804.101,58.1918,188.79,-168.049,5192.79,-73.762,464.721,-104.311,0.956897,-41.373
3.851,4392.15,-4572.38,7073.78,-40.9212,0.384891,-57.5344,8561.35,3682.07,11139.7,76.5743,375.838,-117.022,-32.6922,8232.6,-3487.42,-7.63851,-89.109,2.35562,-3545.56,-11464.7,-1606.06,-36.7768,40.8684,-381.81,-3083.05,8559.42,-1939.5,-11.7142,-112.509,-119.962,-8221.33,-3920.82,-779.525,58.7353,188.043,-167.49,5211.16,-63.3285,430.072,-104.535,1.02698,-41.3236
3.8515,4379.7,-4587.22,7057.21,-40.4207,0.777032,-58.2572,8624.34,3764.34,11173.8,76.7414,376.049,-117.176,-66.6383,8238.32,-3445.42,-7.4614,-88.8381,2.39382,-3520.85,-11499.2,-1626.49,-37.2084,39.6042,-382.514,-3124.31,8578.13,-1961.76,-11.8434,-112.088,-119.855,-8250.72,-3890.07,-754.95,59.2788,187.296,-166.931,5229.53,-52.8951,395.424,-104.758,1.09707,-41.2742
3.852,4367.24,-4602.06,7040.64,-39.9201,1.16917,-58.98,8687.32,3846.61,11207.8,76.9086,376.26,-117.33,-100.585,8244.03,-3403.42,-7.28428,-88.5672,2.43202,-3496.15,-11533.8,-1646.92,-37.6399,38.34,-383.219,-3165.57,8596.85,-1984.03,-11.9727,-111.667,-119.748,-8280.11,-3859.31,-730.375,59.8223,186.549,-166.371,5247.91,-42.4616,360.775,-104.981,1.16716,-41.2248
3.8525,4354.79,-4616.9,7024.07,-39.4195,1.56132,-59.7029,8750.3,3928.88,11241.9,77.0758,376.47,-117.484,-134.531,8249.75,-3361.42,-7.10717,-88.2962,2.47022,-3471.44,-11568.3,-1667.34,-38.0715,37.0757,-383.924,-3206.84,8615.57,-2006.3,-12.1019,-111.246,-119.641,-8309.51,-3828.56,-705.8,60.3657,185.802,-165.812,5266.28,-32.0282,326.127,-105.204,1.23725,-41.1754
3.853,4342.34,-4631.74,7007.5,-38.919,1.95346,-60.4257,8813.28,4011.14,11275.9,77.2429,376.681,-117.639,-168.477,8255.46,-3319.42,-6.93006,-88.0253,2.50842,-3446.73,-11602.9,-1687.77,-38.5031,35.8115,-384.629,-3248.1,8634.29,-2028.57,-12.2311,-110.825,-119.534,-8338.9,-3797.81,-681.225,60.9092,185.056,-165.253,5284.65,-21.5948,291.478,-105.428,1.30734,-41.1259
3.8535,4330.96,-4646.71,6991.11,-38.3157,2.33395,-61.1308,8873.32,4063.7,11304.8,77.4896,376.881,-117.886,-195.901,8265.94,-3283.8,-6.72351,-87.7169,2.55038,-3418.7,-11643.9,-1706.02,-38.9572,34.7349,-385.321,-3289.12,8647.97,-2063.38,-12.3689,-110.249,-119.363,-8369.89,-3771.77,-658.428,61.3846,184.307,-164.631,5311.1,-13.4353,266.448,-105.616,1.41137,-41.0686
3.854,4321.72,-4661.93,6975.05,-37.507,2.69114,-61.8003,8927.46,4056.82,11323.4,77.8955,377.059,-118.319,-210.282,8285.92,-3260.96,-6.45806,-87.3335,2.59987,-3384.02,-11697.8,-1719.92,-39.4564,34.0337,-385.99,-3329.68,8651.57,-2123.27,-12.5239,-109.363,-119.066,-8404.09,-3755.18,-639.188,61.7238,183.556,-163.884,5353.71,-9.82384,260.655,-105.735,1.58328,-40.9953
3.8545,4312.49,-4677.15,6959.0,-36.6982,3.04834,-62.4698,8981.6,4049.94,11342.0,78.3013,377.237,-118.752,-224.663,8305.9,-3238.12,-6.19262,-86.9501,2.64937,-3349.34,-11751.7,-1733.81,-39.9556,33.3326,-386.658,-3370.24,8655.18,-2183.17,-12.6789,-108.477,-118.768,-8438.29,-3738.59,-619.948,62.0629,182.806,-163.136,5396.32,-6.21236,254.862,-105.854,1.75519,-40.9221
3.855,4303.26,-4692.37,6942.95,-35.8895,3.40553,-63.1393,9035.74,4043.06,11360.6,78.7071,377.415,-119.185,-239.044,8325.89,-3215.27,-5.92718,-86.5668,2.69886,-3314.66,-11805.6,-1747.7,-40.4548,32.6314,-387.327,-3410.8,8658.79,-2243.06,-12.8339,-107.591,-118.47,-8472.48,-3722.0,-600.708,62.4021,182.055,-162.389,5438.93,-2.60088,249.069,-105.973,1.9271,-40.8489
3.8555,4294.03,-4707.59,6926.9,-35.0808,3.76272,-63.8089,9089.88,4036.18,11379.2,79.1129,377.593,-119.618,-253.425,8345.87,-3192.43,-5.66173,-86.1834,2.74835,-3279.98,-11859.5,-1761.59,-40.954,31.9302,-387.995,-3451.36,8662.39,-2302.96,-12.9889,-106.705,-118.172,-8506.68,-3705.41,-581.467,62.7413,181.304,-161.641,5481.53,1.01059,243.276,-106.092,2.09902,-40.7756
3.856,4284.8,-4722.81,6910.85,-34.272,4.11992,-64.4784,9144.02,4029.3,11397.7,79.5188,377.771,-120.051,-267.806,8365.85,-3169.59,-5.39629,-85.8,2.79785,-3245.29,-11913.4,-1775.48,-41.4532,31.229,-388.664,-3491.92,8666.0,-2362.85,-13.1439,-105.819,-117.875,-8540.87,-3688.82,-562.227,63.0805,180.553,-160.894,5524.14,4.62207,237.483,-106.211,2.27093,-40.7024
3.8565,4275.56,-4738.03,6894.8,-33.4633,4.47711,-65.1479,9198.16,4022.43,11416.3,79.9246,377.949,-120.484,-282.186,8385.84,-3146.74,-5.13085,-85.4166,2.84734,-3210.61,-11967.3,-1789.37,-41.9524,30.5278,-389.332,-3532.48,8669.61,-2422.75,-13.2989,-104.933,-117.577,-8575.07,-3672.23,-542.987,63.4197,179.802,-160.146,5566.75,8.23355,231.69,-106.33,2.44284,-40.6291
3.857,4266.33,-4753.25,6878.74,-32.6546,4.8343,-65.8175,9252.3,4015.55,11434.9,80.3304,378.127,-120.917,-296.567,8405.82,-3123.9,-4.86541,-85.0332,2.89683,-3175.93,-12021.2,-1803.26,-42.4516,29.8267,-390.001,-3573.03,8673.21,-2482.65,-13.4539,-104.047,-117.279,-8609.26,-3655.64,-523.747,63.7589,179.051,-159.399,5609.36,11.845,225.897,-106.449,2.61476,-40.5559
3.8575,4257.1,-4768.47,6862.69,-31.8458,5.1915,-66.487,9306.44,4008.67,11453.5,80.7363,378.305,-121.35,-310.948,8425.8,-3101.06,-4.59996,-84.6499,2.94632,-3141.25,-12075.1,-1817.16,-42.9508,29.1255,-390.669,-3613.59,8676.82,-2542.54,-13.6089,-103.161,-116.981,-8643.46,-3639.05,-504.506,64.0981,178.3,-158.651,5651.96,15.4565,220.103,-106.568,2.78667,-40.4826
3.858,4254.6,-4778.82,6844.88,-30.9192,5.51583,-67.1262,9346.74,3983.1,11483.5,81.1347,378.323,-121.888,-299.811,8442.65,-3085.35,-4.39466,-84.2545,2.94959,-3092.41,-12131.7,-1826.61,-43.5185,28.6683,-391.287,-3656.22,8675.5,-2595.24,-13.7266,-102.117,-116.711,-8674.88,-3622.9,-479.433,64.4791,177.479,-157.927,5697.37,19.345,203.073,-106.614,2.97817,-40.4697
3.8585,4260.5,-4783.09,6824.86,-29.8451,5.79909,-67.7276,9369.74,3934.16,11527.8,81.5237,378.143,-122.556,-256.776,8455.58,-3078.58,-4.26452,-83.8443,2.89507,-3025.87,-12191.6,-1830.52,-44.1718,28.5162,-391.841,-3701.43,8668.04,-2638.93,-13.7975,-100.875,-116.475,-8702.84,-3607.3,-447.069,64.9126,176.571,-157.233,5746.28,23.5797,171.997,-106.568,3.19414,-40.532
3.859,4266.41,-4787.35,6804.83,-28.771,6.08235,-68.329,9392.74,3885.22,11572.1,81.9128,377.962,-123.224,-213.74,8468.5,-3071.8,-4.13439,-83.434,2.84056,-2959.33,-12251.5,-1834.42,-44.825,28.3641,-392.395,-3746.65,8660.57,-2682.62,-13.8685,-99.6329,-116.239,-8730.81,-3591.71,-414.704,65.346,175.663,-156.538,5795.19,27.8144,140.92,-106.522,3.41012,-40.5943
3.8595,4272.31,-4791.61,6784.81,-27.697,6.36561,-68.9303,9415.74,3836.28,11616.4,82.3019,377.782,-123.893,-170.705,8481.43,-3065.02,-4.00426,-83.0238,2.78604,-2892.79,-12311.4,-1838.33,-45.4783,28.212,-392.949,-3791.86,8653.1,-2726.31,-13.9395,-98.3911,-116.002,-8758.77,-3576.11,-382.34,65.7794,174.755,-155.843,5844.1,32.0491,109.843,-106.476,3.62609,-40.6566
3.86,4278.22,-4795.88,6764.79,-26.6229,6.64887,-69.5317,9438.74,3787.34,11660.7,82.691,377.601,-124.561,-127.67,8494.35,-3058.24,-3.87413,-82.6135,2.73153,-2826.25,-12371.4,-1842.24,-46.1316,28.0598,-393.502,-3837.07,8645.64,-2770.0,-14.0104,-97.1492,-115.766,-8786.72,-3560.51,-349.975,66.2129,173.847,-155.149,5893.01,36.2837,78.7664,-106.43,3.84207,-40.719
3.8605,4284.13,-4800.14,6744.77,-25.5488,6.93213,-70.1331,9461.74,3738.4,11705.0,83.0801,377.42,-125.23,-84.6349,8507.28,-3051.46,-3.74399,-82.2033,2.67701,-2759.71,-12431.3,-1846.14,-46.7849,27.9077,-394.056,-3882.28,8638.17,-2813.7,-14.0814,-95.9074,-115.53,-8814.68,-3544.92,-317.611,66.6463,172.939,-154.454,5941.92,40.5184,47.6897,-106.384,4.05804,-40.7813
3.861,4290.03,-4804.4,6724.75,-24.4748,7.21539,-70.7345,9484.74,3689.46,11749.3,83.4692,377.24,-125.898,-41.5998,8520.21,-3044.69,-3.61386,-81.793,2.6225,-2693.17,-12491.2,-1850.05,-47.4381,27.7556,-394.61,-3927.5,8630.7,-2857.39,-14.1523,-94.6656,-115.294,-8842.64,-3529.32,-285.246,67.0797,172.031,-153.759,5990.83,44.7531,16.613,-106.338,4.27402,-40.8436
3.8615,4295.94,-4808.67,6704.73,-23.4007,7.49865,-71.3358,9507.74,3640.52,11793.6,83.8583,377.059,-126.566,1.43537,8533.13,-3037.91,-3.48373,-81.3828,2.56798,-2626.63,-12551.2,-1853.96,-48.0914,27.6035,-395.164,-3972.71,8623.23,-2901.08,-14.2233,-93.4237,-115.058,-8870.61,-3513.73,-252.882,67.5131,171.123,-153.065,6039.74,48.9878,-14.4637,-106.292,4.49,-40.9059
3.862,4301.85,-4812.93,6684.71,-22.3266,7.78191,-71.9372,9530.74,3591.58,11837.9,84.2473,376.879,-127.235,44.4705,8546.06,-3031.13,-3.35359,-80.9725,2.51347,-2560.09,-12611.1,-1857.87,-48.7447,27.4514,-395.718,-4017.92,8615.77,-2944.77,-14.2943,-92.1819,-114.821,-8898.57,-3498.13,-220.517,67.9466,170.214,-152.37,6088.65,53.2225,-45.5405,-106.246,4.70597,-40.9683
3.8625,4316.14,-4817.02,6664.93,-21.228,8.00662,-72.4575,9546.45,3556.76,11886.3,84.4941,376.539,-127.912,84.7142,8555.4,-3031.11,-3.25055,-80.4709,2.38665,-2507.85,-12653.5,-1872.8,-49.4388,27.5511,-396.184,-4017.26,8612.33,-2972.75,-14.4963,-91.0426,-114.796,-8916.22,-3479.74,-174.073,68.3968,169.196,-151.616,6159.1,63.8962,-71.4233,-106.25,5.01554,-40.9365
3.863,4337.15,-4820.98,6645.34,-20.1096,8.18449,-72.9128,9556.31,3533.25,11938.1,84.6269,376.072,-128.596,122.725,8561.86,-3036.48,-3.16918,-79.8961,2.202,-2467.07,-12682.0,-1896.54,-50.1657,27.8524,-396.579,-3979.9,8612.11,-2988.15,-14.8031,-89.9855,-114.938,-8925.62,-3459.1,-116.366,68.8605,168.09,-150.816,6246.8,79.721,-93.1511,-106.296,5.39999,-40.8295
3.8635,4358.15,-4824.94,6625.75,-18.9913,8.36236,-73.3682,9566.17,3509.73,11989.9,84.7598,375.604,-129.279,160.735,8568.33,-3041.86,-3.08781,-79.3213,2.01734,-2426.29,-12710.5,-1920.29,-50.8926,28.1537,-396.974,-3942.54,8611.9,-3003.55,-15.11,-88.9283,-115.081,-8935.03,-3438.47,-58.6584,69.3242,166.984,-150.015,6334.49,95.5458,-114.879,-106.341,5.78445,-40.7225
3.864,4379.16,-4828.9,6606.16,-17.8729,8.54023,-73.8235,9576.03,3486.22,12041.7,84.8927,375.137,-129.963,198.746,8574.8,-3047.24,-3.00644,-78.7465,1.83269,-2385.5,-12739.0,-1944.04,-51.6195,28.455,-397.37,-3905.18,8611.68,-3018.94,-15.4169,-87.8711,-115.223,-8944.43,-3417.83,-0.951034,69.7879,165.878,-149.214,6422.19,111.371,-136.607,-106.387,6.1689,-40.6155
3.8645,4400.16,-4832.85,6586.57,-16.7546,8.7181,-74.2789,9585.89,3462.7,12093.5,85.0255,374.67,-130.647,236.756,8581.27,-3052.62,-2.92507,-78.1717,1.64804,-2344.72,-12767.4,-1967.78,-52.3464,28.7563,-397.765,-3867.82,8611.47,-3034.34,-15.7237,-86.814,-115.366,-8953.84,-3397.2,56.7563,70.2517,164.772,-148.413,6509.88,127.195,-158.334,-106.432,6.55335,-40.5085
3.865,4421.17,-4836.81,6566.99,-15.6362,8.89598,-74.7343,9595.75,3439.19,12145.3,85.1584,374.202,-131.331,274.767,8587.74,-3057.99,-2.84371,-77.5969,1.46338,-2303.94,-12795.9,-1991.53,-53.0733,29.0575,-398.16,-3830.46,8611.26,-3049.74,-16.0306,-85.7568,-115.508,-8963.24,-3376.56,114.464,70.7154,163.666,-147.612,6597.58,143.02,-180.062,-106.478,6.9378,-40.4014
3.8655,4442.17,-4840.77,6547.4,-14.5179,9.07385,-75.1896,9605.61,3415.68,12197.1,85.2912,373.735,-132.015,312.778,8594.2,-3063.37,-2.76234,-77.0221,1.27873,-2263.15,-12824.4,-2015.28,-53.8002,29.3588,-398.556,-3793.1,8611.04,-3065.14,-16.3374,-84.6997,-115.651,-8972.65,-3355.93,172.171,71.1791,162.56,-146.812,6685.27,158.845,-201.79,-106.523,7.32225,-40.2944
3.866,4463.18,-4844.73,6527.81,-13.3996,9.25172,-75.645,9615.48,3392.16,12248.9,85.4241,373.268,-132.699,350.788,8600.67,-3068.75,-2.68097,-76.4473,1.09407,-2222.37,-12852.9,-2039.03,-54.5271,29.6601,-398.951,-3755.74,8610.83,-3080.54,-16.6443,-83.6425,-115.794,-8982.05,-3335.29,229.878,71.6428,161.454,-146.011,6772.97,174.67,-223.518,-106.569,7.7067,-40.1874
3.8665,4484.18,-4848.68,6508.22,-12.2812,9.42959,-76.1004,9625.34,3368.65,12300.7,85.557,372.8,-133.383,388.799,8607.14,-3074.13,-2.5996,-75.8725,0.909419,-2181.59,-12881.3,-2062.77,-55.254,29.9614,-399.346,-3718.38,8610.61,-3095.94,-16.9512,-82.5853,-115.936,-8991.46,-3314.66,287.586,72.1065,160.348,-145.21,6860.66,190.495,-245.246,-106.614,8.09115,-40.0804
3.867,4501.57,-4820.29,6501.9,-11.2335,9.56227,-76.3503,9655.33,3369.57,12338.7,85.6037,372.304,-134.102,413.829,8614.23,-3080.45,-2.5551,-75.2996,0.712625,-2152.45,-12914.0,-2065.96,-56.0064,30.3821,-399.68,-3661.16,8615.01,-3097.91,-17.3136,-81.599,-116.101,-8998.63,-3300.1,342.028,72.5476,159.151,-144.462,6952.49,205.597,-274.05,-106.962,8.6065,-40.0964
3.8675,4517.15,-4775.72,6502.22,-10.221,9.67235,-76.4976,9695.39,3382.71,12369.7,85.6072,371.794,-134.84,432.371,8621.63,-3087.24,-2.52903,-74.7277,0.50976,-2129.14,-12948.8,-2058.87,-56.7717,30.8626,-399.982,-3594.02,8621.7,-3093.16,-17.7037,-80.648,-116.278,-9004.68,-3288.59,394.838,72.9773,157.909,-143.741,7046.4,220.339,-306.392,-107.46,9.1873,-40.1739
3.868,4532.73,-4731.16,6502.54,-9.20862,9.78243,-76.6448,9735.45,3395.86,12400.8,85.6109,371.284,-135.578,450.912,8629.02,-3094.04,-2.50297,-74.1558,0.306895,-2105.83,-12983.6,-2051.79,-57.537,31.3431,-400.284,-3526.88,8628.4,-3088.42,-18.0938,-79.697,-116.455,-9010.73,-3277.07,447.647,73.407,156.667,-143.02,7140.3,235.08,-338.734,-107.958,9.7681,-40.2514
3.8685,4548.3,-4686.59,6502.85,-8.1962,9.89252,-76.7921,9775.51,3409.0,12431.8,85.6145,370.773,-136.316,469.453,8636.42,-3100.83,-2.4769,-73.5839,0.10403,-2082.52,-13018.4,-2044.7,-58.3022,31.8235,-400.587,-3459.73,8635.1,-3083.67,-18.484,-78.746,-116.631,-9016.78,-3265.56,500.457,73.8367,155.424,-142.299,7234.2,249.821,-371.076,-108.456,10.3489,-40.3289
3.869,4563.88,-4642.02,6503.17,-7.18377,10.0026,-76.9393,9815.57,3422.14,12462.8,85.6181,370.263,-137.053,487.994,8643.82,-3107.63,-2.45084,-73.012,-0.0988349,-2059.21,-13053.2,-2037.61,-59.0675,32.304,-400.889,-3392.59,8641.8,-3078.93,-18.8741,-77.795,-116.808,-9022.83,-3254.04,553.267,74.2664,154.182,-141.578,7328.11,264.563,-403.418,-108.954,10.9297,-40.4065
3.8695,4579.46,-4597.45,6503.49,-6.17134,10.1127,-77.0866,9855.63,3435.29,12493.8,85.6217,369.752,-137.791,506.535,8651.22,-3114.42,-2.42477,-72.4401,-0.3017,-2035.89,-13088.0,-2030.52,-59.8328,32.7845,-401.191,-3325.44,8648.5,-3074.18,-19.2643,-76.844,-116.985,-9028.88,-3242.53,606.076,74.6961,152.94,-140.857,7422.01,279.304,-435.76,-109.453,11.5105,-40.484
3.87,4595.04,-4552.89,6503.8,-5.15892,10.2228,-77.2338,9895.69,3448.43,12524.9,85.6253,369.242,-138.529,525.076,8658.62,-3121.22,-2.39871,-71.8682,-0.504565,-2012.58,-13122.8,-2023.43,-60.598,33.2649,-401.494,-3258.3,8655.19,-3069.44,-19.6544,-75.893,-117.161,-9034.93,-3231.01,658.886,75.1258,151.697,-140.136,7515.91,294.045,-468.102,-109.951,12.0913,-40.5615
3.8705,4610.62,-4508.32,6504.12,-4.14649,10.3328,-77.3811,9935.75,3461.57,12555.9,85.6289,368.732,-139.266,543.617,8666.02,-3128.01,-2.37264,-71.2963,-0.70743,-1989.27,-13157.6,-2016.34,-61.3633,33.7454,-401.796,-3191.15,8661.89,-3064.69,-20.0445,-74.9421,-117.338,-9040.98,-3219.5,711.695,75.5555,150.455,-139.415,7609.81,308.787,-500.444,-110.449,12.6721,-40.639
3.871,4626.19,-4463.75,6504.44,-3.13406,10.4429,-77.5283,9975.81,3474.72,12586.9,85.6325,368.221,-140.004,562.158,8673.41,-3134.81,-2.34658,-70.7243,-0.910294,-1965.96,-13192.4,-2009.26,-62.1286,34.2259,-402.099,-3124.01,8668.59,-3059.95,-20.4347,-73.9911,-117.514,-9047.03,-3207.98,764.505,75.9852,149.213,-138.694,7703.72,323.528,-532.786,-110.947,13.2529,-40.7165
3.8715,4657.63,-4375.7,6527.59,-2.39611,10.5077,-77.3727,10041.3,3494.39,12606.8,85.6485,367.73,-140.993,567.934,8675.26,-3118.26,-2.27722,-70.2979,-1.08976,-1959.02,-13241.4,-2000.67,-62.8914,34.7256,-402.268,-3046.61,8659.88,-3058.86,-20.7354,-73.2438,-117.74,-9061.96,-3196.34,816.252,76.4248,147.889,-137.933,7688.15,330.917,-558.364,-111.834,13.8384,-40.8625
3.872,4693.59,-4275.23,6557.27,-1.73658,10.5596,-77.1305,10114.1,3515.94,12623.5,85.6681,367.245,-142.053,570.063,8675.52,-3095.04,-2.19548,-69.913,-1.26255,-1956.76,-13294.5,-1991.65,-63.6535,35.2309,-402.399,-2966.29,8646.76,-3058.82,-21.0107,-72.5547,-117.98,-9079.42,-3184.67,867.694,76.8672,146.541,-137.159,7641.3,336.205,-582.009,-112.833,14.4252,-41.028
3.8725,4729.55,-4174.75,6586.95,-1.07706,10.6115,-76.8883,10186.9,3537.48,12640.1,85.6877,366.76,-143.113,572.193,8675.78,-3071.82,-2.11375,-69.5281,-1.43534,-1954.49,-13347.6,-1982.63,-64.4156,35.7362,-402.53,-2885.97,8633.65,-3058.78,-21.2859,-71.8656,-118.22,-9096.89,-3173.0,919.137,77.3096,145.194,-136.386,7594.46,341.493,-605.654,-113.831,15.012,-41.1936
3.873,4765.51,-4074.28,6616.63,-0.417527,10.6634,-76.6461,10259.7,3559.03,12656.8,85.7074,366.275,-144.174,574.322,8676.05,-3048.6,-2.03202,-69.1432,-1.60812,-1952.23,-13400.7,-1973.62,-65.1776,36.2415,-402.661,-2805.65,8620.54,-3058.75,-21.5611,-71.1765,-118.46,-9114.35,-3161.33,970.58,77.752,143.847,-135.613,7547.61,346.781,-629.298,-114.829,15.5988,-41.3591
3.8735,4801.47,-3973.81,6646.31,0.242001,10.7153,-76.4039,10332.5,3580.57,12673.5,85.727,365.789,-145.234,576.451,8676.31,-3025.39,-1.95029,-68.7583,-1.78091,-1949.97,-13453.8,-1964.6,-65.9397,36.7467,-402.792,-2725.33,8607.43,-3058.71,-21.8363,-70.4874,-118.7,-9131.82,-3149.65,1022.02,78.1944,142.5,-134.839,7500.76,352.069,-652.943,-115.827,16.1856,-41.5247
3.874,4837.43,-3873.33,6675.99,0.90153,10.7672,-76.1617,10405.3,3602.12,12690.2,85.7466,365.304,-146.294,578.581,8676.57,-3002.17,-1.86856,-68.3734,-1.95369,-1947.7,-13506.9,-1955.58,-66.7018,37.252,-402.923,-2645.01,8594.31,-3058.67,-22.1115,-69.7983,-118.94,-9149.28,-3137.98,1073.47,78.6368,141.152,-134.066,7453.92,357.357,-676.588,-116.826,16.7724,-41.6902
3.8745,4873.4,-3772.86,6705.67,1.56106,10.819,-75.9196,10478.1,3623.66,12706.8,85.7662,364.819,-147.354,580.71,8676.83,-2978.95,-1.78682,-67.9885,-2.12648,-1945.44,-13560.0,-1946.57,-67.4639,37.7573,-403.054,-2564.69,8581.2,-3058.63,-22.3867,-69.1092,-119.179,-9166.75,-3126.31,1124.91,79.0792,139.805,-133.293,7407.07,362.645,-700.233,-117.824,17.3592,-41.8558
3.875,4909.36,-3672.38,6735.35,2.22059,10.8709,-75.6774,10550.9,3645.21,12723.5,85.7858,364.333,-148.415,582.839,8677.09,-2955.73,-1.70509,-67.6036,-2.29926,-1943.18,-13613.1,-1937.55,-68.226,38.2626,-403.185,-2484.37,8568.09,-3058.59,-22.6619,-68.4201,-119.419,-9184.21,-3114.64,1176.35,79.5216,138.458,-132.519,7360.22,367.933,-723.878,-118.822,17.946,-42.0213
3.8755,4945.32,-3571.91,6765.02,2.88012,10.9228,-75.4352,10623.7,3666.75,12740.2,85.8054,363.848,-149.475,584.968,8677.35,-2932.51,-1.62336,-67.2187,-2.47205,-1940.92,-13666.2,-1928.53,-68.9881,38.7679,-403.317,-2404.04,8554.97,-3058.55,-22.9372,-67.731,-119.659,-9201.67,-3102.96,1227.79,79.964,137.11,-131.746,7313.37,373.221,-747.523,-119.82,18.5328,-42.1868
3.876,4998.85,-3469.38,6789.29,3.3138,11.0058,-74.9735,10689.6,3712.07,12786.2,85.6805,363.244,-150.532,539.194,8695.46,-2874.03,-1.72405,-67.3286,-2.57472,-1930.11,-13722.4,-1935.52,-69.6643,39.32,-403.303,-2306.41,8534.2,-3076.31,-23.0883,-67.2617,-119.907,-9220.43,-3090.71,1290.66,80.3459,135.446,-131.123,7272.62,365.855,-751.027,-120.522,18.736,-42.1667
3.8765,5054.58,-3366.59,6812.88,3.71926,11.0927,-74.4844,10754.7,3760.36,12836.0,85.5376,362.626,-151.588,487.432,8715.79,-2811.14,-1.84754,-67.5002,-2.66863,-1918.25,-13779.0,-1944.51,-70.3297,39.878,-403.271,-2206.61,8512.48,-3096.29,-23.224,-66.8198,-120.156,-9239.34,-3078.39,1354.96,80.7202,133.742,-130.52,7232.62,356.907,-752.013,-121.187,18.8913,-42.1234
3.877,5110.31,-3263.8,6836.48,4.12472,11.1796,-73.9952,10819.8,3808.64,12885.7,85.3947,362.007,-152.644,435.67,8736.12,-2748.26,-1.97104,-67.6719,-2.76254,-1906.38,-13835.7,-1953.51,-70.9951,40.436,-403.239,-2106.81,8490.76,-3116.28,-23.3597,-66.378,-120.405,-9258.25,-3066.07,1419.26,81.0946,132.038,-129.916,7192.63,347.959,-753.0,-121.852,19.0466,-42.0801
3.8775,5166.04,-3161.01,6860.07,4.53018,11.2664,-73.5061,10884.9,3856.93,12935.4,85.2518,361.389,-153.701,383.908,8756.45,-2685.37,-2.09453,-67.8435,-2.85646,-1894.51,-13892.3,-1962.5,-71.6605,40.994,-403.207,-2007.02,8469.03,-3136.26,-23.4953,-65.9361,-120.654,-9277.17,-3053.75,1483.56,81.4689,130.334,-129.313,7152.63,339.011,-753.986,-122.518,19.2018,-42.0367
3.878,5221.76,-3058.22,6883.66,4.93564,11.3533,-73.0169,10950.0,3905.22,12985.1,85.1088,360.77,-154.757,332.147,8776.79,-2622.48,-2.21802,-68.0151,-2.95037,-1882.64,-13948.9,-1971.49,-72.3259,41.552,-403.175,-1907.22,8447.31,-3156.24,-23.631,-65.4942,-120.903,-9296.08,-3041.43,1547.86,81.8433,128.63,-128.709,7112.64,330.063,-754.973,-123.183,19.3571,-41.9934
3.8785,5277.49,-2955.44,6907.25,5.34109,11.4402,-72.5278,11015.0,3953.51,13034.9,84.9659,360.152,-155.814,280.385,8797.12,-2559.59,-2.34152,-68.1868,-3.04428,-1870.77,-14005.6,-1980.48,-72.9913,42.11,-403.143,-1807.42,8425.58,-3176.22,-23.7667,-65.0524,-121.151,-9315.0,-3029.11,1612.16,82.2176,126.926,-128.106,7072.64,321.115,-755.959,-123.848,19.5124,-41.9501
3.879,5333.22,-2852.65,6930.84,5.74655,11.5271,-72.0387,11080.1,4001.79,13084.6,84.823,359.533,-156.87,228.623,8817.45,-2496.7,-2.46501,-68.3584,-3.13819,-1858.9,-14062.2,-1989.47,-73.6567,42.6681,-403.112,-1707.62,8403.86,-3196.21,-23.9024,-64.6105,-121.4,-9333.91,-3016.79,1676.46,82.592,125.223,-127.502,7032.65,312.167,-756.946,-124.513,19.6677,-41.9067
3.8795,5388.95,-2749.86,6954.44,6.15201,11.614,-71.5495,11145.2,4050.08,13134.3,84.6801,358.915,-157.926,176.861,8837.78,-2433.81,-2.5885,-68.5301,-3.2321,-1847.03,-14118.8,-1998.47,-74.3221,43.2261,-403.08,-1607.82,8382.14,-3216.19,-24.038,-64.1686,-121.649,-9352.83,-3004.47,1740.76,82.9663,123.519,-126.899,6992.65,303.219,-757.932,-125.178,19.8229,-41.8634
3.88,5444.68,-2647.07,6978.03,6.55747,11.7008,-71.0604,11210.3,4098.37,13184.0,84.5371,358.296,-158.983,125.099,8858.11,-2370.93,-2.712,-68.7017,-3.32601,-1835.17,-14175.5,-2007.46,-74.9875,43.7841,-403.048,-1508.03,8360.41,-3236.17,-24.1737,-63.7268,-121.898,-9371.74,-2992.15,1805.06,83.3407,121.815,-126.295,6952.66,294.271,-758.919,-125.843,19.9782,-41.8201
3.8805,5480.56,-2580.35,7012.75,6.81889,11.78,-70.649,11261.6,4100.48,13239.9,84.4164,357.519,-160.022,29.823,8897.03,-2318.62,-2.98552,-69.1721,-3.45329,-1857.45,-14252.0,-2023.76,-75.5603,44.5756,-402.922,-1389.37,8351.34,-3251.17,-24.0288,-63.2435,-122.078,-9374.71,-2987.01,1864.44,83.4751,119.586,-125.904,6971.32,298.211,-760.089,-125.575,19.9526,-41.8474
3.881,5516.44,-2513.62,7047.48,7.08032,11.8591,-70.2376,11312.9,4102.6,13295.8,84.2957,356.741,-161.062,-65.4528,8935.96,-2266.3,-3.25905,-69.6424,-3.58057,-1879.74,-14328.5,-2040.07,-76.133,45.3671,-402.797,-1270.71,8342.26,-3266.17,-23.8838,-62.7602,-122.258,-9377.68,-2981.88,1923.82,83.6096,117.357,-125.514,6989.99,302.15,-761.26,-125.307,19.927,-41.8747
3.8815,5552.32,-2446.9,7082.21,7.34174,11.9382,-69.8263,11364.1,4104.72,13351.7,84.1749,355.964,-162.101,-160.729,8974.88,-2213.99,-3.53257,-70.1127,-3.70786,-1902.02,-14405.0,-2056.38,-76.7058,46.1587,-402.672,-1152.06,8333.19,-3281.17,-23.7389,-62.2769,-122.438,-9380.64,-2976.74,1983.2,83.744,115.128,-125.123,7008.65,306.09,-762.431,-125.039,19.9013,-41.902
3.882,5588.2,-2380.18,7116.93,7.60317,12.0174,-69.4149,11415.4,4106.83,13407.6,84.0542,355.186,-163.141,-256.004,9013.8,-2161.68,-3.8061,-70.583,-3.83514,-1924.31,-14481.4,-2072.69,-77.2786,46.9502,-402.546,-1033.4,8324.12,-3296.17,-23.5939,-61.7936,-122.618,-9383.61,-2971.61,2042.58,83.8785,112.898,-124.732,7027.31,310.029,-763.601,-124.771,19.8757,-41.9293
3.8825,5624.09,-2313.45,7151.66,7.86459,12.0965,-69.0035,11466.7,4108.95,13463.5,83.9334,354.409,-164.18,-351.28,9052.72,-2109.37,-4.07963,-71.0534,-3.96242,-1946.59,-14557.9,-2088.99,-77.8513,47.7417,-402.421,-914.742,8315.05,-3311.17,-23.449,-61.3103,-122.798,-9386.58,-2966.47,2101.96,84.013,110.669,-124.341,7045.98,313.969,-764.772,-124.503,19.8501,-41.9566
3.883,5659.97,-2246.73,7186.39,8.12602,12.1756,-68.5922,11518.0,4111.06,13519.4,83.8127,353.631,-165.219,-446.556,9091.64,-2057.06,-4.35315,-71.5237,-4.0897,-1968.88,-14634.4,-2105.3,-78.4241,48.5333,-402.295,-796.085,8305.97,-3326.17,-23.3041,-60.827,-122.977,-9389.55,-2961.34,2161.34,84.1474,108.44,-123.95,7064.64,317.909,-765.942,-124.234,19.8245,-41.9839
3.8835,5695.85,-2180.0,7221.11,8.38745,12.2548,-68.1808,11569.3,4113.18,13575.3,83.6919,352.854,-166.259,-541.832,9130.56,-2004.75,-4.62668,-71.994,-4.21698,-1991.16,-14710.9,-2121.61,-78.9968,49.3248,-402.17,-677.428,8296.9,-3341.16,-23.1591,-60.3437,-123.157,-9392.51,-2956.2,2220.72,84.2819,106.211,-123.56,7083.3,321.848,-767.113,-123.966,19.7989,-42.0112
3.884,5731.73,-2113.28,7255.84,8.64887,12.3339,-67.7694,11620.5,4115.29,13631.2,83.5712,352.076,-167.298,-637.108,9169.48,-1952.44,-4.90021,-72.4643,-4.34426,-2013.45,-14787.4,-2137.91,-79.5696,50.1163,-402.044,-558.771,8287.83,-3356.16,-23.0142,-59.8604,-123.337,-9395.48,-2951.07,2280.1,84.4163,103.982,-123.169,7101.97,325.788,-768.284,-123.698,19.7732,-42.0385
3.8845,5763.88,-2052.67,7290.82,8.89466,12.4051,-67.3748,11669.9,4115.54,13687.6,83.4632,351.297,-168.338,-731.5,9210.28,-1902.82,-5.17968,-72.9462,-4.46087,-2035.45,-14864.7,-2154.59,-80.1517,50.9231,-401.927,-444.693,8279.24,-3370.21,-22.8315,-59.3584,-123.509,-9397.41,-2946.73,2338.76,84.5079,101.703,-122.799,7125.71,328.987,-769.398,-123.444,19.7616,-42.0853
3.885,5766.16,-2040.95,7327.8,9.01538,12.4129,-67.1143,11703.6,4100.87,13748.3,83.4571,350.502,-169.377,-818.82,9266.12,-1874.74,-5.50675,-73.5204,-4.49209,-2055.19,-14948.6,-2174.19,-80.809,51.8516,-401.87,-367.238,8274.49,-3376.68,-22.3465,-58.7069,-123.617,-9391.01,-2948.76,2391.72,84.256,99.0216,-122.59,7190.1,326.261,-770.063,-123.303,19.8619,-42.2873
3.8855,5768.44,-2029.24,7364.79,9.1361,12.4207,-66.8538,11737.4,4086.19,13809.0,83.451,349.708,-170.417,-906.141,9321.96,-1846.66,-5.83382,-74.0946,-4.52331,-2074.92,-15032.5,-2193.79,-81.4663,52.7801,-401.813,-289.783,8269.75,-3383.14,-21.8616,-58.0554,-123.726,-9384.6,-2950.79,2444.68,84.0041,96.3404,-122.382,7254.48,323.536,-770.728,-123.161,19.9622,-42.4893
3.886,5770.72,-2017.52,7401.77,9.25682,12.4285,-66.5933,11771.1,4071.52,13869.7,83.4448,348.913,-171.456,-993.461,9377.81,-1818.58,-6.16089,-74.6688,-4.55453,-2094.66,-15116.3,-2213.39,-82.1235,53.7087,-401.757,-212.329,8265.0,-3389.61,-21.3767,-57.4038,-123.834,-9378.2,-2952.82,2497.63,83.7522,93.6592,-122.174,7318.87,320.81,-771.394,-123.019,20.0624,-42.6914
3.8865,5773.0,-2005.8,7438.75,9.37754,12.4363,-66.3328,11804.8,4056.84,13930.3,83.4387,348.119,-172.496,-1080.78,9433.65,-1790.5,-6.48795,-75.243,-4.58575,-2114.4,-15200.2,-2232.99,-82.7808,54.6372,-401.7,-134.874,8260.26,-3396.07,-20.8917,-56.7523,-123.942,-9371.8,-2954.86,2550.59,83.5003,90.978,-121.966,7383.25,318.085,-772.059,-122.877,20.1627,-42.8934
3.887,5775.28,-1994.09,7475.74,9.49827,12.4441,-66.0723,11838.6,4042.17,13991.0,83.4326,347.324,-173.535,-1168.1,9489.49,-1762.42,-6.81502,-75.8172,-4.61697,-2134.14,-15284.0,-2252.59,-83.4381,55.5657,-401.643,-57.4196,8255.51,-3402.54,-20.4068,-56.1008,-124.05,-9365.39,-2956.89,2603.54,83.2484,88.2968,-121.758,7447.63,315.359,-772.724,-122.735,20.263,-43.0955
3.8875,5777.56,-1982.37,7512.72,9.61899,12.452,-65.8118,11872.3,4027.49,14051.7,83.4265,346.53,-174.575,-1255.42,9545.33,-1734.34,-7.14209,-76.3914,-4.64819,-2153.88,-15367.9,-2272.19,-84.0953,56.4942,-401.587,20.035,8250.77,-3409.0,-19.9219,-55.4493,-124.159,-9358.99,-2958.92,2656.5,82.9965,85.6155,-121.55,7512.02,312.633,-773.389,-122.594,20.3632,-43.2975
3.888,5779.85,-1970.66,7549.71,9.73971,12.4598,-65.5513,11906.1,4012.81,14112.4,83.4203,345.735,-175.614,-1342.74,9601.18,-1706.26,-7.46916,-76.9656,-4.67941,-2173.61,-15451.8,-2291.79,-84.7526,57.4228,-401.53,97.4896,8246.03,-3415.47,-19.4369,-54.7977,-124.267,-9352.59,-2960.95,2709.45,82.7446,82.9343,-121.342,7576.4,309.908,-774.054,-122.452,20.4635,-43.4996
3.8885,5782.13,-1958.94,7586.69,9.86043,12.4676,-65.2908,11939.8,3998.14,14173.0,83.4142,344.94,-176.654,-1430.06,9657.02,-1678.18,-7.79623,-77.5398,-4.71063,-2193.35,-15535.6,-2311.39,-85.4098,58.3513,-401.473,174.944,8241.28,-3421.93,-18.952,-54.1462,-124.375,-9346.18,-2962.98,2762.41,82.4927,80.2531,-121.134,7640.79,307.182,-774.719,-122.31,20.5638,-43.7016
3.889,5776.15,-1963.41,7619.34,9.98041,12.4559,-65.0586,11972.0,3980.0,14237.6,83.471,344.14,-177.693,-1503.28,9713.32,-1653.26,-8.10423,-78.1251,-4.73261,-2213.41,-15621.3,-2327.73,-86.0714,59.2779,-401.441,237.297,8239.74,-3423.29,-18.4529,-53.5059,-124.433,-9333.92,-2966.55,2810.62,82.1539,77.5856,-120.95,7696.65,307.482,-777.1,-122.221,20.7166,-43.854
3.8895,5741.29,-2024.55,7636.78,10.0978,12.3759,-64.9254,11998.6,3949.76,14315.6,83.7478,343.318,-178.731,-1527.12,9771.24,-1639.4,-8.34549,-78.7493,-4.72227,-2234.57,-15713.4,-2332.63,-86.7482,60.1976,-401.495,246.794,8249.4,-3406.75,-17.9042,-52.9047,-124.317,-9301.16,-2975.48,2842.22,81.5106,74.966,-120.848,7722.68,318.369,-785.484,-122.316,21.0531,-43.8325
3.89,5706.43,-2085.68,7654.23,10.2153,12.2958,-64.7922,12025.3,3919.52,14393.7,84.0246,342.496,-179.769,-1550.97,9829.16,-1625.54,-8.58675,-79.3735,-4.71193,-2255.73,-15805.6,-2337.54,-87.425,61.1174,-401.549,256.291,8259.06,-3390.22,-17.3555,-52.3036,-124.201,-9268.41,-2984.42,2873.82,80.8673,72.3464,-120.746,7748.72,329.257,-793.867,-122.411,21.3895,-43.8111
3.8905,5671.56,-2146.82,7671.68,10.3327,12.2158,-64.659,12052.0,3889.28,14471.8,84.3014,341.674,-180.807,-1574.82,9887.08,-1611.69,-8.82801,-79.9977,-4.70159,-2276.89,-15897.7,-2342.45,-88.1018,62.0372,-401.602,265.788,8268.73,-3373.68,-16.8068,-51.7024,-124.085,-9235.65,-2993.35,2905.42,80.2241,69.7269,-120.644,7774.75,340.144,-802.251,-122.506,21.726,-43.7896
3.891,5636.7,-2207.95,7689.13,10.4501,12.1358,-64.5259,12078.6,3859.03,14549.9,84.5782,340.852,-181.845,-1598.66,9945.0,-1597.83,-9.06927,-80.6219,-4.69126,-2298.05,-15989.8,-2347.36,-88.7786,62.9569,-401.656,275.285,8278.39,-3357.15,-16.2581,-51.1013,-123.969,-9202.89,-3002.29,2937.03,79.5808,67.1073,-120.542,7800.79,351.031,-810.635,-122.601,22.0625,-43.7681
3.8915,5601.84,-2269.08,7706.58,10.5675,12.0558,-64.3927,12105.3,3828.79,14628.0,84.855,340.03,-182.883,-1622.51,10002.9,-1583.97,-9.31053,-81.2461,-4.68092,-2319.21,-16082.0,-2352.26,-89.4554,63.8767,-401.71,284.782,8288.05,-3340.62,-15.7095,-50.5001,-123.853,-9170.13,-3011.22,2968.63,78.9375,64.4877,-120.44,7826.82,361.919,-819.019,-122.696,22.399,-43.7467
3.892,5566.97,-2330.22,7724.02,10.6849,11.9758,-64.2595,12132.0,3798.55,14706.0,85.1318,339.207,-183.921,-1646.35,10060.8,-1570.11,-9.5518,-81.8703,-4.67058,-2340.37,-16174.1,-2357.17,-90.1322,64.7965,-401.764,294.28,8297.71,-3324.08,-15.1608,-49.899,-123.737,-9137.37,-3020.16,3000.23,78.2942,61.8681,-120.338,7852.85,372.806,-827.403,-122.791,22.7355,-43.7252
3.8925,5532.11,-2391.35,7741.47,10.8024,11.8958,-64.1263,12158.7,3768.31,14784.1,85.4086,338.385,-184.959,-1670.2,10118.8,-1556.25,-9.79306,-82.4945,-4.66024,-2361.53,-16266.2,-2362.08,-90.809,65.7163,-401.817,303.777,8307.38,-3307.55,-14.6121,-49.2978,-123.621,-9104.61,-3029.09,3031.83,77.651,59.2485,-120.236,7878.89,383.693,-835.787,-122.886,23.072,-43.7037
3.893,5497.25,-2452.49,7758.92,10.9198,11.8157,-63.9931,12185.3,3738.07,14862.2,85.6854,337.563,-185.997,-1694.05,10176.7,-1542.39,-10.0343,-83.1187,-4.6499,-2382.69,-16358.4,-2366.99,-91.4858,66.636,-401.871,313.274,8317.04,-3291.02,-14.0634,-48.6966,-123.505,-9071.85,-3038.03,3063.43,77.0077,56.6289,-120.134,7904.92,394.581,-844.17,-122.981,23.4085,-43.6823
3.8935,5456.95,-2527.52,7777.47,11.0503,11.7033,-63.8941,12220.6,3704.54,14945.5,85.9868,336.772,-187.019,-1695.05,10224.0,-1540.38,-10.2631,-83.6805,-4.64738,-2408.37,-16456.4,-2370.21,-92.1342,67.6082,-401.906,307.22,8342.4,-3264.95,-13.4882,-48.1674,-123.334,-9023.79,-3052.34,3094.41,76.3408,54.1133,-120.058,7932.99,404.691,-854.332,-123.303,23.8689,-43.6454
3.894,5405.79,-2630.37,7798.21,11.2069,11.526,-63.8634,12273.0,3664.43,15039.2,86.3375,336.043,-188.009,-1650.36,10250.1,-1562.06,-10.4668,-84.1176,-4.66049,-2443.07,-16566.4,-2370.06,-92.7259,68.6852,-401.901,270.063,8399.14,-3219.8,-12.8598,-47.7822,-123.054,-8945.14,-3077.41,3124.12,75.6265,51.8056,-120.033,7965.13,413.248,-868.051,-124.078,24.5771,-43.5779
3.8945,5354.63,-2733.21,7818.96,11.3635,11.3488,-63.8327,12325.5,3624.33,15132.9,86.6881,335.313,-189.0,-1605.67,10276.3,-1583.75,-10.6706,-84.5547,-4.6736,-2477.78,-16676.3,-2369.91,-93.3176,69.7622,-401.897,232.907,8455.89,-3174.66,-12.2315,-47.3969,-122.773,-8866.48,-3102.49,3153.84,74.9123,49.4978,-120.009,7997.27,421.806,-881.769,-124.853,25.2854,-43.5104
3.895,5303.47,-2836.05,7839.7,11.5201,11.1715,-63.802,12377.9,3584.22,15226.6,87.0388,334.584,-189.99,-1560.98,10302.4,-1605.43,-10.8744,-84.9919,-4.68671,-2512.49,-16786.2,-2369.76,-93.9093,70.8392,-401.892,195.751,8512.64,-3129.52,-11.6031,-47.0116,-122.492,-8787.82,-3127.56,3183.55,74.1981,47.1901,-119.984,8029.42,430.363,-895.487,-125.628,25.9937,-43.4429
3.8955,5252.31,-2938.89,7860.44,11.6767,10.9942,-63.7713,12430.4,3544.12,15320.3,87.3895,333.854,-190.98,-1516.3,10328.6,-1627.12,-11.0781,-85.429,-4.69983,-2547.2,-16896.2,-2369.61,-94.5011,71.9162,-401.888,158.594,8569.39,-3084.37,-10.9748,-46.6263,-122.212,-8709.16,-3152.63,3213.27,73.4838,44.8824,-119.96,8061.56,438.92,-909.205,-126.403,26.702,-43.3754
3.896,5201.15,-3041.74,7881.19,11.8333,10.817,-63.7406,12482.9,3504.01,15414.0,87.7402,333.125,-191.971,-1471.61,10354.7,-1648.8,-11.2819,-85.8661,-4.71294,-2581.9,-17006.1,-2369.45,-95.0928,72.9932,-401.884,121.438,8626.14,-3039.23,-10.3464,-46.241,-121.931,-8630.51,-3177.71,3242.98,72.7696,42.5747,-119.935,8093.7,447.478,-922.923,-127.178,27.4102,-43.3078
3.8965,5149.99,-3144.58,7901.93,11.9899,10.6397,-63.7099,12535.3,3463.91,15507.7,88.0909,332.395,-192.961,-1426.92,10380.9,-1670.49,-11.4856,-86.3032,-4.72605,-2616.61,-17116.0,-2369.3,-95.6845,74.0702,-401.879,84.2818,8682.89,-2994.09,-9.71807,-45.8558,-121.651,-8551.85,-3202.78,3272.7,72.0553,40.2669,-119.911,8125.84,456.035,-936.641,-127.953,28.1185,-43.2403
3.897,5098.83,-3247.42,7922.68,12.1465,10.4624,-63.6792,12587.8,3423.81,15601.4,88.4415,331.666,-193.952,-1382.23,10407.0,-1692.17,-11.6894,-86.7403,-4.73916,-2651.32,-17226.0,-2369.15,-96.2762,75.1472,-401.875,47.1256,8739.63,-2948.95,-9.08972,-45.4705,-121.37,-8473.19,-3227.85,3302.41,71.3411,37.9592,-119.887,8157.98,464.592,-950.359,-128.728,28.8268,-43.1728
3.8975,5047.67,-3350.26,7943.42,12.3031,10.2852,-63.6485,12640.2,3383.7,15695.1,88.7922,330.936,-194.942,-1337.55,10433.2,-1713.86,-11.8932,-87.1774,-4.75228,-2686.02,-17335.9,-2369.0,-96.8679,76.2242,-401.87,9.96927,8796.38,-2903.8,-8.46137,-45.0852,-121.09,-8394.53,-3252.93,3332.13,70.6269,35.6515,-119.862,8190.13,473.149,-964.078,-129.503,29.535,-43.1053
3.898,4999.98,-3435.26,7963.68,12.4205,10.0755,-63.6234,12719.7,3349.61,15778.3,89.1196,330.246,-195.896,-1265.57,10444.5,-1750.62,-12.062,-87.5253,-4.79743,-2719.66,-17448.8,-2371.48,-97.4348,77.3612,-401.868,-45.749,8855.43,-2843.44,-7.89258,-44.8435,-120.791,-8297.89,-3289.45,3368.06,69.8969,33.3959,-119.808,8215.61,485.546,-979.774,-130.434,30.3011,-42.9091
3.8985,4956.62,-3497.96,7983.32,12.4888,9.82532,-63.6053,12832.9,3323.03,15848.3,89.418,329.605,-196.805,-1159.5,10437.5,-1806.24,-12.187,-87.7617,-4.88265,-2751.95,-17565.3,-2377.23,-97.9705,78.5731,-401.869,-124.67,8917.37,-2764.04,-7.39825,-44.7814,-120.469,-8178.77,-3340.27,3411.77,69.1474,31.2056,-119.716,8232.77,502.741,-997.943,-131.561,31.1394,-42.5521
3.899,4913.27,-3560.66,8002.97,12.5571,9.57515,-63.5872,12946.1,3296.46,15918.2,89.7164,328.964,-197.714,-1053.42,10430.4,-1861.85,-12.3121,-87.9981,-4.96786,-2784.24,-17681.9,-2382.99,-98.5062,79.7851,-401.869,-203.59,8979.3,-2684.64,-6.90391,-44.7193,-120.147,-8059.66,-3391.1,3455.48,68.3979,29.0153,-119.624,8249.94,519.936,-1016.11,-132.689,31.9777,-42.1951
3.8995,4869.92,-3623.35,8022.62,12.6254,9.32498,-63.5691,13059.3,3269.88,15988.2,90.0147,328.322,-198.623,-947.337,10423.3,-1917.46,-12.4372,-88.2345,-5.05308,-2816.53,-17798.5,-2388.74,-99.042,80.997,-401.869,-282.511,9041.23,-2605.25,-6.40957,-44.6571,-119.825,-7940.54,-3441.92,3499.2,67.6484,26.825,-119.533,8267.1,537.132,-1034.28,-133.816,32.816,-41.8381
3.9,4826.57,-3686.05,8042.26,12.6937,9.07481,-63.5511,13172.5,3243.31,16058.2,90.3131,327.681,-199.532,-841.258,10416.3,-1973.07,-12.5623,-88.4709,-5.13829,-2848.82,-17915.0,-2394.5,-99.5777,82.2089,-401.87,-361.432,9103.16,-2525.85,-5.91523,-44.595,-119.503,-7821.42,-3492.75,3542.91,66.8989,24.6347,-119.441,8284.27,554.327,-1052.45,-134.943,33.6543,-41.4811
3.9005,4783.22,-3748.74,8061.91,12.762,8.82464,-63.533,13285.7,3216.73,16128.1,90.6115,327.04,-200.441,-735.178,10409.2,-2028.69,-12.6874,-88.7073,-5.22351,-2881.11,-18031.6,-2400.25,-100.113,83.4209,-401.87,-440.353,9165.09,-2446.46,-5.42089,-44.5329,-119.181,-7702.3,-3543.57,3586.62,66.1494,22.4444,-119.349,8301.43,571.522,-1070.62,-136.07,34.4926,-41.1241
3.901,4739.87,-3811.44,8081.56,12.8303,8.57447,-63.5149,13398.9,3190.15,16198.1,90.9098,326.399,-201.349,-629.099,10402.1,-2084.3,-12.8125,-88.9437,-5.30872,-2913.4,-18148.1,-2406.01,-100.649,84.6328,-401.871,-519.273,9227.02,-2367.06,-4.92656,-44.4707,-118.859,-7583.18,-3594.4,3630.33,65.3998,20.2541,-119.258,8318.6,588.717,-1088.79,-137.197,35.3309,-40.7671
3.9015,4696.51,-3874.14,8101.2,12.8986,8.3243,-63.4968,13512.1,3163.58,16268.1,91.2082,325.758,-202.258,-523.02,10395.1,-2139.91,-12.9376,-89.1801,-5.39394,-2945.69,-18264.7,-2411.76,-101.185,85.8447,-401.871,-598.194,9288.95,-2287.66,-4.43222,-44.4086,-118.537,-7464.06,-3645.22,3674.04,64.6503,18.0638,-119.166,8335.76,605.913,-1106.96,-138.325,36.1692,-40.4101
3.902,4653.16,-3936.83,8120.85,12.9669,8.07413,-63.4787,13625.3,3137.0,16338.1,91.5066,325.117,-203.167,-416.94,10388.0,-2195.53,-13.0626,-89.4165,-5.47915,-2977.98,-18381.2,-2417.52,-101.721,87.0566,-401.871,-677.115,9350.88,-2208.27,-3.93788,-44.3464,-118.215,-7344.94,-3696.05,3717.75,63.9008,15.8735,-119.074,8352.93,623.108,-1125.13,-139.452,37.0075,-40.0531
3.9025,4624.03,-3952.31,8148.79,12.7501,7.81116,-63.5138,13764.5,3133.06,16392.3,91.5235,324.445,-204.203,-313.395,10376.3,-2247.58,-13.2198,-89.6159,-5.69704,-3026.8,-18495.2,-2431.19,-102.237,88.361,-401.82,-779.993,9436.1,-2118.07,-3.69077,-44.5402,-117.882,-7200.82,-3746.96,3750.78,63.062,13.6127,-118.94,8377.78,623.257,-1105.44,-140.147,37.484,-39.8979
3.903,4606.27,-3930.0,8183.38,12.3052,7.53795,-63.5914,13924.6,3147.21,16434.0,91.3152,323.75,-205.341,-211.876,10360.9,-2296.79,-13.4026,-89.7855,-6.02107,-3088.86,-18607.1,-2451.21,-102.737,89.7392,-401.727,-902.037,9539.97,-2019.24,-3.64145,-44.9386,-117.541,-7036.7,-3797.93,3775.27,62.1519,11.2956,-118.771,8408.79,609.77,-1055.46,-140.497,37.6711,-39.9042
3.9035,4588.51,-3907.69,8217.96,11.8604,7.26473,-63.669,14084.6,3161.37,16475.8,91.1069,323.055,-206.478,-110.358,10345.5,-2345.99,-13.5853,-89.9552,-6.34511,-3150.91,-18719.0,-2471.22,-103.237,91.1175,-401.634,-1024.08,9643.83,-1920.4,-3.59212,-45.337,-117.2,-6872.57,-3848.91,3799.76,61.2417,8.9785,-118.602,8439.8,596.283,-1005.48,-140.847,37.8581,-39.9105
3.904,4570.76,-3885.39,8252.55,11.4155,6.99152,-63.7465,14244.7,3175.53,16517.5,90.8987,322.359,-207.616,-8.83951,10330.2,-2395.2,-13.7681,-90.1249,-6.66914,-3212.97,-18830.9,-2491.23,-103.737,92.4958,-401.541,-1146.13,9747.69,-1821.57,-3.5428,-45.7354,-116.858,-6708.45,-3899.89,3824.24,60.3316,6.66139,-118.433,8470.81,582.796,-955.499,-141.198,38.0452,-39.9168
3.9045,4553.0,-3863.08,8287.14,10.9706,6.7183,-63.8241,14404.7,3189.69,16559.2,90.6904,321.664,-208.754,92.679,10314.8,-2444.4,-13.9509,-90.2946,-6.99317,-3275.02,-18942.8,-2511.25,-104.237,93.874,-401.448,-1268.17,9851.55,-1722.73,-3.49347,-46.1339,-116.517,-6544.32,-3950.86,3848.73,59.4214,4.34429,-118.265,8501.83,569.308,-905.52,-141.548,38.2322,-39.9231
3.905,4535.24,-3840.77,8321.72,10.5257,6.44509,-63.9017,14564.8,3203.85,16600.9,90.4821,320.969,-209.892,194.197,10299.4,-2493.61,-14.1337,-90.4643,-7.3172,-3337.08,-19054.8,-2531.26,-104.737,95.2523,-401.355,-1390.21,9955.41,-1623.9,-3.44415,-46.5323,-116.176,-6380.2,-4001.84,3873.21,58.5113,2.02718,-118.096,8532.84,555.821,-855.541,-141.898,38.4193,-39.9294
3.9055,4517.48,-3818.47,8356.31,10.0808,6.17188,-63.9793,14724.8,3218.0,16642.6,90.2739,320.273,-211.029,295.716,10284.0,-2542.81,-14.3165,-90.634,-7.64123,-3399.13,-19166.7,-2551.27,-105.237,96.6305,-401.262,-1512.26,10059.3,-1525.06,-3.39482,-46.9307,-115.835,-6216.07,-4052.81,3897.7,57.6011,-0.289927,-117.927,8563.85,542.334,-805.562,-142.248,38.6063,-39.9357
3.906,4499.73,-3796.16,8390.89,9.63597,5.89866,-64.0568,14884.9,3232.16,16684.3,90.0656,319.578,-212.167,397.234,10268.6,-2592.02,-14.4993,-90.8037,-7.96526,-3461.19,-19278.6,-2571.29,-105.737,98.0088,-401.17,-1634.3,10163.1,-1426.22,-3.3455,-47.3291,-115.493,-6051.95,-4103.79,3922.19,56.691,-2.60703,-117.758,8594.86,528.846,-755.583,-142.598,38.7934,-39.942
3.9065,4481.97,-3773.85,8425.48,9.19109,5.62545,-64.1344,15044.9,3246.32,16726.0,89.8573,318.883,-213.305,498.753,10253.2,-2641.23,-14.682,-90.9734,-8.28929,-3523.24,-19390.5,-2591.3,-106.237,99.387,-401.077,-1756.35,10267.0,-1327.39,-3.29617,-47.7275,-115.152,-5887.82,-4154.77,3946.67,55.7808,-4.92414,-117.59,8625.87,515.359,-705.603,-142.948,38.9805,-39.9482
3.907,4507.7,-3696.22,8447.6,8.45741,5.33371,-64.1861,15208.9,3283.97,16738.3,89.549,318.255,-214.506,548.636,10251.0,-2657.37,-14.8916,-91.1356,-8.71885,-3583.11,-19496.6,-2613.35,-106.709,100.833,-400.89,-1863.92,10376.4,-1267.43,-3.37604,-48.2699,-114.887,-5710.44,-4205.78,3936.06,54.7559,-7.35981,-117.407,8658.3,471.943,-688.885,-143.159,39.1658,-40.0258
3.9075,4555.16,-3590.93,8463.49,7.57932,5.0327,-64.2247,15374.8,3333.36,16736.0,89.1907,317.661,-215.74,572.701,10255.4,-2656.97,-15.1144,-91.2942,-9.20118,-3641.88,-19599.9,-2636.42,-107.166,102.312,-400.657,-1964.26,10488.7,-1226.91,-3.5205,-48.8841,-114.659,-5526.43,-4256.81,3907.91,53.6735,-9.85477,-117.218,8691.46,413.561,-688.798,-143.3,39.3504,-40.139
3.908,4602.63,-3485.63,8479.38,6.70123,4.73169,-64.2634,15540.7,3382.75,16733.6,88.8324,317.067,-216.974,596.766,10259.8,-2656.58,-15.3373,-91.4527,-9.68351,-3700.65,-19703.2,-2659.49,-107.623,103.791,-400.424,-2064.6,10600.9,-1186.39,-3.66497,-49.4984,-114.431,-5342.42,-4307.84,3879.75,52.5911,-12.3497,-117.029,8724.61,355.18,-688.711,-143.441,39.5349,-40.2521
3.9085,4650.1,-3380.34,8495.27,5.82315,4.43069,-64.3021,15706.6,3432.15,16731.3,88.4741,316.473,-218.208,620.831,10264.2,-2656.19,-15.5602,-91.6113,-10.1658,-3759.43,-19806.4,-2682.56,-108.081,105.271,-400.19,-2164.94,10713.2,-1145.88,-3.80943,-50.1127,-114.203,-5158.41,-4358.87,3851.59,51.5088,-14.8447,-116.84,8757.76,296.799,-688.623,-143.582,39.7195,-40.3653
3.909,4697.57,-3275.05,8511.16,4.94506,4.12968,-64.3408,15872.5,3481.54,16728.9,88.1158,315.879,-219.442,644.896,10268.6,-2655.8,-15.7831,-91.7698,-10.6482,-3818.2,-19909.7,-2705.62,-108.538,106.75,-399.957,-2265.27,10825.4,-1105.36,-3.9539,-50.727,-113.975,-4974.4,-4409.9,3823.44,50.4264,-17.3396,-116.651,8790.91,238.418,-688.536,-143.723,39.904,-40.4784
3.9095,4745.04,-3169.75,8527.05,4.06698,3.82868,-64.3795,16038.4,3530.93,16726.6,87.7575,315.285,-220.676,668.961,10273.0,-2655.4,-16.0059,-91.9284,-11.1305,-3876.97,-20013.0,-2728.69,-108.995,108.229,-399.724,-2365.61,10937.7,-1064.84,-4.09836,-51.3413,-113.748,-4790.38,-4460.93,3795.28,49.3441,-19.8346,-116.462,8824.06,180.037,-688.449,-143.864,40.0886,-40.5916
3.91,4792.51,-3064.46,8542.95,3.18889,3.52767,-64.4182,16204.3,3580.33,16724.2,87.3992,314.691,-221.91,693.026,10277.4,-2655.01,-16.2288,-92.0869,-11.6128,-3935.74,-20116.2,-2751.76,-109.453,109.709,-399.49,-2465.95,11049.9,-1024.32,-4.24282,-51.9555,-113.52,-4606.37,-4511.96,3767.13,48.2617,-22.3296,-116.273,8857.21,121.656,-688.361,-144.005,40.2731,-40.7048
3.9105,4839.98,-2959.16,8558.84,2.3108,3.22666,-64.4569,16370.3,3629.72,16721.9,87.0409,314.098,-223.144,717.091,10281.8,-2654.62,-16.4517,-92.2455,-12.0952,-3994.51,-20219.5,-2774.83,-109.91,111.188,-399.257,-2566.29,11162.2,-983.801,-4.38729,-52.5698,-113.292,-4422.36,-4562.98,3738.97,47.1793,-24.8245,-116.084,8890.36,63.2748,-688.274,-144.146,40.4577,-40.8179
3.911,4887.45,-2853.87,8574.73,1.43272,2.92566,-64.4956,16536.2,3679.11,16719.5,86.6826,313.504,-224.378,741.156,10286.1,-2654.23,-16.6746,-92.404,-12.5775,-4053.28,-20322.8,-2797.89,-110.368,112.668,-399.024,-2666.63,11274.4,-943.282,-4.53175,-53.1841,-113.064,-4238.35,-4614.01,3710.81,46.097,-27.3195,-115.895,8923.52,4.89374,-688.187,-144.287,40.6422,-40.9311
3.9115,4953.45,-2748.17,8589.52,0.674827,2.72408,-64.4398,16685.0,3722.1,16686.1,86.2391,312.966,-225.659,706.91,10326.2,-2612.3,-16.8589,-92.6098,-12.9519,-4128.59,-20430.1,-2821.88,-110.763,114.259,-398.673,-2723.09,11378.6,-916.537,-4.78176,-53.9311,-112.876,-4064.67,-4662.3,3654.27,44.967,-29.2954,-115.647,8954.7,-3.04061,-674.563,-143.763,40.7466,-40.8525
3.912,5024.75,-2642.37,8604.0,-0.0487198,2.55092,-64.3571,16829.0,3763.25,16643.7,85.7714,312.445,-226.954,656.003,10376.5,-2558.5,-17.0322,-92.8291,-13.2954,-4208.63,-20538.7,-2846.13,-111.141,115.884,-398.29,-2767.02,11480.4,-893.726,-5.06192,-54.7159,-112.698,-3893.93,-4709.8,3589.61,43.8235,-31.1231,-115.382,8985.32,3.4384,-657.073,-143.048,40.8282,-40.7192
3.9125,5096.05,-2536.56,8618.49,-0.772267,2.37775,-64.2744,16972.9,3804.4,16601.4,85.3037,311.924,-228.249,605.096,10426.7,-2504.7,-17.2055,-93.0483,-13.639,-4288.67,-20647.2,-2870.38,-111.519,117.508,-397.906,-2810.95,11582.3,-870.916,-5.34209,-55.5008,-112.521,-3723.19,-4757.3,3524.95,42.6799,-32.9507,-115.117,9015.94,9.91742,-639.582,-142.333,40.9097,-40.5859
3.913,5167.35,-2430.75,8632.97,-1.49581,2.20459,-64.1916,17116.9,3845.55,16559.1,84.836,311.403,-229.543,554.19,10477.0,-2450.9,-17.3788,-93.2676,-13.9825,-4368.71,-20755.7,-2894.63,-111.898,119.132,-397.522,-2854.88,11684.1,-848.106,-5.62225,-56.2857,-112.343,-3552.46,-4804.8,3460.3,41.5364,-34.7784,-114.851,9046.56,16.3964,-622.092,-141.619,40.9912,-40.4525
3.9135,5238.65,-2324.95,8647.45,-2.21936,2.03143,-64.1089,17260.9,3886.7,16516.7,84.3682,310.881,-230.838,503.283,10527.2,-2397.11,-17.5521,-93.4869,-14.326,-4448.74,-20864.2,-2918.88,-112.276,120.756,-397.139,-2898.82,11786.0,-825.295,-5.90241,-57.0705,-112.166,-3381.72,-4852.3,3395.64,40.3928,-36.6061,-114.586,9077.17,22.8754,-604.601,-140.904,41.0728,-40.3192
3.914,5309.96,-2219.14,8661.93,-2.94291,1.85826,-64.0262,17404.8,3927.85,16474.4,83.9005,310.36,-232.133,452.377,10577.5,-2343.31,-17.7254,-93.7062,-14.6696,-4528.78,-20972.7,-2943.12,-112.654,122.38,-396.755,-2942.75,11887.8,-802.485,-6.18258,-57.8554,-111.988,-3210.98,-4899.8,3330.98,39.2493,-38.4337,-114.321,9107.79,29.3545,-587.11,-140.189,41.1543,-40.1858
3.9145,5381.26,-2113.33,8676.41,-3.66646,1.6851,-63.9435,17548.8,3969.0,16432.1,83.4328,309.839,-233.428,401.47,10627.7,-2289.51,-17.8987,-93.9255,-15.0131,-4608.82,-21081.3,-2967.37,-113.032,124.004,-396.371,-2986.68,11989.6,-779.675,-6.46274,-58.6403,-111.811,-3040.25,-4947.3,3266.33,38.1058,-40.2614,-114.056,9138.41,35.8335,-569.62,-139.475,41.2358,-40.0525
3.915,5452.56,-2007.52,8690.89,-4.39,1.51193,-63.8607,17692.8,4010.15,16389.8,82.9651,309.318,-234.723,350.564,10678.0,-2235.71,-18.072,-94.1447,-15.3567,-4688.85,-21189.8,-2991.62,-113.41,125.628,-395.988,-3030.61,12091.5,-756.864,-6.74291,-59.4251,-111.633,-2869.51,-4994.8,3201.67,36.9622,-42.0891,-113.79,9169.03,42.3125,-552.129,-138.76,41.3174,-39.9192
3.9155,5523.86,-1901.72,8705.38,-5.11355,1.33877,-63.778,17836.8,4051.3,16347.4,82.4973,308.797,-236.017,299.657,10728.2,-2181.92,-18.2453,-94.364,-15.7002,-4768.89,-21298.3,-3015.87,-113.788,127.252,-395.604,-3074.54,12193.3,-734.054,-7.02307,-60.21,-111.456,-2698.78,-5042.3,3137.02,35.8187,-43.9167,-113.525,9199.65,48.7915,-534.639,-138.045,41.3989,-39.7858
3.916,5580.01,-1849.0,8715.73,-5.91971,1.1994,-63.5241,17982.9,4050.33,16302.6,81.4634,308.249,-237.186,203.41,10798.8,-2110.34,-18.5103,-94.4558,-15.8334,-4854.93,-21391.2,-3034.06,-114.058,128.876,-395.087,-3064.45,12232.5,-721.579,-7.32616,-60.7756,-111.248,-2550.2,-5085.36,3047.13,34.8471,-44.1576,-113.153,9200.31,37.2339,-526.035,-137.585,41.5412,-39.5167
3.9165,5634.27,-1802.92,8725.58,-6.7362,1.06427,-63.2488,18129.4,4044.1,16257.5,80.3587,307.698,-238.338,101.496,10872.0,-2036.55,-18.7869,-94.5316,-15.9403,-4941.73,-21482.2,-3051.49,-114.315,130.5,-394.554,-3047.6,12263.9,-710.395,-7.63211,-61.3139,-111.037,-2404.39,-5127.86,2954.1,33.8971,-44.2001,-112.767,9197.21,23.4216,-518.541,-137.156,41.6911,-39.2305
3.917,5688.53,-1756.83,8735.42,-7.55269,0.929128,-62.9736,18275.9,4037.87,16212.3,79.2539,307.147,-239.49,-0.418714,10945.1,-1962.76,-19.0634,-94.6074,-16.0473,-5028.53,-21573.2,-3068.92,-114.572,132.125,-394.02,-3030.76,12295.2,-699.212,-7.93807,-61.8521,-110.825,-2258.58,-5170.36,2861.07,32.9471,-44.2425,-112.381,9194.12,9.60942,-511.048,-136.728,41.841,-38.9444
3.9175,5742.79,-1710.75,8745.26,-8.36918,0.79399,-62.6983,18422.3,4031.64,16167.2,78.1492,306.595,-240.643,-102.333,11018.2,-1888.97,-19.34,-94.6832,-16.1542,-5115.32,-21664.2,-3086.35,-114.829,133.749,-393.487,-3013.92,12326.6,-688.029,-8.24402,-62.3903,-110.614,-2112.77,-5212.86,2768.03,31.9971,-44.285,-111.995,9191.03,-4.2028,-503.555,-136.299,41.9908,-38.6583
3.918,5797.05,-1664.67,8755.1,-9.18566,0.658852,-62.423,18568.8,4025.4,16122.1,77.0444,306.044,-241.795,-204.248,11091.4,-1815.17,-19.6165,-94.759,-16.2611,-5202.12,-21755.2,-3103.78,-115.085,135.373,-392.953,-2997.07,12357.9,-676.845,-8.54998,-62.9286,-110.402,-1966.96,-5255.36,2675.0,31.047,-44.3275,-111.608,9187.94,-18.015,-496.061,-135.87,42.1407,-38.3721
3.9185,5851.31,-1618.59,8764.95,-10.0022,0.523715,-62.1478,18715.2,4019.17,16076.9,75.9397,305.493,-242.948,-306.162,11164.5,-1741.38,-19.8931,-94.8348,-16.368,-5288.91,-21846.2,-3121.21,-115.342,136.997,-392.42,-2980.23,12389.3,-665.662,-8.85593,-63.4668,-110.191,-1821.16,-5297.87,2581.96,30.097,-44.37,-111.222,9184.85,-31.8272,-488.568,-135.442,42.2906,-38.086
3.919,5905.57,-1572.51,8774.79,-10.8186,0.388577,-61.8725,18861.7,4012.94,16031.8,74.835,304.942,-244.1,-408.076,11237.6,-1667.59,-20.1696,-94.9106,-16.475,-5375.71,-21937.2,-3138.65,-115.599,138.621,-391.886,-2963.39,12420.6,-654.479,-9.16189,-64.005,-109.979,-1675.35,-5340.37,2488.93,29.147,-44.4125,-110.836,9181.76,-45.6395,-481.075,-135.013,42.4405,-37.7999
3.9195,5959.83,-1526.42,8784.63,-11.6351,0.253439,-61.5972,19008.2,4006.71,15986.6,73.7302,304.391,-245.252,-509.991,11310.8,-1593.79,-20.4462,-94.9864,-16.5819,-5462.51,-22028.2,-3156.08,-115.856,140.245,-391.353,-2946.54,12451.9,-643.296,-9.46784,-64.5433,-109.768,-1529.54,-5382.87,2395.89,28.197,-44.455,-110.45,9178.67,-59.4517,-473.582,-134.584,42.5904,-37.5137
3.92,6014.1,-1480.34,8794.47,-12.4516,0.118301,-61.322,19154.6,4000.47,15941.5,72.6255,303.84,-246.405,-611.905,11383.9,-1520.0,-20.7227,-95.0622,-16.6888,-5549.3,-22119.2,-3173.51,-116.112,141.869,-390.819,-2929.7,12483.3,-632.112,-9.7738,-65.0815,-109.556,-1383.73,-5425.37,2302.86,27.247,-44.4975,-110.064,9175.57,-73.2639,-466.088,-134.156,42.7402,-37.2276
3.9205,6047.12,-1430.42,8786.26,-13.1073,-0.219403,-60.9704,19314.2,4001.38,15876.2,71.4782,303.255,-247.307,-718.451,11472.4,-1421.97,-20.9838,-94.7149,-16.6734,-5641.9,-22185.1,-3190.78,-116.259,143.57,-390.123,-2882.1,12452.5,-658.769,-10.0783,-65.3733,-109.457,-1256.21,-5468.05,2201.18,26.4553,-42.5162,-109.566,9165.38,-75.7629,-455.827,-133.888,42.7441,-36.7604
3.921,6080.14,-1380.5,8778.04,-13.763,-0.557106,-60.6187,19473.7,4002.28,15810.8,70.3309,302.671,-248.209,-824.998,11560.9,-1323.94,-21.2449,-94.3675,-16.6581,-5734.5,-22251.0,-3208.05,-116.405,145.271,-389.427,-2834.5,12421.7,-685.426,-10.3828,-65.6652,-109.357,-1128.7,-5510.72,2099.5,25.6636,-40.5349,-109.068,9155.19,-78.262,-445.565,-133.621,42.7481,-36.2932
3.9215,6113.17,-1330.58,8769.82,-14.4187,-0.89481,-60.2671,19633.3,4003.18,15745.5,69.1836,302.086,-249.112,-931.544,11649.4,-1225.91,-21.506,-94.0202,-16.6427,-5827.1,-22316.9,-3225.33,-116.552,146.971,-388.73,-2786.9,12390.9,-712.083,-10.6874,-65.957,-109.258,-1001.18,-5553.4,1997.81,24.8719,-38.5537,-108.569,9145.0,-80.7611,-435.304,-133.353,42.752,-35.826
3.922,6146.19,-1280.66,8761.6,-15.0744,-1.23251,-59.9155,19792.8,4004.09,15680.1,68.0362,301.502,-250.014,-1038.09,11737.9,-1127.88,-21.7671,-93.6729,-16.6273,-5919.69,-22382.9,-3242.6,-116.698,148.672,-388.034,-2739.3,12360.1,-738.74,-10.9919,-66.2489,-109.158,-873.666,-5596.07,1896.13,24.0801,-36.5724,-108.071,9134.81,-83.2601,-425.042,-133.086,42.7559,-35.3588
3.9225,6179.21,-1230.74,8753.39,-15.7301,-1.57022,-59.5639,19952.4,4004.99,15614.8,66.8889,300.918,-250.917,-1144.64,11826.4,-1029.85,-22.0282,-93.3256,-16.6119,-6012.29,-22448.8,-3259.88,-116.844,150.373,-387.337,-2691.7,12329.3,-765.397,-11.2964,-66.5407,-109.059,-746.149,-5638.75,1794.45,23.2884,-34.5911,-107.573,9124.61,-85.7592,-414.78,-132.818,42.7598,-34.8916
3.923,6212.24,-1180.82,8745.17,-16.3858,-1.90792,-59.2123,20111.9,4005.89,15549.4,65.7416,300.333,-251.819,-1251.18,11914.9,-931.825,-22.2893,-92.9783,-16.5966,-6104.89,-22514.7,-3277.15,-116.991,152.074,-386.641,-2644.1,12298.5,-792.053,-11.6009,-66.8325,-108.959,-618.633,-5681.42,1692.77,22.4967,-32.6099,-107.074,9114.42,-88.2583,-404.519,-132.55,42.7637,-34.4244
3.9235,6245.26,-1130.9,8736.95,-17.0415,-2.24563,-58.8607,20271.5,4006.8,15484.1,64.5943,299.749,-252.721,-1357.73,12003.5,-833.795,-22.5504,-92.631,-16.5812,-6197.49,-22580.6,-3294.42,-117.137,153.775,-385.945,-2596.5,12267.7,-818.71,-11.9054,-67.1244,-108.86,-491.116,-5724.1,1591.09,21.705,-30.6286,-106.576,9104.23,-90.7573,-394.257,-132.283,42.7676,-33.9572
3.924,6278.29,-1080.98,8728.73,-17.6972,-2.58333,-58.5091,20431.1,4007.7,15418.7,63.447,299.165,-253.624,-1464.28,12092.0,-735.766,-22.8115,-92.2836,-16.5658,-6290.09,-22646.6,-3311.7,-117.284,155.475,-385.248,-2548.9,12236.9,-845.367,-12.21,-67.4162,-108.76,-363.6,-5766.77,1489.4,20.9133,-28.6473,-106.078,9094.04,-93.2564,-383.996,-132.015,42.7715,-33.49
3.9245,6310.4,-1034.56,8718.5,-18.2982,-2.92614,-58.1405,20587.8,4002.34,15345.3,62.4654,298.606,-254.508,-1562.28,12178.8,-638.461,-23.0554,-91.899,-16.5413,-6387.8,-22707.5,-3323.73,-117.411,157.165,-384.518,-2498.41,12203.0,-872.399,-12.5014,-67.6828,-108.679,-237.691,-5806.83,1386.61,20.105,-26.4894,-105.555,9084.49,-101.321,-371.162,-131.827,42.7933,-33.0132
3.925,6335.26,-1016.21,8692.15,-18.4612,-3.30985,-57.6359,20722.0,3946.92,15207.1,62.8096,298.256,-255.251,-1591.97,12252.2,-546.951,-23.1608,-91.2162,-16.4434,-6526.41,-22728.2,-3293.81,-117.39,158.764,-383.511,-2424.74,12144.0,-902.427,-12.6883,-67.7471,-108.738,-124.65,-5825.94,1274.9,19.1633,-22.9178,-104.841,9080.04,-153.914,-337.755,-132.274,42.9573,-32.4593
3.9255,6360.12,-997.853,8665.79,-18.6242,-3.69356,-57.1312,20856.3,3891.5,15069.0,63.1538,297.906,-255.995,-1621.65,12325.7,-455.442,-23.2663,-90.5333,-16.3455,-6665.03,-22749.0,-3263.89,-117.369,160.362,-382.505,-2351.07,12085.1,-932.455,-12.8753,-67.8115,-108.798,-11.6088,-5845.05,1163.19,18.2217,-19.3462,-104.127,9075.59,-206.507,-304.348,-132.721,43.1213,-31.9055
3.926,6384.98,-979.497,8639.44,-18.7873,-4.07727,-56.6266,20990.5,3836.08,14930.9,63.498,297.555,-256.738,-1651.34,12399.1,-363.933,-23.3717,-89.8505,-16.2476,-6803.65,-22769.8,-3233.96,-117.348,161.961,-381.498,-2277.39,12026.1,-962.484,-13.0622,-67.8758,-108.857,101.433,-5864.16,1051.48,17.28,-15.7746,-103.413,9071.15,-259.099,-270.94,-133.168,43.2853,-31.3517
3.9265,6409.83,-961.141,8613.08,-18.9503,-4.46098,-56.122,21124.8,3780.66,14792.8,63.8421,297.205,-257.481,-1681.03,12472.5,-272.424,-23.4772,-89.1676,-16.1497,-6942.26,-22790.6,-3204.04,-117.327,163.56,-380.492,-2203.72,11967.2,-992.512,-13.2491,-67.9402,-108.917,214.474,-5883.27,939.773,16.3383,-12.203,-102.699,9066.7,-311.692,-237.533,-133.616,43.4494,-30.7978
3.927,6434.69,-942.786,8586.73,-19.1133,-4.84469,-55.6173,21259.0,3725.24,14654.6,64.1863,296.855,-258.224,-1710.71,12546.0,-180.915,-23.5826,-88.4848,-16.0518,-7080.88,-22811.3,-3174.12,-117.306,165.159,-379.486,-2130.05,11908.2,-1022.54,-13.436,-68.0046,-108.977,327.515,-5902.38,828.064,15.3967,-8.63136,-101.985,9062.26,-364.285,-204.126,-134.063,43.6134,-30.244
3.9275,6459.55,-924.43,8560.37,-19.2764,-5.22839,-55.1127,21393.3,3669.82,14516.5,64.5305,296.505,-258.967,-1740.4,12619.4,-89.4054,-23.6881,-87.8019,-15.9539,-7219.49,-22832.1,-3144.2,-117.285,166.758,-378.479,-2056.38,11849.3,-1052.57,-13.6229,-68.0689,-109.036,440.556,-5921.5,716.355,14.455,-5.05976,-101.271,9057.81,-416.877,-170.718,-134.51,43.7774,-29.6901
3.928,6484.41,-906.074,8534.02,-19.4394,-5.6121,-54.6081,21527.5,3614.4,14378.4,64.8747,296.154,-259.71,-1770.09,12692.8,2.10381,-23.7936,-87.1191,-15.856,-7358.11,-22852.9,-3114.28,-117.264,168.356,-377.473,-1982.71,11790.3,-1082.6,-13.8099,-68.1333,-109.096,553.598,-5940.61,604.646,13.5133,-1.48816,-100.557,9053.37,-469.47,-137.311,-134.957,43.9415,-29.1363
3.9285,6509.27,-887.719,8507.66,-19.6024,-5.99581,-54.1034,21661.8,3558.98,14240.3,65.2189,295.804,-260.453,-1799.77,12766.3,93.613,-23.899,-86.4362,-15.7581,-7496.72,-22873.6,-3084.36,-117.243,169.955,-376.467,-1909.04,11731.3,-1112.63,-13.9968,-68.1976,-109.155,666.639,-5959.72,492.937,12.5717,2.08343,-99.8425,9048.92,-522.063,-103.903,-135.404,44.1055,-28.5825
3.929,6529.36,-879.177,8485.66,-19.6994,-6.3807,-53.5772,21798.2,3447.85,14095.1,65.8774,295.439,-261.112,-1807.83,12825.9,175.853,-24.0293,-85.7293,-15.6655,-7656.54,-22880.6,-3041.77,-117.145,171.382,-375.388,-1827.43,11673.6,-1140.11,-14.1976,-68.2497,-109.229,778.22,-5970.76,383.197,11.5723,5.84355,-99.095,9041.52,-560.032,-72.2297,-135.892,44.29,-27.9876
3.9295,6532.78,-904.982,8478.89,-19.5652,-6.76972,-52.9756,21942.5,3141.71,13925.0,67.6361,295.022,-261.478,-1740.16,12837.1,225.653,-24.2466,-84.9383,-15.5914,-7890.53,-22839.5,-2954.82,-116.776,172.205,-374.054,-1718.06,11619.9,-1158.68,-14.4473,-68.2592,-109.353,884.692,-5953.57,280.349,10.3709,10.2635,-98.231,9023.78,-546.821,-46.6236,-136.523,44.5463,-27.2491
3.93,6536.19,-930.788,8472.11,-19.431,-7.15873,-52.3741,22086.8,2835.58,13755.0,69.3947,294.604,-261.844,-1672.5,12848.4,275.453,-24.4638,-84.1473,-15.5174,-8124.53,-22798.4,-2867.86,-116.407,173.029,-372.721,-1608.68,11566.2,-1177.26,-14.697,-68.2687,-109.477,991.163,-5936.37,177.502,9.16956,14.6834,-97.3669,9006.03,-533.61,-21.0176,-137.154,44.8025,-26.5106
3.9305,6539.61,-956.594,8465.34,-19.2969,-7.54775,-51.7725,22231.1,2529.44,13585.0,71.1533,294.187,-262.209,-1604.84,12859.6,325.253,-24.6811,-83.3563,-15.4433,-8358.53,-22757.3,-2780.91,-116.039,173.853,-371.387,-1499.3,11512.5,-1195.84,-14.9467,-68.2781,-109.601,1097.63,-5919.18,74.6538,7.96819,19.1034,-96.5028,8988.29,-520.399,4.5885,-137.786,45.0588,-25.7722
3.931,6543.03,-982.399,8458.56,-19.1627,-7.93677,-51.1709,22375.4,2223.31,13415.0,72.9119,293.77,-262.575,-1537.17,12870.9,375.052,-24.8983,-82.5654,-15.3692,-8592.52,-22716.2,-2693.96,-115.67,174.676,-370.054,-1389.93,11458.8,-1214.41,-15.1964,-68.2876,-109.725,1204.11,-5901.99,-28.1939,6.76681,23.5233,-95.6388,8970.54,-507.187,30.1946,-138.417,45.315,-25.0337
3.9315,6546.44,-1008.2,8451.79,-19.0285,-8.32578,-50.5693,22519.7,1917.17,13245.0,74.6705,293.352,-262.941,-1469.51,12882.1,424.852,-25.1156,-81.7744,-15.2952,-8826.52,-22675.1,-2607.01,-115.301,175.5,-368.72,-1280.55,11405.2,-1232.99,-15.4461,-68.297,-109.849,1310.58,-5884.79,-131.042,5.56544,27.9433,-94.7747,8952.8,-493.976,55.8006,-139.048,45.5713,-24.2952
3.932,6549.86,-1034.01,8445.01,-18.8943,-8.7148,-49.9677,22664.0,1611.04,13074.9,76.4291,292.935,-263.306,-1401.84,12893.4,474.652,-25.3329,-80.9834,-15.2211,-9060.52,-22634.0,-2520.06,-114.933,176.323,-367.387,-1171.17,11351.5,-1251.56,-15.6957,-68.3065,-109.973,1417.05,-5867.6,-233.889,4.36407,32.3632,-93.9106,8935.05,-480.765,81.4067,-139.679,45.8275,-23.5568
3.9325,6553.28,-1059.82,8438.24,-18.7601,-9.10382,-49.3661,22808.3,1304.9,12904.9,78.1878,292.518,-263.672,-1334.18,12904.6,524.452,-25.5501,-80.1924,-15.147,-9294.51,-22592.9,-2433.11,-114.564,177.147,-366.054,-1061.8,11297.8,-1270.14,-15.9454,-68.3159,-110.097,1523.52,-5850.41,-336.737,3.16269,36.7831,-93.0466,8917.31,-467.554,107.013,-140.31,46.0838,-22.8183
3.933,6556.69,-1085.62,8431.46,-18.6259,-9.49284,-48.7646,22952.6,998.77,12734.9,79.9464,292.1,-264.037,-1266.52,12915.9,574.251,-25.7674,-79.4014,-15.073,-9528.51,-22551.8,-2346.16,-114.196,177.971,-364.72,-952.42,11244.1,-1288.71,-16.1951,-68.3254,-110.221,1629.99,-5833.21,-439.585,1.96132,41.2031,-92.1825,8899.56,-454.342,132.619,-140.942,46.34,-22.0798
3.9335,6545.28,-1103.79,8439.15,-18.4271,-9.87035,-48.1488,23078.9,624.694,12583.1,81.3275,291.472,-264.126,-1176.21,12913.7,609.423,-26.0349,-78.5979,-15.0473,-9775.51,-22499.1,-2256.43,-113.718,178.434,-363.322,-825.37,11202.5,-1306.53,-16.4877,-68.2369,-110.364,1728.58,-5821.18,-524.559,0.879289,45.7709,-91.3215,8890.62,-446.768,157.481,-141.236,46.5884,-21.5071
3.934,6504.2,-1106.67,8475.76,-18.0988,-10.2249,-47.5049,23169.3,114.738,12467.9,81.9536,290.42,-263.66,-1040.63,12884.9,615.339,-26.4029,-77.7694,-15.1186,-10048.5,-22423.3,-2161.17,-113.024,178.176,-361.795,-662.974,11185.0,-1322.82,-16.8662,-67.9524,-110.547,1811.4,-5819.47,-573.784,0.0359448,50.6345,-90.4668,8899.26,-450.469,180.857,-140.856,46.821,-21.2659
3.9345,6463.11,-1109.55,8512.38,-17.7706,-10.5794,-46.8609,23259.7,-395.218,12352.7,82.5797,289.369,-263.194,-905.043,12856.0,621.255,-26.771,-76.941,-15.1899,-10321.6,-22347.4,-2065.9,-112.329,177.918,-360.267,-500.578,11167.4,-1339.12,-17.2446,-67.668,-110.73,1894.22,-5817.75,-623.01,-0.8074,55.4981,-89.612,8907.91,-454.17,204.233,-140.476,47.0536,-21.0247
3.935,6422.03,-1112.44,8548.99,-17.4423,-10.9339,-46.2169,23350.0,-905.174,12237.5,83.2057,288.318,-262.729,-769.457,12827.1,627.171,-27.139,-76.1125,-15.2612,-10594.6,-22271.6,-1970.64,-111.634,177.66,-358.74,-338.182,11149.9,-1355.41,-17.6231,-67.3836,-110.913,1977.04,-5816.04,-672.236,-1.65074,60.3617,-88.7573,8916.56,-457.871,227.608,-140.096,47.2863,-20.7835
3.9355,6380.95,-1115.32,8585.6,-17.1141,-11.2884,-45.5729,23440.4,-1415.13,12122.2,83.8318,287.266,-262.263,-633.872,12798.2,633.087,-27.5071,-75.284,-15.3325,-10867.6,-22195.7,-1875.37,-110.94,177.402,-357.212,-175.785,11132.4,-1371.7,-18.0015,-67.0992,-111.096,2059.87,-5814.33,-721.462,-2.49409,65.2253,-87.9025,8925.2,-461.571,250.984,-139.716,47.5189,-20.5423
3.936,6339.87,-1118.2,8622.21,-16.7859,-11.6429,-44.9289,23530.8,-1925.09,12007.0,84.4579,286.215,-261.797,-498.287,12769.4,639.003,-27.8751,-74.4555,-15.4037,-11140.6,-22119.9,-1780.11,-110.245,177.144,-355.685,-13.3893,11114.9,-1388.0,-18.38,-66.8148,-111.279,2142.69,-5812.61,-770.688,-3.33743,70.0889,-87.0478,8933.85,-465.272,274.359,-139.336,47.7515,-20.3011
3.9365,6298.79,-1121.08,8658.83,-16.4576,-11.9974,-44.285,23621.2,-2435.04,11891.8,85.084,285.163,-261.331,-362.702,12740.5,644.919,-28.2431,-73.6271,-15.475,-11413.6,-22044.0,-1684.84,-109.55,176.886,-354.158,149.007,11097.3,-1404.29,-18.7584,-66.5304,-111.462,2225.51,-5810.9,-819.914,-4.18078,74.9525,-86.193,8942.5,-468.973,297.735,-138.957,47.9841,-20.0599
3.937,6257.71,-1123.97,8695.44,-16.1294,-12.3519,-43.641,23711.5,-2945.0,11776.6,85.7101,284.112,-260.865,-227.117,12711.6,650.835,-28.6112,-72.7986,-15.5463,-11686.7,-21968.2,-1589.58,-108.856,176.628,-352.63,311.403,11079.8,-1420.58,-19.1369,-66.246,-111.644,2308.33,-5809.19,-869.14,-5.02412,79.8161,-85.3383,8951.15,-472.674,321.11,-138.577,48.2168,-19.8187
3.9375,6216.63,-1126.85,8732.05,-15.8011,-12.7064,-42.997,23801.9,-3454.96,11661.3,86.3362,283.061,-260.4,-91.5313,12682.7,656.75,-28.9792,-71.9701,-15.6176,-11959.7,-21892.3,-1494.31,-108.161,176.37,-351.103,473.799,11062.3,-1436.87,-19.5153,-65.9616,-111.827,2391.15,-5807.47,-918.366,-5.86747,84.6797,-84.4835,8959.79,-476.374,344.486,-138.197,48.4494,-19.5774
3.938,6165.59,-1100.43,8765.75,-15.4397,-13.1312,-42.3636,23881.5,-3870.06,11548.1,86.0075,281.512,-259.437,57.8806,12634.0,662.932,-29.3231,-71.0729,-15.7985,-12221.5,-21810.9,-1413.92,-107.412,175.788,-349.557,649.591,11055.8,-1443.71,-19.845,-65.5241,-112.015,2464.84,-5822.65,-934.919,-6.37797,89.6036,-83.8576,8980.51,-477.307,394.568,-137.688,48.4172,-19.3783
3.9385,6102.11,-1037.37,8795.79,-15.0366,-13.644,-41.7434,23947.6,-4166.6,11437.3,84.4854,279.342,-257.853,224.576,12560.4,669.446,-29.6367,-70.0898,-16.1165,-12469.3,-21722.5,-1352.12,-106.594,174.8,-347.987,842.125,11063.1,-1438.73,-20.1138,-64.8954,-112.209,2527.13,-5858.95,-910.63,-6.47243,94.6028,-83.5177,9016.31,-474.78,478.033,-137.016,48.0541,-19.2316
3.939,6038.63,-974.305,8825.83,-14.6335,-14.1567,-41.1232,24013.8,-4463.14,11326.4,82.9633,277.171,-256.269,391.271,12486.9,675.96,-29.9503,-69.1066,-16.4346,-12717.0,-21634.2,-1290.32,-105.777,173.812,-346.418,1034.66,11070.5,-1433.75,-20.3825,-64.2667,-112.403,2589.41,-5895.24,-886.342,-6.56688,99.6021,-83.1777,9052.12,-472.253,561.498,-136.345,47.691,-19.0849
3.9395,5975.15,-911.245,8855.87,-14.2305,-14.6695,-40.5031,24079.9,-4759.68,11215.6,81.4412,275.001,-254.686,557.967,12413.3,682.473,-30.264,-68.1235,-16.7526,-12964.8,-21545.8,-1228.52,-104.96,172.825,-344.848,1227.19,11077.8,-1428.76,-20.6512,-63.638,-112.596,2651.69,-5931.53,-862.053,-6.66134,104.601,-82.8378,9087.92,-469.726,644.963,-135.673,47.3279,-18.9383
3.94,5911.68,-848.184,8885.91,-13.8274,-15.1822,-39.8829,24146.1,-5056.21,11104.8,79.9191,272.831,-253.102,724.662,12339.8,688.987,-30.5776,-67.1404,-17.0706,-13212.6,-21457.4,-1166.72,-104.143,171.837,-343.279,1419.73,11085.1,-1423.78,-20.92,-63.0093,-112.79,2713.97,-5967.83,-837.765,-6.75579,109.601,-82.4979,9123.73,-467.198,728.428,-135.002,46.9648,-18.7916
3.9405,5848.2,-785.124,8915.96,-13.4243,-15.6949,-39.2627,24212.2,-5352.75,10994.0,78.397,270.661,-251.518,891.358,12266.2,695.501,-30.8912,-66.1572,-17.3886,-13460.3,-21369.0,-1104.91,-103.325,170.849,-341.71,1612.26,11092.5,-1418.8,-21.1887,-62.3806,-112.984,2776.25,-6004.12,-813.477,-6.85025,114.6,-82.1579,9159.53,-464.671,811.893,-134.331,46.6017,-18.6449
3.941,5784.72,-722.064,8946.0,-13.0213,-16.2077,-38.6425,24278.4,-5649.29,10883.2,76.8749,268.49,-249.935,1058.05,12192.7,702.015,-31.2049,-65.1741,-17.7066,-13708.1,-21280.7,-1043.11,-102.508,169.862,-340.14,1804.8,11099.8,-1413.82,-21.4574,-61.7519,-113.178,2838.53,-6040.42,-789.188,-6.9447,119.599,-81.818,9195.34,-462.144,895.358,-133.659,46.2386,-18.4983
3.9415,5721.24,-659.003,8976.04,-12.6182,-16.7204,-38.0223,24344.5,-5945.83,10772.4,75.3528,266.32,-248.351,1224.75,12119.1,708.528,-31.5185,-64.1909,-18.0246,-13955.9,-21192.3,-981.312,-101.691,168.874,-338.571,1997.33,11107.2,-1408.83,-21.7262,-61.1231,-113.372,2900.81,-6076.71,-764.9,-7.03916,124.598,-81.4781,9231.14,-459.617,978.823,-132.988,45.8755,-18.3516
3.942,5657.76,-595.943,9006.08,-12.2152,-17.2331,-37.4022,24410.7,-6242.37,10661.6,73.8307,264.15,-246.767,1391.44,12045.5,715.042,-31.8321,-63.2078,-18.3426,-14203.7,-21103.9,-919.51,-100.873,167.886,-337.001,2189.87,11114.5,-1403.85,-21.9949,-60.4944,-113.565,2963.09,-6113.0,-740.612,-7.13361,129.597,-81.1381,9266.95,-457.09,1062.29,-132.317,45.5124,-18.2049
3.9425,5598.24,-587.586,9027.79,-11.6552,-17.764,-36.8323,24458.7,-6333.5,10529.3,72.0641,261.822,-244.806,1550.07,11950.7,711.678,-32.054,-62.289,-18.7876,-14422.6,-21010.9,-848.685,-100.051,166.665,-335.376,2393.3,11139.5,-1396.0,-22.2392,-59.7955,-113.633,3026.89,-6165.67,-676.582,-7.10666,134.348,-81.1954,9288.87,-458.594,1126.37,-131.81,45.1065,-18.0366
3.943,5541.89,-622.992,9042.83,-10.9698,-18.3093,-36.3027,24492.2,-6260.3,10379.8,70.1019,259.367,-242.544,1702.23,11838.7,700.412,-32.2024,-61.4215,-19.3342,-14618.5,-20914.1,-770.64,-99.2244,165.257,-333.706,2605.44,11178.7,-1385.85,-22.464,-59.0405,-113.6,3091.89,-6231.44,-580.759,-6.98259,138.901,-81.5704,9299.68,-463.325,1174.95,-131.437,44.6664,-17.8508
3.9435,5485.53,-658.398,9057.87,-10.2844,-18.8546,-35.7731,24525.7,-6187.1,10230.4,68.1396,256.912,-240.281,1854.4,11726.8,689.146,-32.3509,-60.5541,-19.8807,-14814.4,-20817.3,-692.595,-98.3978,163.849,-332.036,2817.59,11217.9,-1375.7,-22.6887,-58.2854,-113.566,3156.9,-6297.21,-484.937,-6.85852,143.453,-81.9454,9310.5,-468.056,1223.52,-131.063,44.2263,-17.6651
3.944,5429.18,-693.804,9072.91,-9.599,-19.3999,-35.2436,24559.2,-6113.9,10080.9,66.1774,254.458,-238.018,2006.56,11614.9,677.88,-32.4993,-59.6867,-20.4273,-15010.3,-20720.5,-614.55,-97.5713,162.441,-330.366,3029.73,11257.1,-1365.56,-22.9135,-57.5303,-113.533,3221.91,-6362.97,-389.114,-6.73445,148.006,-82.3204,9321.31,-472.786,1272.1,-130.689,43.7863,-17.4794
3.9445,5372.82,-729.21,9087.95,-8.91358,-19.9452,-34.714,24592.7,-6040.7,9931.49,64.2152,252.003,-235.756,2158.73,11503.0,666.614,-32.6478,-58.8193,-20.9739,-15206.2,-20623.7,-536.505,-96.7447,161.033,-328.696,3241.88,11296.3,-1355.41,-23.1382,-56.7752,-113.499,3286.91,-6428.74,-293.292,-6.61038,152.558,-82.6954,9332.12,-477.517,1320.68,-130.315,43.3462,-17.2937
3.945,5316.46,-764.616,9102.99,-8.22817,-20.4904,-34.1844,24626.3,-5967.5,9782.03,62.253,249.549,-233.493,2310.89,11391.0,655.348,-32.7962,-57.9518,-21.5204,-15402.0,-20527.0,-458.46,-95.9182,159.626,-327.026,3454.02,11335.5,-1345.26,-23.363,-56.0202,-113.466,3351.92,-6494.51,-197.469,-6.48631,157.111,-83.0704,9342.94,-482.247,1369.26,-129.941,42.9061,-17.108
3.9455,5260.11,-800.022,9118.03,-7.54276,-21.0357,-33.6548,24659.8,-5894.3,9632.58,60.2907,247.094,-231.231,2463.06,11279.1,644.082,-32.9447,-57.0844,-22.067,-15597.9,-20430.2,-380.415,-95.0917,158.218,-325.356,3666.17,11374.7,-1335.12,-23.5878,-55.2651,-113.433,3416.93,-6560.28,-101.646,-6.36224,161.663,-83.4454,9353.75,-486.978,1417.83,-129.567,42.466,-16.9223
3.946,5203.75,-835.428,9133.07,-6.85735,-21.581,-33.1252,24693.3,-5821.1,9483.13,58.3285,244.639,-228.968,2615.23,11167.2,632.816,-33.0931,-56.217,-22.6136,-15793.8,-20333.4,-302.37,-94.2651,156.81,-323.685,3878.31,11413.9,-1324.97,-23.8125,-54.51,-113.399,3481.93,-6626.04,-5.82388,-6.23817,166.215,-83.8204,9364.56,-491.709,1466.41,-129.194,42.0259,-16.7366
3.9465,5147.4,-870.834,9148.11,-6.17193,-22.1263,-32.5956,24726.8,-5747.9,9333.67,56.3663,242.185,-226.705,2767.39,11055.2,621.55,-33.2416,-55.3495,-23.1601,-15989.7,-20236.6,-224.325,-93.4385,155.402,-322.015,4090.46,11453.1,-1314.82,-24.0373,-53.755,-113.366,3546.94,-6691.81,89.9987,-6.1141,170.768,-84.1954,9375.38,-496.439,1514.99,-128.82,41.5858,-16.5509
3.947,5119.68,-946.219,9154.67,-5.65842,-22.7096,-32.2162,24786.0,-5614.65,9171.66,54.8485,239.952,-224.328,2869.95,10937.5,575.12,-33.3259,-54.4642,-23.9309,-16170.1,-20127.7,-142.064,-92.6263,153.715,-320.084,4304.55,11495.3,-1319.33,-24.2755,-52.9637,-113.257,3626.16,-6752.63,209.129,-6.32456,174.495,-84.7927,9366.89,-506.656,1530.69,-128.337,41.2038,-16.288
3.9475,5106.29,-1041.59,9156.98,-5.23087,-23.3119,-31.9118,24858.1,-5451.38,9003.36,53.5528,237.831,-221.893,2947.7,10817.0,511.107,-33.3781,-53.5698,-24.8137,-16342.7,-20012.7,-57.695,-91.8213,151.889,-318.022,4519.62,11538.9,-1331.16,-24.5205,-52.1543,-113.11,3712.49,-6810.98,339.913,-6.70229,177.809,-85.501,9348.75,-519.615,1529.95,-127.801,40.8509,-15.9864
3.948,5092.9,-1136.96,9159.29,-4.80331,-23.9142,-31.6075,24930.2,-5288.1,8835.07,52.2572,235.71,-219.458,3025.46,10696.4,447.094,-33.4304,-52.6754,-25.6965,-16515.3,-19897.8,26.6742,-91.0162,150.064,-315.96,4734.69,11582.5,-1342.99,-24.7655,-51.3449,-112.964,3798.82,-6869.32,470.698,-7.08002,181.124,-86.2093,9330.61,-532.574,1529.21,-127.264,40.4981,-15.6849
3.9485,5079.5,-1232.34,9161.61,-4.37575,-24.5165,-31.3031,25002.3,-5124.82,8666.77,50.9616,233.589,-217.024,3103.21,10575.8,383.081,-33.4826,-51.7811,-26.5793,-16687.9,-19782.8,111.043,-90.2112,148.238,-313.898,4949.76,11626.1,-1354.83,-25.0105,-50.5355,-112.817,3885.15,-6927.66,601.482,-7.45775,184.438,-86.9176,9312.47,-545.533,1528.47,-126.728,40.1452,-15.3833
3.949,5066.11,-1327.71,9163.92,-3.94819,-25.1187,-30.9987,25074.4,-4961.54,8498.48,49.666,231.468,-214.589,3180.96,10455.3,319.068,-33.5348,-50.8867,-27.4621,-16860.5,-19667.8,195.413,-89.4061,146.412,-311.836,5164.83,11669.7,-1366.66,-25.2555,-49.7261,-112.67,3971.48,-6986.01,732.266,-7.83547,187.753,-87.6259,9294.33,-558.492,1527.73,-126.191,39.7923,-15.0818
3.9495,5052.72,-1423.08,9166.24,-3.52063,-25.721,-30.6944,25146.5,-4798.27,8330.18,48.3704,229.347,-212.154,3258.72,10334.7,255.055,-33.5871,-49.9924,-28.3449,-17033.1,-19552.9,279.782,-88.6011,144.586,-309.774,5379.9,11713.3,-1378.49,-25.5005,-48.9167,-112.523,4057.81,-7044.35,863.051,-8.2132,191.067,-88.3342,9276.18,-571.451,1527.0,-125.655,39.4394,-14.7802
3.95,5039.32,-1518.46,9168.55,-3.09307,-26.3233,-30.39,25218.6,-4634.99,8161.89,47.0748,227.225,-209.719,3336.47,10214.1,191.042,-33.6393,-49.098,-29.2277,-17205.7,-19437.9,364.151,-87.796,142.76,-307.712,5594.97,11756.9,-1390.33,-25.7455,-48.1073,-112.377,4144.14,-7102.7,993.835,-8.59093,194.382,-89.0425,9258.04,-584.41,1526.26,-125.118,39.0865,-14.4787
3.9505,5025.93,-1613.83,9170.86,-2.66551,-26.9256,-30.0856,25290.7,-4471.71,7993.59,45.7792,225.104,-207.284,3414.23,10093.5,127.029,-33.6915,-48.2036,-30.1105,-17378.3,-19322.9,448.521,-86.991,140.934,-305.65,5810.04,11800.6,-1402.16,-25.9905,-47.2979,-112.23,4230.47,-7161.04,1124.62,-8.96866,197.696,-89.7508,9239.9,-597.37,1525.52,-124.582,38.7336,-14.1772
3.951,5012.54,-1709.2,9173.17,-2.23796,-27.5279,-29.7813,25362.8,-4308.43,7825.3,44.4835,222.983,-204.849,3491.98,9972.97,63.0163,-33.7438,-47.3093,-30.9933,-17550.9,-19208.0,532.89,-86.1859,139.108,-303.588,6025.11,11844.2,-1413.99,-26.2355,-46.4886,-112.083,4316.79,-7219.39,1255.4,-9.34639,201.011,-90.4592,9221.76,-610.329,1524.78,-124.045,38.3807,-13.8756
3.9515,5006.5,-1757.08,9161.89,-1.4401,-28.0895,-29.5001,25509.9,-4279.16,7663.31,43.5164,221.068,-202.32,3529.35,9887.84,-11.409,-33.8072,-46.2195,-32.2209,-17745.3,-19115.4,597.145,-85.3465,137.276,-301.167,6205.39,11889.8,-1431.05,-26.239,-45.4611,-111.788,4446.22,-7278.38,1373.29,-10.3111,202.931,-91.0647,9210.63,-601.74,1560.87,-123.357,37.8353,-13.8291
3.952,5002.55,-1791.38,9146.71,-0.536437,-28.6396,-29.2254,25678.5,-4288.17,7503.12,42.6432,219.212,-199.763,3555.17,9812.85,-88.8093,-33.8738,-45.0738,-33.5471,-17945.9,-19029.2,655.654,-84.4972,135.442,-298.643,6375.73,11936.1,-1449.59,-26.1734,-44.3713,-111.451,4587.95,-7337.57,1487.49,-11.4436,204.452,-91.6408,9201.49,-586.994,1607.49,-122.625,37.2347,-13.8553
3.9525,4998.61,-1825.68,9131.53,0.367223,-29.1897,-28.9508,25847.0,-4297.18,7342.94,41.77,217.355,-197.207,3581.0,9737.85,-166.21,-33.9404,-43.9282,-34.8733,-18146.6,-18943.0,714.163,-83.6479,133.608,-296.12,6546.07,11982.3,-1468.14,-26.1079,-43.2815,-111.114,4729.69,-7396.75,1601.68,-12.5761,205.974,-92.217,9192.36,-572.248,1654.11,-121.893,36.6342,-13.8816
3.953,4994.67,-1859.98,9116.36,1.27088,-29.7398,-28.6762,26015.6,-4306.19,7182.75,40.8968,215.499,-194.65,3606.83,9662.85,-243.61,-34.007,-42.7826,-36.1995,-18347.3,-18856.8,772.672,-82.7986,131.774,-293.596,6716.42,12028.6,-1486.68,-26.0424,-42.1917,-110.777,4871.42,-7455.94,1715.88,-13.7086,207.496,-92.7932,9183.23,-557.503,1700.73,-121.161,36.0337,-13.9079
3.9535,4990.72,-1894.28,9101.18,2.17454,-30.2899,-28.4016,26184.2,-4315.21,7022.56,40.0235,213.643,-192.093,3632.65,9587.85,-321.01,-34.0736,-41.6369,-37.5257,-18547.9,-18770.7,831.18,-81.9492,129.94,-291.072,6886.76,12074.8,-1505.23,-25.9769,-41.102,-110.439,5013.15,-7515.12,1830.08,-14.8411,209.017,-93.3694,9174.09,-542.757,1747.34,-120.429,35.4332,-13.9342
3.954,4986.78,-1928.59,9086.01,3.0782,-30.84,-28.127,26352.7,-4324.22,6862.38,39.1503,211.786,-189.536,3658.48,9512.85,-398.411,-34.1403,-40.4913,-38.8519,-18748.6,-18684.5,889.689,-81.0999,128.106,-288.549,7057.1,12121.1,-1523.77,-25.9114,-40.0122,-110.102,5154.89,-7574.3,1944.28,-15.9735,210.539,-93.9455,9164.96,-528.012,1793.96,-119.697,34.8327,-13.9605
