Time,RFoot_accel.x,RFoot_accel.y,RFoot_accel.z,RFoot_gyro.x,RFoot_gyro.y,RFoot_gyro.z,LFoot_accel.x,LFoot_accel.y,LFoot_accel.z,LFoot_gyro.x,LFoot_gyro.y,LFoot_gyro.z,RShank_accel.x,RShank_accel.y,RShank_accel.z,RShank_gyro.x,RShank_gyro.y,RShank_gyro.z,LShank_accel.x,LShank_accel.y,LShank_accel.z,LShank_gyro.x,LShank_gyro.y,LShank_gyro.z,RThigh_accel.x,RThigh_accel.y,RThigh_accel.z,RThigh_gyro.x,RThigh_gyro.y,RThigh_gyro.z,LThigh_accel.x,LThigh_accel.y,LThigh_accel.z,LThigh_gyro.x,LThigh_gyro.y,LThigh_gyro.z,Pelvis_accel.x,Pelvis_accel.y,Pelvis_accel.z,Pelvis_gyro.x,Pelvis_gyro.y,Pelvis_gyro.z
3.57,5718.18,-2175.57,7479.29,-45.9027,-32.5258,-51.9968,10372.1,3183.26,10781.9,-24.3974,333.239,-204.305,-3943.66,8196.46,-969.303,17.1749,-97.0328,-20.5031,4638.2,-12103.1,1112.65,-92.4562,96.1309,-363.582,3521.44,6567.94,-3669.69,127.874,-167.185,-94.4824,-7411.74,724.003,-4838.69,16.2415,108.527,-124.075,3976.71,-106.284,404.195,-59.865,15.9295,-2.03812
3.571,5680.66,-2186.2,7510.33,-45.8524,-32.2787,-51.8619,10470.3,3258.93,10915.8,-28.2255,332.59,-204.611,-3866.07,8266.3,-939.959,17.541,-96.7653,-20.3461,4678.77,-12288.9,1161.8,-91.4774,98.2806,-364.219,3625.96,6515.31,-3874.37,129.222,-166.053,-95.5558,-7441.21,720.933,-4841.24,13.5903,100.138,-124.746,3986.31,-57.2292,404.569,-59.9389,15.3663,-1.13452
3.572,5643.14,-2196.83,7541.37,-45.8022,-32.0316,-51.7269,10568.4,3334.59,11049.8,-32.0536,331.941,-204.918,-3788.49,8336.14,-910.615,17.907,-96.4977,-20.189,4719.34,-12474.7,1210.96,-90.4986,100.43,-364.857,3730.49,6462.69,-4079.05,130.57,-164.921,-96.6293,-7470.68,717.863,-4843.78,10.9391,91.7488,-125.418,3995.9,-8.17451,404.944,-60.0129,14.8031,-0.23091
3.573,5605.62,-2207.46,7572.42,-45.7519,-31.7844,-51.592,10666.5,3410.25,11183.8,-35.8818,331.292,-205.224,-3710.9,8405.97,-881.271,18.2731,-96.2302,-20.0319,4759.91,-12660.4,1260.12,-89.5198,102.58,-365.495,3835.01,6410.06,-4283.73,131.919,-163.789,-97.7027,-7500.15,714.793,-4846.32,8.2879,83.3596,-126.089,4005.5,40.8801,405.318,-60.0869,14.2399,0.672697
3.574,5566.53,-2228.97,7584.56,-45.5588,-31.5444,-51.5343,10802.6,3501.15,11280.0,-39.9075,330.672,-205.55,-3615.87,8439.44,-870.383,18.483,-95.8131,-19.8349,4780.79,-12851.6,1283.4,-88.5421,104.8,-366.275,3852.2,6443.5,-4424.0,131.609,-162.178,-98.7005,-7584.72,700.306,-4907.23,6.06058,74.8605,-126.831,4003.65,108.34,397.033,-60.0515,13.5036,1.51441
3.575,5526.66,-2255.92,7587.25,-45.2942,-31.3079,-51.5152,10957.5,3599.67,11357.2,-44.032,330.066,-205.886,-3512.11,8454.72,-868.724,18.6149,-95.3213,-19.6179,4791.83,-13045.6,1293.74,-87.5648,107.056,-367.124,3825.73,6519.97,-4532.07,130.469,-160.327,-99.6605,-7696.84,680.11,-4997.32,4.04519,66.3065,-127.609,3996.08,185.002,384.416,-59.9614,12.6809,2.32517
3.576,5486.78,-2282.87,7589.94,-45.0296,-31.0715,-51.4961,11112.5,3698.19,11434.5,-48.1566,329.461,-206.221,-3408.36,8469.99,-867.065,18.7467,-94.8295,-19.4009,4802.86,-13239.5,1304.09,-86.5875,109.312,-367.974,3799.26,6596.44,-4640.14,129.33,-158.476,-100.62,-7808.95,659.914,-5087.41,2.0298,57.7524,-128.387,3988.5,261.665,371.8,-59.8713,11.8581,3.13593
3.577,5446.91,-2309.81,7592.63,-44.7649,-30.835,-51.477,11267.5,3796.7,11511.7,-52.2811,328.856,-206.557,-3304.6,8485.27,-865.406,18.8786,-94.3377,-19.1838,4813.9,-13433.4,1314.44,-85.6103,111.567,-368.824,3772.79,6672.91,-4748.21,128.191,-156.625,-101.58,-7921.07,639.719,-5177.49,0.0144134,49.1983,-129.165,3980.93,338.327,359.184,-59.7812,11.0353,3.94669
3.578,5416.29,-2312.6,7596.02,-44.4726,-30.5795,-51.4216,11426.5,3889.67,11584.5,-56.4497,328.302,-206.863,-3194.33,8490.91,-859.682,18.8387,-93.7058,-19.077,4831.17,-13629.0,1318.15,-84.6272,113.805,-369.645,3738.35,6760.51,-4851.61,126.78,-154.383,-102.4,-8032.61,616.471,-5270.42,-1.93612,41.1767,-129.842,3972.71,402.35,340.226,-59.6958,10.1793,4.77664
3.579,5418.08,-2230.84,7601.83,-44.0835,-30.2571,-51.239,11599.8,3963.2,11641.9,-60.7728,327.928,-207.061,-3061.25,8462.8,-839.732,18.1978,-92.5837,-19.3559,4870.28,-13830.5,1298.62,-83.6237,115.98,-370.363,3676.03,6887.05,-4938.69,124.417,-150.772,-102.726,-8142.14,582.542,-5373.25,-3.65967,35.0186,-130.163,3962.23,422.134,299.069,-59.6269,9.20675,5.67379
3.58,5419.86,-2149.09,7607.64,-43.6943,-29.9348,-51.0564,11773.2,4036.73,11699.3,-65.0958,327.555,-207.26,-2928.17,8434.69,-819.782,17.5568,-91.4615,-19.6347,4909.39,-14032.0,1279.09,-82.6203,118.154,-371.082,3613.7,7013.6,-5025.75,122.055,-147.161,-103.053,-8251.67,548.612,-5476.08,-5.38321,28.8604,-130.484,3951.75,441.918,257.913,-59.558,8.23421,6.57093
3.581,5421.64,-2067.33,7613.45,-43.3052,-29.6124,-50.8738,11946.5,4110.26,11756.8,-69.4188,327.181,-207.459,-2795.08,8406.58,-799.832,16.9159,-90.3394,-19.9136,4948.5,-14233.5,1259.56,-81.6168,120.329,-371.8,3551.37,7140.14,-5112.82,119.692,-143.55,-103.379,-8361.19,514.683,-5578.92,-7.10676,22.7023,-130.805,3941.27,461.702,216.756,-59.489,7.26167,7.46808
3.582,5423.43,-1985.57,7619.26,-42.916,-29.2901,-50.6913,12119.8,4183.79,11814.2,-73.7419,326.808,-207.658,-2662.0,8378.47,-779.881,16.2749,-89.2172,-20.1925,4987.61,-14435.0,1240.04,-80.6133,122.504,-372.519,3489.05,7266.69,-5199.89,117.329,-139.939,-103.706,-8470.72,480.753,-5681.75,-8.8303,16.5442,-131.126,3930.79,481.487,175.6,-59.4201,6.28913,8.36522
3.583,5400.1,-1970.17,7631.86,-42.3299,-28.9411,-50.4767,12290.9,4242.32,11871.6,-78.1047,326.688,-207.786,-2527.38,8370.46,-720.241,15.4775,-88.1104,-20.6358,4993.3,-14625.6,1190.8,-79.7444,124.591,-373.211,3404.59,7359.09,-5167.9,114.52,-136.343,-104.004,-8504.62,409.72,-5737.76,-10.6463,13.0745,-130.68,3941.41,528.024,133.094,-59.237,5.38089,9.08519
3.584,5369.61,-1973.73,7646.4,-41.6874,-28.5846,-50.253,12461.3,4296.56,11929.0,-82.479,326.641,-207.893,-2392.33,8368.18,-649.261,14.6354,-87.008,-21.126,4989.44,-14813.0,1133.09,-78.9139,126.653,-373.895,3313.81,7441.73,-5101.88,111.584,-132.753,-104.295,-8516.91,328.086,-5780.4,-12.4888,10.373,-130.015,3958.06,582.205,90.2025,-59.0213,4.49101,9.75453
3.585,5339.11,-1977.29,7660.94,-41.0449,-28.2281,-50.0293,12631.7,4350.8,11986.5,-86.8533,326.594,-208.001,-2257.27,8365.91,-578.281,13.7932,-85.9056,-21.6163,4985.58,-15000.4,1075.37,-78.0834,128.715,-374.579,3223.03,7524.38,-5035.86,108.647,-129.162,-104.585,-8529.21,246.451,-5823.04,-14.3312,7.67155,-129.35,3974.72,636.385,47.3109,-58.8056,3.60114,10.4239
3.586,5308.61,-1980.85,7675.47,-40.4025,-27.8716,-49.8057,12802.2,4405.04,12043.9,-91.2276,326.547,-208.108,-2122.21,8363.64,-507.3,12.9511,-84.8032,-22.1066,4981.72,-15187.8,1017.65,-77.2528,130.777,-375.263,3132.24,7607.03,-4969.84,105.711,-125.571,-104.876,-8541.5,164.817,-5865.68,-16.1737,4.97006,-128.685,3991.37,690.566,4.41938,-58.5899,2.71126,11.0932
3.587,5277.46,-1954.91,7697.23,-39.8069,-27.5535,-49.5425,12967.4,4482.43,12092.5,-95.5438,326.579,-208.042,-2000.28,8365.51,-423.144,12.1051,-83.7294,-22.593,4971.87,-15385.4,950.624,-76.4825,132.923,-375.93,3038.49,7696.85,-4896.66,102.668,-121.849,-105.088,-8530.63,85.9578,-5862.94,-18.067,3.1241,-127.729,4024.68,712.336,-29.7222,-58.2792,1.8484,11.6895
3.588,5244.98,-1869.94,7733.43,-39.305,-27.3119,-49.2005,13122.3,4606.13,12123.3,-99.744,326.768,-207.629,-1904.62,8375.67,-312.634,11.2512,-82.7128,-23.0719,4950.05,-15603.4,864.986,-75.8324,135.238,-376.563,2938.79,7801.02,-4809.16,99.4114,-117.865,-105.143,-8473.42,12.6501,-5769.45,-20.0621,2.98923,-126.19,4091.29,669.282,-46.364,-57.7783,1.03958,12.1396
3.589,5212.49,-1784.98,7769.62,-38.8032,-27.0704,-48.8585,13277.2,4729.82,12154.1,-103.944,326.958,-207.216,-1808.96,8385.84,-202.125,10.3973,-81.6963,-23.5509,4928.22,-15821.3,779.348,-75.1823,137.553,-377.196,2839.09,7905.19,-4721.66,96.1553,-113.88,-105.197,-8416.22,-60.6577,-5675.96,-22.0573,2.85435,-124.652,4157.9,626.229,-63.0057,-57.2774,0.230757,12.5898
3.59,5180.01,-1700.02,7805.81,-38.3014,-26.8288,-48.5164,13432.1,4853.51,12184.9,-108.144,327.147,-206.804,-1713.3,8396.0,-91.6149,9.54346,-80.6797,-24.0298,4906.4,-16039.2,693.71,-74.5323,139.868,-377.828,2739.4,8009.36,-4634.15,92.8991,-109.896,-105.252,-8359.02,-133.965,-5582.47,-24.0524,2.71947,-123.113,4224.52,583.175,-79.6474,-56.7765,-0.578066,13.0399
3.591,5147.53,-1615.06,7842.01,-37.7995,-26.5873,-48.1744,13587.0,4977.2,12215.7,-112.345,327.336,-206.391,-1617.63,8406.16,18.8946,8.68959,-79.6632,-24.5087,4884.58,-16257.1,608.072,-73.8822,142.182,-378.461,2639.7,8113.53,-4546.65,89.643,-105.911,-105.307,-8301.82,-207.273,-5488.97,-26.0475,2.5846,-121.575,4291.13,540.121,-96.2891,-56.2756,-1.38689,13.49
3.592,5149.73,-1526.32,7847.74,-37.2808,-26.55,-47.7908,13714.9,5113.01,12212.2,-116.313,327.628,-205.62,-1579.37,8421.18,120.493,8.04104,-78.8288,-24.881,4888.85,-16470.4,531.364,-73.4922,144.54,-379.037,2529.46,8196.69,-4381.74,86.1132,-102.686,-105.302,-8169.95,-306.861,-5330.27,-27.6098,2.98207,-119.871,4350.57,515.185,-143.551,-55.8423,-2.28314,13.9134
3.593,5156.25,-1437.1,7849.65,-36.7599,-26.5382,-47.402,13839.5,5250.33,12204.4,-120.252,327.932,-204.804,-1548.29,8436.8,220.977,7.41815,-78.0173,-25.24,4896.39,-16683.2,455.773,-73.1348,146.903,-379.607,2417.91,8277.22,-4207.16,82.5492,-99.555,-105.291,-8028.75,-409.733,-5163.42,-29.118,3.44608,-118.146,4409.11,492.513,-194.64,-55.4175,-3.19031,14.3335
3.594,5162.78,-1347.88,7851.57,-36.239,-26.5265,-47.0132,13964.0,5387.66,12196.7,-124.19,328.236,-203.988,-1517.2,8452.42,321.462,6.79526,-77.2058,-25.5989,4903.93,-16895.9,380.181,-72.7773,149.266,-380.176,2306.36,8357.76,-4032.58,78.9852,-96.4243,-105.279,-7887.55,-512.606,-4996.57,-30.6262,3.9101,-116.421,4467.65,469.841,-245.73,-54.9927,-4.09749,14.7535
3.595,5169.3,-1258.67,7853.49,-35.7181,-26.5147,-46.6244,14088.6,5524.98,12188.9,-128.129,328.541,-203.173,-1486.12,8468.04,421.946,6.17238,-76.3942,-25.9579,4911.47,-17108.7,304.589,-72.4198,151.629,-380.746,2194.81,8438.29,-3858.0,75.4213,-93.2936,-105.268,-7746.34,-615.479,-4829.71,-32.1344,4.37411,-114.696,4526.19,447.169,-296.819,-54.5678,-5.00467,15.1735
3.596,5182.65,-1204.34,7865.19,-35.1801,-26.4456,-46.127,14159.1,5622.94,12164.3,-131.748,328.936,-202.252,-1491.07,8491.37,510.2,5.513,-75.5468,-26.4081,4913.92,-17319.8,212.295,-71.9827,153.814,-381.5,2090.52,8535.63,-3675.16,72.0839,-90.657,-105.166,-7587.38,-718.138,-4662.04,-33.3607,4.59522,-112.956,4598.75,439.785,-344.111,-54.0026,-5.75961,15.4944
3.597,5204.53,-1193.64,7889.11,-34.6207,-26.305,-45.4938,14162.2,5671.68,12118.8,-134.965,329.446,-201.201,-1541.07,8524.33,583.167,4.808,-74.6544,-26.9723,4910.0,-17528.7,99.1232,-71.4462,155.776,-382.487,1995.29,8653.98,-3482.01,69.0299,-88.638,-104.951,-7406.21,-820.529,-4493.35,-34.2346,4.51269,-111.198,4688.82,451.51,-386.655,-53.2619,-6.32425,15.6914
3.598,5226.42,-1182.93,7913.02,-34.0613,-26.1643,-44.8606,14165.2,5720.42,12073.3,-138.183,329.955,-200.149,-1591.07,8557.29,656.134,4.10301,-73.7621,-27.5365,4906.08,-17737.7,-14.049,-70.9097,157.738,-383.474,1900.07,8772.34,-3288.85,65.9759,-86.619,-104.736,-7225.04,-922.921,-4324.66,-35.1084,4.43016,-109.44,4778.9,463.236,-429.198,-52.5213,-6.88889,15.8883
3.599,5248.3,-1172.22,7936.94,-33.5018,-26.0236,-44.2274,14168.2,5769.17,12027.7,-141.4,330.465,-199.097,-1641.07,8590.26,729.101,3.39801,-72.8697,-28.1007,4902.17,-17946.7,-127.221,-70.3732,159.7,-384.461,1804.84,8890.69,-3095.7,62.9219,-84.6,-104.521,-7043.87,-1025.31,-4155.96,-35.9823,4.34763,-107.682,4868.98,474.962,-471.742,-51.7806,-7.45353,16.0852
3.6,5270.18,-1161.51,7960.86,-32.9424,-25.8829,-43.5942,14171.3,5817.91,11982.2,-144.618,330.974,-198.046,-1691.07,8623.22,802.067,2.69301,-71.9774,-28.6649,4898.25,-18155.7,-240.393,-69.8366,161.662,-385.448,1709.62,9009.04,-2902.54,59.8678,-82.5809,-104.306,-6862.7,-1127.7,-3987.27,-36.8561,4.2651,-105.924,4959.05,486.687,-514.286,-51.0399,-8.01817,16.2822
3.601,5290.03,-1196.17,7977.35,-32.3032,-25.8119,-43.0382,14086.9,6000.53,11987.0,-147.002,331.305,-196.389,-1751.17,8667.33,831.71,2.16311,-70.8601,-29.1751,4882.42,-18324.8,-365.005,-69.8705,163.018,-386.309,1655.35,9128.72,-2697.19,57.1431,-81.7631,-103.57,-6715.27,-1244.56,-3869.91,-36.8729,3.58452,-104.706,5052.55,476.226,-579.787,-50.1165,-8.25756,16.4248
3.602,5309.88,-1230.84,7993.83,-31.6639,-25.7409,-42.4821,14002.5,6183.14,11991.9,-149.386,331.636,-194.732,-1811.27,8711.43,861.352,1.6332,-69.7428,-29.6854,4866.59,-18494.0,-489.617,-69.9044,164.375,-387.169,1601.09,9248.39,-2491.84,54.4183,-80.9452,-102.833,-6567.85,-1361.42,-3752.54,-36.8896,2.90394,-103.489,5146.04,465.765,-645.289,-49.1931,-8.49695,16.5675
3.603,5329.73,-1265.5,8010.32,-31.0247,-25.6699,-41.926,13918.1,6365.76,11996.7,-151.77,331.966,-193.075,-1871.36,8755.54,890.994,1.1033,-68.6256,-30.1956,4850.76,-18663.1,-614.229,-69.9383,165.732,-388.03,1546.82,9368.07,-2286.5,51.6936,-80.1274,-102.097,-6420.43,-1478.28,-3635.18,-36.9063,2.22336,-102.271,5239.54,455.305,-710.79,-48.2697,-8.73634,16.7102
3.604,5349.58,-1300.16,8026.81,-30.3854,-25.5989,-41.37,13833.7,6548.38,12001.5,-154.154,332.297,-191.418,-1931.46,8799.64,920.636,0.573391,-67.5083,-30.7058,4834.93,-18832.2,-738.841,-69.9722,167.089,-388.89,1492.55,9487.74,-2081.15,48.9688,-79.3095,-101.36,-6273.0,-1595.13,-3517.82,-36.9231,1.54278,-101.053,5333.03,444.844,-776.292,-47.3463,-8.97573,16.8529
3.605,5390.7,-1318.6,8030.53,-29.679,-25.5564,-40.8164,13822.9,6866.08,12025.5,-156.85,332.241,-189.219,-1981.14,8832.7,932.864,0.210228,-66.2088,-31.217,4826.44,-18977.8,-886.104,-69.9672,168.828,-389.633,1444.18,9613.98,-1869.68,46.6813,-79.2745,-100.716,-6138.0,-1676.84,-3427.66,-36.3123,1.00456,-100.047,5437.75,437.382,-822.378,-46.7885,-9.06942,17.0085
3.606,5448.82,-1324.04,8024.02,-28.9189,-25.5366,-40.2647,13870.8,7291.86,12065.0,-159.794,331.876,-186.586,-2022.49,8856.92,931.162,-0.0195403,-64.7636,-31.729,4823.81,-19104.6,-1051.49,-69.9312,170.875,-390.281,1400.53,9745.46,-1653.33,44.7435,-79.8657,-100.145,-6012.94,-1730.42,-3359.28,-35.1996,0.580229,-99.21,5551.45,432.32,-852.933,-46.5232,-9.04655,17.1744
3.607,5506.95,-1329.49,8017.52,-28.1587,-25.5168,-39.713,13918.8,7717.63,12104.4,-162.738,331.51,-183.953,-2063.84,8881.15,929.46,-0.249309,-63.3183,-32.2409,4821.18,-19231.4,-1216.87,-69.8952,172.921,-390.929,1356.88,9876.94,-1436.97,42.8058,-80.4569,-99.574,-5887.88,-1784.0,-3290.89,-34.0869,0.155901,-98.3731,5665.15,427.257,-883.488,-46.2579,-9.02368,17.3402
3.608,5565.07,-1334.93,8011.01,-27.3986,-25.497,-39.1614,13966.7,8143.4,12143.8,-165.682,331.145,-181.32,-2105.19,8905.37,927.758,-0.479078,-61.873,-32.7528,4818.56,-19358.2,-1382.25,-69.8592,174.967,-391.577,1313.23,10008.4,-1220.61,40.8681,-81.0481,-99.0031,-5762.82,-1837.58,-3222.51,-32.9741,-0.268427,-97.5363,5778.84,422.195,-914.043,-45.9926,-9.00082,17.5061
3.609,5617.35,-1333.21,8007.79,-26.6405,-25.4753,-38.6139,14039.8,8551.86,12174.6,-168.724,330.788,-178.682,-2145.73,8925.65,929.386,-0.705597,-60.4173,-33.2595,4816.54,-19477.8,-1563.44,-69.8615,177.175,-392.198,1271.7,10138.9,-1009.4,39.0112,-81.797,-98.3485,-5639.45,-1893.15,-3156.77,-31.7407,-0.636454,-96.7308,5887.2,417.668,-949.208,-45.8273,-9.0316,17.6767
3.61,5622.83,-1274.15,8030.83,-25.8986,-25.4374,-38.1006,14314.0,8821.82,12135.7,-172.55,330.503,-175.994,-2179.81,8914.4,957.661,-0.906119,-58.8777,-33.724,4819.4,-19540.0,-1871.13,-70.1706,180.681,-392.607,1247.1,10261.3,-839.411,37.801,-83.8068,-97.0239,-5529.63,-1964.58,-3112.26,-29.5415,-0.554079,-96.1753,5952.8,417.419,-1021.25,-46.4628,-9.49157,17.8843
3.611,5628.32,-1215.09,8053.87,-25.1566,-25.3995,-37.5873,14588.3,9091.78,12096.9,-176.376,330.218,-173.307,-2213.89,8903.14,985.937,-1.10664,-57.3381,-34.1885,4822.27,-19602.2,-2178.81,-70.4798,184.187,-393.015,1222.5,10383.7,-669.417,36.5908,-85.8167,-95.6992,-5419.81,-2036.0,-3067.76,-27.3424,-0.471703,-95.6198,6018.41,417.171,-1093.29,-47.0982,-9.95154,18.092
3.612,5633.8,-1156.03,8076.91,-24.4147,-25.3617,-37.074,14862.6,9361.73,12058.1,-180.202,329.933,-170.619,-2247.97,8891.89,1014.21,-1.30716,-55.7985,-34.653,4825.13,-19664.5,-2486.49,-70.789,187.692,-393.424,1197.89,10506.1,-499.424,35.3806,-87.8265,-94.3746,-5309.99,-2107.43,-3023.25,-25.1433,-0.389328,-95.0643,6084.02,416.922,-1165.33,-47.7336,-10.4115,18.2996
3.613,5639.29,-1096.97,8099.95,-23.6728,-25.3238,-36.5607,15136.8,9631.69,12019.3,-184.028,329.648,-167.932,-2282.05,8880.64,1042.49,-1.50769,-54.2589,-35.1175,4827.99,-19726.7,-2794.17,-71.0981,191.198,-393.832,1173.29,10628.5,-329.43,34.1704,-89.8364,-93.0499,-5200.17,-2178.86,-2978.74,-22.9441,-0.306952,-94.5088,6149.63,416.674,-1237.38,-48.369,-10.8715,18.5072
3.614,5624.09,-1069.54,8115.03,-22.8619,-25.4266,-36.079,15425.6,9761.84,12003.6,-187.446,329.614,-165.398,-2293.02,8883.87,1086.87,-1.55844,-52.7529,-35.6631,4814.94,-19832.3,-3147.41,-72.349,195.31,-394.049,1202.36,10687.5,-149.206,32.8269,-92.3756,-92.1125,-5092.28,-2209.68,-2880.58,-19.7159,0.723915,-94.0233,6218.89,405.306,-1259.71,-48.9483,-10.974,18.5817
3.615,5598.55,-1057.92,8126.14,-22.0165,-25.5997,-35.613,15721.7,9822.09,11999.5,-190.661,329.705,-162.94,-2292.44,8894.36,1139.3,-1.53431,-51.2636,-36.2491,4793.92,-19959.7,-3523.42,-74.0707,199.725,-394.17,1258.27,10714.8,36.1346,31.4168,-95.1794,-91.3686,-4985.34,-2220.21,-2755.6,-15.9732,2.22903,-93.5727,6289.98,388.38,-1257.2,-49.4995,-10.8978,18.5894
3.616,5573.01,-1046.31,8137.25,-21.171,-25.7728,-35.147,16017.8,9882.33,11995.3,-193.876,329.797,-160.483,-2291.86,8904.85,1191.73,-1.51018,-49.7743,-36.8352,4772.9,-20087.1,-3899.43,-75.7924,204.139,-394.29,1314.18,10742.1,221.475,30.0066,-97.9832,-90.6247,-4878.41,-2230.74,-2630.61,-12.2305,3.73414,-93.1221,6361.07,371.453,-1254.68,-50.0508,-10.8216,18.5972
3.617,5547.48,-1034.69,8148.36,-20.3255,-25.9459,-34.681,16313.8,9942.58,11991.2,-197.091,329.888,-158.025,-2291.28,8915.33,1244.17,-1.48605,-48.285,-37.4212,4751.88,-20214.4,-4275.45,-77.5141,208.554,-394.411,1370.08,10769.4,406.815,28.5965,-100.787,-89.8809,-4771.48,-2241.26,-2505.63,-8.48771,5.23925,-92.6715,6432.16,354.526,-1252.16,-50.602,-10.7455,18.605
3.618,5524.27,-1034.66,8168.0,-19.4611,-26.1662,-34.1912,16595.8,10004.8,11989.9,-200.058,329.987,-155.531,-2279.2,8931.27,1295.24,-1.37325,-46.849,-38.0333,4702.72,-20347.8,-4642.08,-79.1042,213.125,-394.466,1417.24,10782.6,582.423,27.4412,-103.633,-89.2057,-4671.52,-2269.19,-2362.39,-4.48724,7.3204,-92.2387,6492.06,330.514,-1268.37,-51.1095,-10.6371,18.5989
3.619,5509.25,-1075.22,8217.5,-18.53,-26.5515,-33.6182,16828.3,10073.8,11998.5,-202.158,330.11,-152.905,-2226.86,8966.29,1341.54,-0.950125,-45.5996,-38.7366,4555.05,-20501.8,-4975.9,-80.2333,218.242,-394.291,1433.8,10746.2,723.968,27.1779,-106.626,-88.7708,-4595.95,-2358.0,-2155.23,0.415315,11.4176,-91.8685,6512.8,281.705,-1350.11,-51.4637,-10.416,18.5438
3.62,5494.22,-1115.77,8267.0,-17.5989,-26.9369,-33.0452,17060.9,10142.8,12007.2,-204.258,330.234,-150.279,-2174.53,9001.31,1387.85,-0.526998,-44.3502,-39.4398,4407.39,-20655.9,-5309.71,-81.3625,223.359,-394.116,1450.35,10709.9,865.514,26.9146,-109.62,-88.336,-4520.39,-2446.81,-1948.07,5.31787,15.5149,-91.4983,6533.53,232.896,-1431.84,-51.8179,-10.1949,18.4887
3.621,5479.19,-1156.32,8316.51,-16.6678,-27.3222,-32.4722,17293.4,10211.8,12015.8,-206.358,330.357,-147.654,-2122.19,9036.33,1434.15,-0.103872,-43.1009,-40.1431,4259.72,-20809.9,-5643.52,-82.4917,228.475,-393.941,1466.9,10673.5,1007.06,26.6513,-112.613,-87.9011,-4444.82,-2535.63,-1740.91,10.2204,19.6122,-91.1281,6554.26,184.087,-1513.58,-52.1721,-9.97386,18.4336
3.622,5464.16,-1196.88,8366.01,-15.7368,-27.7075,-31.8992,17525.9,10280.8,12024.5,-208.458,330.48,-145.028,-2069.86,9071.35,1480.46,0.319255,-41.8515,-40.8463,4112.06,-20964.0,-5977.34,-83.6208,233.592,-393.767,1483.45,10637.2,1148.6,26.388,-115.606,-87.4663,-4369.25,-2624.44,-1533.76,15.123,23.7094,-90.7579,6575.0,135.278,-1595.32,-52.5262,-9.75279,18.3785
3.623,5446.54,-1215.24,8398.24,-14.6797,-28.0379,-31.1729,17771.6,10384.7,11977.9,-210.093,330.879,-142.461,-1982.93,9123.64,1499.51,0.503057,-40.4886,-41.6768,3922.94,-21120.3,-6225.68,-84.2871,238.391,-392.755,1569.6,10555.1,1290.74,27.0,-118.113,-87.3063,-4332.6,-2744.31,-1281.77,20.0426,29.508,-90.0948,6613.9,118.209,-1592.25,-53.1928,-9.86348,18.2903
3.624,5428.17,-1227.27,8425.54,-13.5867,-28.3525,-30.4029,18020.9,10498.5,11915.5,-211.595,331.357,-139.912,-1886.12,9180.86,1510.79,0.618481,-39.0933,-42.5436,3721.98,-21277.3,-6449.6,-84.8212,243.099,-391.505,1675.65,10459.8,1433.05,27.8621,-120.48,-87.2249,-4307.06,-2873.05,-1016.98,24.967,35.7928,-89.3479,6658.0,110.208,-1564.94,-53.9486,-10.069,18.1926
3.625,5409.8,-1239.3,8452.84,-12.4937,-28.6671,-29.6329,18270.3,10612.3,11853.1,-213.097,331.835,-137.362,-1789.31,9238.08,1522.06,0.733905,-37.698,-43.4104,3521.02,-21434.2,-6673.52,-85.3552,247.807,-390.255,1781.69,10364.6,1575.36,28.7242,-122.847,-87.1434,-4281.52,-3001.79,-752.182,29.8915,42.0775,-88.6011,6702.1,102.207,-1537.64,-54.7043,-10.2744,18.0949
3.626,5391.43,-1251.33,8480.14,-11.4007,-28.9817,-28.8629,18519.7,10726.1,11790.7,-214.599,332.312,-134.812,-1692.49,9295.31,1533.33,0.849329,-36.3027,-44.2773,3320.06,-21591.2,-6897.45,-85.8893,252.515,-389.005,1887.73,10269.4,1717.66,29.5863,-125.214,-87.062,-4255.98,-3130.53,-487.387,34.8159,48.3623,-87.8543,6746.19,94.2055,-1510.33,-55.4601,-10.4799,17.9971
3.627,5361.05,-1258.23,8519.99,-10.3351,-29.3306,-28.1335,18782.9,10857.8,11701.2,-215.977,332.935,-132.274,-1608.07,9362.14,1536.32,0.844188,-34.8422,-45.1948,3103.24,-21780.2,-7121.11,-86.1386,256.829,-387.658,1969.09,10168.6,1828.06,30.9917,-127.144,-87.1246,-4255.73,-3240.17,-231.507,39.5344,55.0931,-87.0062,6775.34,98.0968,-1485.7,-56.2162,-10.8299,17.9032
3.628,5306.63,-1254.86,8584.96,-9.32425,-29.7482,-27.4852,19073.9,11025.2,11557.4,-217.108,333.847,-129.759,-1548.41,9448.21,1522.74,0.597918,-33.2514,-46.2137,2854.7,-22033.2,-7344.25,-85.8182,260.354,-386.118,2001.06,10056.8,1874.65,33.4836,-128.201,-87.4756,-4306.09,-3311.6,6.54541,43.8408,62.7161,-85.9555,6774.58,125.773,-1466.41,-56.973,-11.4688,17.817
3.629,5252.21,-1251.49,8649.93,-8.31341,-30.1657,-26.837,19364.9,11192.7,11413.6,-218.238,334.759,-127.243,-1488.75,9534.27,1509.16,0.351647,-31.6606,-47.2326,2606.16,-22286.3,-7567.39,-85.4978,263.879,-384.578,2033.04,9945.04,1921.24,35.9755,-129.258,-87.8265,-4356.45,-3383.03,244.598,48.1473,70.339,-84.9049,6773.83,153.449,-1447.12,-57.7298,-12.1078,17.7307
3.63,5197.79,-1248.12,8714.9,-7.30257,-30.5832,-26.1888,19655.8,11360.1,11269.8,-219.369,335.672,-124.728,-1429.1,9620.33,1495.58,0.105376,-30.0698,-48.2515,2357.62,-22539.3,-7790.53,-85.1774,267.404,-383.038,2065.01,9833.23,1967.83,38.4674,-130.316,-88.1775,-4406.8,-3454.46,482.65,52.4538,77.962,-83.8543,6773.07,181.126,-1427.84,-58.4867,-12.7467,17.6444
3.631,5143.38,-1244.75,8779.87,-6.29173,-31.0007,-25.5405,19946.8,11527.5,11126.0,-220.499,336.584,-122.213,-1369.44,9706.4,1482.0,-0.140895,-28.479,-49.2704,2109.08,-22792.4,-8013.67,-84.8571,270.929,-381.498,2096.99,9721.43,2014.41,40.9593,-131.373,-88.5285,-4457.16,-3525.9,720.702,56.7602,85.5849,-82.8037,6772.31,208.802,-1408.55,-59.2435,-13.3857,17.5581
3.632,5131.85,-1206.27,8813.75,-5.43094,-31.6583,-24.821,20180.1,11825.8,10955.2,-221.545,337.373,-119.211,-1329.84,9800.13,1500.77,-0.446059,-26.9679,-50.2524,1832.47,-23026.9,-8290.12,-84.599,273.251,-379.781,2152.69,9599.37,2052.03,44.1524,-131.093,-88.9618,-4507.78,-3669.32,890.054,60.45,93.7886,-81.8218,6754.63,216.215,-1401.62,-60.3287,-13.9246,17.4189
3.633,5125.69,-1163.41,8843.74,-4.5889,-32.3459,-24.0925,20406.2,12140.4,10781.2,-222.58,338.148,-116.149,-1292.75,9894.82,1523.58,-0.758585,-25.4668,-51.2297,1552.36,-23259.0,-8573.23,-84.3486,275.422,-378.041,2211.36,9476.01,2088.52,47.4332,-130.647,-89.4055,-4558.44,-3821.74,1050.82,64.0627,102.065,-80.8486,6734.83,221.095,-1396.23,-61.4549,-14.4511,17.273
3.634,5119.52,-1120.54,8873.73,-3.74686,-33.0335,-23.364,20632.2,12455.0,10607.1,-223.614,338.922,-113.086,-1255.66,9989.51,1546.39,-1.07111,-23.9657,-52.207,1272.24,-23491.1,-8856.33,-84.0983,277.593,-376.301,2270.03,9352.66,2125.01,50.7139,-130.2,-89.8491,-4609.09,-3974.16,1211.58,67.6754,110.341,-79.8753,6715.03,225.976,-1390.84,-62.5811,-14.9775,17.1271
3.635,5113.36,-1077.67,8903.72,-2.90483,-33.7212,-22.6356,20858.3,12769.6,10433.0,-224.649,339.696,-110.024,-1218.57,10084.2,1569.21,-1.38364,-22.4646,-53.1843,992.118,-23723.3,-9139.44,-83.848,279.764,-374.562,2328.69,9229.31,2161.51,53.9947,-129.754,-90.2928,-4659.75,-4126.57,1372.35,71.2881,118.617,-78.9021,6695.24,230.856,-1385.46,-63.7074,-15.5039,16.9812
3.636,5113.91,-1064.48,8928.03,-2.12305,-34.5302,-21.9403,21054.3,13130.0,10228.4,-225.967,340.246,-106.639,-1188.01,10167.0,1580.58,-1.80035,-21.0453,-54.1942,676.002,-23926.8,-9399.52,-83.4456,280.928,-372.882,2344.66,9155.19,2150.54,57.0906,-128.494,-90.7281,-4745.87,-4274.74,1599.5,74.8023,126.754,-77.8839,6669.26,226.126,-1394.74,-64.9597,-16.0943,16.8057
3.637,5122.86,-1088.37,8945.26,-1.4166,-35.4911,-21.2866,21212.6,13547.5,9985.81,-227.638,340.515,-102.851,-1165.6,10234.8,1577.66,-2.34731,-19.7281,-55.2448,314.888,-24094.7,-9630.82,-82.853,280.833,-371.276,2307.25,9142.61,2080.26,59.9554,-126.219,-91.153,-4876.32,-4417.59,1909.65,78.1933,134.718,-76.8095,6635.57,209.381,-1422.37,-66.3696,-16.7646,16.5933
3.638,5131.8,-1112.25,8962.49,-0.710153,-36.452,-20.633,21370.9,13964.9,9743.18,-229.31,340.784,-99.0639,-1143.19,10302.6,1574.74,-2.89427,-18.411,-56.2953,-46.2261,-24262.6,-9862.11,-82.2605,280.738,-369.671,2269.84,9130.03,2009.98,62.8203,-123.943,-91.578,-5006.78,-4560.45,2219.79,81.5842,142.681,-75.7352,6601.87,192.637,-1450.0,-67.7795,-17.4349,16.3808
3.639,5140.75,-1136.14,8979.72,-0.00370365,-37.4129,-19.9793,21529.2,14382.4,9500.55,-230.981,341.053,-95.2764,-1120.78,10370.5,1571.82,-3.44122,-17.0938,-57.3459,-407.34,-24430.5,-10093.4,-81.668,280.643,-368.066,2232.43,9117.45,1939.7,65.6851,-121.667,-92.0029,-5137.23,-4703.3,2529.93,84.9752,150.645,-74.6608,6568.18,175.893,-1477.62,-69.1894,-18.1051,16.1683
3.64,5149.7,-1160.03,8996.95,0.702745,-38.3738,-19.3256,21687.5,14799.9,9257.93,-232.652,341.322,-91.4889,-1098.37,10438.3,1568.89,-3.98818,-15.7767,-58.3965,-768.454,-24598.4,-10324.7,-81.0755,280.548,-366.46,2195.02,9104.87,1869.41,68.5499,-119.392,-92.4279,-5267.68,-4846.15,2840.08,88.3662,158.608,-73.5865,6534.48,159.149,-1505.25,-70.5994,-18.7754,15.9558
3.641,5172.54,-1158.67,9045.27,1.12522,-39.1523,-18.7789,21834.8,15158.8,8981.76,-235.04,340.896,-87.3001,-1116.48,10474.4,1505.52,-4.7355,-14.3999,-59.4307,-1038.3,-24767.6,-10576.8,-80.0481,279.011,-365.338,2148.2,9168.16,1740.35,69.9878,-115.598,-92.5414,-5391.33,-4966.19,3182.71,91.1727,164.957,-71.906,6542.08,197.673,-1500.15,-71.6285,-19.5972,16.0288
3.642,5195.37,-1157.31,9093.6,1.54769,-39.9308,-18.2321,21982.1,15517.7,8705.59,-237.428,340.469,-83.1113,-1134.58,10510.6,1442.14,-5.48283,-13.0231,-60.4649,-1308.14,-24936.8,-10829.0,-79.0207,277.473,-364.216,2101.38,9231.46,1611.29,71.4257,-111.805,-92.6549,-5514.98,-5086.24,3525.35,93.979,171.306,-70.2255,6549.67,236.197,-1495.05,-72.6577,-20.4189,16.1017
3.643,5218.21,-1155.94,9141.92,1.97016,-40.7093,-17.6854,22129.4,15876.6,8429.42,-239.816,340.042,-78.9226,-1152.69,10546.7,1378.77,-6.23015,-11.6464,-61.4991,-1577.99,-25106.1,-11081.1,-77.9934,275.936,-363.094,2054.56,9294.76,1482.23,72.8636,-108.011,-92.7684,-5638.63,-5206.28,3867.98,96.7855,177.654,-68.545,6557.27,274.721,-1489.94,-73.6869,-21.2407,16.1747
3.644,5241.05,-1154.58,9190.24,2.39263,-41.4878,-17.1387,22276.6,16235.5,8153.25,-242.204,339.615,-74.7338,-1170.8,10582.8,1315.39,-6.97747,-10.2696,-62.5333,-1847.83,-25275.3,-11333.2,-76.966,274.398,-361.972,2007.74,9358.06,1353.16,74.3015,-104.217,-92.8819,-5762.28,-5326.32,4210.61,99.5919,184.003,-66.8646,6564.87,313.245,-1484.84,-74.7161,-22.0624,16.2476
3.645,5264.25,-1175.66,9210.79,2.68606,-42.3367,-16.6783,22445.7,16509.7,7886.23,-244.551,338.734,-70.477,-1218.14,10618.9,1259.72,-7.62361,-9.04924,-63.5964,-2113.63,-25411.9,-11599.8,-76.0837,272.253,-360.801,1936.86,9462.81,1207.54,74.6384,-99.8903,-92.7115,-5876.19,-5469.38,4584.22,101.832,189.152,-64.6662,6568.07,320.73,-1498.23,-75.6909,-22.9176,16.2443
3.646,5287.74,-1214.7,9209.11,2.87627,-43.242,-16.2871,22632.1,16716.2,7626.52,-246.864,337.489,-66.1657,-1288.86,10655.1,1210.22,-8.18881,-7.95406,-64.6827,-2376.19,-25522.3,-11878.0,-75.3176,269.62,-359.59,1846.73,9600.73,1048.66,74.0945,-95.1361,-92.314,-5982.32,-5630.84,4982.62,103.619,193.341,-62.0534,6567.76,303.383,-1526.41,-76.6222,-23.7995,16.1799
3.647,5311.23,-1253.74,9207.43,3.06648,-44.1473,-15.8959,22818.5,16922.7,7366.81,-249.178,336.245,-61.8544,-1359.58,10691.2,1160.72,-8.75401,-6.85888,-65.7691,-2638.75,-25632.8,-12156.2,-74.5514,266.988,-358.38,1756.6,9738.65,889.782,73.5506,-90.3819,-91.9164,-6088.44,-5792.31,5381.01,105.406,197.53,-59.4406,6567.45,286.037,-1554.58,-77.5535,-24.6815,16.1155
3.648,5334.72,-1292.78,9205.75,3.25668,-45.0525,-15.5047,23005.0,17129.2,7107.11,-251.492,335.001,-57.5431,-1430.31,10727.4,1111.21,-9.3192,-5.76369,-66.8554,-2901.31,-25743.3,-12434.4,-73.7852,264.355,-357.17,1666.48,9876.56,730.904,73.0067,-85.6277,-91.5189,-6194.57,-5953.78,5779.41,107.193,201.719,-56.8279,6567.14,268.691,-1582.76,-78.4849,-25.5634,16.0511
3.649,5351.99,-1331.04,9204.8,3.41959,-45.9558,-15.1386,23191.4,17313.9,6851.79,-253.696,333.648,-53.2506,-1500.67,10762.0,1063.88,-9.86214,-4.71142,-67.9433,-3163.35,-25841.2,-12716.8,-73.1852,261.661,-355.903,1574.08,10019.3,563.479,72.2045,-80.8986,-91.0868,-6285.4,-6122.23,6174.47,108.877,205.836,-54.274,6569.49,248.419,-1612.27,-79.3713,-26.4145,15.9587
3.65,5319.46,-1363.03,9209.7,3.36405,-46.843,-14.9741,23378.1,17324.5,6631.6,-255.021,331.434,-49.1076,-1568.16,10784.6,1033.91,-10.2271,-4.00241,-69.0438,-3421.25,-25837.9,-13032.5,-73.9141,258.473,-354.178,1463.54,10200.3,327.675,69.3365,-76.3704,-90.3782,-6253.87,-6346.52,6542.87,109.734,209.373,-52.1916,6593.12,204.748,-1652.5,-79.899,-27.0192,15.6419
3.651,5286.94,-1395.03,9214.6,3.30852,-47.7302,-14.8096,23564.7,17335.1,6411.42,-256.347,329.219,-44.9646,-1635.65,10807.2,1003.94,-10.592,-3.2934,-70.1443,-3679.15,-25834.7,-13348.2,-74.643,255.285,-352.453,1353.01,10381.4,91.8705,66.4684,-71.8423,-89.6695,-6222.35,-6570.81,6911.26,110.591,212.911,-50.1092,6616.76,161.077,-1692.73,-80.4266,-27.6238,15.3252
3.652,5254.42,-1427.03,9219.5,3.25298,-48.6174,-14.6451,23751.3,17345.6,6191.23,-257.672,327.005,-40.8217,-1703.14,10829.7,973.966,-10.9569,-2.58438,-71.2449,-3937.05,-25831.5,-13664.0,-75.3719,252.097,-350.728,1242.47,10562.4,-143.934,63.6004,-67.3141,-88.9609,-6190.82,-6795.1,7279.66,111.448,216.448,-48.0267,6640.39,117.405,-1732.95,-80.9543,-28.2285,15.0084
3.653,5221.9,-1459.02,9224.41,3.19745,-49.5046,-14.4806,23937.9,17356.2,5971.04,-258.998,324.79,-36.6787,-1770.63,10852.3,943.994,-11.3218,-1.87537,-72.3454,-4194.95,-25828.3,-13979.7,-76.1008,248.909,-349.003,1131.94,10743.5,-379.738,60.7324,-62.7859,-88.2523,-6159.3,-7019.39,7648.06,112.305,219.986,-45.9443,6664.03,73.7338,-1773.18,-81.4819,-28.8332,14.6916
3.654,5199.18,-1482.45,9243.53,3.19239,-50.3214,-14.2484,24069.6,17258.7,5796.33,-259.27,321.746,-32.7835,-1823.72,10851.3,888.127,-11.5117,-1.31277,-73.4588,-4447.12,-25834.2,-14144.6,-77.387,244.732,-346.304,1033.59,10914.2,-573.807,56.7563,-58.7593,-87.1474,-6086.01,-7233.24,8021.3,112.622,223.561,-44.2087,6697.49,105.98,-1869.28,-81.3443,-29.1692,14.4056
3.655,5181.37,-1501.59,9269.77,3.21258,-51.103,-13.9823,24173.8,17107.0,5644.35,-259.015,318.286,-29.0122,-1869.61,10838.5,819.313,-11.6142,-0.823384,-74.5786,-4696.42,-25844.7,-14234.1,-78.9519,240.06,-343.118,941.325,11079.7,-747.007,52.2263,-54.9835,-85.8443,-5991.83,-7441.87,8396.96,112.67,227.155,-42.6465,6735.85,176.185,-1993.33,-80.874,-29.371,14.1349
3.656,5163.56,-1520.72,9296.01,3.23277,-51.8846,-13.7163,24277.9,16955.4,5492.38,-258.76,314.827,-25.2409,-1915.49,10825.7,750.499,-11.7167,-0.333993,-75.6983,-4945.73,-25855.2,-14323.6,-80.5168,235.388,-339.931,849.063,11245.2,-920.208,47.6962,-51.2077,-84.5411,-5897.66,-7650.5,8772.63,112.718,230.75,-41.0842,6774.22,246.39,-2117.37,-80.4037,-29.5728,13.8642
3.657,5145.74,-1539.86,9322.25,3.25295,-52.6662,-13.4502,24382.1,16803.8,5340.41,-258.505,311.367,-21.4696,-1961.38,10813.0,681.685,-11.8192,0.155397,-76.8182,-5195.04,-25865.7,-14413.1,-82.0816,230.715,-336.745,756.802,11410.7,-1093.41,43.1662,-47.4318,-83.238,-5803.48,-7859.14,9148.29,112.765,234.344,-39.522,6812.59,316.595,-2241.41,-79.9334,-29.7746,13.5935
3.658,5125.86,-1582.11,9347.55,3.25409,-53.4916,-13.2234,24480.4,16589.7,5199.07,-257.797,307.601,-17.9278,-2003.46,10794.9,613.792,-11.9078,0.637076,-77.9404,-5438.46,-25894.5,-14500.8,-83.1524,226.506,-333.447,673.827,11576.8,-1270.9,38.5313,-43.9922,-81.8544,-5647.75,-8042.01,9526.94,112.565,237.553,-38.3609,6857.61,369.053,-2353.0,-79.3525,-30.0044,13.2347
3.659,5098.75,-1705.22,9369.51,3.18853,-54.4705,-13.1341,24558.2,16157.1,5094.96,-255.506,302.766,-15.1893,-2032.24,10758.0,549.126,-11.9476,1.09177,-79.0713,-5661.32,-25987.3,-14582.3,-82.4938,223.916,-329.756,623.355,11745.1,-1463.42,33.5294,-41.7294,-80.1892,-5276.58,-8134.73,9916.05,111.498,239.409,-38.6038,6925.92,359.4,-2420.99,-78.3839,-30.3321,12.5676
3.66,5071.63,-1828.34,9391.48,3.12298,-55.4494,-13.0449,24636.0,15724.4,4990.85,-253.215,297.93,-12.4507,-2061.02,10721.1,484.46,-11.9875,1.54646,-80.2023,-5884.17,-26080.2,-14663.7,-81.8352,221.326,-326.066,572.884,11913.4,-1655.94,28.5275,-39.4666,-78.5239,-4905.41,-8227.45,10305.2,110.431,241.266,-38.8467,6994.22,349.746,-2488.98,-77.4154,-30.6599,11.9005
3.661,5044.52,-1951.45,9413.44,3.05743,-56.4283,-12.9556,24713.8,15291.8,4886.74,-250.924,293.094,-9.71208,-2089.79,10684.3,419.794,-12.0273,2.00115,-81.3332,-6107.02,-26173.0,-14745.2,-81.1766,218.736,-322.375,522.413,12081.6,-1848.46,23.5256,-37.2038,-76.8586,-4534.24,-8320.17,10694.3,109.364,243.122,-39.0896,7062.53,340.092,-2556.97,-76.4469,-30.9876,11.2334
3.662,5017.41,-2074.57,9435.41,2.99188,-57.4072,-12.8663,24791.6,14859.2,4782.63,-248.632,288.258,-6.97349,-2118.57,10647.4,355.128,-12.0672,2.45584,-82.4641,-6329.87,-26265.8,-14826.6,-80.518,216.146,-318.684,471.941,12249.9,-2040.98,18.5238,-34.941,-75.1934,-4163.07,-8412.89,11083.4,108.296,244.978,-39.3325,7130.83,330.439,-2624.96,-75.4784,-31.3154,10.5663
3.663,5015.03,-2102.19,9434.28,2.95945,-58.5079,-12.775,24862.6,14182.5,4681.28,-243.865,282.602,-5.62792,-2133.5,10644.5,281.56,-12.1407,2.83968,-83.6163,-6602.29,-26399.5,-14790.0,-80.099,213.219,-314.124,497.324,12358.3,-2161.82,14.2372,-33.5061,-73.5701,-3721.92,-8493.01,11356.3,105.421,245.112,-40.8281,7233.14,385.974,-2685.51,-74.3475,-31.7043,9.84893
3.664,5019.72,-2102.53,9426.55,2.93649,-59.6433,-12.6832,24931.6,13436.1,4580.72,-238.389,276.712,-4.68034,-2144.47,10651.4,205.45,-12.2237,3.20328,-84.7746,-6888.87,-26544.9,-14719.5,-79.7486,210.196,-309.314,544.38,12449.6,-2262.17,10.1551,-32.3078,-71.9588,-3260.78,-8569.53,11595.9,102.03,244.753,-42.6816,7345.15,460.136,-2743.93,-73.1702,-32.1106,9.11723
3.665,5024.42,-2102.87,9418.83,2.91352,-60.7787,-12.5913,25000.6,12689.7,4480.15,-232.914,270.822,-3.73277,-2155.44,10658.2,129.339,-12.3068,3.56688,-85.9329,-7175.45,-26690.3,-14649.1,-79.3982,207.172,-304.505,591.436,12540.8,-2362.52,6.07291,-31.1095,-70.3475,-2799.64,-8646.05,11835.6,98.6383,244.393,-44.5351,7457.17,534.297,-2802.35,-71.9929,-32.5169,8.38553
3.666,5029.11,-2103.21,9411.1,2.89056,-61.9141,-12.4995,25069.7,11943.3,4379.59,-227.438,264.933,-2.78519,-2166.4,10665.0,53.2279,-12.3899,3.93048,-87.0912,-7462.03,-26835.7,-14578.7,-79.0477,204.149,-299.695,638.492,12632.1,-2462.87,1.99075,-29.9112,-68.7362,-2338.5,-8722.56,12075.2,95.2468,244.034,-46.3886,7569.19,608.458,-2860.78,-70.8156,-32.9233,7.65384
3.667,5029.74,-2127.31,9413.81,2.91149,-63.1498,-12.4426,25108.5,11114.9,4258.7,-220.586,258.956,-2.44968,-2171.57,10684.6,-10.6292,-12.5097,4.20085,-88.2096,-7783.85,-26970.1,-14496.4,-79.1276,200.689,-294.583,708.013,12684.5,-2547.98,-1.69197,-29.2688,-67.2996,-1823.25,-8817.71,12303.1,90.7965,242.958,-48.7935,7698.57,668.83,-2916.24,-69.2847,-33.3028,6.798
3.668,5022.24,-2198.95,9437.41,3.0202,-64.5861,-12.4556,25087.1,10122.6,4097.19,-210.979,252.806,-3.33829,-2165.14,10729.7,-49.9787,-12.7028,4.28476,-89.2483,-8176.15,-27082.3,-14390.2,-80.068,196.357,-288.863,822.465,12659.4,-2602.6,-4.57584,-29.7383,-66.2122,-1199.8,-8950.11,12507.4,84.2287,240.449,-52.301,7862.68,701.623,-2965.79,-67.0467,-33.6287,5.6939
3.669,5014.74,-2270.59,9461.01,3.12891,-66.0224,-12.4686,25065.7,9130.22,3935.67,-201.373,246.656,-4.22689,-2158.71,10774.7,-89.3282,-12.8959,4.36868,-90.287,-8568.45,-27194.5,-14284.1,-81.0084,192.024,-283.143,936.916,12634.3,-2657.23,-7.4597,-30.2078,-65.1249,-576.345,-9082.52,12711.6,77.6608,237.94,-55.8085,8026.78,734.416,-3015.34,-64.8087,-33.9547,4.58979
3.67,5007.24,-2342.23,9484.61,3.23762,-67.4586,-12.4816,25044.2,8137.87,3774.15,-191.767,240.505,-5.1155,-2152.28,10819.8,-128.678,-13.089,4.45259,-91.3256,-8960.75,-27306.7,-14177.9,-81.9488,187.692,-277.423,1051.37,12609.2,-2711.85,-10.3436,-30.6773,-64.0376,47.1078,-9214.92,12915.9,71.0928,235.431,-59.316,8190.89,767.21,-3064.89,-62.5707,-34.2806,3.48568
3.671,4999.74,-2413.87,9508.2,3.34634,-68.8949,-12.4946,25022.8,7145.52,3612.64,-182.16,234.355,-6.00411,-2145.84,10864.9,-168.027,-13.2821,4.53651,-92.3643,-9353.05,-27418.8,-14071.8,-82.8892,183.359,-271.703,1165.82,12584.0,-2766.47,-13.2274,-31.1468,-62.9502,670.561,-9347.32,13120.2,64.5249,232.921,-62.8236,8354.99,800.003,-3114.43,-60.3327,-34.6065,2.38157
3.672,5012.74,-2484.38,9515.22,3.66871,-70.2764,-12.5761,24836.4,6218.38,3669.41,-168.596,227.651,-7.65915,-2145.79,10921.6,-199.191,-13.5432,4.47782,-93.229,-9776.44,-27699.7,-14268.5,-81.7843,175.446,-269.405,1380.43,12467.9,-2812.76,-14.3612,-32.3782,-62.2303,1304.86,-9510.91,13634.6,55.1264,229.616,-67.3514,8534.63,884.749,-3100.59,-56.928,-34.8135,1.10419
3.673,5028.3,-2554.74,9520.17,4.0178,-71.6511,-12.6661,24629.4,5299.4,3753.47,-154.537,220.877,-9.40999,-2146.54,10979.8,-229.331,-13.8129,4.40132,-94.0719,-10203.7,-28001.7,-14503.0,-80.4238,167.085,-267.534,1607.56,12340.3,-2858.01,-15.2763,-33.7049,-61.5564,1940.51,-9678.4,14187.8,45.374,226.211,-72.0067,8716.2,975.989,-3078.82,-53.3774,-35.0055,-0.194855
3.674,5043.86,-2625.11,9525.12,4.36688,-73.0257,-12.7561,24422.5,4380.41,3837.54,-140.477,214.103,-11.1608,-2147.29,11038.0,-259.472,-14.0825,4.32481,-94.9149,-10631.0,-28303.7,-14737.6,-79.0632,158.725,-265.663,1834.7,12212.8,-2903.26,-16.1913,-35.0316,-60.8825,2576.17,-9845.88,14741.1,35.6217,222.806,-76.662,8897.78,1067.23,-3057.05,-49.8268,-35.1976,-1.4939
3.675,5059.42,-2695.48,9530.06,4.71597,-74.4004,-12.8461,24215.5,3461.42,3921.6,-126.418,207.329,-12.9117,-2148.04,11096.3,-289.613,-14.3522,4.2483,-95.7578,-11058.3,-28605.6,-14972.2,-77.7027,150.364,-263.792,2061.83,12085.2,-2948.51,-17.1064,-36.3583,-60.2085,3211.82,-10013.4,15294.3,25.8693,219.401,-81.3173,9079.35,1158.47,-3035.27,-46.2762,-35.3897,-2.79294
3.676,5090.83,-2774.37,9557.99,5.05436,-75.7979,-12.9618,24062.6,2802.52,3966.92,-110.015,200.096,-13.745,-2162.59,11156.6,-345.37,-14.7109,4.1534,-96.673,-11808.4,-28811.8,-15230.0,-77.0002,140.336,-263.048,2264.71,11935.5,-2979.41,-17.0569,-37.8346,-59.823,3787.69,-10274.5,15745.4,14.3846,217.89,-86.1327,9277.6,1203.38,-2960.06,-42.4666,-35.6209,-4.23847
3.677,5142.06,-2863.92,9614.63,5.37939,-77.2239,-13.1096,23977.5,2468.72,3963.83,-90.6819,192.29,-13.4316,-2194.39,11219.5,-433.148,-15.1809,4.03552,-97.6786,-12962.1,-28898.3,-15516.9,-77.1203,128.224,-263.712,2437.28,11758.1,-2992.35,-15.8017,-39.4979,-59.798,4288.84,-10652.6,16068.9,0.734453,218.747,-91.1482,9496.68,1190.38,-2818.04,-38.3331,-35.9009,-5.86713
3.678,5193.29,-2953.47,9671.27,5.70442,-78.65,-13.2575,23892.4,2134.93,3960.74,-71.3487,184.483,-13.1181,-2226.2,11282.4,-520.926,-15.651,3.91764,-98.6842,-14115.7,-28984.9,-15803.9,-77.2403,116.111,-264.376,2609.84,11580.7,-3005.29,-14.5466,-41.1613,-59.7729,4789.98,-11030.7,16392.3,-12.9157,219.603,-96.1637,9715.77,1177.37,-2676.01,-34.1997,-36.181,-7.49578
3.679,5244.51,-3043.02,9727.91,6.02946,-80.076,-13.4053,23807.2,1801.13,3957.64,-52.0156,176.677,-12.8046,-2258.0,11345.4,-608.705,-16.121,3.79976,-99.6897,-15269.4,-29071.4,-16090.8,-77.3604,103.998,-265.041,2782.41,11403.3,-3018.23,-13.2915,-42.8246,-59.7479,5291.13,-11408.9,16715.8,-26.5658,220.459,-101.179,9934.85,1164.37,-2533.99,-30.0663,-36.4611,-9.12444
3.68,5295.74,-3132.57,9784.55,6.35449,-81.502,-13.5531,23722.1,1467.33,3954.55,-32.6824,168.87,-12.4912,-2289.81,11408.3,-696.483,-16.5911,3.68188,-100.695,-16423.1,-29157.9,-16377.7,-77.4805,91.8858,-265.705,2954.97,11225.9,-3031.18,-12.0363,-44.4879,-59.7228,5792.27,-11787.0,17039.2,-40.216,221.316,-106.195,10153.9,1151.37,-2391.97,-25.9329,-36.7412,-10.7531
3.681,5315.17,-3221.23,9889.94,7.21179,-84.0093,-13.8469,24963.7,1274.67,3097.03,-12.4752,164.068,-12.289,-2334.45,11494.7,-784.292,-16.9726,3.69458,-101.938,-17784.7,-28930.5,-15359.4,-67.3302,83.9931,-261.699,3147.28,11076.6,-2984.88,-9.73071,-46.3287,-60.4873,6221.77,-12070.4,16884.5,-55.5569,225.976,-109.831,10385.3,951.097,-2123.05,-24.7378,-37.6906,-11.7941
3.682,5334.59,-3309.89,9995.32,8.06908,-86.5167,-14.1406,26205.3,1082.0,2239.5,7.73204,159.265,-12.0868,-2379.1,11581.1,-872.1,-17.3541,3.70729,-103.182,-19146.4,-28703.1,-14341.1,-57.18,76.1005,-257.692,3339.59,10927.2,-2938.59,-7.42509,-48.1696,-61.2517,6651.27,-12353.9,16729.7,-70.8978,230.637,-113.467,10616.7,750.825,-1854.14,-23.5427,-38.6401,-12.8351
3.683,5354.01,-3398.55,10100.7,8.92638,-89.024,-14.4343,27446.9,889.329,1381.98,27.9393,154.463,-11.8846,-2423.74,11667.6,-959.909,-17.7357,3.71999,-104.425,-20508.1,-28475.7,-13322.8,-47.0298,68.2079,-253.686,3531.9,10777.8,-2892.29,-5.11946,-50.0104,-62.0162,7080.77,-12637.3,16575.0,-86.2388,235.297,-117.104,10848.1,550.554,-1585.22,-22.3476,-39.5896,-13.876
3.684,5373.44,-3487.21,10206.1,9.78368,-91.5313,-14.7281,28688.5,696.66,524.456,48.1465,149.661,-11.6824,-2468.39,11754.0,-1047.72,-18.1172,3.7327,-105.668,-21869.7,-28248.3,-12304.6,-36.8796,60.3152,-249.679,3724.21,10628.5,-2846.0,-2.81384,-51.8512,-62.7806,7510.27,-12920.7,16420.2,-101.58,239.958,-120.74,11079.5,350.282,-1316.31,-21.1524,-40.539,-14.917
3.685,5351.01,-3507.86,10142.7,9.9966,-93.3986,-15.0935,30279.3,393.552,-386.878,67.8746,148.383,-12.9322,-2512.9,11875.4,-1121.55,-18.4794,3.59085,-106.756,-23112.9,-28213.3,-11251.3,-28.5643,53.0232,-245.34,3868.34,10499.0,-2788.24,-0.0995973,-53.713,-64.0514,8121.53,-13195.0,16259.7,-115.792,242.777,-123.611,11264.0,163.736,-1110.69,-20.5995,-41.2453,-15.8793
3.686,5295.09,-3474.09,9944.42,9.69402,-94.7538,-15.5162,32149.5,2.09262,-1341.26,87.2193,149.926,-15.3437,-2557.32,12024.8,-1184.19,-18.826,3.32537,-107.72,-24261.3,-28332.3,-10170.0,-21.7168,46.2115,-240.735,3973.92,10385.6,-2721.32,2.94154,-55.5915,-65.7272,8878.2,-13461.9,16094.5,-129.103,244.123,-125.869,11411.1,-11.8313,-955.722,-20.5603,-41.757,-16.7787
3.687,5239.18,-3440.32,9746.09,9.39144,-96.109,-15.9389,34019.7,-389.367,-2295.64,106.564,151.469,-17.7552,-2601.74,12174.3,-1246.83,-19.1726,3.05989,-108.684,-25409.7,-28451.2,-9088.72,-14.8693,39.3999,-236.13,4079.51,10272.1,-2654.4,5.98268,-57.4701,-67.403,9634.87,-13728.8,15929.3,-142.413,245.469,-128.127,11558.1,-187.398,-800.749,-20.5212,-42.2687,-17.6782
3.688,5183.26,-3406.54,9547.76,9.08886,-97.4642,-16.3617,35889.9,-780.826,-3250.02,125.909,153.012,-20.1666,-2646.15,12323.7,-1309.47,-19.5193,2.79441,-109.648,-26558.1,-28570.2,-8007.43,-8.02189,32.5883,-231.525,4185.09,10158.6,-2587.47,9.02381,-59.3486,-69.0788,10391.5,-13995.6,15764.2,-155.723,246.814,-130.385,11705.2,-362.965,-645.776,-20.482,-42.7804,-18.5776
3.689,5135.14,-3380.51,9389.86,8.80732,-98.8036,-16.8218,37693.1,-1249.76,-4166.93,145.402,155.068,-22.9358,-2689.76,12472.1,-1372.01,-19.9245,2.46516,-110.582,-27702.9,-28621.6,-6900.88,-3.17788,25.1756,-227.016,4282.4,10054.0,-2520.23,12.0011,-61.1661,-70.8142,11197.8,-14241.5,15612.8,-168.644,247.568,-132.248,11845.7,-527.645,-493.93,-20.1944,-43.1779,-19.5048
3.69,5149.37,-3416.39,9555.4,8.69409,-100.017,-17.5818,38960.4,-2338.48,-4784.05,166.08,161.231,-28.5663,-2726.87,12611.8,-1433.69,-20.7981,1.62569,-111.275,-28819.0,-28132.7,-5592.19,-14.3615,12.9551,-223.272,4313.54,10021.0,-2450.4,14.4674,-62.4952,-73.0261,12400.9,-14319.2,15571.5,-178.45,243.584,-130.946,11934.1,-605.229,-367.098,-17.9199,-42.6619,-20.6548
3.691,5163.59,-3452.26,9720.93,8.58087,-101.23,-18.3417,40227.6,-3427.19,-5401.18,186.759,167.394,-34.1969,-2763.97,12751.5,-1495.37,-21.6717,0.786219,-111.968,-29935.0,-27643.8,-4283.49,-25.5451,0.734516,-219.527,4344.69,9987.89,-2380.57,16.9338,-63.8242,-75.2381,13603.9,-14397.0,15530.3,-188.257,239.6,-129.645,12022.6,-682.812,-240.265,-15.6453,-42.1459,-21.8048
3.692,5177.82,-3488.13,9886.47,8.46765,-102.443,-19.1016,41494.8,-4515.91,-6018.3,207.437,173.557,-39.8275,-2801.08,12891.2,-1557.05,-22.5453,-0.0532493,-112.662,-31051.1,-27154.9,-2974.8,-36.7287,-11.486,-215.783,4375.83,9954.81,-2310.75,19.4001,-65.1532,-77.45,14807.0,-14474.7,15489.1,-198.063,235.616,-128.343,12111.0,-760.395,-113.433,-13.3707,-41.6299,-22.9548
3.693,5192.04,-3524.01,10052.0,8.35443,-103.655,-19.8616,42762.0,-5604.63,-6635.42,228.115,179.719,-45.458,-2838.19,13031.0,-1618.73,-23.4189,-0.892718,-113.355,-32167.2,-26666.1,-1666.11,-47.9123,-23.7066,-212.038,4406.98,9921.73,-2240.92,21.8664,-66.4823,-79.6619,16010.1,-14552.5,15447.9,-207.869,231.632,-127.042,12199.4,-837.979,13.3996,-11.0962,-41.1139,-24.1048
3.694,5192.41,-3567.07,10115.2,7.89633,-105.533,-20.8385,43531.8,-7011.28,-7369.19,250.684,187.227,-53.454,-2875.85,13127.4,-1712.11,-24.3206,-1.75964,-114.042,-33306.3,-25998.3,-371.462,-56.9288,-34.3415,-208.086,4387.76,9920.38,-2171.74,23.6647,-67.3702,-81.8877,16990.5,-14816.4,15104.4,-211.959,225.017,-123.065,12295.3,-901.58,118.783,-9.31285,-40.5364,-25.0485
3.695,5185.86,-3613.72,10127.2,7.26578,-107.743,-21.9239,44053.0,-8576.9,-8161.27,274.199,195.407,-62.6328,-2913.8,13202.2,-1821.33,-25.2362,-2.64029,-114.726,-34457.1,-25241.1,916.155,-64.8619,-44.1836,-204.03,4343.36,9934.89,-2102.89,25.129,-68.0376,-84.1205,17859.5,-15173.5,14609.9,-213.19,217.086,-117.75,12395.0,-958.189,213.443,-7.77511,-39.928,-25.8892
3.696,5179.31,-3660.38,10139.1,6.63524,-109.952,-23.0093,44574.1,-10142.5,-8953.36,297.713,203.587,-71.8115,-2951.75,13277.0,-1930.55,-26.1518,-3.52093,-115.409,-35607.8,-24483.9,2203.77,-72.7949,-54.0257,-199.973,4298.96,9949.4,-2034.04,26.5932,-68.7049,-86.3533,18728.6,-15530.6,14115.3,-214.421,209.155,-112.436,12494.6,-1014.8,308.103,-6.23737,-39.3196,-26.7298
3.697,5172.76,-3707.04,10151.1,6.00469,-112.162,-24.0947,45095.2,-11708.1,-9745.45,321.227,211.767,-80.9902,-2989.7,13351.7,-2039.78,-27.0675,-4.40158,-116.093,-36758.5,-23726.7,3491.39,-80.7279,-63.8678,-195.917,4254.56,9963.92,-1965.19,28.0575,-69.3723,-88.5861,19597.7,-15887.7,13620.8,-215.652,201.224,-107.121,12594.3,-1071.41,402.762,-4.69963,-38.7113,-27.5705
3.698,5159.37,-3772.13,10161.6,5.43204,-114.312,-25.096,45488.9,-13119.5,-10569.6,344.519,219.681,-90.4284,-3024.47,13412.4,-2146.35,-27.8777,-5.11554,-116.834,-37694.6,-22977.0,4848.34,-86.7095,-75.9919,-191.466,4208.76,9988.6,-1899.5,29.4231,-69.8735,-90.7632,20306.8,-16258.1,13067.7,-214.381,192.359,-101.497,12682.0,-1111.22,470.987,-3.39904,-38.1951,-28.3642
3.699,5122.05,-3901.74,10167.1,5.06206,-116.255,-25.803,45436.4,-13990.8,-11506.3,367.033,226.665,-100.774,-3048.13,13423.5,-2243.64,-28.3192,-5.24609,-117.776,-37879.9,-22253.5,6447.96,-85.8608,-96.1032,-185.631,4158.05,10048.9,-1844.9,30.4436,-69.7929,-92.7455,20455.9,-16675.1,12309.9,-204.358,180.226,-94.7899,12728.0,-1092.26,446.693,-2.92851,-38.0016,-28.9935
3.7,5084.73,-4031.34,10172.5,4.69207,-118.197,-26.5099,45383.9,-14862.1,-12442.9,389.547,233.648,-111.12,-3071.79,13434.5,-2340.93,-28.7606,-5.37663,-118.717,-38065.2,-21529.9,8047.57,-85.0122,-116.214,-179.796,4107.34,10109.2,-1790.29,31.4641,-69.7123,-94.7278,20605.0,-17092.1,11552.1,-194.334,168.093,-88.0827,12774.1,-1073.3,422.399,-2.45798,-37.8081,-29.6228
3.701,5047.41,-4160.95,10177.9,4.32208,-120.139,-27.2169,45331.4,-15733.5,-13379.5,412.062,240.631,-121.466,-3095.44,13445.6,-2438.22,-29.2021,-5.50718,-119.659,-38250.4,-20806.4,9647.19,-84.1636,-136.326,-173.961,4056.63,10169.4,-1735.69,32.4846,-69.6318,-96.7101,20754.1,-17509.1,10794.2,-184.31,155.96,-81.3755,12820.1,-1054.33,398.105,-1.98745,-37.6146,-30.2521
3.702,5010.09,-4290.56,10183.3,3.95209,-122.082,-27.9239,45278.9,-16604.8,-14316.1,434.576,247.615,-131.812,-3119.1,13456.7,-2535.5,-29.6435,-5.63773,-120.601,-38435.7,-20082.9,11246.8,-83.315,-156.437,-168.126,4005.92,10229.7,-1681.08,33.505,-69.5512,-98.6924,20903.2,-17926.2,10036.4,-174.286,143.826,-74.6682,12866.1,-1035.37,373.811,-1.51692,-37.4212,-30.8814
3.703,5007.17,-4309.31,10218.0,3.80152,-123.974,-28.6112,44754.2,-16602.4,-15133.6,451.947,251.032,-140.743,-3096.31,13468.5,-2555.51,-29.8606,-5.45495,-121.677,-38209.0,-19389.3,12517.4,-74.4496,-185.382,-161.578,3930.75,10304.3,-1641.12,34.7668,-69.1094,-99.9442,20691.0,-18299.7,9404.39,-159.113,127.333,-70.2438,12860.6,-1009.03,237.972,-1.65501,-36.9531,-31.3202
3.704,5014.08,-4296.37,10261.1,3.71365,-125.853,-29.2929,44094.6,-16350.3,-15917.1,467.848,253.43,-149.269,-3060.25,13480.5,-2553.44,-30.0136,-5.18266,-122.793,-37864.5,-18704.2,13694.1,-63.2938,-216.85,-154.825,3848.59,10383.0,-1605.35,36.0975,-68.5644,-100.987,20375.5,-18660.7,8808.34,-142.469,109.593,-66.4716,12840.5,-980.585,70.2624,-1.967,-36.4066,-31.7046
3.705,5020.99,-4283.44,10304.1,3.62577,-127.731,-29.9745,43434.9,-16098.2,-16700.6,483.75,255.829,-157.796,-3024.19,13492.5,-2551.37,-30.1666,-4.91036,-123.908,-37520.1,-18019.2,14870.7,-52.138,-248.318,-148.073,3766.42,10461.8,-1569.58,37.4282,-68.0194,-102.03,20060.0,-19021.8,8212.29,-125.825,91.8537,-62.6995,12820.3,-952.141,-97.4471,-2.27899,-35.8602,-32.0891
3.706,5027.9,-4270.51,10347.2,3.53789,-129.609,-30.6562,42775.3,-15846.2,-17484.1,499.651,258.227,-166.322,-2988.13,13504.5,-2549.3,-30.3196,-4.63806,-125.024,-37175.6,-17334.1,16047.4,-40.9821,-279.787,-141.32,3684.26,10540.5,-1533.8,38.7589,-67.4744,-103.074,19744.6,-19382.8,7616.23,-109.181,74.1142,-58.9273,12800.2,-923.696,-265.157,-2.59098,-35.3137,-32.4735
3.707,5038.36,-4220.15,10396.9,3.40034,-131.654,-31.42,42043.5,-15531.9,-18228.5,512.146,258.848,-174.03,-2951.75,13538.6,-2515.91,-30.6119,-4.3602,-126.107,-36725.7,-16699.1,16620.4,-28.8288,-307.28,-134.477,3597.46,10628.6,-1490.97,40.2212,-66.8963,-103.841,19315.1,-19633.7,7064.5,-92.8478,55.2638,-56.3768,12790.3,-911.063,-439.92,-3.10684,-34.775,-32.7308
3.708,5055.94,-4094.94,10459.9,3.16345,-134.032,-32.3477,41167.6,-15093.2,-18894.5,517.826,255.914,-180.101,-2914.72,13617.1,-2419.87,-31.1825,-4.0712,-127.126,-36065.0,-16164.3,15986.3,-14.6804,-326.824,-127.453,3501.4,10735.5,-1434.0,41.9467,-66.2522,-104.058,18657.8,-19664.2,6601.42,-77.1368,34.1917,-56.2697,12801.0,-930.051,-628.79,-4.03045,-34.2518,-32.7339
3.709,5073.52,-3969.73,10522.9,2.92657,-136.41,-33.2755,40291.6,-14654.5,-19560.6,523.506,252.98,-186.173,-2877.7,13695.6,-2323.84,-31.7532,-3.7822,-128.144,-35404.2,-15629.4,15352.1,-0.532036,-346.368,-120.428,3405.34,10842.3,-1377.03,43.6723,-65.608,-104.274,18000.5,-19694.7,6138.33,-61.4257,13.1195,-56.1627,12811.7,-949.039,-817.661,-4.95405,-33.7286,-32.737
3.71,5091.1,-3844.52,10585.9,2.68968,-138.788,-34.2033,39415.7,-14215.8,-20226.7,529.185,250.045,-192.244,-2840.67,13774.0,-2227.8,-32.3238,-3.49321,-129.163,-34743.5,-15094.5,14718.0,13.6163,-365.912,-113.403,3309.28,10949.2,-1320.06,45.3979,-64.9639,-104.491,17343.1,-19725.2,5675.25,-45.7147,-7.95259,-56.0556,12822.4,-968.028,-1006.53,-5.87766,-33.2054,-32.7401
3.711,5108.68,-3719.3,10648.9,2.45279,-141.166,-35.1311,38539.8,-13777.2,-20892.8,534.865,247.111,-198.316,-2803.64,13852.5,-2131.77,-32.8945,-3.20421,-130.181,-34082.8,-14559.7,14083.8,27.7647,-385.456,-106.379,3213.21,11056.1,-1263.09,47.1234,-64.3197,-104.707,16685.8,-19755.7,5212.17,-30.0036,-29.0247,-55.9485,12833.2,-987.016,-1195.4,-6.80127,-32.6822,-32.7432
3.712,5139.63,-3590.13,10690.7,2.12839,-143.655,-35.7622,37562.5,-12861.4,-21828.0,530.768,241.383,-200.48,-2773.75,13936.5,-1983.22,-33.8632,-3.11671,-131.317,-33179.4,-13916.2,12677.4,34.1492,-392.17,-99.052,3102.06,11168.5,-1216.51,48.728,-63.7994,-104.093,16021.6,-19299.6,4780.78,-20.4279,-49.0054,-56.2566,12877.5,-1059.23,-1368.28,-7.5225,-32.4606,-32.6751
3.713,5172.24,-3460.47,10729.8,1.79305,-146.159,-36.3561,36572.6,-11885.9,-22796.8,525.448,235.306,-202.156,-2744.75,14021.2,-1828.1,-34.8816,-3.05441,-132.468,-32245.8,-13259.1,11174.3,39.5633,-397.279,-91.6876,2989.02,11281.6,-1171.22,50.3173,-63.2946,-103.374,15356.5,-18782.7,4353.35,-11.619,-68.8496,-56.6166,12926.0,-1138.09,-1539.16,-8.21844,-32.2766,-32.5981
3.714,5204.86,-3330.81,10768.9,1.45771,-148.663,-36.9501,35582.7,-10910.5,-23765.6,520.128,229.229,-203.832,-2715.75,14105.8,-1672.99,-35.9001,-2.9921,-133.619,-31312.1,-12602.0,9671.33,44.9773,-402.389,-84.3232,2875.98,11394.6,-1125.94,51.9067,-62.7898,-102.655,14691.4,-18265.7,3925.92,-2.81018,-88.6938,-56.9766,12974.6,-1216.95,-1710.04,-8.91438,-32.0927,-32.5212
3.715,5237.48,-3201.14,10808.0,1.12237,-151.166,-37.5441,34592.8,-9935.02,-24734.5,514.808,223.151,-205.508,-2686.75,14190.5,-1517.87,-36.9186,-2.92979,-134.769,-30378.5,-11944.9,8168.31,50.3914,-407.499,-76.9588,2762.94,11507.7,-1080.65,53.4961,-62.285,-101.936,14026.3,-17748.8,3498.5,5.99866,-108.538,-57.3366,13023.1,-1295.81,-1880.92,-9.61032,-31.9087,-32.4442
3.716,5267.42,-3097.53,10843.7,0.758556,-153.675,-38.0582,33352.9,-8492.52,-25354.0,504.383,215.424,-204.965,-2655.99,14276.6,-1349.62,-38.0068,-3.06808,-135.944,-29280.2,-11460.9,6839.06,53.7686,-413.031,-70.5351,2635.01,11640.2,-1042.0,54.904,-61.9753,-100.879,13400.6,-17128.3,3145.59,11.0973,-126.816,-56.9885,13069.0,-1374.15,-2063.26,-9.77218,-31.628,-32.3054
3.717,5294.01,-3026.49,10875.1,0.359162,-156.191,-38.4725,31800.4,-6466.18,-25536.8,487.575,205.634,-201.649,-2623.03,14364.4,-1164.93,-39.1823,-3.45711,-137.147,-27976.1,-11193.3,5727.0,54.5997,-419.092,-65.2872,2488.47,11796.8,-1011.63,56.0848,-61.9097,-99.3995,12824.3,-16378.4,2885.84,11.5581,-143.137,-55.7553,13111.8,-1451.83,-2259.94,-9.26645,-31.2262,-32.0895
3.718,5320.6,-2955.44,10906.4,-0.0402333,-158.707,-38.8867,30248.0,-4439.84,-25719.7,470.768,195.843,-198.332,-2590.07,14452.3,-980.25,-40.3578,-3.84615,-138.351,-26672.0,-10925.6,4614.94,55.4309,-425.153,-60.0393,2341.92,11953.5,-981.264,57.2657,-61.844,-97.9199,12248.0,-15628.6,2626.08,12.0189,-159.457,-54.5221,13154.5,-1529.51,-2456.61,-8.76072,-30.8244,-31.8735
3.719,5347.19,-2884.4,10937.8,-0.439628,-161.223,-39.301,28695.5,-2413.5,-25902.5,453.96,186.053,-195.016,-2557.1,14540.2,-795.567,-41.5333,-4.23518,-139.554,-25367.8,-10658.0,3502.88,56.2621,-431.214,-54.7914,2195.37,12110.2,-950.897,58.4465,-61.7783,-96.4403,11671.6,-14878.7,2366.33,12.4797,-175.778,-53.2888,13197.2,-1607.19,-2653.29,-8.25498,-30.4226,-31.6575
3.72,5373.79,-2813.36,10969.2,-0.839023,-163.738,-39.7153,27143.1,-387.167,-26085.4,437.152,176.263,-191.699,-2524.14,14628.0,-610.884,-42.7088,-4.62422,-140.758,-24063.8,-10390.3,2390.82,57.0932,-437.274,-49.5435,2048.83,12266.8,-920.53,59.6273,-61.7126,-94.9608,11095.3,-14128.8,2106.57,12.9406,-192.098,-52.0556,13239.9,-1684.87,-2849.96,-7.74925,-30.0208,-31.4415
3.721,5380.64,-2794.87,10992.2,-1.15113,-166.225,-40.0491,25399.0,1851.31,-25939.5,408.078,162.209,-182.797,-2492.43,14683.4,-468.368,-43.6265,-5.4927,-141.91,-22929.7,-10216.8,1909.88,62.1245,-437.675,-44.4037,1842.92,12426.2,-924.325,59.8367,-62.4781,-92.8815,10703.0,-13395.5,1894.42,5.10738,-201.467,-49.3926,13285.0,-1761.02,-3007.41,-6.73012,-29.2695,-30.9234
3.722,5387.49,-2776.38,11015.2,-1.46324,-168.711,-40.3829,23654.9,4089.79,-25793.7,379.003,148.155,-173.896,-2460.72,14738.7,-325.851,-44.5442,-6.36119,-143.062,-21795.7,-10043.2,1428.94,67.1558,-438.076,-39.2639,1637.02,12585.6,-928.121,60.0462,-63.2436,-90.8023,10310.6,-12662.3,1682.26,-2.7258,-210.835,-46.7297,13330.1,-1837.16,-3164.86,-5.71099,-28.5183,-30.4052
3.723,5394.34,-2757.89,11038.2,-1.77534,-171.197,-40.7166,21910.8,6328.26,-25647.8,349.929,134.1,-164.994,-2429.0,14794.1,-183.335,-45.4619,-7.22968,-144.214,-20661.6,-9869.7,947.991,72.187,-438.477,-34.1241,1431.11,12744.9,-931.917,60.2556,-64.0091,-88.723,9918.29,-11929.1,1470.11,-10.559,-220.203,-44.0667,13375.2,-1913.31,-3322.3,-4.69187,-27.767,-29.8871
3.724,5401.2,-2739.41,11061.3,-2.08745,-173.683,-41.0504,20166.7,8566.74,-25502.0,320.854,120.046,-156.093,-2397.29,14849.5,-40.8188,-46.3796,-8.09817,-145.366,-19527.6,-9696.16,467.047,77.2183,-438.878,-28.9843,1225.21,12904.3,-935.712,60.465,-64.7745,-86.6438,9525.96,-11195.8,1257.95,-18.3922,-229.572,-41.4037,13420.3,-1989.45,-3479.75,-3.67274,-27.0158,-29.3689
3.725,5398.54,-2677.8,11073.0,-2.61927,-176.292,-41.387,18721.3,10388.4,-25276.2,286.714,104.674,-144.963,-2374.13,14879.7,57.3907,-47.0912,-9.11216,-146.417,-18275.1,-9683.8,-256.444,78.1108,-432.878,-22.0632,1023.73,13062.9,-947.33,59.9549,-65.7827,-84.3878,9270.98,-10582.3,1082.23,-28.2179,-234.844,-38.3283,13469.5,-2002.02,-3609.82,-2.64369,-26.212,-28.7129
3.726,5388.29,-2581.69,11075.9,-3.32686,-179.0,-41.7259,17515.0,11876.5,-24986.6,248.521,88.2474,-132.051,-2357.81,14889.7,120.155,-47.6378,-10.2426,-147.387,-16928.0,-9800.38,-1173.97,75.6925,-421.757,-13.7172,825.798,13220.9,-965.205,58.8692,-66.9851,-81.9905,9125.88,-10064.6,935.648,-39.6377,-236.84,-34.9228,13522.0,-1963.72,-3717.99,-1.6067,-25.3663,-27.9466
3.727,5378.03,-2485.58,11078.7,-4.03445,-181.707,-42.0647,16308.6,13364.7,-24696.9,210.328,71.8209,-119.139,-2341.49,14899.8,182.919,-48.1844,-11.373,-148.357,-15580.8,-9916.96,-2091.5,73.2741,-410.635,-5.37118,627.864,13378.9,-983.081,57.7836,-68.1874,-79.5932,8980.79,-9546.9,789.066,-51.0575,-238.835,-31.5174,13574.4,-1925.43,-3826.16,-0.569714,-24.5206,-27.1804
3.728,5367.77,-2389.47,11081.5,-4.74204,-184.415,-42.4036,15102.2,14852.8,-24407.2,172.136,55.3944,-106.228,-2325.17,14909.9,245.683,-48.731,-12.5034,-149.327,-14233.7,-10033.5,-3009.03,70.8558,-399.514,2.97485,429.93,13536.9,-1000.96,56.6979,-69.3898,-77.1959,8835.69,-9029.19,642.484,-62.4774,-240.831,-28.112,13626.8,-1887.14,-3934.33,0.467274,-23.6748,-26.4141
3.729,5355.04,-2306.49,11083.5,-5.44798,-187.139,-42.751,13984.2,16202.6,-24085.9,133.94,39.0174,-93.2716,-2312.48,14912.1,302.914,-49.2482,-13.6204,-150.294,-12918.7,-10142.1,-3952.89,68.1144,-387.213,11.7585,232.648,13690.6,-1020.68,55.4668,-70.6086,-74.7802,8679.53,-8538.7,521.229,-73.6174,-242.366,-24.6711,13671.1,-1837.12,-4041.47,1.46023,-22.8361,-25.6422
3.73,5322.58,-2328.51,11079.0,-6.14071,-190.0,-43.1673,13572.9,16446.0,-23511.3,95.7186,23.0358,-79.9627,-2328.84,14851.7,315.887,-49.5295,-14.6302,-151.241,-11860.7,-10186.9,-5107.44,62.7893,-365.478,24.0433,40.5833,13810.3,-1055.2,53.0727,-71.9591,-72.2174,8434.84,-8266.01,602.581,-82.5189,-240.218,-20.9469,13650.3,-1693.34,-4140.44,2.10096,-22.0535,-24.8261
3.731,5290.11,-2350.53,11074.6,-6.83345,-192.862,-43.5835,13161.6,16689.3,-22936.6,57.4974,7.05413,-66.6538,-2345.21,14791.3,328.86,-49.8108,-15.6401,-152.188,-10802.7,-10231.6,-6261.99,57.4642,-343.743,36.3281,-151.482,13930.1,-1089.73,50.6786,-73.3097,-69.6545,8190.16,-7993.31,683.934,-91.4205,-238.07,-17.2226,13629.5,-1549.57,-4239.41,2.74169,-21.271,-24.0099
3.732,5257.65,-2372.55,11070.1,-7.52618,-195.723,-43.9997,12750.3,16932.7,-22362.0,19.2762,-8.92749,-53.345,-2361.57,14731.0,341.833,-50.0922,-16.6499,-153.135,-9744.71,-10276.3,-7416.55,52.1391,-322.009,48.6129,-343.546,14049.9,-1124.25,48.2845,-74.6603,-67.0917,7945.47,-7720.62,765.287,-100.322,-235.921,-13.4984,13608.8,-1405.79,-4338.37,3.38242,-20.4884,-23.1937
3.733,5225.18,-2394.58,11065.7,-8.21892,-198.584,-44.4159,12339.0,17176.0,-21787.4,-18.9449,-24.9091,-40.0361,-2377.94,14670.6,354.806,-50.3735,-17.6598,-154.081,-8686.72,-10321.0,-8571.1,46.814,-300.274,60.8977,-535.611,14169.6,-1158.77,45.8904,-76.0109,-64.5288,7700.78,-7447.92,846.64,-109.224,-233.773,-9.77413,13588.0,-1262.01,-4437.34,4.02314,-19.7058,-22.3775
3.734,5208.39,-2426.06,11057.9,-9.00132,-201.545,-44.8323,12319.4,16410.4,-21050.8,-50.7827,-39.204,-26.9101,-2379.92,14582.7,358.227,-50.3974,-18.4676,-155.157,-7859.53,-10428.5,-9402.52,42.9203,-273.535,74.1021,-721.68,14259.6,-1188.13,42.6736,-76.996,-62.0664,7395.74,-7298.26,1015.2,-116.101,-231.445,-6.46801,13551.6,-1085.95,-4525.74,4.26322,-18.9442,-21.3525
3.735,5199.43,-2462.28,11048.5,-9.82855,-204.555,-45.2488,12495.7,15140.3,-20233.3,-79.4288,-52.6556,-13.8755,-2374.72,14481.2,356.873,-50.2926,-19.1743,-156.297,-7147.74,-10567.3,-10072.4,39.7422,-244.294,87.7664,-904.75,14334.8,-1214.9,39.0456,-77.7984,-59.654,7060.52,-7210.11,1227.36,-121.966,-229.028,-3.37094,13507.3,-893.74,-4608.86,4.30297,-18.1932,-20.2231
3.736,5190.47,-2498.49,11039.1,-10.6558,-207.566,-45.6654,12672.0,13870.2,-19415.8,-108.075,-66.1071,-0.840953,-2369.52,14379.6,355.518,-50.1878,-19.881,-157.438,-6435.94,-10706.1,-10742.3,36.5641,-215.054,101.431,-1087.82,14410.0,-1241.67,35.4175,-78.6008,-57.2417,6725.29,-7121.96,1439.52,-127.831,-226.61,-0.273882,13463.1,-701.534,-4691.98,4.34272,-17.4421,-19.0937
3.737,5181.51,-2534.71,11029.7,-11.483,-210.577,-46.0819,12848.3,12600.0,-18598.3,-136.721,-79.5587,12.1936,-2364.31,14278.0,354.164,-50.083,-20.5878,-158.578,-5724.15,-10845.0,-11412.1,33.386,-185.813,115.095,-1270.89,14485.2,-1268.44,31.7895,-79.4032,-54.8294,6390.07,-7033.8,1651.68,-133.697,-224.192,2.82318,13418.8,-509.327,-4775.11,4.38247,-16.6911,-17.9643
3.738,5186.61,-2565.67,11011.6,-12.2955,-213.628,-46.5237,13077.7,11298.3,-17710.2,-162.031,-92.2885,24.9804,-2359.66,14182.1,350.644,-49.8641,-21.2258,-159.767,-5117.59,-10977.9,-11921.9,29.5957,-156.897,128.63,-1440.83,14545.9,-1291.12,27.956,-79.9914,-52.4864,6032.82,-6966.74,1842.84,-139.256,-222.446,5.58761,13372.5,-320.65,-4852.91,4.28603,-15.8868,-16.823
3.739,5240.87,-2578.24,10963.1,-13.0561,-216.825,-47.0537,13493.0,9885.83,-16574.7,-175.665,-102.492,36.9,-2356.92,14106.4,339.547,-49.2461,-21.6237,-161.125,-4879.35,-11089.9,-11871.4,23.6625,-129.117,141.711,-1564.79,14556.2,-1299.51,23.4036,-79.8303,-50.3859,5598.47,-6973.49,1960.48,-143.747,-223.05,7.1878,13318.8,-144.325,-4912.1,3.71294,-14.8966,-15.6399
3.74,5295.14,-2590.81,10914.6,-13.8168,-220.021,-47.5838,13908.4,8473.37,-15439.3,-189.299,-112.696,48.8195,-2354.18,14030.6,328.451,-48.628,-22.0216,-162.483,-4641.12,-11201.9,-11821.0,17.7294,-101.338,154.793,-1688.75,14566.4,-1307.9,18.8512,-79.6692,-48.2854,5164.13,-6980.23,2078.13,-148.237,-223.655,8.788,13265.2,31.9998,-4971.3,3.13986,-13.9064,-14.4569
3.741,5349.41,-2603.39,10866.1,-14.5775,-223.217,-48.1139,14323.7,7060.9,-14303.8,-202.933,-122.899,60.7391,-2351.44,13954.8,317.354,-48.0099,-22.4194,-163.842,-4402.88,-11313.9,-11770.5,11.7962,-73.5587,167.875,-1812.71,14576.6,-1316.29,14.2987,-79.508,-46.1849,4729.78,-6986.98,2195.77,-152.727,-224.259,10.3882,13211.5,208.325,-5030.49,2.56677,-12.9162,-13.2739
3.742,5403.68,-2615.96,10817.7,-15.3381,-226.413,-48.644,14739.0,5648.44,-13168.4,-216.566,-133.103,72.6586,-2348.7,13879.1,306.257,-47.3918,-22.8173,-165.2,-4164.64,-11425.9,-11720.0,5.86308,-45.7794,180.957,-1936.67,14586.9,-1324.69,9.74631,-79.3469,-44.0844,4295.44,-6993.72,2313.41,-157.217,-224.863,11.9884,13157.9,384.649,-5089.68,1.99368,-11.9259,-12.0908
3.743,5431.0,-2607.99,10788.8,-16.1561,-229.398,-48.9889,15364.5,4372.86,-12013.8,-220.859,-140.996,81.2611,-2335.99,13829.3,311.133,-46.7501,-23.1801,-166.65,-4243.7,-11684.6,-11253.3,1.27876,-23.1391,190.461,-1979.62,14540.9,-1319.64,4.92381,-78.2143,-42.3721,3859.43,-7310.03,2188.34,-158.368,-226.158,11.4815,13095.3,540.868,-5132.63,0.698918,-10.9663,-10.9223
3.744,5450.63,-2594.15,10765.5,-16.9904,-232.324,-49.281,16050.2,3136.39,-10853.7,-222.482,-148.229,88.9158,-2320.42,13786.9,320.572,-46.1016,-23.5329,-168.125,-4413.42,-11985.1,-10667.6,-2.92018,-1.96706,198.943,-1999.43,14478.8,-1310.75,0.0241302,-76.8041,-40.7707,3422.95,-7714.78,1993.91,-158.564,-227.651,10.3725,13030.1,691.342,-5170.93,-0.802039,-10.0153,-9.75786
3.745,5470.25,-2580.31,10742.2,-17.8248,-235.249,-49.573,16735.8,1899.93,-9693.62,-224.105,-155.462,96.5706,-2304.85,13744.5,330.011,-45.453,-23.8857,-169.601,-4583.13,-12285.6,-10082.0,-7.11912,19.205,207.424,-2019.23,14416.8,-1301.86,-4.87555,-75.3939,-39.1693,2986.46,-8119.53,1799.49,-158.759,-229.144,9.2636,12965.0,841.816,-5209.24,-2.303,-9.06435,-8.59344
3.746,5489.88,-2566.47,10718.9,-18.6591,-238.174,-49.8651,17421.5,663.458,-8533.55,-225.729,-162.695,104.225,-2289.28,13702.2,339.45,-44.8045,-24.2386,-171.076,-4752.85,-12586.1,-9496.36,-11.3181,40.377,215.906,-2039.04,14354.7,-1292.97,-9.77522,-73.9838,-37.5679,2549.98,-8524.28,1605.06,-158.955,-230.637,8.15467,12899.8,992.29,-5247.54,-3.80395,-8.11339,-7.42902
3.747,5501.92,-2547.1,10696.2,-19.4639,-241.123,-50.1606,18169.1,-529.589,-7379.6,-224.03,-168.5,110.517,-2277.22,13673.4,359.114,-44.2265,-24.5342,-172.576,-4981.11,-12912.5,-8838.78,-14.761,59.2813,222.97,-2031.11,14283.0,-1274.32,-14.6542,-72.2386,-36.1596,2174.12,-8919.41,1389.71,-157.312,-231.625,7.012,12843.1,1146.59,-5269.58,-5.41586,-7.24007,-6.23272
3.748,5498.79,-2516.68,10674.7,-20.2097,-244.118,-50.4631,19040.6,-1635.8,-6237.88,-215.686,-171.45,114.084,-2272.17,13671.8,399.229,-43.7894,-24.7153,-174.126,-5326.46,-13290.4,-8037.32,-16.692,73.6499,227.197,-1967.71,14192.0,-1236.14,-19.4918,-69.8236,-35.1376,1919.5,-9295.29,1132.49,-151.989,-231.606,5.80188,12803.2,1308.55,-5259.08,-7.24966,-6.52202,-4.97264
3.749,5495.66,-2486.26,10653.1,-20.9554,-247.113,-50.7656,19912.2,-2742.01,-5096.16,-207.342,-174.399,117.651,-2267.12,13670.2,439.343,-43.3523,-24.8964,-175.675,-5671.8,-13668.4,-7235.86,-18.6229,88.0186,231.423,-1904.31,14100.9,-1197.96,-24.3294,-67.4085,-34.1156,1664.88,-9671.17,875.284,-146.667,-231.586,4.59176,12763.4,1470.52,-5248.58,-9.08346,-5.80397,-3.71256
3.75,5492.53,-2455.85,10631.5,-21.7012,-250.109,-51.0681,20783.7,-3848.21,-3954.44,-198.998,-177.348,121.218,-2262.07,13668.6,479.457,-42.9152,-25.0775,-177.224,-6017.15,-14046.4,-6434.4,-20.5539,102.387,235.65,-1840.92,14009.9,-1159.78,-29.167,-64.9935,-33.0937,1410.26,-10047.1,618.073,-141.344,-231.567,3.38164,12723.5,1632.48,-5238.08,-10.9173,-5.08592,-2.45249
3.751,5489.39,-2425.43,10610.0,-22.447,-253.104,-51.3705,21655.2,-4954.42,-2812.72,-190.654,-180.298,124.784,-2257.02,13667.0,519.572,-42.4781,-25.2587,-178.774,-6362.5,-14424.4,-5632.94,-22.4849,116.756,239.877,-1777.52,13918.9,-1121.6,-34.0046,-62.5784,-32.0717,1155.64,-10422.9,360.862,-136.022,-231.547,2.17152,12683.6,1794.44,-5227.58,-12.7511,-4.36787,-1.19241
3.752,5455.82,-2374.26,10614.6,-23.3793,-256.315,-51.7396,22459.7,-5781.95,-1832.39,-174.852,-179.174,125.441,-2234.35,13691.8,606.204,-42.1376,-25.5425,-180.066,-6842.98,-14606.1,-4949.83,-24.4072,125.175,242.931,-1657.33,13803.7,-1093.66,-38.5382,-59.3868,-31.5631,1059.71,-10493.1,245.863,-131.096,-231.971,1.78924,12637.1,1921.25,-5215.43,-14.2294,-3.87635,-0.0992896
3.753,5418.45,-2320.5,10622.5,-24.335,-259.553,-52.117,23255.8,-6574.64,-872.244,-158.118,-177.541,125.733,-2209.49,13719.9,698.651,-41.8093,-25.8392,-181.326,-7340.35,-14763.4,-4281.52,-26.3285,132.851,245.839,-1530.05,13685.6,-1067.0,-43.0337,-56.098,-31.1186,983.629,-10525.2,148.64,-126.22,-232.449,1.51044,12589.6,2043.66,-5203.07,-15.6634,-3.41314,0.972962
3.754,5381.07,-2266.74,10630.4,-25.2906,-262.791,-52.4944,24051.8,-7367.33,87.9073,-141.383,-175.909,126.026,-2184.63,13747.9,791.098,-41.4809,-26.1359,-182.586,-7837.73,-14920.6,-3613.21,-28.2498,140.527,248.747,-1402.77,13567.4,-1040.34,-47.5293,-52.8093,-30.6742,907.544,-10557.2,51.4167,-121.344,-232.928,1.23165,12542.2,2166.08,-5190.71,-17.0973,-2.94993,2.04521
3.755,5343.7,-2212.98,10638.3,-26.2463,-266.029,-52.8719,24847.9,-8160.03,1048.06,-124.649,-174.276,126.318,-2159.76,13776.0,883.545,-41.1525,-26.4326,-183.846,-8335.1,-15077.8,-2944.89,-30.1711,148.203,251.655,-1275.49,13449.2,-1013.68,-52.0248,-49.5206,-30.2297,831.459,-10589.2,-45.8062,-116.468,-233.407,0.952847,12494.8,2288.49,-5178.34,-18.5313,-2.48672,3.11747
3.756,5314.1,-2134.71,10640.4,-27.332,-269.305,-53.2444,25488.3,-8725.81,1823.49,-105.981,-170.994,125.819,-2131.62,13798.7,989.308,-40.7897,-26.8844,-185.003,-8890.46,-15147.0,-2424.32,-32.1635,153.261,254.304,-1122.98,13323.6,-968.262,-56.188,-45.9513,-29.9765,830.112,-10546.8,-123.927,-112.429,-233.853,0.901104,12431.8,2418.3,-5177.95,-19.708,-2.05634,4.17508
3.757,5294.24,-2025.8,10635.3,-28.5801,-272.627,-53.6108,25934.3,-9007.96,2368.02,-84.8961,-165.651,124.331,-2099.36,13814.7,1111.71,-40.3837,-27.5302,-186.033,-9518.31,-15106.3,-2088.42,-34.2449,155.048,256.63,-938.927,13188.7,-899.406,-59.9358,-42.0314,-29.9624,922.186,-10411.5,-178.17,-109.437,-234.259,1.13318,12349.3,2557.34,-5192.52,-20.5633,-1.66701,5.21439
3.758,5274.37,-1916.88,10630.1,-29.8282,-275.95,-53.9772,26380.2,-9290.11,2912.55,-63.811,-160.307,122.843,-2067.11,13830.6,1234.12,-39.9777,-28.176,-187.062,-10146.2,-15065.5,-1752.52,-36.3262,156.834,258.955,-754.88,13053.8,-830.55,-63.6836,-38.1115,-29.9482,1014.26,-10276.1,-232.414,-106.444,-234.664,1.36526,12266.8,2696.39,-5207.08,-21.4186,-1.27767,6.25369
3.759,5254.5,-1807.97,10624.9,-31.0763,-279.272,-54.3436,26826.1,-9572.26,3457.08,-42.7259,-154.964,121.355,-2034.86,13846.6,1356.53,-39.5717,-28.8217,-188.092,-10774.0,-15024.8,-1416.62,-38.4076,158.621,261.281,-570.832,12918.8,-761.694,-67.4314,-34.1916,-29.9341,1106.34,-10140.8,-286.657,-103.452,-235.069,1.59733,12184.3,2835.44,-5221.65,-22.2738,-0.888336,7.293
3.76,5234.64,-1699.06,10619.8,-32.3244,-282.595,-54.71,27272.1,-9854.41,4001.61,-21.6408,-149.62,119.867,-2002.61,13862.6,1478.94,-39.1657,-29.4675,-189.121,-11401.9,-14984.0,-1080.73,-40.4889,160.408,263.606,-386.785,12783.9,-692.838,-71.1793,-30.2716,-29.9199,1198.41,-10005.5,-340.9,-100.46,-235.475,1.82941,12101.8,2974.48,-5236.22,-23.1291,-0.499001,8.33231
3.761,5208.96,-1607.72,10635.7,-33.4702,-286.002,-54.8987,27394.0,-9385.95,4274.16,-1.93457,-143.104,118.812,-1986.43,13847.1,1575.69,-39.0821,-29.9958,-190.304,-11983.7,-14888.3,-826.477,-42.519,156.866,264.664,-169.377,12656.7,-596.492,-74.2924,-26.0715,-30.0084,1410.94,-9963.47,-580.962,-97.7918,-233.209,2.05678,12037.5,3114.68,-5274.74,-23.7364,-0.110395,9.27291
3.762,5183.27,-1516.37,10651.5,-34.616,-289.409,-55.0875,27515.9,-8917.49,4546.71,17.7717,-136.587,117.757,-1970.25,13831.7,1672.44,-38.9984,-30.524,-191.488,-12565.6,-14792.6,-572.228,-44.5491,153.324,265.721,48.031,12529.4,-500.146,-77.4056,-21.8714,-30.0969,1623.46,-9921.45,-821.025,-95.1241,-230.943,2.28415,11973.2,3254.88,-5313.26,-24.3437,0.278212,10.2135
3.763,5157.59,-1425.03,10667.4,-35.7618,-292.816,-55.2762,27637.9,-8449.03,4819.26,37.478,-130.071,116.702,-1954.07,13816.2,1769.18,-38.9148,-31.0523,-192.672,-13147.5,-14697.0,-317.979,-46.5792,149.783,266.778,265.439,12402.2,-403.8,-80.5188,-17.6713,-30.1853,1835.99,-9879.42,-1061.09,-92.4563,-228.678,2.51152,11908.9,3395.08,-5351.79,-24.9511,0.666819,11.1541
3.764,5131.91,-1333.69,10683.3,-36.9076,-296.223,-55.465,27759.8,-7980.57,5091.81,57.1843,-123.554,115.647,-1937.89,13800.8,1865.93,-38.8311,-31.5805,-193.855,-13729.4,-14601.3,-63.7299,-48.6093,146.241,267.835,482.847,12274.9,-307.453,-83.632,-13.4712,-30.2738,2048.51,-9837.4,-1301.15,-89.7885,-226.412,2.73889,11844.6,3535.28,-5390.31,-25.5584,1.05543,12.0947
3.765,5106.53,-1270.31,10669.5,-38.279,-299.722,-55.522,27617.2,-6986.7,5149.52,71.3288,-116.69,114.909,-1908.6,13792.6,1979.94,-38.6378,-32.4398,-194.858,-14102.8,-14543.6,225.973,-50.5449,139.974,268.136,667.559,12151.0,-209.009,-86.3888,-9.41643,-30.4334,2317.24,-9823.9,-1611.94,-86.0755,-221.009,2.76279,11779.0,3664.43,-5432.11,-26.2825,1.51299,13.0044
3.766,5081.38,-1229.29,10631.9,-39.8308,-303.294,-55.4738,27262.8,-5572.51,5035.36,81.0239,-109.548,114.426,-1868.81,13790.2,2107.75,-38.3568,-33.5638,-195.716,-14309.4,-14516.5,544.038,-52.405,131.527,267.832,826.115,12029.7,-108.887,-88.8604,-5.4779,-30.6499,2630.94,-9833.22,-1979.31,-81.5262,-213.098,2.6239,11712.6,3784.75,-5476.53,-27.1001,2.02572,13.8893
3.767,5056.24,-1188.27,10594.3,-41.3827,-306.867,-55.4255,26908.5,-4158.32,4921.2,90.7191,-102.405,113.943,-1829.03,13787.9,2235.56,-38.0758,-34.6879,-196.574,-14516.0,-14489.3,862.103,-54.265,123.08,267.528,984.671,11908.4,-8.76484,-91.3321,-1.53936,-30.8664,2944.63,-9842.54,-2346.69,-76.9769,-205.186,2.48502,11646.1,3905.07,-5520.96,-27.9176,2.53844,14.7743
3.768,5031.09,-1147.25,10556.8,-42.9345,-310.439,-55.3772,26554.1,-2744.13,4807.04,100.414,-95.2632,113.459,-1789.25,13785.5,2363.37,-37.7947,-35.812,-197.432,-14722.6,-14462.1,1180.17,-56.125,114.632,267.224,1143.23,11787.1,91.3575,-93.8037,2.39917,-31.0829,3258.32,-9851.87,-2714.06,-72.4276,-197.274,2.34614,11579.6,4025.39,-5565.38,-28.7352,3.05117,15.6592
3.769,5003.16,-1107.31,10524.1,-44.4903,-314.062,-55.3406,26090.1,-1223.46,4670.68,107.632,-88.0211,113.211,-1744.05,13779.8,2486.93,-37.4399,-36.9865,-198.278,-14855.6,-14457.2,1504.83,-58.2244,105.218,266.67,1299.49,11665.0,197.152,-96.1944,6.28303,-31.285,3575.0,-9865.82,-3073.82,-67.457,-188.652,2.08286,11508.2,4142.65,-5612.54,-29.5487,3.64011,16.5346
3.77,4952.97,-1075.92,10530.8,-46.077,-318.092,-55.3976,24748.4,1149.03,4356.72,95.0284,-79.9792,114.84,-1655.52,13747.2,2576.48,-36.4952,-38.5647,-199.029,-14400.5,-14630.2,1882.24,-62.238,88.0702,264.111,1437.37,11537.2,348.327,-97.9372,9.72951,-31.3715,3915.61,-9916.78,-3372.64,-59.1161,-174.355,0.824356,11397.9,4235.53,-5681.52,-30.3295,4.83876,17.3337
3.771,4902.77,-1044.53,10537.4,-47.6637,-322.122,-55.4546,23406.8,3521.52,4042.77,82.425,-71.9373,116.47,-1567.0,13714.6,2666.04,-35.5504,-40.1429,-199.78,-13945.3,-14803.1,2259.64,-66.2516,70.9219,261.553,1575.26,11409.4,499.502,-99.68,13.176,-31.458,4256.21,-9967.74,-3671.47,-50.7752,-160.058,-0.434144,11287.5,4328.4,-5750.51,-31.1102,6.03741,18.1327
3.772,4852.58,-1013.14,10544.0,-49.2504,-326.151,-55.5116,22065.1,5894.02,3728.81,69.8216,-63.8955,118.099,-1478.48,13682.0,2755.6,-34.6056,-41.7212,-200.531,-13490.1,-14976.1,2637.05,-70.2653,53.7736,258.994,1713.15,11281.5,650.677,-101.423,16.6225,-31.5445,4596.81,-10018.7,-3970.29,-42.4343,-145.761,-1.69264,11177.2,4421.28,-5819.49,-31.891,7.23606,18.9317
3.773,4802.39,-981.755,10550.6,-50.8371,-330.181,-55.5686,20723.5,8266.5,3414.86,57.2183,-55.8536,119.729,-1389.96,13649.5,2845.16,-33.6608,-43.2994,-201.281,-13034.9,-15149.1,3014.46,-74.2789,36.6253,256.435,1851.04,11153.7,801.851,-103.166,20.069,-31.6311,4937.41,-10069.7,-4269.11,-34.0934,-131.463,-2.95114,11066.9,4514.15,-5888.48,-32.6718,8.43471,19.7308
3.774,4766.16,-1016.09,10638.1,-52.217,-334.4,-55.8885,18499.5,10184.8,1032.33,28.2965,-39.9194,119.738,-1329.91,13658.2,2941.84,-32.5124,-45.0955,-201.967,-11651.3,-15586.1,4126.62,-78.0782,2.20582,251.06,1979.43,11028.6,947.998,-104.267,22.8262,-31.7159,5252.64,-10257.0,-3942.89,-21.672,-116.245,-5.62448,10995.2,4543.28,-5902.64,-31.5386,10.8137,20.003
3.775,4736.92,-1083.28,10766.1,-53.4936,-338.713,-56.3398,15834.4,11876.0,-2384.49,-8.7845,-20.0391,118.937,-1284.11,13687.7,3042.1,-31.2621,-47.0005,-202.621,-9803.51,-16155.2,5606.16,-81.7702,-40.8493,244.277,2103.07,10904.8,1091.63,-105.048,25.2387,-31.7999,5555.18,-10512.6,-3304.15,-7.21053,-100.567,-9.00522,10942.8,4540.53,-5889.38,-29.4484,13.7828,20.0117
3.776,4707.68,-1150.47,10894.0,-54.7702,-343.027,-56.7911,13169.3,13567.2,-5801.3,-45.8655,-0.158746,118.135,-1238.31,13717.2,3142.35,-30.0119,-48.9055,-203.275,-7955.7,-16724.3,7085.7,-85.4622,-83.9045,237.494,2226.72,10781.1,1235.26,-105.829,27.6513,-31.8839,5857.72,-10768.2,-2665.41,7.25098,-84.8883,-12.386,10890.5,4537.79,-5876.13,-27.3582,16.7519,20.0205
3.777,4678.44,-1217.66,11022.0,-56.0468,-347.34,-57.2425,10504.2,15258.4,-9218.12,-82.9465,19.7216,117.334,-1192.5,13746.7,3242.6,-28.7616,-50.8105,-203.928,-6107.89,-17293.3,8565.25,-89.1543,-126.96,230.711,2350.36,10657.4,1378.9,-106.61,30.0638,-31.968,6160.26,-11023.8,-2026.67,21.7125,-69.2098,-15.7667,10838.1,4535.04,-5862.88,-25.268,19.721,20.0293
3.778,4626.61,-1312.77,11181.2,-57.2383,-351.915,-57.7721,5165.25,15986.5,-6509.15,-128.979,18.0793,115.614,-1128.71,13784.7,3331.2,-27.2091,-52.7087,-204.593,-3520.55,-18089.0,10957.6,-87.6873,-177.882,221.403,2459.86,10532.0,1501.45,-106.988,32.1767,-32.1061,6460.88,-11290.0,-1432.11,36.0458,-53.9809,-19.5805,10856.2,4497.15,-5753.89,-20.9447,23.3452,19.6807
3.779,4495.73,-1505.57,11449.7,-58.1321,-357.408,-58.5758,-9532.06,13343.9,17640.1,-206.342,-58.8923,110.68,-1001.94,13852.6,3379.02,-24.5984,-54.5833,-205.296,1655.12,-19677.8,16544.7,-68.164,-256.341,203.258,2519.83,10401.2,1550.23,-105.955,33.2405,-32.4336,6754.81,-11593.3,-992.217,49.9306,-40.3256,-24.9101,11120.7,4336.27,-5309.82,-8.80591,29.2619,18.0812
3.78,4364.84,-1698.38,11718.3,-59.0259,-362.9,-59.3794,-24229.4,10701.4,41789.3,-283.706,-135.864,105.745,-875.173,13920.6,3426.84,-21.9877,-56.4579,-206.0,6830.79,-21266.5,22131.8,-48.6406,-334.8,185.114,2579.8,10270.4,1599.0,-104.922,34.3043,-32.7611,7048.74,-11896.6,-552.32,63.8154,-26.6704,-30.2397,11385.1,4175.39,-4865.76,3.3329,35.1786,16.4817
3.781,4233.96,-1891.19,11986.9,-59.9198,-368.393,-60.1831,-38926.7,8058.79,65938.5,-361.069,-212.835,100.81,-748.405,13988.5,3474.67,-19.377,-58.3324,-206.703,12006.5,-22855.3,27718.8,-29.1173,-413.259,166.969,2639.78,10139.6,1647.78,-103.889,35.3682,-33.0886,7342.67,-12199.9,-112.423,77.7003,-13.0151,-35.5692,11649.6,4014.51,-4421.7,15.4717,41.0953,14.8822
3.782,4103.07,-2083.99,12255.4,-60.8136,-373.886,-60.9867,-53624.0,5416.21,90087.7,-438.433,-289.807,95.8757,-621.638,14056.5,3522.49,-16.7664,-60.207,-207.406,17182.1,-24444.0,33305.9,-9.59393,-491.718,148.825,2699.75,10008.7,1696.56,-102.855,36.432,-33.4162,7636.6,-12503.2,327.474,91.5851,0.640103,-40.8988,11914.1,3853.63,-3977.63,27.6105,47.0121,13.2827
3.783,3994.62,-2288.52,12491.0,-60.7158,-380.0,-61.5877,-67517.9,-989.888,87039.3,-375.603,-346.813,87.9801,-454.733,14205.6,3549.54,-14.5484,-59.2886,-208.699,28116.6,-27518.0,35329.4,28.0264,-516.501,113.42,2765.55,9899.48,1695.02,-100.688,36.323,-33.683,7896.88,-12522.3,-431.92,94.8862,16.2482,-45.0367,12261.2,3777.66,-2746.1,44.664,50.7957,9.88324
3.784,3892.57,-2496.39,12717.1,-60.3346,-386.293,-62.1308,-81182.1,-8471.28,76220.1,-272.719,-398.114,79.2385,-276.36,14377.8,3570.65,-12.4425,-57.5722,-210.161,40696.5,-31016.3,36334.6,70.8173,-525.948,73.0851,2833.01,9796.4,1679.11,-98.1967,35.879,-33.9326,8147.55,-12460.1,-1533.97,95.1634,32.4141,-48.8341,12631.8,3725.97,-1289.57,63.1218,53.9698,5.96954
3.785,3790.53,-2704.27,12943.2,-59.9534,-392.585,-62.6738,-94846.4,-15952.7,65400.9,-169.835,-449.416,70.4969,-97.9877,14550.1,3591.76,-10.3367,-55.8557,-211.622,53276.4,-34514.7,37339.8,113.608,-535.395,32.7497,2900.46,9693.32,1663.2,-95.7054,35.4349,-34.1822,8398.22,-12397.9,-2636.02,95.4407,48.5801,-52.6315,13002.4,3674.27,166.958,81.5795,57.144,2.05584
3.786,3688.48,-2912.14,13169.4,-59.5723,-398.878,-63.2169,-108511.0,-23434.1,54581.8,-66.9506,-500.717,61.7553,80.3849,14722.4,3612.88,-8.23089,-54.1393,-213.084,65856.3,-38013.0,38345.1,156.399,-544.842,-7.58573,2967.92,9590.24,1647.29,-93.214,34.9908,-34.4317,8648.89,-12335.7,-3738.06,95.7179,64.7461,-56.4288,13373.1,3622.57,1623.49,100.037,60.3182,-1.85786
3.787,3607.89,-2983.99,13317.2,-58.9551,-405.073,-63.4547,-111811.0,-27237.8,44968.8,9.77698,-544.61,59.8318,316.213,15005.6,3700.07,-6.23047,-51.8796,-214.446,77684.6,-38713.6,33366.6,191.854,-509.556,-26.5118,3060.31,9531.77,1686.67,-90.4488,34.0956,-34.7104,8906.08,-12405.6,-4706.89,92.4856,82.4189,-59.0871,13649.3,3615.02,3256.87,115.329,60.9202,-5.56827
3.788,3570.21,-2783.8,13308.4,-57.8658,-411.074,-63.082,-94382.9,-23686.3,37768.1,34.191,-573.685,71.5446,666.951,15510.6,3919.43,-4.44087,-48.5334,-215.609,88009.6,-33818.9,16420.6,212.636,-384.803,-2.61913,3202.58,9562.52,1836.63,-87.1358,32.2981,-35.0475,9176.28,-12739.5,-5409.26,82.2341,103.105,-59.4671,13736.6,3695.77,5243.98,124.287,56.378,-8.87207
3.789,3532.54,-2583.6,13299.6,-56.7765,-417.075,-62.7092,-76955.0,-20134.7,30567.4,58.6051,-602.76,83.2574,1017.69,16015.7,4138.79,-2.65127,-45.1872,-216.772,98334.6,-28924.2,-525.282,233.419,-260.049,21.2735,3344.85,9593.27,1986.6,-83.8229,30.5007,-35.3846,9446.47,-13073.5,-6111.64,71.9825,123.791,-59.8472,13824.0,3776.51,7231.09,133.246,51.8359,-12.1759
3.79,3494.86,-2383.4,13290.8,-55.6872,-423.076,-62.3365,-59527.0,-16583.1,23366.8,83.0191,-631.834,94.9702,1368.43,16520.8,4358.15,-0.861676,-41.841,-217.934,108660.0,-24029.5,-17471.2,254.201,-135.296,45.1662,3487.12,9624.02,2136.57,-80.51,28.7032,-35.7217,9716.67,-13407.4,-6814.02,61.731,144.478,-60.2272,13911.3,3857.26,9218.2,142.205,47.2937,-15.4797
3.791,3457.19,-2183.2,13282.0,-54.598,-429.076,-61.9638,-42099.0,-13031.6,16166.1,107.433,-660.909,106.683,1719.16,17025.9,4577.51,0.927922,-38.4948,-219.097,118985.0,-19134.8,-34417.1,274.984,-10.5429,69.0588,3629.39,9654.77,2286.54,-77.197,26.9057,-36.0588,9986.88,-13741.4,-7516.39,51.4795,165.164,-60.6072,13998.6,3938.01,11205.3,151.163,42.7515,-18.7835
3.792,3350.98,-2011.93,13393.8,-52.7944,-434.702,-61.6219,-18357.2,-10479.2,12725.7,84.3705,-633.951,101.411,2260.19,17660.0,4838.13,2.64314,-38.8872,-217.88,109998.0,-16892.5,-27675.7,246.477,97.7241,129.014,3870.43,9859.93,2408.36,-73.7287,25.0418,-36.4256,10571.3,-15459.8,-6697.53,47.7719,187.956,-60.4672,13970.4,3553.83,12797.2,134.672,32.6336,-19.1404
3.793,3236.2,-1844.28,13520.7,-50.9015,-440.28,-61.284,6173.83,-8051.61,9755.38,55.3732,-599.989,94.0159,2825.01,18310.4,5103.92,4.34906,-39.7469,-216.365,98597.1,-14981.7,-17973.4,211.81,203.93,193.476,4123.81,10086.9,2526.67,-70.2409,23.1696,-36.7961,11195.0,-17351.2,-5688.52,44.8823,211.01,-60.2621,13927.8,3111.54,14339.8,115.0,21.8188,-19.1289
3.794,3121.42,-1676.63,13647.7,-49.0086,-445.859,-60.946,30704.9,-5624.07,6785.04,26.3759,-566.027,86.6208,3389.83,18960.7,5369.7,6.05498,-40.6066,-214.85,87196.3,-13070.9,-8271.06,177.143,310.137,257.939,4377.19,10313.8,2644.98,-66.7531,21.2974,-37.1665,11818.8,-19242.7,-4679.5,41.9928,234.065,-60.057,13885.2,2669.25,15882.3,95.3277,11.004,-19.1174
3.795,3006.64,-1508.99,13774.6,-47.1157,-451.437,-60.608,55235.9,-3196.53,3814.71,-2.62141,-532.066,79.2258,3954.64,19611.0,5635.48,7.76091,-41.4663,-213.335,75795.5,-11160.1,1431.28,142.476,416.343,322.402,4630.57,10540.8,2763.28,-63.2654,19.4252,-37.537,12442.5,-21134.1,-3670.49,39.1032,257.119,-59.852,13842.6,2226.95,17424.8,75.6553,0.189117,-19.1059
3.796,2871.92,-1411.63,13707.0,-45.4977,-456.89,-60.7575,73804.2,-2047.48,2228.13,-27.3568,-491.062,53.1078,4484.61,20142.7,5761.63,6.73197,-43.7327,-211.765,65282.7,-10005.9,4261.75,100.354,525.688,370.419,4859.25,10864.8,2907.95,-60.506,17.6369,-37.7419,13295.2,-23322.4,-1964.27,46.6685,277.141,-60.7351,13706.7,1768.66,17747.1,52.733,-5.7376,-18.7516
3.797,2712.28,-1402.13,13396.3,-44.2235,-462.186,-61.5163,84919.1,-2496.55,2371.24,-46.7649,-441.256,3.58627,4971.01,20525.9,5713.22,2.28448,-47.7576,-210.126,55880.0,-9797.25,-1497.61,48.9139,638.957,397.881,5057.08,11310.3,3085.57,-58.657,15.9533,-37.7399,14434.2,-25881.9,613.449,67.3025,293.37,-62.9786,13454.2,1290.36,16543.9,25.7481,-5.55416,-17.969
3.798,2552.63,-1392.63,13085.6,-42.9492,-467.482,-62.2752,96033.9,-2945.62,2514.36,-66.1729,-391.45,-45.9353,5457.41,20909.1,5664.81,-2.16302,-51.7824,-208.487,46477.3,-9588.64,-7256.98,-2.52593,752.227,425.342,5254.89,11755.7,3263.18,-56.808,14.2697,-37.7379,15573.2,-28441.3,3191.17,87.9365,309.599,-65.222,13201.6,812.063,15340.7,-1.23679,-5.37073,-17.1864
3.799,2392.99,-1383.13,12774.8,-41.6749,-472.778,-63.034,107149.0,-3394.68,2657.47,-85.581,-341.644,-95.4568,5943.81,21292.3,5616.4,-6.61052,-55.8072,-206.847,37074.6,-9380.02,-13016.3,-53.9658,865.496,452.803,5452.71,12201.2,3440.8,-54.9591,12.5861,-37.7358,16712.1,-31000.7,5768.89,108.571,325.828,-67.4655,12949.1,333.767,14137.5,-28.2217,-5.18729,-16.4038
3.8,2233.34,-1373.63,12464.1,-40.4007,-478.073,-63.7928,118264.0,-3843.75,2800.59,-104.989,-291.838,-144.978,6430.21,21675.6,5567.99,-11.058,-59.8321,-205.208,27671.9,-9171.41,-18775.7,-105.406,978.765,480.265,5650.53,12646.6,3618.42,-53.1101,10.9025,-37.7338,17851.1,-33560.2,8346.6,129.205,342.057,-69.7089,12696.6,-144.53,12934.3,-55.2066,-5.00386,-15.6212
3.801,2130.19,-1659.17,12087.2,-39.3444,-483.961,-65.7124,111090.0,-2371.13,3636.08,-124.091,-250.415,-145.731,6570.39,21514.8,4958.18,-18.1854,-62.3488,-206.61,21096.5,-7984.62,-20895.9,-124.134,1005.71,491.308,5761.06,13211.8,3897.67,-53.4779,8.20441,-36.9273,18833.9,-34372.4,9780.77,154.637,345.351,-71.8435,12720.2,-1074.69,11554.3,-71.957,-1.47205,-17.1205
3.802,2027.04,-1944.7,11710.3,-38.2881,-489.848,-67.6319,103916.0,-898.509,4471.58,-143.192,-208.992,-146.484,6710.58,21354.0,4348.37,-25.3128,-64.8655,-208.012,14521.2,-6797.83,-23016.2,-142.863,1032.66,502.351,5871.59,13777.0,4176.93,-53.8457,5.50629,-36.1208,19816.6,-35184.7,11214.9,180.07,348.644,-73.978,12743.7,-2004.85,10174.2,-88.7075,2.05976,-18.6198
3.803,1923.89,-2230.23,11333.4,-37.2319,-495.735,-69.5515,96742.3,574.112,5307.08,-162.294,-167.568,-147.237,6850.76,21193.2,3738.56,-32.4403,-67.3822,-209.414,7945.85,-5611.03,-25136.4,-161.592,1059.61,513.394,5982.12,14342.1,4456.18,-54.2135,2.80817,-35.3143,20799.4,-35996.9,12649.1,205.502,351.937,-76.1125,12767.3,-2935.01,8794.21,-105.458,5.59157,-20.1192
3.804,1820.74,-2515.76,10956.5,-36.1756,-501.623,-71.4711,89568.5,2046.73,6142.57,-181.395,-126.145,-147.99,6990.94,21032.4,3128.75,-39.5677,-69.8988,-210.815,1370.51,-4424.24,-27256.7,-180.32,1086.56,524.436,6092.65,14907.3,4735.44,-54.5813,0.110056,-34.5079,21782.2,-36809.2,14083.3,230.934,355.23,-78.2471,12790.9,-3865.17,7414.18,-122.208,9.12337,-21.6185
3.805,1801.15,-3065.52,10624.4,-34.8396,-507.257,-73.4046,78903.3,1851.47,7143.96,-191.4,-106.72,-144.48,6987.68,20739.0,2395.65,-44.5976,-70.1367,-212.55,-5172.13,-5767.97,-27770.4,-189.051,1083.23,512.925,6230.23,15413.3,4987.26,-56.6037,-2.93462,-32.8389,22115.1,-36331.7,14394.0,245.854,354.086,-77.9447,12821.9,-4647.53,6213.25,-132.31,9.53308,-22.8649
3.806,1848.39,-3826.67,10328.0,-33.2797,-512.689,-75.3492,65444.8,321.908,8278.06,-194.128,-104.894,-137.559,6869.67,20339.5,1563.93,-47.9496,-68.5516,-214.55,-11688.6,-9136.12,-26998.9,-189.783,1055.67,483.37,6389.44,15871.9,5217.15,-59.9498,-6.25654,-30.4799,21928.1,-34822.3,13806.1,252.362,349.391,-75.6927,12859.0,-5311.66,5155.6,-137.092,7.44511,-23.909
3.807,1895.63,-4587.81,10031.6,-31.7198,-518.12,-77.2939,51986.4,-1207.66,9412.16,-196.856,-103.067,-130.638,6751.65,19940.0,732.2,-51.3015,-66.9664,-216.551,-18205.1,-12504.3,-26227.3,-190.516,1028.12,453.815,6548.66,16330.6,5447.04,-63.2959,-9.57846,-28.1209,21741.1,-33312.9,13218.1,258.87,344.697,-73.4407,12896.1,-5975.79,4097.96,-141.874,5.35715,-24.9531
3.808,1942.87,-5348.96,9735.19,-30.1599,-523.552,-79.2385,38528.0,-2737.22,10546.3,-199.583,-101.241,-123.718,6633.63,19540.5,-99.5268,-54.6535,-65.3813,-218.552,-24721.6,-15872.4,-25455.8,-191.248,1000.56,424.26,6707.87,16789.3,5676.92,-66.642,-12.9004,-25.7619,21554.2,-31803.5,12630.1,265.379,340.003,-71.1887,12933.1,-6639.92,3040.31,-146.656,3.26918,-25.9972
3.809,1998.09,-6100.11,9472.3,-28.52,-528.94,-81.0763,25758.9,-3983.55,11644.0,-201.824,-102.127,-115.912,6529.27,19130.4,-898.645,-57.653,-63.3285,-220.533,-31146.5,-19274.2,-24529.1,-194.448,972.885,393.057,6873.92,17220.3,5897.8,-70.0272,-16.2155,-23.2061,21225.6,-30239.1,11925.3,270.926,335.384,-68.6218,12912.0,-7241.3,1957.27,-149.789,1.57283,-26.8622
3.81,2117.16,-6771.23,9477.43,-26.2394,-533.981,-82.0591,18504.9,-2963.95,12451.4,-200.164,-124.715,-101.031,6534.17,18634.8,-1436.89,-57.8325,-57.5344,-222.355,-36838.1,-22945.2,-22360.8,-217.386,944.248,348.669,7094.6,17429.9,6046.61,-73.7247,-19.4761,-19.0763,19764.1,-28234.7,10286.0,268.785,331.363,-63.5353,12425.4,-7340.76,671.015,-139.726,3.00941,-26.2944
3.811,2236.22,-7442.36,9482.56,-23.9588,-539.021,-83.0418,11250.9,-1944.35,13258.7,-198.504,-147.302,-86.149,6539.06,18139.2,-1975.14,-58.0121,-51.7403,-224.178,-42529.8,-26616.1,-20192.5,-240.325,915.612,304.281,7315.28,17639.6,6195.41,-77.4222,-22.7367,-14.9465,18302.7,-26230.3,8646.69,266.645,327.343,-58.4488,11938.8,-7440.21,-615.237,-129.663,4.44599,-25.7266
3.812,2355.28,-8113.48,9487.69,-21.6782,-544.062,-84.0246,3996.86,-924.751,14066.0,-196.844,-169.889,-71.2673,6543.96,17643.6,-2513.38,-58.1916,-45.9462,-226.001,-48221.4,-30287.1,-18024.3,-263.264,886.976,259.894,7535.96,17849.2,6344.22,-81.1197,-25.9973,-10.8168,16841.2,-24226.0,7007.37,264.504,323.322,-53.3623,11452.3,-7539.66,-1901.49,-119.601,5.88257,-25.1588
3.813,2474.34,-8784.61,9492.82,-19.3976,-549.102,-85.0073,-3257.15,94.8471,14873.3,-195.184,-192.476,-56.3857,6548.85,17148.0,-3051.63,-58.3712,-40.1522,-227.823,-53913.1,-33958.1,-15856.0,-286.202,858.34,215.506,7756.64,18058.9,6493.02,-84.8172,-29.2579,-6.687,15379.8,-22221.6,5368.04,262.363,319.301,-48.2758,10965.7,-7639.11,-3187.74,-109.538,7.31915,-24.5909
3.814,2557.88,-9047.29,9624.27,-18.1027,-554.554,-85.9087,-4862.77,1420.29,14887.3,-193.814,-208.216,-44.3472,6733.21,16799.3,-3261.91,-56.7535,-34.713,-229.96,-56153.0,-33667.7,-12172.0,-299.592,816.589,205.707,8004.83,18048.7,6459.04,-87.2546,-31.6611,-1.80492,13760.6,-20482.0,3678.01,261.539,319.84,-42.8996,10239.0,-7693.45,-3756.95,-97.0201,8.93807,-24.7669
3.815,2623.65,-9105.74,9818.88,-17.3006,-560.212,-86.7695,-3644.18,2898.65,14504.5,-192.589,-220.531,-33.7303,7007.29,16524.1,-3308.22,-54.2371,-29.4512,-232.254,-56667.1,-31396.6,-7730.08,-308.208,768.281,213.203,8266.76,17928.4,6333.66,-89.0621,-33.6354,3.45331,12062.6,-18874.8,1962.62,261.372,322.659,-37.3785,9392.17,-7725.23,-3967.64,-83.2747,10.6482,-25.3148
3.816,2689.43,-9164.19,10013.5,-16.4985,-565.87,-87.6302,-2425.58,4377.0,14121.7,-191.364,-232.847,-23.1134,7281.38,16248.9,-3354.52,-51.7208,-24.1894,-234.548,-57181.1,-29125.6,-3288.18,-316.824,719.974,220.699,8528.69,17808.2,6208.28,-90.8696,-35.6098,8.71154,10364.5,-17267.6,247.237,261.205,325.478,-31.8574,8545.39,-7757.02,-4178.33,-69.5294,12.3583,-25.8628
3.817,2755.2,-9222.64,10208.1,-15.6964,-571.527,-88.491,-1206.99,5855.36,13738.9,-190.139,-245.162,-12.4965,7555.46,15973.7,-3400.82,-49.2045,-18.9276,-236.842,-57695.2,-26854.5,1153.73,-325.439,671.666,228.195,8790.63,17688.0,6082.9,-92.677,-37.5842,13.9698,8666.47,-15660.4,-1468.15,261.038,328.297,-26.3364,7698.6,-7788.8,-4389.02,-55.784,14.0684,-26.4107
3.818,2806.02,-9216.55,10384.5,-15.2934,-577.281,-89.4082,665.455,6809.69,13131.3,-189.172,-252.319,-3.15691,7867.34,15774.1,-3431.08,-46.6677,-14.1761,-239.061,-57640.6,-24877.9,5565.95,-327.502,616.388,239.784,9047.39,17507.4,5880.9,-93.8908,-38.9744,19.3087,7023.02,-14156.0,-3039.78,260.222,331.948,-21.1651,6894.9,-7681.17,-4433.06,-42.5654,14.5431,-26.7147
3.819,2804.51,-8984.56,10497.1,-16.2872,-583.371,-90.5229,4826.41,5929.88,11736.8,-189.113,-241.422,1.71197,8311.47,15838.6,-3405.21,-44.0593,-11.2102,-241.021,-55596.0,-23931.8,9874.29,-306.632,536.713,265.696,9286.05,17115.3,5410.75,-93.027,-38.3202,24.9299,5570.65,-13011.2,-4108.25,257.131,338.512,-17.2179,6242.01,-7085.59,-3893.84,-31.1902,10.6939,-26.1649
3.82,2803.0,-8752.57,10609.7,-17.281,-589.46,-91.6377,8987.37,5050.07,10342.3,-189.053,-230.525,6.58085,8755.61,15903.2,-3379.33,-41.4509,-8.24432,-242.98,-53551.4,-22985.6,14182.6,-285.761,457.038,291.607,9524.71,16723.2,4940.6,-92.1631,-37.666,30.5511,4118.28,-11866.4,-5176.72,254.04,345.076,-13.2708,5589.12,-6490.02,-3354.62,-19.815,6.84472,-25.6152
3.821,2801.49,-8520.58,10722.3,-18.2748,-595.55,-92.7525,13148.3,4170.27,8947.73,-188.993,-219.628,11.4497,9199.74,15967.8,-3353.46,-38.8425,-5.27845,-244.94,-51506.7,-22039.5,18491.0,-264.89,377.363,317.519,9763.38,16331.0,4470.45,-91.2993,-37.0118,36.1723,2665.9,-10721.6,-6245.19,250.95,351.64,-9.32365,4936.22,-5894.44,-2815.4,-8.43986,2.99555,-25.0655
3.822,2799.98,-8288.59,10834.9,-19.2686,-601.64,-93.8672,17309.3,3290.46,7553.2,-188.933,-208.731,16.3186,9643.88,16032.4,-3327.58,-36.2341,-2.31258,-246.899,-49462.1,-21093.4,22799.3,-244.02,297.688,343.431,10002.0,15938.9,4000.3,-90.4354,-36.3576,41.7935,1213.53,-9576.82,-7313.66,247.859,358.204,-5.37651,4283.33,-5298.86,-2276.19,2.93531,-0.853613,-24.5157
3.823,2852.36,-8118.53,10860.6,-20.9648,-607.501,-94.8737,18771.7,954.368,7557.68,-186.186,-194.293,18.2073,10038.7,16194.4,-3377.79,-34.9489,0.201505,-249.003,-46552.4,-22005.1,25554.1,-218.281,207.421,345.988,10094.7,15483.2,3405.78,-88.4043,-33.359,47.0193,67.2291,-8761.03,-7729.14,237.56,358.549,-4.76932,3977.01,-4641.59,-1860.68,8.58415,-6.69485,-22.5906
3.824,2920.13,-7966.18,10861.3,-22.8617,-613.297,-95.8493,19463.0,-1797.81,7961.88,-182.672,-178.843,19.2444,10419.5,16384.3,-3449.74,-34.0418,2.58651,-251.149,-43395.5,-23447.6,27865.0,-191.151,114.127,341.873,10145.6,15009.2,2775.73,-86.0397,-29.6905,52.132,-991.622,-8039.25,-7958.05,225.202,357.118,-5.11638,3769.71,-3966.69,-1480.51,12.5969,-13.1053,-20.2726
3.825,2987.91,-7813.82,10862.1,-24.7586,-619.093,-96.8249,20154.3,-4549.98,8366.07,-179.157,-163.393,20.2816,10800.3,16574.2,-3521.69,-33.1347,4.97151,-253.295,-40238.7,-24890.2,30175.9,-164.022,20.8331,337.758,10196.5,14535.2,2145.68,-83.6751,-26.0221,57.2447,-2050.47,-7317.47,-8186.96,212.844,355.687,-5.46345,3562.41,-3291.79,-1100.35,16.6097,-19.5157,-17.9546
3.826,3055.68,-7661.47,10862.9,-26.6555,-624.889,-97.8005,20845.7,-7302.16,8770.27,-175.643,-147.943,21.3187,11181.1,16764.0,-3593.64,-32.2277,7.35651,-255.441,-37081.8,-26332.7,32486.8,-136.892,-72.4606,333.643,10247.3,14061.3,1515.63,-81.3105,-22.3536,62.3574,-3109.33,-6595.69,-8415.87,200.485,354.256,-5.81052,3355.11,-2616.89,-720.181,20.6224,-25.9261,-15.6365
3.827,3176.25,-7581.57,10787.5,-28.7963,-630.672,-98.9014,20402.0,-9159.12,9412.32,-172.85,-133.885,20.2796,11492.0,16932.2,-3782.15,-31.5344,10.0314,-257.437,-33834.5,-27192.1,33601.6,-109.487,-159.224,323.81,10226.4,13599.6,1017.28,-80.1041,-18.8595,66.8262,-4050.98,-5968.05,-8428.79,185.591,347.454,-7.41179,3249.08,-1997.95,-501.305,22.0354,-31.2868,-13.1322
3.828,3402.38,-7646.59,10559.7,-31.4248,-636.429,-100.253,17688.2,-9225.65,10530.1,-171.503,-122.61,15.088,11663.1,17057.1,-4203.78,-31.2687,13.286,-259.134,-30406.3,-26885.3,32324.1,-81.533,-232.925,302.544,10061.8,13162.3,782.322,-81.2139,-15.7138,70.0072,-4758.24,-5528.72,-8009.74,165.623,329.91,-11.5215,3345.58,-1490.92,-605.007,18.2489,-34.5483,-10.2555
3.829,3628.52,-7711.61,10332.0,-34.0533,-642.186,-101.605,14974.4,-9292.17,11647.9,-170.155,-111.336,9.89636,11834.2,17182.0,-4625.4,-31.003,16.5406,-260.831,-26978.1,-26578.4,31046.7,-53.5787,-306.627,281.278,9897.22,12724.9,547.364,-82.3237,-12.5682,73.1881,-5465.5,-5089.39,-7590.69,145.656,312.366,-15.6312,3442.09,-983.898,-708.709,14.4624,-37.8097,-7.37873
3.83,3854.65,-7776.63,10104.2,-36.6818,-647.944,-102.956,12260.6,-9358.7,12765.7,-168.807,-100.061,4.70473,12005.3,17306.9,-5047.03,-30.7374,19.7952,-262.529,-23549.9,-26271.6,29769.2,-25.6244,-380.329,260.011,9732.63,12287.6,312.405,-83.4335,-9.42257,76.3691,-6172.77,-4650.05,-7171.64,125.689,294.822,-19.7409,3538.6,-476.872,-812.411,10.6759,-41.0712,-4.50198
3.831,4080.79,-7841.65,9876.47,-39.3103,-653.701,-104.308,9546.87,-9425.23,13883.4,-167.459,-88.7869,-0.486908,12176.4,17431.8,-5468.65,-30.4717,23.0498,-264.226,-20121.7,-25964.8,28491.8,2.32993,-454.031,238.745,9568.03,11850.3,77.4472,-84.5434,-6.27694,79.55,-6880.03,-4210.72,-6752.59,105.721,277.278,-23.8506,3635.1,30.1525,-916.114,6.88942,-44.3327,-1.62523
3.832,4480.87,-7811.04,9325.44,-42.6122,-658.994,-105.056,6533.89,-7888.41,14095.0,-168.043,-82.0707,0.558445,12078.3,17269.8,-5987.69,-35.5651,30.444,-267.578,-17596.4,-23517.0,24492.6,25.4497,-498.642,228.626,9278.57,11467.9,320.397,-89.6017,-7.4007,80.0301,-7941.67,-4055.43,-6087.29,84.4606,249.594,-28.5223,3778.74,586.755,-1117.67,0.887052,-44.8608,1.0974
3.833,4902.7,-7768.48,8733.99,-45.9982,-664.23,-105.73,3483.52,-6151.18,14193.4,-168.868,-75.9243,2.38342,11946.5,17071.9,-6518.9,-41.3284,38.3557,-271.136,-15184.0,-20801.7,20153.2,47.9651,-539.617,219.9,8973.51,11092.3,623.085,-95.1537,-9.05813,80.1726,-9047.62,-3935.65,-5391.21,63.0383,220.643,-33.2643,3928.27,1149.56,-1331.46,-5.3923,-45.0473,3.80077
3.834,5324.53,-7725.92,8142.55,-49.3842,-669.465,-106.403,433.139,-4413.95,14291.7,-169.693,-69.7778,4.2084,11814.8,16874.0,-7050.11,-47.0918,46.2674,-274.695,-12771.5,-18086.4,15813.9,70.4805,-580.592,211.174,8668.44,10716.7,925.773,-100.706,-10.7156,80.315,-10153.6,-3815.87,-4695.13,41.616,191.691,-38.0062,4077.8,1712.36,-1545.26,-11.6717,-45.2338,6.50413
3.835,5746.35,-7683.35,7551.1,-52.7702,-674.701,-107.076,-2617.24,-2676.72,14390.0,-170.518,-63.6314,6.03338,11683.0,16676.1,-7581.32,-52.8551,54.1791,-278.254,-10359.1,-15371.0,11474.5,92.996,-621.567,202.448,8363.38,10341.1,1228.46,-106.258,-12.373,80.4575,-11259.5,-3696.09,-3999.04,20.1938,162.74,-42.7482,4227.33,2275.16,-1759.05,-17.951,-45.4203,9.2075
3.836,6288.86,-7429.32,7229.33,-56.7084,-679.405,-107.09,-4628.01,-1339.61,14172.5,-170.685,-58.8063,11.2949,11447.0,16457.5,-7901.11,-61.0659,62.9586,-281.966,-8349.51,-12765.7,7087.5,118.547,-647.862,198.127,7995.07,9954.13,1583.99,-111.932,-15.6918,79.0862,-12541.3,-3664.5,-3575.75,1.97032,134.756,-46.1535,4419.61,2770.12,-1932.71,-23.7329,-45.4407,11.2528
3.837,6982.21,-6910.95,7244.65,-61.337,-683.444,-106.281,-5339.27,-502.659,13560.1,-170.03,-55.633,20.852,11080.6,16212.9,-7956.62,-72.336,72.8228,-285.871,-6843.4,-10298.0,2641.02,147.893,-655.807,199.312,7547.72,9553.0,2005.57,-117.76,-21.0873,75.8226,-14043.0,-3743.14,-3493.44,-12.2546,107.98,-47.8881,4665.31,3180.28,-2056.22,-28.8931,-45.2536,12.4756
3.838,7675.56,-6392.57,7259.97,-65.9656,-687.484,-105.471,-6050.54,334.293,12947.7,-169.375,-52.4596,30.4091,10714.1,15968.3,-8012.14,-83.6062,82.687,-289.776,-5337.29,-7830.29,-1805.45,177.24,-663.752,200.497,7100.37,9151.87,2427.16,-123.588,-26.4827,72.559,-15544.6,-3821.77,-3411.14,-26.4794,81.2049,-49.6227,4911.02,3590.44,-2179.72,-34.0532,-45.0664,13.6983
3.839,8368.91,-5874.2,7275.28,-70.5941,-691.524,-104.661,-6761.8,1171.25,12335.3,-168.72,-49.2862,39.9662,10347.7,15723.7,-8067.65,-94.8763,92.5512,-293.681,-3831.18,-5362.57,-6251.93,206.586,-671.697,201.682,6653.02,8750.74,2848.74,-129.416,-31.8782,69.2954,-17046.3,-3900.41,-3328.84,-40.7043,54.4295,-51.3573,5156.73,4000.61,-2303.23,-39.2133,-44.8792,14.9211
3.84,9062.25,-5355.83,7290.6,-75.2227,-695.564,-103.851,-7473.06,2008.2,11723.0,-168.064,-46.1128,49.5234,9981.29,15479.1,-8123.17,-106.146,102.415,-297.586,-2325.07,-2894.84,-10698.4,235.932,-679.642,202.866,6205.67,8349.61,3270.32,-135.245,-37.2737,66.0319,-18547.9,-3979.05,-3246.53,-54.9292,27.6541,-53.0919,5402.43,4410.77,-2426.73,-44.3734,-44.692,16.1438
3.841,10218.8,-4750.95,7322.61,-79.9755,-693.547,-102.39,-5286.12,1954.58,11441.6,-152.867,-44.3696,60.4477,9394.72,15088.4,-7436.51,-119.04,109.085,-301.977,-781.403,-1760.94,-14187.2,249.799,-646.779,201.967,5622.12,7893.63,3448.89,-138.296,-42.3374,59.5134,-19831.9,-4295.28,-3980.86,-65.1951,16.5788,-56.0458,5754.27,4370.21,-2566.73,-48.0832,-43.8707,17.0064
3.842,11375.4,-4146.06,7354.62,-84.7283,-691.53,-100.928,-3099.18,1900.97,11160.3,-137.669,-42.6264,71.3721,8808.14,14697.6,-6749.86,-131.934,115.755,-306.369,762.262,-627.044,-17676.0,263.665,-613.916,201.067,5038.58,7437.66,3627.46,-141.347,-47.401,52.9949,-21115.8,-4611.52,-4715.2,-75.4611,5.5035,-58.9996,6106.1,4329.64,-2706.72,-51.793,-43.0494,17.869
3.843,12531.9,-3541.18,7386.64,-89.4811,-689.513,-99.467,-912.236,1847.36,10879.0,-122.472,-40.8832,82.2965,8221.57,14306.9,-6063.21,-144.828,122.425,-310.76,2305.93,506.857,-21164.8,277.532,-581.052,200.167,4455.04,6981.68,3806.02,-144.399,-52.4647,46.4764,-22399.8,-4927.75,-5449.53,-85.727,-5.57179,-61.9535,6457.94,4289.08,-2846.71,-55.5028,-42.2281,18.7316
3.844,13688.5,-2936.3,7418.65,-94.234,-687.496,-98.0055,1274.71,1793.74,10597.7,-107.274,-39.14,93.2208,7635.0,13916.2,-5376.55,-157.722,129.094,-315.152,3849.59,1640.76,-24653.6,291.399,-548.189,199.267,3871.5,6525.71,3984.59,-147.45,-57.5284,39.9579,-23683.7,-5243.98,-6183.86,-95.993,-16.6471,-64.9074,6809.78,4248.52,-2986.7,-59.2126,-41.4068,19.5943
3.845,15185.8,-2984.15,7142.31,-98.4237,-681.418,-97.7165,4098.86,1984.79,10378.0,-91.6166,-35.5946,99.4548,7108.79,13678.5,-4767.73,-170.462,133.441,-318.789,5350.42,3105.81,-27097.9,282.022,-497.51,199.723,3309.21,6170.44,3933.27,-148.35,-61.592,33.1423,-25170.7,-5237.46,-7079.78,-103.009,-15.3265,-71.1168,7252.05,4106.98,-3010.21,-58.664,-39.3037,18.5927
3.846,16955.6,-3554.19,6619.3,-102.163,-672.092,-98.3655,7432.77,2371.57,10207.6,-75.5906,-30.6075,101.936,6630.89,13563.2,-4221.18,-183.077,135.929,-321.822,6816.98,4835.8,-28706.5,254.051,-432.578,201.263,2763.93,5895.72,3698.05,-147.529,-64.8555,26.089,-26820.2,-4972.73,-8104.97,-107.426,-4.08911,-79.9307,7766.68,3884.68,-2940.53,-54.7086,-36.1751,16.0998
3.847,18725.4,-4124.23,6096.28,-105.902,-662.765,-99.0145,10766.7,2758.35,10037.2,-59.5646,-25.6204,104.418,6152.99,13447.8,-3674.62,-195.693,138.417,-324.854,8283.54,6565.78,-30315.2,226.08,-367.647,202.804,2218.64,5621.0,3462.83,-146.708,-68.119,19.0356,-28469.7,-4707.99,-9130.16,-111.843,7.14823,-88.7446,8281.31,3662.37,-2870.85,-50.7532,-33.0465,13.6068
3.848,20495.3,-4694.27,5573.27,-109.642,-653.438,-99.6636,14100.6,3145.13,9866.83,-43.5385,-20.6332,106.9,5675.09,13332.5,-3128.06,-208.309,140.905,-327.887,9750.1,8295.76,-31923.9,198.108,-302.715,204.344,1673.36,5346.29,3227.61,-145.887,-71.3825,11.9823,-30119.1,-4443.26,-10155.3,-116.259,18.3856,-97.5585,8795.95,3440.06,-2801.17,-46.7979,-29.9179,11.1139
3.849,22231.6,-5411.7,5077.96,-112.952,-643.644,-100.692,17317.9,3670.89,9634.47,-29.1483,-15.1978,108.058,5147.41,13260.8,-2656.13,-221.352,143.194,-330.967,11079.1,10027.3,-33177.9,168.788,-238.324,206.494,1148.49,5104.93,2984.89,-144.877,-74.4979,5.15419,-31813.1,-3995.83,-11092.1,-120.167,30.6914,-105.4,9308.38,3245.07,-2701.01,-41.9203,-26.6298,8.39436
3.85,23699.8,-7308.29,4804.3,-112.835,-630.11,-104.752,19602.2,5308.43,8906.37,-27.8447,-6.17519,98.6339,4221.53,13538.0,-2781.17,-237.816,143.897,-334.42,11307.9,11771.3,-31594.9,128.681,-178.261,213.516,786.979,5130.49,2682.21,-142.351,-76.4284,0.127687,-33863.4,-2086.82,-11321.7,-120.0,51.5454,-105.46,9803.24,3268.57,-2356.93,-29.6648,-22.0655,3.86192
3.851,25167.9,-9204.87,4530.64,-112.719,-616.577,-108.813,21886.5,6945.97,8178.28,-26.541,2.84737,89.2094,3295.64,13815.2,-2906.2,-254.28,144.6,-337.874,11536.7,13515.2,-30012.0,88.5743,-118.199,220.538,425.463,5156.04,2379.54,-139.825,-78.3589,-4.89882,-35913.7,-177.819,-11551.3,-119.833,72.3993,-105.521,10298.1,3292.06,-2012.86,-17.4094,-17.5012,-0.670515
3.852,26636.1,-11101.5,4256.98,-112.602,-603.043,-112.873,24170.8,8583.51,7450.18,-25.2374,11.8699,79.7849,2369.76,14092.4,-3031.24,-270.744,145.303,-341.327,11765.4,15259.2,-28429.0,48.4672,-58.1358,227.56,63.9477,5181.59,2076.86,-137.299,-80.2895,-9.92532,-37964.0,1731.19,-11780.9,-119.666,93.2533,-105.581,10793.0,3315.56,-1668.79,-5.15395,-12.9368,-5.20295
3.853,28104.3,-12998.0,3983.32,-112.485,-589.51,-116.934,26455.1,10221.1,6722.08,-23.9337,20.8925,70.3604,1443.88,14369.6,-3156.28,-287.208,146.006,-344.781,11994.2,17003.2,-26846.0,8.36013,1.92694,234.582,-297.568,5207.14,1774.18,-134.773,-82.22,-14.9518,-40014.3,3640.19,-12010.5,-119.499,114.107,-105.642,11287.8,3339.06,-1324.71,7.10149,-8.37253,-9.73539
3.854,28840.1,-14505.0,4121.47,-107.404,-576.379,-121.013,26991.0,11610.8,6284.03,-30.0781,26.4076,61.2888,252.718,14906.9,-3562.15,-298.079,144.113,-348.386,11205.2,16684.6,-25338.4,-21.2867,49.8161,234.283,-559.625,5335.27,1488.86,-131.867,-82.8312,-18.8515,-40936.0,5744.71,-11583.2,-120.574,131.837,-96.5566,11712.9,3518.13,-637.942,16.5856,-6.08591,-14.4601
3.855,29209.6,-15817.0,4465.53,-99.8418,-563.449,-125.102,26652.8,12876.7,5990.99,-39.9465,30.1691,52.3935,-1071.08,15574.3,-4108.45,-306.153,140.922,-352.066,9907.25,15334.8,-23868.4,-45.7034,91.6184,230.323,-771.954,5514.69,1212.22,-128.77,-82.7827,-22.1877,-41293.5,7946.98,-10827.6,-122.268,148.004,-82.8987,12103.1,3774.99,220.18,24.6841,-4.93815,-19.2808
3.856,29579.2,-17129.1,4809.59,-92.2793,-550.519,-129.191,26314.6,14142.6,5697.95,-49.815,33.9306,43.4982,-2394.87,16241.6,-4654.75,-314.227,137.731,-355.747,8609.31,13985.0,-22398.4,-70.1201,133.421,226.364,-984.283,5694.11,935.585,-125.673,-82.7342,-25.524,-41651.0,10149.3,-10072.0,-123.963,164.171,-69.2407,12493.3,4031.86,1078.3,32.7826,-3.79039,-24.1016
3.857,29948.8,-18441.2,5153.65,-84.7169,-537.589,-133.28,25976.4,15408.5,5404.92,-59.6834,37.692,34.603,-3718.66,16909.0,-5201.05,-322.3,134.54,-359.427,7311.37,12635.2,-20928.4,-94.5368,175.223,222.404,-1196.61,5873.52,658.945,-122.577,-82.6857,-28.8602,-42008.5,12351.5,-9316.36,-125.657,180.338,-55.5828,12883.5,4288.72,1936.42,40.8811,-2.64262,-28.9224
3.858,30166.0,-19470.9,5471.5,-76.1428,-525.389,-136.997,25124.1,16101.8,5322.99,-69.3727,40.5658,26.0902,-5126.69,17653.1,-5831.47,-326.893,133.219,-360.791,5912.8,11082.2,-19296.2,-114.995,211.39,216.14,-1367.01,6106.06,354.678,-118.732,-82.294,-31.5468,-41865.5,14182.8,-8422.75,-126.556,193.489,-42.5367,13233.1,4536.76,2758.54,46.3813,-2.08388,-33.5015
3.859,29849.7,-19512.3,5697.67,-64.0277,-515.746,-139.413,22472.8,14790.7,5979.96,-78.4351,40.3325,18.916,-6829.54,18665.5,-6756.34,-319.303,138.443,-354.048,4162.03,8818.06,-17096.2,-121.6,227.832,201.811,-1390.65,6524.53,-46.2895,-112.267,-80.7013,-31.9594,-39971.2,14715.9,-7046.19,-124.667,196.083,-31.6321,13440.6,4753.92,3454.62,42.7873,-3.58672,-37.2347
3.86,29533.4,-19553.7,5923.83,-51.9127,-506.102,-141.829,19821.5,13479.6,6636.94,-87.4975,40.0992,11.7418,-8532.39,19678.0,-7681.21,-311.712,143.667,-347.305,2411.26,6553.91,-14896.1,-128.205,244.273,187.482,-1414.28,6943.0,-447.257,-105.803,-79.1085,-32.3721,-38076.8,15248.9,-5669.62,-122.778,198.678,-20.7275,13648.1,4971.09,4150.7,39.1934,-5.08956,-40.968
3.861,29217.1,-19595.2,6149.99,-39.7976,-496.459,-144.245,17170.2,12168.5,7293.91,-96.5599,39.8658,4.56756,-10235.2,20690.4,-8606.08,-304.122,148.89,-340.562,660.484,4289.76,-12696.1,-134.81,260.715,173.153,-1437.92,7361.47,-848.224,-99.3387,-77.5157,-32.7847,-36182.4,15781.9,-4293.05,-120.889,201.272,-9.82282,13855.6,5188.26,4846.78,35.5994,-6.5924,-44.7012
3.862,28900.9,-19636.6,6376.15,-27.6826,-486.816,-146.661,14518.9,10857.4,7950.88,-105.622,39.6325,-2.60664,-11938.1,21702.9,-9530.95,-296.531,154.114,-333.819,-1090.29,2025.61,-10496.0,-141.414,277.157,158.824,-1461.56,7779.94,-1249.19,-92.8745,-75.923,-33.1974,-34288.1,16314.9,-2916.49,-119.001,203.866,1.08181,14063.1,5405.42,5542.86,32.0055,-8.09523,-48.4345
3.863,28466.0,-19276.9,6577.54,-18.1676,-479.139,-149.796,11541.2,9069.17,8732.02,-108.913,37.7911,-6.04661,-14038.0,22357.1,-9477.23,-266.8,156.139,-316.916,-2469.62,-45.7551,-8069.52,-139.026,284.475,149.451,-1495.79,8510.08,-1674.67,-81.9087,-73.4977,-28.974,-31935.5,16089.5,-2266.19,-110.489,197.669,11.3936,14363.6,5451.16,5860.27,22.888,-8.28959,-51.38
3.864,27997.2,-18802.6,6771.85,-9.39542,-472.025,-153.138,8470.33,7144.63,9548.64,-110.554,35.4901,-8.41966,-16251.4,22909.0,-9143.92,-230.744,157.251,-297.11,-3742.82,-2062.03,-5578.31,-134.069,289.185,141.494,-1533.05,9329.28,-2107.15,-69.6567,-70.8344,-23.4261,-29452.1,15647.5,-1823.39,-100.084,188.961,21.5359,14690.7,5447.93,6069.47,12.1923,-8.1101,-54.1005
3.865,27528.4,-18328.3,6966.16,-0.623274,-464.91,-156.479,5399.45,5220.08,10365.3,-112.195,33.1891,-10.7927,-18464.8,23460.9,-8810.6,-194.688,158.363,-277.304,-5016.03,-4078.31,-3087.11,-129.111,293.896,133.537,-1570.3,10148.5,-2539.64,-57.4048,-68.1712,-17.8781,-26968.6,15205.5,-1380.6,-89.6797,180.253,31.6783,15017.7,5444.69,6278.68,1.49669,-7.93061,-56.821
3.866,27059.6,-17854.1,7160.47,8.14887,-457.796,-159.821,2328.57,3295.54,11181.9,-113.837,30.8882,-13.1658,-20678.3,24012.8,-8477.29,-158.632,159.475,-257.497,-6289.23,-6094.59,-595.899,-124.154,298.606,125.58,-1607.56,10967.7,-2972.12,-45.1528,-65.5079,-12.3302,-24485.2,14763.4,-937.802,-79.2753,171.545,41.8206,15344.8,5441.45,6487.89,-9.19896,-7.75112,-59.5414
3.867,26532.3,-17262.4,7359.43,15.7758,-451.483,-163.107,102.077,1272.41,11887.8,-113.439,28.9302,-13.0209,-22238.8,23885.1,-8036.59,-123.53,157.131,-241.158,-7250.53,-8109.32,1640.01,-115.397,301.797,123.527,-1679.45,11813.7,-3429.65,-32.1789,-62.1773,-5.40586,-22313.3,14107.0,-751.576,-68.9496,161.113,52.4579,15667.6,5314.65,6597.2,-19.1363,-6.85337,-62.3014
3.868,25888.0,-16435.8,7567.68,21.1122,-446.776,-166.281,-435.641,-947.898,12372.4,-108.964,27.6582,-7.84035,-22493.8,22398.3,-7381.11,-90.337,147.875,-231.75,-7588.03,-10120.9,3365.31,-99.0419,301.948,133.281,-1820.61,12713.4,-3937.28,-17.7611,-57.5119,4.27127,-20764.5,13021.6,-1078.49,-58.7814,147.231,64.0852,15981.9,4940.75,6506.73,-27.5568,-4.51913,-65.1405
3.869,25243.7,-15609.3,7775.94,26.4486,-442.068,-169.456,-973.358,-3168.2,12857.0,-104.489,26.3862,-2.65977,-22748.8,20911.4,-6725.64,-57.144,138.619,-222.343,-7925.54,-12132.5,5090.61,-82.6867,302.099,143.036,-1961.77,13613.1,-4444.9,-3.34326,-52.8465,13.9484,-19215.7,11936.3,-1405.4,-48.6131,133.348,75.7124,16296.1,4566.85,6416.26,-35.9774,-2.18489,-67.9796
3.87,24599.3,-14782.8,7984.19,31.785,-437.361,-172.63,-1511.08,-5388.51,13341.6,-100.015,25.1142,2.52081,-23003.8,19424.6,-6070.17,-23.951,129.363,-212.935,-8263.04,-14144.2,6815.91,-66.3315,302.25,152.791,-2102.93,14512.7,-4952.53,11.0746,-48.1811,23.6255,-17666.9,10851.0,-1732.31,-38.4449,119.466,87.3396,16610.4,4192.94,6325.79,-44.398,0.149346,-70.8187
3.871,23955.0,-13956.3,8192.44,37.1214,-432.653,-175.804,-2048.79,-7608.82,13826.1,-95.5396,23.8422,7.70139,-23258.8,17937.7,-5414.69,9.24193,120.107,-203.528,-8600.54,-16155.8,8541.21,-49.9762,302.401,162.546,-2244.09,15412.4,-5460.16,25.4924,-43.5157,33.3027,-16118.1,9765.65,-2059.22,-28.2767,105.584,98.9668,16924.7,3819.04,6235.32,-52.8186,2.48359,-73.6577
3.872,23399.3,-13420.1,8281.34,39.0918,-428.973,-179.07,-1345.45,-9603.89,13925.4,-82.2462,25.3279,14.9138,-21930.8,16781.1,-5524.79,29.8179,115.71,-203.965,-8242.85,-17814.3,9416.51,-44.6309,281.696,175.986,-2321.01,16270.8,-5978.88,36.8877,-37.0377,44.4109,-15373.4,8332.78,-2361.92,-28.7091,92.7265,106.444,17080.6,3340.99,6013.92,-55.8394,4.50102,-75.9692
3.873,22854.8,-12920.1,8355.33,40.6415,-425.421,-182.347,-486.97,-11570.8,13976.5,-67.8505,27.1582,22.3803,-20405.0,15665.8,-5730.59,48.8168,111.92,-205.633,-7798.26,-19428.6,10185.6,-40.6618,258.385,189.887,-2389.89,17124.0,-6498.99,47.9053,-30.3331,55.6979,-14729.2,6856.47,-2661.6,-30.4665,79.9971,113.402,17216.9,2849.92,5776.14,-58.1853,6.47885,-78.2147
3.874,22310.2,-12420.2,8429.31,42.1912,-421.868,-185.625,371.508,-13537.7,14027.6,-53.4548,28.9886,29.8467,-18879.1,14550.5,-5936.39,67.8157,108.13,-207.301,-7353.68,-21042.9,10954.6,-36.6927,235.073,203.788,-2458.78,17977.2,-7019.1,58.9228,-23.6285,66.985,-14085.0,5380.16,-2961.28,-32.224,67.2676,120.361,17353.1,2358.85,5538.37,-60.5312,8.45668,-80.4603
3.875,21765.6,-11920.3,8503.3,43.7408,-418.316,-188.902,1229.99,-15504.6,14078.6,-39.0591,30.819,37.3131,-17353.2,13435.1,-6142.18,86.8145,104.34,-208.969,-6909.09,-22657.3,11723.7,-32.7237,211.762,217.689,-2527.66,18830.4,-7539.21,69.9404,-16.9239,78.2721,-13440.7,3903.85,-3260.96,-33.9814,54.5381,127.319,17489.3,1867.77,5300.6,-62.877,10.4345,-82.7058
3.876,21288.9,-11635.5,8734.87,44.3844,-414.823,-192.3,1867.0,-16270.5,13991.6,-24.7238,32.0017,42.9576,-15713.7,12870.2,-6309.99,100.104,102.307,-211.385,-6646.28,-23725.7,12136.1,-26.986,183.61,228.227,-2516.21,19648.9,-7999.19,77.2869,-10.0978,89.5672,-12989.8,2566.55,-3544.12,-38.5004,44.0894,133.254,17612.3,1398.81,5047.53,-63.2289,11.6747,-84.9867
3.877,20897.1,-11619.6,9163.42,43.8953,-411.402,-195.849,2227.19,-15535.0,13731.8,-10.464,32.3748,46.3246,-13932.0,12993.3,-6430.32,106.256,102.47,-214.737,-6610.7,-24111.7,12102.9,-19.0376,149.407,234.558,-2404.33,20424.0,-8384.0,80.0447,-3.11968,100.872,-12780.5,1403.01,-3806.64,-46.4714,36.4917,137.908,17718.7,957.493,4775.32,-61.0883,11.9929,-87.312
3.878,20505.3,-11603.7,9591.98,43.4062,-407.981,-199.398,2587.38,-14799.6,13472.1,3.79582,32.7479,49.6917,-12150.3,13116.3,-6550.64,112.408,102.632,-218.088,-6575.11,-24497.7,12069.6,-11.0892,115.204,240.89,-2292.45,21199.2,-8768.81,82.8024,3.85844,112.177,-12571.2,239.469,-4069.16,-54.4424,28.8941,142.563,17825.2,516.171,4503.12,-58.9477,12.311,-89.6372
3.879,20113.5,-11587.8,10020.5,42.9171,-404.56,-202.947,2947.57,-14064.1,13212.4,18.0556,33.1209,53.0587,-10368.6,13239.4,-6670.97,118.561,102.795,-221.44,-6539.53,-24883.8,12036.3,-3.14074,81.0014,247.222,-2180.57,21974.4,-9153.63,85.5602,10.8366,123.482,-12361.9,-924.069,-4331.68,-62.4134,21.2964,147.217,17931.6,74.8488,4230.92,-56.807,12.6292,-91.9624
3.88,19721.7,-11571.9,10449.1,42.428,-401.139,-206.496,3307.76,-13328.6,12952.6,32.3155,33.494,56.4258,-8586.95,13362.4,-6791.29,124.713,102.958,-224.791,-6503.94,-25269.8,12003.1,4.80767,46.7986,253.554,-2068.69,22749.5,-9538.44,88.3179,17.8147,134.787,-12152.6,-2087.61,-4594.19,-70.3844,13.6987,151.872,18038.1,-366.473,3958.72,-54.6664,12.9473,-94.2876
3.881,19597.5,-11514.1,11106.7,43.5436,-395.277,-208.257,3902.0,-10608.4,12171.5,35.1897,32.1713,54.7522,-7433.81,14308.2,-6626.01,121.456,104.559,-224.397,-6481.67,-25277.3,11652.7,19.4053,19.4344,248.305,-1758.59,23226.4,-9628.09,80.1802,22.8532,143.306,-12173.1,-2895.13,-4570.17,-76.6406,8.41632,157.21,18116.9,-704.391,3745.36,-51.0117,12.0129,-95.9208
3.882,19473.3,-11456.3,11764.3,44.6593,-389.416,-210.019,4496.25,-7888.14,11390.3,38.064,30.8486,53.0786,-6280.67,15253.9,-6460.73,118.199,106.161,-224.003,-6459.39,-25284.9,11302.2,34.0029,-7.92992,243.056,-1448.49,23703.3,-9717.74,72.0424,27.8918,151.825,-12193.6,-3702.65,-4546.15,-82.8968,3.13392,162.548,18195.7,-1042.31,3531.99,-47.357,11.0785,-97.5539
3.883,19349.1,-11398.5,12422.0,45.7749,-383.554,-211.78,5090.5,-5167.9,10609.2,40.9383,29.5259,51.4051,-5127.54,16199.6,-6295.45,114.942,107.763,-223.608,-6437.11,-25292.4,10951.8,48.6005,-35.2942,237.807,-1138.39,24180.2,-9807.39,63.9046,32.9304,160.344,-12214.1,-4510.17,-4522.13,-89.153,-2.14848,167.886,18274.5,-1380.23,3318.63,-43.7023,10.144,-99.1871
3.884,19224.9,-11340.8,13079.6,46.8906,-377.692,-213.542,5684.74,-2447.66,9828.05,43.8125,28.2032,49.7315,-3974.4,17145.3,-6130.16,111.684,109.365,-223.214,-6414.84,-25299.9,10601.4,63.1981,-62.6585,232.558,-828.288,24657.1,-9897.04,55.7668,37.9689,168.864,-12234.6,-5317.69,-4498.11,-95.4092,-7.43088,173.224,18353.2,-1718.14,3105.26,-40.0476,9.2096,-100.82
3.885,19368.6,-11192.5,13619.4,48.9452,-368.952,-214.123,6478.48,31.0676,9069.16,41.1784,27.2922,46.2488,-3207.16,17966.4,-5913.99,102.725,112.006,-221.779,-6382.14,-24970.4,9933.62,72.4066,-84.037,224.116,-502.263,24911.1,-9870.56,43.4951,41.7266,174.564,-12243.8,-6081.82,-4386.67,-100.405,-12.7346,178.739,18459.0,-1939.53,2964.02,-36.5341,8.62372,-101.305
3.886,19726.7,-10971.8,14064.9,51.751,-357.909,-213.761,7431.8,2316.58,8328.07,34.1376,26.7106,41.3188,-2748.65,18687.6,-5657.11,89.2029,115.479,-219.51,-6341.11,-24371.2,9011.94,77.3039,-100.627,213.118,-163.5,24986.6,-9751.17,27.9162,44.4597,178.008,-12244.1,-6811.23,-4205.28,-104.391,-18.0554,184.397,18586.3,-2067.69,2880.46,-33.1337,8.31668,-100.871
3.887,20084.7,-10751.1,14510.5,54.5568,-346.866,-213.398,8385.12,4602.1,7586.99,27.0968,26.1289,36.3888,-2290.14,19408.9,-5400.22,75.6811,118.951,-217.242,-6300.09,-23772.0,8090.27,82.2013,-117.217,202.121,175.263,25062.1,-9631.78,12.3373,47.1927,181.453,-12244.4,-7540.64,-4023.89,-108.378,-23.3762,190.054,18713.6,-2195.84,2796.91,-29.7333,8.00964,-100.437
3.888,20442.8,-10530.5,14956.0,57.3626,-335.823,-213.036,9338.44,6887.61,6845.9,20.056,25.5473,31.4588,-1831.63,20130.2,-5143.34,62.1593,122.424,-214.974,-6259.06,-23172.8,7168.6,87.0986,-133.807,191.124,514.026,25137.7,-9512.39,-3.24156,49.9258,184.898,-12244.7,-8270.06,-3842.5,-112.365,-28.6971,195.711,18840.9,-2324.0,2713.35,-26.333,7.70259,-100.003
3.889,20808.1,-10297.9,15357.8,60.3452,-324.286,-212.587,10185.0,8934.19,6183.86,12.8496,25.1396,26.5581,-1414.32,20803.0,-4879.22,48.0575,125.893,-212.666,-6224.65,-22533.6,6217.53,91.1811,-149.038,180.176,829.521,25168.3,-9386.46,-18.784,52.5237,187.795,-12236.1,-9010.78,-3674.77,-116.372,-33.992,201.131,18960.3,-2438.99,2651.13,-22.9924,7.48504,-99.4382
3.89,21231.7,-9970.69,15409.7,64.742,-308.794,-211.452,10177.2,9069.28,6154.23,4.31809,26.1234,21.8918,-1326.62,21088.2,-4557.16,29.3163,129.331,-210.04,-6243.18,-21573.5,5031.3,88.7451,-153.398,169.622,958.869,24839.3,-9208.25,-34.0349,54.0401,186.311,-12157.0,-9841.98,-3616.24,-120.544,-39.0796,204.654,19016.7,-2448.63,2759.56,-20.1309,7.98337,-97.8228
3.891,21655.3,-9643.45,15461.6,69.1389,-293.302,-210.317,10169.5,9204.36,6124.59,-4.21343,27.1071,17.2255,-1238.93,21373.4,-4235.11,10.575,132.77,-207.413,-6261.72,-20613.5,3845.08,86.3091,-157.759,159.068,1088.22,24510.3,-9030.04,-49.2858,55.5566,184.828,-12077.9,-10673.2,-3557.72,-124.716,-44.1672,208.177,19073.0,-2458.27,2867.98,-17.2694,8.48171,-96.2074
3.892,22078.9,-9316.2,15513.5,73.5357,-277.81,-209.182,10161.8,9339.45,6094.95,-12.7449,28.0908,12.5592,-1151.24,21658.6,-3913.06,-8.16628,136.209,-204.786,-6280.26,-19653.4,2658.85,83.8731,-162.119,148.514,1217.56,24181.4,-8851.84,-64.5367,57.073,183.344,-11998.8,-11504.4,-3499.2,-128.887,-49.2549,211.7,19129.3,-2467.91,2976.41,-14.4079,8.98004,-94.5919
3.893,22502.5,-8988.96,15565.4,77.9325,-262.318,-208.047,10154.1,9474.53,6065.32,-21.2765,29.0745,7.89294,-1063.54,21943.8,-3591.01,-26.9075,139.648,-202.16,-6298.79,-18693.4,1472.62,81.4371,-166.48,137.96,1346.91,23852.4,-8673.63,-79.7876,58.5895,181.861,-11919.7,-12335.6,-3440.67,-133.059,-54.3425,215.223,19185.6,-2477.55,3084.84,-11.5464,9.47837,-92.9765
3.894,22584.6,-8560.47,15435.9,81.8644,-247.321,-205.966,9425.32,8462.08,6494.5,-26.2886,29.6296,5.88101,-1368.06,21866.9,-3167.93,-40.4579,140.415,-198.07,-6049.44,-17870.7,565.67,75.9178,-165.868,129.304,1238.25,23368.3,-8438.63,-91.128,59.4312,178.343,-11786.7,-13146.8,-3341.76,-135.289,-59.6158,216.847,19168.9,-2441.76,3247.13,-10.1939,9.99304,-90.3727
3.895,22496.0,-8081.36,15215.7,85.5636,-232.571,-203.413,8336.04,6875.88,7153.1,-29.5409,29.9703,5.19627,-1868.69,21608.9,-2694.34,-51.4129,139.847,-193.25,-5666.14,-17116.8,-201.642,68.8568,-162.771,121.596,1010.59,22806.5,-8175.24,-100.513,59.9356,173.808,-11626.7,-13948.0,-3222.65,-136.549,-64.9818,217.522,19115.6,-2383.26,3436.35,-9.59602,10.5159,-87.2747
3.896,22407.3,-7602.25,14995.4,89.2629,-217.821,-200.86,7246.77,5289.67,7811.7,-32.7933,30.3109,4.51152,-2369.32,21351.0,-2220.75,-62.3679,139.278,-188.43,-5282.84,-16362.8,-968.955,61.7959,-159.674,113.889,782.933,22244.8,-7911.85,-109.898,60.4399,169.273,-11466.7,-14749.2,-3103.54,-137.809,-70.3479,218.198,19062.3,-2324.75,3625.57,-8.99809,11.0387,-84.1767
3.897,22318.7,-7123.13,14775.2,92.9622,-203.072,-198.307,6157.5,3703.46,8470.3,-36.0457,30.6516,3.82678,-2869.94,21093.0,-1747.16,-73.3228,138.71,-183.609,-4899.54,-15608.8,-1736.27,54.7349,-156.576,106.181,555.273,21683.1,-7648.46,-119.283,60.9443,164.738,-11306.7,-15550.4,-2984.42,-139.068,-75.7139,218.873,19009.0,-2266.25,3814.79,-8.40016,11.5615,-81.0786
3.898,22149.7,-6642.05,14588.8,94.8406,-189.093,-195.221,5104.23,2251.26,9099.06,-37.7475,30.7494,3.8213,-3446.01,20715.6,-1262.02,-82.953,137.454,-178.573,-4445.04,-14926.6,-2394.96,47.4128,-153.435,99.2272,266.021,21121.5,-7388.6,-127.151,61.2729,159.974,-11122.1,-16364.1,-2914.18,-139.952,-80.7296,218.854,18933.2,-2202.62,3962.95,-8.62223,12.1462,-77.7537
3.899,21699.6,-6154.03,14520.9,90.3458,-177.812,-190.267,4176.99,1268.11,9623.42,-34.0224,29.9972,6.19324,-4286.1,19920.4,-736.487,-87.9466,133.788,-172.781,-3741.34,-14495.2,-2673.49,39.1766,-150.14,94.9107,-238.803,20560.1,-7141.06,-129.709,60.9865,154.406,-10851.4,-17221.5,-3014.99,-139.521,-84.519,216.407,18778.5,-2121.07,3967.41,-11.7143,12.9476,-73.6346
