Time,RFoot_accel.x,RFoot_accel.y,RFoot_accel.z,RFoot_gyro.x,RFoot_gyro.y,RFoot_gyro.z,LFoot_accel.x,LFoot_accel.y,LFoot_accel.z,LFoot_gyro.x,LFoot_gyro.y,LFoot_gyro.z,RShank_accel.x,RShank_accel.y,RShank_accel.z,RShank_gyro.x,RShank_gyro.y,RShank_gyro.z,LShank_accel.x,LShank_accel.y,LShank_accel.z,LShank_gyro.x,LShank_gyro.y,LShank_gyro.z,RThigh_accel.x,RThigh_accel.y,RThigh_accel.z,RThigh_gyro.x,RThigh_gyro.y,RThigh_gyro.z,LThigh_accel.x,LThigh_accel.y,LThigh_accel.z,LThigh_gyro.x,LThigh_gyro.y,LThigh_gyro.z,Pelvis_accel.x,Pelvis_accel.y,Pelvis_accel.z,Pelvis_gyro.x,Pelvis_gyro.y,Pelvis_gyro.z
3.96,3125.53,-3541.17,7065.74,-21.6052,352.386,111.101,4497.0,815.808,8574.41,14.7389,-58.9674,52.9322,1966.2,5533.84,-1407.1,-9.57798,25.1575,329.612,1452.68,-10993.5,-869.793,16.2734,-75.3561,32.8497,-8632.22,4343.8,-3904.39,-80.0346,157.333,106.369,-445.309,-9053.9,-440.539,-102.55,-209.604,97.9249,8377.27,642.59,-66.9568,42.3779,18.7322,-3.04
3.961,3196.24,-3579.48,7130.59,-21.812,352.467,111.548,4429.0,726.759,8600.33,15.1957,-59.2408,52.5309,2010.95,5628.98,-1448.24,-9.49236,26.0686,331.045,1473.03,-10871.7,-860.562,16.5761,-74.7453,32.9279,-8709.47,4290.43,-3870.11,-79.0699,155.502,105.77,-340.906,-8992.22,-501.205,-102.31,-212.317,98.3199,8433.8,604.292,-93.4184,42.267,18.2154,-3.04337
3.962,3266.94,-3617.8,7195.44,-22.0188,352.547,111.996,4361.0,637.71,8626.25,15.6525,-59.5141,52.1295,2055.69,5724.11,-1489.37,-9.40674,26.9797,332.479,1493.39,-10749.9,-851.331,16.8787,-74.1346,33.0061,-8786.73,4237.07,-3835.84,-78.1052,153.672,105.17,-236.503,-8930.54,-561.872,-102.07,-215.029,98.7149,8490.33,565.994,-119.88,42.1561,17.6987,-3.04675
3.963,3337.64,-3656.12,7260.3,-22.2256,352.627,112.443,4293.0,548.661,8652.17,16.1093,-59.7874,51.7282,2100.44,5819.25,-1530.51,-9.32112,27.8908,333.912,1513.75,-10628.0,-842.1,17.1814,-73.5238,33.0843,-8863.98,4183.71,-3801.56,-77.1406,151.842,104.571,-132.1,-8868.86,-622.538,-101.83,-217.741,99.1099,8546.85,527.696,-146.342,42.0451,17.1819,-3.05012
3.964,3408.34,-3694.44,7325.15,-22.4324,352.708,112.89,4225.0,459.612,8678.09,16.5661,-60.0608,51.3268,2145.19,5914.38,-1571.65,-9.23549,28.8019,335.346,1534.1,-10506.2,-832.869,17.4841,-72.913,33.1625,-8941.24,4130.35,-3767.28,-76.1759,150.012,103.971,-27.697,-8807.18,-683.205,-101.59,-220.454,99.5049,8603.38,489.399,-172.803,41.9342,16.6651,-3.05349
3.965,3498.14,-3690.82,7371.95,-22.7428,353.081,113.358,4207.92,403.068,8676.85,17.2053,-60.3291,50.9825,2163.43,6016.34,-1584.58,-9.26339,29.6936,336.605,1525.34,-10391.4,-826.4,17.7923,-72.3256,33.2778,-9009.36,4082.73,-3741.24,-75.2561,148.055,103.435,79.6035,-8778.9,-791.856,-101.015,-221.69,99.9026,8647.85,455.81,-185.579,41.8531,16.2083,-2.99156
3.966,3603.21,-3653.66,7404.31,-23.1361,353.689,113.841,4231.58,372.526,8653.89,17.9903,-60.5933,50.6838,2160.47,6123.75,-1574.95,-9.3821,30.5699,337.724,1493.28,-10282.1,-822.141,18.105,-71.757,33.4226,-9070.18,4039.71,-3721.79,-74.3721,145.997,102.951,189.222,-8777.34,-938.894,-100.171,-221.745,100.302,8682.66,425.988,-187.406,41.7958,15.7995,-2.87737
3.967,3708.28,-3616.49,7436.67,-23.5295,354.297,114.325,4255.23,341.985,8630.93,18.7753,-60.8576,50.3851,2157.51,6231.16,-1565.32,-9.50081,31.4461,338.844,1461.21,-10172.8,-817.881,18.4176,-71.1884,33.5675,-9131.0,3996.7,-3702.34,-73.4881,143.94,102.466,298.841,-8775.79,-1085.93,-99.327,-221.8,100.702,8717.47,396.166,-189.233,41.7385,15.3906,-2.76318
3.968,3813.35,-3579.32,7469.02,-23.9229,354.905,114.808,4278.89,311.444,8607.97,19.5603,-61.1218,50.0864,2154.55,6338.57,-1555.68,-9.61952,32.3223,339.963,1429.15,-10063.6,-813.621,18.7302,-70.6198,33.7124,-9191.81,3953.68,-3682.88,-72.6041,141.882,101.981,408.459,-8774.23,-1232.97,-98.4832,-221.856,101.102,8752.28,366.345,-191.06,41.6812,14.9818,-2.64899
3.969,3919.78,-3543.89,7513.84,-24.3602,355.484,115.286,4301.32,283.303,8587.47,20.349,-61.3916,49.7963,2148.87,6449.34,-1543.87,-9.74114,33.1717,341.082,1392.93,-9958.68,-807.48,19.0099,-70.0507,33.8777,-9254.48,3908.53,-3663.55,-71.7213,139.8,101.497,516.707,-8775.03,-1395.58,-97.6066,-221.653,101.561,8782.57,337.791,-192.966,41.5862,14.6086,-2.50429
3.97,4037.12,-3522.31,7658.32,-25.1496,355.83,115.719,4313.99,274.368,8586.69,21.1674,-61.7057,49.5754,2121.38,6587.02,-1514.55,-9.88598,33.8067,342.195,1323.42,-9888.73,-786.289,19.0259,-69.4786,34.206,-9332.01,3846.35,-3645.15,-70.8474,137.518,101.013,613.987,-8794.64,-1682.71,-96.4675,-219.388,102.496,8776.71,319.377,-195.505,41.19,14.52,-2.11546
3.971,4154.46,-3500.72,7802.8,-25.939,356.176,116.152,4326.66,265.433,8585.92,21.9859,-62.0198,49.3545,2093.89,6724.69,-1485.24,-10.0308,34.4417,343.308,1253.91,-9818.79,-765.097,19.0419,-68.9064,34.5342,-9409.53,3784.16,-3626.74,-69.9735,135.236,100.528,711.267,-8814.26,-1969.84,-95.3283,-217.123,103.431,8770.86,300.964,-198.043,40.7938,14.4315,-1.72663
3.972,4271.8,-3479.14,7947.28,-26.7283,356.523,116.586,4339.33,256.498,8585.14,22.8043,-62.334,49.1336,2066.4,6862.37,-1455.92,-10.1757,35.0767,344.421,1184.41,-9748.84,-743.906,19.0579,-68.3343,34.8625,-9487.06,3721.98,-3608.34,-69.0996,132.954,100.044,808.547,-8833.87,-2256.97,-94.1892,-214.858,104.366,8765.0,282.551,-200.581,40.3975,14.3429,-1.3378
3.973,4389.14,-3457.55,8091.76,-27.5177,356.869,117.019,4352.0,247.563,8584.36,23.6228,-62.6481,48.9128,2038.91,7000.05,-1426.61,-10.3205,35.7117,345.534,1114.9,-9678.89,-722.714,19.074,-67.7621,35.1908,-9564.58,3659.8,-3589.94,-68.2257,130.672,99.56,905.827,-8853.49,-2544.1,-93.0501,-212.593,105.301,8759.14,264.137,-203.12,40.0013,14.2544,-0.948968
3.974,4495.49,-3454.19,8201.43,-28.2553,357.288,117.576,4382.08,365.054,8544.77,23.7017,-62.8193,48.8004,1984.45,7139.12,-1408.61,-10.4584,36.3653,346.684,1063.79,-9633.71,-703.655,19.0099,-67.1687,35.576,-9622.78,3604.24,-3592.75,-67.3857,128.309,99.2445,1009.9,-8927.51,-2756.77,-91.9785,-208.936,105.961,8737.48,227.945,-213.134,39.4544,14.1554,-0.474557
3.975,4596.35,-3459.93,8293.68,-28.967,357.743,118.196,4420.88,545.759,8485.77,23.4109,-62.919,48.7424,1916.51,7278.89,-1396.28,-10.5927,37.0283,347.853,1021.86,-9600.91,-685.662,18.9059,-66.5646,35.9897,-9671.31,3551.99,-3606.17,-66.5626,125.904,99.0133,1117.38,-9028.73,-2932.22,-90.9407,-204.583,106.482,8707.92,182.862,-226.887,38.8322,14.0512,0.0426459
3.976,4697.2,-3465.67,8385.94,-29.6787,358.198,118.816,4459.68,726.463,8426.78,23.1201,-63.0187,48.6843,1848.57,7418.67,-1383.94,-10.7271,37.6913,349.021,979.943,-9568.12,-667.669,18.8018,-65.9605,36.4034,-9719.85,3499.74,-3619.59,-65.7396,123.5,98.782,1224.86,-9129.96,-3107.67,-89.9028,-200.229,107.004,8678.37,137.78,-240.639,38.21,13.947,0.559848
3.977,4798.06,-3471.41,8478.2,-30.3904,358.653,119.435,4498.47,907.167,8367.78,22.8292,-63.1184,48.6263,1780.63,7558.44,-1371.61,-10.8615,38.3542,350.19,938.021,-9535.32,-649.676,18.6977,-65.3564,36.8171,-9768.38,3447.48,-3633.01,-64.9166,121.096,98.5508,1332.33,-9231.18,-3283.11,-88.865,-195.876,107.526,8648.8,92.6978,-254.391,37.5878,13.8428,1.07705
3.978,4904.51,-3473.05,8572.22,-31.1258,359.221,120.056,4534.96,1073.12,8317.78,22.3464,-63.2033,48.5561,1707.2,7693.96,-1362.87,-10.9216,39.0496,351.365,905.705,-9513.48,-629.292,18.6217,-64.73,37.2631,-9816.74,3394.13,-3637.44,-64.0946,118.726,98.3333,1429.99,-9310.88,-3388.71,-87.6602,-191.428,108.018,8615.73,46.2081,-265.013,37.0382,13.7331,1.5593
3.979,5030.58,-3460.3,8672.39,-31.9439,360.185,120.682,4563.38,1187.44,8299.29,21.1916,-63.2362,48.4435,1614.59,7814.62,-1366.73,-10.7216,39.8582,352.561,907.006,-9530.02,-600.537,18.644,-64.0256,37.8218,-9864.48,3336.92,-3610.39,-63.2761,116.48,98.1638,1493.3,-9315.25,-3249.85,-85.8705,-186.65,108.407,8570.33,-5.20701,-264.678,36.7425,13.6043,1.91923
3.98,5156.65,-3447.55,8772.56,-32.762,361.149,121.307,4591.81,1301.77,8280.8,20.0368,-63.269,48.3308,1521.97,7935.27,-1370.58,-10.5216,40.6668,353.757,908.307,-9546.56,-571.783,18.6663,-63.3212,38.3805,-9912.21,3279.7,-3583.34,-62.4577,114.233,97.9943,1556.61,-9319.61,-3110.98,-84.0809,-181.871,108.796,8524.94,-56.6222,-264.344,36.4468,13.4756,2.27915
3.981,5282.72,-3434.8,8872.74,-33.5801,362.113,121.933,4620.23,1416.09,8262.31,18.882,-63.3019,48.2182,1429.36,8055.92,-1374.43,-10.3215,41.4754,354.953,909.609,-9563.1,-543.028,18.6886,-62.6169,38.9391,-9959.95,3222.49,-3556.29,-61.6393,111.987,97.8248,1619.92,-9323.97,-2972.11,-82.2913,-177.092,109.185,8479.55,-108.037,-264.009,36.1511,13.3468,2.63908
3.982,5408.79,-3422.05,8972.91,-34.3983,363.077,122.558,4648.65,1530.41,8243.82,17.7272,-63.3348,48.1055,1336.74,8176.58,-1378.29,-10.1215,42.284,356.149,910.91,-9579.63,-514.273,18.7109,-61.9125,39.4978,-10007.7,3165.28,-3529.24,-60.8209,109.74,97.6553,1683.23,-9328.33,-2833.24,-80.5017,-172.313,109.574,8434.16,-159.452,-263.674,35.8555,13.218,2.999
3.983,5576.42,-3443.49,9083.9,-35.2839,364.061,123.443,4672.75,1447.99,8255.63,16.611,-63.5592,47.8082,1232.71,8300.3,-1365.61,-9.9302,43.0753,357.519,939.005,-9592.13,-461.425,18.8628,-61.0473,40.0519,-10050.0,3125.14,-3508.25,-60.144,107.444,97.3264,1760.15,-9450.45,-2978.66,-78.3403,-166.702,109.544,8377.87,-173.35,-257.188,35.7953,13.0153,3.26995
3.984,5755.92,-3474.7,9197.97,-36.1888,365.049,124.401,4695.61,1309.36,8276.1,15.5058,-63.8383,47.458,1125.41,8424.9,-1348.21,-9.74137,43.8616,358.938,974.755,-9603.46,-401.694,19.0517,-60.1361,40.6048,-10090.7,3089.89,-3488.99,-59.5076,105.132,96.952,1840.96,-9606.22,-3205.3,-76.0727,-160.852,109.394,8318.47,-176.528,-248.943,35.8025,12.7913,3.51548
3.985,5935.41,-3505.91,9312.05,-37.0937,366.038,125.359,4718.48,1170.73,8296.56,14.4007,-64.1175,47.1079,1018.11,8549.5,-1330.8,-9.55253,44.6479,360.358,1010.51,-9614.8,-341.963,19.2406,-59.2249,41.1576,-10131.5,3054.64,-3469.73,-58.8711,102.821,96.5776,1921.78,-9761.99,-3431.95,-73.8051,-155.003,109.244,8259.08,-179.706,-240.699,35.8096,12.5674,3.761
3.986,6114.91,-3537.12,9426.13,-37.9986,367.027,126.318,4741.34,1032.1,8317.03,13.2955,-64.3966,46.7578,910.814,8674.1,-1313.4,-9.3637,45.4341,361.777,1046.26,-9626.13,-282.231,19.4295,-58.3138,41.7104,-10172.3,3019.38,-3450.47,-58.2347,100.51,96.2032,2002.59,-9917.76,-3658.59,-71.5375,-149.153,109.095,8199.68,-182.883,-232.454,35.8168,12.3435,4.00653
3.987,6285.29,-3559.5,9523.12,-38.9882,368.113,127.323,4767.46,880.367,8340.3,12.5164,-64.6316,46.3539,804.414,8800.54,-1293.85,-9.05484,46.1601,363.257,1070.22,-9640.32,-223.213,19.639,-57.4035,42.2802,-10198.4,2980.85,-3439.36,-57.5541,98.1397,95.811,2057.12,-10055.2,-3844.54,-69.1336,-143.119,108.927,8133.4,-179.387,-225.188,35.76,12.1241,4.28834
3.988,6437.44,-3564.22,9585.94,-40.1474,369.394,128.421,4800.09,702.439,8369.19,12.3896,-64.7782,45.8421,699.809,8930.67,-1269.99,-8.50594,46.7656,364.859,1070.61,-9660.19,-165.623,19.8898,-56.4949,42.884,-10195.4,2935.77,-3444.57,-56.7854,95.6524,95.3831,2059.09,-10156.1,-3949.09,-66.4571,-136.714,108.722,8053.34,-162.541,-219.878,35.5754,11.9135,4.6427
3.989,6589.59,-3568.94,9648.76,-41.3066,370.674,129.52,4832.72,524.512,8398.08,12.2627,-64.9249,45.3304,595.204,9060.81,-1246.13,-7.95705,47.3711,366.461,1071.01,-9680.07,-108.033,20.1406,-55.5863,43.4878,-10192.4,2890.68,-3449.78,-56.0167,93.1651,94.9553,2061.06,-10257.0,-4053.65,-63.7805,-130.309,108.517,7973.28,-145.696,-214.568,35.3908,11.7029,4.99706
3.99,6741.73,-3573.66,9711.58,-42.4657,371.955,130.618,4865.35,346.585,8426.97,12.1359,-65.0715,44.8187,490.599,9190.94,-1222.27,-7.40815,47.9766,368.062,1071.4,-9699.94,-50.4421,20.3915,-54.6778,44.0915,-10189.3,2845.6,-3454.99,-55.2479,90.6778,94.5275,2063.03,-10357.9,-4158.2,-61.104,-123.904,108.312,7893.22,-128.85,-209.258,35.2062,11.4924,5.35143
3.991,6893.88,-3578.38,9774.41,-43.6249,373.235,131.717,4897.98,168.658,8455.86,12.009,-65.2181,44.307,385.994,9321.07,-1198.42,-6.85925,48.5821,369.664,1071.79,-9719.82,7.1483,20.6423,-53.7692,44.6953,-10186.3,2800.51,-3460.2,-54.4792,88.1905,94.0997,2065.0,-10458.8,-4262.76,-58.4275,-117.499,108.107,7813.16,-112.005,-203.948,35.0216,11.2818,5.70579
3.992,7020.51,-3598.59,9867.38,-44.4186,374.597,132.842,4898.41,135.925,8464.11,11.959,-65.3742,43.8483,293.352,9435.44,-1178.88,-6.09478,49.2378,371.478,1052.57,-9746.73,35.7198,20.8824,-52.8639,45.2591,-10218.2,2740.04,-3449.91,-53.7859,85.8363,93.7408,2033.22,-10594.7,-4102.89,-57.1261,-113.047,107.297,7750.15,-106.441,-205.546,34.7746,10.9114,6.22828
3.993,7143.96,-3620.74,9964.11,-45.1667,375.968,133.97,4894.81,121.341,8469.78,11.9187,-65.5314,43.3964,202.205,9547.85,-1159.88,-5.30337,49.8998,373.318,1030.9,-9774.53,60.664,21.1212,-51.9589,45.8179,-10254.4,2677.65,-3437.68,-53.1021,83.4989,93.3904,1997.21,-10735.0,-3909.97,-55.9967,-108.838,106.411,7689.27,-102.288,-208.008,34.5198,10.5211,6.77178
3.994,7267.4,-3642.89,10060.9,-45.9147,377.339,135.098,4891.22,106.756,8475.44,11.8783,-65.6887,42.9444,111.058,9660.25,-1140.88,-4.51196,50.5618,375.158,1009.22,-9802.32,85.6082,21.36,-51.0539,46.3767,-10290.7,2615.26,-3425.45,-52.4183,81.1614,93.0401,1961.21,-10875.3,-3717.05,-54.8672,-104.629,105.525,7628.39,-98.1347,-210.469,34.2651,10.1308,7.31528
3.995,7390.84,-3665.04,10157.6,-46.6627,378.71,136.226,4887.62,92.1721,8481.11,11.8379,-65.8459,42.4924,19.9118,9772.65,-1121.88,-3.72055,51.2238,376.999,987.55,-9830.12,110.552,21.5988,-50.149,46.9355,-10326.9,2552.86,-3413.23,-51.7344,78.8239,92.6898,1925.21,-11015.6,-3524.13,-53.7377,-100.42,104.639,7567.51,-93.9814,-212.931,34.0103,9.74042,7.85878
3.996,7501.3,-3677.17,10264.3,-47.5652,380.013,137.385,4876.73,89.2595,8492.69,11.7517,-66.1361,42.0456,-63.323,9878.36,-1117.67,-2.98189,51.8719,378.876,970.643,-9863.02,139.681,21.7465,-49.2994,47.3863,-10353.2,2495.29,-3406.71,-51.0584,76.3166,92.2515,1898.34,-11086.4,-3524.72,-51.6072,-95.7157,103.801,7520.61,-89.0756,-221.929,33.771,9.30105,8.3749
3.997,7595.51,-3676.8,10383.3,-48.6608,381.231,138.583,4856.72,100.936,8511.64,11.6082,-66.5924,41.6053,-136.668,9975.7,-1131.94,-2.30916,52.5025,380.798,959.693,-9902.3,174.04,21.7804,-48.5191,47.7022,-10367.1,2443.74,-3407.34,-50.3921,73.5969,91.7034,1882.89,-11070.2,-3767.2,-48.2252,-90.3914,103.024,7491.2,-83.2291,-239.097,33.551,8.8004,8.85678
3.998,7689.73,-3676.42,10502.4,-49.7564,382.448,139.782,4836.7,112.613,8530.59,11.4648,-67.0487,41.165,-210.013,10073.0,-1146.22,-1.63642,53.1331,382.721,948.744,-9941.59,208.399,21.8142,-47.7388,48.0181,-10381.0,2392.19,-3407.97,-49.7258,70.8773,91.1553,1867.43,-11054.1,-4009.67,-44.8433,-85.0671,102.246,7461.78,-77.3826,-256.266,33.3311,8.29974,9.33867
3.999,7783.94,-3676.05,10621.5,-50.852,383.666,140.98,4816.69,124.29,8549.54,11.3213,-67.5051,40.7247,-283.358,10170.4,-1160.49,-0.963687,53.7638,384.643,937.794,-9980.87,242.758,21.8481,-46.9586,48.3339,-10394.8,2340.65,-3408.61,-49.0596,68.1577,90.6072,1851.98,-11037.9,-4252.14,-41.4614,-79.7428,101.469,7432.36,-71.5362,-273.435,33.1111,7.79909,9.82056
4.0,7878.16,-3675.67,10740.5,-51.9476,384.884,142.178,4796.67,135.966,8568.49,11.1778,-67.9614,40.2844,-356.703,10267.7,-1174.76,-0.290953,54.3944,386.565,926.845,-10020.2,277.117,21.8819,-46.1783,48.6498,-10408.7,2289.1,-3409.24,-48.3933,65.438,90.0591,1836.53,-11021.8,-4494.61,-38.0795,-74.4185,100.692,7402.94,-65.6897,-290.603,32.8911,7.29844,10.3024
4.001,7934.58,-3690.94,10838.3,-53.0047,385.974,143.453,4792.2,130.145,8543.91,10.8894,-68.326,39.8478,-374.324,10391.4,-1169.29,0.328255,55.2753,388.524,924.782,-10050.6,302.169,21.8236,-45.6013,48.8723,-10430.3,2208.13,-3407.13,-47.5647,62.5833,89.3686,1667.93,-11049.3,-4212.66,-35.4545,-69.5266,100.417,7386.29,-40.9531,-334.133,32.8726,6.79815,10.6089
4.002,7990.99,-3706.21,10936.0,-54.0619,387.064,144.728,4787.73,124.323,8519.32,10.6009,-68.6906,39.4112,-391.945,10515.0,-1163.82,0.947463,56.1562,390.483,922.719,-10081.1,327.221,21.7653,-45.0244,49.0947,-10451.9,2127.17,-3405.03,-46.7361,59.7285,88.6781,1499.33,-11076.9,-3930.71,-32.8296,-64.6347,100.141,7369.64,-16.2164,-377.663,32.854,6.29787,10.9154
4.003,8047.41,-3721.48,11033.7,-55.1191,388.154,146.003,4783.26,118.501,8494.73,10.3125,-69.0552,38.9746,-409.567,10638.7,-1158.35,1.56667,57.0372,392.441,920.657,-10111.6,352.273,21.7069,-44.4474,49.3172,-10473.4,2046.2,-3402.92,-45.9075,56.8738,87.9876,1330.73,-11104.5,-3648.76,-30.2046,-59.7429,99.8655,7352.99,8.52024,-421.192,32.8355,5.79759,11.2219
4.004,8103.83,-3736.75,11131.4,-56.1763,389.244,147.278,4778.79,112.679,8470.15,10.0241,-69.4198,38.5381,-427.188,10762.4,-1152.88,2.18588,57.9181,394.4,918.594,-10142.0,377.325,21.6486,-43.8705,49.5396,-10495.0,1965.24,-3400.82,-45.0789,54.0191,87.2971,1162.13,-11132.1,-3366.8,-27.5797,-54.851,99.59,7336.34,33.2569,-464.722,32.8169,5.2973,11.5284
4.005,8167.97,-3750.99,11213.6,-57.3667,390.259,148.651,4767.15,120.786,8458.0,9.81075,-69.7177,38.0209,-428.629,10895.2,-1136.32,2.71991,58.7178,396.324,912.535,-10174.8,386.055,21.6423,-43.3186,49.7299,-10531.6,1890.47,-3386.72,-44.2483,50.9115,86.6962,1001.79,-11150.8,-3163.57,-25.7454,-50.7439,99.0466,7334.86,59.6536,-499.867,32.854,4.70348,11.8513
4.006,8238.3,-3764.4,11283.4,-58.6637,391.212,150.103,4749.76,140.034,8455.81,9.65753,-69.9623,37.4391,-417.126,11035.3,-1110.88,3.18581,59.4525,398.219,903.278,-10209.4,381.727,21.6776,-42.7868,49.8944,-10580.3,1820.66,-3363.03,-43.416,47.6017,86.1671,848.075,-11162.4,-3023.32,-24.5437,-47.2647,98.2889,7345.53,87.3784,-528.306,32.9355,4.03483,12.1873
4.007,8308.62,-3777.81,11353.1,-59.9608,392.165,151.556,4732.38,159.283,8453.62,9.50431,-70.207,36.8574,-405.623,11175.5,-1085.45,3.6517,60.1872,400.114,894.021,-10244.1,377.399,21.7129,-42.2549,50.059,-10629.0,1750.86,-3339.34,-42.5837,44.2919,85.6381,694.355,-11174.0,-2883.07,-23.342,-43.7855,97.5313,7356.2,115.103,-556.744,33.017,3.36617,12.5233
4.008,8378.94,-3791.23,11422.9,-61.2578,393.119,153.008,4715.0,178.532,8451.43,9.35109,-70.4516,36.2757,-394.119,11315.7,-1060.01,4.11759,60.9219,402.009,884.764,-10278.7,373.071,21.7482,-41.7231,50.2235,-10677.6,1681.05,-3315.66,-41.7514,40.9821,85.109,540.635,-11185.6,-2742.82,-22.1403,-40.3063,96.7736,7366.87,142.828,-585.182,33.0986,2.69752,12.8593
4.009,8449.67,-3801.69,11489.9,-62.5428,394.063,154.472,4702.11,193.573,8453.63,9.20006,-70.725,35.7241,-380.626,11451.8,-1033.0,4.52842,61.6143,403.904,876.197,-10316.7,368.432,21.7827,-41.1791,50.3764,-10729.0,1613.66,-3296.37,-40.9116,37.6421,84.5555,381.665,-11197.7,-2605.38,-21.0313,-36.8978,95.9775,7380.33,170.347,-613.819,33.1544,2.05601,13.1751
4.01,8523.6,-3788.55,11534.6,-63.7315,394.934,156.037,4725.19,174.953,8491.03,9.06647,-71.2294,35.4139,-351.214,11555.6,-993.437,4.49876,61.9685,405.79,873.146,-10382.2,361.307,21.8105,-40.538,50.4359,-10801.9,1565.62,-3312.31,-40.0119,34.0608,83.8067,180.698,-11213.5,-2490.43,-20.6647,-34.0551,94.8734,7416.09,196.224,-644.048,33.0042,1.63167,13.3296
4.011,8597.54,-3775.42,11579.3,-64.9202,395.805,157.602,4748.28,156.333,8528.43,8.93288,-71.7337,35.1036,-321.801,11659.5,-953.871,4.46909,62.3228,407.677,870.095,-10447.8,354.183,21.8383,-39.8968,50.4954,-10874.8,1517.57,-3328.26,-39.1122,30.4795,83.0579,-20.2692,-11229.3,-2375.49,-20.2981,-31.2123,93.7694,7451.85,222.101,-674.277,32.854,1.20733,13.4841
4.012,8671.47,-3762.28,11623.9,-66.1089,396.676,159.168,4771.36,137.713,8565.83,8.79929,-72.2381,34.7934,-292.388,11763.3,-914.306,4.43943,62.677,409.564,867.044,-10513.3,347.058,21.8661,-39.2556,50.5549,-10947.6,1469.53,-3344.2,-38.2124,26.8981,82.3091,-221.236,-11245.0,-2260.54,-19.9315,-28.3696,92.6654,7487.62,247.978,-704.506,32.7039,0.782994,13.6387
4.013,8745.41,-3749.15,11668.6,-67.2976,397.548,160.733,4794.45,119.094,8603.23,8.6657,-72.7424,34.4831,-262.976,11867.2,-874.74,4.40977,63.0312,411.451,863.994,-10578.8,339.933,21.8938,-38.6144,50.6144,-11020.5,1421.49,-3360.15,-37.3127,23.3168,81.5602,-422.203,-11260.8,-2145.59,-19.5649,-25.5268,91.5613,7523.38,273.855,-734.735,32.5537,0.358656,13.7932
4.014,8792.53,-3731.28,11756.6,-68.6637,398.326,162.466,4837.66,127.783,8607.66,8.5077,-73.1911,33.9089,-225.417,11994.3,-847.948,4.25824,63.3338,413.047,869.922,-10625.5,346.151,21.886,-37.9281,50.7262,-11093.5,1365.05,-3351.35,-36.5492,19.5028,80.8053,-600.612,-11232.8,-2011.15,-19.4504,-23.3251,90.755,7545.82,300.856,-767.315,32.2881,0.213846,13.8965
4.015,8826.24,-3711.06,11866.2,-70.1184,399.059,164.285,4890.94,150.128,8595.6,8.3375,-73.6121,33.2026,-183.785,12133.2,-827.542,4.04577,63.6106,414.498,880.339,-10662.9,359.042,21.8604,-37.2192,50.864,-11166.6,1304.42,-3330.17,-35.8538,15.5726,80.0474,-767.74,-11182.9,-1866.96,-19.4619,-21.4438,90.0975,7561.59,328.42,-801.069,31.9648,0.2088,13.9741
4.016,8859.95,-3690.83,11975.8,-71.5731,399.792,166.103,4944.21,172.472,8583.54,8.16729,-74.033,32.4964,-142.152,12272.0,-807.136,3.83331,63.8873,415.95,890.756,-10700.3,371.932,21.8347,-36.5103,51.0018,-11239.7,1243.79,-3309.0,-35.1584,11.6423,79.2894,-934.869,-11133.0,-1722.78,-19.4734,-19.5626,89.44,7577.37,355.984,-834.823,31.6416,0.203755,14.0518
4.017,8893.66,-3670.61,12085.4,-73.0278,400.524,167.921,4997.49,194.816,8571.47,7.99709,-74.4539,31.7901,-100.52,12410.8,-786.73,3.62085,64.1641,417.401,901.174,-10737.7,384.822,21.8091,-35.8014,51.1397,-11312.8,1183.16,-3287.83,-34.463,7.712,78.5314,-1102.0,-11083.1,-1578.59,-19.4849,-17.6813,88.7826,7593.14,383.548,-868.577,31.3183,0.198709,14.1294
4.018,8926.62,-3662.01,12201.2,-74.5395,401.05,169.732,5044.29,213.994,8559.22,7.79171,-74.9052,31.1014,-62.3758,12557.2,-763.731,3.28846,64.4399,418.763,910.618,-10773.6,398.437,21.7934,-35.0972,51.2733,-11387.0,1126.47,-3261.26,-33.7477,3.72844,77.8305,-1268.02,-11030.2,-1433.89,-19.5673,-15.9807,88.1956,7608.94,398.838,-898.136,30.939,0.199271,14.183
4.019,8956.94,-3694.14,12338.4,-76.2503,400.851,171.519,5068.4,222.086,8546.3,7.4632,-75.4628,30.4742,-36.4397,12730.0,-731.658,2.53637,64.712,419.814,916.654,-10804.2,414.586,21.8126,-34.4095,51.3921,-11465.5,1083.56,-3215.81,-32.9627,-0.441605,77.3291,-1430.17,-10966.7,-1287.41,-19.8979,-14.9123,87.8554,7624.83,371.172,-913.011,30.3639,0.21946,14.1525
4.02,8987.26,-3726.26,12475.7,-77.9612,400.651,173.307,5092.51,230.178,8533.38,7.13469,-76.0204,29.8469,-10.5035,12902.8,-699.584,1.78427,64.9842,420.865,922.691,-10834.7,430.736,21.8319,-33.7219,51.5109,-11544.0,1040.65,-3170.36,-32.1776,-4.61165,76.8277,-1592.32,-10903.2,-1140.93,-20.2284,-13.8439,87.5153,7640.71,343.505,-927.885,29.7888,0.239649,14.1219
4.021,9017.59,-3758.39,12612.9,-79.6721,400.452,175.094,5116.63,238.271,8520.45,6.80618,-76.578,29.2197,15.4327,13075.6,-667.51,1.03217,65.2563,421.916,928.727,-10865.3,446.885,21.8511,-33.0342,51.6297,-11622.4,997.742,-3124.92,-31.3926,-8.78169,76.3263,-1754.48,-10839.8,-994.447,-20.559,-12.7755,87.1751,7656.6,315.839,-942.76,29.2136,0.259839,14.0914
4.022,9047.91,-3790.51,12750.2,-81.3829,400.253,176.881,5140.74,246.363,8507.53,6.47767,-77.1356,28.5924,41.3689,13248.4,-635.436,0.280073,65.5285,422.967,934.764,-10895.9,463.034,21.8703,-32.3466,51.7485,-11700.9,954.833,-3079.47,-30.6076,-12.9517,75.8249,-1916.63,-10776.3,-847.966,-20.8895,-11.707,86.8349,7672.48,288.173,-957.635,28.6385,0.280028,14.0609
4.023,9067.14,-3789.32,12896.8,-83.2823,399.507,178.643,5138.48,218.189,8510.74,6.22429,-77.6054,28.0636,73.8773,13457.0,-598.837,-0.471461,65.7056,424.064,919.426,-10915.5,472.425,21.9283,-31.7025,51.8126,-11726.0,927.468,-3067.67,-29.9721,-16.9818,75.2699,-2066.51,-10662.5,-739.19,-21.3464,-11.1866,86.8416,7692.23,297.282,-981.919,28.1535,0.115729,14.0587
4.024,9083.2,-3778.61,13046.1,-85.2355,398.605,180.398,5128.69,179.652,8518.56,5.99238,-78.05,27.5629,108.264,13675.9,-560.944,-1.22283,65.8556,425.175,897.981,-10932.1,479.886,21.9973,-31.0709,51.861,-11735.8,904.544,-3065.49,-29.3795,-20.9718,74.6996,-2212.88,-10534.4,-641.187,-21.8394,-10.8227,86.9474,7713.07,316.899,-1008.89,27.6944,-0.101281,14.0647
4.025,9099.26,-3767.9,13195.3,-87.1888,397.702,182.154,5118.9,141.116,8526.38,5.76047,-78.4947,27.0621,142.65,13894.8,-523.051,-1.97421,66.0057,426.285,876.536,-10948.6,487.346,22.0663,-30.4393,51.9095,-11745.6,881.621,-3063.32,-28.7868,-24.9619,74.1292,-2359.26,-10406.2,-543.185,-22.3324,-10.4587,87.0532,7733.92,336.516,-1035.86,27.2352,-0.318291,14.0706
4.026,9115.32,-3757.18,13344.6,-89.142,396.8,183.909,5109.11,102.58,8534.2,5.52856,-78.9394,26.5614,177.036,14113.7,-485.158,-2.72558,66.1557,427.396,855.091,-10965.1,494.806,22.1354,-29.8077,51.9579,-11755.4,858.697,-3061.14,-28.1942,-28.9519,73.5588,-2505.63,-10278.1,-445.182,-22.8255,-10.0948,87.1591,7754.76,356.133,-1062.83,26.7761,-0.535301,14.0766
4.027,9149.98,-3769.46,13504.9,-91.052,395.699,185.708,5109.29,73.7711,8537.59,5.30613,-79.3996,26.0245,216.579,14345.0,-450.801,-3.44689,66.3389,428.385,836.022,-10977.4,493.371,22.2242,-29.1945,51.9804,-11774.1,826.774,-3041.15,-27.629,-32.8935,72.9704,-2656.93,-10154.7,-352.06,-23.4293,-10.0105,87.3938,7769.15,377.208,-1101.8,26.3403,-0.675711,14.0604
4.028,9221.82,-3827.73,13687.2,-92.8755,394.201,187.595,5129.41,64.4182,8532.13,5.10264,-79.8911,25.4154,266.435,14601.3,-423.517,-4.10808,66.5884,429.133,821.704,-10981.1,474.146,22.3526,-28.6183,51.9509,-11810.3,776.852,-2985.52,-27.1186,-36.7383,72.3456,-2818.06,-10041.0,-268.698,-24.2548,-10.4855,87.8865,7770.61,401.198,-1164.75,25.9515,-0.662923,13.9997
4.029,9293.67,-3885.99,13869.5,-94.6989,392.703,189.481,5149.54,55.0652,8526.66,4.89916,-80.3826,24.8063,316.291,14857.5,-396.233,-4.76927,66.8379,429.881,807.386,-10984.8,454.92,22.4811,-28.0421,51.9214,-11846.5,726.93,-2929.9,-26.6083,-40.583,71.7209,-2979.2,-9927.19,-185.336,-25.0803,-10.9604,88.3791,7772.08,425.188,-1227.7,25.5626,-0.650134,13.9391
4.03,9365.51,-3944.26,14051.8,-96.5223,391.204,191.368,5169.66,45.7122,8521.19,4.69567,-80.8742,24.1972,366.148,15113.8,-368.948,-5.43046,67.0874,430.628,793.068,-10988.5,435.694,22.6095,-27.4659,51.8919,-11882.7,677.008,-2874.28,-26.0979,-44.4277,71.0961,-3140.34,-9813.42,-101.974,-25.9059,-11.4354,88.8717,7773.55,449.178,-1290.65,25.1737,-0.637346,13.8784
4.031,9437.36,-4002.52,14234.1,-98.3458,389.706,193.255,5189.78,36.3592,8515.73,4.49218,-81.3657,23.5881,416.004,15370.0,-341.664,-6.09165,67.3368,431.376,778.75,-10992.3,416.468,22.7379,-26.8897,51.8624,-11918.9,627.085,-2818.66,-25.5876,-48.2724,70.4714,-3301.48,-9699.65,-18.6123,-26.7314,-11.9104,89.3643,7775.02,473.168,-1353.6,24.7849,-0.624557,13.8178
4.032,9562.76,-4077.46,14424.8,-99.6047,387.715,195.135,5207.26,47.1042,8512.67,4.32677,-81.8486,22.9415,427.124,15617.7,-353.069,-7.08561,67.8879,431.788,791.744,-11007.8,398.123,22.8515,-26.2869,51.8631,-11937.2,599.298,-2760.56,-24.8868,-51.657,69.6012,-3399.3,-9587.98,51.0608,-27.7258,-12.814,90.2115,7786.05,450.475,-1376.13,24.4873,-0.592817,13.5161
4.033,9694.86,-4154.49,14616.4,-100.793,385.662,197.016,5224.41,60.3615,8509.91,4.16611,-82.3305,22.2902,433.401,15864.3,-369.31,-8.12116,68.4766,432.159,808.152,-11024.9,379.887,22.9632,-25.6808,51.8676,-11953.4,574.278,-2702.15,-24.1621,-54.9841,68.7004,-3489.21,-9476.56,119.023,-28.7414,-13.7713,91.103,7798.27,421.948,-1393.6,24.2013,-0.558709,13.1843
4.034,9826.97,-4231.52,14808.0,-101.982,383.609,198.896,5241.56,73.6188,8507.14,4.00545,-82.8123,21.6389,439.678,16110.9,-385.551,-9.15671,69.0653,432.529,824.561,-11042.0,361.652,23.0749,-25.0748,51.8721,-11969.5,549.258,-2643.75,-23.4375,-58.3111,67.7996,-3579.12,-9365.15,186.985,-29.757,-14.7286,91.9945,7810.49,393.42,-1411.07,23.9152,-0.5246,12.8525
4.035,9959.07,-4308.56,14999.7,-103.17,381.556,200.776,5258.71,86.8761,8504.38,3.84479,-83.2942,20.9876,445.956,16357.4,-401.792,-10.1923,69.654,432.9,840.969,-11059.1,343.416,23.1866,-24.4687,51.8766,-11985.6,524.238,-2585.34,-22.7129,-61.6382,66.8988,-3669.03,-9253.74,254.947,-30.7726,-15.6858,92.886,7822.72,364.892,-1428.55,23.6291,-0.490491,12.5207
4.036,10104.1,-4413.42,15192.9,-104.038,379.49,202.702,5265.99,107.715,8503.46,3.6737,-83.8099,20.4116,436.011,16640.2,-427.828,-11.2838,70.3904,433.17,854.705,-11064.1,325.907,23.2752,-23.858,51.8995,-11969.1,507.898,-2520.92,-21.9595,-64.7363,65.9874,-3737.93,-9164.92,319.926,-31.677,-16.8669,93.6731,7823.98,345.617,-1439.03,23.4692,-0.518805,12.209
4.037,10265.3,-4553.08,15388.0,-104.504,377.41,204.685,5260.92,138.031,8504.85,3.48956,-84.3678,19.9299,405.79,16968.1,-466.108,-12.4452,71.3114,433.314,865.101,-11054.0,309.305,23.3351,-23.2415,51.9455,-11911.9,502.41,-2448.97,-21.1701,-67.5482,65.0628,-3780.56,-9104.34,381.177,-32.4425,-18.3276,94.3297,7811.55,337.906,-1440.79,23.4672,-0.625148,11.9225
4.038,10426.5,-4692.73,15583.2,-104.971,375.329,206.668,5255.86,168.347,8506.23,3.30543,-84.9258,19.4481,375.569,17296.1,-504.388,-13.6066,72.2324,433.458,875.497,-11044.0,292.704,23.3949,-22.625,51.9914,-11854.6,496.921,-2377.02,-20.3807,-70.3601,64.1382,-3823.2,-9043.76,442.428,-33.2079,-19.7884,94.9863,7799.12,330.195,-1442.54,23.4652,-0.73149,11.6359
4.039,10587.7,-4832.39,15778.3,-105.438,373.248,208.652,5250.8,198.663,8507.61,3.1213,-85.4838,18.9663,345.347,17624.0,-542.669,-14.768,73.1534,433.602,885.893,-11033.9,276.103,23.4547,-22.0085,52.0374,-11797.3,491.432,-2305.07,-19.5913,-73.172,63.2136,-3865.83,-8983.18,503.678,-33.9733,-21.2492,95.6428,7786.69,322.484,-1444.29,23.4632,-0.837833,11.3493
4.04,10748.9,-4972.05,15973.5,-105.904,371.168,210.635,5245.73,228.979,8508.99,2.93717,-86.0417,18.4846,315.126,17952.0,-580.949,-15.9294,74.0744,433.747,896.289,-11023.8,259.501,23.5146,-21.392,52.0833,-11740.1,485.943,-2233.12,-18.8019,-75.984,62.2889,-3908.47,-8922.6,564.929,-34.7388,-22.7099,96.2994,7774.26,314.773,-1446.05,23.4612,-0.944176,11.0627
4.041,10988.7,-5184.87,16146.5,-105.33,369.227,212.585,5245.12,253.578,8510.25,2.82495,-86.5984,18.0606,276.634,18313.2,-600.983,-17.3454,74.5316,433.859,898.851,-11012.6,229.09,23.534,-20.7566,52.1812,-11655.4,510.634,-2131.5,-17.8336,-78.1384,60.8952,-3928.97,-8863.62,570.449,-35.6057,-24.2156,96.9574,7769.92,312.003,-1472.75,23.2714,-1.12629,10.6141
4.042,11228.5,-5397.69,16319.4,-104.756,367.286,214.536,5244.51,278.176,8511.5,2.71274,-87.1551,17.6366,238.142,18674.3,-621.017,-18.7614,74.9889,433.972,901.412,-11001.4,198.679,23.5534,-20.1211,52.2792,-11570.8,535.324,-2029.88,-16.8654,-80.2928,59.5014,-3949.46,-8804.63,575.97,-36.4727,-25.7213,97.6154,7765.58,309.232,-1499.46,23.0816,-1.30841,10.1655
4.043,11468.3,-5610.51,16492.4,-104.182,365.345,216.486,5243.89,302.775,8512.75,2.60052,-87.7118,17.2127,199.651,19035.5,-641.051,-20.1775,75.4461,434.085,903.973,-10990.2,168.268,23.5729,-19.4856,52.3771,-11486.1,560.015,-1928.25,-15.8972,-82.4472,58.1077,-3969.96,-8745.65,581.49,-37.3396,-27.227,98.2733,7761.25,306.462,-1526.16,22.8918,-1.49052,9.71687
4.044,11708.1,-5823.33,16665.4,-103.608,363.404,218.437,5243.28,327.374,8514.0,2.4883,-88.2685,16.7887,161.159,19396.7,-661.085,-21.5935,75.9033,434.197,906.535,-10978.9,137.857,23.5923,-18.8502,52.475,-11401.5,584.706,-1826.63,-14.9289,-84.6016,56.7139,-3990.45,-8686.67,587.01,-38.2066,-28.7327,98.9313,7756.91,303.691,-1552.87,22.702,-1.67264,9.26827
4.045,11931.4,-6043.01,16806.1,-102.765,361.299,220.325,5247.49,349.926,8510.37,2.32249,-88.823,16.3585,95.2923,19754.8,-677.5,-23.0134,75.6428,434.05,906.578,-10964.0,111.043,23.6091,-18.193,52.5418,-11289.4,614.74,-1728.97,-13.8466,-86.4181,55.4131,-3997.36,-8662.49,531.046,-38.8691,-30.1755,99.516,7759.5,302.704,-1577.07,22.5581,-1.91046,8.92513
4.046,12141.5,-6268.18,16921.0,-101.706,359.064,222.162,5255.55,370.841,8502.81,2.11381,-89.3756,15.9233,7.5263,20110.5,-691.021,-24.4364,74.8082,433.695,904.607,-10946.2,87.1071,23.6237,-17.5185,52.5837,-11155.3,649.048,-1634.47,-12.6731,-87.9642,54.1865,-3993.4,-8666.15,425.894,-39.3681,-31.5682,100.042,7767.63,303.144,-1599.26,22.451,-2.19286,8.66636
4.047,12351.5,-6493.34,17036.0,-100.647,356.829,223.999,5263.62,391.756,8495.26,1.90513,-89.9282,15.4881,-80.2397,20466.2,-704.542,-25.8594,73.9736,433.339,902.637,-10928.4,63.171,23.6384,-16.844,52.6256,-11021.2,683.356,-1539.97,-11.4995,-89.5104,52.96,-3989.44,-8669.81,320.742,-39.8671,-32.9608,100.568,7775.76,303.584,-1621.45,22.3438,-2.47525,8.40758
4.048,12561.6,-6718.51,17150.9,-99.5877,354.594,225.837,5271.68,412.671,8487.71,1.69645,-90.4809,15.0529,-168.006,20821.9,-718.062,-27.2824,73.139,432.984,900.666,-10910.6,39.235,23.653,-16.1695,52.6674,-10887.2,717.664,-1445.47,-10.326,-91.0566,51.7335,-3985.48,-8673.47,215.589,-40.3661,-34.3535,101.094,7783.89,304.024,-1643.64,22.2366,-2.75764,8.14881
4.049,12767.2,-6931.35,17276.0,-98.5269,352.279,227.634,5281.33,433.36,8479.57,1.48818,-91.0292,14.627,-259.879,21184.3,-740.118,-28.5977,72.2249,432.559,900.929,-10892.8,15.0295,23.6923,-15.4934,52.7259,-10749.1,742.033,-1350.47,-9.05341,-92.5852,50.434,-3977.76,-8678.79,117.06,-40.8547,-35.7212,101.585,7789.03,303.693,-1662.44,22.1474,-3.06379,7.85798
4.05,12936.7,-7045.65,17482.5,-97.4522,349.33,229.11,5303.68,452.235,8466.75,1.28323,-91.5425,14.2756,-384.613,21599.6,-830.448,-29.0516,70.6754,431.574,919.062,-10875.7,-11.3317,23.929,-14.8048,52.9172,-10579.5,686.884,-1251.44,-6.98872,-93.9741,48.5509,-3939.96,-8697.45,71.5083,-41.2602,-36.8893,101.797,7770.25,297.204,-1654.19,22.2021,-3.55997,7.31067
4.051,13106.2,-7159.94,17688.9,-96.3775,346.381,230.586,5326.03,471.11,8453.92,1.07827,-92.0559,13.9241,-509.346,22014.9,-920.779,-29.5055,69.1258,430.589,937.194,-10858.6,-37.6929,24.1657,-14.1161,53.1084,-10409.8,631.735,-1152.41,-4.92403,-95.3629,46.6677,-3902.16,-8716.1,25.9569,-41.6657,-38.0574,102.008,7751.47,290.714,-1645.94,22.2568,-4.05615,6.76336
4.052,13275.7,-7274.24,17895.4,-95.3028,343.431,232.062,5348.38,489.986,8441.1,0.873312,-92.5693,13.5727,-634.08,22430.2,-1011.11,-29.9594,67.5762,429.603,955.327,-10841.5,-64.0541,24.4023,-13.4275,53.2997,-10240.1,576.586,-1053.38,-2.85934,-96.7518,44.7846,-3864.36,-8734.75,-19.5944,-42.0713,-39.2255,102.22,7732.69,284.224,-1637.68,22.3115,-4.55233,6.21605
4.053,13445.1,-7388.53,18101.9,-94.2281,340.482,233.538,5370.72,508.861,8428.27,0.668356,-93.0827,13.2212,-758.813,22845.6,-1101.44,-30.4133,66.0267,428.618,973.459,-10824.4,-90.4153,24.639,-12.7389,53.4909,-10070.5,521.437,-954.35,-0.794651,-98.1407,42.9014,-3826.56,-8753.41,-65.1458,-42.4768,-40.3936,102.431,7713.91,277.734,-1629.43,22.3662,-5.04851,5.66875
4.054,13607.4,-7432.5,18335.8,-94.0123,336.657,234.864,5397.99,515.043,8425.26,0.455872,-93.68,12.8376,-934.603,23233.6,-1332.54,-30.12,64.5185,427.326,966.206,-10818.9,-134.114,24.8232,-12.1113,53.8752,-9831.86,600.584,-885.769,1.94031,-99.9617,41.5639,-3798.99,-8795.58,-128.55,-42.6699,-41.4463,102.563,7680.58,249.541,-1649.65,22.259,-5.48717,5.33672
4.055,13766.0,-7441.32,18583.5,-94.2258,332.394,236.115,5427.72,514.879,8427.14,0.239624,-94.3193,12.4378,-1135.92,23608.0,-1634.03,-29.4532,63.031,425.88,946.261,-10819.1,-186.48,24.9813,-11.5142,54.3559,-9558.76,746.878,-832.414,5.01042,-101.999,40.4991,-3776.53,-8849.5,-200.881,-42.7567,-42.4413,102.654,7639.97,210.496,-1684.1,22.0708,-5.89707,5.11232
4.056,13924.6,-7450.13,18831.1,-94.4394,328.131,237.366,5457.45,514.715,8429.03,0.0233771,-94.9587,12.038,-1337.24,23982.5,-1935.53,-28.7863,61.5435,424.434,926.315,-10819.3,-238.847,25.1394,-10.9171,54.8366,-9285.66,893.172,-779.059,8.08052,-104.036,39.4343,-3754.07,-8903.42,-273.212,-42.8435,-43.4362,102.746,7599.37,171.451,-1718.55,21.8827,-6.30696,4.88793
4.057,14083.3,-7458.94,19078.8,-94.653,323.868,238.617,5487.19,514.551,8430.91,-0.19287,-95.598,11.6383,-1538.56,24356.9,-2237.02,-28.1195,60.0559,422.988,906.37,-10819.5,-291.214,25.2975,-10.3199,55.3173,-9012.55,1039.47,-725.704,11.1506,-106.073,38.3695,-3731.61,-8957.34,-345.543,-42.9303,-44.4312,102.838,7558.77,132.407,-1753.01,21.6945,-6.71686,4.66354
4.058,14279.9,-7402.41,19381.3,-95.3557,319.26,239.895,5512.23,512.106,8428.96,-0.39282,-96.2146,11.2477,-1768.82,24730.7,-2517.15,-28.1711,58.4832,421.253,881.244,-10818.1,-334.289,25.4585,-9.76215,55.7981,-8742.1,1145.74,-681.534,14.2608,-108.341,37.1737,-3693.52,-9015.11,-416.888,-42.9653,-45.3612,102.927,7520.25,90.7728,-1789.25,21.5076,-7.12483,4.38878
4.059,14609.7,-7117.17,19875.7,-97.7702,313.448,241.265,5520.86,501.674,8413.6,-0.535725,-96.7517,10.8894,-2100.37,25102.2,-2722.52,-30.7375,56.6122,418.501,837.983,-10810.9,-344.841,25.6299,-9.34198,56.2792,-8480.93,1111.96,-669.51,17.511,-111.417,35.5196,-3600.73,-9086.35,-484.779,-42.8188,-46.0637,103.01,7489.07,40.0774,-1831.74,21.3253,-7.52603,3.9377
4.06,14939.5,-6831.94,20370.2,-100.185,307.635,242.635,5529.49,491.242,8398.23,-0.678631,-97.2888,10.531,-2431.92,25473.7,-2927.88,-33.3038,54.7411,415.75,794.722,-10803.8,-355.394,25.8012,-8.92181,56.7603,-8219.76,1078.18,-657.486,20.7612,-114.494,33.8655,-3507.94,-9157.6,-552.67,-42.6723,-46.7662,103.093,7457.88,-10.6181,-1874.24,21.143,-7.92724,3.48663
4.061,15269.3,-6546.7,20864.7,-102.599,301.822,244.005,5538.12,480.811,8382.87,-0.821537,-97.826,10.1726,-2763.47,25845.2,-3133.25,-35.8702,52.8701,412.999,751.462,-10796.7,-365.946,25.9726,-8.50165,57.2414,-7958.59,1044.4,-645.462,24.0114,-117.57,32.2113,-3415.15,-9228.84,-620.561,-42.5258,-47.4686,103.176,7426.69,-61.3135,-1916.74,20.9606,-8.32844,3.03555
4.062,15599.1,-6261.47,21359.1,-105.014,296.01,245.375,5546.75,470.379,8367.5,-0.964442,-98.3631,9.81426,-3095.02,26216.7,-3338.62,-38.4366,50.9991,410.248,708.201,-10789.6,-376.499,26.1439,-8.08148,57.7225,-7697.42,1010.62,-633.438,27.2616,-120.646,30.5572,-3322.37,-9300.08,-688.452,-42.3793,-48.1711,103.258,7395.5,-112.009,-1959.23,20.7783,-8.72964,2.58448
4.063,16244.5,-5778.85,21653.2,-108.578,291.203,246.979,5549.04,459.306,8363.1,-0.901711,-98.9727,9.54844,-3620.37,26596.5,-3282.67,-43.4145,47.4567,405.367,668.509,-10777.9,-369.141,26.2601,-7.72456,58.1709,-7400.22,1110.28,-555.359,30.1556,-123.368,29.1537,-3228.13,-9388.6,-741.833,-41.8335,-48.8729,103.292,7383.03,-128.629,-1971.41,20.7088,-9.30089,2.20148
4.064,16980.1,-5239.83,21890.0,-112.471,286.683,248.651,5549.53,448.05,8361.84,-0.780225,-99.6031,9.30907,-4201.09,26978.7,-3152.05,-49.0814,43.4367,399.877,629.837,-10764.8,-356.666,26.3605,-7.3857,58.61,-7092.72,1248.07,-458.406,32.9478,-125.989,27.8218,-3133.47,-9482.04,-791.069,-41.1735,-49.5744,103.311,7375.91,-135.514,-1974.94,20.6715,-9.92071,1.83795
4.065,17715.7,-4700.81,22126.9,-116.365,282.163,250.322,5550.01,436.793,8360.58,-0.65874,-100.234,9.06969,-4781.81,27360.9,-3021.43,-54.7484,39.4167,394.387,591.164,-10751.8,-344.191,26.4609,-7.04685,59.0491,-6785.23,1385.86,-361.454,35.74,-128.61,26.4899,-3038.82,-9575.49,-840.305,-40.5135,-50.276,103.331,7368.79,-142.399,-1978.46,20.6341,-10.5405,1.47441
4.066,18451.3,-4161.79,22363.7,-120.258,277.643,251.994,5550.5,425.537,8359.32,-0.537254,-100.864,8.83032,-5362.53,27743.1,-2890.82,-60.4153,35.3967,388.897,552.492,-10738.8,-331.717,26.5613,-6.70799,59.4882,-6477.73,1523.65,-264.502,38.5322,-131.231,25.158,-2944.16,-9668.93,-889.541,-39.8535,-50.9775,103.35,7361.67,-149.284,-1981.99,20.5968,-11.1604,1.11087
4.067,19323.1,-3748.06,22403.6,-124.466,274.555,253.439,5553.71,429.573,8355.92,-0.398375,-101.52,8.62282,-5994.47,28124.4,-2804.85,-65.7984,31.1474,383.219,520.423,-10729.8,-331.634,26.6781,-6.39679,59.9406,-6174.17,1621.37,-162.434,41.6133,-133.763,23.7127,-2840.32,-9773.33,-930.579,-39.1365,-51.6118,103.415,7358.37,-161.453,-1993.41,20.6969,-11.639,0.79701
4.068,20467.7,-3584.92,22049.7,-129.303,274.329,254.433,5562.39,464.193,8348.21,-0.224711,-102.226,8.47906,-6728.87,28503.8,-2808.19,-70.6136,26.4391,377.165,501.562,-10729.1,-356.335,26.8279,-6.14089,60.4196,-5878.45,1638.95,-50.1352,45.2721,-136.114,22.0407,-2718.09,-9899.64,-955.221,-38.3052,-52.1117,103.569,7362.7,-184.19,-2020.62,21.0717,-11.8353,0.582522
4.069,21612.2,-3421.78,21695.8,-134.14,274.102,255.426,5571.06,498.814,8340.5,-0.0510456,-102.933,8.33531,-7463.27,28883.2,-2811.53,-75.4289,21.7309,371.111,482.701,-10728.3,-381.036,26.9776,-5.885,60.8986,-5582.74,1656.53,62.1636,48.9309,-138.465,20.3686,-2595.87,-10025.9,-979.864,-37.4739,-52.6115,103.723,7367.03,-206.928,-2047.83,21.4465,-12.0316,0.368035
4.07,22756.7,-3258.64,21341.9,-138.977,273.876,256.42,5579.73,533.434,8332.79,0.122619,-103.639,8.19156,-8197.67,29262.5,-2814.88,-80.2442,17.0227,365.057,463.84,-10727.5,-405.737,27.1273,-5.6291,61.3776,-5287.03,1674.11,174.462,52.5897,-140.817,18.6966,-2473.65,-10152.3,-1004.51,-36.6427,-53.1114,103.877,7371.36,-229.665,-2075.05,21.8213,-12.2278,0.153547
4.071,23901.3,-3095.5,20988.0,-143.814,273.65,257.413,5588.41,568.054,8325.08,0.296284,-104.346,8.04781,-8932.07,29641.9,-2818.22,-85.0595,12.3145,359.003,444.979,-10726.8,-430.438,27.2771,-5.3732,61.8566,-4991.32,1691.69,286.761,56.2484,-143.168,17.0245,-2351.43,-10278.6,-1029.15,-35.8114,-53.6112,104.031,7375.69,-252.402,-2102.26,22.1961,-12.4241,-0.0609405
4.072,24825.5,-3526.36,20773.6,-147.14,276.149,257.386,5587.81,635.888,8291.84,0.398912,-105.012,7.91022,-9621.07,30037.3,-2880.31,-88.2353,6.82455,355.673,464.103,-10723.0,-497.295,27.516,-5.28434,62.3934,-4738.53,1708.14,270.519,60.3557,-144.799,15.556,-2200.33,-10358.0,-1005.61,-34.6062,-53.8227,104.104,7367.2,-291.36,-2131.87,22.6566,-12.5248,-0.435625
4.073,25722.2,-4031.48,20576.6,-150.276,278.989,257.232,5586.05,707.873,8255.41,0.492661,-105.674,7.7734,-10304.4,30434.7,-2949.75,-91.2062,1.23694,352.683,487.976,-10718.8,-569.422,27.7661,-5.21636,62.9374,-4491.09,1724.45,238.209,64.519,-146.341,14.1129,-2045.62,-10431.5,-976.049,-33.3542,-53.9981,104.167,7357.1,-332.345,-2161.78,23.1278,-12.6135,-0.830334
4.074,26618.9,-4536.6,20379.6,-153.413,281.829,257.077,5584.29,779.859,8218.97,0.586409,-106.335,7.63658,-10987.7,30832.1,-3019.19,-94.1771,-4.35068,349.694,511.849,-10714.6,-641.549,28.0161,-5.14839,63.4814,-4243.66,1740.76,205.9,68.6823,-147.882,12.6698,-1890.91,-10505.1,-946.489,-32.1023,-54.1734,104.23,7346.99,-373.33,-2191.69,23.5991,-12.7023,-1.22504
4.075,27515.6,-5041.72,20182.6,-156.55,284.669,256.923,5582.53,851.844,8182.54,0.680158,-106.996,7.49976,-11671.1,31229.5,-3088.62,-97.148,-9.9383,346.704,535.722,-10710.4,-713.675,28.2662,-5.08041,64.0254,-3996.23,1757.07,173.59,72.8456,-149.424,11.2268,-1736.2,-10578.6,-916.928,-30.8503,-54.3488,104.293,7336.89,-414.315,-2221.6,24.0703,-12.791,-1.61975
4.076,28205.0,-5564.73,20041.7,-157.727,287.6,255.943,5586.82,914.986,8170.71,0.719943,-107.67,7.39545,-12320.5,31544.2,-3139.52,-98.2696,-15.1012,344.684,546.961,-10703.7,-777.889,28.5321,-5.01704,64.5569,-3742.29,1803.0,115.838,76.4942,-150.045,9.90749,-1591.76,-10630.1,-931.211,-29.8228,-54.295,104.462,7325.47,-456.569,-2254.5,24.2278,-12.8663,-2.05389
4.077,28635.2,-6110.09,19970.9,-156.454,290.646,253.931,5598.66,967.073,8189.64,0.692276,-108.359,7.33177,-12927.6,31755.6,-3167.25,-97.0794,-19.733,343.877,542.408,-10693.9,-832.213,28.8179,-4.95942,65.0729,-3480.23,1885.94,26.2838,79.4993,-149.515,8.74296,-1460.16,-10654.0,-1000.3,-29.076,-53.9545,104.765,7312.39,-500.409,-2291.13,23.9932,-12.925,-2.53733
4.078,29065.4,-6655.45,19900.1,-155.182,293.692,251.92,5610.5,1019.16,8208.57,0.664608,-109.049,7.26809,-13534.8,31966.9,-3194.97,-95.8893,-24.365,343.07,537.855,-10684.1,-886.537,29.1038,-4.90181,65.5888,-3218.16,1968.88,-63.2708,82.5044,-148.985,7.57844,-1328.55,-10678.0,-1069.39,-28.3291,-53.614,105.067,7299.31,-544.249,-2327.76,23.7586,-12.9836,-3.02076
4.079,29495.6,-7200.81,19829.2,-153.909,296.739,249.908,5622.35,1071.25,8227.5,0.636941,-109.738,7.20441,-14141.9,32178.3,-3222.7,-94.6992,-28.9968,342.263,533.302,-10674.3,-940.86,29.3896,-4.8442,66.1048,-2956.09,2051.82,-152.825,85.5095,-148.455,6.41392,-1196.95,-10701.9,-1138.47,-27.5822,-53.2736,105.369,7286.23,-588.089,-2364.39,23.5239,-13.0422,-3.50419
4.08,29925.9,-7746.17,19758.4,-152.636,299.785,247.897,5634.19,1123.34,8246.43,0.609273,-110.428,7.14073,-14749.1,32389.6,-3250.42,-93.509,-33.6287,341.456,528.75,-10664.4,-995.184,29.6754,-4.78659,66.6207,-2694.02,2134.76,-242.38,88.5146,-147.925,5.2494,-1065.35,-10725.9,-1207.56,-26.8354,-52.9331,105.671,7273.15,-631.929,-2401.03,23.2893,-13.1008,-3.98762
4.081,29907.9,-8049.78,19554.3,-148.982,300.682,244.296,5650.67,1150.66,8233.66,0.546441,-111.195,7.16026,-15369.5,32557.5,-3487.1,-87.9005,-35.4841,343.122,510.028,-10658.2,-1004.36,29.6625,-4.72575,67.1616,-2401.47,2253.88,-225.864,89.9064,-145.223,4.022,-877.758,-10783.7,-1173.49,-26.0344,-52.5447,105.951,7293.53,-649.431,-2477.02,23.085,-12.6125,-4.14065
4.082,29890.0,-8353.39,19350.2,-145.327,301.578,240.695,5667.15,1177.99,8220.88,0.483609,-111.962,7.17978,-15989.9,32725.3,-3723.77,-82.2919,-37.3394,344.788,491.306,-10652.0,-1013.54,29.6496,-4.66491,67.7024,-2108.91,2373.0,-209.348,91.2983,-142.52,2.79461,-690.162,-10841.6,-1139.41,-25.2334,-52.1562,106.232,7313.9,-666.932,-2553.02,22.8806,-12.1242,-4.29368
4.083,29872.1,-8657.0,19146.0,-141.672,302.475,237.094,5683.63,1205.31,8208.1,0.420777,-112.729,7.19931,-16610.4,32893.1,-3960.44,-76.6834,-39.1947,346.454,472.584,-10645.7,-1022.71,29.6367,-4.60406,68.2432,-1816.36,2492.12,-192.831,92.6902,-139.818,1.56722,-502.567,-10899.5,-1105.34,-24.4325,-51.7678,106.512,7334.28,-684.433,-2629.02,22.6763,-11.6359,-4.44671
4.084,29854.1,-8960.62,18941.9,-138.018,303.372,233.493,5700.1,1232.64,8195.33,0.357946,-113.497,7.21884,-17230.8,33060.9,-4197.11,-71.0748,-41.05,348.119,453.862,-10639.5,-1031.89,29.6238,-4.54322,68.784,-1523.8,2611.24,-176.315,94.082,-137.116,0.339823,-314.971,-10957.4,-1071.26,-23.6315,-51.3793,106.792,7354.66,-701.935,-2705.01,22.472,-11.1476,-4.59973
4.085,29767.6,-9155.34,18582.6,-134.124,303.038,229.505,5722.86,1244.34,8168.68,0.279136,-114.225,7.2043,-17767.3,33166.8,-4381.27,-65.4823,-42.464,350.681,463.715,-10639.5,-1063.02,29.8317,-4.39525,69.382,-1156.98,2799.2,-134.818,95.3164,-133.052,-0.777987,-136.003,-10973.4,-1031.37,-22.8055,-50.9979,107.056,7367.3,-749.411,-2738.9,21.9489,-10.6791,-4.72306
4.086,29626.2,-9262.94,18099.3,-130.039,301.719,225.207,5750.63,1243.53,8130.93,0.187544,-114.923,7.16251,-18236.7,33222.9,-4523.41,-59.9026,-43.525,353.959,496.429,-10644.6,-1111.73,30.2161,-4.17757,70.0257,-730.745,3042.25,-73.3358,96.4248,-127.899,-1.80813,36.0635,-10956.1,-986.833,-21.9593,-50.622,107.308,7373.76,-820.866,-2739.09,21.1706,-10.2264,-4.82261
4.087,29484.8,-9370.55,17615.9,-125.955,300.4,220.909,5778.41,1242.73,8093.18,0.0959528,-115.62,7.12073,-18706.1,33279.1,-4665.54,-54.3229,-44.586,357.238,529.142,-10649.7,-1160.43,30.6006,-3.95989,70.6694,-304.508,3285.3,-11.8535,97.5331,-122.746,-2.83827,208.13,-10938.7,-942.293,-21.1131,-50.2461,107.559,7380.22,-892.321,-2739.29,20.3924,-9.77369,-4.92217
4.088,29343.4,-9478.15,17132.5,-121.87,299.081,216.611,5806.19,1241.93,8055.42,0.00436125,-116.318,7.07894,-19175.5,33335.3,-4807.68,-48.7431,-45.647,360.516,561.856,-10654.8,-1209.13,30.985,-3.74221,71.3131,121.729,3528.35,49.6287,98.6415,-117.594,-3.86841,380.197,-10921.3,-897.753,-20.267,-49.8702,107.81,7386.69,-963.777,-2739.49,19.6141,-9.321,-5.02172
4.089,29220.9,-9558.04,16635.4,-117.779,297.651,212.289,5832.15,1240.2,8022.33,-0.0819196,-117.013,7.03799,-19625.8,33353.8,-4947.64,-43.3793,-46.6828,363.571,596.537,-10660.2,-1254.37,31.3621,-3.52524,71.9734,562.058,3779.43,116.105,99.9297,-112.148,-4.8428,549.114,-10903.5,-852.605,-19.4641,-49.4914,108.047,7402.11,-1035.36,-2741.06,18.8441,-8.90334,-5.1226
4.09,29249.0,-9416.23,16028.2,-113.636,295.326,207.775,5843.58,1231.07,8026.47,-0.125715,-117.696,7.00372,-19922.7,33071.0,-5070.12,-39.7423,-47.5177,364.839,646.957,-10667.8,-1271.9,31.6802,-3.31387,72.7673,1115.13,4094.83,222.539,102.657,-104.36,-5.37112,692.835,-10881.7,-802.589,-19.0075,-49.0891,108.162,7489.2,-1107.96,-2753.62,18.14,-8.76588,-5.23413
4.091,29277.1,-9274.42,15421.1,-109.494,293.002,203.262,5855.0,1221.93,8030.62,-0.16951,-118.379,6.96945,-20219.6,32788.2,-5192.6,-36.1053,-48.3525,366.107,697.377,-10675.4,-1289.43,31.9983,-3.1025,73.5611,1668.19,4410.22,328.972,105.384,-96.5714,-5.89945,836.557,-10859.9,-752.574,-18.5509,-48.6868,108.277,7576.3,-1180.56,-2766.18,17.4359,-8.62843,-5.34565
4.092,29305.3,-9132.61,14813.9,-105.351,290.678,198.748,5866.43,1212.8,8034.76,-0.213306,-119.061,6.93518,-20516.6,32505.4,-5315.08,-32.4683,-49.1874,367.374,747.797,-10683.0,-1306.95,32.3163,-2.89113,74.3549,2221.26,4725.62,435.405,108.111,-88.783,-6.42778,980.279,-10838.1,-702.559,-18.0942,-48.2846,108.392,7663.4,-1253.16,-2778.74,16.7318,-8.49097,-5.45717
4.093,29333.4,-8990.8,14206.7,-101.208,288.354,194.234,5877.86,1203.67,8038.9,-0.257101,-119.744,6.9009,-20813.5,32222.5,-5437.56,-28.8313,-50.0222,368.642,798.217,-10690.5,-1324.48,32.6344,-2.67976,75.1487,2774.33,5041.01,541.838,110.838,-80.9947,-6.9561,1124.0,-10816.3,-652.543,-17.6376,-47.8823,108.508,7750.5,-1325.75,-2791.3,16.0277,-8.35351,-5.56869
4.094,29491.4,-8739.1,13514.7,-97.0148,285.819,189.673,5876.37,1219.21,8052.18,-0.267557,-120.498,6.91719,-21024.3,31767.8,-5541.9,-26.3778,-50.2629,367.906,821.419,-10706.0,-1333.31,32.9701,-2.58127,76.0294,3390.33,5439.54,633.852,114.78,-71.7122,-6.13766,1262.88,-10759.5,-615.287,-17.2891,-47.6434,108.784,7838.08,-1365.21,-2756.64,15.7208,-8.31521,-5.64403
4.095,29714.2,-8432.46,12780.3,-92.7956,283.179,185.09,5868.42,1247.07,8070.02,-0.261342,-121.287,6.95877,-21192.1,31227.2,-5637.17,-24.5161,-50.2065,366.168,831.011,-10725.3,-1337.79,33.3147,-2.53921,76.9536,4037.79,5879.65,718.656,119.33,-61.6826,-4.64582,1399.34,-10685.2,-584.411,-16.9946,-47.4862,109.141,7925.91,-1388.08,-2698.37,15.6125,-8.32648,-5.70127
4.096,29937.1,-8125.82,12045.9,-88.5765,280.54,180.506,5860.46,1274.93,8087.86,-0.255128,-122.076,7.00034,-21359.9,30686.6,-5732.44,-22.6544,-50.15,364.43,840.604,-10744.6,-1342.28,33.6593,-2.49716,77.8777,4685.26,6319.75,803.461,123.88,-51.6531,-3.15399,1535.79,-10610.8,-553.535,-16.7001,-47.3291,109.499,8013.74,-1410.96,-2640.11,15.5042,-8.33776,-5.75852
4.097,30160.0,-7819.18,11311.6,-84.3573,277.9,175.922,5852.51,1302.8,8105.7,-0.248913,-122.866,7.04191,-21527.7,30146.0,-5827.7,-20.7927,-50.0936,362.693,850.196,-10764.0,-1346.76,34.0039,-2.45511,78.8018,5332.72,6759.85,888.265,128.429,-41.6236,-1.66216,1672.25,-10536.5,-522.659,-16.4056,-47.1719,109.856,8101.57,-1433.84,-2581.84,15.3959,-8.34903,-5.81576
4.098,30387.1,-7483.34,10549.4,-80.4966,275.264,171.356,5844.02,1334.4,8123.37,-0.277494,-123.677,7.09416,-21673.0,29575.7,-5893.55,-18.9115,-49.9639,360.476,862.593,-10781.5,-1350.63,34.3654,-2.38648,79.7141,5980.53,7237.92,962.575,133.05,-31.0857,0.340925,1803.11,-10471.1,-495.664,-16.204,-47.0677,110.208,8182.35,-1461.85,-2517.07,15.2488,-8.32951,-5.89288
4.099,30629.4,-7045.28,9689.96,-77.891,272.638,166.856,5833.66,1379.06,8140.41,-0.427858,-124.564,7.18374,-21740.0,28901.3,-5856.41,-16.9622,-49.578,356.583,884.805,-10792.8,-1352.35,34.7863,-2.22485,80.5849,6629.51,7848.86,1000.15,137.92,-18.7687,4.1334,1914.35,-10437.0,-482.255,-16.3277,-47.1487,110.542,8238.49,-1507.86,-2429.56,14.9659,-8.20221,-6.03951
4.1,30871.6,-6607.21,8830.54,-75.2854,270.012,162.355,5823.3,1423.73,8157.45,-0.578222,-125.451,7.27333,-21806.9,28226.8,-5819.27,-15.0128,-49.1921,352.689,907.017,-10804.1,-1354.07,35.2072,-2.06322,81.4557,7278.49,8459.81,1037.73,142.79,-6.45175,7.92587,2025.6,-10403.0,-468.846,-16.4515,-47.2297,110.876,8294.63,-1553.86,-2342.05,14.683,-8.0749,-6.18615
4.101,31113.8,-6169.15,7971.12,-72.6798,267.387,157.854,5812.94,1468.39,8174.49,-0.728587,-126.338,7.36292,-21873.8,27552.4,-5782.13,-13.0634,-48.8062,348.796,929.228,-10815.4,-1355.79,35.6281,-1.90159,82.3265,7927.47,9070.76,1075.31,147.659,5.86522,11.7183,2136.85,-10369.0,-455.436,-16.5752,-47.3107,111.21,8350.77,-1599.86,-2254.54,14.4,-7.94759,-6.33278
4.102,31356.1,-5731.09,7111.71,-70.0742,264.761,153.354,5802.58,1513.06,8191.53,-0.878951,-127.225,7.45251,-21940.7,26878.0,-5745.0,-11.1141,-48.4203,344.903,951.44,-10826.7,-1357.51,36.049,-1.73996,83.1973,8576.45,9681.71,1112.89,152.529,18.1822,15.5108,2248.1,-10335.0,-442.027,-16.6989,-47.3918,111.545,8406.91,-1645.86,-2167.03,14.1171,-7.82029,-6.47942
4.103,31522.1,-5310.17,6307.29,-69.6359,261.457,148.897,5812.78,1537.68,8212.31,-1.08034,-128.222,7.51849,-21998.0,26133.3,-5680.57,-8.10445,-48.3784,340.036,975.038,-10855.2,-1388.87,36.3742,-1.51265,84.1625,9176.3,10301.1,1169.23,156.803,31.5256,20.3186,2345.98,-10300.6,-404.565,-16.8896,-47.3441,111.928,8464.4,-1613.96,-2057.7,13.7139,-7.6384,-6.3767
4.104,31666.4,-4894.16,5518.59,-69.8168,257.959,144.453,5828.84,1556.57,8234.16,-1.29631,-129.25,7.57772,-22052.5,25368.6,-5608.34,-4.79191,-48.4349,334.89,999.031,-10888.7,-1428.7,36.672,-1.26657,85.1546,9762.12,10923.0,1230.92,160.908,45.1623,25.4164,2440.04,-10266.0,-360.232,-17.0995,-47.2596,112.326,8522.27,-1559.79,-1942.13,13.2763,-7.44093,-6.20273
4.105,31810.8,-4478.14,4729.9,-69.9978,254.461,140.009,5844.9,1575.46,8256.01,-1.51228,-130.278,7.63695,-22107.0,24604.0,-5536.11,-1.47937,-48.4913,329.744,1023.02,-10922.2,-1468.53,36.9698,-1.02049,86.1468,10347.9,11544.8,1292.61,165.013,58.7991,30.5142,2534.11,-10231.5,-315.898,-17.3094,-47.1751,112.724,8580.14,-1505.62,-1826.56,12.8388,-7.24345,-6.02876
4.106,31955.1,-4062.13,3941.2,-70.1787,250.962,135.565,5860.97,1594.35,8277.86,-1.72825,-131.306,7.69619,-22161.5,23839.3,-5463.88,1.83317,-48.5477,324.599,1047.02,-10955.6,-1508.36,37.2676,-0.774405,87.1389,10933.8,12166.6,1354.31,169.117,72.4358,35.612,2628.17,-10196.9,-271.564,-17.5193,-47.0906,113.122,8638.01,-1451.45,-1710.99,12.4012,-7.04598,-5.85479
4.107,32064.5,-3640.98,3181.72,-71.0269,247.128,131.245,5875.31,1622.96,8295.88,-1.95475,-132.335,7.75515,-22261.3,23081.0,-5382.28,5.28647,-48.6244,319.058,1080.1,-10982.5,-1549.59,37.6368,-0.570663,88.1792,11499.0,12835.2,1407.17,172.715,86.3555,41.2223,2725.67,-10169.1,-233.261,-17.7547,-46.9849,113.433,8677.27,-1394.51,-1609.76,11.7123,-6.72709,-5.63699
4.108,32104.1,-3209.56,2480.69,-73.2096,242.622,127.174,5886.2,1671.02,8306.25,-2.20233,-133.363,7.81356,-22451.7,22335.8,-5281.95,9.02131,-48.7419,312.728,1131.35,-10996.4,-1593.63,38.1489,-0.451599,89.3156,12023.2,13597.3,1442.38,175.298,100.841,47.8578,2830.01,-10154.7,-207.022,-18.0411,-46.837,113.569,8679.31,-1332.03,-1537.19,10.5208,-6.1654,-5.33154
4.109,32143.7,-2778.13,1779.66,-75.3923,238.116,123.103,5897.1,1719.08,8316.62,-2.44991,-134.391,7.87197,-22642.1,21590.5,-5181.62,12.7561,-48.8593,306.398,1182.6,-11010.3,-1637.67,38.6609,-0.332535,90.452,12547.4,14359.4,1477.6,177.881,115.327,54.4932,2934.36,-10140.2,-180.782,-18.3276,-46.6891,113.704,8681.35,-1269.54,-1464.62,9.32928,-5.6037,-5.02609
4.11,32183.3,-2346.71,1078.62,-77.5749,233.609,119.032,5907.99,1767.15,8326.98,-2.69749,-135.42,7.93039,-22832.5,20845.2,-5081.29,16.491,-48.9767,300.068,1233.85,-11024.1,-1681.7,39.173,-0.213471,91.5884,13071.6,15121.5,1512.81,180.465,129.813,61.1287,3038.71,-10125.8,-154.543,-18.614,-46.5412,113.84,8683.39,-1207.06,-1392.06,8.13774,-5.04201,-4.72064
4.111,32222.9,-1915.29,377.591,-79.7576,229.103,114.961,5918.88,1815.21,8337.35,-2.94506,-136.448,7.9888,-23022.9,20100.0,-4980.96,20.2258,-49.0942,293.738,1285.11,-11038.0,-1725.74,39.685,-0.0944067,92.7248,13595.8,15883.6,1548.02,183.048,144.298,67.7641,3143.05,-10111.3,-128.303,-18.9005,-46.3933,113.976,8685.43,-1144.57,-1319.49,6.94621,-4.48031,-4.41519
4.112,32261.8,-1333.21,-197.638,-83.0726,224.183,111.893,5905.25,1835.07,8366.03,-3.16448,-137.577,8.17825,-23428.6,19403.0,-4872.03,22.4232,-50.0091,286.539,1325.58,-11073.6,-1732.66,40.176,0.0351745,93.8611,14065.9,16730.1,1522.55,182.552,158.77,75.9386,3180.69,-10147.8,-71.4783,-19.407,-45.9937,114.027,8714.96,-1067.03,-1209.13,5.13745,-3.73479,-4.12147
4.113,32300.7,-732.304,-757.141,-86.5291,219.211,108.951,5888.55,1851.4,8397.0,-3.38038,-138.719,8.38409,-23861.3,18712.1,-4762.04,24.4283,-51.0238,279.231,1364.7,-11111.9,-1734.95,40.6644,0.16607,94.9973,14529.3,17587.1,1489.5,181.671,173.241,84.3055,3209.99,-10190.6,-10.8299,-19.9411,-45.5625,114.068,8747.92,-987.613,-1094.05,3.25153,-2.96629,-3.82921
4.114,32339.6,-131.392,-1316.64,-89.9856,214.24,106.008,5871.85,1867.73,8427.97,-3.59628,-139.862,8.58993,-24294.0,18021.2,-4652.04,26.4335,-52.0384,271.924,1403.83,-11150.3,-1737.23,41.1528,0.296966,96.1335,14992.6,18444.0,1456.45,180.79,187.711,92.6725,3239.28,-10233.4,49.8185,-20.4752,-45.1314,114.108,8780.89,-908.193,-978.972,1.36561,-2.1978,-3.53696
4.115,32378.4,469.519,-1876.15,-93.4421,209.268,103.066,5855.15,1884.07,8458.94,-3.81218,-141.004,8.79577,-24726.7,17330.3,-4542.05,28.4386,-53.0531,264.616,1442.95,-11188.6,-1739.52,41.6412,0.427862,97.2698,15456.0,19301.0,1423.39,179.909,202.181,101.039,3268.58,-10276.2,110.467,-21.0093,-44.7002,114.149,8813.85,-828.773,-863.892,-0.520303,-1.4293,-3.2447
4.116,32476.0,1091.35,-2452.49,-97.6818,204.354,100.343,5841.08,1889.75,8492.29,-4.00253,-142.22,8.99754,-25203.9,16714.3,-4345.28,29.9345,-54.9459,257.409,1471.0,-11230.9,-1735.94,42.0546,0.623976,98.4196,15903.5,20128.7,1405.28,176.014,216.187,109.299,3316.21,-10312.5,166.342,-21.4698,-44.1232,114.163,8848.29,-740.733,-710.185,-2.60743,-0.827009,-2.81531
4.117,32646.9,1739.35,-3049.88,-102.9,199.51,97.8926,5830.29,1882.11,8528.62,-4.16097,-143.53,9.19422,-25736.9,16192.0,-4040.03,30.7938,-57.9365,250.327,1485.2,-11278.0,-1725.04,42.3743,0.901611,99.5865,16331.3,20919.7,1405.83,168.352,229.614,117.426,3386.77,-10340.7,216.252,-21.8383,-43.3637,114.145,8884.58,-641.918,-508.194,-4.94606,-0.432489,-2.2145
4.118,32817.8,2387.34,-3647.26,-108.119,194.667,95.4426,5819.51,1874.47,8564.96,-4.31941,-144.839,9.3909,-26269.8,15669.7,-3734.78,31.6531,-60.9271,243.246,1499.39,-11325.2,-1714.14,42.6941,1.17925,100.753,16759.0,21710.7,1406.39,160.691,243.041,125.552,3457.32,-10368.9,266.162,-22.2068,-42.6042,114.126,8920.87,-543.104,-306.203,-7.28469,-0.0379678,-1.61369
4.119,32988.8,3035.33,-4244.65,-113.338,189.824,92.9925,5808.72,1866.83,8601.29,-4.47784,-146.148,9.58758,-26802.7,15147.4,-3429.54,32.5125,-63.9178,236.165,1513.59,-11372.3,-1703.24,43.0138,1.45688,101.92,17186.7,22501.7,1406.94,153.029,256.467,133.679,3527.87,-10397.0,316.071,-22.5752,-41.8447,114.108,8957.16,-444.289,-104.212,-9.62332,0.356553,-1.01288
4.12,33159.7,3683.32,-4842.04,-118.557,184.981,90.5425,5797.93,1859.19,8637.62,-4.63628,-147.458,9.78426,-27335.7,14625.1,-3124.29,33.3718,-66.9084,229.083,1527.79,-11419.5,-1692.34,43.3335,1.73452,103.087,17614.5,23292.7,1407.5,145.367,269.894,141.805,3598.43,-10425.2,365.981,-22.9437,-41.0852,114.09,8993.45,-345.474,97.7793,-11.962,0.751074,-0.412066
4.121,33366.8,4237.76,-5330.4,-124.253,180.198,88.1692,5810.65,1876.76,8643.27,-4.81623,-148.853,9.91464,-27975.8,14171.8,-2755.33,34.02,-70.7789,222.996,1577.97,-11462.8,-1674.8,43.7593,1.95896,104.205,18081.8,23532.0,1606.76,131.841,280.516,147.391,3623.41,-10505.5,396.401,-23.413,-39.9062,113.533,9051.84,-322.654,205.727,-14.4563,0.845327,0.300367
4.122,33574.0,4792.19,-5818.75,-129.95,175.416,85.7959,5823.36,1894.33,8648.92,-4.99618,-150.249,10.045,-28615.9,13718.6,-2386.36,34.6683,-74.6494,216.909,1628.14,-11506.1,-1657.27,44.185,2.1834,105.322,18549.1,23771.3,1806.03,118.316,291.138,152.978,3648.39,-10585.8,426.822,-23.8823,-38.7272,112.976,9110.23,-299.834,313.675,-16.9507,0.939579,1.0128
4.123,33781.1,5346.63,-6307.11,-135.646,170.633,83.4226,5836.08,1911.9,8654.57,-5.17613,-151.645,10.1754,-29256.0,13265.3,-2017.4,35.3165,-78.5199,210.823,1678.31,-11549.4,-1639.73,44.6107,2.40784,106.439,19016.4,24010.6,2005.3,104.791,301.76,158.564,3673.38,-10666.1,457.242,-24.3516,-37.5482,112.419,9168.62,-277.014,421.623,-19.445,1.03383,1.72523
4.124,33988.3,5901.06,-6795.47,-141.343,165.85,81.0493,5848.79,1929.47,8660.22,-5.35608,-153.04,10.3058,-29896.1,12812.1,-1648.44,35.9648,-82.3904,204.736,1728.48,-11592.7,-1622.2,45.0365,2.63228,107.557,19483.7,24249.9,2204.57,91.2654,312.382,164.151,3698.36,-10746.4,487.663,-24.8209,-36.3692,111.862,9227.01,-254.193,529.571,-21.9394,1.12808,2.43767
4.125,34205.5,6335.73,-7197.45,-146.127,160.947,78.7189,5841.78,1945.89,8660.67,-5.58488,-154.551,10.4182,-30571.5,12352.0,-1314.73,37.3256,-86.3042,199.328,1809.29,-11629.5,-1599.76,45.3511,2.99502,108.753,19911.2,24388.4,2542.89,79.5447,319.574,168.767,3698.15,-10832.3,544.387,-25.1582,-34.9023,111.273,9258.46,-219.706,586.831,-23.973,1.42358,3.13346
4.126,34430.8,6674.59,-7530.34,-150.181,155.949,76.4228,5818.98,1961.4,8656.97,-5.85277,-156.154,10.5162,-31275.2,11886.4,-1009.22,39.2564,-90.2527,194.463,1914.61,-11661.0,-1573.41,45.5767,3.46842,110.011,20306.7,24446.3,2992.45,69.2678,324.022,172.607,3677.78,-10922.7,622.154,-25.39,-33.205,110.66,9268.37,-175.884,603.543,-25.638,1.88008,3.81596
4.127,34656.0,7013.44,-7863.22,-154.234,150.95,74.1267,5796.18,1976.91,8653.28,-6.12066,-157.757,10.6142,-31978.9,11420.7,-703.707,41.1873,-94.2012,189.598,2019.93,-11692.6,-1547.05,45.8023,3.94182,111.269,20702.2,24504.1,3442.01,58.9909,328.47,176.448,3657.41,-11013.2,699.92,-25.6218,-31.5077,110.046,9278.27,-132.063,620.254,-27.3031,2.33658,4.49845
4.128,34881.3,7352.29,-8196.11,-158.288,145.951,71.8306,5773.38,1992.42,8649.58,-6.38855,-159.36,10.7123,-32682.6,10955.1,-398.197,43.1181,-98.1497,184.733,2125.25,-11724.2,-1520.69,46.0279,4.41521,112.528,21097.7,24562.0,3891.58,48.714,332.918,180.288,3637.04,-11103.6,777.687,-25.8536,-29.8104,109.432,9288.17,-88.2413,636.966,-28.9681,2.79308,5.18094
4.129,35116.7,7667.54,-8540.63,-162.032,140.986,69.4966,5752.27,1999.91,8646.45,-6.65554,-160.976,10.8149,-33368.1,10463.9,-107.738,45.0061,-102.018,179.802,2223.21,-11751.5,-1489.75,46.2648,4.90138,113.802,21501.3,24581.4,4352.0,38.909,336.378,183.76,3617.36,-11194.7,860.972,-26.0767,-28.1309,108.759,9301.39,-44.6764,660.662,-30.535,3.22727,5.85188
4.13,35433.1,7793.95,-8978.28,-163.296,136.292,66.8597,5744.72,1943.27,8647.92,-6.91543,-162.694,10.9543,-33908.2,9767.45,62.3245,46.5509,-105.244,174.336,2262.33,-11744.8,-1422.09,46.5918,5.48974,115.206,21969.5,24292.8,4899.33,32.8792,331.938,184.286,3603.24,-11291.3,988.404,-26.2301,-26.5935,107.61,9341.08,-3.16391,740.241,-31.3167,3.48301,6.43044
4.131,35749.6,7920.35,-9415.92,-164.561,131.599,64.2227,5737.17,1886.63,8649.39,-7.17532,-164.412,11.0938,-34448.4,9071.03,232.387,48.0958,-108.471,168.871,2301.45,-11738.1,-1354.44,46.9189,6.07809,116.61,22437.6,24004.2,5446.66,26.8494,327.497,184.813,3589.11,-11388.0,1115.84,-26.3836,-25.0562,106.462,9380.77,38.3486,819.82,-32.0985,3.73875,7.009
4.132,36066.0,8046.76,-9853.57,-165.825,126.906,61.5858,5729.62,1829.98,8650.85,-7.4352,-166.13,11.2332,-34988.5,8374.6,402.449,49.6407,-111.697,163.405,2340.56,-11731.4,-1286.79,47.2459,6.66645,118.014,22905.8,23715.6,5993.99,20.8196,323.057,185.339,3574.99,-11484.7,1243.27,-26.537,-23.5188,105.314,9420.46,79.8611,899.399,-32.8802,3.99449,7.58756
4.133,36382.4,8173.16,-10291.2,-167.089,122.212,58.9489,5722.07,1773.34,8652.32,-7.69509,-167.848,11.3726,-35528.7,7678.18,572.511,51.1856,-114.923,157.94,2379.68,-11724.7,-1219.13,47.573,7.2548,119.418,23374.0,23427.0,6541.32,14.7897,318.617,185.865,3560.87,-11581.3,1370.7,-26.6905,-21.9815,104.165,9460.15,121.374,978.978,-33.662,4.25023,8.16611
4.134,36731.2,8226.83,-10831.3,-166.35,118.376,55.8678,5738.51,1686.25,8651.51,-7.90155,-169.641,11.3594,-35873.6,7078.76,679.103,52.2271,-116.91,151.199,2393.94,-11748.0,-1151.77,47.7257,8.0039,120.869,23897.2,22907.4,6867.71,7.82174,307.851,183.165,3558.33,-11646.5,1472.03,-26.6147,-20.6132,102.786,9462.71,184.373,1031.24,-34.0889,4.12664,8.74701
4.135,37096.1,8244.13,-11422.5,-164.609,114.968,52.5647,5766.95,1583.93,8649.57,-8.08128,-171.473,11.2698,-36121.0,6527.84,753.961,53.0169,-118.277,143.819,2395.77,-11786.3,-1084.56,47.7913,8.83336,122.344,24448.0,22272.4,7083.65,0.384643,293.924,178.852,3561.59,-11696.0,1560.31,-26.4243,-19.3295,101.29,9446.7,258.117,1069.84,-34.3384,3.8134,9.32908
4.136,37461.1,8261.43,-12013.8,-162.868,111.56,49.2616,5795.39,1481.62,8647.62,-8.26102,-173.305,11.1802,-36368.3,5976.92,828.818,53.8067,-119.643,136.44,2397.6,-11824.6,-1017.34,47.857,9.66283,123.819,24998.8,21637.3,7299.58,-7.05246,279.996,174.538,3564.85,-11745.5,1648.58,-26.2338,-18.0458,99.7951,9430.69,331.86,1108.45,-34.588,3.50015,9.91115
4.137,37826.1,8278.73,-12605.0,-161.127,108.152,45.9585,5823.83,1379.3,8645.68,-8.44076,-175.137,11.0906,-36615.6,5425.99,903.676,54.5965,-121.01,129.06,2399.43,-11862.9,-950.124,47.9226,10.4923,125.294,25549.6,21002.3,7515.51,-14.4896,266.069,170.225,3568.11,-11795.0,1736.86,-26.0434,-16.7621,98.2998,9414.68,405.603,1147.05,-34.8375,3.1869,10.4932
4.138,38145.1,8288.85,-13190.7,-158.741,104.967,42.4132,5860.57,1271.45,8648.11,-8.62754,-176.951,10.9593,-36778.3,4899.43,970.093,55.1852,-121.883,121.357,2398.22,-11891.4,-862.039,47.988,11.34,126.757,26076.6,20395.1,7728.88,-23.0732,250.126,165.149,3563.28,-11843.6,1812.73,-25.7121,-15.6177,96.8122,9400.47,484.782,1172.28,-35.074,2.7199,11.0697
4.139,38303.4,8273.83,-13757.0,-154.101,102.566,38.0204,5926.35,1144.19,8665.83,-8.83901,-178.705,10.6825,-36644.6,4458.12,1006.97,55.0699,-121.028,112.522,2386.36,-11885.6,-700.911,48.0526,12.2515,128.176,26520.3,19885.3,7933.28,-35.6696,227.132,157.405,3530.11,-11889.0,1845.19,-24.888,-14.9613,95.3519,9392.55,582.983,1150.7,-35.2648,1.71474,11.6264
4.14,38461.6,8258.81,-14323.2,-149.461,100.164,33.6276,5992.13,1016.93,8683.55,-9.05048,-180.46,10.4056,-36511.0,4016.8,1043.84,54.9546,-120.173,103.687,2374.5,-11879.9,-539.783,48.1172,13.163,129.595,26964.1,19375.5,8137.69,-48.2659,204.139,149.661,3496.93,-11934.4,1877.64,-24.0639,-14.3049,93.8916,9384.63,681.184,1129.12,-35.4557,0.709593,12.1831
4.141,38619.9,8243.79,-14889.5,-144.821,97.7622,29.2348,6057.92,889.676,8701.27,-9.26195,-182.214,10.1287,-36377.3,3575.49,1080.72,54.8393,-119.319,94.8523,2362.64,-11874.1,-378.655,48.1818,14.0746,131.015,27407.8,18865.7,8342.09,-60.8623,181.145,141.917,3463.76,-11979.8,1910.09,-23.2397,-13.6484,92.4312,9376.71,779.384,1107.54,-35.6465,-0.295559,12.7398
4.142,38778.2,8228.77,-15455.7,-140.181,95.3604,24.842,6123.7,762.418,8718.99,-9.47342,-183.968,9.85177,-36243.6,3134.18,1117.59,54.724,-118.464,86.0172,2350.78,-11868.4,-217.527,48.2464,14.9861,132.434,27851.6,18355.9,8546.49,-73.4587,158.151,134.173,3430.59,-12025.3,1942.54,-22.4156,-12.992,90.9709,9368.79,877.585,1085.96,-35.8374,-1.30071,13.2965
4.143,38596.7,8193.54,-15852.1,-133.591,91.9798,19.7748,6165.66,649.282,8728.46,-9.85871,-185.718,9.40549,-35923.8,2854.72,1109.03,54.1458,-116.056,76.3022,2375.31,-11869.9,-53.0093,48.5911,16.0611,133.672,28062.8,18044.3,8787.83,-88.7079,131.327,126.318,3396.53,-12070.1,1923.49,-21.7869,-12.8577,89.3853,9368.64,993.762,982.85,-35.709,-2.30855,14.0486
4.144,38318.3,8152.54,-16199.9,-126.445,88.3196,14.5149,6200.82,540.18,8735.57,-10.2937,-187.467,8.9108,-35550.9,2621.52,1087.5,53.4354,-113.203,66.3358,2410.25,-11873.5,112.477,49.0158,17.1828,134.859,28207.7,17789.3,9039.74,-104.715,103.408,118.432,3362.21,-12114.9,1889.72,-21.2141,-12.8726,87.764,9370.71,1115.07,856.449,-35.4894,-3.31715,14.8564
4.145,38039.8,8111.53,-16547.8,-119.298,84.6593,9.25494,6235.98,431.079,8742.68,-10.7286,-189.216,8.41611,-35177.9,2388.31,1065.96,52.725,-110.351,56.3693,2445.18,-11877.1,277.964,49.4405,18.3045,136.046,28352.5,17534.3,9291.64,-120.722,75.4888,110.545,3327.89,-12159.6,1855.95,-20.6413,-12.8876,86.1427,9372.77,1236.39,730.047,-35.2699,-4.32575,15.6642
4.146,37761.4,8070.53,-16895.6,-112.151,80.999,3.995,6271.14,321.977,8749.79,-11.1636,-190.965,7.92143,-34804.9,2155.1,1044.43,52.0146,-107.499,46.4028,2480.12,-11880.7,443.45,49.8652,19.4261,137.233,28497.3,17279.2,9543.54,-136.729,47.5698,102.659,3293.57,-12204.3,1822.18,-20.0684,-12.9025,84.5214,9374.84,1357.7,603.646,-35.0503,-5.33435,16.4721
4.147,37375.6,8021.42,-17161.0,-104.522,76.5592,-1.41884,6286.4,206.669,8780.08,-11.6758,-192.872,7.35411,-34316.0,1987.03,1064.48,50.8685,-104.278,36.3688,2524.4,-11899.2,606.348,50.2919,20.4206,138.423,28488.0,16981.8,9780.72,-151.344,20.5134,94.9366,3246.84,-12217.4,1786.23,-19.4205,-13.0891,82.8162,9387.07,1483.54,452.973,-34.5568,-6.2228,17.2525
4.148,36775.4,7956.12,-17261.5,-95.926,70.5602,-7.14051,6261.85,78.9493,8856.71,-12.3428,-195.096,6.64152,-33595.1,1949.24,1167.72,48.851,-100.319,26.1996,2587.4,-11947.8,764.068,50.7228,21.1605,139.62,28170.4,16599.7,9988.46,-163.176,-4.81773,87.5431,3175.31,-12167.4,1745.92,-18.6223,-13.6192,80.9434,9419.64,1618.43,253.754,-33.5154,-6.87094,17.978
4.149,36175.2,7890.81,-17362.0,-87.3304,64.5613,-12.8622,6237.3,-48.7707,8933.35,-13.0098,-197.319,5.92893,-32874.2,1911.45,1270.96,46.8335,-96.3607,16.0305,2650.39,-11996.4,921.789,51.1537,21.9005,140.817,27852.8,16217.6,10196.2,-175.008,-30.1489,80.1496,3103.78,-12117.4,1705.61,-17.8241,-14.1492,79.0706,9452.21,1753.32,54.5354,-32.474,-7.51908,18.7035
4.15,35575.0,7825.5,-17462.5,-78.7348,58.5624,-18.5839,6212.75,-176.491,9009.99,-13.6768,-199.543,5.21634,-32153.3,1873.65,1374.2,44.8159,-92.4019,5.86129,2713.38,-12044.9,1079.51,51.5845,22.6404,142.014,27535.2,15835.5,10403.9,-186.84,-55.4801,72.756,3032.25,-12067.4,1665.3,-17.0259,-14.6792,77.1977,9484.79,1888.22,-144.683,-31.4326,-8.16722,19.429
4.151,34974.8,7760.2,-17562.9,-70.1392,52.5634,-24.3055,6188.2,-304.211,9086.62,-14.3438,-201.767,4.50376,-31432.4,1835.86,1477.44,42.7984,-88.443,-4.30788,2776.38,-12093.5,1237.23,52.0154,23.3804,143.211,27217.7,15453.4,10611.7,-198.672,-80.8112,65.3625,2960.71,-12017.3,1624.99,-16.2277,-15.2092,75.3249,9517.36,2023.11,-343.902,-30.3913,-8.81537,20.1545
4.152,34253.8,7559.1,-17456.2,-60.8322,44.7759,-29.9935,6177.56,-379.966,9124.68,-14.8601,-204.199,3.70697,-30619.6,2011.52,1485.02,40.246,-83.4869,-13.5748,2817.18,-12124.0,1322.46,52.4337,24.3134,144.429,26676.5,14744.5,10866.6,-198.14,-98.0752,57.6032,2902.27,-11970.2,1507.67,-15.3197,-15.9571,73.9546,9569.04,2093.75,-547.058,-29.4307,-9.42544,20.8933
4.153,33517.8,7341.03,-17323.5,-51.4363,36.7649,-35.6772,6168.67,-449.225,9157.91,-15.3577,-206.656,2.89965,-29795.3,2213.85,1480.64,37.6268,-78.406,-22.7289,2855.21,-12152.2,1398.62,52.8505,25.2706,145.649,26107.3,13994.9,11127.4,-196.064,-114.331,49.7981,2845.46,-11923.5,1380.71,-14.398,-16.7322,72.6472,9623.1,2156.35,-750.706,-28.4802,-10.0308,21.6337
4.154,32781.9,7122.96,-17190.8,-42.0404,28.7539,-41.361,6159.77,-518.484,9191.14,-15.8553,-209.114,2.09233,-28971.0,2416.18,1476.26,35.0076,-73.3252,-31.883,2893.24,-12180.4,1474.79,53.2673,26.2278,146.869,25538.2,13245.2,11388.3,-193.987,-130.586,41.9931,2788.65,-11876.8,1253.75,-13.4764,-17.5073,71.3397,9677.16,2218.95,-954.354,-27.5298,-10.6361,22.3741
4.155,32045.9,6904.9,-17058.1,-32.6445,20.7428,-47.0447,6150.87,-587.744,9224.38,-16.3528,-211.572,1.28502,-28146.8,2618.52,1471.88,32.3885,-68.2443,-41.0372,2931.27,-12208.6,1550.95,53.684,27.1851,148.09,24969.0,12495.6,11649.1,-191.911,-146.842,34.1881,2731.84,-11830.1,1126.8,-12.5547,-18.2824,70.0322,9731.23,2281.55,-1158.0,-26.5793,-11.2414,23.1145
4.156,31354.4,6670.96,-16830.7,-23.2753,12.4882,-52.4294,6133.7,-641.742,9256.13,-16.8616,-213.983,0.47126,-27411.3,2842.49,1398.71,29.5334,-62.6549,-49.4937,2985.55,-12250.6,1609.64,54.0903,28.0621,149.226,24341.7,11779.3,11822.5,-184.102,-156.864,27.2143,2674.75,-11790.1,999.147,-11.6132,-18.9621,68.8364,9788.82,2310.04,-1379.74,-25.854,-11.881,23.8844
4.157,30718.6,6417.19,-16484.8,-13.9396,3.92912,-57.4401,6106.21,-676.663,9286.04,-17.3846,-216.336,-0.350545,-26787.0,3093.52,1239.57,26.3834,-56.4298,-57.0781,3060.16,-12309.8,1646.48,54.4833,28.8389,150.259,23641.4,11104.7,11886.7,-169.128,-159.095,21.2797,2617.31,-11758.4,870.627,-10.6472,-19.5226,67.78,9850.83,2295.89,-1624.09,-25.4102,-12.5634,24.691
4.158,30082.8,6163.42,-16139.0,-4.60391,-4.62995,-62.4509,6078.72,-711.584,9315.96,-17.9075,-218.689,-1.17235,-26162.6,3344.55,1080.42,23.2335,-50.2047,-64.6626,3134.77,-12369.0,1683.32,54.8763,29.6157,151.292,22941.2,10430.1,11950.8,-154.154,-161.325,15.345,2559.87,-11726.8,742.107,-9.68109,-20.0831,66.7237,9912.83,2281.74,-1868.43,-24.9664,-13.2458,25.4977
4.159,29447.0,5909.65,-15793.1,4.73179,-13.189,-67.4617,6051.22,-746.505,9345.87,-18.4304,-221.043,-1.99416,-25538.2,3595.57,921.279,20.0835,-43.9796,-72.247,3209.37,-12428.3,1720.16,55.2694,30.3925,152.324,22241.0,9755.56,12015.0,-139.18,-163.556,9.4104,2502.43,-11695.2,613.588,-8.71501,-20.6436,65.6673,9974.84,2267.59,-2112.78,-24.5226,-13.9282,26.3043
4.16,28811.1,5655.88,-15447.3,14.0675,-21.7481,-72.4724,6023.73,-781.427,9375.78,-18.9534,-223.396,-2.81596,-24913.8,3846.6,762.134,16.9336,-37.7545,-79.8315,3283.98,-12487.5,1757.0,55.6624,31.1693,153.357,21540.8,9080.99,12079.2,-124.207,-165.786,3.47576,2444.99,-11663.5,485.068,-7.74894,-21.204,64.611,10036.8,2253.44,-2357.13,-24.0788,-14.6105,27.111
4.161,28565.7,5492.03,-14982.7,21.5664,-29.2442,-76.4578,6009.25,-757.679,9448.22,-19.5105,-226.019,-3.60565,-24571.3,4038.39,666.294,14.0615,-31.1406,-86.9444,3305.33,-12576.5,1698.14,56.1235,31.5688,154.441,20775.5,8778.75,11920.9,-107.433,-158.933,-0.0514392,2425.04,-11640.5,389.194,-6.64876,-21.0229,63.7508,10147.3,2180.4,-2537.22,-23.678,-15.5477,27.5317
4.162,28320.2,5328.18,-14518.1,29.0653,-36.7404,-80.4431,5994.77,-733.931,9520.67,-20.0677,-228.641,-4.39534,-24228.8,4230.19,570.454,11.1894,-24.5266,-94.0573,3326.68,-12665.5,1639.29,56.5847,31.9683,155.526,20010.1,8476.52,11762.7,-90.6594,-152.079,-3.57864,2405.08,-11617.4,293.321,-5.54858,-20.8417,62.8907,10257.8,2107.36,-2717.31,-23.2772,-16.4849,27.9523
4.163,28074.7,5164.34,-14053.5,36.5643,-44.2365,-84.4284,5980.28,-710.183,9593.12,-20.6248,-231.264,-5.18503,-23886.2,4421.99,474.615,8.31729,-17.9126,-101.17,3348.03,-12754.5,1580.44,57.0458,32.3678,156.61,19244.8,8174.28,11604.4,-73.8858,-145.225,-7.10584,2385.12,-11594.3,197.447,-4.44841,-20.6606,62.0306,10368.2,2034.32,-2897.4,-22.8764,-17.4221,28.373
4.164,27829.2,5000.49,-13588.9,44.0632,-51.7327,-88.4138,5965.8,-686.435,9665.57,-21.182,-233.887,-5.97472,-23543.7,4613.79,378.775,5.4452,-11.2987,-108.283,3369.39,-12843.5,1521.58,57.507,32.7673,157.695,18479.4,7872.04,11446.2,-57.1122,-138.372,-10.633,2365.16,-11571.3,101.573,-3.34823,-20.4794,61.1705,10478.7,1961.28,-3077.5,-22.4756,-18.3592,28.7937
4.165,27736.4,4871.17,-13090.8,50.0767,-58.2424,-91.7304,5950.36,-654.363,9708.26,-21.4544,-236.616,-6.57728,-23346.3,4783.97,298.662,2.9933,-5.43433,-115.062,3385.54,-12919.1,1444.22,57.9202,33.0904,158.739,17734.2,7643.14,11194.1,-43.5063,-131.288,-13.7015,2366.13,-11543.5,11.5638,-2.1306,-19.8443,60.5182,10594.4,1830.93,-3269.52,-22.4725,-19.1183,29.2772
4.166,27765.9,4769.46,-12566.0,54.9017,-63.963,-94.512,5934.15,-615.632,9727.15,-21.499,-239.43,-7.03015,-23265.1,4936.86,231.132,0.87755,-0.169721,-121.573,3397.53,-12984.0,1352.04,58.295,33.3524,159.751,17005.1,7472.91,10867.1,-32.4344,-124.021,-16.4031,2383.84,-11512.0,-73.7541,-0.819005,-18.8459,60.0323,10714.3,1654.74,-3471.09,-22.7875,-19.7349,29.8111
4.167,27795.4,4667.76,-12041.1,59.7268,-69.6836,-97.2936,5917.95,-576.901,9746.04,-21.5436,-242.244,-7.48302,-23183.8,5089.74,163.602,-1.2382,5.09489,-128.084,3409.52,-13049.0,1259.87,58.6698,33.6143,160.763,16276.1,7302.67,10540.1,-21.3626,-116.754,-19.1047,2401.55,-11480.5,-159.072,0.492588,-17.8476,59.5463,10834.1,1478.56,-3672.66,-23.1026,-20.3515,30.345
4.168,27824.9,4566.06,-11516.3,64.5518,-75.4042,-100.075,5901.74,-538.17,9764.93,-21.5883,-245.058,-7.93589,-23102.6,5242.63,96.0712,-3.35394,10.3595,-134.595,3421.51,-13113.9,1167.7,59.0446,33.8763,161.775,15547.0,7132.44,10213.0,-10.2908,-109.487,-21.8062,2419.26,-11449.0,-244.39,1.80418,-16.8492,59.0604,10954.0,1302.37,-3874.23,-23.4176,-20.968,30.8789
4.169,27856.8,4455.64,-10986.9,69.0935,-80.8917,-102.738,5887.4,-489.616,9780.0,-21.5912,-247.873,-8.36758,-23025.3,5385.59,36.8995,-5.24261,15.414,-141.038,3427.15,-13177.0,1069.3,59.4042,34.0971,162.775,14813.2,6999.96,9866.28,-0.0336932,-102.427,-24.3669,2436.99,-11420.5,-321.22,3.15923,-15.7496,58.6256,11067.1,1115.19,-4070.0,-23.7478,-21.4734,31.4354
4.17,27907.8,4275.49,-10421.5,71.3681,-84.515,-104.449,5887.98,-362.478,9764.54,-21.2605,-250.693,-8.62979,-22979.8,5449.11,44.5972,-5.31466,18.7878,-146.935,3381.94,-13225.4,921.14,59.6418,33.9889,163.677,14041.6,7169.54,9361.79,3.70572,-97.0235,-25.8008,2454.95,-11416.4,-330.15,4.86197,-13.8396,58.6004,11126.0,840.118,-4219.36,-24.1993,-21.0888,32.1718
4.171,27958.7,4095.33,-9856.18,73.6428,-88.1383,-106.16,5888.57,-235.34,9749.08,-20.9298,-253.512,-8.89201,-22934.2,5512.63,52.2949,-5.38671,22.1617,-152.832,3336.74,-13273.9,772.978,59.8795,33.8807,164.578,13270.1,7339.11,8857.3,7.44513,-91.6202,-27.2346,2472.9,-11412.4,-339.08,6.5647,-11.9297,58.5751,11184.9,565.042,-4368.72,-24.6509,-20.7043,32.9082
4.172,28009.7,3915.18,-9290.81,75.9174,-91.7615,-107.871,5889.16,-108.203,9733.62,-20.5991,-256.331,-9.15422,-22888.7,5576.14,59.9927,-5.45876,25.5355,-158.728,3291.53,-13322.3,624.816,60.1171,33.7725,165.48,12498.5,7508.69,8352.81,11.1845,-86.217,-28.6684,2490.86,-11408.4,-348.01,8.26743,-10.0198,58.5499,11243.8,289.965,-4518.07,-25.1024,-20.3197,33.6446
4.173,28060.7,3735.02,-8725.45,78.192,-95.3848,-109.582,5889.75,18.9353,9718.15,-20.2684,-259.15,-9.41643,-22843.1,5639.66,67.6904,-5.5308,28.9093,-164.625,3246.33,-13370.7,476.654,60.3548,33.6643,166.381,11726.9,7678.26,7848.32,14.9239,-80.8137,-30.1023,2508.82,-11404.3,-356.94,9.97016,-8.10983,58.5247,11302.7,14.8886,-4667.43,-25.5539,-19.9351,34.381
4.174,28053.5,3469.86,-8166.03,79.1657,-97.913,-110.826,5889.45,170.607,9730.63,-19.9509,-261.981,-9.55619,-22831.9,5718.91,31.2398,-4.75956,31.0164,-170.148,3200.31,-13408.3,326.684,60.3736,33.4096,167.349,10974.8,7953.13,7365.13,15.2929,-77.0638,-30.4275,2539.76,-11440.9,-326.474,11.8561,-5.73463,58.4679,11340.9,-252.962,-4763.49,-25.4298,-19.0242,34.7296
4.175,28017.1,3162.2,-7609.58,79.4889,-99.8936,-111.837,5888.71,334.546,9757.08,-19.64,-264.817,-9.63473,-22837.8,5806.01,-27.2849,-3.56667,32.4901,-175.484,3153.87,-13440.5,175.811,60.283,33.0815,168.351,10232.5,8280.64,6892.6,13.9766,-74.1405,-30.1986,2577.19,-11497.9,-276.31,13.8337,-3.1268,58.3955,11368.8,-517.201,-4832.89,-25.0179,-17.85,34.8842
4.176,27980.7,2854.53,-7053.13,79.8121,-101.874,-112.847,5887.96,498.485,9783.53,-19.3292,-267.654,-9.71327,-22843.7,5893.12,-85.8096,-2.37379,33.9639,-180.819,3107.44,-13472.6,24.9376,60.1923,32.7535,169.353,9490.17,8608.16,6420.06,12.6603,-71.2172,-29.9696,2614.63,-11554.9,-226.146,15.8113,-0.518972,58.323,11396.6,-781.439,-4902.3,-24.606,-16.6759,35.0388
4.177,27944.4,2546.87,-6496.68,80.1353,-103.855,-113.857,5887.22,662.424,9809.99,-19.0183,-270.49,-9.79181,-22849.6,5980.22,-144.334,-1.1809,35.4376,-186.155,3061.0,-13504.8,-125.936,60.1017,32.4254,170.354,8747.84,8935.67,5947.52,11.344,-68.294,-29.7406,2652.06,-11611.8,-175.982,17.7889,2.08886,58.2505,11424.5,-1045.68,-4971.71,-24.1941,-15.5017,35.1934
4.178,27862.5,2239.86,-5976.72,80.07,-105.523,-114.859,5880.74,819.673,9829.59,-18.6501,-273.332,-9.8085,-22815.2,6093.7,-214.22,0.330181,36.5883,-191.391,3026.21,-13529.0,-286.22,60.0231,32.034,171.37,8018.68,9242.46,5520.45,9.60011,-66.0932,-29.212,2693.68,-11665.2,-114.915,19.7499,4.74274,58.1642,11445.2,-1298.34,-5019.61,-23.6777,-14.4203,35.2978
4.179,27621.3,1935.13,-5584.46,78.6451,-106.097,-115.829,5854.18,953.508,9825.23,-18.0816,-276.197,-9.60872,-22639.3,6299.46,-323.868,2.95492,36.6086,-196.276,3032.16,-13525.7,-479.445,59.9869,31.4204,172.435,7335.62,9476.7,5252.5,6.35943,-66.4215,-27.6351,2749.96,-11705.8,-15.6832,21.653,7.5578,58.0301,11440.9,-1510.49,-4992.22,-22.7955,-13.6634,35.2264
4.18,27380.1,1630.4,-5192.2,77.2203,-106.67,-116.798,5827.62,1087.34,9820.87,-17.513,-279.061,-9.40894,-22463.4,6505.22,-433.517,5.57966,36.6289,-201.161,3038.11,-13522.4,-672.669,59.9506,30.8068,173.5,6652.56,9710.93,4984.55,3.11875,-66.7498,-26.0581,2806.24,-11746.4,83.5481,23.5561,10.3729,57.896,11436.7,-1722.64,-4964.83,-21.9134,-12.9065,35.155
4.181,27138.9,1325.67,-4799.94,75.7954,-107.244,-117.768,5801.06,1221.18,9816.51,-16.9444,-281.926,-9.20916,-22287.5,6710.98,-543.165,8.2044,36.6492,-206.046,3044.06,-13519.1,-865.894,59.9143,30.1933,174.565,5969.51,9945.17,4716.61,-0.12193,-67.078,-24.4812,2862.52,-11787.0,182.779,25.4591,13.1879,57.7618,11432.4,-1934.8,-4937.45,-21.0313,-12.1496,35.0836
4.182,26897.8,1020.94,-4407.68,74.3705,-107.818,-118.738,5774.5,1355.02,9812.15,-16.3758,-284.79,-9.00938,-22111.6,6916.75,-652.814,10.8291,36.6695,-210.931,3050.01,-13515.8,-1059.12,59.878,29.5797,175.63,5286.45,10179.4,4448.66,-3.36261,-67.4063,-22.9042,2918.8,-11827.6,282.011,27.3622,16.003,57.6277,11428.1,-2146.95,-4910.06,-20.1491,-11.3928,35.0122
4.183,26553.0,640.383,-4004.89,72.5421,-108.108,-120.923,5711.81,1391.23,9823.12,-15.4616,-287.95,-8.88831,-21782.4,7254.58,-771.715,15.3364,35.6663,-215.002,3049.63,-13527.2,-1199.88,59.8783,28.9263,176.668,4660.43,10214.1,4233.92,-6.47773,-70.2171,-20.5761,2979.87,-11900.1,426.668,29.2727,18.4488,57.3496,11399.8,-2330.47,-4878.23,-19.4297,-11.0415,34.6741
4.184,26178.7,238.156,-3599.09,70.5984,-108.317,-123.455,5638.78,1399.56,9838.47,-14.4486,-291.194,-8.78972,-21409.4,7630.16,-893.26,20.3815,34.3707,-218.841,3047.43,-13542.9,-1325.65,59.8891,28.2616,177.699,4050.7,10191.8,4034.38,-9.55698,-73.7372,-18.0333,3042.31,-11981.7,584.305,31.1852,20.7892,57.0304,11364.7,-2505.8,-4845.13,-18.7567,-10.806,34.26
4.185,25804.4,-164.071,-3193.29,68.6546,-108.527,-125.987,5565.76,1407.89,9853.82,-13.4356,-294.438,-8.69114,-21036.4,8005.73,-1014.8,25.4266,33.0751,-222.679,3045.23,-13558.5,-1451.42,59.8998,27.5969,178.731,3440.97,10169.5,3834.84,-12.6362,-77.2572,-15.4905,3104.74,-12063.3,741.941,33.0978,23.1295,56.7113,11329.5,-2681.14,-4812.04,-18.0837,-10.5706,33.8458
4.186,25430.1,-566.298,-2787.49,66.7109,-108.736,-128.519,5492.74,1416.22,9869.17,-12.4226,-297.681,-8.59255,-20663.4,8381.3,-1136.35,30.4718,31.7795,-226.517,3043.03,-13574.1,-1577.19,59.9105,26.9322,179.762,2831.24,10147.3,3635.3,-15.7155,-80.7773,-12.9477,3167.18,-12144.8,899.578,35.0104,25.4698,56.3921,11294.4,-2856.48,-4778.94,-17.4108,-10.3352,33.4316
4.187,24867.2,-944.173,-2395.23,64.9703,-109.332,-131.891,5437.33,1407.38,9898.79,-11.2027,-301.088,-8.42823,-20047.3,8883.38,-1208.34,36.6348,30.2077,-229.396,3036.39,-13599.2,-1680.6,60.009,26.1454,180.77,2256.35,10040.8,3434.44,-18.8889,-85.0544,-10.0104,3229.07,-12217.3,1049.13,36.8503,27.5018,56.0167,11272.4,-3034.52,-4749.74,-17.0207,-10.1356,32.8824
4.188,23927.3,-1273.34,-2030.05,63.636,-110.703,-136.942,5417.15,1364.22,9956.91,-9.56871,-304.819,-8.13245,-18944.9,9638.46,-1181.24,45.0338,28.0838,-230.356,3020.88,-13643.2,-1739.28,60.283,25.1144,181.733,1751.16,9766.14,3230.94,-22.2506,-90.8457,-6.28407,3289.85,-12271.5,1182.5,38.5449,28.917,55.5288,11276.9,-3217.97,-4728.33,-17.1964,-10.0076,32.0634
4.189,22987.4,-1602.52,-1664.86,62.3017,-112.074,-141.993,5396.98,1321.06,10015.0,-7.93476,-308.551,-7.83667,-17842.5,10393.5,-1154.14,53.4327,25.9599,-231.315,3005.36,-13687.1,-1797.97,60.557,24.0835,182.696,1245.96,9491.44,3027.44,-25.6123,-96.637,-2.55776,3350.63,-12325.8,1315.88,40.2395,30.3322,55.041,11281.4,-3401.41,-4706.92,-17.3721,-9.87961,31.2445
4.19,22047.5,-1931.69,-1299.67,60.9674,-113.445,-147.044,5376.8,1277.89,10073.2,-6.30082,-312.283,-7.54089,-16740.2,11148.6,-1127.03,61.8317,23.836,-232.275,2989.84,-13731.1,-1856.66,60.831,23.0525,183.659,740.759,9216.75,2823.94,-28.9741,-102.428,1.16855,3411.42,-12380.0,1449.25,41.934,31.7474,54.5531,11285.8,-3584.86,-4685.51,-17.5478,-9.75162,30.4255
4.191,21107.6,-2260.86,-934.486,59.6331,-114.816,-152.095,5356.62,1234.73,10131.3,-4.66687,-316.014,-7.2451,-15637.8,11903.7,-1099.93,70.2307,21.712,-233.234,2974.33,-13775.1,-1915.35,61.1049,22.0216,184.622,235.561,8942.06,2620.44,-32.3358,-108.22,4.89486,3472.2,-12434.3,1582.63,43.6286,33.1627,54.0652,11290.3,-3768.31,-4664.1,-17.7235,-9.62363,29.6065
4.192,17087.2,-2869.45,1038.29,45.0517,-139.869,-177.626,5313.56,1202.38,10260.9,-2.56281,-320.046,-6.82904,-12940.6,13335.2,-1129.85,99.3524,21.377,-219.561,2990.21,-13835.4,-1935.42,61.3596,20.5589,185.57,-221.737,8611.87,2635.94,-37.2323,-115.517,9.78421,3519.01,-12467.3,1612.66,44.7265,33.3836,53.2123,11416.6,-3977.21,-4276.4,-20.5598,-10.6697,28.7699
4.193,12681.8,-3512.96,3212.01,28.8145,-167.882,-205.717,5267.64,1171.38,10399.5,-0.399973,-324.115,-6.39793,-10044.1,14851.2,-1166.9,131.064,21.2656,-204.059,3010.03,-13897.7,-1950.66,61.6118,19.0423,186.515,-673.047,8274.74,2678.82,-42.3206,-123.002,14.819,3564.08,-12497.8,1629.77,45.7499,33.4553,52.3136,11558.2,-4189.29,-3842.92,-23.7286,-11.8625,27.9311
4.194,8276.35,-4156.48,5385.74,12.5773,-195.895,-233.807,5221.72,1140.38,10538.0,1.76286,-328.183,-5.96683,-7147.61,16367.2,-1203.95,162.776,21.1541,-188.557,3029.84,-13960.0,-1965.91,61.8641,17.5256,187.46,-1124.36,7937.61,2721.69,-47.4089,-130.488,19.8537,3609.14,-12528.2,1646.88,46.7732,33.527,51.415,11699.8,-4401.37,-3409.43,-26.8975,-13.0552,27.0924
4.195,3870.93,-4799.99,7559.46,-3.65994,-223.908,-261.898,5175.79,1109.38,10676.6,3.92569,-332.252,-5.53572,-4251.1,17883.2,-1241.0,194.489,21.0427,-173.055,3049.65,-14022.3,-1981.15,62.1163,16.009,188.406,-1575.67,7600.48,2764.57,-52.4973,-137.974,24.8884,3654.21,-12558.6,1663.99,47.7965,33.5987,50.5164,11841.4,-4613.45,-2975.95,-30.0663,-14.248,26.2536
4.196,-4253.71,-6492.17,13294.0,-24.9014,-273.102,-298.669,5139.03,1139.16,10930.8,6.04669,-336.88,-5.11999,-492.89,21143.3,-825.815,202.897,31.5484,-143.525,3122.41,-14113.9,-1948.02,62.7349,14.3448,189.333,-2017.31,7339.7,2803.88,-59.0396,-145.69,29.9616,3689.07,-12566.8,1599.34,48.1812,32.6022,49.562,12055.5,-4772.46,-2309.49,-34.7346,-16.595,25.9775
4.197,-17027.4,-9495.18,23479.4,-52.3981,-348.774,-346.292,5113.72,1244.91,11329.6,8.11541,-342.207,-4.72346,4342.45,26583.4,154.675,182.177,55.3256,-96.4603,3261.37,-14242.0,-1854.41,63.8114,12.4962,190.238,-2446.86,7174.35,2838.73,-67.3995,-153.695,35.0829,3711.19,-12547.3,1432.48,47.7674,30.2706,48.5381,12360.1,-4865.12,-1351.8,-41.2773,-20.3846,26.4048
4.198,-29801.0,-12498.2,33664.9,-79.8948,-424.446,-393.914,5088.41,1350.66,11728.4,10.1841,-347.534,-4.32694,9177.79,32023.5,1135.16,161.456,79.1028,-49.3959,3400.33,-14370.0,-1760.79,64.8879,10.6476,191.142,-2876.42,7009.0,2873.59,-75.7595,-161.701,40.2042,3733.31,-12527.8,1265.62,47.3537,27.9389,47.5142,12664.8,-4957.79,-394.109,-47.82,-24.1742,26.832
4.199,-42574.7,-15501.2,43850.3,-107.391,-500.118,-441.537,5063.1,1456.42,12127.2,12.2528,-352.861,-3.93042,14013.1,37463.7,2115.65,140.736,102.88,-2.33151,3539.28,-14498.1,-1667.18,65.9644,8.79894,192.047,-3305.97,6843.65,2908.45,-84.1194,-169.706,45.3255,3755.43,-12508.3,1098.76,46.94,25.6072,46.4903,12969.4,-5050.45,563.579,-54.3626,-27.9638,27.2592
4.2,-55348.4,-18504.2,54035.8,-134.888,-575.79,-489.159,5037.79,1562.17,12526.0,14.3216,-358.187,-3.5339,18848.5,42903.8,3096.14,120.015,126.657,44.7329,3678.24,-14626.2,-1573.57,67.0409,6.95033,192.952,-3735.52,6678.29,2943.3,-92.4793,-177.711,50.4467,3777.55,-12488.8,931.904,46.5262,23.2756,45.4664,13274.1,-5143.11,1521.27,-60.9053,-31.7535,27.6864
4.201,-57732.9,-16530.7,49400.7,-115.577,-592.056,-445.131,5021.81,1367.87,12607.5,14.4066,-364.213,-4.2064,25220.8,47145.0,8671.43,120.087,92.7402,53.6823,4209.65,-14944.4,-1139.82,69.0832,8.11106,192.721,-4091.53,6731.68,2687.69,-102.214,-184.251,55.0056,3828.87,-12477.9,602.43,44.402,19.5801,44.4184,13506.1,-5066.72,1864.24,-64.6579,-29.9812,29.8754
4.202,-60117.5,-14557.2,44765.7,-96.2653,-608.321,-401.103,5005.84,1173.56,12689.1,14.4916,-370.238,-4.87891,31593.1,51386.1,14246.7,120.158,58.8234,62.6316,4741.07,-15262.6,-706.078,71.1255,9.27179,192.491,-4447.54,6785.07,2432.09,-111.949,-190.791,59.5644,3880.2,-12466.9,272.956,42.2779,15.8845,43.3704,13738.2,-4990.33,2207.22,-68.4104,-28.2089,32.0644
4.203,-62502.0,-12583.7,40130.7,-76.9539,-624.587,-357.075,4989.86,979.257,12770.6,14.5766,-376.264,-5.55141,37965.3,55627.3,19822.0,120.23,24.9066,71.581,5272.48,-15580.9,-272.331,73.1679,10.4325,192.261,-4803.55,6838.45,2176.48,-121.684,-197.331,64.1232,3931.53,-12455.9,-56.5184,40.1537,12.189,42.3224,13970.2,-4913.94,2550.19,-72.163,-26.4366,34.2534
4.204,-64886.6,-10610.3,35495.7,-57.6425,-640.852,-313.047,4973.89,784.952,12852.2,14.6616,-382.289,-6.22392,44337.6,59868.5,25397.3,120.301,-9.01026,80.5304,5803.89,-15899.1,161.415,75.2102,11.5932,192.03,-5159.55,6891.84,1920.87,-131.418,-203.871,68.6821,3982.85,-12445.0,-385.993,38.0295,8.49349,41.2745,14202.2,-4837.55,2893.16,-75.9155,-24.6643,36.4424
4.205,-57150.7,-7888.07,29998.8,-38.6828,-621.802,-254.38,4901.26,666.247,13042.7,13.3168,-388.539,-7.34488,47102.3,58177.4,24856.8,95.7338,-20.7223,50.5187,6435.74,-16207.9,376.259,76.092,12.3258,191.675,-5296.29,7153.72,2078.42,-130.601,-213.188,72.4356,4065.8,-12507.5,-674.753,35.5126,5.40123,40.2409,14481.7,-4533.7,3342.7,-74.9775,-20.6094,38.2607
4.206,-41318.4,-4566.93,23812.5,-20.0046,-574.501,-184.002,4783.31,608.023,13320.5,10.8281,-394.969,-8.8246,46980.8,51740.5,19423.6,51.4555,-14.6705,-10.6618,7147.94,-16509.2,415.981,76.0455,12.7158,191.22,-5257.61,7582.4,2566.5,-121.341,-224.725,75.5448,4174.04,-12628.9,-930.941,32.6816,2.79158,39.2189,14799.1,-4047.88,3877.5,-70.2868,-14.7283,39.7825
4.207,-25486.2,-1245.78,17626.2,-1.32639,-527.199,-113.624,4665.36,549.798,13598.2,8.33941,-401.399,-10.3043,46859.4,45303.6,13990.4,7.17713,-8.61875,-71.8423,7860.14,-16810.4,455.703,75.9989,13.1059,190.765,-5218.92,8011.08,3054.57,-112.082,-236.262,78.6541,4282.27,-12750.2,-1187.13,29.8507,0.181924,38.1969,15116.6,-3562.06,4412.29,-65.5962,-8.84726,41.3043
4.208,-9653.9,2075.36,11440.0,17.3518,-479.898,-43.2463,4547.41,491.573,13875.9,5.8507,-407.829,-11.784,46737.9,38866.6,8557.2,-37.1012,-2.56698,-133.023,8572.34,-17111.7,495.425,75.9523,13.4959,190.31,-5180.24,8439.76,3542.65,-102.822,-247.799,81.7634,4390.51,-12871.6,-1443.32,27.0197,-2.42773,37.1749,15434.0,-3076.24,4947.08,-60.9056,-2.96618,42.8261
4.209,6349.61,5005.0,6185.97,33.213,-433.697,19.0076,4419.93,435.878,14099.8,3.51444,-414.224,-13.1364,46151.5,32470.1,3245.4,-82.3503,7.5476,-194.855,9253.49,-17403.3,486.775,76.1275,13.5797,189.958,-5060.82,8827.4,3921.41,-90.489,-259.339,84.1824,4495.68,-13020.6,-1643.18,24.3068,-4.98576,36.1323,15725.9,-2537.86,5554.1,-56.0577,2.02971,44.2631
4.21,23723.1,4802.61,8390.47,26.5374,-396.302,16.2686,4216.12,400.415,13893.3,2.39778,-420.338,-13.47,41845.7,26396.5,-1095.24,-135.365,50.1646,-261.9,9686.23,-17617.1,91.1586,78.0769,11.214,190.433,-4295.45,8886.75,3425.67,-53.5677,-270.904,81.0799,4576.27,-13391.1,-1392.39,22.5389,-7.13082,34.9254,15814.0,-1578.98,6738.97,-49.9515,-0.055835,45.0223
4.211,41096.5,4600.22,10595.0,19.8618,-358.907,13.5296,4012.32,364.953,13686.8,1.28111,-426.453,-13.8036,37539.9,20322.9,-5435.89,-188.381,92.7815,-328.945,10119.0,-17831.0,-304.458,80.0263,8.84827,190.908,-3530.08,8946.1,2929.92,-16.6464,-282.469,77.9775,4656.86,-13761.5,-1141.59,20.7709,-9.27588,33.7185,15902.0,-620.097,7923.84,-43.8453,-2.14138,45.7813
4.212,58470.0,4397.83,12799.5,13.1862,-321.512,10.7906,3808.52,329.491,13480.2,0.164447,-432.568,-14.1372,33234.0,14249.3,-9776.53,-241.396,135.399,-395.991,10551.7,-18044.8,-700.075,81.9757,6.48253,191.383,-2764.71,9005.46,2434.17,20.2749,-294.035,74.875,4737.45,-14131.9,-890.804,19.003,-11.4209,32.5117,15990.0,338.784,9108.71,-37.7392,-4.22692,46.5404
4.213,75843.4,4195.44,15004.0,6.51055,-284.117,8.05161,3604.72,294.029,13273.7,-0.952218,-438.683,-14.4708,28928.2,8175.68,-14117.2,-294.411,178.015,-463.036,10984.4,-18258.7,-1095.69,83.9252,4.1168,191.858,-1999.34,9064.8,1938.42,57.1962,-305.6,71.7726,4818.04,-14502.4,-640.013,17.235,-13.566,31.3048,16078.1,1297.66,10293.6,-31.633,-6.31246,47.2995
4.214,82770.1,2155.12,16265.2,11.0099,-253.935,-3.56261,3367.41,370.585,13054.5,-0.0713793,-445.181,-13.465,23617.1,6612.85,-14193.7,-315.393,204.108,-496.477,11022.4,-18441.8,-1491.21,86.0206,1.23373,193.129,-839.712,9175.67,222.936,81.2236,-290.876,65.3038,4915.38,-14946.2,-230.672,16.2111,-16.4818,30.1858,15818.3,1988.93,10203.4,-28.7763,-7.83112,49.0013
4.215,84473.4,-804.177,17054.7,21.0968,-227.36,-19.6144,3113.35,503.149,12829.1,1.80821,-451.87,-11.7894,17803.4,7305.4,-12138.0,-320.358,221.938,-513.117,10863.1,-18609.7,-1886.68,88.1891,-1.90801,194.797,517.04,9312.28,-2102.42,98.804,-263.008,57.1518,5021.11,-15426.7,257.945,15.5593,-19.7829,29.1108,15384.5,2546.39,9475.78,-27.5444,-9.06634,51.1743
4.216,86176.7,-3763.47,17844.2,31.1837,-200.785,-35.6662,2859.29,635.714,12603.7,3.6878,-458.559,-10.1139,11989.7,7997.96,-10082.4,-325.324,239.769,-529.756,10703.7,-18777.5,-2282.15,90.3576,-5.04974,196.465,1873.79,9448.9,-4427.78,116.384,-235.139,48.9999,5126.83,-15907.1,746.563,14.9074,-23.0841,28.0358,14950.8,3103.84,8748.12,-26.3125,-10.3016,53.3473
4.217,87880.0,-6722.77,18633.8,41.2706,-174.209,-51.7181,2605.23,768.278,12378.2,5.56739,-465.249,-8.43829,6176.02,8690.52,-8026.84,-330.29,257.599,-546.395,10544.4,-18945.3,-2677.62,92.5261,-8.19147,198.134,3230.55,9585.51,-6753.14,133.965,-207.271,40.848,5232.55,-16387.6,1235.18,14.2556,-26.3852,26.9609,14517.1,3661.3,8020.47,-25.0806,-11.5368,55.5203
4.218,86780.2,-10065.3,19106.9,56.7638,-151.39,-64.9071,2394.83,950.973,12184.6,7.95725,-471.861,-6.59393,530.486,9563.9,-6022.31,-325.253,273.832,-552.852,10332.8,-19110.7,-3003.14,94.2022,-11.1961,199.635,4646.18,10149.0,-8545.9,142.093,-171.253,34.0556,5360.06,-16854.6,1711.97,13.7953,-29.8257,25.9847,14127.1,4133.56,7066.5,-23.2556,-11.5813,57.6576
4.219,75869.1,-14749.1,18472.4,91.1791,-141.717,-68.0762,2337.28,1309.12,12102.5,12.1331,-478.203,-4.15881,-4526.48,11070.2,-4196.52,-285.209,284.475,-523.669,9938.26,-19267.4,-3083.82,94.155,-13.7211,200.552,6267.91,12206.5,-8474.55,117.136,-106.713,32.0219,5563.79,-17274.2,2147.39,14.0055,-33.7541,25.3545,13890.3,4307.6,5320.41,-19.3549,-7.4583,59.6702
4.22,64958.1,-19432.9,17837.8,125.594,-132.044,-71.2453,2279.73,1667.28,12020.3,16.3089,-484.545,-1.72369,-9583.46,12576.5,-2370.74,-245.165,295.118,-494.487,9543.74,-19424.1,-3164.51,94.1077,-16.2461,201.468,7889.64,14264.1,-8403.2,92.1793,-42.1735,29.9882,5767.53,-17693.8,2582.81,14.2158,-37.6824,24.7243,13653.5,4481.64,3574.31,-15.4541,-3.33531,61.6827
4.221,54047.1,-24116.7,17203.3,160.01,-122.371,-74.4145,2222.17,2025.43,11938.2,20.4847,-490.887,0.711431,-14640.4,14082.8,-544.954,-205.122,305.761,-465.304,9149.21,-19580.8,-3245.19,94.0605,-18.7711,202.385,9511.37,16321.6,-8331.85,67.2227,22.3662,27.9545,5971.27,-18113.5,3018.23,14.426,-41.6107,24.0941,13416.7,4655.68,1828.22,-11.5534,0.787668,63.6952
4.222,43136.1,-28800.5,16568.8,194.425,-112.698,-77.5836,2164.62,2383.58,11856.0,24.6605,-497.229,3.14655,-19697.4,15589.1,1280.83,-165.078,316.404,-436.122,8754.68,-19737.4,-3325.88,94.0133,-21.2961,203.301,11133.1,18379.2,-8260.5,42.266,86.9059,25.9208,6175.01,-18533.1,3453.64,14.6363,-45.539,23.4639,13179.9,4829.72,82.13,-7.65267,4.91065,65.7077
4.223,33312.4,-28313.5,14778.3,225.498,-112.856,-70.4978,2221.52,2763.67,11883.7,28.5995,-503.137,4.50297,-22335.0,15874.0,2317.99,-127.944,311.974,-406.543,8681.57,-19687.8,-3298.72,93.4644,-24.4279,202.427,12275.3,20013.2,-6159.85,31.9308,126.848,25.6633,6509.35,-18843.7,3732.77,15.1736,-49.0317,22.159,13260.0,4875.67,-812.516,-2.27148,5.17447,66.5591
4.224,23799.4,-26349.1,12657.5,255.617,-115.822,-60.482,2311.11,3150.03,11942.8,32.4707,-508.921,5.55118,-24281.4,15809.9,3129.82,-91.6424,303.239,-376.851,8700.28,-19579.1,-3240.74,92.7722,-27.7332,201.041,13280.5,21526.3,-3479.42,25.7732,159.761,25.9134,6881.0,-19123.1,3967.24,15.8045,-52.4,20.6614,13430.5,4885.02,-1463.89,3.53269,4.33566,67.0788
4.225,14286.4,-24384.7,10536.6,285.735,-118.789,-50.4663,2400.71,3536.39,12001.9,36.342,-514.705,6.59939,-26227.8,15745.8,3941.65,-55.3404,294.503,-347.159,8719.0,-19470.4,-3182.77,92.0799,-31.0384,199.656,14285.7,23039.4,-798.977,19.6155,192.675,26.1634,7252.66,-19402.6,4201.71,16.4353,-55.7682,19.1637,13601.1,4894.37,-2115.27,9.33687,3.49686,67.5984
4.226,4773.39,-22420.3,8415.77,315.854,-121.755,-40.4505,2490.31,3922.75,12061.0,40.2133,-520.489,7.64761,-28174.2,15681.7,4753.48,-19.0384,285.768,-317.467,8737.71,-19361.8,-3124.79,91.3877,-34.3437,198.27,15290.9,24552.5,1881.46,13.4579,225.588,26.4134,7624.31,-19682.0,4436.18,17.0661,-59.1365,17.6661,13771.6,4903.72,-2766.64,15.141,2.65806,68.118
4.227,-2280.7,-18987.8,6392.3,329.868,-129.8,-30.0836,2530.5,4119.06,12101.1,43.6328,-526.655,8.01871,-29308.5,15384.7,5508.32,9.94713,270.214,-297.161,8903.07,-19196.8,-3091.95,90.6237,-37.5456,196.711,15951.5,24929.1,3867.65,18.3209,241.525,23.0197,8019.46,-19906.7,4567.94,17.9364,-61.7954,15.4893,13918.0,4848.21,-3218.82,19.1767,0.0366061,68.0391
4.228,-4416.96,-12619.2,4563.56,311.675,-148.004,-19.0147,2471.88,3935.27,12103.2,46.1488,-533.586,7.03558,-28818.5,14621.8,6149.17,24.2998,241.022,-295.625,9361.7,-18919.1,-3109.38,89.7161,-40.5408,194.806,15923.0,23032.8,4465.34,45.2254,223.507,12.3384,8461.57,-20021.8,4494.29,19.2854,-63.0357,11.9543,14016.1,4663.0,-3272.6,19.6753,-6.15016,66.763
4.229,-6553.23,-6250.48,2734.81,293.482,-166.207,-7.94569,2413.26,3751.49,12105.4,48.6649,-540.516,6.05246,-28328.6,13859.0,6790.03,38.6524,211.831,-294.09,9820.33,-18641.5,-3126.81,88.8085,-43.536,192.901,15894.5,21136.5,5063.03,72.1299,205.49,1.65705,8903.69,-20136.9,4420.63,20.6344,-64.276,8.41938,14114.2,4477.78,-3326.38,20.1739,-12.3369,65.4869
4.23,-8689.49,118.197,906.066,275.288,-184.41,3.12328,2354.63,3567.7,12107.5,51.1809,-547.447,5.06934,-27838.6,13096.1,7430.88,53.005,182.639,-292.554,10279.0,-18363.8,-3144.24,87.9009,-46.5313,190.996,15866.1,19240.2,5660.72,99.0344,187.472,-9.02425,9345.81,-20252.0,4346.97,21.9834,-65.5162,4.88442,14212.2,4292.57,-3380.16,20.6725,-18.5237,64.2108
4.231,-10825.7,6486.87,-922.679,257.095,-202.613,14.1923,2296.01,3383.91,12109.6,53.6969,-554.378,4.08622,-27348.7,12333.3,8071.73,67.3577,153.447,-291.018,10737.6,-18086.2,-3161.67,86.9933,-49.5265,189.091,15837.6,17344.0,6258.41,125.939,169.455,-19.7055,9787.93,-20367.1,4273.32,23.3325,-66.7565,1.34946,14310.3,4107.36,-3433.94,21.1711,-24.7104,62.9347
4.232,-7903.01,7374.56,-1224.36,227.205,-217.641,6.62378,2114.44,3127.33,12199.5,56.6438,-562.361,3.70507,-26685.5,11920.1,5965.59,66.9977,136.824,-296.79,11308.5,-17811.6,-3244.46,86.8901,-53.069,187.811,15336.3,15464.4,4004.85,145.357,150.249,-33.256,10120.0,-20272.6,3929.87,25.5723,-64.8283,-2.98327,14029.2,3670.07,-3523.24,17.3677,-28.3233,61.1964
4.233,-4347.9,7577.13,-1335.17,195.853,-232.272,-3.27439,1917.51,2861.65,12300.3,59.6446,-570.475,3.39917,-26000.7,11550.6,3516.08,64.7986,121.771,-303.476,11893.6,-17537.4,-3335.41,86.8874,-56.6799,186.609,14775.9,13586.9,1394.89,163.838,130.896,-47.165,10438.3,-20151.8,3552.69,27.9235,-62.504,-7.41572,13700.6,3201.27,-3616.97,13.0266,-31.6144,59.4002
4.234,-792.788,7779.69,-1445.97,164.501,-246.902,-13.1725,1720.57,2595.97,12401.1,62.6453,-578.59,3.09328,-25315.9,11181.1,1066.57,62.5996,106.719,-310.162,12478.6,-17263.3,-3426.36,86.8847,-60.2908,185.407,14215.6,11709.3,-1215.07,182.32,111.542,-61.0741,10756.6,-20031.0,3175.51,30.2747,-60.1797,-11.8482,13372.1,2732.47,-3710.71,8.6854,-34.9055,57.6041
4.235,2762.32,7982.26,-1556.78,133.149,-261.533,-23.0707,1523.63,2330.29,12502.0,65.646,-586.704,2.78738,-24631.1,10811.6,-1382.93,60.4005,91.666,-316.848,13063.6,-16989.1,-3517.31,86.882,-63.9017,184.205,13655.2,9831.83,-3825.04,200.802,92.1879,-74.9831,11075.0,-19910.2,2798.33,32.6259,-57.8554,-16.2806,13043.5,2263.68,-3804.44,4.34424,-38.1966,55.808
4.236,6555.21,6445.4,-685.721,123.445,-258.682,-34.3055,1346.81,2297.91,12461.2,68.907,-595.229,3.07233,-23744.9,10495.5,-4135.51,55.3301,83.9242,-320.904,13622.2,-16824.3,-3588.88,86.8005,-67.2938,182.966,12768.6,8803.49,-6147.5,211.251,78.4719,-86.7465,11311.5,-19665.0,2397.36,35.3695,-54.0575,-20.7007,12679.9,1682.74,-3785.38,1.17306,-39.3442,53.8151
4.237,10645.3,2734.25,1412.66,140.802,-233.98,-47.2111,1195.13,2557.14,12243.4,72.4934,-604.268,4.09585,-22607.0,10245.9,-7266.91,46.6703,85.321,-321.674,14148.0,-16796.1,-3636.2,86.6205,-70.4124,181.679,11474.1,8836.62,-8110.58,211.66,71.8032,-95.8276,11445.9,-19264.2,1966.65,38.6035,-48.4177,-25.1054,12272.5,961.619,-3625.31,-0.535637,-37.8125,51.5761
4.238,14735.4,-976.902,3511.03,158.159,-209.277,-60.1166,1043.45,2816.38,12025.7,76.0798,-613.307,5.11936,-21469.0,9996.42,-10398.3,38.0106,86.7177,-322.443,14673.7,-16767.9,-3683.53,86.4405,-73.531,180.392,10179.7,8869.74,-10073.7,212.069,65.1346,-104.909,11580.2,-18863.4,1535.94,41.8376,-42.7778,-29.51,11865.1,240.5,-3465.25,-2.24434,-36.2808,49.3371
4.239,18825.6,-4688.05,5609.41,175.516,-184.575,-73.0222,891.765,3075.61,11807.9,79.6661,-622.347,6.14288,-20331.0,9746.89,-13529.7,29.3509,88.1145,-323.213,15199.4,-16739.7,-3730.86,86.2604,-76.6495,179.106,8885.29,8902.86,-12036.8,212.478,58.4659,-113.99,11714.6,-18462.6,1105.24,45.0717,-37.1379,-33.9147,11457.7,-480.618,-3305.19,-3.95304,-34.749,47.0981
4.24,22915.7,-8399.2,7707.79,192.872,-159.872,-85.9277,740.084,3334.84,11590.1,83.2525,-631.386,7.1664,-19193.0,9497.37,-16661.1,20.6912,89.5113,-323.983,15725.2,-16711.5,-3778.18,86.0804,-79.7681,177.819,7590.86,8935.99,-13999.8,212.887,51.7972,-123.071,11848.9,-18061.8,674.528,48.3057,-31.4981,-38.3193,11050.2,-1201.74,-3145.13,-5.66174,-33.2173,44.8592
4.241,23310.4,-9310.38,8154.04,205.664,-136.52,-93.1661,500.729,3783.29,11378.7,86.4997,-642.802,8.13937,-18225.4,9108.11,-17793.4,14.2924,94.8984,-319.142,16175.1,-16705.6,-3981.47,84.2954,-81.7018,176.809,5546.94,9129.79,-14424.7,203.228,51.0809,-128.631,11716.8,-17583.6,346.408,51.8336,-23.2224,-42.2586,10896.2,-1939.27,-2609.9,-1.64813,-32.0196,42.1132
4.242,23705.2,-10221.6,8600.28,218.455,-113.168,-100.404,261.374,4231.73,11167.2,89.7468,-654.218,9.11235,-17257.7,8718.84,-18925.7,7.89362,100.285,-314.301,16625.0,-16699.6,-4184.76,82.5103,-83.6355,175.798,3503.01,9323.59,-14849.6,193.57,50.3646,-134.191,11584.6,-17105.4,18.2875,55.3614,-14.9466,-46.1979,10742.1,-2676.8,-2074.66,2.36547,-30.8219,39.3672
4.243,24099.9,-11132.7,9046.53,231.246,-89.8162,-107.643,22.0196,4680.18,10955.8,92.9939,-665.635,10.0853,-16290.1,8329.58,-20058.0,1.49483,105.673,-309.461,17075.0,-16693.6,-4388.04,80.7252,-85.5691,174.788,1459.08,9517.4,-15274.4,183.911,49.6483,-139.751,11452.4,-16627.2,-309.833,58.8892,-6.6709,-50.1372,10588.0,-3414.33,-1539.43,6.37908,-29.6243,36.6212
4.244,24494.7,-12043.9,9492.78,244.038,-66.4641,-114.881,-217.335,5128.62,10744.3,96.2411,-677.051,11.0583,-15322.4,7940.32,-21190.2,-4.90396,111.06,-304.62,17524.9,-16687.7,-4591.33,78.9401,-87.5028,173.777,-584.847,9711.2,-15699.3,174.253,48.9319,-145.311,11320.3,-16149.0,-637.953,62.417,1.60483,-54.0765,10433.9,-4151.86,-1004.19,10.3927,-28.4266,33.8751
4.245,23346.4,-10976.8,9567.76,248.487,-47.9746,-121.195,-255.197,5782.64,10494.4,101.082,-690.739,13.9482,-14606.8,7593.58,-21234.6,-6.42054,115.751,-297.354,17971.0,-16639.5,-4834.79,77.5478,-87.6622,173.14,-2913.01,9782.29,-16067.5,160.043,52.3987,-149.075,11026.5,-15744.9,-834.61,66.0788,10.5775,-57.7454,10332.7,-4795.55,-493.548,16.1094,-28.1169,30.9487
4.246,20963.8,-8327.14,9345.72,246.261,-33.375,-126.77,-131.865,6601.1,10213.9,107.198,-706.243,18.3717,-14092.9,7280.87,-20408.6,-4.03134,119.886,-288.149,18413.9,-16557.6,-5110.38,76.4698,-86.4021,172.801,-5468.57,9755.21,-16390.3,142.192,59.2119,-151.402,10603.3,-15400.0,-926.096,69.8476,20.1078,-61.1981,10273.7,-5364.16,-2.56999,23.1885,-28.5175,27.8778
4.247,18581.1,-5677.45,9123.69,244.036,-18.7755,-132.345,-8.5336,7419.57,9933.28,113.314,-721.747,22.7952,-13579.0,6968.16,-19582.6,-1.64215,124.021,-278.944,18856.8,-16475.8,-5385.97,75.3917,-85.142,172.462,-8024.13,9728.13,-16713.1,124.341,66.0251,-153.73,10180.2,-15055.1,-1017.58,73.6164,29.6382,-64.6507,10214.8,-5932.77,488.408,30.2676,-28.9182,24.8069
4.248,16198.4,-3027.76,8901.65,241.811,-4.17596,-137.92,114.798,8238.04,9652.69,119.43,-737.252,27.2186,-13065.1,6655.45,-18756.6,0.747044,128.156,-269.739,19299.8,-16393.9,-5661.56,74.3137,-83.8819,172.123,-10579.7,9701.05,-17035.9,106.49,72.8383,-156.057,9757.08,-14710.3,-1109.07,77.3853,39.1685,-68.1034,10155.8,-6501.38,979.386,37.3468,-29.3188,21.7361
4.249,13780.0,-583.177,8809.71,239.475,9.4186,-143.016,357.581,9036.37,9358.32,125.219,-752.349,31.5222,-12572.3,6336.89,-17762.9,4.24393,131.239,-260.304,19733.4,-16295.0,-5944.08,73.323,-82.0764,172.04,-13107.3,9623.63,-17389.8,88.3438,80.6013,-158.112,9307.2,-14370.6,-1176.13,81.2908,48.5096,-71.3894,10099.1,-7033.09,1428.29,44.3491,-29.6098,18.824
4.25,11075.0,220.553,9758.54,236.256,14.9733,-144.286,1555.97,9673.6,8953.66,128.386,-764.189,34.8665,-12248.7,5971.53,-15427.4,16.6023,125.91,-249.028,20092.9,-16060.1,-6281.96,73.031,-75.9074,174.008,-15411.3,9143.43,-17992.8,67.8376,95.9619,-157.993,8643.36,-14073.1,-1047.75,86.2896,56.3377,-73.3421,10061.0,-7269.59,1540.61,50.7363,-29.0231,17.1817
4.251,8370.02,1024.28,10707.4,233.037,20.528,-145.556,2754.35,10310.8,8549.01,131.553,-776.029,38.2108,-11925.0,5606.16,-13091.9,28.9607,120.581,-237.752,20452.4,-15825.3,-6619.85,72.739,-69.7384,175.976,-17715.3,8663.24,-18595.9,47.3315,111.322,-157.874,7979.52,-13775.6,-919.365,91.2883,64.1658,-75.2949,10022.8,-7506.08,1652.92,57.1236,-28.4364,15.5395
4.252,5665.04,1828.01,11656.2,229.817,26.0827,-146.826,3952.74,10948.1,8144.35,134.72,-787.869,41.5551,-11601.3,5240.79,-10756.4,41.3191,115.251,-226.476,20811.9,-15590.4,-6957.73,72.4471,-63.5694,177.943,-20019.3,8183.04,-19198.9,26.8253,126.683,-157.755,7315.68,-13478.1,-790.984,96.2871,71.9939,-77.2476,9984.58,-7742.57,1765.24,63.5109,-27.8498,13.8973
4.253,2960.06,2631.74,12605.0,226.598,31.6374,-148.096,5151.13,11585.3,7739.69,137.887,-799.709,44.8994,-11277.6,4875.43,-8420.84,53.6775,109.922,-215.2,21171.4,-15355.5,-7295.62,72.1551,-57.4004,179.911,-22323.3,7702.84,-19802.0,6.31912,142.044,-157.635,6651.84,-13180.6,-662.604,101.286,79.822,-79.2004,9946.39,-7979.06,1877.55,69.8982,-27.2631,12.2551
4.254,1677.17,2114.66,12770.0,223.644,33.8128,-147.131,7042.99,11686.1,7793.36,139.243,-804.258,44.2033,-10722.7,4474.03,-6237.18,62.9424,97.799,-204.106,21238.2,-14986.7,-7420.03,72.8746,-48.8532,184.638,-23950.0,7212.95,-19840.5,-7.1901,160.875,-155.144,5924.11,-12786.3,-555.411,106.295,84.6614,-79.3692,9964.4,-8092.39,1880.07,72.9507,-25.6621,11.8153
4.255,1105.31,937.173,12542.9,220.822,34.2986,-145.049,9281.59,11518.6,8076.18,139.695,-805.163,41.4871,-10052.1,4054.61,-4129.46,70.6606,82.2788,-193.102,21158.6,-14551.0,-7437.71,74.1,-39.1169,190.745,-25238.0,6718.2,-19596.8,-17.2009,181.44,-151.467,5164.45,-12343.5,-458.813,111.308,88.0066,-78.6461,10010.5,-8144.12,1827.69,74.3359,-23.5541,11.9769
4.256,533.458,-240.316,12315.9,218.0,34.7844,-142.967,11520.2,11351.2,8359.0,140.146,-806.068,38.7708,-9381.48,3635.19,-2021.73,78.3788,66.7585,-182.098,21079.0,-14115.3,-7455.4,75.3253,-29.3805,196.852,-26526.0,6223.45,-19353.0,-27.2116,202.006,-147.79,4404.78,-11900.7,-362.214,116.322,91.3517,-77.923,10056.6,-8195.86,1775.31,75.721,-21.446,12.1384
4.257,-38.3971,-1417.8,12088.9,215.178,35.2701,-140.884,13758.8,11183.7,8641.82,140.598,-806.973,36.0546,-8710.89,3215.77,85.9895,86.097,51.2383,-171.094,20999.4,-13679.6,-7473.08,76.5506,-19.6442,202.958,-27814.0,5728.71,-19109.3,-37.2224,222.572,-144.113,3645.12,-11457.9,-265.615,121.336,94.6969,-77.1999,10102.7,-8247.6,1722.93,77.1062,-19.3379,12.2999
4.258,2.80317,-2394.2,11882.2,211.393,35.6042,-137.95,16138.4,10860.4,8852.89,142.292,-805.146,32.9824,-8053.98,2839.18,1799.6,92.1148,37.1621,-159.924,20806.1,-13250.4,-7411.85,77.4636,-9.94568,209.445,-28898.3,5201.34,-18702.7,-41.883,242.578,-140.141,2907.2,-11013.5,-137.716,125.872,96.8519,-76.0286,10181.9,-8252.36,1733.29,77.6706,-17.4735,12.763
4.259,2189.7,-2666.74,11746.5,204.239,35.4075,-132.033,19011.4,9991.28,8812.82,148.337,-793.762,28.6642,-7444.97,2612.47,2133.83,92.1809,28.14,-148.174,20214.7,-12844.1,-7074.44,77.2834,-0.379619,217.262,-29269.4,4559.8,-17726.1,-27.8183,260.625,-135.135,2245.38,-10563.7,99.7366,128.739,94.8415,-73.2887,10376.6,-8092.67,1963.26,75.3626,-16.4619,14.2818
4.26,4376.59,-2939.29,11610.8,197.085,35.2108,-126.117,21884.4,9122.21,8772.75,154.382,-782.378,24.3461,-6835.96,2385.77,2468.06,92.2471,19.1179,-136.424,19623.2,-12437.8,-6737.02,77.1032,9.18644,225.08,-29640.4,3918.26,-16749.6,-13.7536,278.671,-130.13,1583.57,-10113.8,337.189,131.606,92.8311,-70.5488,10571.3,-7932.99,2193.22,73.0546,-15.4503,15.8006
4.261,6563.48,-3211.84,11475.2,189.931,35.014,-120.2,24757.4,8253.13,8732.67,160.428,-770.994,20.0279,-6226.95,2159.07,2802.29,92.3133,10.0958,-124.674,19031.8,-12031.5,-6399.6,76.923,18.7525,232.897,-30011.5,3276.72,-15773.0,0.311168,296.717,-125.125,921.75,-9663.96,574.641,134.473,90.8207,-67.8088,10766.0,-7773.31,2423.18,70.7466,-14.4387,17.3194
4.262,8750.38,-3484.39,11339.5,182.776,34.8173,-114.283,27630.5,7384.06,8692.6,166.473,-759.61,15.7097,-5617.94,1932.37,3136.52,92.3794,1.07369,-112.924,18440.3,-11625.2,-6062.18,76.7428,28.3186,240.714,-30382.6,2635.18,-14796.4,14.3759,314.763,-120.119,259.933,-9214.12,812.094,137.34,88.8102,-65.0689,10960.7,-7613.62,2653.15,68.4385,-13.4271,18.8382
4.263,10871.0,-3271.21,11007.8,172.483,34.7006,-107.0,29848.8,6646.55,8160.23,168.288,-740.116,11.5904,-5204.09,1586.35,3087.11,89.7873,2.36291,-104.914,17521.9,-11646.5,-5823.71,81.7811,35.6486,245.576,-30258.2,2028.19,-13334.8,32.2673,315.103,-113.792,-208.102,-8927.11,1096.76,138.977,84.1709,-61.9659,11161.7,-7471.99,3114.34,65.4545,-14.0608,20.932
4.264,12972.6,-2919.25,10620.0,161.292,34.6069,-99.325,31880.1,5946.62,7487.21,168.895,-718.305,7.52785,-4845.99,1206.23,2928.1,86.4356,6.59822,-97.9731,16510.1,-11789.9,-5613.52,88.3105,42.3398,249.593,-29992.2,1431.06,-11734.7,51.252,310.384,-107.088,-620.77,-8686.63,1394.92,140.262,78.7805,-58.7592,11364.4,-7335.52,3641.6,62.2774,-15.1646,23.1901
4.265,15074.3,-2567.28,10232.2,150.101,34.5131,-91.6505,33911.5,5246.7,6814.19,169.502,-696.493,3.46531,-4487.89,826.114,2769.09,83.084,10.8335,-91.0321,15498.3,-11933.4,-5403.32,94.8398,49.031,253.611,-29726.3,833.94,-10134.5,70.2368,305.665,-100.383,-1033.44,-8446.16,1693.08,141.548,73.39,-55.5525,11567.2,-7199.04,4168.86,59.1002,-16.2685,25.4482
4.266,17176.0,-2215.32,9844.4,138.91,34.4193,-83.9759,35942.8,4546.77,6141.16,170.108,-674.682,-0.597227,-4129.79,445.997,2610.09,79.7323,15.0688,-84.0911,14486.6,-12076.8,-5193.12,101.369,55.7222,257.628,-29460.3,236.816,-8534.37,89.2215,300.946,-93.6788,-1446.11,-8205.68,1991.24,142.834,67.9996,-52.3458,11770.0,-7062.57,4696.12,55.9231,-17.3723,27.7063
4.267,18440.5,-2030.27,9651.86,129.948,32.8322,-75.9884,37245.6,4566.02,5848.63,170.598,-653.099,-3.47741,-3863.67,192.205,2581.52,74.7582,20.0042,-79.4134,13332.9,-12370.0,-5158.42,106.405,61.1674,260.726,-29024.4,-257.812,-7191.2,102.199,291.703,-85.7969,-1781.91,-8037.66,2191.84,143.326,62.0965,-49.4166,11949.5,-6961.4,5206.65,53.0653,-18.7077,30.0276
4.268,18030.6,-2179.04,9849.83,125.446,28.2582,-67.3748,37091.5,6023.63,6317.06,170.852,-631.974,-3.99288,-3781.48,191.064,2813.86,66.5392,26.3396,-79.2621,11895.5,-12962.8,-5474.71,108.454,64.1207,261.983,-28248.5,-547.446,-6361.98,103.16,273.41,-75.5603,-1963.99,-8014.54,2197.34,142.232,55.168,-47.0423,12082.5,-6930.82,5683.74,50.8461,-20.5063,32.4755
4.269,17620.7,-2327.81,10047.8,120.943,23.6842,-58.7613,36937.5,7481.24,6785.49,171.106,-610.849,-4.50835,-3699.29,189.922,3046.19,58.3203,32.675,-79.1108,10458.2,-13555.6,-5791.01,110.504,67.0739,263.24,-27472.6,-837.08,-5532.77,104.122,255.118,-65.3238,-2146.06,-7991.42,2202.85,141.137,48.2396,-44.668,12215.6,-6900.24,6160.83,48.627,-22.3049,34.9233
4.27,17210.9,-2476.58,10245.8,116.44,19.1102,-50.1478,36783.4,8938.85,7253.93,171.36,-589.724,-5.02381,-3617.1,188.781,3278.53,50.1014,39.0103,-78.9595,9020.83,-14148.4,-6107.31,112.553,70.0272,264.497,-26696.8,-1126.71,-4703.55,105.083,236.825,-55.0872,-2328.14,-7968.3,2208.35,140.043,41.3111,-42.2937,12348.7,-6869.66,6637.91,46.4078,-24.1035,37.3712
4.271,16801.0,-2625.35,10443.7,111.937,14.5362,-41.5342,36629.3,10396.5,7722.36,171.614,-568.599,-5.53928,-3534.91,187.639,3510.86,41.8824,45.3457,-78.8082,7583.47,-14741.2,-6423.6,114.602,72.9804,265.754,-25920.9,-1416.35,-3874.33,106.045,218.533,-44.8506,-2510.22,-7945.18,2213.85,138.949,34.3827,-39.9193,12481.7,-6839.09,7115.0,44.1887,-25.9021,39.819
4.272,15916.4,-2820.38,10480.4,112.888,13.0109,-33.1241,35642.6,13191.3,7714.01,162.51,-554.807,2.78502,-3580.7,765.441,3878.72,39.0485,44.0919,-81.054,5939.67,-15281.3,-6949.13,111.021,75.2402,267.046,-24688.3,-1281.99,-3850.77,94.3148,202.484,-31.5669,-2651.87,-8136.94,2162.38,134.398,26.6436,-39.5069,12654.9,-6813.56,7183.71,45.4159,-25.5624,41.8918
4.273,14972.4,-3021.2,10496.8,114.521,11.8666,-24.7395,34551.8,16153.3,7646.06,152.236,-541.93,12.2143,-3642.49,1415.61,4263.52,36.8877,41.8895,-83.5996,4270.07,-15814.8,-7500.81,106.735,77.4133,268.343,-23398.7,-1094.63,-3927.9,80.9985,186.717,-17.9022,-2788.46,-8355.56,2103.79,129.414,18.8033,-39.3397,12833.0,-6788.67,7201.38,47.0739,-24.9554,43.9178
4.274,14028.5,-3222.01,10513.3,116.154,10.7224,-16.3549,33461.0,19115.2,7578.12,141.962,-529.054,21.6435,-3704.29,2065.78,4648.32,34.7269,39.687,-86.1451,2600.47,-16348.3,-8052.49,102.449,79.5864,269.64,-22109.0,-907.275,-4005.04,67.6822,170.949,-4.23761,-2925.05,-8574.18,2045.2,124.431,10.9629,-39.1725,13011.2,-6763.77,7219.05,48.7319,-24.3485,45.9438
4.275,13084.6,-3422.82,10529.7,117.787,9.57817,-7.97021,32370.2,22077.2,7510.17,131.688,-516.178,31.0728,-3766.08,2715.95,5033.12,32.5661,37.4845,-88.6907,930.864,-16881.9,-8604.17,98.1633,81.7595,270.936,-20819.4,-719.917,-4082.18,54.366,155.182,9.42702,-3061.65,-8792.8,1986.61,119.448,3.12255,-39.0053,13189.4,-6738.88,7236.71,50.39,-23.7415,47.9697
4.276,12201.2,-3225.91,10612.6,118.127,8.72157,-1.37026,31656.2,24319.3,7580.91,114.625,-504.815,40.1003,-3993.85,3433.63,5303.53,32.9018,33.5942,-90.4008,-873.883,-17497.5,-9067.66,92.4014,84.2377,271.537,-19436.3,-625.932,-4265.28,40.0453,140.478,21.0044,-3227.4,-9135.59,1913.49,113.147,-4.33947,-40.3761,13370.6,-6640.16,7170.35,53.0764,-22.4823,49.9017
4.277,11393.4,-2531.83,10778.4,116.852,8.22451,2.99883,31413.0,25661.7,7825.0,89.0777,-495.344,48.6257,-4429.1,4235.71,5430.95,36.3582,27.594,-91.0666,-2847.56,-18215.9,-9420.94,84.7943,87.0973,271.268,-17936.3,-648.662,-4580.83,24.4692,127.105,29.9729,-3429.59,-9633.58,1822.19,105.2,-11.3286,-43.6694,13555.6,-6449.17,6998.96,57.0485,-20.4077,51.7161
4.278,10585.7,-1837.76,10944.2,115.578,7.72745,7.36791,31169.9,27004.0,8069.09,63.53,-485.874,57.151,-4864.34,5037.79,5558.38,39.8145,21.5938,-91.7324,-4821.24,-18934.2,-9774.21,77.1872,89.9569,270.998,-16436.4,-671.392,-4896.38,8.89306,113.732,38.9413,-3631.79,-10131.6,1730.89,97.2536,-18.3176,-46.9627,13740.6,-6258.18,6827.56,61.0205,-18.3331,53.5306
4.279,9777.96,-1143.68,11110.1,114.303,7.23039,11.737,30926.8,28346.4,8313.18,37.9823,-476.403,65.6764,-5299.59,5839.88,5685.8,43.2709,15.5936,-92.3982,-6794.92,-19652.6,-10127.5,69.58,92.8165,270.729,-14936.5,-694.122,-5211.93,-6.68307,100.359,47.9097,-3833.98,-10629.6,1639.6,89.3068,-25.3067,-50.2561,13925.6,-6067.19,6656.16,64.9925,-16.2585,55.345
4.28,8970.23,-449.609,11275.9,113.028,6.73333,16.1061,30683.7,29688.7,8557.27,12.4346,-466.932,74.2017,-5734.84,6641.96,5813.22,46.7272,9.59336,-93.064,-8768.6,-20370.9,-10480.8,61.9729,95.6761,270.459,-13436.6,-716.852,-5527.48,-22.2592,86.9861,56.8781,-4036.17,-11127.6,1548.3,81.3599,-32.2958,-53.5494,14110.6,-5876.2,6484.77,68.9646,-14.1839,57.1595
4.281,8746.85,1035.76,11450.5,109.212,8.15782,15.2527,31056.8,28327.5,8361.86,-16.2997,-451.12,78.0263,-6535.95,7305.43,5686.57,45.96,9.23376,-94.3207,-10543.0,-21125.2,-10561.4,52.5704,101.022,268.183,-12020.0,-1053.92,-5836.51,-25.4076,80.1276,56.3812,-4315.15,-11813.9,1311.4,72.8333,-36.9054,-60.8674,14288.5,-5452.21,6177.49,71.8595,-13.515,58.8712
4.282,8523.47,2521.13,11625.2,105.395,9.5823,14.3993,31430.0,26966.2,8166.44,-45.0341,-435.308,81.8508,-7337.07,7968.91,5559.92,45.1927,8.87416,-95.5773,-12317.4,-21879.5,-10642.0,43.168,106.369,265.907,-10603.4,-1391.0,-6145.54,-28.556,73.2692,55.8842,-4594.12,-12500.3,1074.5,64.3067,-41.515,-68.1854,14466.4,-5028.23,5870.2,74.7543,-12.846,60.583
4.283,8300.1,4006.49,11799.8,101.579,11.0068,13.546,31803.1,25604.9,7971.02,-73.7685,-419.496,85.6754,-8138.19,8632.39,5433.27,44.4254,8.51456,-96.8339,-14091.8,-22633.8,-10722.6,33.7656,111.715,263.632,-9186.87,-1728.07,-6454.57,-31.7044,66.4107,55.3873,-4873.09,-13186.7,837.597,55.7801,-46.1246,-75.5035,14644.2,-4604.25,5562.92,77.6493,-12.1771,62.2947
4.284,8076.72,5491.86,11974.5,97.7625,12.4313,12.6926,32176.2,24243.6,7775.6,-102.503,-403.683,89.5,-8939.3,9295.87,5306.62,43.6582,8.15496,-98.0906,-15866.3,-23388.2,-10803.2,24.3631,117.061,261.356,-7770.3,-2065.14,-6763.6,-34.8528,59.5522,54.8903,-5152.06,-13873.0,600.696,47.2535,-50.7342,-82.8215,14822.1,-4180.27,5255.64,80.5441,-11.5081,64.0065
4.285,7993.94,6674.05,11883.5,92.617,14.6246,10.9636,32046.0,22535.6,8079.76,-125.764,-387.033,93.2816,-9733.89,9951.21,5195.8,40.4842,9.63677,-99.9657,-16943.1,-23728.8,-10684.6,17.7605,123.683,259.858,-6622.3,-2230.18,-6983.14,-32.5783,54.3999,50.679,-5423.86,-14604.5,355.014,39.7578,-54.0061,-91.813,14986.6,-3748.41,4917.67,81.8433,-11.3264,65.5514
4.286,8023.65,7613.69,11579.9,86.4082,17.4329,8.53399,31513.1,20550.2,8783.58,-144.646,-369.712,97.029,-10523.3,10600.0,5097.63,35.3847,12.5917,-102.336,-17461.8,-23738.6,-10406.6,13.3978,131.324,258.982,-5689.15,-2257.59,-7131.09,-25.9655,50.6123,43.4961,-5689.94,-15371.9,102.308,33.0867,-56.2079,-102.143,15140.4,-3310.25,4555.16,81.8658,-11.5344,66.963
4.287,8053.35,8553.34,11276.4,80.1995,20.2413,6.10441,30980.2,18564.8,9487.4,-163.529,-352.391,100.776,-11312.6,11248.8,4999.47,30.2853,15.5466,-104.706,-17980.6,-23748.4,-10128.6,9.03514,138.965,258.106,-4756.0,-2284.99,-7279.04,-19.3527,46.8248,36.3133,-5956.01,-16139.4,-150.398,26.4157,-58.4096,-112.474,15294.2,-2872.09,4192.64,81.8883,-11.7424,68.3746
4.288,8083.06,9492.98,10972.9,73.9907,23.0496,3.67484,30447.3,16579.3,10191.2,-182.411,-335.07,104.524,-12102.0,11897.7,4901.3,25.1858,18.5016,-107.076,-18499.3,-23758.2,-9850.6,4.67244,146.607,257.23,-3822.84,-2312.4,-7426.99,-12.7399,43.0373,29.1304,-6222.08,-16906.9,-403.104,19.7447,-60.6114,-122.804,15448.0,-2433.93,3830.13,81.9108,-11.9505,69.7862
4.289,8072.48,10297.4,10703.9,67.8388,25.7709,1.23762,29862.9,14634.9,11019.1,-199.873,-318.398,108.147,-12820.9,12561.6,4806.3,20.7399,20.8827,-108.887,-18841.9,-23743.8,-9537.29,0.461238,153.756,256.417,-2963.89,-2284.28,-7556.25,-6.0173,39.3052,21.5671,-6486.78,-17667.8,-641.401,13.4447,-62.6332,-133.243,15606.1,-2014.01,3473.51,81.7629,-12.0946,71.161
4.29,7739.67,10019.9,10711.1,62.142,27.7958,-1.26071,28866.4,13018.5,12839.3,-205.969,-306.922,110.771,-12976.0,13346.6,4736.63,21.5223,18.6731,-106.225,-17775.4,-23535.7,-8941.52,-2.538,156.966,256.113,-2698.56,-1811.92,-7536.04,1.58353,36.016,10.9598,-6740.51,-18375.8,-764.424,10.1131,-63.2155,-144.545,15798.1,-1739.97,3164.05,80.2523,-11.7277,72.242
4.291,7406.86,9742.47,10718.4,56.4453,29.8208,-3.75905,27869.9,11402.1,14659.4,-212.066,-295.445,113.396,-13131.1,14131.6,4666.96,22.3046,16.4635,-103.563,-16708.8,-23327.6,-8345.75,-5.53723,160.175,255.808,-2433.22,-1339.56,-7515.83,9.18436,32.7268,0.352562,-6994.25,-19083.8,-887.447,6.78148,-63.7978,-155.848,15990.1,-1465.94,2854.59,78.7417,-11.3609,73.3231
4.292,7074.05,9465.0,10725.6,50.7485,31.8457,-6.25738,26873.3,9785.7,16479.6,-218.162,-283.968,116.021,-13286.3,14916.6,4597.3,23.087,14.254,-100.901,-15642.3,-23119.5,-7749.99,-8.53647,163.385,255.503,-2167.88,-867.199,-7495.62,16.7852,29.4376,-10.2547,-7247.98,-19791.8,-1010.47,3.44988,-64.3801,-167.15,16182.1,-1191.9,2545.13,77.231,-10.994,74.4041
4.293,6741.24,9187.54,10732.9,45.0518,33.8706,-8.75572,25876.8,8169.3,18299.8,-224.259,-272.492,118.646,-13441.4,15701.6,4527.63,23.8693,12.0444,-98.2388,-14575.7,-22911.4,-7154.22,-11.5357,166.594,255.198,-1902.55,-394.838,-7475.4,24.386,26.1484,-20.862,-7501.72,-20499.8,-1133.49,0.118286,-64.9624,-178.453,16374.1,-917.863,2235.67,75.7204,-10.6271,75.4851
4.294,6420.43,8395.9,10583.3,40.7668,34.4919,-10.0242,25221.9,6615.31,19712.4,-222.091,-262.396,120.975,-13337.6,16195.9,4335.92,26.9152,8.12287,-92.6031,-13012.5,-22739.4,-6342.91,-14.2997,165.939,253.112,-2008.95,316.81,-7238.76,29.9101,22.9828,-32.417,-7759.78,-21043.5,-1138.94,-0.80078,-65.5762,-188.769,16634.5,-677.73,2137.58,74.3268,-9.90805,76.454
