Time,RFoot_accel.x,RFoot_accel.y,RFoot_accel.z,RFoot_gyro.x,RFoot_gyro.y,RFoot_gyro.z,LFoot_accel.x,LFoot_accel.y,LFoot_accel.z,LFoot_gyro.x,LFoot_gyro.y,LFoot_gyro.z,RShank_accel.x,RShank_accel.y,RShank_accel.z,RShank_gyro.x,RShank_gyro.y,RShank_gyro.z,LShank_accel.x,LShank_accel.y,LShank_accel.z,LShank_gyro.x,LShank_gyro.y,LShank_gyro.z,RThigh_accel.x,RThigh_accel.y,RThigh_accel.z,RThigh_gyro.x,RThigh_gyro.y,RThigh_gyro.z,LThigh_accel.x,LThigh_accel.y,LThigh_accel.z,LThigh_gyro.x,LThigh_gyro.y,LThigh_gyro.z,Pelvis_accel.x,Pelvis_accel.y,Pelvis_accel.z,Pelvis_gyro.x,Pelvis_gyro.y,Pelvis_gyro.z
0.0,3519.31,-3682.29,8408.35,0.305218,0.549416,-0.121628,3899.99,2926.83,8401.74,-2.13203,0.624426,0.251417,1150.66,9747.16,-785.592,1.46261,-9.63004,-0.460403,-50.9399,-9875.32,-220.215,-0.85428,3.82283,8.38117,-2524.37,9311.57,-668.812,1.27538,-2.57583,-1.66355,-1801.78,-9651.35,-2001.63,-5.23064,2.825,-1.62117,8874.92,539.081,3546.2,0.656457,3.12383,-1.61605
0.001,3507.76,-3729.34,8375.04,0.290567,0.590168,-0.174209,3882.9,2925.29,8417.97,-2.09548,0.575075,0.279879,1146.91,9748.25,-782.49,1.47027,-9.4727,-0.538455,-55.5301,-9870.83,-241.447,-0.816394,3.82861,8.32803,-2515.28,9323.46,-648.784,1.21204,-2.59688,-1.76234,-1799.52,-9643.22,-2018.9,-5.28727,2.95856,-1.59019,8908.39,529.664,3532.4,0.595935,3.01998,-1.74986
0.002,3496.21,-3776.4,8341.73,0.275916,0.63092,-0.226791,3865.82,2923.76,8434.2,-2.05892,0.525725,0.308341,1143.15,9749.34,-779.388,1.47793,-9.31536,-0.616507,-60.1204,-9866.33,-262.679,-0.778507,3.83439,8.2749,-2506.19,9335.35,-628.756,1.1487,-2.61792,-1.86114,-1797.26,-9635.08,-2036.18,-5.34389,3.09212,-1.55921,8941.85,520.247,3518.59,0.535413,2.91614,-1.88367
0.003,3484.65,-3823.45,8308.42,0.261265,0.671671,-0.279373,3848.73,2922.22,8450.42,-2.02236,0.476375,0.336803,1139.4,9750.43,-776.286,1.48559,-9.15802,-0.694559,-64.7107,-9861.84,-283.911,-0.740621,3.84016,8.22176,-2497.09,9347.24,-608.728,1.08536,-2.63897,-1.95993,-1794.99,-9626.95,-2053.45,-5.40051,3.22569,-1.52823,8975.32,510.829,3504.79,0.47489,2.81229,-2.01749
0.004,3473.1,-3870.5,8275.11,0.246614,0.712423,-0.331954,3831.64,2920.68,8466.65,-1.98581,0.427024,0.365264,1135.65,9751.52,-773.183,1.49324,-9.00068,-0.772611,-69.301,-9857.35,-305.143,-0.702734,3.84594,8.16863,-2488.0,9359.13,-588.699,1.02203,-2.66002,-2.05873,-1792.73,-9618.81,-2070.72,-5.45713,3.35925,-1.49725,9008.78,501.412,3490.99,0.414368,2.70844,-2.1513
0.005,3483.02,-3870.69,8264.32,0.188104,0.708464,-0.212647,3819.85,2925.45,8469.06,-1.957,0.403036,0.370459,1133.37,9746.87,-767.027,1.54754,-8.90361,-0.787248,-72.348,-9862.55,-307.833,-0.741376,3.8069,8.06115,-2485.47,9363.26,-590.746,1.01668,-2.64255,-2.06451,-1801.61,-9599.92,-2090.34,-5.47714,3.51637,-1.47338,9012.21,496.161,3493.4,0.3561,2.71489,-2.22382
0.006,3510.11,-3833.4,8271.54,0.0945059,0.668734,0.0441702,3812.31,2935.26,8460.4,-1.93439,0.399338,0.35704,1132.28,9737.61,-758.428,1.63915,-8.85476,-0.751155,-74.1604,-9875.5,-295.688,-0.84124,3.732,7.91019,-2488.18,9361.17,-610.451,1.05774,-2.59428,-1.99589,-1819.39,-9572.44,-2111.82,-5.46784,3.69235,-1.45519,8991.62,494.243,3508.79,0.299635,2.80956,-2.2473
0.007,3537.21,-3796.1,8278.75,0.00090805,0.629005,0.300988,3804.76,2945.06,8451.75,-1.91179,0.395641,0.34362,1131.18,9728.36,-749.828,1.73075,-8.80591,-0.715061,-75.9729,-9888.45,-283.544,-0.941104,3.6571,7.75923,-2490.89,9359.08,-630.157,1.0988,-2.54601,-1.92727,-1837.18,-9544.96,-2133.31,-5.45855,3.86832,-1.437,8971.02,492.324,3524.18,0.243171,2.90424,-2.27078
0.008,3564.31,-3758.81,8285.97,-0.0926898,0.589276,0.557806,3797.22,2954.87,8443.09,-1.88918,0.391943,0.330201,1130.08,9719.11,-741.229,1.82236,-8.75706,-0.678968,-77.7853,-9901.4,-271.399,-1.04097,3.5822,7.60827,-2493.6,9356.99,-649.863,1.13985,-2.49774,-1.85865,-1854.96,-9517.47,-2154.79,-5.44926,4.0443,-1.4188,8950.42,490.406,3539.56,0.186706,2.99891,-2.29427
0.009,3584.62,-3726.05,8291.01,-0.167188,0.559853,0.776932,3791.57,2964.7,8435.73,-1.86237,0.389618,0.317714,1128.24,9709.29,-735.565,1.89686,-8.70894,-0.643942,-80.6361,-9910.98,-261.865,-1.13283,3.51498,7.46432,-2498.66,9355.9,-668.292,1.17199,-2.45412,-1.79971,-1873.13,-9494.22,-2172.42,-5.44117,4.21797,-1.37786,8933.66,488.011,3554.61,0.147764,3.09105,-2.31523
0.01,3550.65,-3729.54,8278.59,-0.0888846,0.612875,0.694528,3801.11,2974.76,8438.71,-1.80191,0.398277,0.31269,1120.43,9694.91,-753.393,1.83448,-8.6666,-0.617452,-91.7941,-9893.67,-273.215,-1.16067,3.50912,7.37642,-2522.44,9362.84,-676.508,1.13285,-2.4477,-1.81826,-1894.39,-9504.8,-2159.14,-5.44277,4.37322,-1.15489,8947.57,481.797,3566.9,0.249001,3.16287,-2.31605
0.011,3516.69,-3733.03,8266.17,-0.0105818,0.665897,0.612125,3810.64,2984.82,8441.69,-1.74145,0.406936,0.307665,1112.62,9680.54,-771.22,1.77211,-8.62427,-0.590962,-102.952,-9876.37,-284.564,-1.1885,3.50326,7.28851,-2546.23,9369.78,-684.724,1.0937,-2.44128,-1.83681,-1915.65,-9515.38,-2145.87,-5.44436,4.52846,-0.931918,8961.47,475.583,3579.2,0.350238,3.2347,-2.31686
0.012,3482.72,-3736.52,8253.76,0.0677211,0.718919,0.529721,3820.18,2994.88,8444.67,-1.68099,0.415595,0.30264,1104.81,9666.16,-789.047,1.70974,-8.58193,-0.564472,-114.11,-9859.06,-295.913,-1.21634,3.49739,7.20061,-2570.02,9376.72,-692.94,1.05456,-2.43485,-1.85535,-1936.9,-9525.96,-2132.6,-5.44596,4.68371,-0.708947,8975.38,469.369,3591.5,0.451476,3.30652,-2.31767
0.013,3448.75,-3740.01,8241.34,0.146024,0.771941,0.447318,3829.72,3004.94,8447.65,-1.62054,0.424254,0.297616,1097.0,9651.78,-806.875,1.64737,-8.5396,-0.537983,-125.268,-9841.75,-307.263,-1.24417,3.49153,7.11271,-2593.81,9383.66,-701.157,1.01541,-2.42843,-1.8739,-1958.16,-9536.54,-2119.33,-5.44755,4.83896,-0.485977,8989.28,463.155,3603.8,0.552713,3.37834,-2.31849
0.014,3412.13,-3748.11,8242.92,0.122154,0.771856,0.389108,3823.12,3007.12,8451.83,-1.56102,0.416561,0.247348,1087.46,9652.61,-814.177,1.66392,-8.45493,-0.584733,-131.905,-9851.12,-308.036,-1.22793,3.44219,7.03922,-2599.88,9381.38,-708.322,0.996358,-2.40731,-1.82046,-1956.33,-9549.38,-2108.47,-5.39707,5.00009,-0.366044,8990.99,472.621,3624.86,0.537187,3.42212,-2.3804
0.015,3374.19,-3758.52,8251.49,0.0471982,0.745217,0.342996,3808.46,3005.36,8456.63,-1.50197,0.400693,0.17446,1077.05,9661.04,-816.216,1.71993,-8.3491,-0.668102,-136.282,-9873.83,-303.522,-1.18965,3.3711,6.97294,-2597.09,9374.5,-714.962,0.987345,-2.37885,-1.73101,-1942.96,-9563.35,-2098.82,-5.32055,5.16415,-0.297631,8986.59,489.927,3650.31,0.463279,3.45187,-2.47286
0.016,3336.24,-3768.93,8260.07,-0.0277579,0.718578,0.296883,3793.8,3003.61,8461.42,-1.44292,0.384825,0.101572,1066.63,9669.47,-818.255,1.77594,-8.24327,-0.751472,-140.659,-9896.54,-299.007,-1.15138,3.30001,6.90667,-2594.31,9367.61,-721.602,0.978332,-2.35038,-1.64157,-1929.59,-9577.31,-2089.18,-5.24403,5.32821,-0.229217,8982.19,507.233,3675.77,0.389371,3.48163,-2.56532
0.017,3298.3,-3779.34,8268.65,-0.102714,0.691939,0.250771,3779.13,3001.85,8466.21,-1.38387,0.368958,0.0286832,1056.22,9677.9,-820.294,1.83196,-8.13743,-0.834842,-145.036,-9919.25,-294.493,-1.1131,3.22892,6.84039,-2591.52,9360.73,-728.242,0.969319,-2.32191,-1.55212,-1916.22,-9591.28,-2079.53,-5.16752,5.49227,-0.160803,8977.8,524.539,3701.22,0.315463,3.51138,-2.65777
0.018,3278.17,-3787.06,8276.54,-0.136349,0.671682,0.251899,3769.55,2998.74,8469.31,-1.34252,0.350989,-0.0313028,1048.93,9686.86,-821.444,1.88382,-8.02071,-0.887161,-145.129,-9935.02,-292.655,-1.08102,3.17453,6.77797,-2590.75,9350.61,-735.338,0.96776,-2.30005,-1.5183,-1910.03,-9603.25,-2072.27,-5.07776,5.65074,-0.1082,8975.96,537.688,3718.67,0.200897,3.50508,-2.74237
0.019,3320.41,-3785.37,8282.04,-0.0253589,0.673758,0.418372,3777.73,2990.87,8466.48,-1.36313,0.325668,-0.0461307,1052.58,9697.7,-819.479,1.92116,-7.86589,-0.830805,-130.226,-9926.54,-300.186,-1.07068,3.17859,6.72908,-2597.0,9329.19,-744.027,0.992292,-2.30128,-1.67919,-1928.99,-9608.26,-2073.35,-4.94166,5.78963,-0.110936,8983.09,536.287,3708.13,-0.0559714,3.37258,-2.79943
0.02,3362.64,-3783.69,8287.54,0.0856311,0.675835,0.584844,3785.91,2983.01,8463.64,-1.38373,0.300348,-0.0609585,1056.22,9708.55,-817.515,1.9585,-7.71107,-0.774448,-115.324,-9918.05,-307.718,-1.06033,3.18265,6.68018,-2603.26,9307.76,-752.717,1.01682,-2.30251,-1.84007,-1947.96,-9613.26,-2074.43,-4.80556,5.92852,-0.113671,8990.22,534.887,3697.58,-0.31284,3.24007,-2.8565
0.021,3404.88,-3782.0,8293.03,0.196621,0.677912,0.751316,3794.09,2975.14,8460.81,-1.40434,0.275027,-0.0757864,1059.86,9719.39,-815.55,1.99583,-7.55624,-0.718092,-100.421,-9909.56,-315.249,-1.04999,3.18671,6.63129,-2609.52,9286.34,-761.407,1.04135,-2.30374,-2.00096,-1966.92,-9618.27,-2075.51,-4.66947,6.06741,-0.116407,8997.36,533.486,3687.03,-0.569708,3.10756,-2.91357
0.022,3447.12,-3780.32,8298.53,0.307611,0.679989,0.917789,3802.27,2967.28,8457.97,-1.42494,0.249707,-0.0906142,1063.5,9730.23,-813.586,2.03317,-7.40142,-0.661736,-85.5187,-9901.08,-322.78,-1.03964,3.19077,6.58239,-2615.78,9264.92,-770.096,1.06589,-2.30498,-2.16184,-1985.88,-9623.28,-2076.6,-4.53337,6.2063,-0.119142,9004.49,532.085,3676.49,-0.826577,2.97506,-2.97064
0.023,3454.47,-3769.78,8303.86,0.228513,0.716056,0.881209,3816.96,2966.3,8449.94,-1.41646,0.226944,-0.152225,1088.37,9725.72,-814.436,2.07437,-7.21268,-0.624191,-103.81,-9891.42,-304.717,-1.04576,3.17384,6.52203,-2625.8,9272.56,-766.26,1.05926,-2.2488,-2.23175,-1993.36,-9610.02,-2057.38,-4.48088,6.29512,0.007991,9013.65,531.728,3640.93,-0.763184,2.9322,-2.95298
0.024,3451.86,-3756.72,8309.15,0.0951041,0.761835,0.786615,3833.52,2967.29,8440.42,-1.39966,0.204911,-0.227202,1119.31,9716.81,-816.09,2.11667,-7.01425,-0.592022,-131.584,-9881.44,-279.341,-1.05658,3.15092,6.45839,-2636.91,9288.5,-758.844,1.04374,-2.17623,-2.27567,-1997.55,-9591.54,-2032.36,-4.45229,6.36964,0.17223,9023.39,531.67,3598.23,-0.608287,2.91495,-2.91398
0.025,3449.25,-3743.66,8314.44,-0.0383048,0.807614,0.692021,3850.07,2968.28,8430.9,-1.38286,0.182878,-0.302178,1150.24,9707.9,-817.745,2.15897,-6.81582,-0.559852,-159.359,-9871.46,-253.964,-1.0674,3.128,6.39476,-2648.01,9304.44,-751.428,1.02822,-2.10366,-2.31959,-2001.74,-9573.06,-2007.34,-4.4237,6.44415,0.336469,9033.13,531.611,3555.52,-0.453391,2.8977,-2.87497
0.026,3446.64,-3730.6,8319.73,-0.171714,0.853392,0.597427,3866.62,2969.27,8421.38,-1.36606,0.160846,-0.377155,1181.17,9699.0,-819.399,2.20128,-6.61739,-0.527683,-187.133,-9861.47,-228.588,-1.07822,3.10507,6.33112,-2659.11,9320.38,-744.013,1.01269,-2.03108,-2.36351,-2005.94,-9554.58,-1982.32,-4.3951,6.51867,0.500707,9042.87,531.552,3512.82,-0.298495,2.88045,-2.83597
0.027,3446.77,-3718.3,8318.95,-0.213291,0.917652,0.516845,3876.33,2972.72,8414.18,-1.36496,0.140813,-0.414032,1201.73,9689.27,-820.376,2.2196,-6.4126,-0.494351,-202.45,-9855.31,-217.786,-1.06792,3.09797,6.26906,-2664.13,9336.07,-737.085,0.967649,-1.9504,-2.39909,-2007.62,-9544.87,-1967.13,-4.3679,6.59258,0.614335,9041.21,530.442,3499.11,-0.248909,2.87798,-2.80064
0.028,3452.4,-3707.53,8306.02,-0.0712062,1.01887,0.464286,3872.33,2981.08,8411.62,-1.39524,0.12478,-0.374709,1201.53,9677.89,-819.996,2.18997,-6.19511,-0.458694,-192.851,-9856.78,-236.131,-1.01538,3.12251,6.21015,-2657.01,9351.23,-731.132,0.863564,-1.85351,-2.41799,-2004.3,-9552.71,-1971.59,-4.34349,6.66526,0.626741,9016.74,527.229,3543.37,-0.409944,2.90504,-2.77266
0.029,3458.04,-3696.77,8293.09,0.0708788,1.12009,0.411727,3868.33,2989.45,8409.06,-1.42552,0.108748,-0.335386,1201.33,9666.52,-819.617,2.16034,-5.97763,-0.423038,-183.251,-9858.25,-254.476,-0.962837,3.14705,6.15125,-2649.88,9366.4,-725.179,0.75948,-1.75662,-2.43689,-2000.98,-9560.56,-1976.06,-4.31907,6.73795,0.639146,8992.27,524.016,3587.64,-0.57098,2.93211,-2.74468
0.03,3463.67,-3686.0,8280.17,0.212964,1.22131,0.359168,3864.33,2997.81,8406.5,-1.4558,0.092715,-0.296063,1201.14,9655.14,-819.238,2.13072,-5.76014,-0.387381,-173.652,-9859.72,-272.821,-0.910297,3.1716,6.09234,-2642.76,9381.56,-719.226,0.655396,-1.65972,-2.4558,-1997.66,-9568.4,-1980.52,-4.29466,6.81063,0.651551,8967.79,520.803,3631.9,-0.732015,2.95918,-2.7167
0.031,3469.3,-3675.23,8267.24,0.355049,1.32253,0.306609,3860.33,3006.18,8403.94,-1.48608,0.0766823,-0.25674,1200.94,9643.76,-818.859,2.10109,-5.54265,-0.351724,-164.052,-9861.19,-291.166,-0.857758,3.19614,6.03343,-2635.64,9396.73,-713.273,0.551312,-1.56283,-2.4747,-1994.34,-9576.24,-1984.99,-4.27024,6.88331,0.663957,8943.32,517.59,3676.17,-0.89305,2.98625,-2.68871
0.032,3453.1,-3691.14,8267.77,0.227411,1.30614,0.296373,3852.7,2985.07,8411.31,-1.53229,0.0863514,-0.22226,1181.53,9650.19,-819.461,1.98673,-5.44392,-0.392656,-159.911,-9870.62,-300.312,-0.850285,3.19581,5.95692,-2631.15,9381.34,-720.286,0.625043,-1.41693,-2.43279,-1972.62,-9569.75,-1985.36,-4.38165,7.0171,0.743717,8931.02,536.333,3664.15,-0.899207,3.18426,-2.63572
0.033,3434.17,-3710.38,8269.99,0.0660587,1.27506,0.291427,3844.61,2960.28,8419.92,-1.58049,0.0992332,-0.188384,1159.72,9658.85,-820.185,1.86177,-5.36004,-0.443162,-156.453,-9881.04,-308.31,-0.848446,3.19237,5.8782,-2626.99,9362.14,-728.921,0.721001,-1.2649,-2.38329,-1948.61,-9561.47,-1985.22,-4.51003,7.15853,0.831896,8920.23,557.821,3645.1,-0.886004,3.40364,-2.5796
0.034,3415.24,-3729.62,8272.2,-0.095294,1.24397,0.286481,3836.52,2935.49,8428.53,-1.62869,0.112115,-0.154508,1137.92,9667.51,-820.909,1.73682,-5.27616,-0.493667,-152.994,-9891.47,-316.307,-0.846607,3.18893,5.79949,-2622.83,9342.94,-737.556,0.816959,-1.11287,-2.33379,-1924.6,-9553.18,-1985.08,-4.63841,7.29996,0.920075,8909.45,579.309,3626.04,-0.872801,3.62302,-2.52349
0.035,3396.31,-3748.87,8274.42,-0.256647,1.21288,0.281535,3828.43,2910.7,8437.15,-1.67689,0.124997,-0.120633,1116.11,9676.17,-821.633,1.61187,-5.19228,-0.544172,-149.535,-9901.9,-324.304,-0.844768,3.18548,5.72077,-2618.67,9323.74,-746.19,0.912917,-0.960845,-2.28428,-1900.58,-9544.9,-1984.94,-4.76679,7.44139,1.00825,8898.67,600.797,3606.99,-0.859599,3.8424,-2.46737
0.036,3385.66,-3765.93,8272.52,-0.326097,1.17149,0.316914,3822.84,2892.68,8440.0,-1.72338,0.153574,-0.126416,1108.72,9689.72,-817.933,1.56838,-5.15203,-0.57153,-139.179,-9900.08,-323.234,-0.917159,3.17218,5.67072,-2619.27,9315.37,-760.571,0.964588,-0.812463,-2.30523,-1900.22,-9544.79,-1990.84,-4.82567,7.55351,1.12694,8905.7,608.893,3602.92,-0.807591,3.92243,-2.33846
0.037,3385.37,-3780.28,8265.49,-0.280668,1.11722,0.402698,3820.38,2883.1,8435.67,-1.76773,0.201769,-0.181771,1119.35,9709.38,-808.702,1.62672,-5.16632,-0.569953,-120.201,-9882.96,-310.83,-1.08234,3.14655,5.6565,-2625.84,9320.56,-782.135,0.9609,-0.668638,-2.41425,-1929.43,-9554.88,-2004.3,-4.79769,7.629,1.28375,8935.0,600.248,3617.56,-0.707078,3.82826,-2.11855
0.038,3385.08,-3794.64,8258.45,-0.235239,1.06294,0.488482,3817.92,2873.52,8431.34,-1.81207,0.249964,-0.237127,1129.98,9729.03,-799.472,1.68506,-5.18061,-0.568377,-101.223,-9865.85,-298.426,-1.24752,3.12093,5.64228,-2632.41,9325.75,-803.699,0.957212,-0.524813,-2.52327,-1958.64,-9564.97,-2017.76,-4.76971,7.7045,1.44057,8964.3,591.603,3632.21,-0.606565,3.73408,-1.89865
0.039,3384.78,-3808.99,8251.42,-0.18981,1.00867,0.574265,3815.46,2863.95,8427.02,-1.85642,0.29816,-0.292483,1140.61,9748.69,-790.241,1.7434,-5.1949,-0.5668,-82.2449,-9848.73,-286.021,-1.4127,3.0953,5.62806,-2638.98,9330.94,-825.262,0.953525,-0.380988,-2.63229,-1987.85,-9575.07,-2031.22,-4.74173,7.77999,1.59738,8993.6,582.958,3646.86,-0.506051,3.63991,-1.67875
0.04,3384.49,-3823.34,8244.38,-0.144381,0.954397,0.660049,3813.0,2854.37,8422.69,-1.90076,0.346355,-0.347838,1151.24,9768.35,-781.01,1.80174,-5.20919,-0.565223,-63.2668,-9831.61,-273.617,-1.57788,3.06967,5.61384,-2645.55,9336.12,-846.826,0.949837,-0.237163,-2.7413,-2017.06,-9585.16,-2044.68,-4.71375,7.85549,1.75419,9022.9,574.314,3661.51,-0.405538,3.54573,-1.45884
0.041,3374.29,-3829.44,8265.17,-0.199864,1.03612,0.642093,3820.79,2862.74,8420.96,-1.86119,0.367775,-0.33779,1157.9,9771.81,-790.842,1.71558,-5.12226,-0.538324,-92.4866,-9847.76,-290.918,-1.46449,3.14876,5.54245,-2645.41,9342.09,-833.639,0.919563,-0.166254,-2.65728,-2031.93,-9591.39,-2046.92,-4.73839,8.10507,1.81378,9044.81,569.677,3637.83,-0.0831697,3.64287,-1.36593
0.042,3364.09,-3835.54,8285.96,-0.255346,1.11783,0.624136,3828.58,2871.1,8419.23,-1.82162,0.389195,-0.327742,1164.57,9775.27,-800.674,1.62942,-5.03532,-0.511424,-121.706,-9863.9,-308.22,-1.35111,3.22785,5.47105,-2645.27,9348.06,-820.452,0.889289,-0.0953443,-2.57326,-2046.81,-9597.61,-2049.17,-4.76303,8.35465,1.87336,9066.72,565.041,3614.16,0.239199,3.74,-1.27301
0.043,3353.89,-3841.64,8306.75,-0.310829,1.19955,0.60618,3836.37,2879.47,8417.5,-1.78205,0.410615,-0.317693,1171.23,9778.74,-810.506,1.54326,-4.94839,-0.484525,-150.926,-9880.05,-325.521,-1.23773,3.30694,5.39966,-2645.13,9354.04,-807.265,0.859014,-0.0244349,-2.48923,-2061.68,-9603.83,-2051.41,-4.78767,8.60423,1.93295,9088.64,560.405,3590.48,0.561567,3.83713,-1.18009
0.044,3343.69,-3847.74,8327.54,-0.366311,1.28127,0.588223,3844.15,2887.84,8415.77,-1.74248,0.432036,-0.307645,1177.89,9782.2,-820.337,1.4571,-4.86146,-0.457626,-180.146,-9896.2,-342.822,-1.12434,3.38604,5.32827,-2644.99,9360.01,-794.078,0.82874,0.0464746,-2.40521,-2076.55,-9610.06,-2053.66,-4.81231,8.8538,1.99253,9110.55,555.768,3566.81,0.883936,3.93426,-1.08718
0.045,3350.71,-3854.49,8344.45,-0.414954,1.29361,0.613642,3849.01,2890.65,8413.75,-1.70424,0.400717,-0.272909,1163.11,9777.07,-828.161,1.38098,-4.76724,-0.432548,-186.377,-9902.93,-349.535,-1.09555,3.49591,5.20255,-2636.29,9363.09,-792.497,0.806219,0.12769,-2.42986,-2084.61,-9612.24,-2066.57,-4.84997,9.08672,2.07867,9112.77,545.766,3549.77,1.2739,4.03252,-0.801292
0.046,3371.52,-3861.75,8358.25,-0.458125,1.25044,0.673762,3851.52,2889.02,8411.52,-1.66705,0.327207,-0.218423,1131.16,9765.08,-834.377,1.31288,-4.6672,-0.408927,-174.216,-9902.13,-347.777,-1.13443,3.63041,5.03337,-2620.74,9363.87,-800.201,0.789899,0.21715,-2.54145,-2087.21,-9611.19,-2088.03,-4.89804,9.3063,2.18605,9099.25,531.472,3538.05,1.71793,4.13167,-0.361035
0.047,3392.33,-3869.01,8372.05,-0.501296,1.20726,0.733881,3854.03,2887.39,8409.28,-1.62986,0.253697,-0.163938,1099.22,9753.09,-840.594,1.24478,-4.56715,-0.385307,-162.056,-9901.32,-346.019,-1.1733,3.76491,4.8642,-2605.19,9364.65,-807.905,0.773579,0.30661,-2.65304,-2089.8,-9610.14,-2109.48,-4.94611,9.52588,2.29342,9085.73,517.177,3526.33,2.16196,4.23081,0.0792213
0.048,3413.14,-3876.28,8385.85,-0.544467,1.16409,0.794001,3856.53,2885.76,8407.04,-1.59267,0.180187,-0.109452,1067.27,9741.09,-846.81,1.17669,-4.4671,-0.361686,-149.895,-9900.52,-344.261,-1.21218,3.89941,4.69502,-2589.64,9365.43,-815.609,0.757259,0.396071,-2.76464,-2092.4,-9609.09,-2130.93,-4.99418,9.74546,2.4008,9072.21,502.882,3514.61,2.60599,4.32996,0.519478
0.049,3430.56,-3879.84,8393.44,-0.57649,1.13058,0.844779,3857.49,2885.36,8406.55,-1.55876,0.1097,-0.0637598,1037.45,9729.86,-852.336,1.13,-4.3788,-0.333207,-138.732,-9901.6,-341.004,-1.24622,4.01241,4.53548,-2577.37,9366.82,-822.726,0.74504,0.496558,-2.86316,-2094.54,-9606.99,-2147.88,-5.0413,9.96712,2.51052,9060.42,491.114,3506.62,3.04923,4.43498,0.908601
0.05,3420.93,-3853.85,8351.42,-0.519328,1.1743,0.820828,3846.06,2894.81,8420.07,-1.55108,0.0634021,-0.0884185,1024.56,9724.68,-852.336,1.25458,-4.38445,-0.265852,-135.552,-9917.7,-325.75,-1.24159,3.95339,4.453,-2591.33,9373.12,-825.139,0.765628,0.685265,-2.85711,-2092.97,-9596.57,-2128.84,-5.0808,10.2054,2.63898,9062.57,499.551,3528.43,3.4861,4.58697,0.888659
0.051,3411.29,-3827.85,8309.39,-0.462165,1.21802,0.796878,3834.63,2904.26,8433.58,-1.54341,0.0171041,-0.113077,1011.68,9719.51,-852.336,1.37916,-4.3901,-0.198498,-132.371,-9933.8,-310.497,-1.23695,3.89437,4.37051,-2605.28,9379.43,-827.552,0.786216,0.873971,-2.85106,-2091.4,-9586.15,-2109.81,-5.12029,10.4437,2.76745,9064.71,507.988,3550.24,3.92297,4.73895,0.868717
0.052,3401.66,-3801.86,8267.36,-0.405003,1.26174,0.772927,3823.2,2913.71,8447.1,-1.53573,-0.0291939,-0.137736,998.799,9714.33,-852.336,1.50374,-4.39575,-0.131144,-129.19,-9949.91,-295.243,-1.23232,3.83535,4.28803,-2619.24,9385.73,-829.965,0.806804,1.06268,-2.84502,-2089.83,-9575.73,-2090.77,-5.15978,10.682,2.89591,9066.85,516.426,3572.05,4.35985,4.89094,0.848775
0.053,3392.03,-3775.87,8225.33,-0.34784,1.30547,0.748976,3811.76,2923.16,8460.61,-1.52806,-0.0754919,-0.162394,985.917,9709.16,-852.336,1.62832,-4.4014,-0.0637901,-126.009,-9966.01,-279.99,-1.22768,3.77633,4.20555,-2633.19,9392.03,-832.378,0.827392,1.25138,-2.83897,-2088.27,-9565.3,-2071.74,-5.19927,10.9204,3.02437,9069.0,524.863,3593.86,4.79672,5.04292,0.828833
0.054,3398.5,-3771.08,8220.4,-0.30319,1.3008,0.690832,3803.7,2933.38,8463.37,-1.51295,-0.0827989,-0.178239,988.462,9713.02,-851.81,1.63607,-4.43107,-0.133254,-130.865,-9937.96,-271.898,-1.26764,3.70065,4.14833,-2627.96,9390.11,-838.639,0.829532,1.37545,-2.82473,-2091.57,-9553.62,-2058.76,-5.23706,11.1116,3.19255,9056.63,502.343,3587.28,5.13767,5.18928,0.914161
0.055,3413.02,-3776.89,8234.01,-0.264796,1.27193,0.615591,3797.31,2943.99,8460.75,-1.49413,-0.0706104,-0.189676,998.721,9721.4,-851.021,1.5854,-4.47276,-0.271128,-139.738,-9887.82,-267.386,-1.32989,3.61666,4.10375,-2613.13,9384.07,-846.824,0.822449,1.46718,-2.80638,-2097.31,-9541.32,-2048.81,-5.27399,11.2793,3.38057,9037.0,464.344,3566.5,5.43066,5.33283,1.05212
0.056,3427.55,-3782.71,8247.62,-0.226403,1.24307,0.540351,3790.92,2954.6,8458.13,-1.47531,-0.0584219,-0.201113,1008.98,9729.78,-850.231,1.53474,-4.51444,-0.409001,-148.612,-9837.69,-262.875,-1.39214,3.53266,4.05917,-2598.3,9378.04,-855.008,0.815366,1.55892,-2.78803,-2103.05,-9529.01,-2038.86,-5.31093,11.447,3.5686,9017.38,426.345,3545.72,5.72365,5.47637,1.19009
0.057,3442.07,-3788.53,8261.23,-0.188009,1.21421,0.46511,3784.54,2965.22,8455.5,-1.45649,-0.0462334,-0.21255,1019.24,9738.16,-849.442,1.48407,-4.55613,-0.546874,-157.486,-9787.55,-258.363,-1.45438,3.44867,4.01459,-2583.47,9372.0,-863.193,0.808282,1.65066,-2.76968,-2108.8,-9516.7,-2028.92,-5.34786,11.6147,3.75663,8997.75,388.346,3524.95,6.01664,5.61991,1.32805
0.058,3455.13,-3793.12,8271.47,-0.189467,1.2006,0.42331,3779.33,2974.16,8453.18,-1.44681,-0.0121402,-0.216475,1029.3,9743.42,-847.16,1.44559,-4.58872,-0.651268,-169.753,-9752.16,-257.516,-1.51547,3.37333,3.94752,-2570.78,9362.51,-868.671,0.789296,1.69579,-2.75494,-2116.29,-9504.95,-2027.27,-5.37108,11.7578,3.92623,8982.0,362.548,3508.28,6.31041,5.77775,1.46206
0.059,3463.08,-3793.44,8269.89,-0.330405,1.24038,0.498549,3778.23,2977.24,8451.92,-1.46912,0.0986193,-0.194109,1038.66,9737.77,-839.653,1.44975,-4.58952,-0.638482,-193.898,-9768.36,-269.497,-1.57249,3.32826,3.8017,-2565.59,9340.97,-864.673,0.728648,1.57777,-2.7528,-2129.95,-9495.19,-2054.68,-5.34631,11.8145,4.03133,8979.83,379.451,3506.0,6.60691,5.98561,1.58222
0.06,3471.03,-3793.76,8268.3,-0.471343,1.28017,0.573789,3777.13,2980.32,8450.65,-1.49144,0.209379,-0.171743,1048.02,9732.11,-832.145,1.4539,-4.59032,-0.625696,-218.042,-9784.56,-281.477,-1.62951,3.2832,3.65588,-2560.39,9319.42,-860.675,0.668,1.45976,-2.75066,-2143.6,-9485.42,-2082.08,-5.32154,11.8713,4.13643,8977.65,396.355,3503.72,6.90341,6.19347,1.70239
0.061,3478.98,-3794.08,8266.72,-0.612281,1.31995,0.649029,3776.03,2983.4,8449.39,-1.51376,0.320138,-0.149377,1057.39,9726.46,-824.638,1.45806,-4.59112,-0.612911,-242.187,-9800.76,-293.457,-1.68653,3.23814,3.51006,-2555.2,9297.88,-856.677,0.607352,1.34175,-2.74852,-2157.25,-9475.66,-2109.49,-5.29677,11.9281,4.24152,8975.47,413.259,3501.44,7.1999,6.40133,1.82255
0.062,3486.93,-3794.4,8265.14,-0.753219,1.35973,0.724269,3774.94,2986.48,8448.12,-1.53608,0.430898,-0.12701,1066.75,9720.81,-817.13,1.46222,-4.59191,-0.600125,-266.331,-9816.96,-305.438,-1.74354,3.19308,3.36424,-2550.0,9276.33,-852.68,0.546704,1.22373,-2.74638,-2170.9,-9465.9,-2136.9,-5.272,11.9849,4.34662,8973.29,430.163,3499.15,7.4964,6.60918,1.94272
0.063,3489.88,-3792.88,8274.97,-0.768843,1.34015,0.802756,3781.68,2987.37,8452.95,-1.55073,0.461225,-0.12709,1056.38,9708.95,-797.685,1.44982,-4.54089,-0.586266,-269.518,-9831.18,-304.608,-1.60399,3.1504,3.25327,-2566.62,9287.57,-846.722,0.415077,1.26285,-2.8286,-2174.74,-9464.17,-2122.73,-5.28754,12.0225,4.36088,8970.98,442.406,3518.84,7.5481,6.65429,2.01344
0.064,3491.4,-3790.83,8288.06,-0.748662,1.30359,0.88217,3790.66,2987.62,8459.52,-1.5632,0.468571,-0.133583,1040.37,9695.33,-774.83,1.43269,-4.47506,-0.572101,-266.716,-9844.83,-300.117,-1.40828,3.1084,3.15227,-2589.48,9308.17,-840.205,0.263169,1.34687,-2.93492,-2175.77,-9464.75,-2096.68,-5.31458,12.0547,4.34919,8968.63,453.319,3544.8,7.52986,6.65291,2.07003
0.065,3492.92,-3788.79,8301.16,-0.728482,1.26704,0.961585,3799.64,2987.87,8466.08,-1.57566,0.475917,-0.140076,1024.37,9681.7,-751.974,1.41555,-4.40922,-0.557935,-263.915,-9858.49,-295.627,-1.21257,3.0664,3.05126,-2612.34,9328.77,-833.688,0.111262,1.43089,-3.04125,-2176.8,-9465.32,-2070.63,-5.34163,12.0868,4.3375,8966.29,464.231,3570.76,7.51163,6.65152,2.12663
0.066,3494.44,-3786.75,8314.25,-0.708301,1.23049,1.041,3808.62,2988.12,8472.65,-1.58813,0.483263,-0.146569,1008.36,9668.08,-729.119,1.39842,-4.34339,-0.54377,-261.113,-9872.15,-291.137,-1.01686,3.0244,2.95026,-2635.2,9349.38,-827.17,-0.0406453,1.51491,-3.14757,-2177.84,-9465.89,-2044.59,-5.36868,12.119,4.32581,8963.94,475.143,3596.73,7.49339,6.65013,2.18322
0.067,3501.72,-3788.78,8324.81,-0.678597,1.22625,1.06457,3815.22,2987.08,8472.86,-1.59517,0.485959,-0.170916,1004.32,9658.96,-716.665,1.36607,-4.28578,-0.510817,-266.974,-9891.66,-288.081,-0.920026,2.96888,2.85026,-2642.96,9364.42,-816.286,-0.137653,1.56076,-3.23613,-2176.28,-9469.05,-2026.62,-5.39917,12.1558,4.31288,8961.14,489.821,3622.34,7.45027,6.58495,2.23954
0.068,3520.51,-3798.96,8330.3,-0.629848,1.28662,0.976454,3817.04,2983.45,8460.35,-1.59136,0.479357,-0.230971,1024.22,9658.87,-725.015,1.30328,-4.24463,-0.440289,-290.161,-9922.87,-287.892,-1.02095,2.88633,2.75226,-2620.51,9368.32,-796.666,-0.12486,1.5303,-3.28915,-2169.56,-9477.37,-2024.79,-5.43654,12.2021,4.29749,8957.47,512.029,3647.27,7.35739,6.39219,2.29532
0.069,3539.3,-3809.14,8335.79,-0.581099,1.347,0.888337,3818.87,2979.81,8447.83,-1.58756,0.472755,-0.291026,1044.13,9658.77,-733.364,1.24049,-4.20347,-0.369761,-313.348,-9954.09,-287.703,-1.12187,2.80378,2.65426,-2598.06,9372.23,-777.046,-0.112068,1.49983,-3.34217,-2162.85,-9485.7,-2022.97,-5.47392,12.2483,4.28209,8953.79,534.238,3672.19,7.26451,6.19944,2.35109
0.07,3558.08,-3819.32,8341.28,-0.53235,1.40737,0.800221,3820.69,2976.17,8435.32,-1.58375,0.466152,-0.351081,1064.03,9658.67,-741.713,1.1777,-4.16231,-0.299233,-336.534,-9985.31,-287.514,-1.22279,2.72122,2.55626,-2575.61,9376.14,-757.426,-0.0992753,1.46937,-3.39519,-2156.13,-9494.02,-2021.15,-5.51129,12.2945,4.26669,8950.12,556.446,3697.12,7.17163,6.00668,2.40687
0.071,3576.87,-3829.5,8346.78,-0.483601,1.46775,0.712105,3822.51,2972.54,8422.8,-1.57994,0.45955,-0.411136,1083.93,9658.58,-750.063,1.11491,-4.12115,-0.228705,-359.721,-10016.5,-287.325,-1.32371,2.63867,2.45826,-2553.17,9380.05,-737.806,-0.0864828,1.4389,-3.44821,-2149.41,-9502.34,-2019.32,-5.54867,12.3407,4.2513,8946.44,578.655,3722.05,7.07875,5.81392,2.46264
0.072,3553.53,-3835.11,8364.39,-0.446771,1.46982,0.658964,3810.8,2972.6,8420.16,-1.5877,0.416685,-0.456559,1081.05,9676.65,-751.988,1.10334,-4.12046,-0.201103,-334.836,-9987.89,-275.8,-1.37288,2.61569,2.31197,-2563.11,9365.37,-744.028,-0.155162,1.45051,-3.4161,-2148.08,-9509.0,-2019.79,-5.57792,12.345,4.33519,8946.33,585.476,3750.39,6.74167,5.50021,2.40344
0.073,3524.93,-3840.14,8383.51,-0.41143,1.46461,0.610196,3797.4,2973.12,8418.75,-1.59691,0.369288,-0.500153,1075.32,9696.99,-753.111,1.09818,-4.12482,-0.178867,-303.943,-9951.77,-262.857,-1.41559,2.60017,2.15965,-2577.09,9348.36,-753.479,-0.234024,1.46737,-3.37336,-2147.42,-9515.45,-2020.55,-5.60616,12.3441,4.4315,8946.67,590.375,3779.15,6.37406,5.17138,2.32987
0.074,3496.32,-3845.17,8402.64,-0.376089,1.45939,0.561427,3784.0,2973.64,8417.34,-1.60611,0.32189,-0.543747,1069.59,9717.33,-754.234,1.09301,-4.12919,-0.15663,-273.05,-9915.65,-249.915,-1.45829,2.58464,2.00732,-2591.08,9331.36,-762.93,-0.312887,1.48424,-3.33061,-2146.77,-9521.9,-2021.31,-5.63441,12.3432,4.52781,8947.0,595.273,3807.92,6.00645,4.84255,2.25629
0.075,3467.72,-3850.2,8421.77,-0.340749,1.45418,0.512659,3770.6,2974.16,8415.92,-1.61532,0.274492,-0.587341,1063.86,9737.68,-755.356,1.08785,-4.13355,-0.134394,-242.156,-9879.53,-236.972,-1.50099,2.56911,1.85499,-2605.07,9314.35,-772.382,-0.391749,1.5011,-3.28786,-2146.11,-9528.35,-2022.06,-5.66265,12.3423,4.62412,8947.34,600.171,3836.68,5.63884,4.51372,2.18272
0.076,3444.44,-3851.68,8422.59,-0.275189,1.41599,0.464298,3761.97,2972.68,8417.82,-1.6018,0.229446,-0.602291,1067.35,9749.12,-757.458,1.10566,-4.09862,-0.160738,-223.678,-9862.7,-228.432,-1.50619,2.50624,1.78742,-2612.69,9316.56,-785.604,-0.446222,1.55518,-3.27191,-2154.08,-9531.86,-2020.18,-5.70023,12.2924,4.66928,8937.24,604.527,3841.53,5.13854,4.15894,2.13578
0.077,3427.82,-3848.71,8400.53,-0.171857,1.33658,0.416448,3759.29,2968.68,8423.84,-1.55989,0.18734,-0.581434,1082.35,9749.42,-760.783,1.15221,-4.01456,-0.247808,-220.718,-9869.98,-225.394,-1.46452,2.38419,1.8258,-2612.35,9342.78,-803.539,-0.470208,1.65577,-3.28945,-2172.85,-9531.71,-2014.99,-5.7495,12.1812,4.65053,8914.11,608.204,3816.47,4.47239,3.77172,2.12211
0.078,3411.21,-3845.74,8378.47,-0.068524,1.25718,0.368598,3756.61,2964.69,8429.87,-1.51798,0.145233,-0.560577,1097.36,9749.74,-764.108,1.19876,-3.9305,-0.334878,-217.758,-9877.25,-222.357,-1.42285,2.26214,1.86418,-2612.01,9368.99,-821.474,-0.494194,1.75636,-3.30699,-2191.61,-9531.55,-2009.8,-5.79877,12.0701,4.63177,8890.98,611.882,3791.42,3.80623,3.38451,2.10845
0.079,3394.59,-3842.77,8356.41,0.0348087,1.17777,0.320747,3753.92,2960.7,8435.9,-1.47607,0.103127,-0.53972,1112.37,9750.05,-767.434,1.2453,-3.84644,-0.421948,-214.798,-9884.53,-219.319,-1.38118,2.1401,1.90256,-2611.67,9395.21,-839.409,-0.51818,1.85695,-3.32453,-2210.37,-9531.39,-2004.61,-5.84804,11.959,4.61301,8867.85,615.559,3766.37,3.14008,2.9973,2.09479
0.08,3377.97,-3839.8,8334.35,0.138141,1.09836,0.272897,3751.24,2956.7,8441.92,-1.43416,0.06102,-0.518864,1127.38,9750.36,-770.759,1.29185,-3.76238,-0.509018,-211.838,-9891.81,-216.282,-1.33951,2.01805,1.94094,-2611.33,9421.43,-857.344,-0.542166,1.95755,-3.34207,-2229.14,-9531.23,-1999.42,-5.89731,11.8479,4.59425,8844.71,619.236,3741.32,2.47392,2.61009,2.08113
0.081,3381.82,-3843.95,8329.2,0.0693201,1.11703,0.349181,3774.57,2952.88,8426.69,-1.43419,0.0887423,-0.505025,1116.69,9775.9,-784.881,1.25904,-3.52968,-0.44339,-221.083,-9882.81,-223.125,-1.31631,2.05945,1.83074,-2625.4,9390.5,-849.825,-0.556008,1.92112,-3.30844,-2206.26,-9531.76,-1987.19,-5.87839,11.7116,4.6067,8844.88,582.185,3725.9,1.94068,2.46416,1.87038
0.082,3385.67,-3848.09,8324.05,0.000498796,1.13571,0.425465,3797.91,2949.06,8411.46,-1.43421,0.116465,-0.491186,1105.99,9801.43,-799.004,1.22622,-3.29698,-0.377763,-230.329,-9873.82,-229.969,-1.29311,2.10085,1.72054,-2639.46,9359.57,-842.307,-0.56985,1.88469,-3.2748,-2183.39,-9532.29,-1974.95,-5.85947,11.5754,4.61914,8845.05,545.134,3710.49,1.40743,2.31823,1.65964
0.083,3389.53,-3852.24,8318.9,-0.0683225,1.15438,0.501748,3821.24,2945.23,8396.23,-1.43423,0.144187,-0.477347,1095.3,9826.97,-813.126,1.19341,-3.06428,-0.312135,-239.575,-9864.83,-236.812,-1.2699,2.14225,1.61034,-2653.52,9328.64,-834.789,-0.583692,1.84826,-3.24117,-2160.51,-9532.81,-1962.71,-5.84055,11.4391,4.63159,8845.22,508.083,3695.08,0.874181,2.17229,1.44889
0.084,3393.38,-3856.38,8313.75,-0.137144,1.17306,0.578032,3844.57,2941.41,8381.0,-1.43425,0.171909,-0.463508,1084.6,9852.51,-827.249,1.16059,-2.83158,-0.246507,-248.82,-9855.83,-243.656,-1.2467,2.18365,1.50014,-2667.59,9297.71,-827.271,-0.597534,1.81183,-3.20753,-2137.64,-9533.34,-1950.48,-5.82163,11.3028,4.64403,8845.39,471.032,3679.67,0.340933,2.02636,1.23814
0.085,3407.71,-3875.89,8315.07,-0.219919,1.21501,0.595254,3856.04,2940.8,8371.78,-1.46151,0.183695,-0.469225,1078.24,9860.64,-832.834,1.11513,-2.74971,-0.230348,-237.512,-9857.11,-241.235,-1.27725,2.21712,1.41082,-2683.97,9280.04,-807.643,-0.576997,1.76488,-3.30703,-2131.33,-9530.31,-1952.29,-5.82374,11.1218,4.66992,8846.44,467.574,3670.52,-0.0799003,1.89742,1.13311
0.086,3430.44,-3907.68,8321.56,-0.313856,1.27559,0.565225,3858.02,2942.76,8367.38,-1.51055,0.18273,-0.490586,1075.33,9854.84,-831.588,1.05955,-2.7885,-0.253765,-209.761,-9866.59,-231.402,-1.35081,2.24425,1.33822,-2702.2,9272.99,-778.328,-0.528958,1.70951,-3.51303,-2138.29,-9524.42,-1965.34,-5.84265,10.9049,4.70656,8848.21,490.989,3666.39,-0.410803,1.78206,1.11265
0.087,3453.16,-3939.46,8328.05,-0.407794,1.33617,0.535196,3860.01,2944.72,8362.97,-1.55958,0.181766,-0.511947,1072.43,9849.04,-830.343,1.00397,-2.82729,-0.277181,-182.009,-9876.08,-221.57,-1.42438,2.27138,1.26561,-2720.44,9265.94,-749.013,-0.480919,1.65414,-3.71902,-2145.25,-9518.54,-1978.4,-5.86157,10.688,4.7432,8849.97,514.404,3662.25,-0.741706,1.66669,1.09219
0.088,3475.88,-3971.25,8334.54,-0.501732,1.39675,0.505168,3861.99,2946.68,8358.57,-1.60862,0.180802,-0.533308,1069.52,9843.24,-829.098,0.948393,-2.86608,-0.300597,-154.258,-9885.56,-211.737,-1.49794,2.29851,1.193,-2738.68,9258.88,-719.698,-0.43288,1.59877,-3.92502,-2152.21,-9512.66,-1991.45,-5.88049,10.4711,4.77985,8851.73,537.82,3658.12,-1.07261,1.55133,1.07173
0.089,3493.8,-3995.49,8339.25,-0.582805,1.44528,0.48874,3862.79,2948.66,8356.19,-1.65032,0.177766,-0.547325,1066.56,9837.38,-826.194,0.905457,-2.87625,-0.321265,-129.762,-9892.72,-205.394,-1.55526,2.32317,1.11779,-2753.13,9253.77,-695.803,-0.397903,1.54896,-4.10514,-2158.6,-9508.06,-2004.09,-5.90573,10.2552,4.80779,8858.3,559.067,3656.71,-1.37268,1.42739,1.0551
0.09,3473.35,-3959.34,8329.71,-0.560964,1.39746,0.581126,3854.1,2950.78,8370.02,-1.63326,0.158157,-0.502589,1063.19,9831.04,-810.026,0.963679,-2.65738,-0.319944,-131.308,-9881.33,-226.969,-1.48266,2.32805,1.02175,-2737.29,9264.23,-715.263,-0.467419,1.54354,-4.07819,-2160.36,-9513.67,-2013.38,-5.98156,10.0469,4.76612,8903.33,562.966,3677.13,-1.42613,1.23483,1.06906
0.091,3452.9,-3923.19,8320.17,-0.539123,1.34964,0.673512,3845.41,2952.9,8383.85,-1.6162,0.138549,-0.457853,1059.81,9824.71,-793.858,1.0219,-2.43852,-0.318624,-132.854,-9869.94,-248.545,-1.41006,2.33293,0.925709,-2721.46,9274.7,-734.723,-0.536936,1.53813,-4.05124,-2162.12,-9519.29,-2022.66,-6.05739,9.83865,4.72445,8948.37,566.865,3697.54,-1.47957,1.04226,1.08303
0.092,3432.45,-3887.04,8310.63,-0.517282,1.30181,0.765897,3836.72,2955.02,8397.68,-1.59914,0.11894,-0.413117,1056.44,9818.38,-777.69,1.08012,-2.21965,-0.317303,-134.399,-9858.54,-270.12,-1.33746,2.33781,0.829669,-2705.62,9285.16,-754.183,-0.606452,1.53272,-4.0243,-2163.88,-9524.91,-2031.95,-6.13323,9.63039,4.68278,8993.4,570.764,3717.96,-1.53302,0.849698,1.09699
0.093,3412.01,-3850.89,8301.09,-0.49544,1.25399,0.858283,3828.04,2957.14,8411.51,-1.58208,0.0993314,-0.368381,1053.06,9812.04,-761.522,1.13834,-2.00079,-0.315982,-135.945,-9847.15,-291.695,-1.26486,2.34269,0.733629,-2689.79,9295.62,-773.643,-0.675968,1.5273,-3.99735,-2165.64,-9530.53,-2041.24,-6.20906,9.42213,4.64111,9038.43,574.663,3738.37,-1.58646,0.657133,1.11096
0.094,3403.61,-3818.05,8290.59,-0.490221,1.27704,0.885009,3820.11,2949.23,8414.04,-1.5413,0.1117,-0.338637,1053.26,9804.6,-768.539,1.09018,-1.97961,-0.283187,-139.675,-9849.72,-296.489,-1.28458,2.28275,0.751035,-2669.5,9297.84,-790.852,-0.788107,1.4667,-4.02706,-2154.84,-9537.49,-2038.06,-6.25845,9.27319,4.61046,9038.51,572.444,3739.95,-1.66919,0.657535,1.06231
0.095,3401.24,-3786.86,8279.61,-0.493312,1.33554,0.878905,3812.56,2936.3,8410.92,-1.48866,0.140056,-0.316389,1055.24,9796.62,-787.149,0.988818,-2.05728,-0.234656,-144.496,-9859.29,-292.893,-1.35045,2.19039,0.825162,-2646.98,9295.95,-806.935,-0.921558,1.3785,-4.08509,-2137.78,-9545.12,-2028.65,-6.29461,9.15392,4.58532,9016.13,567.165,3732.1,-1.76657,0.754422,0.98235
0.096,3398.87,-3755.67,8268.63,-0.496403,1.39403,0.872802,3805.01,2923.38,8407.81,-1.43602,0.168413,-0.294141,1057.22,9788.63,-805.759,0.887458,-2.13494,-0.186124,-149.317,-9868.85,-289.297,-1.41632,2.09803,0.89929,-2624.46,9294.05,-823.018,-1.05501,1.29029,-4.14313,-2120.71,-9552.75,-2019.23,-6.33077,9.03465,4.56018,8993.74,561.887,3724.26,-1.86395,0.851309,0.902391
0.097,3396.5,-3724.49,8257.65,-0.499494,1.45253,0.866698,3797.46,2910.45,8404.7,-1.38338,0.196769,-0.271893,1059.2,9780.65,-824.369,0.786099,-2.2126,-0.137592,-154.138,-9878.42,-285.701,-1.48219,2.00567,0.973418,-2601.95,9292.16,-839.102,-1.18846,1.20209,-4.20117,-2103.64,-9560.38,-2009.82,-6.36693,8.91539,4.53503,8971.35,556.608,3716.41,-1.96133,0.948195,0.822431
0.098,3403.02,-3700.18,8253.63,-0.506417,1.49832,0.87018,3795.92,2897.34,8400.89,-1.34408,0.208402,-0.273041,1060.04,9767.39,-841.392,0.72323,-2.29136,-0.103109,-155.71,-9888.72,-288.705,-1.55793,1.92152,1.02684,-2578.92,9294.39,-847.231,-1.28064,1.14303,-4.23344,-2083.2,-9569.0,-2003.5,-6.38989,8.78111,4.518,8953.39,551.575,3714.66,-2.01719,1.07906,0.729405
0.099,3440.67,-3699.95,8273.95,-0.526752,1.49967,0.907211,3815.43,2883.59,8394.65,-1.35145,0.161499,-0.356074,1056.88,9735.69,-852.857,0.795079,-2.37394,-0.117795,-145.911,-9901.64,-314.806,-1.66824,1.86608,1.0078,-2554.11,9311.09,-827.523,-1.22837,1.18598,-4.17552,-2050.97,-9581.08,-2007.99,-6.36664,8.5943,4.52934,8950.91,547.397,3734.25,-1.92775,1.32882,0.590645
0.1,3478.32,-3699.72,8294.28,-0.547087,1.50102,0.944242,3834.93,2869.84,8388.42,-1.35881,0.114597,-0.439108,1053.71,9704.0,-864.322,0.866928,-2.45652,-0.132482,-136.112,-9914.56,-340.907,-1.77855,1.81063,0.98876,-2529.31,9327.78,-807.814,-1.1761,1.22892,-4.11761,-2018.74,-9593.16,-2012.49,-6.34339,8.40748,4.54068,8948.44,543.219,3753.84,-1.83831,1.57859,0.451885
0.101,3515.98,-3699.49,8314.6,-0.567422,1.50237,0.981273,3854.44,2856.09,8382.19,-1.36618,0.0676952,-0.522141,1050.55,9672.3,-875.787,0.938777,-2.5391,-0.147168,-126.312,-9927.48,-367.008,-1.88886,1.75519,0.96972,-2504.5,9344.47,-788.106,-1.12383,1.27187,-4.05969,-1986.51,-9605.24,-2016.98,-6.32013,8.22067,4.55202,8945.97,539.041,3773.43,-1.74887,1.82836,0.313125
0.102,3553.63,-3699.25,8334.92,-0.587757,1.50372,1.0183,3873.94,2842.34,8375.95,-1.37355,0.020793,-0.605175,1047.39,9640.6,-887.252,1.01063,-2.62167,-0.161854,-116.513,-9940.4,-393.109,-1.99917,1.69975,0.950679,-2479.7,9361.17,-768.397,-1.07156,1.31481,-4.00177,-1954.28,-9617.32,-2021.47,-6.29688,8.03386,4.56336,8943.49,534.863,3793.01,-1.65943,2.07813,0.174364
0.103,3540.6,-3723.41,8345.66,-0.614146,1.57429,0.977839,3866.03,2839.39,8378.81,-1.39758,0.0123691,-0.664944,1036.05,9653.41,-875.563,1.03915,-2.58321,-0.269868,-112.886,-9934.33,-384.278,-1.89979,1.60103,0.90441,-2502.5,9358.1,-776.02,-1.12581,1.24773,-3.95503,-1940.72,-9628.01,-2019.61,-6.29319,7.81322,4.49679,8954.52,527.13,3781.97,-1.4626,2.30916,0.0543403
0.104,3513.09,-3754.53,8353.66,-0.642265,1.66464,0.915233,3850.29,2839.53,8384.27,-1.42638,0.0149391,-0.718067,1022.37,9678.94,-857.258,1.0553,-2.51017,-0.404546,-111.022,-9922.83,-365.466,-1.74051,1.48995,0.850362,-2538.91,9349.4,-791.452,-1.21049,1.1492,-3.91147,-1932.5,-9638.3,-2015.94,-6.29508,7.58292,4.40795,8969.4,518.381,3762.19,-1.23509,2.53484,-0.0603307
0.105,3485.59,-3785.66,8361.66,-0.670383,1.75498,0.852627,3834.55,2839.67,8389.72,-1.45517,0.0175091,-0.77119,1008.68,9704.47,-838.954,1.07145,-2.43713,-0.539224,-109.158,-9911.33,-346.655,-1.58123,1.37886,0.796313,-2575.31,9340.69,-806.884,-1.29518,1.05067,-3.86791,-1924.28,-9648.6,-2012.27,-6.29697,7.35262,4.31912,8984.28,509.632,3742.4,-1.00758,2.76052,-0.175002
0.106,3458.08,-3816.78,8369.67,-0.698502,1.84533,0.79002,3818.81,2839.81,8395.18,-1.48397,0.0200791,-0.824313,995.003,9730.0,-820.65,1.08759,-2.36409,-0.673902,-107.294,-9899.83,-327.843,-1.42195,1.26778,0.742265,-2611.72,9331.98,-822.316,-1.37986,0.952147,-3.82435,-1916.05,-9658.89,-2008.59,-6.29886,7.12232,4.23028,8999.16,500.884,3722.61,-0.780069,2.9862,-0.289673
0.107,3433.97,-3839.93,8374.01,-0.70911,1.92165,0.735583,3802.68,2846.0,8399.82,-1.51953,0.0359349,-0.848722,990.243,9746.1,-815.304,1.06223,-2.33515,-0.730342,-103.68,-9891.79,-319.888,-1.35303,1.22951,0.701856,-2636.89,9322.56,-830.299,-1.40825,0.888362,-3.81596,-1908.54,-9665.39,-2000.14,-6.33444,6.9047,4.14763,9001.99,485.977,3704.99,-0.600524,3.16684,-0.367824
0.108,3416.66,-3847.11,8371.03,-0.684696,1.96992,0.697486,3785.74,2864.29,8402.84,-1.56863,0.0783626,-0.815703,1003.33,9743.33,-835.874,0.953857,-2.39443,-0.630306,-96.5657,-9890.7,-333.647,-1.46483,1.33687,0.688727,-2639.59,9311.7,-823.386,-1.32403,0.894057,-3.87793,-1902.42,-9664.3,-1982.15,-6.43739,6.71241,4.07735,8980.69,458.752,3691.72,-0.51691,3.2574,-0.372934
0.109,3399.35,-3854.29,8368.06,-0.660282,2.01818,0.659389,3768.81,2882.57,8405.85,-1.61774,0.12079,-0.782684,1016.41,9740.57,-856.444,0.84548,-2.45371,-0.53027,-89.4512,-9889.6,-347.406,-1.57663,1.44423,0.675599,-2642.29,9300.83,-816.472,-1.23981,0.899752,-3.9399,-1896.31,-9663.21,-1964.15,-6.54035,6.52013,4.00707,8959.4,431.528,3678.45,-0.433297,3.34797,-0.378045
0.11,3382.04,-3861.47,8365.08,-0.635868,2.06645,0.621291,3751.88,2900.86,8408.87,-1.66684,0.163218,-0.749665,1029.49,9737.81,-877.015,0.737102,-2.51299,-0.430234,-82.3369,-9888.5,-361.165,-1.68843,1.55159,0.66247,-2644.99,9289.97,-809.558,-1.15559,0.905447,-4.00186,-1890.2,-9662.12,-1946.15,-6.6433,6.32784,3.93679,8938.11,404.304,3665.18,-0.349683,3.43853,-0.383156
0.111,3364.72,-3868.66,8362.11,-0.611454,2.11472,0.583194,3734.94,2919.14,8411.88,-1.71595,0.205645,-0.716647,1042.58,9735.05,-897.585,0.628725,-2.57227,-0.330199,-75.2225,-9887.4,-374.924,-1.80024,1.65895,0.649341,-2647.69,9279.11,-802.644,-1.07137,0.911142,-4.06383,-1884.09,-9661.03,-1928.16,-6.74625,6.13556,3.8665,8916.82,377.079,3651.92,-0.26607,3.5291,-0.388267
0.112,3370.19,-3851.75,8359.94,-0.556174,2.111,0.554302,3742.06,2923.84,8407.82,-1.72272,0.218582,-0.652853,1032.29,9736.36,-890.893,0.581481,-2.54445,-0.304083,-65.1219,-9884.74,-380.484,-1.73303,1.55308,0.743539,-2661.64,9292.82,-812.356,-1.03388,0.982071,-4.09744,-1884.97,-9659.08,-1925.71,-6.73052,5.96197,3.88109,8922.6,382.124,3663.34,-0.112595,3.56798,-0.418307
0.113,3378.5,-3831.82,8357.87,-0.497036,2.10079,0.526561,3752.18,2926.84,8402.87,-1.7242,0.227833,-0.585213,1019.08,9738.17,-880.792,0.541878,-2.50575,-0.287207,-54.6481,-9881.88,-385.019,-1.64345,1.42055,0.851153,-2677.0,9309.61,-824.145,-1.00223,1.06115,-4.1275,-1886.73,-9657.03,-1925.22,-6.69996,5.79073,3.90627,8931.76,391.201,3677.85,0.0496127,3.6004,-0.451463
0.114,3386.81,-3811.9,8355.81,-0.437898,2.09057,0.498819,3762.3,2929.83,8397.92,-1.72568,0.237084,-0.517572,1005.87,9739.99,-870.691,0.502275,-2.46705,-0.270331,-44.1743,-9879.02,-389.554,-1.55388,1.28803,0.958767,-2692.36,9326.39,-835.935,-0.970586,1.14024,-4.15756,-1888.5,-9654.97,-1924.72,-6.66939,5.61948,3.93146,8940.93,400.279,3692.36,0.21182,3.63283,-0.484618
0.115,3395.12,-3791.98,8353.74,-0.378761,2.08036,0.471078,3772.43,2932.83,8392.98,-1.72716,0.246334,-0.449932,992.666,9741.8,-860.591,0.462672,-2.42834,-0.253455,-33.7005,-9876.16,-394.089,-1.4643,1.15551,1.06638,-2707.72,9343.18,-847.724,-0.938937,1.21932,-4.18762,-1890.26,-9652.92,-1924.22,-6.63883,5.44824,3.95665,8950.09,409.356,3706.87,0.374028,3.66525,-0.517774
0.116,3401.83,-3780.64,8349.21,-0.323519,2.06793,0.456836,3776.14,2936.26,8385.91,-1.69565,0.242959,-0.418975,989.657,9745.56,-857.689,0.450315,-2.40413,-0.222084,-24.719,-9869.79,-389.52,-1.41953,1.04814,1.1075,-2706.97,9348.78,-846.756,-0.938296,1.21243,-4.26342,-1894.98,-9651.86,-1926.32,-6.605,5.29192,3.91676,8958.18,421.621,3715.71,0.48599,3.74081,-0.552001
0.117,3406.54,-3780.02,8341.6,-0.27315,2.05274,0.459468,3771.86,2940.24,8376.19,-1.62291,0.223801,-0.433872,999.397,9751.74,-863.784,0.472017,-2.39805,-0.172593,-17.6031,-9859.02,-373.57,-1.43076,0.972236,1.0655,-2686.08,9340.39,-829.841,-0.976415,1.09807,-4.39639,-1903.4,-9652.06,-1931.67,-6.5671,5.15427,3.79554,8964.94,437.868,3717.44,0.535145,3.87029,-0.587566
0.118,3411.24,-3779.4,8334.0,-0.22278,2.03756,0.4621,3767.57,2944.22,8366.47,-1.55017,0.204644,-0.44877,1009.14,9757.92,-869.879,0.493718,-2.39196,-0.123101,-10.4871,-9848.25,-357.619,-1.442,0.896328,1.0235,-2665.2,9332.0,-812.926,-1.01453,0.983718,-4.52936,-1911.83,-9652.26,-1937.02,-6.5292,5.01662,3.67431,8971.7,454.115,3719.18,0.584301,3.99978,-0.623131
0.119,3415.95,-3778.78,8326.39,-0.17241,2.02237,0.464732,3763.28,2948.21,8356.75,-1.47743,0.185486,-0.463667,1018.88,9764.11,-875.974,0.515419,-2.38587,-0.0736099,-3.37108,-9837.48,-341.669,-1.45324,0.82042,0.981502,-2644.31,9323.62,-796.011,-1.05265,0.86936,-4.66232,-1920.26,-9652.45,-1942.37,-6.49129,4.87897,3.55308,8978.45,470.362,3720.92,0.633456,4.12926,-0.658696
0.12,3420.66,-3778.16,8318.78,-0.12204,2.00718,0.467364,3758.99,2952.19,8347.04,-1.40469,0.166328,-0.478565,1028.62,9770.29,-882.069,0.537121,-2.37978,-0.0241186,3.7449,-9826.71,-325.719,-1.46448,0.744512,0.939503,-2623.42,9315.23,-779.095,-1.09077,0.755003,-4.79529,-1928.68,-9652.65,-1947.72,-6.45339,4.74132,3.43185,8985.21,486.609,3722.66,0.682612,4.25874,-0.694261
0.121,3414.31,-3771.24,8321.72,-0.153543,1.9832,0.507271,3775.62,2961.02,8350.15,-1.45821,0.134719,-0.468606,1011.2,9750.27,-877.018,0.539834,-2.46755,-0.0813833,-6.22013,-9824.91,-335.796,-1.47054,0.737292,0.952071,-2629.78,9315.87,-790.835,-1.06593,0.749882,-4.50899,-1932.73,-9672.76,-1955.28,-6.42669,4.65893,3.39382,8990.72,487.055,3746.54,0.912709,4.24486,-0.694562
0.122,3407.97,-3764.31,8324.67,-0.185047,1.95922,0.547179,3792.24,2969.86,8353.27,-1.51173,0.103109,-0.458647,993.784,9730.25,-871.966,0.542547,-2.55532,-0.138648,-16.1852,-9823.12,-345.873,-1.47661,0.730071,0.964639,-2636.13,9316.51,-802.574,-1.0411,0.74476,-4.22268,-1936.79,-9692.86,-1962.84,-6.39999,4.57653,3.35579,8996.22,487.502,3770.42,1.14281,4.23099,-0.694863
0.123,3401.62,-3757.39,8327.61,-0.21655,1.93524,0.587087,3808.86,2978.69,8356.39,-1.56525,0.0714992,-0.448689,976.367,9710.22,-866.914,0.545261,-2.64308,-0.195913,-26.1502,-9821.32,-355.951,-1.48267,0.72285,0.977207,-2642.48,9317.15,-814.313,-1.01626,0.739638,-3.93638,-1940.84,-9712.97,-1970.39,-6.37329,4.49414,3.31776,9001.73,487.948,3794.31,1.37291,4.21711,-0.695164
0.124,3395.27,-3750.47,8330.55,-0.248053,1.91127,0.626994,3825.48,2987.53,8359.51,-1.61876,0.0398895,-0.43873,958.95,9690.2,-861.862,0.547974,-2.73085,-0.253177,-36.1152,-9819.52,-366.028,-1.48873,0.715629,0.989775,-2648.84,9317.79,-826.052,-0.991422,0.734516,-3.65008,-1944.89,-9733.08,-1977.95,-6.34659,4.41174,3.27973,9007.24,488.395,3818.19,1.603,4.20324,-0.695465
0.125,3406.15,-3757.03,8331.82,-0.298773,1.92463,0.594868,3837.13,2982.42,8368.29,-1.62781,0.0136943,-0.422612,963.514,9686.3,-854.321,0.492719,-2.76743,-0.267822,-37.2563,-9830.09,-357.523,-1.48864,0.665754,1.09001,-2653.55,9299.42,-826.257,-0.942696,0.695061,-3.55442,-1939.32,-9747.01,-1983.55,-6.30881,4.31005,3.26686,9012.45,484.244,3827.09,1.61654,4.18063,-0.762944
0.126,3430.8,-3774.38,8331.76,-0.364867,1.96788,0.505114,3844.81,2966.16,8381.61,-1.60129,-0.00816939,-0.401565,985.664,9695.3,-844.788,0.391089,-2.76307,-0.248371,-31.3381,-9850.56,-334.152,-1.48362,0.581755,1.26039,-2656.95,9265.85,-817.234,-0.874859,0.628139,-3.61129,-1926.05,-9756.01,-1987.58,-6.26215,4.19292,3.27412,9017.42,476.416,3823.98,1.45683,4.15105,-0.884166
0.127,3455.45,-3791.73,8331.7,-0.430961,2.01112,0.41536,3852.48,2949.9,8394.92,-1.57476,-0.0300331,-0.380519,1007.81,9704.31,-835.255,0.289459,-2.7587,-0.228919,-25.4199,-9871.03,-310.78,-1.4786,0.497757,1.43076,-2660.35,9232.27,-808.212,-0.807023,0.561216,-3.66816,-1912.78,-9765.01,-1991.62,-6.2155,4.07579,3.28137,9022.39,468.589,3820.88,1.29713,4.12147,-1.00539
0.128,3480.11,-3809.09,8331.63,-0.497055,2.05437,0.325606,3860.15,2933.63,8408.23,-1.54823,-0.0518967,-0.359473,1029.96,9713.31,-825.722,0.187829,-2.75434,-0.209468,-19.5018,-9891.5,-287.409,-1.47358,0.413758,1.60114,-2663.76,9198.7,-799.19,-0.739186,0.494294,-3.72502,-1899.5,-9774.01,-1995.65,-6.16884,3.95865,3.28863,9027.36,460.761,3817.78,1.13742,4.09188,-1.12661
0.129,3500.38,-3824.57,8331.1,-0.553996,2.09342,0.235102,3866.43,2918.92,8421.54,-1.51795,-0.0725988,-0.343207,1048.97,9722.53,-819.412,0.115169,-2.76321,-0.1991,-16.6599,-9909.01,-267.115,-1.46224,0.327379,1.75328,-2667.14,9172.41,-792.202,-0.6637,0.431616,-3.78176,-1884.22,-9780.18,-1997.93,-6.13358,3.84061,3.28225,9034.33,454.513,3816.32,0.994482,4.06218,-1.23298
0.13,3485.66,-3825.14,8326.84,-0.53771,2.09884,0.138603,3861.5,2916.6,8434.76,-1.45763,-0.0840083,-0.36518,1042.82,9733.52,-838.885,0.274262,-2.87801,-0.261394,-38.4283,-9902.89,-271.442,-1.40025,0.221948,1.75956,-2670.4,9204.37,-801.49,-0.527009,0.402898,-3.83747,-1852.81,-9763.68,-1986.18,-6.18944,3.7153,3.16675,9057.28,460.907,3828.06,0.985734,4.03153,-1.22055
0.131,3470.95,-3825.71,8322.58,-0.521424,2.10427,0.0421043,3856.58,2914.27,8447.98,-1.39731,-0.0954178,-0.387153,1036.67,9744.5,-858.358,0.433355,-2.99281,-0.323688,-60.1966,-9896.77,-275.768,-1.33826,0.116518,1.76584,-2673.66,9236.34,-810.778,-0.390319,0.37418,-3.89319,-1821.4,-9747.19,-1974.43,-6.2453,3.58999,3.05125,9080.23,467.3,3839.81,0.976985,4.00089,-1.20813
0.132,3456.23,-3826.28,8318.32,-0.505138,2.1097,-0.0543947,3851.65,2911.95,8461.21,-1.33698,-0.106827,-0.409126,1030.53,9755.49,-877.831,0.592449,-3.1076,-0.385983,-81.965,-9890.65,-280.095,-1.27627,0.0110875,1.77212,-2676.92,9268.3,-820.066,-0.253629,0.345462,-3.9489,-1789.99,-9730.7,-1962.67,-6.30117,3.46468,2.93575,9103.18,473.694,3851.55,0.968236,3.97024,-1.1957
0.133,3441.51,-3826.85,8314.06,-0.488853,2.11513,-0.150894,3846.73,2909.63,8474.43,-1.27666,-0.118237,-0.431099,1024.38,9766.47,-897.305,0.751542,-3.2224,-0.448277,-103.733,-9884.53,-284.421,-1.21428,-0.0943429,1.7784,-2680.18,9300.27,-829.355,-0.116939,0.316744,-4.00461,-1758.58,-9714.21,-1950.92,-6.35703,3.33937,2.82025,9126.13,480.087,3863.29,0.959488,3.93959,-1.18327
0.134,3436.56,-3828.11,8324.2,-0.505349,2.11933,-0.180151,3834.31,2908.36,8476.6,-1.28227,-0.08357,-0.407414,1043.79,9763.08,-899.241,0.690372,-3.30928,-0.411081,-103.853,-9873.38,-282.604,-1.224,-0.208185,1.74846,-2672.04,9313.44,-828.289,-0.106112,0.325005,-3.98751,-1733.57,-9717.81,-1937.93,-6.31534,3.21424,2.69851,9132.54,492.303,3850.06,1.03735,4.02417,-1.14643
0.135,3436.5,-3829.73,8341.55,-0.538237,2.12291,-0.175788,3818.13,2907.63,8473.25,-1.32083,-0.0258649,-0.3609,1075.98,9752.5,-892.408,0.519072,-3.38219,-0.32414,-93.1474,-9859.72,-277.714,-1.26957,-0.326233,1.70041,-2658.22,9317.21,-822.046,-0.158216,0.351756,-3.93401,-1711.76,-9731.47,-1924.32,-6.22487,3.08921,2.57366,9130.67,507.43,3824.35,1.15853,4.16636,-1.09738
0.136,3436.44,-3831.34,8358.89,-0.571124,2.12649,-0.171425,3801.96,2906.89,8469.91,-1.3594,0.0318402,-0.314385,1108.17,9741.93,-885.575,0.347771,-3.45511,-0.2372,-82.4421,-9846.06,-272.824,-1.31515,-0.444281,1.65236,-2644.39,9320.98,-815.803,-0.21032,0.378507,-3.88051,-1689.96,-9745.13,-1910.7,-6.1344,2.96418,2.4488,9128.8,522.556,3798.63,1.2797,4.30856,-1.04833
0.137,3436.38,-3832.96,8376.24,-0.604012,2.13007,-0.167062,3785.79,2906.15,8466.56,-1.39797,0.0895453,-0.267871,1140.37,9731.35,-878.742,0.17647,-3.52803,-0.150259,-71.7368,-9832.41,-267.934,-1.36073,-0.562328,1.60431,-2630.56,9324.75,-809.56,-0.262424,0.405258,-3.827,-1668.15,-9758.79,-1897.09,-6.04393,2.83915,2.32394,9126.94,537.683,3772.92,1.40087,4.45075,-0.999279
0.138,3436.89,-3834.19,8386.63,-0.618659,2.13409,-0.151577,3772.57,2904.87,8464.22,-1.42728,0.148529,-0.234297,1159.35,9723.91,-876.094,0.0410743,-3.58258,-0.0874238,-59.5471,-9821.7,-263.828,-1.39287,-0.651946,1.58926,-2614.75,9320.99,-810.913,-0.309155,0.407824,-3.80358,-1649.48,-9772.43,-1885.54,-5.96846,2.72053,2.22691,9122.91,544.117,3755.64,1.54306,4.59765,-0.982714
0.139,3439.42,-3834.08,8372.67,-0.569465,2.13967,-0.0971638,3769.67,2901.67,8465.4,-1.42417,0.21199,-0.246013,1132.09,9727.46,-888.087,0.0313462,-3.57285,-0.10896,-42.1618,-9821.31,-262.469,-1.37799,-0.642059,1.68971,-2592.02,9290.87,-838.85,-0.33708,0.325743,-3.88542,-1641.8,-9786.04,-1881.18,-5.94544,2.62432,2.22725,9111.28,520.127,3767.9,1.75881,4.76103,-1.07985
0.14,3441.95,-3833.96,8358.72,-0.52027,2.14524,-0.0427505,3766.77,2898.47,8466.58,-1.42105,0.27545,-0.25773,1104.83,9731.0,-900.081,0.021618,-3.56313,-0.130496,-24.7765,-9820.91,-261.109,-1.36312,-0.632172,1.79016,-2569.29,9260.75,-866.787,-0.365005,0.243662,-3.96726,-1634.12,-9799.65,-1876.82,-5.92242,2.52811,2.22759,9099.65,496.136,3780.16,1.97456,4.92441,-1.17698
0.141,3444.48,-3833.85,8344.77,-0.471076,2.15082,0.0116627,3763.88,2895.27,8467.77,-1.41793,0.338911,-0.269446,1077.57,9734.54,-912.075,0.0118899,-3.5534,-0.152032,-7.39123,-9820.52,-259.75,-1.34825,-0.622284,1.89061,-2546.55,9230.63,-894.724,-0.39293,0.16158,-4.0491,-1626.43,-9813.26,-1872.46,-5.89941,2.4319,2.22793,9088.03,472.145,3792.42,2.19031,5.08779,-1.27411
0.142,3447.01,-3833.74,8330.81,-0.421882,2.1564,0.066076,3760.98,2892.07,8468.95,-1.41482,0.402371,-0.281163,1050.31,9738.09,-924.069,0.0021618,-3.54367,-0.173568,9.99405,-9820.13,-258.39,-1.33337,-0.612397,1.99105,-2523.82,9200.51,-922.661,-0.420855,0.0794991,-4.13094,-1618.75,-9826.87,-1868.1,-5.87639,2.33569,2.22827,9076.4,448.155,3804.68,2.40606,5.25117,-1.37124
0.143,3445.86,-3841.91,8321.58,-0.335746,2.15429,0.102937,3763.24,2896.99,8465.07,-1.33576,0.389527,-0.322021,1036.01,9725.14,-908.36,-0.0519771,-3.59308,-0.168782,19.8831,-9824.64,-261.187,-1.35108,-0.586339,2.06772,-2543.7,9230.56,-897.141,-0.426834,0.072617,-4.15968,-1617.93,-9824.44,-1864.63,-5.85378,2.26544,2.22783,9067.7,447.272,3814.61,2.62637,5.37189,-1.43938
0.144,3443.66,-3852.44,8313.71,-0.239055,2.14998,0.134782,3766.98,2904.23,8459.75,-1.23501,0.354882,-0.371205,1025.4,9707.47,-884.735,-0.118805,-3.65938,-0.156476,27.6303,-9830.54,-265.17,-1.37811,-0.55566,2.1376,-2575.75,9277.79,-856.348,-0.426543,0.0872204,-4.17326,-1619.08,-9817.44,-1861.41,-5.8313,2.2026,2.22717,9059.83,452.992,3823.87,2.84798,5.48042,-1.49924
0.145,3441.45,-3862.97,8305.83,-0.142364,2.14567,0.166627,3770.71,2911.48,8454.43,-1.13426,0.320237,-0.420388,1014.8,9689.81,-861.111,-0.185632,-3.72567,-0.144169,35.3775,-9836.44,-269.154,-1.40513,-0.524981,2.20747,-2607.81,9325.02,-815.555,-0.426251,0.101824,-4.18684,-1620.22,-9810.43,-1858.19,-5.80881,2.13976,2.22651,9051.97,458.712,3833.14,3.06959,5.58895,-1.5591
0.146,3439.25,-3873.5,8297.95,-0.0456732,2.14137,0.198473,3774.45,2918.72,8449.12,-1.0335,0.285592,-0.469572,1004.2,9672.14,-837.486,-0.25246,-3.79197,-0.131862,43.1247,-9842.35,-273.138,-1.43215,-0.494302,2.27735,-2639.87,9372.25,-774.762,-0.42596,0.116427,-4.20041,-1621.36,-9803.42,-1854.97,-5.78632,2.07693,2.22584,9044.1,464.432,3842.4,3.29119,5.69749,-1.61896
0.147,3437.69,-3880.6,8296.92,-0.00113927,2.16096,0.175555,3777.11,2916.49,8444.17,-0.965919,0.269105,-0.500158,1000.58,9661.27,-826.473,-0.211922,-3.85031,-0.0829433,48.1614,-9847.26,-276.894,-1.42991,-0.419469,2.31764,-2650.24,9396.85,-753.303,-0.411996,0.167257,-4.20067,-1616.69,-9796.93,-1852.1,-5.766,2.01685,2.2059,9035.08,472.556,3848.42,3.44656,5.74113,-1.65273
0.148,3437.4,-3880.85,8309.58,-0.0609191,2.22834,0.0431099,3777.63,2895.32,8439.99,-0.96468,0.288934,-0.493549,1010.95,9663.97,-840.681,0.0433467,-3.89272,0.0391996,47.7771,-9850.2,-280.196,-1.36914,-0.25633,2.29879,-2617.24,9376.18,-770.513,-0.370686,0.29054,-4.17427,-1600.38,-9791.48,-1849.92,-5.75001,1.96227,2.14739,9023.74,485.491,3847.94,3.46946,5.65498,-1.63435
0.149,3437.11,-3881.1,8322.25,-0.120699,2.29572,-0.089335,3778.15,2874.15,8435.81,-0.96344,0.308762,-0.486939,1021.31,9666.67,-854.89,0.298616,-3.93514,0.161342,47.3927,-9853.13,-283.499,-1.30836,-0.0931904,2.27993,-2584.25,9355.51,-787.723,-0.329377,0.413824,-4.14788,-1584.07,-9786.03,-1847.74,-5.73402,1.90769,2.08889,9012.39,498.425,3847.45,3.49235,5.56884,-1.61596
0.15,3436.82,-3881.35,8334.91,-0.180479,2.36311,-0.22178,3778.66,2852.99,8431.63,-0.9622,0.328591,-0.48033,1031.67,9669.37,-869.098,0.553885,-3.97755,0.283485,47.0083,-9856.06,-286.801,-1.24759,0.069949,2.26107,-2551.25,9334.84,-804.933,-0.288067,0.537107,-4.12149,-1567.77,-9780.58,-1845.56,-5.71803,1.85311,2.03038,9001.05,511.359,3846.97,3.51524,5.48269,-1.59758
0.151,3436.54,-3881.6,8347.58,-0.240259,2.43049,-0.354225,3779.18,2831.82,8427.45,-0.96096,0.348419,-0.47372,1042.03,9672.07,-883.307,0.809154,-4.01996,0.405628,46.6239,-9859.0,-290.103,-1.18681,0.233088,2.24221,-2518.25,9314.17,-822.143,-0.246758,0.66039,-4.0951,-1551.46,-9775.13,-1843.38,-5.70204,1.79853,1.97187,8989.71,524.293,3846.49,3.53813,5.39655,-1.5792
0.152,3443.35,-3863.9,8323.89,-0.240071,2.46234,-0.322673,3789.65,2830.08,8431.09,-0.996046,0.293246,-0.43295,1058.6,9678.14,-889.856,0.743473,-3.91563,0.335565,55.9494,-9855.54,-282.625,-1.17938,0.438149,2.35718,-2522.98,9292.6,-830.35,-0.220759,0.716233,-4.14022,-1523.48,-9770.74,-1844.91,-5.70893,1.82971,1.89245,8986.71,510.606,3845.16,3.46863,5.46364,-1.6213
0.153,3451.05,-3843.97,8295.66,-0.232387,2.48974,-0.270621,3801.36,2830.77,8435.71,-1.03567,0.228699,-0.38791,1075.96,9684.64,-895.448,0.637673,-3.79296,0.241477,66.4886,-9851.3,-273.8,-1.17861,0.648449,2.48887,-2532.42,9270.92,-837.432,-0.196675,0.763645,-4.19427,-1494.03,-9766.49,-1846.9,-5.71869,1.8716,1.81041,8984.76,493.592,3843.73,3.38758,5.54988,-1.67097
0.154,3458.75,-3824.04,8267.43,-0.224703,2.51714,-0.218569,3813.07,2831.47,8440.33,-1.0753,0.164151,-0.342869,1093.31,9691.13,-901.04,0.531873,-3.67029,0.147388,77.0278,-9847.05,-264.974,-1.17784,0.85875,2.62056,-2541.86,9249.24,-844.514,-0.17259,0.811058,-4.24833,-1464.58,-9762.23,-1848.89,-5.72844,1.9135,1.72837,8982.8,476.577,3842.29,3.30653,5.63613,-1.72064
0.155,3466.45,-3804.1,8239.2,-0.217019,2.54455,-0.166517,3824.78,2832.16,8444.95,-1.11493,0.0996032,-0.297829,1110.66,9697.63,-906.632,0.426073,-3.54761,0.0532999,87.5671,-9842.8,-256.149,-1.17707,1.06905,2.75225,-2551.31,9227.56,-851.596,-0.148505,0.858471,-4.30239,-1435.13,-9757.97,-1850.89,-5.7382,1.95539,1.64634,8980.85,459.562,3840.86,3.22548,5.72237,-1.77031
0.156,3466.18,-3792.87,8226.24,-0.201151,2.58251,-0.0817856,3825.82,2838.13,8449.01,-1.147,0.0546908,-0.267739,1122.7,9702.68,-904.915,0.325351,-3.43602,-0.0356864,94.8476,-9841.58,-246.97,-1.19189,1.22231,2.8793,-2554.82,9226.36,-868.327,-0.187563,1.01322,-4.33008,-1421.67,-9756.59,-1857.66,-5.75212,2.01771,1.57334,8979.14,453.598,3837.55,3.19529,5.83375,-1.81578
0.157,3455.95,-3792.52,8232.35,-0.175053,2.63366,0.043796,3813.53,2850.69,8452.37,-1.16963,0.0343228,-0.256337,1128.08,9705.94,-894.06,0.230977,-3.33829,-0.118295,98.0548,-9844.17,-237.348,-1.22621,1.30428,3.00056,-2550.92,9250.75,-897.121,-0.30555,1.30213,-4.32481,-1428.18,-9758.8,-1870.42,-5.77125,2.10556,1.51165,8977.74,461.446,3831.89,3.22867,5.97656,-1.85599
0.158,3445.72,-3792.17,8238.46,-0.148955,2.68481,0.169378,3801.25,2863.25,8455.73,-1.19226,0.0139547,-0.244934,1133.47,9709.2,-883.205,0.136602,-3.24055,-0.200903,101.262,-9846.76,-227.727,-1.26054,1.38624,3.12181,-2547.03,9275.15,-925.914,-0.423536,1.59105,-4.31954,-1434.7,-9761.01,-1883.17,-5.79038,2.19341,1.44996,8976.34,469.294,3826.22,3.26204,6.11936,-1.8962
0.159,3435.49,-3791.82,8244.57,-0.122856,2.73597,0.294959,3788.96,2875.81,8459.09,-1.21489,-0.00641339,-0.233532,1138.86,9712.46,-872.35,0.042228,-3.14282,-0.283512,104.469,-9849.34,-218.105,-1.29486,1.46821,3.24307,-2543.13,9299.54,-954.708,-0.541523,1.87996,-4.31427,-1441.21,-9763.21,-1895.93,-5.80951,2.28126,1.38826,8974.94,477.141,3820.56,3.29542,6.26216,-1.93641
0.16,3425.26,-3791.47,8250.68,-0.0967584,2.78712,0.420541,3776.67,2888.37,8462.45,-1.23752,-0.0267815,-0.22213,1144.24,9715.72,-861.495,-0.0521464,-3.04508,-0.36612,107.676,-9851.93,-208.483,-1.32918,1.55018,3.36433,-2539.23,9323.94,-983.501,-0.659509,2.16888,-4.309,-1447.73,-9765.42,-1908.68,-5.82864,2.36911,1.32657,8973.54,484.989,3814.9,3.3288,6.40496,-1.97662
0.161,3431.38,-3795.8,8280.41,-0.110446,2.76133,0.352861,3775.29,2893.1,8452.75,-1.2029,0.0285742,-0.209268,1140.63,9717.14,-852.597,0.146413,-2.90732,-0.367317,101.567,-9867.82,-229.384,-1.43093,1.63247,3.44457,-2548.4,9328.81,-963.902,-0.577563,2.39923,-4.15888,-1476.41,-9757.05,-1901.12,-5.8685,2.38313,1.28685,8985.1,495.891,3821.94,3.48949,6.33953,-1.96612
0.162,3437.49,-3800.13,8310.14,-0.124135,2.73554,0.285182,3773.9,2897.83,8443.05,-1.16827,0.0839299,-0.196407,1137.02,9718.56,-843.699,0.344972,-2.76957,-0.368514,95.4577,-9883.71,-250.285,-1.53268,1.71475,3.52482,-2557.57,9333.69,-944.302,-0.495616,2.62957,-4.00877,-1505.08,-9748.68,-1893.55,-5.90836,2.39716,1.24712,8996.67,506.792,3828.97,3.65018,6.2741,-1.95562
0.163,3443.61,-3804.46,8339.86,-0.137823,2.70975,0.217503,3772.52,2902.57,8433.35,-1.13365,0.139286,-0.183546,1133.41,9719.97,-834.801,0.543531,-2.63181,-0.369711,89.3483,-9899.6,-271.185,-1.63443,1.79704,3.60506,-2566.74,9338.56,-924.703,-0.413669,2.85992,-3.85866,-1533.76,-9740.31,-1885.98,-5.94822,2.41118,1.2074,9008.23,517.693,3836.01,3.81087,6.20867,-1.94513
0.164,3449.72,-3808.8,8369.59,-0.151511,2.68396,0.149824,3771.13,2907.3,8423.65,-1.09903,0.194641,-0.170684,1129.8,9721.39,-825.903,0.74209,-2.49405,-0.370908,83.239,-9915.49,-292.086,-1.73619,1.87933,3.68531,-2575.91,9343.44,-905.103,-0.331722,3.09026,-3.70854,-1562.44,-9731.93,-1878.42,-5.98807,2.42521,1.16767,9019.79,528.594,3843.04,3.97157,6.14324,-1.93463
0.165,3446.6,-3805.71,8375.57,-0.0971632,2.70196,0.096768,3773.65,2911.03,8418.54,-1.08024,0.189934,-0.139581,1143.82,9730.4,-839.087,0.697846,-2.38443,-0.403612,65.642,-9922.58,-305.186,-1.79837,1.93642,3.77963,-2577.0,9328.08,-898.571,-0.268595,3.26189,-3.76371,-1576.12,-9725.06,-1876.47,-6.03847,2.43845,1.14356,9008.53,528.513,3848.22,4.04904,6.16564,-1.96768
0.166,3436.1,-3796.67,8362.55,0.011613,2.75499,0.0554113,3779.28,2913.96,8417.09,-1.07411,0.137175,-0.0938842,1171.94,9745.48,-869.937,0.45936,-2.29733,-0.461522,38.8551,-9922.63,-312.047,-1.8289,1.97336,3.88523,-2571.62,9296.55,-902.493,-0.220524,3.38655,-3.9831,-1577.81,-9719.39,-1879.01,-6.09728,2.45106,1.13194,8979.01,519.646,3851.92,4.05995,6.25831,-2.03557
0.167,3425.59,-3787.64,8349.52,0.120389,2.80803,0.0140545,3784.92,2916.89,8415.65,-1.06798,0.0844168,-0.0481873,1200.06,9760.56,-900.788,0.220874,-2.21024,-0.519432,12.0681,-9922.68,-318.908,-1.85943,2.01029,3.99082,-2566.24,9265.02,-906.415,-0.172453,3.51121,-4.20249,-1579.5,-9713.71,-1881.56,-6.1561,2.46367,1.12031,8949.5,510.779,3855.61,4.07085,6.35099,-2.10346
0.168,3415.09,-3778.61,8336.5,0.229166,2.86106,-0.0273022,3790.55,2919.82,8414.21,-1.06185,0.0316585,-0.00249048,1228.18,9775.64,-931.638,-0.0176122,-2.12314,-0.577342,-14.7188,-9922.74,-325.768,-1.88997,2.04723,4.09642,-2560.86,9233.49,-910.336,-0.124382,3.63587,-4.42188,-1581.2,-9708.04,-1884.1,-6.21491,2.47628,1.10869,8919.98,501.912,3859.31,4.08175,6.44366,-2.17136
0.169,3404.83,-3771.77,8326.03,0.326553,2.90445,-0.0642969,3794.96,2923.3,8413.49,-1.0534,-0.0113277,0.0382003,1248.83,9786.81,-956.676,-0.219354,-2.02502,-0.641169,-40.41,-9922.1,-329.077,-1.91999,2.0845,4.19917,-2555.59,9208.79,-911.291,-0.091557,3.78869,-4.60681,-1581.87,-9704.85,-1886.88,-6.25574,2.50494,1.09836,8894.58,495.525,3859.88,4.08936,6.53119,-2.2415
0.17,3396.6,-3782.52,8336.0,0.332829,2.8707,-0.0663958,3789.61,2931.2,8418.57,-1.02636,0.0238637,0.0388424,1209.62,9766.73,-935.214,-0.127137,-1.83869,-0.752335,-57.3344,-9915.97,-303.97,-1.946,2.12448,4.27918,-2551.19,9238.69,-888.507,-0.180696,4.16684,-4.51612,-1574.41,-9721.49,-1891.46,-6.15265,2.66196,1.09836,8902.17,508.984,3835.5,4.0706,6.57759,-2.32964
0.171,3388.37,-3793.26,8345.96,0.339104,2.83694,-0.0684947,3784.25,2939.09,8423.66,-0.999329,0.059055,0.0394846,1170.41,9746.66,-913.752,-0.0349199,-1.65236,-0.863501,-74.2588,-9909.85,-278.863,-1.97201,2.16446,4.3592,-2546.78,9268.6,-865.724,-0.269834,4.54499,-4.42543,-1566.94,-9738.14,-1896.04,-6.04955,2.81897,1.09836,8909.75,522.443,3811.11,4.05183,6.624,-2.41779
0.172,3380.13,-3804.0,8355.92,0.34538,2.80318,-0.0705935,3778.9,2946.99,8428.74,-0.972294,0.0942464,0.0401267,1131.21,9726.59,-892.29,0.0572971,-1.46603,-0.974667,-91.1833,-9903.72,-253.756,-1.99802,2.20444,4.43921,-2542.38,9298.51,-842.941,-0.358972,4.92314,-4.33474,-1559.48,-9754.78,-1900.63,-5.94646,2.97599,1.09836,8917.33,535.903,3786.72,4.03307,6.6704,-2.50593
0.173,3371.9,-3814.74,8365.88,0.351656,2.76942,-0.0726924,3773.55,2954.89,8433.83,-0.945258,0.129438,0.0407689,1092.0,9706.51,-870.829,0.149514,-1.2797,-1.08583,-108.108,-9897.59,-228.65,-2.02403,2.24441,4.51923,-2537.97,9328.42,-820.157,-0.448111,5.30129,-4.24406,-1552.01,-9771.42,-1905.21,-5.84336,3.133,1.09836,8924.91,549.362,3762.33,4.0143,6.71681,-2.59408
0.174,3372.32,-3829.32,8363.54,0.309839,2.78215,-0.128578,3755.33,2954.61,8436.49,-0.942433,0.116473,0.00403247,1083.52,9708.89,-870.033,0.175244,-1.20354,-1.01097,-99.4787,-9896.23,-226.287,-2.01468,2.25356,4.59547,-2534.13,9330.39,-832.105,-0.453098,5.4258,-4.2266,-1554.53,-9763.81,-1909.27,-5.79911,3.20277,1.12636,8934.15,550.138,3761.48,4.006,6.7106,-2.56085
0.175,3377.07,-3845.8,8355.06,0.243975,2.81813,-0.211356,3730.68,2950.25,8437.93,-0.951713,0.0794306,-0.0513932,1090.4,9722.49,-879.57,0.16773,-1.18247,-0.843089,-78.0729,-9897.25,-235.298,-1.98766,2.24728,4.66982,-2530.58,9318.38,-861.418,-0.41601,5.42349,-4.24577,-1562.03,-9744.05,-1913.08,-5.78428,3.22891,1.16836,8944.22,544.574,3772.4,4.00294,6.6781,-2.46694
0.176,3381.83,-3862.29,8346.57,0.178111,2.8541,-0.294135,3706.03,2945.9,8439.38,-0.960994,0.0423879,-0.106819,1097.28,9736.09,-889.108,0.160217,-1.16139,-0.675209,-56.6672,-9898.27,-244.308,-1.96064,2.24101,4.74417,-2527.03,9306.38,-890.731,-0.378922,5.42118,-4.26493,-1569.54,-9724.3,-1916.88,-5.76944,3.25505,1.21035,8954.28,539.009,3783.32,3.99988,6.64559,-2.37303
0.177,3386.58,-3878.78,8338.09,0.112247,2.89008,-0.376913,3681.38,2941.54,8440.83,-0.970274,0.00534533,-0.162245,1104.17,9749.7,-898.645,0.152703,-1.14032,-0.50733,-35.2614,-9899.28,-253.318,-1.93363,2.23473,4.81852,-2523.48,9294.38,-920.044,-0.341833,5.41887,-4.2841,-1577.04,-9704.55,-1920.69,-5.75461,3.2812,1.25235,8964.35,533.444,3794.24,3.99681,6.61309,-2.27912
0.178,3390.8,-3888.97,8325.28,0.070011,2.91009,-0.427424,3666.89,2935.65,8444.24,-0.976321,-0.014789,-0.191602,1108.19,9754.32,-910.193,0.166332,-1.09283,-0.388163,-16.4153,-9900.67,-261.614,-1.89645,2.22238,4.88258,-2525.26,9292.08,-938.635,-0.321359,5.45443,-4.31654,-1584.33,-9685.3,-1927.95,-5.78155,3.31488,1.30806,8968.38,527.85,3804.87,3.97449,6.57093,-2.17924
0.179,3393.16,-3877.08,8297.34,0.11047,2.87426,-0.364999,3687.93,2924.42,8454.54,-0.971048,0.0242557,-0.129723,1102.21,9727.54,-928.781,0.253963,-0.95291,-0.439489,-6.52797,-9903.34,-267.411,-1.82372,2.18875,4.91057,-2545.71,9323.78,-919.7,-0.359035,5.62253,-4.39544,-1590.86,-9667.83,-1947.33,-5.95469,3.37496,1.41175,8951.28,522.153,3814.47,3.88476,6.49501,-2.05847
0.18,3395.52,-3865.2,8269.41,0.15093,2.83842,-0.302575,3708.98,2913.2,8464.83,-0.965775,0.0633003,-0.0678432,1096.23,9700.76,-947.368,0.341593,-0.81299,-0.490815,3.3594,-9906.01,-273.207,-1.75099,2.15511,4.93857,-2566.15,9355.48,-900.764,-0.396711,5.79063,-4.47435,-1597.38,-9650.35,-1966.71,-6.12783,3.43504,1.51544,8934.18,516.456,3824.08,3.79503,6.41909,-1.9377
0.181,3397.88,-3853.32,8241.47,0.191389,2.80258,-0.24015,3730.03,2901.97,8475.12,-0.960503,0.102345,-0.00596362,1090.24,9673.98,-965.956,0.429224,-0.673069,-0.542141,13.2468,-9908.68,-279.004,-1.67826,2.12148,4.96657,-2586.6,9387.18,-881.829,-0.434386,5.95873,-4.55325,-1603.91,-9632.87,-1986.09,-6.30097,3.49513,1.61913,8917.08,510.759,3833.68,3.7053,6.34316,-1.81693
0.182,3400.24,-3841.43,8213.53,0.231848,2.76675,-0.177725,3751.08,2890.74,8485.42,-0.95523,0.14139,0.055916,1084.26,9647.2,-984.543,0.516854,-0.533149,-0.593467,23.1341,-9911.35,-284.801,-1.60553,2.08785,4.99457,-2607.05,9418.88,-862.893,-0.472062,6.12682,-4.63215,-1610.44,-9615.39,-2005.47,-6.47411,3.55521,1.72282,8899.98,505.062,3843.29,3.61557,6.26724,-1.69615
0.183,3409.78,-3839.1,8216.72,0.228852,2.74919,-0.172433,3773.57,2891.38,8467.66,-0.976823,0.103328,0.0115465,1072.96,9668.38,-960.487,0.505663,-0.390202,-0.726916,5.98543,-9902.74,-278.295,-1.57289,2.08982,5.05438,-2596.6,9419.61,-841.629,-0.594928,6.29761,-4.53732,-1605.29,-9619.06,-2001.81,-6.5214,3.65072,1.72779,8887.4,507.415,3843.96,3.62801,6.19739,-1.62124
0.184,3421.36,-3839.51,8228.8,0.21344,2.73686,-0.183464,3796.49,2895.42,8441.9,-1.00609,0.0432363,-0.0631799,1060.14,9703.26,-924.246,0.466236,-0.24639,-0.883828,-18.8879,-9890.9,-268.275,-1.5517,2.10197,5.12326,-2577.32,9411.48,-819.699,-0.742134,6.46916,-4.39284,-1596.79,-9628.77,-1991.57,-6.53273,3.75636,1.70455,8876.12,512.067,3842.08,3.66963,6.12927,-1.55942
0.185,3432.95,-3839.91,8240.88,0.198028,2.72453,-0.194495,3819.4,2899.45,8416.13,-1.03536,-0.0168555,-0.137906,1047.32,9738.14,-888.006,0.426809,-0.102578,-1.04074,-43.7612,-9879.06,-258.254,-1.53052,2.11412,5.19215,-2558.05,9403.35,-797.769,-0.889341,6.64072,-4.24836,-1588.3,-9638.47,-1981.34,-6.54405,3.86199,1.68131,8864.83,516.719,3840.2,3.71125,6.06115,-1.49761
0.186,3444.53,-3840.31,8252.96,0.182616,2.7122,-0.205527,3842.31,2903.48,8390.36,-1.06463,-0.0769474,-0.212633,1034.51,9773.03,-851.766,0.387382,0.0412333,-1.19765,-68.6345,-9867.22,-248.234,-1.50934,2.12627,5.26104,-2538.78,9395.23,-775.839,-1.03655,6.81228,-4.10388,-1579.81,-9648.18,-1971.1,-6.55538,3.96763,1.65807,8853.54,521.372,3838.32,3.75288,5.99304,-1.4358
0.187,3454.31,-3842.48,8266.33,0.149194,2.71384,-0.255991,3853.76,2902.74,8376.7,-1.05449,-0.147158,-0.285796,1023.06,9795.42,-827.082,0.356898,0.148411,-1.26736,-89.0443,-9861.73,-246.861,-1.48818,2.13403,5.32304,-2536.13,9385.36,-765.052,-1.11365,6.90426,-3.98911,-1580.12,-9661.0,-1961.77,-6.53644,4.0464,1.62329,8842.48,527.911,3831.81,3.75744,5.95574,-1.3783
0.188,3460.48,-3848.21,8282.26,0.0797524,2.74341,-0.385322,3842.31,2892.47,8387.26,-0.965537,-0.237607,-0.355832,1014.37,9792.83,-825.511,0.344298,0.18232,-1.16268,-100.527,-9868.96,-262.784,-1.4671,2.13301,5.37128,-2566.73,9372.01,-776.55,-1.05056,6.83712,-3.93374,-1598.0,-9680.05,-1954.25,-6.45697,4.07145,1.56546,8831.84,538.224,3816.03,3.68789,5.98009,-1.32942
0.189,3466.66,-3853.94,8298.19,0.0103108,2.77299,-0.514653,3830.86,2882.19,8397.81,-0.876583,-0.328057,-0.425868,1005.67,9790.25,-823.941,0.331699,0.21623,-1.058,-112.01,-9876.19,-278.707,-1.44601,2.13198,5.41951,-2597.33,9358.65,-788.048,-0.987472,6.76997,-3.87838,-1615.89,-9699.1,-1946.73,-6.37751,4.09649,1.50763,8821.21,548.538,3800.25,3.61833,6.00444,-1.28055
0.19,3472.83,-3859.67,8314.12,-0.0591308,2.80256,-0.643983,3819.4,2871.91,8408.37,-0.787628,-0.418506,-0.495904,996.976,9787.66,-822.37,0.319099,0.25014,-0.953312,-123.492,-9883.42,-294.63,-1.42493,2.13096,5.46774,-2627.93,9345.3,-799.546,-0.924381,6.70283,-3.82301,-1633.78,-9718.15,-1939.21,-6.29804,4.12153,1.4498,8810.57,558.851,3784.47,3.54877,6.02879,-1.23167
0.191,3479.0,-3865.4,8330.05,-0.128572,2.83213,-0.773314,3807.95,2861.64,8418.92,-0.698673,-0.508955,-0.56594,988.281,9785.07,-820.8,0.3065,0.284049,-0.848628,-134.975,-9890.64,-310.553,-1.40384,2.12994,5.51597,-2658.53,9331.95,-811.044,-0.86129,6.63568,-3.76764,-1651.67,-9737.2,-1931.68,-6.21857,4.14658,1.39196,8799.93,569.165,3768.69,3.47922,6.05314,-1.1828
0.192,3478.52,-3851.53,8330.09,-0.131093,2.81399,-0.673797,3790.75,2875.08,8407.49,-0.700685,-0.37251,-0.502986,987.214,9780.09,-823.992,0.3077,0.250762,-0.806441,-137.424,-9874.9,-305.984,-1.37661,2.04208,5.56773,-2662.45,9325.17,-810.695,-0.85428,6.69535,-3.72177,-1666.08,-9759.32,-1933.17,-6.1239,4.19758,1.38495,8796.29,584.152,3772.83,3.50943,6.01694,-1.25513
0.193,3477.2,-3835.2,8328.14,-0.125248,2.78989,-0.545674,3772.82,2891.48,8393.3,-0.714067,-0.207703,-0.423407,987.099,9774.81,-827.78,0.310625,0.209075,-0.772066,-138.743,-9856.28,-298.854,-1.34861,1.94337,5.61993,-2663.04,9319.22,-808.866,-0.85428,6.77088,-3.67709,-1680.06,-9781.83,-1935.78,-6.02732,4.25183,1.3843,8793.53,599.724,3779.46,3.55212,5.97317,-1.34262
0.194,3475.89,-3818.87,8326.19,-0.119403,2.76579,-0.41755,3754.9,2907.88,8379.11,-0.727449,-0.0428965,-0.343829,986.985,9769.53,-831.568,0.313549,0.167388,-0.737691,-140.063,-9837.66,-291.724,-1.32061,1.84466,5.67213,-2663.63,9313.26,-807.036,-0.85428,6.8464,-3.63241,-1694.03,-9804.34,-1938.39,-5.93074,4.30608,1.38364,8790.76,615.296,3786.09,3.5948,5.9294,-1.4301
0.195,3474.57,-3802.54,8324.25,-0.113558,2.7417,-0.289427,3736.98,2924.28,8364.92,-0.740832,0.12191,-0.264251,986.871,9764.25,-835.356,0.316474,0.125701,-0.703316,-141.383,-9819.04,-284.594,-1.29261,1.74596,5.72432,-2664.22,9307.31,-805.206,-0.85428,6.92193,-3.58772,-1708.0,-9826.85,-1941.01,-5.83417,4.36034,1.38299,8787.99,630.868,3792.72,3.63749,5.88563,-1.51758
0.196,3468.4,-3796.4,8327.21,-0.0757351,2.73709,-0.1894,3738.38,2941.89,8354.32,-0.750083,0.211904,-0.190962,980.072,9762.32,-837.998,0.328279,0.0803947,-0.70019,-149.984,-9811.68,-279.064,-1.24089,1.64812,5.76243,-2671.39,9300.28,-813.491,-0.854923,6.91302,-3.58815,-1722.19,-9831.23,-1948.08,-5.79248,4.38662,1.35199,8787.24,634.848,3812.86,3.67583,5.82317,-1.57794
0.197,3456.14,-3802.98,8336.3,0.00206039,2.75685,-0.124492,3763.95,2961.02,8348.22,-0.754172,0.20838,-0.125536,964.917,9764.58,-839.208,0.351185,0.0305648,-0.736124,-167.687,-9818.4,-275.535,-1.15951,1.55137,5.78292,-2686.77,9291.92,-834.42,-0.856371,6.79858,-3.64496,-1736.65,-9812.96,-1960.72,-5.81939,4.37793,1.28306,8789.01,624.339,3849.88,3.70874,5.73733,-1.6044
0.198,3443.88,-3809.56,8345.39,0.0798559,2.77661,-0.0595847,3789.51,2980.15,8342.11,-0.758261,0.204857,-0.0601095,949.762,9766.83,-840.418,0.374091,-0.019265,-0.772058,-185.391,-9825.11,-272.006,-1.07813,1.45463,5.80341,-2702.16,9283.56,-855.348,-0.857818,6.68414,-3.70178,-1751.1,-9794.69,-1973.36,-5.84631,4.36925,1.21413,8790.79,613.83,3886.9,3.74165,5.65149,-1.63085
0.199,3431.63,-3816.15,8354.49,0.157651,2.79637,0.00532271,3815.08,2999.28,8336.01,-0.762349,0.201334,0.00531688,934.607,9769.09,-841.628,0.396996,-0.0690949,-0.807993,-203.094,-9831.83,-268.477,-0.996756,1.35788,5.8239,-2717.54,9275.19,-876.277,-0.859265,6.5697,-3.75859,-1765.56,-9776.42,-1986.01,-5.87322,4.36057,1.1452,8792.56,603.32,3923.93,3.77457,5.56566,-1.65731
0.2,3419.37,-3822.73,8363.58,0.235447,2.81613,0.0702302,3840.64,3018.4,8329.9,-0.766438,0.197811,0.0707433,919.453,9771.35,-842.838,0.419902,-0.118925,-0.843927,-220.797,-9838.54,-264.948,-0.915377,1.26113,5.84439,-2732.92,9266.83,-897.205,-0.860713,6.45526,-3.8154,-1780.02,-9758.15,-1998.65,-5.90013,4.35188,1.07627,8794.33,592.811,3960.95,3.80748,5.47982,-1.68376
0.201,3432.26,-3826.43,8361.12,0.296071,2.81255,0.060164,3810.78,3015.26,8338.48,-0.788775,0.317191,0.152359,937.849,9753.2,-858.277,0.388059,-0.222911,-0.923249,-217.418,-9841.08,-270.894,-0.907817,1.06659,5.81998,-2738.45,9277.66,-906.309,-0.863639,6.42445,-3.86278,-1776.48,-9754.17,-1981.92,-5.76329,4.4274,1.08686,8808.97,588.66,3965.24,3.7612,5.34065,-1.91745
0.202,3445.14,-3830.13,8358.66,0.356695,2.80897,0.0500978,3780.92,3012.11,8347.06,-0.811112,0.436571,0.233974,956.245,9735.05,-873.716,0.356216,-0.326897,-1.00257,-214.039,-9843.63,-276.84,-0.900256,0.872052,5.79556,-2743.97,9288.49,-915.412,-0.866564,6.39365,-3.91016,-1772.94,-9750.2,-1965.18,-5.62645,4.50292,1.09746,8823.61,584.51,3969.53,3.71492,5.20148,-2.15114
0.203,3458.03,-3833.84,8356.2,0.41732,2.8054,0.0400316,3751.06,3008.97,8355.64,-0.833449,0.55595,0.315589,974.642,9716.91,-889.155,0.324373,-0.430884,-1.08189,-210.659,-9846.17,-282.785,-0.892696,0.677512,5.77115,-2749.49,9299.32,-924.515,-0.86949,6.36285,-3.95753,-1769.41,-9746.23,-1948.44,-5.48961,4.57844,1.10806,8838.26,580.359,3973.82,3.66864,5.06231,-2.38483
0.204,3470.92,-3837.54,8353.74,0.477944,2.80182,0.0299655,3721.2,3005.82,8364.22,-0.855786,0.67533,0.397205,993.038,9698.76,-904.594,0.29253,-0.53487,-1.16122,-207.28,-9848.72,-288.731,-0.885135,0.482973,5.74673,-2755.02,9310.16,-933.618,-0.872416,6.33205,-4.00491,-1765.87,-9742.26,-1931.7,-5.35277,4.65396,1.11865,8852.9,576.209,3978.12,3.62236,4.92315,-2.61851
0.205,3471.97,-3830.06,8344.6,0.479393,2.80895,0.0301934,3710.83,3006.06,8375.24,-0.866279,0.69742,0.442308,1009.11,9692.02,-908.341,0.217426,-0.593446,-1.16786,-195.454,-9852.85,-299.765,-0.883074,0.354375,5.7631,-2754.5,9312.59,-923.172,-0.840578,6.27646,-3.95954,-1764.96,-9739.45,-1932.06,-5.24299,4.71708,1.09846,8852.4,568.82,3978.06,3.49321,4.74182,-2.85537
0.206,3463.55,-3813.63,8330.1,0.433502,2.82466,0.0386567,3716.05,3009.0,8388.21,-0.867297,0.641678,0.458202,1023.33,9694.41,-902.735,0.107714,-0.615694,-1.11637,-176.87,-9858.25,-314.87,-0.885412,0.278532,5.8121,-2749.14,9308.3,-897.088,-0.780928,6.20103,-3.83998,-1766.14,-9737.59,-1946.1,-5.15487,4.77027,1.05363,8839.79,558.841,3974.52,3.29777,4.52676,-3.09476
0.207,3455.12,-3797.2,8315.61,0.387611,2.84036,0.0471199,3721.27,3011.95,8401.18,-0.868316,0.585936,0.474097,1037.54,9696.8,-897.129,-0.0019991,-0.637941,-1.06488,-158.286,-9863.65,-329.974,-0.88775,0.202688,5.86109,-2743.79,9304.01,-871.003,-0.721279,6.12561,-3.72042,-1767.32,-9735.72,-1960.14,-5.06675,4.82346,1.0088,8827.19,548.862,3970.98,3.10233,4.3117,-3.33415
0.208,3446.7,-3780.77,8301.12,0.34172,2.85607,0.0555832,3726.49,3014.89,8414.15,-0.869334,0.530194,0.489991,1051.76,9699.19,-891.523,-0.111712,-0.660188,-1.01339,-139.702,-9869.05,-345.079,-0.890088,0.126844,5.91009,-2738.44,9299.73,-844.918,-0.66163,6.05019,-3.60086,-1768.5,-9733.85,-1974.18,-4.97863,4.87665,0.963965,8814.58,538.883,3967.44,2.90688,4.09664,-3.57354
0.209,3437.47,-3768.05,8289.43,0.304836,2.87221,0.0577664,3732.74,3015.66,8427.25,-0.870981,0.483102,0.499157,1063.7,9699.8,-886.017,-0.193905,-0.66131,-0.958104,-122.46,-9873.71,-358.247,-0.885944,0.0672053,5.9536,-2736.73,9296.95,-822.008,-0.619129,5.96091,-3.49091,-1764.86,-9730.89,-1988.46,-4.91382,4.933,0.913312,8801.28,530.109,3965.04,2.71642,3.88474,-3.80483
0.21,3421.7,-3785.03,8300.21,0.340005,2.89187,0.0097087,3747.32,2999.11,8441.38,-0.877657,0.505207,0.454498,1057.41,9686.25,-881.31,-0.0559419,-0.493429,-0.872463,-115.954,-9872.45,-355.921,-0.829945,0.137204,5.95324,-2764.21,9306.24,-824.5,-0.71381,5.76085,-3.4578,-1722.67,-9719.13,-2004.68,-5.0355,5.01468,0.816082,8782.43,530.979,3971.68,2.56581,3.69812,-3.97134
0.211,3405.93,-3802.01,8311.0,0.375175,2.91153,-0.038349,3761.9,2982.55,8455.52,-0.884333,0.527311,0.409839,1051.12,9672.7,-876.604,0.082021,-0.325548,-0.786822,-109.448,-9871.2,-353.595,-0.773946,0.207203,5.95287,-2791.69,9315.53,-826.992,-0.808491,5.56079,-3.42468,-1680.47,-9707.37,-2020.89,-5.15719,5.09636,0.718852,8763.57,531.849,3978.32,2.4152,3.5115,-4.13785
0.212,3390.16,-3818.98,8321.78,0.410344,2.93119,-0.0864066,3776.48,2965.99,8469.66,-0.89101,0.549416,0.36518,1044.84,9659.15,-871.897,0.219984,-0.157667,-0.701182,-102.943,-9869.94,-351.269,-0.717947,0.277201,5.95251,-2819.17,9324.81,-829.484,-0.903172,5.36073,-3.39157,-1638.28,-9695.61,-2037.1,-5.27887,5.17804,0.621621,8744.72,532.719,3984.97,2.26459,3.32488,-4.30437
0.213,3374.39,-3835.96,8332.56,0.445514,2.95085,-0.134464,3791.05,2949.43,8483.79,-0.897686,0.57152,0.320521,1038.55,9645.6,-867.191,0.357947,0.0102147,-0.615541,-96.4369,-9868.68,-348.944,-0.661948,0.3472,5.95214,-2846.65,9334.1,-831.976,-0.997853,5.16066,-3.35846,-1596.08,-9683.85,-2053.31,-5.40056,5.25971,0.524391,8725.87,533.589,3991.61,2.11398,3.13827,-4.47088
0.214,3371.26,-3827.59,8337.27,0.461875,2.97599,-0.164458,3793.19,2932.13,8487.6,-0.895289,0.578878,0.303332,1030.38,9661.24,-868.657,0.42723,0.114205,-0.614877,-104.584,-9871.0,-337.164,-0.663993,0.486851,5.99015,-2844.9,9330.51,-823.303,-1.02271,5.06086,-3.50368,-1593.22,-9676.36,-2074.62,-5.55494,5.29539,0.525606,8713.87,540.321,3998.91,1.99729,3.00436,-4.63334
0.215,3374.47,-3806.55,8338.95,0.468833,3.00386,-0.18542,3789.11,2914.46,8486.24,-0.888357,0.578862,0.299877,1021.28,9691.49,-873.209,0.462174,0.186249,-0.6567,-120.057,-9875.12,-320.658,-0.695059,0.661328,6.04733,-2828.53,9320.49,-809.048,-1.01266,5.01118,-3.73806,-1610.03,-9671.0,-2098.47,-5.72566,5.30806,0.576043,8705.29,549.983,4006.53,1.89757,2.89682,-4.79378
0.216,3377.67,-3785.51,8340.63,0.475791,3.03174,-0.206382,3785.03,2896.79,8484.87,-0.881424,0.578846,0.296423,1012.17,9721.74,-877.761,0.497117,0.258293,-0.698523,-135.531,-9879.23,-304.152,-0.726125,0.835805,6.10452,-2812.16,9310.46,-794.793,-1.00261,4.9615,-3.97244,-1626.83,-9665.65,-2122.32,-5.89639,5.32074,0.626481,8696.72,559.645,4014.15,1.79784,2.78928,-4.95422
0.217,3380.87,-3764.46,8342.3,0.482748,3.05961,-0.227343,3780.95,2879.12,8483.51,-0.874491,0.57883,0.292968,1003.07,9751.98,-882.314,0.532061,0.330337,-0.740347,-151.004,-9883.34,-287.646,-0.757191,1.01028,6.1617,-2795.79,9300.43,-780.537,-0.992562,4.91182,-4.20682,-1643.64,-9660.3,-2146.17,-6.06711,5.33341,0.676919,8688.14,569.307,4021.77,1.69812,2.68174,-5.11466
0.218,3389.3,-3746.31,8345.13,0.469346,3.07508,-0.240618,3776.58,2866.03,8479.72,-0.884728,0.563304,0.284007,995.302,9773.11,-886.241,0.545986,0.366915,-0.763421,-158.442,-9886.72,-273.6,-0.802015,1.1889,6.23019,-2785.52,9289.3,-771.042,-0.986928,4.86921,-4.34565,-1656.86,-9657.04,-2163.66,-6.24584,5.33932,0.718608,8680.7,578.247,4028.07,1.60642,2.55206,-5.2941
0.219,3416.04,-3738.24,8351.98,0.384685,3.04709,-0.226986,3771.18,2868.98,8467.41,-0.955059,0.493494,0.25577,992.214,9762.34,-887.978,0.486345,0.27936,-0.720873,-137.754,-9887.56,-268.166,-0.89499,1.38201,6.33824,-2796.6,9274.3,-778.206,-0.996755,4.85135,-4.15008,-1657.54,-9661.14,-2158.85,-6.45254,5.32155,0.729677,8677.25,584.662,4029.76,1.5428,2.3449,-5.54
0.22,3442.77,-3730.18,8358.83,0.300023,3.01911,-0.213354,3765.78,2871.92,8455.11,-1.02539,0.423684,0.227533,989.126,9751.56,-889.714,0.426704,0.191806,-0.678326,-117.066,-9888.4,-262.731,-0.987966,1.57512,6.44628,-2807.68,9259.3,-785.369,-1.00658,4.83349,-3.9545,-1658.21,-9665.25,-2154.04,-6.65924,5.30377,0.740747,8673.79,591.078,4031.44,1.47918,2.13774,-5.78591
0.221,3469.51,-3722.12,8365.68,0.215361,2.99113,-0.199721,3760.39,2874.86,8442.8,-1.09572,0.353874,0.199297,986.038,9740.78,-891.451,0.367064,0.104251,-0.635778,-96.3779,-9889.24,-257.297,-1.08094,1.76824,6.55432,-2818.76,9244.3,-792.533,-1.01641,4.81564,-3.75892,-1658.89,-9669.35,-2149.23,-6.86594,5.286,0.751817,8670.33,597.493,4033.13,1.41556,1.93058,-6.03182
0.222,3496.24,-3714.06,8372.53,0.1307,2.96315,-0.186089,3754.99,2877.81,8430.5,-1.16605,0.284064,0.17106,982.95,9730.0,-893.188,0.307423,0.0166965,-0.59323,-75.6898,-9890.08,-251.862,-1.17392,1.96135,6.66237,-2829.83,9229.3,-799.697,-1.02623,4.79778,-3.56334,-1659.57,-9673.45,-2144.41,-7.07264,5.26822,0.762886,8666.88,603.908,4034.81,1.35194,1.72342,-6.27773
0.223,3505.24,-3730.28,8369.8,0.116762,2.91897,-0.216645,3773.16,2886.53,8423.27,-1.108,0.27016,0.182159,970.617,9721.66,-893.996,0.256815,-0.153818,-0.527945,-66.8262,-9892.44,-256.008,-1.19888,2.14931,6.77698,-2816.94,9231.35,-812.219,-1.00941,4.75163,-3.43453,-1671.98,-9671.38,-2145.69,-7.18073,5.22184,0.814899,8664.83,607.721,4035.6,1.27532,1.5151,-6.51397
0.224,3509.18,-3753.44,8364.34,0.123032,2.87016,-0.259826,3798.07,2896.9,8417.49,-1.01327,0.272228,0.204497,955.643,9714.02,-894.539,0.208787,-0.348036,-0.456163,-61.3411,-9895.24,-262.892,-1.2044,2.3358,6.89347,-2797.19,9238.28,-826.271,-0.984971,4.69738,-3.32479,-1687.76,-9667.55,-2148.69,-7.26066,5.16729,0.878609,8663.2,610.79,4036.13,1.19499,1.30644,-6.74746
0.225,3513.11,-3776.6,8358.88,0.129302,2.82135,-0.303007,3822.98,2907.27,8411.71,-0.918544,0.274296,0.226835,940.668,9706.37,-895.081,0.160759,-0.542253,-0.384381,-55.856,-9898.04,-269.775,-1.20993,2.52229,7.00997,-2777.44,9245.21,-840.323,-0.960531,4.64314,-3.21506,-1703.53,-9663.72,-2151.7,-7.34058,5.11274,0.94232,8661.56,613.858,4036.66,1.11465,1.09779,-6.98094
0.226,3517.05,-3799.76,8353.42,0.135571,2.77254,-0.346188,3847.88,2917.64,8405.93,-0.823815,0.276364,0.249173,925.694,9698.73,-895.623,0.112731,-0.736471,-0.312598,-50.3708,-9900.85,-276.659,-1.21546,2.70878,7.12646,-2757.69,9252.14,-854.376,-0.936092,4.5889,-3.10532,-1719.3,-9659.89,-2154.71,-7.4205,5.05819,1.00603,8659.92,616.927,4037.19,1.03432,0.889129,-7.21443
0.227,3517.77,-3810.23,8347.94,0.160989,2.74107,-0.361133,3865.29,2924.52,8402.97,-0.738598,0.265421,0.249176,914.914,9698.42,-887.573,0.0344776,-0.878956,-0.285069,-44.0062,-9907.25,-280.677,-1.23053,2.87941,7.24295,-2748.95,9260.48,-861.304,-0.893604,4.50824,-3.0274,-1733.05,-9656.68,-2157.38,-7.50025,4.99867,1.07059,8657.63,616.29,4038.99,0.951982,0.745577,-7.42388
0.228,3512.06,-3795.31,8342.41,0.224704,2.74429,-0.319605,3867.7,2924.39,8405.63,-0.672403,0.228456,0.204508,912.524,9712.76,-862.338,-0.104227,-0.917977,-0.346047,-35.8827,-9920.88,-278.967,-1.26466,3.0183,7.35943,-2762.23,9271.66,-853.982,-0.815018,4.37474,-3.0131,-1742.75,-9654.72,-2159.37,-7.57966,4.92922,1.13684,8654.03,608.241,4043.34,0.865631,0.732235,-7.58527
0.229,3506.35,-3780.39,8336.89,0.288419,2.74752,-0.278077,3870.11,2924.27,8408.29,-0.606209,0.191491,0.15984,910.134,9727.11,-837.104,-0.242933,-0.956998,-0.407024,-27.7592,-9934.5,-277.257,-1.2988,3.15719,7.47591,-2775.51,9282.84,-846.66,-0.736432,4.24124,-2.99881,-1752.45,-9652.77,-2161.35,-7.65907,4.85977,1.20309,8650.42,600.191,4047.69,0.779279,0.718893,-7.74666
0.23,3500.64,-3765.48,8331.36,0.352134,2.75074,-0.23655,3872.52,2924.15,8410.95,-0.540014,0.154526,0.115172,907.744,9741.45,-811.869,-0.381638,-0.996019,-0.468002,-19.6356,-9948.12,-275.546,-1.33294,3.29609,7.59239,-2788.79,9294.02,-839.339,-0.657846,4.10774,-2.98451,-1762.16,-9650.81,-2163.34,-7.73848,4.79032,1.26934,8646.82,592.142,4052.03,0.692927,0.705551,-7.90805
0.231,3494.93,-3750.56,8325.83,0.415849,2.75396,-0.195022,3874.93,2924.03,8413.6,-0.47382,0.117561,0.0705048,905.354,9755.8,-786.634,-0.520343,-1.03504,-0.528979,-11.5121,-9961.74,-273.836,-1.36708,3.43498,7.70887,-2802.08,9305.2,-832.017,-0.57926,3.97424,-2.97022,-1771.86,-9648.85,-2165.32,-7.8179,4.72087,1.3356,8643.22,584.093,4056.38,0.606576,0.692209,-8.06943
0.232,3486.46,-3750.2,8339.5,0.358374,2.7704,-0.18776,3855.71,2921.87,8417.77,-0.429511,0.0544849,0.0621297,912.823,9742.92,-809.525,-0.47742,-1.17341,-0.482678,-20.6342,-9969.42,-278.416,-1.3722,3.60216,7.70826,-2806.12,9303.31,-815.342,-0.529647,3.80363,-2.98452,-1768.53,-9646.44,-2162.38,-7.93179,4.52091,1.28049,8636.4,594.193,4077.54,0.467213,0.69421,-8.22062
0.233,3477.64,-3751.65,8355.58,0.285751,2.78848,-0.184781,3833.77,2919.47,8422.12,-0.387938,-0.0118545,0.0582912,921.525,9726.64,-838.433,-0.411793,-1.3242,-0.422967,-31.912,-9976.35,-283.783,-1.37368,3.77289,7.69303,-2809.01,9299.79,-797.497,-0.483655,3.62837,-3.00238,-1763.57,-9643.97,-2158.82,-8.04999,4.30465,1.2102,8629.17,606.563,4100.81,0.321223,0.698128,-8.37053
0.234,3468.83,-3753.1,8371.65,0.213127,2.80656,-0.181802,3811.84,2917.06,8426.46,-0.346364,-0.078194,0.0544527,930.226,9710.36,-867.34,-0.346166,-1.47499,-0.363256,-43.1898,-9983.28,-289.15,-1.37517,3.94361,7.67779,-2811.9,9296.26,-779.653,-0.437663,3.45312,-3.02025,-1758.61,-9641.5,-2155.26,-8.1682,4.08838,1.13992,8621.94,618.932,4124.07,0.175234,0.702046,-8.52043
0.235,3460.01,-3754.56,8387.72,0.140503,2.82465,-0.178824,3789.91,2914.65,8430.81,-0.304791,-0.144533,0.0506142,938.928,9694.08,-896.247,-0.280539,-1.62577,-0.303545,-54.4675,-9990.21,-294.516,-1.37665,4.11433,7.66255,-2814.79,9292.74,-761.809,-0.391671,3.27787,-3.03812,-1753.65,-9639.03,-2151.71,-8.2864,3.87212,1.06964,8614.71,631.302,4147.34,0.0292442,0.705964,-8.67034
0.236,3446.28,-3755.88,8396.34,0.108425,2.84547,-0.236041,3780.75,2916.2,8435.16,-0.351511,-0.163132,0.0742615,949.484,9692.95,-918.453,-0.260742,-1.78073,-0.271616,-63.0561,-9985.35,-299.574,-1.33375,4.23371,7.69449,-2820.05,9298.83,-756.247,-0.378125,3.11174,-2.98078,-1741.56,-9648.83,-2150.02,-8.26567,3.71039,1.08059,8613.64,643.535,4164.41,-0.134721,0.661939,-8.77515
0.237,3426.42,-3757.04,8395.64,0.127028,2.86971,-0.368504,3787.56,2922.69,8439.51,-0.508598,-0.122054,0.132266,962.357,9710.76,-932.281,-0.29823,-1.94091,-0.274415,-68.2831,-9965.76,-304.246,-1.23534,4.2889,7.78542,-2828.27,9316.92,-766.04,-0.405137,2.95703,-2.82941,-1720.56,-9673.97,-2150.67,-8.07126,3.61684,1.19306,8620.25,655.597,4173.74,-0.321157,0.557983,-8.8236
0.238,3406.55,-3758.2,8394.95,0.145631,2.89394,-0.500966,3794.37,2929.17,8443.87,-0.665684,-0.0809764,0.19027,975.231,9728.57,-946.11,-0.335718,-2.10108,-0.277214,-73.5101,-9946.17,-308.918,-1.13694,4.34408,7.87634,-2836.48,9335.02,-775.833,-0.432148,2.80232,-2.67805,-1699.57,-9699.11,-2151.33,-7.87685,3.52328,1.30553,8626.87,667.66,4183.07,-0.507592,0.454028,-8.87204
0.239,3386.68,-3759.36,8394.26,0.164234,2.91818,-0.633429,3801.19,2935.66,8448.21,-0.822771,-0.0398986,0.248275,988.104,9746.38,-959.938,-0.373207,-2.26126,-0.280013,-78.7371,-9926.58,-313.59,-1.03854,4.39927,7.96727,-2844.7,9353.12,-785.626,-0.45916,2.64761,-2.52668,-1678.57,-9724.25,-2151.98,-7.68244,3.42973,1.418,8633.48,679.722,4192.4,-0.694027,0.350072,-8.92048
0.24,3366.81,-3760.52,8393.56,0.182836,2.94242,-0.765892,3808.0,2942.14,8452.56,-0.979857,0.00117913,0.306279,1000.98,9764.19,-973.766,-0.410695,-2.42143,-0.282812,-83.9641,-9906.98,-318.262,-0.940132,4.45446,8.05819,-2852.91,9371.22,-795.419,-0.486171,2.49289,-2.37532,-1657.57,-9749.38,-2152.63,-7.48803,3.33618,1.53048,8640.09,691.784,4201.72,-0.880463,0.246116,-8.96892
0.241,3368.28,-3763.29,8392.55,0.20675,2.97461,-0.718277,3803.95,2944.71,8442.9,-0.95326,0.0816329,0.208094,984.994,9751.33,-953.738,-0.501769,-2.52234,-0.22905,-116.617,-9899.49,-338.289,-1.00004,4.4338,8.04694,-2883.51,9354.58,-816.372,-0.587076,2.32166,-2.30767,-1651.16,-9744.16,-2131.06,-7.44492,3.07835,1.376,8650.39,680.302,4201.17,-1.14422,0.114221,-9.10096
0.242,3369.75,-3766.07,8391.55,0.230664,3.00681,-0.670663,3799.9,2947.28,8433.23,-0.926664,0.162087,0.109909,969.011,9738.47,-933.709,-0.592842,-2.62326,-0.175288,-149.269,-9892.0,-358.317,-1.05994,4.41315,8.03569,-2914.11,9337.93,-837.324,-0.68798,2.15043,-2.24003,-1644.75,-9738.94,-2109.5,-7.40181,2.82052,1.22153,8660.68,668.82,4200.61,-1.40798,-0.0176741,-9.23299
0.243,3371.22,-3768.85,8390.54,0.254578,3.039,-0.623048,3795.85,2949.84,8423.56,-0.900066,0.24254,0.0117239,953.028,9725.61,-913.68,-0.683915,-2.72417,-0.121526,-181.922,-9884.51,-378.344,-1.11985,4.39249,8.02444,-2944.7,9321.29,-858.277,-0.788884,1.97919,-2.17239,-1638.34,-9733.71,-2087.93,-7.3587,2.5627,1.06706,8670.98,657.338,4200.05,-1.67173,-0.149569,-9.36502
0.244,3372.69,-3771.63,8389.53,0.278492,3.0712,-0.575433,3791.79,2952.41,8413.89,-0.873469,0.322994,-0.0864612,937.046,9712.76,-893.651,-0.774989,-2.82508,-0.0677636,-214.575,-9877.02,-398.371,-1.17975,4.37184,8.01319,-2975.3,9304.65,-879.229,-0.889789,1.80796,-2.10474,-1631.93,-9728.49,-2066.36,-7.31559,2.30487,0.912587,8681.27,645.855,4199.49,-1.93549,-0.281465,-9.49705
0.245,3372.08,-3783.05,8398.83,0.262687,3.05808,-0.477127,3791.07,2944.8,8411.7,-0.878196,0.285738,-0.0753327,924.305,9708.56,-875.328,-0.770872,-3.01668,-0.0497469,-235.167,-9878.77,-400.204,-1.19395,4.40009,7.98697,-2978.21,9303.48,-889.65,-0.872871,1.6108,-2.05979,-1643.77,-9730.95,-2057.29,-7.1839,2.0981,0.802529,8681.65,645.804,4196.54,-2.13963,-0.401213,-9.6556
0.246,3369.79,-3801.39,8416.38,0.215108,3.00871,-0.338268,3793.0,2929.05,8415.49,-0.907981,0.154314,0.0232468,914.16,9711.3,-858.368,-0.690603,-3.28084,-0.0603267,-246.111,-9887.92,-387.482,-1.17157,4.46748,7.94876,-2958.97,9314.69,-891.647,-0.761696,1.3929,-2.033,-1670.23,-9739.56,-2058.21,-6.98134,1.93219,0.728002,8674.11,654.896,4191.68,-2.29608,-0.511244,-9.83535
0.247,3367.51,-3819.73,8433.92,0.167528,2.95933,-0.199408,3794.94,2913.3,8419.28,-0.937767,0.0228898,0.121826,904.014,9714.04,-841.409,-0.610335,-3.545,-0.0709064,-257.055,-9897.07,-374.76,-1.14919,4.53486,7.91056,-2939.74,9325.9,-893.644,-0.65052,1.17501,-2.0062,-1696.68,-9748.17,-2059.14,-6.77879,1.76628,0.653476,8666.56,663.989,4186.81,-2.45252,-0.621275,-10.0151
0.248,3365.23,-3838.07,8451.47,0.119949,2.90996,-0.0605482,3796.87,2897.55,8423.06,-0.967552,-0.108534,0.220406,893.868,9716.78,-824.449,-0.530066,-3.80915,-0.0814862,-267.999,-9906.21,-362.038,-1.12682,4.60224,7.87235,-2920.5,9337.11,-895.641,-0.539344,0.957108,-1.9794,-1723.13,-9756.78,-2060.06,-6.57623,1.60036,0.578949,8659.02,673.081,4181.95,-2.60897,-0.731305,-10.1949
0.249,3365.17,-3853.38,8466.13,0.0667736,2.86244,0.0531067,3800.77,2887.55,8425.09,-0.992573,-0.223799,0.302126,886.91,9718.9,-811.66,-0.466911,-4.06242,-0.0848466,-277.917,-9911.52,-353.134,-1.09794,4.65371,7.83408,-2901.21,9346.48,-896.738,-0.436231,0.730529,-1.94083,-1748.07,-9764.48,-2063.12,-6.38417,1.4155,0.51209,8651.32,683.078,4178.47,-2.75757,-0.838433,-10.3635
0.25,3382.94,-3844.38,8457.69,-0.0311689,2.82972,-0.0348757,3820.36,2923.54,8412.98,-0.979475,-0.209785,0.248975,905.452,9716.0,-832.234,-0.540662,-4.22858,-0.0304528,-279.623,-9886.08,-374.775,-1.01707,4.57781,7.79521,-2881.55,9341.04,-890.631,-0.397615,0.434508,-1.80799,-1760.9,-9764.9,-2083.19,-6.27606,1.07904,0.506567,8642.41,700.308,4186.02,-2.84336,-0.922332,-10.4437
0.251,3400.72,-3835.38,8449.26,-0.129111,2.797,-0.122858,3839.94,2959.54,8400.87,-0.966377,-0.195771,0.195824,923.994,9713.11,-852.808,-0.614413,-4.39473,0.023941,-281.328,-9860.64,-396.415,-0.936205,4.50191,7.75634,-2861.88,9335.61,-884.525,-0.358999,0.138486,-1.67516,-1773.73,-9765.31,-2103.26,-6.16796,0.742579,0.501045,8633.5,717.537,4193.57,-2.92914,-1.00623,-10.5238
0.252,3418.49,-3826.39,8440.83,-0.227054,2.76427,-0.21084,3859.53,2995.53,8388.77,-0.953279,-0.181757,0.142673,942.535,9710.22,-873.381,-0.688164,-4.56088,0.0783347,-283.034,-9835.19,-418.055,-0.855338,4.42602,7.71747,-2842.21,9330.18,-878.418,-0.320383,-0.157536,-1.54233,-1786.56,-9765.72,-2123.34,-6.05985,0.406118,0.495523,8624.59,734.767,4201.11,-3.01493,-1.09013,-10.6039
0.253,3436.26,-3817.39,8432.4,-0.324996,2.73155,-0.298823,3879.12,3031.53,8376.66,-0.940182,-0.167743,0.0895225,961.077,9707.32,-893.955,-0.761915,-4.72704,0.132729,-284.74,-9809.75,-439.696,-0.774471,4.35012,7.6786,-2822.54,9324.75,-872.312,-0.281767,-0.453558,-1.4095,-1799.39,-9766.14,-2143.41,-5.95175,0.0696579,0.490001,8615.68,751.997,4208.66,-3.10072,-1.17403,-10.684
0.254,3445.21,-3812.06,8425.38,-0.346395,2.74627,-0.388764,3866.43,3017.42,8382.3,-0.994337,-0.203116,0.0610347,967.654,9709.66,-906.963,-0.750276,-4.86327,0.134858,-272.788,-9806.82,-437.714,-0.758348,4.28538,7.65993,-2827.86,9324.49,-862.184,-0.248634,-0.700326,-1.28946,-1814.07,-9741.06,-2159.45,-5.92962,-0.0458813,0.420423,8615.62,762.437,4207.3,-3.133,-1.16312,-10.7299
0.255,3449.75,-3808.57,8419.07,-0.329522,2.78471,-0.479684,3837.6,2978.26,8396.8,-1.08212,-0.263182,0.0448785,968.249,9714.62,-916.188,-0.695941,-4.98454,0.110855,-254.007,-9815.15,-423.92,-0.774598,4.22621,7.65134,-2845.67,9326.8,-850.046,-0.218243,-0.922467,-1.17583,-1829.67,-9703.24,-2173.48,-5.95049,-0.0509598,0.318818,8619.97,769.482,4201.49,-3.13854,-1.10482,-10.7585
0.256,3454.29,-3805.08,8412.76,-0.312649,2.82314,-0.570604,3808.78,2939.1,8411.3,-1.1699,-0.323248,0.0287222,968.843,9719.58,-925.412,-0.641606,-5.10581,0.0868528,-235.227,-9823.47,-410.127,-0.790847,4.16705,7.64276,-2863.48,9329.12,-837.908,-0.187852,-1.14461,-1.06219,-1845.28,-9665.42,-2187.51,-5.97135,-0.0560383,0.217212,8624.33,776.526,4195.68,-3.14407,-1.04651,-10.7872
0.257,3458.83,-3801.59,8406.45,-0.295776,2.86158,-0.661524,3779.95,2899.94,8425.81,-1.25768,-0.383315,0.012566,969.438,9724.53,-934.637,-0.587271,-5.22709,0.0628501,-216.446,-9831.79,-396.333,-0.807097,4.10788,7.63418,-2881.29,9331.44,-825.77,-0.157462,-1.36675,-0.948556,-1860.88,-9627.6,-2201.55,-5.99222,-0.0611168,0.115607,8628.69,783.571,4189.87,-3.14961,-0.988199,-10.8159
0.258,3465.51,-3804.15,8401.74,-0.284529,2.90196,-0.73224,3760.24,2869.33,8439.03,-1.32724,-0.404393,0.0285462,969.902,9726.94,-936.359,-0.556958,-5.33908,0.0472455,-198.855,-9838.09,-381.337,-0.823998,4.03225,7.61482,-2892.65,9337.5,-816.546,-0.0871702,-1.5997,-0.839861,-1878.49,-9594.8,-2219.52,-5.98463,-0.059269,0.0266113,8635.51,790.599,4182.18,-3.16952,-0.926521,-10.8475
0.259,3479.69,-3827.89,8402.6,-0.292975,2.94911,-0.73224,3772.41,2868.69,8447.78,-1.333,-0.289014,0.157004,969.911,9720.45,-911.824,-0.610725,-5.41861,0.0610337,-185.429,-9837.27,-362.133,-0.84318,3.89898,7.55778,-2881.43,9356.7,-817.523,0.122773,-1.8705,-0.74846,-1903.11,-9579.57,-2251.27,-5.87745,-0.0331793,-0.018248,8650.97,797.565,4167.89,-3.23972,-0.853049,-10.8891
0.26,3493.88,-3851.63,8403.46,-0.30142,2.99626,-0.73224,3784.58,2868.04,8456.53,-1.33876,-0.173634,0.285462,969.919,9713.96,-887.289,-0.664491,-5.49813,0.074822,-172.004,-9836.45,-342.929,-0.862361,3.76571,7.50073,-2870.2,9375.89,-818.5,0.332716,-2.1413,-0.657059,-1927.74,-9564.34,-2283.03,-5.77028,-0.00708968,-0.0631073,8666.42,804.532,4153.6,-3.30993,-0.779576,-10.9307
0.261,3508.06,-3875.37,8404.32,-0.309865,3.04342,-0.73224,3796.75,2867.39,8465.28,-1.34452,-0.0582548,0.41392,969.927,9707.47,-862.754,-0.718257,-5.57766,0.0886103,-158.578,-9835.64,-323.725,-0.881542,3.63244,7.44369,-2858.97,9395.08,-819.477,0.542659,-2.4121,-0.565659,-1952.37,-9549.11,-2314.78,-5.6631,0.019,-0.107967,8681.88,811.499,4139.32,-3.38014,-0.706104,-10.9724
0.262,3522.24,-3899.1,8405.18,-0.31831,3.09057,-0.73224,3808.92,2866.75,8474.03,-1.35028,0.0571246,0.542378,969.936,9700.98,-838.219,-0.772024,-5.65719,0.102399,-145.152,-9834.82,-304.521,-0.900724,3.49917,7.38665,-2847.75,9414.28,-820.454,0.752602,-2.6829,-0.474258,-1977.0,-9533.88,-2346.54,-5.55592,0.0450896,-0.152826,8697.33,818.465,4125.03,-3.45035,-0.632632,-11.014
0.263,3512.11,-3886.39,8404.43,-0.310046,3.04117,-0.738829,3824.94,2870.61,8477.44,-1.29487,0.0819509,0.53338,966.955,9687.61,-847.337,-0.747151,-5.64601,0.160693,-152.158,-9834.64,-310.819,-0.825037,3.37703,7.43761,-2848.36,9405.98,-807.321,0.853084,-2.93929,-0.44142,-1962.43,-9548.51,-2336.93,-5.41505,0.233256,-0.130222,8715.26,816.718,4106.72,-3.57278,-0.560034,-10.9359
0.264,3495.03,-3863.26,8403.21,-0.297008,2.96417,-0.747301,3842.05,2875.77,8479.33,-1.22198,0.0809049,0.485109,963.12,9672.29,-866.069,-0.699811,-5.60892,0.231704,-165.001,-9834.65,-324.402,-0.722245,3.25807,7.51944,-2852.34,9389.84,-790.157,0.922292,-3.19157,-0.425315,-1936.65,-9571.68,-2315.5,-5.26454,0.46773,-0.0883428,8733.88,812.482,4087.26,-3.71013,-0.487687,-10.8235
0.265,3477.94,-3840.13,8402.0,-0.283969,2.88718,-0.755774,3859.17,2880.92,8481.23,-1.14909,0.0798588,0.436838,959.284,9656.96,-884.802,-0.65247,-5.57184,0.302715,-177.843,-9834.66,-337.985,-0.619454,3.13911,7.60127,-2856.33,9373.69,-772.992,0.991499,-3.44384,-0.409209,-1910.88,-9594.85,-2294.08,-5.11404,0.702205,-0.0464636,8752.51,808.245,4067.79,-3.84748,-0.41534,-10.7111
0.266,3460.86,-3816.99,8400.79,-0.270931,2.81018,-0.764246,3876.29,2886.08,8483.12,-1.0762,0.0788128,0.388567,955.449,9641.64,-903.534,-0.605129,-5.53475,0.373726,-190.686,-9834.66,-351.568,-0.516662,3.02015,7.6831,-2860.32,9357.54,-755.827,1.06071,-3.69612,-0.393104,-1885.11,-9618.02,-2272.65,-4.96353,0.936679,-0.00458448,8771.14,804.008,4048.33,-3.98483,-0.342993,-10.5988
0.267,3445.8,-3792.39,8402.73,-0.277565,2.75967,-0.771646,3888.14,2900.64,8479.75,-1.08343,0.100702,0.360496,956.817,9639.85,-913.134,-0.57145,-5.47834,0.412098,-201.044,-9834.09,-362.839,-0.418084,2.87563,7.74313,-2856.64,9349.28,-742.82,1.11588,-3.93685,-0.33348,-1863.02,-9637.73,-2260.09,-4.80442,1.08359,0.0104683,8781.07,799.478,4033.45,-4.10214,-0.251723,-10.5001
0.268,3434.79,-3764.86,8411.0,-0.323544,2.76214,-0.776904,3889.47,2934.02,8465.85,-1.25091,0.168463,0.372826,968.592,9665.14,-904.468,-0.565095,-5.38329,0.38519,-206.431,-9832.38,-369.486,-0.327935,2.67998,7.75953,-2837.59,9356.79,-738.128,1.14297,-4.15448,-0.186821,-1848.3,-9650.53,-2265.26,-4.62809,1.05536,-0.0281317,8773.62,794.363,4027.74,-4.17939,-0.122609,-10.429
0.269,3423.77,-3737.32,8419.25,-0.369523,2.7646,-0.782161,3890.8,2967.4,8451.95,-1.41839,0.236224,0.385155,980.367,9690.43,-895.802,-0.558739,-5.28823,0.358282,-211.819,-9830.67,-376.133,-0.237785,2.48434,7.77593,-2818.55,9364.3,-733.436,1.17006,-4.37211,-0.0401609,-1833.57,-9663.34,-2270.43,-4.45177,1.02714,-0.0667317,8766.16,789.248,4022.02,-4.25663,0.00650468,-10.3579
0.27,3412.75,-3709.78,8427.52,-0.415502,2.76707,-0.787418,3892.12,3000.79,8438.06,-1.58587,0.303985,0.397485,992.142,9715.72,-887.136,-0.552384,-5.19318,0.331374,-217.206,-9828.95,-382.78,-0.147636,2.2887,7.79234,-2799.51,9371.81,-728.744,1.19715,-4.58974,0.106499,-1818.85,-9676.14,-2275.59,-4.27544,0.998918,-0.105332,8758.71,784.133,4016.31,-4.33387,0.135619,-10.2868
0.271,3401.74,-3682.25,8435.78,-0.461482,2.76953,-0.792676,3893.45,3034.17,8424.16,-1.75335,0.371745,0.409815,1003.92,9741.0,-878.47,-0.546029,-5.09813,0.304466,-222.594,-9827.24,-389.427,-0.0574865,2.09305,7.80874,-2780.46,9379.32,-724.052,1.22424,-4.80737,0.253158,-1804.12,-9688.94,-2280.76,-4.09912,0.970695,-0.143932,8751.26,779.018,4010.6,-4.41111,0.264733,-10.2157
0.272,3395.99,-3684.52,8425.96,-0.507516,2.69268,-0.738782,3869.07,3033.85,8406.43,-1.753,0.35668,0.414376,1021.44,9740.96,-861.24,-0.57446,-5.05891,0.196324,-226.974,-9819.13,-382.139,0.0271954,2.03672,7.83228,-2774.12,9369.01,-709.213,1.15265,-4.88711,0.32242,-1821.92,-9669.96,-2277.85,-4.07809,0.904086,-0.197606,8740.76,796.63,4013.06,-4.50793,0.285349,-10.2572
0.273,3390.9,-3690.53,8413.89,-0.553558,2.60591,-0.677494,3841.48,3029.31,8388.23,-1.73167,0.331261,0.417966,1039.69,9737.74,-842.939,-0.607241,-5.02667,0.0780269,-231.229,-9810.22,-373.108,0.111194,1.9978,7.85672,-2769.37,9356.47,-693.106,1.06874,-4.94962,0.382006,-1843.79,-9647.0,-2273.92,-4.07647,0.832678,-0.253164,8729.89,817.084,4016.55,-4.60719,0.292403,-10.3127
0.274,3385.82,-3696.54,8401.81,-0.5996,2.51915,-0.616205,3813.89,3024.77,8370.02,-1.71035,0.305843,0.421556,1057.93,9734.52,-824.638,-0.640021,-4.99442,-0.04027,-235.484,-9801.31,-364.078,0.195192,1.95888,7.88116,-2764.62,9343.93,-676.998,0.984819,-5.01212,0.441593,-1865.66,-9624.05,-2270.0,-4.07486,0.761271,-0.308722,8719.02,837.537,4020.04,-4.70646,0.299456,-10.3682
0.275,3380.73,-3702.54,8389.74,-0.645641,2.43238,-0.554917,3786.29,3020.24,8351.82,-1.68902,0.280424,0.425146,1076.18,9731.31,-806.337,-0.672801,-4.96218,-0.158567,-239.738,-9792.4,-355.048,0.279191,1.91995,7.9056,-2759.86,9331.38,-660.891,0.900901,-5.07463,0.50118,-1887.52,-9601.09,-2266.07,-4.07324,0.689863,-0.364281,8708.15,857.99,4023.53,-4.80572,0.30651,-10.4237
0.276,3379.96,-3713.89,8377.94,-0.651449,2.35323,-0.552845,3767.15,3018.41,8357.72,-1.67421,0.26408,0.45965,1080.33,9730.34,-802.141,-0.693082,-4.91958,-0.216058,-234.908,-9786.54,-348.198,0.285475,1.89211,7.84836,-2768.2,9323.45,-659.062,0.848122,-5.13242,0.529671,-1895.34,-9583.33,-2269.42,-4.13305,0.603207,-0.409092,8704.33,866.236,4025.52,-4.93556,0.275968,-10.3923
0.277,3384.57,-3731.93,8366.48,-0.606963,2.28359,-0.624792,3758.58,3019.97,8393.77,-1.66754,0.25908,0.532796,1066.85,9732.19,-815.574,-0.697739,-4.86403,-0.197543,-218.72,-9784.49,-344.072,0.194615,1.87811,7.68901,-2792.9,9321.29,-675.08,0.834267,-5.18434,0.519293,-1885.58,-9572.07,-2281.85,-4.26964,0.497489,-0.440471,8709.33,859.224,4025.64,-5.10361,0.198429,-10.2523
0.278,3389.19,-3749.96,8355.01,-0.562477,2.21395,-0.69674,3750.0,3021.54,8429.81,-1.66087,0.25408,0.605942,1053.37,9734.04,-829.007,-0.702396,-4.80848,-0.179028,-202.532,-9782.45,-339.947,0.103755,1.86411,7.52966,-2817.6,9319.12,-691.099,0.820412,-5.23626,0.508915,-1875.83,-9560.81,-2294.29,-4.40623,0.391772,-0.471849,8714.32,852.212,4025.76,-5.27167,0.120891,-10.1123
0.279,3393.81,-3767.99,8343.55,-0.517991,2.14432,-0.768687,3741.43,3023.1,8465.85,-1.65421,0.24908,0.679089,1039.9,9735.88,-842.44,-0.707052,-4.75294,-0.160513,-186.344,-9780.4,-335.822,0.0128957,1.85011,7.37031,-2842.3,9316.95,-707.118,0.806556,-5.28817,0.498538,-1866.08,-9549.55,-2306.72,-4.54281,0.286054,-0.503228,8719.32,845.199,4025.88,-5.43972,0.043353,-9.97232
0.28,3398.43,-3786.02,8332.09,-0.473506,2.07468,-0.840634,3732.85,3024.66,8501.9,-1.64754,0.24408,0.752235,1026.42,9737.73,-855.873,-0.711709,-4.69739,-0.141998,-170.156,-9778.35,-331.697,-0.0779638,1.83611,7.21096,-2867.0,9314.78,-723.137,0.792701,-5.34009,0.48816,-1856.33,-9538.29,-2319.16,-4.6794,0.180336,-0.534606,8724.31,838.187,4025.99,-5.60777,-0.0341852,-9.83231
0.281,3421.14,-3783.63,8333.08,-0.548771,2.14699,-0.871506,3762.21,2985.39,8485.46,-1.69682,0.24408,0.798424,1035.93,9733.91,-866.307,-0.678671,-4.63316,-0.133349,-186.526,-9786.27,-344.422,-0.0113204,1.77107,7.16933,-2862.69,9326.94,-724.25,0.75879,-5.39453,0.548949,-1864.14,-9516.11,-2306.54,-4.75869,0.314219,-0.537885,8731.06,841.507,4027.96,-5.87402,-0.142342,-9.62111
0.282,3443.85,-3781.23,8334.07,-0.624037,2.2193,-0.902378,3791.58,2946.11,8469.02,-1.74609,0.24408,0.844612,1045.44,9730.09,-876.74,-0.645632,-4.56893,-0.1247,-202.896,-9794.18,-357.148,0.055323,1.70603,7.12769,-2858.38,9339.1,-725.363,0.724879,-5.44897,0.609739,-1871.95,-9493.93,-2293.92,-4.83797,0.448103,-0.541164,8737.81,844.826,4029.92,-6.14026,-0.250498,-9.40991
0.283,3466.56,-3778.84,8335.06,-0.699302,2.29161,-0.93325,3820.94,2906.84,8452.58,-1.79537,0.24408,0.890801,1054.95,9726.28,-887.174,-0.612594,-4.5047,-0.116052,-219.266,-9802.09,-369.873,0.121966,1.64099,7.08606,-2854.08,9351.25,-726.476,0.690968,-5.50342,0.670528,-1879.76,-9471.75,-2281.3,-4.91726,0.581986,-0.544443,8744.55,848.146,4031.89,-6.4065,-0.358654,-9.1987
0.284,3489.27,-3776.44,8336.05,-0.774567,2.36392,-0.964121,3850.31,2867.57,8436.14,-1.84465,0.24408,0.93699,1064.46,9722.46,-897.608,-0.579556,-4.44047,-0.107403,-235.636,-9810.0,-382.598,0.18861,1.57595,7.04442,-2849.77,9363.41,-727.589,0.657057,-5.55786,0.731318,-1887.58,-9449.58,-2268.69,-4.99654,0.715869,-0.547723,8751.3,851.465,4033.85,-6.67275,-0.46681,-8.9875
0.285,3502.67,-3779.12,8342.71,-0.836684,2.40161,-0.929222,3860.38,2849.22,8420.97,-1.91118,0.299403,0.911461,1070.13,9728.31,-894.279,-0.529024,-4.38823,-0.105244,-263.554,-9825.79,-367.785,0.2287,1.52987,7.03932,-2843.55,9368.57,-725.943,0.653267,-5.57897,0.843987,-1903.6,-9448.58,-2255.08,-5.10484,0.840392,-0.583652,8757.8,857.839,4032.39,-6.9607,-0.537359,-8.86679
0.286,3508.63,-3785.86,8353.9,-0.888281,2.41159,-0.841706,3855.02,2847.61,8406.81,-1.9915,0.398984,0.828558,1072.72,9741.89,-879.941,-0.464497,-4.34558,-0.108276,-300.712,-9847.87,-330.94,0.247546,1.49896,7.06344,-2835.81,9368.14,-722.091,0.673575,-5.57341,0.998159,-1926.18,-9464.53,-2240.68,-5.23633,0.957426,-0.645703,8764.1,866.655,4028.18,-7.26602,-0.57782,-8.81847
0.287,3514.58,-3792.6,8365.09,-0.939879,2.42157,-0.75419,3849.66,2846.01,8392.66,-2.07183,0.498564,0.745655,1075.32,9755.48,-865.603,-0.399971,-4.30293,-0.111308,-337.87,-9869.95,-294.096,0.266393,1.46806,7.08756,-2828.07,9367.72,-718.239,0.693882,-5.56786,1.15233,-1948.77,-9480.48,-2226.27,-5.36783,1.07446,-0.707753,8770.4,875.472,4023.96,-7.57134,-0.618282,-8.77015
0.288,3520.53,-3799.35,8376.28,-0.991476,2.43156,-0.666673,3844.3,2844.4,8378.5,-2.15216,0.598145,0.662752,1077.91,9769.06,-851.265,-0.335444,-4.26029,-0.11434,-375.027,-9892.03,-257.251,0.28524,1.43715,7.11168,-2820.32,9367.29,-714.386,0.714189,-5.5623,1.3065,-1971.35,-9496.43,-2211.87,-5.49933,1.1915,-0.769803,8776.69,884.289,4019.75,-7.87667,-0.658744,-8.72183
0.289,3522.98,-3805.16,8387.27,-1.03423,2.4327,-0.590017,3841.08,2843.55,8366.11,-2.23,0.694788,0.592256,1079.78,9779.82,-837.282,-0.274755,-4.21352,-0.115247,-410.473,-9913.07,-229.494,0.303548,1.42134,7.13624,-2810.51,9366.09,-713.747,0.729285,-5.5614,1.43628,-1992.12,-9512.58,-2197.39,-5.63025,1.27715,-0.831279,8782.45,891.775,4015.99,-8.16385,-0.706535,-8.66
0.29,3497.41,-3803.56,8396.66,-1.00627,2.36312,-0.600236,3854.98,2848.79,8367.87,-2.288,0.767922,0.62101,1075.88,9767.94,-826.149,-0.244762,-4.13381,-0.09915,-432.224,-9925.7,-274.431,0.317548,1.52635,7.16424,-2784.15,9358.77,-738.813,0.702685,-5.59777,1.37087,-1998.34,-9530.33,-2182.23,-5.75658,1.11172,-0.888156,8783.85,888.612,4015.78,-8.3059,-0.81296,-8.49012
0.291,3471.84,-3801.95,8406.04,-0.978299,2.29354,-0.610455,3868.87,2854.02,8369.62,-2.34599,0.841057,0.649765,1071.97,9756.06,-815.016,-0.21477,-4.05409,-0.083053,-453.976,-9938.33,-319.369,0.331548,1.63135,7.19224,-2757.78,9351.44,-763.879,0.676086,-5.63414,1.30546,-2004.57,-9548.08,-2167.08,-5.88291,0.946294,-0.945034,8785.25,885.449,4015.57,-8.44796,-0.919385,-8.32024
0.292,3446.28,-3800.35,8415.43,-0.950333,2.22396,-0.620675,3882.77,2859.26,8371.37,-2.40398,0.914191,0.678519,1068.06,9744.18,-803.883,-0.184777,-3.97438,-0.066956,-475.727,-9950.97,-364.307,0.345547,1.73636,7.22023,-2731.41,9344.12,-788.945,0.649487,-5.6705,1.24006,-2010.79,-9565.82,-2151.92,-6.00923,0.780868,-1.00191,8786.65,882.286,4015.37,-8.59001,-1.02581,-8.15035
0.293,3420.71,-3798.74,8424.82,-0.922366,2.15438,-0.630894,3896.67,2864.5,8373.13,-2.46198,0.987326,0.707274,1064.16,9732.3,-792.75,-0.154784,-3.89467,-0.0508589,-497.478,-9963.6,-409.245,0.359547,1.84137,7.24823,-2705.05,9336.79,-814.012,0.622887,-5.70687,1.17465,-2017.01,-9583.57,-2136.76,-6.13556,0.615442,-1.05879,8788.04,879.124,4015.16,-8.73206,-1.13224,-7.98047
0.294,3403.09,-3789.96,8432.3,-0.923157,2.08201,-0.592208,3887.59,2863.22,8381.87,-2.4251,0.981672,0.80386,1065.36,9725.39,-792.683,-0.157573,-3.78563,-0.0640208,-483.856,-9940.37,-425.944,0.391641,1.79723,7.16767,-2682.04,9340.57,-812.702,0.585939,-5.66282,1.12376,-2016.67,-9579.14,-2132.2,-6.08278,0.43915,-1.02992,8794.19,886.49,4006.11,-8.94121,-1.29382,-7.81696
0.295,3389.45,-3777.59,8438.83,-0.938327,2.00825,-0.529069,3867.01,2858.69,8394.1,-2.34079,0.936623,0.934362,1069.13,9720.96,-798.15,-0.176753,-3.66194,-0.0918121,-452.547,-9899.21,-428.524,0.432783,1.67853,7.03282,-2660.72,9349.89,-798.204,0.543815,-5.57856,1.08013,-2013.04,-9563.61,-2132.92,-5.94045,0.257427,-0.958176,8802.7,899.121,3992.63,-9.18391,-1.48298,-7.65664
0.296,3375.81,-3765.22,8445.36,-0.953497,1.93449,-0.46593,3846.44,2854.16,8406.34,-2.25647,0.891575,1.06486,1072.89,9716.54,-803.618,-0.195933,-3.53825,-0.119603,-421.239,-9858.04,-431.103,0.473924,1.55982,6.89797,-2639.4,9359.22,-783.706,0.501691,-5.49431,1.0365,-2009.4,-9548.09,-2133.64,-5.79812,0.0757029,-0.886433,8811.22,911.752,3979.15,-9.42661,-1.67214,-7.49633
0.297,3362.17,-3752.85,8451.89,-0.968667,1.86072,-0.402791,3825.86,2849.62,8418.57,-2.17216,0.846526,1.19537,1076.65,9712.12,-809.085,-0.215113,-3.41456,-0.147395,-389.93,-9816.88,-433.683,0.515065,1.44111,6.76312,-2618.08,9368.55,-769.208,0.459567,-5.41005,0.992868,-2005.77,-9532.56,-2134.37,-5.6558,-0.106021,-0.814689,8819.73,924.383,3965.67,-9.66931,-1.8613,-7.33601
0.298,3355.35,-3743.68,8453.4,-0.983309,1.79648,-0.35796,3812.6,2851.83,8427.85,-2.13635,0.827687,1.29915,1077.74,9709.17,-816.928,-0.23015,-3.30674,-0.175186,-368.122,-9790.48,-435.441,0.568304,1.35733,6.65165,-2602.22,9372.48,-759.016,0.444759,-5.30039,0.969271,-2006.47,-9515.92,-2133.17,-5.51952,-0.278893,-0.760421,8827.02,932.448,3950.17,-9.90072,-2.01208,-7.19282
0.299,3372.44,-3745.69,8437.32,-0.996106,1.76554,-0.377203,3824.93,2877.61,8426.81,-2.27033,0.90058,1.3094,1069.47,9711.39,-833.087,-0.23069,-3.25445,-0.202977,-379.565,-9815.75,-434.324,0.663882,1.39575,6.62205,-2605.49,9357.54,-763.891,0.525554,-5.10178,1.01579,-2022.34,-9495.36,-2125.23,-5.4044,-0.420787,-0.767315,8830.02,924.536,3927.6,-10.0926,-2.02857,-7.10955
0.3,3389.53,-3747.7,8421.23,-1.0089,1.73461,-0.396446,3837.25,2903.39,8425.76,-2.40431,0.973473,1.31965,1061.2,9713.62,-849.247,-0.23123,-3.20216,-0.230769,-391.007,-9841.01,-433.206,0.759461,1.43417,6.59245,-2608.76,9342.6,-768.766,0.606349,-4.90317,1.06231,-2038.22,-9474.81,-2117.3,-5.28929,-0.562681,-0.774209,8833.01,916.623,3905.04,-10.2845,-2.04505,-7.02628
0.301,3406.61,-3749.72,8405.15,-1.0217,1.70368,-0.41569,3849.58,2929.17,8424.71,-2.53829,1.04637,1.32991,1052.92,9715.84,-865.407,-0.231769,-3.14986,-0.25856,-402.45,-9866.28,-432.089,0.85504,1.47259,6.56284,-2612.04,9327.66,-773.642,0.687143,-4.70457,1.10882,-2054.09,-9454.26,-2109.36,-5.17418,-0.704574,-0.781104,8836.01,908.711,3882.48,-10.4765,-2.06153,-6.94301
0.302,3423.7,-3751.73,8389.07,-1.0345,1.67274,-0.434933,3861.91,2954.95,8423.66,-2.67227,1.11926,1.34016,1044.65,9718.06,-881.566,-0.232309,-3.09757,-0.286351,-413.893,-9891.55,-430.971,0.950619,1.51101,6.53324,-2615.31,9312.72,-778.517,0.767938,-4.50596,1.15534,-2069.96,-9433.71,-2101.43,-5.05906,-0.846468,-0.787998,8839.0,900.798,3859.91,-10.6684,-2.07801,-6.85974
0.303,3435.32,-3766.09,8380.64,-1.04492,1.63234,-0.443292,3856.71,2947.07,8437.56,-2.65932,1.13964,1.29204,1041.21,9716.68,-877.09,-0.191269,-3.08712,-0.309774,-412.342,-9886.54,-425.48,0.878017,1.38948,6.47073,-2622.51,9319.31,-781.243,0.798888,-4.40701,1.23276,-2090.23,-9448.88,-2105.63,-5.03841,-0.98603,-0.820633,8843.2,891.991,3850.09,-10.8006,-2.13643,-6.66398
0.304,3445.38,-3783.98,8374.41,-1.05467,1.58922,-0.448541,3846.51,2929.58,8455.72,-2.60438,1.14503,1.22723,1039.14,9714.27,-866.718,-0.138349,-3.08862,-0.331949,-407.079,-9872.87,-418.738,0.757365,1.22225,6.39883,-2630.84,9332.06,-783.355,0.815597,-4.33654,1.31901,-2111.77,-9474.25,-2113.29,-5.04475,-1.12493,-0.860624,8847.73,882.928,3843.92,-10.9159,-2.20683,-6.43608
0.305,3455.45,-3801.86,8368.17,-1.06442,1.54611,-0.453789,3836.31,2912.08,8473.89,-2.54944,1.15041,1.16243,1037.08,9711.86,-856.346,-0.0854293,-3.09012,-0.354124,-401.815,-9859.21,-411.997,0.636712,1.05501,6.32692,-2639.17,9344.81,-785.466,0.832306,-4.26606,1.40525,-2133.3,-9499.63,-2120.96,-5.05108,-1.26382,-0.900614,8852.27,873.865,3837.74,-11.0311,-2.27724,-6.20817
0.306,3465.51,-3819.75,8361.93,-1.07416,1.503,-0.459038,3826.11,2894.59,8492.06,-2.49451,1.15579,1.09763,1035.02,9709.44,-845.974,-0.0325093,-3.09161,-0.376299,-396.552,-9845.55,-405.255,0.516059,0.887781,6.25501,-2647.5,9357.56,-787.578,0.849015,-4.19558,1.4915,-2154.84,-9525.0,-2128.62,-5.05742,-1.40272,-0.940604,8856.8,864.802,3831.57,-11.1463,-2.34764,-5.98027
0.307,3462.7,-3828.84,8357.98,-1.10506,1.49202,-0.436808,3822.51,2884.94,8500.08,-2.47842,1.17247,1.06187,1033.03,9711.52,-838.485,0.00858214,-3.07095,-0.397642,-381.846,-9827.13,-396.955,0.459609,0.729409,6.1628,-2645.78,9363.1,-786.074,0.840648,-4.08405,1.51204,-2167.48,-9536.85,-2143.55,-5.07508,-1.51519,-0.941523,8862.01,861.762,3830.82,-11.2678,-2.42096,-5.7725
0.308,3434.15,-3820.35,8358.61,-1.17827,1.54531,-0.359621,3832.12,2890.98,8487.81,-2.54002,1.21174,1.0842,1031.2,9722.59,-836.765,0.0260167,-3.00596,-0.41732,-348.253,-9799.18,-385.535,0.531564,0.588759,6.02997,-2623.93,9354.24,-777.34,0.782132,-3.89041,1.40116,-2162.33,-9521.65,-2173.0,-5.11539,-1.57483,-0.864298,8868.56,870.767,3840.93,-11.4019,-2.50011,-5.60501
0.309,3405.59,-3811.86,8359.23,-1.25147,1.59861,-0.282434,3841.72,2897.03,8475.54,-2.60162,1.251,1.10654,1029.36,9733.66,-835.045,0.0434512,-2.94097,-0.436998,-314.66,-9771.23,-374.116,0.603519,0.44811,5.89715,-2602.09,9345.38,-768.606,0.723615,-3.69677,1.29029,-2157.17,-9506.45,-2202.46,-5.1557,-1.63446,-0.787073,8875.11,879.772,3851.04,-11.536,-2.57927,-5.43751
0.31,3377.04,-3803.36,8359.86,-1.32468,1.6519,-0.205246,3851.33,2903.07,8463.28,-2.66322,1.29027,1.12887,1027.52,9744.72,-833.324,0.0608858,-2.87598,-0.456676,-281.066,-9743.29,-362.696,0.675473,0.30746,5.76432,-2580.25,9336.52,-759.872,0.665098,-3.50314,1.17941,-2152.02,-9491.25,-2231.91,-5.19601,-1.69409,-0.709849,8881.66,888.778,3861.15,-11.6701,-2.65842,-5.27001
0.311,3348.49,-3794.87,8360.48,-1.39788,1.7052,-0.128059,3860.94,2909.11,8451.01,-2.72482,1.32954,1.1512,1025.69,9755.79,-831.604,0.0783203,-2.81099,-0.476355,-247.473,-9715.34,-351.277,0.747428,0.166811,5.6315,-2558.4,9327.66,-751.138,0.606582,-3.3095,1.06854,-2146.86,-9476.05,-2261.36,-5.23632,-1.75373,-0.632624,8888.21,897.783,3871.26,-11.8042,-2.73758,-5.10251
0.312,3342.14,-3782.54,8362.65,-1.40317,1.6726,-0.131251,3865.22,2910.1,8458.29,-2.76976,1.28861,1.17832,1037.4,9771.58,-831.128,0.0890168,-2.78976,-0.482093,-260.944,-9736.99,-350.224,0.8435,0.0167562,5.6259,-2562.54,9323.72,-765.645,0.556586,-3.09026,1.05302,-2124.62,-9484.97,-2248.86,-5.09957,-1.72654,-0.597505,8887.26,890.527,3853.05,-11.8761,-2.79168,-4.98925
0.313,3338.56,-3769.73,8365.01,-1.39996,1.62927,-0.14449,3868.83,2910.45,8468.0,-2.81261,1.23767,1.20604,1050.8,9787.95,-830.807,0.098871,-2.774,-0.486089,-280.298,-9764.84,-350.467,0.942586,-0.134474,5.63621,-2569.92,9320.4,-783.056,0.507656,-2.86783,1.04942,-2100.25,-9496.91,-2231.11,-4.94068,-1.68851,-0.567649,8885.38,881.238,3831.31,-11.9402,-2.84265,-4.88276
0.314,3334.98,-3756.92,8367.37,-1.39675,1.58594,-0.157729,3872.45,2910.8,8477.72,-2.85547,1.18672,1.23375,1064.2,9804.32,-830.487,0.108725,-2.75824,-0.490086,-299.651,-9792.7,-350.711,1.04167,-0.285704,5.64652,-2577.3,9317.09,-800.468,0.458726,-2.64539,1.04582,-2075.87,-9508.85,-2213.37,-4.78179,-1.65047,-0.537794,8883.5,871.95,3809.56,-12.0042,-2.89362,-4.77628
0.315,3331.39,-3744.1,8369.74,-1.39354,1.54261,-0.170968,3876.06,2911.15,8487.44,-2.89832,1.13577,1.26147,1077.61,9820.7,-830.166,0.118579,-2.74248,-0.494082,-319.005,-9820.55,-350.954,1.14076,-0.436935,5.65684,-2584.68,9313.77,-817.88,0.409795,-2.42296,1.04223,-2051.49,-9520.79,-2195.62,-4.6229,-1.61244,-0.507938,8881.62,862.661,3787.82,-12.0683,-2.9446,-4.66979
0.316,3332.11,-3737.6,8365.4,-1.3597,1.52059,-0.148731,3877.66,2909.49,8490.69,-2.89316,1.12435,1.27732,1085.4,9820.12,-830.995,0.102059,-2.7031,-0.494821,-328.822,-9837.58,-339.381,1.16218,-0.563838,5.64655,-2588.81,9314.25,-824.597,0.407219,-2.26739,1.0337,-2044.74,-9528.99,-2178.46,-4.58684,-1.56677,-0.491033,8890.72,847.642,3778.16,-12.0952,-2.95121,-4.58658
0.317,3338.21,-3738.98,8352.7,-1.28757,1.52522,-0.0821468,3876.73,2905.3,8485.86,-2.82797,1.16234,1.27835,1086.18,9798.35,-833.262,0.052569,-2.6342,-0.49149,-326.718,-9841.09,-313.039,1.08653,-0.660334,5.61051,-2588.88,9319.48,-817.946,0.462585,-2.19541,1.019,-2060.02,-9532.51,-2162.03,-4.7043,-1.51158,-0.490314,8913.56,825.461,3783.62,-12.0755,-2.90238,-4.53247
0.318,3344.31,-3740.36,8340.0,-1.21544,1.52984,-0.015563,3875.81,2901.11,8481.02,-2.76277,1.20033,1.27937,1086.97,9776.59,-835.529,0.00307942,-2.56529,-0.488158,-324.614,-9844.6,-286.697,1.01088,-0.756829,5.57447,-2588.94,9324.71,-811.296,0.517951,-2.12344,1.00431,-2075.3,-9536.03,-2145.59,-4.82177,-1.45638,-0.489596,8936.41,803.28,3789.08,-12.0558,-2.85355,-4.47836
0.319,3350.4,-3741.74,8327.3,-1.14331,1.53447,0.0510207,3874.88,2896.92,8476.19,-2.69758,1.23831,1.2804,1087.75,9754.82,-837.796,-0.0464101,-2.49638,-0.484827,-322.511,-9848.1,-260.355,0.935231,-0.853325,5.53844,-2589.01,9329.94,-804.645,0.573317,-2.05146,0.98962,-2090.58,-9539.56,-2129.16,-4.93923,-1.40118,-0.488878,8959.25,781.099,3794.53,-12.0362,-2.80471,-4.42425
0.32,3356.5,-3743.12,8314.6,-1.07118,1.53909,0.117604,3873.95,2892.73,8471.36,-2.63239,1.2763,1.28142,1088.54,9733.05,-840.063,-0.0958997,-2.42747,-0.481495,-320.407,-9851.61,-234.013,0.85958,-0.94982,5.5024,-2589.08,9335.17,-797.994,0.628683,-1.97948,0.974927,-2105.86,-9543.08,-2112.73,-5.0567,-1.34598,-0.48816,8982.09,758.918,3799.99,-12.0165,-2.75588,-4.37014
0.321,3367.33,-3755.03,8334.14,-1.09109,1.59102,-0.0602199,3850.66,2900.01,8487.06,-2.5631,1.14271,1.30837,1082.49,9728.97,-832.818,-0.143692,-2.36371,-0.521849,-321.145,-9867.7,-224.438,0.87358,-0.892986,5.48359,-2590.85,9336.01,-796.929,0.688633,-1.75361,1.01187,-2120.06,-9558.17,-2107.12,-5.0448,-1.23566,-0.583994,8979.47,754.949,3805.71,-11.9074,-2.65873,-4.22677
0.322,3378.15,-3766.95,8353.68,-1.111,1.64295,-0.238044,3827.37,2907.29,8502.77,-2.49382,1.00913,1.33532,1076.44,9724.89,-825.573,-0.191484,-2.29995,-0.562202,-321.883,-9883.78,-214.862,0.88758,-0.836152,5.46478,-2592.62,9336.85,-795.864,0.748583,-1.52774,1.04881,-2134.26,-9573.26,-2101.52,-5.0329,-1.12534,-0.679828,8976.85,750.98,3811.44,-11.7983,-2.56159,-4.08339
0.323,3388.98,-3778.87,8373.21,-1.13092,1.69487,-0.415869,3804.08,2914.57,8518.48,-2.42453,0.875543,1.36226,1070.39,9720.81,-818.328,-0.239277,-2.23619,-0.602556,-322.621,-9899.87,-205.287,0.901579,-0.779318,5.44598,-2594.39,9337.69,-794.799,0.808534,-1.30187,1.08575,-2148.46,-9588.34,-2095.91,-5.021,-1.01502,-0.775662,8974.23,747.011,3817.16,-11.6893,-2.46444,-3.94002
