Time,RFoot_accel.x,RFoot_accel.y,RFoot_accel.z,RFoot_gyro.x,RFoot_gyro.y,RFoot_gyro.z,LFoot_accel.x,LFoot_accel.y,LFoot_accel.z,LFoot_gyro.x,LFoot_gyro.y,LFoot_gyro.z,RShank_accel.x,RShank_accel.y,RShank_accel.z,RShank_gyro.x,RShank_gyro.y,RShank_gyro.z,LShank_accel.x,LShank_accel.y,LShank_accel.z,LShank_gyro.x,LShank_gyro.y,LShank_gyro.z,RThigh_accel.x,RThigh_accel.y,RThigh_accel.z,RThigh_gyro.x,RThigh_gyro.y,RThigh_gyro.z,LThigh_accel.x,LThigh_accel.y,LThigh_accel.z,LThigh_gyro.x,LThigh_gyro.y,LThigh_gyro.z,Pelvis_accel.x,Pelvis_accel.y,Pelvis_accel.z,Pelvis_gyro.x,Pelvis_gyro.y,Pelvis_gyro.z
0.0,3269.78,-3818.39,8443.2,-4.33628,4.48304,-4.78428,2659.97,4294.1,8331.53,-18.644,24.3749,18.6123,-267.185,9928.35,-994.323,-0.974226,-7.0393,2.21662,208.491,-9886.95,-246.174,-2.5362,-6.88731,-11.2372,-257.654,9808.51,-1963.25,-0.982223,-0.657343,8.75146,-684.79,-9932.54,-749.585,-9.94595,6.04732,7.38945,8655.57,1624.27,4079.26,-14.5564,1.16232,-1.33558
0.001,3290.67,-3806.15,8462.72,-4.28079,4.45706,-4.7735,2682.11,4283.19,8313.89,-19.1067,24.2657,18.6816,-258.162,9911.87,-996.887,-1.1224,-6.62618,2.10313,221.919,-9881.81,-241.587,-2.41042,-6.52188,-11.6202,-254.219,9776.95,-2003.8,-1.06849,0.232888,8.78446,-650.084,-9954.18,-729.708,-10.076,5.70392,7.30135,8696.34,1638.74,4073.62,-14.1704,1.20469,-1.24102
0.002,3311.56,-3793.91,8482.24,-4.22531,4.43109,-4.76272,2704.26,4272.27,8296.26,-19.5695,24.1565,18.7509,-249.14,9895.39,-999.45,-1.27057,-6.21305,1.98965,235.348,-9876.67,-237.0,-2.28464,-6.15646,-12.0031,-250.784,9745.4,-2044.35,-1.15476,1.12312,8.81746,-615.379,-9975.81,-709.83,-10.206,5.36052,7.21325,8737.12,1653.22,4067.99,-13.7844,1.24706,-1.14646
0.003,3332.46,-3781.67,8501.75,-4.16982,4.40511,-4.75195,2726.41,4261.35,8278.63,-20.0322,24.0473,18.8202,-240.118,9878.91,-1002.01,-1.41874,-5.79993,1.87616,248.777,-9871.53,-232.414,-2.15885,-5.79103,-12.386,-247.349,9713.84,-2084.89,-1.24103,2.01335,8.85045,-580.673,-9997.45,-689.953,-10.336,5.01713,7.12515,8777.89,1667.7,4062.35,-13.3983,1.28943,-1.05189
0.004,3353.35,-3769.44,8521.27,-4.11433,4.37914,-4.74117,2748.56,4250.44,8260.99,-20.495,23.9381,18.8895,-231.095,9862.43,-1004.58,-1.56691,-5.38681,1.76267,262.205,-9866.39,-227.827,-2.03307,-5.42561,-12.769,-243.914,9682.28,-2125.44,-1.3273,2.90358,8.88345,-545.967,-10019.1,-670.076,-10.4661,4.67373,7.03705,8818.67,1682.17,4056.71,-13.0123,1.33181,-0.957328
0.005,3369.8,-3761.32,8522.29,-4.09579,4.26942,-4.61544,2792.48,4211.12,8248.48,-20.9452,23.8722,18.9825,-222.475,9846.64,-1020.98,-1.66513,-4.83726,1.74342,242.004,-9858.26,-208.895,-1.91801,-5.05225,-13.0493,-246.421,9648.24,-2166.94,-1.46858,3.72328,8.8223,-510.456,-10007.4,-674.905,-10.5997,4.36798,6.92211,8846.67,1702.16,4067.69,-12.682,1.3866,-0.913575
0.006,3382.69,-3756.49,8508.51,-4.10679,4.09272,-4.39775,2853.81,4149.09,8240.05,-21.3854,23.841,19.0946,-214.177,9831.4,-1048.44,-1.72337,-4.17856,1.79958,194.9,-9847.72,-178.488,-1.81153,-4.67256,-13.2476,-253.68,9612.2,-2209.21,-1.65386,4.48656,8.68584,-474.3,-9969.05,-699.5,-10.7363,4.09234,6.7857,8864.45,1726.55,4091.95,-12.3963,1.45133,-0.910469
0.007,3395.59,-3751.67,8494.74,-4.1178,3.91601,-4.18007,2915.15,4087.06,8231.63,-21.8256,23.8097,19.2066,-205.879,9816.15,-1075.91,-1.78161,-3.51987,1.85573,147.795,-9837.18,-148.081,-1.70505,-4.29286,-13.4459,-260.939,9576.17,-2251.48,-1.83914,5.24983,8.54938,-438.143,-9930.7,-724.095,-10.8729,3.81671,6.64928,8882.24,1750.94,4116.21,-12.1105,1.51607,-0.907364
0.008,3408.49,-3746.85,8480.96,-4.12881,3.73931,-3.96238,2976.49,4025.03,8223.21,-22.2658,23.7785,19.3187,-197.581,9800.9,-1103.38,-1.83985,-2.86117,1.91189,100.69,-9826.64,-117.673,-1.59857,-3.91317,-13.6441,-268.198,9540.13,-2293.74,-2.02442,6.0131,8.41292,-401.987,-9892.35,-748.689,-11.0094,3.54107,6.51287,8900.02,1775.33,4140.47,-11.8248,1.5808,-0.904258
0.009,3424.1,-3745.5,8470.6,-4.1524,3.56108,-3.77108,3039.52,3961.97,8212.83,-22.6981,23.7661,19.4607,-189.53,9787.55,-1130.24,-1.89927,-2.21287,1.9819,51.776,-9812.11,-87.8816,-1.53348,-3.55774,-13.8203,-275.504,9504.67,-2326.25,-2.2064,6.75197,8.27046,-363.299,-9861.92,-771.568,-11.145,3.30187,6.38504,8915.67,1795.07,4156.52,-11.5565,1.63136,-0.892764
0.01,3461.42,-3771.95,8487.63,-4.27672,3.37069,-3.79084,3116.07,3890.64,8186.82,-23.0669,23.9047,19.8422,-183.463,9789.3,-1152.23,-1.96814,-1.64773,2.16283,-11.6125,-9765.6,-63.0148,-1.79947,-3.39644,-13.8192,-283.195,9473.82,-2280.64,-2.36197,7.29562,8.07998,-304.35,-9894.9,-780.717,-11.2722,3.35415,6.32593,8914.27,1777.62,4106.86,-11.4277,1.56852,-0.814159
0.011,3498.74,-3798.4,8504.65,-4.40104,3.18031,-3.81061,3192.62,3819.32,8160.81,-23.4358,24.0432,20.2238,-177.395,9791.06,-1174.23,-2.03701,-1.0826,2.34375,-75.0011,-9719.1,-38.1481,-2.06546,-3.23513,-13.8182,-290.885,9442.98,-2235.03,-2.51754,7.83926,7.8895,-245.402,-9927.88,-789.866,-11.3993,3.40644,6.26683,8912.87,1760.17,4057.2,-11.2989,1.50568,-0.735553
0.012,3536.06,-3824.85,8521.67,-4.52535,2.98992,-3.83037,3269.17,3748.0,8134.8,-23.8046,24.1818,20.6054,-171.327,9792.81,-1196.23,-2.10588,-0.517459,2.52468,-138.39,-9672.59,-13.2813,-2.33145,-3.07383,-13.8172,-298.575,9412.13,-2189.42,-2.67311,8.38291,7.69902,-186.453,-9960.86,-799.015,-11.5265,3.45872,6.20772,8911.46,1742.72,4007.53,-11.1701,1.44283,-0.656948
0.013,3573.39,-3851.3,8538.69,-4.64967,2.79953,-3.85014,3345.72,3676.68,8108.79,-24.1735,24.3204,20.987,-165.26,9794.57,-1218.22,-2.17475,0.0476779,2.7056,-201.778,-9626.08,11.5855,-2.59744,-2.91252,-13.8162,-306.265,9381.28,-2143.81,-2.82868,8.92656,7.50854,-127.505,-9993.83,-808.164,-11.6537,3.51101,6.14861,8910.06,1725.27,3957.87,-11.0413,1.37999,-0.578343
0.014,3587.54,-3879.32,8547.73,-4.62974,2.51414,-3.75587,3443.38,3624.81,8086.19,-24.3361,24.547,21.524,-177.682,9802.53,-1218.98,-2.34429,0.299769,2.72886,-286.687,-9585.5,17.1945,-2.85303,-2.9007,-13.7442,-302.468,9366.19,-2130.78,-2.84496,9.31278,7.22161,-84.3404,-10000.3,-814.742,-11.6528,3.73708,6.14862,8904.55,1748.11,3942.13,-11.0593,1.22353,-0.553245
0.015,3590.12,-3908.12,8552.78,-4.53769,2.18125,-3.60458,3551.6,3582.68,8065.31,-24.3957,24.8177,22.1387,-199.35,9813.59,-1209.12,-2.56416,0.395338,2.67328,-382.357,-9547.88,13.1746,-3.10343,-2.96362,-13.6369,-292.927,9358.97,-2134.03,-2.7916,9.62031,6.88645,-49.0681,-9993.41,-820.034,-11.5879,4.05006,6.17818,8896.99,1791.11,3943.35,-11.1507,1.02024,-0.554901
0.016,3592.69,-3936.91,8557.82,-4.44564,1.84836,-3.45328,3659.82,3540.54,8044.42,-24.4552,25.0884,22.7533,-221.018,9824.66,-1199.26,-2.78403,0.490907,2.6177,-478.026,-9510.26,9.15465,-3.35383,-3.02654,-13.5295,-283.386,9351.75,-2137.28,-2.73824,9.92782,6.55129,-13.7958,-9986.56,-825.326,-11.5229,4.36303,6.20775,8889.43,1834.1,3944.57,-11.2421,0.816959,-0.556557
0.017,3595.26,-3965.71,8562.87,-4.35359,1.51547,-3.30199,3768.04,3498.41,8023.54,-24.5148,25.3591,23.368,-242.685,9835.73,-1189.39,-3.0039,0.586475,2.56212,-573.696,-9472.64,5.13474,-3.60424,-3.08946,-13.4221,-273.845,9344.53,-2140.53,-2.68487,10.2353,6.21614,21.4765,-9979.71,-830.618,-11.458,4.67601,6.23731,8881.87,1877.09,3945.79,-11.3335,0.613677,-0.558213
0.018,3593.41,-3985.71,8565.58,-4.271,1.19329,-3.12405,3888.71,3455.89,8009.95,-24.5277,25.6725,23.9026,-264.997,9845.88,-1178.7,-3.23841,0.611582,2.50655,-677.572,-9442.47,3.95553,-3.84658,-3.12384,-13.3003,-264.914,9335.45,-2137.97,-2.66544,10.493,5.90737,62.8288,-9976.41,-835.945,-11.3217,5.02335,6.24015,8874.37,1907.09,3943.84,-11.5054,0.423316,-0.518894
0.019,3576.06,-3974.93,8560.12,-4.22155,0.9086,-2.8528,4052.97,3412.05,8021.9,-24.377,26.1351,24.1567,-289.56,9852.84,-1165.07,-3.52412,0.390071,2.45097,-810.173,-9438.36,12.7187,-4.06074,-3.05833,-13.1282,-258.121,9319.84,-2115.05,-2.76476,10.5763,5.69096,125.461,-9985.56,-841.395,-10.9356,5.49097,6.14944,8867.08,1891.6,3930.82,-11.9591,0.278181,-0.336161
0.02,3558.71,-3964.14,8554.66,-4.17209,0.623912,-2.58156,4217.22,3368.2,8033.85,-24.2264,26.5977,24.4108,-314.123,9859.79,-1151.45,-3.80984,0.16856,2.39539,-942.774,-9434.25,21.4819,-4.2749,-2.99283,-12.956,-251.328,9304.24,-2092.14,-2.86409,10.6595,5.47455,188.092,-9994.71,-846.846,-10.5495,5.9586,6.05873,8859.79,1876.11,3917.8,-12.4129,0.133046,-0.153429
0.021,3541.36,-3953.35,8549.19,-4.12263,0.339224,-2.31032,4381.48,3324.36,8045.8,-24.0758,27.0603,24.665,-338.686,9866.75,-1137.83,-4.09555,-0.052951,2.33981,-1075.37,-9430.14,30.2452,-4.48906,-2.92732,-12.7838,-244.536,9288.64,-2069.22,-2.96341,10.7428,5.25814,250.724,-10003.9,-852.296,-10.1635,6.42623,5.96802,8852.5,1860.62,3904.77,-12.8666,-0.012089,0.029304
0.022,3524.02,-3942.57,8543.73,-4.07318,0.0545368,-2.03907,4545.73,3280.52,8057.75,-23.9252,27.5229,24.9191,-363.249,9873.7,-1124.21,-4.38127,-0.274462,2.28424,-1207.98,-9426.03,39.0084,-4.70322,-2.86181,-12.6117,-237.743,9273.03,-2046.3,-3.06274,10.8261,5.04173,313.356,-10013.0,-857.746,-9.77738,6.89385,5.87731,8845.21,1845.13,3891.75,-13.3203,-0.157224,0.212037
0.023,3489.95,-3937.26,8538.05,-4.00193,-0.290731,-2.11457,4660.77,3216.93,8049.69,-23.7305,27.7956,24.5742,-378.98,9862.19,-1128.92,-4.61241,-0.404881,2.2529,-1334.83,-9419.86,63.5226,-4.89397,-2.78961,-12.4457,-257.503,9284.83,-2047.32,-3.01838,11.0815,5.00505,336.665,-10008.1,-828.21,-9.461,7.319,5.78969,8831.13,1857.37,3890.41,-13.8797,-0.512434,0.290665
0.024,3451.11,-3933.51,8532.31,-3.92445,-0.653308,-2.28914,4761.75,3147.7,8035.92,-23.5231,28.014,24.058,-392.189,9845.41,-1138.86,-4.82796,-0.509274,2.22849,-1460.04,-9413.11,92.5372,-5.07802,-2.71549,-12.2814,-284.849,9304.45,-2055.17,-2.93296,11.3861,5.01973,348.738,-9999.16,-788.677,-9.16454,7.73201,5.70296,8815.1,1877.53,3892.42,-14.4693,-0.927665,0.33955
0.025,3412.26,-3929.76,8526.57,-3.84697,-1.01588,-2.46371,4862.73,3078.47,8022.15,-23.3158,28.2324,23.5419,-405.397,9828.62,-1148.8,-5.0435,-0.613666,2.20409,-1585.26,-9406.35,121.552,-5.26208,-2.64137,-12.1172,-312.195,9324.07,-2063.03,-2.84755,11.6906,5.0344,360.811,-9990.22,-749.144,-8.86808,8.14502,5.61622,8799.07,1897.69,3894.42,-15.0588,-1.3429,0.388435
0.026,3373.42,-3926.01,8520.83,-3.76949,-1.37846,-2.63828,4963.71,3009.25,8008.37,-23.1084,28.4508,23.0258,-418.606,9811.83,-1158.74,-5.25905,-0.718059,2.17968,-1710.47,-9399.59,150.566,-5.44613,-2.56725,-11.9529,-339.541,9343.69,-2070.88,-2.76213,11.9952,5.04908,372.885,-9981.29,-709.611,-8.57161,8.55803,5.52949,8783.04,1917.85,3896.42,-15.6484,-1.75813,0.43732
0.027,3336.41,-3910.01,8513.0,-3.68127,-1.67846,-2.85582,5034.13,2956.11,7989.88,-22.9392,28.572,22.4475,-423.499,9793.03,-1156.96,-5.43413,-0.837444,2.18297,-1816.15,-9404.6,186.122,-5.56384,-2.58973,-11.8046,-372.378,9359.53,-2071.79,-2.71246,12.2736,5.07248,385.943,-9975.87,-670.581,-8.26489,8.76168,5.52215,8771.43,1918.92,3896.77,-16.2593,-2.16658,0.561173
0.028,3303.07,-3869.54,8501.0,-3.57157,-1.85331,-3.15931,5043.42,2935.15,7961.94,-22.8461,28.4988,21.7448,-411.762,9770.17,-1131.72,-5.52829,-0.986815,2.24166,-1882.78,-9433.14,234.762,-5.54886,-2.80541,-11.688,-416.196,9367.8,-2058.79,-2.73427,12.4997,5.11336,400.971,-9977.45,-632.556,-7.93763,8.54662,5.6736,8768.66,1881.79,3893.8,-16.9128,-2.56148,0.834965
0.029,3269.73,-3829.06,8488.99,-3.46187,-2.02816,-3.4628,5052.72,2914.2,7934.0,-22.7531,28.4255,21.0422,-400.025,9747.32,-1106.48,-5.62244,-1.13619,2.30035,-1949.41,-9461.69,283.401,-5.53388,-3.02109,-11.5714,-460.014,9376.07,-2045.8,-2.75608,12.7257,5.15423,415.998,-9979.04,-594.532,-7.61038,8.33156,5.82506,8765.89,1844.67,3890.84,-17.5663,-2.95639,1.10876
0.03,3236.39,-3788.59,8476.99,-3.35216,-2.20301,-3.7663,5062.01,2893.24,7906.06,-22.6601,28.3523,20.3396,-388.288,9724.47,-1081.25,-5.71659,-1.28556,2.35903,-2016.04,-9490.23,332.041,-5.51889,-3.23678,-11.4548,-503.833,9384.34,-2032.8,-2.77789,12.9518,5.1951,431.026,-9980.62,-556.507,-7.28313,8.1165,5.97652,8763.12,1807.54,3887.87,-18.2199,-3.35129,1.38255
0.031,3203.05,-3748.11,8464.99,-3.24246,-2.37787,-4.06979,5071.3,2872.29,7878.12,-22.567,28.279,19.6369,-376.55,9701.61,-1056.01,-5.81074,-1.43493,2.41772,-2082.67,-9518.78,380.68,-5.50391,-3.45246,-11.3383,-547.651,9392.61,-2019.81,-2.7997,13.1778,5.23598,446.054,-9982.21,-518.482,-6.95587,7.90144,6.12797,8760.35,1770.41,3884.9,-18.8734,-3.74619,1.65634
0.032,3221.27,-3684.76,8471.82,-3.15719,-2.49266,-4.27225,5036.36,2882.24,7874.23,-22.4658,28.1394,18.5242,-352.618,9698.1,-1050.34,-5.87576,-1.58252,2.41219,-2085.06,-9542.39,394.136,-5.40131,-3.81712,-11.3311,-580.972,9397.5,-1982.62,-2.94497,13.317,5.30108,451.778,-9944.25,-511.004,-6.81235,7.57373,6.22742,8736.28,1728.82,3852.78,-19.3635,-4.04874,1.78063
0.033,3245.93,-3618.55,8481.02,-3.07497,-2.59994,-4.46209,4995.9,2896.06,7873.36,-22.3635,27.9915,17.3602,-327.161,9697.01,-1047.11,-5.93713,-1.7299,2.39863,-2079.42,-9565.39,403.194,-5.28775,-4.20039,-11.3376,-612.981,9401.98,-1942.4,-3.10567,13.4454,5.36921,456.34,-9901.34,-507.345,-6.6918,7.23194,6.32037,8709.55,1686.67,3817.01,-19.8331,-4.33975,1.88623
0.034,3270.6,-3552.34,8490.21,-2.99275,-2.70723,-4.65193,4955.43,2909.88,7872.48,-22.2612,27.8436,16.1963,-301.703,9695.92,-1043.88,-5.99851,-1.87728,2.38507,-2073.78,-9588.38,412.252,-5.1742,-4.58367,-11.3442,-644.99,9406.45,-1902.18,-3.26637,13.5737,5.43734,460.902,-9858.44,-503.686,-6.57125,6.89015,6.41331,8682.81,1644.52,3781.24,-20.3026,-4.63077,1.99183
0.035,3295.27,-3486.13,8499.4,-2.91053,-2.81451,-4.84177,4914.96,2923.7,7871.61,-22.1589,27.6957,15.0323,-276.246,9694.83,-1040.65,-6.05988,-2.02465,2.37151,-2068.14,-9611.38,421.31,-5.06064,-4.96695,-11.3507,-676.999,9410.92,-1861.97,-3.42708,13.7021,5.50547,465.463,-9815.53,-500.027,-6.45069,6.54836,6.50626,8656.08,1602.37,3745.47,-20.7722,-4.92178,2.09744
0.036,3319.65,-3467.19,8505.21,-2.83351,-2.90691,-4.78565,4877.03,2949.84,7880.57,-21.9565,27.5374,14.0262,-277.541,9702.43,-1040.41,-6.16692,-2.15418,2.36483,-2062.14,-9625.01,417.184,-5.00768,-5.21414,-11.4181,-693.811,9416.27,-1832.98,-3.50075,13.6142,5.53234,439.818,-9785.86,-498.436,-6.32923,6.23231,6.56676,8641.53,1585.71,3700.84,-21.0035,-5.09157,2.22383
0.037,3343.67,-3507.34,8506.78,-2.76298,-2.98068,-4.42206,4842.28,2991.36,7901.83,-21.629,27.366,13.2175,-312.274,9720.87,-1043.91,-6.33103,-2.26141,2.36676,-2055.7,-9626.95,396.578,-5.03047,-5.29122,-11.5616,-691.626,9422.72,-1818.02,-3.46564,13.2558,5.50765,376.415,-9772.73,-499.431,-6.20663,5.94843,6.5867,8642.19,1600.93,3645.13,-20.937,-5.10984,2.3762
0.038,3367.7,-3547.49,8508.36,-2.69245,-3.05445,-4.05848,4807.54,3032.88,7923.08,-21.3014,27.1947,12.4087,-347.008,9739.32,-1047.4,-6.49515,-2.36864,2.36868,-2049.26,-9628.88,375.973,-5.05326,-5.3683,-11.7052,-689.441,9429.17,-1803.06,-3.43053,12.8975,5.48296,313.011,-9759.59,-500.426,-6.08403,5.66456,6.60664,8642.86,1616.14,3589.43,-20.8704,-5.1281,2.52857
0.039,3391.72,-3587.64,8509.93,-2.62192,-3.12822,-3.6949,4772.79,3074.41,7944.34,-20.9739,27.0234,11.5999,-381.742,9757.77,-1050.9,-6.65926,-2.47586,2.37061,-2042.82,-9630.81,355.368,-5.07605,-5.44538,-11.8487,-687.256,9435.62,-1788.1,-3.39541,12.5391,5.45827,249.608,-9746.46,-501.422,-5.96143,5.38069,6.62658,8643.52,1631.35,3533.72,-20.8038,-5.14637,2.68095
0.04,3415.75,-3627.79,8511.51,-2.55139,-3.202,-3.33131,4738.04,3115.93,7965.59,-20.6463,26.852,10.7912,-416.475,9776.21,-1054.4,-6.82338,-2.58309,2.37254,-2036.37,-9632.74,334.762,-5.09884,-5.52247,-11.9922,-685.071,9442.07,-1773.14,-3.3603,12.1808,5.43358,186.205,-9733.33,-502.417,-5.83883,5.09682,6.64652,8644.19,1646.57,3478.01,-20.7373,-5.16463,2.83332
0.041,3399.08,-3735.14,8491.2,-2.32027,-3.51171,-3.43762,4765.3,3139.15,7946.6,-20.537,26.9209,10.0922,-452.083,9787.33,-1042.87,-6.9356,-2.85377,2.48412,-1997.7,-9608.71,322.936,-5.12182,-5.27344,-12.0537,-741.257,9463.45,-1736.73,-3.46757,11.9288,5.29768,108.378,-9704.37,-511.569,-5.8294,5.0887,6.89158,8605.28,1637.42,3479.27,-20.4668,-4.99127,2.8083
0.042,3382.42,-3842.49,8470.89,-2.08914,-3.82142,-3.54393,4792.57,3162.37,7927.6,-20.4278,26.9898,9.3932,-487.69,9798.46,-1031.34,-7.04782,-3.12444,2.5957,-1959.02,-9584.67,311.11,-5.14479,-5.02441,-12.1152,-797.442,9484.83,-1700.31,-3.57484,11.6768,5.16178,30.5505,-9675.41,-520.722,-5.81996,5.08058,7.13664,8566.37,1628.27,3480.53,-20.1963,-4.81791,2.78328
0.043,3365.75,-3949.85,8450.58,-1.85802,-4.13113,-3.65024,4819.83,3185.6,7908.61,-20.3185,27.0586,8.6942,-523.297,9809.58,-1019.81,-7.16004,-3.39512,2.70728,-1920.35,-9560.64,299.285,-5.16777,-4.77539,-12.1767,-853.628,9506.21,-1663.9,-3.68211,11.4248,5.02588,-47.2765,-9646.45,-529.874,-5.81053,5.07245,7.38171,8527.46,1619.12,3481.79,-19.9258,-4.64454,2.75825
0.044,3349.09,-4057.2,8430.27,-1.6269,-4.44084,-3.75655,4847.09,3208.82,7889.61,-20.2093,27.1275,7.99521,-558.905,9820.7,-1008.28,-7.27226,-3.66579,2.81887,-1881.67,-9536.61,287.459,-5.19074,-4.52636,-12.2383,-909.813,9527.59,-1627.49,-3.78939,11.1728,4.88998,-125.104,-9617.49,-539.027,-5.80109,5.06433,7.62677,8488.55,1609.97,3483.04,-19.6552,-4.47118,2.73323
0.045,3366.61,-4091.15,8422.66,-1.47794,-4.67962,-3.77443,4863.91,3182.69,7895.39,-20.1438,27.1719,7.33968,-590.308,9824.57,-1006.86,-7.39298,-4.0265,2.85228,-1850.89,-9512.59,278.251,-5.267,-4.2454,-12.3077,-935.847,9543.21,-1616.95,-3.70157,10.5056,4.83603,-213.501,-9590.5,-547.978,-5.86915,5.11178,7.95456,8477.35,1607.47,3478.69,-19.3835,-4.2955,2.8531
0.046,3411.47,-4066.39,8425.21,-1.39472,-4.86166,-3.72156,4872.37,3117.07,7920.98,-20.1132,27.1968,6.71894,-618.348,9822.63,-1013.53,-7.52048,-4.45924,2.82315,-1826.43,-9488.58,271.137,-5.38588,-3.9389,-12.3835,-937.759,9554.23,-1627.11,-3.45767,9.5063,4.84765,-310.355,-9565.08,-556.768,-5.99919,5.2037,8.34853,8488.31,1610.3,3469.84,-19.1106,-4.11798,3.08889
0.047,3456.34,-4041.63,8427.76,-1.3115,-5.04369,-3.6687,4880.82,3051.45,7946.57,-20.0827,27.2216,6.09819,-646.388,9820.7,-1020.19,-7.64799,-4.89198,2.79402,-1801.96,-9464.57,264.024,-5.50476,-3.6324,-12.4593,-939.672,9565.25,-1637.28,-3.21378,8.50696,4.85926,-407.209,-9539.66,-565.558,-6.12924,5.29562,8.74251,8499.28,1613.13,3461.0,-18.8378,-3.94045,3.32468
0.048,3501.21,-4016.87,8430.31,-1.22828,-5.22573,-3.61583,4889.28,2985.84,7972.16,-20.0522,27.2465,5.47745,-674.429,9818.76,-1026.86,-7.7755,-5.32472,2.76489,-1777.5,-9440.56,256.91,-5.62364,-3.3259,-12.535,-941.584,9576.27,-1647.44,-2.96989,7.50763,4.87088,-504.063,-9514.24,-574.349,-6.25928,5.38754,9.13648,8510.24,1615.96,3452.15,-18.565,-3.76292,3.56047
0.049,3541.72,-3992.76,8432.0,-1.14178,-5.41499,-3.56243,4895.63,2918.69,7996.12,-19.9927,27.2738,4.87392,-702.44,9818.3,-1033.03,-7.90848,-5.7623,2.73949,-1751.08,-9418.46,252.519,-5.72153,-3.01906,-12.603,-944.721,9585.0,-1658.51,-2.7636,6.52234,4.88121,-599.334,-9491.61,-583.361,-6.4064,5.48882,9.51389,8522.08,1617.89,3446.31,-18.3298,-3.61723,3.75863
0.05,3547.4,-3973.84,8426.79,-1.02912,-5.6621,-3.50481,4885.07,2839.34,8006.96,-19.7012,27.3207,4.40811,-730.225,9829.69,-1035.3,-8.08523,-6.23861,2.74392,-1708.97,-9411.68,269.906,-5.65154,-2.70959,-12.6082,-957.653,9575.38,-1676.85,-2.85813,5.64944,4.88128,-681.943,-9491.34,-594.148,-6.69014,5.66506,9.75874,8540.91,1612.54,3464.51,-18.3956,-3.72625,3.65576
0.051,3553.07,-3954.91,8421.58,-0.916449,-5.9092,-3.44719,4874.51,2759.99,8017.8,-19.4098,27.3677,3.9423,-758.009,9841.07,-1037.57,-8.26199,-6.71493,2.74834,-1666.87,-9404.9,287.294,-5.58154,-2.40012,-12.6135,-970.585,9565.76,-1695.19,-2.95266,4.77653,4.88134,-764.552,-9491.06,-604.934,-6.97387,5.84129,10.0036,8559.74,1607.19,3482.71,-18.4615,-3.83528,3.5529
0.052,3558.75,-3935.99,8416.38,-0.803782,-6.15631,-3.38957,4863.95,2680.64,8028.64,-19.1183,27.4146,3.4765,-785.793,9852.45,-1039.84,-8.43874,-7.19124,2.75277,-1624.76,-9398.12,304.681,-5.51154,-2.09065,-12.6187,-983.518,9556.14,-1713.53,-3.0472,3.90363,4.88141,-847.161,-9490.79,-615.721,-7.25761,6.01752,10.2484,8578.57,1601.85,3500.9,-18.5273,-3.9443,3.45004
0.053,3564.43,-3917.07,8411.17,-0.691115,-6.40341,-3.33195,4853.39,2601.29,8039.48,-18.8269,27.4615,3.01069,-813.578,9863.84,-1042.11,-8.6155,-7.66756,2.75719,-1582.66,-9391.34,322.068,-5.44154,-1.78118,-12.624,-996.45,9546.53,-1731.86,-3.14173,3.03072,4.88148,-929.77,-9490.51,-626.508,-7.54135,6.19376,10.4933,8597.4,1596.5,3519.1,-18.5931,-4.05332,3.34718
0.054,3557.41,-3908.51,8405.95,-0.515674,-6.54289,-3.40014,4824.38,2568.69,8045.52,-18.6371,27.4529,2.40298,-816.054,9873.01,-1036.67,-8.72999,-8.08511,2.8377,-1554.27,-9407.67,318.695,-5.39686,-1.49406,-12.5899,-999.107,9546.33,-1718.81,-3.19179,2.17874,4.87326,-984.617,-9485.57,-631.793,-7.77709,6.15965,10.6168,8615.89,1575.1,3531.78,-18.7979,-4.14151,3.32853
0.055,3544.05,-3905.15,8400.72,-0.308845,-6.62856,-3.53125,4786.14,2559.46,8049.16,-18.4981,27.4165,1.72432,-805.876,9881.09,-1027.37,-8.81336,-8.47327,2.95624,-1532.75,-9435.55,304.941,-5.36482,-1.2181,-12.5362,-996.627,9550.84,-1690.07,-3.21961,1.33721,4.86091,-1025.58,-9478.29,-634.327,-7.98884,6.02037,10.6797,8634.22,1545.67,3541.7,-19.0721,-4.21928,3.35198
0.056,3530.69,-3901.78,8395.49,-0.102016,-6.71423,-3.66235,4747.9,2550.23,8052.79,-18.3592,27.3801,1.04565,-795.698,9889.16,-1018.06,-8.89673,-8.86143,3.07479,-1511.22,-9463.44,291.187,-5.33279,-0.942145,-12.4825,-994.147,9555.36,-1661.33,-3.24743,0.495687,4.84855,-1066.55,-9471.01,-636.861,-8.20059,5.88109,10.7426,8652.55,1516.25,3551.62,-19.3463,-4.29706,3.37543
0.057,3517.33,-3898.41,8390.26,0.104813,-6.7999,-3.79346,4709.67,2541.0,8056.43,-18.2202,27.3437,0.366988,-785.52,9897.24,-1008.76,-8.98009,-9.24959,3.19333,-1489.7,-9491.33,277.433,-5.30076,-0.666189,-12.4288,-991.667,9559.87,-1632.58,-3.27525,-0.34584,4.8362,-1107.52,-9463.74,-639.395,-8.41233,5.74182,10.8055,8670.88,1486.82,3561.54,-19.6205,-4.37484,3.39888
0.058,3500.86,-3892.79,8387.77,0.311182,-6.86804,-3.90161,4674.33,2543.02,8059.9,-18.0917,27.2745,-0.272768,-768.733,9900.89,-999.74,-9.07185,-9.61808,3.28814,-1471.37,-9515.38,263.262,-5.26869,-0.375606,-12.3915,-982.384,9568.01,-1616.97,-3.30622,-1.12274,4.85614,-1145.28,-9460.15,-644.673,-8.69827,5.55457,10.8638,8685.22,1466.15,3565.97,-19.8678,-4.43427,3.40587
0.059,3473.54,-3879.32,8394.88,0.515939,-6.87483,-3.92945,4649.15,2584.37,8062.76,-17.9997,27.0904,-0.776349,-728.815,9889.05,-991.705,-9.19299,-9.91769,3.29989,-1464.23,-9526.03,247.629,-5.23651,-0.0338251,-12.4113,-949.295,9588.8,-1647.35,-3.34824,-1.67345,4.98911,-1171.82,-9469.45,-659.555,-9.24387,5.19943,10.9058,8685.61,1476.15,3551.21,-20.0206,-4.42953,3.35525
0.06,3446.21,-3865.86,8401.99,0.720697,-6.88162,-3.95729,4623.97,2625.73,8065.62,-17.9076,26.9063,-1.27993,-688.896,9877.22,-983.671,-9.31413,-10.2173,3.31163,-1457.1,-9536.67,231.996,-5.20433,0.307956,-12.431,-916.205,9609.59,-1677.72,-3.39026,-2.22416,5.12208,-1198.36,-9478.76,-674.438,-9.78946,4.84429,10.9479,8686.0,1486.14,3536.46,-20.1734,-4.42478,3.30463
0.061,3418.88,-3852.39,8409.1,0.925455,-6.8884,-3.98513,4598.79,2667.09,8068.48,-17.8156,26.7223,-1.78351,-648.978,9865.38,-975.636,-9.43526,-10.5169,3.32337,-1449.97,-9547.32,216.364,-5.17214,0.649736,-12.4508,-883.115,9630.38,-1708.1,-3.43229,-2.77487,5.25505,-1224.9,-9488.06,-689.32,-10.3351,4.48915,10.99,8686.38,1496.13,3521.7,-20.3262,-4.42003,3.25401
0.062,3391.55,-3838.92,8416.21,1.13021,-6.89519,-4.01297,4573.61,2708.44,8071.34,-17.7236,26.5382,-2.28709,-609.059,9853.55,-967.601,-9.5564,-10.8165,3.33512,-1442.83,-9557.96,200.731,-5.13996,0.991517,-12.4706,-850.026,9651.17,-1738.48,-3.47431,-3.32558,5.38802,-1251.44,-9497.37,-704.203,-10.8807,4.13401,11.0321,8686.77,1506.13,3506.94,-20.479,-4.41529,3.20339
0.063,3368.79,-3844.11,8404.24,1.24873,-6.95813,-3.99508,4567.18,2759.88,8054.74,-17.7679,26.2056,-2.8308,-565.607,9841.03,-971.092,-9.66017,-10.9408,3.32692,-1418.63,-9583.75,167.755,-5.04077,1.42001,-12.4009,-840.706,9632.64,-1766.22,-3.53804,-3.75053,5.28445,-1248.53,-9498.74,-718.547,-11.3173,3.51937,10.9358,8675.75,1507.45,3525.89,-20.5314,-4.44724,3.01945
0.064,3347.34,-3854.64,8386.83,1.34261,-7.03711,-3.96413,4566.11,2814.2,8032.57,-17.8512,25.8306,-3.38597,-521.146,9828.31,-977.875,-9.75897,-11.0149,3.31302,-1389.55,-9613.87,129.824,-4.92244,1.87327,-12.3055,-838.178,9602.88,-1793.22,-3.60797,-4.13955,5.1133,-1237.19,-9497.84,-732.737,-11.7228,2.83058,10.8,8661.47,1506.3,3554.46,-20.555,-4.48968,2.79741
0.065,3325.89,-3865.17,8369.41,1.43649,-7.1161,-3.93318,4565.03,2868.52,8010.4,-17.9345,25.4556,-3.94114,-476.684,9815.58,-984.659,-9.85778,-11.089,3.29912,-1360.47,-9643.98,91.8931,-4.8041,2.32653,-12.2102,-835.649,9573.11,-1820.22,-3.6779,-4.52856,4.94215,-1225.86,-9496.93,-746.926,-12.1282,2.1418,10.6642,8647.18,1505.14,3583.03,-20.5787,-4.53211,2.57538
0.066,3304.44,-3875.69,8352.0,1.53037,-7.19508,-3.90223,4563.96,2922.84,7988.23,-18.0178,25.0806,-4.49631,-432.223,9802.86,-991.442,-9.95659,-11.1631,3.28522,-1331.38,-9674.1,53.9621,-4.68577,2.7798,-12.1148,-833.121,9543.35,-1847.22,-3.74783,-4.91758,4.771,-1214.53,-9496.03,-761.116,-12.5337,1.45301,10.5284,8632.9,1503.99,3611.6,-20.6024,-4.57455,2.35335
0.067,3292.04,-3887.24,8338.16,1.61171,-7.24787,-3.88609,4555.49,2977.54,7966.28,-18.1104,24.7012,-5.03173,-394.181,9794.02,-995.181,-10.1119,-11.1204,3.28197,-1300.25,-9703.65,5.02292,-4.55793,3.27348,-11.9814,-812.867,9522.09,-1858.85,-3.82643,-5.32332,4.5382,-1187.78,-9498.34,-764.891,-12.8921,0.813027,10.4281,8631.69,1499.96,3628.64,-20.6067,-4.51898,2.23312
0.068,3297.74,-3900.82,8331.48,1.66797,-7.24825,-3.89957,4532.23,3033.0,7944.76,-18.2214,24.313,-5.52765,-368.98,9792.93,-992.829,-10.3804,-10.8441,3.3,-1265.01,-9732.06,-65.9326,-4.41107,3.84801,-11.772,-757.163,9517.85,-1839.74,-3.92238,-5.76248,4.18209,-1130.18,-9507.06,-747.837,-13.1561,0.270657,10.3987,8656.62,1490.16,3622.65,-20.5721,-4.2674,2.31652
0.069,3303.44,-3914.39,8324.79,1.72423,-7.24864,-3.91305,4508.97,3088.46,7923.24,-18.3325,23.9248,-6.02357,-343.78,9791.84,-990.478,-10.6488,-10.5678,3.31803,-1229.77,-9760.47,-136.888,-4.26421,4.42254,-11.5626,-701.459,9513.61,-1820.63,-4.01833,-6.20164,3.82598,-1072.58,-9515.79,-730.784,-13.4202,-0.271713,10.3693,8681.54,1480.36,3616.65,-20.5376,-4.01582,2.39991
0.07,3309.15,-3927.97,8318.11,1.78049,-7.24903,-3.92653,4485.71,3143.92,7901.73,-18.4435,23.5366,-6.51949,-318.579,9790.75,-988.126,-10.9173,-10.2914,3.33606,-1194.53,-9788.88,-207.844,-4.11736,4.99707,-11.3531,-645.754,9509.36,-1801.53,-4.11428,-6.64081,3.46987,-1014.98,-9524.51,-713.73,-13.6842,-0.814083,10.3399,8706.47,1470.57,3610.65,-20.5031,-3.76424,2.48331
0.071,3314.85,-3941.55,8311.43,1.83674,-7.24942,-3.94001,4462.45,3199.38,7880.21,-18.5546,23.1484,-7.01541,-293.378,9789.66,-985.775,-11.1857,-10.0151,3.3541,-1159.29,-9817.29,-278.799,-3.9705,5.5716,-11.1437,-590.05,9505.12,-1782.42,-4.21023,-7.07997,3.11375,-957.385,-9533.23,-696.676,-13.9483,-1.35645,10.3105,8731.4,1460.77,3604.66,-20.4685,-3.51266,2.56671
0.072,3303.53,-3911.59,8313.52,1.83829,-7.21247,-4.01577,4450.6,3263.61,7883.31,-18.8394,22.9216,-7.24421,-278.794,9786.32,-974.498,-11.4338,-9.64642,3.32033,-1115.05,-9828.54,-332.361,-3.98777,6.19028,-10.9586,-552.663,9529.82,-1775.03,-4.28657,-7.41834,2.8626,-885.585,-9550.83,-710.744,-14.1158,-1.85536,10.1385,8721.32,1445.66,3617.16,-20.133,-3.36867,2.37808
0.073,3290.09,-3876.19,8316.71,1.83299,-7.17086,-4.0993,4440.17,3328.94,7889.49,-19.1459,22.7151,-7.43961,-265.537,9782.7,-962.105,-11.6794,-9.26619,3.28009,-1069.69,-9837.64,-383.75,-4.02555,6.81448,-10.7766,-517.566,9558.13,-1769.11,-4.36047,-7.74411,2.62457,-812.01,-9569.53,-728.703,-14.2713,-2.34884,9.94866,8706.85,1429.9,3631.97,-19.7599,-3.23813,2.15546
0.074,3276.65,-3840.78,8319.9,1.82769,-7.12925,-4.18284,4429.74,3394.26,7895.66,-19.4525,22.5086,-7.63501,-252.28,9779.09,-949.713,-11.9251,-8.88596,3.23984,-1024.33,-9846.74,-435.138,-4.06333,7.43868,-10.5946,-482.469,9586.45,-1763.19,-4.43436,-8.06988,2.38654,-738.435,-9588.24,-746.663,-14.4268,-2.84232,9.75883,8692.39,1414.13,3646.79,-19.3868,-3.10759,1.93283
0.075,3263.21,-3805.38,8323.1,1.8224,-7.08764,-4.26638,4419.32,3459.59,7901.84,-19.759,22.302,-7.83041,-239.023,9775.47,-937.32,-12.1707,-8.50572,3.1996,-978.964,-9855.85,-486.526,-4.10111,8.06288,-10.4126,-447.371,9614.77,-1757.27,-4.50826,-8.39565,2.1485,-664.859,-9606.94,-764.622,-14.5823,-3.3358,9.56899,8677.92,1398.36,3661.61,-19.0137,-2.97705,1.7102
0.076,3244.07,-3784.01,8322.77,1.84968,-7.06648,-4.31969,4391.73,3527.44,7903.42,-20.1286,22.0441,-7.88455,-216.192,9777.05,-939.45,-12.32,-8.15722,3.13541,-928.626,-9869.01,-538.701,-4.17509,8.70952,-10.2238,-399.354,9633.04,-1757.0,-4.63208,-8.64761,2.01993,-551.65,-9630.27,-795.233,-14.8029,-3.66245,9.49314,8677.79,1394.42,3672.11,-18.8666,-2.8665,1.57365
0.077,3217.82,-3780.19,8318.04,1.91768,-7.07089,-4.33524,4342.7,3598.45,7899.24,-20.577,21.722,-7.76211,-181.392,9785.14,-959.731,-12.349,-7.8484,3.0413,-872.067,-9887.26,-591.858,-4.29431,9.38421,-10.0265,-335.185,9638.74,-1763.78,-4.81831,-8.80731,2.02819,-388.897,-9659.37,-841.66,-15.1049,-3.78057,9.55975,8695.58,1405.25,3677.23,-19.0019,-2.78093,1.5447
0.078,3191.56,-3776.37,8313.32,1.98569,-7.07529,-4.35079,4293.67,3669.45,7895.07,-21.0254,21.3999,-7.63967,-146.592,9793.22,-980.013,-12.3781,-7.53957,2.94719,-815.507,-9905.51,-645.016,-4.41353,10.0589,-9.82913,-271.016,9644.45,-1770.56,-5.00453,-8.96702,2.03645,-226.144,-9688.48,-888.087,-15.4068,-3.89869,9.62636,8713.36,1416.09,3682.34,-19.1373,-2.69537,1.51574
0.079,3165.31,-3772.55,8308.59,2.05369,-7.07969,-4.36634,4244.63,3740.46,7890.9,-21.4738,21.0778,-7.51723,-111.793,9801.3,-1000.29,-12.4071,-7.23075,2.85307,-758.948,-9923.77,-698.174,-4.53275,10.7336,-9.63178,-206.847,9650.15,-1777.34,-5.19076,-9.12672,2.04471,-63.3916,-9717.59,-934.514,-15.7088,-4.01681,9.69298,8731.15,1426.92,3687.46,-19.2727,-2.6098,1.48679
0.08,3139.06,-3768.73,8303.87,2.12169,-7.0841,-4.38189,4195.6,3811.47,7886.73,-21.9221,20.7557,-7.39479,-76.993,9809.39,-1020.58,-12.4361,-6.92192,2.75896,-702.389,-9942.02,-751.332,-4.65197,11.4083,-9.43443,-142.678,9655.86,-1784.13,-5.37699,-9.28642,2.05296,99.3612,-9746.69,-980.941,-16.0107,-4.13492,9.75959,8748.93,1437.76,3692.58,-19.4081,-2.52424,1.45784
0.081,3138.78,-3783.76,8312.33,2.1876,-7.10631,-4.33746,4167.06,3884.08,7908.11,-22.2323,20.3708,-7.31885,-77.8969,9805.79,-1021.47,-12.4167,-6.605,2.74835,-653.965,-9985.61,-825.085,-4.70797,11.9016,-9.39134,-138.969,9666.53,-1778.49,-5.66774,-9.04712,1.9585,202.43,-9801.55,-1013.35,-16.1913,-4.0079,9.73976,8767.23,1422.17,3680.67,-19.6529,-2.54348,1.31906
0.082,3138.5,-3798.78,8320.78,2.25351,-7.12852,-4.29304,4138.52,3956.7,7929.48,-22.5425,19.9859,-7.2429,-78.8008,9802.2,-1022.36,-12.3973,-6.28808,2.73774,-605.541,-10029.2,-898.839,-4.76396,12.395,-9.34824,-135.261,9677.2,-1772.85,-5.95848,-8.80782,1.86404,305.5,-9856.41,-1045.77,-16.3719,-3.88088,9.71992,8785.53,1406.58,3668.75,-19.8977,-2.56273,1.18027
0.083,3138.22,-3813.81,8329.24,2.31941,-7.15073,-4.24862,4109.98,4029.31,7950.86,-22.8527,19.601,-7.16695,-79.7046,9798.61,-1023.26,-12.3779,-5.97116,2.72712,-557.118,-10072.8,-972.592,-4.81996,12.8883,-9.30514,-131.552,9687.87,-1767.22,-6.24923,-8.56851,1.76958,408.569,-9911.27,-1078.18,-16.5525,-3.75386,9.70009,8803.82,1390.99,3656.84,-20.1425,-2.58197,1.04149
0.084,3137.95,-3828.83,8337.7,2.38532,-7.17294,-4.2042,4081.44,4101.93,7972.24,-23.1628,19.2161,-7.09101,-80.6085,9795.01,-1024.15,-12.3584,-5.65424,2.71651,-508.694,-10116.4,-1046.35,-4.87596,13.3816,-9.26204,-127.843,9698.54,-1761.58,-6.53997,-8.32921,1.67511,511.638,-9966.13,-1110.6,-16.733,-3.62683,9.68025,8822.12,1375.39,3644.93,-20.3873,-2.60122,0.902712
0.085,3145.21,-3832.88,8346.27,2.44042,-7.11612,-4.21393,4055.64,4155.26,7983.03,-23.4409,18.8536,-6.96175,-75.5782,9801.6,-1024.4,-12.3896,-5.33288,2.66198,-478.708,-10153.0,-1107.73,-4.94109,13.7739,-9.23934,-130.659,9705.7,-1781.96,-6.71122,-7.93271,1.59981,634.777,-10025.8,-1152.51,-16.9108,-3.29053,9.7608,8850.6,1358.08,3654.83,-20.47,-2.69473,0.760383
0.086,3158.5,-3828.15,8354.92,2.48688,-6.99608,-4.26698,4032.04,4193.18,7985.35,-23.6934,18.509,-6.78983,-65.8006,9816.34,-1024.12,-12.4611,-5.00795,2.57232,-463.472,-10184.1,-1159.22,-5.01352,14.0852,-9.23294,-138.694,9710.05,-1823.17,-6.78687,-7.41046,1.53984,773.971,-10089.2,-1202.03,-17.0863,-2.78681,9.92166,8887.23,1339.4,3682.16,-20.4229,-2.84765,0.615217
0.087,3171.8,-3823.41,8363.58,2.53335,-6.87604,-4.32004,4008.44,4231.09,7987.67,-23.9458,18.1644,-6.61792,-56.0229,9831.07,-1023.85,-12.5326,-4.68303,2.48266,-448.236,-10215.2,-1210.71,-5.08595,14.3965,-9.22655,-146.729,9714.4,-1864.37,-6.86253,-6.88821,1.47988,913.165,-10152.7,-1251.55,-17.2617,-2.28308,10.0825,8923.87,1320.71,3709.49,-20.3759,-3.00057,0.470051
0.088,3185.09,-3818.68,8372.23,2.57981,-6.756,-4.37309,3984.84,4269.01,7989.99,-24.1982,17.8199,-6.44601,-46.2453,9845.81,-1023.58,-12.6042,-4.35811,2.393,-433.0,-10246.3,-1262.2,-5.15839,14.7079,-9.22016,-154.764,9718.75,-1905.57,-6.93818,-6.36596,1.41991,1052.36,-10216.1,-1301.06,-17.4372,-1.77936,10.2434,8960.5,1302.02,3736.83,-20.3288,-3.15349,0.324884
0.089,3196.35,-3812.78,8379.1,2.62537,-6.63424,-4.42866,3961.75,4309.88,7992.41,-24.4577,17.4705,-6.25667,-37.2316,9858.91,-1024.2,-12.6604,-4.03668,2.30484,-417.951,-10274.8,-1309.43,-5.24059,15.005,-9.20104,-164.697,9718.32,-1943.26,-7.02147,-5.85185,1.3515,1184.38,-10279.6,-1346.97,-17.5996,-1.26753,10.3902,8994.85,1283.96,3762.44,-20.2845,-3.27888,0.182912
0.09,3191.25,-3797.53,8371.73,2.66377,-6.49875,-4.50426,3942.78,4374.37,7995.6,-24.7731,17.083,-5.92792,-34.329,9858.95,-1031.95,-12.5939,-3.74323,2.22871,-404.397,-10282.0,-1322.6,-5.40097,15.1887,-9.08011,-189.808,9679.72,-1952.88,-7.16588,-5.40296,1.21558,1258.99,-10342.9,-1364.04,-17.6571,-0.690866,10.4243,9010.95,1270.93,3774.32,-20.2622,-3.18405,0.066493
0.091,3186.15,-3782.29,8364.36,2.70217,-6.36326,-4.57987,3923.8,4438.87,7998.79,-25.0884,16.6954,-5.59916,-31.4264,9858.99,-1039.69,-12.5273,-3.44979,2.15258,-390.843,-10289.3,-1335.78,-5.56136,15.3723,-8.95919,-214.92,9641.13,-1962.49,-7.31028,-4.95407,1.07965,1333.61,-10406.2,-1381.1,-17.7146,-0.114205,10.4585,9027.04,1257.9,3786.2,-20.2398,-3.08921,-0.049926
0.092,3181.06,-3767.04,8356.98,2.74057,-6.22777,-4.65548,3904.83,4503.36,8001.97,-25.4038,16.3079,-5.2704,-28.5238,9859.03,-1047.44,-12.4608,-3.15634,2.07646,-377.289,-10296.5,-1348.96,-5.72174,15.556,-8.83827,-240.031,9602.53,-1972.1,-7.45468,-4.50517,0.943732,1408.22,-10469.5,-1398.16,-17.7721,0.462457,10.4927,9043.14,1244.88,3798.08,-20.2174,-2.99438,-0.166345
0.093,3175.96,-3751.8,8349.61,2.77896,-6.09228,-4.73109,3885.85,4567.86,8005.16,-25.7192,15.9204,-4.94165,-25.6211,9859.06,-1055.19,-12.3942,-2.86289,2.00033,-363.735,-10303.8,-1362.13,-5.88212,15.7396,-8.71735,-265.143,9563.93,-1981.72,-7.59909,-4.05628,0.80781,1482.84,-10532.8,-1415.23,-17.8297,1.03912,10.5269,9059.23,1231.85,3809.96,-20.1951,-2.89955,-0.282764
0.094,3167.15,-3753.08,8347.55,2.75395,-6.06652,-4.84538,3892.36,4596.19,8012.17,-26.0164,15.6122,-4.62151,-26.0711,9854.09,-1052.99,-12.3463,-2.64489,1.90654,-362.163,-10308.1,-1355.25,-5.95882,15.8055,-8.59189,-257.864,9547.86,-1984.9,-7.57637,-3.78136,0.580249,1561.16,-10556.1,-1419.27,-17.6309,1.6774,10.3657,9083.08,1210.22,3828.36,-20.0255,-2.89586,-0.298467
0.095,3156.47,-3762.63,8348.15,2.69723,-6.09561,-4.97901,3911.6,4606.45,8021.1,-26.3045,15.3437,-4.30567,-28.1975,9846.6,-1045.82,-12.3076,-2.46461,1.80391,-366.581,-10311.0,-1338.35,-5.99366,15.8124,-8.46417,-234.391,9543.06,-1984.88,-7.47011,-3.59343,0.30687,1641.35,-10559.2,-1416.81,-17.3041,2.34648,10.1068,9110.8,1184.3,3850.02,-19.7822,-2.93774,-0.263813
0.096,3145.8,-3772.17,8348.76,2.6405,-6.1247,-5.11264,3930.85,4616.71,8030.03,-26.5926,15.0753,-3.98984,-30.3238,9839.11,-1038.64,-12.269,-2.28432,1.70128,-370.999,-10313.9,-1321.44,-6.02851,15.8193,-8.33645,-210.917,9538.26,-1984.85,-7.36384,-3.4055,0.0334907,1721.54,-10562.4,-1414.35,-16.9772,3.01557,9.84795,9138.52,1158.38,3871.68,-19.539,-2.97961,-0.229158
0.097,3135.13,-3781.72,8349.36,2.58378,-6.15379,-5.24626,3950.09,4626.96,8038.95,-26.8808,14.8068,-3.67401,-32.4501,9831.63,-1031.47,-12.2303,-2.10404,1.59865,-375.418,-10316.8,-1304.54,-6.06335,15.8262,-8.20873,-187.444,9533.46,-1984.83,-7.25757,-3.21756,-0.239889,1801.72,-10565.5,-1411.89,-16.6503,3.68466,9.58908,9166.25,1132.46,3893.34,-19.2958,-3.02149,-0.194503
0.098,3129.98,-3790.52,8350.04,2.51894,-6.16069,-5.37486,3971.34,4632.55,8043.17,-27.134,14.5432,-3.32812,-38.3242,9824.7,-1027.24,-12.2176,-1.93804,1.51298,-389.632,-10318.9,-1284.59,-6.08292,15.7489,-8.06644,-173.18,9529.68,-1968.06,-7.19254,-3.01379,-0.505919,1876.74,-10574.7,-1413.75,-16.3054,4.3256,9.37508,9187.71,1105.72,3904.47,-19.0312,-3.09673,-0.154763
0.099,3144.16,-3796.73,8351.0,2.42569,-6.08995,-5.48582,3999.62,4621.82,8030.89,-27.2649,14.2963,-2.87704,-57.3158,9819.74,-1033.3,-12.2954,-1.82203,1.48668,-438.133,-10318.1,-1253.97,-6.04903,15.3769,-7.8732,-191.148,9529.49,-1892.7,-7.27186,-2.75454,-0.746225,1933.69,-10604.8,-1430.75,-15.8971,4.86803,9.31816,9187.27,1076.11,3878.74,-18.6919,-3.28874,-0.0972236
0.1,3158.35,-3802.93,8351.95,2.33244,-6.0192,-5.59678,4027.89,4611.09,8018.62,-27.3959,14.0495,-2.42596,-76.3073,9814.77,-1039.37,-12.3732,-1.70602,1.46038,-486.634,-10317.4,-1223.36,-6.01515,15.005,-7.67996,-209.116,9529.3,-1817.34,-7.35118,-2.49529,-0.986531,1990.64,-10635.0,-1447.74,-15.4889,5.41046,9.26124,9186.82,1046.5,3853.0,-18.3527,-3.48075,-0.0396841
0.101,3172.53,-3809.13,8352.91,2.23919,-5.94846,-5.70774,4056.17,4600.36,8006.34,-27.5268,13.8027,-1.97488,-95.2988,9809.81,-1045.43,-12.4511,-1.59001,1.43408,-535.134,-10316.7,-1192.74,-5.98126,14.633,-7.48672,-227.084,9529.11,-1741.97,-7.4305,-2.23604,-1.22684,2047.59,-10665.1,-1464.74,-15.0807,5.95289,9.20432,9186.38,1016.88,3827.27,-18.0134,-3.67275,0.0178554
0.102,3186.71,-3815.33,8353.87,2.14593,-5.87771,-5.8187,4084.44,4589.62,7994.06,-27.6578,13.5558,-1.5238,-114.29,9804.84,-1051.5,-12.5289,-1.474,1.40778,-583.635,-10316.0,-1162.12,-5.94737,14.2611,-7.29348,-245.053,9528.92,-1666.61,-7.50982,-1.9768,-1.46714,2104.54,-10695.3,-1481.74,-14.6724,6.49532,9.14741,9185.93,987.271,3801.53,-17.6742,-3.86476,0.0753949
0.103,3202.3,-3791.47,8346.23,2.0168,-5.67241,-5.87323,4085.64,4542.53,8027.79,-27.7888,13.307,-1.27635,-140.582,9798.92,-1035.24,-12.5646,-1.39755,1.40572,-615.031,-10312.2,-1117.2,-5.92172,13.7682,-7.08712,-269.547,9513.37,-1661.05,-7.45635,-1.85247,-1.74236,2123.68,-10736.1,-1467.63,-14.33,7.15499,8.86776,9181.75,997.007,3802.59,-17.5752,-4.06244,0.287414
0.104,3218.28,-3759.01,8336.13,1.87742,-5.42866,-5.91164,4079.1,4485.04,8074.66,-27.92,13.0575,-1.08707,-168.958,9792.74,-1012.59,-12.5882,-1.33241,1.41059,-641.539,-10307.4,-1068.19,-5.89842,13.2408,-6.87702,-295.906,9493.44,-1675.45,-7.36492,-1.7667,-2.02755,2132.02,-10780.0,-1444.64,-14.0064,7.84817,8.52447,9176.51,1017.99,3811.3,-17.545,-4.26175,0.543571
0.105,3234.26,-3726.56,8326.03,1.73804,-5.18492,-5.95004,4072.56,4427.56,8121.53,-28.0511,12.8081,-0.897798,-197.335,9786.55,-989.948,-12.6119,-1.26727,1.41546,-668.048,-10302.7,-1019.19,-5.87512,12.7135,-6.66692,-322.264,9473.51,-1689.84,-7.2735,-1.68093,-2.31274,2140.36,-10823.8,-1421.66,-13.6828,8.54135,8.18119,9171.27,1038.96,3820.01,-17.5147,-4.46105,0.799728
0.106,3250.25,-3694.1,8315.93,1.59866,-4.94117,-5.98845,4066.02,4370.07,8168.4,-28.1822,12.5587,-0.708523,-225.712,9780.36,-967.304,-12.6355,-1.20214,1.42033,-694.556,-10297.9,-970.177,-5.85183,12.1861,-6.45682,-348.623,9453.59,-1704.23,-7.18208,-1.59515,-2.59792,2148.7,-10867.7,-1398.67,-13.3592,9.23453,7.8379,9166.02,1059.94,3828.72,-17.4845,-4.66035,1.05588
0.107,3254.38,-3666.77,8311.51,1.49108,-4.71817,-6.00018,4061.16,4311.98,8206.1,-28.2622,12.2862,-0.494752,-238.404,9775.4,-948.571,-12.6092,-1.18541,1.42519,-718.546,-10291.3,-920.465,-5.83015,11.6044,-6.23867,-381.058,9444.69,-1706.07,-7.10877,-1.49319,-2.86648,2139.33,-10896.1,-1372.8,-13.024,9.91534,7.54629,9166.72,1064.79,3831.62,-17.4699,-4.81428,1.34258
0.108,3234.82,-3649.66,8318.48,1.44709,-4.53667,-5.95857,4059.67,4252.68,8225.48,-28.2397,11.9677,-0.23199,-219.728,9772.89,-937.659,-12.4828,-1.26551,1.43003,-737.497,-10281.0,-869.345,-5.81172,10.9142,-6.00441,-425.646,9457.85,-1682.8,-7.07168,-1.35884,-3.10177,2094.51,-10893.4,-1341.18,-12.6659,10.5714,7.35802,9179.3,1037.39,3822.91,-17.4864,-4.87746,1.69036
0.109,3215.26,-3632.56,8325.44,1.40309,-4.35517,-5.91696,4058.17,4193.38,8244.85,-28.2172,11.6493,0.0307723,-201.052,9770.38,-926.748,-12.3565,-1.34562,1.43487,-756.449,-10270.6,-818.225,-5.79329,10.224,-5.77015,-470.233,9471.01,-1659.52,-7.03459,-1.22449,-3.33706,2049.7,-10890.7,-1309.56,-12.3079,11.2275,7.16975,9191.88,1009.98,3814.19,-17.503,-4.94064,2.03814
0.11,3195.7,-3615.45,8332.41,1.3591,-4.17366,-5.87535,4056.67,4134.08,8264.22,-28.1948,11.3308,0.293534,-182.375,9767.87,-915.836,-12.2302,-1.42572,1.43972,-775.401,-10260.3,-767.106,-5.77486,9.53384,-5.53588,-514.821,9484.18,-1636.25,-6.99749,-1.09014,-3.57234,2004.89,-10888.1,-1277.94,-11.9498,11.8835,6.98148,9204.46,982.577,3805.48,-17.5196,-5.00381,2.38592
0.111,3176.14,-3598.35,8339.38,1.31511,-3.99216,-5.83374,4055.17,4074.78,8283.6,-28.1723,11.0124,0.556296,-163.699,9765.36,-904.925,-12.1039,-1.50583,1.44456,-794.352,-10249.9,-715.986,-5.75643,8.84364,-5.30162,-559.409,9497.34,-1612.98,-6.9604,-0.955797,-3.80763,1960.07,-10885.4,-1246.32,-11.5917,12.5396,6.79321,9217.04,955.172,3796.77,-17.5361,-5.06699,2.7337
0.112,3160.72,-3597.34,8350.93,1.26774,-3.92206,-5.85938,4000.8,4002.36,8278.38,-27.9758,10.8674,0.844173,-178.297,9772.75,-884.98,-12.0225,-1.51112,1.43203,-818.628,-10236.0,-684.494,-5.70696,8.07379,-5.07783,-575.63,9492.31,-1587.81,-6.97745,-0.680883,-4.03587,1912.15,-10884.6,-1226.3,-11.2752,13.0109,6.55758,9232.45,946.668,3795.46,-17.297,-5.24238,2.87396
0.113,3145.81,-3598.35,8363.05,1.21994,-3.86589,-5.89342,3939.81,3928.29,8270.08,-27.7575,10.7442,1.13519,-197.054,9781.39,-863.906,-11.9468,-1.50707,1.41732,-843.568,-10221.6,-655.456,-5.65361,7.29398,-4.85535,-588.305,9485.01,-1562.4,-7.00126,-0.388398,-4.26322,1863.83,-10883.9,-1207.73,-10.9639,13.4591,6.31603,9248.21,940.526,3795.08,-17.026,-5.4318,2.98827
0.114,3130.91,-3599.36,8375.18,1.17215,-3.80971,-5.92746,3878.83,3854.23,8261.79,-27.5392,10.621,1.4262,-215.812,9790.02,-842.832,-11.871,-1.50302,1.40261,-868.509,-10207.2,-626.417,-5.60026,6.51417,-4.63287,-600.98,9477.71,-1536.99,-7.02507,-0.0959124,-4.49057,1815.51,-10883.3,-1189.16,-10.6526,13.9074,6.07449,9263.96,934.384,3794.7,-16.7549,-5.62122,3.10259
0.115,3116.0,-3600.36,8387.31,1.12435,-3.75354,-5.9615,3817.85,3780.16,8253.5,-27.3209,10.4978,1.71722,-234.569,9798.66,-821.758,-11.7952,-1.49896,1.38791,-893.45,-10192.8,-597.379,-5.54691,5.73436,-4.4104,-613.655,9470.4,-1511.58,-7.04888,0.196573,-4.71792,1767.2,-10882.7,-1170.59,-10.3413,14.3556,5.83294,9279.72,928.242,3794.32,-16.4838,-5.81064,3.21691
0.116,3115.0,-3596.95,8394.08,1.02992,-3.71907,-5.9767,3788.5,3712.9,8257.93,-27.0575,10.3767,1.97165,-254.858,9797.09,-817.498,-11.6761,-1.5348,1.44066,-925.233,-10170.9,-548.704,-5.48167,4.97965,-4.26983,-639.887,9482.52,-1492.1,-7.13702,0.357442,-4.92861,1709.18,-10870.2,-1138.05,-10.0987,14.7481,5.62593,9287.69,931.427,3797.66,-16.2283,-6.02794,3.40356
0.117,3131.39,-3588.01,8394.16,0.877179,-3.71172,-5.96835,3798.7,3654.15,8278.27,-26.7375,10.2583,2.18034,-277.059,9782.78,-834.256,-11.5029,-1.6205,1.57775,-965.57,-10139.7,-475.483,-5.40157,4.25633,-4.23167,-683.064,9518.91,-1480.02,-7.30556,0.353793,-5.11847,1639.04,-10843.0,-1088.05,-9.94222,15.0711,5.46209,9285.92,946.271,3805.64,-15.9921,-6.2801,3.68064
0.118,3147.79,-3579.07,8394.24,0.724441,-3.70437,-5.96001,3808.9,3595.4,8298.6,-26.4174,10.1398,2.38904,-299.261,9768.46,-851.014,-11.3296,-1.7062,1.71483,-1005.91,-10108.4,-402.262,-5.32146,3.533,-4.1935,-726.242,9555.31,-1467.94,-7.47411,0.350143,-5.30834,1568.89,-10815.7,-1038.05,-9.7857,15.3941,5.29825,9284.15,961.115,3813.61,-15.7559,-6.53227,3.95771
0.119,3164.18,-3570.12,8394.31,0.571703,-3.69702,-5.95166,3819.09,3536.64,8318.94,-26.0974,10.0214,2.59773,-321.463,9754.15,-867.771,-11.1563,-1.7919,1.85191,-1046.24,-10077.2,-329.041,-5.24136,2.80967,-4.15533,-769.419,9591.7,-1455.86,-7.64265,0.346493,-5.4982,1498.75,-10788.4,-988.057,-9.62918,15.717,5.13441,9282.38,975.958,3821.59,-15.5197,-6.78443,4.23478
0.12,3180.57,-3561.18,8394.39,0.418965,-3.68967,-5.94332,3829.29,3477.89,8339.28,-25.7774,9.90299,2.80643,-343.664,9739.84,-884.529,-10.9831,-1.87759,1.98899,-1086.58,-10045.9,-255.82,-5.16125,2.08634,-4.11716,-812.597,9628.1,-1443.78,-7.81119,0.342844,-5.68807,1428.61,-10761.1,-938.06,-9.47265,16.04,4.97057,9280.61,990.802,3829.57,-15.2835,-7.03659,4.51186
0.121,3206.27,-3554.23,8395.87,0.345586,-3.64806,-5.85428,3837.51,3406.57,8362.58,-25.3616,9.58805,2.77455,-357.207,9758.56,-852.253,-11.1217,-2.10936,2.16783,-1114.81,-10040.3,-211.301,-5.12914,1.3137,-4.05176,-850.035,9655.28,-1433.3,-7.73123,0.379476,-5.99725,1345.97,-10691.2,-896.464,-9.32644,16.0322,4.94938,9253.73,989.538,3814.84,-15.504,-7.21336,4.87926
0.122,3231.97,-3547.28,8397.34,0.272207,-3.60645,-5.76524,3845.73,3335.25,8385.88,-24.9458,9.27312,2.74268,-370.75,9777.29,-819.976,-11.2603,-2.34113,2.34667,-1143.03,-10034.7,-166.781,-5.09703,0.541067,-3.98636,-887.473,9682.47,-1422.82,-7.65126,0.416108,-6.30644,1263.33,-10621.3,-854.868,-9.18023,16.0243,4.92818,9226.85,988.274,3800.1,-15.7245,-7.39012,5.24667
0.123,3257.67,-3540.33,8398.82,0.198828,-3.56484,-5.6762,3853.95,3263.93,8409.18,-24.53,8.95818,2.71081,-384.293,9796.02,-787.699,-11.3989,-2.5729,2.52551,-1171.26,-10029.1,-122.261,-5.06492,-0.231572,-3.92096,-924.911,9709.66,-1412.35,-7.5713,0.45274,-6.61563,1180.69,-10551.3,-813.273,-9.03402,16.0165,4.90699,9199.97,987.01,3785.37,-15.9451,-7.56688,5.61407
0.124,3283.37,-3533.37,8400.29,0.125449,-3.52322,-5.58717,3862.17,3192.61,8432.48,-24.1142,8.64324,2.67894,-397.836,9814.74,-755.422,-11.5376,-2.80467,2.70436,-1199.48,-10023.6,-77.7416,-5.03281,-1.00421,-3.85556,-962.349,9736.85,-1401.87,-7.49134,0.489373,-6.92482,1098.05,-10481.4,-771.677,-8.88781,16.0087,4.8858,9173.09,985.745,3770.64,-16.1656,-7.74365,5.98148
0.125,3298.71,-3534.68,8398.81,0.0843213,-3.48567,-5.46811,3868.32,3150.21,8445.57,-23.6707,8.43097,2.67968,-420.477,9828.36,-729.892,-11.583,-3.03206,2.85419,-1215.88,-10017.6,-39.9112,-5.04034,-1.79685,-3.81346,-985.709,9747.03,-1399.74,-7.51647,0.398226,-7.06073,1050.58,-10413.3,-753.449,-8.87432,15.994,4.96215,9147.84,991.137,3758.49,-16.5432,-7.92195,6.31926
0.126,3305.76,-3542.58,8394.98,0.0689938,-3.45136,-5.32504,3872.81,3130.96,8450.49,-23.2051,8.30082,2.70653,-450.397,9837.88,-709.758,-11.5538,-3.25597,2.98082,-1222.81,-10011.4,-7.43215,-5.07958,-2.6055,-3.79,-997.807,9743.62,-1404.3,-7.62567,0.204857,-7.05801,1031.26,-10346.5,-753.916,-8.967,15.9737,5.11653,9123.9,1001.85,3748.4,-17.0465,-8.10149,6.63333
0.127,3312.81,-3550.49,8391.14,0.0536664,-3.41705,-5.18196,3877.3,3111.71,8455.41,-22.7394,8.17068,2.73338,-480.316,9847.41,-689.624,-11.5246,-3.47987,3.10745,-1229.74,-10005.2,25.0469,-5.11882,-3.41415,-3.76654,-1009.9,9740.2,-1408.86,-7.73487,0.0114872,-7.0553,1011.93,-10279.8,-754.382,-9.05969,15.9535,5.27092,9099.95,1012.57,3738.31,-17.5498,-8.28103,6.94741
0.128,3319.86,-3558.39,8387.3,0.038339,-3.38274,-5.03889,3881.8,3092.45,8460.33,-22.2738,8.04054,2.76022,-510.236,9856.93,-669.491,-11.4954,-3.70378,3.23408,-1236.67,-9999.01,57.526,-5.15806,-4.2228,-3.74308,-1022.0,9736.79,-1413.42,-7.84407,-0.181882,-7.05258,992.605,-10213.0,-754.849,-9.15237,15.9332,5.4253,9076.01,1023.29,3728.23,-18.053,-8.46057,7.26149
0.129,3326.36,-3564.94,8384.51,0.0159578,-3.34667,-4.90689,3888.5,3074.24,8464.31,-21.7994,7.91948,2.78466,-538.073,9866.61,-648.886,-11.4537,-3.93049,3.35673,-1240.32,-9992.97,87.7051,-5.20766,-5.00756,-3.71373,-1033.94,9736.36,-1415.84,-7.94606,-0.387909,-7.06867,971.379,-10149.0,-754.54,-9.26118,15.8919,5.56641,9054.22,1032.05,3717.28,-18.5511,-8.64374,7.57036
0.13,3328.48,-3560.62,8390.08,-0.0628533,-3.29661,-4.86353,3912.87,3064.32,8460.77,-21.2554,7.87106,2.78979,-549.251,9877.53,-624.518,-11.311,-4.17973,3.4475,-1217.67,-9988.22,99.4848,-5.34009,-5.60119,-3.6373,-1044.58,9759.79,-1401.23,-7.99037,-0.69519,-7.23513,934.954,-10106.9,-748.028,-9.49895,15.6821,5.60141,9049.71,1025.16,3699.49,-19.0075,-8.85597,7.83764
0.131,3330.59,-3556.29,8395.65,-0.141664,-3.24655,-4.82017,3937.23,3054.39,8457.22,-20.7113,7.82263,2.79493,-560.428,9888.44,-600.15,-11.1683,-4.42896,3.53828,-1195.02,-9983.47,111.265,-5.47252,-6.19481,-3.56086,-1055.22,9783.21,-1386.61,-8.03468,-1.00247,-7.4016,898.529,-10064.8,-741.516,-9.73673,15.4722,5.63641,9045.19,1018.27,3681.7,-19.4639,-9.06819,8.10491
0.132,3332.71,-3551.97,8401.22,-0.220475,-3.19649,-4.77681,3961.59,3044.47,8453.68,-20.1673,7.77421,2.80007,-571.606,9899.35,-575.782,-11.0257,-4.6782,3.62905,-1172.37,-9978.73,123.044,-5.60495,-6.78844,-3.48443,-1065.86,9806.64,-1371.99,-8.079,-1.30975,-7.56806,862.104,-10022.7,-735.004,-9.9745,15.2624,5.6714,9040.68,1011.38,3663.91,-19.9203,-9.28042,8.37218
0.133,3334.83,-3547.64,8406.79,-0.299287,-3.14643,-4.73345,3985.96,3034.55,8450.13,-19.6233,7.72578,2.80521,-582.784,9910.27,-551.414,-10.883,-4.92743,3.71982,-1149.72,-9973.98,134.824,-5.73738,-7.38206,-3.408,-1076.51,9830.06,-1357.38,-8.12331,-1.61703,-7.73453,825.679,-9980.57,-728.491,-10.2123,15.0526,5.7064,9036.17,1004.49,3646.12,-20.3767,-9.49264,8.63946
0.134,3344.11,-3547.27,8408.17,-0.389424,-3.05319,-4.68179,3994.23,3019.58,8447.98,-18.9824,7.7392,2.77419,-578.204,9906.73,-533.595,-10.7774,-5.17271,3.8264,-1143.46,-9966.1,134.218,-5.85436,-7.66606,-3.35449,-1079.9,9833.99,-1324.77,-8.27428,-2.03812,-7.92039,775.087,-9949.92,-726.342,-10.2947,15.0694,5.82404,9011.62,998.819,3627.59,-20.6073,-9.66313,8.72937
0.135,3356.97,-3548.88,8407.45,-0.485223,-2.93835,-4.62597,3994.45,3002.09,8446.52,-18.293,7.78355,2.7251,-565.745,9895.97,-519.052,-10.6902,-5.41601,3.94087,-1145.41,-9956.66,127.418,-5.9636,-7.79525,-3.31244,-1079.67,9828.18,-1283.16,-8.47859,-2.51611,-8.11596,717.412,-9925.01,-726.375,-10.2995,15.1994,5.98301,8977.06,993.753,3608.7,-20.725,-9.81276,8.7306
0.136,3369.83,-3550.49,8406.72,-0.581023,-2.82352,-4.57015,3994.66,2984.6,8445.06,-17.6037,7.82789,2.676,-553.286,9885.21,-504.508,-10.6031,-5.65931,4.05534,-1147.36,-9947.22,120.618,-6.07284,-7.92444,-3.27038,-1079.43,9822.36,-1241.56,-8.6829,-2.9941,-8.31153,659.737,-9900.11,-726.408,-10.3043,15.3294,6.14197,8942.49,988.686,3589.81,-20.8427,-9.96239,8.73184
0.137,3382.69,-3552.1,8406.0,-0.676823,-2.70868,-4.51434,3994.88,2967.1,8443.6,-16.9144,7.87223,2.62691,-540.827,9874.45,-489.964,-10.516,-5.9026,4.16981,-1149.31,-9937.78,113.819,-6.18209,-8.05362,-3.22833,-1079.2,9816.54,-1199.95,-8.88721,-3.47209,-8.5071,602.062,-9875.2,-726.44,-10.3092,15.4595,6.30094,8907.93,983.62,3570.91,-20.9604,-10.112,8.73307
0.138,3390.26,-3551.16,8406.85,-0.786987,-2.59575,-4.45694,4000.81,2949.82,8441.36,-16.2846,7.89699,2.58191,-535.34,9866.5,-483.876,-10.4374,-6.11391,4.29365,-1137.83,-9931.59,103.135,-6.29647,-8.09157,-3.16902,-1081.74,9815.55,-1174.37,-9.07623,-3.93227,-8.64869,553.965,-9855.51,-723.874,-10.3397,15.5898,6.47421,8874.74,978.364,3555.85,-21.0342,-10.2501,8.69458
0.139,3379.33,-3541.32,8413.17,-0.947423,-2.48951,-4.39403,4026.75,2933.28,8436.38,-15.8631,7.8532,2.55129,-554.255,9868.35,-507.382,-10.389,-6.21324,4.45031,-1079.37,-9936.79,78.8592,-6.42885,-7.81015,-3.04935,-1093.96,9831.43,-1204.85,-9.21174,-4.3301,-8.60139,539.394,-9854.08,-712.209,-10.4605,15.7213,6.69757,8846.38,972.447,3554.21,-20.9546,-10.3478,8.51706
0.14,3368.4,-3531.48,8419.5,-1.10786,-2.38327,-4.33111,4052.68,2916.74,8431.4,-15.4416,7.80942,2.52066,-573.169,9870.21,-530.889,-10.3406,-6.31257,4.60697,-1020.91,-9941.99,54.5831,-6.56123,-7.52873,-2.92967,-1106.19,9847.32,-1235.34,-9.34725,-4.72792,-8.55408,524.823,-9852.65,-700.545,-10.5813,15.8527,6.92093,8818.03,966.53,3552.56,-20.8751,-10.4455,8.33953
0.141,3357.47,-3521.64,8425.83,-1.2683,-2.27702,-4.26819,4078.62,2900.2,8426.42,-15.0201,7.76563,2.49003,-592.084,9872.07,-554.395,-10.2922,-6.4119,4.76363,-962.456,-9947.19,30.307,-6.69361,-7.24732,-2.80999,-1118.41,9863.21,-1265.83,-9.48277,-5.12575,-8.50677,510.252,-9851.22,-688.88,-10.7021,15.9842,7.14428,8789.67,960.613,3550.91,-20.7955,-10.5432,8.16201
0.142,3346.54,-3511.8,8432.16,-1.42873,-2.17078,-4.20528,4104.55,2883.66,8421.43,-14.5986,7.72185,2.45941,-610.998,9873.93,-577.901,-10.2437,-6.51123,4.92029,-903.998,-9952.39,6.03094,-6.82599,-6.96591,-2.69031,-1130.64,9879.09,-1296.31,-9.61828,-5.52358,-8.45946,495.681,-9849.79,-677.216,-10.8229,16.1156,7.36764,8761.31,954.695,3549.26,-20.7159,-10.6409,7.98449
0.143,3347.06,-3510.04,8439.46,-1.56973,-2.13604,-4.10747,4104.09,2881.83,8403.1,-14.2421,7.63977,2.45053,-589.979,9858.93,-605.5,-10.2006,-6.55157,5.09312,-891.033,-9938.19,-9.9865,-6.93692,-6.47604,-2.51833,-1129.05,9870.2,-1313.06,-9.84005,-5.70438,-8.59939,431.839,-9855.88,-682.253,-10.8521,16.1531,7.50591,8754.04,940.665,3563.54,-20.5215,-10.5774,7.88786
0.144,3350.84,-3510.59,8447.04,-1.70516,-2.12172,-3.9997,4096.09,2884.2,8380.94,-13.9042,7.54674,2.44788,-557.55,9839.11,-634.267,-10.1589,-6.57506,5.27058,-891.067,-9918.44,-23.6443,-7.04173,-5.92663,-2.33141,-1123.51,9854.23,-1325.88,-10.0865,-5.82318,-8.79281,353.92,-9864.12,-692.063,-10.8552,16.1636,7.61987,8752.8,924.316,3582.38,-20.2944,-10.4679,7.81435
0.145,3354.62,-3511.15,8454.62,-1.8406,-2.10741,-3.89193,4088.08,2886.57,8358.79,-13.5663,7.45372,2.44522,-525.122,9819.29,-663.035,-10.1172,-6.59855,5.44803,-891.1,-9898.69,-37.3021,-7.14654,-5.37721,-2.14449,-1117.98,9838.25,-1338.7,-10.3329,-5.94198,-8.98623,276.001,-9872.35,-701.873,-10.8583,16.1741,7.73383,8751.55,907.967,3601.22,-20.0672,-10.3584,7.74084
0.146,3358.4,-3511.7,8462.2,-1.97604,-2.09309,-3.78416,4080.08,2888.94,8336.64,-13.2284,7.3607,2.44257,-492.693,9799.47,-691.803,-10.0755,-6.62205,5.62548,-891.133,-9878.95,-50.96,-7.25135,-4.8278,-1.95757,-1112.44,9822.28,-1351.52,-10.5793,-6.06077,-9.17965,198.081,-9880.59,-711.682,-10.8614,16.1847,7.84778,8750.31,891.619,3620.05,-19.84,-10.2488,7.66734
0.147,3363.45,-3514.93,8459.88,-2.08678,-2.08479,-3.66235,4083.34,2884.03,8321.18,-12.9176,7.28745,2.38595,-469.052,9793.29,-707.28,-9.99759,-6.63147,5.7714,-881.476,-9868.97,-68.122,-7.34989,-4.23352,-1.78362,-1111.37,9804.98,-1362.63,-10.7923,-6.09646,-9.36745,131.455,-9886.37,-711.267,-10.8886,16.1457,7.95945,8753.6,873.537,3633.9,-19.6539,-10.1498,7.68373
0.148,3371.03,-3523.51,8437.77,-2.14813,-2.08852,-3.51245,4109.12,2864.53,8319.11,-12.6609,7.25373,2.22138,-462.986,9814.39,-696.176,-9.84726,-6.61278,5.85427,-852.438,-9878.55,-92.2926,-7.43589,-3.54951,-1.63562,-1119.2,9785.05,-1370.31,-10.9386,-5.96594,-9.54399,87.4155,-9887.24,-690.403,-10.964,16.0077,8.06652,8765.95,851.991,3637.78,-19.5497,-10.0718,7.87995
0.149,3378.6,-3532.09,8415.67,-2.20948,-2.09225,-3.36255,4134.91,2845.04,8317.04,-12.4043,7.22002,2.05681,-456.92,9835.48,-685.072,-9.69692,-6.59408,5.93714,-823.4,-9888.13,-116.463,-7.52189,-2.8655,-1.48763,-1127.03,9765.12,-1377.99,-11.0849,-5.83541,-9.72054,43.3757,-9888.11,-669.538,-11.0395,15.8696,8.17359,8778.3,830.445,3641.65,-19.4455,-9.99381,8.07617
0.15,3386.18,-3540.67,8393.56,-2.27083,-2.09599,-3.21265,4160.7,2825.55,8314.97,-12.1477,7.18631,1.89225,-450.855,9856.58,-673.967,-9.54659,-6.57538,6.02001,-794.363,-9897.7,-140.634,-7.60789,-2.18149,-1.33963,-1134.86,9745.19,-1385.67,-11.2312,-5.70488,-9.89709,-0.664025,-9888.98,-648.673,-11.1149,15.7315,8.28066,8790.65,808.899,3645.52,-19.3414,-9.91581,8.27239
0.151,3393.75,-3549.25,8371.46,-2.33218,-2.09972,-3.06276,4186.48,2806.06,8312.9,-11.891,7.1526,1.72768,-444.789,9877.68,-662.863,-9.39625,-6.55668,6.10288,-765.325,-9907.28,-164.804,-7.69389,-1.49749,-1.19163,-1142.69,9725.26,-1393.36,-11.3775,-5.57435,-10.0736,-44.7038,-9889.86,-627.809,-11.1903,15.5935,8.38773,8803.0,787.353,3649.4,-19.2372,-9.83782,8.46861
0.152,3404.86,-3556.05,8360.36,-2.31592,-2.04437,-2.9598,4169.96,2850.57,8307.32,-11.6408,7.10149,1.78796,-451.47,9895.65,-661.48,-9.35625,-6.53971,6.21053,-735.864,-9888.63,-172.096,-7.81083,-0.701091,-1.11619,-1133.58,9722.34,-1402.91,-11.4728,-5.33312,-10.4118,-69.8559,-9901.05,-654.345,-11.3412,15.3991,8.43106,8794.52,769.656,3651.41,-19.3291,-9.72894,8.53849
0.153,3416.42,-3562.63,8350.65,-2.28997,-1.98164,-2.86271,4148.14,2903.07,8301.29,-11.3913,7.0482,1.87634,-459.744,9913.23,-661.312,-9.33004,-6.52295,6.32127,-706.35,-9866.46,-177.277,-7.93165,0.109352,-1.04982,-1122.34,9721.54,-1412.69,-11.5618,-5.07805,-10.7701,-92.6471,-9913.54,-686.807,-11.5015,15.1976,8.46643,8783.44,752.441,3653.18,-19.4456,-9.61621,8.59257
0.154,3427.97,-3569.21,8340.93,-2.26401,-1.91891,-2.76562,4126.33,2955.58,8295.27,-11.1419,6.99491,1.96472,-468.018,9930.81,-661.144,-9.30382,-6.50619,6.43201,-676.836,-9844.28,-182.459,-8.05246,0.919796,-0.983448,-1111.11,9720.74,-1422.48,-11.6508,-4.82298,-11.1284,-115.438,-9926.02,-719.268,-11.6618,14.9961,8.5018,8772.35,735.225,3654.96,-19.562,-9.50347,8.64665
0.155,3439.52,-3575.79,8331.21,-2.23806,-1.85618,-2.66852,4104.51,3008.09,8289.25,-10.8925,6.94162,2.0531,-476.292,9948.4,-660.976,-9.27761,-6.48942,6.54275,-647.323,-9822.11,-187.64,-8.17328,1.73024,-0.917076,-1099.88,9719.93,-1432.26,-11.7398,-4.56791,-11.4867,-138.229,-9938.51,-751.73,-11.8221,14.7947,8.53717,8761.27,718.009,3656.73,-19.6784,-9.39074,8.70072
0.156,3441.46,-3576.68,8329.68,-2.20138,-1.82236,-2.60825,4072.24,3052.54,8285.71,-10.6775,6.88163,2.09407,-473.44,9956.17,-660.182,-9.31402,-6.45403,6.68474,-622.168,-9816.83,-208.992,-8.2964,2.58104,-0.788423,-1071.56,9709.21,-1435.68,-11.8758,-4.26939,-11.7613,-158.472,-9947.7,-776.849,-12.0351,14.6546,8.5733,8750.4,704.6,3652.59,-19.7467,-9.24793,8.63083
0.157,3431.39,-3570.45,8338.39,-2.15129,-1.82468,-2.594,4026.88,3086.94,8285.27,-10.5055,6.81329,2.07578,-456.68,9951.68,-658.604,-9.42869,-6.39534,6.8658,-602.462,-9832.67,-250.557,-8.42239,3.48229,-0.581921,-1021.88,9686.09,-1431.12,-12.0706,-3.91657,-11.9314,-175.53,-9952.76,-792.792,-12.3141,14.5911,8.61039,8739.81,695.947,3641.05,-19.7547,-9.06752,8.40596
0.158,3421.32,-3564.22,8347.1,-2.10121,-1.827,-2.57975,3981.52,3121.34,8284.82,-10.3336,6.74494,2.05748,-439.921,9947.19,-657.027,-9.54337,-6.33665,7.04685,-582.755,-9848.5,-292.123,-8.5484,4.38355,-0.375418,-972.205,9662.97,-1426.56,-12.2655,-3.56375,-12.1015,-192.588,-9957.83,-808.734,-12.593,14.5276,8.64749,8729.22,687.295,3629.52,-19.7627,-8.88711,8.1811
0.159,3411.25,-3557.99,8355.81,-2.05113,-1.82932,-2.56551,3936.17,3155.74,8284.38,-10.1616,6.67659,2.03919,-423.161,9942.7,-655.449,-9.65805,-6.27796,7.22791,-563.049,-9864.34,-333.688,-8.6744,5.2848,-0.168915,-922.529,9639.85,-1422.01,-12.4603,-3.21093,-12.2715,-209.646,-9962.9,-824.676,-12.8719,14.4642,8.68458,8718.63,678.643,3617.98,-19.7707,-8.7067,7.95624
0.16,3401.18,-3551.76,8364.51,-2.00104,-1.83163,-2.55126,3890.81,3190.14,8283.94,-9.98967,6.60825,2.02089,-406.402,9938.21,-653.872,-9.77273,-6.21928,7.40897,-543.343,-9880.18,-375.253,-8.8004,6.18605,0.0375874,-872.853,9616.73,-1417.45,-12.6551,-2.85811,-12.4416,-226.704,-9967.96,-840.618,-13.1509,14.4007,8.72167,8708.04,669.991,3606.44,-19.7787,-8.52629,7.73137
0.161,3399.83,-3523.34,8336.86,-1.9396,-1.78304,-2.55074,3899.33,3179.77,8291.1,-9.64075,6.40851,1.98013,-399.554,9927.7,-681.814,-9.80941,-6.14979,7.44441,-559.856,-9877.93,-382.183,-8.90077,7.28824,0.171901,-855.161,9585.39,-1405.41,-12.6603,-2.67497,-12.8372,-222.078,-9951.08,-879.329,-13.1544,14.3625,8.87104,8727.9,694.398,3590.75,-19.6922,-8.44303,7.38443
0.162,3398.49,-3494.92,8309.2,-1.87816,-1.73444,-2.55023,3907.84,3169.4,8298.27,-9.29184,6.20879,1.93937,-392.707,9917.2,-709.756,-9.84609,-6.08031,7.47985,-576.369,-9875.68,-389.114,-9.00115,8.39043,0.306214,-837.469,9554.05,-1393.37,-12.6655,-2.49183,-13.2327,-217.453,-9934.19,-918.04,-13.1579,14.3242,9.02041,8747.75,718.805,3575.05,-19.6057,-8.35976,7.03748
0.163,3397.14,-3466.5,8281.55,-1.81672,-1.68584,-2.54971,3916.35,3159.04,8305.43,-8.94293,6.00906,1.89861,-385.86,9906.69,-737.698,-9.88277,-6.01083,7.51529,-592.883,-9873.43,-396.044,-9.10152,9.49261,0.440528,-819.777,9522.72,-1381.33,-12.6708,-2.30869,-13.6283,-212.827,-9917.3,-956.751,-13.1614,14.286,9.16978,8767.61,743.211,3559.36,-19.5191,-8.2765,6.69054
0.164,3395.79,-3438.08,8253.89,-1.75528,-1.63724,-2.5492,3924.87,3148.67,8312.6,-8.59402,5.80932,1.85785,-379.013,9896.18,-765.641,-9.91945,-5.94135,7.55073,-609.396,-9871.18,-402.975,-9.2019,10.5948,0.574841,-802.086,9491.38,-1369.28,-12.676,-2.12556,-14.0238,-208.202,-9900.41,-995.463,-13.1649,14.2478,9.31915,8787.47,767.618,3543.66,-19.4326,-8.19324,6.34359
0.165,3396.74,-3432.99,8248.66,-1.78167,-1.54629,-2.50025,3931.85,3134.51,8311.97,-8.28268,5.59044,1.84591,-358.065,9882.44,-781.861,-9.94347,-5.92953,7.62414,-612.321,-9880.29,-416.441,-9.20646,11.5543,0.595512,-796.179,9481.29,-1352.87,-12.6435,-1.86527,-14.3603,-217.58,-9891.99,-1044.98,-13.2023,14.16,9.51599,8800.9,791.87,3535.62,-19.4812,-8.14147,5.97818
0.166,3399.53,-3446.55,8261.36,-1.87833,-1.42146,-2.41255,3937.61,3117.33,8305.11,-8.00141,5.35622,1.85703,-325.837,9866.1,-788.704,-9.95737,-5.96383,7.72792,-604.377,-9898.48,-435.137,-9.13439,12.3995,0.525268,-799.701,9488.19,-1332.95,-12.5809,-1.54326,-14.6494,-238.162,-9890.36,-1103.15,-13.2668,14.0327,9.75082,8809.18,815.997,3533.7,-19.6379,-8.11491,5.59799
0.167,3402.32,-3460.12,8274.06,-1.97499,-1.29663,-2.32485,3943.37,3100.15,8298.25,-7.72014,5.12201,1.86815,-293.609,9849.77,-795.548,-9.97126,-5.99813,7.8317,-596.433,-9916.67,-453.832,-9.06231,13.2448,0.455025,-803.222,9495.1,-1313.04,-12.5183,-1.22125,-14.9385,-258.743,-9888.73,-1161.31,-13.3313,13.9054,9.98565,8817.46,840.124,3531.78,-19.7947,-8.08834,5.2178
0.168,3405.11,-3473.69,8286.76,-2.07165,-1.1718,-2.23715,3949.13,3082.96,8291.39,-7.43887,4.8878,1.87926,-261.38,9833.44,-802.391,-9.98516,-6.03243,7.93549,-588.488,-9934.86,-472.528,-8.99023,14.09,0.384781,-806.744,9502.01,-1293.12,-12.4557,-0.899247,-15.2277,-279.324,-9887.09,-1219.48,-13.3958,13.778,10.2205,8825.74,864.252,3529.85,-19.9514,-8.06177,4.83761
0.169,3407.35,-3488.53,8301.35,-2.16327,-1.07308,-2.15693,3951.84,3070.74,8288.62,-7.1581,4.69627,1.85821,-232.98,9821.47,-807.269,-10.0056,-6.0509,8.02214,-586.615,-9952.53,-489.132,-8.92573,14.8961,0.310041,-806.572,9507.16,-1278.75,-12.3982,-0.572653,-15.5064,-301.883,-9884.87,-1272.13,-13.453,13.6603,10.4491,8835.28,886.09,3531.46,-20.1464,-8.03342,4.48013
0.17,3405.19,-3513.62,8331.05,-2.21461,-1.18332,-2.13658,3930.17,3098.18,8318.54,-6.88129,4.8462,1.57982,-235.205,9844.41,-796.425,-10.0779,-5.94271,7.97173,-633.313,-9966.02,-488.997,-8.92185,15.3882,0.199334,-776.849,9498.31,-1308.7,-12.3817,-0.209362,-15.7015,-340.259,-9877.97,-1280.68,-13.4518,13.62,10.6285,8854.88,889.62,3561.3,-20.6478,-7.99082,4.30431
0.171,3403.04,-3538.71,8360.74,-2.26594,-1.29356,-2.11622,3908.5,3125.63,8348.47,-6.60448,4.99613,1.30143,-237.43,9867.35,-785.582,-10.1503,-5.83452,7.92132,-680.011,-9979.51,-488.862,-8.91797,15.8804,0.0886272,-747.127,9489.45,-1338.65,-12.3653,0.153929,-15.8965,-378.636,-9871.06,-1289.23,-13.4506,13.5796,10.8079,8874.49,893.151,3591.14,-21.1492,-7.94822,4.1285
0.172,3400.89,-3563.8,8390.44,-2.31728,-1.4038,-2.09587,3886.83,3153.07,8378.39,-6.32768,5.14606,1.02303,-239.654,9890.3,-774.739,-10.2227,-5.72634,7.87092,-726.709,-9992.99,-488.728,-8.91409,16.3726,-0.0220798,-717.405,9480.59,-1368.61,-12.3488,0.51722,-16.0916,-417.012,-9864.16,-1297.79,-13.4494,13.5392,10.9873,8894.09,896.681,3620.98,-21.6506,-7.90561,3.95269
0.173,3398.73,-3588.89,8420.14,-2.36862,-1.51404,-2.07551,3865.16,3180.52,8408.31,-6.05087,5.29599,0.744641,-241.879,9913.24,-763.895,-10.2951,-5.61815,7.82051,-773.407,-10006.5,-488.593,-8.91021,16.8647,-0.132787,-687.682,9471.74,-1398.56,-12.3324,0.880511,-16.2867,-455.389,-9857.26,-1306.34,-13.4482,13.4989,11.1667,8913.69,900.211,3650.82,-22.1519,-7.86301,3.77688
0.174,3412.16,-3622.89,8427.04,-2.3521,-1.62286,-2.10826,3887.57,3192.4,8376.93,-5.76514,5.23346,0.743815,-252.267,9923.24,-754.04,-10.4144,-5.60809,7.93005,-841.888,-9981.28,-509.198,-8.83626,17.1917,-0.144447,-681.529,9470.4,-1385.61,-12.2334,1.17777,-16.4759,-492.612,-9869.7,-1328.93,-13.4862,13.4722,11.3615,8928.78,893.634,3679.16,-22.8042,-7.83041,3.58371
0.175,3433.38,-3661.34,8422.54,-2.30164,-1.73097,-2.16757,3932.03,3196.49,8314.88,-5.47496,5.0647,0.881774,-266.737,9926.78,-744.679,-10.5571,-5.6471,8.11957,-921.261,-9936.73,-540.173,-8.72727,17.4361,-0.106583,-687.159,9472.82,-1351.2,-12.0931,1.44201,-16.6622,-529.257,-9891.82,-1358.53,-13.5438,13.4524,11.564,8941.62,882.003,3706.75,-23.532,-7.80281,3.38186
0.176,3454.61,-3699.79,8418.04,-2.25118,-1.83908,-2.22687,3976.49,3200.59,8252.83,-5.18477,4.89594,1.01973,-281.206,9930.31,-735.317,-10.6998,-5.68611,8.30908,-1000.63,-9892.18,-571.147,-8.61828,17.6805,-0.0687199,-692.79,9475.24,-1316.79,-11.9528,1.70626,-16.8485,-565.903,-9913.93,-1388.13,-13.6013,13.4326,11.7666,8954.45,870.372,3734.33,-24.2598,-7.77522,3.18001
0.177,3475.83,-3738.24,8413.54,-2.20072,-1.94719,-2.28618,4020.95,3204.69,8190.79,-4.89458,4.72717,1.15769,-295.676,9933.84,-725.956,-10.8425,-5.72512,8.49859,-1080.01,-9847.63,-602.122,-8.50928,17.9249,-0.0308565,-698.42,9477.66,-1282.38,-11.8125,1.9705,-17.0348,-602.549,-9936.05,-1417.73,-13.6589,13.4128,11.9691,8967.29,858.742,3761.92,-24.9876,-7.74762,2.97817
0.178,3496.45,-3766.27,8405.0,-2.16313,-2.05542,-2.33972,4060.96,3204.6,8145.71,-4.63131,4.60695,1.28082,-305.287,9934.67,-717.366,-10.9313,-5.80031,8.6771,-1145.32,-9820.08,-619.326,-8.44579,18.1569,-0.0169951,-704.487,9480.66,-1249.51,-11.6618,2.22741,-17.1822,-626.505,-9955.55,-1440.38,-13.7309,13.3655,12.1469,8977.58,850.377,3784.85,-25.6401,-7.67934,2.75977
0.179,3515.0,-3757.86,8382.32,-2.17056,-2.16405,-2.37312,4085.41,3189.84,8160.02,-4.46221,4.65659,1.35203,-297.894,9926.02,-711.474,-10.8315,-6.00214,8.81708,-1161.44,-9852.02,-588.335,-8.54155,18.3454,-0.0871408,-712.078,9485.7,-1222.03,-11.4746,2.45861,-17.1936,-606.047,-9965.87,-1438.66,-13.8535,13.2218,12.2385,8978.97,853.446,3791.49,-26.0287,-7.46866,2.48347
0.18,3533.55,-3749.45,8359.65,-2.178,-2.27268,-2.40652,4109.85,3175.09,8174.34,-4.29311,4.70624,1.42325,-290.501,9917.38,-705.583,-10.7317,-6.20397,8.95707,-1177.55,-9883.95,-557.344,-8.63731,18.534,-0.157287,-719.67,9490.75,-1194.54,-11.2873,2.68982,-17.2049,-585.589,-9976.19,-1436.94,-13.9761,13.0781,12.3301,8980.35,856.515,3798.12,-26.4173,-7.25797,2.20718
0.181,3552.1,-3741.04,8336.98,-2.18543,-2.38131,-2.43992,4134.3,3160.33,8188.65,-4.12401,4.75589,1.49446,-283.108,9908.74,-699.692,-10.6319,-6.4058,9.09705,-1193.67,-9915.89,-526.353,-8.73306,18.7226,-0.227432,-727.261,9495.79,-1167.06,-11.1,2.92102,-17.2163,-565.131,-9986.52,-1435.23,-14.0987,12.9345,12.4217,8981.74,859.584,3804.76,-26.8059,-7.04729,1.93088
0.182,3570.64,-3732.63,8314.3,-2.19286,-2.48994,-2.47332,4158.74,3145.57,8202.96,-3.95491,4.80553,1.56567,-275.715,9900.09,-693.8,-10.5321,-6.60763,9.23703,-1209.78,-9947.82,-495.362,-8.82882,18.9111,-0.297578,-734.852,9500.84,-1139.57,-10.9128,3.15223,-17.2276,-544.673,-9996.84,-1433.51,-14.2213,12.7908,12.5133,8983.13,862.653,3811.39,-27.1945,-6.83661,1.65458
0.183,3563.73,-3718.09,8326.27,-2.13458,-2.54755,-2.47733,4141.22,3155.4,8206.35,-3.81992,4.8808,1.50826,-273.781,9904.68,-698.673,-10.5536,-6.71156,9.24208,-1242.49,-9952.59,-488.798,-8.87972,18.5913,-0.436331,-755.794,9505.68,-1136.41,-10.7341,3.35843,-17.3195,-545.625,-9999.8,-1412.99,-14.4887,12.4538,12.5868,8976.62,858.508,3801.9,-27.194,-6.63492,1.29571
0.184,3549.54,-3701.8,8348.15,-2.05752,-2.59058,-2.47295,4111.69,3172.24,8206.61,-3.69469,4.96338,1.41409,-273.406,9913.06,-706.622,-10.6098,-6.78752,9.20857,-1279.94,-9949.61,-489.213,-8.9178,18.1263,-0.594686,-780.55,9510.48,-1140.2,-10.558,3.5575,-17.4344,-552.694,-10000.7,-1387.09,-14.7974,12.0615,12.655,8967.85,852.302,3787.79,-27.0824,-6.43579,0.913247
0.185,3535.36,-3685.51,8370.02,-1.98046,-2.63361,-2.46856,4082.17,3189.09,8206.88,-3.56945,5.04597,1.31993,-273.03,9921.43,-714.571,-10.666,-6.86348,9.17506,-1317.39,-9946.62,-489.628,-8.95588,17.6612,-0.753042,-805.307,9515.27,-1143.98,-10.3818,3.75656,-17.5492,-559.763,-10001.5,-1361.2,-15.1061,11.6692,12.7233,8959.09,846.095,3773.69,-26.9707,-6.23667,0.530785
0.186,3521.17,-3669.23,8391.89,-1.90341,-2.67664,-2.46417,4052.65,3205.93,8207.15,-3.44422,5.12856,1.22576,-272.655,9929.8,-722.52,-10.7222,-6.93944,9.14154,-1354.84,-9943.63,-490.043,-8.99396,17.1962,-0.911397,-830.063,9520.06,-1147.77,-10.2056,3.95563,-17.6641,-566.832,-10002.4,-1335.3,-15.4148,11.2768,12.7916,8950.33,839.889,3759.58,-26.859,-6.03755,0.148324
0.187,3508.46,-3655.82,8411.16,-1.85523,-2.72851,-2.47516,4042.21,3219.0,8202.66,-3.34208,5.1381,1.11697,-280.531,9927.38,-722.358,-10.7545,-7.07043,9.12128,-1403.55,-9943.59,-484.045,-8.99088,16.6969,-1.11355,-845.944,9519.91,-1151.01,-10.0259,4.09066,-17.7452,-578.841,-10008.5,-1316.12,-15.6784,10.8479,12.8368,8939.04,827.145,3746.79,-26.6756,-5.88298,-0.25031
0.188,3498.7,-3648.19,8425.23,-1.86484,-2.79807,-2.51691,4069.96,3224.53,8188.66,-3.28615,5.00155,0.978916,-304.909,9903.35,-705.974,-10.739,-7.31149,9.12752,-1474.77,-9949.47,-465.221,-8.90546,16.1291,-1.40332,-844.076,9509.88,-1153.17,-9.83914,4.09761,-17.7589,-600.73,-10025.3,-1310.36,-15.8518,10.3456,12.8357,8922.71,801.324,3736.63,-26.3485,-5.81751,-0.68129
0.189,3488.95,-3640.56,8439.3,-1.87444,-2.86762,-2.55865,4097.71,3230.06,8174.66,-3.23021,4.86501,0.840867,-329.287,9879.32,-689.59,-10.7234,-7.55255,9.13376,-1545.98,-9955.34,-446.397,-8.82005,15.5613,-1.69308,-842.208,9499.85,-1155.33,-9.65238,4.10455,-17.7727,-622.618,-10042.0,-1304.6,-16.0251,9.84338,12.8345,8906.37,775.504,3726.47,-26.0215,-5.75205,-1.11227
0.19,3479.2,-3632.93,8453.37,-1.88405,-2.93717,-2.6004,4125.45,3235.59,8160.66,-3.17427,4.72847,0.702818,-353.665,9855.3,-673.206,-10.7079,-7.79361,9.14,-1617.2,-9961.21,-427.574,-8.73464,14.9936,-1.98285,-840.339,9489.82,-1157.49,-9.46562,4.1115,-17.7864,-644.506,-10058.7,-1298.85,-16.1985,9.34113,12.8334,8890.03,749.683,3716.3,-25.6945,-5.68658,-1.54325
0.191,3469.44,-3625.3,8467.45,-1.89365,-3.00672,-2.64214,4153.2,3241.12,8146.66,-3.11834,4.59192,0.564769,-378.043,9831.27,-656.821,-10.6924,-8.03467,9.14624,-1688.41,-9967.08,-408.75,-8.64923,14.4258,-2.27261,-838.471,9479.79,-1159.65,-9.27886,4.11845,-17.8001,-666.395,-10075.5,-1293.09,-16.3718,8.83887,12.8323,8873.7,723.862,3706.14,-25.3674,-5.62111,-1.97423
0.192,3470.67,-3640.03,8451.32,-1.96869,-3.0629,-2.6666,4141.8,3238.96,8155.63,-3.03813,4.52723,0.562977,-350.788,9838.36,-661.155,-10.6882,-8.14019,9.13701,-1699.44,-9962.74,-423.487,-8.53845,13.7229,-2.49582,-841.566,9487.86,-1161.88,-9.16013,4.15976,-17.737,-669.142,-10086.7,-1307.59,-16.5265,8.44146,12.8938,8871.96,716.442,3701.85,-24.87,-5.64985,-2.16647
0.193,3473.28,-3657.56,8431.42,-2.05191,-3.1174,-2.68891,4125.5,3235.82,8167.47,-2.9549,4.47153,0.578218,-317.08,9849.35,-668.078,-10.6855,-8.22878,9.12584,-1702.94,-9957.11,-442.419,-8.42449,13.003,-2.7107,-845.282,9498.19,-1164.13,-9.04991,4.20537,-17.6642,-669.497,-10097.3,-1324.63,-16.6788,8.05716,12.9632,8872.05,711.323,3698.29,-24.3513,-5.69036,-2.32887
0.194,3475.88,-3675.09,8411.52,-2.13513,-3.1719,-2.71121,4109.2,3232.69,8179.32,-2.87166,4.41582,0.59346,-283.371,9860.33,-675.001,-10.6827,-8.31736,9.11468,-1706.44,-9951.49,-461.351,-8.31054,12.2831,-2.92558,-848.997,9508.52,-1166.37,-8.93968,4.25098,-17.5914,-669.852,-10107.9,-1341.66,-16.8311,7.67286,13.0326,8872.14,706.204,3694.73,-23.8325,-5.73087,-2.49127
0.195,3478.48,-3692.61,8391.63,-2.21835,-3.2264,-2.73351,4092.91,3229.56,8191.17,-2.78843,4.36012,0.608701,-249.663,9871.31,-681.924,-10.68,-8.40595,9.10351,-1709.94,-9945.87,-480.283,-8.19659,11.5633,-3.14046,-852.713,9518.85,-1168.62,-8.82946,4.29659,-17.5186,-670.208,-10118.4,-1358.7,-16.9834,7.28856,13.1019,8872.23,701.084,3691.17,-23.3138,-5.77138,-2.65367
0.196,3474.21,-3699.9,8375.99,-2.24639,-3.29024,-2.74166,4075.28,3233.06,8197.66,-2.69307,4.28544,0.706665,-226.733,9874.46,-682.603,-10.6334,-8.48604,9.09677,-1702.41,-9950.82,-493.828,-8.07161,10.8087,-3.38318,-840.241,9534.66,-1179.64,-8.7424,4.37977,-17.4577,-668.701,-10123.3,-1375.9,-17.1783,6.94649,13.1773,8887.97,693.487,3696.91,-22.8708,-5.7757,-2.78696
0.197,3461.32,-3694.41,8365.67,-2.20546,-3.36573,-2.73211,4056.0,3244.85,8197.48,-2.58257,4.18706,0.908035,-217.276,9867.8,-675.477,-10.5318,-8.55552,9.09557,-1681.1,-9968.97,-500.637,-7.93286,10.0107,-3.66069,-807.536,9557.3,-1201.64,-8.68428,4.50992,-17.4116,-664.869,-10121.0,-1393.3,-17.4263,6.65722,13.2603,8923.26,682.792,3714.28,-22.5226,-5.73476,-2.88387
0.198,3448.44,-3688.91,8355.36,-2.16452,-3.44122,-2.72255,4036.73,3256.63,8197.29,-2.47207,4.08868,1.1094,-207.819,9861.15,-668.352,-10.4302,-8.625,9.09438,-1659.79,-9987.13,-507.447,-7.7941,9.21268,-3.93819,-774.831,9579.95,-1223.64,-8.62617,4.64007,-17.3655,-661.036,-10118.7,-1410.7,-17.6743,6.36795,13.3432,8958.55,672.097,3731.65,-22.1743,-5.69383,-2.98078
0.199,3435.55,-3683.41,8345.05,-2.12359,-3.51671,-2.713,4017.45,3268.42,8197.11,-2.36156,3.9903,1.31077,-198.362,9854.49,-661.226,-10.3286,-8.69448,9.09318,-1638.49,-10005.3,-514.257,-7.65535,8.41468,-4.2157,-742.125,9602.6,-1245.64,-8.56806,4.77022,-17.3194,-657.203,-10116.5,-1428.11,-17.9223,6.07868,13.4262,8993.84,661.402,3749.02,-21.8261,-5.6529,-3.07769
0.2,3422.67,-3677.91,8334.74,-2.08265,-3.59221,-2.70345,3998.17,3280.2,8196.92,-2.25106,3.89192,1.51214,-188.906,9847.83,-654.1,-10.227,-8.76397,9.09198,-1617.18,-10023.4,-521.066,-7.5166,7.61668,-4.49321,-709.42,9625.24,-1267.64,-8.50994,4.90037,-17.2734,-653.371,-10114.2,-1445.51,-18.1703,5.78941,13.5091,9029.14,650.707,3766.39,-21.4778,-5.61196,-3.1746
0.201,3430.13,-3684.28,8331.04,-2.13093,-3.53424,-2.75742,3995.97,3215.47,8185.69,-2.15094,3.70466,1.32229,-162.172,9820.94,-661.529,-10.2445,-8.80772,8.899,-1616.62,-10005.2,-515.773,-7.41336,6.83841,-4.72548,-722.591,9610.77,-1263.86,-8.46703,5.07994,-17.3363,-637.863,-10109.7,-1440.34,-18.2174,5.68903,13.5843,9044.89,630.411,3786.97,-21.4091,-5.37495,-3.21471
0.202,3437.59,-3690.65,8327.34,-2.17921,-3.47627,-2.81139,3993.77,3150.73,8174.46,-2.05081,3.51741,1.13243,-135.438,9794.04,-668.958,-10.262,-8.85147,8.70603,-1616.06,-9986.93,-510.479,-7.31013,6.06013,-4.95775,-735.761,9596.29,-1260.09,-8.42412,5.25951,-17.3993,-622.356,-10105.2,-1435.16,-18.2645,5.58864,13.6596,9060.64,610.114,3807.56,-21.3403,-5.13794,-3.25481
0.203,3445.04,-3697.02,8323.64,-2.22748,-3.4183,-2.86536,3991.57,3086.0,8163.22,-1.95069,3.33015,0.942571,-108.704,9767.15,-676.387,-10.2794,-8.89522,8.51305,-1615.51,-9968.68,-505.185,-7.20689,5.28186,-5.19002,-748.931,9581.82,-1256.31,-8.38121,5.43907,-17.4623,-606.849,-10100.8,-1429.99,-18.3116,5.48825,13.7348,9076.39,589.817,3828.15,-21.2716,-4.90092,-3.29491
0.204,3452.5,-3703.39,8319.94,-2.27576,-3.36034,-2.91933,3989.38,3021.27,8151.99,-1.85056,3.14289,0.752714,-81.9699,9740.25,-683.816,-10.2969,-8.93897,8.32008,-1614.95,-9950.43,-499.892,-7.10365,4.50359,-5.42229,-762.102,9567.35,-1252.54,-8.3383,5.61864,-17.5253,-591.342,-10096.3,-1424.82,-18.3587,5.38787,13.8101,9092.14,569.52,3848.74,-21.2029,-4.66391,-3.33502
0.205,3446.98,-3686.93,8325.74,-2.30424,-3.30892,-2.95677,3986.99,3015.91,8156.91,-1.67801,3.10338,0.651264,-70.2445,9739.25,-685.147,-10.2695,-8.91642,8.27055,-1622.46,-9942.04,-480.372,-7.08755,3.80553,-5.58428,-777.733,9551.52,-1244.66,-8.26874,5.69553,-17.5841,-582.664,-10095.5,-1430.32,-18.3524,5.27284,13.8686,9098.63,559.782,3872.03,-21.1209,-4.42494,-3.318
0.206,3431.09,-3652.19,8339.13,-2.31688,-3.26274,-2.981,3984.45,3058.05,8174.76,-1.44752,3.18207,0.62054,-70.526,9758.96,-681.599,-10.206,-8.84082,8.33577,-1636.44,-9941.55,-449.47,-7.14115,3.17165,-5.69004,-795.334,9534.62,-1233.49,-8.17786,5.69029,-17.6398,-579.451,-10097.5,-1444.36,-18.3032,5.14611,13.9136,9097.7,558.491,3897.48,-21.0284,-4.18439,-3.2553
0.207,3415.19,-3617.46,8352.52,-2.32952,-3.21657,-3.00523,3981.91,3100.2,8192.61,-1.21703,3.26075,0.589817,-70.8076,9778.67,-678.051,-10.1426,-8.76522,8.40099,-1650.41,-9941.05,-418.568,-7.19475,2.53777,-5.79581,-812.935,9517.72,-1222.32,-8.08698,5.68504,-17.6954,-576.239,-10099.6,-1458.4,-18.2541,5.01939,13.9586,9096.78,557.2,3922.93,-20.9359,-3.94385,-3.19259
0.208,3399.29,-3582.73,8365.92,-2.34217,-3.17039,-3.02946,3979.36,3142.34,8210.46,-0.986541,3.33944,0.559093,-71.0891,9798.38,-674.503,-10.0792,-8.68962,8.46622,-1664.39,-9940.56,-387.667,-7.24836,1.90389,-5.90157,-830.536,9500.82,-1211.15,-7.9961,5.6798,-17.751,-573.026,-10101.7,-1472.44,-18.205,4.89266,14.0036,9095.85,555.909,3948.38,-20.8433,-3.70331,-3.12988
0.209,3385.6,-3552.35,8377.68,-2.35365,-3.12669,-3.05211,3979.09,3179.98,8226.24,-0.772072,3.40318,0.518306,-70.8912,9819.25,-669.945,-10.0253,-8.59117,8.52466,-1672.42,-9938.09,-356.82,-7.28232,1.26124,-6.03264,-845.428,9487.87,-1199.44,-7.91018,5.63838,-17.798,-571.41,-10103.3,-1485.58,-18.1604,4.7598,14.0418,9095.17,553.843,3970.39,-20.7466,-3.48822,-3.07133
0.21,3389.55,-3556.79,8376.45,-2.35582,-3.10285,-3.06208,3996.92,3181.6,8225.45,-0.685764,3.34727,0.39702,-66.8578,9849.4,-657.297,-10.0482,-8.30981,8.52885,-1632.9,-9919.8,-326.414,-7.1592,0.548469,-6.36617,-838.65,9506.57,-1183.38,-7.86393,5.30762,-17.7761,-582.577,-10101.2,-1491.54,-18.1518,4.57796,14.0248,9096.46,545.58,3964.83,-20.616,-3.47673,-3.04601
0.211,3393.51,-3561.23,8375.22,-2.358,-3.07901,-3.07205,4014.76,3183.21,8224.67,-0.599455,3.29137,0.275734,-62.8245,9879.55,-644.649,-10.0711,-8.02846,8.53303,-1593.38,-9901.51,-296.008,-7.03608,-0.164301,-6.6997,-831.873,9525.27,-1167.32,-7.81767,4.97685,-17.7542,-593.743,-10099.2,-1497.49,-18.1431,4.39612,14.0078,9097.75,537.317,3959.27,-20.4853,-3.46524,-3.02069
0.212,3397.47,-3565.68,8373.99,-2.36018,-3.05517,-3.08203,4032.6,3184.83,8223.88,-0.513147,3.23547,0.154447,-58.7911,9909.7,-632.002,-10.0941,-7.7471,8.53722,-1553.86,-9883.22,-265.602,-6.91296,-0.877071,-7.03323,-825.095,9543.97,-1151.26,-7.77142,4.64609,-17.7323,-604.91,-10097.1,-1503.44,-18.1345,4.21427,13.9907,9099.03,529.053,3953.71,-20.3547,-3.45376,-2.99536
0.213,3401.42,-3570.12,8372.76,-2.36236,-3.03132,-3.092,4050.44,3186.45,8223.09,-0.426839,3.17956,0.0331611,-54.7577,9939.85,-619.354,-10.117,-7.46575,8.5414,-1514.35,-9864.93,-235.196,-6.78984,-1.58984,-7.36676,-818.318,9562.66,-1135.21,-7.72516,4.31533,-17.7104,-616.076,-10095.1,-1509.39,-18.1258,4.03243,13.9737,9100.32,520.79,3948.16,-20.2241,-3.44227,-2.97004
0.214,3423.35,-3584.65,8362.11,-2.33862,-3.00488,-3.05063,4041.21,3179.67,8227.62,-0.295652,3.11873,-0.0336365,-82.6685,9947.19,-623.894,-10.1342,-7.22197,8.48934,-1479.2,-9874.22,-216.139,-6.78924,-2.12146,-7.62263,-813.131,9571.44,-1120.27,-7.74216,3.75941,-17.6727,-619.271,-10088.5,-1500.08,-18.1518,3.95073,14.0468,9087.33,506.014,3924.65,-19.8918,-3.37611,-2.96086
0.215,3454.25,-3604.22,8346.76,-2.30192,-2.97714,-2.9836,4018.45,3168.7,8234.8,-0.142025,3.05543,-0.0731898,-126.551,9943.11,-637.029,-10.1486,-6.99697,8.40915,-1446.24,-9897.3,-202.757,-6.8499,-2.5625,-7.83967,-808.74,9575.25,-1105.9,-7.79078,3.09093,-17.627,-618.479,-10079.7,-1483.13,-18.195,3.91911,14.1649,9067.21,487.981,3892.17,-19.4586,-3.28262,-2.95976
0.216,3485.16,-3623.79,8331.41,-2.26523,-2.9494,-2.91656,3995.69,3157.73,8241.99,0.0116016,2.99212,-0.112743,-170.434,9939.03,-650.163,-10.1631,-6.77198,8.32896,-1413.28,-9920.39,-189.375,-6.91055,-3.00353,-8.05671,-804.349,9579.07,-1091.54,-7.8394,2.42245,-17.5813,-617.688,-10070.8,-1466.19,-18.2382,3.88749,14.2829,9047.08,469.949,3859.7,-19.0254,-3.18912,-2.95865
0.217,3516.07,-3643.35,8316.06,-2.22853,-2.92166,-2.84952,3972.92,3146.76,8249.17,0.165228,2.92882,-0.152296,-214.317,9934.96,-663.297,-10.1775,-6.54699,8.24877,-1380.32,-9943.47,-175.993,-6.97121,-3.44457,-8.27375,-799.959,9582.88,-1077.17,-7.88802,1.75396,-17.5357,-616.896,-10062.0,-1449.24,-18.2814,3.85587,14.401,9026.96,451.916,3827.22,-18.5921,-3.09562,-2.95754
0.218,3539.68,-3659.88,8305.43,-2.18994,-2.8962,-2.79404,3955.41,3140.16,8258.97,0.265398,2.88951,-0.18391,-243.76,9927.27,-674.539,-10.1858,-6.37069,8.18892,-1347.32,-9959.08,-171.179,-7.04052,-3.84609,-8.46975,-802.543,9584.76,-1067.7,-7.91091,1.08616,-17.4869,-618.809,-10053.2,-1439.4,-18.3299,3.85228,14.5225,9001.37,434.723,3801.04,-18.1285,-2.94626,-2.97737
0.219,3537.78,-3665.75,8311.35,-2.14471,-2.87871,-2.77898,3956.25,3148.85,8277.93,0.17847,2.93415,-0.187737,-222.661,9906.95,-679.159,-10.1726,-6.36486,8.20026,-1314.16,-9948.57,-196.354,-7.14012,-4.1093,-8.59215,-829.54,9579.82,-1075.39,-7.84379,0.420727,-17.4273,-630.185,-10044.7,-1454.44,-18.3965,3.94682,14.6557,8956.64,420.468,3796.86,-17.5583,-2.60134,-3.07046
0.22,3535.88,-3671.61,8317.27,-2.09948,-2.86123,-2.76392,3957.09,3157.54,8296.88,0.0915425,2.9788,-0.191564,-201.562,9886.63,-683.778,-10.1595,-6.35904,8.21161,-1281.0,-9938.05,-221.529,-7.23972,-4.37251,-8.71455,-856.537,9574.89,-1083.09,-7.77667,-0.244703,-17.3677,-641.56,-10036.2,-1469.48,-18.4631,4.04137,14.789,8911.92,406.213,3792.69,-16.988,-2.25642,-3.16355
0.221,3533.98,-3677.48,8323.19,-2.05426,-2.84374,-2.74886,3957.93,3166.23,8315.83,0.00461457,3.02344,-0.195391,-180.464,9866.31,-688.397,-10.1463,-6.35321,8.22296,-1247.83,-9927.54,-246.703,-7.33932,-4.63572,-8.83695,-883.534,9569.96,-1090.78,-7.70954,-0.910134,-17.3081,-652.936,-10027.7,-1484.52,-18.5297,4.13591,14.9222,8867.2,391.959,3788.52,-16.4178,-1.91151,-3.25665
0.222,3532.08,-3683.34,8329.11,-2.00903,-2.82625,-2.7338,3958.77,3174.92,8334.79,-0.0823134,3.06808,-0.199217,-159.365,9845.99,-693.016,-10.1331,-6.34738,8.2343,-1214.67,-9917.02,-271.878,-7.43892,-4.89893,-8.95935,-910.53,9565.02,-1098.48,-7.64242,-1.57556,-17.2485,-664.312,-10019.2,-1499.56,-18.5963,4.23045,15.0555,8822.47,377.704,3784.35,-15.8476,-1.56659,-3.34974
0.223,3523.61,-3694.59,8344.61,-1.95045,-2.80349,-2.814,3969.13,3181.41,8332.46,-0.0431741,2.97445,-0.255931,-146.062,9824.53,-689.911,-10.1514,-6.33543,8.19436,-1183.09,-9897.37,-283.847,-7.56269,-4.9161,-9.0748,-915.172,9573.82,-1100.27,-7.69875,-2.1304,-17.1848,-698.048,-10015.9,-1507.83,-18.5755,4.45612,15.1175,8795.9,365.547,3799.87,-15.395,-1.44216,-3.60768
0.224,3513.27,-3707.37,8362.83,-1.88805,-2.77923,-2.92143,3982.2,3187.29,8324.06,0.0319843,2.84131,-0.327756,-134.987,9802.73,-684.598,-10.1786,-6.32173,8.13976,-1151.96,-9875.11,-292.043,-7.69338,-4.86297,-9.18827,-913.426,9586.55,-1100.38,-7.79036,-2.65365,-17.1199,-738.173,-10014.1,-1514.18,-18.5297,4.71926,15.1592,8774.51,353.99,3821.02,-14.9759,-1.38072,-3.91271
0.225,3502.93,-3720.15,8381.06,-1.82565,-2.75496,-3.02885,3995.28,3193.16,8315.66,0.107143,2.70816,-0.399581,-123.912,9780.94,-679.285,-10.2058,-6.30803,8.08517,-1120.83,-9852.85,-300.239,-7.82407,-4.80984,-9.30173,-911.68,9599.27,-1100.48,-7.88197,-3.17689,-17.0551,-778.297,-10012.3,-1520.52,-18.4839,4.98239,15.2008,8753.12,342.433,3842.17,-14.5569,-1.31928,-4.21775
0.226,3492.58,-3732.93,8399.29,-1.76325,-2.7307,-3.13627,4008.35,3199.03,8307.26,0.182301,2.57502,-0.471405,-112.836,9759.15,-673.972,-10.233,-6.29433,8.03057,-1089.7,-9830.58,-308.435,-7.95476,-4.75671,-9.4152,-909.935,9612.0,-1100.59,-7.97358,-3.70013,-16.9903,-818.422,-10010.6,-1526.86,-18.4381,5.24553,15.2425,8731.73,330.875,3863.31,-14.1379,-1.25785,-4.52278
0.227,3486.64,-3743.59,8414.94,-1.74067,-2.72986,-3.17686,4011.27,3191.92,8305.15,0.219881,2.46813,-0.558165,-109.008,9748.5,-668.638,-10.2644,-6.24812,7.95262,-1062.77,-9823.72,-318.399,-8.04769,-4.68949,-9.46446,-898.506,9626.6,-1104.74,-8.1196,-4.15465,-16.9271,-848.172,-10012.7,-1531.54,-18.398,5.51975,15.3038,8720.38,316.687,3886.64,-13.8296,-1.31605,-4.77827
0.228,3489.51,-3749.99,8425.44,-1.79775,-2.77587,-3.08378,3993.9,3158.87,8315.63,0.182305,2.41376,-0.674796,-119.672,9760.15,-663.26,-10.3043,-6.1369,7.82798,-1044.23,-9847.65,-331.9,-8.06509,-4.5941,-9.38531,-867.711,9644.96,-1116.97,-8.37447,-4.47172,-16.8673,-857.172,-10022.6,-1532.89,-18.3693,5.81616,15.4043,8729.09,297.238,3914.33,-13.7426,-1.61352,-4.93467
0.229,3492.38,-3756.4,8435.94,-1.85482,-2.82187,-2.99071,3976.52,3125.81,8326.11,0.144729,2.35939,-0.791427,-130.336,9771.81,-657.882,-10.3442,-6.02567,7.70334,-1025.68,-9871.58,-345.401,-8.0825,-4.49871,-9.30615,-836.916,9663.31,-1129.2,-8.62933,-4.78879,-16.8074,-866.172,-10032.6,-1534.23,-18.3405,6.11257,15.5048,8737.8,277.788,3942.02,-13.6557,-1.91099,-5.09107
0.23,3495.24,-3762.8,8446.43,-1.91189,-2.86788,-2.89763,3959.14,3092.76,8336.58,0.107152,2.30501,-0.908058,-141.001,9783.46,-652.505,-10.3841,-5.91445,7.5787,-1007.14,-9895.51,-358.901,-8.09991,-4.40332,-9.22699,-806.121,9681.67,-1141.43,-8.8842,-5.10586,-16.7476,-875.172,-10042.5,-1535.58,-18.3118,6.40898,15.6053,8746.51,258.339,3969.72,-13.5687,-2.20846,-5.24747
0.231,3498.11,-3769.21,8456.93,-1.96896,-2.91389,-2.80456,3941.76,3059.71,8347.06,0.0695757,2.25064,-1.02469,-151.665,9795.12,-647.127,-10.424,-5.80323,7.45407,-988.597,-9919.45,-372.402,-8.11731,-4.30793,-9.14784,-775.326,9700.02,-1153.67,-9.13906,-5.42293,-16.6877,-884.172,-10052.5,-1536.93,-18.283,6.70538,15.7058,8755.23,238.889,3997.41,-13.4817,-2.50593,-5.40387
0.232,3503.49,-3769.1,8452.21,-2.04263,-2.9332,-2.92147,3939.07,3058.32,8340.88,0.0845206,2.20964,-1.20013,-144.61,9783.47,-648.447,-10.3076,-5.66923,7.35563,-972.176,-9907.17,-370.472,-8.23731,-3.98173,-9.16602,-758.309,9680.83,-1160.88,-9.29471,-5.72121,-16.6318,-863.465,-10049.8,-1527.84,-18.2357,6.89665,15.7969,8787.06,220.188,4013.97,-13.6889,-2.60613,-5.2169
0.233,3509.18,-3768.18,8445.59,-2.11837,-2.94917,-3.06463,3938.22,3060.89,8332.63,0.106031,2.17031,-1.38293,-135.341,9768.92,-650.604,-10.1716,-5.53238,7.26048,-956.02,-9890.37,-366.613,-8.37014,-3.62668,-9.19636,-743.015,9656.94,-1167.46,-9.43796,-6.01715,-16.5764,-839.045,-10045.6,-1517.45,-18.1861,7.07478,15.8868,8821.79,201.58,4029.14,-13.9327,-2.68167,-4.98701
0.234,3514.87,-3767.25,8438.97,-2.19411,-2.96514,-3.2078,3937.37,3063.46,8324.37,0.127541,2.13099,-1.56573,-126.071,9754.36,-652.761,-10.0357,-5.39554,7.16532,-939.864,-9873.56,-362.754,-8.50296,-3.27164,-9.22671,-727.72,9633.05,-1174.05,-9.58122,-6.31308,-16.5209,-814.625,-10041.3,-1507.05,-18.1365,7.2529,15.9767,8856.51,182.972,4044.31,-14.1766,-2.75721,-4.75712
0.235,3520.57,-3766.33,8432.34,-2.26985,-2.98111,-3.35096,3936.52,3066.03,8316.11,0.149051,2.09166,-1.74853,-116.801,9739.81,-654.918,-9.89974,-5.25869,7.07017,-923.708,-9856.76,-358.895,-8.63578,-2.91659,-9.25705,-712.425,9609.17,-1180.64,-9.72447,-6.60902,-16.4655,-790.205,-10037.1,-1496.66,-18.0869,7.43102,16.0666,8891.24,164.364,4059.48,-14.4205,-2.83275,-4.52723
0.236,3508.04,-3759.57,8424.96,-2.3139,-2.97556,-3.40549,3946.81,3064.96,8310.96,0.209136,2.06205,-1.87736,-97.6581,9739.27,-656.503,-9.82401,-5.16456,7.01584,-906.508,-9844.6,-360.911,-8.7682,-2.44819,-9.3224,-706.282,9589.39,-1178.03,-9.82438,-6.80408,-16.4265,-757.652,-10026.6,-1481.71,-17.9578,7.6055,16.0932,8929.08,139.874,4074.83,-14.6759,-2.78742,-4.18541
0.237,3472.74,-3745.51,8416.62,-2.31835,-2.94311,-3.34923,3971.03,3059.34,8309.69,0.317442,2.04459,-1.93875,-66.1729,9756.23,-657.373,-9.82354,-5.12381,7.01256,-888.003,-9838.23,-370.27,-8.90011,-1.8381,-9.43149,-711.577,9574.74,-1163.93,-9.8701,-6.87303,-16.4082,-714.933,-10008.4,-1461.07,-17.7293,7.77541,16.0406,8970.81,108.032,4090.41,-14.9457,-2.59101,-3.70368
0.238,3437.44,-3731.45,8408.28,-2.3228,-2.91066,-3.29297,3995.24,3053.72,8308.41,0.425747,2.02714,-2.00014,-34.6877,9773.2,-658.242,-9.82307,-5.08306,7.00927,-869.497,-9831.87,-379.629,-9.03202,-1.22801,-9.54058,-716.873,9560.1,-1149.83,-9.91583,-6.94199,-16.3899,-672.214,-9990.09,-1440.43,-17.5009,7.94532,15.988,9012.54,76.1903,4105.99,-15.2155,-2.39459,-3.22195
0.239,3402.14,-3717.39,8399.94,-2.32726,-2.87821,-3.23672,4019.46,3048.1,8307.14,0.534052,2.00968,-2.06153,-3.20248,9790.17,-659.112,-9.8226,-5.04231,7.00599,-850.992,-9825.51,-388.989,-9.16393,-0.617914,-9.64968,-722.169,9545.45,-1135.73,-9.96155,-7.01095,-16.3717,-629.495,-9971.83,-1419.78,-17.2725,8.11524,15.9354,9054.27,44.3484,4121.57,-15.4853,-2.19818,-2.74021
0.24,3366.83,-3703.32,8391.61,-2.33171,-2.84576,-3.18046,4043.68,3042.48,8305.87,0.642357,1.99222,-2.12292,28.2827,9807.14,-659.982,-9.82214,-5.00155,7.0027,-832.486,-9819.14,-398.348,-9.29584,-0.00782285,-9.75877,-727.464,9530.81,-1121.63,-10.0073,-7.0799,-16.3534,-586.776,-9953.56,-1399.14,-17.044,8.28515,15.8828,9096.01,12.5066,4137.15,-15.755,-2.00177,-2.25848
0.241,3396.56,-3731.48,8395.17,-2.18635,-2.8151,-3.11846,4035.82,3037.56,8321.5,0.709603,1.94213,-2.23431,-4.41687,9811.06,-655.028,-9.80442,-4.98257,6.90416,-822.767,-9824.49,-425.519,-9.35003,0.676035,-9.73834,-723.724,9534.26,-1118.73,-10.0265,-7.20313,-16.3293,-561.386,-9977.09,-1414.25,-16.9034,8.45531,15.9586,9046.89,14.1031,4101.05,-15.7228,-1.75747,-1.91292
0.242,3426.28,-3759.64,8398.72,-2.04099,-2.78445,-3.05646,4027.96,3032.65,8337.12,0.776848,1.89203,-2.34571,-37.1165,9814.98,-650.075,-9.78671,-4.96359,6.80561,-813.048,-9829.85,-452.69,-9.40422,1.35989,-9.71791,-719.984,9537.72,-1115.84,-10.0457,-7.32636,-16.3053,-535.996,-10000.6,-1429.37,-16.7627,8.62547,16.0343,8997.78,15.6996,4064.95,-15.6905,-1.51317,-1.56735
0.243,3456.01,-3787.8,8402.28,-1.89563,-2.7538,-2.99446,4020.1,3027.73,8352.75,0.844093,1.84194,-2.45711,-69.8161,9818.9,-645.121,-9.769,-4.94461,6.70707,-803.328,-9835.2,-479.86,-9.45841,2.04375,-9.69748,-716.244,9541.17,-1112.94,-10.065,-7.44959,-16.2813,-510.605,-10024.1,-1444.48,-16.622,8.79563,16.1101,8948.66,17.2961,4028.85,-15.6582,-1.26886,-1.22179
0.244,3485.73,-3815.96,8405.84,-1.75027,-2.72314,-2.93246,4012.24,3022.81,8368.37,0.911339,1.79184,-2.5685,-102.516,9822.82,-640.168,-9.75129,-4.92562,6.60852,-793.609,-9840.55,-507.031,-9.5126,2.72761,-9.67705,-712.503,9544.62,-1110.05,-10.0842,-7.57282,-16.2572,-485.215,-10047.7,-1459.6,-16.4814,8.96579,16.1858,8899.55,18.8927,3992.75,-15.6259,-1.02456,-0.876224
0.245,3504.99,-3808.27,8403.31,-1.69031,-2.70028,-2.93727,3998.41,3030.91,8364.3,0.905394,1.76562,-2.60874,-110.654,9832.09,-640.156,-9.69651,-4.85796,6.49524,-781.839,-9844.51,-519.689,-9.55854,3.40944,-9.69278,-715.493,9538.6,-1106.31,-10.0634,-7.7322,-16.1808,-457.811,-10053.4,-1474.14,-16.4324,9.11087,16.3045,8852.97,29.1051,3954.16,-15.2115,-0.720341,-0.77759
0.246,3515.87,-3771.9,8395.91,-1.69866,-2.68363,-2.99555,3979.78,3049.42,8344.49,0.840896,1.75849,-2.59205,-99.1426,9845.63,-644.097,-9.61208,-4.75135,6.37018,-768.429,-9847.38,-520.737,-9.59788,4.08966,-9.73744,-723.868,9525.0,-1101.91,-10.0106,-7.9205,-16.0624,-428.796,-10045.0,-1488.23,-16.4568,9.23587,16.4575,8808.41,46.2104,3913.57,-14.4916,-0.368184,-0.876501
0.247,3526.74,-3735.53,8388.5,-1.70702,-2.66699,-3.05382,3961.16,3067.93,8324.67,0.776399,1.75136,-2.57535,-87.6314,9859.17,-648.038,-9.52765,-4.64475,6.24511,-755.018,-9850.24,-521.785,-9.63721,4.76988,-9.78211,-732.242,9511.39,-1097.51,-9.95775,-8.10879,-15.944,-399.781,-10036.5,-1502.32,-16.4812,9.36088,16.6105,8763.86,63.3157,3872.99,-13.7716,-0.0160273,-0.975411
0.248,3537.62,-3699.16,8381.1,-1.71537,-2.65035,-3.11209,3942.54,3086.43,8304.85,0.711901,1.74423,-2.55866,-76.1202,9872.72,-651.978,-9.44321,-4.53814,6.12005,-741.608,-9853.09,-522.832,-9.67655,5.4501,-9.82677,-740.617,9497.79,-1093.11,-9.90493,-8.29709,-15.8257,-370.766,-10028.1,-1516.41,-16.5056,9.48588,16.7635,8719.31,80.4209,3832.4,-13.0517,0.336129,-1.07432
0.249,3547.7,-3666.26,8371.74,-1.70649,-2.64525,-3.16315,3926.25,3103.11,8286.71,0.663627,1.73003,-2.54314,-67.5477,9879.53,-653.34,-9.38087,-4.46262,5.99627,-728.092,-9856.05,-526.419,-9.72091,6.12063,-9.86442,-749.059,9484.37,-1087.03,-9.83868,-8.46531,-15.7074,-340.646,-10018.1,-1527.71,-16.5336,9.61757,16.9122,8681.2,96.745,3795.81,-12.3057,0.671311,-1.19077
0.25,3551.44,-3661.02,8346.75,-1.55967,-2.73253,-3.15646,3928.54,3105.16,8282.0,0.745142,1.65929,-2.53695,-82.4844,9832.48,-634.066,-9.49528,-4.63585,5.88284,-713.728,-9859.74,-550.318,-9.80543,6.71364,-9.84592,-758.045,9472.51,-1067.56,-9.66497,-8.47288,-15.5903,-301.687,-9995.67,-1516.73,-16.5902,9.80273,17.0269,8694.69,106.819,3791.19,-11.3517,0.87069,-1.44749
0.251,3555.17,-3655.78,8321.75,-1.41285,-2.81981,-3.14977,3930.83,3107.21,8277.3,0.826656,1.58856,-2.53077,-97.4212,9785.44,-614.792,-9.60968,-4.80907,5.7694,-699.365,-9863.42,-574.216,-9.88995,7.30666,-9.82743,-767.03,9460.64,-1048.09,-9.49127,-8.48045,-15.4732,-262.727,-9973.29,-1505.75,-16.6468,9.98789,17.1416,8708.18,116.893,3786.57,-10.3976,1.07007,-1.7042
0.252,3558.91,-3650.54,8296.75,-1.26603,-2.90709,-3.14308,3933.12,3109.26,8272.6,0.90817,1.51782,-2.52459,-112.358,9738.4,-595.518,-9.72409,-4.98229,5.65597,-685.001,-9867.11,-598.115,-9.97447,7.89967,-9.80894,-776.016,9448.78,-1028.62,-9.31756,-8.48801,-15.3561,-223.768,-9950.91,-1494.76,-16.7034,10.173,17.2562,8721.67,126.967,3781.95,-9.44357,1.26945,-1.96092
0.253,3562.64,-3645.3,8271.76,-1.11922,-2.99437,-3.13639,3935.41,3111.31,8267.89,0.989684,1.44709,-2.5184,-127.295,9691.35,-576.245,-9.83849,-5.15552,5.54254,-670.637,-9870.8,-622.014,-10.059,8.49269,-9.79044,-785.002,9436.91,-1009.16,-9.14386,-8.49558,-15.239,-184.808,-9928.53,-1483.78,-16.76,10.3582,17.3709,8735.15,137.041,3777.33,-8.48952,1.46883,-2.21764
0.254,3566.19,-3649.69,8276.11,-1.00151,-2.93812,-3.06256,3951.84,3126.11,8258.31,0.995762,1.37913,-2.67343,-148.638,9671.21,-569.582,-9.85507,-5.13536,5.52191,-662.747,-9865.77,-633.21,-10.134,9.01904,-9.75926,-790.646,9434.62,-1001.41,-8.97262,-8.46252,-15.19,-156.478,-9920.43,-1477.53,-16.7563,10.5912,17.4248,8736.29,138.425,3797.17,-7.89377,1.60508,-2.43696
0.255,3569.65,-3658.9,8295.14,-0.898366,-2.81012,-2.95517,3975.35,3147.29,8246.28,0.964122,1.31256,-2.90906,-173.184,9664.51,-569.226,-9.82273,-5.01851,5.5477,-658.093,-9856.38,-638.055,-10.2043,9.51205,-9.72173,-794.619,9437.1,-999.519,-8.80262,-8.40914,-15.175,-133.462,-9919.49,-1473.65,-16.7225,10.848,17.4484,8731.26,135.463,3829.23,-7.47716,1.70977,-2.63757
0.256,3573.11,-3668.11,8314.17,-0.795219,-2.68211,-2.84777,3998.86,3168.46,8234.25,0.932482,1.24598,-3.14469,-197.73,9657.81,-568.869,-9.79039,-4.90166,5.57348,-653.439,-9846.99,-642.899,-10.2746,10.0051,-9.68421,-798.592,9439.59,-997.631,-8.63262,-8.35577,-15.16,-110.446,-9918.54,-1469.76,-16.6887,11.1049,17.472,8726.23,132.5,3861.29,-7.06056,1.81447,-2.83819
0.257,3576.58,-3677.32,8333.2,-0.692072,-2.5541,-2.74037,4022.37,3189.64,8222.23,0.900842,1.17941,-3.38032,-222.276,9651.11,-568.513,-9.75806,-4.78481,5.59927,-648.785,-9837.6,-647.744,-10.3449,10.4981,-9.64668,-802.565,9442.08,-995.742,-8.46261,-8.30239,-15.145,-87.4296,-9917.59,-1465.87,-16.6549,11.3617,17.4955,8721.2,129.538,3893.35,-6.64395,1.91916,-3.03881
0.258,3580.6,-3683.85,8343.48,-0.598473,-2.44775,-2.61886,4037.07,3213.29,8216.11,0.887411,1.13564,-3.54821,-244.396,9642.2,-567.743,-9.71901,-4.65726,5.58593,-644.63,-9830.06,-648.912,-10.4124,10.9327,-9.60281,-802.884,9439.75,-991.352,-8.27227,-8.24284,-15.1204,-70.4098,-9918.34,-1464.44,-16.607,11.6061,17.4986,8718.62,126.379,3927.37,-6.34891,2.02236,-3.17909
0.259,3586.57,-3680.99,8323.15,-0.538293,-2.4172,-2.44795,4020.97,3245.6,8230.7,0.937713,1.17167,-3.47902,-258.027,9625.57,-565.528,-9.65648,-4.49224,5.43568,-642.222,-9829.02,-637.211,-10.4701,11.163,-9.53674,-790.412,9420.58,-978.208,-8.01074,-8.16171,-15.0621,-74.3767,-9925.03,-1471.57,-16.5098,11.807,17.43,8724.63,122.531,3968.24,-6.47937,2.12034,-3.10822
0.26,3592.55,-3678.13,8302.81,-0.478112,-2.38665,-2.27703,4004.87,3277.91,8245.29,0.988015,1.20771,-3.40982,-271.659,9608.94,-563.313,-9.59394,-4.32722,5.28543,-639.814,-9827.97,-625.51,-10.5278,11.3933,-9.47067,-777.939,9401.4,-965.063,-7.74922,-8.08058,-15.0039,-78.3436,-9931.72,-1478.71,-16.4126,12.0079,17.3614,8730.63,118.684,4009.12,-6.60982,2.21831,-3.03734
0.261,3598.53,-3675.27,8282.48,-0.417931,-2.3561,-2.10612,3988.77,3310.22,8259.87,1.03832,1.24375,-3.34062,-285.29,9592.31,-561.097,-9.53141,-4.1622,5.13518,-637.406,-9826.92,-613.81,-10.5856,11.6236,-9.4046,-765.467,9382.23,-951.919,-7.48769,-7.99944,-14.9457,-82.3104,-9938.41,-1485.84,-16.3153,12.2087,17.2927,8736.64,114.836,4049.99,-6.74028,2.31629,-2.96647
0.262,3604.5,-3672.41,8262.15,-0.35775,-2.32555,-1.93521,3972.66,3342.53,8274.46,1.08862,1.27978,-3.27142,-298.921,9575.68,-558.882,-9.46887,-3.99718,4.98492,-634.998,-9825.88,-602.109,-10.6433,11.8538,-9.33853,-752.995,9363.05,-938.775,-7.22616,-7.91831,-14.8875,-86.2773,-9945.09,-1492.98,-16.2181,12.4096,17.2241,8742.64,110.988,4090.86,-6.87074,2.41427,-2.8956
0.263,3605.22,-3666.82,8253.85,-0.364712,-2.3369,-1.89303,3972.49,3328.95,8262.15,1.17575,1.22406,-3.20368,-277.81,9584.95,-573.078,-9.53449,-3.9497,4.8634,-643.662,-9850.36,-597.189,-10.6411,11.9047,-9.23376,-745.739,9360.98,-943.456,-7.07495,-7.76132,-14.8961,-100.179,-9965.23,-1492.49,-16.093,12.4676,17.1525,8718.04,119.042,4112.6,-7.10141,2.18861,-2.9308
0.264,3604.43,-3660.47,8249.0,-0.390857,-2.36022,-1.88763,3976.87,3302.26,8242.17,1.2734,1.14211,-3.13634,-246.773,9601.62,-591.961,-9.63671,-3.93581,4.75009,-655.49,-9882.13,-594.206,-10.6218,11.9042,-9.11793,-739.974,9363.79,-953.231,-6.95525,-7.58265,-14.9237,-116.918,-9989.21,-1489.83,-15.96,12.4847,17.08,8684.7,130.496,4128.87,-7.36072,1.87048,-2.99631
0.265,3603.64,-3654.11,8244.14,-0.417003,-2.38354,-1.88223,3981.25,3275.58,8222.18,1.37105,1.06017,-3.06901,-215.736,9618.3,-610.845,-9.73894,-3.92191,4.63678,-667.319,-9913.89,-591.223,-10.6025,11.9038,-9.0021,-734.21,9366.59,-963.006,-6.83555,-7.40397,-14.9514,-133.658,-10013.2,-1487.17,-15.8269,12.5018,17.0075,8651.36,141.95,4145.13,-7.62003,1.55235,-3.06183
0.266,3602.85,-3647.75,8239.29,-0.443148,-2.40686,-1.87683,3985.63,3248.89,8202.19,1.4687,0.978226,-3.00168,-184.698,9634.97,-629.729,-9.84117,-3.90801,4.52347,-679.147,-9945.66,-588.24,-10.5832,11.9033,-8.88627,-728.445,9369.4,-972.781,-6.71585,-7.2253,-14.9791,-150.398,-10037.2,-1484.51,-15.6939,12.5189,16.9349,8618.02,153.404,4161.4,-7.87934,1.23422,-3.12734
0.267,3604.07,-3643.5,8247.17,-0.431176,-2.37265,-1.88641,3984.41,3228.77,8183.79,1.55027,0.926892,-2.94559,-161.505,9637.3,-647.877,-9.84257,-3.89139,4.4433,-702.066,-9966.54,-584.547,-10.5814,11.8649,-8.76978,-729.375,9374.12,-979.693,-6.5823,-7.01081,-15.005,-166.512,-10054.8,-1481.33,-15.5814,12.454,16.8335,8596.44,162.483,4174.79,-8.11075,0.973053,-3.19096
0.268,3609.3,-3643.45,8280.51,-0.342969,-2.22337,-1.92595,3972.0,3221.79,8168.59,1.59969,0.936778,-2.91198,-154.0,9610.94,-664.551,-9.64231,-3.86931,4.4294,-747.167,-9965.65,-579.433,-10.6148,11.7503,-8.65196,-743.695,9382.65,-980.88,-6.42105,-6.72467,-15.0272,-181.375,-10059.8,-1477.11,-15.5099,12.2249,16.6741,8598.38,166.812,4182.41,-8.28638,0.825802,-3.25079
0.269,3614.53,-3643.4,8313.85,-0.254763,-2.07408,-1.9655,3959.59,3214.81,8153.38,1.64912,0.946664,-2.87836,-146.495,9584.59,-681.225,-9.44204,-3.84724,4.41551,-792.269,-9964.76,-574.32,-10.6481,11.6356,-8.53414,-758.015,9391.19,-982.066,-6.2598,-6.43854,-15.0494,-196.237,-10064.8,-1472.89,-15.4384,11.9959,16.5148,8600.33,171.141,4190.04,-8.46202,0.678552,-3.31062
0.27,3619.76,-3643.36,8347.19,-0.166556,-1.9248,-2.00504,3947.18,3207.83,8138.18,1.69854,0.95655,-2.84475,-138.99,9558.23,-697.898,-9.24178,-3.82516,4.40161,-837.37,-9963.86,-569.206,-10.6814,11.521,-8.41632,-772.335,9399.73,-983.252,-6.09855,-6.1524,-15.0716,-211.1,-10069.9,-1468.67,-15.367,11.7668,16.3554,8602.28,175.471,4197.67,-8.63765,0.531302,-3.37046
0.271,3624.99,-3643.31,8380.53,-0.0783493,-1.77552,-2.04458,3934.76,3200.85,8122.97,1.74796,0.966435,-2.81114,-131.486,9531.88,-714.572,-9.04152,-3.80308,4.38771,-882.471,-9962.97,-564.092,-10.7148,11.4064,-8.29849,-786.655,9408.26,-984.439,-5.93729,-5.86626,-15.0938,-225.963,-10074.9,-1464.45,-15.2955,11.5378,16.1961,8604.22,179.8,4205.3,-8.81328,0.384051,-3.43029
0.272,3623.88,-3658.43,8374.08,-0.107916,-1.72604,-2.06473,3942.31,3202.21,8148.02,1.95937,0.968218,-2.86198,-125.59,9563.12,-697.416,-8.91818,-3.73133,4.36901,-897.302,-9957.4,-564.963,-10.7005,11.2475,-8.23248,-773.732,9405.32,-972.783,-5.89756,-5.7438,-15.0391,-243.116,-10065.8,-1466.06,-15.2932,11.1704,16.0293,8622.62,167.176,4199.43,-8.96452,0.329346,-3.41623
0.273,3621.98,-3675.45,8362.65,-0.152203,-1.68903,-2.08246,3952.35,3204.61,8178.1,2.19101,0.968987,-2.92338,-119.896,9601.56,-676.031,-8.80446,-3.65336,4.3497,-908.35,-9951.24,-566.581,-10.6804,11.0831,-8.17294,-757.404,9400.94,-959.521,-5.87303,-5.64181,-14.9748,-260.555,-10055.0,-1468.41,-15.2996,10.7858,15.8615,8643.08,152.433,4191.88,-9.11272,0.286208,-3.39293
0.274,3620.08,-3692.47,8351.23,-0.196491,-1.65203,-2.10018,3962.39,3207.02,8208.19,2.42266,0.969757,-2.98478,-114.202,9640.0,-654.646,-8.69073,-3.57539,4.3304,-919.397,-9945.08,-568.2,-10.6603,10.9186,-8.1134,-741.075,9396.56,-946.26,-5.84849,-5.53981,-14.9104,-277.994,-10044.2,-1470.75,-15.3061,10.4011,15.6938,8663.53,137.689,4184.34,-9.26092,0.243071,-3.36964
0.275,3618.17,-3709.49,8339.81,-0.240779,-1.61502,-2.11791,3972.44,3209.42,8238.27,2.65431,0.970526,-3.04617,-108.508,9678.45,-633.261,-8.57701,-3.49742,4.3111,-930.444,-9938.93,-569.818,-10.6401,10.7541,-8.05387,-724.747,9392.17,-932.998,-5.82395,-5.43782,-14.8461,-295.433,-10033.4,-1473.09,-15.3125,10.0164,15.526,8683.99,122.946,4176.79,-9.40911,0.199933,-3.34634
0.276,3611.03,-3723.86,8326.02,-0.242504,-1.62589,-2.08022,3979.28,3198.44,8263.39,2.79491,0.999071,-3.03342,-106.032,9694.41,-614.996,-8.52453,-3.43558,4.27041,-933.955,-9930.71,-570.371,-10.5864,10.5435,-7.99433,-711.099,9398.02,-920.859,-5.81106,-5.33342,-14.7836,-306.475,-10026.2,-1470.23,-15.333,9.70588,15.3628,8698.64,107.561,4172.16,-9.30416,0.172978,-3.30405
0.277,3597.33,-3734.92,8309.27,-0.191026,-1.6966,-1.97326,3982.12,3170.72,8282.32,2.82171,1.06233,-2.92798,-107.577,9682.27,-600.631,-8.5486,-3.39389,4.20301,-928.046,-9919.91,-569.592,-10.4909,10.275,-7.9348,-700.803,9416.65,-910.122,-5.81272,-5.22602,-14.7232,-309.519,-10023.6,-1460.85,-15.3712,9.48793,15.2051,8706.04,91.3746,4171.17,-8.88279,0.166248,-3.23803
0.278,3583.64,-3745.98,8292.53,-0.139547,-1.76731,-1.8663,3984.97,3143.0,8301.24,2.8485,1.1256,-2.82254,-109.123,9670.13,-586.266,-8.57268,-3.3522,4.13561,-922.137,-9909.12,-568.813,-10.3953,10.0066,-7.87526,-690.506,9435.28,-899.385,-5.81439,-5.11862,-14.6629,-312.563,-10021.0,-1451.47,-15.4094,9.26997,15.0475,8713.44,75.1878,4170.19,-8.46142,0.159519,-3.172
0.279,3569.94,-3757.04,8275.78,-0.0880684,-1.83802,-1.75934,3987.81,3115.28,8320.17,2.8753,1.18886,-2.7171,-110.668,9657.99,-571.9,-8.59675,-3.31051,4.06821,-916.228,-9898.33,-568.034,-10.2998,9.73812,-7.81573,-680.21,9453.91,-888.648,-5.81605,-5.01122,-14.6025,-315.607,-10018.4,-1442.1,-15.4477,9.05201,14.8899,8720.84,59.001,4169.21,-8.04005,0.15279,-3.10598
0.28,3556.25,-3768.09,8259.03,-0.0365898,-1.90873,-1.65238,3990.65,3087.57,8339.1,2.90209,1.25212,-2.61167,-112.214,9645.85,-557.535,-8.62082,-3.26882,4.00081,-910.319,-9887.53,-567.255,-10.2042,9.46968,-7.75619,-669.913,9472.54,-877.911,-5.81771,-4.90382,-14.5422,-318.65,-10015.8,-1432.72,-15.4859,8.83406,14.7322,8728.24,42.8142,4168.23,-7.61867,0.146061,-3.03996
0.281,3565.95,-3732.81,8259.97,-0.0283571,-1.73526,-1.61312,3981.97,3110.91,8313.94,2.80753,1.21522,-2.65087,-122.113,9631.25,-565.255,-8.48397,-3.23995,3.87039,-923.157,-9873.69,-571.088,-10.2551,8.99735,-7.7729,-678.427,9497.83,-863.089,-5.74493,-4.67076,-14.5774,-315.442,-10013.5,-1429.71,-15.5163,8.59902,14.5387,8721.16,58.3899,4146.99,-7.17184,0.115525,-3.01498
0.282,3575.65,-3697.52,8260.91,-0.0201244,-1.56178,-1.57385,3973.28,3134.26,8288.78,2.71297,1.17832,-2.69007,-132.012,9616.65,-572.975,-8.34713,-3.21108,3.73997,-935.996,-9859.85,-574.921,-10.3059,8.52503,-7.78961,-686.941,9523.12,-848.267,-5.67215,-4.4377,-14.6127,-312.234,-10011.3,-1426.69,-15.5467,8.36399,14.3452,8714.08,73.9657,4125.75,-6.725,0.0849882,-2.99001
0.283,3585.35,-3662.23,8261.85,-0.0118917,-1.38831,-1.53458,3964.59,3157.61,8263.62,2.61841,1.14141,-2.72928,-141.911,9602.05,-580.694,-8.21028,-3.18221,3.60956,-948.835,-9846.01,-578.754,-10.3567,8.05271,-7.80632,-695.454,9548.41,-833.445,-5.59938,-4.20464,-14.6479,-309.025,-10009.0,-1423.68,-15.5772,8.12895,14.1517,8707.0,89.5415,4104.51,-6.27816,0.0544518,-2.96503
0.284,3595.05,-3626.94,8262.79,-0.00365898,-1.21483,-1.49532,3955.9,3180.95,8238.46,2.52385,1.10451,-2.76848,-151.81,9587.45,-588.414,-8.07343,-3.15333,3.47914,-961.674,-9832.17,-582.587,-10.4076,7.58039,-7.82303,-703.968,9573.7,-818.622,-5.5266,-3.97158,-14.6832,-305.817,-10006.8,-1420.67,-15.6076,7.89391,13.9582,8699.92,105.117,4083.28,-5.83132,0.0239154,-2.94006
0.285,3594.22,-3619.01,8265.02,0.0412142,-1.13205,-1.42811,3950.09,3187.09,8226.09,2.50989,1.08042,-2.73514,-159.335,9588.83,-586.794,-8.01398,-3.16622,3.37869,-969.377,-9822.22,-584.423,-10.4161,7.06419,-7.86194,-708.024,9587.91,-805.544,-5.45686,-3.81834,-14.6407,-306.038,-10001.1,-1421.92,-15.5946,7.60323,13.7985,8681.95,127.34,4062.57,-5.56053,-0.0972115,-2.89608
0.286,3584.97,-3632.95,8268.29,0.1154,-1.12183,-1.33855,3946.57,3179.46,8223.95,2.56041,1.06658,-2.64376,-164.962,9603.0,-577.703,-8.01644,-3.21252,3.30222,-972.972,-9815.38,-584.662,-10.3909,6.51291,-7.91863,-708.514,9593.27,-793.862,-5.38956,-3.72895,-14.536,-309.003,-9992.71,-1426.59,-15.5468,7.26803,13.6659,8655.26,154.881,4042.28,-5.43059,-0.290811,-2.8369
0.287,3575.71,-3646.9,8271.55,0.189585,-1.1116,-1.24899,3943.05,3171.83,8221.82,2.61093,1.05274,-2.55238,-170.589,9617.17,-568.612,-8.0189,-3.25881,3.22576,-976.567,-9808.54,-584.9,-10.3656,5.96162,-7.97532,-709.004,9598.62,-782.179,-5.32226,-3.63956,-14.4313,-311.967,-9984.3,-1431.25,-15.499,6.93283,13.5333,8628.58,182.421,4021.99,-5.30064,-0.48441,-2.77772
0.288,3566.46,-3660.84,8274.82,0.263771,-1.10138,-1.15942,3939.53,3164.2,8219.68,2.66146,1.0389,-2.461,-176.216,9631.34,-559.52,-8.02136,-3.3051,3.14929,-980.162,-9801.71,-585.138,-10.3404,5.41033,-8.032,-709.493,9603.97,-770.496,-5.25496,-3.55017,-14.3266,-314.932,-9975.88,-1435.92,-15.4512,6.59763,13.4007,8601.89,209.962,4001.71,-5.17069,-0.678009,-2.71854
0.289,3560.83,-3672.59,8277.43,0.323677,-1.07994,-1.07875,3934.32,3162.97,8216.24,2.71113,1.02731,-2.38175,-181.797,9645.45,-549.929,-8.01184,-3.3548,3.07723,-983.146,-9797.83,-586.882,-10.3186,4.86112,-8.0832,-709.127,9610.16,-759.757,-5.20009,-3.47852,-14.2173,-316.281,-9967.88,-1441.42,-15.404,6.26753,13.2749,8580.48,232.84,3984.95,-5.04945,-0.842256,-2.66113
0.29,3584.18,-3666.77,8274.81,0.269344,-0.968761,-1.0692,3915.62,3212.97,8202.43,2.75397,1.03369,-2.39944,-187.009,9659.07,-536.337,-7.90653,-3.43169,3.04048,-981.244,-9817.63,-600.665,-10.3246,4.32854,-8.09056,-701.909,9623.0,-756.569,-5.24474,-3.54884,-14.0711,-304.704,-9963.17,-1453.61,-15.3613,5.97821,13.203,8601.23,218.427,3996.41,-4.9978,-0.771681,-2.61791
0.291,3607.54,-3660.96,8272.18,0.215011,-0.857582,-1.05964,3896.91,3262.96,8188.63,2.79682,1.04007,-2.41713,-192.221,9672.69,-522.745,-7.80123,-3.50858,3.00373,-979.342,-9837.42,-614.449,-10.3307,3.79597,-8.09793,-694.692,9635.84,-753.381,-5.28938,-3.61916,-13.9248,-293.127,-9958.46,-1465.81,-15.3186,5.68889,13.1312,8621.99,204.013,4007.88,-4.94616,-0.701107,-2.57469
0.292,3630.89,-3655.15,8269.56,0.160678,-0.746403,-1.05008,3878.2,3312.95,8174.82,2.83966,1.04645,-2.43482,-197.434,9686.31,-509.153,-7.69592,-3.58547,2.96698,-977.44,-9857.22,-628.233,-10.3368,3.26339,-8.10528,-687.474,9648.68,-750.193,-5.33403,-3.68948,-13.7786,-281.551,-9953.75,-1478.0,-15.2759,5.39957,13.0594,8642.74,189.6,4019.35,-4.89452,-0.630532,-2.53147
0.293,3654.24,-3649.33,8266.94,0.106345,-0.635224,-1.04053,3859.5,3362.95,8161.02,2.88251,1.05283,-2.45252,-202.646,9699.93,-495.562,-7.59061,-3.66236,2.93023,-975.537,-9877.02,-642.016,-10.3428,2.73081,-8.11265,-680.257,9661.52,-747.005,-5.37867,-3.7598,-13.6324,-269.974,-9949.04,-1490.2,-15.2331,5.11025,12.9876,8663.49,175.186,4030.81,-4.84287,-0.559958,-2.48825
0.294,3645.77,-3639.6,8274.47,-0.0338729,-0.464362,-0.969898,3873.22,3369.27,8161.45,2.94774,1.11075,-2.49838,-191.763,9700.82,-463.759,-7.53042,-3.76386,2.8929,-986.141,-9887.05,-649.081,-10.3718,2.24555,-8.07244,-681.302,9668.17,-736.838,-5.46127,-3.77506,-13.4791,-247.389,-9949.78,-1499.25,-15.182,4.801,12.9358,8685.24,168.657,4063.5,-4.63964,-0.386588,-2.5163
0.295,3621.38,-3627.92,8287.09,-0.217033,-0.263658,-0.868734,3903.16,3353.75,8169.0,3.02417,1.19444,-2.55833,-172.832,9695.33,-422.851,-7.4928,-3.87766,2.85528,-1003.0,-9892.2,-652.786,-10.4122,1.78395,-8.00844,-686.477,9671.73,-723.182,-5.56285,-3.76278,-13.3223,-219.3,-9953.24,-1506.73,-15.1267,4.48179,12.8938,8707.49,166.068,4106.81,-4.36061,-0.161821,-2.57999
0.296,3596.99,-3616.23,8299.7,-0.400193,-0.0629543,-0.76757,3933.11,3338.23,8176.56,3.10059,1.27813,-2.61828,-153.902,9689.84,-381.942,-7.45518,-3.99147,2.81766,-1019.86,-9897.35,-656.491,-10.4526,1.32234,-7.94445,-691.653,9675.28,-709.526,-5.66442,-3.7505,-13.1655,-191.211,-9956.7,-1514.2,-15.0714,4.16259,12.8519,8729.74,163.48,4150.12,-4.08158,0.0629455,-2.64367
0.297,3572.6,-3604.55,8312.31,-0.583353,0.13775,-0.666406,3963.05,3322.72,8184.11,3.17702,1.36181,-2.67823,-134.971,9684.35,-341.034,-7.41755,-4.10528,2.78003,-1036.71,-9902.5,-660.196,-10.493,0.86074,-7.88046,-696.829,9678.83,-695.87,-5.766,-3.73823,-13.0087,-163.122,-9960.16,-1521.68,-15.0161,3.84338,12.81,8751.99,160.892,4193.42,-3.80256,0.287712,-2.70735
0.298,3545.76,-3588.56,8322.14,-0.700769,0.294625,-0.611368,3987.7,3304.91,8193.68,3.22353,1.43489,-2.71066,-122.571,9685.74,-310.285,-7.36302,-4.22096,2.72051,-1050.31,-9904.65,-662.833,-10.5048,0.425396,-7.80891,-699.61,9682.31,-685.638,-5.85036,-3.71003,-12.8412,-139.699,-9965.18,-1524.7,-14.9677,3.52357,12.763,8770.88,167.224,4225.36,-3.60156,0.414169,-2.71204
0.299,3510.35,-3557.53,8322.24,-0.588085,0.298099,-0.717771,3993.84,3279.06,8210.29,3.16532,1.47081,-2.64675,-133.026,9711.21,-315.096,-7.24928,-4.34322,2.58436,-1052.51,-9896.3,-661.735,-10.4161,0.0819615,-7.71091,-694.008,9685.54,-687.389,-5.87448,-3.6261,-12.6362,-132.606,-9975.7,-1512.11,-14.9435,3.20167,12.6985,8778.04,204.776,4217.49,-3.67368,0.196537,-2.51025
0.3,3474.94,-3526.49,8322.35,-0.4754,0.301573,-0.824173,3999.98,3253.21,8226.89,3.10712,1.50673,-2.58285,-143.482,9736.67,-319.908,-7.13555,-4.46549,2.4482,-1054.7,-9887.95,-660.636,-10.3274,-0.261473,-7.61291,-688.406,9688.78,-689.139,-5.89859,-3.54218,-12.4313,-125.512,-9986.21,-1499.53,-14.9192,2.87976,12.6339,8785.2,242.329,4209.63,-3.74579,-0.0210944,-2.30847
0.301,3439.54,-3495.45,8322.45,-0.362715,0.305047,-0.930576,4006.12,3227.36,8243.5,3.04891,1.54266,-2.51895,-153.937,9762.14,-324.719,-7.02181,-4.58775,2.31204,-1056.9,-9879.6,-659.537,-10.2387,-0.604908,-7.51491,-682.805,9692.01,-690.89,-5.92271,-3.45826,-12.2264,-118.419,-9996.73,-1486.94,-14.895,2.55785,12.5694,8792.35,279.881,4201.76,-3.81791,-0.238726,-2.10668
0.302,3404.13,-3464.42,8322.55,-0.25003,0.308521,-1.03698,4012.26,3201.51,8260.11,2.9907,1.57858,-2.45504,-164.393,9787.6,-329.53,-6.90808,-4.71001,2.17588,-1059.09,-9871.25,-658.439,-10.15,-0.948342,-7.41691,-677.203,9695.24,-692.641,-5.94683,-3.37433,-12.0215,-111.326,-10007.2,-1474.35,-14.8708,2.23595,12.5048,8799.51,317.433,4193.9,-3.89003,-0.456357,-1.90489
0.303,3415.66,-3487.35,8317.78,-0.28803,0.328667,-1.0069,3995.62,3185.41,8239.32,2.95589,1.61593,-2.46132,-168.477,9788.67,-337.449,-6.88354,-4.789,2.06683,-1034.05,-9877.3,-658.757,-10.0346,-1.32299,-7.37309,-676.122,9670.96,-697.323,-5.92163,-3.29169,-11.9116,-119.157,-10009.8,-1466.47,-14.7892,1.84645,12.4082,8812.15,323.479,4182.89,-4.00556,-0.674163,-1.87469
0.304,3440.61,-3525.71,8311.62,-0.369083,0.353577,-0.937834,3972.47,3172.09,8207.85,2.92776,1.65369,-2.48765,-170.742,9782.77,-346.257,-6.8845,-4.85563,1.96552,-1001.22,-9887.45,-659.481,-9.91155,-1.70657,-7.34474,-676.332,9638.82,-702.841,-5.88235,-3.2094,-11.829,-131.252,-10010.0,-1459.94,-14.6912,1.43764,12.3024,8826.35,320.524,4170.99,-4.1335,-0.892017,-1.89353
0.305,3465.55,-3564.06,8305.46,-0.450136,0.378487,-0.868764,3949.32,3158.77,8176.38,2.89963,1.69145,-2.51398,-173.006,9776.87,-355.064,-6.88545,-4.92225,1.86421,-968.401,-9897.6,-660.204,-9.78851,-2.09014,-7.3164,-676.542,9606.68,-708.359,-5.84307,-3.12712,-11.7464,-143.347,-10010.3,-1453.41,-14.5933,1.02883,12.1965,8840.55,317.568,4159.08,-4.26144,-1.10987,-1.91236
0.306,3490.5,-3602.42,8299.3,-0.531189,0.403397,-0.799694,3926.17,3145.46,8144.91,2.8715,1.72921,-2.54031,-175.271,9770.97,-363.871,-6.8864,-4.98887,1.7629,-935.578,-9907.76,-660.928,-9.66546,-2.47371,-7.28805,-676.752,9574.54,-713.878,-5.80379,-3.04484,-11.6637,-155.442,-10010.5,-1446.88,-14.4953,0.620024,12.0907,8854.75,314.612,4147.18,-4.38937,-1.32773,-1.93119
0.307,3495.73,-3633.27,8296.44,-0.565319,0.429251,-0.725908,3909.4,3144.67,8125.84,2.83991,1.74056,-2.51568,-174.963,9759.53,-369.532,-6.88256,-5.00714,1.68864,-909.842,-9914.1,-659.209,-9.54009,-2.82334,-7.27582,-685.407,9548.7,-724.929,-5.75238,-2.92958,-11.6086,-162.727,-10008.2,-1442.33,-14.4095,0.21636,11.9451,8853.39,315.816,4144.0,-4.49291,-1.49313,-1.96771
0.308,3461.54,-3649.12,8300.16,-0.505602,0.456991,-0.642687,3905.37,3168.95,8131.59,2.80139,1.69907,-2.38916,-169.511,9737.01,-368.9,-6.86915,-4.92868,1.66847,-898.283,-9912.81,-652.606,-9.41005,-3.10508,-7.29581,-710.951,9535.45,-747.047,-5.6767,-2.74839,-11.6084,-160.392,-10000.5,-1441.76,-14.348,-0.177012,11.7201,8820.88,325.339,4158.27,-4.54763,-1.55361,-2.03958
0.309,3427.35,-3664.97,8303.88,-0.445885,0.484731,-0.559466,3901.34,3193.22,8137.34,2.76288,1.65759,-2.26264,-164.058,9714.5,-368.267,-6.85573,-4.85023,1.6483,-886.723,-9911.52,-646.003,-9.28001,-3.38682,-7.3158,-736.495,9522.21,-769.165,-5.60103,-2.5672,-11.6082,-158.057,-9992.9,-1441.19,-14.2865,-0.570385,11.4951,8788.38,334.862,4172.54,-4.60236,-1.6141,-2.11146
0.31,3393.17,-3680.82,8307.61,-0.386167,0.512472,-0.476246,3897.31,3217.5,8143.08,2.72436,1.61611,-2.13611,-158.606,9691.98,-367.635,-6.84232,-4.77177,1.62813,-875.163,-9910.23,-639.401,-9.14997,-3.66856,-7.33579,-762.039,9508.96,-791.283,-5.52536,-2.386,-11.608,-155.722,-9985.27,-1440.62,-14.225,-0.963758,11.27,8755.87,344.385,4186.81,-4.65708,-1.67459,-2.18334
0.311,3358.98,-3696.67,8311.33,-0.32645,0.540212,-0.393025,3893.29,3241.77,8148.83,2.68584,1.57462,-2.00959,-153.154,9669.46,-367.003,-6.8289,-4.69332,1.60796,-863.604,-9908.94,-632.798,-9.01993,-3.9503,-7.35578,-787.584,9495.72,-813.4,-5.44968,-2.20481,-11.6078,-153.387,-9977.64,-1440.05,-14.1635,-1.35713,11.045,8723.37,353.908,4201.08,-4.71181,-1.73508,-2.25522
0.312,3371.99,-3697.19,8311.93,-0.293391,0.49751,-0.427208,3906.67,3248.76,8166.62,2.77313,1.62191,-1.94908,-139.176,9677.48,-367.337,-6.64324,-4.68399,1.55105,-856.615,-9894.46,-629.01,-9.02316,-4.02,-7.26004,-787.456,9492.44,-839.736,-5.3265,-1.95722,-11.5211,-144.96,-9978.1,-1450.5,-14.0535,-1.82847,10.9035,8688.41,329.421,4213.55,-4.88871,-1.69001,-2.31254
0.313,3390.9,-3695.79,8312.14,-0.263665,0.446002,-0.476067,3922.23,3253.6,8185.91,2.87614,1.6803,-1.89683,-124.134,9689.31,-367.793,-6.43605,-4.68331,1.48954,-850.197,-9878.34,-625.573,-9.04305,-4.06319,-7.14983,-784.12,9490.42,-866.598,-5.19739,-1.70133,-11.4235,-135.772,-9979.57,-1462.32,-13.9375,-2.30956,10.7724,8653.15,300.683,4225.81,-5.08088,-1.63175,-2.36806
0.314,3409.81,-3694.4,8312.34,-0.233938,0.394495,-0.524925,3937.78,3258.43,8205.21,2.97915,1.73869,-1.84457,-109.091,9701.15,-368.249,-6.22886,-4.68263,1.42803,-843.779,-9862.21,-622.137,-9.06294,-4.10639,-7.03962,-780.784,9488.39,-893.46,-5.06827,-1.44544,-11.326,-126.583,-9981.05,-1474.15,-13.8215,-2.79064,10.6414,8617.89,271.944,4238.06,-5.27305,-1.57348,-2.42357
0.315,3428.72,-3693.0,8312.55,-0.204211,0.342988,-0.573784,3953.34,3263.26,8224.5,3.08216,1.79707,-1.79232,-94.0479,9712.98,-368.704,-6.02166,-4.68194,1.36653,-837.361,-9846.09,-618.7,-9.08283,-4.14958,-6.92941,-777.447,9486.36,-920.322,-4.93915,-1.18955,-11.2284,-117.395,-9982.52,-1485.97,-13.7055,-3.27173,10.5103,8582.63,243.206,4250.32,-5.46521,-1.51522,-2.47908
0.316,3446.57,-3691.72,8321.98,-0.199098,0.319378,-0.548461,3956.26,3273.98,8224.89,3.13185,1.80391,-1.77088,-68.9657,9724.89,-379.014,-5.88801,-4.69855,1.26906,-818.39,-9832.66,-617.66,-9.1371,-4.15975,-6.79248,-773.596,9487.9,-930.72,-4.8291,-0.986278,-11.1403,-115.552,-9981.5,-1496.19,-13.6133,-3.71326,10.3907,8569.54,219.009,4254.64,-5.62838,-1.52335,-2.58788
0.317,3463.1,-3690.59,8342.93,-0.224752,0.33064,-0.43041,3943.39,3292.04,8201.64,3.11489,1.74631,-1.78798,-31.3344,9736.9,-401.642,-5.84629,-4.73677,1.12665,-783.728,-9822.58,-619.613,-9.23435,-4.12865,-6.62213,-769.099,9493.89,-920.536,-4.74287,-0.848781,-11.0639,-122.891,-9977.34,-1504.4,-13.5508,-4.10534,10.2855,8584.15,200.489,4249.04,-5.75529,-1.6145,-2.7633
0.318,3479.63,-3689.46,8363.88,-0.250406,0.341902,-0.31236,3930.52,3310.1,8178.4,3.09793,1.68871,-1.80508,6.29689,9748.91,-424.269,-5.80457,-4.77499,0.984231,-749.065,-9812.51,-621.567,-9.3316,-4.09755,-6.45178,-764.603,9499.88,-910.352,-4.65665,-0.711284,-10.9876,-130.23,-9973.19,-1512.62,-13.4883,-4.49742,10.1802,8598.76,181.968,4243.44,-5.88221,-1.70565,-2.93872
0.319,3496.16,-3688.33,8384.83,-0.27606,0.353165,-0.194309,3917.65,3328.17,8155.16,3.08097,1.63111,-1.82218,43.9282,9760.92,-446.897,-5.76285,-4.8132,0.841816,-714.403,-9802.44,-623.521,-9.42884,-4.06645,-6.28143,-760.107,9505.87,-900.168,-4.57043,-0.573788,-10.9112,-137.569,-9969.04,-1520.83,-13.4259,-4.8895,10.075,8613.37,163.448,4237.85,-6.00912,-1.79679,-3.11414
0.32,3512.7,-3687.2,8405.78,-0.301714,0.364427,-0.0762583,3904.77,3346.23,8131.91,3.06401,1.57351,-1.83927,81.5595,9772.92,-469.525,-5.72112,-4.85142,0.699401,-679.74,-9792.37,-625.475,-9.52608,-4.03535,-6.11109,-755.61,9511.86,-889.984,-4.48421,-0.436291,-10.8349,-144.908,-9964.89,-1529.05,-13.3634,-5.28158,9.9697,8627.98,144.928,4232.25,-6.13603,-1.88794,-3.28955
0.321,3495.15,-3674.47,8398.97,-0.288987,0.418764,-0.261678,3912.9,3325.91,8147.89,2.9705,1.68351,-1.77804,84.372,9771.46,-489.622,-5.77372,-4.83194,0.533946,-645.321,-9796.04,-640.418,-9.50787,-3.92277,-5.94827,-760.173,9522.63,-883.049,-4.46403,-0.317834,-10.6976,-137.681,-9935.49,-1524.7,-13.2525,-5.56866,9.84929,8622.26,148.555,4232.85,-6.18898,-2.14825,-3.37618
0.322,3477.6,-3661.74,8392.16,-0.276259,0.473102,-0.447097,3921.02,3305.58,8163.87,2.877,1.79351,-1.7168,87.1845,9769.99,-509.719,-5.82632,-4.81246,0.368492,-610.903,-9799.71,-655.362,-9.48965,-3.8102,-5.78544,-764.736,9533.4,-876.113,-4.44385,-0.199377,-10.5604,-130.455,-9906.1,-1520.35,-13.1415,-5.85575,9.72888,8616.54,152.183,4233.46,-6.24193,-2.40856,-3.46281
0.323,3460.06,-3649.01,8385.34,-0.263532,0.52744,-0.632517,3929.15,3285.26,8179.85,2.78349,1.90351,-1.65556,89.9969,9768.52,-529.816,-5.87892,-4.79298,0.203037,-576.484,-9803.38,-670.306,-9.47144,-3.69763,-5.62262,-769.299,9544.17,-869.177,-4.42367,-0.0809205,-10.4231,-123.229,-9876.71,-1516.0,-13.0306,-6.14283,9.60847,8610.81,155.81,4234.06,-6.29488,-2.66888,-3.54944
0.324,3442.51,-3636.27,8378.53,-0.250805,0.581777,-0.817936,3937.27,3264.93,8195.83,2.68998,2.01351,-1.59432,92.8094,9767.05,-549.914,-5.93152,-4.77349,0.037582,-542.065,-9807.05,-685.25,-9.45322,-3.58505,-5.4598,-773.862,9554.94,-862.242,-4.40349,0.0375362,-10.2859,-116.002,-9847.31,-1511.66,-12.9197,-6.42991,9.48807,8605.09,159.438,4234.66,-6.34783,-2.92919,-3.63606
0.325,3418.49,-3637.62,8361.17,-0.328308,0.591317,-0.932503,3948.99,3245.31,8212.45,2.71205,2.00881,-1.61524,83.0017,9778.37,-562.519,-5.93783,-4.66724,-0.0780483,-523.948,-9803.29,-703.519,-9.41634,-3.3636,-5.25874,-767.747,9563.96,-853.439,-4.39449,0.0940537,-10.1633,-109.056,-9825.57,-1504.25,-12.8248,-6.76407,9.3258,8610.3,155.522,4237.72,-6.23897,-3.05128,-3.58099
0.326,3389.29,-3650.23,8335.37,-0.477995,0.565019,-0.990387,3963.56,3226.25,8229.58,2.82659,1.91234,-1.70189,63.0978,9799.9,-569.13,-5.90711,-4.49156,-0.153819,-518.872,-9793.59,-724.45,-9.36452,-3.05503,-5.0271,-753.089,9571.57,-843.142,-4.39445,0.10102,-10.0525,-102.333,-9809.94,-1494.41,-12.7428,-7.13589,9.13006,8624.26,145.572,4242.75,-6.00068,-3.06279,-3.41256
0.327,3360.09,-3662.84,8309.57,-0.627682,0.538721,-1.04827,3978.14,3207.18,8246.7,2.94112,1.81587,-1.78854,43.1938,9821.43,-575.742,-5.87639,-4.31588,-0.22959,-513.797,-9783.88,-745.38,-9.31271,-2.74646,-4.79545,-738.431,9579.18,-832.845,-4.39441,0.107986,-9.94175,-95.6102,-9794.32,-1484.57,-12.6607,-7.50771,8.93431,8638.22,135.622,4247.77,-5.76239,-3.07429,-3.24413
