Time,RFoot_accel.x,RFoot_accel.y,RFoot_accel.z,RFoot_gyro.x,RFoot_gyro.y,RFoot_gyro.z,LFoot_accel.x,LFoot_accel.y,LFoot_accel.z,LFoot_gyro.x,LFoot_gyro.y,LFoot_gyro.z,RShank_accel.x,RShank_accel.y,RShank_accel.z,RShank_gyro.x,RShank_gyro.y,RShank_gyro.z,LShank_accel.x,LShank_accel.y,LShank_accel.z,LShank_gyro.x,LShank_gyro.y,LShank_gyro.z,RThigh_accel.x,RThigh_accel.y,RThigh_accel.z,RThigh_gyro.x,RThigh_gyro.y,RThigh_gyro.z,LThigh_accel.x,LThigh_accel.y,LThigh_accel.z,LThigh_gyro.x,LThigh_gyro.y,LThigh_gyro.z,Pelvis_accel.x,Pelvis_accel.y,Pelvis_accel.z,Pelvis_gyro.x,Pelvis_gyro.y,Pelvis_gyro.z
0.0,3429.43,-3592.16,8423.32,-0.73224,-0.827501,1.31654,3902.44,3449.6,8235.9,-1.15856,-1.03789,-1.28224,-151.376,9817.45,-474.973,-1.64299,2.02275,7.23586,-943.553,-9915.46,-733.621,-3.49083,-1.63847,-3.71255,-2782.11,9376.09,-765.467,-2.3268,12.6207,-5.02895,-695.982,-9907.21,-1907.11,-5.87436,-0.88757,-0.260524,8959.07,737.422,3864.2,3.35553,8.84827,-3.47794
0.001,3414.67,-3579.58,8425.48,-0.7124,-0.817496,1.32848,3919.1,3439.18,8231.7,-1.15964,-1.07224,-1.31623,-128.131,9812.66,-505.771,-1.59114,1.97396,7.29348,-922.306,-9916.35,-731.691,-3.56083,-1.52837,-3.63195,-2799.05,9393.82,-760.951,-2.27557,12.1654,-5.05712,-677.738,-9883.22,-1906.46,-5.99294,-0.733024,-0.297583,8973.12,745.116,3849.18,3.42599,8.94331,-3.54663
0.002,3399.91,-3566.99,8427.63,-0.69256,-0.807491,1.34042,3935.75,3428.75,8227.49,-1.16072,-1.10659,-1.35022,-104.886,9807.87,-536.57,-1.53929,1.92516,7.35109,-901.06,-9917.25,-729.761,-3.63083,-1.41828,-3.55136,-2815.99,9411.54,-756.434,-2.22433,11.7101,-5.08529,-659.495,-9859.23,-1905.82,-6.11152,-0.578479,-0.334642,8987.17,752.809,3834.16,3.49644,9.03836,-3.61532
0.003,3385.16,-3554.4,8429.79,-0.67272,-0.797485,1.35235,3952.41,3418.32,8223.29,-1.16181,-1.14094,-1.38421,-81.6413,9803.08,-567.368,-1.48743,1.87636,7.40871,-879.814,-9918.15,-727.83,-3.70083,-1.30818,-3.47076,-2832.93,9429.26,-751.918,-2.17309,11.2548,-5.11347,-641.251,-9835.24,-1905.18,-6.23009,-0.423934,-0.371701,9001.21,760.503,3819.14,3.5669,9.1334,-3.68402
0.004,3370.4,-3541.82,8431.95,-0.65288,-0.78748,1.36429,3969.06,3407.89,8219.08,-1.16289,-1.17529,-1.4182,-58.3965,9798.29,-598.166,-1.43558,1.82756,7.46633,-858.568,-9919.04,-725.9,-3.77082,-1.19808,-3.39016,-2849.87,9446.99,-747.402,-2.12186,10.7995,-5.14164,-623.008,-9811.25,-1904.54,-6.34867,-0.269389,-0.40876,9015.26,768.197,3804.12,3.63735,9.22844,-3.75271
0.005,3365.42,-3532.53,8424.78,-0.651009,-0.838171,1.36824,3981.64,3405.67,8209.95,-1.18972,-1.19032,-1.44939,-55.1198,9806.21,-610.966,-1.4031,1.73897,7.44562,-843.968,-9909.09,-715.829,-3.82066,-1.03529,-3.25286,-2856.66,9456.94,-744.995,-2.07601,10.4481,-5.04479,-601.281,-9807.69,-1902.93,-6.47097,-0.0413719,-0.450346,9023.14,780.361,3800.35,3.7599,9.2164,-3.78308
0.006,3368.25,-3525.9,8410.17,-0.663513,-0.937418,1.3658,3990.97,3410.02,8196.88,-1.23714,-1.1899,-1.47834,-67.8174,9824.28,-609.367,-1.38612,1.61854,7.36225,-834.686,-9890.46,-699.245,-3.85438,-0.830339,-3.07019,-2855.34,9460.67,-744.277,-2.03449,10.1798,-4.84792,-576.767,-9820.48,-1900.56,-6.59625,0.245422,-0.495555,9026.09,796.103,3805.57,3.92412,9.11869,-3.78279
0.007,3371.09,-3519.26,8395.55,-0.676017,-1.03667,1.36336,4000.29,3414.37,8183.81,-1.28457,-1.18949,-1.50729,-80.5151,9842.36,-607.768,-1.36913,1.49812,7.27888,-825.404,-9871.83,-682.661,-3.88809,-0.625389,-2.88753,-2854.01,9464.41,-743.559,-1.99297,9.91156,-4.65105,-552.254,-9833.26,-1898.19,-6.72152,0.532216,-0.540764,9029.04,811.844,3810.79,4.08835,9.02098,-3.78251
0.008,3373.93,-3512.62,8380.93,-0.68852,-1.13591,1.36091,4009.61,3418.72,8170.74,-1.33199,-1.18907,-1.53624,-93.2127,9860.44,-606.169,-1.35215,1.3777,7.1955,-816.122,-9853.2,-666.077,-3.92181,-0.420439,-2.70486,-2852.68,9468.14,-742.841,-1.95144,9.64331,-4.45418,-527.741,-9846.04,-1895.81,-6.8468,0.81901,-0.585972,9031.99,827.586,3816.01,4.25257,8.92326,-3.78222
0.009,3377.03,-3508.78,8368.55,-0.701584,-1.22068,1.35947,4015.42,3423.35,8158.46,-1.37085,-1.18635,-1.56161,-105.911,9873.7,-606.418,-1.34116,1.27646,7.11755,-807.355,-9835.72,-650.986,-3.93977,-0.22299,-2.52759,-2852.07,9466.71,-743.577,-1.90587,9.37198,-4.27189,-505.64,-9858.54,-1894.44,-6.95649,1.1129,-0.612103,9033.33,845.638,3820.06,4.40457,8.82325,-3.78013
0.01,3382.24,-3527.36,8374.06,-0.719123,-1.18961,1.366,3993.17,3430.23,8152.56,-1.34118,-1.16525,-1.55833,-118.617,9848.43,-621.46,-1.37815,1.32877,7.08291,-802.704,-9827.46,-647.836,-3.83175,-0.0855512,-2.39342,-2857.24,9423.89,-755.944,-1.82798,9.07606,-4.20631,-502.839,-9868.73,-1901.1,-6.94148,1.46352,-0.485613,9021.72,882.18,3814.82,4.45877,8.70488,-3.76365
0.011,3387.46,-3545.94,8379.58,-0.736662,-1.15854,1.37254,3970.92,3437.1,8146.65,-1.31152,-1.14415,-1.55505,-131.323,9823.17,-636.502,-1.41513,1.38108,7.04828,-798.053,-9819.2,-644.685,-3.72373,0.0518872,-2.25925,-2862.41,9381.08,-768.312,-1.75008,8.78013,-4.14073,-500.038,-9878.93,-1907.76,-6.92648,1.81414,-0.359124,9010.12,918.721,3809.58,4.51298,8.58651,-3.74716
0.012,3392.68,-3564.51,8385.09,-0.754201,-1.12747,1.37907,3948.67,3443.98,8140.74,-1.28185,-1.12305,-1.55177,-144.029,9797.91,-651.544,-1.45212,1.43338,7.01365,-793.402,-9810.94,-641.534,-3.61571,0.189326,-2.12508,-2867.58,9338.27,-780.679,-1.67219,8.48421,-4.07515,-497.237,-9889.12,-1914.41,-6.91148,2.16475,-0.232634,8998.52,955.263,3804.34,4.56718,8.46814,-3.73067
0.013,3397.9,-3583.09,8390.61,-0.77174,-1.09639,1.38561,3926.42,3450.86,8134.84,-1.25219,-1.10195,-1.54849,-156.736,9772.64,-666.586,-1.4891,1.48569,6.97901,-788.751,-9802.68,-638.384,-3.50769,0.326764,-1.99091,-2872.75,9295.46,-793.047,-1.5943,8.18828,-4.00957,-494.436,-9899.32,-1921.07,-6.89648,2.51537,-0.106144,8986.91,991.804,3799.1,4.62138,8.34977,-3.71419
0.014,3386.84,-3596.06,8404.05,-0.890277,-1.07648,1.36255,3918.39,3457.09,8141.38,-1.26002,-1.17473,-1.56512,-139.336,9758.31,-679.112,-1.50705,1.48476,7.00642,-792.865,-9788.26,-645.856,-3.50562,0.448152,-1.87061,-2858.33,9292.13,-809.144,-1.52928,7.77244,-3.94372,-499.758,-9887.2,-1925.53,-6.80465,2.83529,-0.0147377,8983.01,974.194,3797.66,4.64637,8.36039,-3.6451
0.015,3367.66,-3606.23,8421.44,-1.05931,-1.06213,1.3247,3917.48,3463.0,8154.14,-1.2866,-1.29446,-1.5917,-106.884,9749.45,-690.382,-1.51548,1.4572,7.06485,-801.361,-9770.76,-658.639,-3.55652,0.561514,-1.75725,-2834.12,9308.54,-827.105,-1.4707,7.29662,-3.87772,-509.142,-9863.93,-1928.89,-6.6744,3.13985,0.059127,8982.97,929.509,3798.1,4.65676,8.4355,-3.54971
0.016,3348.47,-3616.39,8438.84,-1.22835,-1.04779,1.28685,3916.57,3468.9,8166.9,-1.31319,-1.41418,-1.61829,-74.4312,9740.58,-701.651,-1.52391,1.42964,7.12328,-809.857,-9753.26,-671.422,-3.60742,0.674876,-1.64388,-2809.92,9324.96,-845.066,-1.41212,6.82081,-3.81173,-518.525,-9840.66,-1932.26,-6.54415,3.44441,0.132992,8982.92,884.823,3798.55,4.66714,8.51061,-3.45432
0.017,3329.28,-3626.56,8456.24,-1.39738,-1.03345,1.249,3915.66,3474.81,8179.66,-1.33977,-1.53391,-1.64487,-41.9788,9731.72,-712.92,-1.53234,1.40208,7.18171,-818.353,-9735.77,-684.205,-3.65832,0.788238,-1.53052,-2785.71,9341.37,-863.027,-1.35354,6.345,-3.74573,-527.909,-9817.39,-1935.62,-6.4139,3.74897,0.206856,8982.88,840.138,3799.0,4.67753,8.58572,-3.35892
0.018,3319.28,-3636.35,8467.48,-1.54089,-1.00441,1.20723,3916.07,3480.51,8188.25,-1.36343,-1.64248,-1.69016,-16.0682,9729.94,-720.94,-1.52134,1.36873,7.23036,-821.756,-9728.58,-691.47,-3.7106,0.924242,-1.42893,-2764.05,9354.73,-878.731,-1.29842,5.96297,-3.71744,-531.775,-9796.42,-1936.97,-6.30271,4.07714,0.27838,8982.34,801.344,3796.82,4.67018,8.6185,-3.27223
0.019,3341.44,-3644.81,8457.19,-1.59506,-0.923905,1.15175,3921.12,3485.52,8182.25,-1.37684,-1.71199,-1.80095,-13.054,9752.99,-717.589,-1.44233,1.31511,7.24476,-807.337,-9757.51,-679.42,-3.76769,1.13949,-1.36856,-2751.31,9357.43,-886.538,-1.2554,5.90919,-3.82109,-516.329,-9783.51,-1931.26,-6.25823,4.48795,0.341709,8980.11,783.173,3785.41,4.6008,8.50311,-3.216
0.02,3363.6,-3653.28,8446.89,-1.64922,-0.843404,1.09626,3926.16,3490.52,8176.25,-1.39026,-1.7815,-1.91174,-10.0399,9776.04,-714.238,-1.36332,1.26149,7.25917,-792.918,-9786.43,-667.37,-3.82479,1.35473,-1.30819,-2738.57,9360.13,-894.345,-1.21238,5.8554,-3.92475,-500.882,-9770.6,-1925.55,-6.21374,4.89876,0.405038,8977.88,765.002,3774.0,4.53141,8.38771,-3.15976
0.021,3385.76,-3661.75,8436.59,-1.70338,-0.762903,1.04078,3931.21,3495.52,8170.25,-1.40368,-1.85101,-2.02252,-7.02575,9799.08,-710.887,-1.28431,1.20787,7.27357,-778.499,-9815.35,-655.319,-3.88188,1.56998,-1.24781,-2725.84,9362.82,-902.152,-1.16936,5.80162,-4.02841,-485.436,-9757.68,-1919.84,-6.16926,5.30958,0.468367,8975.64,746.831,3762.59,4.46203,8.27232,-3.10352
0.022,3407.92,-3670.22,8426.3,-1.75754,-0.682402,0.985296,3936.25,3500.52,8164.25,-1.41709,-1.92052,-2.13331,-4.0116,9822.13,-707.536,-1.2053,1.15425,7.28797,-764.08,-9844.28,-643.269,-3.93897,1.78523,-1.18744,-2713.1,9365.52,-909.958,-1.12635,5.74783,-4.13207,-469.99,-9744.77,-1914.13,-6.12477,5.72039,0.531696,8973.41,728.66,3751.18,4.39265,8.15693,-3.04728
0.023,3405.5,-3680.37,8419.15,-1.71172,-0.693923,0.979406,3935.0,3497.89,8157.83,-1.43724,-1.93644,-2.16125,-2.4746,9842.21,-707.458,-1.13579,1.08141,7.27232,-782.64,-9857.84,-658.435,-3.94397,1.92529,-1.02798,-2707.14,9363.08,-910.678,-1.03604,5.61959,-3.98065,-443.388,-9744.69,-1904.25,-6.14682,5.96932,0.394634,8955.88,745.261,3776.74,4.31849,7.97745,-2.98219
0.024,3396.06,-3691.0,8412.9,-1.63733,-0.731737,0.987686,3931.96,3493.08,8151.3,-1.4593,-1.93705,-2.16551,-1.35965,9861.44,-708.316,-1.06898,1.00307,7.24808,-810.622,-9867.02,-681.376,-3.93409,2.04388,-0.840222,-2703.13,9359.17,-909.374,-0.932212,5.47007,-3.75635,-413.6,-9748.27,-1893.17,-6.18788,6.17201,0.200317,8933.97,771.797,3812.86,4.24296,7.77966,-2.91455
0.025,3386.63,-3701.63,8406.65,-1.56294,-0.76955,0.995965,3928.91,3488.27,8144.77,-1.48137,-1.93765,-2.16977,-0.244689,9880.68,-709.174,-1.00218,0.924735,7.22385,-838.604,-9876.2,-704.317,-3.92421,2.16246,-0.652461,-2699.11,9355.25,-908.069,-0.828389,5.32056,-3.53206,-383.811,-9751.85,-1882.09,-6.22895,6.37469,0.00600021,8912.07,798.333,3848.98,4.16744,7.58188,-2.84692
0.026,3377.19,-3712.26,8400.4,-1.48855,-0.807363,1.00424,3925.87,3483.46,8138.24,-1.50343,-1.93826,-2.17404,0.870268,9899.91,-710.031,-0.935378,0.846397,7.19961,-866.586,-9885.37,-727.259,-3.91433,2.28105,-0.464699,-2695.09,9351.34,-906.764,-0.724566,5.17104,-3.30776,-354.023,-9755.43,-1871.01,-6.27001,6.57737,-0.188317,8890.16,824.868,3885.09,4.09191,7.38409,-2.77929
0.027,3369.11,-3723.26,8381.71,-1.41736,-0.781344,0.975937,3927.32,3476.12,8132.34,-1.50409,-1.93856,-2.17752,5.08918,9909.94,-706.673,-0.928766,0.798225,7.19995,-878.963,-9885.61,-753.438,-3.87618,2.41537,-0.292121,-2691.33,9349.92,-901.553,-0.61844,5.02438,-3.17114,-340.836,-9766.71,-1862.25,-6.27502,6.74021,-0.33521,8872.38,847.36,3911.22,3.98879,7.16454,-2.71965
0.028,3363.76,-3734.99,8338.12,-1.35257,-0.627659,0.874455,3937.75,3463.73,8127.72,-1.46193,-1.93826,-2.17943,15.516,9901.55,-694.883,-1.04253,0.810382,7.24945,-860.13,-9867.98,-786.092,-3.7815,2.58115,-0.149911,-2688.07,9353.47,-888.528,-0.507708,4.88343,-3.20988,-360.852,-9793.38,-1858.14,-6.20792,6.82335,-0.387257,8862.82,861.765,3917.35,3.83046,6.90143,-2.67597
0.029,3358.4,-3746.72,8294.54,-1.28778,-0.473975,0.772973,3948.19,3451.35,8123.09,-1.41977,-1.93795,-2.18134,25.9429,9893.17,-683.093,-1.1563,0.822539,7.29895,-841.297,-9850.34,-818.746,-3.68682,2.74694,-0.00769994,-2684.81,9357.01,-875.504,-0.396975,4.74247,-3.24861,-380.868,-9820.04,-1854.02,-6.14083,6.9065,-0.439303,8853.27,876.17,3923.48,3.67213,6.63833,-2.63229
0.03,3353.04,-3758.45,8250.95,-1.22299,-0.32029,0.671491,3958.62,3438.96,8118.47,-1.3776,-1.93764,-2.18326,36.3697,9884.79,-671.303,-1.27007,0.834696,7.34846,-822.464,-9832.71,-851.4,-3.59214,2.91272,0.134511,-2681.55,9360.56,-862.48,-0.286242,4.60151,-3.28734,-400.884,-9846.7,-1849.91,-6.07373,6.98964,-0.49135,8843.72,890.575,3929.61,3.51381,6.37523,-2.58861
0.031,3347.69,-3770.18,8207.37,-1.1582,-0.166605,0.570009,3969.06,3426.58,8113.85,-1.33544,-1.93733,-2.18517,46.7965,9876.4,-659.513,-1.38384,0.846853,7.39796,-803.631,-9815.08,-884.054,-3.49746,3.07851,0.276722,-2678.29,9364.11,-849.456,-0.17551,4.46056,-3.32607,-420.9,-9873.37,-1845.79,-6.00664,7.07279,-0.543397,8834.17,904.98,3935.74,3.35548,6.11213,-2.54493
0.032,3374.49,-3775.27,8228.52,-1.10168,-0.0977213,0.561508,3979.94,3401.5,8119.55,-1.29998,-1.89503,-2.24694,37.0536,9864.41,-666.567,-1.36012,0.722883,7.45717,-828.911,-9808.95,-852.873,-3.37545,3.1853,0.319424,-2697.15,9370.13,-879.694,-0.32409,4.20912,-3.35807,-400.906,-9870.5,-1851.29,-5.82226,7.17392,-0.488854,8804.32,898.36,3941.15,3.29792,5.72134,-2.50027
0.033,3405.31,-3779.54,8257.77,-1.04619,-0.0394377,0.56463,3990.88,3374.84,8126.54,-1.26534,-1.84749,-2.31618,24.7894,9851.96,-675.977,-1.31921,0.581898,7.51759,-859.704,-9804.27,-813.713,-3.25002,3.28471,0.349687,-2718.78,9376.47,-915.34,-0.505085,3.94386,-3.38922,-375.911,-9863.95,-1857.98,-5.62323,7.27731,-0.420987,8771.95,889.111,3946.47,3.25296,5.31459,-2.4555
0.034,3436.13,-3783.81,8287.01,-0.990711,0.0188459,0.567752,4001.82,3348.19,8133.52,-1.23071,-1.79994,-2.38542,12.5252,9839.51,-685.387,-1.2783,0.440912,7.57801,-890.497,-9799.59,-774.552,-3.12459,3.38412,0.379951,-2740.4,9382.8,-950.986,-0.686079,3.67861,-3.42038,-350.917,-9857.39,-1864.68,-5.4242,7.38069,-0.35312,8739.57,879.862,3951.79,3.208,4.90785,-2.41072
0.035,3466.95,-3788.08,8316.26,-0.935227,0.0771296,0.570874,4012.76,3321.53,8140.51,-1.19608,-1.75239,-2.45466,0.261018,9827.07,-694.797,-1.23739,0.299926,7.63844,-921.291,-9794.9,-735.392,-2.99915,3.48354,0.410214,-2762.03,9389.14,-986.632,-0.867073,3.41336,-3.45154,-325.922,-9850.83,-1871.38,-5.22517,7.48408,-0.285253,8707.19,870.613,3957.11,3.16304,4.5011,-2.36595
0.036,3478.75,-3789.49,8325.28,-0.919038,0.100939,0.517426,4015.49,3306.36,8143.85,-1.17667,-1.71813,-2.49204,-16.0205,9819.85,-710.278,-1.19328,0.13229,7.69481,-919.689,-9790.84,-715.562,-2.95901,3.52729,0.513268,-2761.9,9389.75,-997.521,-1.00303,3.09746,-3.45271,-317.887,-9840.41,-1875.77,-5.12289,7.58071,-0.195211,8681.32,865.127,3979.64,3.16655,4.19439,-2.43917
0.037,3466.77,-3787.33,8309.01,-0.951966,0.0816551,0.393265,4007.96,3305.56,8142.62,-1.17631,-1.70049,-2.48959,-37.3237,9819.18,-733.347,-1.14515,-0.0686575,7.74613,-877.592,-9787.54,-719.895,-3.02548,3.50146,0.707309,-2734.58,9383.22,-977.462,-1.0827,2.71826,-3.41642,-331.05,-9825.15,-1877.29,-5.14156,7.66889,-0.0774515,8663.59,864.345,4023.68,3.23066,4.01272,-2.65988
0.038,3454.79,-3785.17,8292.75,-0.984895,0.0623714,0.269105,4000.43,3304.76,8141.39,-1.17594,-1.68284,-2.48715,-58.6269,9818.51,-756.416,-1.09703,-0.269605,7.79744,-835.496,-9784.24,-724.229,-3.09196,3.47564,0.90135,-2707.27,9376.68,-957.403,-1.16236,2.33906,-3.38012,-344.214,-9809.89,-1878.81,-5.16022,7.75707,0.0403083,8645.85,863.563,4067.71,3.29477,3.83104,-2.88059
0.039,3442.81,-3783.01,8276.48,-1.01782,0.0430878,0.144945,3992.91,3303.96,8140.16,-1.17558,-1.66519,-2.4847,-79.93,9817.85,-779.485,-1.04891,-0.470554,7.84876,-793.399,-9780.95,-728.562,-3.15843,3.44981,1.09539,-2679.96,9370.14,-937.345,-1.24203,1.95986,-3.34382,-357.377,-9794.63,-1880.32,-5.17889,7.84525,0.158068,8628.12,862.781,4111.75,3.35888,3.64937,-3.1013
0.04,3430.82,-3780.85,8260.22,-1.05075,0.0238041,0.0207844,3985.38,3303.16,8138.93,-1.17521,-1.64754,-2.48225,-101.233,9817.18,-802.554,-1.00078,-0.671501,7.90008,-751.303,-9777.65,-732.895,-3.2249,3.42399,1.28943,-2652.64,9363.61,-917.286,-1.32169,1.58067,-3.30753,-370.541,-9779.36,-1881.84,-5.19756,7.93343,0.275828,8610.38,861.998,4155.79,3.42298,3.4677,-3.32201
0.041,3433.02,-3784.61,8266.0,-0.927148,0.152764,-0.0225441,3982.4,3317.55,8120.28,-1.04474,-1.5667,-2.54004,-117.713,9821.99,-802.736,-1.03589,-1.01148,7.80216,-801.302,-9773.48,-737.102,-3.11871,3.51274,1.39588,-2649.5,9352.97,-923.704,-1.32636,1.28346,-3.20146,-379.915,-9799.71,-1886.41,-5.06925,8.17964,0.38921,8589.58,879.917,4138.85,3.39873,3.03177,-3.55363
0.042,3435.21,-3788.37,8271.78,-0.803544,0.281724,-0.0658726,3979.42,3331.93,8101.62,-0.914268,-1.48585,-2.59783,-134.192,9826.8,-802.917,-1.071,-1.35146,7.70424,-851.301,-9769.32,-741.309,-3.01252,3.60149,1.50232,-2646.37,9342.32,-930.122,-1.33103,0.986248,-3.0954,-389.289,-9820.05,-1890.97,-4.94093,8.42584,0.502591,8568.77,897.836,4121.92,3.37447,2.59583,-3.78526
0.043,3437.4,-3792.14,8277.57,-0.67994,0.410684,-0.109201,3976.44,3346.32,8082.96,-0.783795,-1.40501,-2.65561,-150.672,9831.61,-803.099,-1.10611,-1.69144,7.60632,-901.3,-9765.15,-745.516,-2.90633,3.69024,1.60876,-2643.23,9331.68,-936.541,-1.3357,0.689039,-2.98934,-398.664,-9840.39,-1895.54,-4.81262,8.67205,0.615973,8547.97,915.755,4104.98,3.35021,2.15989,-4.01688
0.044,3439.6,-3795.9,8283.35,-0.556336,0.539644,-0.15253,3973.46,3360.7,8064.31,-0.653322,-1.32417,-2.7134,-167.152,9836.43,-803.28,-1.14122,-2.03141,7.5084,-951.299,-9760.99,-749.723,-2.80013,3.77899,1.71521,-2640.09,9321.04,-942.959,-1.34037,0.391831,-2.88327,-408.038,-9860.74,-1900.1,-4.68431,8.91826,0.729355,8527.16,933.674,4088.04,3.32595,1.72395,-4.2485
0.045,3443.93,-3778.36,8281.54,-0.471897,0.683135,-0.217274,3952.16,3380.82,8047.65,-0.524083,-1.18851,-2.7112,-180.115,9837.97,-804.599,-1.21347,-2.44521,7.36384,-961.282,-9746.26,-764.903,-2.77139,3.93864,1.93298,-2621.63,9325.6,-960.289,-1.48711,-0.0464142,-2.90481,-426.636,-9874.63,-1919.04,-4.54123,9.18203,0.769406,8506.8,930.018,4099.75,3.10091,1.37888,-4.57609
0.046,3449.97,-3743.77,8273.65,-0.41879,0.838252,-0.299152,3916.19,3405.53,8032.6,-0.395832,-1.00901,-2.66101,-190.265,9836.89,-806.828,-1.31544,-2.91807,7.18198,-939.253,-9723.09,-788.861,-2.80461,4.15502,2.23981,-2590.92,9342.33,-986.347,-1.74751,-0.597488,-3.02844,-452.612,-9883.37,-1949.48,-4.38634,9.45984,0.750793,8486.8,909.101,4134.36,2.71525,1.1065,-4.98044
0.047,3456.01,-3709.19,8265.76,-0.365683,0.993369,-0.381029,3880.23,3430.23,8017.54,-0.26758,-0.829514,-2.61082,-200.416,9835.82,-809.056,-1.41741,-3.39092,7.00011,-917.223,-9699.92,-812.819,-2.83783,4.3714,2.54664,-2560.2,9359.05,-1012.41,-2.00791,-1.14856,-3.15207,-478.588,-9892.11,-1979.92,-4.23144,9.73765,0.73218,8466.79,888.183,4168.98,2.32959,0.834114,-5.3848
0.048,3462.05,-3674.61,8257.88,-0.312576,1.14849,-0.462907,3844.26,3454.93,8002.49,-0.139329,-0.650014,-2.56063,-210.566,9834.75,-811.285,-1.51937,-3.86378,6.81824,-895.194,-9676.75,-836.776,-2.87105,4.58779,2.85347,-2529.48,9375.78,-1038.46,-2.26831,-1.69964,-3.2757,-504.565,-9900.85,-2010.36,-4.07655,10.0155,0.713568,8446.78,867.266,4203.6,1.94393,0.561731,-5.78916
0.049,3470.82,-3644.83,8249.82,-0.264837,1.2944,-0.529899,3808.82,3476.72,7990.61,-0.0216433,-0.482173,-2.50434,-218.033,9833.24,-811.651,-1.61626,-4.33581,6.63884,-869.123,-9659.08,-854.707,-2.89099,4.8127,3.13243,-2493.18,9391.78,-1060.29,-2.52032,-2.25983,-3.3747,-529.465,-9907.14,-2038.79,-3.92056,10.2999,0.713647,8428.14,848.347,4232.18,1.52165,0.273014,-6.17485
0.05,3501.48,-3653.53,8240.35,-0.260047,1.36664,-0.477809,3777.57,3475.13,8004.12,0.0115144,-0.407601,-2.39921,-204.033,9828.24,-797.121,-1.67254,-4.80127,6.47915,-810.721,-9685.47,-824.423,-2.80463,5.10584,3.18843,-2412.16,9402.0,-1048.29,-2.70523,-2.893,-3.27674,-545.762,-9893.83,-2051.15,-3.75581,10.6375,0.86326,8420.36,845.41,4212.53,0.806449,-0.146386,-6.41119
0.051,3532.14,-3662.22,8230.9,-0.255257,1.43889,-0.425719,3746.33,3473.54,8017.64,0.0446721,-0.333029,-2.29408,-190.033,9823.25,-782.591,-1.72881,-5.26673,6.31947,-752.318,-9711.87,-794.139,-2.71827,5.39899,3.24443,-2331.14,9412.22,-1036.28,-2.89014,-3.52616,-3.17878,-562.058,-9880.51,-2063.52,-3.59106,10.9751,1.01287,8412.58,842.474,4192.87,0.0912488,-0.565786,-6.64753
0.052,3562.8,-3670.91,8221.44,-0.250467,1.51114,-0.37363,3715.09,3471.96,8031.15,0.0778298,-0.258457,-2.18895,-176.032,9818.25,-768.06,-1.78509,-5.73219,6.15979,-693.916,-9738.26,-763.856,-2.63192,5.69214,3.30043,-2250.12,9422.44,-1024.28,-3.07504,-4.15933,-3.08082,-578.355,-9867.2,-2075.88,-3.42631,11.3127,1.16249,8404.8,839.537,4173.22,-0.623952,-0.985185,-6.88387
0.053,3593.45,-3679.6,8211.97,-0.245677,1.58339,-0.32154,3683.84,3470.37,8044.67,0.110987,-0.183884,-2.08382,-162.032,9813.26,-753.53,-1.84136,-6.19765,6.00011,-635.514,-9764.65,-733.572,-2.54556,5.98529,3.35643,-2169.1,9432.66,-1012.27,-3.25995,-4.79249,-2.98285,-594.651,-9853.89,-2088.25,-3.26156,11.6503,1.3121,8397.03,836.6,4153.56,-1.33915,-1.40459,-7.1202
0.054,3608.78,-3688.88,8224.29,-0.213101,1.72966,-0.225458,3677.79,3489.58,8061.07,0.167058,-0.0782224,-1.87679,-139.049,9806.65,-728.559,-1.79022,-6.6206,5.82645,-589.106,-9763.96,-734.501,-2.6554,6.05014,3.42135,-2126.52,9459.21,-1009.95,-3.37091,-5.43685,-2.84106,-597.487,-9842.35,-2074.1,-3.16014,11.7762,1.3935,8385.44,812.609,4156.03,-2.17644,-1.69945,-7.49341
0.055,3616.44,-3698.44,8247.49,-0.166631,1.91293,-0.107381,3684.33,3519.19,8078.91,0.234586,0.0429846,-1.61881,-111.573,9799.23,-698.368,-1.68537,-7.02229,5.64581,-548.694,-9749.73,-751.037,-2.86333,6.00083,3.49074,-2103.17,9493.93,-1012.45,-3.4449,-6.08681,-2.67735,-593.592,-9831.71,-2046.69,-3.09038,11.7963,1.4408,8371.95,778.091,4169.56,-3.07477,-1.93206,-7.93505
0.056,3624.1,-3708.01,8270.69,-0.120162,2.09621,0.010697,3690.87,3548.8,8096.75,0.302114,0.164192,-1.36083,-84.0976,9791.81,-668.176,-1.58051,-7.42399,5.46517,-508.282,-9735.49,-767.573,-3.07126,5.95152,3.56012,-2079.81,9528.65,-1014.96,-3.51888,-6.73677,-2.51364,-589.697,-9821.06,-2019.28,-3.02063,11.8164,1.4881,8358.46,743.572,4183.09,-3.9731,-2.16466,-8.37669
0.057,3631.76,-3717.57,8293.89,-0.0736927,2.27948,0.128775,3697.41,3578.41,8114.6,0.369642,0.285399,-1.10286,-56.6222,9784.4,-637.985,-1.47566,-7.82568,5.28453,-467.871,-9721.26,-784.109,-3.27919,5.90222,3.62951,-2056.45,9563.37,-1017.47,-3.59287,-7.38672,-2.34993,-585.802,-9810.42,-1991.87,-2.95087,11.8366,1.53539,8344.98,709.054,4196.61,-4.87143,-2.39727,-8.81833
0.058,3628.35,-3722.19,8309.03,-0.00954183,2.43952,0.185641,3704.48,3602.68,8128.26,0.435369,0.401104,-0.846476,-31.3037,9780.38,-614.741,-1.41794,-8.19291,5.09584,-443.185,-9707.2,-802.26,-3.45122,5.86555,3.7231,-2025.55,9588.79,-1016.89,-3.61237,-8.02494,-2.15898,-590.525,-9806.17,-1966.71,-2.93065,11.7997,1.57563,8337.28,678.863,4206.51,-5.68228,-2.60365,-9.27409
0.059,3586.24,-3709.51,8295.97,0.116495,2.51824,0.0282694,3713.39,3608.26,8127.29,0.494797,0.497551,-0.595679,-13.5346,9788.25,-615.816,-1.52518,-8.43951,4.87899,-473.541,-9693.76,-826.063,-3.49756,5.87312,3.90139,-1968.23,9581.66,-1005.47,-3.44116,-8.62207,-1.87267,-625.413,-9824.29,-1949.42,-3.08381,11.5632,1.59113,8349.87,663.819,4203.69,-6.18699,-2.71826,-9.77931
0.06,3544.13,-3696.83,8282.92,0.242531,2.59696,-0.129102,3722.3,3613.84,8126.32,0.554225,0.593999,-0.344882,4.2344,9796.13,-616.891,-1.63243,-8.6861,4.66215,-503.896,-9680.33,-849.867,-3.54391,5.88068,4.07969,-1910.91,9574.54,-994.056,-3.26996,-9.2192,-1.58637,-660.301,-9842.42,-1932.13,-3.23696,11.3267,1.60663,8362.45,648.774,4200.87,-6.69169,-2.83287,-10.2845
0.061,3502.01,-3684.15,8269.86,0.368567,2.67567,-0.286474,3731.22,3619.42,8125.36,0.613653,0.690447,-0.0940853,22.0035,9804.01,-617.966,-1.73968,-8.9327,4.4453,-534.252,-9666.89,-873.67,-3.59025,5.88824,4.25799,-1853.59,9567.41,-982.641,-3.09875,-9.81633,-1.30006,-695.189,-9860.55,-1914.85,-3.39011,11.0902,1.62214,8375.04,633.729,4198.05,-7.19639,-2.94748,-10.7898
0.062,3459.9,-3671.47,8256.8,0.494604,2.75439,-0.443846,3740.13,3625.0,8124.39,0.673081,0.786895,0.156712,39.7725,9811.89,-619.041,-1.84692,-9.1793,4.22845,-564.608,-9653.45,-897.474,-3.6366,5.89581,4.43629,-1796.26,9560.28,-971.226,-2.92755,-10.4135,-1.01376,-730.077,-9878.68,-1897.56,-3.54327,10.8537,1.63764,8387.63,618.685,4195.23,-7.70109,-3.06209,-11.295
0.063,3434.84,-3672.66,8285.03,0.510172,2.80578,-0.455531,3780.98,3576.52,8119.85,0.694329,0.789369,0.166193,66.3921,9803.99,-628.553,-1.95154,-9.28889,4.00877,-630.53,-9695.24,-897.396,-3.6032,5.85898,4.49835,-1745.31,9578.24,-1005.43,-2.79145,-10.8205,-0.587875,-749.46,-9867.78,-1913.74,-3.59198,10.354,1.70026,8431.22,591.143,4225.92,-8.07381,-3.17016,-11.7909
0.064,3414.65,-3677.81,8325.05,0.494179,2.84937,-0.425591,3830.96,3512.59,8114.28,0.704668,0.764993,0.106727,95.5405,9791.59,-640.475,-2.05541,-9.35935,3.78828,-706.613,-9752.8,-890.495,-3.54701,5.80946,4.52719,-1696.16,9603.37,-1052.67,-2.66538,-11.1733,-0.122113,-764.412,-9848.59,-1939.47,-3.61086,9.77911,1.77634,8483.68,560.03,4266.2,-8.40882,-3.27636,-12.2841
0.065,3394.46,-3682.96,8365.06,0.478186,2.89295,-0.395651,3880.93,3448.66,8108.72,0.715008,0.740618,0.0472615,124.689,9779.18,-652.398,-2.15928,-9.4298,3.56779,-782.697,-9810.36,-883.593,-3.49082,5.75994,4.55604,-1647.02,9628.5,-1099.91,-2.53932,-11.526,0.343649,-779.365,-9829.39,-1965.21,-3.62974,9.20423,1.85243,8536.13,528.918,4306.47,-8.74383,-3.38256,-12.7773
0.066,3374.27,-3688.11,8405.08,0.462193,2.93653,-0.365711,3930.91,3384.73,8103.16,0.725347,0.716242,-0.0122044,153.837,9766.78,-664.32,-2.26315,-9.50025,3.3473,-858.78,-9867.92,-876.692,-3.43463,5.71043,4.58488,-1597.88,9653.63,-1147.15,-2.41325,-11.8788,0.809411,-794.318,-9810.2,-1990.94,-3.64862,8.62935,1.92851,8588.59,497.805,4346.74,-9.07884,-3.48876,-13.2705
0.067,3363.92,-3681.85,8422.94,0.48984,2.99552,-0.366785,3979.59,3339.66,8097.08,0.69705,0.725515,-0.098879,183.976,9753.47,-680.063,-2.31007,-9.53249,3.11274,-927.088,-9903.02,-866.256,-3.31856,5.62612,4.60479,-1550.96,9662.74,-1179.65,-2.23336,-12.0663,1.28584,-806.636,-9794.35,-1992.57,-3.6948,8.02137,1.91462,8628.41,471.84,4381.52,-9.32813,-3.67426,-13.7922
0.068,3373.25,-3652.76,8396.47,0.604769,3.0853,-0.429889,4025.68,3332.32,8089.97,0.591479,0.802086,-0.239971,216.094,9738.37,-703.447,-2.24309,-9.4883,2.85005,-979.843,-9893.21,-848.752,-3.08271,5.47224,4.60683,-1508.47,9639.79,-1182.71,-1.94582,-11.9235,1.78362,-813.683,-9785.2,-1945.97,-3.79559,7.34718,1.72077,8642.96,456.169,4405.31,-9.40599,-4.01838,-14.3711
0.069,3382.58,-3623.67,8370.0,0.719697,3.17508,-0.492992,4071.77,3324.98,8082.86,0.485908,0.878656,-0.381062,248.212,9723.27,-726.831,-2.17612,-9.44411,2.58735,-1032.6,-9883.39,-831.248,-2.84687,5.31835,4.60886,-1465.99,9616.83,-1185.76,-1.65828,-11.7806,2.28139,-820.73,-9776.05,-1899.37,-3.89639,6.673,1.52693,8657.5,440.498,4429.1,-9.48384,-4.3625,-14.95
0.07,3391.91,-3594.58,8343.53,0.834626,3.26485,-0.556096,4117.86,3317.64,8075.75,0.380337,0.955226,-0.522154,280.33,9708.17,-750.215,-2.10914,-9.39993,2.32466,-1085.35,-9873.57,-813.743,-2.61102,5.16447,4.6109,-1423.5,9593.88,-1188.82,-1.37074,-11.6378,2.77917,-827.776,-9766.9,-1852.77,-3.99719,5.99882,1.33308,8672.04,424.828,4452.9,-9.5617,-4.70662,-15.5288
0.071,3401.24,-3565.49,8317.06,0.949555,3.35463,-0.619199,4163.95,3310.3,8068.64,0.274766,1.0318,-0.663246,312.448,9693.06,-773.6,-2.04217,-9.35574,2.06196,-1138.11,-9863.75,-796.239,-2.37517,5.01058,4.61294,-1381.02,9570.92,-1191.87,-1.0832,-11.4949,3.27694,-834.823,-9757.75,-1806.17,-4.09798,5.32464,1.13923,8686.59,409.157,4476.69,-9.63955,-5.05074,-16.1077
0.072,3367.15,-3573.79,8331.24,1.09645,3.35345,-0.700189,4167.44,3355.67,8053.29,0.186651,1.05682,-0.737771,331.17,9683.46,-800.846,-2.0527,-9.18588,1.79684,-1137.3,-9884.36,-803.143,-2.17137,4.61509,4.87357,-1362.52,9577.7,-1169.31,-0.914587,-11.2098,3.78735,-812.936,-9786.45,-1804.17,-4.03782,4.89426,0.931484,8698.15,417.689,4503.11,-9.48806,-5.26613,-16.2171
0.073,3327.63,-3586.76,8350.51,1.24734,3.3409,-0.783415,4165.61,3407.62,8036.9,0.100719,1.07541,-0.803976,348.216,9674.54,-828.576,-2.07293,-9.00032,1.53142,-1129.8,-9908.77,-813.098,-1.97157,4.18939,5.16653,-1347.02,9588.18,-1143.54,-0.760839,-10.907,4.29934,-787.433,-9819.87,-1807.75,-3.95754,4.49435,0.721996,8709.33,429.247,4529.85,-9.3079,-5.46541,-16.2679
0.074,3288.11,-3599.73,8369.77,1.39824,3.32835,-0.86664,4163.78,3459.58,8020.5,0.0147866,1.09399,-0.870181,365.263,9665.63,-856.306,-2.09316,-8.81475,1.266,-1122.3,-9933.19,-823.054,-1.77177,3.7637,5.45949,-1331.52,9598.67,-1117.78,-0.607091,-10.6041,4.81133,-761.93,-9853.3,-1811.33,-3.87725,4.09445,0.512508,8720.52,440.804,4556.6,-9.12774,-5.6647,-16.3186
0.075,3248.59,-3612.7,8389.04,1.54913,3.3158,-0.949866,4161.95,3511.53,8004.12,-0.0711458,1.11258,-0.936386,382.309,9656.71,-884.036,-2.11338,-8.62919,1.00058,-1114.8,-9957.6,-833.009,-1.57197,3.338,5.75244,-1316.03,9609.16,-1092.01,-0.453343,-10.3012,5.32332,-736.427,-9886.72,-1814.9,-3.79697,3.69455,0.30302,8731.7,452.362,4583.34,-8.94758,-5.86399,-16.3694
0.076,3235.92,-3627.32,8403.67,1.58574,3.32388,-1.01666,4149.57,3559.25,7996.23,-0.125303,1.11435,-0.911317,396.96,9648.18,-898.866,-2.13442,-8.44123,0.726203,-1103.11,-9963.74,-835.535,-1.42962,2.97755,5.98006,-1283.44,9606.52,-1068.97,-0.337538,-9.93644,5.74321,-707.409,-9901.49,-1832.03,-3.64024,3.34589,0.128491,8727.37,450.607,4603.96,-8.74947,-6.07928,-16.3521
0.077,3256.81,-3644.01,8412.51,1.47951,3.35776,-1.06291,4124.0,3601.67,7998.98,-0.139743,1.0951,-0.772155,408.615,9640.13,-897.572,-2.15647,-8.25028,0.440634,-1086.17,-9947.05,-828.776,-1.35907,2.69865,6.12598,-1229.51,9587.48,-1049.32,-0.269159,-9.49433,6.04798,-673.999,-9892.92,-1866.1,-3.38794,3.0613,-0.00233721,8703.65,432.21,4616.91,-8.52892,-6.31457,-16.2496
0.078,3277.71,-3660.7,8421.34,1.37327,3.39165,-1.10916,4098.44,3644.09,8001.73,-0.154182,1.07584,-0.632994,420.271,9632.08,-896.277,-2.17851,-8.05932,0.155066,-1069.24,-9930.36,-822.016,-1.28852,2.41975,6.27191,-1175.58,9568.44,-1029.68,-0.200781,-9.05222,6.35275,-640.588,-9884.35,-1900.17,-3.13565,2.7767,-0.133166,8679.92,413.814,4629.86,-8.30836,-6.54986,-16.1472
0.079,3298.6,-3677.39,8430.18,1.26704,3.42553,-1.15542,4072.87,3686.51,8004.48,-0.168621,1.05659,-0.493833,431.926,9624.04,-894.983,-2.20056,-7.86837,-0.130502,-1052.3,-9913.67,-815.256,-1.21797,2.14086,6.41784,-1121.64,9549.4,-1010.03,-0.132402,-8.61011,6.65752,-607.177,-9875.78,-1934.24,-2.88336,2.49211,-0.263995,8656.2,395.417,4642.81,-8.08781,-6.78514,-16.0448
0.08,3319.5,-3694.09,8439.02,1.1608,3.45941,-1.20167,4047.31,3728.94,8007.23,-0.18306,1.03734,-0.354671,443.582,9615.99,-893.689,-2.22261,-7.67742,-0.416071,-1035.37,-9896.98,-808.497,-1.14742,1.86196,6.56377,-1067.71,9530.36,-990.388,-0.0640241,-8.168,6.96229,-573.767,-9867.21,-1968.31,-2.63106,2.20752,-0.394823,8632.47,377.021,4655.76,-7.86726,-7.02043,-15.9423
0.081,3309.76,-3694.76,8437.72,1.24648,3.52595,-1.28068,4022.28,3719.15,8016.7,-0.302065,1.20212,-0.238253,478.305,9609.96,-879.761,-2.22485,-7.37479,-0.757633,-974.944,-9879.87,-803.846,-1.13638,1.57062,6.74089,-1063.54,9589.28,-956.921,-0.187662,-7.80887,7.21443,-535.869,-9867.54,-1947.82,-2.58955,2.04745,-0.637582,8668.22,385.725,4649.29,-8.16546,-7.26431,-15.8286
0.082,3300.02,-3695.44,8436.42,1.33216,3.5925,-1.35969,3997.25,3709.37,8026.17,-0.421069,1.36689,-0.121836,513.029,9603.94,-865.834,-2.2271,-7.07217,-1.0992,-914.521,-9862.76,-799.195,-1.12535,1.27927,6.91802,-1059.37,9648.2,-923.455,-0.311301,-7.44974,7.46658,-497.972,-9867.87,-1927.32,-2.54803,1.88738,-0.88034,8703.96,394.429,4642.83,-8.46366,-7.5082,-15.7149
0.083,3290.28,-3696.11,8435.13,1.41784,3.65904,-1.4387,3972.22,3699.59,8035.63,-0.540074,1.53167,-0.00541785,547.752,9597.92,-851.907,-2.22935,-6.76955,-1.44076,-854.098,-9845.64,-794.544,-1.11431,0.987931,7.09514,-1055.2,9707.12,-889.989,-0.434939,-7.0906,7.71872,-460.075,-9868.2,-1906.83,-2.50652,1.72731,-1.1231,8739.7,403.132,4636.36,-8.76186,-7.75208,-15.6012
0.084,3280.54,-3696.79,8433.84,1.50352,3.72559,-1.51771,3947.18,3689.81,8045.1,-0.659078,1.69644,0.111,582.476,9591.9,-837.98,-2.23159,-6.46692,-1.78232,-793.675,-9828.53,-789.893,-1.10327,0.696587,7.27226,-1051.04,9766.03,-856.523,-0.558577,-6.73147,7.97086,-422.177,-9868.53,-1886.34,-2.465,1.56725,-1.36586,8775.45,411.836,4629.89,-9.06006,-7.99597,-15.4875
0.085,3288.13,-3709.12,8422.71,1.46316,3.75167,-1.58505,3925.81,3657.85,8056.17,-0.703799,1.76906,0.203819,614.508,9594.26,-828.851,-2.27234,-6.04735,-2.18661,-738.041,-9813.23,-794.305,-1.09298,0.640688,7.53945,-1053.93,9792.05,-831.495,-0.645118,-6.40435,8.34089,-415.317,-9872.74,-1879.5,-2.48998,1.38915,-1.52436,8819.37,419.665,4642.88,-9.65353,-8.23337,-15.4278
0.086,3309.6,-3730.79,8403.71,1.32198,3.74538,-1.64307,3907.35,3608.14,8068.51,-0.689094,1.76796,0.277758,644.388,9603.31,-823.562,-2.3439,-5.53422,-2.64108,-686.237,-9799.37,-805.968,-1.08328,0.773145,7.87868,-1062.48,9791.74,-813.218,-0.701981,-6.10282,8.80522,-433.286,-9880.07,-1883.58,-2.56815,1.19662,-1.61547,8869.83,426.795,4671.42,-10.4832,-8.46559,-15.4115
0.087,3331.07,-3752.46,8384.72,1.1808,3.73909,-1.70108,3888.9,3558.43,8080.85,-0.674388,1.76686,0.351698,674.268,9612.37,-818.273,-2.41545,-5.02109,-3.09555,-634.433,-9785.51,-817.63,-1.07359,0.905603,8.21791,-1071.03,9791.42,-794.941,-0.758843,-5.8013,9.26955,-451.256,-9887.39,-1887.65,-2.64631,1.00409,-1.70658,8920.29,433.924,4699.97,-11.3129,-8.69781,-15.3951
0.088,3352.53,-3774.12,8365.72,1.03962,3.7328,-1.75909,3870.44,3508.73,8093.19,-0.659683,1.76576,0.425638,704.147,9621.42,-812.984,-2.48701,-4.50796,-3.55001,-582.63,-9771.65,-829.293,-1.0639,1.03806,8.55713,-1079.58,9791.11,-776.663,-0.815706,-5.49978,9.73387,-469.225,-9894.72,-1891.73,-2.72448,0.811565,-1.79768,8970.75,441.054,4728.51,-12.1425,-8.93003,-15.3787
0.089,3372.28,-3788.82,8348.21,0.92821,3.72142,-1.80832,3849.6,3461.87,8105.6,-0.64578,1.75823,0.502681,728.029,9632.65,-807.015,-2.54616,-3.98294,-3.99959,-534.141,-9758.26,-836.822,-1.05062,1.18613,8.86878,-1087.45,9794.52,-759.341,-0.879681,-5.21335,10.1672,-482.59,-9900.44,-1900.17,-2.77642,0.614354,-1.93112,9020.04,449.165,4756.13,-12.9261,-9.23239,-15.3814
0.09,3378.31,-3747.74,8342.53,1.05498,3.6693,-1.78731,3809.72,3437.83,8118.61,-0.638305,1.69934,0.604555,703.933,9661.23,-795.602,-2.50607,-3.36281,-4.40997,-512.169,-9748.65,-811.28,-1.00862,1.45912,8.95979,-1089.88,9827.63,-749.662,-1.00055,-5.04766,10.3525,-459.121,-9893.35,-1943.49,-2.61847,0.379672,-2.4032,9060.03,465.133,4776.31,-13.3408,-10.0958,-15.5371
0.091,3384.34,-3706.65,8336.85,1.18176,3.61718,-1.7663,3769.83,3413.78,8131.61,-0.630829,1.64045,0.706429,679.837,9689.81,-784.19,-2.46598,-2.74268,-4.82036,-490.197,-9739.03,-785.737,-0.966621,1.73211,9.05079,-1092.31,9860.74,-739.984,-1.12143,-4.88197,10.5378,-435.651,-9886.25,-1986.81,-2.46053,0.144991,-2.87528,9100.02,481.101,4796.49,-13.7554,-10.9592,-15.6928
0.092,3390.36,-3665.57,8331.18,1.30853,3.56506,-1.74529,3729.95,3389.74,8144.61,-0.623353,1.58156,0.808303,655.741,9718.39,-772.777,-2.42589,-2.12254,-5.23074,-468.226,-9729.42,-760.195,-0.924621,2.0051,9.14179,-1094.74,9893.85,-730.305,-1.2423,-4.71629,10.7231,-412.182,-9879.15,-2030.13,-2.30259,-0.089691,-3.34736,9140.01,497.069,4816.67,-14.1701,-11.8227,-15.8484
0.093,3396.39,-3624.49,8325.5,1.4353,3.51295,-1.72428,3690.06,3365.7,8157.62,-0.615878,1.52267,0.910178,631.645,9746.97,-761.365,-2.3858,-1.50241,-5.64113,-446.254,-9719.81,-734.653,-0.882622,2.27809,9.2328,-1097.17,9926.96,-720.626,-1.36317,-4.5506,10.9084,-388.712,-9872.06,-2073.45,-2.14465,-0.324373,-3.81944,9180.0,513.037,4836.85,-14.5847,-12.6861,-16.0041
0.094,3406.7,-3613.99,8341.62,1.45038,3.47577,-1.61285,3683.52,3362.56,8172.41,-0.622061,1.54164,0.948248,618.586,9766.71,-747.274,-2.29693,-0.945999,-5.97169,-435.357,-9710.52,-713.718,-0.860735,2.48395,9.38591,-1105.44,9924.49,-713.274,-1.40206,-4.39945,11.2027,-372.692,-9883.06,-2093.55,-2.01705,-0.68664,-4.19238,9177.46,529.859,4823.04,-15.009,-13.4077,-15.9358
0.095,3419.14,-3618.77,8368.62,1.4096,3.44607,-1.4562,3693.64,3369.88,8188.1,-0.635074,1.59954,0.954416,611.044,9782.03,-731.845,-2.18369,-0.421447,-6.26233,-429.998,-9701.4,-695.086,-0.848905,2.65623,9.57008,-1116.63,9904.22,-707.086,-1.39996,-4.25557,11.5516,-360.396,-9903.1,-2102.05,-1.90463,-1.1127,-4.51576,9153.66,547.109,4792.23,-15.438,-14.0585,-15.7556
0.096,3431.59,-3623.55,8395.62,1.36883,3.41637,-1.29956,3703.77,3377.2,8203.78,-0.648086,1.65744,0.960584,603.503,9797.35,-716.416,-2.07044,0.103105,-6.55298,-424.638,-9692.27,-676.454,-0.837074,2.82852,9.75424,-1127.82,9883.95,-700.897,-1.39787,-4.1117,11.9005,-348.099,-9923.15,-2110.55,-1.79221,-1.53876,-4.83914,9129.85,564.359,4761.43,-15.867,-14.7092,-15.5754
0.097,3444.03,-3628.34,8422.63,1.32805,3.38666,-1.14291,3713.89,3384.52,8219.46,-0.661099,1.71534,0.966752,595.961,9812.67,-700.986,-1.95719,0.627658,-6.84363,-419.279,-9683.15,-657.823,-0.825244,3.0008,9.93841,-1139.02,9863.68,-694.709,-1.39577,-3.96782,12.2494,-335.803,-9943.2,-2119.04,-1.67978,-1.96482,-5.16252,9106.04,581.608,4730.63,-16.296,-15.3599,-15.3952
0.098,3443.66,-3629.45,8444.93,1.32455,3.36029,-1.02463,3728.54,3393.52,8230.83,-0.66694,1.74981,0.953757,588.365,9821.62,-684.769,-1.84749,1.10922,-7.14971,-419.691,-9677.14,-643.91,-0.834292,3.15934,10.1453,-1151.9,9845.47,-690.234,-1.38027,-3.87342,12.5385,-333.629,-9955.02,-2132.37,-1.56155,-2.31563,-5.50029,9087.26,601.958,4689.88,-16.8312,-15.8785,-15.039
0.099,3398.44,-3617.7,8450.8,1.45151,3.34558,-1.04062,3759.02,3408.41,8227.06,-0.647681,1.70231,0.873693,580.574,9808.28,-665.796,-1.75023,1.44032,-7.50981,-440.303,-9682.07,-646.516,-0.916415,3.26975,10.4315,-1170.7,9834.46,-691.756,-1.31789,-3.95219,12.6186,-366.88,-9938.03,-2162.62,-1.42297,-2.40307,-5.88841,9086.07,633.158,4614.34,-17.7382,-15.9348,-14.0669
0.1,3353.21,-3605.96,8456.67,1.57847,3.33087,-1.05662,3789.49,3423.29,8223.29,-0.628421,1.6548,0.79363,572.783,9794.95,-646.822,-1.65296,1.77142,-7.8699,-460.916,-9687.0,-649.121,-0.998538,3.38016,10.7177,-1189.5,9823.44,-693.279,-1.25551,-4.03097,12.6986,-400.131,-9921.04,-2192.88,-1.28439,-2.4905,-6.27652,9084.88,664.357,4538.8,-18.6453,-15.9911,-13.0948
0.101,3307.98,-3594.21,8462.54,1.70543,3.31616,-1.07261,3819.97,3438.17,8219.51,-0.609162,1.6073,0.713566,564.992,9781.61,-627.849,-1.55569,2.10252,-8.23,-481.528,-9691.92,-651.727,-1.08066,3.49058,11.0039,-1208.31,9812.43,-694.801,-1.19313,-4.10974,12.7787,-433.382,-9904.05,-2223.13,-1.14581,-2.57794,-6.66464,9083.69,695.557,4463.26,-19.5523,-16.0473,-12.1228
0.102,3262.75,-3582.47,8468.41,1.8324,3.30145,-1.0886,3850.45,3453.06,8215.74,-0.589903,1.55979,0.633502,557.201,9768.27,-608.875,-1.45842,2.43362,-8.5901,-502.141,-9696.85,-654.332,-1.16278,3.60099,11.2901,-1227.11,9801.42,-696.323,-1.13075,-4.18851,12.8587,-466.633,-9887.06,-2253.38,-1.00724,-2.66538,-7.05275,9082.5,726.756,4387.71,-20.4593,-16.1036,-11.1507
0.103,3245.96,-3576.13,8468.28,1.69186,3.22592,-1.26742,3851.58,3457.49,8219.04,-0.564081,1.47823,0.729868,545.504,9778.4,-592.586,-1.44423,2.62255,-8.91128,-515.672,-9717.27,-662.722,-1.21784,3.75532,11.6016,-1236.39,9787.44,-687.368,-0.964145,-4.41259,13.1081,-452.115,-9891.71,-2260.72,-0.834028,-2.76926,-7.45268,9102.79,743.04,4350.98,-20.994,-15.6697,-10.3319
0.104,3237.29,-3571.34,8466.43,1.47489,3.13301,-1.49276,3844.32,3458.93,8224.36,-0.536384,1.38694,0.876644,532.691,9795.23,-577.064,-1.45377,2.77085,-9.22133,-527.18,-9742.12,-672.764,-1.26516,3.9222,11.9203,-1242.94,9772.61,-675.419,-0.767763,-4.67819,13.4059,-423.948,-9902.54,-2261.52,-0.650925,-2.87785,-7.85598,9129.2,755.062,4325.33,-21.4222,-15.0958,-9.55698
0.105,3228.63,-3566.55,8464.58,1.25792,3.0401,-1.7181,3837.07,3460.37,8229.68,-0.508687,1.29565,1.02342,519.877,9812.06,-561.542,-1.46331,2.91915,-9.53138,-538.688,-9766.97,-682.806,-1.31249,4.08908,12.2391,-1249.5,9757.78,-663.47,-0.571382,-4.94378,13.7037,-395.781,-9913.37,-2262.32,-0.467823,-2.98643,-8.25928,9155.62,767.085,4299.69,-21.8505,-14.5219,-8.78202
0.106,3219.96,-3561.75,8462.73,1.04096,2.94719,-1.94344,3829.81,3461.82,8235.0,-0.480991,1.20436,1.17019,507.064,9828.89,-546.02,-1.47286,3.06745,-9.84143,-550.195,-9791.82,-692.848,-1.35981,4.25596,12.5578,-1256.06,9742.96,-651.521,-0.375001,-5.20937,14.0015,-367.614,-9924.2,-2263.11,-0.284721,-3.09502,-8.66257,9182.04,779.107,4274.04,-22.2787,-13.948,-8.00706
0.107,3216.88,-3570.34,8469.48,0.86653,2.8662,-2.11014,3821.6,3472.69,8240.57,-0.374355,1.09607,1.30838,491.36,9843.83,-530.251,-1.46913,3.20015,-10.1013,-570.738,-9819.64,-698.558,-1.36633,4.38749,12.8591,-1281.38,9724.04,-639.143,-0.245519,-5.40836,14.26,-344.455,-9933.21,-2255.61,-0.0292292,-3.13037,-9.0795,9220.49,794.065,4246.08,-22.447,-13.346,-7.28956
0.108,3224.98,-3605.69,8493.42,0.777185,2.80904,-2.15954,3811.48,3502.41,8246.64,-0.10984,0.953772,1.42937,469.876,9855.01,-513.987,-1.43887,3.30166,-10.2607,-609.348,-9853.37,-695.602,-1.29124,4.44833,13.1253,-1344.25,9696.95,-625.907,-0.249836,-5.47411,14.4399,-331.312,-9938.56,-2231.52,0.371042,-3.01924,-9.52368,9283.03,814.892,4213.47,-22.0953,-12.6877,-6.68696
0.109,3233.08,-3641.04,8517.37,0.68784,2.75189,-2.20894,3801.36,3532.14,8252.71,0.154675,0.811477,1.55036,448.392,9866.18,-497.724,-1.40862,3.40317,-10.4202,-647.958,-9887.11,-692.647,-1.21615,4.50916,13.3916,-1407.12,9669.86,-612.671,-0.254154,-5.53987,14.6199,-318.169,-9943.91,-2207.43,0.771312,-2.90812,-9.96785,9345.56,835.72,4180.87,-21.7436,-12.0293,-6.08436
0.11,3241.17,-3676.39,8541.31,0.598495,2.69474,-2.25834,3791.24,3561.86,8258.79,0.41919,0.669183,1.67136,426.908,9877.35,-481.46,-1.37836,3.50467,-10.5796,-686.569,-9920.85,-689.692,-1.14106,4.57,13.6578,-1469.99,9642.77,-599.435,-0.258471,-5.60563,14.7998,-305.026,-9949.26,-2183.33,1.17158,-2.797,-10.412,9408.09,856.547,4148.27,-21.3919,-11.371,-5.48176
0.111,3249.27,-3711.74,8565.25,0.50915,2.63759,-2.30774,3781.12,3591.58,8264.86,0.683705,0.526888,1.79235,405.424,9888.53,-465.196,-1.3481,3.60618,-10.7391,-725.179,-9954.58,-686.736,-1.06598,4.63083,13.9241,-1532.86,9615.68,-586.198,-0.262788,-5.67139,14.9798,-291.883,-9954.61,-2159.24,1.57185,-2.68587,-10.8562,9470.63,877.375,4115.67,-21.0402,-10.7127,-4.87916
0.112,3269.17,-3671.6,8546.99,0.377401,2.59388,-2.26649,3800.24,3556.2,8253.8,0.775722,0.416622,1.86734,380.731,9882.67,-450.132,-1.25421,3.60958,-10.9131,-749.716,-9969.51,-709.678,-0.968047,4.67061,14.1005,-1580.53,9593.86,-555.148,-0.317846,-5.68579,15.1684,-316.983,-9956.0,-2171.16,1.87434,-2.57048,-11.2845,9523.58,890.784,4091.52,-20.8472,-10.5611,-3.99269
0.113,3290.55,-3622.02,8523.46,0.240351,2.55185,-2.21391,3823.02,3512.69,8240.6,0.846178,0.310359,1.93659,355.637,9874.69,-435.218,-1.15237,3.60072,-11.0889,-772.493,-9982.08,-735.857,-0.867265,4.70776,14.2657,-1626.29,9572.69,-521.87,-0.379247,-5.69378,15.3581,-346.863,-9956.9,-2187.58,2.1646,-2.45455,-11.7108,9575.34,903.265,4068.44,-20.6741,-10.4729,-3.07073
0.114,3311.93,-3572.44,8499.92,0.103301,2.50982,-2.16133,3845.8,3469.17,8227.41,0.916633,0.204096,2.00583,330.543,9866.7,-420.303,-1.05053,3.59185,-11.2647,-795.27,-9994.65,-762.036,-0.766482,4.74491,14.4309,-1672.05,9551.53,-488.593,-0.440648,-5.70176,15.5479,-376.743,-9957.81,-2204.01,2.45486,-2.33862,-12.137,9627.1,915.746,4045.36,-20.501,-10.3847,-2.14877
0.115,3333.31,-3522.87,8476.38,-0.0337495,2.46779,-2.10875,3868.58,3425.65,8214.21,0.987088,0.0978336,2.07507,305.449,9858.72,-405.389,-0.948696,3.58299,-11.4404,-818.048,-10007.2,-788.216,-0.6657,4.78205,14.5961,-1717.81,9530.36,-455.315,-0.502049,-5.70975,15.7376,-406.623,-9958.71,-2220.43,2.74512,-2.22269,-12.5633,9678.85,928.227,4022.27,-20.3279,-10.2965,-1.22681
0.116,3352.49,-3482.06,8463.08,-0.0748434,2.43199,-2.03675,3894.79,3405.25,8208.76,1.01675,0.00186978,2.06796,274.774,9849.92,-386.37,-0.880308,3.55972,-11.6099,-841.169,-10008.5,-801.199,-0.55402,4.7992,14.7163,-1769.77,9535.37,-419.861,-0.517704,-5.69262,15.9801,-428.798,-9957.09,-2224.67,3.01379,-2.05258,-12.9377,9726.92,933.546,4000.71,-20.3166,-10.3794,-0.397199
0.117,3368.93,-3452.22,8462.59,0.00400764,2.40398,-1.94048,3925.31,3413.73,8212.99,0.995412,-0.0812205,1.96542,237.124,9840.11,-362.222,-0.853734,3.51844,-11.7713,-864.722,-9995.78,-797.689,-0.428718,4.79134,14.7802,-1829.46,9573.09,-381.686,-0.476176,-5.64411,16.2887,-441.342,-9952.33,-2213.69,3.25548,-1.81474,-13.2471,9770.37,929.912,3981.05,-20.5077,-10.6761,0.316974
0.118,3385.36,-3422.38,8462.1,0.0828587,2.37596,-1.8442,3955.83,3422.22,8217.22,0.974078,-0.164311,1.86287,199.474,9830.29,-338.074,-0.827161,3.47716,-11.9327,-888.274,-9983.03,-794.178,-0.303416,4.78348,14.844,-1889.16,9610.81,-343.512,-0.434648,-5.5956,16.5973,-453.886,-9947.57,-2202.7,3.49717,-1.5769,-13.5566,9813.83,926.278,3961.39,-20.6987,-10.9729,1.03115
0.119,3401.79,-3392.54,8461.6,0.16171,2.34795,-1.74792,3986.34,3430.7,8221.45,0.952743,-0.247401,1.76032,161.825,9820.48,-313.926,-0.800587,3.43588,-12.0942,-911.827,-9970.28,-790.668,-0.178114,4.77563,14.9079,-1948.85,9648.54,-305.337,-0.393121,-5.54708,16.9058,-466.43,-9942.8,-2191.72,3.73886,-1.33905,-13.866,9857.28,922.645,3941.73,-20.8898,-11.2696,1.74532
0.12,3418.23,-3362.7,8461.11,0.240561,2.31993,-1.65165,4016.86,3439.19,8225.67,0.931408,-0.330491,1.65778,124.175,9810.67,-289.777,-0.774013,3.39459,-12.2556,-935.38,-9957.52,-787.157,-0.0528127,4.76777,14.9717,-2008.54,9686.26,-267.162,-0.351593,-5.49857,17.2144,-478.974,-9938.04,-2180.74,3.98055,-1.10121,-14.1754,9900.74,919.011,3922.06,-21.0808,-11.5663,2.45949
0.121,3426.98,-3393.66,8479.43,0.0765608,2.30576,-1.49965,4006.89,3460.14,8224.27,1.00958,-0.423805,1.73697,102.736,9812.86,-282.103,-0.740084,3.2329,-12.3659,-949.401,-9945.93,-783.699,0.00122156,4.61148,15.0762,-2044.95,9659.1,-274.816,-0.296838,-5.69838,17.4106,-505.284,-9926.22,-2191.62,4.05402,-1.12634,-14.5604,9879.21,958.642,3865.9,-21.6156,-11.311,3.39789
0.122,3435.74,-3424.62,8497.75,-0.0874393,2.29159,-1.34765,3996.92,3481.09,8222.87,1.08774,-0.51712,1.81617,81.2967,9815.06,-274.428,-0.706155,3.0712,-12.4761,-963.422,-9934.34,-780.241,0.0552559,4.4552,15.1806,-2081.36,9631.94,-282.47,-0.242083,-5.89819,17.6068,-531.595,-9914.4,-2202.5,4.12749,-1.15146,-14.9453,9857.69,998.272,3809.74,-22.1504,-11.0557,4.33628
0.123,3444.49,-3455.58,8516.07,-0.251439,2.27741,-1.19566,3986.94,3502.05,8221.47,1.16591,-0.610434,1.89537,59.8576,9817.25,-266.754,-0.672226,2.9095,-12.5864,-977.443,-9922.75,-776.782,0.10929,4.29892,15.285,-2117.78,9604.78,-290.125,-0.187327,-6.098,17.803,-557.906,-9902.58,-2213.38,4.20095,-1.17659,-15.3302,9836.17,1037.9,3753.57,-22.6852,-10.8005,5.27467
0.124,3453.25,-3486.54,8534.39,-0.41544,2.26324,-1.04366,3976.97,3523.0,8220.07,1.24408,-0.703748,1.97456,38.4186,9819.45,-259.08,-0.638298,2.7478,-12.6966,-991.464,-9911.17,-773.324,0.163324,4.14264,15.3894,-2154.19,9577.62,-297.779,-0.132572,-6.2978,17.9992,-584.216,-9890.76,-2224.26,4.27442,-1.20171,-15.7151,9814.65,1077.53,3697.41,-23.2199,-10.5452,6.21307
0.125,3441.52,-3496.62,8545.64,-0.520159,2.11161,-0.936321,3952.04,3530.24,8222.14,1.2944,-0.730123,2.04462,19.4385,9812.36,-258.153,-0.581527,2.59567,-12.8051,-1010.0,-9899.62,-767.199,0.242393,3.89097,15.4181,-2204.86,9562.97,-289.679,0.00162051,-6.55026,18.2021,-632.689,-9891.1,-2243.37,4.38584,-1.33452,-16.0616,9793.23,1098.73,3642.87,-23.5094,-10.0724,7.08437
0.126,3413.41,-3490.0,8551.23,-0.577454,1.85003,-0.864703,3915.15,3526.51,8226.98,1.32244,-0.702947,2.10738,2.42549,9797.85,-262.625,-0.506484,2.45118,-12.9121,-1032.14,-9888.1,-758.941,0.341488,3.563,15.3862,-2266.94,9558.31,-268.977,0.199362,-6.84484,18.4105,-698.891,-9901.19,-2269.07,4.52764,-1.55348,-16.3772,9771.89,1105.17,3589.61,-23.6027,-9.42556,7.902
0.127,3385.3,-3483.37,8556.83,-0.634749,1.58844,-0.793084,3878.26,3522.78,8231.82,1.35049,-0.675771,2.17013,-14.5875,9783.34,-267.096,-0.43144,2.3067,-13.0191,-1054.29,-9876.59,-750.683,0.440583,3.23503,15.3543,-2329.01,9553.66,-248.275,0.397104,-7.13943,18.6188,-765.093,-9911.27,-2294.76,4.66943,-1.77244,-16.6928,9750.56,1111.61,3536.36,-23.6961,-8.77874,8.71962
0.128,3357.19,-3476.74,8562.43,-0.692043,1.32686,-0.721466,3841.36,3519.06,8236.67,1.37853,-0.648594,2.23288,-31.6005,9768.83,-271.568,-0.356397,2.16222,-13.1261,-1076.43,-9865.07,-742.424,0.539679,2.90706,15.3223,-2391.09,9549.0,-227.573,0.594846,-7.43401,18.8271,-831.295,-9921.35,-2320.45,4.81123,-1.99139,-17.0084,9729.23,1118.06,3483.11,-23.7894,-8.13193,9.53725
0.129,3331.07,-3469.28,8569.5,-0.767144,1.08519,-0.627598,3809.45,3517.21,8240.2,1.41043,-0.621394,2.30685,-48.0411,9756.97,-275.544,-0.283726,2.02144,-13.2226,-1099.88,-9854.1,-733.518,0.613764,2.5643,15.2796,-2449.86,9543.73,-212.152,0.797716,-7.76183,19.0198,-900.148,-9932.84,-2342.05,4.95759,-2.2264,-17.3163,9709.63,1121.27,3431.79,-23.7722,-7.49635,10.3373
0.13,3320.85,-3455.1,8588.38,-0.984694,1.00284,-0.355734,3817.42,3530.42,8233.3,1.47321,-0.593999,2.47055,-59.9022,9766.38,-275.56,-0.230044,1.91028,-13.2348,-1133.75,-9847.49,-719.424,0.487769,2.10326,15.151,-2482.11,9533.55,-238.98,1.04161,-8.35563,19.0871,-990.21,-9955.62,-2330.82,5.14041,-2.5898,-17.5623,9704.01,1098.64,3395.92,-22.8711,-6.95069,10.997
0.131,3310.63,-3440.91,8607.26,-1.20224,0.920489,-0.0838699,3825.38,3543.62,8226.39,1.53598,-0.566604,2.63425,-71.7634,9775.79,-275.576,-0.176362,1.79912,-13.247,-1167.62,-9840.87,-705.331,0.361773,1.64221,15.0224,-2514.36,9523.37,-265.808,1.28551,-8.94943,19.1545,-1080.27,-9978.4,-2319.6,5.32324,-2.95321,-17.8082,9698.38,1076.01,3360.06,-21.9701,-6.40503,11.6566
0.132,3300.41,-3426.73,8626.14,-1.41979,0.83814,0.187994,3833.34,3556.83,8219.49,1.59875,-0.539209,2.79795,-83.6246,9785.19,-275.592,-0.122679,1.68795,-13.2591,-1201.49,-9834.26,-691.237,0.235778,1.18116,14.8939,-2546.61,9513.19,-292.636,1.5294,-9.54323,19.2218,-1170.33,-10001.2,-2308.38,5.50606,-3.31661,-18.0541,9692.76,1053.38,3324.19,-21.069,-5.85937,12.3163
0.133,3290.19,-3412.55,8645.03,-1.63734,0.755791,0.459858,3841.3,3570.03,8212.58,1.66152,-0.511815,2.96165,-95.4858,9794.6,-275.607,-0.0689967,1.57679,-13.2713,-1235.35,-9827.65,-677.143,0.109782,0.720114,14.7653,-2578.86,9503.0,-319.464,1.77329,-10.137,19.2891,-1260.4,-10024.0,-2297.16,5.68889,-3.68001,-18.3,9687.13,1030.75,3288.33,-20.168,-5.31371,12.976
0.134,3299.87,-3429.81,8641.52,-1.71911,0.7006,0.557702,3848.27,3584.88,8197.33,1.70962,-0.465236,3.11943,-101.57,9811.95,-281.002,-0.00318606,1.54613,-13.277,-1259.74,-9824.99,-673.178,0.0416804,0.27889,14.652,-2608.76,9479.82,-325.994,2.05246,-10.7113,19.2706,-1340.32,-10004.3,-2277.87,5.88617,-4.05958,-18.4098,9667.07,992.306,3243.89,-18.8646,-4.76175,13.5657
0.135,3319.49,-3462.81,8626.83,-1.73298,0.658987,0.568537,3854.74,3600.55,8177.91,1.75039,-0.409065,3.27425,-104.766,9833.27,-289.087,0.0686887,1.55572,-13.2794,-1279.39,-9824.31,-674.277,0.00252566,-0.152423,14.5464,-2637.49,9450.14,-322.375,2.34925,-11.2757,19.2091,-1415.16,-9963.5,-2254.56,6.09067,-4.44723,-18.4515,9639.8,945.96,3195.16,-17.36,-4.20664,14.1205
0.136,3339.12,-3495.8,8612.13,-1.74685,0.617374,0.579371,3861.22,3616.21,8158.48,1.79115,-0.352894,3.42907,-107.962,9854.58,-297.172,0.140563,1.56531,-13.2818,-1299.04,-9823.63,-675.375,-0.0366291,-0.583735,14.4407,-2666.21,9420.45,-318.756,2.64605,-11.8401,19.1476,-1490.01,-9922.66,-2231.24,6.29517,-4.83488,-18.4931,9612.53,899.614,3146.43,-15.8554,-3.65153,14.6753
0.137,3358.74,-3528.79,8597.44,-1.76072,0.575761,0.590205,3867.69,3631.88,8139.05,1.83192,-0.296723,3.58389,-111.157,9875.9,-305.256,0.212438,1.5749,-13.2842,-1318.69,-9822.96,-676.474,-0.0757838,-1.01505,14.3351,-2694.94,9390.77,-315.136,2.94284,-12.4045,19.0861,-1564.86,-9881.83,-2207.92,6.49967,-5.22253,-18.5348,9585.25,853.268,3097.7,-14.3509,-3.09643,15.2301
0.138,3371.36,-3549.75,8579.46,-1.77446,0.533637,0.58295,3874.83,3639.93,8126.39,1.86265,-0.249536,3.72082,-111.923,9895.84,-312.248,0.316418,1.58561,-13.2801,-1335.79,-9821.53,-678.024,-0.113697,-1.41802,14.2012,-2722.93,9365.77,-313.295,3.2113,-12.9374,19.0371,-1643.29,-9840.45,-2192.05,6.68516,-5.60738,-18.5736,9550.62,816.567,3053.36,-12.9673,-2.54342,15.8005
0.139,3359.42,-3528.55,8550.02,-1.78776,0.489723,0.512379,3884.31,3621.31,8137.4,1.85825,-0.233791,3.79511,-104.184,9910.94,-315.413,0.532765,1.60028,-13.253,-1343.96,-9817.5,-681.154,-0.147266,-1.72179,13.9685,-2748.39,9357.17,-317.675,3.38055,-13.3599,19.0322,-1734.23,-9797.17,-2202.2,6.80411,-5.98242,-18.6022,9490.22,813.625,3024.4,-12.0074,-1.99775,16.4253
0.14,3347.49,-3507.36,8520.58,-1.80105,0.44581,0.441809,3893.79,3602.69,8148.41,1.85385,-0.218047,3.86939,-96.445,9926.04,-318.578,0.749111,1.61495,-13.226,-1352.14,-9813.48,-684.285,-0.180836,-2.02557,13.7358,-2773.84,9348.58,-322.055,3.54981,-13.7824,19.0272,-1825.18,-9753.88,-2212.35,6.92305,-6.35747,-18.6309,9429.81,810.682,2995.43,-11.0474,-1.45209,17.0501
0.141,3335.56,-3486.17,8491.13,-1.81435,0.401896,0.371239,3903.28,3584.07,8159.42,1.84945,-0.202303,3.94368,-88.7059,9941.14,-321.743,0.965458,1.62961,-13.199,-1360.31,-9809.45,-687.415,-0.214405,-2.32934,13.5031,-2799.3,9339.99,-326.434,3.71907,-14.2049,19.0222,-1916.13,-9710.6,-2222.5,7.042,-6.73251,-18.6595,9369.41,807.74,2966.47,-10.0875,-0.906431,17.6749
0.142,3323.62,-3464.97,8461.69,-1.82765,0.357982,0.300669,3912.76,3565.45,8170.43,1.84504,-0.186559,4.01797,-80.9669,9956.24,-324.908,1.1818,1.64428,-13.172,-1368.49,-9805.42,-690.545,-0.247974,-2.63312,13.2703,-2824.76,9331.39,-330.814,3.88833,-14.6274,19.0173,-2007.08,-9667.31,-2232.65,7.16094,-7.10756,-18.6882,9309.01,804.797,2937.51,-9.12751,-0.360769,18.2997
0.143,3332.46,-3491.62,8468.63,-1.82893,0.274933,0.447012,3932.09,3562.45,8162.53,1.94268,-0.216717,4.06914,-94.8746,9939.32,-337.031,1.26545,1.74456,-13.0608,-1393.57,-9793.08,-697.159,-0.29654,-2.93652,12.9476,-2854.72,9313.91,-346.761,4.26816,-14.9804,18.9798,-2082.42,-9642.02,-2213.73,6.95925,-7.48635,-18.6322,9233.35,793.114,2926.62,-8.57119,0.0986527,18.7147
0.144,3347.23,-3531.93,8485.98,-1.82678,0.180704,0.65533,3954.23,3563.91,8149.22,2.06947,-0.259991,4.11372,-114.967,9913.25,-351.714,1.31117,1.86929,-12.9256,-1423.49,-9778.36,-704.769,-0.349391,-3.23982,12.5992,-2885.96,9293.9,-366.013,4.70816,-15.3135,18.9329,-2153.3,-9621.85,-2186.5,6.66594,-7.86622,-18.5521,9153.33,778.933,2920.9,-8.1302,0.533434,19.0697
0.145,3362.0,-3572.25,8503.32,-1.82463,0.0864738,0.863648,3976.37,3565.37,8135.91,2.19626,-0.303264,4.15829,-135.06,9887.18,-366.397,1.35689,1.99403,-12.7903,-1453.41,-9763.64,-712.378,-0.402241,-3.54312,12.2507,-2917.21,9273.89,-385.265,5.14816,-15.6466,18.8861,-2224.18,-9601.69,-2159.27,6.37263,-8.24609,-18.472,9073.32,764.752,2915.18,-7.6892,0.968216,19.4248
0.146,3376.77,-3612.56,8520.66,-1.82248,-0.00775604,1.07197,3998.51,3566.83,8122.6,2.32305,-0.346538,4.20287,-155.152,9861.11,-381.079,1.40262,2.11877,-12.6551,-1483.33,-9748.92,-719.988,-0.455092,-3.84642,11.9023,-2948.45,9253.87,-404.517,5.58816,-15.9797,18.8393,-2295.05,-9581.53,-2132.04,6.07932,-8.62596,-18.3919,8993.3,750.571,2909.45,-7.24821,1.403,19.7798
0.147,3395.01,-3639.44,8524.6,-1.81003,-0.0855911,1.19983,4010.73,3566.77,8108.98,2.38641,-0.368331,4.24643,-173.476,9849.16,-403.211,1.42736,2.23639,-12.5199,-1515.34,-9742.03,-726.705,-0.483348,-4.09055,11.565,-2966.95,9240.68,-421.348,5.8922,-16.2183,18.7728,-2353.36,-9564.72,-2122.25,5.78133,-9.00808,-18.3146,8940.7,735.881,2912.31,-6.78907,1.77907,19.9635
0.148,3420.19,-3639.45,8501.73,-1.777,-0.130636,1.1668,4003.11,3563.67,8094.74,2.32291,-0.347162,4.28798,-188.262,9865.42,-440.242,1.41013,2.33977,-12.3848,-1551.53,-9750.81,-731.64,-0.462415,-4.21634,11.2502,-2959.93,9241.15,-433.338,5.92432,-16.268,18.6672,-2386.54,-9554.59,-2147.37,5.47397,-9.39473,-18.2431,8942.94,720.174,2932.33,-6.29363,2.03773,19.8043
0.149,3445.37,-3639.46,8478.86,-1.74397,-0.175682,1.13377,3995.49,3560.58,8080.5,2.2594,-0.325993,4.32953,-203.048,9881.69,-477.273,1.3929,2.44315,-12.2498,-1587.72,-9759.59,-736.574,-0.441481,-4.34212,10.9353,-2952.92,9241.62,-445.328,5.95645,-16.3178,18.5616,-2419.72,-9544.46,-2172.48,5.16661,-9.78138,-18.1716,8945.19,704.466,2952.35,-5.7982,2.29638,19.6452
0.15,3470.55,-3639.47,8455.99,-1.71094,-0.220727,1.10074,3987.87,3557.49,8066.26,2.19589,-0.304824,4.37107,-217.833,9897.96,-514.304,1.37567,2.54653,-12.1147,-1623.91,-9768.37,-741.508,-0.420548,-4.46791,10.6205,-2945.9,9242.08,-457.318,5.98857,-16.3675,18.456,-2452.9,-9534.33,-2197.59,4.85925,-10.168,-18.1002,8947.43,688.758,2972.37,-5.30276,2.55504,19.486
0.151,3495.73,-3639.48,8433.12,-1.67791,-0.265773,1.06771,3980.25,3554.39,8052.02,2.13239,-0.283655,4.41262,-232.619,9914.23,-551.334,1.35844,2.64991,-11.9796,-1660.1,-9777.15,-746.443,-0.399614,-4.59369,10.3057,-2938.89,9242.55,-469.308,6.02069,-16.4172,18.3503,-2486.08,-9524.2,-2222.7,4.55189,-10.5547,-18.0287,8949.67,673.051,2992.39,-4.80732,2.8137,19.3269
0.152,3504.02,-3626.92,8426.17,-1.75877,-0.351755,1.15301,3997.31,3561.36,8067.58,2.08334,-0.26403,4.37554,-259.446,9922.89,-548.356,1.46812,2.68783,-11.9011,-1673.15,-9767.3,-749.023,-0.338522,-4.75606,9.96202,-2933.69,9215.21,-496.317,6.01383,-16.3748,18.1295,-2532.53,-9504.78,-2257.3,4.25605,-10.7513,-17.8431,8908.98,672.427,3001.54,-4.65768,2.97259,19.1769
0.153,3510.2,-3612.79,8421.21,-1.85387,-0.442854,1.25311,4017.45,3569.59,8086.86,2.0361,-0.244598,4.32863,-287.779,9930.6,-540.378,1.59368,2.71757,-11.8297,-1683.3,-9755.12,-751.309,-0.272409,-4.923,9.61479,-2928.71,9184.38,-525.203,6.0021,-16.3208,17.8943,-2580.64,-9484.19,-2293.09,3.96165,-10.9241,-17.6432,8862.92,673.688,3009.33,-4.55126,3.11902,19.0281
0.154,3516.38,-3598.66,8416.25,-1.94896,-0.533953,1.3532,4037.59,3577.82,8106.14,1.98886,-0.225165,4.28172,-316.111,9938.31,-532.399,1.71923,2.74731,-11.7583,-1693.46,-9742.94,-753.595,-0.206297,-5.08994,9.26755,-2923.73,9153.56,-554.09,5.99036,-16.2669,17.6591,-2628.75,-9463.6,-2328.88,3.66726,-11.097,-17.4433,8816.85,674.949,3017.13,-4.44484,3.26544,18.8792
0.155,3522.55,-3584.53,8411.29,-2.04406,-0.625052,1.4533,4057.73,3586.05,8125.43,1.94162,-0.205733,4.23481,-344.443,9946.02,-524.42,1.84478,2.77705,-11.6869,-1703.61,-9730.76,-755.881,-0.140184,-5.25688,8.92032,-2918.75,9122.74,-582.976,5.97863,-16.213,17.4239,-2676.86,-9443.01,-2364.67,3.37286,-11.2699,-17.2435,8770.79,676.211,3024.93,-4.33842,3.41187,18.7304
0.156,3504.15,-3582.25,8414.43,-2.12417,-0.683856,1.56244,4073.0,3591.26,8131.45,1.87823,-0.193749,4.1581,-358.871,9947.26,-526.905,1.9257,2.94499,-11.5983,-1712.89,-9713.63,-760.158,-0.111729,-5.39252,8.47124,-2912.01,9110.93,-616.656,5.99685,-15.9734,17.2153,-2696.88,-9438.01,-2389.18,3.16523,-11.4205,-17.0034,8737.25,678.53,3033.41,-4.32852,3.46907,18.5452
0.157,3455.0,-3594.79,8427.7,-2.18553,-0.702291,1.68289,4082.17,3592.69,8120.91,1.79464,-0.191077,4.04415,-355.919,9940.42,-542.471,1.95084,3.28566,-11.4882,-1721.07,-9690.32,-766.923,-0.130345,-5.48903,7.89485,-2903.09,9122.87,-656.327,6.05251,-15.5019,17.0398,-2681.79,-9452.49,-2399.6,3.06605,-11.5434,-16.7132,8719.34,682.172,3042.75,-4.43927,3.41472,18.3146
0.158,3405.86,-3607.33,8440.96,-2.2469,-0.720726,1.80335,4091.34,3594.12,8110.36,1.71106,-0.188405,3.9302,-352.966,9933.59,-558.038,1.97599,3.62634,-11.3782,-1729.25,-9667.0,-773.688,-0.148961,-5.58553,7.31847,-2894.16,9134.82,-695.999,6.10818,-15.0303,16.8644,-2666.71,-9466.96,-2410.02,2.96687,-11.6664,-16.423,8701.44,685.814,3052.09,-4.55003,3.36038,18.084
0.159,3356.72,-3619.87,8454.23,-2.30827,-0.739161,1.9238,4100.51,3595.55,8099.82,1.62748,-0.185732,3.81624,-350.014,9926.75,-573.604,2.00113,3.96701,-11.2681,-1737.43,-9643.69,-780.453,-0.167578,-5.68204,6.74209,-2885.24,9146.77,-735.67,6.16385,-14.5588,16.6889,-2651.62,-9481.44,-2420.44,2.86769,-11.7893,-16.1328,8683.53,689.457,3061.43,-4.66078,3.30604,17.8534
0.16,3307.58,-3632.41,8467.5,-2.36964,-0.757596,2.04425,4109.68,3596.98,8089.27,1.5439,-0.18306,3.70229,-347.061,9919.91,-589.17,2.02627,4.30769,-11.1581,-1745.61,-9620.37,-787.218,-0.186194,-5.77855,6.1657,-2876.31,9158.72,-775.341,6.21952,-14.0872,16.5135,-2636.54,-9495.91,-2430.86,2.76851,-11.9122,-15.8426,8665.63,693.099,3070.78,-4.77153,3.2517,17.6228
0.161,3317.78,-3627.37,8458.09,-2.34831,-0.819256,1.96231,4106.05,3585.26,8075.03,1.41307,-0.126579,3.7245,-333.108,9910.32,-610.133,2.06767,4.4841,-10.9003,-1726.45,-9626.99,-773.293,-0.222845,-5.73367,5.66748,-2894.72,9164.75,-786.214,6.1537,-13.4958,16.1801,-2644.79,-9485.98,-2448.89,2.81696,-12.0121,-15.6523,8670.67,703.729,3071.61,-4.99358,3.1327,17.4117
0.162,3327.98,-3622.33,8448.68,-2.32698,-0.880916,1.88037,4102.42,3573.53,8060.79,1.28224,-0.0700979,3.74671,-319.155,9900.73,-631.096,2.10906,4.66051,-10.6426,-1707.29,-9633.62,-759.368,-0.259495,-5.68878,5.16925,-2913.12,9170.77,-797.086,6.08788,-12.9043,15.8467,-2653.03,-9476.05,-2466.92,2.86542,-12.112,-15.4619,8675.73,714.359,3072.44,-5.21562,3.01369,17.2006
0.163,3338.18,-3617.29,8439.27,-2.30565,-0.942576,1.79842,4098.78,3561.81,8046.54,1.15141,-0.0136168,3.76892,-305.203,9891.14,-652.06,2.15046,4.83692,-10.3848,-1688.13,-9640.24,-745.443,-0.296146,-5.6439,4.67103,-2931.53,9176.8,-807.958,6.02205,-12.3129,15.5133,-2661.28,-9466.12,-2484.95,2.91387,-12.2118,-15.2716,8680.78,724.989,3073.28,-5.43766,2.89469,16.9895
0.164,3348.38,-3612.25,8429.85,-2.28432,-1.00424,1.71648,4095.15,3550.08,8032.3,1.02057,0.0428642,3.79113,-291.25,9881.55,-673.023,2.19186,5.01333,-10.127,-1668.97,-9646.86,-731.518,-0.332797,-5.59902,4.1728,-2949.93,9182.83,-818.83,5.95623,-11.7215,15.1799,-2669.53,-9456.19,-2502.98,2.96232,-12.3117,-15.0813,8685.83,735.618,3074.11,-5.65971,2.77569,16.7784
0.165,3360.96,-3609.53,8418.9,-2.29005,-1.02077,1.65419,4096.0,3523.09,8030.17,0.929882,0.125462,3.79372,-282.556,9875.26,-675.138,2.17254,5.24703,-9.87531,-1657.51,-9655.89,-717.155,-0.35844,-5.58478,3.69398,-2950.72,9172.54,-841.557,5.96915,-11.0203,14.7807,-2688.2,-9468.06,-2498.1,2.79495,-12.3645,-14.7102,8678.4,733.287,3057.22,-5.71647,2.68165,16.5766
0.166,3375.44,-3608.66,8406.7,-2.31742,-1.0012,1.60762,4100.42,3483.88,8037.73,0.871302,0.228954,3.78063,-278.07,9871.61,-662.175,2.10465,5.52657,-9.6284,-1652.21,-9666.84,-702.444,-0.375279,-5.59506,3.2307,-2937.42,9149.2,-873.766,6.04505,-10.2312,14.3289,-2715.22,-9497.37,-2474.87,2.45492,-12.3796,-14.1944,8660.99,720.586,3026.15,-5.641,2.60758,16.3823
0.167,3389.93,-3607.8,8394.51,-2.34479,-0.981637,1.56104,4104.84,3444.67,8045.3,0.812722,0.332446,3.76753,-273.584,9867.96,-649.212,2.03676,5.8061,-9.3815,-1646.9,-9677.79,-687.732,-0.392117,-5.60534,2.76741,-2924.11,9125.87,-905.976,6.12095,-9.44222,13.8771,-2742.23,-9526.67,-2451.65,2.1149,-12.3947,-13.6786,8643.57,707.884,2995.08,-5.56554,2.53351,16.188
0.168,3404.41,-3606.93,8382.32,-2.37217,-0.96207,1.51447,4109.26,3405.46,8052.86,0.754142,0.435939,3.75443,-269.097,9864.31,-636.249,1.96888,6.08563,-9.13459,-1641.59,-9688.75,-673.02,-0.408955,-5.61562,2.30412,-2910.81,9102.53,-938.186,6.19686,-8.65319,13.4252,-2769.25,-9555.98,-2428.43,1.77487,-12.4099,-13.1629,8626.16,695.183,2964.02,-5.49007,2.45944,15.9937
0.169,3418.98,-3606.87,8373.57,-2.38745,-0.939059,1.48829,4114.41,3372.99,8055.98,0.693609,0.537678,3.72817,-268.84,9861.42,-628.383,1.92177,6.34557,-8.88507,-1641.41,-9698.87,-660.063,-0.428913,-5.61486,1.83164,-2902.21,9080.27,-969.464,6.26016,-7.86498,12.9908,-2794.4,-9578.0,-2405.9,1.43296,-12.4144,-12.6492,8610.19,683.131,2935.96,-5.36145,2.40527,15.8026
0.17,3434.18,-3613.24,8392.35,-2.30601,-0.888488,1.62521,4125.46,3394.52,8023.58,0.617457,0.6254,3.59666,-302.413,9864.61,-661.296,2.04092,6.44874,-8.61468,-1682.17,-9702.37,-661.148,-0.473821,-5.52578,1.28566,-2931.22,9066.6,-993.297,6.22269,-7.0833,12.6952,-2804.6,-9541.67,-2388.9,1.07588,-12.3342,-12.1522,8605.78,676.271,2932.0,-4.80764,2.51028,15.6372
0.171,3449.39,-3619.61,8411.14,-2.22457,-0.837918,1.76214,4136.51,3416.04,7991.18,0.541304,0.713121,3.46515,-335.986,9867.79,-694.209,2.16007,6.55192,-8.34429,-1722.93,-9705.86,-662.232,-0.51873,-5.4367,0.739681,-2960.23,9052.92,-1017.13,6.18523,-6.30161,12.3996,-2814.81,-9505.34,-2371.91,0.718813,-12.2539,-11.6552,8601.37,669.411,2928.04,-4.25384,2.6153,15.4717
0.172,3464.59,-3625.98,8429.93,-2.14312,-0.787347,1.89907,4147.55,3437.56,7958.78,0.465152,0.800843,3.33363,-369.559,9870.97,-727.122,2.27923,6.65509,-8.07389,-1763.69,-9709.36,-663.316,-0.563639,-5.34761,0.1937,-2989.24,9039.25,-1040.96,6.14776,-5.51993,12.104,-2825.02,-9469.02,-2354.91,0.361742,-12.1737,-11.1582,8596.96,662.551,2924.07,-3.70003,2.72031,15.3062
0.173,3479.8,-3632.35,8448.72,-2.06168,-0.736777,2.036,4158.6,3459.08,7926.38,0.388999,0.888564,3.20212,-403.132,9874.15,-760.036,2.39838,6.75827,-7.8035,-1804.45,-9712.85,-664.4,-0.608548,-5.25853,-0.352281,-3018.25,9025.58,-1064.79,6.11029,-4.73824,11.8084,-2835.23,-9432.69,-2337.92,0.00467068,-12.0934,-10.6612,8592.55,655.691,2920.11,-3.14622,2.82532,15.1407
0.174,3484.93,-3661.05,8441.45,-2.06,-0.765307,2.09202,4156.23,3419.93,7944.14,0.347068,0.833345,3.02564,-437.716,9853.33,-780.86,2.45681,6.84512,-7.43563,-1843.92,-9714.35,-655.668,-0.596141,-5.08807,-0.938548,-3048.17,9016.01,-1085.18,6.02537,-3.98276,11.4687,-2820.8,-9429.51,-2329.19,-0.497818,-12.0837,-10.0528,8603.67,667.171,2925.36,-2.62152,2.89135,15.0456
0.175,3485.03,-3700.91,8421.15,-2.0982,-0.833388,2.1076,4147.15,3350.45,7986.99,0.322248,0.706655,2.82668,-472.805,9820.51,-795.641,2.48488,6.92382,-7.01902,-1882.76,-9714.84,-642.027,-0.555076,-4.87691,-1.54496,-3078.55,9008.49,-1103.85,5.91673,-3.24038,11.1068,-2794.06,-9442.91,-2324.6,-1.07302,-12.1092,-9.38882,8622.55,687.821,2935.23,-2.11136,2.93789,14.9857
0.176,3485.13,-3740.76,8400.86,-2.1364,-0.901469,2.12318,4138.07,3280.96,8029.83,0.297427,0.579965,2.62772,-507.894,9787.69,-810.421,2.51294,7.00252,-6.60242,-1921.59,-9715.34,-628.387,-0.514012,-4.66575,-2.15137,-3108.93,9000.96,-1122.52,5.80809,-2.498,10.7449,-2767.32,-9456.31,-2320.01,-1.64821,-12.1346,-8.72481,8641.43,708.471,2945.09,-1.60121,2.98443,14.9258
0.177,3485.23,-3780.62,8380.56,-2.1746,-0.96955,2.13876,4128.98,3211.48,8072.68,0.272606,0.453275,2.42877,-542.983,9754.87,-825.202,2.54101,7.08122,-6.18582,-1960.43,-9715.83,-614.746,-0.472948,-4.45459,-2.75778,-3139.31,8993.44,-1141.18,5.69944,-1.75562,10.383,-2740.57,-9469.7,-2315.42,-2.22341,-12.1601,-8.0608,8660.32,729.121,2954.95,-1.09106,3.03097,14.866
0.178,3488.04,-3808.53,8362.66,-2.20246,-0.996196,2.15663,4125.59,3162.68,8102.82,0.205744,0.370137,2.22001,-579.217,9730.6,-833.525,2.58889,7.16096,-5.74734,-1991.15,-9716.88,-603.734,-0.420364,-4.27506,-3.34484,-3168.22,8984.61,-1159.07,5.56335,-1.00935,9.97971,-2720.68,-9477.76,-2311.65,-2.77187,-12.1467,-7.41085,8673.84,748.018,2965.7,-0.631201,3.0696,14.8148
0.179,3500.3,-3794.59,8353.15,-2.19415,-0.877817,2.18252,4142.12,3186.29,8088.51,-0.00826575,0.439432,1.97695,-619.461,9736.25,-819.249,2.70613,7.24433,-5.23233,-1993.46,-9719.87,-601.922,-0.327464,-4.20622,-3.86418,-3192.01,8971.2,-1174.22,5.33118,-0.249464,9.43135,-2724.76,-9467.14,-2310.79,-3.22672,-11.9974,-6.81013,8668.62,760.783,2979.55,-0.347374,3.08051,14.7941
0.18,3512.57,-3780.65,8343.65,-2.18584,-0.759438,2.20841,4158.64,3209.89,8074.21,-0.222275,0.508727,1.7339,-659.705,9741.9,-804.973,2.82336,7.32771,-4.71731,-1995.77,-9722.86,-600.11,-0.234564,-4.13739,-4.38351,-3215.79,8957.78,-1189.37,5.09901,0.510425,8.88299,-2728.85,-9456.51,-2309.93,-3.68157,-11.848,-6.2094,8663.4,773.548,2993.4,-0.0635469,3.09143,14.7734
0.181,3524.83,-3766.72,8334.14,-2.17754,-0.64106,2.23431,4175.17,3233.5,8059.9,-0.436285,0.578022,1.49084,-699.95,9747.55,-790.697,2.9406,7.41109,-4.2023,-1998.09,-9725.86,-598.297,-0.141664,-4.06855,-4.90285,-3239.57,8944.36,-1204.52,4.86685,1.27031,8.33464,-2732.93,-9445.88,-2309.06,-4.13641,-11.6987,-5.60867,8658.19,786.313,3007.25,0.22028,3.10234,14.7526
0.182,3537.1,-3752.78,8324.63,-2.16923,-0.522681,2.2602,4191.7,3257.11,8045.59,-0.650294,0.647318,1.24778,-740.194,9753.2,-776.422,3.05784,7.49446,-3.68728,-2000.4,-9728.85,-596.485,-0.0487644,-3.99971,-5.42219,-3263.36,8930.95,-1219.67,4.63468,2.0302,7.78628,-2737.01,-9435.25,-2308.2,-4.59126,-11.5493,-5.00795,8652.97,799.077,3021.09,0.504107,3.11325,14.7319
0.183,3530.52,-3754.03,8317.93,-2.07192,-0.499425,2.26901,4195.58,3262.77,8041.61,-0.762229,0.647131,0.944379,-746.532,9758.23,-769.716,3.01626,7.3189,-3.42107,-1989.84,-9723.44,-581.112,0.0195616,-3.96339,-5.83609,-3299.58,8917.01,-1221.35,4.37642,2.8576,7.25746,-2712.01,-9435.37,-2312.49,-4.77769,-11.2222,-4.57065,8659.28,804.987,3036.97,0.667742,3.19184,14.6819
0.184,3518.56,-3759.62,8312.03,-1.94919,-0.503348,2.27293,4195.85,3263.31,8040.57,-0.845,0.627093,0.623735,-743.183,9763.07,-765.174,2.92931,7.06935,-3.22594,-1975.59,-9715.64,-561.865,0.0808663,-3.93635,-6.21986,-3339.35,8902.92,-1219.18,4.11071,3.70429,6.73423,-2678.69,-9438.56,-2318.25,-4.88742,-10.8444,-4.18006,8668.88,808.937,3053.43,0.797037,3.28975,14.6234
0.185,3506.59,-3765.2,8306.13,-1.82645,-0.50727,2.27685,4196.11,3263.85,8039.54,-0.927771,0.607055,0.303091,-739.834,9767.92,-760.632,2.84235,6.8198,-3.03082,-1961.35,-9707.83,-542.619,0.142171,-3.90931,-6.60363,-3379.13,8888.83,-1217.02,3.845,4.55098,6.211,-2645.38,-9441.74,-2324.0,-4.99715,-10.4666,-3.78946,8678.49,812.888,3069.88,0.926332,3.38767,14.565
0.186,3494.63,-3770.79,8300.23,-1.70372,-0.511193,2.28077,4196.38,3264.39,8038.5,-1.01054,0.587017,-0.0175521,-736.485,9772.77,-756.09,2.7554,6.57025,-2.83569,-1947.11,-9700.03,-523.372,0.203476,-3.88227,-6.98741,-3418.9,8874.74,-1214.85,3.57929,5.39767,5.68777,-2612.06,-9444.93,-2329.76,-5.10688,-10.0887,-3.39886,8688.09,816.838,3086.34,1.05563,3.48559,14.5066
0.187,3487.96,-3772.5,8297.02,-1.63612,-0.496734,2.25992,4194.53,3269.8,8035.13,-1.10821,0.535783,-0.298058,-738.502,9776.14,-760.22,2.65575,6.35423,-2.52265,-1922.85,-9697.11,-512.161,0.248902,-3.81725,-7.37566,-3459.93,8865.23,-1215.8,3.33701,6.14616,5.18078,-2561.61,-9457.31,-2336.26,-5.19748,-9.67478,-3.00984,8696.17,825.175,3095.77,1.13357,3.53236,14.4626
0.188,3491.89,-3766.46,8299.2,-1.67882,-0.445512,2.18952,4188.44,3284.96,8027.07,-1.23569,0.422157,-0.49829,-751.25,9776.57,-781.692,2.53068,6.20525,-1.97376,-1878.57,-9703.96,-517.021,0.262572,-3.67627,-7.77286,-3503.48,8864.87,-1222.98,3.14162,6.69826,4.70628,-2476.88,-9488.07,-2344.24,-5.24982,-9.18861,-2.62396,8701.2,842.284,3091.14,1.10881,3.47685,14.4475
0.189,3495.82,-3760.42,8301.38,-1.72152,-0.394291,2.11912,4182.36,3300.12,8019.02,-1.36316,0.308532,-0.698521,-763.999,9777.0,-803.164,2.40562,6.05628,-1.42487,-1834.29,-9710.81,-521.881,0.276242,-3.53528,-8.17006,-3547.03,8864.52,-1230.15,2.94622,7.25035,4.23178,-2392.15,-9518.83,-2352.22,-5.30217,-8.70244,-2.23807,8706.22,859.393,3086.5,1.08405,3.42134,14.4325
0.19,3499.76,-3754.38,8303.56,-1.76422,-0.343069,2.04872,4176.27,3315.28,8010.97,-1.49064,0.194906,-0.898752,-776.747,9777.44,-824.636,2.28055,5.9073,-0.875978,-1790.01,-9717.66,-526.741,0.289911,-3.3943,-8.56726,-3590.58,8864.16,-1237.33,2.75082,7.80245,3.75728,-2307.42,-9549.59,-2360.19,-5.35451,-8.21627,-1.85219,8711.25,876.502,3081.87,1.05928,3.36583,14.4174
0.191,3503.69,-3748.35,8305.74,-1.80691,-0.291848,1.97831,4170.18,3330.44,8002.92,-1.61811,0.0812802,-1.09898,-789.496,9777.87,-846.108,2.15549,5.75832,-0.327089,-1745.73,-9724.51,-531.601,0.303581,-3.25331,-8.96446,-3634.13,8863.8,-1244.5,2.55542,8.35455,3.28278,-2222.69,-9580.35,-2368.17,-5.40685,-7.7301,-1.46631,8716.28,893.612,3077.24,1.03452,3.31032,14.4024
0.192,3519.48,-3768.3,8302.03,-1.78902,-0.267557,1.86517,4156.94,3334.16,8015.33,-1.6691,0.0441396,-1.24891,-814.831,9763.42,-852.03,2.1608,5.57628,0.136142,-1707.35,-9738.18,-536.009,0.3051,-3.12768,-9.37328,-3643.46,8843.24,-1263.01,2.43687,8.95138,2.8839,-2117.31,-9599.82,-2330.8,-5.44971,-7.301,-1.03568,8727.33,889.046,3078.93,0.890297,3.28371,14.4065
0.193,3536.75,-3791.5,8297.58,-1.76355,-0.246633,1.74667,4142.8,3336.45,8030.3,-1.71053,0.0165596,-1.39255,-841.739,9747.12,-856.009,2.18242,5.3901,0.588666,-1669.7,-9752.71,-540.361,0.3051,-3.00396,-9.78356,-3648.51,8820.15,-1282.94,2.32793,9.5538,2.49447,-2009.34,-9617.88,-2287.76,-5.49138,-6.87904,-0.599448,8739.15,881.771,3081.42,0.731139,3.26071,14.413
0.194,3554.03,-3814.71,8293.13,-1.73808,-0.225709,1.62818,4128.66,3338.74,8045.28,-1.75196,-0.0110204,-1.53619,-868.647,9730.81,-859.987,2.20403,5.20392,1.04119,-1632.06,-9767.24,-544.712,0.3051,-2.88025,-10.1938,-3653.55,8797.06,-1302.87,2.21899,10.1562,2.10504,-1901.36,-9635.94,-2244.72,-5.53305,-6.45707,-0.163219,8750.96,874.496,3083.9,0.571981,3.23771,14.4195
0.195,3571.3,-3837.91,8288.69,-1.71261,-0.204785,1.50969,4114.52,3341.03,8060.25,-1.79339,-0.0386005,-1.67983,-895.555,9714.51,-863.966,2.22565,5.01773,1.49371,-1594.41,-9781.77,-549.064,0.3051,-2.75653,-10.6041,-3658.6,8773.97,-1322.79,2.11004,10.7587,1.71562,-1793.39,-9654.0,-2201.68,-5.57473,-6.03511,0.27301,8762.77,867.221,3086.38,0.412823,3.21472,14.426
0.196,3583.24,-3840.26,8291.41,-1.68586,-0.190742,1.46637,4076.41,3359.4,8080.2,-1.80149,-0.0328509,-1.79395,-900.202,9703.69,-854.561,2.22865,4.8774,1.91455,-1547.57,-9784.91,-553.706,0.291789,-2.68418,-10.9282,-3652.09,8764.0,-1330.83,1.99018,11.3007,1.24028,-1700.56,-9670.49,-2170.73,-5.60696,-5.66729,0.628538,8776.16,857.957,3088.35,0.297684,3.21993,14.4358
0.197,3588.49,-3816.55,8303.09,-1.6575,-0.185301,1.51703,4008.31,3397.86,8106.36,-1.76793,0.0145605,-1.87118,-877.024,9699.74,-828.428,2.20839,4.79436,2.29577,-1489.24,-9773.8,-558.713,0.261841,-2.67603,-11.1445,-3631.13,8770.45,-1324.0,1.85665,11.7673,0.657544,-1626.66,-9685.02,-2154.89,-5.62739,-5.36716,0.883189,8791.52,846.209,3089.66,0.237568,3.26042,14.4497
0.198,3593.74,-3792.84,8314.77,-1.62915,-0.17986,1.56769,3940.22,3436.31,8132.53,-1.73436,0.061972,-1.94841,-853.846,9695.78,-802.295,2.18813,4.71132,2.67698,-1430.91,-9762.7,-563.719,0.231892,-2.66788,-11.3608,-3610.17,8776.9,-1317.17,1.72313,12.2339,0.0748107,-1552.75,-9699.55,-2139.05,-5.64782,-5.06702,1.13784,8806.88,834.461,3090.98,0.177453,3.3009,14.4635
0.199,3598.99,-3769.14,8326.45,-1.60079,-0.174418,1.61834,3872.12,3474.77,8158.7,-1.7008,0.109383,-2.02564,-830.668,9691.83,-776.162,2.16787,4.62829,3.0582,-1372.58,-9751.6,-568.725,0.201943,-2.65973,-11.5771,-3589.21,8783.34,-1310.34,1.5896,12.7005,-0.507922,-1478.84,-9714.09,-2123.22,-5.66825,-4.76689,1.39249,8822.24,822.712,3092.29,0.117337,3.34138,14.4774
0.2,3604.25,-3745.43,8338.14,-1.57244,-0.168977,1.669,3804.03,3513.23,8184.86,-1.66724,0.156795,-2.10287,-807.49,9687.88,-750.029,2.14761,4.54525,3.43942,-1314.25,-9740.5,-573.732,0.171994,-2.65158,-11.7934,-3568.25,8789.79,-1303.51,1.45608,13.1671,-1.09066,-1404.93,-9728.62,-2107.38,-5.68868,-4.46676,1.64714,8837.6,810.964,3093.61,0.0572213,3.38186,14.4913
0.201,3607.6,-3731.42,8308.81,-1.49067,-0.0769915,1.68907,3806.71,3495.54,8181.94,-1.63806,0.100847,-1.99891,-806.622,9692.59,-766.898,2.11982,4.11163,3.82717,-1272.1,-9766.29,-551.142,0.10949,-2.79236,-11.9642,-3572.28,8801.33,-1290.09,1.37716,13.6814,-1.56254,-1321.8,-9742.73,-2097.13,-5.69882,-3.84268,2.04814,8844.53,816.496,3103.12,0.112732,3.49205,14.5596
0.202,3610.95,-3717.41,8279.47,-1.40891,0.0149942,1.70915,3809.39,3477.85,8179.01,-1.60889,0.0448985,-1.89495,-805.755,9697.31,-783.766,2.09202,3.67802,4.21492,-1229.95,-9792.08,-528.552,0.0469854,-2.93314,-12.1349,-3576.31,8812.86,-1276.68,1.29823,14.1957,-2.03442,-1238.67,-9756.84,-2086.87,-5.70897,-3.21861,2.44914,8851.46,822.029,3112.64,0.168243,3.60223,14.6278
0.203,3614.3,-3703.41,8250.14,-1.32715,0.10698,1.72922,3812.07,3460.16,8176.08,-1.57971,-0.0110498,-1.791,-804.887,9702.02,-800.634,2.06423,3.2444,4.60267,-1187.8,-9817.88,-505.962,-0.015519,-3.07392,-12.3057,-3580.34,8824.4,-1263.27,1.21931,14.71,-2.5063,-1155.53,-9770.95,-2076.62,-5.71912,-2.59454,2.85013,8858.39,827.562,3122.16,0.223754,3.71242,14.6961
0.204,3617.65,-3689.4,8220.81,-1.24538,0.198966,1.7493,3814.75,3442.46,8173.16,-1.55054,-0.066998,-1.68704,-804.019,9706.74,-817.502,2.03644,2.81079,4.99042,-1145.65,-9843.67,-483.372,-0.0780234,-3.2147,-12.4764,-3584.37,8835.94,-1249.86,1.14039,15.2244,-2.97819,-1072.4,-9785.05,-2066.36,-5.72926,-1.97046,3.25113,8865.32,833.095,3131.67,0.279265,3.8226,14.7644
0.205,3615.95,-3685.19,8219.43,-1.20283,0.281375,1.74452,3832.92,3443.04,8178.04,-1.50136,-0.067878,-1.64793,-795.416,9705.76,-828.241,2.09347,2.46161,5.37185,-1137.66,-9849.57,-483.773,-0.156383,-3.27315,-12.595,-3570.25,8840.49,-1249.46,1.06612,15.5727,-3.32262,-997.749,-9787.0,-2064.69,-5.84226,-1.19277,3.59826,8871.44,837.976,3145.88,0.346355,3.93322,14.8178
0.206,3610.21,-3688.82,8240.42,-1.19166,0.356124,1.71986,3863.5,3458.23,8189.16,-1.43619,-0.0247034,-1.66069,-780.624,9700.23,-834.076,2.21835,2.17999,5.74821,-1157.0,-9839.57,-502.566,-0.247426,-3.26573,-12.6717,-3541.61,8839.46,-1259.48,0.995579,15.7884,-3.56508,-929.88,-9779.2,-2069.89,-6.03754,-0.292193,3.90229,8876.9,842.336,3163.84,0.422709,4.04419,14.8593
0.207,3604.46,-3692.45,8261.4,-1.18049,0.430872,1.69521,3894.08,3473.43,8200.28,-1.37102,0.0184712,-1.67345,-765.832,9694.7,-839.91,2.34323,1.89837,6.12458,-1176.34,-9829.56,-521.359,-0.33847,-3.25831,-12.7485,-3512.96,8838.43,-1269.5,0.925038,16.0041,-3.80755,-862.012,-9771.41,-2075.08,-6.23282,0.608388,4.20633,8882.37,846.696,3181.8,0.499062,4.15516,14.9009
0.208,3598.72,-3696.07,8282.39,-1.16931,0.505621,1.67055,3924.66,3488.62,8211.41,-1.30585,0.0616459,-1.68621,-751.04,9689.17,-845.745,2.46812,1.61675,6.50095,-1195.68,-9819.56,-540.152,-0.429513,-3.25089,-12.8253,-3484.32,8837.4,-1279.52,0.854498,16.2197,-4.05001,-794.143,-9763.61,-2080.28,-6.4281,1.50897,4.51036,8887.84,851.056,3199.76,0.575416,4.26613,14.9424
0.209,3591.47,-3700.62,8302.63,-1.16127,0.581275,1.63903,3957.22,3502.54,8218.23,-1.25704,0.0907655,-1.70063,-741.356,9687.46,-850.967,2.57022,1.33708,6.87289,-1215.3,-9812.13,-558.062,-0.515333,-3.22693,-12.9137,-3456.56,8838.53,-1288.37,0.793329,16.4241,-4.28668,-731.189,-9759.75,-2080.82,-6.62268,2.39591,4.80189,8894.43,855.903,3216.94,0.671425,4.36144,14.9802
0.21,3572.23,-3712.55,8316.9,-1.1783,0.66418,1.55265,4005.66,3506.27,8190.7,-1.33912,0.00744546,-1.72833,-772.539,9716.32,-851.283,2.49006,1.07306,7.20941,-1237.15,-9825.32,-568.906,-0.559365,-3.07058,-13.096,-3435.92,8857.0,-1287.83,0.807144,16.5383,-4.477,-707.554,-9787.34,-2044.12,-6.81159,3.17369,4.99339,8910.04,864.64,3227.8,0.924676,4.33149,14.9882
0.211,3552.98,-3724.47,8331.18,-1.19533,0.747085,1.46626,4054.09,3510.0,8163.17,-1.4212,-0.0758746,-1.75603,-803.721,9745.18,-851.599,2.4099,0.809031,7.54594,-1259.01,-9838.51,-579.751,-0.603396,-2.91424,-13.2784,-3415.28,8875.46,-1287.3,0.820959,16.6525,-4.66731,-683.92,-9814.92,-2007.43,-7.00051,3.95147,5.18489,8925.65,873.376,3238.67,1.17793,4.30154,14.9963
0.212,3533.74,-3736.39,8345.45,-1.21236,0.82999,1.37988,4102.53,3513.72,8135.64,-1.50329,-0.159195,-1.78372,-834.903,9774.04,-851.915,2.32973,0.545006,7.88246,-1280.86,-9851.7,-590.595,-0.647428,-2.7579,-13.4607,-3394.64,8893.93,-1286.76,0.834773,16.7667,-4.85763,-660.285,-9842.51,-1970.74,-7.18942,4.72925,5.37639,8941.25,882.113,3249.53,1.43118,4.27159,15.0043
0.213,3514.5,-3748.32,8359.73,-1.22939,0.912895,1.29349,4150.97,3517.45,8108.11,-1.58537,-0.242515,-1.81142,-866.086,9802.9,-852.23,2.24957,0.280981,8.21899,-1302.72,-9864.89,-601.44,-0.69146,-2.60156,-13.643,-3373.99,8912.4,-1286.23,0.848588,16.881,-5.04794,-636.65,-9870.1,-1934.05,-7.37834,5.50702,5.56789,8956.86,890.85,3260.4,1.68443,4.24163,15.0123
0.214,3505.74,-3754.62,8377.21,-1.26671,0.955051,1.18085,4144.5,3518.15,8095.23,-1.584,-0.267023,-1.83912,-838.27,9797.4,-859.849,2.21023,-0.000452429,8.48387,-1297.41,-9860.67,-617.091,-0.76168,-2.43549,-13.6908,-3347.66,8930.37,-1297.95,0.774598,17.0259,-5.19981,-614.08,-9885.27,-1892.27,-7.35696,6.02647,5.60751,8974.34,895.749,3273.21,2.06613,4.21116,14.9458
0.215,3502.22,-3758.12,8396.3,-1.31418,0.976834,1.05509,4110.58,3517.32,8089.69,-1.54092,-0.262126,-1.86682,-780.956,9774.72,-871.119,2.19129,-0.29059,8.71292,-1278.53,-9847.73,-635.145,-0.844993,-2.26456,-13.6714,-3318.47,8948.11,-1315.8,0.656706,17.1863,-5.33247,-592.042,-9894.23,-1847.94,-7.23043,6.41674,5.57118,8992.77,898.729,3286.99,2.51205,4.18044,14.8419
0.216,3498.71,-3761.62,8415.38,-1.36165,0.998616,0.92933,4076.66,3516.5,8084.15,-1.49783,-0.257228,-1.89452,-723.642,9752.05,-882.389,2.17236,-0.580727,8.94198,-1259.64,-9834.8,-653.199,-0.928307,-2.09363,-13.652,-3289.29,8965.84,-1333.65,0.538814,17.3466,-5.46513,-570.005,-9903.19,-1803.62,-7.10391,6.80701,5.53486,9011.19,901.708,3300.77,2.95796,4.14971,14.7381
0.217,3495.19,-3765.12,8434.47,-1.40912,1.0204,0.803568,4042.73,3515.68,8078.61,-1.45474,-0.252331,-1.92221,-666.328,9729.37,-893.659,2.15342,-0.870864,9.17104,-1240.76,-9821.87,-671.253,-1.01162,-1.9227,-13.6326,-3260.11,8983.57,-1351.5,0.420921,17.5069,-5.59779,-547.967,-9912.14,-1759.3,-6.97739,7.19728,5.49854,9029.61,904.688,3314.55,3.40388,4.11898,14.6342
0.218,3488.72,-3769.57,8442.81,-1.42824,1.03457,0.701669,4017.71,3509.64,8076.26,-1.42605,-0.268288,-1.9442,-621.991,9715.37,-898.865,2.12679,-1.179,9.42798,-1216.36,-9807.68,-681.087,-1.06798,-1.75494,-13.6115,-3236.17,9002.34,-1358.72,0.294367,17.6885,-5.74752,-526.591,-9921.96,-1720.6,-6.84349,7.58591,5.44406,9049.59,908.987,3326.69,3.83236,4.10249,14.516
0.219,3471.94,-3777.35,8413.59,-1.34813,1.02208,0.683291,4023.8,3485.36,8085.1,-1.44775,-0.357235,-1.9462,-623.076,9731.74,-882.844,2.07323,-1.55016,9.78255,-1172.68,-9789.05,-662.149,-1.02998,-1.59828,-13.5841,-3230.58,9024.72,-1328.74,0.137497,17.9441,-5.95702,-507.53,-9934.75,-1701.6,-6.68378,7.9688,5.32603,9075.01,917.901,3333.09,4.19981,4.13582,14.3475
0.22,3455.15,-3785.14,8384.36,-1.26803,1.0096,0.664913,4029.89,3461.08,8093.94,-1.46945,-0.446182,-1.9482,-624.162,9748.11,-866.823,2.01966,-1.92131,10.1371,-1129.0,-9770.43,-643.212,-0.991979,-1.44162,-13.5568,-3225.0,9047.09,-1298.75,-0.019373,18.1997,-6.16652,-488.469,-9947.56,-1682.59,-6.52408,8.35168,5.208,9100.42,926.816,3339.5,4.56725,4.16916,14.179
0.221,3438.36,-3792.92,8355.14,-1.18792,0.997111,0.646534,4035.99,3436.81,8102.78,-1.49115,-0.53513,-1.9502,-625.247,9764.48,-850.803,1.9661,-2.29246,10.4917,-1085.32,-9751.81,-624.274,-0.95398,-1.28496,-13.5295,-3219.42,9069.47,-1268.77,-0.176243,18.4553,-6.37602,-469.408,-9960.36,-1663.59,-6.36438,8.73456,5.08996,9125.83,935.731,3345.9,4.9347,4.20249,14.0105
0.222,3421.57,-3800.7,8325.91,-1.10782,0.984626,0.628156,4042.08,3412.53,8111.62,-1.51286,-0.624077,-1.9522,-626.332,9780.85,-834.782,1.91253,-2.66362,10.8462,-1041.64,-9733.18,-605.337,-0.915981,-1.1283,-13.5021,-3213.83,9091.85,-1238.78,-0.333113,18.711,-6.58552,-450.348,-9973.16,-1644.58,-6.20467,9.11744,4.97193,9151.25,944.646,3352.3,5.30214,4.23583,13.8421
0.223,3425.46,-3811.3,8327.94,-1.04369,0.974224,0.606947,4034.42,3418.51,8102.98,-1.51905,-0.557851,-1.97281,-592.375,9807.9,-823.373,1.76367,-2.63177,11.0394,-1002.27,-9712.54,-612.197,-0.816996,-0.81127,-13.3859,-3220.51,9106.56,-1223.21,-0.458499,18.9065,-6.72495,-446.888,-9970.18,-1634.54,-6.11487,9.50589,4.90628,9164.56,957.731,3362.23,5.57715,4.2247,13.6059
0.224,3435.26,-3822.7,8338.89,-0.984123,0.964418,0.584928,4022.83,3433.13,8089.36,-1.52081,-0.44729,-1.99875,-548.405,9837.99,-813.28,1.58759,-2.48479,11.1865,-964.136,-9691.32,-626.428,-0.700587,-0.448423,-13.2443,-3230.68,9119.09,-1211.75,-0.574888,19.0848,-6.84437,-447.887,-9962.7,-1627.06,-6.04505,9.89594,4.8556,9174.41,972.008,3373.16,5.82574,4.20088,13.3504
0.225,3445.06,-3834.1,8349.84,-0.924556,0.954612,0.562909,4011.24,3447.76,8075.73,-1.52257,-0.336728,-2.02469,-504.436,9868.09,-803.187,1.4115,-2.3378,11.3336,-926.002,-9670.1,-640.66,-0.584178,-0.0855749,-13.1026,-3240.85,9131.61,-1200.29,-0.691277,19.263,-6.96378,-448.885,-9955.21,-1619.58,-5.97523,10.286,4.80491,9184.26,986.285,3384.1,6.07434,4.17705,13.0949
0.226,3454.86,-3845.5,8360.79,-0.86499,0.944806,0.540891,3999.65,3462.39,8062.1,-1.52433,-0.226167,-2.05063,-460.466,9898.18,-793.095,1.23541,-2.19082,11.4806,-887.868,-9648.88,-654.891,-0.467768,0.277273,-12.961,-3251.03,9144.13,-1188.83,-0.807666,19.4413,-7.0832,-449.884,-9947.73,-1612.1,-5.9054,10.676,4.75423,9194.11,1000.56,3395.03,6.32294,4.15323,12.8394
0.227,3453.36,-3844.99,8367.07,-0.819435,0.969753,0.494727,3990.31,3476.22,8057.19,-1.46878,-0.128364,-2.00298,-436.452,9909.63,-789.123,1.18885,-2.10954,11.6837,-852.846,-9644.8,-671.447,-0.395655,0.765314,-12.8027,-3251.99,9154.6,-1178.69,-0.880272,19.5459,-7.18327,-442.3,-9935.71,-1610.14,-5.83096,11.0255,4.72529,9198.11,1013.35,3407.73,6.55193,4.14704,12.5934
0.228,3429.26,-3820.67,8364.01,-0.801906,1.06421,0.400271,3985.49,3488.47,8069.71,-1.29863,-0.0560774,-1.80818,-452.351,9883.79,-797.393,1.40131,-2.15968,11.9989,-824.047,-9675.01,-692.654,-0.412135,1.50374,-12.6109,-3234.52,9160.95,-1171.18,-0.865311,19.5031,-7.24465,-417.552,-9914.61,-1619.23,-5.74728,11.2937,4.73985,9190.38,1023.15,3423.97,6.74172,4.1761,12.3663
0.229,3405.15,-3796.35,8360.95,-0.784376,1.15867,0.305815,3980.67,3500.73,8082.22,-1.12848,0.0162096,-1.61337,-468.249,9857.94,-805.662,1.61378,-2.20982,12.3141,-795.247,-9705.21,-713.861,-0.428615,2.24217,-12.4192,-3217.05,9167.3,-1163.68,-0.850349,19.4604,-7.30604,-392.804,-9893.52,-1628.31,-5.6636,11.562,4.75442,9182.65,1032.95,3440.2,6.93151,4.20517,12.1392
0.23,3381.04,-3772.03,8357.9,-0.766847,1.25312,0.211359,3975.84,3512.98,8094.74,-0.958332,0.0884965,-1.41857,-484.148,9832.09,-813.932,1.82625,-2.25996,12.6293,-766.448,-9735.42,-735.067,-0.445095,2.9806,-12.2275,-3199.58,9173.66,-1156.17,-0.835388,19.4176,-7.36742,-368.055,-9872.42,-1637.4,-5.57992,11.8302,4.76898,9174.93,1042.75,3456.43,7.1213,4.23423,11.912
0.231,3356.94,-3747.71,8354.84,-0.749317,1.34758,0.116903,3971.02,3525.23,8107.26,-0.788182,0.160783,-1.22376,-500.046,9806.25,-822.202,2.03872,-2.3101,12.9445,-737.648,-9765.62,-756.274,-0.461575,3.71903,-12.0357,-3182.11,9180.01,-1148.67,-0.820426,19.3748,-7.4288,-343.307,-9851.33,-1646.49,-5.49624,12.0985,4.78354,9167.2,1052.55,3472.66,7.31109,4.2633,11.6849
0.232,3364.35,-3711.67,8362.51,-0.725031,1.34314,0.127639,3964.77,3528.93,8098.17,-0.597503,0.289068,-0.958759,-467.548,9780.1,-801.202,1.93062,-2.16992,13.1294,-724.435,-9733.83,-786.501,-0.489944,4.86658,-11.8294,-3189.94,9185.63,-1144.35,-0.995261,19.1732,-7.47253,-329.76,-9838.53,-1657.23,-5.41175,12.2754,4.85983,9162.93,1081.49,3481.41,7.23798,4.28321,11.5594
0.233,3375.71,-3674.17,8371.52,-0.699901,1.32635,0.151524,3958.35,3531.55,8086.39,-0.404258,0.424353,-0.684984,-429.001,9753.92,-776.544,1.78246,-2.00594,13.2981,-713.169,-9694.29,-817.856,-0.5198,6.06526,-11.6213,-3200.92,9191.16,-1140.44,-1.19382,18.9517,-7.51406,-317.614,-9826.77,-1668.17,-5.32714,12.4409,4.94384,9159.08,1112.81,3489.23,7.13202,4.30199,11.4466
0.234,3387.07,-3636.67,8380.53,-0.674771,1.30956,0.175409,3951.93,3534.18,8074.61,-0.211014,0.559638,-0.41121,-390.453,9727.73,-751.887,1.63429,-1.84197,13.4668,-701.904,-9654.75,-849.211,-0.549655,7.26395,-11.4131,-3211.9,9196.69,-1136.53,-1.39238,18.7302,-7.55559,-305.468,-9815.0,-1679.12,-5.24254,12.6064,5.02784,9155.24,1144.14,3497.04,7.02605,4.32076,11.3338
0.235,3398.43,-3599.17,8389.54,-0.64964,1.29276,0.199294,3945.51,3536.81,8062.82,-0.0177688,0.694923,-0.137435,-351.906,9701.55,-727.229,1.48613,-1.678,13.6354,-690.639,-9615.2,-880.566,-0.579511,8.46264,-11.205,-3222.89,9202.22,-1132.61,-1.59094,18.5087,-7.59712,-293.321,-9803.24,-1690.07,-5.15794,12.7719,5.11185,9151.4,1175.46,3504.86,6.92009,4.33954,11.221
0.236,3413.06,-3581.65,8398.55,-0.608443,1.29662,0.203511,3930.22,3545.74,8058.38,0.110604,0.861249,0.0963009,-332.764,9698.14,-714.955,1.40349,-1.59368,13.7547,-657.096,-9608.82,-882.328,-0.641643,9.44582,-11.0457,-3233.83,9205.48,-1120.44,-1.71234,18.278,-7.64969,-287.957,-9797.05,-1695.52,-5.0908,12.9044,5.11752,9152.11,1202.47,3511.62,6.74327,4.39889,11.0957
0.237,3431.77,-3589.12,8407.56,-0.547161,1.3263,0.183144,3903.83,3562.56,8063.12,0.157888,1.06638,0.279988,-337.881,9723.19,-718.162,1.40278,-1.60891,13.8123,-595.707,-9643.88,-847.1,-0.744119,10.1596,-10.9474,-3244.74,9205.91,-1097.93,-1.73731,18.0359,-7.71606,-291.069,-9797.83,-1694.12,-5.0455,12.9955,5.02528,9158.51,1224.07,3517.07,6.47789,4.50898,10.9548
0.238,3450.48,-3596.59,8416.57,-0.485878,1.35597,0.162776,3877.43,3579.37,8067.86,0.205172,1.2715,0.463676,-342.997,9748.24,-721.368,1.40206,-1.62415,13.8698,-534.318,-9678.94,-811.872,-0.846596,10.8734,-10.8491,-3255.65,9206.33,-1075.43,-1.76227,17.7937,-7.78244,-294.182,-9798.6,-1692.71,-5.00019,13.0867,4.93303,9164.91,1245.66,3522.51,6.2125,4.61907,10.8139
0.239,3469.19,-3604.05,8425.58,-0.424596,1.38565,0.142408,3851.04,3596.19,8072.6,0.252456,1.47663,0.647363,-348.114,9773.3,-724.575,1.40134,-1.63939,13.9274,-472.93,-9714.0,-776.644,-0.949073,11.5872,-10.7509,-3266.56,9206.76,-1052.92,-1.78723,17.5515,-7.84881,-297.294,-9799.37,-1691.3,-4.95488,13.1779,4.84079,9171.31,1267.26,3527.96,5.94712,4.72915,10.6731
0.24,3487.9,-3611.52,8434.59,-0.363314,1.41532,0.12204,3824.65,3613.0,8077.34,0.299739,1.68176,0.831051,-353.23,9798.35,-727.782,1.40063,-1.65462,13.9849,-411.541,-9749.06,-741.416,-1.05155,12.301,-10.6526,-3277.47,9207.19,-1030.42,-1.8122,17.3093,-7.91518,-300.407,-9800.14,-1689.9,-4.90957,13.269,4.74854,9177.71,1288.86,3533.4,5.68173,4.83924,10.5322
0.241,3460.28,-3613.77,8429.11,-0.485267,1.35456,0.152668,3818.59,3593.46,8076.44,0.166476,1.53987,0.82283,-331.958,9822.54,-726.768,1.34667,-1.78967,14.2076,-420.064,-9728.52,-713.397,-1.23964,12.5898,-10.4037,-3264.0,9210.37,-1027.91,-1.8494,17.0186,-7.92065,-270.389,-9787.2,-1661.84,-4.7265,13.2731,4.6549,9183.87,1269.98,3527.36,5.47021,5.01248,10.2738
0.242,3432.66,-3616.01,8423.63,-0.60722,1.29381,0.183295,3812.52,3573.91,8075.54,0.0332128,1.39799,0.81461,-310.686,9846.72,-725.754,1.29272,-1.92472,14.4302,-428.588,-9707.97,-685.378,-1.42774,12.8787,-10.1548,-3250.53,9213.55,-1025.39,-1.88661,16.7279,-7.92612,-240.371,-9774.25,-1633.78,-4.54343,13.2771,4.56126,9190.03,1251.09,3521.31,5.25869,5.18572,10.0154
0.243,3405.04,-3618.26,8418.15,-0.729172,1.23305,0.213923,3806.46,3554.37,8074.64,-0.10005,1.2561,0.80639,-289.414,9870.91,-724.741,1.23876,-2.05977,14.6529,-437.111,-9687.43,-657.359,-1.61583,13.1675,-9.90596,-3237.06,9216.73,-1022.88,-1.92382,16.4372,-7.93159,-210.353,-9761.31,-1605.72,-4.36036,13.2812,4.46761,9196.18,1232.21,3515.27,5.04717,5.35897,9.75702
0.244,3377.42,-3620.51,8412.67,-0.851125,1.1723,0.244551,3800.39,3534.82,8073.74,-0.233314,1.11421,0.798169,-268.142,9895.09,-723.727,1.18481,-2.19482,14.8756,-445.635,-9666.89,-629.34,-1.80392,13.4564,-9.65709,-3223.59,9219.91,-1020.37,-1.96102,16.1465,-7.93705,-180.335,-9748.36,-1577.66,-4.17729,13.2852,4.37397,9202.34,1213.32,3509.23,4.83565,5.53221,9.49863
0.245,3365.5,-3618.07,8409.64,-0.928445,1.09688,0.284524,3824.84,3520.58,8076.88,-0.34687,0.996669,0.711453,-259.036,9897.99,-724.273,1.16882,-2.23585,15.0981,-467.049,-9666.78,-594.898,-1.8309,13.5305,-9.36272,-3220.41,9219.29,-1015.64,-2.03789,15.8461,-7.84917,-171.661,-9749.4,-1559.03,-4.03668,13.2762,4.24995,9204.97,1202.78,3504.09,4.6153,5.70011,9.20796
0.246,3366.13,-3611.88,8408.57,-0.970057,1.00973,0.331973,3873.7,3510.58,8083.25,-0.444661,0.898596,0.56194,-259.662,9883.86,-726.068,1.18321,-2.20165,15.3205,-498.774,-9683.02,-555.319,-1.72897,13.4327,-9.03197,-3225.45,9215.63,-1009.14,-2.14649,15.538,-7.68661,-180.062,-9761.61,-1547.94,-3.93005,13.2566,4.10165,9204.78,1198.92,3499.68,4.38788,5.86373,8.89146
0.247,3366.77,-3605.7,8407.51,-1.01167,0.922585,0.379422,3922.56,3500.57,8089.61,-0.542451,0.800523,0.412426,-260.289,9869.74,-727.862,1.1976,-2.16746,15.543,-530.5,-9699.27,-515.739,-1.62705,13.335,-8.70121,-3230.49,9211.97,-1002.63,-2.25508,15.2298,-7.52404,-188.462,-9773.83,-1536.85,-3.82341,13.237,3.95334,9204.59,1195.05,3495.27,4.16047,6.02735,8.57495
0.248,3367.41,-3599.51,8406.44,-1.05328,0.835437,0.426871,3971.42,3490.57,8095.98,-0.640242,0.70245,0.262913,-260.916,9855.61,-729.657,1.21199,-2.13326,15.7654,-562.225,-9715.51,-476.159,-1.52512,13.2372,-8.37046,-3235.53,9208.31,-996.126,-2.36368,14.9216,-7.36148,-196.863,-9786.04,-1525.76,-3.71678,13.2174,3.80504,9204.39,1191.19,3490.86,3.93305,6.19098,8.25845
0.249,3369.81,-3596.99,8408.86,-1.09444,0.75489,0.458545,4012.53,3479.88,8101.05,-0.713608,0.59994,0.116127,-260.284,9838.71,-730.317,1.22735,-2.08132,15.9489,-594.318,-9732.61,-445.108,-1.42199,13.1525,-8.04647,-3239.79,9205.36,-987.458,-2.45826,14.6083,-7.21915,-205.832,-9798.98,-1516.86,-3.60225,13.2092,3.65431,9202.32,1186.41,3489.61,3.73031,6.34616,7.94226
0.25,3386.34,-3623.75,8439.13,-1.13194,0.727148,0.364023,3991.64,3463.65,8095.76,-0.591576,0.461939,-0.00883979,-249.582,9799.64,-721.903,1.25053,-1.88738,15.8204,-629.351,-9756.53,-482.283,-1.30922,13.172,-7.77659,-3237.75,9208.11,-961.487,-2.44074,14.2533,-7.23868,-219.34,-9817.75,-1525.51,-3.42462,13.2925,3.48426,9185.16,1174.3,3513.62,3.72498,6.43384,7.62852
0.251,3402.87,-3650.51,8469.41,-1.16944,0.699406,0.269501,3970.75,3447.43,8090.46,-0.469544,0.323939,-0.133807,-238.879,9760.58,-713.49,1.27371,-1.69343,15.6919,-664.383,-9780.46,-519.459,-1.19645,13.1914,-7.50672,-3235.72,9210.86,-935.516,-2.42323,13.8982,-7.25821,-232.848,-9836.51,-1534.17,-3.24699,13.3759,3.31422,9168.0,1162.19,3537.63,3.71965,6.52152,7.31478
0.252,3419.39,-3677.28,8499.69,-1.20694,0.671664,0.174979,3949.86,3431.2,8085.17,-0.347512,0.185938,-0.258774,-228.177,9721.52,-705.077,1.29689,-1.49949,15.5635,-699.416,-9804.38,-556.635,-1.08367,13.2109,-7.23685,-3233.68,9213.61,-909.545,-2.40571,13.5432,-7.27773,-246.356,-9855.27,-1542.82,-3.06936,13.4592,3.14417,9150.84,1150.08,3561.64,3.71432,6.6092,7.00104
0.253,3435.92,-3704.04,8529.96,-1.24444,0.643922,0.0804568,3928.97,3414.98,8079.88,-0.225481,0.0479374,-0.383741,-217.475,9682.46,-696.663,1.32007,-1.30555,15.435,-734.448,-9828.31,-593.81,-0.970901,13.2304,-6.96697,-3231.64,9216.36,-883.574,-2.38819,13.1882,-7.29726,-259.864,-9874.03,-1551.47,-2.89173,13.5426,2.97412,9133.68,1137.97,3585.65,3.70899,6.69689,6.6873
0.254,3439.59,-3703.14,8545.73,-1.28111,0.596334,0.0629937,3929.87,3406.7,8096.75,-0.30343,0.0649587,-0.525835,-223.481,9689.7,-692.405,1.28863,-1.30025,15.6182,-756.856,-9833.34,-603.68,-0.903623,13.2195,-6.77165,-3249.34,9216.83,-872.971,-2.34535,12.7778,-7.30361,-264.585,-9887.79,-1557.66,-2.74418,13.547,2.85837,9115.02,1133.8,3604.25,3.78039,6.79609,6.43283
0.255,3436.83,-3688.41,8554.26,-1.31736,0.538822,0.0840602,3941.67,3402.38,8124.71,-0.481369,0.159491,-0.676493,-237.84,9720.11,-690.224,1.22988,-1.38926,15.9572,-772.952,-9828.92,-599.896,-0.859092,13.1936,-6.6136,-3276.91,9216.17,-870.053,-2.28986,12.3398,-7.30335,-264.912,-9899.04,-1562.61,-2.61169,13.5121,2.76979,9095.62,1133.6,3620.15,3.89015,6.90104,6.208
0.256,3434.08,-3673.68,8562.78,-1.35361,0.481311,0.105127,3953.48,3398.07,8152.67,-0.659309,0.254023,-0.827151,-252.199,9750.51,-688.043,1.17113,-1.47828,16.2962,-789.048,-9824.5,-596.113,-0.814561,13.1676,-6.45556,-3304.49,9215.51,-867.135,-2.23436,11.9017,-7.3031,-265.24,-9910.29,-1567.57,-2.47919,13.4771,2.6812,9076.21,1133.4,3636.05,3.99991,7.006,5.98317
0.257,3431.32,-3658.95,8571.31,-1.38985,0.4238,0.126193,3965.28,3393.76,8180.63,-0.837248,0.348555,-0.977809,-266.559,9780.91,-685.862,1.11239,-1.5673,16.6352,-805.143,-9820.08,-592.329,-0.770029,13.1416,-6.29751,-3332.06,9214.85,-864.217,-2.17886,11.4636,-7.30285,-265.567,-9921.54,-1572.52,-2.3467,13.4421,2.59261,9056.81,1133.2,3651.96,4.10968,7.11096,5.75835
0.258,3427.88,-3644.07,8573.81,-1.42354,0.363044,0.174014,3975.04,3392.25,8200.94,-0.969924,0.376525,-1.06525,-277.779,9810.36,-683.595,1.08809,-1.62859,16.8995,-815.093,-9824.26,-591.517,-0.762688,13.1151,-6.14338,-3354.14,9212.41,-860.605,-2.13256,10.9905,-7.31785,-262.727,-9930.07,-1576.37,-2.24211,13.3828,2.51522,9036.04,1131.52,3662.37,4.17671,7.22264,5.55811
0.259,3422.03,-3628.67,8555.24,-1.44826,0.290937,0.315476,3977.69,3400.58,8194.48,-0.94418,0.171525,-0.931453,-278.013,9836.45,-681.024,1.18438,-1.59286,16.9025,-803.53,-9858.57,-601.108,-0.88551,13.0865,-6.00299,-3357.01,9203.74,-854.567,-2.11844,10.3948,-7.38623,-248.797,-9929.06,-1576.34,-2.23521,13.2382,2.47704,9010.53,1124.7,3653.59,4.09417,7.35784,5.44393
0.26,3416.19,-3613.27,8536.67,-1.47299,0.218829,0.456939,3980.34,3408.9,8188.02,-0.918436,-0.0334741,-0.797652,-278.246,9862.55,-678.454,1.28066,-1.55712,16.9055,-791.967,-9892.88,-610.698,-1.00833,13.058,-5.86259,-3359.87,9195.07,-848.528,-2.10433,9.79898,-7.45462,-234.868,-9928.06,-1576.32,-2.2283,13.0936,2.43886,8985.01,1117.88,3644.82,4.01164,7.49305,5.32976
0.261,3410.35,-3597.87,8518.09,-1.49771,0.146721,0.598401,3982.98,3417.23,8181.56,-0.892692,-0.238474,-0.663851,-278.48,9888.64,-675.884,1.37695,-1.52139,16.9084,-780.405,-9927.19,-620.289,-1.13116,13.0295,-5.72219,-3362.74,9186.4,-842.489,-2.09021,9.2032,-7.523,-220.938,-9927.06,-1576.29,-2.2214,12.949,2.40069,8959.49,1111.05,3636.04,3.9291,7.62825,5.21558
0.262,3404.51,-3582.46,8499.52,-1.52244,0.074613,0.739863,3985.63,3425.56,8175.1,-0.866948,-0.443473,-0.530051,-278.714,9914.73,-673.314,1.47324,-1.48565,16.9114,-768.842,-9961.5,-629.88,-1.25398,13.0009,-5.58179,-3365.61,9177.73,-836.45,-2.07609,8.60742,-7.59139,-207.009,-9926.05,-1576.26,-2.2145,12.8043,2.36251,8933.97,1104.23,3627.26,3.84657,7.76345,5.10141
0.263,3404.53,-3573.38,8499.21,-1.56259,0.034513,0.782293,3955.69,3414.79,8171.77,-0.947398,-0.500779,-0.646219,-281.522,9920.04,-666.098,1.42619,-1.52005,17.0769,-774.968,-9945.74,-628.239,-1.27251,12.7981,-5.3875,-3361.84,9189.79,-820.864,-2.05564,7.91653,-7.60706,-185.998,-9932.5,-1550.34,-2.22685,12.7336,2.25984,8910.24,1110.15,3624.82,3.69481,7.85613,4.99747
0.264,3406.23,-3566.09,8504.1,-1.60715,0.00355798,0.796429,3916.45,3398.56,8169.32,-1.05819,-0.515888,-0.833808,-285.066,9919.41,-657.556,1.33818,-1.57448,17.2888,-786.147,-9915.67,-623.389,-1.26124,12.5455,-5.17781,-3356.16,9207.77,-802.55,-2.03339,7.19846,-7.60768,-162.964,-9941.07,-1517.01,-2.24469,12.684,2.13874,8887.01,1119.7,3624.2,3.52328,7.93665,4.89645
0.265,3407.93,-3558.81,8509.0,-1.65171,-0.027397,0.810564,3877.2,3382.33,8166.88,-1.16898,-0.530996,-1.0214,-288.61,9918.77,-649.014,1.25018,-1.62891,17.5007,-797.327,-9885.6,-618.539,-1.24997,12.2929,-4.96812,-3350.49,9225.76,-784.237,-2.01114,6.4804,-7.60829,-139.931,-9949.64,-1483.69,-2.26254,12.6344,2.01765,8863.79,1129.26,3623.58,3.35174,8.01718,4.79544
0.266,3409.62,-3551.52,8513.9,-1.69627,-0.058352,0.824699,3837.95,3366.1,8164.43,-1.27977,-0.546105,-1.20898,-292.155,9918.14,-640.471,1.16218,-1.68335,17.7126,-808.506,-9855.53,-613.689,-1.2387,12.0403,-4.75843,-3344.82,9243.74,-765.923,-1.98889,5.76233,-7.60891,-116.897,-9958.21,-1450.36,-2.28039,12.5848,1.89655,8840.56,1138.82,3622.96,3.1802,8.09771,4.69442
0.267,3415.96,-3549.13,8514.64,-1.77346,-0.112594,0.820145,3812.88,3366.14,8158.43,-1.39071,-0.578824,-1.30765,-295.277,9925.33,-629.082,1.10549,-1.78714,17.8823,-807.122,-9835.69,-617.687,-1.26814,11.7788,-4.55465,-3337.93,9253.35,-755.033,-1.98525,5.02352,-7.61526,-107.341,-9966.29,-1423.15,-2.27339,12.5236,1.76251,8818.2,1145.3,3622.73,3.05244,8.16087,4.57804
0.268,3431.58,-3556.52,8507.1,-1.91589,-0.213409,0.778214,3816.14,3398.71,8145.33,-1.50194,-0.646766,-1.22846,-297.556,9948.17,-612.0,1.11144,-1.98963,17.9677,-780.611,-9836.29,-639.381,-1.37899,11.4994,-4.36267,-3328.6,9246.22,-758.991,-2.01882,4.24325,-7.63308,-124.741,-9973.38,-1408.17,-2.21668,12.4391,1.60258,8797.57,1145.62,3623.27,3.01223,8.18931,4.43093
0.269,3447.2,-3563.91,8499.56,-2.05831,-0.314225,0.736283,3819.41,3431.27,8132.22,-1.61316,-0.714708,-1.14928,-299.835,9971.01,-594.918,1.11738,-2.19213,18.053,-754.099,-9836.89,-661.074,-1.48984,11.22,-4.17069,-3319.27,9239.09,-762.949,-2.05239,3.46298,-7.6509,-142.142,-9980.47,-1393.19,-2.15997,12.3546,1.44264,8776.93,1145.94,3623.81,2.97202,8.21776,4.28381
0.27,3462.81,-3571.3,8492.01,-2.20074,-0.415041,0.694352,3822.67,3463.84,8119.11,-1.72439,-0.78265,-1.07009,-302.114,9993.85,-577.836,1.12332,-2.39463,18.1384,-727.588,-9837.5,-682.768,-1.60069,10.9405,-3.97871,-3309.95,9231.96,-766.907,-2.08596,2.6827,-7.66872,-159.542,-9987.56,-1378.21,-2.10326,12.2701,1.28271,8756.29,1146.26,3624.35,2.9318,8.2462,4.1367
0.271,3478.43,-3578.69,8484.47,-2.34317,-0.515856,0.652421,3825.93,3496.4,8106.01,-1.83562,-0.850592,-0.99091,-304.392,10016.7,-560.755,1.12927,-2.59712,18.2237,-701.076,-9838.1,-704.461,-1.71154,10.6611,-3.78673,-3300.62,9224.84,-770.865,-2.11954,1.90243,-7.68654,-176.943,-9994.65,-1363.23,-2.04655,12.1856,1.12278,8735.65,1146.58,3624.9,2.89159,8.27464,3.98959
0.272,3489.22,-3587.11,8483.09,-2.3638,-0.503436,0.625695,3857.33,3496.97,8120.24,-1.94646,-0.883254,-1.01953,-278.629,9995.24,-557.926,1.08939,-2.85738,18.2257,-737.591,-9828.76,-676.53,-1.79327,10.3944,-3.67604,-3294.38,9222.75,-772.442,-2.13097,1.15784,-7.65264,-189.589,-9976.78,-1380.64,-2.08098,12.1532,1.17518,8727.43,1136.59,3625.25,2.82212,8.15155,3.64587
0.273,3499.41,-3595.66,8482.48,-2.3692,-0.476861,0.600869,3892.23,3493.53,8137.89,-2.05725,-0.911506,-1.06164,-249.36,9968.26,-556.879,1.04378,-3.12486,18.2173,-781.983,-9818.17,-642.395,-1.87136,10.1292,-3.57551,-3288.54,9221.3,-773.721,-2.13964,0.417724,-7.61228,-201.642,-9955.78,-1402.09,-2.12681,12.1273,1.25412,8720.77,1125.31,3625.58,2.749,8.00952,3.27757
0.274,3509.59,-3604.21,8481.88,-2.3746,-0.450286,0.576044,3927.14,3490.1,8155.54,-2.16805,-0.939757,-1.10374,-220.091,9941.27,-555.832,0.998164,-3.39234,18.2089,-826.376,-9807.58,-608.26,-1.94945,9.86409,-3.47499,-3282.69,9219.85,-775.001,-2.14831,-0.322396,-7.57192,-213.694,-9934.79,-1423.55,-2.17263,12.1014,1.33307,8714.1,1114.03,3625.91,2.67587,7.86749,2.90927
0.275,3519.78,-3612.76,8481.27,-2.38,-0.423711,0.551219,3962.05,3486.67,8173.19,-2.27884,-0.968009,-1.14584,-190.822,9914.29,-554.785,0.952553,-3.65982,18.2005,-870.769,-9796.99,-574.125,-2.02755,9.59895,-3.37446,-3276.84,9218.4,-776.28,-2.15698,-1.06252,-7.53156,-225.746,-9913.8,-1445.0,-2.21845,12.0755,1.41201,8707.43,1102.75,3626.25,2.60274,7.72546,2.54097
0.276,3520.08,-3613.37,8476.65,-2.39929,-0.421276,0.575725,3975.49,3471.12,8182.1,-2.2482,-0.998878,-1.19175,-191.366,9896.39,-560.511,0.981883,-3.88944,18.2609,-895.47,-9790.51,-554.789,-2.06471,9.33866,-3.26035,-3262.68,9221.55,-777.284,-2.10956,-1.84294,-7.49201,-237.797,-9904.05,-1459.74,-2.33169,12.0933,1.46834,8710.39,1094.08,3631.3,2.41134,7.58514,2.30476
0.277,3508.02,-3604.07,8467.01,-2.43594,-0.449018,0.661895,3962.1,3440.45,8180.08,-2.04075,-1.03302,-1.24243,-229.178,9889.85,-574.705,1.10489,-4.07175,18.4071,-895.558,-9789.18,-553.952,-2.05071,9.08444,-3.12926,-3238.12,9230.45,-777.945,-1.99203,-2.67376,-7.45349,-249.844,-9908.37,-1466.09,-2.5292,12.1658,1.49641,8725.37,1088.67,3642.25,2.0721,7.44697,2.23365
0.278,3495.96,-3594.76,8457.37,-2.4726,-0.476759,0.748064,3948.71,3409.77,8178.07,-1.83331,-1.06716,-1.29312,-266.99,9883.3,-588.899,1.22789,-4.25405,18.5533,-895.645,-9787.84,-553.116,-2.03671,8.83022,-2.99818,-3213.56,9239.35,-778.606,-1.8745,-3.50457,-7.41496,-261.891,-9912.68,-1472.44,-2.7267,12.2383,1.52448,8740.35,1083.25,3653.21,1.73285,7.3088,2.16254
0.279,3483.91,-3585.46,8447.73,-2.50925,-0.504501,0.834234,3935.33,3379.09,8176.05,-1.62587,-1.1013,-1.3438,-304.801,9876.76,-603.093,1.3509,-4.43636,18.6995,-895.732,-9786.51,-552.28,-2.02271,8.576,-2.86709,-3189.0,9248.25,-779.267,-1.75697,-4.33538,-7.37644,-273.939,-9917.0,-1478.78,-2.92421,12.3108,1.55254,8755.34,1077.84,3664.16,1.39361,7.17063,2.09143
0.28,3471.85,-3576.15,8438.1,-2.5459,-0.532243,0.920404,3921.94,3348.41,8174.04,-1.41842,-1.13544,-1.39448,-342.613,9870.22,-617.287,1.47391,-4.61867,18.8458,-895.82,-9785.17,-551.443,-2.00871,8.32179,-2.736,-3164.44,9257.15,-779.928,-1.63944,-5.16619,-7.33791,-285.986,-9921.31,-1485.13,-3.12171,12.3833,1.58061,8770.32,1072.43,3675.11,1.05436,7.03247,2.02031
0.281,3464.31,-3599.2,8430.65,-2.59405,-0.605889,0.941614,3923.09,3374.49,8175.62,-1.47974,-1.03892,-1.35531,-331.389,9866.4,-611.339,1.39306,-4.82964,18.9558,-893.879,-9810.32,-552.88,-2.0044,8.03488,-2.69694,-3140.08,9251.25,-793.219,-1.47663,-5.85373,-7.38934,-299.253,-9931.96,-1480.88,-3.20851,12.5233,1.53203,8780.96,1092.19,3676.24,0.704951,7.18148,1.81385
0.282,3456.78,-3622.25,8423.21,-2.64219,-0.679536,0.962824,3924.24,3400.57,8177.21,-1.54106,-0.942397,-1.31615,-320.165,9862.57,-605.392,1.31221,-5.04061,19.0658,-891.937,-9835.48,-554.318,-2.00008,7.74797,-2.65787,-3115.71,9245.35,-806.51,-1.31382,-6.54128,-7.44077,-312.52,-9942.61,-1476.64,-3.29531,12.6632,1.48346,8791.6,1111.96,3677.37,0.355539,7.33049,1.60738
0.283,3449.24,-3645.3,8415.76,-2.69033,-0.753182,0.984034,3925.38,3426.65,8178.79,-1.60237,-0.845876,-1.27698,-308.941,9858.75,-599.444,1.23136,-5.25158,19.1759,-889.996,-9860.63,-555.755,-1.99577,7.46106,-2.6188,-3091.35,9239.45,-819.8,-1.15101,-7.22882,-7.4922,-325.786,-9953.25,-1472.39,-3.3821,12.8032,1.43488,8802.23,1131.72,3678.5,0.00612722,7.4795,1.40092
0.284,3441.7,-3668.35,8408.32,-2.73848,-0.826829,1.00524,3926.53,3452.72,8180.38,-1.66369,-0.749354,-1.23781,-297.717,9854.93,-593.497,1.15051,-5.46255,19.2859,-888.055,-9885.78,-557.192,-1.99145,7.17416,-2.57974,-3066.98,9233.55,-833.091,-0.988196,-7.91636,-7.54362,-339.053,-9963.9,-1468.15,-3.4689,12.9432,1.3863,8812.87,1151.49,3679.64,-0.343285,7.62852,1.19445
0.285,3442.3,-3680.62,8398.74,-2.77699,-0.912293,1.02735,3928.09,3459.84,8186.47,-1.65957,-0.775285,-1.22243,-288.473,9857.46,-600.543,1.12006,-5.70732,19.4297,-871.362,-9870.52,-555.428,-2.0316,6.86047,-2.48827,-3046.87,9235.66,-853.247,-0.848766,-8.52228,-7.55152,-366.435,-9966.59,-1476.23,-3.43256,13.122,1.37366,8816.43,1157.51,3657.41,-0.630801,7.73973,0.939627
0.286,3449.41,-3684.27,8387.44,-2.8078,-1.00721,1.05017,3929.98,3451.77,8196.18,-1.6031,-0.899179,-1.22608,-280.812,9865.07,-617.983,1.12993,-5.97913,19.6003,-842.868,-9822.93,-551.103,-2.10733,6.52537,-2.35489,-3030.15,9244.17,-878.894,-0.728041,-9.0629,-7.5246,-405.108,-9962.91,-1494.17,-3.2977,13.3318,1.38976,8814.33,1152.53,3616.5,-0.8688,7.82071,0.646117
0.287,3456.52,-3687.92,8376.15,-2.8386,-1.10213,1.07299,3931.87,3443.71,8205.89,-1.54662,-1.02307,-1.22973,-273.151,9872.69,-635.423,1.1398,-6.25094,19.771,-814.375,-9775.34,-546.778,-2.18306,6.19026,-2.22151,-3013.44,9252.68,-904.542,-0.607316,-9.60352,-7.49768,-443.781,-9959.24,-1512.11,-3.16285,13.5417,1.40586,8812.23,1147.56,3575.59,-1.1068,7.90169,0.352607
0.288,3463.62,-3691.57,8364.85,-2.86941,-1.19705,1.09582,3933.75,3435.65,8215.6,-1.49015,-1.14697,-1.23337,-265.49,9880.3,-652.864,1.14967,-6.52276,19.9416,-785.881,-9727.74,-542.452,-2.25879,5.85515,-2.08813,-2996.72,9261.19,-930.19,-0.486591,-10.1441,-7.47076,-482.453,-9955.56,-1530.05,-3.028,13.7515,1.42196,8810.13,1142.59,3534.68,-1.3448,7.98266,0.059096
0.289,3467.92,-3695.12,8355.21,-2.89661,-1.28321,1.11997,3935.26,3430.13,8225.16,-1.45151,-1.24981,-1.24094,-252.844,9883.91,-668.983,1.14715,-6.76498,20.0942,-759.194,-9686.63,-538.375,-2.33002,5.53239,-1.96109,-2980.12,9269.85,-954.278,-0.379257,-10.6685,-7.44158,-521.809,-9953.81,-1546.86,-2.88802,13.9434,1.42548,8808.5,1137.74,3498.58,-1.60552,8.05898,-0.243033
0.29,3449.72,-3697.83,8358.87,-2.89496,-1.29936,1.15474,3933.74,3444.97,8233.44,-1.55551,-1.18425,-1.27983,-200.32,9855.5,-674.53,1.04557,-6.77051,20.1026,-746.967,-9697.33,-536.279,-2.36517,5.3084,-1.88479,-2964.47,9279.69,-965.889,-0.379059,-11.0623,-7.39436,-566.624,-9967.43,-1554.53,-2.70708,13.9924,1.32834,8810.72,1133.91,3500.95,-2.04802,8.09804,-0.614115
0.291,3431.53,-3700.55,8362.53,-2.8933,-1.31551,1.18952,3932.21,3459.82,8241.73,-1.65952,-1.1187,-1.31871,-147.796,9827.1,-680.077,0.943978,-6.77604,20.111,-734.739,-9708.03,-534.183,-2.40033,5.08441,-1.80848,-2948.81,9289.52,-977.5,-0.378861,-11.4562,-7.34714,-611.438,-9981.05,-1562.2,-2.52613,14.0414,1.2312,8812.94,1130.07,3503.32,-2.49053,8.13709,-0.985197
0.292,3413.33,-3703.26,8366.18,-2.89165,-1.33166,1.2243,3930.68,3474.66,8250.02,-1.76352,-1.05315,-1.3576,-95.2716,9798.69,-685.625,0.842389,-6.78156,20.1193,-722.512,-9718.73,-532.087,-2.43549,4.86042,-1.73218,-2933.16,9299.36,-989.11,-0.378662,-11.8501,-7.29991,-656.253,-9994.67,-1569.87,-2.34518,14.0903,1.13406,8815.16,1126.24,3505.68,-2.93303,8.17615,-1.35628
0.293,3395.14,-3705.97,8369.84,-2.89,-1.34781,1.25907,3929.16,3489.51,8258.31,-1.86753,-0.987594,-1.39649,-42.7476,9770.28,-691.172,0.740801,-6.78709,20.1277,-710.285,-9729.43,-529.99,-2.47065,4.63642,-1.65588,-2917.5,9309.2,-1000.72,-0.378464,-12.244,-7.25269,-701.068,-10008.3,-1577.54,-2.16423,14.1393,1.03692,8817.37,1122.4,3508.05,-3.37553,8.21521,-1.72736
0.294,3396.09,-3706.61,8378.08,-2.94125,-1.35884,1.23556,3932.27,3492.04,8261.62,-1.81599,-1.05502,-1.31248,-20.648,9754.76,-701.139,0.645258,-6.85839,20.078,-729.301,-9724.1,-510.712,-2.5812,4.42559,-1.6147,-2887.45,9299.74,-1000.85,-0.368681,-12.4873,-7.26138,-715.535,-10003.4,-1588.67,-2.09067,14.1186,0.996746,8801.0,1136.79,3505.21,-3.89047,8.32471,-2.04931
0.295,3406.61,-3706.22,8388.6,-3.01895,-1.3673,1.1829,3937.71,3488.42,8262.44,-1.68667,-1.18894,-1.16701,-13.7607,9745.68,-713.317,0.552738,-6.96259,19.9994,-763.939,-9710.76,-482.843,-2.72945,4.22134,-1.59109,-2850.2,9280.63,-995.245,-0.354104,-12.6553,-7.29803,-714.827,-9989.17,-1601.54,-2.0708,14.063,0.985062,8775.33,1160.28,3499.77,-4.44161,8.46943,-2.34669
0.296,3417.13,-3705.82,8399.13,-3.09665,-1.37577,1.13024,3943.15,3484.8,8263.26,-1.55736,-1.32286,-1.02154,-6.87331,9736.6,-725.494,0.460218,-7.06678,19.9207,-798.577,-9697.42,-454.973,-2.87771,4.01709,-1.56748,-2812.95,9261.53,-989.636,-0.339528,-12.8233,-7.33468,-714.12,-9974.97,-1614.42,-2.05093,14.0075,0.973377,8749.66,1183.77,3494.33,-4.99275,8.61415,-2.64408
0.297,3427.65,-3705.43,8409.66,-3.17435,-1.38424,1.07757,3948.58,3481.18,8264.08,-1.42805,-1.45678,-0.87608,0.0140372,9727.52,-737.672,0.367698,-7.17098,19.842,-833.215,-9684.08,-427.104,-3.02596,3.81284,-1.54387,-2775.7,9242.42,-984.028,-0.324952,-12.9913,-7.37134,-713.413,-9960.77,-1627.29,-2.03106,13.9519,0.961692,8723.99,1207.26,3488.88,-5.5439,8.75887,-2.94146
0.298,3440.89,-3703.36,8413.42,-3.25146,-1.38409,1.03505,3951.47,3476.87,8259.22,-1.35037,-1.5464,-0.779711,1.59888,9720.81,-749.139,0.307857,-7.27355,19.7861,-864.443,-9677.73,-415.556,-3.15717,3.63932,-1.5255,-2736.35,9225.63,-981.92,-0.29717,-13.131,-7.39392,-711.557,-9941.92,-1635.37,-2.03304,13.8867,0.956504,8704.16,1226.06,3482.11,-6.09145,8.88246,-3.22827
0.299,3463.6,-3695.43,8393.54,-3.32648,-1.35381,1.02802,3945.45,3470.16,8234.43,-1.45341,-1.48096,-0.855181,-15.375,9722.37,-758.119,0.36239,-7.37043,19.81,-883.737,-9695.81,-461.135,-3.22873,3.57335,-1.5255,-2689.62,9216.95,-992.062,-0.223166,-13.1716,-7.3673,-705.679,-9906.8,-1626.72,-2.11153,13.7876,0.974052,8704.72,1228.43,3470.7,-6.62644,8.93208,-3.47807
0.3,3486.32,-3687.51,8373.66,-3.40149,-1.32353,1.02099,3939.43,3463.45,8209.64,-1.55644,-1.41553,-0.93065,-32.349,9723.93,-767.099,0.416923,-7.46731,19.8338,-903.03,-9713.9,-506.715,-3.30029,3.50738,-1.5255,-2642.89,9208.27,-1002.2,-0.149162,-13.2121,-7.34068,-699.801,-9871.68,-1618.06,-2.19002,13.6886,0.991599,8705.29,1230.8,3459.3,-7.16143,8.98171,-3.72787
0.301,3509.04,-3679.58,8353.77,-3.47651,-1.29325,1.01396,3933.41,3456.74,8184.86,-1.65948,-1.3501,-1.00612,-49.3229,9725.5,-776.08,0.471456,-7.5642,19.8577,-922.323,-9731.99,-552.294,-3.37185,3.4414,-1.5255,-2596.16,9199.59,-1012.35,-0.0751575,-13.2527,-7.31406,-693.923,-9836.56,-1609.4,-2.26851,13.5896,1.00915,8705.86,1233.17,3447.89,-7.69642,9.03133,-3.97767
0.302,3531.76,-3671.65,8333.89,-3.55153,-1.26297,1.00693,3927.39,3450.03,8160.07,-1.76252,-1.28467,-1.08159,-66.2968,9727.06,-785.06,0.52599,-7.66108,19.8816,-941.616,-9750.07,-597.873,-3.44341,3.37543,-1.5255,-2549.43,9190.91,-1022.49,-0.00115345,-13.2933,-7.28744,-688.045,-9801.44,-1600.75,-2.347,13.4906,1.0267,8706.43,1235.54,3436.48,-8.23141,9.08095,-4.22747
0.303,3508.22,-3680.66,8325.95,-3.5697,-1.24997,1.02493,3927.15,3450.06,8147.39,-1.71871,-1.23885,-1.10269,-69.5914,9736.3,-780.72,0.508696,-7.81213,19.9326,-924.987,-9768.67,-611.728,-3.56949,3.4176,-1.48723,-2521.11,9195.88,-1048.22,0.0657489,-13.2706,-7.18643,-691.427,-9785.6,-1597.0,-2.49624,13.2799,1.02194,8704.71,1219.32,3435.89,-8.63341,9.22696,-4.45345
0.304,3471.47,-3694.51,8321.42,-3.57163,-1.2419,1.05008,3928.58,3452.01,8138.16,-1.63294,-1.19864,-1.10825,-68.9776,9747.74,-772.574,0.47088,-7.97865,19.9915,-898.094,-9787.42,-616.519,-3.71114,3.49066,-1.43803,-2498.05,9204.76,-1078.42,0.130622,-13.2297,-7.06417,-697.454,-9775.27,-1594.66,-2.66568,13.0373,1.01081,8702.33,1197.79,3438.4,-8.99743,9.40051,-4.67262
0.305,3434.71,-3708.36,8316.89,-3.57356,-1.23384,1.07524,3930.0,3453.97,8128.93,-1.54717,-1.15843,-1.11381,-68.3638,9759.17,-764.428,0.433065,-8.14518,20.0503,-871.201,-9806.17,-621.31,-3.8528,3.56373,-1.38883,-2474.99,9213.64,-1108.61,0.195495,-13.1889,-6.94191,-703.482,-9764.95,-1592.31,-2.83512,12.7947,0.999674,8699.95,1176.26,3440.9,-9.36144,9.57406,-4.8918
0.306,3397.96,-3722.21,8312.36,-3.57549,-1.22578,1.1004,3931.42,3455.92,8119.71,-1.46141,-1.11822,-1.11937,-67.7499,9770.61,-756.283,0.395249,-8.3117,20.1092,-844.308,-9824.92,-626.102,-3.99446,3.63679,-1.33962,-2451.93,9222.52,-1138.8,0.260369,-13.148,-6.81965,-709.509,-9754.62,-1589.97,-3.00456,12.5522,0.988543,8697.57,1154.73,3443.4,-9.72546,9.74761,-5.11097
0.307,3372.22,-3735.74,8315.61,-3.56358,-1.23824,1.09867,3939.59,3457.31,8117.09,-1.44989,-1.04919,-1.14003,-53.3243,9783.5,-751.597,0.325601,-8.39956,20.1587,-833.387,-9832.66,-622.995,-4.06425,3.71385,-1.24385,-2423.27,9225.67,-1167.3,0.326001,-13.0468,-6.76259,-715.876,-9747.97,-1591.76,-3.16428,12.3424,1.00299,8700.13,1135.46,3446.71,-10.0009,9.82802,-5.29885
0.308,3368.51,-3748.63,8334.42,-3.52399,-1.29178,1.04319,3961.25,3457.54,8127.68,-1.58687,-0.922515,-1.1909,-11.2749,9799.31,-753.831,0.192289,-8.33008,20.1895,-854.412,-9818.4,-604.091,-3.99033,3.79892,-1.05493,-2383.39,9217.35,-1192.41,0.393151,-12.825,-6.83592,-722.922,-9748.67,-1601.8,-3.30454,12.1982,1.0686,8712.55,1120.7,3451.62,-10.099,9.72216,-5.42416
0.309,3364.8,-3761.53,8353.24,-3.4844,-1.34531,0.987705,3982.9,3457.78,8138.28,-1.72385,-0.795841,-1.24176,30.7744,9815.12,-756.065,0.0589773,-8.2606,20.2204,-875.437,-9804.14,-585.187,-3.91642,3.88398,-0.866013,-2343.51,9209.04,-1217.52,0.460302,-12.6032,-6.90926,-729.967,-9749.37,-1611.84,-3.4448,12.0539,1.13421,8724.96,1105.94,3456.52,-10.1972,9.6163,-5.54947
0.31,3361.09,-3774.42,8372.05,-3.44481,-1.39885,0.932222,4004.56,3458.02,8148.87,-1.86083,-0.669168,-1.29263,72.8238,9830.92,-758.299,-0.0743347,-8.19112,20.2512,-896.462,-9789.88,-566.284,-3.8425,3.96905,-0.677095,-2303.64,9200.73,-1242.62,0.527452,-12.3813,-6.9826,-737.013,-9750.07,-1621.88,-3.58506,11.9097,1.19982,8737.38,1091.19,3461.43,-10.2954,9.51045,-5.67478
0.311,3357.38,-3787.32,8390.86,-3.40523,-1.45238,0.876739,4026.22,3458.25,8159.46,-1.99781,-0.542494,-1.3435,114.873,9846.73,-760.533,-0.207647,-8.12164,20.2821,-917.487,-9775.62,-547.38,-3.76858,4.05411,-0.488177,-2263.76,9192.42,-1267.73,0.594603,-12.1595,-7.05593,-744.058,-9750.77,-1631.92,-3.72532,11.7655,1.26542,8749.8,1076.43,3466.34,-10.3935,9.40459,-5.80009
0.312,3365.99,-3787.03,8388.73,-3.36354,-1.47186,0.826668,4029.59,3460.1,8138.76,-2.1441,-0.589247,-1.35712,136.389,9840.33,-767.467,-0.3133,-8.04152,20.3321,-916.713,-9797.01,-559.689,-3.86896,4.28415,-0.466692,-2216.23,9209.36,-1264.53,0.578173,-11.8873,-7.18865,-752.277,-9750.1,-1636.72,-3.76692,11.7824,1.35227,8764.94,1079.76,3456.84,-10.4011,9.36353,-5.90037
0.313,3376.13,-3785.09,8383.97,-3.32159,-1.48709,0.777275,4030.68,3462.14,8114.15,-2.29155,-0.657678,-1.36608,155.339,9831.15,-774.988,-0.415496,-7.96008,20.3845,-913.216,-9822.85,-575.9,-3.99112,4.53231,-0.466135,-2167.75,9229.45,-1257.79,0.551296,-11.6089,-7.3288,-760.643,-9749.25,-1640.85,-3.79617,11.8195,1.44178,8780.42,1085.36,3445.53,-10.3973,9.33058,-5.99751
0.314,3386.27,-3783.15,8379.22,-3.27964,-1.50232,0.727881,4031.77,3464.19,8089.54,-2.43899,-0.726109,-1.37504,174.288,9821.97,-782.51,-0.517692,-7.87864,20.4369,-909.718,-9848.7,-592.111,-4.11329,4.78047,-0.465578,-2119.26,9249.54,-1251.05,0.524419,-11.3304,-7.46894,-769.008,-9748.41,-1644.98,-3.82543,11.8566,1.53128,8795.91,1090.96,3434.22,-10.3936,9.29764,-6.09466
0.315,3396.41,-3781.21,8374.47,-3.23769,-1.51754,0.678488,4032.85,3466.24,8064.93,-2.58644,-0.79454,-1.384,193.238,9812.79,-790.031,-0.619888,-7.79719,20.4893,-906.22,-9874.55,-608.321,-4.23545,5.02864,-0.465021,-2070.77,9269.63,-1244.31,0.497542,-11.0519,-7.60908,-777.374,-9747.57,-1649.12,-3.85469,11.8936,1.62079,8811.38,1096.55,3422.92,-10.3898,9.26469,-6.1918
0.316,3396.2,-3783.02,8368.26,-3.19302,-1.47329,0.638091,4027.73,3467.98,8047.56,-2.79749,-0.816424,-1.38055,195.944,9806.09,-789.626,-0.69772,-7.70197,20.4704,-892.101,-9872.82,-633.46,-4.3145,5.2321,-0.411941,-2024.29,9288.85,-1238.3,0.461502,-10.8165,-7.71486,-781.992,-9751.98,-1650.77,-3.88229,11.9845,1.69353,8814.39,1101.53,3424.24,-10.3532,9.23978,-6.33629
0.317,3383.04,-3789.5,8360.23,-3.14496,-1.35468,0.60894,4014.85,3469.34,8039.24,-3.08804,-0.780123,-1.3616,178.346,9802.47,-779.314,-0.745099,-7.58954,20.3624,-864.704,-9836.62,-669.758,-4.33965,5.37971,-0.293207,-1980.3,9306.96,-1233.2,0.414008,-10.6348,-7.77769,-781.928,-9762.97,-1649.32,-3.90784,12.1426,1.74532,8801.79,1105.73,3441.34,-10.2754,9.22492,-6.53997
0.318,3369.88,-3795.99,8352.19,-3.0969,-1.23607,0.579789,4001.97,3470.7,8030.93,-3.37859,-0.743822,-1.34264,160.747,9798.85,-769.001,-0.792477,-7.47711,20.2544,-837.308,-9800.42,-706.057,-4.36481,5.52731,-0.174473,-1936.32,9325.08,-1228.11,0.366514,-10.4532,-7.84052,-781.863,-9773.97,-1647.87,-3.93338,12.3007,1.79712,8789.2,1109.94,3458.45,-10.1976,9.21006,-6.74365
0.319,3356.72,-3802.47,8344.16,-3.04883,-1.11747,0.550638,3989.09,3472.06,8022.61,-3.66914,-0.707521,-1.32369,143.149,9795.23,-758.689,-0.839856,-7.36467,20.1464,-809.912,-9764.22,-742.355,-4.38996,5.67492,-0.0557388,-1892.33,9343.2,-1223.01,0.31902,-10.2715,-7.90335,-781.798,-9784.96,-1646.42,-3.95893,12.4587,1.84891,8776.6,1114.14,3475.55,-10.1198,9.1952,-6.94733
0.32,3343.56,-3808.95,8336.13,-3.00077,-0.998861,0.521488,3976.2,3473.42,8014.3,-3.95968,-0.67122,-1.30474,125.55,9791.62,-748.377,-0.887234,-7.25224,20.0384,-782.516,-9728.02,-778.654,-4.41511,5.82253,0.0629953,-1848.34,9361.31,-1217.91,0.271527,-10.0899,-7.96617,-781.734,-9795.95,-1644.97,-3.98447,12.6168,1.9007,8764.01,1118.34,3492.66,-10.042,9.18034,-7.15101
0.321,3370.97,-3796.04,8335.78,-3.0214,-0.96436,0.590454,3982.69,3476.1,7994.98,-4.03608,-0.65067,-1.34068,139.512,9776.95,-770.588,-0.886034,-7.21267,19.9777,-782.304,-9715.73,-764.766,-4.57423,6.07075,0.141874,-1846.36,9376.62,-1231.05,0.159599,-9.81682,-7.92718,-761.993,-9789.22,-1650.38,-3.99175,12.8208,2.01701,8798.41,1092.55,3520.73,-9.90161,9.2498,-7.43014
0.322,3398.39,-3783.13,8335.43,-3.04203,-0.929858,0.659419,3989.18,3478.77,7975.67,-4.11247,-0.63012,-1.37662,153.475,9762.27,-792.799,-0.884833,-7.17311,19.917,-782.091,-9703.43,-750.878,-4.73334,6.31898,0.220753,-1844.37,9391.93,-1244.19,0.0476716,-9.54376,-7.88818,-742.252,-9782.49,-1655.78,-3.99902,13.0247,2.13331,8832.82,1066.75,3548.8,-9.76126,9.31926,-7.70927
0.323,3425.81,-3770.22,8335.08,-3.06266,-0.895357,0.728385,3995.66,3481.44,7956.36,-4.18886,-0.60957,-1.41256,167.437,9747.6,-815.011,-0.883633,-7.13354,19.8562,-781.879,-9691.13,-736.991,-4.89245,6.56721,0.299632,-1842.38,9407.24,-1257.33,-0.0642559,-9.27071,-7.84918,-722.511,-9775.76,-1661.19,-4.0063,13.2287,2.24961,8867.22,1040.96,3576.88,-9.62091,9.38872,-7.98839
0.324,3453.22,-3757.3,8334.73,-3.08329,-0.860855,0.797351,4002.15,3484.12,7937.04,-4.26526,-0.58902,-1.44851,181.399,9732.93,-837.222,-0.882433,-7.09398,19.7955,-781.666,-9678.84,-723.103,-5.05157,6.81544,0.378511,-1840.4,9422.55,-1270.47,-0.176183,-8.99765,-7.81019,-702.77,-9769.03,-1666.6,-4.01357,13.4326,2.36591,8901.63,1015.16,3604.95,-9.48055,9.45818,-8.26752
0.325,3465.03,-3746.6,8333.98,-3.03584,-0.843778,0.844486,4016.48,3485.83,7945.08,-4.28389,-0.512922,-1.46338,193.818,9730.51,-852.081,-0.904949,-7.11697,19.7471,-788.717,-9679.14,-714.896,-5.1427,7.03886,0.482269,-1832.61,9431.62,-1278.78,-0.350706,-8.76344,-7.80064,-685.547,-9761.06,-1684.19,-4.00138,13.6327,2.51335,8928.04,1006.43,3623.61,-9.36378,9.40311,-8.5109
0.326,3464.35,-3737.65,8332.92,-2.93392,-0.840641,0.874155,4037.1,3486.77,7975.01,-4.25632,-0.392386,-1.46139,205.001,9737.9,-861.058,-0.946439,-7.19001,19.7084,-801.578,-9689.53,-711.234,-5.17944,7.24244,0.60593,-1820.17,9435.71,-1283.22,-0.575305,-8.56028,-7.81464,-670.336,-9752.09,-1711.54,-3.97359,13.8297,2.68572,8948.06,1011.33,3634.74,-9.26588,9.2484,-8.72569
