Time,RFoot_accel.x,RFoot_accel.y,RFoot_accel.z,RFoot_gyro.x,RFoot_gyro.y,RFoot_gyro.z,LFoot_accel.x,LFoot_accel.y,LFoot_accel.z,LFoot_gyro.x,LFoot_gyro.y,LFoot_gyro.z,RShank_accel.x,RShank_accel.y,RShank_accel.z,RShank_gyro.x,RShank_gyro.y,RShank_gyro.z,LShank_accel.x,LShank_accel.y,LShank_accel.z,LShank_gyro.x,LShank_gyro.y,LShank_gyro.z,RThigh_accel.x,RThigh_accel.y,RThigh_accel.z,RThigh_gyro.x,RThigh_gyro.y,RThigh_gyro.z,LThigh_accel.x,LThigh_accel.y,LThigh_accel.z,LThigh_gyro.x,LThigh_gyro.y,LThigh_gyro.z,Pelvis_accel.x,Pelvis_accel.y,Pelvis_accel.z,Pelvis_gyro.x,Pelvis_gyro.y,Pelvis_gyro.z
3.35,2983.39,-1145.9,9355.74,-0.608324,317.298,207.532,4336.99,3043.5,7754.45,-40.2522,19.6783,24.4595,6300.06,5199.91,473.505,120.238,36.7869,289.227,1466.86,-8923.15,-1991.21,-7.39817,-41.0554,32.4161,-8947.56,3650.36,-1784.1,28.5932,27.1172,160.894,1698.36,-8923.81,1117.89,-97.0638,-103.21,96.5845,3937.68,-2288.18,1715.26,21.3171,10.9364,53.0225
3.351,3008.44,-1012.92,9477.74,-3.35582,317.243,209.522,4333.73,3079.93,7749.62,-41.1307,20.2599,24.9651,6158.74,5362.48,566.691,120.316,39.7513,290.957,1527.75,-8943.52,-2009.1,-7.44064,-39.8167,32.9993,-8942.32,3555.25,-1921.52,27.3265,30.4144,161.865,1897.33,-9036.22,1066.23,-98.3297,-106.823,95.9908,4041.16,-2355.43,1698.06,21.9087,11.3626,52.3726
3.352,3062.59,-964.943,9631.44,-6.91829,317.01,211.237,4304.57,3059.04,7773.44,-41.6996,20.5699,25.4324,6037.73,5514.49,623.633,120.254,41.6779,292.775,1552.5,-8960.46,-2021.66,-7.52427,-38.4112,33.6048,-8954.13,3504.1,-2006.4,25.5176,34.3713,163.279,2119.63,-9173.56,947.287,-99.4734,-110.496,95.4286,4165.8,-2406.53,1699.11,22.5632,11.7089,51.7731
3.353,3120.39,-927.595,9789.11,-10.5826,316.755,212.917,4272.18,3030.99,7800.84,-42.2297,20.846,25.8948,5919.26,5665.17,676.044,120.175,43.4747,294.605,1572.73,-8976.98,-2033.55,-7.61306,-36.9849,34.213,-8968.08,3458.45,-2084.71,23.641,38.4106,164.748,2344.86,-9314.03,819.937,-100.602,-114.176,94.8704,4293.09,-2455.6,1702.43,23.2256,12.0453,51.1799
3.354,3178.18,-890.248,9946.77,-14.247,316.499,214.597,4239.79,3002.94,7828.24,-42.7598,21.1221,26.3573,5800.79,5815.85,728.456,120.095,45.2715,296.434,1592.96,-8993.49,-2045.44,-7.70184,-35.5585,34.8213,-8982.02,3412.8,-2163.02,21.7644,42.4499,166.217,2570.08,-9454.49,692.587,-101.73,-117.856,94.3122,4420.37,-2504.67,1705.76,23.888,12.3817,50.5867
3.355,3235.97,-852.901,10104.4,-17.9113,316.244,216.278,4207.4,2974.89,7855.64,-43.29,21.3981,26.8198,5682.33,5966.53,780.867,120.016,47.0683,298.264,1613.18,-9010.01,-2057.33,-7.79063,-34.1322,35.4295,-8995.97,3367.15,-2241.33,19.8877,46.4892,167.686,2795.3,-9594.95,565.238,-102.858,-121.536,93.754,4547.66,-2553.75,1709.08,24.5504,12.7181,49.9935
3.356,3321.54,-834.004,10179.4,-20.8121,316.463,217.983,4200.7,2926.61,7876.57,-43.8111,21.6489,27.1305,5551.84,6128.01,808.01,119.965,48.2805,300.089,1603.05,-9045.54,-2078.17,-7.82971,-32.4748,36.0441,-8944.78,3299.24,-2291.14,18.4347,50.9768,168.794,3016.8,-9734.42,417.111,-103.77,-125.026,93.174,4657.86,-2604.69,1705.29,25.2882,12.9021,49.4451
3.357,3441.82,-838.172,10151.1,-22.7585,317.274,219.719,4226.13,2853.04,7889.4,-44.3211,21.8682,27.2515,5406.34,6303.0,803.569,119.95,48.7619,301.908,1554.96,-9104.84,-2110.17,-7.80667,-30.5287,36.6665,-8812.18,3203.49,-2305.33,17.5111,56.0246,169.449,3233.66,-9872.65,243.013,-104.41,-128.28,92.5667,4746.7,-2657.97,1692.6,26.1201,12.8954,48.9525
3.358,3562.1,-842.339,10122.7,-24.7048,318.086,221.456,4251.55,2779.47,7902.23,-44.8311,22.0874,27.3725,5260.84,6477.98,799.128,119.935,49.2433,303.727,1506.87,-9164.14,-2142.18,-7.78362,-28.5825,37.2888,-8679.58,3107.73,-2319.52,16.5875,61.0725,170.104,3450.51,-10010.9,68.9155,-105.051,-131.534,91.9594,4835.55,-2711.25,1679.9,26.952,12.8887,48.46
3.359,3682.38,-846.507,10094.4,-26.6512,318.897,223.192,4276.98,2705.9,7915.06,-45.341,22.3067,27.4935,5115.33,6652.96,794.687,119.92,49.7247,305.547,1458.79,-9223.45,-2174.19,-7.76058,-26.6363,37.9112,-8546.98,3011.98,-2333.7,15.6639,66.1203,170.76,3667.36,-10149.1,-105.182,-105.691,-134.787,91.3521,4924.39,-2764.53,1667.21,27.784,12.882,47.9675
3.36,3802.66,-850.674,10066.0,-28.5975,319.708,224.928,4302.4,2632.33,7927.89,-45.851,22.5259,27.6145,4969.83,6827.94,790.245,119.905,50.2061,307.366,1410.7,-9282.75,-2206.2,-7.73754,-24.6902,38.5336,-8414.38,2916.23,-2347.89,14.7403,71.1681,171.415,3884.22,-10287.3,-279.28,-106.332,-138.041,90.7448,5013.23,-2817.81,1654.52,28.6159,12.8753,47.475
3.361,4016.2,-993.646,10059.2,-29.417,321.265,226.495,4361.51,2589.86,7931.04,-46.5059,22.8687,27.7603,4874.99,6975.45,744.624,120.305,50.1264,308.976,1337.72,-9367.6,-2198.13,-7.55914,-22.8282,38.9725,-8271.21,2784.49,-2206.92,15.8928,75.5078,171.217,4054.87,-10357.4,-507.43,-105.767,-140.318,90.4215,5087.77,-2858.46,1641.2,29.3289,12.7915,46.9334
3.362,4229.73,-1136.62,10052.4,-30.2364,322.823,228.061,4420.62,2547.4,7934.18,-47.1608,23.2114,27.9061,4780.14,7122.95,699.004,120.706,50.0467,310.585,1264.74,-9452.45,-2190.07,-7.38075,-20.9663,39.4113,-8128.04,2652.76,-2065.94,17.0452,79.8475,171.019,4225.53,-10427.5,-735.579,-105.202,-142.595,90.0983,5162.3,-2899.12,1627.87,30.0419,12.7077,46.3918
3.363,4443.27,-1279.59,10045.6,-31.0558,324.38,229.627,4479.73,2504.93,7937.33,-47.8158,23.5542,28.0519,4685.3,7270.46,653.383,121.106,49.967,312.195,1191.77,-9537.3,-2182.0,-7.20235,-19.1044,39.8502,-7984.87,2521.03,-1924.97,18.1977,84.1871,170.821,4396.19,-10497.5,-963.729,-104.638,-144.872,89.775,5236.84,-2939.78,1614.55,30.7549,12.624,45.8503
3.364,4656.8,-1422.56,10038.8,-31.8753,325.937,231.193,4538.84,2462.47,7940.48,-48.4707,23.8969,28.1978,4590.46,7417.96,607.762,121.507,49.8873,313.805,1118.79,-9622.15,-2173.94,-7.02395,-17.2425,40.2891,-7841.69,2389.29,-1783.99,19.3502,88.5268,170.623,4566.84,-10567.6,-1191.88,-104.073,-147.149,89.4517,5311.37,-2980.43,1601.23,31.468,12.5402,45.3087
3.365,4867.5,-1634.25,10049.8,-32.4334,327.577,232.206,4605.32,2430.83,7940.24,-49.0498,24.275,28.2359,4530.51,7591.6,546.861,121.983,49.8196,315.154,1036.78,-9702.16,-2172.32,-6.87969,-15.3739,40.6939,-7699.48,2288.42,-1627.72,20.2016,91.4818,170.578,4699.32,-10591.3,-1442.02,-102.717,-148.743,89.2075,5390.4,-3000.01,1593.14,32.0577,12.5013,44.7363
3.366,5075.94,-1900.9,10075.0,-32.7825,329.282,232.777,4677.7,2407.84,7937.31,-49.5684,24.6813,28.188,4498.48,7786.14,473.737,122.519,49.7614,316.293,947.556,-9778.3,-2175.87,-6.76274,-13.4999,41.0715,-7558.03,2212.23,-1459.21,20.8122,93.3292,170.655,4801.25,-10578.0,-1709.75,-100.729,-149.789,89.0267,5473.03,-3002.71,1589.25,32.5488,12.4984,44.1392
3.367,5284.38,-2167.56,10100.1,-33.1316,330.987,233.347,4750.08,2384.85,7934.37,-50.0869,25.0876,28.14,4466.45,7980.68,400.613,123.054,49.7032,317.433,858.329,-9854.44,-2179.42,-6.64579,-11.626,41.4492,-7416.57,2136.04,-1290.7,21.4229,95.1765,170.733,4903.18,-10564.6,-1977.48,-98.7408,-150.835,88.8458,5555.66,-3005.41,1585.35,33.04,12.4955,43.542
3.368,5492.82,-2434.22,10125.3,-33.4807,332.693,233.918,4822.45,2361.87,7931.43,-50.6054,25.494,28.092,4434.42,8175.21,327.488,123.59,49.645,318.573,769.103,-9930.58,-2182.96,-6.52883,-9.75201,41.8268,-7275.12,2059.85,-1122.19,22.0335,97.0239,170.81,5005.11,-10551.3,-2245.21,-96.7526,-151.881,88.6649,5638.29,-3008.11,1581.45,33.5311,12.4926,42.9449
3.369,5689.78,-2697.38,10147.9,-33.7908,334.363,234.397,4885.17,2344.4,7932.83,-51.1698,25.894,28.0627,4407.25,8365.72,246.132,124.087,49.6666,319.817,684.896,-10002.0,-2184.39,-6.38149,-7.88729,42.1911,-7138.58,1976.91,-964.487,22.5268,98.6542,170.859,5098.3,-10533.0,-2512.79,-94.6215,-152.733,88.5045,5720.22,-3006.53,1576.34,34.0284,12.5006,42.3536
3.37,5794.93,-2932.6,10150.7,-33.7888,335.754,234.145,4870.62,2371.09,7968.94,-52.1011,26.2435,28.1823,4418.98,8524.0,98.916,124.274,50.3264,321.902,640.843,-10035.9,-2168.84,-5.99104,-6.09639,42.449,-7041.4,1839.97,-893.247,22.0821,98.5482,170.675,5121.57,-10475.1,-2779.12,-91.3473,-152.029,88.5071,5796.58,-2970.67,1561.55,34.5746,12.5963,41.8087
3.371,5900.07,-3167.82,10153.5,-33.7868,337.145,233.892,4856.07,2397.79,8005.04,-53.0324,26.593,28.3018,4430.71,8682.28,-48.2997,124.462,50.9862,323.987,596.791,-10069.7,-2153.3,-5.60059,-4.30548,42.7069,-6944.22,1703.02,-822.006,21.6374,98.4422,170.492,5144.84,-10417.2,-3045.45,-88.0731,-151.326,88.5098,5872.94,-2934.81,1546.75,35.1208,12.692,41.2639
3.372,6005.21,-3403.03,10156.3,-33.7849,338.536,233.64,4841.52,2424.49,8041.15,-53.9637,26.9425,28.4214,4442.44,8840.55,-195.515,124.649,51.646,326.071,552.739,-10103.6,-2137.76,-5.21013,-2.51458,42.9648,-6847.03,1566.08,-750.766,21.1927,98.3363,170.309,5168.11,-10359.2,-3311.78,-84.7989,-150.622,88.5125,5949.29,-2898.96,1531.96,35.6669,12.7877,40.719
3.373,6110.36,-3638.25,10159.2,-33.7829,339.927,233.388,4826.97,2451.18,8077.25,-54.895,27.292,28.541,4454.17,8998.83,-342.731,124.836,52.3058,328.156,508.686,-10137.5,-2122.22,-4.81968,-0.723683,43.2227,-6749.85,1429.14,-679.526,20.7479,98.2303,170.125,5191.37,-10301.3,-3578.11,-81.5247,-149.918,88.5152,6025.65,-2863.1,1517.16,36.2131,12.8834,40.1741
3.374,6158.05,-3814.68,10126.0,-33.3405,341.179,232.976,4790.94,2478.05,8108.27,-55.5821,27.5858,28.7971,4538.34,9030.76,-467.434,125.205,53.5032,330.63,475.398,-10170.5,-2130.52,-4.38471,0.415526,43.3411,-6608.47,1364.91,-632.661,19.9041,98.4594,169.288,5175.35,-10188.2,-3866.8,-78.1432,-147.848,88.7473,6081.73,-2816.4,1500.09,36.7811,12.8623,39.6488
3.375,6177.02,-3961.71,10074.9,-32.6779,342.361,232.485,4744.18,2505.01,8136.74,-56.147,27.8518,29.1215,4658.74,8999.52,-580.88,125.665,54.9693,333.298,447.492,-10203.1,-2150.74,-3.92748,1.22889,43.3897,-6444.99,1337.04,-597.984,18.8606,98.8561,168.124,5139.69,-10047.5,-4166.68,-74.7079,-145.095,89.094,6127.69,-2764.3,1481.87,37.3598,12.7828,39.1334
3.376,6195.99,-4108.74,10023.8,-32.0153,343.543,231.993,4697.41,2531.97,8165.22,-56.712,28.1178,29.4458,4779.13,8968.28,-694.326,126.125,56.4354,335.966,419.586,-10235.8,-2170.96,-3.47025,2.04225,43.4383,-6281.51,1309.18,-563.308,17.8172,99.2527,166.96,5104.03,-9906.79,-4466.55,-71.2727,-142.342,89.4408,6173.64,-2712.19,1463.66,37.9386,12.7034,38.6179
3.377,6214.96,-4255.77,9972.65,-31.3527,344.725,231.502,4650.65,2558.92,8193.69,-57.277,28.3838,29.7702,4899.53,8937.03,-807.772,126.584,57.9015,338.634,391.679,-10268.4,-2191.18,-3.01302,2.85562,43.4869,-6118.03,1281.31,-528.631,16.7738,99.6494,165.796,5068.37,-9766.07,-4766.42,-67.8375,-139.589,89.7876,6219.59,-2660.08,1445.44,38.5174,12.6239,38.1025
3.378,6235.47,-4383.63,9904.69,-30.5169,345.953,231.013,4600.07,2571.5,8225.27,-57.7176,28.6312,30.1101,5021.38,8883.84,-927.036,127.202,59.64,341.361,354.114,-10288.2,-2228.02,-2.59549,3.5846,43.5529,-5945.92,1280.77,-485.992,15.4118,100.291,164.515,5023.16,-9610.26,-5054.85,-64.6135,-136.425,90.2478,6261.08,-2603.39,1432.53,39.0661,12.5057,37.5948
3.379,6261.38,-4444.4,9777.77,-29.0749,347.342,230.53,4536.15,2533.77,8267.7,-57.7234,28.8133,30.5041,5148.34,8753.8,-1066.66,128.373,62.3316,344.292,282.742,-10262.9,-2323.02,-2.31688,4.01827,43.68,-5743.58,1375.88,-415.483,12.9348,101.792,162.825,4944.56,-9401.62,-5303.26,-62.1289,-131.822,91.1047,6287.0,-2530.66,1438.17,39.5099,12.252,37.1143
3.38,6287.28,-4505.17,9650.85,-27.6329,348.732,230.047,4472.23,2496.03,8310.13,-57.7291,28.9954,30.8982,5275.29,8623.76,-1206.29,129.544,65.0233,347.222,211.37,-10237.6,-2418.02,-2.03827,4.45194,43.8071,-5541.25,1470.99,-344.975,10.4577,103.292,161.135,4865.96,-9192.98,-5551.66,-59.6443,-127.218,91.9616,6312.91,-2457.94,1443.81,39.9537,11.9983,36.6339
3.381,6313.18,-4565.93,9523.93,-26.1909,350.122,229.565,4408.3,2458.29,8352.55,-57.7348,29.1776,31.2922,5402.25,8493.72,-1345.92,130.715,67.7149,350.153,139.998,-10212.2,-2513.02,-1.75967,4.8856,43.9341,-5338.91,1566.11,-274.467,7.98067,104.792,159.445,4787.36,-8984.34,-5800.06,-57.1597,-122.615,92.8185,6338.82,-2385.21,1449.45,40.3975,11.7446,36.1534
3.382,6339.09,-4626.7,9397.02,-24.749,351.511,229.082,4344.38,2420.56,8394.98,-57.7405,29.3597,31.6863,5529.2,8363.69,-1485.54,131.886,70.4066,353.083,68.626,-10186.9,-2608.02,-1.48106,5.31927,44.0612,-5136.58,1661.22,-203.958,5.50362,106.293,157.755,4708.76,-8775.69,-6048.47,-54.6751,-118.012,93.6754,6364.73,-2312.49,1455.09,40.8414,11.4909,35.673
3.383,6394.32,-4737.16,9329.19,-23.0893,352.777,228.184,4315.16,2358.39,8430.39,-57.7547,29.5737,31.9098,5598.7,8218.86,-1610.96,133.13,73.6658,354.943,-27.9347,-10170.4,-2615.32,-1.10035,5.71274,44.3756,-4956.74,1826.99,-164.597,1.5041,108.705,156.484,4623.81,-8596.37,-6180.99,-53.4236,-112.614,94.8852,6399.99,-2233.68,1437.73,41.2013,11.256,35.2316
3.384,6457.94,-4861.81,9278.24,-21.3674,354.008,227.168,4295.85,2289.25,8463.79,-57.7712,29.7968,32.0846,5651.77,8069.81,-1732.31,134.394,77.0871,356.497,-131.692,-10156.4,-2597.57,-0.690472,6.09472,44.7435,-4783.33,2012.96,-134.135,-2.9304,111.377,155.332,4537.04,-8425.42,-6280.4,-52.5245,-106.989,96.1959,6437.94,-2153.14,1413.81,41.5373,11.0265,34.8015
3.385,6521.55,-4986.47,9227.29,-19.6456,355.239,226.151,4276.54,2220.11,8497.19,-57.7878,30.0199,32.2594,5704.85,7920.75,-1853.66,135.658,80.5085,358.051,-235.45,-10142.4,-2579.81,-0.280592,6.47671,45.1114,-4609.92,2198.92,-103.673,-7.36492,114.05,154.181,4450.27,-8254.46,-6379.81,-51.6254,-101.364,97.5066,6475.88,-2072.6,1389.88,41.8732,10.797,34.3713
3.386,6585.17,-5111.13,9176.34,-17.9237,356.469,225.135,4257.23,2150.97,8530.59,-57.8043,30.243,32.4343,5757.93,7771.7,-1975.02,136.923,83.9298,359.605,-339.207,-10128.4,-2562.05,0.129289,6.8587,45.4794,-4436.51,2384.89,-73.2107,-11.7994,116.723,153.029,4363.5,-8083.51,-6479.22,-50.7263,-95.7387,98.8173,6513.82,-1992.06,1365.96,42.2092,10.5675,33.9411
3.387,6646.07,-5243.68,9183.35,-16.1148,357.32,224.134,4259.49,2095.01,8560.91,-57.7564,30.321,32.6422,5802.98,7656.27,-2098.92,138.313,87.5475,360.864,-441.645,-10108.7,-2522.25,0.557556,6.99088,45.8657,-4332.19,2523.58,-82.1048,-16.3903,120.035,151.856,4266.49,-7923.96,-6532.98,-50.3413,-90.1456,100.166,6538.54,-1907.4,1332.55,42.5902,10.3807,33.5451
3.388,6701.56,-5392.03,9306.28,-14.132,357.41,223.163,4304.87,2065.41,8585.05,-57.5797,30.1086,32.9162,5831.97,7608.11,-2227.92,139.954,91.5576,361.534,-541.445,-10077.7,-2438.36,1.02259,6.62348,46.2887,-4366.04,2567.71,-169.711,-21.294,124.627,150.64,4148.99,-7787.22,-6495.45,-50.9847,-84.6165,101.59,6536.84,-1814.5,1280.18,43.061,10.2791,33.2174
3.389,6757.04,-5540.37,9429.2,-12.1491,357.5,222.192,4350.26,2035.8,8609.2,-57.4031,29.8962,33.1903,5860.96,7559.94,-2356.92,141.596,95.5678,362.204,-641.244,-10046.7,-2354.47,1.48763,6.25608,46.7118,-4399.9,2611.85,-257.318,-26.1977,129.22,149.425,4031.5,-7650.48,-6457.92,-51.628,-79.0873,103.014,6535.13,-1721.59,1227.82,43.5319,10.1776,32.8898
3.39,6812.52,-5688.72,9552.12,-10.1663,357.59,221.221,4395.65,2006.2,8633.34,-57.2264,29.6838,33.4644,5889.94,7511.78,-2485.92,143.237,99.5779,362.874,-741.044,-10015.6,-2270.57,1.95267,5.88867,47.1349,-4433.75,2655.99,-344.925,-31.1013,133.812,148.209,3914.0,-7513.74,-6420.39,-52.2713,-73.5582,104.438,6533.42,-1628.69,1175.45,44.0027,10.076,32.5621
3.391,6868.01,-5837.07,9675.05,-8.18342,357.68,220.251,4441.04,1976.6,8657.49,-57.0497,29.4714,33.7385,5918.93,7463.61,-2614.91,144.879,103.588,363.543,-840.843,-9984.61,-2186.68,2.41771,5.52127,47.5579,-4467.6,2700.13,-432.531,-36.005,138.404,146.994,3796.5,-7377.0,-6382.86,-52.9146,-68.029,105.863,6531.71,-1535.78,1123.08,44.4736,9.97446,32.2344
3.392,6919.47,-5788.87,9791.01,-6.56779,357.212,219.781,4462.32,1925.77,8672.37,-56.4714,29.4143,33.9574,5915.76,7589.99,-2602.2,146.204,106.891,363.945,-898.426,-9937.48,-2126.12,2.59989,4.76241,48.0938,-4572.76,2682.65,-487.887,-39.9554,144.2,145.811,3653.69,-7293.64,-6220.92,-54.3166,-63.5339,107.276,6547.71,-1446.04,1080.74,44.9706,10.0975,31.8546
3.393,6970.43,-5716.1,9906.11,-4.99806,356.674,219.374,4480.58,1872.28,8686.09,-55.843,29.3766,34.1694,5908.56,7738.18,-2571.78,147.491,110.105,364.314,-950.733,-9888.35,-2068.47,2.74672,3.95461,48.6437,-4686.84,2657.48,-539.21,-43.7867,150.145,144.632,3507.72,-7216.95,-6043.44,-55.8134,-59.168,108.688,6565.91,-1356.68,1039.64,45.4709,10.2486,31.4683
3.394,7021.38,-5643.33,10021.2,-3.42833,356.137,218.968,4498.85,1818.79,8699.81,-55.2146,29.3389,34.3813,5901.37,7886.38,-2541.36,148.777,113.32,364.683,-1003.04,-9839.21,-2010.83,2.89355,3.14681,49.1937,-4800.91,2632.3,-590.534,-47.618,156.091,143.452,3361.75,-7140.27,-5865.96,-57.3101,-54.8021,110.099,6584.12,-1267.33,998.553,45.9712,10.3997,31.082
3.395,7072.34,-5570.56,10136.3,-1.85861,355.599,218.561,4517.11,1765.3,8713.54,-54.5862,29.3012,34.5933,5894.17,8034.57,-2510.93,150.063,116.534,365.051,-1055.35,-9790.08,-1953.18,3.04038,2.33901,49.7436,-4914.99,2607.12,-641.858,-51.4493,162.036,142.273,3215.78,-7063.58,-5688.48,-58.8069,-50.4362,111.511,6602.32,-1177.97,957.461,46.4715,10.5509,30.6957
3.396,7128.36,-5478.38,10239.5,-1.00183,354.94,218.223,4522.26,1688.5,8737.95,-53.9385,29.1819,34.7347,5869.14,8239.53,-2462.96,151.177,119.522,365.465,-1102.36,-9769.7,-1879.53,3.20116,1.36149,50.33,-5057.5,2576.32,-688.346,-54.6627,167.874,140.866,3071.38,-7015.25,-5445.41,-60.344,-47.0624,112.856,6631.95,-1105.77,941.713,46.977,10.7134,30.3198
3.397,7190.71,-5361.93,10327.7,-1.03623,354.13,217.97,4511.0,1582.58,8775.74,-53.2669,28.9608,34.7877,5821.81,8515.46,-2393.06,152.076,122.226,365.935,-1142.75,-9785.27,-1785.87,3.37939,0.171808,50.9621,-5235.56,2538.5,-728.79,-57.1036,173.575,139.173,2928.97,-7002.35,-5120.34,-61.9314,-44.9288,114.118,6675.86,-1055.03,957.645,47.489,10.8904,29.9568
3.398,7253.06,-5245.48,10415.9,-1.07064,353.319,217.717,4499.75,1476.66,8813.52,-52.5953,28.7397,34.8408,5774.47,8791.38,-2323.16,152.976,124.931,366.404,-1183.14,-9800.83,-1692.21,3.55762,-1.01788,51.5941,-5413.62,2500.67,-769.234,-59.5446,179.276,137.48,2786.55,-6989.45,-4795.28,-63.5188,-42.7952,115.38,6719.76,-1004.28,973.577,48.0009,11.0673,29.5938
3.399,7315.41,-5129.03,10504.1,-1.10504,352.509,217.464,4488.5,1370.73,8851.3,-51.9236,28.5185,34.8938,5727.14,9067.3,-2253.26,153.875,127.636,366.874,-1223.53,-9816.4,-1598.55,3.73585,-2.20756,52.2261,-5591.67,2462.85,-809.678,-61.9856,184.978,135.787,2644.13,-6976.56,-4470.21,-65.1063,-40.6615,116.642,6763.67,-953.529,989.509,48.5129,11.2442,29.2308
3.4,7377.76,-5012.58,10592.3,-1.13945,351.698,217.211,4477.25,1264.81,8889.08,-51.252,28.2974,34.9469,5679.8,9343.22,-2183.36,154.774,130.341,367.344,-1263.93,-9831.97,-1504.89,3.91407,-3.39724,52.8581,-5769.73,2425.03,-850.122,-64.4265,190.679,134.094,2501.71,-6963.66,-4145.15,-66.6937,-38.5279,117.904,6807.57,-902.78,1005.44,49.0248,11.4211,28.8678
3.401,7540.5,-5013.63,10739.9,-2.07949,350.804,217.128,4434.98,1213.07,8859.71,-50.7293,28.2123,34.6063,5638.48,9660.13,-2064.69,155.46,131.926,368.068,-1220.63,-9844.38,-1432.53,4.05566,-4.67026,53.2627,-5877.2,2407.37,-848.473,-65.2364,194.951,132.061,2348.32,-7021.86,-3768.84,-67.7971,-39.0238,118.92,6803.44,-871.637,1032.01,49.5188,11.435,28.4987
3.402,7703.25,-5014.68,10887.5,-3.01954,349.91,217.044,4392.72,1161.33,8830.34,-50.2065,28.1271,34.2657,5597.16,9977.03,-1946.03,156.147,133.511,368.793,-1177.34,-9856.78,-1360.17,4.19725,-5.94328,53.6673,-5984.66,2389.72,-846.823,-66.0463,199.223,130.028,2194.93,-7080.07,-3392.53,-68.9006,-39.5197,119.935,6799.3,-840.493,1058.59,50.0128,11.4489,28.1296
3.403,7866.0,-5015.73,11035.1,-3.95959,349.016,216.96,4350.45,1109.59,8800.97,-49.6838,28.042,33.9251,5555.84,10293.9,-1827.36,156.833,135.097,369.517,-1134.05,-9869.18,-1287.81,4.33884,-7.21631,54.072,-6092.13,2372.06,-845.173,-66.8562,203.495,127.995,2041.54,-7138.28,-3016.22,-70.004,-40.0156,120.95,6795.17,-809.35,1085.16,50.5068,11.4627,27.7605
3.404,8028.75,-5016.78,11182.6,-4.89964,348.122,216.877,4308.19,1057.85,8771.6,-49.1611,27.9568,33.5845,5514.52,10610.8,-1708.69,157.519,136.682,370.242,-1090.76,-9881.58,-1215.46,4.48042,-8.48933,54.4766,-6199.59,2354.41,-843.523,-67.6661,207.767,125.962,1888.15,-7196.48,-2639.91,-71.1075,-40.5115,121.966,6791.03,-778.207,1111.73,51.0008,11.4766,27.3914
3.405,8235.54,-5188.33,11280.7,-5.71159,347.467,216.735,4279.13,1062.16,8760.72,-48.5714,27.7881,33.35,5479.15,10928.6,-1641.69,158.513,138.013,371.072,-1058.06,-9896.43,-1182.82,4.64562,-9.71064,54.8766,-6260.79,2355.84,-787.292,-68.0139,210.629,123.835,1739.01,-7292.15,-2289.36,-71.7406,-42.1547,122.742,6798.45,-741.753,1116.46,51.4153,11.4032,27.0495
3.406,8477.56,-5496.3,11339.2,-6.42107,347.003,216.547,4260.64,1111.32,8764.64,-47.9283,27.5525,33.2003,5448.54,11247.2,-1616.03,159.754,139.14,371.986,-1033.84,-9913.25,-1181.96,4.82969,-10.8906,55.2728,-6284.97,2372.53,-687.396,-67.9918,212.364,121.633,1593.25,-7417.79,-1959.42,-71.9974,-44.7157,123.326,6815.1,-701.05,1103.71,51.7662,11.2599,26.7295
3.407,8719.59,-5804.27,11397.8,-7.13055,346.539,216.36,4242.15,1160.48,8768.55,-47.2852,27.3169,33.0506,5417.94,11565.7,-1590.37,160.995,140.267,372.9,-1009.61,-9930.06,-1181.11,5.01377,-12.0705,55.6691,-6309.15,2389.22,-587.499,-67.9698,214.099,119.431,1447.5,-7543.42,-1629.48,-72.2542,-47.2767,123.91,6831.76,-660.347,1090.97,52.117,11.1166,26.4094
3.408,8961.62,-6112.23,11456.3,-7.84003,346.074,216.172,4223.66,1209.64,8772.46,-46.6421,27.0813,32.9009,5387.34,11884.3,-1564.7,162.235,141.394,373.814,-985.384,-9946.88,-1180.25,5.19785,-13.2505,56.0654,-6333.33,2405.91,-487.603,-67.9478,215.834,117.229,1301.75,-7669.06,-1299.54,-72.511,-49.8378,124.495,6848.41,-619.645,1078.22,52.4679,10.9733,26.0894
3.409,9213.91,-6443.58,11507.4,-8.27568,345.646,216.011,4207.45,1250.5,8778.1,-46.0437,26.8372,32.7137,5363.91,12194.2,-1543.26,163.45,142.598,374.69,-965.131,-9967.32,-1174.71,5.37266,-14.39,56.4653,-6357.43,2431.68,-384.551,-67.985,217.21,115.039,1162.74,-7800.94,-975.704,-72.6579,-52.5376,125.011,6863.59,-580.321,1069.82,52.8083,10.8228,25.7599
3.41,9548.35,-6961.99,11499.1,-6.52071,345.501,216.062,4209.51,1224.96,8797.55,-45.8034,26.5252,32.2263,5397.92,12434.9,-1555.55,164.461,144.424,375.263,-976.667,-10016.8,-1131.72,5.47336,-15.2061,56.8948,-6380.93,2530.02,-256.257,-68.4958,215.714,112.944,1077.69,-7982.78,-700.683,-71.9256,-56.3474,124.981,6866.98,-552.022,1096.18,53.0652,10.6147,25.355
3.411,9882.79,-7480.39,11490.9,-4.76574,345.356,216.113,4211.57,1199.43,8817.01,-45.5631,26.2133,31.739,5431.93,12675.6,-1567.84,165.472,146.249,375.836,-988.203,-10066.3,-1088.72,5.57405,-16.0223,57.3243,-6404.42,2628.37,-127.962,-69.0067,214.218,110.848,992.648,-8164.63,-425.661,-71.1934,-60.1572,124.951,6870.37,-523.723,1122.53,53.3222,10.4065,24.9501
3.412,10217.2,-7998.8,11482.7,-3.01076,345.212,216.164,4213.62,1173.9,8836.46,-45.3228,25.9014,31.2517,5465.94,12916.3,-1580.13,166.483,148.075,376.409,-999.739,-10115.7,-1045.72,5.67474,-16.8385,57.7538,-6427.92,2726.71,0.33226,-69.5176,212.723,108.753,907.604,-8346.48,-150.64,-70.4612,-63.967,124.922,6873.76,-495.425,1148.89,53.5791,10.1984,24.5452
3.413,10551.7,-8517.2,11474.5,-1.25579,345.067,216.216,4215.68,1148.37,8855.91,-45.0825,25.5895,30.7644,5499.95,13157.1,-1592.43,167.493,149.901,376.982,-1011.27,-10165.2,-1002.73,5.77543,-17.6546,58.1832,-6451.41,2825.05,128.627,-70.0284,211.227,106.658,822.559,-8528.32,124.381,-69.7289,-67.7768,124.892,6877.15,-467.126,1175.25,53.836,9.99024,24.1403
3.414,10900.1,-9029.6,11482.4,2.38551,344.808,216.76,4223.77,1126.68,8862.69,-44.7268,25.2648,30.5362,5516.05,13419.6,-1628.75,168.667,152.219,377.477,-963.147,-10183.9,-988.876,5.91357,-18.3817,58.6479,-6504.68,2943.36,256.949,-71.6885,207.34,105.05,773.537,-8731.06,328.037,-68.4832,-71.7114,124.488,6885.31,-469.274,1208.75,54.0614,9.6769,23.7366
3.415,11255.6,-9538.99,11498.5,6.96999,344.492,217.552,4234.86,1106.91,8863.13,-44.3134,24.9337,30.4375,5523.2,13693.1,-1677.08,169.922,154.784,377.933,-885.188,-10187.3,-989.595,6.07043,-19.0642,59.1302,-6572.84,3071.64,385.286,-73.9231,202.258,103.686,742.527,-8944.23,496.01,-66.9809,-75.7083,123.898,6895.86,-486.646,1245.83,54.271,9.31098,23.3334
3.416,11611.1,-10048.4,11514.6,11.5545,344.175,218.344,4245.95,1087.14,8863.57,-43.9,24.6027,30.3388,5530.35,13966.6,-1725.41,171.177,157.348,378.389,-807.229,-10190.7,-990.314,6.22729,-19.7467,59.6125,-6641.0,3199.93,513.623,-76.1577,197.176,102.323,711.516,-9157.4,663.983,-65.4785,-79.7053,123.307,6906.41,-504.017,1282.9,54.4806,8.94505,22.9303
3.417,11966.6,-10557.8,11530.7,16.1389,343.859,219.136,4257.04,1067.37,8864.01,-43.4867,24.2716,30.2401,5537.5,14240.1,-1773.75,172.432,159.913,378.846,-729.27,-10194.1,-991.034,6.38416,-20.4292,60.0948,-6709.16,3328.21,641.959,-78.3924,192.093,100.959,680.506,-9370.58,831.957,-63.9762,-83.7022,122.717,6916.97,-521.389,1319.98,54.6902,8.57912,22.5272
3.418,12312.1,-11039.2,11529.9,20.9886,343.514,220.013,4270.71,1049.64,8863.22,-43.0307,23.9236,30.1292,5542.9,14505.8,-1839.84,173.691,162.602,379.335,-653.772,-10193.8,-995.06,6.51864,-21.1202,60.5842,-6793.71,3446.78,780.57,-81.0394,186.536,99.7975,660.399,-9581.51,970.46,-62.2796,-87.5665,121.974,6927.35,-538.465,1355.01,54.9083,8.20463,22.1385
3.419,12622.4,-11422.9,11470.2,26.7667,343.072,221.189,4293.38,1039.05,8858.12,-42.4259,23.5166,29.976,5542.19,14743.9,-1968.06,174.963,165.728,379.943,-586.887,-10180.6,-1010.66,6.57478,-21.8414,61.0987,-6935.66,3531.35,955.143,-85.1297,179.314,99.3441,678.454,-9784.62,1005.82,-59.9034,-90.9663,120.695,6937.17,-554.506,1382.85,55.156,7.80019,21.8005
3.42,12932.8,-11806.6,11410.5,32.5448,342.629,222.364,4316.05,1028.47,8853.03,-41.8211,23.1095,29.8228,5541.47,14982.1,-2096.28,176.234,168.853,380.55,-520.003,-10167.5,-1026.26,6.63092,-22.5625,61.6131,-7077.6,3615.92,1129.71,-89.2201,172.092,98.8908,696.509,-9987.72,1041.18,-57.5271,-94.3661,119.417,6946.99,-570.548,1410.69,55.4038,7.39574,21.4625
3.421,13243.1,-12190.3,11350.8,38.3228,342.186,223.54,4338.73,1017.88,8847.93,-41.2164,22.7024,29.6696,5540.76,15220.2,-2224.51,177.506,171.979,381.157,-453.118,-10154.3,-1041.86,6.68706,-23.2837,62.1276,-7219.55,3700.49,1304.29,-93.3105,164.87,98.4374,714.564,-10190.8,1076.54,-55.1509,-97.7659,118.139,6956.81,-586.589,1438.53,55.6515,6.9913,21.1245
3.422,13553.5,-12573.9,11291.1,44.1009,341.743,224.716,4361.4,1007.29,8842.83,-40.6116,22.2953,29.5164,5540.04,15458.4,-2352.73,178.778,175.104,381.765,-386.234,-10141.1,-1057.47,6.74321,-24.0048,62.642,-7361.49,3785.05,1478.86,-97.4008,157.648,97.984,732.619,-10393.9,1111.91,-52.7747,-101.166,116.861,6966.63,-602.631,1466.38,55.8993,6.58685,20.7865
3.423,13847.8,-12786.5,11233.1,50.0951,340.809,225.909,4301.65,990.435,8873.43,-40.1383,22.0277,29.4309,5508.27,15717.1,-2493.37,180.07,178.492,382.086,-350.47,-10158.8,-1098.49,6.73904,-24.583,63.3462,-7516.73,3885.09,1690.74,-102.478,149.435,98.273,757.821,-10571.2,1057.09,-50.0674,-103.639,115.191,6965.75,-615.113,1493.22,56.1138,6.0576,20.3678
3.424,14137.4,-12950.2,11175.6,56.1511,339.735,227.107,4218.36,971.793,8914.23,-39.7026,21.7999,29.3649,5467.64,15981.6,-2637.56,181.367,181.955,382.325,-323.598,-10185.3,-1146.79,6.71764,-25.1203,64.1046,-7675.76,3989.56,1913.28,-107.837,140.94,98.7741,785.064,-10741.1,976.508,-47.2655,-105.848,113.409,6961.82,-626.578,1519.78,56.3188,5.49269,19.9261
3.425,14427.1,-13113.9,11118.1,62.2071,338.661,228.305,4135.06,953.151,8955.02,-39.2669,21.5722,29.2989,5427.0,16246.2,-2781.75,182.664,185.418,382.564,-296.726,-10211.9,-1195.08,6.69623,-25.6576,64.863,-7834.8,4094.02,2135.82,-113.196,132.444,99.2752,812.308,-10911.0,895.928,-44.4636,-108.056,111.627,6957.88,-638.042,1546.33,56.5239,4.92778,19.4844
3.426,14716.8,-13277.6,11060.6,68.2631,337.587,229.503,4051.77,934.509,8995.82,-38.8312,21.3444,29.2328,5386.36,16510.7,-2925.94,183.961,188.88,382.803,-269.854,-10238.4,-1243.37,6.67483,-26.195,65.6215,-7993.84,4198.48,2358.36,-118.555,123.949,99.7763,839.551,-11080.9,815.347,-41.6617,-110.265,109.845,6953.95,-649.507,1572.89,56.729,4.36287,19.0426
3.427,14998.2,-13384.5,11040.8,74.1753,336.246,231.071,3983.25,939.078,9035.59,-38.4064,21.0177,29.1196,5325.72,16790.2,-3068.94,185.313,192.646,383.031,-238.842,-10268.0,-1271.45,6.66417,-26.4584,66.4227,-8155.35,4269.57,2578.73,-123.87,115.464,100.619,888.348,-11248.5,709.791,-38.8892,-111.856,107.988,6963.72,-660.547,1597.26,56.9242,3.76117,18.646
3.428,15263.2,-13377.6,11096.5,79.7999,334.37,233.381,3944.28,990.073,9073.32,-38.0032,20.4931,28.9122,5225.05,17099.5,-3209.57,186.777,197.016,383.235,-199.55,-10303.8,-1259.11,6.67499,-26.1741,67.3095,-8321.82,4273.92,2794.75,-129.096,107.001,102.144,980.25,-11411.6,554.285,-36.1754,-112.213,105.982,7000.9,-670.734,1617.25,57.1,3.08589,18.3398
3.429,15528.3,-13370.7,11152.2,85.4245,332.494,235.69,3905.32,1041.07,9111.05,-37.6001,19.9685,28.7048,5124.38,17408.8,-3350.2,188.24,201.386,383.439,-160.257,-10339.6,-1246.76,6.68582,-25.8898,68.1964,-8488.29,4278.27,3010.77,-134.322,98.5384,103.669,1072.15,-11574.8,398.779,-33.4617,-112.57,103.976,7038.08,-680.922,1637.23,57.2757,2.41062,18.0336
3.43,15793.3,-13363.8,11207.9,91.049,330.618,238.0,3866.36,1092.06,9148.78,-37.197,19.444,28.4973,5023.71,17718.1,-3490.83,189.704,205.756,383.643,-120.965,-10375.4,-1234.41,6.69664,-25.6056,69.0833,-8654.75,4282.62,3226.8,-139.548,90.0755,105.194,1164.05,-11737.9,243.272,-30.7479,-112.927,101.969,7075.26,-691.11,1657.22,57.4514,1.73535,17.7274
3.431,16058.3,-13357.0,11263.5,96.6736,328.743,240.31,3827.39,1143.06,9186.51,-36.7938,18.9194,28.2899,4923.04,18027.4,-3631.46,191.168,210.126,383.847,-81.6724,-10411.2,-1222.07,6.70746,-25.3213,69.9702,-8821.22,4286.97,3442.82,-144.775,81.6126,106.719,1255.96,-11901.1,87.7663,-28.0342,-113.283,99.9629,7112.44,-701.297,1677.21,57.6271,1.06007,17.4212
3.432,16331.1,-13307.3,11243.9,101.954,326.327,243.25,3818.09,1118.73,9269.1,-36.2552,18.2318,28.0697,4823.48,18384.7,-3732.99,191.983,215.825,383.625,15.0155,-10465.8,-1180.2,7.06151,-24.9903,70.6539,-9005.46,4211.72,3679.48,-149.006,74.1938,108.885,1360.56,-12061.0,-117.349,-25.8055,-112.287,97.6908,7177.97,-687.675,1691.0,57.9151,0.497046,17.2686
3.433,16605.0,-13252.3,11214.9,107.191,323.843,246.27,3812.49,1084.99,9357.3,-35.6997,17.5238,27.8479,4724.05,18748.0,-3829.62,192.717,221.69,383.349,118.878,-10522.8,-1134.64,7.45846,-24.6535,71.3123,-9191.91,4126.53,3918.72,-153.112,66.9055,111.13,1466.76,-12220.5,-328.665,-23.6375,-111.121,95.3853,7247.05,-671.076,1704.02,58.2171,-0.0519526,17.1353
3.434,16878.8,-13197.3,11185.9,112.428,321.36,249.289,3806.89,1051.25,9445.5,-35.1442,16.8158,27.6262,4624.63,19111.3,-3926.26,193.451,227.555,383.073,222.74,-10579.8,-1089.08,7.85541,-24.3167,71.9706,-9378.37,4041.33,4157.96,-157.219,59.6172,113.375,1572.95,-12380.0,-539.981,-21.4694,-109.955,93.0799,7316.13,-654.478,1717.04,58.5191,-0.600951,17.002
3.435,17152.7,-13142.2,11156.8,117.665,318.877,252.309,3801.29,1017.51,9533.7,-34.5886,16.1078,27.4044,4525.2,19474.5,-4022.89,194.185,233.42,382.798,326.603,-10636.8,-1043.53,8.25236,-23.9798,72.629,-9564.82,3956.13,4397.2,-161.326,52.3289,115.62,1679.15,-12539.5,-751.298,-19.3014,-108.789,90.7745,7385.21,-637.879,1730.06,58.821,-1.14995,16.8687
3.436,17453.5,-12973.5,11129.5,122.712,315.941,255.953,3809.8,975.434,9584.56,-34.0504,15.308,27.2229,4371.48,19861.7,-4119.66,194.532,239.566,382.584,403.958,-10693.4,-1022.13,8.55775,-23.6374,73.299,-9738.61,3803.65,4560.7,-164.322,45.8195,117.454,1774.27,-12666.8,-936.287,-17.7118,-107.356,88.3908,7433.3,-633.304,1745.11,59.1323,-1.76792,16.7641
3.437,17788.0,-12662.7,11104.3,127.523,312.439,260.377,3835.96,922.943,9588.75,-33.5339,14.3933,27.0916,4149.89,20278.6,-4216.6,194.396,246.063,382.449,448.179,-10749.5,-1030.94,8.74868,-23.2879,73.9835,-9896.56,3567.07,4629.53,-165.93,40.2836,118.775,1855.57,-12753.8,-1088.37,-16.8452,-105.59,85.9093,7455.16,-643.758,1762.71,59.455,-2.47209,16.6955
3.438,18122.5,-12351.9,11079.0,132.333,308.938,264.802,3862.12,870.452,9592.93,-33.0173,13.4786,26.9603,3928.3,20695.5,-4313.54,194.26,252.56,382.314,492.4,-10805.6,-1039.74,8.93962,-22.9383,74.668,-10054.5,3330.49,4698.36,-167.538,34.7477,120.096,1936.86,-12840.9,-1240.45,-15.9785,-103.823,83.4278,7477.02,-654.212,1780.31,59.7778,-3.17627,16.6268
3.439,18457.0,-12041.1,11053.8,137.144,305.436,269.226,3888.28,817.96,9597.12,-32.5007,12.5639,26.8291,3706.7,21112.4,-4410.47,194.123,259.057,382.178,536.621,-10861.7,-1048.55,9.13055,-22.5888,75.3525,-10212.5,3093.91,4767.19,-169.146,29.2117,121.416,2018.16,-12928.0,-1392.53,-15.1119,-102.057,80.9463,7498.88,-664.666,1797.91,60.1006,-3.88045,16.5582
3.44,18791.5,-11730.3,11028.6,141.955,301.934,273.651,3914.44,765.469,9601.31,-31.9842,11.6493,26.6978,3485.11,21529.4,-4507.41,193.987,265.554,382.043,580.842,-10917.9,-1057.36,9.32149,-22.2393,76.037,-10370.4,2857.32,4836.02,-170.755,23.6758,122.737,2099.45,-13015.0,-1544.61,-14.2453,-100.29,78.4648,7520.74,-675.12,1815.51,60.4234,-4.58462,16.4896
3.441,19052.4,-10867.1,11244.2,144.2,297.19,280.388,3906.85,697.826,9652.42,-31.2363,10.6162,26.1421,2993.77,22013.3,-4579.54,193.619,271.059,381.912,530.868,-10938.3,-1067.25,9.59938,-21.5872,76.9564,-10468.1,2693.85,4641.38,-169.169,21.7384,122.93,2164.52,-13021.6,-1593.74,-14.847,-98.6894,76.1977,7570.04,-677.693,1789.26,60.5454,-5.22545,16.3762
3.442,19313.4,-10004.0,11459.8,146.446,292.445,287.126,3899.26,630.183,9703.54,-30.4884,9.58303,25.5864,2502.43,22497.3,-4651.67,193.252,276.563,381.781,480.894,-10958.8,-1077.15,9.87726,-20.9351,77.8758,-10565.8,2530.38,4446.75,-167.583,19.801,123.124,2229.59,-13028.2,-1642.87,-15.4486,-97.0887,73.9307,7619.34,-680.266,1763.02,60.6674,-5.86629,16.2628
3.443,19574.3,-9140.81,11675.4,148.691,287.701,293.863,3891.67,562.54,9754.65,-29.7405,8.5499,25.0307,2011.09,22981.2,-4723.8,192.884,282.068,381.65,430.92,-10979.3,-1087.05,10.1552,-20.283,78.7952,-10663.5,2366.91,4252.12,-165.997,17.8636,123.317,2294.66,-13034.8,-1692.0,-16.0503,-95.4881,71.6637,7668.64,-682.839,1736.77,60.7894,-6.50712,16.1494
3.444,19835.3,-8277.66,11891.0,150.937,282.957,300.601,3884.08,494.897,9805.77,-28.9925,7.51678,24.475,1519.75,23465.2,-4795.93,192.517,287.573,381.519,380.945,-10999.8,-1096.94,10.433,-19.6309,79.7146,-10761.2,2203.44,4057.49,-164.411,15.9262,123.51,2359.73,-13041.4,-1741.14,-16.6519,-93.8875,69.3967,7717.94,-685.412,1710.52,60.9114,-7.14795,16.036
3.445,20106.4,-7251.69,12063.6,149.975,278.555,307.741,3883.9,490.595,9819.02,-28.3319,6.39948,23.9412,901.901,23911.0,-4739.04,191.735,291.302,381.159,324.005,-11041.6,-1102.71,10.5625,-19.1442,80.4717,-10712.1,2108.13,3901.48,-162.278,15.4454,123.153,2405.93,-13006.7,-1731.19,-17.7259,-92.7536,67.4707,7739.65,-700.93,1728.78,61.1356,-8.01001,16.0228
3.446,20385.8,-6095.47,12201.6,146.448,274.426,315.203,3889.63,536.966,9801.98,-27.741,5.21485,23.425,182.853,24326.4,-4578.93,190.623,293.611,380.617,261.491,-11100.6,-1105.19,10.5733,-18.7898,81.0988,-10545.5,2067.36,3776.36,-159.707,16.1298,122.355,2437.04,-12939.1,-1673.97,-19.1777,-91.993,65.8177,7739.27,-726.803,1782.64,61.4417,-9.04905,16.0897
3.447,20665.1,-4939.26,12339.7,142.921,270.297,322.665,3895.37,583.338,9784.94,-27.1502,4.03022,22.9088,-536.196,24741.9,-4418.82,189.511,295.92,380.075,198.977,-11159.5,-1107.66,10.5841,-18.4354,81.726,-10378.9,2026.59,3651.25,-157.136,16.8142,121.557,2468.15,-12871.6,-1616.75,-20.6295,-91.2324,64.1646,7738.9,-752.677,1836.49,61.7477,-10.0881,16.1566
3.448,20944.5,-3783.04,12477.7,139.393,266.168,330.127,3901.11,629.709,9767.91,-26.5593,2.8456,22.3927,-1255.24,25157.3,-4258.71,188.398,298.229,379.533,136.463,-11218.4,-1110.14,10.5949,-18.081,82.3531,-10212.3,1985.82,3526.14,-154.565,17.4986,120.759,2499.26,-12804.0,-1559.54,-22.0814,-90.4719,62.5116,7738.52,-778.551,1890.35,62.0538,-11.1271,16.2235
3.449,21232.6,-2683.07,12593.5,135.397,262.164,337.39,3910.42,682.42,9749.19,-25.9458,1.67939,21.9183,-1968.59,25569.7,-4053.28,186.924,300.031,378.898,74.6254,-11275.2,-1119.73,10.5873,-17.7042,82.9663,-10019.1,1960.08,3407.61,-152.045,18.4199,119.928,2526.81,-12732.1,-1497.45,-23.5031,-89.8218,60.9799,7734.8,-804.206,1944.54,62.3544,-12.2133,16.2867
3.45,21590.9,-2033.02,12530.6,127.653,259.157,343.062,3948.31,785.85,9717.02,-25.1505,0.660569,21.7784,-2636.32,25958.1,-3485.19,182.557,297.773,377.519,18.1989,-11314.6,-1186.26,10.4326,-17.1486,83.4676,-9612.8,2054.67,3341.76,-149.933,21.2362,118.841,2525.89,-12625.8,-1396.33,-24.6843,-90.0554,60.4188,7704.31,-828.114,2001.36,62.6117,-13.677,16.3201
3.451,21949.1,-1382.98,12467.8,119.909,256.15,348.735,3986.19,889.281,9684.86,-24.3552,-0.358254,21.6386,-3304.06,26346.6,-2917.1,178.189,295.514,376.14,-38.2275,-11354.1,-1252.8,10.2779,-16.5931,83.969,-9206.51,2149.26,3275.92,-147.82,24.0526,117.753,2524.97,-12519.5,-1295.21,-25.8656,-90.289,59.8578,7673.82,-852.022,2058.18,62.8689,-15.1406,16.3534
3.452,22307.4,-732.931,12405.0,112.165,253.142,354.408,4024.08,992.712,9652.69,-23.5599,-1.37708,21.4988,-3971.79,26735.0,-2349.01,173.821,293.256,374.761,-94.6539,-11393.6,-1319.34,10.1233,-16.0375,84.4703,-8800.22,2243.85,3210.07,-145.708,26.8689,116.665,2524.05,-12413.2,-1194.09,-27.0468,-90.5226,59.2967,7643.33,-875.931,2115.0,63.1262,-16.6043,16.3868
3.453,22665.6,-82.8851,12342.2,104.421,250.135,360.08,4061.97,1096.14,9620.53,-22.7647,-2.3959,21.3589,-4639.52,27123.4,-1780.92,169.454,290.998,373.381,-151.08,-11433.0,-1385.87,9.96858,-15.482,84.9717,-8393.92,2338.44,3144.22,-143.596,29.6853,115.577,2523.14,-12307.0,-1092.97,-28.228,-90.7563,58.7356,7612.84,-899.839,2171.82,63.3834,-18.0679,16.4201
3.454,23093.9,159.148,12198.7,96.1444,247.869,364.836,4085.22,1141.84,9640.13,-21.9188,-3.62528,21.4534,-5124.19,27497.9,-1230.96,164.133,286.487,371.573,-195.209,-11468.9,-1439.78,9.59101,-15.0014,85.6421,-7974.01,2406.91,3040.53,-141.313,34.0106,114.096,2515.29,-12222.6,-998.212,-28.6449,-91.4682,58.6435,7590.79,-933.145,2165.57,63.4104,-19.5179,16.3278
3.455,23557.1,197.175,12014.8,87.6009,245.974,369.134,4101.15,1158.67,9685.62,-21.0476,-4.95995,21.6649,-5517.32,27865.4,-690.054,158.336,280.85,369.55,-233.189,-11503.0,-1487.36,9.10201,-14.5584,86.3972,-7547.29,2462.33,2917.92,-138.946,39.0905,112.419,2503.99,-12149.2,-906.633,-28.6796,-92.4192,58.7859,7572.97,-971.149,2127.79,63.3222,-20.9611,16.1727
3.456,24020.4,235.203,11830.8,79.0575,244.079,373.431,4117.08,1175.5,9731.11,-20.1764,-6.29462,21.8765,-5910.45,28232.9,-149.15,152.538,275.213,367.526,-271.169,-11537.1,-1534.95,8.613,-14.1154,87.1522,-7120.56,2517.75,2795.31,-136.579,44.1703,110.741,2492.69,-12075.8,-815.054,-28.7143,-93.3703,58.9283,7555.15,-1009.15,2090.01,63.234,-22.4043,16.0176
3.457,24483.6,273.23,11646.9,70.514,242.184,377.728,4133.01,1192.33,9776.59,-19.3053,-7.62929,22.088,-6303.58,28600.4,391.754,146.741,269.575,365.503,-309.148,-11571.1,-1582.54,8.12399,-13.6723,87.9072,-6693.84,2573.16,2672.7,-134.212,49.2502,109.063,2481.39,-12002.4,-723.475,-28.749,-94.3213,59.0707,7537.32,-1047.16,2052.23,63.1458,-23.8475,15.8625
3.458,24938.5,198.841,11460.1,62.7466,240.321,381.878,4139.55,1195.06,9810.29,-18.4186,-8.93293,22.1902,-6659.31,28934.7,857.657,141.174,263.643,363.468,-341.29,-11595.3,-1604.9,7.69208,-13.2483,88.6113,-6281.45,2632.74,2569.63,-131.965,54.6814,107.376,2466.73,-11942.4,-647.631,-28.3714,-95.3484,59.2475,7521.63,-1083.67,2004.63,63.0522,-25.17,15.7229
3.459,25364.0,-269.007,11263.3,57.6955,238.567,385.509,4113.21,1148.44,9802.72,-17.4774,-10.128,21.9094,-6884.12,29152.7,1061.06,136.415,256.681,361.39,-352.996,-11584.5,-1538.95,7.46001,-12.891,89.1372,-5919.25,2706.88,2534.93,-130.137,61.3423,105.655,2440.32,-11929.4,-626.858,-26.5507,-96.6416,59.5445,7513.38,-1114.95,1922.66,62.9398,-26.07,15.6376
3.46,25789.5,-736.854,11066.4,52.6443,236.814,389.14,4086.86,1101.83,9795.15,-16.5363,-11.323,21.6286,-7108.94,29370.6,1264.46,131.656,249.718,359.312,-364.702,-11573.8,-1473.0,7.22793,-12.5336,89.663,-5557.05,2781.02,2500.23,-128.308,68.0033,103.934,2413.91,-11916.3,-606.084,-24.7301,-97.9349,59.8415,7505.13,-1146.22,1840.69,62.8274,-26.97,15.5522
3.461,26215.0,-1204.7,10869.6,47.5932,235.061,392.772,4060.52,1055.21,9787.58,-15.5952,-12.5181,21.3477,-7333.76,29588.6,1467.86,126.897,242.755,357.235,-376.409,-11563.1,-1407.05,6.99585,-12.1762,90.1888,-5194.84,2855.16,2465.53,-126.48,74.6642,102.214,2387.5,-11903.3,-585.311,-22.9094,-99.2281,60.1385,7496.88,-1177.5,1758.72,62.7151,-27.87,15.4669
3.462,26640.5,-1672.55,10672.7,42.542,233.308,396.403,4034.18,1008.59,9780.01,-14.6541,-13.7131,21.0669,-7558.58,29806.5,1671.26,122.137,235.792,355.157,-388.115,-11552.4,-1341.1,6.76377,-11.8188,90.7146,-4832.64,2929.31,2430.83,-124.652,81.3251,100.493,2361.09,-11890.2,-564.538,-21.0888,-100.521,60.4355,7488.63,-1208.78,1676.75,62.6027,-28.77,15.3816
3.463,26976.6,-2203.23,10435.3,39.9448,231.208,398.793,4043.17,983.61,9815.92,-14.0745,-15.0125,20.9061,-7732.18,29909.0,1689.67,117.868,228.73,353.252,-390.572,-11602.2,-1298.79,6.71327,-11.5452,91.2913,-4546.72,3068.01,2492.96,-123.275,87.8918,99.3346,2323.2,-11880.8,-609.046,-18.3327,-101.653,60.8538,7476.02,-1264.57,1609.16,62.6583,-29.3616,15.2899
3.464,27287.3,-2751.86,10186.2,38.0485,229.009,400.829,4062.25,964.81,9864.26,-13.5983,-16.3416,20.7796,-7891.15,29978.4,1655.22,113.74,221.638,351.396,-390.387,-11669.3,-1263.23,6.71465,-11.2955,91.8825,-4282.59,3225.16,2582.75,-122.027,94.4315,98.3373,2282.03,-11872.3,-672.206,-15.3093,-102.738,61.3066,7462.15,-1327.36,1545.67,62.7619,-29.8652,15.1963
3.465,27597.9,-3300.49,9937.17,36.1523,226.811,402.864,4081.33,946.01,9912.6,-13.1221,-17.6708,20.6531,-8050.11,30047.9,1620.77,109.611,214.547,349.541,-390.201,-11736.3,-1227.67,6.71603,-11.0459,92.4737,-4018.46,3382.31,2672.55,-120.778,100.971,97.34,2240.86,-11863.9,-735.365,-12.286,-103.824,61.7595,7448.29,-1390.15,1482.19,62.8655,-30.3688,15.1028
3.466,27908.5,-3849.12,9688.12,34.2561,224.612,404.9,4100.42,927.209,9960.93,-12.6458,-18.9999,20.5266,-8209.08,30117.3,1586.33,105.482,207.455,347.685,-390.016,-11803.4,-1192.1,6.71742,-10.7962,93.065,-3754.34,3539.46,2762.34,-119.53,107.511,96.3427,2199.7,-11855.5,-798.525,-9.2626,-104.909,62.2124,7434.42,-1452.94,1418.7,62.9691,-30.8723,15.0093
3.467,28187.2,-4346.84,9418.26,32.9483,222.455,406.388,4106.74,886.566,10003.9,-12.0159,-20.426,20.4916,-8382.79,30130.0,1476.53,101.584,200.77,345.918,-407.78,-11862.6,-1169.72,6.7208,-10.6534,93.5838,-3467.26,3716.71,2915.2,-118.639,113.448,95.602,2159.19,-11837.3,-892.038,-6.11958,-105.9,62.6489,7437.08,-1500.84,1365.02,63.0445,-31.2426,14.8678
3.468,28402.0,-4742.76,9106.8,32.8173,220.381,406.781,4087.54,802.237,10036.2,-11.0783,-22.0461,20.6396,-8585.96,30029.1,1216.03,98.1465,194.896,344.329,-461.442,-11906.2,-1173.71,6.72819,-10.7244,93.9577,-3134.29,3934.14,3194.17,-118.462,118.181,95.3747,2120.01,-11799.6,-1046.26,-2.73722,-106.702,63.0528,7472.79,-1518.98,1330.97,63.0636,-31.3464,14.6305
3.469,28616.8,-5138.67,8795.33,32.6862,218.307,407.174,4068.34,717.908,10068.5,-10.1408,-23.6662,20.7876,-8789.14,29928.2,955.532,94.7094,189.021,342.74,-515.104,-11949.8,-1177.69,6.73558,-10.7954,94.3317,-2801.32,4151.58,3473.15,-118.284,122.914,95.1474,2080.82,-11761.9,-1200.48,0.645143,-107.504,63.4566,7508.51,-1537.11,1296.91,63.0828,-31.4502,14.3931
3.47,28831.6,-5534.59,8483.87,32.5552,216.233,407.566,4049.15,633.579,10100.8,-9.20331,-25.2863,20.9356,-8992.32,29827.3,695.032,91.2723,183.147,341.15,-568.766,-11993.4,-1181.68,6.74297,-10.8663,94.7056,-2468.35,4369.01,3752.13,-118.107,127.647,94.9201,2041.64,-11724.3,-1354.7,4.0275,-108.306,63.8605,7544.22,-1555.24,1262.86,63.1019,-31.554,14.1558
3.471,29046.3,-5930.51,8172.41,32.4241,214.159,407.959,4029.95,549.25,10133.1,-8.2658,-26.9063,21.0836,-9195.5,29726.4,434.531,87.8352,177.273,339.561,-622.428,-12037.1,-1185.66,6.75036,-10.9373,95.0796,-2135.39,4586.45,4031.1,-117.93,132.38,94.6928,2002.45,-11686.6,-1508.92,7.40986,-109.108,64.2644,7579.93,-1573.37,1228.8,63.121,-31.6578,13.9185
3.472,29158.0,-6191.65,7947.83,34.3053,212.2,406.822,4047.51,513.404,10128.2,-6.35005,-28.3855,20.7879,-9350.33,29485.7,-24.8076,86.074,173.15,337.91,-693.819,-12054.9,-1199.12,6.48287,-11.7796,95.4869,-1747.22,4855.08,4397.95,-117.765,134.014,94.3662,1984.26,-11606.9,-1705.19,10.4104,-109.239,64.6571,7620.68,-1591.02,1191.14,63.1175,-31.7073,13.7403
3.473,29256.7,-6435.96,7734.1,36.4379,210.255,405.493,4069.66,483.618,10118.7,-4.31202,-29.8471,20.4367,-9499.12,29227.6,-509.002,84.5222,169.246,336.252,-767.425,-12069.6,-1213.76,6.18102,-12.7183,95.8984,-1352.16,5130.1,4775.78,-117.602,135.262,94.0272,1968.7,-11521.8,-1906.72,13.3631,-109.285,65.0485,7662.06,-1608.61,1153.03,63.111,-31.75,13.5695
3.474,29355.4,-6680.26,7520.38,38.5706,208.311,404.164,4091.82,453.833,10109.1,-2.27399,-31.3086,20.0855,-9647.91,28969.5,-993.196,82.9705,165.342,334.594,-841.032,-12084.3,-1228.4,5.87917,-13.657,96.3099,-957.102,5405.13,5153.61,-117.439,136.509,93.6882,1953.13,-11436.8,-2108.25,16.3159,-109.332,65.4399,7703.43,-1626.2,1114.92,63.1046,-31.7927,13.3987
3.475,29454.1,-6924.56,7306.66,40.7033,206.367,402.835,4113.97,424.048,10099.6,-0.235956,-32.7702,19.7343,-9796.7,28711.4,-1477.39,81.4188,161.438,332.935,-914.638,-12098.9,-1243.04,5.57731,-14.5956,96.7214,-562.041,5680.16,5531.44,-117.277,137.756,93.3492,1937.57,-11351.8,-2309.78,19.2686,-109.378,65.8313,7744.81,-1643.79,1076.81,63.0982,-31.8354,13.2279
3.476,29493.5,-7133.37,7081.74,43.1893,204.43,400.747,4169.99,481.441,10071.1,1.45,-34.0459,19.3056,-9909.29,28470.3,-1975.08,80.657,158.23,331.049,-980.19,-12089.6,-1453.4,4.71,-16.9347,97.0123,-170.981,5934.56,5847.58,-116.813,137.271,92.7119,1926.61,-11259.4,-2510.05,21.8138,-108.781,66.3054,7790.78,-1651.65,1033.47,63.0418,-31.8453,13.0522
3.477,29458.6,-7297.8,6842.82,46.1168,202.502,397.709,4268.33,647.806,10018.9,2.69588,-35.0892,18.7799,-9976.61,28250.7,-2489.65,80.8826,155.89,328.879,-1035.67,-12050.4,-1908.4,3.13588,-21.0242,97.1526,215.078,6163.19,6086.6,-115.974,134.621,91.7015,1921.41,-11157.8,-2708.73,23.8496,-107.379,66.8829,7842.47,-1647.34,983.603,62.9228,-31.8143,12.8701
3.478,29423.7,-7462.24,6603.9,49.0444,200.575,394.672,4366.68,814.172,9966.66,3.94175,-36.1325,18.2542,-10043.9,28031.1,-3004.22,81.1081,153.55,326.709,-1091.16,-12011.1,-2363.4,1.56175,-25.1137,97.2929,601.136,6391.82,6325.62,-115.134,131.971,90.6912,1916.2,-11056.3,-2907.4,25.8853,-105.977,67.4605,7894.17,-1643.04,933.734,62.8037,-31.7832,12.6881
3.479,29388.8,-7626.67,6364.97,51.972,198.647,391.635,4465.02,980.538,9914.46,5.18762,-37.1758,17.7286,-10111.3,27811.4,-3518.79,81.3337,151.21,324.539,-1146.64,-11971.8,-2818.4,-0.0123715,-29.2032,97.4332,987.194,6620.45,6564.63,-114.295,129.321,89.6809,1911.0,-10954.7,-3106.08,27.9211,-104.576,68.038,7945.87,-1638.73,883.865,62.6847,-31.7522,12.506
3.48,29353.9,-7791.11,6126.05,54.8996,196.72,388.597,4563.36,1146.9,9862.25,6.43349,-38.2191,17.2029,-10178.6,27591.8,-4033.36,81.5593,148.87,322.369,-1202.12,-11932.5,-3273.4,-1.5865,-33.2927,97.5734,1373.25,6849.08,6803.65,-113.456,126.671,88.6706,1905.79,-10853.1,-3304.76,29.9569,-103.174,68.6156,7997.56,-1634.43,833.996,62.5657,-31.7211,12.324
3.481,29328.7,-7814.93,5892.18,58.2619,194.805,383.875,4435.91,2604.14,9966.66,5.80465,-39.4583,19.7572,-10300.5,27504.2,-4414.3,81.6142,147.225,319.959,-1632.2,-11758.0,-3751.19,-0.999427,-34.8336,97.8178,1555.02,7195.3,6796.8,-111.629,122.089,86.5565,1946.51,-10734.3,-3517.8,30.888,-99.8928,69.1707,8068.59,-1616.43,798.081,62.4021,-31.4133,12.0639
3.482,29303.4,-7838.76,5658.3,61.6243,192.891,379.153,4308.45,4061.37,10071.1,5.1758,-40.6974,22.3114,-10422.4,27416.7,-4795.25,81.6691,145.58,317.549,-2062.27,-11583.5,-4228.98,-0.412357,-36.3746,98.0622,1736.79,7541.53,6789.95,-109.802,117.507,84.4424,1987.23,-10615.5,-3730.85,31.8191,-96.6119,69.7257,8139.61,-1598.42,762.166,62.2385,-31.1056,11.8038
3.483,29278.2,-7862.58,5424.43,64.9866,190.977,374.431,4181.0,5518.6,10175.5,4.54695,-41.9366,24.8657,-10544.4,27329.2,-5176.2,81.724,143.935,315.14,-2492.35,-11409.0,-4706.78,0.174713,-37.9155,98.3065,1918.56,7887.75,6783.1,-107.975,112.924,82.3283,2027.95,-10496.7,-3943.89,32.7502,-93.331,70.2808,8210.64,-1580.42,726.251,62.0749,-30.7979,11.5438
3.484,29252.9,-7886.41,5190.56,68.349,189.063,369.709,4053.54,6975.83,10279.9,3.9181,-43.1758,27.4199,-10666.3,27241.7,-5557.14,81.7789,142.29,312.73,-2922.43,-11234.4,-5184.57,0.761783,-39.4565,98.5509,2100.33,8233.98,6776.25,-106.148,108.342,80.2142,2068.67,-10377.9,-4156.93,33.6813,-90.0502,70.8359,8281.66,-1562.42,690.336,61.9113,-30.4901,11.2837
3.485,29205.6,-7764.89,4971.53,71.0599,187.038,364.37,3814.71,6889.74,10393.4,5.51989,-45.272,30.811,-10839.3,27184.1,-5824.91,81.2476,140.569,310.548,-2853.26,-11317.6,-5108.57,1.89539,-38.4618,99.5012,2281.05,8490.97,6643.14,-102.967,103.826,78.4276,2098.69,-10267.7,-4339.09,33.5332,-86.5195,71.517,8386.95,-1546.44,667.49,61.4991,-30.0279,11.088
3.486,29140.7,-7527.1,4764.37,73.2497,184.926,358.536,3486.77,5568.99,10514.2,8.90619,-48.0539,34.8717,-11053.1,27150.4,-6002.13,80.2475,138.789,308.548,-2384.7,-11606.9,-4589.52,3.46624,-35.4386,101.016,2460.94,8676.59,6409.03,-98.7021,99.362,76.903,2120.15,-10164.3,-4496.53,32.5219,-82.7889,72.2989,8519.64,-1532.07,655.099,60.888,-29.4421,10.9439
3.487,29075.8,-7289.31,4557.22,75.4395,182.813,352.703,3158.84,4248.25,10635.0,12.2925,-50.8359,38.9323,-11266.8,27116.8,-6179.36,79.2474,137.008,306.548,-1916.14,-11896.1,-4070.48,5.03708,-32.4153,102.531,2640.82,8862.2,6174.92,-94.4373,94.8981,75.3783,2141.62,-10060.9,-4653.97,31.5106,-79.0583,73.0808,8652.33,-1517.7,642.708,60.277,-28.8562,10.7997
3.488,29010.8,-7051.53,4350.06,77.6293,180.7,346.87,2830.9,2927.5,10755.8,15.6788,-53.6178,42.9929,-11480.6,27083.2,-6356.58,78.2473,135.227,304.548,-1447.58,-12185.4,-3551.44,6.60793,-29.3921,104.046,2820.71,9047.82,5940.8,-90.1724,90.4342,73.8537,2163.09,-9957.47,-4811.41,30.4993,-75.3278,73.8627,8785.03,-1503.34,630.316,59.6659,-28.2704,10.6556
3.489,28948.8,-6782.32,4156.96,79.6904,178.547,340.955,2578.73,1618.74,10850.1,18.5617,-56.2618,46.1133,-11708.7,27040.0,-6521.79,77.2502,133.354,302.596,-1002.08,-12474.6,-3051.23,8.10372,-26.5867,105.434,2997.87,9207.58,5676.77,-85.4765,86.0491,72.2953,2187.88,-9857.22,-4953.32,29.2454,-71.7082,74.5984,8913.03,-1486.46,609.521,59.0113,-27.6363,10.5188
3.49,28909.7,-6261.74,4076.26,80.7227,176.07,334.393,2932.64,405.886,10732.5,17.4174,-57.8026,41.7119,-12050.8,26920.8,-6590.93,76.2781,130.742,301.025,-741.012,-12763.3,-2701.71,8.9991,-25.5241,105.798,3153.24,9160.54,5173.36,-77.3323,82.2947,70.4666,2239.27,-9782.19,-4971.04,26.0518,-68.9766,74.9646,9003.48,-1449.54,521.489,58.0082,-26.6151,10.4416
3.491,28870.6,-5741.16,3995.56,81.7549,173.592,327.83,3286.55,-806.973,10614.9,16.2731,-59.3434,37.3106,-12392.9,26801.7,-6660.07,75.306,128.13,299.455,-479.943,-13051.9,-2352.19,9.89447,-24.4614,106.163,3308.62,9113.5,4669.95,-69.1882,78.5402,68.6378,2290.66,-9707.17,-4988.75,22.8582,-66.245,75.3308,9093.92,-1412.61,433.457,57.0052,-25.594,10.3644
3.492,28831.6,-5220.58,3914.87,82.7872,171.115,321.267,3640.47,-2019.83,10497.4,15.1289,-60.8842,32.9092,-12735.0,26682.5,-6729.21,74.3339,125.517,297.884,-218.875,-13340.6,-2002.67,10.7899,-23.3988,106.528,3463.99,9066.45,4166.53,-61.044,74.7858,66.8091,2342.05,-9632.14,-5006.46,19.6645,-63.5134,75.697,9184.37,-1375.69,345.426,56.0021,-24.5728,10.2872
3.493,28792.5,-4700.01,3834.17,83.8194,168.638,314.704,3994.38,-3232.69,10379.8,13.9846,-62.4251,28.5078,-13077.1,26563.4,-6798.35,73.3618,122.905,296.314,42.194,-13629.2,-1653.15,11.6852,-22.3361,106.893,3619.36,9019.41,3663.12,-52.8999,71.0314,64.9804,2393.44,-9557.12,-5024.17,16.4709,-60.7819,76.0632,9274.82,-1338.76,257.394,54.999,-23.5517,10.2099
3.494,28756.7,-4138.22,3713.34,82.6209,166.319,307.603,4278.69,-2922.05,10350.8,12.5368,-63.8752,25.9279,-13486.6,26348.8,-6822.84,72.7987,119.223,294.804,-46.745,-13635.4,-1430.55,12.1419,-22.8632,107.201,3733.36,8963.95,3114.81,-44.234,68.1952,62.398,2477.23,-9521.15,-4922.04,12.6556,-58.5841,76.1153,9383.37,-1295.76,202.262,54.1197,-22.4256,10.2672
3.495,28722.6,-3555.83,3572.44,80.3071,164.079,300.233,4528.21,-1849.66,10366.2,10.9373,-65.2801,24.2587,-13929.8,26086.5,-6825.01,72.4401,115.007,293.326,-310.688,-13500.3,-1271.42,12.3792,-24.1852,107.48,3826.66,8904.28,2544.04,-35.3072,65.8182,59.4389,2577.22,-9504.72,-4759.98,8.52938,-56.6532,76.0102,9500.96,-1249.71,163.58,53.3022,-21.2471,10.3918
3.496,28688.5,-2973.44,3431.54,77.9932,161.84,292.862,4777.72,-777.265,10381.6,9.33785,-66.6849,22.5896,-14373.0,25824.3,-6827.18,72.0816,110.79,291.847,-574.63,-13365.2,-1112.28,12.6165,-25.5071,107.76,3919.96,8844.62,1973.27,-26.3804,63.4411,56.4797,2677.21,-9488.28,-4597.93,4.40319,-54.7222,75.9052,9618.55,-1203.66,124.898,52.4847,-20.0686,10.5163
3.497,28654.3,-2391.05,3290.65,75.6794,159.6,285.492,5027.23,295.127,10397.0,7.73836,-68.0898,20.9204,-14816.2,25562.0,-6829.34,71.723,106.574,290.368,-838.573,-13230.1,-953.152,12.8539,-26.8291,108.039,4013.27,8784.95,1402.5,-17.4537,61.0641,53.5205,2777.19,-9471.85,-4435.87,0.277013,-52.7913,75.8002,9736.14,-1157.62,86.2154,51.6672,-18.89,10.6408
3.498,28626.8,-1838.69,3102.15,72.547,157.689,277.882,5157.64,1218.63,10429.2,6.60208,-69.6874,20.0766,-15266.0,25296.5,-6813.57,71.2872,101.81,288.795,-1057.35,-13097.3,-814.322,13.0618,-28.2879,108.433,4097.52,8795.15,862.123,-9.45219,58.9533,50.5358,2877.68,-9457.23,-4259.45,-3.62563,-50.8547,75.6606,9859.5,-1117.24,65.3117,50.8361,-17.7185,10.731
3.499,28622.5,-1391.44,2747.07,66.5498,156.928,269.431,4871.17,1621.02,10520.6,7.08704,-71.9595,22.1213,-15738.9,25019.4,-6734.99,70.5812,95.1316,286.89,-1118.07,-12972.6,-746.55,13.1669,-30.2255,109.227,4150.09,9049.89,428.125,-4.68913,57.7746,47.4615,2979.9,-9448.98,-4032.73,-6.74589,-48.8978,75.3998,10003.0,-1096.71,106.633,49.9573,-16.5714,10.7011
3.5,28618.3,-944.185,2391.99,60.5526,156.167,260.98,4584.69,2023.41,10611.9,7.572,-74.2316,24.1659,-16211.8,24742.3,-6656.4,69.8752,88.4532,284.985,-1178.78,-12847.8,-678.779,13.2721,-32.1631,110.021,4202.65,9304.63,-5.87398,0.0739274,56.5959,44.3872,3082.13,-9440.73,-3806.02,-9.86615,-46.941,75.1391,10146.6,-1076.18,147.954,49.0786,-15.4242,10.6713
3.501,28614.0,-496.93,2036.92,54.5555,155.406,252.53,4298.22,2425.8,10703.2,8.05697,-76.5036,26.2106,-16684.6,24465.3,-6577.82,69.1692,81.7748,283.08,-1239.5,-12723.0,-611.008,13.3772,-34.1008,110.815,4255.22,9559.36,-439.872,4.83699,55.4172,41.313,3184.35,-9432.47,-3579.3,-12.9864,-44.9842,74.8784,10290.1,-1055.65,189.275,48.1999,-14.2771,10.6414
3.502,28609.7,-49.6754,1681.84,48.5583,154.645,244.079,4011.75,2828.19,10794.6,8.54193,-78.7757,28.2553,-17157.5,24188.2,-6499.24,68.4632,75.0964,281.175,-1300.21,-12598.3,-543.237,13.4823,-36.0384,111.609,4307.79,9814.1,-873.871,9.60004,54.2385,38.2387,3286.57,-9424.22,-3352.58,-16.1067,-43.0274,74.6177,10433.6,-1035.12,230.596,47.3212,-13.13,10.6115
3.503,28781.1,102.244,1197.27,41.0566,155.15,234.761,3792.78,2524.8,10849.5,8.7557,-81.0324,28.4434,-17635.9,23929.8,-6382.35,67.2511,67.1623,278.094,-1216.78,-12654.4,-492.847,13.6126,-37.0922,112.313,4414.78,10266.8,-1204.96,11.1898,53.5329,35.9507,3350.98,-9475.67,-3077.75,-18.2703,-41.212,74.7711,10537.7,-965.856,321.399,46.0422,-12.254,10.7056
3.504,29002.7,169.782,675.718,33.125,156.017,225.194,3593.09,2019.76,10893.9,8.89197,-83.2847,28.101,-18116.0,23676.8,-6254.53,65.8946,58.8695,274.676,-1092.16,-12762.3,-447.423,13.7501,-37.8936,112.99,4537.31,10776.1,-1506.65,11.8728,52.9625,33.8874,3404.57,-9544.17,-2789.17,-20.1606,-39.4371,75.0429,10630.6,-882.67,426.341,44.6489,-11.4554,10.8351
3.505,29224.4,237.321,154.162,25.1934,156.884,215.628,3393.41,1514.72,10938.4,9.02825,-85.5369,27.7587,-18596.0,23423.8,-6126.7,64.538,50.5766,271.259,-967.543,-12870.2,-401.999,13.8876,-38.6949,113.667,4659.84,11285.4,-1808.34,12.5559,52.3922,31.824,3458.17,-9612.68,-2500.6,-22.0509,-37.6621,75.3146,10723.4,-799.485,531.282,43.2555,-10.6569,10.9646
3.506,29446.0,304.859,-367.395,17.2618,157.751,206.061,3193.72,1009.68,10982.9,9.16453,-87.7892,27.4163,-19076.0,23170.7,-5998.87,63.1814,42.2838,267.842,-842.926,-12978.0,-356.575,14.0251,-39.4962,114.344,4782.37,11794.6,-2110.04,13.239,51.8218,29.7607,3511.76,-9681.18,-2212.02,-23.9412,-35.8872,75.5864,10816.2,-716.3,636.223,41.8622,-9.85835,11.0941
3.507,29704.1,268.257,-820.21,9.88105,158.928,196.253,3081.09,603.076,11049.8,9.30356,-90.0273,26.8538,-19527.5,22927.2,-5873.76,61.9696,34.1182,264.14,-726.47,-13057.9,-311.52,14.1824,-40.0337,115.024,4934.22,12272.1,-2375.3,13.178,51.1762,28.3247,3541.14,-9771.96,-1905.96,-25.4423,-34.4938,75.8677,10912.5,-641.297,728.801,40.391,-9.10849,11.1767
3.508,30035.1,23.375,-1135.54,3.60187,160.725,185.964,3142.56,393.337,11161.5,9.4481,-92.2371,25.8509,-19921.9,22702.6,-5754.09,61.0474,26.2073,259.871,-626.339,-13081.7,-267.202,14.3791,-40.0438,115.71,5144.7,12686.0,-2567.71,11.6291,50.3804,28.1432,3522.08,-9907.28,-1564.93,-26.1649,-33.8635,76.168,11015.7,-582.659,796.654,38.7641,-8.45598,11.1655
3.509,30366.2,-221.507,-1450.88,-2.67732,162.521,175.674,3204.03,183.598,11273.3,9.59263,-94.4468,24.848,-20316.3,22478.1,-5634.41,60.1251,18.2963,255.601,-526.208,-13105.5,-222.885,14.5759,-40.0538,116.396,5355.18,13100.0,-2760.13,10.0801,49.5845,27.9617,3503.03,-10042.6,-1223.91,-26.8874,-33.2331,76.4683,11118.9,-524.022,864.506,37.1372,-7.80348,11.1544
3.51,30697.2,-466.389,-1766.21,-8.95651,164.318,165.384,3265.51,-26.1408,11385.0,9.73716,-96.6565,23.845,-20710.8,22253.5,-5514.74,59.2029,10.3853,251.332,-426.077,-13129.4,-178.567,14.7726,-40.0638,117.081,5565.66,13513.9,-2952.54,8.5311,48.7887,27.7802,3483.97,-10177.9,-882.88,-27.61,-32.6028,76.7686,11222.2,-465.384,932.359,35.5103,-7.15097,11.1432
3.511,31028.3,-711.27,-2081.55,-15.2357,166.114,155.094,3326.98,-235.88,11496.7,9.8817,-98.8663,22.8421,-21105.2,22028.9,-5395.07,58.2807,2.47433,247.063,-325.946,-13153.2,-134.249,14.9693,-40.0738,117.767,5776.15,13927.8,-3144.96,6.98213,47.9928,27.5987,3464.91,-10313.3,-541.854,-28.3326,-31.9725,77.0689,11325.4,-406.747,1000.21,33.8834,-6.49847,11.132
3.512,31321.9,-964.638,-2419.47,-19.1896,168.588,144.993,3351.55,-316.261,11486.8,10.2609,-101.36,22.1671,-21373.1,21835.4,-5353.57,57.9496,-3.78003,242.864,-210.863,-13086.0,-33.6767,15.2315,-39.413,118.676,5973.41,14217.8,-3336.29,5.51387,47.147,28.7328,3432.14,-10459.7,-238.104,-28.3677,-33.052,77.1648,11393.2,-281.828,1040.07,32.1389,-5.98651,11.2643
3.513,31610.8,-1219.07,-2760.21,-22.8528,171.146,134.915,3371.5,-380.473,11461.7,10.6695,-103.889,21.5332,-21625.2,21645.8,-5321.84,57.6923,-9.8273,238.675,-93.9103,-13007.5,73.9274,15.5019,-38.6684,119.614,6169.01,14492.3,-3527.49,4.05571,46.2949,30.0315,3397.65,-10607.5,60.9856,-28.3169,-34.3452,77.2351,11456.6,-148.625,1076.43,30.3797,-5.49213,11.4146
3.514,31899.8,-1473.5,-3100.95,-26.5161,173.705,124.837,3391.46,-444.684,11436.5,11.078,-106.419,20.8992,-21877.4,21456.2,-5290.1,57.4351,-15.8746,234.486,23.042,-12928.9,181.532,15.7723,-37.9237,120.551,6364.62,14766.9,-3718.69,2.59755,45.4428,31.3301,3363.15,-10755.3,360.076,-28.2661,-35.6384,77.3054,11520.0,-15.422,1112.79,28.6206,-4.99775,11.5648
3.515,32188.7,-1727.92,-3441.69,-30.1793,176.263,114.759,3411.41,-508.896,11411.4,11.4865,-108.948,20.2652,-22129.5,21266.5,-5258.37,57.1779,-21.9218,230.296,139.994,-12850.3,289.136,16.0428,-37.1791,121.488,6560.23,15041.4,-3909.88,1.13939,44.5907,32.6287,3328.66,-10903.0,659.166,-28.2153,-36.9317,77.3757,11583.5,117.781,1149.15,26.8614,-4.50337,11.7151
3.516,32400.8,-1920.22,-3763.03,-33.248,178.948,104.907,3451.48,-549.038,11403.0,11.6948,-111.47,19.2182,-22370.9,21078.0,-5211.82,56.6466,-27.4205,226.107,231.883,-12836.2,408.006,16.3587,-36.1375,122.527,6770.23,15253.7,-3987.87,-0.621009,43.5556,33.9192,3306.63,-11076.3,894.196,-27.7757,-38.9905,77.3493,11626.1,226.149,1170.75,25.208,-4.17549,11.8248
3.517,32517.0,-2034.86,-4060.11,-35.5734,181.792,95.3353,3516.68,-559.094,11415.5,11.6527,-113.982,17.6548,-22598.9,20890.9,-5146.74,55.7727,-32.2332,221.918,292.444,-12902.7,540.959,16.7317,-34.7246,123.694,6998.21,15388.1,-3924.33,-2.7592,42.2917,35.1995,3300.16,-11281.2,1049.15,-26.8503,-42.0062,77.2019,11642.7,303.471,1173.88,23.6868,-4.05575,11.8838
3.518,32633.1,-2149.5,-4357.19,-37.8989,184.635,85.7641,3581.88,-569.15,11428.1,11.6106,-116.494,16.0914,-22827.0,20703.9,-5081.66,54.8989,-37.046,217.729,353.004,-12969.3,673.912,17.1046,-33.3118,124.86,7226.19,15522.6,-3860.79,-4.89739,41.0278,36.4798,3293.7,-11486.2,1204.11,-25.9249,-45.022,77.0546,11659.3,380.794,1177.02,22.1655,-3.93601,11.9428
3.519,32749.3,-2264.14,-4654.27,-40.2244,187.478,76.1929,3647.09,-579.206,11440.6,11.5684,-119.007,14.5281,-23055.0,20516.8,-5016.59,54.025,-41.8588,213.54,413.564,-13035.8,806.865,17.4776,-31.899,126.027,7454.18,15657.1,-3797.25,-7.03558,39.7639,37.7601,3287.24,-11691.1,1359.06,-24.9995,-48.0378,76.9072,11675.9,458.117,1180.15,20.6443,-3.81627,12.0018
3.52,32865.4,-2378.78,-4951.35,-42.5498,190.322,66.6217,3712.29,-589.262,11453.2,11.5263,-121.519,12.9647,-23283.1,20329.7,-4951.51,53.1511,-46.6716,209.351,474.125,-13102.3,939.819,17.8506,-30.4861,127.194,7682.16,15791.5,-3733.72,-9.17377,38.5,39.0404,3280.77,-11896.1,1514.02,-24.0741,-51.0535,76.7599,11692.5,535.439,1183.29,19.1231,-3.69653,12.0608
3.521,32994.4,-2015.29,-5351.28,-43.6502,193.287,58.5576,3727.69,-665.364,11534.8,12.1914,-124.392,12.2567,-23537.1,20141.0,-4693.5,51.0561,-51.4892,204.572,486.684,-13229.7,1096.43,18.327,-28.6019,128.419,7923.45,15885.0,-3363.45,-11.2738,35.9742,39.7083,3364.15,-12074.7,1321.59,-22.047,-53.9515,76.1536,11739.1,645.372,1180.27,18.0807,-3.66401,12.0164
3.522,33123.5,-1651.8,-5751.21,-44.7505,196.253,50.4935,3743.09,-741.466,11616.5,12.8564,-127.264,11.5488,-23791.1,19952.3,-4435.49,48.9611,-56.3068,199.793,499.243,-13357.2,1253.04,18.8035,-26.7177,129.645,8164.74,15978.4,-2993.19,-13.3739,33.4483,40.3763,3447.52,-12253.3,1129.17,-20.0199,-56.8495,75.5473,11785.6,755.304,1177.26,17.0383,-3.63149,11.972
3.523,33252.5,-1288.32,-6151.14,-45.8508,199.218,42.4294,3758.49,-817.568,11698.2,13.5215,-130.137,10.8408,-24045.0,19763.6,-4177.48,46.8661,-61.1244,195.014,511.801,-13484.7,1409.65,19.2799,-24.8335,130.871,8406.03,16071.9,-2622.93,-15.4739,30.9224,41.0443,3530.89,-12431.9,936.738,-17.9929,-59.7474,74.941,11832.2,865.237,1174.24,15.9958,-3.59897,11.9276
3.524,33381.5,-924.829,-6551.07,-46.9511,202.183,34.3653,3773.88,-893.67,11779.8,14.1866,-133.009,10.1329,-24299.0,19574.9,-3919.48,44.7712,-65.9421,190.235,524.36,-13612.1,1566.25,19.7564,-22.9493,132.096,8647.32,16165.4,-2252.67,-17.574,28.3966,41.7123,3614.27,-12610.5,744.311,-15.9658,-62.6454,74.3347,11878.8,975.17,1171.22,14.9534,-3.56644,11.8833
3.525,33533.7,-387.329,-6920.2,-49.2775,204.866,27.1929,3767.45,-1127.23,11811.7,14.5941,-135.899,8.74791,-24546.3,19432.0,-3590.7,42.1774,-70.8101,184.914,545.971,-13735.5,1740.34,20.1643,-21.365,133.293,8844.13,16131.1,-1924.66,-18.6473,25.6488,42.1047,3686.47,-12757.2,492.06,-13.5866,-64.3819,73.5875,11918.7,1067.01,1169.15,14.074,-3.60564,11.9501
3.526,33704.3,289.381,-7264.7,-52.5849,207.321,20.7337,3743.56,-1486.76,11803.9,14.7957,-138.803,6.82129,-24788.2,19325.5,-3205.32,39.1847,-75.7183,179.159,574.822,-13855.6,1928.42,20.5175,-20.0206,134.465,9005.35,15994.7,-1630.45,-18.8991,22.7234,42.2766,3749.73,-12878.6,191.951,-10.9258,-65.1892,72.7275,11953.3,1144.39,1167.83,13.325,-3.70222,12.106
3.527,33875.0,966.092,-7609.2,-55.8922,209.777,14.2746,3719.67,-1846.28,11796.1,14.9972,-141.707,4.89466,-25030.1,19219.1,-2819.94,36.192,-80.6266,173.403,603.674,-13975.7,2116.49,20.8707,-18.6762,135.638,9166.57,15858.2,-1336.24,-19.1509,19.7981,42.4486,3812.99,-13000.0,-108.158,-8.26495,-65.9964,71.8675,11987.9,1221.76,1166.52,12.576,-3.79879,12.2618
3.528,34045.7,1642.8,-7953.7,-59.1995,212.232,7.81543,3695.78,-2205.81,11788.3,15.1987,-144.611,2.96804,-25272.0,19112.7,-2434.56,33.1993,-85.5349,167.648,632.525,-14095.9,2304.57,21.2239,-17.3319,136.81,9327.79,15721.8,-1042.03,-19.4027,16.8727,42.6206,3876.26,-13121.3,-408.267,-5.60411,-66.8037,71.0075,12022.5,1299.13,1165.2,11.827,-3.89537,12.4177
3.529,34217.8,2306.66,-8312.01,-62.5908,214.587,1.41155,3675.63,-2522.78,11784.8,15.3654,-147.53,0.979501,-25497.7,19009.1,-2043.15,30.1329,-90.4749,161.826,659.128,-14212.6,2482.95,21.5835,-16.0476,137.972,9481.55,15586.2,-792.092,-19.3323,14.1698,42.7868,3948.96,-13232.6,-714.896,-3.0065,-67.307,70.1848,12054.9,1366.47,1161.5,11.0755,-3.98795,12.5399
3.53,34401.5,2867.74,-8780.86,-66.6543,216.136,-4.55013,3685.42,-2499.28,11815.8,15.253,-150.566,-1.50434,-25594.0,18927.5,-1603.54,26.4773,-95.6687,155.465,667.735,-14301.8,2583.78,21.9951,-15.244,139.053,9575.69,15457.5,-896.329,-16.6839,13.2467,42.9064,4097.17,-13263.0,-1073.68,-0.914667,-65.378,69.6603,12069.8,1353.55,1138.69,10.3036,-4.04865,12.3932
3.531,34585.2,3428.82,-9249.7,-70.7177,217.685,-10.5118,3695.21,-2475.77,11846.9,15.1406,-153.602,-3.98819,-25690.2,18845.9,-1163.94,22.8216,-100.862,149.104,676.343,-14391.0,2684.62,22.4066,-14.4404,140.134,9669.83,15328.8,-1000.57,-14.0355,12.3235,43.0261,4245.38,-13293.5,-1432.47,1.17716,-63.4489,69.1358,12084.7,1340.63,1115.89,9.53177,-4.10934,12.2466
3.532,34768.9,3989.9,-9718.55,-74.7812,219.234,-16.4735,3705.0,-2452.27,11877.9,15.0282,-156.638,-6.47203,-25786.5,18764.4,-724.328,19.166,-106.056,142.743,684.951,-14480.3,2785.45,22.8181,-13.6369,141.215,9763.97,15200.1,-1104.8,-11.3871,11.4003,43.1457,4393.58,-13324.0,-1791.26,3.26899,-61.5199,68.6114,12099.6,1327.7,1093.08,8.7599,-4.17003,12.0999
3.533,34952.6,4550.98,-10187.4,-78.8446,220.783,-22.4352,3714.79,-2428.77,11909.0,14.9158,-159.675,-8.95588,-25882.7,18682.8,-284.72,15.5104,-111.25,136.383,693.559,-14569.5,2886.29,23.2296,-12.8333,142.296,9858.11,15071.3,-1209.04,-8.73878,10.4771,43.2654,4541.79,-13354.4,-2150.05,5.36082,-59.5909,68.0869,12114.5,1314.78,1070.28,7.98803,-4.23072,11.9532
3.534,35039.9,4923.18,-10661.6,-81.8487,221.169,-27.7719,3690.57,-2304.92,11975.8,15.1717,-163.059,-10.731,-25811.0,18541.5,141.204,11.8872,-116.411,129.881,693.011,-14651.3,2887.22,23.6506,-11.8903,143.267,9877.33,14942.6,-1421.14,-4.71668,10.1938,43.8175,4636.97,-13290.8,-2442.32,6.44872,-56.3239,67.9005,12142.1,1312.59,1030.67,7.08544,-4.24553,11.9113
3.535,35079.0,5200.92,-11138.6,-84.3231,220.973,-32.7962,3649.35,-2130.9,12060.4,15.6117,-166.618,-12.1517,-25655.3,18370.4,560.286,8.28026,-121.555,123.309,687.885,-14729.2,2838.21,24.0764,-10.8775,144.183,9859.11,14814.0,-1687.16,-0.00771715,10.2305,44.5857,4705.63,-13180.1,-2701.33,7.03465,-52.388,67.8832,12176.2,1315.78,982.655,6.1175,-4.23741,11.9218
3.536,35118.2,5478.67,-11615.5,-86.7976,220.777,-37.8205,3608.13,-1956.88,12145.1,16.0518,-170.176,-13.5724,-25499.6,18199.3,979.368,4.67331,-126.7,116.738,682.759,-14807.2,2789.2,24.5022,-9.86467,145.099,9840.88,14685.3,-1953.19,4.70125,10.2671,45.354,4774.29,-13069.3,-2960.35,7.62059,-48.4522,67.8659,12210.2,1318.97,934.642,5.14955,-4.22928,11.9323
3.537,35157.3,5756.42,-12092.5,-89.272,220.581,-42.8447,3566.92,-1782.86,12229.8,16.4918,-173.735,-14.9931,-25343.9,18028.2,1398.45,1.06635,-131.844,110.166,677.633,-14885.2,2740.19,24.928,-8.85186,146.014,9822.65,14556.6,-2219.21,9.41021,10.3038,46.1222,4842.95,-12958.6,-3219.36,8.20653,-44.5163,67.8485,12244.2,1322.16,886.629,4.18161,-4.22116,11.9428
3.538,35140.5,5936.99,-12540.0,-91.2244,219.861,-47.7793,3537.72,-1626.54,12296.4,16.8877,-177.311,-16.4311,-25154.7,17849.8,1779.27,-2.39946,-136.648,103.55,678.286,-14965.9,2672.18,25.3596,-7.76541,146.92,9761.7,14423.6,-2475.15,13.9727,10.2816,46.91,4911.55,-12844.4,-3433.19,8.46692,-40.4966,67.9107,12269.5,1319.56,839.726,3.21841,-4.20032,11.92
3.539,34928.1,5777.45,-12884.8,-91.3501,217.31,-52.3999,3550.58,-1532.2,12300.0,17.129,-180.946,-17.9298,-24848.6,17646.0,2026.15,-5.3713,-140.263,96.778,699.166,-15056.0,2537.66,25.8117,-6.42121,147.79,9551.2,14275.7,-2695.8,18.0224,10.0539,47.7661,4979.92,-12717.9,-3488.89,7.58791,-36.1837,68.2509,12264.0,1296.72,796.708,2.27183,-4.13495,11.7804
3.54,34715.8,5617.91,-13229.6,-91.4757,214.758,-57.0205,3563.45,-1437.86,12303.6,17.3702,-184.581,-19.4286,-24542.5,17442.2,2273.04,-8.34314,-143.877,90.0064,720.045,-15146.0,2403.14,26.2637,-5.07702,148.66,9340.71,14127.8,-2916.45,22.0722,9.82612,48.6222,5048.29,-12591.5,-3544.59,6.70891,-31.8709,68.5912,12258.5,1273.88,753.69,1.32524,-4.06959,11.6408
3.541,34503.4,5458.37,-13574.3,-91.6013,212.207,-61.6411,3576.31,-1343.52,12307.3,17.6114,-188.217,-20.9273,-24236.4,17238.4,2519.93,-11.315,-147.492,83.2349,740.925,-15236.1,2268.62,26.7158,-3.73282,149.53,9130.21,13979.8,-3137.1,26.122,9.59836,49.4782,5116.66,-12465.0,-3600.29,5.8299,-27.558,68.9315,12253.0,1251.05,710.672,0.378662,-4.00422,11.5012
3.542,34291.0,5298.83,-13919.1,-91.727,209.656,-66.2617,3589.18,-1249.18,12310.9,17.8527,-191.852,-22.426,-23930.4,17034.5,2766.81,-14.2868,-151.106,76.4634,761.804,-15326.2,2134.09,27.1679,-2.38862,150.4,8919.71,13831.9,-3357.75,30.1717,9.3706,50.3343,5185.03,-12338.5,-3655.99,4.95089,-23.2452,69.2718,12247.6,1228.21,667.654,-0.567921,-3.93885,11.3616
3.543,33909.2,4935.51,-14201.7,-89.419,205.113,-70.7159,3617.96,-1170.73,12354.0,18.0324,-195.57,-23.7161,-23602.3,16856.5,2841.14,-16.5361,-152.573,69.4294,766.172,-15395.0,1986.09,27.5507,-1.19624,151.332,8636.8,13705.7,-3480.64,33.7431,9.10818,50.2456,5236.77,-12249.7,-3662.35,3.85853,-19.6036,69.6977,12268.2,1190.14,598.843,-1.66405,-3.63747,11.3131
3.544,33479.0,4513.98,-14466.6,-86.4158,200.002,-75.1226,3651.3,-1096.82,12408.3,18.1947,-199.313,-24.9465,-23268.1,16685.8,2866.16,-18.5789,-153.427,62.3204,765.822,-15457.6,1834.23,27.9137,-0.0472259,152.28,8333.2,13585.7,-3575.59,37.1779,8.83585,49.887,5283.76,-12171.8,-3654.61,2.7052,-16.1538,70.1482,12296.2,1147.73,522.662,-2.8029,-3.26866,11.2907
3.545,33048.7,4092.45,-14731.4,-83.4125,194.89,-79.5293,3684.63,-1022.91,12462.7,18.3569,-203.055,-26.177,-22933.8,16515.1,2891.19,-20.6216,-154.281,55.2114,765.472,-15520.3,1682.37,28.2768,1.10178,153.229,8029.6,13465.7,-3670.54,40.6126,8.56352,49.5283,5330.75,-12093.9,-3646.86,1.55187,-12.704,70.5986,12324.3,1105.32,446.482,-3.94176,-2.89985,11.2683
3.546,32618.5,3670.91,-14996.2,-80.4093,189.778,-83.936,3717.97,-948.995,12517.1,18.5191,-206.798,-27.4075,-22599.5,16344.5,2916.21,-22.6644,-155.135,48.1024,765.121,-15583.0,1530.51,28.6398,2.25079,154.178,7725.99,13345.7,-3765.48,44.0473,8.29119,49.1697,5377.74,-12015.9,-3639.12,0.398538,-9.25414,71.049,12352.4,1062.91,370.302,-5.08061,-2.53103,11.2458
3.547,32159.5,3228.35,-15213.7,-76.1755,183.872,-88.4193,3746.69,-858.661,12548.5,18.7675,-210.564,-28.5082,-22266.3,16197.1,2890.01,-24.4355,-155.038,40.9593,750.326,-15633.9,1377.72,28.9805,3.26189,155.143,7454.91,13252.2,-3788.15,47.3616,7.86946,48.4364,5418.62,-11954.6,-3606.28,-0.49557,-6.28912,71.4723,12385.7,1023.21,292.693,-6.14037,-2.1732,11.1955
3.548,31643.0,2743.74,-15336.5,-69.4806,176.378,-93.0559,3766.2,-735.483,12533.8,19.1882,-214.375,-29.3493,-21935.1,16096.5,2761.35,-25.6631,-153.039,33.7479,706.638,-15661.3,1223.05,29.2766,3.99717,156.139,7248.85,13211.4,-3666.26,50.435,7.14891,46.9537,5447.27,-11926.7,-3523.26,-0.871235,-4.29367,71.8412,12429.6,988.956,212.226,-7.04194,-1.83733,11.0895
3.549,31126.5,2259.13,-15459.3,-62.7857,168.883,-97.6924,3785.71,-612.306,12519.2,19.6089,-218.187,-30.1904,-21603.9,15995.9,2632.69,-26.8907,-151.04,26.5365,662.951,-15688.7,1068.37,29.5727,4.73246,157.136,7042.79,13170.6,-3544.36,53.5085,6.42837,45.471,5475.93,-11898.7,-3440.23,-1.2469,-2.29822,72.2101,12473.6,954.698,131.76,-7.94351,-1.50147,10.9834
3.55,30609.9,1774.52,-15582.1,-56.0908,161.388,-102.329,3805.21,-489.129,12504.5,20.0296,-221.998,-31.0315,-21272.7,15895.2,2504.03,-28.1184,-149.041,19.325,619.264,-15716.1,913.702,29.8688,5.46774,158.132,6836.73,13129.8,-3422.47,56.5819,5.70782,43.9884,5504.59,-11870.7,-3357.21,-1.62257,-0.302767,72.5789,12517.5,920.441,51.2935,-8.84508,-1.1656,10.8774
3.551,30093.4,1289.91,-15704.8,-49.3959,153.894,-106.966,3824.72,-365.952,12489.9,20.4503,-225.81,-31.8727,-20941.5,15794.6,2375.37,-29.346,-147.043,12.1136,575.576,-15743.5,759.031,30.1649,6.20302,159.129,6630.67,13089.0,-3300.57,59.6554,4.98727,42.5057,5533.25,-11842.8,-3274.19,-1.99823,1.69268,72.9478,12561.4,886.183,-29.1729,-9.74665,-0.82973,10.7714
3.552,29588.2,882.056,-15752.9,-41.3056,145.196,-111.546,3806.32,-245.57,12480.7,21.1908,-229.649,-32.308,-20609.3,15774.8,2186.96,-30.0345,-143.218,5.09856,523.267,-15767.5,621.592,30.5884,6.51089,160.011,6585.53,13088.8,-3154.92,61.5185,3.04624,40.3838,5557.94,-11877.8,-3172.05,-1.45118,2.51364,73.1262,12585.5,858.872,-79.0961,-10.6835,-0.330729,10.6964
3.553,29084.5,483.795,-15791.5,-33.0409,136.349,-116.12,3783.18,-125.536,12472.2,21.9714,-233.492,-32.6927,-20276.9,15765.2,1991.08,-30.6556,-139.164,-1.89199,469.881,-15791.1,486.306,31.0278,6.76534,160.878,6560.51,13093.7,-3006.3,63.2303,0.952652,38.1821,5582.14,-11920.6,-3067.52,-0.788799,3.18779,73.2807,12607.2,832.428,-125.201,-11.6249,0.188664,10.6253
3.554,28580.8,85.5334,-15830.2,-24.7762,127.501,-120.694,3760.05,-5.50302,12463.7,22.7519,-237.335,-33.0773,-19944.6,15755.5,1795.2,-31.2767,-135.111,-8.88254,416.494,-15814.7,351.021,31.4673,7.01979,161.745,6535.49,13098.6,-2857.68,64.9421,-1.14094,35.9803,5606.34,-11963.5,-2963.0,-0.126413,3.86194,73.4352,12628.9,805.985,-171.307,-12.5662,0.708056,10.5543
3.555,28077.0,-312.728,-15868.9,-16.5115,118.653,-125.268,3736.91,114.53,12455.2,23.5325,-241.178,-33.462,-19612.3,15745.9,1599.32,-31.8978,-131.057,-15.8731,363.107,-15838.3,215.736,31.9067,7.27424,162.613,6510.47,13103.5,-2709.06,66.6539,-3.23453,33.7785,5630.54,-12006.4,-2858.47,0.535972,4.53609,73.5897,12650.5,779.542,-217.412,-13.5075,1.22745,10.4832
3.556,27579.4,-668.258,-15859.0,-8.10424,109.464,-129.778,3700.14,221.559,12450.1,24.3529,-245.087,-33.8302,-19284.1,15743.8,1406.34,-32.4054,-126.385,-22.6561,320.629,-15869.9,78.9954,32.3812,7.22084,163.477,6507.99,13085.3,-2553.83,67.8877,-6.23301,31.4995,5642.34,-12043.7,-2764.37,1.37028,4.84477,73.6037,12703.7,725.542,-269.44,-14.378,1.64866,10.3471
3.557,27089.5,-970.374,-15788.4,0.481218,99.8472,-134.209,3646.32,312.333,12449.1,25.2232,-249.079,-34.1778,-18960.9,15751.4,1216.97,-32.7712,-120.939,-29.1797,291.786,-15911.6,-59.565,32.8995,6.78263,164.338,6533.68,13038.4,-2390.34,68.5238,-10.3626,29.1237,5638.64,-12074.2,-2683.28,2.41948,4.69662,73.4422,12796.2,637.098,-328.87,-15.1601,1.94716,10.1296
3.558,26599.6,-1272.49,-15717.8,9.06668,90.2307,-138.64,3592.5,403.107,12448.1,26.0935,-253.07,-34.5254,-18637.7,15758.9,1027.61,-33.1369,-115.494,-35.7033,262.944,-15953.3,-198.125,33.4177,6.34443,165.198,6559.37,12991.4,-2226.85,69.1599,-14.4922,26.748,5634.94,-12104.8,-2602.2,3.46869,4.54846,73.2807,12888.7,548.653,-388.3,-15.9422,2.24566,9.91222
3.559,26109.6,-1574.61,-15647.2,17.6521,80.6143,-143.071,3538.69,493.881,12447.1,26.9638,-257.062,-34.8731,-18314.5,15766.4,838.242,-33.5027,-110.048,-42.2269,234.101,-15994.9,-336.686,33.936,5.90622,166.059,6585.05,12944.4,-2063.35,69.796,-18.6219,24.3723,5631.24,-12135.3,-2521.11,4.51789,4.40031,73.1192,12981.2,460.208,-447.73,-16.7242,2.54415,9.6948
3.56,25619.7,-1876.72,-15576.7,26.2376,70.9978,-147.502,3484.87,584.655,12446.1,27.8341,-261.054,-35.2207,-17991.4,15773.9,648.878,-33.8684,-104.602,-48.7505,205.258,-16036.6,-475.246,34.4542,5.46802,166.92,6610.74,12897.4,-1899.86,70.4321,-22.7515,21.9965,5627.54,-12165.8,-2440.03,5.5671,4.25216,72.9577,13073.7,371.763,-507.161,-17.5063,2.84265,9.47737
3.561,25260.9,-2090.15,-15358.0,33.4941,61.3263,-151.492,3510.6,717.653,12429.7,28.8148,-265.112,-35.1486,-17686.9,15737.6,518.803,-33.9808,-98.0057,-54.8382,183.749,-16046.3,-621.9,34.8831,4.60806,167.716,6575.82,12780.3,-1818.55,70.731,-27.5933,20.2264,5630.39,-12178.6,-2432.03,6.58326,3.96531,72.4337,13125.7,305.941,-545.697,-17.9977,3.35173,9.39141
3.562,24902.1,-2303.57,-15139.3,40.7505,51.6547,-155.481,3536.34,850.651,12413.2,29.7955,-269.171,-35.0765,-17382.4,15701.2,388.727,-34.0932,-91.4095,-60.9259,162.24,-16056.0,-768.554,35.312,3.74809,168.513,6540.89,12663.1,-1737.23,71.0299,-32.435,18.4563,5633.24,-12191.5,-2424.04,7.59943,3.67847,71.9097,13177.8,240.118,-584.234,-18.489,3.8608,9.30544
3.563,24543.3,-2517.0,-14920.7,48.007,41.9831,-159.471,3562.08,983.649,12396.7,30.7762,-273.23,-35.0044,-17077.9,15664.9,258.652,-34.2055,-84.8133,-67.0136,140.731,-16065.6,-915.208,35.741,2.88813,169.31,6505.96,12545.9,-1655.92,71.3288,-37.2768,16.6862,5636.09,-12204.3,-2416.05,8.61559,3.39162,71.3857,13229.8,174.296,-622.77,-18.9804,4.36988,9.21947
3.564,24184.5,-2730.42,-14702.0,55.2635,32.3116,-163.46,3587.81,1116.65,12380.2,31.7569,-277.288,-34.9322,-16773.4,15628.5,128.577,-34.3179,-78.217,-73.1013,119.222,-16075.3,-1061.86,36.1699,2.02816,170.106,6471.04,12428.7,-1574.6,71.6277,-42.1186,14.9161,5638.93,-12217.1,-2408.05,9.63176,3.10477,70.8617,13281.8,108.473,-661.307,-19.4717,4.87896,9.13351
3.565,23944.2,-2905.72,-14440.8,61.2612,23.1066,-166.902,3593.37,1241.67,12377.2,32.8614,-281.307,-34.6469,-16472.3,15588.9,9.3926,-34.1127,-71.1854,-78.9115,118.661,-16066.6,-1206.23,36.5599,1.01586,170.926,6414.17,12306.8,-1561.96,71.8258,-45.8619,13.7338,5636.19,-12225.4,-2391.01,10.2974,2.84501,70.2538,13333.4,19.5258,-685.255,-19.9061,5.2305,8.88873
3.566,23798.7,-3050.52,-14145.4,66.252,14.2748,-169.907,3582.79,1360.31,12384.9,34.065,-285.292,-34.191,-16173.7,15546.6,-101.079,-33.6534,-63.8056,-84.4995,134.857,-16043.4,-1348.76,36.9189,-0.118323,171.765,6339.73,12181.3,-1604.26,71.9433,-48.7262,13.0219,5628.97,-12230.0,-2366.72,10.6827,2.60692,69.5787,13384.5,-87.9213,-697.533,-20.295,5.45602,8.51691
3.567,23653.2,-3195.32,-13850.0,71.2427,5.44308,-172.911,3572.21,1478.96,12392.6,35.2686,-289.278,-33.7351,-15875.2,15504.4,-211.551,-33.1941,-56.4257,-90.0876,151.052,-16020.1,-1491.3,37.2778,-1.2525,172.604,6265.3,12055.7,-1646.56,72.0608,-51.5906,12.31,5621.75,-12234.7,-2342.44,11.068,2.36884,68.9036,13435.7,-195.368,-709.812,-20.6839,5.68153,8.1451
3.568,23507.7,-3340.12,-13554.6,76.2335,-3.38866,-175.916,3561.62,1597.6,12400.3,36.4723,-293.264,-33.2792,-15576.6,15462.1,-322.022,-32.7348,-49.0458,-95.6757,167.248,-15996.8,-1633.84,37.6368,-2.38669,173.443,6190.87,11930.1,-1688.86,72.1783,-54.455,11.5981,5614.53,-12239.3,-2318.15,11.4533,2.13075,68.2285,13486.9,-302.816,-722.09,-21.0728,5.90705,7.77328
3.569,23387.6,-3463.43,-13258.5,80.9147,-12.0393,-178.733,3554.88,1715.11,12397.5,37.6708,-297.207,-32.7895,-15280.8,15417.5,-430.547,-32.1894,-41.5868,-101.18,187.855,-15971.7,-1775.0,38.0049,-3.53378,174.286,6112.34,11809.0,-1737.65,72.3445,-56.8693,11.0161,5611.03,-12241.1,-2295.78,11.7879,1.89139,67.5138,13537.8,-412.185,-738.923,-21.4234,6.1941,7.41611
3.57,23470.7,-3414.73,-12956.0,83.1202,-19.2414,-180.053,3578.84,1823.54,12310.5,38.8283,-300.81,-32.0285,-15006.5,15353.5,-523.493,-30.9551,-33.4948,-106.013,243.748,-15931.6,-1905.23,38.4463,-4.78419,175.166,6000.98,11723.9,-1838.39,72.9004,-55.6839,11.4737,5637.36,-12220.0,-2288.76,11.7162,1.64186,66.482,13586.6,-536.931,-792.199,-21.4687,6.97352,7.17617
3.571,23553.8,-3366.03,-12653.5,85.3256,-26.4434,-181.373,3602.79,1931.96,12223.6,39.9858,-304.413,-31.2676,-14732.2,15289.5,-616.44,-29.7208,-25.4027,-110.846,299.641,-15891.5,-2035.46,38.8876,-6.03461,176.047,5889.61,11638.7,-1939.13,73.4562,-54.4985,11.9312,5663.68,-12198.9,-2281.74,11.6446,1.39232,65.4502,13635.4,-661.677,-845.476,-21.5139,7.75294,6.93623
3.572,23636.9,-3317.33,-12351.0,87.5311,-33.6454,-182.694,3626.75,2040.39,12136.6,41.1433,-308.016,-30.5067,-14458.0,15225.5,-709.386,-28.4865,-17.3107,-115.68,355.534,-15851.4,-2165.69,39.3289,-7.28502,176.927,5778.25,11553.6,-2039.88,74.0121,-53.3131,12.3888,5690.0,-12177.8,-2274.72,11.5729,1.14279,64.4184,13684.2,-786.423,-898.752,-21.5591,8.53236,6.69629
3.573,23719.9,-3268.63,-12048.5,89.7365,-40.8475,-184.014,3650.71,2148.81,12049.6,42.3009,-311.619,-29.7458,-14183.7,15161.5,-802.333,-27.2521,-9.21869,-120.513,411.427,-15811.4,-2295.92,39.7703,-8.53543,177.807,5666.88,11468.4,-2140.62,74.5679,-52.1277,12.8463,5716.32,-12156.7,-2267.7,11.5013,0.893254,63.3866,13733.1,-911.169,-952.028,-21.6043,9.31178,6.45635
3.574,23923.6,-3007.25,-11877.8,87.2605,-46.8803,-184.517,3680.59,2218.83,12017.3,43.6558,-315.258,-28.7106,-13846.0,15142.0,-925.182,-25.2639,-0.571904,-124.927,457.692,-15787.1,-2402.96,40.1732,-9.73002,178.783,5521.33,11363.9,-2207.91,74.7681,-48.3629,14.0623,5739.68,-12118.0,-2232.38,11.3124,0.370015,62.3485,13771.8,-1010.03,-997.819,-21.0933,10.2206,5.99982
3.575,24187.5,-2639.51,-11772.9,82.4436,-52.3284,-184.611,3713.43,2269.63,12012.3,45.1095,-318.915,-27.5382,-13476.6,15144.7,-1062.98,-22.8987,8.35226,-129.131,499.143,-15770.6,-2498.4,40.5568,-10.8967,179.807,5358.7,11249.7,-2258.47,74.7904,-43.3083,15.6575,5761.55,-12070.4,-2182.93,11.0651,-0.290076,61.3073,13805.4,-1095.96,-1039.87,-20.3043,11.1941,5.435
3.576,24451.5,-2271.78,-11668.0,77.6267,-57.7766,-184.706,3746.27,2320.44,12007.4,46.5631,-322.573,-26.3658,-13107.3,15147.3,-1200.78,-20.5336,17.2764,-133.336,540.594,-15754.2,-2593.85,40.9405,-12.0634,180.83,5196.06,11135.4,-2309.04,74.8127,-38.2538,17.2527,5783.42,-12022.9,-2133.47,10.8177,-0.950168,60.2661,13839.1,-1181.88,-1081.92,-19.5153,12.1677,4.87018
3.577,24715.4,-1904.06,-11563.1,72.8099,-63.2248,-184.8,3779.11,2371.25,12002.4,48.0168,-326.231,-25.1934,-12737.9,15150.0,-1338.58,-18.1684,26.2006,-137.54,582.045,-15737.8,-2689.29,41.3242,-13.23,181.854,5033.42,11021.2,-2359.6,74.835,-33.1992,18.8479,5805.29,-11975.3,-2084.02,10.5703,-1.61026,59.2248,13872.7,-1267.8,-1123.96,-18.7262,13.1412,4.30536
3.578,24987.1,-1409.32,-11697.8,65.5953,-69.5922,-185.104,3798.52,2419.4,11994.3,49.518,-329.851,-23.9792,-12291.8,15153.6,-1636.22,-15.1046,36.3528,-141.373,626.232,-15724.8,-2776.69,41.7286,-14.4315,182.915,4847.24,10901.9,-2360.02,74.2333,-27.7816,20.5442,5850.98,-11934.2,-2031.95,10.3504,-2.32766,58.1651,13906.7,-1353.16,-1117.6,-17.9617,14.1509,3.78074
3.579,25285.9,-470.06,-12671.5,49.9887,-79.1771,-186.14,3770.87,2458.25,11975.3,51.1859,-333.342,-22.619,-11577.3,15160.4,-2493.28,-9.59581,50.8032,-143.906,679.993,-15723.6,-2835.91,42.2058,-15.7545,184.109,4578.65,10764.7,-2184.96,71.4475,-21.0931,22.5945,5980.01,-11915.3,-1970.71,10.2266,-3.24567,57.0406,13941.7,-1436.53,-941.804,-17.2831,15.2872,3.39683
3.58,25584.8,469.198,-13645.1,34.3821,-88.762,-187.177,3743.23,2497.09,11956.3,52.8537,-336.832,-21.2588,-10862.8,15167.2,-3350.34,-4.08701,65.2537,-146.44,733.754,-15722.5,-2895.14,42.6829,-17.0776,185.302,4310.07,10627.6,-2009.91,68.6617,-14.4046,24.6448,6109.04,-11896.5,-1909.48,10.1028,-4.16368,55.9161,13976.7,-1519.9,-766.005,-16.6045,16.4236,3.01292
3.581,25883.6,1408.46,-14618.7,18.7755,-98.3468,-188.213,3715.59,2535.94,11937.3,54.5216,-340.322,-19.8986,-10148.3,15174.0,-4207.4,1.42179,79.7041,-148.973,787.515,-15721.3,-2954.36,43.1601,-18.4007,186.495,4041.48,10490.4,-1834.85,65.8759,-7.71615,26.6951,6238.07,-11877.6,-1848.25,9.979,-5.08168,54.7916,14011.7,-1603.27,-590.206,-15.926,17.5599,2.629
3.582,26182.4,2347.72,-15592.4,3.16889,-107.932,-189.249,3687.95,2574.79,11918.2,56.1894,-343.813,-18.5384,-9433.82,15180.8,-5064.46,6.93059,94.1546,-151.506,841.276,-15720.2,-3013.58,43.6372,-19.7238,187.689,3772.89,10353.3,-1659.79,63.0901,-1.02769,28.7454,6367.1,-11858.7,-1787.02,9.85519,-5.99969,53.6671,14046.8,-1686.64,-414.407,-15.2474,18.6963,2.24509
3.583,24876.3,3132.55,-15629.6,-7.00558,-141.815,-198.928,3697.06,2633.76,11962.3,57.7324,-347.526,-16.9935,-8169.45,14961.3,-7426.2,15.5367,110.274,-153.098,912.599,-15747.6,-3021.2,44.1192,-21.0553,188.987,3414.19,10262.4,-1362.76,56.8257,4.35686,29.8473,6478.01,-11816.7,-1698.31,9.91504,-7.23668,52.5092,14219.1,-1806.6,9.80574,-15.3813,21.4183,1.9641
3.584,23111.5,3873.27,-15399.2,-15.628,-182.641,-211.076,3716.67,2698.48,12024.5,59.2397,-351.302,-15.3958,-6747.97,14677.2,-10217.9,25.0277,126.869,-154.42,988.94,-15783.2,-3014.07,44.6025,-22.3893,190.315,3029.74,10184.8,-1030.89,49.5674,9.36885,30.6782,6583.74,-11768.0,-1601.75,10.0274,-8.56481,51.3417,14430.7,-1937.01,504.994,-15.7473,24.5935,1.7125
3.585,21346.8,4613.99,-15168.9,-24.2504,-223.466,-223.224,3736.28,2763.21,12086.6,60.7469,-355.078,-13.7981,-5326.5,14393.0,-13009.5,34.5188,143.465,-155.743,1065.28,-15818.8,-3006.93,45.0858,-23.7233,191.643,2645.3,10107.2,-699.016,42.3091,14.3808,31.5091,6689.47,-11719.4,-1505.19,10.1397,-9.89294,50.1743,14642.3,-2067.42,1000.18,-16.1133,27.7686,1.46091
3.586,19582.1,5354.71,-14938.5,-32.8729,-264.292,-235.372,3755.89,2827.93,12148.8,62.2542,-358.854,-12.2004,-3905.03,14108.8,-15801.2,44.0098,160.061,-157.065,1141.62,-15854.4,-2999.8,45.5692,-25.0572,192.971,2260.85,10029.6,-367.142,35.0508,19.3928,32.34,6795.21,-11670.7,-1408.63,10.252,-11.2211,49.0068,14853.9,-2197.83,1495.37,-16.4794,30.9438,1.20931
3.587,15670.0,5083.5,-12544.0,-41.2161,-312.443,-256.385,3764.92,2880.07,12229.7,63.674,-362.587,-10.5672,-2378.17,13677.2,-17938.3,51.4587,167.179,-160.679,1247.63,-15915.7,-2953.24,46.1574,-26.2016,194.349,1849.64,9916.76,-183.79,27.6912,23.9029,32.2633,6921.3,-11628.3,-1359.35,10.3783,-12.9714,47.8164,15155.4,-2300.84,1688.1,-18.3182,34.5986,0.978421
3.588,7463.25,2788.44,-5821.1,-49.0009,-375.245,-295.128,3752.8,2907.05,12348.1,64.919,-366.233,-8.86307,-640.538,12950.6,-18766.3,54.8234,155.344,-168.875,1412.99,-16028.4,-2827.84,46.9555,-26.9667,195.825,1384.9,9733.64,-297.484,20.1289,27.4089,30.3714,7088.12,-11598.5,-1404.65,10.5324,-15.5663,46.58,15636.7,-2349.07,1275.92,-23.1025,39.2128,0.788931
3.589,-743.503,493.382,901.783,-56.7857,-438.046,-333.871,3740.68,2934.02,12466.6,66.164,-369.879,-7.1589,1097.09,12224.0,-19594.3,58.1881,143.51,-177.072,1578.34,-16141.1,-2702.43,47.7535,-27.7319,197.301,920.163,9550.51,-411.178,12.5666,30.915,28.4795,7254.95,-11568.7,-1449.94,10.6866,-18.1611,45.3435,16118.0,-2397.29,863.742,-27.8867,43.8271,0.59944
3.59,-8950.26,-1801.68,7624.67,-64.5705,-500.848,-372.613,3728.56,2961.0,12585.1,67.409,-373.525,-5.45473,2834.72,11497.5,-20422.3,61.5527,131.675,-185.268,1743.69,-16253.8,-2577.03,48.5516,-28.497,198.777,455.426,9367.39,-524.872,5.00437,34.4211,26.5876,7421.77,-11538.9,-1495.24,10.8408,-20.756,44.1071,16599.3,-2445.52,451.561,-32.671,48.4413,0.40995
3.591,-17157.0,-4096.73,14347.6,-72.3553,-563.649,-411.356,3716.44,2987.97,12703.6,68.6539,-377.171,-3.75056,4572.35,10770.9,-21250.3,64.9174,119.84,-193.464,1909.04,-16366.5,-2451.62,49.3496,-29.2622,200.253,-9.31046,9184.26,-638.566,-2.55789,37.9272,24.6957,7588.59,-11509.1,-1540.53,10.9949,-23.3508,42.8707,17080.5,-2493.75,39.3803,-37.4553,53.0555,0.22046
3.592,-21591.0,-9421.58,13202.5,-45.8062,-572.826,-459.858,3732.93,3007.74,12885.1,68.8424,-381.092,-2.09184,6429.84,10779.1,-19766.1,57.9284,87.7331,-202.434,2178.0,-16575.5,-2225.5,50.8207,-29.3624,201.922,-535.308,9008.91,-1423.48,-4.73386,44.1754,19.1129,7729.51,-11471.4,-1638.93,10.3301,-26.254,41.6262,17193.5,-2082.34,79.4551,-42.931,57.0391,1.65359
3.593,-25553.4,-15125.2,11074.0,-14.9654,-575.3,-509.58,3753.0,3026.6,13074.6,68.8988,-385.048,-0.438787,8302.32,10879.2,-17992.9,49.6453,53.0923,-211.501,2459.91,-16796.6,-1986.78,52.3759,-29.3796,203.615,-1068.96,8834.54,-2292.29,-6.23653,50.7664,13.0688,7867.19,-11432.6,-1743.97,9.56295,-29.1957,40.3807,17260.3,-1613.47,176.062,-48.4932,60.9439,3.28954
3.594,-29515.7,-20828.7,8945.51,15.8754,-577.775,-559.302,3773.07,3045.46,13264.0,68.9552,-389.003,1.21426,10174.8,10979.2,-16219.7,41.3621,18.4515,-220.568,2741.82,-17017.6,-1748.06,53.931,-29.3968,205.308,-1602.62,8660.16,-3161.1,-7.73921,57.3574,7.02475,8004.87,-11393.8,-1849.01,8.79577,-32.1374,39.1352,17327.2,-1144.61,272.669,-54.0554,64.8487,4.9255
3.595,-33478.1,-26532.3,6817.0,46.7162,-580.249,-609.024,3793.14,3064.32,13453.5,69.0116,-392.958,2.86731,12047.3,11079.3,-14446.5,33.079,-16.1893,-229.635,3023.73,-17238.7,-1509.35,55.4862,-29.414,207.002,-2136.27,8485.79,-4029.91,-9.24189,63.9484,0.980671,8142.55,-11355.1,-1954.05,8.02859,-35.0791,37.8897,17394.1,-675.744,369.275,-59.6175,68.7535,6.56145
3.596,-32125.1,-28844.4,4554.37,66.3259,-560.157,-617.459,3801.81,3047.09,13597.8,68.3399,-397.465,4.25588,13352.3,12263.3,-12674.0,22.0364,-35.9766,-235.833,3292.85,-17499.3,-1371.13,57.0636,-29.43,208.601,-2596.69,8642.11,-4755.8,-9.17291,72.3426,-5.60003,8308.12,-11356.9,-2084.71,6.78014,-37.2238,36.8347,17355.0,-148.8,977.932,-62.7842,70.2475,8.52523
3.597,-24128.0,-26917.2,2124.11,71.8967,-511.86,-574.284,3796.25,2984.76,13685.9,66.758,-402.66,5.31384,13948.1,14802.4,-10902.3,7.54456,-37.1971,-238.447,3545.97,-17809.5,-1358.53,58.6688,-29.4446,210.083,-2965.57,9211.78,-5303.05,-7.13936,82.9906,-12.8515,8508.55,-11409.3,-2247.4,4.9301,-38.3721,36.0177,17183.5,450.744,2226.65,-62.9565,68.728,10.8988
3.598,-16130.9,-24989.9,-306.155,77.4675,-463.562,-531.11,3790.68,2922.43,13774.0,65.1762,-407.856,6.3718,14543.8,17341.4,-9130.52,-6.94727,-38.4176,-241.061,3799.1,-18119.7,-1345.94,60.2739,-29.4591,211.566,-3334.45,9781.46,-5850.29,-5.1058,93.6386,-20.1029,8708.98,-11461.8,-2410.09,3.08006,-39.5205,35.2007,17012.0,1050.29,3475.37,-63.1288,67.2085,13.2724
3.599,-8133.78,-23062.7,-2736.42,83.0382,-415.265,-487.935,3785.12,2860.1,13862.1,63.5943,-413.051,7.42976,15139.5,19880.4,-7358.78,-21.4391,-39.6381,-243.675,4052.22,-18429.9,-1333.34,61.8791,-29.4737,213.048,-3703.33,10351.1,-6397.53,-3.07225,104.287,-27.3544,8909.42,-11514.2,-2572.78,1.23003,-40.6688,34.3837,16840.5,1649.83,4724.09,-63.3011,65.6889,15.6459
3.6,-136.652,-21135.5,-5166.68,88.609,-366.967,-444.761,3779.55,2797.77,13950.2,62.0124,-418.246,8.48773,15735.3,22419.4,-5587.05,-35.9309,-40.8587,-246.288,4305.35,-18740.1,-1320.75,63.4842,-29.4883,214.53,-4072.2,10920.8,-6944.77,-1.0387,114.935,-34.6059,9109.85,-11566.7,-2735.47,-0.620009,-41.8171,33.5667,16669.1,2249.38,5972.8,-63.4734,64.1694,18.0195
3.601,12437.6,-16471.5,2366.38,94.4391,-328.342,-370.858,3695.6,2817.58,13831.7,61.5027,-424.682,9.67522,12619.8,24649.4,-3737.12,-47.5977,-16.0298,-244.548,4335.81,-18930.5,-1495.77,64.0596,-29.4671,215.688,-3949.42,12213.7,-6260.8,-1.58473,120.877,-37.2434,9331.42,-11672.2,-2782.22,-2.4744,-41.0796,32.7763,16567.0,2416.22,6526.8,-64.2568,58.9944,19.931
3.602,25011.9,-11807.4,9899.44,100.269,-289.717,-296.955,3611.65,2837.39,13713.2,60.993,-431.117,10.8627,9504.4,26879.4,-1887.2,-59.2645,8.79911,-242.808,4366.28,-19120.9,-1670.8,64.635,-29.4459,216.846,-3826.64,13506.7,-5576.83,-2.13075,126.82,-39.8809,9552.98,-11777.6,-2828.96,-4.32879,-40.3421,31.9858,16465.0,2583.07,7080.8,-65.0403,53.8193,21.8425
3.603,37586.2,-7143.43,17432.5,106.099,-251.092,-223.053,3527.71,2857.2,13594.6,60.4833,-437.552,12.0502,6388.97,29109.4,-37.2681,-70.9313,33.628,-241.068,4396.74,-19311.3,-1845.82,65.2105,-29.4246,218.003,-3703.86,14799.6,-4892.85,-2.67678,132.762,-42.5184,9774.55,-11883.1,-2875.71,-6.18319,-39.6046,31.1954,16363.0,2749.91,7634.8,-65.8238,48.6443,23.754
3.604,50160.5,-2479.41,24965.6,111.929,-212.467,-149.15,3443.76,2877.01,13476.1,59.9737,-443.988,13.2377,3273.54,31339.5,1812.66,-82.5981,58.4569,-239.328,4427.2,-19501.7,-2020.84,65.7859,-29.4034,219.161,-3581.08,16092.5,-4208.88,-3.22281,138.705,-45.1558,9996.11,-11988.5,-2922.46,-8.03758,-38.867,30.4049,16260.9,2916.76,8188.8,-66.6073,43.4692,25.6655
3.605,58704.3,-155.426,29356.0,111.85,-188.269,-111.566,3350.25,2921.08,13382.3,62.0106,-450.423,14.8763,342.979,32276.4,2800.53,-87.2486,81.7261,-235.629,4371.59,-19609.1,-2146.02,65.8513,-29.9078,220.37,-3179.47,17332.9,-3140.52,-6.65474,137.739,-45.8788,10228.6,-12175.6,-2781.19,-9.28219,-38.0554,29.4975,16131.2,3077.52,8277.08,-68.6526,39.4385,27.7614
3.606,64023.8,296.537,31232.3,107.044,-175.613,-103.036,3249.09,2984.56,13308.3,66.0849,-456.858,16.8757,-2439.68,32178.8,3098.77,-86.2859,103.748,-230.362,4247.11,-19650.1,-2231.33,65.5087,-30.8326,221.619,-2554.8,18531.2,-1764.64,-12.3954,131.247,-45.0702,10469.7,-12428.0,-2489.49,-10.039,-37.1846,28.4965,15979.3,3233.41,7992.78,-71.7074,36.3232,30.005
3.607,69343.2,748.499,33108.7,102.237,-162.957,-94.5063,3147.93,3048.04,13234.3,70.1592,-463.293,18.8751,-5222.33,32081.3,3397.0,-85.3232,125.769,-225.095,4122.64,-19691.1,-2316.64,65.1661,-31.7575,222.869,-1930.13,19729.6,-388.77,-18.136,124.755,-44.2616,10710.9,-12680.3,-2197.8,-10.7958,-36.3137,27.4955,15827.5,3389.3,7708.48,-74.7621,33.2078,32.2485
3.608,74662.7,1200.46,34985.0,97.4306,-150.301,-85.9767,3046.78,3111.52,13160.3,74.2335,-469.727,20.8746,-8004.98,31983.7,3695.23,-84.3605,147.791,-219.829,3998.16,-19732.1,-2401.95,64.8235,-32.6823,224.118,-1305.46,20927.9,987.105,-23.8767,118.263,-43.453,10952.0,-12932.7,-1906.1,-11.5525,-35.4429,26.4945,15675.6,3545.19,7424.18,-77.8169,30.0925,34.492
3.609,78569.6,1508.06,36306.3,92.5625,-140.699,-79.3413,2962.39,3167.44,13127.3,78.2973,-476.238,22.9146,-10313.1,31768.7,4096.41,-82.7101,166.833,-214.385,3879.4,-19774.6,-2466.45,64.4595,-33.8049,225.379,-655.286,22074.1,2304.08,-29.8991,110.936,-42.7929,11188.2,-13189.0,-1601.45,-12.0429,-34.7315,25.4673,15516.0,3699.44,7140.1,-80.9971,27.2963,36.6507
3.61,71176.3,660.725,33186.8,87.2016,-155.534,-87.8601,3012.12,3162.9,13422.0,82.277,-483.355,25.2799,-8825.28,30613.4,5321.12,-75.5576,162.042,-207.525,3806.35,-19830.0,-2364.54,63.9238,-36.5094,226.726,198.936,22803.4,3149.86,-38.1756,96.935,-43.3216,11384.5,-13476.8,-1193.14,-10.4016,-35.2961,24.2311,15294.6,3840.61,6857.83,-85.1806,27.0526,38.1305
3.611,63783.1,-186.608,30067.3,81.8407,-170.369,-96.379,3061.86,3158.35,13716.7,86.2567,-490.473,27.6452,-7337.43,29458.1,6545.83,-68.405,157.251,-200.666,3733.3,-19885.4,-2262.62,63.3881,-39.2139,228.073,1053.16,23532.7,3995.64,-46.452,82.9337,-43.8503,11580.7,-13764.6,-784.823,-8.7604,-35.8607,22.9949,15073.2,3981.78,6575.55,-89.3642,26.8089,39.6102
3.612,56389.9,-1033.94,26947.9,76.4798,-185.205,-104.898,3111.59,3153.81,14011.4,90.2364,-497.59,30.0105,-5849.57,28302.8,7770.55,-61.2525,152.459,-193.806,3660.26,-19940.8,-2160.71,62.8524,-41.9184,229.421,1907.38,24262.0,4841.42,-54.7285,68.9323,-44.379,11777.0,-14052.4,-376.508,-7.11915,-36.4253,21.7587,14851.8,4122.95,6293.28,-93.5477,26.5652,41.0899
3.613,48996.6,-1881.27,23828.4,71.1189,-200.04,-113.417,3161.33,3149.26,14306.1,94.2161,-504.707,32.3758,-4361.72,27147.5,8995.26,-54.1,147.668,-186.947,3587.21,-19996.1,-2058.8,62.3167,-44.6229,230.768,2761.6,24991.3,5687.2,-63.0049,54.931,-44.9077,11973.2,-14340.1,31.8065,-5.4779,-36.9899,20.5225,14630.4,4264.12,6011.0,-97.7312,26.3215,42.5697
3.614,39170.9,-3096.92,19394.5,64.6579,-214.695,-109.999,3124.5,2980.97,14604.8,98.3745,-512.327,34.6016,-2881.44,26288.0,9620.21,-48.8259,133.822,-183.97,3700.82,-20095.2,-1893.7,62.0882,-48.2764,231.924,3525.5,25411.4,6106.65,-69.5669,42.5642,-46.585,12104.6,-14613.5,401.66,-2.23097,-38.7733,18.9396,14382.2,4431.43,5947.99,-100.396,27.0481,43.5863
3.615,28128.9,-4496.72,14303.3,57.647,-229.26,-100.614,3044.37,2730.8,14905.6,102.622,-520.197,36.7577,-1404.95,25576.5,9945.29,-44.4911,115.449,-182.935,3907.76,-20216.1,-1697.02,62.0134,-52.4045,232.984,4244.24,25676.9,6312.94,-75.2718,31.0147,-48.8366,12203.5,-14879.7,752.283,1.81879,-41.1661,17.1835,14120.5,4611.8,5994.61,-102.301,28.2599,44.3715
3.616,17087.0,-5896.53,9212.15,50.636,-243.825,-91.2284,2964.25,2480.64,15206.3,106.87,-528.067,38.9138,71.5384,24864.9,10270.4,-40.1562,97.0759,-181.9,4114.69,-20337.0,-1500.34,61.9385,-56.5326,234.045,4962.98,25942.4,6519.22,-80.9766,19.4652,-51.0883,12302.4,-15145.8,1102.91,5.86856,-43.559,15.4273,13858.8,4792.18,6041.23,-104.206,29.4716,45.1566
3.617,6045.02,-7296.34,4120.99,43.625,-258.389,-81.8429,2884.13,2230.47,15507.1,111.118,-535.937,41.0699,1548.03,24153.3,10595.4,-35.8214,78.7027,-180.865,4321.63,-20457.9,-1303.65,61.8637,-60.6606,235.105,5681.73,26207.9,6725.51,-86.6814,7.91567,-53.3399,12401.3,-15411.9,1453.53,9.91833,-45.9518,13.6712,13597.2,4972.56,6087.84,-106.111,30.6834,45.9418
3.618,-3294.0,-8401.9,-293.015,37.1,-270.442,-71.4681,2767.27,1984.96,15772.0,115.043,-544.075,43.1691,2377.58,23542.9,10516.5,-31.8183,62.0097,-180.954,4548.21,-20610.2,-1115.97,61.9228,-65.0969,236.031,6240.49,26368.0,6914.61,-91.2092,-2.0029,-55.104,12488.9,-15650.5,1756.33,14.1874,-48.4835,11.7862,13315.3,5154.46,6209.0,-106.786,31.2645,46.5828
3.619,-6672.75,-8477.62,-2337.0,32.2757,-273.7,-57.6304,2521.85,1755.74,15911.8,117.841,-553.149,45.0691,942.819,23286.3,9023.31,-28.9766,51.1977,-184.978,4843.54,-20872.3,-959.774,62.4508,-70.6119,236.484,6239.34,26159.0,7043.57,-91.6175,-6.21318,-55.1619,12536.6,-15792.3,1891.73,19.2242,-51.5009,9.45027,12962.5,5341.68,6591.02,-103.153,29.6381,46.7193
3.62,-10051.5,-8553.35,-4380.98,27.4514,-276.959,-43.7926,2276.43,1526.51,16051.5,120.639,-562.224,46.9691,-491.936,23029.8,7530.16,-26.1349,40.3856,-189.002,5138.87,-21134.3,-803.583,62.9788,-76.1269,236.938,6238.19,25950.1,7172.53,-92.0257,-10.4235,-55.2197,12584.4,-15934.2,2027.14,24.2611,-54.5184,7.11437,12609.7,5528.9,6973.04,-99.5201,28.0118,46.8559
3.621,-13430.2,-8629.07,-6424.96,22.6271,-280.218,-29.9549,2031.01,1297.29,16191.2,123.437,-571.298,48.8691,-1926.69,22773.2,6037.01,-23.2932,29.5735,-193.025,5434.2,-21396.3,-647.392,63.5069,-81.642,237.392,6237.04,25741.1,7301.49,-92.4339,-14.6337,-55.2776,12632.2,-16076.0,2162.54,29.2979,-57.5359,4.77847,12256.9,5716.13,7355.07,-95.8873,26.3854,46.9924
3.622,-16809.0,-8704.79,-8468.94,17.8028,-283.476,-16.1172,1785.59,1068.07,16331.0,126.235,-580.373,50.769,-3361.45,22516.7,4543.87,-20.4515,18.7614,-197.049,5729.53,-21658.4,-491.2,64.0349,-87.157,237.845,6235.89,25532.2,7430.46,-92.8422,-18.844,-55.3354,12680.0,-16217.8,2297.95,34.3347,-60.5533,2.44256,11904.1,5903.35,7737.09,-92.2544,24.7591,47.1289
3.623,-13376.8,-7690.11,-7470.06,17.2527,-284.473,-4.44427,1524.73,1003.92,16268.7,127.674,-590.117,52.6159,-5166.5,21886.0,3429.51,-19.4202,15.6241,-201.274,5970.81,-21992.5,-419.417,64.4467,-93.5214,237.855,5613.99,24557.8,7363.58,-88.5081,-17.191,-53.4345,12678.6,-16260.8,2213.01,38.1806,-62.8014,0.199616,11485.3,5845.84,7866.49,-88.0125,21.2732,46.736
3.624,-7998.69,-6363.88,-5601.8,17.9237,-284.823,6.61018,1259.45,986.919,16148.8,128.724,-600.053,54.4476,-7077.36,21148.3,2423.37,-18.9061,14.6797,-205.556,6196.65,-22347.3,-371.75,64.8254,-100.128,237.738,4814.73,23364.7,7240.75,-82.819,-13.8629,-50.9739,12663.2,-16275.4,2065.11,41.6863,-64.8297,-2.01677,11047.7,5718.41,7923.72,-83.5964,17.2561,46.1917
3.625,-2620.55,-5037.65,-3733.54,18.5948,-285.173,17.6646,994.181,969.923,16028.9,129.775,-609.988,56.2793,-8988.21,20410.7,1417.24,-18.3921,13.7352,-209.838,6422.49,-22702.1,-324.084,65.204,-106.736,237.622,4015.48,22171.6,7117.93,-77.1299,-10.5347,-48.5132,12647.9,-16290.1,1917.21,45.192,-66.8579,-4.23316,10610.0,5590.98,7980.94,-79.1804,13.239,45.6475
3.626,2757.59,-3711.42,-1865.28,19.2658,-285.523,28.7191,728.908,952.927,15908.9,130.825,-619.924,58.1111,-10899.1,19673.1,411.109,-17.878,12.7908,-214.12,6648.32,-23056.8,-276.417,65.5827,-113.343,237.505,3216.23,20978.5,6995.1,-71.4409,-7.20648,-46.0527,12632.5,-16304.8,1769.32,48.6977,-68.8861,-6.44955,10172.4,5463.55,8038.17,-74.7643,9.22189,45.1032
3.627,7900.47,-3054.47,371.269,24.2883,-284.601,36.032,521.242,1021.97,15747.8,131.418,-629.549,59.7741,-12096.8,18774.6,-157.183,-18.2744,12.165,-217.549,6903.44,-23381.7,-202.141,65.7775,-120.264,237.341,2315.36,19547.6,6659.36,-63.6925,-2.45839,-43.6633,12618.6,-16288.2,1497.94,51.5722,-69.8924,-8.55328,9781.81,5238.01,7966.02,-71.1137,5.68836,44.3304
3.628,12572.8,-3736.06,3344.39,38.0135,-281.135,35.8618,428.789,1263.11,15504.3,131.096,-638.552,61.0996,-11868.4,17554.2,150.21,-20.4918,12.1767,-219.273,7217.12,-23646.6,-74.646,65.6047,-127.813,237.083,1211.29,17641.2,5897.81,-51.8257,5.12952,-41.4165,12607.6,-16209.1,979.614,53.1843,-68.8547,-10.4317,9485.38,4816.27,7635.11,-68.9939,3.122,43.1005
3.629,17245.2,-4417.64,6317.5,51.7386,-277.668,35.6916,336.337,1504.24,15260.8,130.774,-647.556,62.4252,-11640.0,16333.8,457.602,-22.7092,12.1884,-220.997,7530.8,-23911.6,52.8487,65.4318,-135.362,236.824,107.218,15734.8,5136.25,-39.9588,12.7174,-39.1698,12596.7,-16130.1,461.286,54.7963,-67.817,-12.3101,9188.94,4394.54,7304.2,-66.8741,0.55564,41.8707
3.63,21917.5,-5099.23,9290.62,65.4638,-274.202,35.5215,243.884,1745.37,15017.3,130.452,-656.559,63.7508,-11411.6,15113.5,764.994,-24.9266,12.2001,-222.72,7844.48,-24176.6,180.343,65.259,-142.911,236.566,-996.855,13828.5,4374.7,-28.0919,20.3053,-36.923,12585.7,-16051.0,-57.0421,56.4084,-66.7792,-14.1885,8892.5,3972.8,6973.29,-64.7543,-2.01072,40.6408
3.631,26589.9,-5780.82,12263.7,79.189,-270.735,35.3513,151.432,1986.5,14773.8,130.13,-665.563,65.0763,-11183.2,13893.1,1072.39,-27.1439,12.2118,-224.444,8158.17,-24441.5,307.838,65.0862,-150.46,236.308,-2100.93,11922.1,3613.14,-16.225,27.8932,-34.6762,12574.8,-15972.0,-575.37,58.0204,-65.7415,-16.0669,8596.07,3551.06,6642.39,-62.6345,-4.57708,39.4109
3.632,26552.3,-8151.5,13917.0,100.276,-255.529,24.5169,125.909,2146.19,14933.8,130.035,-673.625,64.5279,-9544.42,12769.6,173.578,-29.0054,12.4196,-222.425,8575.43,-24564.8,691.278,65.4432,-158.698,236.24,-3114.93,10348.7,2556.96,-1.12264,35.4481,-32.6875,12498.4,-15802.2,-1079.25,58.3848,-60.7613,-17.243,8464.29,3159.63,6413.63,-61.6347,-5.06893,37.8973
3.633,25925.9,-10733.3,15405.3,122.284,-238.856,12.3495,108.751,2295.7,15144.1,129.97,-681.57,63.7452,-7729.38,11658.2,-876.006,-30.8224,12.652,-219.938,9005.65,-24670.4,1106.71,65.8664,-167.022,236.197,-4117.67,8817.0,1463.95,14.3842,42.9989,-30.7311,12413.9,-15621.1,-1581.32,58.5931,-55.2882,-18.3312,8353.1,2771.98,6197.64,-60.7749,-5.30148,36.3481
3.634,25299.6,-13315.1,16893.7,144.291,-222.183,0.182127,91.5944,2445.2,15354.5,129.904,-689.514,62.9626,-5914.33,10546.8,-1925.59,-32.6393,12.8844,-217.451,9435.86,-24776.0,1522.14,66.2897,-175.347,236.154,-5120.42,7285.25,370.937,29.891,50.5496,-28.7746,12329.4,-15440.0,-2083.39,58.8015,-49.8152,-19.4195,8241.9,2384.34,5981.65,-59.9152,-5.53402,34.799
3.635,24673.2,-15897.0,18382.0,166.299,-205.51,-11.9853,74.4372,2594.71,15564.9,129.838,-697.459,62.1799,-4099.28,9435.43,-2975.17,-34.4563,13.1168,-214.964,9866.08,-24881.6,1937.58,66.7129,-183.671,236.11,-6123.16,5753.51,-722.075,45.3979,58.1003,-26.8182,12244.9,-15258.9,-2585.47,59.0098,-44.3421,-20.5077,8130.71,1996.7,5765.66,-59.0554,-5.76656,33.2499
3.636,23429.2,-16754.2,18892.7,179.099,-186.332,-22.7916,7.04469,2691.52,15896.9,130.968,-706.757,61.1383,-2488.62,8386.32,-4614.13,-33.8134,14.8395,-210.461,10468.7,-24967.5,2331.16,67.3516,-192.197,235.617,-7016.62,4506.62,-1727.78,60.9153,64.2232,-25.2285,12163.5,-15100.7,-2900.84,58.339,-37.6605,-21.2506,8117.13,1651.19,5652.51,-57.7508,-5.52123,31.8706
3.637,21413.1,-15455.8,18181.4,180.388,-164.024,-31.8967,-123.142,2722.47,16380.9,133.592,-717.746,59.7729,-1133.43,7415.04,-6989.82,-30.0957,18.4251,-203.437,11286.9,-25028.7,2697.42,68.2595,-200.976,234.562,-7773.47,3615.77,-2624.35,76.4458,68.5612,-24.0974,12086.1,-14971.2,-2982.84,56.5693,-29.4683,-21.5616,8225.58,1358.36,5667.89,-55.8901,-4.67855,30.7035
3.638,19397.0,-14157.5,17470.2,181.678,-141.716,-41.0017,-253.329,2753.41,16865.0,136.216,-728.736,58.4076,221.754,6443.76,-9365.5,-26.378,22.0107,-196.413,12105.0,-25089.9,3063.68,69.1673,-209.755,233.506,-8530.33,2724.93,-3520.92,91.9764,72.8993,-22.9663,12008.6,-14841.7,-3064.84,54.7996,-21.276,-21.8726,8334.03,1065.52,5683.27,-54.0294,-3.83586,29.5365
3.639,17380.9,-12859.1,16758.9,182.968,-119.408,-50.1068,-383.516,2784.36,17349.0,138.84,-739.725,57.0422,1576.94,5472.47,-11741.2,-22.6604,25.5962,-189.39,12923.2,-25151.1,3429.94,70.0752,-218.534,232.451,-9287.18,1834.09,-4417.49,107.507,77.2373,-21.8351,11931.2,-14712.1,-3146.85,53.0298,-13.0837,-22.1836,8442.47,772.685,5698.66,-52.1687,-2.99318,28.3694
3.64,15364.8,-11560.7,16047.6,184.257,-97.1003,-59.2118,-513.703,2815.31,17833.1,141.464,-750.715,55.6769,2932.13,4501.19,-14116.9,-18.9427,29.1818,-182.366,13741.4,-25212.4,3796.21,70.9831,-227.313,231.396,-10044.0,943.242,-5314.06,123.038,81.5753,-20.704,11853.8,-14582.6,-3228.85,51.2601,-4.89144,-22.4946,8550.92,479.85,5714.04,-50.308,-2.1505,27.2023
3.641,15072.8,-6815.52,15600.1,174.846,-87.9771,-62.4214,-117.582,2804.91,17054.3,148.416,-766.992,58.5192,2796.23,4067.78,-14846.8,-10.6606,29.1513,-172.586,14443.4,-25075.2,3627.77,71.7652,-230.837,229.317,-10536.4,692.036,-5743.05,134.125,82.1344,-21.0596,11818.2,-14519.4,-2765.22,45.3565,0.193506,-24.0124,8744.2,217.079,5825.35,-48.3219,-1.13624,26.7531
3.642,14780.8,-2070.37,15152.5,165.434,-78.8539,-65.631,278.538,2794.52,16275.6,155.367,-783.27,61.3615,2660.34,3634.36,-15576.7,-2.37855,29.1207,-162.806,15145.4,-24938.1,3459.34,72.5473,-234.361,227.239,-11028.8,440.83,-6172.04,145.212,82.6935,-21.4153,11782.7,-14456.2,-2301.58,39.453,5.27846,-25.5301,8937.48,-45.6929,5936.65,-46.3358,-0.121979,26.3038
3.643,14488.8,2674.78,14704.9,156.023,-69.7307,-68.8406,674.658,2784.13,15496.8,162.319,-799.548,64.2038,2524.45,3200.95,-16306.6,5.90352,29.0901,-153.026,15847.5,-24800.9,3290.9,73.3295,-237.885,225.16,-11521.2,189.624,-6601.03,156.299,83.2526,-21.7709,11747.1,-14393.0,-1837.95,33.5495,10.3634,-27.0479,9130.76,-308.464,6047.96,-44.3497,0.892281,25.8545
3.644,14196.8,7419.93,14257.3,146.612,-60.6074,-72.0501,1070.78,2773.74,14718.0,169.271,-815.826,67.0462,2388.56,2767.53,-17036.5,14.1856,29.0596,-143.246,16549.5,-24663.7,3122.47,74.1116,-241.409,223.082,-12013.6,-61.5826,-7030.01,167.386,83.8117,-22.1265,11711.6,-14329.9,-1374.32,27.6459,15.4484,-28.5657,9324.04,-571.236,6159.26,-42.3636,1.90654,25.4053
3.645,14374.0,9339.16,13568.5,144.359,-52.9999,-76.8946,2135.1,2449.72,13309.5,179.531,-832.827,71.3283,1515.53,2572.1,-16262.9,17.365,27.15,-137.861,16892.6,-24273.5,2614.88,75.13,-237.724,221.738,-12353.1,45.6925,-7164.25,173.95,83.1336,-22.7505,11704.0,-14160.6,-1078.25,23.3495,19.0234,-30.0149,9475.02,-798.172,6253.44,-40.8227,2.78875,25.0778
3.646,14926.5,8997.64,12686.7,147.832,-46.6049,-83.047,3733.98,1874.81,11397.3,192.438,-850.406,76.7624,52.7977,2567.05,-14286.4,16.4624,23.7371,-135.993,16948.6,-23680.7,1835.96,76.3375,-228.272,220.981,-12570.4,439.753,-7062.68,176.897,81.4658,-23.5892,11718.8,-13906.4,-916.235,20.3388,21.3905,-31.4093,9592.16,-996.441,6333.92,-39.6381,3.56531,24.8478
3.647,15479.1,8656.12,11804.9,151.306,-40.2099,-89.1994,5332.87,1299.9,9484.99,205.345,-867.986,82.1964,-1409.94,2562.01,-12310.0,15.5597,20.3243,-134.124,17004.6,-23087.9,1057.04,77.5449,-218.82,220.225,-12787.7,833.813,-6961.11,179.843,79.798,-24.4279,11733.5,-13652.2,-754.216,17.328,23.7576,-32.8038,9709.31,-1194.71,6414.4,-38.4534,4.34188,24.6178
3.648,16031.7,8314.61,10923.1,154.779,-33.815,-95.3518,6931.75,724.992,7572.72,218.252,-885.565,87.6305,-2872.67,2556.96,-10333.6,14.657,16.9115,-132.255,17060.6,-22495.1,278.122,78.7523,-209.368,219.468,-13005.0,1227.87,-6859.54,182.79,78.1302,-25.2667,11748.3,-13398.1,-592.197,14.3173,26.1248,-34.1982,9826.45,-1392.98,6494.89,-37.2688,5.11844,24.3878
3.649,16495.2,7719.01,10089.1,157.415,-27.5628,-100.357,8680.36,143.226,5809.09,230.785,-901.43,91.9569,-4329.32,2651.63,-8274.83,13.0469,13.6232,-131.24,17032.6,-21884.8,-465.658,80.0966,-199.174,219.151,-13192.2,1646.1,-6714.06,184.9,76.4356,-26.1297,11729.6,-13158.7,-460.57,12.1143,28.3815,-35.4775,9935.48,-1590.05,6582.33,-36.1624,5.80621,24.1606
3.65,16246.7,5090.76,9637.5,153.352,-22.4535,-96.1803,11626.8,-493.389,5234.6,240.325,-903.585,87.4221,-5737.26,3544.0,-5557.71,5.77757,11.3314,-137.053,16332.6,-21134.4,-928.326,82.5353,-183.042,222.341,-13138.6,2257.65,-6217.21,180.318,74.5271,-27.1873,11443.0,-13037.9,-572.084,16.3732,29.7555,-35.8367,9979.56,-1777.53,6725.52,-35.6817,5.7836,23.9559
3.651,15998.3,2462.51,9185.92,149.289,-17.3442,-92.0041,14573.2,-1130.0,4660.1,249.865,-905.739,82.8873,-7145.21,4436.37,-2840.59,-1.49181,9.03961,-142.866,15632.6,-20384.1,-1390.99,84.9739,-166.911,225.532,-13085.0,2869.2,-5720.36,175.737,72.6185,-28.2449,11156.5,-12917.2,-683.598,20.6321,31.1295,-36.1958,10023.6,-1965.02,6868.7,-35.201,5.76099,23.7512
3.652,15749.8,-165.739,8734.34,145.226,-12.2349,-87.8279,17519.7,-1766.62,4085.61,259.405,-907.894,78.3525,-8553.15,5328.74,-123.467,-8.76119,6.74779,-148.678,14932.5,-19633.8,-1853.66,87.4126,-150.78,228.723,-13031.4,3480.75,-5223.51,171.155,70.7099,-29.3025,10869.9,-12796.4,-795.112,24.891,32.5035,-36.5549,10067.7,-2152.5,7011.88,-34.7204,5.73838,23.5465
3.653,15501.3,-2793.99,8282.76,141.163,-7.12559,-83.6517,20466.1,-2403.23,3511.11,268.945,-910.048,73.8177,-9961.09,6221.11,2593.65,-16.0306,4.45597,-154.491,14232.5,-18883.5,-2316.33,89.8512,-134.648,231.914,-12977.8,4092.3,-4726.66,166.574,68.8013,-30.3601,10583.3,-12675.6,-906.626,29.1499,33.8775,-36.914,10111.8,-2339.99,7155.06,-34.2397,5.71577,23.3418
3.654,15205.4,-4268.16,8067.76,136.157,-3.5281,-72.876,23376.9,-1355.97,4487.24,270.443,-899.972,64.3903,-10449.9,7358.22,4314.95,-19.9539,2.27408,-159.347,13603.0,-18365.3,-2360.6,93.2787,-120.59,235.976,-12783.6,4562.54,-4050.27,159.386,66.9338,-32.2884,10006.4,-12355.4,-463.954,33.7796,30.3196,-36.2966,10123.1,-2504.96,7241.98,-34.3677,5.75473,23.3255
3.655,14885.8,-5165.29,7971.06,130.68,-0.686528,-58.8006,26270.0,533.23,6238.68,267.92,-883.781,52.5165,-10479.2,8617.7,5538.33,-22.2043,0.147167,-163.724,13008.7,-17963.3,-2195.68,97.2006,-107.567,240.473,-12519.1,4962.13,-3284.1,150.896,65.0867,-34.652,9284.17,-11935.5,255.812,38.5946,24.2958,-35.1911,10118.1,-2658.67,7300.77,-34.7999,5.82447,23.4035
3.656,14566.3,-6062.42,7874.35,125.204,2.15505,-44.7252,29163.0,2422.43,7990.11,265.396,-867.591,40.6428,-10508.5,9877.17,6761.71,-24.4546,-1.97975,-168.101,12414.5,-17561.2,-2030.75,101.123,-94.5448,244.971,-12254.6,5361.71,-2517.94,142.405,63.2397,-37.0157,8561.98,-11515.6,975.578,43.4096,18.2719,-34.0855,10113.1,-2812.38,7359.56,-35.2322,5.89421,23.4815
3.657,14246.7,-6959.54,7777.64,119.727,4.99662,-30.6497,32056.0,4311.63,9741.55,262.873,-851.4,28.769,-10537.8,11136.7,7985.08,-26.7049,-4.10667,-172.478,11820.3,-17159.2,-1865.82,105.044,-81.5224,249.468,-11990.1,5761.3,-1751.77,133.915,61.3926,-39.3793,7839.79,-11095.7,1695.34,48.2246,12.2481,-32.98,10108.1,-2966.09,7418.35,-35.6645,5.96395,23.5594
3.658,13972.8,-7670.03,7696.52,114.542,7.24916,-18.4962,34367.3,6707.4,11455.2,258.794,-833.078,19.0194,-10332.5,12292.6,8872.95,-28.1078,-6.81495,-175.707,11204.4,-16888.7,-1787.82,108.065,-70.3902,253.384,-11707.2,6077.56,-1049.18,125.29,59.7151,-42.0644,7126.33,-10665.0,2446.15,52.5027,4.92249,-32.107,10101.2,-3094.04,7442.68,-36.148,6.27333,23.6876
3.659,13859.2,-7727.28,7669.96,110.376,7.44005,-13.0693,34642.3,10876.2,13036.9,249.268,-807.3,16.7041,-9306.24,13086.0,8586.53,-26.5445,-11.558,-174.916,10513.1,-17078.7,-2014.06,107.93,-65.8736,255.264,-11359.8,6102.18,-569.118,116.193,58.6311,-45.8747,6443.43,-10196.7,3305.62,54.9014,-6.95947,-32.048,10087.9,-3131.8,7346.4,-36.8113,7.42148,23.9915
3.66,13745.5,-7784.52,7643.4,106.21,7.63095,-7.64241,34917.4,15044.9,14618.5,239.742,-781.522,14.3888,-8279.99,13879.5,8300.11,-24.9813,-16.301,-174.125,9821.8,-17268.8,-2240.29,107.796,-61.357,257.145,-11012.3,6126.81,-89.0528,107.095,57.5472,-49.6849,5760.53,-9728.44,4165.08,57.3,-18.8414,-31.9891,10074.6,-3169.57,7250.13,-37.4746,8.56964,24.2955
3.661,13631.8,-7841.76,7616.84,102.044,7.82184,-2.21553,35192.4,19213.7,16200.1,230.216,-755.744,12.0734,-7253.75,14673.0,8013.69,-23.418,-21.0441,-173.335,9130.47,-17458.9,-2466.52,107.661,-56.8404,259.025,-10664.9,6151.43,391.013,97.9983,56.4632,-53.4951,5077.63,-9260.17,5024.55,59.6987,-30.7234,-31.9302,10061.4,-3207.34,7153.85,-38.1378,9.71779,24.5994
3.662,13518.1,-7899.01,7590.28,97.8778,8.01274,3.21134,35467.5,23382.4,17781.7,220.69,-729.965,9.75813,-6227.5,15466.5,7727.28,-21.8548,-25.7872,-172.544,8439.15,-17648.9,-2692.76,107.526,-52.3238,260.905,-10317.5,6176.05,871.078,88.9011,55.3792,-57.3054,4394.72,-8791.89,5884.01,62.0973,-42.6053,-31.8712,10048.1,-3245.1,7057.58,-38.8011,10.8659,24.9033
3.663,13243.9,-6622.17,7958.91,93.5995,7.76378,4.17699,34748.4,25683.6,18256.0,207.148,-708.755,19.8585,-5364.64,15592.0,7009.77,-19.6254,-30.6049,-170.204,7781.15,-17955.2,-3880.92,104.501,-47.1646,260.851,-10034.4,6043.29,778.451,81.2653,55.9107,-61.7607,3696.25,-8778.84,5473.26,62.5222,-49.5077,-35.1996,10059.1,-3228.14,7008.85,-38.6448,12.537,25.339
3.664,12923.8,-4964.17,8440.45,89.2892,7.38916,3.868,33745.4,27451.1,18414.1,192.457,-688.85,33.5062,-4548.45,15526.6,6169.1,-17.2056,-35.4439,-167.421,7132.66,-18294.6,-5343.92,100.649,-41.8217,260.244,-9769.71,5865.57,522.199,74.0471,56.9038,-66.4004,2993.32,-8895.86,4699.6,62.3832,-54.9873,-39.4957,10076.9,-3195.54,6973.72,-38.2543,14.3574,25.8122
3.665,12603.6,-3306.16,8921.98,84.9788,7.01454,3.55901,32742.3,29218.6,18572.1,177.767,-668.945,47.1539,-3732.27,15461.2,5328.43,-14.7859,-40.283,-164.638,6484.18,-18634.1,-6806.93,96.7973,-36.4789,259.637,-9505.02,5687.86,265.946,66.8289,57.8969,-71.0401,2290.4,-9012.88,3925.93,62.2441,-60.4669,-43.7919,10094.8,-3162.95,6938.58,-37.8638,16.1779,26.2855
3.666,12283.5,-1648.16,9403.52,80.6685,6.63992,3.25003,31739.3,30986.1,18730.1,163.077,-649.04,60.8016,-2916.09,15395.9,4487.75,-12.3662,-45.1221,-161.856,5835.69,-18973.5,-8269.93,92.9457,-31.136,259.03,-9240.34,5510.14,9.69385,59.6107,58.89,-75.6798,1587.47,-9129.9,3152.26,62.1051,-65.9466,-48.088,10112.7,-3130.35,6903.44,-37.4733,17.9983,26.7587
3.667,11825.3,27.7201,9853.17,75.721,6.68732,2.51636,30491.5,31973.4,18804.5,144.266,-632.502,76.9478,-2291.49,15234.6,3710.81,-9.84243,-49.5429,-159.374,5499.23,-19262.3,-9895.38,88.2738,-22.3148,258.421,-9030.22,5366.89,-354.972,53.4979,60.2804,-80.4135,959.142,-9307.05,2162.33,60.8859,-68.1959,-53.1199,10134.5,-3096.82,6901.3,-36.931,19.7151,27.2729
3.668,11090.8,1739.36,10239.1,69.4993,7.57876,0.933361,28754.4,31400.2,18711.9,117.213,-622.7,98.0908,-2050.05,14881.6,3061.31,-7.11061,-53.1272,-157.493,5786.8,-19449.8,-11845.7,81.9615,-6.53675,257.809,-8929.23,5292.61,-936.464,49.596,62.4655,-85.3351,480.013,-9604.45,739.848,57.5064,-63.9848,-59.6232,10164.0,-3061.42,6965.18,-36.0853,21.2248,27.869
3.669,10356.4,3450.99,10625.0,63.2776,8.47021,-0.649642,27017.3,30827.1,18619.2,90.1597,-612.897,119.234,-1808.62,14528.6,2411.82,-4.37879,-56.7116,-155.613,6074.38,-19637.2,-13796.1,75.6491,9.24128,257.197,-8828.24,5218.32,-1517.96,45.694,64.6505,-90.2568,0.884399,-9901.86,-682.629,54.1269,-59.7736,-66.1265,10193.5,-3026.02,7029.05,-35.2395,22.7345,28.465
3.67,9621.96,5162.63,11010.8,57.0558,9.36166,-2.23265,25280.2,30254.0,18526.6,63.1065,-603.094,140.377,-1567.19,14175.6,1762.33,-1.64698,-60.2959,-153.733,6361.96,-19824.7,-15746.4,69.3368,25.0193,256.585,-8727.25,5144.03,-2099.45,41.7921,66.8355,-95.1785,-478.245,-10199.3,-2105.11,50.7474,-55.5625,-72.6299,10223.1,-2990.62,7092.92,-34.3938,24.2441,29.0611
3.671,8887.51,6874.27,11396.7,50.8341,10.2531,-3.81565,23543.1,29680.8,18434.0,36.0534,-593.292,161.52,-1325.76,13822.5,1112.83,1.08484,-63.8803,-151.853,6649.53,-20012.1,-17696.8,63.0244,40.7973,255.973,-8626.25,5069.75,-2680.94,37.8902,69.0206,-100.1,-957.374,-10496.7,-3527.58,47.3679,-51.3514,-79.1332,10252.6,-2955.21,7156.8,-33.548,25.7538,29.6572
3.672,8281.19,7545.97,11485.2,43.6006,11.7324,-4.80244,21996.6,29341.9,17893.7,12.7487,-585.087,176.434,-1264.68,13766.0,951.796,2.25125,-66.3534,-150.067,7503.2,-20400.7,-18581.2,59.8589,60.9095,252.614,-8694.32,5286.12,-2988.62,36.0297,69.7571,-104.953,-1113.01,-10561.3,-4453.79,42.2348,-43.5571,-85.3988,10239.6,-2896.59,7117.37,-33.3594,26.82,30.3152
3.673,7690.88,8087.69,11536.6,36.2406,13.2852,-5.7147,20473.8,29032.1,17297.4,-10.0875,-577.082,190.569,-1226.16,13746.6,851.815,3.22197,-68.6877,-148.293,8427.62,-20814.4,-19332.3,57.0867,81.5634,248.911,-8783.53,5538.81,-3262.07,34.4244,70.3126,-109.796,-1228.22,-10596.9,-5317.96,36.8825,-35.3149,-91.6347,10221.3,-2835.06,7065.02,-33.2529,27.8309,30.9809
3.674,7100.57,8629.4,11587.9,28.8806,14.838,-6.62696,18951.1,28722.4,16701.1,-32.9238,-569.077,204.705,-1187.63,13727.1,751.833,4.1927,-71.022,-146.52,9352.05,-21228.1,-20083.5,54.3145,102.217,245.209,-8872.73,5791.51,-3535.53,32.8191,70.868,-114.64,-1343.42,-10632.5,-6182.13,31.5302,-27.0728,-97.8706,10202.9,-2773.53,7012.68,-33.1465,28.8417,31.6467
3.675,6510.27,9171.12,11639.2,21.5206,16.3908,-7.53922,17428.3,28412.7,16104.9,-55.76,-561.072,218.84,-1149.1,13707.7,651.852,5.16342,-73.3563,-144.746,10276.5,-21641.8,-20834.6,51.5424,122.871,241.506,-8961.93,6044.21,-3808.98,31.2138,71.4235,-119.484,-1458.63,-10668.0,-7046.3,26.1779,-18.8306,-104.107,10184.6,-2712.0,6960.34,-33.04,29.8525,32.3125
3.676,6165.13,9002.7,11459.0,15.442,17.3624,-7.07974,16603.3,27895.7,15685.1,-75.2489,-551.93,229.332,-1122.32,13855.5,723.041,4.62424,-74.9872,-142.426,11189.0,-22038.1,-20844.6,52.0301,140.716,237.184,-9110.79,6418.35,-3855.19,29.6924,70.8806,-123.964,-1471.65,-10769.7,-7546.46,20.4309,-11.416,-110.315,10171.8,-2626.24,6898.65,-32.7937,30.9408,32.9517
3.677,6126.46,7946.61,10989.4,10.9653,17.6075,-4.90556,16650.4,27119.6,15486.0,-90.5537,-541.367,235.27,-1110.22,14212.2,1008.19,2.19765,-75.7388,-139.423,12086.8,-22412.7,-19928.1,56.5928,155.05,232.086,-9334.22,6944.28,-3617.35,28.2759,68.9647,-127.99,-1356.96,-10954.1,-7591.61,14.1907,-5.03562,-116.49,10165.8,-2510.21,6825.29,-32.3727,32.1259,33.5577
3.678,6087.79,6890.52,10519.7,6.4886,17.8527,-2.73139,16697.5,26343.5,15286.8,-105.859,-530.804,241.208,-1098.11,14568.9,1293.35,-0.228935,-76.4904,-136.421,12984.5,-22787.3,-19011.5,61.1554,169.383,226.988,-9557.65,7470.21,-3379.51,26.8594,67.0488,-132.015,-1242.26,-11138.4,-7636.76,7.95044,1.34472,-122.665,10159.8,-2394.18,6751.93,-31.9516,33.311,34.1637
3.679,6049.13,5834.43,10050.1,2.01189,18.0978,-0.557214,16744.6,25567.3,15087.7,-121.163,-520.241,247.146,-1086.01,14925.7,1578.5,-2.65552,-77.2421,-133.418,13882.3,-23161.9,-18095.0,65.7181,183.717,221.89,-9781.08,7996.13,-3141.67,25.4429,65.1329,-136.041,-1127.57,-11322.7,-7681.9,1.7102,7.72505,-128.84,10153.8,-2278.14,6678.56,-31.5306,34.4961,34.7697
3.68,6010.46,4778.35,9580.45,-2.46482,18.343,1.61696,16791.7,24791.2,14888.6,-136.468,-509.678,253.084,-1073.91,15282.4,1863.65,-5.08211,-77.9937,-130.416,14780.0,-23536.4,-17178.5,70.2807,198.05,216.792,-10004.5,8522.06,-2903.84,24.0264,63.2169,-140.066,-1012.87,-11507.1,-7727.05,-4.53005,14.1054,-135.015,10147.9,-2162.11,6605.2,-31.1095,35.6812,35.3757
3.681,6326.6,2738.89,9139.04,-3.09914,17.8219,4.18886,17225.5,23564.2,15236.9,-149.739,-496.818,255.251,-987.693,15508.0,1935.0,-8.07282,-78.8254,-126.965,14885.5,-23454.8,-16283.5,74.9156,205.782,213.331,-10340.0,9028.8,-2414.4,21.9907,60.6758,-142.513,-915.18,-11953.0,-7380.87,-9.23718,17.1002,-141.24,10124.8,-2099.19,6605.38,-30.7636,36.7017,35.9039
3.682,6642.74,699.43,8697.63,-3.73345,17.3008,6.76076,17659.2,22337.1,15585.3,-163.011,-483.959,257.418,-901.481,15733.6,2006.36,-11.0635,-79.6571,-123.514,14991.1,-23373.1,-15388.5,79.5504,213.514,209.871,-10675.4,9535.54,-1924.96,19.955,58.1347,-144.959,-817.489,-12399.0,-7034.69,-13.9443,20.0951,-147.464,10101.7,-2036.27,6605.55,-30.4176,37.7222,36.4321
3.683,6958.89,-1340.03,8256.22,-4.36776,16.7797,9.33266,18093.0,21110.1,15933.6,-176.282,-471.1,259.585,-815.268,15959.1,2077.71,-14.0543,-80.4888,-120.063,15096.6,-23291.5,-14493.5,84.1853,221.246,206.41,-11010.9,10042.3,-1435.52,17.9192,55.5936,-147.405,-719.798,-12844.9,-6688.52,-18.6514,23.0899,-153.689,10078.6,-1973.35,6605.73,-30.0716,38.7426,36.9603
3.684,7275.03,-3379.49,7814.81,-5.00207,16.2586,11.9046,18526.8,19883.1,16282.0,-189.553,-458.24,261.751,-729.056,16184.7,2149.06,-17.045,-81.3204,-116.612,15202.1,-23209.9,-13598.6,88.8201,228.978,202.949,-11346.3,10549.0,-946.077,15.8835,53.0525,-149.852,-622.107,-13290.8,-6342.34,-23.3586,26.0848,-159.914,10055.5,-1910.44,6605.91,-29.7256,39.7631,37.4885
3.685,7547.71,-4739.91,7689.76,-5.66784,15.7105,12.2029,18610.4,18452.2,16963.5,-197.699,-445.774,260.678,-656.153,16080.2,1924.72,-18.4408,-82.5458,-114.215,14713.0,-22925.7,-12838.1,92.1879,234.543,200.289,-11717.2,10963.4,-507.943,13.8584,51.3602,-151.559,-625.632,-13779.0,-6001.91,-25.3991,27.9915,-165.663,10070.6,-1817.4,6598.49,-29.3074,40.5711,37.9887
