Time,RFoot_accel.x,RFoot_accel.y,RFoot_accel.z,RFoot_gyro.x,RFoot_gyro.y,RFoot_gyro.z,LFoot_accel.x,LFoot_accel.y,LFoot_accel.z,LFoot_gyro.x,LFoot_gyro.y,LFoot_gyro.z,RShank_accel.x,RShank_accel.y,RShank_accel.z,RShank_gyro.x,RShank_gyro.y,RShank_gyro.z,LShank_accel.x,LShank_accel.y,LShank_accel.z,LShank_gyro.x,LShank_gyro.y,LShank_gyro.z,RThigh_accel.x,RThigh_accel.y,RThigh_accel.z,RThigh_gyro.x,RThigh_gyro.y,RThigh_gyro.z,LThigh_accel.x,LThigh_accel.y,LThigh_accel.z,LThigh_gyro.x,LThigh_gyro.y,LThigh_gyro.z,Pelvis_accel.x,Pelvis_accel.y,Pelvis_accel.z,Pelvis_gyro.x,Pelvis_gyro.y,Pelvis_gyro.z
3.47,2731.99,-727.963,6369.71,-67.3346,341.563,-49.0154,3780.64,2050.88,8529.0,17.2656,-7.38762,-13.6836,708.986,7453.17,-773.52,32.5415,-52.3921,223.358,208.127,10111.0,-3704.33,14.4835,43.152,20.2193,-4242.87,7337.35,-1999.37,9.23733,-22.0446,130.426,1153.71,-10665.5,-1458.47,-15.532,5.07772,114.828,6026.05,1650.83,705.211,-7.46014,15.3048,24.6393
3.4705,2750.26,-777.133,6387.67,-66.5028,341.211,-49.8713,3763.52,2069.02,8534.78,17.0353,-7.57499,-13.3359,692.179,7468.72,-738.078,32.4956,-52.818,223.728,171.399,10114.1,-3692.04,14.1124,43.9907,19.9875,-4266.41,7313.48,-2029.71,9.53153,-22.199,130.898,1201.77,-10772.2,-1418.86,-16.1815,4.89883,114.988,5970.27,1574.11,741.939,-7.81655,15.3568,24.4623
3.471,2768.53,-826.302,6405.64,-65.6711,340.859,-50.7272,3746.4,2087.16,8540.55,16.805,-7.76236,-12.9883,675.372,7484.27,-702.637,32.4498,-53.2439,224.097,134.67,10117.1,-3679.75,13.7413,44.8295,19.7557,-4289.94,7289.61,-2060.05,9.82573,-22.3534,131.371,1249.83,-10878.9,-1379.25,-16.8309,4.71995,115.149,5914.49,1497.4,778.667,-8.17295,15.4088,24.2853
3.4715,2823.59,-847.752,6433.32,-64.9736,340.636,-51.5102,3740.7,2113.87,8537.63,16.546,-7.89707,-12.5986,672.142,7502.66,-668.189,32.3941,-53.4585,224.477,81.1728,10101.5,-3668.93,13.4511,45.5007,19.5536,-4298.3,7270.15,-2090.34,10.0149,-22.3204,131.726,1277.05,-10987.2,-1362.11,-17.3841,4.44273,115.134,5867.33,1426.8,814.561,-8.33632,15.3625,24.1576
3.472,2889.17,-861.281,6463.77,-64.3145,340.449,-52.2724,3738.27,2143.04,8532.22,16.2788,-8.01674,-12.1969,672.792,7521.86,-634.026,32.3357,-53.6128,224.86,22.8839,10080.5,-3658.54,13.1839,46.1241,19.36,-4302.32,7251.94,-2120.61,10.1741,-22.2337,132.047,1298.32,-11095.9,-1351.39,-17.9099,4.13742,115.07,5822.63,1357.96,850.217,-8.44453,15.2882,24.044
3.4725,2954.75,-874.81,6494.23,-63.6554,340.263,-53.0345,3735.84,2172.21,8526.82,16.0116,-8.1364,-11.7952,673.442,7541.07,-599.862,32.2773,-53.7671,225.243,-35.405,10059.5,-3648.16,12.9168,46.7475,19.1663,-4306.34,7233.73,-2150.89,10.3333,-22.147,132.368,1319.59,-11204.6,-1340.67,-18.4357,3.83211,115.005,5777.93,1289.12,885.872,-8.55274,15.2139,23.9304
3.473,3020.33,-888.34,6524.68,-62.9963,340.077,-53.7967,3733.41,2201.38,8521.41,15.7444,-8.25607,-11.3935,674.091,7560.27,-565.698,32.2188,-53.9213,225.626,-93.6939,10038.5,-3637.77,12.6496,47.3709,18.9727,-4310.36,7215.52,-2181.16,10.4925,-22.0603,132.689,1340.86,-11313.3,-1329.95,-18.9615,3.5268,114.941,5733.23,1220.28,921.528,-8.66095,15.1397,23.8167
3.4735,3085.91,-901.869,6555.13,-62.3372,339.89,-54.5588,3730.97,2230.55,8516.0,15.4772,-8.37574,-10.9918,674.741,7579.48,-531.535,32.1604,-54.0756,226.009,-151.983,10017.5,-3627.38,12.3825,47.9943,18.779,-4314.38,7197.32,-2211.44,10.6517,-21.9737,133.01,1362.13,-11421.9,-1319.23,-19.4872,3.22149,114.877,5688.54,1151.44,957.183,-8.76916,15.0654,23.7031
3.474,3151.49,-915.398,6585.59,-61.6781,339.704,-55.321,3728.54,2259.72,8510.59,15.21,-8.4954,-10.5901,675.39,7598.68,-497.371,32.102,-54.2299,226.392,-210.272,9996.54,-3616.99,12.1153,48.6177,18.5854,-4318.41,7179.11,-2241.72,10.8109,-21.887,133.332,1383.39,-11530.6,-1308.51,-20.013,2.91618,114.812,5643.84,1082.6,992.839,-8.87737,14.9911,23.5895
3.4745,3217.07,-928.928,6616.04,-61.019,339.518,-56.0832,3726.11,2288.89,8505.18,14.9428,-8.61507,-10.1884,676.04,7617.89,-463.208,32.0435,-54.3842,226.775,-268.56,9975.55,-3606.6,11.8481,49.2411,18.3917,-4322.43,7160.9,-2271.99,10.9701,-21.8003,133.653,1404.66,-11639.3,-1297.79,-20.5388,2.61087,114.748,5599.14,1013.76,1028.49,-8.98558,14.9168,23.4759
3.475,3282.65,-942.457,6646.5,-60.3598,339.331,-56.8453,3723.68,2318.05,8499.77,14.6756,-8.73474,-9.78674,676.689,7637.09,-429.044,31.9851,-54.5385,227.158,-326.849,9954.55,-3596.21,11.581,49.8645,18.1981,-4326.45,7142.7,-2302.27,11.1293,-21.7137,133.974,1425.93,-11748.0,-1287.07,-21.0646,2.30556,114.684,5554.44,944.923,1064.15,-9.09379,14.8425,23.3622
3.4755,3348.23,-955.986,6676.95,-59.7007,339.145,-57.6075,3721.25,2347.22,8494.36,14.4084,-8.8544,-9.38504,677.339,7656.29,-394.88,31.9267,-54.6928,227.541,-385.138,9933.56,-3585.82,11.3138,50.4879,18.0044,-4330.47,7124.49,-2332.54,11.2885,-21.627,134.295,1447.2,-11856.7,-1276.34,-21.5904,2.00025,114.619,5509.74,876.083,1099.81,-9.202,14.7682,23.2486
3.476,3387.03,-868.697,6729.22,-59.4566,338.875,-58.1367,3720.75,2372.0,8490.98,14.038,-8.95005,-8.95191,688.407,7658.55,-344.686,32.0108,-54.66,227.88,-453.306,9929.02,-3561.07,11.1289,50.7749,17.918,-4330.86,7091.7,-2346.16,11.4113,-21.3284,134.564,1458.79,-11933.5,-1267.25,-21.9325,1.61431,114.338,5474.47,817.549,1111.24,-9.25147,14.6866,23.1128
3.4765,3422.49,-768.804,6784.22,-59.2643,338.594,-58.6367,3720.49,2396.24,8487.84,13.6547,-9.0427,-8.51485,700.777,7658.68,-292.489,32.1128,-54.6039,228.213,-522.709,9926.53,-3534.52,10.9542,51.0199,17.8449,-4330.79,7057.09,-2357.7,11.5297,-21.0033,134.827,1469.18,-12006.3,-1258.36,-22.2518,1.21828,114.03,5440.38,760.303,1119.65,-9.2936,14.604,22.9743
3.477,3457.95,-668.912,6839.22,-59.0721,338.313,-59.1368,3720.22,2420.47,8484.71,13.2715,-9.13535,-8.0778,713.148,7658.82,-240.291,32.2148,-54.5478,228.546,-592.112,9924.04,-3507.97,10.7796,51.2648,17.7718,-4330.72,7022.48,-2369.23,11.648,-20.6781,135.089,1479.56,-12079.1,-1249.47,-22.571,0.822262,113.723,5406.28,703.057,1128.06,-9.33572,14.5215,22.8357
3.4775,3493.41,-569.02,6894.22,-58.8798,338.031,-59.6369,3719.96,2444.7,8481.57,12.8882,-9.228,-7.64074,725.518,7658.95,-188.093,32.3168,-54.4916,228.88,-661.515,9921.54,-3481.41,10.6049,51.5097,17.6987,-4330.65,6987.87,-2380.76,11.7663,-20.353,135.352,1489.94,-12151.9,-1240.58,-22.8902,0.426241,113.415,5372.19,645.812,1136.46,-9.37785,14.439,22.6972
3.478,3528.86,-469.127,6949.22,-58.6875,337.751,-60.1369,3719.7,2468.94,8478.44,12.5049,-9.32064,-7.20368,737.888,7659.08,-135.895,32.4188,-54.4355,229.213,-730.918,9919.05,-3454.86,10.4303,51.7547,17.6257,-4330.59,6953.26,-2392.3,11.8847,-20.0279,135.614,1500.33,-12224.7,-1231.69,-23.2094,0.0302191,113.107,5338.09,588.566,1144.87,-9.41998,14.3564,22.5586
3.4785,3564.32,-369.235,7004.21,-58.4952,337.469,-60.637,3719.44,2493.17,8475.3,12.1217,-9.41329,-6.76662,750.258,7659.22,-83.6975,32.5208,-54.3794,229.546,-800.321,9916.56,-3428.31,10.2556,51.9996,17.5526,-4330.52,6918.65,-2403.83,12.003,-19.7028,135.877,1510.71,-12297.5,-1222.8,-23.5287,-0.365802,112.799,5304.0,531.32,1153.28,-9.46211,14.2739,22.4201
3.479,3599.78,-269.343,7059.21,-58.303,337.189,-61.1371,3719.18,2517.4,8472.17,11.7384,-9.50594,-6.32957,762.629,7659.35,-31.4997,32.6228,-54.3233,229.88,-869.724,9914.08,-3401.76,10.0809,52.2445,17.4795,-4330.45,6884.04,-2415.37,12.1213,-19.3777,136.139,1521.1,-12370.3,-1213.91,-23.8479,-0.761824,112.491,5269.91,474.074,1161.69,-9.50424,14.1913,22.2815
3.4795,3635.24,-169.45,7114.21,-58.1107,336.907,-61.6371,3718.92,2541.63,8469.03,11.3551,-9.59859,-5.89251,774.999,7659.49,20.6981,32.7248,-54.2671,230.213,-939.127,9911.58,-3375.21,9.90628,52.4895,17.4064,-4330.38,6849.43,-2426.9,12.2397,-19.0526,136.402,1531.48,-12443.1,-1205.02,-24.1671,-1.15785,112.183,5235.81,416.828,1170.09,-9.54636,14.1088,22.143
3.48,3670.7,-69.5581,7169.21,-57.9184,336.626,-62.1372,3718.66,2565.87,8465.9,10.9718,-9.69123,-5.45545,787.37,7659.62,72.8958,32.8268,-54.211,230.547,-1008.53,9909.09,-3348.66,9.73162,52.7344,17.3333,-4330.31,6814.82,-2438.43,12.358,-18.7275,136.664,1541.87,-12515.9,-1196.13,-24.4864,-1.55387,111.875,5201.72,359.582,1178.5,-9.58849,14.0262,22.0044
3.4805,3713.58,-7.99106,7203.0,-58.0412,336.392,-62.2641,3708.4,2582.41,8484.24,10.5993,-9.8173,-5.01552,779.576,7659.71,107.924,33.0709,-53.9441,230.95,-1049.48,9902.85,-3326.81,9.52825,52.7424,17.2722,-4328.63,6772.58,-2450.38,12.3966,-18.1761,136.792,1545.15,-12542.8,-1192.78,-24.5534,-2.10137,111.378,5181.27,306.188,1184.8,-9.57503,13.8914,21.8809
3.481,3756.47,53.576,7236.79,-58.164,336.157,-62.391,3698.15,2598.96,8502.58,10.2268,-9.94337,-4.57558,771.783,7659.8,142.953,33.3151,-53.6773,231.353,-1090.44,9896.6,-3304.95,9.32487,52.7505,17.2111,-4326.96,6730.33,-2462.33,12.4352,-17.6247,136.92,1548.43,-12569.7,-1189.44,-24.6205,-2.64888,110.881,5160.82,252.795,1191.09,-9.56157,13.7565,21.7573
3.4815,3799.35,115.143,7270.58,-58.2867,335.922,-62.5178,3687.89,2615.51,8520.91,9.85421,-10.0694,-4.13564,763.99,7659.89,177.982,33.5593,-53.4104,231.756,-1131.39,9890.36,-3283.1,9.1215,52.7585,17.15,-4325.28,6688.09,-2474.28,12.4737,-17.0733,137.048,1551.71,-12596.5,-1186.09,-24.6876,-3.19639,110.384,5140.37,199.401,1197.39,-9.54811,13.6216,21.6337
3.482,3842.24,176.71,7304.37,-58.4095,335.688,-62.6447,3677.64,2632.06,8539.25,9.48167,-10.1955,-3.69571,756.197,7659.98,213.01,33.8034,-53.1435,232.159,-1172.35,9884.11,-3261.24,8.91812,52.7665,17.0889,-4323.6,6645.84,-2486.23,12.5123,-16.5219,137.176,1555.0,-12623.4,-1182.74,-24.7547,-3.74389,109.888,5119.91,146.007,1203.69,-9.53465,13.4867,21.5101
3.4825,3885.12,238.277,7338.16,-58.5323,335.453,-62.7716,3667.38,2648.6,8557.59,9.10912,-10.3216,-3.25577,748.404,7660.07,248.039,34.0476,-52.8766,232.562,-1213.3,9877.87,-3239.39,8.71475,52.7746,17.0278,-4321.92,6603.6,-2498.18,12.5509,-15.9705,137.304,1558.28,-12650.3,-1179.4,-24.8218,-4.2914,109.391,5099.46,92.6132,1209.98,-9.52119,13.3518,21.3865
3.483,3928.01,299.844,7371.95,-58.6551,335.218,-62.8984,3657.13,2665.15,8575.93,8.73658,-10.4476,-2.81584,740.611,7660.16,283.068,34.2917,-52.6097,232.965,-1254.26,9871.62,-3217.53,8.51137,52.7826,16.9666,-4320.24,6561.35,-2510.13,12.5895,-15.4191,137.432,1561.56,-12677.2,-1176.05,-24.8889,-4.8389,108.894,5079.01,39.2193,1216.28,-9.50773,13.217,21.2629
3.4835,3970.89,361.411,7405.74,-58.7778,334.984,-63.0253,3646.87,2681.7,8594.27,8.36404,-10.5737,-2.3759,732.818,7660.25,318.096,34.5359,-52.3429,233.368,-1295.21,9865.37,-3195.67,8.30799,52.7907,16.9055,-4318.56,6519.11,-2522.08,12.628,-14.8678,137.559,1564.84,-12704.1,-1172.7,-24.956,-5.38641,108.397,5058.56,-14.1745,1222.58,-9.49427,13.0821,21.1393
3.484,4013.78,422.978,7439.54,-58.9006,334.749,-63.1522,3636.62,2698.25,8612.61,7.99149,-10.6998,-1.93597,725.025,7660.34,353.125,34.78,-52.076,233.771,-1336.16,9859.13,-3173.82,8.10462,52.7987,16.8444,-4316.88,6476.87,-2534.03,12.6666,-14.3164,137.687,1568.13,-12731.0,-1169.36,-25.0231,-5.93392,107.9,5038.11,-67.5683,1228.87,-9.48081,12.9472,21.0158
3.4845,4055.65,477.16,7473.83,-59.0296,334.519,-63.268,3626.84,2713.12,8627.17,7.6055,-10.8217,-1.51891,714.889,7661.31,386.163,35.0256,-51.8068,234.181,-1372.8,9852.08,-3152.13,7.89089,52.7817,16.7919,-4315.95,6434.86,-2545.78,12.7216,-13.7539,137.792,1571.54,-12752.5,-1166.1,-25.0722,-6.52964,107.399,5019.07,-119.702,1235.17,-9.45694,12.8104,20.8994
3.485,4089.39,472.259,7512.14,-59.2087,334.331,-63.295,3620.83,2714.57,8611.51,7.11194,-10.9109,-1.28488,686.013,7669.37,403.279,35.2825,-51.5193,234.645,-1374.89,9838.58,-3131.74,7.59429,52.5641,16.8085,-4320.97,6394.81,-2555.94,12.9084,-13.1031,137.712,1576.02,-12731.7,-1163.58,-24.9781,-7.51112,106.863,5011.31,-161.752,1241.46,-9.34981,12.6578,20.841
3.4855,4123.14,467.358,7550.46,-59.3878,334.143,-63.3221,3614.83,2716.02,8595.86,6.61838,-11.0,-1.05084,657.137,7677.43,420.395,35.5394,-51.2319,235.108,-1376.99,9825.08,-3111.35,7.29769,52.3466,16.8252,-4326.0,6354.75,-2566.11,13.0951,-12.4523,137.633,1580.5,-12710.8,-1161.05,-24.8839,-8.4926,106.326,5003.55,-203.803,1247.75,-9.24269,12.5052,20.7827
3.486,4156.88,462.457,7588.77,-59.5669,333.955,-63.3492,3608.82,2717.47,8580.2,6.12481,-11.0891,-0.816808,628.26,7685.49,437.511,35.7963,-50.9444,235.572,-1379.08,9811.59,-3090.96,7.00108,52.1291,16.8418,-4331.02,6314.7,-2576.28,13.2819,-11.8015,137.553,1584.98,-12689.9,-1158.53,-24.7897,-9.47408,105.789,4995.79,-245.854,1254.03,-9.13556,12.3527,20.7243
3.4865,4190.63,457.556,7627.08,-59.7459,333.767,-63.3763,3602.82,2718.93,8564.55,5.63125,-11.1783,-0.582774,599.384,7693.55,454.627,36.0532,-50.6569,236.036,-1381.17,9798.09,-3070.58,6.70448,51.9116,16.8584,-4336.05,6274.64,-2586.44,13.4686,-11.1507,137.474,1589.46,-12669.0,-1156.0,-24.6956,-10.4556,105.253,4988.02,-287.905,1260.32,-9.02843,12.2001,20.6659
3.487,4224.37,452.655,7665.4,-59.925,333.578,-63.4034,3596.82,2720.38,8548.89,5.13769,-11.2674,-0.34874,570.508,7701.61,471.743,36.3101,-50.3694,236.5,-1383.26,9784.6,-3050.19,6.40788,51.6941,16.875,-4341.07,6234.59,-2596.61,13.6553,-10.4999,137.394,1593.94,-12648.1,-1153.48,-24.6014,-11.437,104.716,4980.26,-329.955,1266.61,-8.9213,12.0476,20.6075
3.4875,4258.11,447.754,7703.71,-60.1041,333.39,-63.4305,3590.81,2721.83,8533.23,4.64412,-11.3566,-0.114706,541.632,7709.66,488.859,36.567,-50.082,236.964,-1385.36,9771.1,-3029.8,6.11128,51.4765,16.8916,-4346.1,6194.53,-2606.78,13.8421,-9.84906,137.314,1598.42,-12627.2,-1150.96,-24.5072,-12.4185,104.18,4972.5,-372.006,1272.9,-8.81417,11.895,20.5491
3.488,4291.86,442.853,7742.02,-60.2831,333.202,-63.4575,3584.81,2723.28,8517.58,4.15056,-11.4457,0.119328,512.755,7717.72,505.975,36.8239,-49.7945,237.427,-1387.45,9757.61,-3009.41,5.81468,51.259,16.9082,-4351.13,6154.48,-2616.94,14.0288,-9.19824,137.235,1602.9,-12606.3,-1148.43,-24.4131,-13.4,103.643,4964.74,-414.057,1279.18,-8.70704,11.7424,20.4908
3.4885,4325.6,437.951,7780.34,-60.4622,333.014,-63.4846,3578.81,2724.74,8501.92,3.657,-11.5348,0.353362,483.879,7725.78,523.091,37.0808,-49.507,237.891,-1389.54,9744.11,-2989.03,5.51808,51.0415,16.9248,-4356.15,6114.42,-2627.11,14.2156,-8.54743,137.155,1607.38,-12585.4,-1145.91,-24.3189,-14.3815,103.107,4956.98,-456.107,1285.47,-8.59991,11.5899,20.4324
3.489,4370.19,424.709,7813.74,-60.628,332.9,-63.4087,3585.68,2716.92,8482.68,3.15897,-11.5831,0.573633,456.182,7738.01,538.103,37.3206,-49.2185,238.364,-1391.76,9733.51,-2960.62,5.25092,50.8023,16.9804,-4359.5,6075.03,-2636.26,14.4023,-7.88482,137.059,1610.2,-12555.5,-1139.31,-24.2255,-15.4811,102.599,4953.41,-499.313,1287.48,-8.45372,11.4761,20.372
3.4895,4452.71,382.271,7829.95,-60.7474,333.05,-62.9723,3637.63,2676.66,8450.89,2.64533,-11.4881,0.745731,432.612,7764.82,545.754,37.5004,-48.9266,238.871,-1394.44,9733.01,-2904.17,5.08677,50.4873,17.1722,-4357.01,6037.92,-2641.86,14.5892,-7.18094,136.904,1607.21,-12493.9,-1118.44,-24.1345,-16.9945,102.195,4964.55,-546.559,1274.54,-8.17082,11.4983,20.3049
3.49,4535.24,339.833,7846.16,-60.8667,333.199,-62.5358,3689.57,2636.39,8419.1,2.13169,-11.3931,0.917829,409.042,7791.63,553.404,37.6803,-48.6347,239.377,-1397.12,9732.52,-2847.71,4.92263,50.1723,17.364,-4354.51,6000.82,-2647.45,14.776,-6.47706,136.749,1604.22,-12432.3,-1097.57,-24.0436,-18.5079,101.79,4975.68,-593.806,1261.59,-7.88792,11.5204,20.2378
3.4905,4617.77,297.395,7862.37,-60.9861,333.348,-62.0994,3741.52,2596.13,8387.3,1.61805,-11.298,1.08993,385.472,7818.44,561.055,37.8601,-48.3428,239.884,-1399.8,9732.03,-2791.26,4.75849,49.8573,17.5557,-4352.02,5963.72,-2653.05,14.9628,-5.77318,136.594,1601.22,-12370.7,-1076.7,-23.9526,-20.0213,101.385,4986.81,-641.052,1248.64,-7.60502,11.5425,20.1707
3.491,4700.29,254.957,7878.58,-61.1054,333.498,-61.663,3793.46,2555.87,8355.51,1.10441,-11.203,1.26203,361.902,7845.25,568.705,38.04,-48.0509,240.39,-1402.48,9731.54,-2734.8,4.59435,49.5422,17.7475,-4349.52,5926.62,-2658.64,15.1497,-5.0693,136.439,1598.23,-12309.1,-1055.83,-23.8617,-21.5347,100.981,4997.94,-688.299,1235.7,-7.32212,11.5646,20.1036
3.4915,4782.82,212.519,7894.79,-61.2248,333.647,-61.2265,3845.41,2515.61,8323.72,0.590767,-11.108,1.43412,338.332,7872.06,576.356,38.2198,-47.759,240.896,-1405.16,9731.05,-2678.35,4.4302,49.2272,17.9393,-4347.02,5889.52,-2664.24,15.3365,-4.36543,136.284,1595.24,-12247.5,-1034.96,-23.7707,-23.0481,100.576,5009.07,-735.546,1222.75,-7.03922,11.5867,20.0365
3.492,4865.34,170.081,7911.0,-61.3441,333.796,-60.7901,3897.35,2475.34,8291.93,0.0771259,-11.013,1.60622,314.762,7898.87,584.007,38.3997,-47.4671,241.403,-1407.84,9730.55,-2621.89,4.26606,48.9122,18.1311,-4344.52,5852.42,-2669.84,15.5234,-3.66155,136.129,1592.25,-12185.9,-1014.08,-23.6798,-24.5615,100.171,5020.2,-782.792,1209.8,-6.75632,11.6089,19.9694
3.4925,4947.87,127.643,7927.21,-61.4635,333.945,-60.3537,3949.3,2435.08,8260.14,-0.436515,-10.918,1.77832,291.192,7925.68,591.657,38.5796,-47.1752,241.909,-1410.52,9730.06,-2565.44,4.10192,48.5972,18.3229,-4342.03,5815.32,-2675.43,15.7102,-2.95767,135.974,1589.26,-12124.3,-993.214,-23.5889,-26.0748,99.7668,5031.33,-830.039,1196.85,-6.47342,11.631,19.9023
3.493,5030.4,85.2051,7943.42,-61.5828,334.095,-59.9172,4001.24,2394.82,8228.34,-0.950156,-10.823,1.95042,267.622,7952.49,599.308,38.7594,-46.8833,242.416,-1413.2,9729.57,-2508.98,3.93778,48.2822,18.5147,-4339.53,5778.22,-2681.03,15.8971,-2.25379,135.819,1586.26,-12062.6,-972.344,-23.4979,-27.5882,99.3622,5042.46,-877.285,1183.91,-6.19052,11.6531,19.8352
3.4935,5105.18,31.6671,7970.86,-61.5611,334.212,-59.3912,4053.2,2351.86,8207.83,-1.40498,-10.6966,2.14857,250.206,7984.87,607.318,38.9474,-46.5595,242.956,-1410.01,9726.06,-2452.15,3.80286,47.9516,18.6826,-4330.66,5743.72,-2687.83,16.1262,-1.55657,135.608,1587.04,-11991.5,-952.585,-23.4122,-29.2612,99.0442,5055.53,-923.485,1173.15,-5.84808,11.6912,19.7467
3.494,5164.47,-44.0709,8020.75,-61.2573,334.267,-58.6859,4105.18,2303.49,8209.89,-1.74216,-10.5073,2.39884,245.097,8028.38,616.047,39.1517,-46.1717,243.564,-1395.09,9716.53,-2394.58,3.72639,47.5899,18.803,-4309.03,5714.43,-2697.04,16.4401,-0.872698,135.284,1595.36,-11901.2,-935.051,-23.337,-31.2534,98.8995,5072.45,-967.59,1166.78,-5.38658,11.7611,19.6152
3.4945,5223.77,-119.809,8070.63,-60.9535,334.322,-57.9805,4157.16,2255.12,8211.94,-2.07935,-10.318,2.64911,239.989,8071.9,624.776,39.356,-45.784,244.172,-1380.16,9707.0,-2337.01,3.64992,47.2282,18.9233,-4287.41,5685.15,-2706.25,16.7539,-0.188823,134.959,1603.68,-11810.9,-917.516,-23.2618,-33.2455,98.7548,5089.37,-1011.69,1160.4,-4.92507,11.8311,19.4837
3.495,5283.06,-195.547,8120.52,-60.6498,334.376,-57.2752,4209.14,2206.75,8214.0,-2.41653,-10.1287,2.89938,234.881,8115.41,633.504,39.5603,-45.3962,244.781,-1365.24,9697.47,-2279.44,3.57345,46.8664,19.0436,-4265.78,5655.86,-2715.46,17.0678,0.495053,134.635,1612.0,-11720.7,-899.982,-23.1866,-35.2377,98.6101,5106.3,-1055.8,1154.03,-4.46357,11.901,19.3523
3.4955,5342.35,-271.285,8170.41,-60.346,334.431,-56.5699,4261.12,2158.38,8216.05,-2.75371,-9.93944,3.14965,229.772,8158.93,642.233,39.7646,-45.0085,245.389,-1350.32,9687.94,-2221.86,3.49697,46.5047,19.1639,-4244.15,5626.57,-2724.67,17.3816,1.17893,134.311,1620.32,-11630.4,-882.448,-23.1114,-37.2299,98.4654,5123.22,-1099.9,1147.66,-4.00206,11.971,19.2208
3.496,5401.65,-347.023,8220.29,-60.0422,334.486,-55.8646,4313.1,2110.01,8218.11,-3.0909,-9.75015,3.39992,224.664,8202.45,650.962,39.9689,-44.6208,245.997,-1335.39,9678.4,-2164.29,3.4205,46.143,19.2842,-4222.53,5597.28,-2733.88,17.6955,1.8628,133.987,1628.64,-11540.1,-864.913,-23.0362,-39.222,98.3207,5140.15,-1144.01,1141.28,-3.54055,12.0409,19.0894
3.4965,5460.94,-422.761,8270.18,-59.7384,334.541,-55.1592,4365.08,2061.64,8220.16,-3.42808,-9.56087,3.65019,219.556,8245.96,659.691,40.1732,-44.233,246.605,-1320.47,9668.87,-2106.72,3.34403,45.7813,19.4045,-4200.9,5567.99,-2743.09,18.0093,2.54668,133.662,1636.96,-11449.8,-847.379,-22.961,-41.2142,98.176,5157.07,-1188.11,1134.91,-3.07905,12.1109,18.9579
3.497,5520.23,-498.499,8320.07,-59.4346,334.595,-54.4539,4417.06,2013.28,8222.22,-3.76526,-9.37158,3.90046,214.447,8289.48,668.42,40.3775,-43.8453,247.213,-1305.54,9659.34,-2049.14,3.26756,45.4196,19.5248,-4179.28,5538.7,-2752.3,18.3231,3.23055,133.338,1645.28,-11359.6,-829.845,-22.8858,-43.2064,98.0313,5173.99,-1232.22,1128.54,-2.61754,12.1808,18.8265
3.4975,5579.53,-574.237,8369.95,-59.1309,334.65,-53.7486,4469.04,1964.91,8224.27,-4.10245,-9.18229,4.15073,209.339,8332.99,677.149,40.5818,-43.4575,247.822,-1290.62,9649.81,-1991.57,3.19109,45.0578,19.6451,-4157.65,5509.41,-2761.51,18.637,3.91443,133.014,1653.6,-11269.3,-812.31,-22.8106,-45.1985,97.8866,5190.92,-1276.32,1122.16,-2.15604,12.2508,18.695
3.498,5614.94,-639.151,8415.38,-58.8628,334.687,-52.9574,4495.66,1918.59,8234.23,-4.38114,-8.99926,4.3834,208.777,8380.39,683.501,40.8253,-43.0181,248.463,-1276.83,9637.09,-1940.11,3.17322,44.7534,19.7589,-4136.87,5481.57,-2770.39,18.9518,4.59568,132.689,1667.14,-11175.9,-801.164,-22.6663,-47.2367,97.8099,5213.98,-1315.04,1122.01,-1.654,12.3431,18.5585
3.4985,5620.51,-690.536,8455.23,-58.6393,334.701,-52.0589,4490.58,1874.84,8254.08,-4.58671,-8.82405,4.59405,213.898,8432.65,686.88,41.1178,-42.5139,249.147,-1264.45,9620.4,-1896.29,3.22859,44.5204,19.8647,-4117.16,5455.52,-2778.85,19.268,5.27365,132.363,1687.19,-11078.5,-798.002,-22.4357,-49.3325,97.8183,5244.73,-1347.02,1129.65,-1.10129,12.4632,18.4157
3.499,5626.08,-741.921,8495.09,-58.4159,334.715,-51.1604,4485.5,1831.09,8273.92,-4.79229,-8.64884,4.80471,219.019,8484.9,690.26,41.4103,-42.0098,249.83,-1252.06,9603.7,-1852.47,3.28397,44.2875,19.9704,-4097.45,5429.48,-2787.31,19.5841,5.95161,132.037,1707.24,-10981.2,-794.841,-22.2051,-51.4282,97.8266,5275.48,-1379.01,1137.29,-0.548577,12.5833,18.2729
3.4995,5631.65,-793.306,8534.94,-58.1924,334.729,-50.2618,4480.42,1787.33,8293.76,-4.99786,-8.47362,5.01537,224.139,8537.15,693.64,41.7028,-41.5057,250.514,-1239.68,9587.01,-1808.65,3.33934,44.0546,20.0761,-4077.73,5403.43,-2795.78,19.9003,6.62958,131.711,1727.29,-10883.9,-791.679,-21.9746,-53.524,97.835,5306.23,-1410.99,1144.93,0.00413313,12.7035,18.1302
3.5,5637.23,-844.692,8574.79,-57.969,334.743,-49.3633,4475.34,1743.58,8313.6,-5.20344,-8.29841,5.22603,229.26,8589.4,697.019,41.9953,-41.0015,251.197,-1227.3,9570.32,-1764.84,3.39472,43.8217,20.1819,-4058.02,5377.39,-2804.24,20.2164,7.30755,131.385,1747.35,-10786.6,-788.518,-21.744,-55.6197,97.8433,5336.97,-1442.97,1152.56,0.556843,12.8236,17.9874
3.5005,5642.8,-896.076,8614.65,-57.7455,334.757,-48.4648,4470.27,1699.83,8333.44,-5.40901,-8.12319,5.43668,234.381,8641.66,700.399,42.2878,-40.4974,251.881,-1214.92,9553.62,-1721.02,3.45009,43.5887,20.2876,-4038.3,5351.34,-2812.7,20.5325,7.98552,131.059,1767.4,-10689.2,-785.356,-21.5134,-57.7154,97.8517,5367.72,-1474.95,1160.2,1.10955,12.9437,17.8446
3.501,5648.37,-947.462,8654.5,-57.5221,334.771,-47.5663,4465.19,1656.08,8353.29,-5.61459,-7.94798,5.64734,239.502,8693.91,703.779,42.5802,-39.9933,252.564,-1202.54,9536.93,-1677.2,3.50547,43.3558,20.3934,-4018.59,5325.3,-2821.16,20.8487,8.66348,130.733,1787.45,-10591.9,-782.195,-21.2828,-59.8112,97.86,5398.47,-1506.93,1167.84,1.66226,13.0639,17.7018
3.5015,5653.94,-998.847,8694.35,-57.2987,334.785,-46.6678,4460.11,1612.33,8373.13,-5.82016,-7.77277,5.858,244.623,8746.16,707.158,42.8727,-39.4891,253.247,-1190.16,9520.24,-1633.38,3.56084,43.1229,20.4991,-3998.88,5299.25,-2829.63,21.1648,9.34145,130.407,1807.5,-10494.6,-779.033,-21.0522,-61.9069,97.8684,5429.21,-1538.92,1175.47,2.21497,13.184,17.559
3.502,5659.51,-1050.23,8734.2,-57.0752,334.799,-45.7693,4455.03,1568.58,8392.97,-6.02574,-7.59755,6.06865,249.743,8798.41,710.538,43.1652,-38.985,253.931,-1177.78,9503.54,-1589.56,3.61622,42.89,20.6048,-3979.16,5273.21,-2838.09,21.481,10.0194,130.081,1827.56,-10397.3,-775.872,-20.8217,-64.0027,97.8767,5459.96,-1570.9,1183.11,2.76768,13.3041,17.4162
3.5025,5666.23,-1055.22,8739.78,-56.9067,334.664,-44.7002,4437.42,1525.3,8416.32,-6.16568,-7.5872,6.16049,255.451,8848.57,712.474,43.3809,-38.3747,254.596,-1176.75,9498.14,-1546.21,3.72481,42.6353,20.7592,-3948.03,5250.42,-2838.96,21.7725,10.6745,129.684,1849.2,-10310.4,-777.011,-20.4925,-65.9173,98.005,5496.17,-1599.96,1194.7,3.33713,13.3604,17.308
3.503,5673.88,-1023.08,8717.94,-56.782,334.411,-43.4948,4409.78,1482.42,8442.46,-6.25312,-7.70874,6.15728,261.629,8897.06,713.255,43.5352,-37.6796,255.246,-1184.81,9501.77,-1503.23,3.87598,42.3632,20.9525,-3907.76,5230.25,-2833.77,22.0444,11.3112,129.23,1872.11,-10231.8,-781.589,-20.0844,-67.6869,98.2292,5536.76,-1626.68,1209.45,3.91998,13.3656,17.2274
3.5035,5681.53,-990.943,8696.09,-56.6574,334.158,-42.2894,4382.15,1439.53,8468.61,-6.34055,-7.83028,6.15406,267.807,8945.54,714.036,43.6895,-36.9845,255.897,-1192.87,9505.4,-1460.25,4.02714,42.0912,21.1458,-3867.5,5210.07,-2828.57,22.3163,11.948,128.777,1895.03,-10153.2,-786.168,-19.6764,-69.4565,98.4534,5577.34,-1653.4,1224.19,4.50282,13.3708,17.1469
3.504,5689.18,-958.806,8674.25,-56.5328,333.904,-41.084,4354.51,1396.64,8494.76,-6.42799,-7.95182,6.15085,273.985,8994.03,714.817,43.8438,-36.2893,256.547,-1200.92,9509.02,-1417.27,4.17831,41.8191,21.3391,-3827.23,5189.89,-2823.37,22.5882,12.5847,128.323,1917.94,-10074.6,-790.747,-19.2683,-71.2262,98.6776,5617.93,-1680.12,1238.94,5.08566,13.3761,17.0663
3.5045,5696.83,-926.669,8652.4,-56.4082,333.651,-39.8785,4326.87,1353.75,8520.91,-6.51542,-8.07336,6.14763,280.163,9042.51,715.597,43.998,-35.5942,257.197,-1208.98,9512.65,-1374.29,4.32948,41.547,21.5324,-3786.96,5169.72,-2818.17,22.86,13.2214,127.869,1940.86,-9996.04,-795.325,-18.8602,-72.9958,98.9018,5658.51,-1706.84,1253.69,5.66851,13.3813,16.9857
3.505,5704.48,-894.533,8630.56,-56.2836,333.397,-38.6731,4299.24,1310.87,8547.05,-6.60286,-8.19489,6.14442,286.34,9091.0,716.378,44.1523,-34.899,257.847,-1217.04,9516.28,-1331.31,4.48065,41.275,21.7257,-3746.7,5149.54,-2812.97,23.1319,13.8582,127.415,1963.78,-9917.46,-799.904,-18.4522,-74.7655,99.126,5699.1,-1733.56,1268.44,6.25135,13.3865,16.9052
3.5055,5712.13,-862.396,8608.72,-56.1589,333.144,-37.4677,4271.6,1267.98,8573.2,-6.69029,-8.31643,6.1412,292.518,9139.48,717.159,44.3066,-34.2039,258.498,-1225.1,9519.91,-1288.34,4.63181,41.0029,21.919,-3706.43,5129.36,-2807.78,23.4038,14.4949,126.961,1986.69,-9838.89,-804.483,-18.0441,-76.5351,99.3502,5739.68,-1760.28,1283.18,6.83419,13.3917,16.8246
3.506,5719.78,-830.259,8586.87,-56.0343,332.89,-36.2622,4243.96,1225.09,8599.35,-6.77773,-8.43797,6.13799,298.696,9187.97,717.94,44.4609,-33.5088,259.148,-1233.15,9523.54,-1245.36,4.78298,40.7308,22.1123,-3666.16,5109.19,-2802.58,23.6757,15.1317,126.507,2009.61,-9760.31,-809.062,-17.6361,-78.3048,99.5744,5780.27,-1787.0,1297.93,7.41704,13.3969,16.7441
3.5065,5727.43,-798.123,8565.03,-55.9097,332.637,-35.0568,4216.33,1182.21,8625.5,-6.86517,-8.55951,6.13477,304.874,9236.46,718.721,44.6152,-32.8136,259.798,-1241.21,9527.17,-1202.38,4.93415,40.4588,22.3056,-3625.9,5089.01,-2797.38,23.9476,15.7684,126.054,2032.52,-9681.74,-813.64,-17.228,-80.0744,99.7987,5820.85,-1813.72,1312.68,7.99988,13.4021,16.6635
3.507,5743.61,-788.49,8554.58,-55.7878,332.348,-33.7596,4199.51,1156.96,8653.21,-6.93813,-8.70264,6.05991,312.146,9275.19,718.402,44.7423,-32.0415,260.376,-1254.13,9534.87,-1165.61,5.0558,40.153,22.5194,-3589.26,5076.31,-2788.26,24.2255,16.3863,125.574,2071.0,-9620.01,-831.486,-16.7524,-81.4841,100.088,5860.88,-1818.86,1322.66,8.57113,13.3576,16.584
3.5075,5764.05,-790.109,8549.83,-55.6673,332.041,-32.4164,4188.11,1140.54,8681.71,-7.00385,-8.85657,5.94922,319.965,9309.04,717.532,44.8558,-31.2308,260.916,-1269.47,9544.61,-1131.95,5.1627,39.8303,22.7436,-3554.44,5067.34,-2777.19,24.5065,16.9947,125.082,2117.25,-9566.71,-855.966,-16.2431,-82.7138,100.411,5900.63,-1813.2,1330.26,9.13659,13.2883,16.505
3.508,5784.5,-791.728,8545.08,-55.5468,331.735,-31.0732,4176.71,1124.12,8710.22,-7.06957,-9.01049,5.83853,327.784,9342.9,716.663,44.9693,-30.4202,261.457,-1284.82,9554.35,-1098.28,5.2696,39.5076,22.9677,-3519.63,5058.38,-2766.12,24.7875,17.6031,124.59,2163.51,-9513.41,-880.446,-15.7338,-83.9435,100.733,5940.37,-1807.55,1337.85,9.70205,13.219,16.426
3.5085,5804.94,-793.348,8540.33,-55.4263,331.428,-29.73,4165.31,1107.69,8738.72,-7.13529,-9.16442,5.72784,335.603,9376.76,715.794,45.0829,-29.6095,261.998,-1300.16,9564.09,-1064.62,5.3765,39.185,23.1918,-3484.81,5049.42,-2755.04,25.0685,18.2115,124.097,2209.76,-9460.12,-904.926,-15.2244,-85.1732,101.055,5980.12,-1801.9,1345.45,10.2675,13.1497,16.347
3.509,5825.38,-794.967,8535.57,-55.3058,331.121,-28.3869,4153.91,1091.27,8767.22,-7.20101,-9.31835,5.61715,343.421,9410.62,714.924,45.1964,-28.7989,262.538,-1315.51,9573.83,-1030.96,5.48339,38.8623,23.4159,-3449.99,5040.45,-2743.97,25.3495,18.82,123.605,2256.02,-9406.82,-929.406,-14.7151,-86.4028,101.378,6019.87,-1796.24,1353.05,10.833,13.0804,16.268
3.5095,5845.83,-796.586,8530.82,-55.1852,330.815,-27.0437,4142.51,1074.85,8795.72,-7.26673,-9.47227,5.50646,351.24,9444.47,714.055,45.3099,-27.9882,263.079,-1330.85,9583.57,-997.294,5.59029,38.5396,23.6401,-3415.17,5031.49,-2732.9,25.6305,19.4284,123.113,2302.27,-9353.52,-953.885,-14.2058,-87.6326,101.7,6059.62,-1790.59,1360.64,11.3984,13.0111,16.189
3.51,5866.27,-798.205,8526.07,-55.0647,330.508,-25.7005,4131.11,1058.43,8824.22,-7.33245,-9.6262,5.39577,359.059,9478.33,713.185,45.4234,-27.1776,263.62,-1346.2,9593.31,-963.631,5.69719,38.217,23.8642,-3380.36,5022.52,-2721.82,25.9115,20.0368,122.621,2348.53,-9300.22,-978.365,-13.6964,-88.8622,102.023,6099.37,-1784.94,1368.24,11.9639,12.9418,16.11
3.5105,5886.71,-799.824,8521.32,-54.9442,330.201,-24.3573,4119.71,1042.01,8852.72,-7.39817,-9.78013,5.28509,366.878,9512.19,712.316,45.537,-26.3669,264.161,-1361.54,9603.05,-929.968,5.80409,37.8943,24.0883,-3345.54,5013.56,-2710.75,26.1926,20.6452,122.128,2394.79,-9246.93,-1002.84,-13.1871,-90.0919,102.345,6139.11,-1779.28,1375.84,12.5293,12.8725,16.031
3.511,5907.16,-801.443,8516.57,-54.8237,329.895,-23.0142,4108.31,1025.58,8881.22,-7.4639,-9.93406,5.1744,374.697,9546.04,711.446,45.6505,-25.5563,264.701,-1376.89,9612.79,-896.305,5.91099,37.5716,24.3125,-3310.72,5004.59,-2699.68,26.4736,21.2537,121.636,2441.04,-9193.63,-1027.32,-12.6778,-91.3216,102.667,6178.86,-1773.63,1383.44,13.0948,12.8032,15.952
3.5115,5952.5,-843.379,8526.62,-54.4863,329.698,-21.6285,4116.91,1005.15,8880.82,-7.52823,-10.0623,5.06518,378.89,9577.87,710.197,45.6925,-24.6578,265.12,-1393.24,9614.15,-870.891,6.09455,37.2126,24.5225,-3289.02,5011.4,-2682.11,26.6326,21.7523,121.196,2494.37,-9144.48,-1047.86,-12.0771,-92.0487,102.881,6209.44,-1764.8,1391.64,13.5662,12.7191,15.8623
3.512,6004.96,-896.834,8540.89,-54.0869,329.532,-20.2307,4131.23,983.559,8872.16,-7.59217,-10.1833,4.95638,382.046,9609.12,708.84,45.7142,-23.7343,265.504,-1409.87,9613.11,-847.834,6.30001,36.8431,24.7285,-3271.06,5022.71,-2662.68,26.7567,22.2195,120.771,2549.72,-9096.51,-1067.27,-11.4504,-92.6322,103.064,6237.39,-1755.07,1400.01,14.0108,12.6307,15.7696
3.5125,6057.43,-950.288,8555.16,-53.6875,329.367,-18.8329,4145.54,961.974,8863.5,-7.65611,-10.3043,4.84758,385.202,9640.36,707.482,45.7358,-22.8108,265.888,-1426.5,9612.08,-824.777,6.50547,36.4737,24.9345,-3253.1,5034.02,-2643.26,26.8809,22.6868,120.345,2605.07,-9048.55,-1086.68,-10.8236,-93.2158,103.247,6265.34,-1745.33,1408.39,14.4554,12.5424,15.6769
3.513,6109.89,-1003.74,8569.44,-53.2881,329.201,-17.4351,4159.86,940.388,8854.84,-7.72005,-10.4252,4.73878,388.358,9671.61,706.125,45.7575,-21.8872,266.272,-1443.13,9611.04,-801.721,6.71093,36.1042,25.1405,-3235.15,5045.33,-2623.84,27.005,23.154,119.92,2660.42,-9000.58,-1106.09,-10.1969,-93.7993,103.43,6293.29,-1735.6,1416.76,14.8999,12.454,15.5842
3.5135,6162.35,-1057.2,8583.71,-52.8887,329.035,-16.0373,4174.17,918.802,8846.18,-7.78399,-10.5462,4.62998,391.514,9702.86,704.767,45.7791,-20.9637,266.656,-1459.76,9610.01,-778.664,6.91639,35.7348,25.3465,-3217.19,5056.64,-2604.41,27.1292,23.6213,119.494,2715.77,-8952.62,-1125.51,-9.57011,-94.3828,103.613,6321.25,-1725.86,1425.13,15.3445,12.3657,15.4915
3.514,6214.81,-1110.65,8597.99,-52.4893,328.87,-14.6395,4188.49,897.216,8837.52,-7.84792,-10.6671,4.52118,394.671,9734.1,703.41,45.8008,-20.0402,267.04,-1476.4,9608.98,-755.607,7.12186,35.3653,25.5525,-3199.23,5067.95,-2584.99,27.2533,24.0885,119.069,2771.12,-8904.65,-1144.92,-8.94336,-94.9663,103.796,6349.2,-1716.13,1433.51,15.7891,12.2773,15.3987
3.5145,6267.27,-1164.11,8612.26,-52.0899,328.704,-13.2417,4202.8,875.63,8828.87,-7.91186,-10.7881,4.41238,397.827,9765.35,702.052,45.8224,-19.1166,267.424,-1493.03,9607.95,-732.55,7.32732,34.9958,25.7585,-3181.27,5079.26,-2565.56,27.3775,24.5558,118.644,2826.47,-8856.68,-1164.33,-8.3166,-95.5498,103.979,6377.15,-1706.39,1441.88,16.2336,12.1889,15.306
3.515,6319.73,-1217.56,8626.53,-51.6905,328.539,-11.8439,4217.12,854.045,8820.21,-7.9758,-10.9091,4.30358,400.983,9796.6,700.695,45.8441,-18.1931,267.809,-1509.66,9606.91,-709.493,7.53278,34.6264,25.9645,-3163.32,5090.57,-2546.14,27.5016,25.023,118.218,2881.82,-8808.72,-1183.74,-7.68985,-96.1333,104.162,6405.11,-1696.66,1450.26,16.6782,12.1006,15.2133
3.5155,6372.19,-1271.02,8640.81,-51.2911,328.373,-10.4461,4231.44,832.459,8811.55,-8.03974,-11.03,4.19478,404.139,9827.84,699.337,45.8657,-17.2696,268.193,-1526.29,9605.88,-686.436,7.73824,34.2569,26.1705,-3145.36,5101.88,-2526.72,27.6258,25.4902,117.793,2937.17,-8760.75,-1203.15,-7.06309,-96.7168,104.345,6433.06,-1686.93,1458.63,17.1228,12.0122,15.1206
3.516,6422.78,-1326.35,8662.64,-50.8482,328.315,-8.93219,4246.56,843.094,8797.79,-8.05042,-11.0539,4.15635,404.742,9866.1,692.071,45.8722,-16.1993,268.589,-1544.5,9635.39,-696.687,7.80416,33.7632,26.4451,-3121.99,5112.91,-2509.85,27.5533,25.9218,117.452,2991.35,-8733.42,-1216.79,-6.44158,-96.8305,104.409,6465.39,-1678.12,1452.19,17.4235,11.9756,14.9941
3.5165,6473.12,-1381.91,8685.42,-50.3999,328.27,-7.40373,4261.79,857.757,8783.39,-8.05443,-11.0656,4.12671,405.026,9905.24,684.067,45.8768,-15.1106,268.987,-1562.9,9668.71,-711.101,7.85263,33.2539,26.7282,-3097.94,5123.9,-2493.31,27.4562,26.3489,117.122,3045.38,-8708.66,-1229.7,-5.82072,-96.8855,104.457,6498.26,-1669.43,1443.91,17.7062,11.9455,14.8635
3.517,6523.47,-1437.47,8708.2,-49.9516,328.225,-5.87527,4277.02,872.42,8769.0,-8.05845,-11.0773,4.09707,405.31,9944.38,676.062,45.8814,-14.0219,269.385,-1581.3,9702.04,-725.515,7.90111,32.7446,27.0113,-3073.9,5134.88,-2476.76,27.3591,26.776,116.791,3099.41,-8683.9,-1242.62,-5.19987,-96.9405,104.505,6531.14,-1660.75,1435.62,17.989,11.9154,14.7328
3.5175,6573.82,-1493.04,8730.98,-49.5032,328.18,-4.34681,4292.24,887.083,8754.6,-8.06246,-11.089,4.06743,405.594,9983.51,668.058,45.886,-12.9332,269.783,-1599.7,9735.37,-739.93,7.94958,32.2353,27.2944,-3049.85,5145.87,-2460.22,27.2621,27.2031,116.461,3153.44,-8659.14,-1255.54,-4.57901,-96.9955,104.554,6564.01,-1652.06,1427.34,18.2717,11.8853,14.6022
3.518,6624.17,-1548.6,8753.75,-49.0549,328.135,-2.81835,4307.47,901.746,8740.2,-8.06648,-11.1007,4.03779,405.878,10022.7,660.053,45.8906,-11.8445,270.181,-1618.1,9768.69,-754.344,7.99805,31.726,27.5775,-3025.8,5156.86,-2443.68,27.165,27.6302,116.131,3207.47,-8634.38,-1268.45,-3.95815,-97.0505,104.602,6596.88,-1643.37,1419.05,18.5545,11.8552,14.4715
3.5185,6674.52,-1604.17,8776.53,-48.6066,328.09,-1.28989,4322.7,916.409,8725.81,-8.0705,-11.1124,4.00815,406.162,10061.8,652.049,45.8951,-10.7558,270.579,-1636.51,9802.02,-768.758,8.04653,31.2167,27.8606,-3001.75,5167.85,-2427.13,27.0679,28.0573,115.801,3261.49,-8609.63,-1281.37,-3.3373,-97.1055,104.65,6629.76,-1634.68,1410.76,18.8372,11.8251,14.3409
3.519,6724.87,-1659.73,8799.31,-48.1582,328.045,0.238565,4337.93,931.071,8711.41,-8.07451,-11.1241,3.97851,406.446,10100.9,644.044,45.8997,-9.66712,270.977,-1654.91,9835.35,-783.172,8.095,30.7074,28.1437,-2977.71,5178.84,-2410.59,26.9708,28.4844,115.47,3315.52,-8584.87,-1294.28,-2.71644,-97.1605,104.699,6662.63,-1626.0,1402.48,19.12,11.795,14.2102
3.5195,6775.22,-1715.29,8822.09,-47.7099,328.0,1.76702,4353.15,945.734,8697.01,-8.07853,-11.1358,3.94887,406.73,10140.1,636.04,45.9043,-8.57843,271.375,-1673.31,9868.67,-797.586,8.14348,30.1981,28.4268,-2953.66,5189.82,-2394.04,26.8737,28.9115,115.14,3369.55,-8560.11,-1307.2,-2.09558,-97.2155,104.747,6695.51,-1617.31,1394.19,19.4027,11.7648,14.0796
3.52,6825.57,-1770.86,8844.87,-47.2616,327.955,3.29548,4368.38,960.397,8682.62,-8.08255,-11.1475,3.91923,407.014,10179.2,628.036,45.9089,-7.48975,271.773,-1691.71,9902.0,-812.0,8.19195,29.6888,28.7099,-2929.61,5200.81,-2377.5,26.7766,29.3386,114.81,3423.58,-8535.35,-1320.12,-1.47473,-97.2705,104.795,6728.38,-1608.62,1385.9,19.6854,11.7347,13.9489
3.5205,6872.43,-1790.86,8874.23,-46.7107,327.894,4.78552,4384.05,979.147,8655.44,-8.18103,-11.084,4.05672,404.878,10210.5,628.194,46.0156,-6.18976,272.208,-1685.38,9890.98,-827.522,8.35398,29.1168,29.0356,-2930.65,5197.38,-2346.05,26.5998,29.6114,114.499,3474.69,-8506.78,-1332.05,-0.995198,-96.9081,104.689,6760.06,-1593.59,1377.78,19.7956,11.7486,13.8922
3.521,6919.29,-1810.87,8903.59,-46.1598,327.833,6.27555,4399.72,997.897,8628.26,-8.27951,-11.0204,4.19421,402.742,10241.7,628.353,46.1223,-4.88977,272.644,-1679.05,9879.96,-843.044,8.51601,28.5447,29.3612,-2931.68,5193.95,-2314.6,26.4231,29.8842,114.189,3525.8,-8478.21,-1343.99,-0.515669,-96.5457,104.582,6791.73,-1578.56,1369.65,19.9058,11.7625,13.8355
3.5215,6966.15,-1830.88,8932.96,-45.6089,327.772,7.76558,4415.39,1016.65,8601.09,-8.37799,-10.9569,4.3317,400.606,10273.0,628.512,46.2291,-3.58979,273.08,-1672.72,9868.94,-858.565,8.67804,27.9726,29.6869,-2932.71,5190.52,-2283.14,26.2463,30.157,113.878,3576.91,-8449.63,-1355.93,-0.0361402,-96.1833,104.476,6823.41,-1563.52,1361.52,20.016,11.7764,13.7788
3.522,7013.01,-1850.88,8962.32,-45.058,327.71,9.25561,4431.06,1035.4,8573.91,-8.47647,-10.8933,4.46919,398.47,10304.2,628.671,46.3358,-2.2898,273.515,-1666.39,9857.92,-874.087,8.84007,27.4006,30.0125,-2933.74,5187.08,-2251.69,26.0695,30.4297,113.568,3628.02,-8421.06,-1367.87,0.443389,-95.8209,104.37,6855.08,-1548.49,1353.39,20.1262,11.7902,13.7221
3.5225,7059.88,-1870.89,8991.69,-44.5071,327.649,10.7456,4446.73,1054.15,8546.74,-8.57495,-10.8298,4.60668,396.334,10335.5,628.829,46.4425,-0.989816,273.951,-1660.06,9846.9,-889.609,9.0021,26.8285,30.3382,-2934.78,5183.65,-2220.24,25.8927,30.7025,113.257,3679.13,-8392.49,-1379.81,0.922918,-95.4585,104.263,6886.76,-1533.46,1345.26,20.2364,11.8041,13.6654
3.523,7106.74,-1890.89,9021.05,-43.9562,327.588,12.2357,4462.4,1072.9,8519.56,-8.67343,-10.7663,4.74416,394.198,10366.8,628.988,46.5492,0.31017,274.386,-1653.72,9835.88,-905.131,9.16413,26.2564,30.6638,-2935.81,5180.22,-2188.79,25.7159,30.9753,112.946,3730.24,-8363.91,-1391.74,1.40245,-95.0961,104.157,6918.43,-1518.42,1337.13,20.3466,11.818,13.6086
3.5235,7153.6,-1910.9,9050.41,-43.4054,327.527,13.7257,4478.08,1091.65,8492.39,-8.77191,-10.7027,4.88165,392.062,10398.0,629.147,46.656,1.61016,274.822,-1647.39,9824.86,-920.653,9.32616,25.6843,30.9895,-2936.84,5176.79,-2157.34,25.5391,31.2481,112.636,3781.35,-8335.34,-1403.68,1.88198,-94.7337,104.051,6950.11,-1503.39,1329.0,20.4568,11.8319,13.5519
3.524,7200.46,-1930.9,9079.78,-42.8545,327.466,15.2157,4493.75,1110.4,8465.21,-8.87039,-10.6392,5.01914,389.925,10429.3,629.306,46.7627,2.91014,275.257,-1641.06,9813.84,-936.174,9.48819,25.1123,31.3151,-2937.87,5173.36,-2125.89,25.3623,31.5208,112.325,3832.46,-8306.77,-1415.62,2.3615,-94.3713,103.944,6981.78,-1488.36,1320.87,20.567,11.8457,13.4952
3.5245,7245.87,-1945.68,9108.26,-42.3235,327.403,16.7149,4505.72,1131.09,8439.44,-8.98693,-10.5688,5.16374,388.817,10460.3,630.295,46.8764,4.23081,275.678,-1636.2,9803.0,-951.373,9.65193,24.544,31.6447,-2940.53,5170.5,-2094.44,25.1758,31.7945,112.033,3883.86,-8277.12,-1427.47,2.82619,-93.9553,103.837,7012.9,-1474.03,1313.56,20.677,11.8586,13.4317
3.525,7279.6,-1918.59,9129.68,-41.9518,327.329,18.2868,4488.09,1167.29,8424.91,-9.24802,-10.4441,5.36522,395.931,10489.5,637.927,47.0466,5.7169,275.98,-1643.07,9793.66,-963.987,9.82938,24.0057,32.0055,-2956.19,5172.19,-2063.07,24.9116,32.0753,111.893,3937.63,-8238.85,-1438.59,3.17208,-93.1097,103.719,7039.58,-1465.35,1312.84,20.786,11.8632,13.3133
3.5255,7313.33,-1891.5,9151.09,-41.5801,327.255,19.8586,4470.47,1203.5,8410.38,-9.5091,-10.3194,5.56669,403.046,10518.7,645.56,47.2168,7.20299,276.282,-1649.95,9784.31,-976.601,10.0068,23.4673,32.3664,-2971.85,5173.87,-2031.7,24.6473,32.356,111.752,3991.39,-8200.59,-1449.71,3.51798,-92.2642,103.601,7066.25,-1456.66,1312.12,20.8949,11.8678,13.195
3.526,7347.07,-1864.41,9172.51,-41.2084,327.181,21.4305,4452.84,1239.71,8395.84,-9.77018,-10.1947,5.76817,410.16,10547.8,653.192,47.3869,8.68907,276.584,-1656.83,9774.96,-989.215,10.1843,22.929,32.7273,-2987.5,5175.56,-2000.33,24.3831,32.6368,111.611,4045.15,-8162.32,-1460.83,3.86388,-91.4187,103.483,7092.93,-1447.98,1311.4,21.0038,11.8724,13.0766
3.5265,7380.8,-1837.32,9193.93,-40.8367,327.107,23.0024,4435.22,1275.92,8381.31,-10.0313,-10.07,5.96964,417.274,10577.0,660.824,47.5571,10.1752,276.885,-1663.7,9765.61,-1001.83,10.3617,22.3907,33.0881,-3003.16,5177.25,-1968.95,24.1189,32.9176,111.47,4098.92,-8124.06,-1471.95,4.20977,-90.5732,103.365,7119.61,-1439.29,1310.68,21.1127,11.877,12.9582
3.527,7414.53,-1810.23,9215.35,-40.465,327.032,24.5743,4417.59,1312.13,8366.78,-10.2924,-9.94526,6.17112,424.388,10606.2,668.457,47.7272,11.6613,277.187,-1670.58,9756.26,-1014.44,10.5392,21.8524,33.449,-3018.81,5178.94,-1937.58,23.8547,33.1983,111.329,4152.68,-8085.79,-1483.07,4.55567,-89.7277,103.247,7146.28,-1430.61,1309.96,21.2216,11.8816,12.8399
3.5275,7448.27,-1783.14,9236.76,-40.0933,326.958,26.1462,4399.97,1348.34,8352.25,-10.5534,-9.82055,6.37259,431.503,10635.4,676.089,47.8974,13.1473,277.489,-1677.46,9746.91,-1027.06,10.7166,21.3141,33.8098,-3034.47,5180.63,-1906.21,23.5905,33.4791,111.188,4206.44,-8047.53,-1494.19,4.90157,-88.8822,103.13,7172.96,-1421.92,1309.24,21.3306,11.8861,12.7215
3.528,7482.0,-1756.06,9258.18,-39.7216,326.884,27.718,4382.35,1384.55,8337.72,-10.8145,-9.69583,6.57407,438.617,10664.5,683.721,48.0675,14.6334,277.791,-1684.33,9737.56,-1039.67,10.8941,20.7758,34.1707,-3050.13,5182.32,-1874.84,23.3263,33.7599,111.048,4260.21,-8009.26,-1505.32,5.24746,-88.0367,103.012,7199.63,-1413.24,1308.52,21.4395,11.8907,12.6032
3.5285,7515.73,-1728.97,9279.6,-39.3499,326.81,29.2899,4364.72,1420.76,8323.19,-11.0756,-9.57112,6.77555,445.731,10693.7,691.354,48.2377,16.1195,278.093,-1691.21,9728.21,-1052.28,11.0716,20.2375,34.5315,-3065.78,5184.0,-1843.47,23.0621,34.0406,110.907,4313.97,-7971.0,-1516.44,5.59336,-87.1912,102.894,7226.31,-1404.56,1307.79,21.5484,11.8953,12.4848
3.529,7545.16,-1702.61,9300.37,-39.0023,326.712,30.8474,4349.45,1460.22,8308.95,-11.3521,-9.42999,6.98205,453.209,10723.9,698.79,48.3983,17.6256,278.383,-1704.08,9722.36,-1069.47,11.2617,19.6689,34.8995,-3082.38,5186.64,-1814.44,22.7694,34.3395,110.783,4369.03,-7933.67,-1528.01,5.88459,-86.2378,102.781,7251.22,-1390.63,1305.26,21.6713,11.901,12.3574
3.5295,7559.49,-1678.84,9318.88,-38.7388,326.527,32.3544,4342.43,1511.06,8295.74,-11.6826,-9.23143,7.20617,461.957,10757.6,705.538,48.5252,19.2017,278.633,-1737.93,9728.75,-1102.63,11.4962,18.9942,35.2925,-3102.29,5192.6,-1793.64,22.3771,34.7018,110.719,4428.62,-7899.6,-1541.15,5.9845,-84.9066,102.685,7269.96,-1358.34,1296.38,21.8431,11.9104,12.198
3.53,7573.82,-1655.06,9337.38,-38.4753,326.343,33.8615,4335.4,1561.9,8282.53,-12.0132,-9.03287,7.43029,470.706,10791.3,712.287,48.6522,20.7778,278.883,-1771.79,9735.15,-1135.79,11.7306,18.3195,35.6854,-3122.19,5198.55,-1772.83,21.9848,35.064,110.654,4488.2,-7865.53,-1554.29,6.08441,-83.5754,102.589,7288.69,-1326.05,1287.5,22.0149,11.9199,12.0387
3.5305,7588.15,-1631.28,9355.89,-38.2117,326.158,35.3685,4328.37,1612.74,8269.32,-12.3437,-8.8343,7.65441,479.454,10824.9,719.035,48.7791,22.3539,279.133,-1805.64,9741.54,-1168.96,11.9651,17.6448,36.0784,-3142.09,5204.5,-1752.03,21.5925,35.4263,110.59,4547.79,-7831.47,-1567.42,6.18433,-82.2442,102.493,7307.42,-1293.76,1278.61,22.1867,11.9293,11.8794
3.531,7602.48,-1607.51,9374.39,-37.9482,325.974,36.8756,4321.35,1663.58,8256.11,-12.6742,-8.63574,7.87852,488.203,10858.6,725.784,48.9061,23.93,279.383,-1839.49,9747.93,-1202.12,12.1996,16.9701,36.4713,-3161.99,5210.46,-1731.23,21.2003,35.7886,110.525,4607.38,-7797.4,-1580.56,6.28424,-80.913,102.398,7326.16,-1261.48,1269.73,22.3584,11.9387,11.7201
3.5315,7616.82,-1583.73,9392.9,-37.6847,325.79,38.3826,4314.32,1714.42,8242.9,-13.0047,-8.43718,8.10264,496.952,10892.3,732.532,49.033,25.5061,279.633,-1873.34,9754.32,-1235.28,12.4341,16.2954,36.8643,-3181.9,5216.41,-1710.42,20.808,36.1508,110.461,4666.97,-7763.34,-1593.7,6.38415,-79.5818,102.302,7344.89,-1229.19,1260.85,22.5302,11.9482,11.5608
3.532,7631.15,-1559.95,9411.4,-37.4212,325.605,39.8896,4307.29,1765.26,8229.69,-13.3352,-8.23861,8.32676,505.7,10926.0,739.281,49.16,27.0822,279.883,-1907.2,9760.72,-1268.45,12.6686,15.6207,37.2572,-3201.8,5222.37,-1689.62,20.4157,36.5131,110.396,4726.55,-7729.27,-1606.84,6.48406,-78.2506,102.206,7363.62,-1196.9,1251.97,22.702,11.9576,11.4015
3.5325,7645.48,-1536.18,9429.91,-37.1577,325.421,41.3967,4300.27,1816.1,8216.48,-13.6657,-8.04005,8.55088,514.449,10959.7,746.03,49.2869,28.6583,280.133,-1941.05,9767.11,-1301.61,12.9031,14.946,37.6501,-3221.7,5228.32,-1668.81,20.0234,36.8754,110.332,4786.14,-7695.21,-1619.98,6.58397,-76.9194,102.11,7382.36,-1164.61,1243.08,22.8738,11.967,11.2421
3.533,7659.81,-1512.4,9448.42,-36.8942,325.236,42.9037,4293.24,1866.94,8203.27,-13.9963,-7.84148,8.77499,523.198,10993.4,752.778,49.4139,30.2345,280.383,-1974.9,9773.5,-1334.78,13.1375,14.2713,38.0431,-3241.6,5234.28,-1648.01,19.6311,37.2376,110.268,4845.73,-7661.14,-1633.12,6.68388,-75.5882,102.014,7401.09,-1132.33,1234.2,23.0456,11.9765,11.0828
3.5335,7667.0,-1485.43,9463.5,-36.6247,325.016,44.4372,4284.84,1907.46,8187.3,-14.3776,-7.62281,8.98955,525.327,11030.3,760.348,49.5107,31.8178,280.628,-2004.59,9780.28,-1357.88,13.3096,13.5252,38.4517,-3259.73,5239.0,-1629.45,19.2188,37.643,110.238,4899.92,-7631.59,-1648.96,6.66705,-74.0899,101.904,7411.02,-1104.88,1225.18,23.2449,11.9698,10.9098
3.534,7659.88,-1452.08,9471.74,-36.3432,324.725,46.0236,4273.67,1927.36,8165.8,-14.8606,-7.36392,9.18497,514.22,11073.7,769.56,49.5474,33.4158,280.863,-2025.95,9787.84,-1360.86,13.3567,12.6363,38.8917,-3274.32,5241.27,-1615.38,18.7663,38.1347,110.279,4943.31,-7611.05,-1670.2,6.41675,-72.2576,101.765,7403.34,-1087.13,1215.87,23.4993,11.931,10.7092
3.5345,7652.77,-1418.72,9479.99,-36.0618,324.434,47.6101,4262.51,1947.25,8144.3,-15.3436,-7.10502,9.3804,503.112,11117.0,778.772,49.5841,35.0137,281.099,-2047.31,9795.4,-1363.83,13.4038,11.7474,39.3317,-3288.9,5243.54,-1601.31,18.3139,38.6264,110.32,4986.7,-7590.51,-1691.44,6.16644,-70.4253,101.627,7395.65,-1069.38,1206.56,23.7537,11.8922,10.5087
3.535,7645.66,-1385.37,9488.23,-35.7803,324.143,49.1965,4251.34,1967.14,8122.8,-15.8265,-6.84613,9.57583,492.005,11160.4,787.984,49.6208,36.6116,281.334,-2068.67,9802.96,-1366.81,13.4509,10.8584,39.7717,-3303.48,5245.81,-1587.24,17.8614,39.1181,110.361,5030.09,-7569.97,-1712.68,5.91614,-68.593,101.488,7387.97,-1051.63,1197.25,24.0081,11.8534,10.3081
3.5355,7638.55,-1352.01,9496.47,-35.4988,323.851,50.783,4240.18,1987.04,8101.31,-16.3095,-6.58724,9.77125,480.897,11203.8,797.196,49.6575,38.2096,281.57,-2090.03,9810.52,-1369.79,13.498,9.96948,40.2117,-3318.06,5248.08,-1573.17,17.409,39.6098,110.401,5073.48,-7549.43,-1733.92,5.66583,-66.7606,101.349,7380.29,-1033.87,1187.94,24.2625,11.8146,10.1076
3.536,7631.43,-1318.66,9504.71,-35.2174,323.56,52.3694,4229.01,2006.93,8079.81,-16.7925,-6.32834,9.96668,469.789,11247.2,806.408,49.6942,39.8075,281.805,-2111.39,9818.08,-1372.77,13.5452,9.08054,40.6517,-3332.65,5250.35,-1559.11,16.9565,40.1015,110.442,5116.87,-7528.89,-1755.16,5.41553,-64.9283,101.21,7372.6,-1016.12,1178.63,24.5169,11.7757,9.90702
3.5365,7624.32,-1285.31,9512.96,-34.9359,323.269,53.9558,4217.85,2026.82,8058.31,-17.2755,-6.06945,10.1621,458.682,11290.6,815.62,49.7309,41.4054,282.041,-2132.75,9825.64,-1375.75,13.5923,8.1916,41.0917,-3347.23,5252.62,-1545.04,16.5041,40.5932,110.483,5160.26,-7508.35,-1776.41,5.16523,-63.096,101.071,7364.92,-998.367,1169.32,24.7713,11.7369,9.70647
3.537,7617.21,-1251.95,9521.2,-34.6545,322.978,55.5423,4206.68,2046.72,8036.81,-17.7584,-5.81056,10.3575,447.574,11334.0,824.831,49.7676,43.0034,282.276,-2154.1,9833.2,-1378.73,13.6394,7.30267,41.5317,-3361.81,5254.89,-1530.97,16.0517,41.0849,110.524,5203.65,-7487.81,-1797.65,4.91492,-61.2636,100.933,7357.23,-980.614,1160.02,25.0257,11.6981,9.50592
3.5375,7610.1,-1218.6,9529.44,-34.373,322.686,57.1287,4195.52,2066.61,8015.31,-18.2414,-5.55166,10.553,436.467,11377.3,834.043,49.8043,44.6013,282.511,-2175.46,9840.76,-1381.71,13.6865,6.41373,41.9717,-3376.39,5257.15,-1516.9,15.5992,41.5766,110.564,5247.04,-7467.28,-1818.89,4.66462,-59.4313,100.794,7349.55,-962.861,1150.71,25.2801,11.6593,9.30537
3.538,7617.66,-1202.25,9547.67,-34.0485,322.388,58.7745,4197.88,2082.93,8006.03,-18.7232,-5.26544,10.7347,428.482,11424.2,841.845,49.7798,46.213,282.749,-2181.28,9843.33,-1390.74,13.7267,5.51602,42.4043,-3390.09,5266.37,-1500.14,15.1495,42.1782,110.597,5283.58,-7449.45,-1840.57,4.26747,-57.472,100.717,7339.16,-939.213,1144.01,25.563,11.6186,9.10824
3.5385,7643.58,-1207.15,9578.39,-33.6702,322.081,60.4944,4217.16,2094.78,8012.02,-19.2036,-4.94507,10.8994,424.401,11475.4,847.884,49.679,47.8419,282.99,-2167.66,9839.68,-1407.35,13.7583,4.60735,42.8278,-3402.67,5284.25,-1480.02,14.7031,42.9171,110.62,5311.58,-7435.0,-1862.81,3.68676,-55.3539,100.718,7325.39,-908.195,1140.59,25.8816,11.5756,8.91539
3.539,7669.5,-1212.05,9609.11,-33.2919,321.774,62.2144,4236.44,2106.63,8018.0,-19.684,-4.62469,11.0641,420.32,11526.6,853.923,49.5782,49.4708,283.231,-2154.04,9836.02,-1423.96,13.7899,3.69868,43.2513,-3415.26,5302.14,-1459.91,14.2567,43.6561,110.642,5339.57,-7420.56,-1885.05,3.10606,-53.2358,100.719,7311.62,-877.177,1137.16,26.2001,11.5326,8.72253
3.5395,7695.42,-1216.95,9639.82,-32.9136,321.466,63.9343,4255.71,2118.49,8023.99,-20.1643,-4.30431,11.2287,416.239,11577.8,859.961,49.4773,51.0997,283.471,-2140.42,9832.37,-1440.57,13.8214,2.79,43.6748,-3427.84,5320.03,-1439.79,13.8103,44.3951,110.665,5367.56,-7406.12,-1907.29,2.52535,-51.1177,100.72,7297.85,-846.159,1133.74,26.5186,11.4897,8.52968
3.54,7721.33,-1221.85,9670.54,-32.5352,321.159,65.6543,4274.99,2130.34,8029.98,-20.6447,-3.98393,11.3934,412.157,11629.0,866.0,49.3765,52.7286,283.712,-2126.8,9828.71,-1457.18,13.853,1.88133,44.0983,-3440.43,5337.92,-1419.67,13.3639,45.134,110.687,5395.56,-7391.68,-1929.52,1.94465,-48.9996,100.721,7284.08,-815.141,1130.32,26.8372,11.4467,8.33683
3.5405,7747.25,-1226.75,9701.25,-32.1569,320.852,67.3743,4294.27,2142.19,8035.97,-21.1251,-3.66356,11.5581,408.076,11680.2,872.039,49.2757,54.3576,283.953,-2113.18,9825.06,-1473.79,13.8846,0.972658,44.5217,-3453.01,5355.81,-1399.55,12.9175,45.873,110.71,5423.55,-7377.23,-1951.76,1.36394,-46.8815,100.722,7270.31,-784.123,1126.89,27.1557,11.4037,8.14398
3.541,7773.17,-1231.66,9731.97,-31.7786,320.545,69.0942,4313.55,2154.04,8041.96,-21.6055,-3.34318,11.7227,403.995,11731.4,878.078,49.1749,55.9865,284.194,-2099.56,9821.41,-1490.4,13.9161,0.0639858,44.9452,-3465.6,5373.7,-1379.44,12.4711,46.612,110.733,5451.54,-7362.79,-1974.0,0.783239,-44.7635,100.723,7256.54,-753.105,1123.47,27.4742,11.3607,7.95113
3.5415,7799.08,-1236.56,9762.68,-31.4003,320.238,70.8142,4332.82,2165.89,8047.95,-22.0858,-3.0228,11.8874,399.914,11782.6,884.116,49.074,57.6154,284.434,-2085.94,9817.75,-1507.01,13.9477,-0.844687,45.3687,-3478.18,5391.59,-1359.32,12.0248,47.3509,110.755,5479.54,-7348.35,-1996.24,0.202535,-42.6454,100.724,7242.78,-722.087,1120.04,27.7928,11.3177,7.75827
3.542,7825.0,-1241.46,9793.4,-31.022,319.93,72.5341,4352.1,2177.75,8053.94,-22.5662,-2.70242,12.0521,395.833,11833.8,890.155,48.9732,59.2443,284.675,-2072.32,9814.1,-1523.61,13.9793,-1.75336,45.7922,-3490.76,5409.47,-1339.2,11.5784,48.0899,110.778,5507.53,-7333.91,-2018.48,-0.37817,-40.5273,100.725,7229.01,-691.069,1116.62,28.1113,11.2747,7.56542
3.5425,7849.19,-1239.06,9818.92,-30.5877,319.591,74.197,4367.15,2183.26,8049.32,-23.0664,-2.30633,12.2388,392.16,11877.1,899.485,48.8225,60.8301,284.906,-2061.2,9803.91,-1555.2,13.9868,-2.61855,46.2024,-3494.48,5421.45,-1324.47,11.1514,48.8913,110.825,5522.03,-7332.87,-2026.86,-1.10708,-38.4035,100.796,7213.43,-659.804,1113.54,28.4105,11.176,7.40966
3.543,7871.98,-1230.83,9840.3,-30.1085,319.227,75.8143,4378.82,2183.7,8036.23,-23.5826,-1.84967,12.4433,388.814,11914.1,911.447,48.6319,62.3814,285.129,-2052.07,9788.49,-1598.78,13.9751,-3.44896,46.6019,-3491.11,5428.69,-1314.05,10.7401,49.7426,110.893,5525.75,-7342.55,-2024.16,-1.95457,-36.2752,100.924,7196.42,-628.34,1110.75,28.6941,11.0326,7.28357
3.5435,7894.78,-1222.59,9861.67,-29.6294,318.862,77.4316,4390.49,2184.14,8023.14,-24.0987,-1.39302,12.6478,385.468,11951.1,923.41,48.4412,63.9327,285.351,-2042.94,9773.07,-1642.35,13.9633,-4.27937,47.0014,-3487.74,5435.93,-1303.63,10.3287,50.5939,110.96,5529.46,-7352.24,-2021.46,-2.80205,-34.1469,101.052,7179.4,-596.876,1107.95,28.9778,10.8893,7.15748
3.544,7917.57,-1214.35,9883.04,-29.1502,318.498,79.0488,4402.16,2184.57,8010.04,-24.6149,-0.936357,12.8522,382.121,11988.0,935.372,48.2506,65.484,285.574,-2033.82,9757.65,-1685.93,13.9516,-5.10978,47.4009,-3484.37,5443.18,-1293.21,9.91732,51.4453,111.028,5533.17,-7361.92,-2018.77,-3.64954,-32.0186,101.18,7162.38,-565.412,1105.16,29.2615,10.746,7.0314
3.5445,7940.37,-1206.11,9904.41,-28.6711,318.133,80.6661,4413.83,2185.01,7996.95,-25.131,-0.479698,13.0567,378.775,12025.0,947.334,48.06,67.0353,285.797,-2024.69,9742.22,-1729.5,13.9399,-5.94019,47.8004,-3481.0,5450.42,-1282.8,9.50595,52.2966,111.096,5536.88,-7371.61,-2016.07,-4.49702,-29.8903,101.308,7145.37,-533.949,1102.36,29.5452,10.6027,6.90531
3.545,7963.16,-1197.88,9925.78,-28.1919,317.769,82.2834,4425.5,2185.45,7983.85,-25.6472,-0.0230394,13.2612,375.429,12062.0,959.297,47.8694,68.5867,286.02,-2015.56,9726.8,-1773.08,13.9282,-6.7706,48.2,-3477.63,5457.66,-1272.38,9.09458,53.1479,111.163,5540.6,-7381.29,-2013.37,-5.3445,-27.762,101.436,7128.35,-502.485,1099.56,29.8288,10.4593,6.77922
3.5455,7985.96,-1189.64,9947.16,-27.7128,317.404,83.9007,4437.17,2185.89,7970.76,-26.1633,0.433619,13.4656,372.083,12099.0,971.259,47.6788,70.138,286.242,-2006.43,9711.38,-1816.65,13.9164,-7.60101,48.5995,-3474.26,5464.91,-1261.96,8.6832,53.9992,111.231,5544.31,-7390.98,-2010.67,-6.19199,-25.6336,101.564,7111.34,-471.021,1096.77,30.1125,10.316,6.65313
3.546,8008.75,-1181.4,9968.53,-27.2336,317.04,85.5179,4448.84,2186.33,7957.67,-26.6794,0.890278,13.6701,368.737,12136.0,983.221,47.4882,71.6893,286.465,-1997.3,9695.96,-1860.23,13.9047,-8.43141,48.999,-3470.89,5472.15,-1251.54,8.27183,54.8506,111.299,5548.02,-7400.66,-2007.97,-7.03947,-23.5053,101.692,7094.32,-439.557,1093.97,30.3962,10.1727,6.52704
3.5465,8031.55,-1173.17,9989.9,-26.7545,316.675,87.1352,4460.51,2186.77,7944.57,-27.1956,1.34694,13.8746,365.39,12172.9,995.184,47.2976,73.2406,286.688,-1988.18,9680.54,-1903.8,13.893,-9.26182,49.3985,-3467.52,5479.39,-1241.12,7.86046,55.7019,111.366,5551.73,-7410.35,-2005.27,-7.88695,-21.377,101.82,7077.3,-408.093,1091.18,30.6799,10.0294,6.40096
3.547,8047.61,-1169.03,10008.1,-26.2424,316.339,88.7412,4475.51,2178.6,7940.96,-27.7033,1.80335,14.0973,342.512,12217.7,1011.63,47.0755,74.7023,286.887,-1954.23,9681.15,-1939.79,13.798,-9.90577,49.7721,-3459.73,5480.03,-1233.65,7.46773,56.604,111.39,5541.42,-7440.34,-1993.47,-8.79323,-19.4482,101.917,7049.49,-383.388,1092.52,30.8299,9.89678,6.24611
3.5475,8060.29,-1166.94,10024.8,-25.7139,316.018,90.3417,4492.17,2166.12,7942.09,-28.2069,2.25965,14.3291,309.869,12266.4,1030.32,46.8377,76.1192,287.073,-1907.88,9689.77,-1971.99,13.6614,-10.4565,50.1328,-3449.73,5477.36,-1227.66,7.08433,57.5316,111.393,5524.11,-7480.49,-1977.13,-9.72889,-17.6192,101.999,7016.27,-362.063,1095.94,30.9132,9.76958,6.07687
3.548,8072.98,-1164.85,10041.4,-25.1855,315.696,91.9421,4508.83,2153.65,7943.22,-28.7105,2.71595,14.561,277.225,12315.1,1049.02,46.5998,77.5362,287.26,-1861.53,9698.39,-2004.18,13.5248,-11.0072,50.4935,-3439.73,5474.7,-1221.66,6.70093,58.4591,111.395,5506.79,-7520.64,-1960.78,-10.6646,-15.7902,102.081,6983.06,-340.738,1099.36,30.9964,9.64238,5.90764
3.5485,8085.67,-1162.75,10058.0,-24.657,315.374,93.5425,4525.49,2141.17,7944.35,-29.214,3.17224,14.7928,244.581,12363.8,1067.71,46.362,78.9531,287.447,-1815.18,9707.0,-2036.38,13.3882,-11.5579,50.8542,-3429.73,5472.03,-1215.67,6.31752,59.3866,111.397,5489.47,-7560.79,-1944.44,-11.6002,-13.9611,102.163,6949.84,-319.412,1102.78,31.0797,9.51518,5.73841
3.549,8098.36,-1160.66,10074.7,-24.1285,315.052,95.143,4542.16,2128.7,7945.48,-29.7176,3.62854,15.0246,211.937,12412.5,1086.4,46.1242,80.37,287.633,-1768.82,9715.62,-2068.57,13.2516,-12.1086,51.2148,-3419.72,5469.36,-1209.67,5.93412,60.3141,111.399,5472.15,-7600.94,-1928.09,-12.5359,-12.1321,102.245,6916.63,-298.087,1106.2,31.1629,9.38797,5.56918
3.5495,8111.05,-1158.57,10091.3,-23.6,314.73,96.7434,4558.82,2116.22,7946.61,-30.2211,4.08483,15.2565,179.294,12461.2,1105.09,45.8864,81.787,287.82,-1722.47,9724.24,-2100.77,13.115,-12.6593,51.5755,-3409.72,5466.7,-1203.68,5.55071,61.2417,111.402,5454.83,-7641.09,-1911.75,-13.4715,-10.3031,102.326,6883.41,-276.761,1109.62,31.2462,9.26077,5.39995
3.55,8123.74,-1156.48,10108.0,-23.0715,314.408,98.3438,4575.48,2103.75,7947.74,-30.7247,4.54113,15.4883,146.65,12509.9,1123.78,45.6486,83.2039,288.007,-1676.12,9732.86,-2132.96,12.9784,-13.21,51.9362,-3399.72,5464.03,-1197.68,5.16731,62.1692,111.404,5437.51,-7681.24,-1895.4,-14.4072,-8.47402,102.408,6850.2,-255.436,1113.04,31.3294,9.13357,5.23072
3.5505,8136.42,-1154.39,10124.6,-22.5431,314.086,99.9442,4592.14,2091.28,7948.87,-31.2283,4.99743,15.7201,114.006,12558.6,1142.47,45.4107,84.6208,288.193,-1629.77,9741.48,-2165.16,12.8418,-13.7607,52.2969,-3389.72,5461.37,-1191.69,4.78391,63.0967,111.406,5420.19,-7721.39,-1879.05,-15.3429,-6.64499,102.49,6816.98,-234.111,1116.45,31.4127,9.00637,5.06149
3.551,8149.11,-1152.3,10141.3,-22.0146,313.764,101.545,4608.8,2078.8,7950.0,-31.7318,5.45372,15.9519,81.3622,12607.3,1161.16,45.1729,86.0377,288.38,-1583.41,9750.1,-2197.35,12.7052,-14.3114,52.6575,-3379.72,5458.7,-1185.69,4.4005,64.0243,111.409,5402.87,-7761.54,-1862.71,-16.2785,-4.81595,102.572,6783.77,-212.785,1119.87,31.4959,8.87916,4.89226
3.5515,8174.86,-1119.42,10171.2,-21.4615,313.527,103.03,4618.78,2065.32,7952.37,-32.1419,5.83349,16.1956,47.0699,12663.0,1175.2,44.9164,87.3642,288.568,-1524.76,9723.68,-2234.26,12.552,-14.6569,53.0401,-3361.02,5450.56,-1182.46,4.12287,65.0399,111.344,5369.5,-7817.62,-1848.01,-17.0202,-3.44103,102.613,6741.04,-201.294,1121.26,31.4223,8.81741,4.72728
3.552,8204.34,-1077.75,10205.0,-20.9013,313.314,104.483,4626.85,2051.55,7955.08,-32.5252,6.1914,16.4426,12.3067,12720.7,1187.9,44.6544,88.6648,288.756,-1462.6,9687.25,-2272.51,12.3941,-14.9437,53.429,-3339.84,5440.85,-1180.02,3.87546,66.0807,111.261,5331.55,-7878.25,-1833.79,-17.7065,-2.19585,102.643,6695.6,-192.613,1122.06,31.304,8.77436,4.56351
3.5525,8233.82,-1036.07,10238.7,-20.3411,313.1,105.935,4634.92,2037.78,7957.8,-32.9085,6.5493,16.6896,-22.4565,12778.4,1200.59,44.3925,89.9655,288.945,-1400.43,9650.82,-2310.77,12.2362,-15.2306,53.8179,-3318.66,5431.14,-1177.58,3.62804,67.1215,111.178,5293.59,-7938.88,-1819.57,-18.3927,-0.950669,102.672,6650.15,-183.932,1122.86,31.1857,8.73131,4.39974
3.553,8263.29,-994.401,10272.5,-19.781,312.887,107.388,4642.99,2024.01,7960.52,-33.2918,6.90721,16.9367,-57.2197,12836.1,1213.29,44.1306,91.2661,289.133,-1338.27,9614.4,-2349.02,12.0784,-15.5174,54.2068,-3297.48,5421.44,-1175.14,3.38063,68.1623,111.095,5255.64,-7999.51,-1805.35,-19.079,0.294511,102.701,6604.71,-175.25,1123.66,31.0673,8.68825,4.23597
3.5535,8292.77,-952.728,10306.3,-19.2208,312.674,108.84,4651.05,2010.24,7963.24,-33.6751,7.26511,17.1837,-91.983,12893.8,1225.99,43.8687,92.5667,289.322,-1276.11,9577.97,-2387.28,11.9205,-15.8042,54.5957,-3276.3,5411.73,-1172.7,3.13321,69.203,111.012,5217.68,-8060.14,-1791.12,-19.7652,1.53969,102.731,6559.27,-166.569,1124.46,30.949,8.6452,4.0722
3.554,8322.25,-911.055,10340.0,-18.6607,312.46,110.293,4659.12,1996.47,7965.96,-34.0584,7.62302,17.4307,-126.746,12951.5,1238.69,43.6068,93.8674,289.51,-1213.94,9541.54,-2425.53,11.7626,-16.091,54.9846,-3255.12,5402.02,-1170.26,2.8858,70.2438,110.929,5179.73,-8120.77,-1776.9,-20.4515,2.78487,102.76,6513.82,-157.888,1125.26,30.8306,8.60215,3.90844
3.5545,8351.73,-869.382,10373.8,-18.1005,312.247,111.746,4667.19,1982.7,7968.68,-34.4417,7.98093,17.6778,-161.509,13009.2,1251.39,43.3448,95.168,289.699,-1151.78,9505.12,-2463.79,11.6047,-16.3779,55.3734,-3233.94,5392.31,-1167.82,2.63839,71.2846,110.846,5141.77,-8181.4,-1762.68,-21.1378,4.03005,102.79,6468.38,-149.207,1126.07,30.7123,8.5591,3.74467
3.555,8381.21,-827.708,10407.5,-17.5404,312.034,113.198,4675.26,1968.93,7971.4,-34.8251,8.33883,17.9248,-196.273,13066.9,1264.09,43.0829,96.4686,289.887,-1089.61,9468.69,-2502.04,11.4468,-16.6647,55.7623,-3212.76,5382.6,-1165.38,2.39097,72.3254,110.763,5103.82,-8242.04,-1748.46,-21.824,5.27523,102.819,6422.94,-140.525,1126.87,30.5939,8.51604,3.5809
3.5555,8410.69,-786.035,10441.3,-16.9802,311.821,114.651,4683.33,1955.16,7974.12,-35.2084,8.69674,18.1718,-231.036,13124.6,1276.79,42.821,97.7693,290.075,-1027.45,9432.26,-2540.29,11.2889,-16.9515,56.1512,-3191.58,5372.9,-1162.94,2.14356,73.3662,110.68,5065.86,-8302.67,-1734.23,-22.5103,6.52041,102.849,6377.49,-131.844,1127.67,30.4756,8.47299,3.41713
3.556,8437.29,-749.495,10494.9,-16.5758,311.635,115.906,4688.72,1923.66,8009.29,-35.4675,8.92935,18.3483,-275.653,13170.0,1276.16,42.5625,98.928,290.273,-946.44,9411.79,-2557.22,11.126,-17.0238,56.3556,-3167.45,5367.99,-1171.91,2.03025,74.3329,110.538,5012.2,-8380.47,-1735.76,-22.8717,7.33656,102.739,6354.33,-109.969,1129.31,30.3327,8.37632,3.26783
3.5565,8463.54,-713.597,10550.9,-16.1908,311.453,117.137,4693.79,1889.95,8048.52,-35.711,9.14631,18.5161,-321.501,13213.7,1273.86,42.3045,100.069,290.471,-863.079,9393.32,-2571.47,10.9625,-17.0693,56.5369,-3142.95,5363.68,-1182.31,1.9337,75.2904,110.388,4956.57,-8460.43,-1739.25,-23.1925,8.09909,102.613,6333.94,-86.4444,1131.05,30.1869,8.27296,3.12034
3.557,8489.79,-677.699,10607.0,-15.8059,311.271,118.368,4698.85,1856.23,8087.75,-35.9546,9.36326,18.6838,-367.35,13257.5,1271.56,42.0465,101.21,290.67,-779.718,9374.84,-2585.73,10.799,-17.1147,56.7182,-3118.46,5359.37,-1192.71,1.83714,76.2478,110.238,4900.95,-8540.38,-1742.74,-23.5133,8.86162,102.486,6313.56,-62.9198,1132.8,30.041,8.16959,2.97285
3.5575,8516.04,-641.801,10663.1,-15.4209,311.089,119.599,4703.92,1822.51,8126.98,-36.1982,9.58022,18.8515,-413.198,13301.3,1269.27,41.7885,102.351,290.868,-696.357,9356.36,-2599.98,10.6355,-17.1602,56.8995,-3093.96,5355.06,-1203.11,1.74059,77.2053,110.089,4845.32,-8620.34,-1746.24,-23.8341,9.62414,102.36,6293.17,-39.3953,1134.54,29.8951,8.06623,2.82536
3.558,8542.29,-605.902,10719.1,-15.0359,310.907,120.83,4708.98,1788.79,8166.21,-36.4417,9.79717,19.0192,-459.046,13345.0,1266.97,41.5305,103.492,291.066,-612.995,9337.88,-2614.24,10.472,-17.2057,57.0809,-3069.47,5350.75,-1213.52,1.64404,78.1627,109.939,4789.7,-8700.29,-1749.73,-24.155,10.3867,102.234,6272.79,-15.8707,1136.29,29.7492,7.96286,2.67787
3.5585,8568.53,-570.004,10775.2,-14.651,310.724,122.061,4714.04,1755.08,8205.44,-36.6853,10.0141,19.187,-504.895,13388.8,1264.67,41.2725,104.633,291.265,-529.634,9319.41,-2628.49,10.3085,-17.2511,57.2622,-3044.97,5346.44,-1223.92,1.54749,79.1202,109.79,4734.07,-8780.25,-1753.22,-24.4758,11.1492,102.107,6252.41,7.65383,1138.03,29.6033,7.85949,2.53038
3.559,8594.78,-534.106,10831.2,-14.266,310.542,123.291,4719.11,1721.36,8244.67,-36.9289,10.2311,19.3547,-550.743,13432.6,1262.37,41.0145,105.774,291.463,-446.273,9300.93,-2642.75,10.145,-17.2966,57.4435,-3020.47,5342.14,-1234.32,1.45094,80.0777,109.64,4678.45,-8860.21,-1756.72,-24.7966,11.9117,101.981,6232.02,31.1784,1139.78,29.4574,7.75613,2.38289
3.5595,8621.03,-498.208,10887.3,-13.8811,310.36,124.522,4724.17,1687.64,8283.9,-37.1724,10.448,19.5224,-596.592,13476.3,1260.07,40.7564,106.915,291.662,-362.911,9282.45,-2657.0,9.98144,-17.3421,57.6248,-2995.98,5337.83,-1244.72,1.35439,81.0351,109.49,4622.82,-8940.16,-1760.21,-25.1174,12.6742,101.854,6211.64,54.7029,1141.52,29.3115,7.65276,2.2354
3.56,8647.28,-462.31,10943.4,-13.4961,310.178,125.753,4729.23,1653.93,8323.13,-37.416,10.665,19.6901,-642.44,13520.1,1257.78,40.4984,108.056,291.86,-279.55,9263.97,-2671.26,9.81792,-17.3876,57.8062,-2971.48,5333.52,-1255.12,1.25784,81.9926,109.341,4567.2,-9020.12,-1763.7,-25.4382,13.4368,101.728,6191.25,78.2275,1143.27,29.1656,7.54939,2.08791
3.5605,8694.61,-407.007,10973.9,-13.2202,310.107,127.006,4735.05,1614.57,8334.2,-37.4609,10.7234,19.7895,-709.044,13552.2,1253.43,40.1442,108.954,292.115,-225.016,9253.7,-2663.52,9.70406,-17.2962,57.9404,-2943.34,5319.77,-1263.12,1.32679,82.8728,109.128,4511.05,-9082.39,-1782.28,-25.4095,13.9142,101.348,6152.85,72.0357,1152.15,28.9745,7.38093,2.005
3.561,8741.94,-351.704,11004.5,-12.9444,310.035,128.259,4740.87,1575.22,8345.26,-37.5058,10.7819,19.8888,-775.649,13584.3,1249.08,39.79,109.852,292.37,-170.482,9243.43,-2655.77,9.59019,-17.2049,58.0747,-2915.2,5306.02,-1271.13,1.39575,83.753,108.915,4454.9,-9144.67,-1800.85,-25.3807,14.3916,100.967,6114.45,65.8439,1161.03,28.7834,7.21246,1.92209
3.5615,8789.27,-296.402,11035.0,-12.6686,309.963,129.512,4746.68,1535.87,8356.32,-37.5507,10.8403,19.9882,-842.253,13616.4,1244.73,39.4357,110.75,292.625,-115.947,9233.15,-2648.03,9.47633,-17.1135,58.209,-2887.05,5292.27,-1279.13,1.4647,84.6332,108.701,4398.76,-9206.95,-1819.43,-25.3519,14.869,100.587,6076.04,59.6521,1169.92,28.5923,7.04399,1.83918
3.562,8836.6,-241.099,11065.6,-12.3927,309.892,130.765,4752.5,1496.52,8367.39,-37.5956,10.8987,20.0876,-908.857,13648.6,1240.38,39.0815,111.647,292.879,-61.4133,9222.88,-2640.28,9.36246,-17.0222,58.3433,-2858.91,5278.52,-1287.13,1.53366,85.5134,108.488,4342.61,-9269.23,-1838.0,-25.3232,15.3464,100.207,6037.64,53.4603,1178.8,28.4012,6.87553,1.75626
3.5625,8883.93,-185.796,11096.1,-12.1169,309.82,132.019,4758.31,1457.17,8378.45,-37.6405,10.9572,20.1869,-975.462,13680.7,1236.03,38.7273,112.545,293.134,-6.8791,9212.61,-2632.54,9.2486,-16.9308,58.4775,-2830.77,5264.76,-1295.14,1.60261,86.3937,108.275,4286.46,-9331.51,-1856.58,-25.2944,15.8238,99.8271,5999.23,47.2685,1187.68,28.2101,6.70706,1.67335
3.563,8931.26,-130.493,11126.7,-11.841,309.748,133.272,4764.13,1417.82,8389.52,-37.6854,11.0156,20.2863,-1042.07,13712.8,1231.68,38.373,113.443,293.389,47.6551,9202.33,-2624.79,9.13473,-16.8395,58.6118,-2802.63,5251.01,-1303.14,1.67157,87.2739,108.062,4230.32,-9393.79,-1875.15,-25.2656,16.3012,99.447,5960.83,41.0767,1196.56,28.019,6.53859,1.59044
3.5635,8978.6,-75.1907,11157.2,-11.5652,309.677,134.525,4769.95,1378.46,8400.58,-37.7303,11.074,20.3856,-1108.67,13744.9,1227.33,38.0188,114.341,293.644,102.189,9192.06,-2617.05,9.02086,-16.7481,58.7461,-2774.48,5237.26,-1311.14,1.74052,88.1541,107.849,4174.17,-9456.07,-1893.73,-25.2369,16.7786,99.0669,5922.42,34.8849,1205.45,27.8279,6.37013,1.50753
3.564,9025.93,-19.888,11187.8,-11.2893,309.605,135.778,4775.76,1339.11,8411.64,-37.7752,11.1325,20.485,-1175.27,13777.0,1222.99,37.6646,115.239,293.898,156.723,9181.79,-2609.3,8.907,-16.6568,58.8803,-2746.34,5223.51,-1319.15,1.80948,89.0343,107.636,4118.02,-9518.35,-1912.31,-25.2081,17.256,98.6868,5884.02,28.6931,1214.33,27.6368,6.20166,1.42462
3.5645,9075.13,33.3823,11216.5,-11.0058,309.545,137.016,4782.58,1299.98,8421.35,-37.8094,11.1869,20.5925,-1241.58,13809.5,1219.14,37.3192,116.095,294.153,209.359,9172.56,-2600.49,8.79467,-16.5514,59.0166,-2720.45,5208.88,-1327.46,1.89492,89.9,107.408,4063.07,-9576.4,-1933.06,-25.1489,17.7289,98.2898,5848.36,23.4602,1221.58,27.4355,6.03423,1.33867
3.565,9139.26,70.3929,11230.8,-10.6603,309.579,138.135,4797.44,1262.64,8420.17,-37.7577,11.2097,20.7659,-1305.51,13844.7,1219.36,37.045,116.616,294.407,246.804,9171.71,-2583.13,8.69459,-16.3341,59.1687,-2712.63,5187.14,-1338.2,2.11222,90.649,107.059,4017.61,-9600.68,-1971.21,-24.8463,18.1654,97.757,5834.73,25.8988,1215.81,27.1531,5.87505,1.22846
3.5655,9203.39,107.403,11245.1,-10.3148,309.613,139.254,4812.29,1225.3,8418.99,-37.7061,11.2324,20.9393,-1369.44,13879.9,1219.58,36.7708,117.137,294.661,284.25,9170.85,-2565.77,8.59452,-16.1168,59.3209,-2704.81,5165.41,-1348.95,2.32953,91.398,106.71,3972.15,-9624.95,-2009.37,-24.5436,18.6019,97.2243,5821.09,28.3374,1210.05,26.8706,5.71588,1.11825
3.566,9267.53,144.414,11259.5,-9.96939,309.647,140.373,4827.15,1187.96,8417.81,-37.6545,11.2551,21.1127,-1433.37,13915.2,1219.79,36.4965,117.658,294.915,321.695,9170.0,-2548.42,8.49444,-15.8995,59.473,-2696.98,5143.68,-1359.7,2.54684,92.147,106.361,3926.69,-9649.23,-2047.53,-24.241,19.0385,96.6915,5807.45,30.7759,1204.28,26.5882,5.5567,1.00804
3.5665,9331.66,181.425,11273.8,-9.62394,309.681,141.492,4842.0,1150.62,8416.62,-37.6029,11.2778,21.2861,-1497.3,13950.4,1220.01,36.2223,118.179,295.169,359.14,9169.15,-2531.06,8.39437,-15.6822,59.6251,-2689.16,5121.94,-1370.45,2.76415,92.896,106.013,3881.23,-9673.5,-2085.69,-23.9383,19.475,96.1588,5793.82,33.2145,1198.51,26.3057,5.39753,0.897826
3.567,9395.8,218.435,11288.1,-9.27849,309.715,142.611,4856.85,1113.28,8415.44,-37.5512,11.3006,21.4594,-1561.24,13985.6,1220.23,35.9481,118.699,295.423,396.586,9168.29,-2513.7,8.2943,-15.4649,59.7772,-2681.33,5100.21,-1381.2,2.98146,93.645,105.664,3835.78,-9697.77,-2123.84,-23.6356,19.9115,95.626,5780.18,35.653,1192.74,26.0232,5.23835,0.787614
3.5675,9459.93,255.446,11302.5,-8.93303,309.749,143.73,4871.71,1075.94,8414.26,-37.4996,11.3233,21.6328,-1625.17,14020.9,1220.44,35.6739,119.22,295.677,434.031,9167.44,-2496.34,8.19422,-15.2476,59.9294,-2673.51,5078.47,-1391.95,3.19876,94.394,105.315,3790.32,-9722.05,-2162.0,-23.333,20.348,95.0932,5766.54,38.0916,1186.97,25.7408,5.07917,0.677402
3.568,9524.07,292.456,11316.8,-8.58758,309.782,144.849,4886.56,1038.6,8413.08,-37.448,11.346,21.8062,-1689.1,14056.1,1220.66,35.3996,119.741,295.931,471.477,9166.59,-2478.98,8.09415,-15.0303,60.0815,-2665.68,5056.74,-1402.69,3.41607,95.143,104.966,3744.86,-9746.32,-2200.16,-23.0303,20.7846,94.5605,5752.9,40.5302,1181.2,25.4583,4.92,0.56719
3.5685,9588.2,329.467,11331.1,-8.24213,309.816,145.968,4901.42,1001.26,8411.9,-37.3963,11.3687,21.9796,-1753.03,14091.3,1220.87,35.1254,120.262,296.184,508.922,9165.73,-2461.63,7.99408,-14.813,60.2336,-2657.86,5035.01,-1413.44,3.63338,95.892,104.617,3699.4,-9770.59,-2238.31,-22.7277,21.2211,94.0277,5739.27,42.9687,1175.43,25.1759,4.76082,0.456979
3.569,9642.18,360.07,11349.4,-7.88213,309.856,147.006,4913.13,970.294,8411.02,-37.3544,11.4124,22.1065,-1815.35,14125.5,1219.48,34.8454,120.712,296.439,543.343,9169.57,-2447.55,7.88453,-14.5684,60.3858,-2652.4,5017.83,-1424.95,3.86837,96.5804,104.256,3654.17,-9789.75,-2272.16,-22.4319,21.6692,93.4785,5726.71,43.1418,1168.62,24.8943,4.59832,0.342308
3.5695,9660.6,368.244,11381.6,-7.4712,309.916,147.762,4913.86,961.651,8411.21,-37.3462,11.5294,22.071,-1872.06,14155.9,1212.45,34.5455,120.914,296.693,567.178,9189.83,-2444.95,7.74183,-14.2283,60.5379,-2655.2,5016.61,-1439.12,4.16526,97.0569,103.85,3609.71,-9790.97,-2290.92,-22.1605,22.1576,92.8714,5717.96,35.3854,1158.15,24.6159,4.42414,0.212032
3.57,9679.03,376.419,11413.9,-7.06028,309.975,148.517,4914.59,953.008,8411.39,-37.338,11.6464,22.0355,-1928.78,14186.3,1205.42,34.2455,121.116,296.948,591.014,9210.08,-2442.36,7.59913,-13.8882,60.6901,-2658.0,5015.39,-1453.29,4.46215,97.5334,103.444,3565.25,-9792.2,-2309.67,-21.8891,22.646,92.2644,5709.2,27.6291,1147.69,24.3375,4.24997,0.0817561
3.5705,9697.45,384.594,11446.1,-6.64936,310.035,149.273,4915.33,944.366,8411.58,-37.3297,11.7634,22.0,-1985.49,14216.7,1198.39,33.9456,121.318,297.203,614.849,9230.33,-2439.76,7.45643,-13.5481,60.8423,-2660.8,5014.17,-1467.47,4.75904,98.0098,103.038,3520.8,-9793.42,-2328.43,-21.6177,23.1344,91.6574,5700.45,19.8728,1137.22,24.0591,4.07579,-0.04852
3.571,9715.88,392.769,11478.3,-6.23844,310.095,150.028,4916.06,935.723,8411.77,-37.3215,11.8804,21.9645,-2042.2,14247.1,1191.36,33.6456,121.52,297.457,638.685,9250.59,-2437.17,7.31373,-13.208,60.9945,-2663.6,5012.94,-1481.64,5.05593,98.4863,102.633,3476.34,-9794.65,-2347.18,-21.3463,23.6228,91.0503,5691.69,12.1164,1126.75,23.7807,3.90162,-0.178796
3.5715,9734.3,400.943,11510.6,-5.82751,310.154,150.783,4916.79,927.08,8411.95,-37.3133,11.9974,21.929,-2098.91,14277.5,1184.33,33.3457,121.722,297.712,662.52,9270.84,-2434.57,7.17103,-12.8679,61.1467,-2666.4,5011.72,-1495.81,5.35282,98.9628,102.227,3431.88,-9795.88,-2365.94,-21.0749,24.1112,90.4433,5682.93,4.3601,1116.28,23.5023,3.72745,-0.309072
3.572,9752.73,409.118,11542.8,-5.41659,310.214,151.539,4917.52,918.438,8412.14,-37.3051,12.1144,21.8934,-2155.62,14307.9,1177.31,33.0457,121.925,297.967,686.356,9291.09,-2431.98,7.02833,-12.5278,61.2989,-2669.21,5010.5,-1509.98,5.64971,99.4393,101.821,3387.42,-9797.1,-2384.69,-20.8035,24.5996,89.8362,5674.18,-3.39623,1105.82,23.224,3.55327,-0.439348
3.5725,9771.15,417.293,11575.0,-5.00567,310.273,152.294,4918.25,909.795,8412.32,-37.2969,12.2314,21.8579,-2212.33,14338.3,1170.28,32.7457,122.127,298.222,710.191,9311.35,-2429.39,6.88562,-12.1877,61.4511,-2672.01,5009.28,-1524.15,5.9466,99.9158,101.415,3342.97,-9798.33,-2403.45,-20.5321,25.0881,89.2292,5665.42,-11.1526,1095.35,22.9456,3.3791,-0.569624
3.573,9789.58,425.467,11607.2,-4.59474,310.333,153.05,4918.98,901.152,8412.51,-37.2887,12.3484,21.8224,-2269.04,14368.7,1163.25,32.4458,122.329,298.476,734.027,9331.6,-2426.79,6.74292,-11.8476,61.6033,-2674.81,5008.05,-1538.33,6.24348,100.392,101.009,3298.51,-9799.56,-2422.21,-20.2607,25.5765,88.6221,5656.66,-18.9089,1084.88,22.6672,3.20493,-0.699901
3.5735,9800.76,439.787,11632.8,-4.22899,310.363,153.714,4925.12,889.014,8411.07,-37.3035,12.4744,21.7817,-2315.31,14397.5,1156.57,32.1368,122.501,298.728,754.299,9348.9,-2421.15,6.60603,-11.4913,61.7362,-2677.79,5005.71,-1549.15,6.53949,100.805,100.6,3256.63,-9787.61,-2428.33,-20.0379,25.9999,88.0251,5657.79,-30.5372,1074.74,22.3986,3.04322,-0.830696
3.574,9797.45,466.395,11645.0,-3.95357,310.333,154.198,4942.09,869.887,8406.36,-37.3642,12.6181,21.7307,-2340.68,14423.0,1150.58,31.8096,122.612,298.972,767.445,9360.3,-2409.4,6.48077,-11.1025,61.8304,-2681.15,5001.1,-1553.26,6.83372,101.09,100.184,3219.92,-9749.32,-2409.18,-19.9123,26.2934,87.4482,5678.7,-49.9094,1065.25,22.1499,2.90646,-0.962529
3.5745,9794.14,493.003,11657.1,-3.67815,310.304,154.681,4959.05,850.759,8401.66,-37.425,12.7619,21.6797,-2366.05,14448.6,1144.59,31.4825,122.723,299.217,780.59,9371.7,-2397.65,6.3555,-10.7137,61.9246,-2684.51,4996.5,-1557.38,7.12795,101.375,99.7671,3183.2,-9711.04,-2390.02,-19.7868,26.5869,86.8713,5699.6,-69.2817,1055.76,21.9011,2.76969,-1.09436
3.575,9790.83,519.611,11669.3,-3.40272,310.274,155.164,4976.01,831.632,8396.96,-37.4857,12.9056,21.6286,-2391.43,14474.1,1138.6,31.1553,122.834,299.462,793.736,9383.11,-2385.91,6.23023,-10.325,62.0189,-2687.87,4991.9,-1561.49,7.42219,101.66,99.3506,3146.49,-9672.75,-2370.87,-19.6613,26.8803,86.2944,5720.5,-88.6539,1046.27,21.6523,2.63293,-1.2262
3.5755,9787.52,546.219,11681.5,-3.1273,310.245,155.647,4992.98,812.504,8392.26,-37.5465,13.0494,21.5776,-2416.8,14499.6,1132.61,30.8282,122.945,299.707,806.881,9394.51,-2374.16,6.10496,-9.93616,62.1131,-2691.23,4987.29,-1565.61,7.71642,101.945,98.9342,3109.78,-9634.46,-2351.72,-19.5357,27.1738,85.7175,5741.41,-108.026,1036.78,21.4035,2.49616,-1.35803
3.576,9784.21,572.828,11693.7,-2.85188,310.215,156.13,5009.94,793.377,8387.56,-37.6072,13.1931,21.5266,-2442.17,14525.2,1126.63,30.501,123.056,299.951,820.027,9405.91,-2362.42,5.9797,-9.54737,62.2073,-2694.58,4982.69,-1569.72,8.01065,102.23,98.5177,3073.06,-9596.17,-2332.57,-19.4102,27.4673,85.1405,5762.31,-127.398,1027.29,21.1547,2.3594,-1.48986
3.5765,9780.9,599.436,11705.8,-2.57646,310.185,156.613,5026.9,774.249,8382.86,-37.668,13.3368,21.4755,-2467.55,14550.7,1120.64,30.1739,123.167,300.196,833.172,9417.31,-2350.67,5.85443,-9.15859,62.3016,-2697.94,4978.09,-1573.84,8.30489,102.515,98.1013,3036.35,-9557.89,-2313.42,-19.2846,27.7608,84.5636,5783.21,-146.771,1017.8,20.9059,2.22263,-1.6217
3.577,9777.59,626.044,11718.0,-2.30104,310.156,157.097,5043.87,755.122,8378.16,-37.7288,13.4806,21.4245,-2492.92,14576.3,1114.65,29.8467,123.278,300.441,846.318,9428.71,-2338.92,5.72916,-8.7698,62.3958,-2701.3,4973.48,-1577.95,8.59912,102.801,97.6849,2999.64,-9519.6,-2294.27,-19.1591,28.0542,83.9867,5804.11,-166.143,1008.31,20.6571,2.08587,-1.75353
3.5775,9774.28,652.652,11730.2,-2.02562,310.126,157.58,5060.83,735.994,8373.46,-37.7895,13.6243,21.3734,-2518.29,14601.8,1108.66,29.5196,123.389,300.685,859.463,9440.11,-2327.18,5.60389,-8.38101,62.49,-2704.66,4968.88,-1582.07,8.89335,103.086,97.2684,2962.92,-9481.31,-2275.12,-19.0336,28.3477,83.4098,5825.02,-185.515,998.825,20.4083,1.9491,-1.88537
3.578,9766.05,676.774,11745.6,-1.67196,310.023,157.919,5081.09,715.091,8368.64,-37.7313,13.7307,21.3017,-2540.72,14631.5,1100.73,29.211,123.443,300.898,876.797,9455.73,-2309.95,5.44851,-7.97355,62.6147,-2702.81,4960.2,-1586.09,9.11741,103.257,96.8321,2925.78,-9431.45,-2242.5,-18.9474,28.4683,82.9209,5840.83,-207.258,990.596,20.1868,1.8643,-2.0172
3.5785,9751.69,697.788,11765.2,-1.22052,309.827,158.078,5105.47,691.967,8363.69,-37.5244,13.7902,21.2041,-2559.45,14666.3,1090.37,28.9257,123.426,301.069,899.366,9476.63,-2285.87,5.2555,-7.54275,62.7775,-2694.47,4946.43,-1590.01,9.25374,103.286,96.3709,2888.09,-9367.11,-2193.04,-18.9103,28.3727,82.5419,5850.27,-231.964,983.943,19.9992,1.84445,-2.14903
3.579,9737.33,718.802,11784.7,-0.769073,309.632,158.237,5129.85,668.844,8358.74,-37.3175,13.8497,21.1066,-2578.18,14701.1,1080.01,28.6404,123.409,301.241,921.935,9497.54,-2261.8,5.06248,-7.11195,62.9403,-2686.13,4932.65,-1593.93,9.39007,103.314,95.9096,2850.41,-9302.78,-2143.57,-18.8733,28.2771,82.163,5859.72,-256.67,977.289,19.8116,1.8246,-2.28087
3.5795,9722.96,739.816,11804.2,-0.317627,309.436,158.395,5154.24,645.72,8353.78,-37.1106,13.9093,21.009,-2596.92,14736.0,1069.66,28.3552,123.392,301.413,944.503,9518.44,-2237.72,4.86946,-6.68115,63.1031,-2677.78,4918.87,-1597.85,9.5264,103.343,95.4484,2812.72,-9238.44,-2094.11,-18.8363,28.1815,81.784,5869.16,-281.376,970.636,19.6241,1.80475,-2.4127
3.58,9708.6,760.83,11823.8,0.133818,309.241,158.554,5178.62,622.597,8348.83,-36.9037,13.9688,20.9114,-2615.65,14770.8,1059.3,28.0699,123.375,301.584,967.072,9539.33,-2213.64,4.67644,-6.25035,63.2659,-2669.44,4905.1,-1601.76,9.66273,103.372,94.9872,2775.04,-9174.1,-2044.65,-18.7993,28.0859,81.4051,5878.61,-306.082,963.983,19.4365,1.7849,-2.54453
3.5805,9694.24,781.844,11843.3,0.585263,309.045,158.713,5203.0,599.474,8343.88,-36.6968,14.0283,20.8138,-2634.38,14805.6,1048.94,27.7846,123.358,301.756,989.641,9560.24,-2189.56,4.48342,-5.81955,63.4288,-2661.09,4891.32,-1605.68,9.79906,103.4,94.526,2737.35,-9109.77,-1995.19,-18.7622,27.9903,81.0261,5888.05,-330.788,957.33,19.2489,1.76505,-2.67637
3.581,9679.87,802.857,11862.9,1.03671,308.85,158.872,5227.38,576.35,8338.92,-36.4899,14.0879,20.7163,-2653.11,14840.4,1038.58,27.4993,123.34,301.927,1012.21,9581.14,-2165.48,4.2904,-5.38875,63.5916,-2652.75,4877.55,-1609.6,9.93539,103.429,94.0648,2699.67,-9045.43,-1945.73,-18.7252,27.8947,80.6472,5897.5,-355.494,950.676,19.0614,1.7452,-2.8082
3.5815,9665.51,823.871,11882.4,1.48815,308.654,159.031,5251.76,553.227,8333.97,-36.283,14.1474,20.6187,-2671.85,14875.3,1028.22,27.214,123.323,302.099,1034.78,9602.04,-2141.41,4.09738,-4.95795,63.7544,-2644.4,4863.77,-1613.51,10.0717,103.458,93.6036,2661.98,-8981.1,-1896.26,-18.6882,27.7991,80.2682,5906.94,-380.2,944.023,18.8738,1.72536,-2.94003
3.582,9651.15,844.885,11901.9,1.9396,308.458,159.19,5276.15,530.104,8329.02,-36.0761,14.2069,20.5211,-2690.58,14910.1,1017.86,26.9287,123.306,302.271,1057.35,9622.94,-2117.33,3.90436,-4.52715,63.9172,-2636.06,4849.99,-1617.43,10.2081,103.487,93.1424,2624.3,-8916.76,-1846.8,-18.6512,27.7035,79.8893,5916.39,-404.906,937.37,18.6863,1.70551,-3.07187
3.5825,9638.78,851.653,11917.5,2.38534,308.222,159.178,5294.66,501.709,8334.91,-35.822,14.2603,20.4441,-2709.1,14954.2,999.393,26.6076,123.266,302.404,1072.08,9638.26,-2081.04,3.78342,-4.0509,64.0439,-2627.46,4842.22,-1617.92,10.2502,103.428,92.6613,2595.97,-8864.32,-1789.74,-18.6714,27.3537,79.6237,5926.43,-434.745,919.606,18.5999,1.71299,-3.23172
3.583,9628.01,847.025,11930.0,2.82651,307.954,159.029,5308.47,469.096,8349.47,-35.53,14.3088,20.3836,-2727.45,15005.6,974.439,26.2579,123.207,302.507,1080.54,9649.11,-2034.98,3.72015,-3.53827,64.1419,-2618.65,4839.24,-1615.66,10.2171,103.299,92.1642,2575.13,-8821.39,-1726.59,-18.7374,26.8007,79.4489,5936.94,-468.689,892.953,18.5945,1.74234,-3.41397
3.5835,9617.24,842.396,11942.5,3.26768,307.685,158.88,5322.29,436.483,8364.03,-35.238,14.3573,20.3231,-2745.81,15057.0,949.486,25.9081,123.148,302.61,1089.01,9659.97,-1988.93,3.65688,-3.02564,64.2398,-2609.84,4836.26,-1613.4,10.184,103.171,91.6672,2554.3,-8778.46,-1663.44,-18.8034,26.2476,79.274,5947.45,-502.633,866.3,18.5891,1.77169,-3.59623
3.584,9606.47,837.768,11955.0,3.70886,307.416,158.731,5336.1,403.871,8378.6,-34.946,14.4058,20.2626,-2764.16,15108.4,924.532,25.5584,123.09,302.713,1097.47,9670.82,-1942.87,3.59361,-2.51302,64.3377,-2601.03,4833.28,-1611.13,10.1509,103.042,91.1702,2533.46,-8735.54,-1600.3,-18.8694,25.6946,79.0991,5957.96,-536.578,839.647,18.5837,1.80104,-3.77849
3.5845,9595.7,833.139,11967.5,4.15003,307.148,158.583,5349.92,371.258,8393.16,-34.654,14.4543,20.2021,-2782.51,15159.9,899.579,25.2086,123.031,302.816,1105.94,9681.68,-1896.81,3.53033,-2.00039,64.4357,-2592.23,4830.3,-1608.87,10.1178,102.913,90.6731,2512.62,-8692.61,-1537.15,-18.9354,25.1415,78.9243,5968.47,-570.522,812.994,18.5784,1.83039,-3.96074
3.585,9584.93,828.511,11980.0,4.59121,306.879,158.434,5363.73,338.646,8407.73,-34.3619,14.5027,20.1416,-2800.86,15211.3,874.625,24.8589,122.972,302.918,1114.4,9692.53,-1850.76,3.46706,-1.48776,64.5336,-2583.42,4827.32,-1606.61,10.0847,102.784,90.1761,2491.79,-8649.68,-1474.0,-19.0014,24.5884,78.7494,5978.98,-604.467,786.341,18.573,1.85973,-4.143
3.5855,9574.16,823.882,11992.5,5.03238,306.61,158.285,5377.55,306.033,8422.29,-34.0699,14.5512,20.0811,-2819.22,15262.7,849.672,24.5092,122.913,303.021,1122.86,9703.39,-1804.7,3.40379,-0.975138,64.6316,-2574.61,4824.34,-1604.35,10.0516,102.656,89.6791,2470.95,-8606.75,-1410.86,-19.0674,24.0354,78.5746,5989.49,-638.411,759.688,18.5676,1.88908,-4.32526
3.586,9563.38,819.254,12004.9,5.47355,306.342,158.136,5391.36,273.42,8436.86,-33.7779,14.5997,20.0206,-2837.57,15314.2,824.718,24.1594,122.855,303.124,1131.33,9714.24,-1758.64,3.34051,-0.462512,64.7295,-2565.8,4821.36,-1602.09,10.0185,102.527,89.182,2450.11,-8563.82,-1347.71,-19.1333,23.4823,78.3997,6000.0,-672.356,733.035,18.5622,1.91843,-4.50751
3.5865,9552.61,814.625,12017.4,5.91473,306.073,157.987,5405.18,240.808,8451.42,-33.4859,14.6482,19.9601,-2855.92,15365.6,799.765,23.8097,122.796,303.227,1139.79,9725.1,-1712.59,3.27724,0.0501145,64.8274,-2556.99,4818.38,-1599.83,9.98538,102.398,88.685,2429.28,-8520.9,-1284.56,-19.1993,22.9293,78.2249,6010.52,-706.3,706.382,18.5568,1.94778,-4.68977
3.587,9558.88,812.281,12026.0,6.38594,305.727,157.683,5393.55,226.465,8461.28,-33.2068,14.6758,19.8404,-2868.49,15415.3,780.449,23.382,122.687,303.271,1134.41,9731.86,-1673.33,3.26912,0.523329,64.9017,-2557.31,4821.19,-1595.91,9.84414,102.193,88.2011,2419.21,-8485.86,-1216.19,-19.2546,22.1432,78.1362,6039.53,-727.912,695.45,18.6879,2.04124,-4.87248
3.5875,9573.65,811.079,12032.5,6.87217,305.344,157.302,5369.21,221.258,8468.8,-32.934,14.693,19.6911,-2878.17,15464.0,763.952,22.9153,122.554,303.286,1122.1,9736.58,-1637.48,3.28857,0.976838,64.9642,-2562.19,4826.91,-1591.15,9.64883,101.949,87.7238,2414.52,-8454.77,-1145.2,-19.3046,21.2407,78.0907,6077.79,-743.358,692.378,18.8872,2.16676,-5.0554
3.588,9588.43,809.876,12039.1,7.35841,304.96,156.921,5344.87,216.05,8476.32,-32.6612,14.7102,19.5418,-2887.85,15512.8,747.455,22.4487,122.421,303.3,1109.79,9741.31,-1601.62,3.30802,1.43035,65.0267,-2567.06,4832.63,-1586.39,9.45352,101.705,87.2464,2409.84,-8423.68,-1074.22,-19.3545,20.3382,78.0451,6116.05,-758.804,689.306,19.0865,2.29227,-5.23833
3.5885,9603.21,808.674,12045.6,7.84464,304.576,156.539,5320.53,210.843,8483.83,-32.3884,14.7274,19.3925,-2897.53,15561.6,730.958,21.982,122.288,303.315,1097.49,9746.03,-1565.77,3.32748,1.88386,65.0892,-2571.94,4838.34,-1581.63,9.25822,101.462,86.7691,2405.15,-8392.58,-1003.23,-19.4044,19.4356,77.9995,6154.31,-774.25,686.234,19.2858,2.41779,-5.42126
3.589,9617.99,807.472,12052.2,8.33088,304.192,156.158,5296.19,205.635,8491.35,-32.1156,14.7445,19.2432,-2907.21,15610.3,714.46,21.5153,122.154,303.33,1085.18,9750.75,-1529.91,3.34693,2.33737,65.1516,-2576.82,4844.06,-1576.87,9.06291,101.218,86.2918,2400.47,-8361.49,-932.242,-19.4543,18.5331,77.954,6192.57,-789.696,683.162,19.4851,2.54331,-5.60419
3.5895,9632.77,806.269,12058.7,8.81711,303.808,155.776,5271.85,200.428,8498.86,-31.8428,14.7617,19.0939,-2916.89,15659.1,697.963,21.0487,122.021,303.344,1072.87,9755.47,-1494.06,3.36638,2.79087,65.2141,-2581.7,4849.78,-1572.11,8.86761,100.974,85.8144,2395.78,-8330.4,-861.255,-19.5043,17.6306,77.9084,6230.83,-805.142,680.09,19.6844,2.66882,-5.78712
3.59,9647.55,805.067,12065.3,9.30335,303.424,155.395,5247.51,195.22,8506.38,-31.57,14.7789,18.9446,-2926.57,15707.9,681.466,20.582,121.888,303.359,1060.57,9760.19,-1458.2,3.38584,3.24438,65.2766,-2586.58,4855.49,-1567.35,8.6723,100.73,85.3371,2391.1,-8299.31,-790.268,-19.5542,16.728,77.8629,6269.09,-820.588,677.018,19.8837,2.79434,-5.97005
3.5905,9662.33,803.865,12071.8,9.78958,303.04,155.014,5223.17,190.012,8513.9,-31.2973,14.7961,18.7952,-2936.25,15756.6,664.969,20.1153,121.755,303.374,1048.26,9764.91,-1422.34,3.40529,3.69789,65.3391,-2591.45,4861.21,-1562.59,8.47699,100.487,84.8598,2386.41,-8268.21,-719.281,-19.6041,15.8255,77.8173,6307.35,-836.034,673.946,20.0831,2.91986,-6.15297
3.591,9677.1,802.662,12078.4,10.2758,302.656,154.632,5198.83,184.805,8521.41,-31.0245,14.8133,18.6459,-2945.93,15805.4,648.472,19.6487,121.622,303.388,1035.95,9769.64,-1386.49,3.42474,4.1514,65.4016,-2596.33,4866.92,-1557.83,8.28169,100.243,84.3824,2381.73,-8237.12,-648.294,-19.6541,14.923,77.7718,6345.61,-851.48,670.874,20.2824,3.04537,-6.3359
3.5915,9692.55,820.311,12095.3,10.8101,302.242,154.156,5169.13,165.367,8543.59,-30.739,14.6853,18.4151,-2964.7,15837.8,641.295,19.154,121.408,303.379,1005.4,9783.5,-1364.54,3.5075,4.56524,65.4741,-2612.09,4874.34,-1551.75,7.96946,99.846,83.8393,2387.39,-8223.26,-591.41,-19.6517,13.9963,77.8498,6389.12,-868.295,665.713,20.5325,3.16871,-6.50345
3.592,9708.19,843.346,12115.2,11.358,301.82,153.652,5137.89,141.864,8569.95,-30.4499,14.5158,18.161,-2986.07,15865.5,636.782,18.6512,121.171,303.363,969.625,9799.99,-1346.55,3.60835,4.96775,65.5495,-2630.95,4882.25,-1545.29,7.62383,99.4053,83.2775,2396.0,-8214.33,-538.555,-19.6344,13.0628,77.9631,6434.12,-885.503,659.955,20.7972,3.29142,-6.6666
3.5925,9723.83,866.38,12135.1,11.906,301.397,153.148,5106.65,118.36,8596.31,-30.1608,14.3464,17.9069,-3007.44,15893.2,632.269,18.1485,120.934,303.346,933.853,9816.47,-1328.57,3.7092,5.37026,65.625,-2649.81,4890.15,-1538.82,7.2782,98.9647,82.7156,2404.62,-8205.39,-485.7,-19.6171,12.1293,78.0765,6479.13,-902.71,654.197,21.0618,3.41413,-6.82976
3.593,9739.48,889.415,12155.0,12.454,300.975,152.644,5075.41,94.857,8622.68,-29.8718,14.1769,17.6528,-3028.8,15920.9,627.756,17.6458,120.698,303.33,898.082,9832.95,-1310.59,3.81005,5.77277,65.7004,-2668.68,4898.05,-1532.36,6.93257,98.524,82.1537,2413.24,-8196.45,-432.845,-19.5998,11.1958,78.1898,6524.13,-919.917,648.44,21.3265,3.53684,-6.99291
3.5935,9755.12,912.45,12174.9,13.002,300.552,152.14,5044.17,71.3536,8649.04,-29.5827,14.0075,17.3987,-3050.17,15948.6,623.243,17.1431,120.461,303.314,862.311,9849.43,-1292.6,3.9109,6.17528,65.7758,-2687.54,4905.96,-1525.9,6.58695,98.0833,81.5918,2421.85,-8187.52,-379.99,-19.5825,10.2623,78.3031,6569.14,-937.124,642.682,21.5912,3.65955,-7.15606
3.594,9770.76,935.485,12194.8,13.5499,300.13,151.636,5012.93,47.8502,8675.4,-29.2936,13.838,17.1445,-3071.54,15976.3,618.729,16.6404,120.224,303.298,826.539,9865.91,-1274.62,4.01174,6.57778,65.8512,-2706.41,4913.86,-1519.44,6.24132,97.6426,81.03,2430.47,-8178.58,-327.135,-19.5653,9.32876,78.4165,6614.15,-954.332,636.924,21.8558,3.78226,-7.31922
3.5945,9786.4,958.52,12214.7,14.0979,299.707,151.132,4981.69,24.3469,8701.77,-29.0045,13.6685,16.8904,-3092.91,16004.0,614.216,16.1377,119.988,303.282,790.768,9882.39,-1256.64,4.11259,6.98029,65.9267,-2725.27,4921.76,-1512.98,5.89569,97.202,80.4681,2439.08,-8169.65,-274.28,-19.548,8.39524,78.5298,6659.15,-971.539,631.166,22.1205,3.90496,-7.48237
3.595,9802.04,981.555,12234.6,14.6459,299.285,150.629,4950.45,0.843467,8728.13,-28.7154,13.4991,16.6363,-3114.27,16031.7,609.703,15.635,119.751,303.265,754.997,9898.87,-1238.66,4.21344,7.3828,66.0021,-2744.14,4929.67,-1506.51,5.55006,96.7613,79.9062,2447.7,-8160.71,-221.425,-19.5307,7.46172,78.6431,6704.16,-988.746,625.408,22.3852,4.02767,-7.64552
3.5955,9817.68,1004.59,12254.5,15.1938,298.862,150.125,4919.22,-22.6599,8754.49,-28.4263,13.3296,16.3822,-3135.64,16059.4,605.19,15.1322,119.514,303.249,719.226,9915.35,-1220.67,4.31429,7.78531,66.0775,-2763.0,4937.57,-1500.05,5.20443,96.3206,79.3443,2456.31,-8151.77,-168.57,-19.5134,6.5282,78.7565,6749.17,-1005.95,619.65,22.6498,4.15038,-7.80867
3.596,9837.04,1025.97,12278.9,15.7107,298.288,149.552,4895.74,-33.2866,8776.76,-28.0392,13.0822,16.2335,-3170.53,16094.9,616.344,14.7159,119.169,303.163,694.057,9936.89,-1216.24,4.32906,8.08864,66.2571,-2777.69,4948.3,-1495.26,4.7567,95.7523,78.7561,2470.52,-8158.77,-126.206,-19.5451,5.76503,78.9982,6796.37,-1042.6,611.828,22.9146,4.37759,-7.92206
3.5965,9856.87,1047.15,12303.8,16.2238,297.695,148.97,4873.23,-42.3038,8798.51,-27.6398,12.825,16.0979,-3207.12,16131.3,629.457,14.3103,118.809,303.069,670.213,9959.07,-1213.5,4.33307,8.37957,66.4497,-2791.87,4959.38,-1490.68,4.2962,95.1679,78.1647,2485.43,-8167.76,-85.1543,-19.583,5.02315,79.2559,6843.85,-1081.68,603.748,23.1794,4.61785,-8.02924
3.597,9876.7,1068.33,12328.7,16.7368,297.102,148.389,4850.72,-51.3209,8820.26,-27.2404,12.5677,15.9624,-3243.7,16167.8,642.57,13.9047,118.45,302.974,646.369,9981.25,-1210.75,4.33709,8.67051,66.6423,-2806.04,4970.46,-1486.1,3.83571,94.5836,77.5732,2500.34,-8176.75,-44.1022,-19.6208,4.28126,79.5137,6891.33,-1120.76,595.668,23.4442,4.85812,-8.13641
3.5975,9896.53,1089.51,12353.6,17.2498,296.508,147.807,4828.21,-60.338,8842.01,-26.841,12.3105,15.8268,-3280.28,16204.2,655.683,13.4991,118.091,302.879,622.526,10003.4,-1208.01,4.3411,8.96144,66.8349,-2820.21,4981.55,-1481.53,3.37521,93.9993,76.9818,2515.24,-8185.74,-3.05012,-19.6587,3.53938,79.7714,6938.8,-1159.84,587.588,23.7089,5.09838,-8.24358
3.598,9916.36,1110.69,12378.5,17.7628,295.915,147.226,4805.7,-69.3551,8863.76,-26.4416,12.0533,15.6913,-3316.87,16240.6,668.796,13.0935,117.731,302.784,598.682,10025.6,-1205.27,4.34511,9.25238,67.0275,-2834.38,4992.63,-1476.95,2.91472,93.415,76.3903,2530.15,-8194.73,38.002,-19.6965,2.7975,80.0292,6986.28,-1198.92,579.508,23.9737,5.33864,-8.35075
3.5985,9936.19,1131.87,12403.5,18.2758,295.322,146.644,4783.19,-78.3722,8885.52,-26.0422,11.7961,15.5557,-3353.45,16277.1,681.909,12.6878,117.372,302.69,574.838,10047.8,-1202.53,4.34912,9.54331,67.2201,-2848.56,5003.71,-1472.37,2.45422,92.8306,75.7989,2545.06,-8203.72,79.0541,-19.7344,2.05562,80.2869,7033.76,-1238.0,571.428,24.2385,5.57891,-8.45792
3.599,9956.02,1153.05,12428.4,18.7889,294.729,146.063,4760.69,-87.3894,8907.27,-25.6428,11.5389,15.4202,-3390.03,16313.5,695.021,12.2822,117.013,302.595,550.994,10070.0,-1199.79,4.35313,9.83425,67.4127,-2862.73,5014.8,-1467.79,1.99373,92.2463,75.2074,2559.97,-8212.71,120.106,-19.7723,1.31373,80.5446,7081.24,-1277.08,563.348,24.5033,5.81917,-8.56509
3.5995,9975.85,1174.23,12453.3,19.3019,294.136,145.481,4738.18,-96.4065,8929.02,-25.2434,11.2817,15.2847,-3426.62,16349.9,708.134,11.8766,116.653,302.5,527.151,10092.1,-1197.05,4.35714,10.1252,67.6053,-2876.9,5025.88,-1463.21,1.53323,91.662,74.616,2574.87,-8221.7,161.158,-19.8101,0.571852,80.8024,7128.71,-1316.16,555.269,24.7681,6.05944,-8.67226
3.6,9995.67,1195.41,12478.2,19.8149,293.543,144.9,4715.67,-105.424,8950.77,-24.844,11.0245,15.1491,-3463.2,16386.4,721.247,11.471,116.294,302.406,503.307,10114.3,-1194.31,4.36116,10.4161,67.798,-2891.08,5036.96,-1458.63,1.07273,91.0777,74.0245,2589.78,-8230.69,202.21,-19.848,-0.17003,81.0601,7176.19,-1355.24,547.189,25.0328,6.2997,-8.77943
3.6005,10023.2,1200.46,12488.8,20.3216,292.79,144.163,4708.59,-119.606,8968.43,-24.4225,10.7999,14.9987,-3494.84,16421.5,723.955,11.1579,115.91,302.249,473.454,10145.2,-1192.15,4.30446,10.6271,68.0429,-2902.69,5055.22,-1450.67,0.586894,90.3437,73.4124,2630.6,-8255.55,227.692,-19.9613,-0.811502,81.3681,7196.34,-1386.69,543.649,25.2789,6.58111,-8.92378
3.601,10050.7,1205.52,12499.3,20.8284,292.038,143.427,4701.52,-133.789,8986.09,-24.0009,10.5754,14.8482,-3526.48,16456.5,726.663,10.8447,115.526,302.093,443.601,10176.0,-1190.0,4.24777,10.838,68.2879,-2914.3,5073.47,-1442.71,0.101054,89.6098,72.8003,2671.41,-8280.41,253.174,-20.0747,-1.45297,81.676,7216.49,-1418.14,540.11,25.5249,6.86253,-9.06813
3.6015,10078.3,1210.57,12509.8,21.3351,291.286,142.691,4694.44,-147.972,9003.74,-23.5794,10.3509,14.6978,-3558.12,16491.6,729.371,10.5315,115.142,301.936,413.748,10206.9,-1187.85,4.19107,11.0489,68.5328,-2925.92,5091.73,-1434.75,-0.384787,88.8759,72.1882,2712.23,-8305.26,278.655,-20.1881,-2.09444,81.984,7236.64,-1449.59,536.57,25.7709,7.14394,-9.21249
3.602,10105.8,1215.63,12520.4,21.8418,290.533,141.954,4687.36,-162.155,9021.4,-23.1579,10.1263,14.5473,-3589.76,16526.7,732.078,10.2184,114.758,301.78,383.896,10237.7,-1185.7,4.13437,11.2598,68.7778,-2937.53,5109.98,-1426.79,-0.870628,88.1419,71.5761,2753.05,-8330.12,304.137,-20.3014,-2.73592,82.2919,7256.78,-1481.04,533.031,26.0169,7.42535,-9.35684
3.6025,10133.3,1220.68,12530.9,22.3485,289.781,141.218,4680.29,-176.338,9039.06,-22.7363,9.90181,14.3969,-3621.4,16561.8,734.786,9.90519,114.374,301.624,354.043,10268.5,-1183.54,4.07768,11.4708,69.0228,-2949.15,5128.24,-1418.84,-1.35647,87.408,70.964,2793.86,-8354.98,329.619,-20.4148,-3.37739,82.5999,7276.93,-1512.48,529.491,26.2629,7.70676,-9.50119
3.603,10160.9,1225.73,12541.4,22.8553,289.029,140.482,4673.21,-190.521,9056.71,-22.3148,9.67728,14.2464,-3653.04,16596.9,737.494,9.59202,113.99,301.467,324.19,10299.4,-1181.39,4.02098,11.6817,69.2677,-2960.76,5146.49,-1410.88,-1.84231,86.6741,70.3518,2834.68,-8379.84,355.1,-20.5282,-4.01886,82.9079,7297.08,-1543.93,525.952,26.5089,7.98817,-9.64554
3.6035,10188.4,1230.79,12552.0,23.362,288.276,139.745,4666.13,-204.704,9074.37,-21.8933,9.45275,14.096,-3684.68,16631.9,740.202,9.27884,113.606,301.311,294.337,10330.2,-1179.24,3.96429,11.8926,69.5127,-2972.37,5164.75,-1402.92,-2.32815,85.9401,69.7397,2875.5,-8404.7,380.582,-20.6415,-4.66033,83.2158,7317.23,-1575.38,522.412,26.755,8.26958,-9.78989
3.604,10215.9,1235.84,12562.5,23.8687,287.524,139.009,4659.06,-218.887,9092.03,-21.4717,9.22822,13.9455,-3716.32,16667.0,742.909,8.96567,113.222,301.155,264.484,10361.1,-1177.09,3.90759,12.1036,69.7576,-2983.99,5183.0,-1394.96,-2.81399,85.2062,69.1276,2916.31,-8429.56,406.064,-20.7549,-5.3018,83.5238,7337.38,-1606.83,518.873,27.001,8.551,-9.93425
3.6045,10240.9,1239.51,12574.1,24.3747,286.769,138.271,4652.39,-233.068,9108.64,-21.0501,9.00835,13.7862,-3745.43,16703.3,744.126,8.65101,112.838,300.993,235.704,10389.0,-1173.32,3.85439,12.3079,70.0064,-2996.87,5200.64,-1386.91,-3.29786,84.4464,68.5092,2956.58,-8456.32,432.128,-20.8777,-5.94276,83.8265,7359.53,-1638.99,514.799,27.246,8.83209,-10.0702
3.605,10245.4,1232.06,12594.6,24.8752,285.987,137.521,4648.96,-247.232,9116.84,-20.6276,8.82574,13.5558,-3754.29,16749.5,733.408,8.32442,112.453,300.786,215.506,10393.2,-1156.59,3.82916,12.4596,70.2855,-3019.87,5213.35,-1378.14,-3.76599,83.4799,67.8403,2992.47,-8498.27,462.853,-21.0755,-6.57962,84.0874,7397.75,-1676.84,506.45,27.4829,9.11066,-10.1393
3.6055,10249.9,1224.61,12615.2,25.3757,285.205,136.772,4645.54,-261.396,9125.04,-20.2051,8.64314,13.3253,-3763.16,16795.7,722.691,7.99783,112.067,300.58,195.308,10397.4,-1139.87,3.80392,12.6112,70.5647,-3042.87,5226.06,-1369.37,-4.23411,82.5134,67.1715,3028.37,-8540.21,493.578,-21.2733,-7.21649,84.3483,7435.98,-1714.69,498.1,27.7198,9.38923,-10.2083
3.606,10254.4,1217.16,12635.7,25.8762,284.423,136.022,4642.11,-275.561,9133.25,-19.7826,8.46053,13.0949,-3772.02,16841.9,711.974,7.67124,111.682,300.374,175.109,10401.6,-1123.15,3.77869,12.7628,70.8438,-3065.87,5238.78,-1360.6,-4.70224,81.5468,66.5026,3064.26,-8582.16,524.303,-21.4711,-7.85335,84.6092,7474.2,-1752.54,489.751,27.9568,9.66779,-10.2773
3.6065,10258.9,1209.72,12656.2,26.3767,283.642,135.272,4638.68,-289.725,9141.45,-19.3601,8.27792,12.8644,-3780.89,16888.1,701.257,7.34464,111.297,300.167,154.911,10405.8,-1106.42,3.75346,12.9145,71.123,-3088.87,5251.49,-1351.83,-5.17036,80.5803,65.8338,3100.15,-8624.11,555.028,-21.6689,-8.49021,84.8701,7512.42,-1790.38,481.402,28.1937,9.94636,-10.3464
3.607,10263.4,1202.27,12676.7,26.8772,282.86,134.522,4635.26,-303.89,9149.66,-18.9376,8.09532,12.634,-3789.75,16934.3,690.54,7.01805,110.911,299.961,134.713,10409.9,-1089.7,3.72822,13.0661,71.4021,-3111.87,5264.2,-1343.06,-5.63849,79.6138,65.1649,3136.04,-8666.05,585.753,-21.8667,-9.12707,85.1309,7550.64,-1828.23,473.053,28.4306,10.2249,-10.4154
3.6075,10267.9,1194.82,12697.3,27.3777,282.078,133.772,4631.83,-318.054,9157.86,-18.5151,7.91271,12.4036,-3798.62,16980.5,679.823,6.69146,110.526,299.755,114.515,10414.1,-1072.98,3.70299,13.2178,71.6813,-3134.87,5276.91,-1334.29,-6.10662,78.6472,64.496,3171.93,-8708.0,616.478,-22.0645,-9.76393,85.3918,7588.86,-1866.08,464.704,28.6675,10.5035,-10.4844
3.608,10272.4,1187.38,12717.8,27.8782,281.296,133.023,4628.4,-332.218,9166.06,-18.0926,7.73011,12.1731,-3807.48,17026.7,669.106,6.36487,110.141,299.548,94.3165,10418.3,-1056.25,3.67776,13.3694,71.9604,-3157.87,5289.63,-1325.52,-6.57474,77.6807,63.8272,3207.83,-8749.95,647.203,-22.2623,-10.4008,85.6527,7627.09,-1903.93,456.355,28.9045,10.7821,-10.5535
3.6085,10277.0,1179.93,12738.3,28.3787,280.514,132.273,4624.98,-346.383,9174.27,-17.6701,7.5475,11.9427,-3816.34,17072.9,658.388,6.03828,109.755,299.342,74.1183,10422.5,-1039.53,3.65252,13.5211,72.2396,-3180.87,5302.34,-1316.75,-7.04287,76.7141,63.1583,3243.72,-8791.9,677.928,-22.4601,-11.0377,85.9136,7665.31,-1941.77,448.006,29.1414,11.0606,-10.6225
3.609,10287.1,1174.48,12764.9,28.853,279.738,131.524,4620.33,-357.791,9184.74,-17.2418,7.31147,11.7462,-3829.44,17121.2,649.945,5.6918,109.354,299.101,54.8177,10430.5,-1024.63,3.63989,13.6698,72.5292,-3203.79,5314.81,-1309.22,-7.50459,75.7073,62.4964,3278.36,-8836.53,708.729,-22.6405,-11.7058,86.1488,7702.03,-1976.55,442.725,29.3929,11.3161,-10.6912
3.6095,10317.0,1176.05,12812.5,29.2354,278.982,130.776,4611.4,-359.555,9203.17,-16.793,6.88842,11.6683,-3857.32,17176.7,649.458,5.27574,108.9,298.738,38.6586,10451.6,-1016.12,3.67134,13.8081,72.8552,-3226.43,5326.46,-1306.01,-7.94391,74.5592,61.8585,3308.62,-8890.54,739.792,-22.7597,-12.4837,86.2942,7733.52,-2000.57,448.184,29.6954,11.4909,-10.7589
3.61,10346.9,1177.61,12860.2,29.6178,278.225,130.029,4602.47,-361.319,9221.6,-16.3443,6.46537,11.5904,-3885.21,17232.3,648.971,4.85967,108.445,298.375,22.4996,10472.8,-1007.61,3.70279,13.9465,73.1813,-3249.07,5338.11,-1302.81,-8.38322,73.4112,61.2207,3338.88,-8944.55,770.856,-22.8789,-13.2615,86.4395,7765.01,-2024.59,453.643,29.9979,11.6656,-10.8265
3.6105,10376.8,1179.17,12907.9,30.0002,277.468,129.281,4593.54,-363.084,9240.04,-15.8955,6.04232,11.5125,-3913.1,17287.8,648.484,4.4436,107.99,298.011,6.34056,10493.9,-999.106,3.73424,14.0848,73.5074,-3271.7,5349.76,-1299.6,-8.82254,72.2631,60.5828,3369.14,-8998.57,801.92,-22.9981,-14.0393,86.5848,7796.5,-2048.61,459.102,30.3004,11.8404,-10.8941
3.611,10406.7,1180.73,12955.6,30.3826,276.712,128.534,4584.61,-364.848,9258.47,-15.4468,5.61928,11.4346,-3940.98,17343.4,647.998,4.02754,107.536,297.648,-9.81848,10515.0,-990.597,3.76569,14.2232,73.8335,-3294.34,5361.41,-1296.39,-9.26185,71.1151,59.945,3399.4,-9052.58,832.983,-23.1174,-14.8171,86.7301,7827.99,-2072.63,464.561,30.6029,12.0151,-10.9617
3.6115,10436.6,1182.3,13003.2,30.7651,275.955,127.786,4575.68,-366.612,9276.9,-14.998,5.19623,11.3567,-3968.87,17398.9,647.511,3.61147,107.081,297.285,-25.9775,10536.2,-982.089,3.79714,14.3615,74.1595,-3316.97,5373.06,-1293.19,-9.70117,69.967,59.3071,3429.66,-9106.59,864.047,-23.2366,-15.5949,86.8754,7859.48,-2096.65,470.02,30.9054,12.1899,-11.0293
3.612,10466.6,1183.86,13050.9,31.1475,275.198,127.039,4566.75,-368.376,9295.33,-14.5492,4.77318,11.2788,-3996.76,17454.4,647.024,3.1954,106.626,296.922,-42.1365,10557.3,-973.58,3.82859,14.4999,74.4856,-3339.61,5384.71,-1289.98,-10.1405,68.819,58.6693,3459.92,-9160.61,895.11,-23.3558,-16.3728,87.0207,7890.98,-2120.67,475.479,31.208,12.3647,-11.097
3.6125,10496.5,1185.42,13098.6,31.5299,274.441,126.291,4557.82,-370.14,9313.76,-14.1005,4.35013,11.2009,-4024.65,17510.0,646.537,2.77934,106.171,296.559,-58.2956,10578.4,-965.072,3.86004,14.6383,74.8117,-3362.24,5396.35,-1286.78,-10.5798,67.671,58.0314,3490.18,-9214.62,926.174,-23.4751,-17.1506,87.166,7922.46,-2144.69,480.938,31.5105,12.5394,-11.1646
3.613,10526.4,1186.98,13146.3,31.9123,273.685,125.544,4548.89,-371.904,9332.19,-13.6517,3.92709,11.123,-4052.53,17565.5,646.05,2.36327,105.717,296.196,-74.4546,10599.6,-956.563,3.89149,14.7766,75.1378,-3384.88,5408.0,-1283.57,-11.0191,66.5229,57.3935,3520.43,-9268.63,957.238,-23.5943,-17.9284,87.3113,7953.96,-2168.71,486.397,31.813,12.7142,-11.2322
3.6135,10568.4,1187.69,13193.0,32.2385,272.945,124.785,4537.61,-382.284,9345.1,-13.0942,3.50402,11.037,-4082.52,17624.7,640.497,1.96139,105.274,295.838,-88.7962,10615.8,-956.205,3.96377,14.9352,75.4824,-3403.46,5424.08,-1280.69,-11.374,65.3366,56.7674,3549.24,-9322.96,978.106,-23.6305,-18.7369,87.3797,7983.33,-2195.34,485.849,32.1841,12.8635,-11.2575
3.614,10634.8,1186.67,13237.8,32.4522,272.239,124.005,4521.61,-409.897,9346.95,-12.3192,3.08093,10.9346,-4116.71,17691.0,624.81,1.58789,104.856,295.493,-99.5028,10622.2,-972.148,4.11769,15.1341,75.8641,-3413.94,5449.02,-1278.48,-11.5601,64.0737,56.1646,3575.13,-9377.91,978.582,-23.5005,-19.6066,87.2941,8008.48,-2227.22,473.285,32.6924,12.9618,-11.1983
3.6145,10701.2,1185.66,13282.6,32.6659,271.533,123.224,4505.6,-437.511,9348.81,-11.5443,2.65784,10.8322,-4150.9,17757.4,609.122,1.21439,104.437,295.147,-110.209,10628.6,-988.09,4.27162,15.3331,76.2457,-3424.42,5473.96,-1276.26,-11.7462,62.8108,55.5619,3601.02,-9432.85,979.058,-23.3704,-20.4764,87.2086,8033.62,-2259.1,460.722,33.2007,13.0602,-11.1391
3.615,10767.6,1184.65,13327.5,32.8796,270.827,122.443,4489.6,-465.124,9350.67,-10.7693,2.23475,10.7298,-4185.09,17823.8,593.435,0.840894,104.019,294.801,-120.916,10635.1,-1004.03,4.42554,15.532,76.6274,-3434.9,5498.9,-1274.04,-11.9323,61.5479,54.9591,3626.91,-9487.8,979.535,-23.2404,-21.3461,87.1231,8058.77,-2290.98,448.159,33.709,13.1586,-11.0799
3.6155,10834.0,1183.63,13372.3,33.0933,270.122,121.662,4473.6,-492.738,9352.53,-9.9943,1.81166,10.6274,-4219.27,17890.2,577.748,0.467393,103.6,294.456,-131.623,10641.5,-1019.97,4.57946,15.7309,77.0091,-3445.38,5523.84,-1271.83,-12.1184,60.285,54.3564,3652.8,-9542.75,980.011,-23.1104,-22.2159,87.0375,8083.92,-2322.86,435.596,34.2173,13.2569,-11.0206
3.616,10900.3,1182.62,13417.1,33.307,269.416,120.882,4457.6,-520.351,9354.39,-9.21932,1.38856,10.525,-4253.46,17956.5,562.061,0.0938925,103.182,294.11,-142.329,10647.9,-1035.92,4.73339,15.9299,77.3907,-3455.86,5548.78,-1269.61,-12.3045,59.0221,53.7536,3678.69,-9597.7,980.488,-22.9804,-23.0856,86.952,8109.06,-2354.73,423.032,34.7256,13.3553,-10.9614
3.6165,10966.7,1181.61,13461.9,33.5207,268.71,120.101,4441.6,-547.964,9356.25,-8.44434,0.965473,10.4226,-4287.65,18022.9,546.374,-0.279608,102.763,293.764,-153.036,10654.3,-1051.86,4.88731,16.1288,77.7724,-3466.34,5573.72,-1267.39,-12.4906,57.7592,53.1509,3704.58,-9652.65,980.964,-22.8504,-23.9554,86.8664,8134.21,-2386.61,410.469,35.2339,13.4537,-10.9022
3.617,11033.1,1180.59,13506.8,33.7343,268.004,119.32,4425.6,-575.578,9358.11,-7.66937,0.542381,10.3202,-4321.84,18089.3,530.686,-0.653108,102.345,293.419,-163.743,10660.7,-1067.8,5.04124,16.3278,78.1541,-3476.82,5598.66,-1265.18,-12.6766,56.4963,52.5481,3730.48,-9707.6,981.44,-22.7204,-24.8252,86.7809,8159.36,-2418.49,397.906,35.7422,13.552,-10.8429
3.6175,11099.5,1179.58,13551.6,33.948,267.298,118.539,4409.6,-603.191,9359.97,-6.89439,0.119289,10.2178,-4356.03,18155.7,514.999,-1.02661,101.926,293.073,-174.449,10667.1,-1083.74,5.19516,16.5267,78.5358,-3487.3,5623.6,-1262.96,-12.8627,55.2334,51.9454,3756.37,-9762.54,981.917,-22.5904,-25.6949,86.6953,8184.5,-2450.37,385.343,36.2506,13.6504,-10.7837
3.618,11171.9,1183.65,13589.5,34.1214,266.632,117.806,4401.63,-604.971,9358.45,-6.22887,-0.297591,10.0939,-4399.36,18214.2,496.279,-1.35397,101.541,292.718,-179.792,10665.7,-1112.56,5.35149,16.7356,78.9122,-3496.03,5651.83,-1259.31,-12.9522,53.9223,51.3751,3779.62,-9816.02,973.815,-22.3565,-26.5109,86.4858,8207.42,-2477.65,373.532,36.8228,13.7369,-10.772
3.6185,11251.7,1194.09,13618.7,34.2442,266.014,117.131,4403.69,-574.459,9352.71,-5.70018,-0.706708,9.94317,-4454.14,18262.8,473.768,-1.62367,101.196,292.351,-178.429,10654.4,-1157.45,5.51081,16.9568,79.2821,-3502.56,5684.18,-1253.86,-12.921,52.5509,50.8454,3799.56,-9867.66,954.991,-21.9927,-27.2595,86.1212,8227.55,-2499.2,362.662,37.475,13.8085,-10.8197
3.619,11331.6,1204.52,13648.0,34.3671,265.397,116.455,4405.76,-543.946,9346.97,-5.17149,-1.11582,9.79245,-4508.92,18311.4,451.257,-1.89337,100.852,291.985,-177.066,10643.0,-1202.35,5.67013,17.178,79.6519,-3509.09,5716.52,-1248.42,-12.8897,51.1795,50.3157,3819.51,-9919.3,936.167,-21.629,-28.0082,85.7565,8247.68,-2520.74,351.793,38.1272,13.8801,-10.8673
3.6195,11411.5,1214.96,13677.3,34.4899,264.78,115.78,4407.83,-513.434,9341.24,-4.6428,-1.52494,9.64173,-4563.69,18360.1,428.746,-2.16307,100.508,291.618,-175.704,10631.7,-1247.25,5.82945,17.3993,80.0218,-3515.63,5748.86,-1242.97,-12.8584,49.8082,49.786,3839.46,-9970.94,917.342,-21.2652,-28.7569,85.3919,8267.8,-2542.28,340.923,38.7794,13.9517,-10.915
3.62,11491.3,1225.39,13706.5,34.6128,264.162,115.105,4409.9,-482.922,9335.5,-4.11411,-1.93406,9.49101,-4618.47,18408.7,406.235,-2.43276,100.163,291.251,-174.341,10620.4,-1292.14,5.98877,17.6205,80.3917,-3522.16,5781.21,-1237.52,-12.8272,48.4368,49.2563,3859.4,-10022.6,898.518,-20.9014,-29.5055,85.0273,8287.93,-2563.83,330.053,39.4316,14.0234,-10.9627
3.6205,11571.2,1235.82,13735.8,34.7356,263.545,114.43,4411.96,-452.409,9329.76,-3.58542,-2.34317,9.34029,-4673.25,18457.3,383.724,-2.70246,99.8188,290.885,-172.978,10609.0,-1337.04,6.14809,17.8417,80.7615,-3528.69,5813.55,-1232.08,-12.7959,47.0655,48.7266,3879.35,-10074.2,879.694,-20.5376,-30.2542,84.6627,8308.06,-2585.37,319.183,40.0838,14.095,-11.0103
3.621,11651.1,1246.26,13765.0,34.8585,262.928,113.755,4414.03,-421.897,9324.03,-3.05673,-2.75229,9.18958,-4728.02,18506.0,361.213,-2.97216,99.4744,290.518,-171.615,10597.7,-1381.94,6.30741,18.0629,81.1314,-3535.22,5845.9,-1226.63,-12.7646,45.6941,48.1969,3899.3,-10125.9,860.87,-20.1739,-31.0029,84.2981,8328.19,-2606.91,308.313,40.736,14.1666,-11.058
3.6215,11731.0,1256.69,13794.3,34.9813,262.31,113.08,4416.1,-391.384,9318.29,-2.52804,-3.16141,9.03886,-4782.8,18554.6,338.702,-3.24186,99.1301,290.151,-170.253,10586.4,-1426.83,6.46673,18.2842,81.5013,-3541.76,5878.24,-1221.19,-12.7334,44.3227,47.6672,3919.24,-10177.5,842.045,-19.8101,-31.7515,83.9335,8348.32,-2628.46,297.444,41.3882,14.2382,-11.1057
3.622,11810.8,1267.13,13823.5,35.1042,261.693,112.405,4418.17,-360.872,9312.55,-1.99934,-3.57052,8.88814,-4837.58,18603.2,316.191,-3.51155,98.7857,289.785,-168.89,10575.1,-1471.73,6.62606,18.5054,81.8712,-3548.29,5910.58,-1215.74,-12.7021,42.9514,47.1375,3939.19,-10229.1,823.221,-19.4463,-32.5002,83.5688,8368.45,-2650.0,286.574,42.0404,14.3098,-11.1534
3.6225,11890.6,1282.4,13834.4,35.1413,261.095,111.756,4410.88,-322.425,9319.92,-1.55079,-3.94187,8.79276,-4912.39,18647.2,292.373,-3.749,98.3894,289.424,-170.88,10575.2,-1505.18,6.68684,18.7481,82.2701,-3546.9,5945.65,-1213.29,-12.6067,41.5491,46.6286,3959.23,-10265.1,805.153,-19.0604,-33.2189,83.0704,8389.38,-2669.95,287.212,42.791,14.321,-11.2058
3.623,11970.4,1301.55,13830.7,35.1097,260.513,111.128,4396.12,-277.629,9337.78,-1.16635,-4.28301,8.74164,-5003.24,18687.4,267.509,-3.96066,97.9514,289.068,-175.551,10584.5,-1529.47,6.66879,19.008,82.6924,-3539.18,5982.91,-1213.23,-12.4601,40.1222,46.1365,3979.34,-10288.6,787.689,-18.6568,-33.9136,82.4648,8410.95,-2688.62,297.056,43.6204,14.2837,-11.2619
3.6235,12050.2,1320.69,13826.9,35.0782,259.931,110.501,4381.35,-232.834,9355.64,-0.781904,-4.62414,8.69053,-5094.09,18727.6,242.645,-4.17231,97.5135,288.712,-180.223,10593.9,-1553.76,6.65074,19.268,83.1147,-3531.46,6020.16,-1213.18,-12.3134,38.6952,45.6444,3999.46,-10312.1,770.225,-18.2531,-34.6082,81.8593,8432.53,-2707.29,306.9,44.4498,14.2464,-11.3181
3.624,12130.0,1339.84,13823.1,35.0467,259.348,109.874,4366.59,-188.039,9373.51,-0.397461,-4.96527,8.63942,-5184.93,18767.9,217.781,-4.38396,97.0756,288.356,-184.895,10603.2,-1578.06,6.63269,19.5279,83.537,-3523.73,6057.42,-1213.12,-12.1668,37.2683,45.1523,4019.57,-10335.5,752.761,-17.8495,-35.3029,81.2538,8454.1,-2725.97,316.744,45.2792,14.2091,-11.3743
3.6245,12209.7,1358.99,13819.4,35.0151,258.766,109.246,4351.82,-143.243,9391.37,-0.0130173,-5.30641,8.58831,-5275.78,18808.1,192.918,-4.59561,96.6377,288.0,-189.567,10612.5,-1602.35,6.61464,19.7878,83.9592,-3516.01,6094.67,-1213.07,-12.0201,35.8413,44.6601,4039.68,-10359.0,735.297,-17.4459,-35.9976,80.6482,8475.68,-2744.64,326.588,46.1087,14.1718,-11.4305
3.625,12289.5,1378.14,13815.6,34.9836,258.184,108.619,4337.06,-98.4479,9409.23,0.371426,-5.64754,8.5372,-5366.63,18848.3,168.054,-4.80727,96.1998,287.644,-194.239,10621.8,-1626.64,6.59659,20.0478,84.3815,-3508.29,6131.93,-1213.01,-11.8735,34.4143,44.168,4059.8,-10382.4,717.832,-17.0422,-36.6923,80.0427,8497.25,-2763.31,336.432,46.9381,14.1345,-11.4867
3.6255,12369.3,1397.28,13811.8,34.9521,257.601,107.991,4322.3,-53.6525,9427.09,0.75587,-5.98868,8.48608,-5457.48,18888.5,143.19,-5.01892,95.7619,287.288,-198.91,10631.2,-1650.93,6.57853,20.3077,84.8038,-3500.56,6169.18,-1212.96,-11.7268,32.9874,43.6759,4079.91,-10405.9,700.368,-16.6386,-37.387,79.4372,8518.83,-2781.98,346.276,47.7675,14.0972,-11.5429
3.626,12449.0,1416.43,13808.0,34.9205,257.019,107.364,4307.53,-8.85716,9444.95,1.14031,-6.32981,8.43497,-5548.32,18928.8,118.327,-5.23057,95.324,286.932,-203.582,10640.5,-1675.23,6.56048,20.5676,85.2261,-3492.84,6206.44,-1212.9,-11.5802,31.5604,43.1838,4100.02,-10429.4,682.904,-16.2349,-38.0817,78.8316,8540.41,-2800.66,356.12,48.5969,14.0599,-11.599
3.6265,12528.8,1435.58,13804.3,34.889,256.437,106.736,4292.77,35.9382,9462.81,1.52476,-6.67095,8.38386,-5639.17,18969.0,93.4628,-5.44222,94.8861,286.576,-208.254,10649.8,-1699.52,6.54243,20.8275,85.6483,-3485.12,6243.69,-1212.85,-11.4335,30.1335,42.6916,4120.14,-10452.8,665.44,-15.8313,-38.7763,78.2261,8561.98,-2819.33,365.964,49.4263,14.0227,-11.6552
3.627,12608.0,1447.08,13790.6,34.7471,255.774,106.052,4285.54,38.5344,9474.67,1.77062,-7.08358,8.31634,-5747.56,18988.7,60.1983,-5.56475,94.2635,286.268,-219.469,10679.6,-1691.78,6.35432,21.0316,86.0785,-3459.92,6291.23,-1208.43,-11.3036,28.719,42.2122,4138.51,-10452.0,633.837,-15.4703,-39.3279,77.5013,8578.71,-2824.61,377.565,50.2673,13.8635,-11.7618
3.6275,12686.9,1454.76,13771.9,34.55,255.072,105.34,4282.08,20.0309,9483.52,1.94719,-7.53195,8.2406,-5864.73,18998.2,22.7333,-5.64271,93.5487,285.985,-233.956,10719.7,-1668.04,6.08117,21.2076,86.5126,-3425.98,6343.9,-1201.83,-11.182,27.3108,41.7393,4156.02,-10439.0,595.165,-15.1305,-39.8079,76.7168,8593.02,-2823.19,390.045,51.1139,13.6435,-11.8935
3.628,12765.8,1462.44,13753.3,34.3528,254.37,104.628,4278.62,1.5275,9492.38,2.12376,-7.98033,8.16487,-5981.9,19007.6,-14.7316,-5.72068,92.8338,285.702,-248.443,10759.7,-1644.29,5.80802,21.3837,86.9467,-3392.04,6396.58,-1195.22,-11.0604,25.9026,41.2663,4173.52,-10426.0,556.493,-14.7908,-40.2879,75.9324,8607.33,-2821.77,402.525,51.9606,13.4234,-12.0252
3.6285,12844.7,1470.12,13734.7,34.1557,253.668,103.915,4275.17,-16.9759,9501.24,2.30032,-8.42871,8.08914,-6099.06,19017.0,-52.1965,-5.79864,92.1189,285.419,-262.929,10799.7,-1620.54,5.53487,21.5598,87.3808,-3358.11,6449.26,-1188.62,-10.9388,24.4943,40.7933,4191.03,-10413.0,517.821,-14.451,-40.7679,75.1479,8621.64,-2820.35,415.004,52.8073,13.2033,-12.157
3.629,12923.6,1477.8,13716.0,33.9586,252.966,103.203,4271.71,-35.4794,9510.09,2.47689,-8.87709,8.01341,-6216.23,19026.5,-89.6614,-5.8766,91.404,285.136,-277.416,10839.8,-1596.79,5.26172,21.7359,87.8148,-3324.17,6501.94,-1182.02,-10.8173,23.0861,40.3203,4208.54,-10400.1,479.149,-14.1113,-41.2479,74.3634,8635.95,-2818.93,427.484,53.654,12.9833,-12.2887
3.6295,13002.4,1485.47,13697.4,33.7615,252.264,102.491,4268.25,-53.9828,9518.95,2.65346,-9.32547,7.93767,-6333.39,19035.9,-127.126,-5.95457,90.6891,284.852,-291.903,10879.8,-1573.05,4.98857,21.912,88.2489,-3290.23,6554.61,-1175.42,-10.6957,21.6779,39.8473,4226.04,-10387.1,440.476,-13.7715,-41.7279,73.579,8650.25,-2817.51,439.964,54.5007,12.7632,-12.4204
3.63,13081.3,1493.15,13678.8,33.5643,251.562,101.778,4264.79,-72.4862,9527.81,2.83003,-9.77385,7.86194,-6450.56,19045.4,-164.591,-6.03253,89.9742,284.569,-306.39,10919.9,-1549.3,4.71542,22.088,88.683,-3256.3,6607.29,-1168.81,-10.5741,20.2697,39.3743,4243.55,-10374.1,401.804,-13.4318,-42.2079,72.7945,8664.56,-2816.1,452.444,55.3474,12.5432,-12.5522
3.6305,13160.2,1500.83,13660.1,33.3672,250.86,101.066,4261.34,-90.9897,9536.67,3.0066,-10.2222,7.78621,-6567.72,19054.8,-202.056,-6.11049,89.2593,284.286,-320.877,10959.9,-1525.55,4.44227,22.2641,89.1171,-3222.36,6659.97,-1162.21,-10.4525,18.8615,38.9013,4261.05,-10361.1,363.132,-13.0921,-42.6879,72.01,8678.87,-2814.68,464.923,56.1941,12.3231,-12.6839
3.631,13239.1,1508.51,13641.5,33.1701,250.158,100.354,4257.88,-109.493,9545.52,3.18317,-10.6706,7.71048,-6684.89,19064.3,-239.521,-6.18846,88.5444,284.003,-335.363,10999.9,-1501.8,4.16912,22.4402,89.5512,-3188.42,6712.64,-1155.61,-10.3309,17.4532,38.4283,4278.56,-10348.1,324.46,-12.7523,-43.1679,71.2256,8693.18,-2813.26,477.403,57.0407,12.103,-12.8156
3.6315,13309.1,1459.35,13597.6,33.0148,249.475,99.4608,4237.37,-152.702,9560.54,3.54948,-11.1205,7.62897,-6802.66,19061.1,-292.359,-6.19146,87.7361,283.726,-360.956,11019.6,-1468.66,3.91608,22.5443,89.9952,-3138.9,6773.27,-1137.73,-10.3114,16.2388,38.1031,4291.37,-10320.2,272.746,-12.5656,-43.491,70.3962,8711.26,-2815.5,498.548,57.6875,11.8206,-12.9179
3.632,13376.6,1393.95,13546.4,32.8715,248.797,98.5165,4212.0,-202.97,9577.32,3.97,-11.5707,7.54581,-6920.61,19054.4,-349.59,-6.17304,86.9011,283.451,-389.721,11033.5,-1432.83,3.66878,22.6279,90.4421,-3084.93,6836.16,-1116.62,-10.3209,15.0797,37.8202,4302.83,-10288.1,217.305,-12.4226,-43.7693,69.5539,8730.43,-2818.79,522.168,58.2771,11.5204,-13.0117
3.6325,13444.0,1328.54,13495.3,32.7282,248.12,97.5722,4186.63,-253.238,9594.1,4.39051,-12.021,7.46265,-7038.55,19047.6,-406.821,-6.15462,86.0661,283.176,-418.486,11047.4,-1397.0,3.42148,22.7116,90.889,-3030.95,6899.06,-1095.51,-10.3305,13.9206,37.5372,4314.29,-10256.0,161.865,-12.2797,-44.0475,68.7117,8749.59,-2822.08,545.788,58.8668,11.2202,-13.1055
3.633,13511.5,1263.14,13444.1,32.5849,247.442,96.6278,4161.25,-303.506,9610.87,4.81103,-12.4713,7.37949,-7156.5,19040.9,-464.052,-6.1362,85.2311,282.9,-447.251,11061.2,-1361.17,3.17418,22.7952,91.3359,-2976.98,6961.95,-1074.41,-10.3401,12.7615,37.2543,4325.76,-10223.8,106.425,-12.1367,-44.3258,67.8694,8768.75,-2825.36,569.409,59.4564,10.92,-13.1993
3.6335,13578.9,1197.74,13392.9,32.4416,246.765,95.6835,4135.88,-353.774,9627.65,5.23155,-12.9216,7.29633,-7274.44,19034.1,-521.282,-6.11778,84.3961,282.625,-476.016,11075.1,-1325.33,2.92688,22.8788,91.7828,-2923.01,7024.85,-1053.3,-10.3497,11.6025,36.9714,4337.22,-10191.7,50.9848,-11.9937,-44.6041,67.0272,8787.91,-2828.65,593.029,60.046,10.6197,-13.2932
3.634,13646.4,1132.33,13341.8,32.2983,246.087,94.7392,4110.5,-404.042,9644.43,5.65207,-13.3719,7.21317,-7392.39,19027.4,-578.513,-6.09936,83.5611,282.35,-504.781,11089.0,-1289.5,2.67959,22.9624,92.2297,-2869.03,7087.74,-1032.19,-10.3592,10.4434,36.6885,4348.68,-10159.6,-4.45542,-11.8507,-44.8824,66.1849,8807.08,-2831.94,616.65,60.6356,10.3195,-13.387
3.6345,13713.8,1066.93,13290.6,32.155,245.41,93.7949,4085.13,-454.31,9661.2,6.07259,-13.8221,7.13001,-7510.33,19020.6,-635.744,-6.08095,82.7261,282.075,-533.546,11102.9,-1253.67,2.43229,23.046,92.6765,-2815.06,7150.64,-1011.09,-10.3688,9.2843,36.4055,4360.15,-10127.4,-59.8956,-11.7078,-45.1606,65.3427,8826.24,-2835.23,640.27,61.2253,10.0193,-13.4808
3.635,13781.3,1001.53,13239.5,32.0117,244.732,92.8506,4059.75,-504.578,9677.98,6.49311,-14.2724,7.04685,-7628.28,19013.9,-692.975,-6.06253,81.8911,281.8,-562.311,11116.7,-1217.84,2.18499,23.1296,93.1234,-2761.09,7213.53,-989.98,-10.3784,8.12522,36.1226,4371.61,-10095.3,-115.336,-11.5648,-45.4389,64.5004,8845.4,-2838.52,663.89,61.8149,9.71906,-13.5746
3.6355,13848.7,936.123,13188.3,31.8684,244.055,91.9063,4034.38,-554.846,9694.76,6.91362,-14.7227,6.96369,-7746.22,19007.2,-750.205,-6.04411,81.0561,281.525,-591.076,11130.6,-1182.01,1.93769,23.2132,93.5703,-2707.11,7276.43,-968.874,-10.388,6.96614,35.8397,4383.07,-10063.2,-170.776,-11.4218,-45.7172,63.6582,8864.56,-2841.81,687.511,62.4045,9.41883,-13.6684
3.636,13949.4,843.348,13095.9,31.9145,243.498,90.7098,4010.41,-574.178,9704.71,7.27233,-15.228,6.81228,-7860.42,18977.7,-833.081,-6.06549,80.2438,281.247,-612.901,11121.4,-1172.3,1.79878,23.2916,94.1017,-2637.77,7337.81,-946.547,-10.6198,6.19287,35.7582,4394.54,-10031.8,-215.905,-11.5288,-45.8689,62.8206,8873.23,-2812.0,690.604,63.1435,9.14294,-13.7822
3.6365,14054.2,747.151,12998.2,31.9843,242.957,89.4818,3986.62,-589.644,9713.81,7.62331,-15.7401,6.65235,-7974.14,18945.4,-919.163,-6.09184,79.4343,280.969,-633.858,11109.2,-1165.87,1.67342,23.3694,94.6437,-2566.52,7399.01,-924.068,-10.8794,5.46784,35.7018,4406.01,-10000.5,-259.745,-11.667,-46.0049,61.9837,8880.59,-2778.06,691.132,63.9011,8.87008,-13.8984
3.637,14159.0,650.955,12900.6,32.0541,242.416,88.2539,3962.82,-605.11,9722.9,7.9743,-16.2522,6.49241,-8087.87,18913.2,-1005.24,-6.11819,78.6248,280.69,-654.816,11097.1,-1159.43,1.54805,23.4472,95.1857,-2495.26,7460.21,-901.59,-11.139,4.74281,35.6455,4417.48,-9969.19,-303.585,-11.8052,-46.1408,61.1467,8887.96,-2744.11,691.659,64.6588,8.59723,-14.0146
3.6375,14263.8,554.758,12803.0,32.1239,241.874,87.0259,3939.03,-620.576,9732.0,8.32528,-16.7643,6.33248,-8201.59,18880.9,-1091.33,-6.14455,77.8153,280.412,-675.774,11085.0,-1152.99,1.42269,23.525,95.7277,-2424.0,7521.41,-879.111,-11.3987,4.01777,35.5892,4428.95,-9937.89,-347.424,-11.9434,-46.2768,60.3097,8895.32,-2710.17,692.187,65.4164,8.32438,-14.1308
3.638,14368.6,458.562,12705.4,32.1938,241.333,85.7979,3915.24,-636.042,9741.09,8.67626,-17.2764,6.17254,-8315.32,18848.6,-1177.41,-6.1709,77.0059,280.134,-696.731,11072.9,-1146.55,1.29733,23.6028,96.2697,-2352.75,7582.61,-856.632,-11.6583,3.29273,35.5329,4440.42,-9906.6,-391.264,-12.0817,-46.4128,59.4728,8902.68,-2676.23,692.715,66.174,8.05152,-14.2471
3.6385,14473.4,362.366,12607.8,32.2636,240.791,84.5699,3891.45,-651.508,9750.19,9.02724,-17.7885,6.01261,-8429.05,18816.3,-1263.49,-6.19725,76.1964,279.856,-717.689,11060.7,-1140.11,1.17197,23.6806,96.8118,-2281.49,7643.81,-834.153,-11.9179,2.5677,35.4765,4451.88,-9875.31,-435.104,-12.2199,-46.5487,58.6358,8910.04,-2642.29,693.242,66.9317,7.77867,-14.3633
3.639,14578.2,266.169,12510.1,32.3334,240.25,83.3419,3867.65,-666.974,9759.29,9.37822,-18.3006,5.85267,-8542.77,18784.0,-1349.57,-6.22361,75.3869,279.578,-738.646,11048.6,-1133.67,1.04661,23.7584,97.3537,-2210.23,7705.01,-811.674,-12.1775,1.84266,35.4202,4463.35,-9844.01,-478.944,-12.3581,-46.6847,57.7989,8917.4,-2608.34,693.77,67.6893,7.50581,-14.4795
