Time,RFoot_accel.x,RFoot_accel.y,RFoot_accel.z,RFoot_gyro.x,RFoot_gyro.y,RFoot_gyro.z,LFoot_accel.x,LFoot_accel.y,LFoot_accel.z,LFoot_gyro.x,LFoot_gyro.y,LFoot_gyro.z,RShank_accel.x,RShank_accel.y,RShank_accel.z,RShank_gyro.x,RShank_gyro.y,RShank_gyro.z,LShank_accel.x,LShank_accel.y,LShank_accel.z,LShank_gyro.x,LShank_gyro.y,LShank_gyro.z,RThigh_accel.x,RThigh_accel.y,RThigh_accel.z,RThigh_gyro.x,RThigh_gyro.y,RThigh_gyro.z,LThigh_accel.x,LThigh_accel.y,LThigh_accel.z,LThigh_gyro.x,LThigh_gyro.y,LThigh_gyro.z,Pelvis_accel.x,Pelvis_accel.y,Pelvis_accel.z,Pelvis_gyro.x,Pelvis_gyro.y,Pelvis_gyro.z
3.32,7664.12,-1480.32,8307.07,-41.682,407.349,64.5924,4239.05,830.835,8800.99,6.52436,-9.21042,3.67436,-164.812,10338.1,-1039.71,25.7067,63.1055,326.609,-172.344,9919.14,-2265.05,3.20312,10.8916,42.7458,-4636.1,5247.68,-2778.41,-4.84412,154.964,116.457,120.212,-10340.4,-1481.2,-6.73097,-5.44145,107.249,6997.99,-38.9698,-334.459,54.5282,28.8769,11.809
3.3205,7599.35,-1528.91,8300.18,-41.1544,406.414,64.799,4240.31,808.894,8815.76,6.58296,-9.32029,3.87208,-121.289,10398.1,-1062.78,25.7491,63.7695,326.959,-153.641,9909.13,-2274.54,3.13267,10.882,42.8571,-4684.38,5180.3,-2757.17,-5.20925,155.664,116.237,109.058,-10359.5,-1458.72,-7.01389,-5.22002,106.487,7000.01,-33.2295,-336.584,54.5559,29.0097,11.5803
3.321,7534.58,-1577.5,8293.3,-40.6268,405.48,65.0056,4241.57,786.953,8830.54,6.64157,-9.43015,4.0698,-77.7657,10458.1,-1085.85,25.7916,64.4334,327.308,-134.939,9899.11,-2284.03,3.06221,10.8723,42.9683,-4732.66,5112.93,-2735.92,-5.57437,156.363,116.017,97.903,-10378.6,-1436.24,-7.29681,-4.99859,105.725,7002.04,-27.4892,-338.71,54.5837,29.1425,11.3516
3.3215,7469.81,-1626.09,8286.41,-40.0992,404.546,65.2122,4242.83,765.012,8845.31,6.70017,-9.54001,4.26753,-34.2427,10518.0,-1108.92,25.8341,65.0974,327.658,-116.236,9889.09,-2293.52,2.99176,10.8626,43.0796,-4780.95,5045.55,-2714.67,-5.9395,157.063,115.797,86.7483,-10397.7,-1413.76,-7.57972,-4.77716,104.963,7004.07,-21.7489,-340.836,54.6114,29.2753,11.1229
3.322,7405.04,-1674.69,8279.53,-39.5716,403.612,65.4188,4244.09,743.071,8860.08,6.75878,-9.64988,4.46525,9.28019,10578.0,-1131.98,25.8765,65.7614,328.008,-97.5334,9879.07,-2303.01,2.9213,10.8529,43.1908,-4829.23,4978.17,-2693.43,-6.30463,157.762,115.576,75.5936,-10416.8,-1391.28,-7.86264,-4.55573,104.201,7006.1,-16.0085,-342.962,54.6392,29.4082,10.8942
3.3225,7340.27,-1723.28,8272.65,-39.044,402.678,65.6254,4245.35,721.13,8874.86,6.81738,-9.75974,4.66298,52.8031,10638.0,-1155.05,25.919,66.4254,328.357,-78.8307,9869.06,-2312.5,2.85085,10.8433,43.3021,-4877.51,4910.79,-2672.18,-6.66976,158.462,115.356,64.4388,-10435.9,-1368.8,-8.14556,-4.3343,103.439,7008.12,-10.2682,-345.088,54.667,29.541,10.6654
3.323,7275.5,-1771.87,8265.76,-38.5164,401.743,65.832,4246.62,699.188,8889.63,6.87599,-9.8696,4.8607,96.326,10698.0,-1178.12,25.9614,67.0893,328.707,-60.1281,9859.04,-2321.99,2.7804,10.8336,43.4134,-4925.8,4843.42,-2650.93,-7.03488,159.161,115.136,53.2841,-10455.0,-1346.33,-8.42847,-4.11286,102.677,7010.15,-4.52791,-347.214,54.6947,29.6738,10.4367
3.3235,7210.73,-1820.46,8258.88,-37.9888,400.809,66.0386,4247.88,677.247,8904.4,6.93459,-9.97946,5.05842,139.849,10758.0,-1201.19,26.0039,67.7533,329.056,-41.4254,9849.02,-2331.48,2.70994,10.8239,43.5246,-4974.08,4776.04,-2629.69,-7.40001,159.861,114.916,42.1294,-10474.1,-1323.85,-8.71139,-3.89143,101.915,7012.18,1.21241,-349.34,54.7225,29.8066,10.208
3.324,7145.96,-1869.06,8251.99,-37.4612,399.875,66.2452,4249.14,655.306,8919.17,6.9932,-10.0893,5.25615,183.372,10818.0,-1224.26,26.0464,68.4173,329.406,-22.7227,9839.0,-2340.97,2.63949,10.8142,43.6359,-5022.36,4708.66,-2608.44,-7.76514,160.56,114.696,30.9747,-10493.2,-1301.37,-8.99431,-3.67,101.153,7014.2,6.95273,-351.466,54.7502,29.9394,9.97928
3.3245,7087.3,-1915.11,8245.77,-36.9143,398.923,66.4719,4250.97,633.876,8931.99,7.06661,-10.1986,5.44367,223.322,10877.5,-1243.36,26.0871,69.0793,329.737,-2.10847,9829.11,-2350.22,2.57582,10.8186,43.7405,-5072.74,4648.77,-2587.19,-8.13199,161.243,114.495,21.2411,-10511.6,-1281.18,-9.2577,-3.49468,100.399,7016.51,11.9718,-353.058,54.777,30.081,9.74574
3.325,7077.51,-1940.87,8244.82,-36.2134,397.825,66.8594,4257.34,616.535,8929.19,7.2585,-10.3034,5.54957,234.692,10933.2,-1230.73,26.1137,69.7253,329.924,33.7979,9820.16,-2357.56,2.56645,10.9357,43.7915,-5139.91,4648.74,-2565.97,-8.5126,161.79,114.445,22.8766,-10525.0,-1279.31,-9.36486,-3.68825,99.7081,7021.01,11.2207,-350.379,54.796,30.2929,9.47356
3.3255,7067.72,-1966.62,8243.88,-35.5124,396.727,67.2468,4263.71,599.194,8926.38,7.45039,-10.4081,5.65547,246.061,10988.9,-1218.1,26.1403,70.3713,330.11,69.7043,9811.22,-2364.9,2.55708,11.0528,43.8425,-5207.07,4648.71,-2544.75,-8.89321,162.338,114.396,24.5122,-10538.3,-1277.44,-9.47203,-3.88182,99.0173,7025.51,10.4696,-347.701,54.815,30.5047,9.20139
3.326,7057.93,-1992.38,8242.93,-34.8114,395.629,67.6342,4270.08,581.852,8923.58,7.64228,-10.5129,5.76137,257.431,11044.6,-1205.47,26.1669,71.0174,330.297,105.611,9802.28,-2372.24,2.54772,11.1698,43.8935,-5274.23,4648.68,-2523.53,-9.27382,162.885,114.346,26.1477,-10551.6,-1275.57,-9.5792,-4.07539,98.3266,7030.01,9.71856,-345.023,54.8341,30.7165,8.92921
3.3265,7048.14,-2018.14,8241.99,-34.1105,394.532,68.0216,4276.46,564.511,8920.77,7.83417,-10.6177,5.86727,268.8,11100.3,-1192.84,26.1936,71.6634,330.483,141.517,9793.34,-2379.58,2.53835,11.2869,43.9446,-5341.39,4648.65,-2502.31,-9.65443,163.432,114.296,27.7833,-10564.9,-1273.7,-9.68636,-4.26896,97.6358,7034.51,8.96749,-342.344,54.8531,30.9283,8.65704
3.327,7038.35,-2043.89,8241.04,-33.4095,393.434,68.4091,4282.83,547.17,8917.97,8.02606,-10.7224,5.97317,280.17,11156.0,-1180.21,26.2202,72.3095,330.67,177.423,9784.39,-2386.92,2.52898,11.4039,43.9956,-5408.55,4648.62,-2481.09,-10.035,163.979,114.247,29.4188,-10578.2,-1271.83,-9.79353,-4.46253,96.945,7039.01,8.21642,-339.666,54.8721,31.1401,8.38486
3.3275,7028.55,-2069.65,8240.1,-32.7086,392.336,68.7965,4289.2,529.828,8915.16,8.21795,-10.8272,6.07907,291.54,11211.7,-1167.59,26.2468,72.9555,330.856,213.33,9775.45,-2394.26,2.51961,11.521,44.0466,-5475.71,4648.59,-2459.87,-10.4156,164.527,114.197,31.0543,-10591.5,-1269.96,-9.9007,-4.6561,96.2543,7043.51,7.46534,-336.988,54.8911,31.3519,8.11269
3.328,7018.76,-2095.4,8239.15,-32.0076,391.238,69.1839,4295.58,512.487,8912.36,8.40983,-10.932,6.18497,302.909,11267.4,-1154.96,26.2734,73.6016,331.043,249.236,9766.51,-2401.6,2.51025,11.6381,44.0977,-5542.87,4648.56,-2438.65,-10.7963,165.074,114.148,32.6899,-10604.9,-1268.09,-10.0079,-4.84967,95.5635,7048.01,6.71427,-334.309,54.9101,31.5637,7.84051
3.3285,7008.97,-2121.16,8238.21,-31.3067,390.141,69.5713,4301.95,495.146,8909.55,8.60172,-11.0367,6.29087,314.279,11323.0,-1142.33,26.3001,74.2476,331.229,285.143,9757.57,-2408.94,2.50088,11.7551,44.1487,-5610.04,4648.53,-2417.43,-11.1769,165.621,114.098,34.3254,-10618.2,-1266.22,-10.115,-5.04324,94.8728,7052.51,5.9632,-331.631,54.9291,31.7755,7.56834
3.329,7008.53,-2136.46,8245.43,-30.6551,389.014,69.9945,4304.96,480.484,8912.23,8.82834,-11.1711,6.39867,315.292,11379.7,-1128.53,26.3103,74.8649,331.414,317.109,9747.45,-2417.04,2.52213,11.906,44.1946,-5675.97,4645.27,-2398.43,-11.5813,166.189,114.05,35.7733,-10631.9,-1264.83,-10.1853,-5.28292,94.1992,7059.84,4.15902,-329.698,54.9322,31.984,7.30554
3.3295,7040.81,-2115.18,8281.27,-30.1763,387.789,70.5426,4296.22,475.197,8934.1,9.17649,-11.4093,6.51311,280.056,11439.7,-1110.66,26.263,75.3817,331.596,335.284,9733.24,-2427.78,2.65053,12.1751,44.2226,-5737.62,4630.71,-2387.19,-12.0691,166.83,114.009,36.5645,-10647.2,-1265.11,-10.1264,-5.68403,93.5858,7077.09,-1.33107,-330.376,54.8793,32.1811,7.07557
3.33,7073.09,-2093.89,8317.11,-29.6975,386.563,71.0907,4287.48,469.911,8955.97,9.52465,-11.6475,6.62756,244.821,11499.7,-1092.79,26.2157,75.8985,331.777,353.46,9719.02,-2438.52,2.77893,12.4442,44.2506,-5799.26,4616.15,-2375.96,-12.5568,167.47,113.967,37.3557,-10662.5,-1265.38,-10.0675,-6.08513,92.9723,7094.34,-6.82115,-331.053,54.8264,32.3782,6.8456
3.3305,7105.37,-2072.6,8352.94,-29.2187,385.338,71.6388,4278.74,464.625,8977.84,9.87281,-11.8856,6.742,209.586,11559.7,-1074.92,26.1684,76.4152,331.958,371.635,9704.8,-2449.26,2.90733,12.7133,44.2786,-5860.91,4601.6,-2364.72,-13.0446,168.111,113.926,38.1469,-10677.7,-1265.66,-10.0086,-6.48623,92.3589,7111.59,-12.3112,-331.73,54.7736,32.5753,6.61562
3.331,7137.65,-2051.31,8388.78,-28.7399,384.112,72.1869,4269.99,459.339,8999.71,10.221,-12.1238,6.85645,174.35,11619.8,-1057.05,26.1211,76.932,332.139,389.811,9690.58,-2460.0,3.03573,12.9824,44.3066,-5922.56,4587.04,-2353.48,-13.5324,168.751,113.884,38.9381,-10693.0,-1265.93,-9.94969,-6.88733,91.7455,7128.84,-17.8013,-332.408,54.7207,32.7723,6.38565
3.3315,7169.93,-2030.03,8424.61,-28.2611,382.887,72.735,4261.25,454.053,9021.58,10.5691,-12.362,6.97089,139.115,11679.8,-1039.18,26.0738,77.4488,332.321,407.986,9676.37,-2470.74,3.16413,13.2515,44.3346,-5984.2,4572.48,-2342.24,-14.0202,169.391,113.843,39.7293,-10708.3,-1266.21,-9.89079,-7.28843,91.132,7146.09,-23.2914,-333.085,54.6678,32.9694,6.15568
3.332,7202.21,-2008.74,8460.45,-27.7823,381.661,73.2831,4252.51,448.766,9043.44,10.9173,-12.6002,7.08534,103.88,11739.8,-1021.31,26.0265,77.9655,332.502,426.162,9662.15,-2481.48,3.29253,13.5206,44.3626,-6045.85,4557.92,-2331.0,-14.5079,170.032,113.801,40.5205,-10723.5,-1266.48,-9.83189,-7.68954,90.5186,7163.34,-28.7815,-333.763,54.615,33.1665,5.92571
3.3325,7234.49,-1987.45,8496.29,-27.3035,380.436,73.8312,4243.76,443.48,9065.31,11.2654,-12.8383,7.19979,68.6442,11799.8,-1003.44,25.9792,78.4823,332.683,444.337,9647.93,-2492.22,3.42093,13.7897,44.3906,-6107.5,4543.37,-2319.76,-14.9957,170.672,113.759,41.3117,-10738.8,-1266.76,-9.77299,-8.09064,89.9052,7180.59,-34.2716,-334.44,54.5621,33.3636,5.69573
3.333,7266.77,-1966.16,8532.12,-26.8247,379.21,74.3794,4235.02,438.194,9087.18,11.6136,-13.0765,7.31423,33.4088,11859.8,-985.566,25.9319,78.9991,332.864,462.513,9633.71,-2502.96,3.54933,14.0588,44.4186,-6169.14,4528.81,-2308.52,-15.4835,171.312,113.718,42.1029,-10754.1,-1267.03,-9.7141,-8.49174,89.2918,7197.84,-39.7616,-335.118,54.5092,33.5607,5.46576
3.3335,7316.17,-1933.43,8569.75,-26.443,378.036,74.9943,4221.7,450.495,9098.18,11.9187,-13.2734,7.44621,-20.1754,11925.6,-963.138,25.8564,79.4722,333.036,471.663,9615.84,-2516.9,3.67967,14.3665,44.4426,-6226.84,4511.91,-2291.94,-16.0018,171.941,113.69,41.8129,-10758.6,-1275.09,-9.61423,-8.8066,88.7099,7214.54,-48.627,-334.497,54.43,33.7672,5.23638
3.334,7399.83,-1877.79,8610.97,-26.2554,376.965,75.743,4199.22,497.97,9087.44,12.1378,-13.3879,7.61326,-110.458,12002.8,-931.599,25.7244,79.858,333.188,462.761,9590.65,-2537.27,3.81389,14.7513,44.4587,-6276.61,4490.35,-2264.68,-16.5811,172.544,113.689,39.3604,-10741.5,-1298.72,-9.43242,-8.94899,88.1912,7230.13,-64.2429,-331.279,54.2982,33.9926,5.00817
3.3345,7483.48,-1822.15,8652.18,-26.0679,375.895,76.4916,4176.74,545.445,9076.7,12.3569,-13.5023,7.78031,-200.74,12080.1,-900.06,25.5925,80.2438,333.341,453.859,9565.47,-2557.63,3.94812,15.1361,44.4748,-6326.39,4468.79,-2237.41,-17.1605,173.148,113.688,36.9079,-10724.4,-1322.34,-9.25061,-9.09137,87.6725,7245.71,-79.8588,-328.062,54.1663,34.2181,4.77997
3.335,7567.13,-1766.51,8693.4,-25.8803,374.824,77.2403,4154.26,592.919,9065.96,12.576,-13.6168,7.94736,-291.022,12157.3,-868.521,25.4606,80.6296,333.493,444.957,9540.28,-2577.99,4.08234,15.5208,44.4908,-6376.17,4447.22,-2210.15,-17.7398,173.752,113.686,34.4554,-10707.3,-1345.97,-9.0688,-9.23376,87.1537,7261.3,-95.4748,-324.844,54.0345,34.4435,4.55176
3.3355,7650.79,-1710.87,8734.61,-25.6927,373.753,77.989,4131.78,640.394,9055.22,12.7951,-13.7312,8.1144,-381.304,12234.6,-836.981,25.3286,81.0154,333.646,436.055,9515.1,-2598.35,4.21656,15.9056,44.5069,-6425.95,4425.66,-2182.89,-18.3192,174.355,113.685,32.0029,-10690.2,-1369.6,-8.887,-9.37615,86.635,7276.89,-111.091,-321.627,53.9026,34.6689,4.32356
3.336,7734.44,-1655.23,8775.83,-25.5051,372.682,78.7376,4109.3,687.869,9044.48,13.0142,-13.8457,8.28145,-471.586,12311.8,-805.442,25.1967,81.4013,333.798,427.152,9489.91,-2618.72,4.35079,16.2904,44.5229,-6475.73,4404.09,-2155.62,-18.8985,174.959,113.684,29.5504,-10673.2,-1393.23,-8.70519,-9.51853,86.1163,7292.48,-126.707,-318.41,53.7708,34.8944,4.09535
3.3365,7818.1,-1599.59,8817.04,-25.3176,371.611,79.4863,4086.82,735.344,9033.74,13.2332,-13.9601,8.4485,-561.868,12389.1,-773.903,25.0648,81.7871,333.951,418.25,9464.73,-2639.08,4.48501,16.6752,44.539,-6525.51,4382.53,-2128.36,-19.4778,175.563,113.683,27.0979,-10656.1,-1416.85,-8.52339,-9.66092,85.5976,7308.07,-142.323,-315.192,53.6389,35.1198,3.86715
3.337,7901.75,-1543.95,8858.26,-25.13,370.54,80.235,4064.35,782.819,9023.0,13.4523,-14.0746,8.61555,-652.15,12466.3,-742.363,24.9328,82.1729,334.103,409.348,9439.54,-2659.44,4.61924,17.06,44.555,-6575.29,4360.97,-2101.09,-20.0572,176.166,113.682,24.6455,-10639.0,-1440.48,-8.34158,-9.8033,85.0789,7323.66,-157.938,-311.975,53.507,35.3452,3.63894
3.3375,7985.4,-1488.31,8899.47,-24.9424,369.469,80.9836,4041.87,830.293,9012.26,13.6714,-14.189,8.7826,-742.432,12543.6,-710.824,24.8009,82.5587,334.256,400.446,9414.36,-2679.81,4.75346,17.4448,44.5711,-6625.07,4339.4,-2073.83,-20.6365,176.77,113.681,22.193,-10621.9,-1464.11,-8.15977,-9.94569,84.5602,7339.25,-173.554,-308.757,53.3752,35.5707,3.41074
3.338,8085.64,-1435.86,8941.03,-24.8296,368.523,81.7723,4016.36,878.192,9015.16,13.8132,-14.3178,8.94682,-854.485,12603.3,-686.97,24.713,82.8731,334.389,395.932,9397.12,-2707.06,4.88806,17.8428,44.5685,-6665.45,4321.56,-2058.69,-21.1112,177.304,113.704,24.7602,-10604.0,-1493.2,-7.92247,-9.94197,84.1265,7356.54,-190.627,-307.471,53.2419,35.7892,3.16513
3.3385,8206.59,-1387.42,8983.03,-24.8102,367.732,82.6111,3987.08,926.619,9035.12,13.8584,-14.4646,9.1075,-993.752,12641.0,-672.723,24.6803,83.0983,334.498,396.904,9389.82,-2742.93,5.02314,18.2575,44.5425,-6694.1,4308.35,-2058.73,-21.4549,177.75,113.759,33.6021,-10585.0,-1529.12,-7.6158,-9.75561,83.7993,7375.95,-209.52,-308.6,53.1069,35.9992,2.89778
3.339,8327.55,-1338.97,9025.04,-24.7908,366.941,83.4498,3957.79,975.047,9055.08,13.9036,-14.6113,9.26818,-1133.02,12678.8,-658.476,24.6476,83.3235,334.607,397.875,9382.52,-2778.8,5.15821,18.6722,44.5166,-6722.74,4295.15,-2058.76,-21.7987,178.196,113.813,42.4441,-10566.1,-1565.04,-7.30913,-9.56926,83.472,7395.36,-228.413,-309.729,52.9719,36.2092,2.63042
3.3395,8448.51,-1290.52,9067.04,-24.7714,366.15,84.2886,3928.51,1023.47,9075.03,13.9488,-14.7581,9.42886,-1272.28,12716.5,-644.229,24.6148,83.5487,334.716,398.846,9375.22,-2814.67,5.29328,19.0869,44.4906,-6751.38,4281.95,-2058.79,-22.1424,178.642,113.868,51.286,-10547.1,-1600.95,-7.00247,-9.3829,83.1448,7414.77,-247.307,-310.858,52.8369,36.4192,2.36306
3.34,8569.46,-1242.08,9109.04,-24.752,365.359,85.1273,3899.22,1071.9,9094.99,13.994,-14.9048,9.58955,-1411.55,12754.3,-629.982,24.5821,83.7739,334.826,399.817,9367.92,-2850.54,5.42836,19.5015,44.4647,-6780.03,4268.75,-2058.82,-22.4862,179.088,113.922,60.1279,-10528.1,-1636.87,-6.6958,-9.19655,82.8175,7434.18,-266.2,-311.987,52.702,36.6292,2.0957
3.3405,8690.42,-1193.63,9151.04,-24.7325,364.569,85.9661,3869.94,1120.33,9114.95,14.0392,-15.0516,9.75023,-1550.82,12792.1,-615.735,24.5493,83.9991,334.935,400.789,9360.62,-2886.41,5.56343,19.9162,44.4387,-6808.67,4255.55,-2058.86,-22.8299,179.534,113.976,68.9698,-10509.2,-1672.79,-6.38913,-9.01019,82.4903,7453.59,-285.093,-313.115,52.567,36.8391,1.82834
3.341,8811.38,-1145.18,9193.04,-24.7131,363.778,86.8048,3840.65,1168.76,9134.9,14.0844,-15.1984,9.91091,-1690.08,12829.8,-601.489,24.5166,84.2243,335.044,401.76,9353.32,-2922.28,5.69851,20.3309,44.4128,-6837.32,4242.35,-2058.89,-23.1736,179.98,114.031,77.8117,-10490.2,-1708.71,-6.08247,-8.82384,82.163,7473.0,-303.986,-314.244,52.432,37.0491,1.56099
3.3415,8932.33,-1096.74,9235.04,-24.6937,362.987,87.6436,3811.36,1217.19,9154.86,14.1296,-15.3451,10.0716,-1829.35,12867.6,-587.242,24.4839,84.4495,335.153,402.731,9346.01,-2958.15,5.83358,20.7456,44.3868,-6865.96,4229.15,-2058.92,-23.5174,180.426,114.085,86.6537,-10471.2,-1744.63,-5.7758,-8.63748,81.8358,7492.41,-322.88,-315.373,52.297,37.2591,1.29363
3.342,9053.29,-1048.29,9277.04,-24.6743,362.196,88.4823,3782.08,1265.61,9174.82,14.1748,-15.4919,10.2323,-1968.62,12905.3,-572.995,24.4511,84.6747,335.262,403.702,9338.71,-2994.02,5.96865,21.1603,44.3609,-6894.61,4215.95,-2058.95,-23.8611,180.873,114.14,95.4956,-10452.3,-1780.55,-5.46913,-8.45113,81.5085,7511.82,-341.773,-316.502,52.162,37.4691,1.02627
3.3425,9191.08,-1022.67,9316.6,-24.7215,361.59,89.2893,3763.69,1296.44,9176.42,14.1859,-15.6452,10.455,-2100.18,12936.5,-570.275,24.5182,84.8477,335.403,412.757,9335.86,-3023.7,6.00469,21.5654,44.3198,-6923.94,4211.51,-2042.82,-24.2139,181.123,114.172,113.818,-10422.5,-1793.18,-5.23672,-8.18874,81.3006,7531.01,-363.622,-317.579,52.0213,37.5831,0.773533
3.343,9342.33,-1015.32,9354.21,-24.8218,361.132,90.0708,3754.03,1313.19,9163.33,14.1696,-15.8039,10.7275,-2225.59,12962.5,-576.777,24.6651,84.9791,335.569,428.278,9336.56,-3048.43,5.9615,21.9629,44.2665,-6953.81,4214.08,-2013.75,-24.5738,181.216,114.186,139.726,-10384.0,-1787.18,-5.06372,-7.86553,81.1881,7550.03,-387.836,-318.616,51.8761,37.6203,0.532491
3.3435,9493.58,-1007.97,9391.81,-24.9222,360.674,90.8523,3744.36,1329.94,9150.25,14.1533,-15.9625,10.9999,-2350.99,12988.4,-583.279,24.812,85.1105,335.735,443.8,9337.26,-3073.15,5.91831,22.3605,44.2133,-6983.69,4216.65,-1984.68,-24.9338,181.309,114.2,165.634,-10345.5,-1781.18,-4.89071,-7.54232,81.0757,7569.05,-412.05,-319.652,51.7308,37.6575,0.291449
3.344,9644.83,-1000.61,9429.42,-25.0226,360.216,91.6339,3734.7,1346.68,9137.17,14.137,-16.1212,11.2723,-2476.4,13014.4,-589.781,24.9589,85.2419,335.901,459.321,9337.96,-3097.88,5.87512,22.758,44.16,-7013.57,4219.22,-1955.6,-25.2937,181.403,114.214,191.541,-10307.0,-1775.19,-4.7177,-7.2191,80.9632,7588.08,-436.264,-320.689,51.5856,37.6948,0.0504072
3.3445,9796.08,-993.259,9467.03,-25.123,359.758,92.4154,3725.03,1363.43,9124.08,14.1207,-16.2798,11.5447,-2601.8,13040.3,-596.283,25.1058,85.3733,336.067,474.842,9338.66,-3122.6,5.83193,23.1555,44.1067,-7043.44,4221.8,-1926.53,-25.6537,181.496,114.229,217.449,-10268.6,-1769.19,-4.5447,-6.89589,80.8507,7607.1,-460.478,-321.725,51.4404,37.732,-0.190635
3.345,9947.33,-985.905,9504.64,-25.2233,359.299,93.197,3715.37,1380.18,9111.0,14.1044,-16.4384,11.8172,-2727.21,13066.3,-602.784,25.2527,85.5047,336.233,490.364,9339.37,-3147.33,5.78874,23.553,44.0535,-7073.32,4224.37,-1897.46,-26.0136,181.589,114.243,243.356,-10230.1,-1763.19,-4.37169,-6.57268,80.7382,7626.12,-484.693,-322.762,51.2951,37.7693,-0.431677
3.3455,10098.6,-978.551,9542.25,-25.3237,358.841,93.9785,3705.7,1396.93,9097.92,14.0881,-16.5971,12.0896,-2852.61,13092.3,-609.286,25.3995,85.636,336.399,505.885,9340.07,-3172.05,5.74555,23.9506,44.0002,-7103.2,4226.94,-1868.39,-26.3736,181.683,114.257,269.264,-10191.6,-1757.19,-4.19869,-6.24947,80.6258,7645.14,-508.907,-323.798,51.1499,37.8065,-0.672719
3.346,10249.8,-971.197,9579.86,-25.4241,358.383,94.76,3696.03,1413.67,9084.83,14.0718,-16.7557,12.362,-2978.02,13118.2,-615.788,25.5464,85.7674,336.565,521.407,9340.77,-3196.78,5.70236,24.3481,43.947,-7133.07,4229.51,-1839.32,-26.7335,181.776,114.271,295.171,-10153.1,-1751.19,-4.02568,-5.92626,80.5133,7664.16,-533.121,-324.835,51.0047,37.8438,-0.913761
3.3465,10401.1,-963.843,9617.47,-25.5245,357.925,95.5416,3686.37,1430.42,9071.75,14.0555,-16.9144,12.6345,-3103.42,13144.2,-622.29,25.6933,85.8988,336.731,536.928,9341.47,-3221.5,5.65917,24.7456,43.8937,-7162.95,4232.08,-1810.25,-27.0935,181.869,114.286,321.079,-10114.6,-1745.19,-3.85268,-5.60305,80.4008,7683.18,-557.335,-325.871,50.8595,37.881,-1.1548
3.347,10543.0,-966.12,9667.8,-25.5335,357.598,96.27,3704.64,1428.46,9059.14,14.0066,-17.0396,12.813,-3200.35,13186.0,-632.73,25.9152,85.9424,336.9,563.331,9351.82,-3220.76,5.50761,25.1483,43.903,-7173.5,4213.06,-1771.81,-27.3834,181.653,114.174,341.251,-10071.4,-1719.33,-3.82027,-5.34733,80.383,7691.74,-582.777,-335.782,50.729,37.9417,-1.34619
3.3475,10680.3,-973.211,9724.5,-25.4968,357.337,96.972,3736.87,1417.14,9046.78,13.9414,-17.1481,12.9446,-3283.04,13235.9,-645.138,26.1746,85.9421,337.069,595.174,9366.98,-3207.28,5.30186,25.5535,43.9436,-7174.4,4183.26,-1728.68,-27.6383,181.282,113.999,358.557,-10025.8,-1683.54,-3.85816,-5.12535,80.4126,7695.08,-608.832,-350.129,50.606,38.0141,-1.51274
3.348,10817.6,-980.302,9781.2,-25.4601,357.075,97.6739,3769.1,1405.83,9034.42,13.8762,-17.2566,13.0763,-3365.74,13285.7,-657.547,26.4339,85.9418,337.239,627.018,9382.15,-3193.79,5.09612,25.9587,43.9842,-7175.3,4153.45,-1685.55,-27.8932,180.911,113.824,375.862,-9980.11,-1647.75,-3.89605,-4.90337,80.4421,7698.42,-634.888,-364.477,50.4829,38.0865,-1.6793
3.3485,10954.9,-987.393,9837.9,-25.4234,356.814,98.3759,3801.34,1394.52,9022.05,13.811,-17.3651,13.2079,-3448.43,13335.6,-669.955,26.6933,85.9415,337.409,658.862,9397.32,-3180.31,4.89037,26.3639,44.0247,-7176.19,4123.64,-1642.42,-28.1481,180.539,113.649,393.167,-9934.46,-1611.97,-3.93394,-4.6814,80.4716,7701.75,-660.944,-378.824,50.3598,38.1589,-1.84585
3.349,11092.1,-994.484,9894.6,-25.3867,356.552,99.0778,3833.57,1383.2,9009.69,13.7458,-17.4736,13.3395,-3531.12,13385.4,-682.364,26.9526,85.9411,337.579,690.705,9412.48,-3166.83,4.68463,26.7691,44.0653,-7177.09,4093.83,-1599.29,-28.4031,180.168,113.475,410.472,-9888.82,-1576.18,-3.97183,-4.45942,80.5012,7705.09,-686.999,-393.172,50.2368,38.2313,-2.01241
3.3495,11229.4,-1001.58,9951.3,-25.35,356.291,99.7798,3865.8,1371.89,8997.32,13.6806,-17.5821,13.4711,-3613.81,13435.2,-694.772,27.212,85.9408,337.749,722.549,9427.65,-3153.35,4.47888,27.1743,44.1059,-7177.98,4064.02,-1556.16,-28.658,179.797,113.3,427.777,-9843.17,-1540.39,-4.00972,-4.23744,80.5307,7708.43,-713.055,-407.52,50.1137,38.3036,-2.17896
3.35,11366.7,-1008.67,10008.0,-25.3134,356.03,100.482,3898.04,1360.57,8984.96,13.6154,-17.6907,13.6028,-3696.5,13485.1,-707.181,27.4713,85.9405,337.919,754.392,9442.82,-3139.87,4.27314,27.5795,44.1465,-7178.88,4034.21,-1513.03,-28.9129,179.426,113.125,445.082,-9797.53,-1504.6,-4.04761,-4.01547,80.5602,7711.77,-739.111,-421.867,49.9907,38.376,-2.34552
3.3505,11504.0,-1015.76,10064.7,-25.2767,355.768,101.184,3930.27,1349.26,8972.59,13.5502,-17.7992,13.7344,-3779.19,13534.9,-719.589,27.7307,85.9402,338.089,786.236,9457.99,-3126.39,4.06739,27.9847,44.187,-7179.77,4004.4,-1469.9,-29.1678,179.055,112.95,462.387,-9751.88,-1468.81,-4.0855,-3.79349,80.5898,7715.1,-765.166,-436.215,49.8676,38.4484,-2.51207
3.351,11641.3,-1022.85,10121.4,-25.24,355.507,101.886,3962.5,1337.94,8960.23,13.485,-17.9077,13.866,-3861.89,13584.7,-731.998,27.99,85.9399,338.259,818.079,9473.15,-3112.9,3.86165,28.3899,44.2276,-7180.67,3974.6,-1426.77,-29.4227,178.684,112.776,479.692,-9706.24,-1433.03,-4.12339,-3.57152,80.6193,7718.44,-791.222,-450.562,49.7445,38.5208,-2.67863
3.3515,11758.1,-1064.26,10162.0,-25.0416,355.485,102.535,4013.21,1273.63,8933.71,13.3718,-17.9478,13.9769,-3914.83,13636.2,-761.81,28.1939,85.9066,338.47,846.829,9494.67,-3057.83,3.59945,28.7484,44.2812,-7162.72,3951.06,-1365.57,-29.546,177.905,112.439,517.793,-9664.81,-1393.15,-4.26535,-3.52028,80.7625,7707.54,-814.916,-473.002,49.7203,38.6871,-2.90016
3.352,11869.1,-1115.47,10198.0,-24.7971,355.531,103.17,4069.18,1194.18,8903.15,13.2448,-17.9684,14.0818,-3959.29,13688.2,-796.595,28.3818,85.8638,338.693,874.696,9518.01,-2990.87,3.32112,29.0935,44.3385,-7139.39,3929.31,-1299.21,-29.6316,177.011,112.057,561.836,-9624.58,-1352.11,-4.43705,-3.51783,80.9382,7692.57,-837.936,-497.754,49.7243,38.8801,-3.13739
3.3525,11980.1,-1166.69,10233.9,-24.5526,355.577,103.805,4125.16,1114.73,8872.59,13.1179,-17.989,14.1867,-4003.74,13740.1,-831.38,28.5698,85.8211,338.916,902.562,9541.34,-2923.92,3.04279,29.4387,44.3957,-7116.06,3907.56,-1232.85,-29.7172,176.116,111.675,605.879,-9584.35,-1311.06,-4.60876,-3.51537,81.1139,7677.61,-860.956,-522.506,49.7283,39.0732,-3.37462
3.353,12091.1,-1217.91,10269.9,-24.3081,355.624,104.44,4181.14,1035.28,8842.04,12.991,-18.0096,14.2916,-4048.19,13792.1,-866.164,28.7578,85.7784,339.139,930.429,9564.67,-2856.96,2.76446,29.7838,44.453,-7092.72,3885.81,-1166.48,-29.8029,175.221,111.293,649.922,-9544.12,-1270.02,-4.78046,-3.51292,81.2896,7662.64,-883.976,-547.258,49.7324,39.2663,-3.61186
3.3535,12202.0,-1269.12,10305.9,-24.0635,355.67,105.074,4237.12,955.834,8811.48,12.8641,-18.0302,14.3965,-4092.64,13844.0,-900.949,28.9457,85.7356,339.362,958.295,9588.01,-2790.0,2.48613,30.129,44.5103,-7069.39,3864.06,-1100.12,-29.8885,174.327,110.91,693.965,-9503.89,-1228.98,-4.95216,-3.51046,81.4652,7647.67,-906.996,-572.01,49.7364,39.4593,-3.84909
3.354,12313.0,-1320.34,10341.9,-23.819,355.717,105.709,4293.1,876.385,8780.92,12.7372,-18.0507,14.5014,-4137.09,13896.0,-935.734,29.1337,85.6929,339.585,986.162,9611.34,-2723.04,2.2078,30.4741,44.5676,-7046.06,3842.31,-1033.76,-29.9741,173.432,110.528,738.008,-9463.66,-1187.93,-5.12386,-3.50801,81.6409,7632.7,-930.016,-596.762,49.7404,39.6524,-4.08632
3.3545,12424.0,-1371.55,10377.9,-23.5745,355.763,106.344,4349.08,796.935,8750.36,12.6103,-18.0713,14.6064,-4181.54,13947.9,-970.518,29.3217,85.6501,339.808,1014.03,9634.67,-2656.09,1.92947,30.8193,44.6248,-7022.73,3820.56,-967.394,-30.0598,172.537,110.146,782.052,-9423.44,-1146.89,-5.29557,-3.50556,81.8166,7617.73,-953.036,-621.514,49.7444,39.8454,-4.32355
3.355,12535.0,-1422.77,10413.8,-23.3299,355.809,106.978,4405.05,717.486,8719.8,12.4833,-18.0919,14.7113,-4225.99,13999.9,-1005.3,29.5096,85.6074,340.031,1041.89,9658.01,-2589.13,1.65114,31.1644,44.6821,-6999.39,3798.81,-901.03,-30.1454,171.643,109.764,826.095,-9383.21,-1105.85,-5.46727,-3.5031,81.9923,7602.77,-976.056,-646.265,49.7484,40.0385,-4.56079
3.3555,12646.0,-1473.98,10449.8,-23.0854,355.856,107.613,4461.03,638.036,8689.24,12.3564,-18.1125,14.8162,-4270.44,14051.8,-1040.09,29.6976,85.5647,340.254,1069.76,9681.34,-2522.17,1.37281,31.5095,44.7394,-6976.06,3777.07,-834.667,-30.231,170.748,109.382,870.138,-9342.98,-1064.8,-5.63897,-3.50065,82.1679,7587.8,-999.076,-671.017,49.7525,40.2316,-4.79802
3.356,12708.8,-1528.08,10470.1,-22.6485,356.065,108.127,4493.65,551.595,8685.32,12.5991,-18.2133,14.7362,-4295.48,14104.7,-1081.81,29.9058,85.53,340.484,1098.24,9701.84,-2446.2,1.22141,31.8093,44.7727,-6954.3,3755.48,-792.127,-30.0926,169.066,108.927,915.946,-9288.98,-1031.7,-5.85364,-3.91514,82.4364,7579.54,-1034.65,-683.73,49.9066,40.3588,-5.08668
3.3565,12765.6,-1582.53,10488.3,-22.1875,356.294,108.626,4523.34,464.279,8684.72,12.8879,-18.3242,14.6331,-4318.1,14157.6,-1124.39,30.1165,85.4963,340.714,1126.8,9721.98,-2369.09,1.08586,32.1033,44.8031,-6932.74,3733.92,-752.565,-29.9262,167.287,108.463,961.974,-9233.26,-999.594,-6.07369,-4.38174,82.7165,7572.12,-1071.79,-694.937,50.0795,40.4777,-5.38177
3.357,12822.4,-1636.98,10506.6,-21.7266,356.524,109.125,4553.03,376.964,8684.13,13.1767,-18.4351,14.5301,-4340.72,14210.6,-1166.98,30.3272,85.4626,340.945,1155.36,9742.13,-2291.99,0.950323,32.3973,44.8334,-6911.18,3712.36,-713.004,-29.7598,165.507,107.999,1008.0,-9177.54,-967.486,-6.29373,-4.84835,82.9966,7564.7,-1108.93,-706.145,50.2524,40.5967,-5.67686
3.3575,12879.1,-1691.44,10524.9,-21.2656,356.753,109.624,4582.72,289.648,8683.53,13.4655,-18.5459,14.427,-4363.34,14263.5,-1209.56,30.5379,85.4289,341.175,1183.92,9762.27,-2214.88,0.814782,32.6914,44.8638,-6889.61,3690.79,-673.442,-29.5934,163.727,107.535,1054.03,-9121.81,-935.378,-6.51377,-5.31496,83.2767,7557.29,-1146.07,-717.353,50.4253,40.7157,-5.97195
3.358,12935.9,-1745.89,10543.2,-20.8047,356.983,110.123,4612.41,202.333,8682.93,13.7543,-18.6568,14.3239,-4385.96,14316.5,-1252.15,30.7486,85.3952,341.406,1212.47,9782.42,-2137.78,0.679241,32.9854,44.8941,-6868.05,3669.23,-633.88,-29.4271,161.947,107.071,1100.06,-9066.09,-903.27,-6.73382,-5.78156,83.5567,7549.87,-1183.21,-728.56,50.5982,40.8347,-6.26703
3.3585,12992.7,-1800.35,10561.4,-20.3437,357.212,110.622,4642.1,115.017,8682.33,14.0431,-18.7677,14.2208,-4408.58,14369.4,-1294.73,30.9593,85.3615,341.637,1241.03,9802.56,-2060.67,0.5437,33.2795,44.9244,-6846.49,3647.67,-594.318,-29.2607,160.167,106.607,1146.09,-9010.37,-871.162,-6.95386,-6.24817,83.8368,7542.45,-1220.35,-739.768,50.7712,40.9536,-6.56212
3.359,13049.5,-1854.8,10579.7,-19.8827,357.442,111.121,4671.79,27.7016,8681.74,14.3319,-18.8785,14.1177,-4431.2,14422.4,-1337.32,31.17,85.3279,341.867,1269.59,9822.71,-1983.57,0.408159,33.5735,44.9548,-6824.92,3626.11,-554.757,-29.0943,158.387,106.143,1192.12,-8954.65,-839.054,-7.1739,-6.71477,84.1169,7535.03,-1257.49,-750.975,50.9441,41.0726,-6.85721
3.3595,13106.3,-1909.26,10598.0,-19.4218,357.671,111.62,4701.49,-59.6139,8681.14,14.6207,-18.9894,14.0146,-4453.82,14475.3,-1379.9,31.3807,85.2942,342.098,1298.15,9842.85,-1906.47,0.272617,33.8675,44.9851,-6803.36,3604.54,-515.195,-28.9279,156.608,105.679,1238.15,-8898.93,-806.946,-7.39395,-7.18138,84.397,7527.61,-1294.64,-762.183,51.117,41.1916,-7.1523
3.36,13163.1,-1963.71,10616.3,-18.9608,357.901,112.119,4731.18,-146.929,8680.54,14.9095,-19.1003,13.9116,-4476.44,14528.3,-1422.49,31.5914,85.2605,342.329,1326.7,9863.0,-1829.36,0.137076,34.1616,45.0155,-6781.8,3582.98,-475.633,-28.7615,154.828,105.215,1284.18,-8843.21,-774.838,-7.61399,-7.64798,84.6771,7520.19,-1331.78,-773.391,51.2899,41.3105,-7.44739
3.3605,13191.5,-1970.37,10639.8,-18.4422,357.831,112.494,4733.28,-179.098,8661.68,14.967,-19.1919,13.7808,-4478.04,14580.2,-1465.13,31.912,85.1533,342.569,1342.93,9856.25,-1807.47,0.260785,34.6021,44.9523,-6745.41,3588.13,-400.075,-28.5782,152.249,104.493,1317.17,-8830.54,-749.339,-7.79894,-8.44506,84.9244,7506.67,-1381.79,-780.485,51.48,41.293,-7.70388
3.361,13219.9,-1977.03,10663.3,-17.9236,357.762,112.869,4735.38,-211.267,8642.82,15.0244,-19.2835,13.65,-4479.64,14632.2,-1507.78,32.2327,85.0462,342.81,1359.15,9849.5,-1785.57,0.384493,35.0427,44.8892,-6709.03,3593.28,-324.516,-28.3949,149.669,103.771,1350.17,-8817.87,-723.839,-7.98388,-9.24214,85.1717,7493.14,-1431.81,-787.579,51.6702,41.2754,-7.96038
3.3615,13248.3,-1983.7,10686.8,-17.405,357.693,113.244,4737.48,-243.436,8623.96,15.0819,-19.3751,13.5192,-4481.25,14684.1,-1550.42,32.5533,84.939,343.051,1375.37,9842.75,-1763.68,0.508202,35.4832,44.826,-6672.64,3598.43,-248.958,-28.2117,147.09,103.049,1383.17,-8805.2,-698.34,-8.16883,-10.0392,85.419,7479.62,-1481.82,-794.673,51.8604,41.2578,-8.21688
3.362,13276.7,-1990.36,10710.4,-16.8863,357.623,113.619,4739.59,-275.605,8605.1,15.1393,-19.4667,13.3884,-4482.85,14736.1,-1593.06,32.8739,84.8319,343.291,1391.6,9836.0,-1741.79,0.631911,35.9238,44.7628,-6636.26,3603.59,-173.399,-28.0284,144.511,102.327,1416.17,-8792.53,-672.841,-8.35378,-10.8363,85.6664,7466.09,-1531.84,-801.767,52.0505,41.2402,-8.47338
3.3625,13305.1,-1997.02,10733.9,-16.3677,357.554,113.994,4741.69,-307.775,8586.24,15.1967,-19.5583,13.2576,-4484.46,14788.0,-1635.71,33.1945,84.7248,343.532,1407.82,9829.25,-1719.89,0.755619,36.3643,44.6997,-6599.87,3608.74,-97.8411,-27.8451,141.932,101.605,1449.17,-8779.86,-647.341,-8.53872,-11.6334,85.9137,7452.56,-1581.86,-808.861,52.2407,41.2226,-8.72988
3.363,13333.5,-2003.69,10757.4,-15.8491,357.484,114.369,4743.79,-339.944,8567.38,15.2542,-19.65,13.1268,-4486.06,14840.0,-1678.35,33.5151,84.6176,343.773,1424.04,9822.5,-1698.0,0.879328,36.8049,44.6365,-6563.48,3613.89,-22.2826,-27.6619,139.352,100.883,1482.17,-8767.19,-621.842,-8.72367,-12.4304,86.161,7439.04,-1631.87,-815.955,52.4308,41.2051,-8.98637
3.3635,13362.0,-2010.35,10780.9,-15.3305,357.415,114.744,4745.89,-372.113,8548.52,15.3116,-19.7416,12.9961,-4487.66,14891.9,-1721.0,33.8358,84.5105,344.013,1440.27,9815.75,-1676.1,1.00304,37.2454,44.5734,-6527.1,3619.04,53.2758,-27.4786,136.773,100.161,1515.17,-8754.52,-596.342,-8.90862,-13.2275,86.4083,7425.51,-1681.89,-823.049,52.621,41.1875,-9.24287
3.364,13390.4,-2017.01,10804.4,-14.8118,357.346,115.119,4747.99,-404.282,8529.66,15.3691,-19.8332,12.8653,-4489.27,14943.9,-1763.64,34.1564,84.4034,344.254,1456.49,9809.0,-1654.21,1.12674,37.686,44.5102,-6490.71,3624.19,128.834,-27.2953,134.194,99.4394,1548.17,-8741.85,-570.843,-9.09357,-14.0246,86.6556,7411.99,-1731.9,-830.143,52.8111,41.1699,-9.49937
3.3645,13415.4,-2018.54,10828.1,-14.3243,357.246,115.473,4748.6,-431.366,8514.51,15.4255,-19.9327,12.7293,-4494.72,14995.7,-1805.94,34.4802,84.2771,344.483,1470.73,9802.22,-1633.54,1.24721,38.1195,44.455,-6451.26,3628.43,202.46,-27.0814,131.54,98.7115,1579.48,-8727.37,-548.9,-9.25932,-14.8578,86.899,7398.97,-1781.2,-836.949,53.0168,41.1464,-9.75917
3.365,13412.9,-1979.03,10853.3,-14.0856,356.903,115.66,4737.25,-417.772,8529.04,15.4736,-20.0952,12.5516,-4530.99,15046.6,-1845.5,34.8299,83.998,344.618,1469.06,9795.15,-1622.64,1.34169,38.4974,44.4635,-6387.22,3625.35,260.629,-26.6225,128.289,97.9355,1597.26,-8698.36,-555.404,-9.27152,-15.9805,87.1106,7390.06,-1824.77,-841.455,53.3459,41.0758,-10.0454
3.3655,13410.5,-1939.51,10878.5,-13.8469,356.56,115.848,4725.9,-404.178,8543.57,15.5217,-20.2577,12.3739,-4567.26,15097.4,-1885.07,35.1796,83.7188,344.753,1467.4,9788.09,-1611.73,1.43617,38.8752,44.472,-6323.19,3622.28,318.797,-26.1636,125.038,97.1595,1615.04,-8669.35,-561.909,-9.28372,-17.1031,87.3223,7381.15,-1868.33,-845.96,53.675,41.0052,-10.3316
3.366,13408.1,-1900.0,10903.6,-13.6082,356.217,116.035,4714.56,-390.584,8558.11,15.5699,-20.4202,12.1962,-4603.53,15148.2,-1924.63,35.5294,83.4397,344.888,1465.74,9781.03,-1600.83,1.53065,39.2531,44.4804,-6259.16,3619.21,376.966,-25.7048,121.787,96.3834,1632.82,-8640.34,-568.414,-9.29592,-18.2258,87.5339,7372.23,-1911.9,-850.466,54.0041,40.9346,-10.6178
3.3665,13405.6,-1860.48,10928.8,-13.3695,355.875,116.222,4703.21,-376.991,8572.64,15.618,-20.5827,12.0185,-4639.8,15199.1,-1964.19,35.8791,83.1605,345.023,1464.07,9773.96,-1589.93,1.62513,39.6309,44.4889,-6195.13,3616.14,435.134,-25.2459,118.536,95.6074,1650.6,-8611.33,-574.919,-9.30812,-19.3484,87.7455,7363.32,-1955.47,-854.972,54.3332,40.864,-10.9041
3.367,13403.2,-1820.97,10953.9,-13.1308,355.532,116.409,4691.86,-363.397,8587.18,15.6662,-20.7452,11.8408,-4676.07,15249.9,-2003.75,36.2288,82.8813,345.158,1462.41,9766.9,-1579.03,1.71962,40.0087,44.4973,-6131.1,3613.06,493.303,-24.787,115.285,94.8314,1668.38,-8582.33,-581.423,-9.32032,-20.4711,87.9571,7354.41,-1999.04,-859.477,54.6623,40.7934,-11.1903
3.3675,13400.8,-1781.46,10979.1,-12.8921,355.189,116.597,4680.51,-349.803,8601.71,15.7143,-20.9077,11.6631,-4712.34,15300.7,-2043.31,36.5785,82.6022,345.293,1460.75,9759.83,-1568.12,1.8141,40.3866,44.5058,-6067.07,3609.99,551.472,-24.3281,112.034,94.0554,1686.17,-8553.32,-587.928,-9.33252,-21.5937,88.1688,7345.49,-2042.6,-863.983,54.9914,40.7228,-11.4765
3.368,13398.4,-1741.94,11004.2,-12.6534,354.846,116.784,4669.16,-336.209,8616.24,15.7624,-21.0702,11.4854,-4748.61,15351.5,-2082.87,36.9282,82.323,345.428,1459.08,9752.77,-1557.22,1.90858,40.7644,44.5143,-6003.04,3606.92,609.64,-23.8692,108.783,93.2794,1703.95,-8524.31,-594.433,-9.34472,-22.7164,88.3804,7336.58,-2086.17,-868.489,55.3205,40.6522,-11.7627
3.3685,13395.9,-1702.43,11029.4,-12.4147,354.503,116.971,4657.81,-322.615,8630.78,15.8106,-21.2327,11.3077,-4784.88,15402.4,-2122.43,37.2779,82.0439,345.563,1457.42,9745.71,-1546.32,2.00306,41.1423,44.5227,-5939.0,3603.84,667.809,-23.4103,105.532,92.5034,1721.73,-8495.3,-600.937,-9.35692,-23.839,88.592,7327.67,-2129.74,-872.994,55.6496,40.5816,-12.049
3.369,13394.9,-1664.62,11050.6,-12.235,354.117,117.086,4646.33,-312.251,8644.89,15.9194,-21.4064,11.1693,-4826.78,15450.0,-2163.53,37.5898,81.7209,345.673,1447.98,9742.73,-1537.04,2.07505,41.4919,44.5429,-5883.17,3599.12,712.892,-22.9748,102.203,91.6928,1729.57,-8467.65,-610.61,-9.38455,-24.9847,88.8073,7323.25,-2168.89,-875.91,56.0768,40.5133,-12.3529
3.3695,13398.5,-1632.79,11057.9,-12.2618,353.578,116.947,4634.38,-313.188,8657.54,16.2405,-21.6192,11.1688,-4888.35,15486.3,-2210.01,37.7697,81.2446,345.694,1411.31,9754.06,-1533.44,2.06829,41.743,44.604,-5856.03,3588.62,712.175,-22.6213,98.5968,90.7611,1702.65,-8444.74,-631.368,-9.4662,-26.2111,89.035,7334.58,-2192.61,-873.259,56.8474,40.4532,-12.719
3.37,13402.2,-1600.96,11065.2,-12.2886,353.039,116.808,4622.42,-314.125,8670.19,16.5616,-21.8319,11.1683,-4949.93,15522.6,-2256.48,37.9495,80.7683,345.716,1374.63,9765.38,-1529.84,2.06153,41.994,44.665,-5828.89,3578.12,711.458,-22.2677,94.9909,89.8294,1675.72,-8421.83,-652.126,-9.54785,-27.4375,89.2627,7345.92,-2216.33,-870.609,57.6179,40.3931,-13.0851
3.3705,13405.8,-1569.14,11072.6,-12.3154,352.5,116.669,4610.46,-315.062,8682.84,16.8827,-22.0447,11.1677,-5011.51,15558.9,-2302.95,38.1293,80.2921,345.738,1337.96,9776.71,-1526.24,2.05477,42.2451,44.7261,-5801.75,3567.62,710.742,-21.9142,91.3851,88.8976,1648.8,-8398.92,-672.885,-9.6295,-28.6639,89.4905,7357.25,-2240.04,-867.958,58.3885,40.333,-13.4513
3.371,13409.5,-1537.31,11079.9,-12.3421,351.961,116.53,4598.51,-315.999,8695.5,17.2038,-22.2574,11.1672,-5073.08,15595.2,-2349.43,38.3092,79.8158,345.76,1301.29,9788.04,-1522.64,2.04802,42.4962,44.7872,-5774.6,3557.12,710.025,-21.5606,87.7793,87.9659,1621.88,-8376.01,-693.643,-9.71115,-29.8903,89.7182,7368.58,-2263.76,-865.308,59.159,40.2729,-13.8174
3.3715,13413.1,-1505.48,11087.2,-12.3689,351.422,116.391,4586.55,-316.936,8708.15,17.5249,-22.4702,11.1667,-5134.66,15631.5,-2395.9,38.489,79.3395,345.781,1264.61,9799.37,-1519.04,2.04126,42.7472,44.8482,-5747.46,3546.62,709.308,-21.2071,84.1735,87.0342,1594.95,-8353.1,-714.401,-9.7928,-31.1167,89.946,7379.92,-2287.48,-862.657,59.9295,40.2128,-14.1835
3.372,13416.7,-1473.65,11094.5,-12.3957,350.883,116.252,4574.6,-317.873,8720.8,17.846,-22.6829,11.1662,-5196.24,15667.9,-2442.38,38.6688,78.8632,345.803,1227.94,9810.7,-1515.44,2.0345,42.9983,44.9093,-5720.32,3536.13,708.592,-20.8535,80.5677,86.1025,1568.03,-8330.19,-735.16,-9.87445,-32.3432,90.1737,7391.25,-2311.2,-860.007,60.7001,40.1527,-14.5496
3.3725,13420.4,-1441.82,11101.8,-12.4225,350.344,116.112,4562.64,-318.81,8733.45,18.167,-22.8957,11.1656,-5257.81,15704.2,-2488.85,38.8487,78.3869,345.825,1191.27,9822.02,-1511.84,2.02774,43.2493,44.9704,-5693.18,3525.63,707.875,-20.5,76.9618,85.1708,1541.1,-8307.27,-755.918,-9.9561,-33.5696,90.4015,7402.58,-2334.92,-857.356,61.4706,40.0926,-14.9157
3.373,13424.0,-1410.0,11109.2,-12.4493,349.805,115.973,4550.68,-319.747,8746.1,18.4881,-23.1084,11.1651,-5319.39,15740.5,-2535.33,39.0285,77.9106,345.847,1154.59,9833.35,-1508.24,2.02099,43.5004,45.0315,-5666.04,3515.13,707.159,-20.1464,73.356,84.2391,1514.18,-8284.36,-776.676,-10.0377,-34.796,90.6292,7413.92,-2358.63,-854.706,62.2412,40.0325,-15.2818
3.3735,13435.7,-1387.86,11112.6,-12.5309,349.273,115.692,4535.57,-315.826,8760.28,18.7012,-23.2838,11.1357,-5388.19,15773.2,-2580.13,39.1862,77.3819,345.866,1120.43,9844.76,-1508.66,2.00715,43.7338,45.0984,-5633.37,3507.17,707.465,-19.755,69.8147,83.3306,1481.78,-8270.79,-792.222,-10.2008,-35.9675,90.8127,7429.22,-2372.72,-847.321,63.0778,39.9431,-15.6215
3.374,13463.5,-1385.1,11108.2,-12.7222,348.754,115.124,4514.14,-302.186,8777.52,18.6981,-23.3844,11.0487,-5471.44,15798.6,-2621.6,39.2994,76.7482,345.88,1091.28,9856.34,-1517.11,1.97914,43.9318,45.177,-5589.63,3504.3,709.815,-19.288,66.4024,82.4685,1438.44,-8275.87,-797.342,-10.5266,-37.0292,90.9076,7452.48,-2367.56,-830.469,64.0467,39.795,-15.9086
3.3745,13491.3,-1382.35,11103.8,-12.9135,348.236,114.557,4492.7,-288.547,8794.75,18.695,-23.485,10.9617,-5554.69,15824.1,-2663.07,39.4127,76.1144,345.894,1062.14,9867.92,-1525.56,1.95114,44.1297,45.2556,-5545.9,3501.42,712.166,-18.8211,62.9901,81.6065,1395.09,-8280.95,-802.462,-10.8525,-38.0909,91.0025,7475.74,-2362.39,-813.617,65.0156,39.647,-16.1957
3.375,13519.0,-1379.59,11099.4,-13.1048,347.717,113.99,4471.27,-274.908,8811.99,18.692,-23.5856,10.8747,-5637.94,15849.5,-2704.54,39.526,75.4808,345.907,1032.99,9879.5,-1534.01,1.92314,44.3277,45.3343,-5502.17,3498.55,714.517,-18.3541,59.5778,80.7444,1351.75,-8286.03,-807.582,-11.1783,-39.1527,91.0973,7499.0,-2357.23,-796.765,65.9844,39.499,-16.4828
3.3755,13546.8,-1376.84,11095.0,-13.2961,347.199,113.422,4449.84,-261.269,8829.23,18.6889,-23.6863,10.7877,-5721.19,15875.0,-2746.01,39.6393,74.847,345.921,1003.85,9891.08,-1542.46,1.89514,44.5257,45.4129,-5458.43,3495.68,716.868,-17.8871,56.1655,79.8824,1308.41,-8291.12,-812.702,-11.5042,-40.2144,91.1922,7522.26,-2352.06,-779.913,66.9533,39.351,-16.7699
3.376,13574.6,-1374.08,11090.6,-13.4874,346.68,112.855,4428.4,-247.63,8846.47,18.6858,-23.7869,10.7007,-5804.43,15900.4,-2787.48,39.7526,74.2133,345.935,974.7,9902.66,-1550.91,1.86713,44.7237,45.4915,-5414.7,3492.81,719.219,-17.4201,52.7533,79.0203,1265.06,-8296.2,-817.822,-11.83,-41.2761,91.2871,7545.52,-2346.9,-763.061,67.9222,39.203,-17.0569
3.3765,13602.3,-1371.33,11086.2,-13.6787,346.162,112.288,4406.97,-233.99,8863.71,18.6827,-23.8875,10.6137,-5887.68,15925.9,-2828.95,39.8659,73.5796,345.949,945.554,9914.24,-1559.36,1.83913,44.9217,45.5701,-5370.96,3489.93,721.57,-16.9531,49.341,78.1583,1221.72,-8301.28,-822.942,-12.1559,-42.3378,91.382,7568.78,-2341.74,-746.209,68.891,39.055,-17.344
3.377,13630.1,-1368.57,11081.8,-13.8701,345.643,111.72,4385.53,-220.351,8880.95,18.6797,-23.9881,10.5267,-5970.93,15951.3,-2870.42,39.9792,72.9459,345.963,916.408,9925.82,-1567.82,1.81113,45.1197,45.6487,-5327.23,3487.06,723.921,-16.4861,45.9287,77.2963,1178.38,-8306.37,-828.062,-12.4817,-43.3996,91.4769,7592.04,-2336.57,-729.357,69.8599,38.907,-17.6311
3.3775,13657.9,-1365.82,11077.4,-14.0614,345.125,111.153,4364.1,-206.712,8898.18,18.6766,-24.0887,10.4396,-6054.18,15976.8,-2911.89,40.0925,72.3122,345.976,887.262,9937.4,-1576.27,1.78313,45.3177,45.7274,-5283.5,3484.19,726.272,-16.0191,42.5164,76.4342,1135.04,-8311.45,-833.182,-12.8076,-44.4613,91.5717,7615.3,-2331.41,-712.505,70.8287,38.759,-17.9182
3.378,13693.0,-1374.3,11082.7,-14.2698,344.562,110.451,4355.76,-191.202,8914.07,18.7439,-24.2599,10.3633,-6130.74,16007.1,-2947.08,40.2297,71.6328,345.971,858.08,9953.25,-1573.18,1.6673,45.4452,45.8155,-5256.53,3487.48,702.722,-15.6814,39.286,75.6491,1088.98,-8327.49,-824.983,-13.0658,-45.3595,91.6289,7645.48,-2318.67,-699.909,71.6579,38.5982,-18.1556
3.3785,13737.2,-1396.82,11100.1,-14.4997,343.945,109.582,4363.77,-173.353,8928.27,18.8994,-24.5194,10.3004,-6198.92,16043.6,-2974.4,40.3968,70.896,345.94,828.85,9974.46,-1555.67,1.44168,45.4847,45.9155,-5250.51,3498.47,646.795,-15.5055,36.283,74.9603,1039.54,-8357.23,-800.135,-13.2393,-46.0534,91.6388,7684.31,-2296.48,-692.634,72.3124,38.4216,-18.3308
3.379,13781.4,-1419.35,11117.5,-14.7297,343.327,108.713,4371.78,-155.505,8942.48,19.0548,-24.7788,10.2374,-6267.1,16080.0,-3001.73,40.564,70.1593,345.909,799.621,9995.66,-1538.15,1.21607,45.5242,46.0155,-5244.5,3509.47,590.869,-15.3295,33.28,74.2715,990.094,-8386.97,-775.288,-13.4129,-46.7473,91.6488,7723.13,-2274.29,-685.359,72.9669,38.245,-18.506
3.3795,13825.6,-1441.88,11134.8,-14.9596,342.709,107.843,4379.8,-137.656,8956.68,19.2102,-25.0383,10.1745,-6335.29,16116.5,-3029.05,40.7311,69.4226,345.878,770.391,10016.9,-1520.64,0.99045,45.5637,46.1156,-5238.48,3520.46,534.943,-15.1535,30.2771,73.5826,940.65,-8416.71,-750.44,-13.5865,-47.4411,91.6588,7761.96,-2252.1,-678.084,73.6214,38.0683,-18.6813
3.38,13869.8,-1464.4,11152.2,-15.1895,342.092,106.974,4387.81,-119.807,8970.88,19.3656,-25.2977,10.1115,-6403.47,16153.0,-3056.37,40.8982,68.6859,345.848,741.162,10038.1,-1503.13,0.764834,45.6031,46.2156,-5232.46,3531.46,479.016,-14.9776,27.2741,72.8938,891.207,-8446.45,-725.592,-13.7601,-48.135,91.6688,7800.79,-2229.91,-670.81,74.2759,37.8917,-18.8565
3.3805,13914.0,-1486.93,11169.6,-15.4194,341.474,106.105,4395.83,-101.959,8985.09,19.521,-25.5572,10.0486,-6471.65,16189.4,-3083.7,41.0654,67.9492,345.817,711.933,10059.3,-1485.61,0.539218,45.6426,46.3156,-5226.45,3542.45,423.09,-14.8016,24.2711,72.205,841.763,-8476.18,-700.744,-13.9337,-48.8289,91.6787,7839.61,-2207.72,-663.535,74.9304,37.715,-19.0317
3.381,13958.2,-1509.45,11187.0,-15.6493,340.856,105.235,4403.84,-84.1099,8999.29,19.6764,-25.8166,9.98564,-6539.84,16225.9,-3111.02,41.2325,67.2125,345.786,682.703,10080.5,-1468.1,0.313602,45.6821,46.4157,-5220.43,3553.45,367.164,-14.6256,21.2681,71.5162,792.319,-8505.92,-675.897,-14.1073,-49.5228,91.6887,7878.44,-2185.53,-656.26,75.5848,37.5384,-19.207
3.3815,14002.3,-1531.98,11204.4,-15.8792,340.238,104.366,4411.85,-66.2613,9013.49,19.8318,-26.076,9.9227,-6608.02,16262.4,-3138.35,41.3996,66.4758,345.756,653.474,10101.7,-1450.59,0.0879865,45.7215,46.5157,-5214.41,3564.44,311.237,-14.4496,18.2651,70.8273,742.876,-8535.66,-651.049,-14.2809,-50.2166,91.6987,7917.27,-2163.34,-648.985,76.2393,37.3618,-19.3822
3.382,14046.5,-1554.51,11221.8,-16.1091,339.621,103.496,4419.87,-48.4126,9027.69,19.9872,-26.3355,9.85975,-6676.21,16298.9,-3165.67,41.5668,65.739,345.725,624.245,10122.9,-1433.08,-0.137629,45.761,46.6157,-5208.4,3575.43,255.311,-14.2737,15.2621,70.1385,693.432,-8565.4,-626.201,-14.4544,-50.9105,91.7086,7956.09,-2141.15,-641.71,76.8938,37.1851,-19.5574
3.3825,14103.2,-1571.33,11233.3,-16.3285,338.972,102.536,4428.56,-27.8365,9034.71,20.0841,-26.5591,9.81612,-6742.58,16330.2,-3200.28,41.7849,65.019,345.641,605.318,10132.2,-1429.27,-0.339551,45.7473,46.7398,-5203.43,3584.51,181.634,-14.2331,12.7174,69.5369,630.031,-8599.91,-601.251,-14.5053,-51.4888,91.7357,7993.54,-2106.4,-640.131,77.3183,37.073,-19.7024
3.383,14169.9,-1583.6,11240.2,-16.5395,338.298,101.504,4437.79,-5.0783,9035.97,20.134,-26.7539,9.78795,-6807.5,16357.3,-3240.73,42.0438,64.3123,345.514,594.634,10132.0,-1436.42,-0.522517,45.691,46.8832,-5199.31,3592.04,93.7574,-14.3009,10.5392,69.005,555.464,-8638.23,-576.219,-14.4581,-51.9746,91.7764,8029.89,-2061.59,-643.109,77.5588,37.0126,-19.8231
3.3835,14236.6,-1595.86,11247.0,-16.7505,337.624,100.471,4447.02,17.6798,9037.24,20.184,-26.9488,9.75977,-6872.43,16384.5,-3281.18,42.3027,63.6056,345.387,583.95,10131.8,-1443.57,-0.705482,45.6347,47.0265,-5195.19,3599.58,5.88059,-14.3687,8.36093,68.4732,480.898,-8676.55,-551.186,-14.4108,-52.4605,91.8171,8066.23,-2016.79,-646.087,77.7992,36.9521,-19.9438
3.384,14303.3,-1608.12,11253.9,-16.9615,336.95,99.4388,4456.25,40.438,9038.5,20.234,-27.1436,9.7316,-6937.35,16411.7,-3321.63,42.5616,62.8989,345.26,573.266,10131.6,-1450.73,-0.888448,45.5784,47.1699,-5191.07,3607.11,-81.9962,-14.4365,6.18272,67.9413,406.331,-8714.87,-526.154,-14.3635,-52.9463,91.8577,8102.58,-1971.98,-649.065,78.0396,36.8917,-20.0645
3.3845,14370.0,-1620.39,11260.7,-17.1725,336.276,98.4063,4465.48,63.1962,9039.77,20.284,-27.3385,9.70343,-7002.27,16438.9,-3362.08,42.8206,62.1921,345.133,562.582,10131.4,-1457.88,-1.07141,45.5221,47.3132,-5186.95,3614.65,-169.873,-14.5043,4.0045,67.4095,331.764,-8753.19,-501.122,-14.3162,-53.4321,91.8984,8138.93,-1927.17,-652.043,78.2801,36.8312,-20.1852
3.385,14436.7,-1632.65,11267.6,-17.3835,335.602,97.3738,4474.72,85.9543,9041.03,20.334,-27.5333,9.67525,-7067.2,16466.1,-3402.53,43.0795,61.4854,345.006,551.898,10131.2,-1465.03,-1.25438,45.4658,47.4565,-5182.82,3622.18,-257.75,-14.5721,1.82628,66.8776,257.197,-8791.51,-476.09,-14.269,-53.918,91.9391,8175.27,-1882.37,-655.021,78.5206,36.7708,-20.3059
3.3855,14503.4,-1644.92,11274.5,-17.5945,334.928,96.3413,4483.95,108.712,9042.3,20.384,-27.7282,9.64708,-7132.12,16493.3,-3442.98,43.3384,60.7787,344.879,541.214,10131.0,-1472.19,-1.43735,45.4095,47.5999,-5178.7,3629.72,-345.627,-14.6399,-0.351938,66.3458,182.63,-8829.83,-451.058,-14.2217,-54.4038,91.9798,8211.62,-1837.56,-658.0,78.761,36.7103,-20.4266
3.386,14570.1,-1657.18,11281.3,-17.8055,334.254,95.3087,4493.18,131.471,9043.56,20.434,-27.923,9.61891,-7197.05,16520.5,-3483.43,43.5973,60.072,344.752,530.53,10130.8,-1479.34,-1.62031,45.3532,47.7432,-5174.58,3637.25,-433.503,-14.7077,-2.53016,65.814,108.064,-8868.15,-426.025,-14.1744,-54.8896,92.0205,8247.96,-1792.75,-660.978,79.0015,36.6499,-20.5473
3.3865,14636.8,-1669.44,11288.2,-18.0165,333.58,94.2762,4502.41,154.229,9044.83,20.484,-28.1179,9.59073,-7261.97,16547.6,-3523.88,43.8562,59.3653,344.625,519.846,10130.6,-1486.49,-1.80328,45.2969,47.8866,-5170.46,3644.79,-521.38,-14.7755,-4.70837,65.2821,33.4968,-8906.47,-400.993,-14.1271,-55.3755,92.0612,8284.31,-1747.95,-663.956,79.2419,36.5894,-20.668
3.387,14718.2,-1676.0,11279.3,-18.3147,332.893,93.1242,4485.75,168.671,9048.48,20.4597,-28.3306,9.50342,-7330.51,16572.9,-3561.59,44.0724,58.6825,344.383,519.448,10134.5,-1483.13,-1.88837,45.239,48.0333,-5185.69,3670.17,-580.842,-14.8809,-6.46393,64.8896,-38.4153,-8970.46,-397.621,-13.9557,-55.7145,92.1406,8307.94,-1693.9,-659.242,79.3392,36.5157,-20.6812
3.3875,14807.0,-1679.7,11262.4,-18.6565,332.2,91.9124,4456.14,178.954,9053.33,20.3983,-28.5523,9.38653,-7400.85,16597.3,-3597.93,44.2673,58.0117,344.083,524.193,10140.6,-1474.5,-1.92451,45.1802,48.1817,-5210.61,3704.47,-626.095,-15.0052,-8.00815,64.5667,-109.0,-9047.29,-405.078,-13.7221,-55.9801,92.2393,8325.21,-1635.24,-650.684,79.365,36.4354,-20.6405
3.388,14895.8,-1683.4,11245.6,-18.9983,331.507,90.7006,4426.53,189.238,9058.18,20.3369,-28.774,9.26964,-7471.2,16621.6,-3634.27,44.4621,57.3408,343.782,528.939,10146.7,-1465.88,-1.96066,45.1214,48.3301,-5235.52,3738.78,-671.349,-15.1295,-9.55237,64.2439,-179.585,-9124.12,-412.536,-13.4885,-56.2457,92.338,8342.48,-1576.58,-642.125,79.3908,36.3551,-20.5998
3.3885,14984.6,-1687.1,11228.8,-19.3401,330.813,89.4888,4396.92,199.522,9063.04,20.2754,-28.9957,9.15275,-7541.54,16645.9,-3670.61,44.6569,56.67,343.482,533.684,10152.7,-1457.26,-1.99681,45.0627,48.4785,-5260.44,3773.08,-716.603,-15.2538,-11.0966,63.921,-250.17,-9200.95,-419.993,-13.255,-56.5114,92.4367,8359.75,-1517.92,-633.567,79.4165,36.2748,-20.5592
3.389,15073.4,-1690.8,11212.0,-19.6819,330.12,88.277,4367.31,209.806,9067.89,20.214,-29.2174,9.03586,-7611.89,16670.3,-3706.96,44.8518,55.9991,343.182,538.429,10158.8,-1448.63,-2.03296,45.0039,48.6269,-5285.35,3807.39,-761.856,-15.3781,-12.6408,63.5982,-320.754,-9277.78,-427.451,-13.0214,-56.777,92.5354,8377.02,-1459.26,-625.008,79.4423,36.1945,-20.5185
3.3895,15162.2,-1694.5,11195.2,-20.0237,329.427,87.0652,4337.71,220.089,9072.74,20.1526,-29.4391,8.91897,-7682.23,16694.6,-3743.3,45.0466,55.3283,342.882,543.175,10164.9,-1440.01,-2.06911,44.9451,48.7753,-5310.26,3841.69,-807.11,-15.5024,-14.185,63.2753,-391.339,-9354.61,-434.908,-12.7879,-57.0426,92.6341,8394.29,-1400.6,-616.449,79.4681,36.1142,-20.4778
3.39,15251.0,-1698.21,11178.3,-20.3655,328.734,85.8534,4308.1,230.373,9077.59,20.0912,-29.6607,8.80208,-7752.58,16719.0,-3779.64,45.2414,54.6574,342.582,547.92,10171.0,-1431.38,-2.10526,44.8863,48.9237,-5335.18,3876.0,-852.364,-15.6268,-15.7293,62.9525,-461.924,-9431.44,-442.365,-12.5543,-57.3082,92.7329,8411.56,-1341.94,-607.891,79.4939,36.0339,-20.4372
3.3905,15339.8,-1701.91,11161.5,-20.7073,328.041,84.6416,4278.49,240.657,9082.44,20.0298,-29.8824,8.68519,-7822.92,16743.3,-3815.98,45.4362,53.9866,342.282,552.665,10177.0,-1422.76,-2.14141,44.8275,49.0721,-5360.09,3910.3,-897.617,-15.7511,-17.2735,62.6296,-532.509,-9508.26,-449.823,-12.3207,-57.5738,92.8316,8428.83,-1283.29,-599.332,79.5196,35.9535,-20.3965
3.391,15428.5,-1705.61,11144.7,-21.0491,327.347,83.4299,4248.88,250.941,9087.29,19.9684,-30.1041,8.5683,-7893.27,16767.7,-3852.32,45.6311,53.3158,341.982,557.411,10183.1,-1414.14,-2.17756,44.7687,49.2205,-5385.01,3944.61,-942.871,-15.8754,-18.8177,62.3068,-603.094,-9585.09,-457.28,-12.0872,-57.8395,92.9303,8446.1,-1224.63,-590.773,79.5454,35.8732,-20.3559
3.3915,15539.6,-1696.28,11097.1,-21.4631,326.606,82.1444,4237.69,240.417,9087.91,19.9813,-30.3682,8.52951,-7988.33,16791.6,-3867.44,45.6707,52.7707,341.562,555.95,10184.7,-1392.26,-2.24469,44.5735,49.3812,-5417.04,3995.98,-965.587,-15.9339,-20.1447,62.2327,-647.838,-9680.94,-474.263,-11.6102,-58.1172,92.9559,8448.39,-1171.83,-578.352,79.5389,35.7394,-20.2672
3.392,15656.9,-1683.23,11040.7,-21.8976,325.851,80.8379,4231.76,223.95,9087.31,20.0154,-30.6443,8.51305,-8090.44,16815.4,-3876.49,45.666,52.2615,341.107,552.717,10185.0,-1366.6,-2.32067,44.3393,49.5455,-5451.11,4052.23,-981.863,-15.9737,-21.4096,62.2298,-685.198,-9782.21,-493.967,-11.0636,-58.3985,92.9607,8446.42,-1120.72,-564.827,79.5233,35.5902,-20.1647
3.3925,15774.3,-1670.18,10984.3,-22.3322,325.096,79.5313,4225.82,207.482,9086.71,20.0495,-30.9204,8.49658,-8192.56,16839.3,-3885.54,45.6614,51.7523,340.652,549.483,10185.3,-1340.95,-2.39665,44.1051,49.7098,-5485.18,4108.47,-998.139,-16.0135,-22.6746,62.2269,-722.559,-9883.49,-513.672,-10.5171,-58.6797,92.9654,8444.44,-1069.6,-551.302,79.5077,35.441,-20.0623
3.393,15891.7,-1657.13,10928.0,-22.7667,324.341,78.2248,4219.89,191.014,9086.11,20.0836,-31.1966,8.48011,-8294.67,16863.1,-3894.59,45.6567,51.2431,340.198,546.25,10185.6,-1315.29,-2.47263,43.8709,49.874,-5519.24,4164.72,-1014.41,-16.0533,-23.9395,62.224,-759.92,-9984.77,-533.376,-9.97053,-58.961,92.9702,8442.46,-1018.49,-537.777,79.492,35.2919,-19.9599
3.3935,16009.1,-1644.07,10871.6,-23.2013,323.586,76.9183,4213.96,174.546,9085.51,20.1177,-31.4727,8.46364,-8396.79,16887.0,-3903.64,45.652,50.7339,339.743,543.016,10186.0,-1289.63,-2.54861,43.6367,50.0383,-5553.31,4220.96,-1030.69,-16.0931,-25.2044,62.2211,-797.281,-10086.0,-553.08,-9.42398,-59.2423,92.9749,8440.48,-967.375,-524.252,79.4764,35.1427,-19.8575
3.394,16126.5,-1631.02,10815.2,-23.6359,322.831,75.6118,4208.03,158.078,9084.91,20.1518,-31.7489,8.44717,-8498.91,16910.8,-3912.7,45.6473,50.2248,339.289,539.783,10186.3,-1263.97,-2.62459,43.4025,50.2025,-5587.38,4277.21,-1046.97,-16.1329,-26.4693,62.2182,-834.641,-10187.3,-572.784,-8.87743,-59.5235,92.9797,8438.5,-916.26,-510.727,79.4608,34.9936,-19.755
3.3945,16243.8,-1617.97,10758.8,-24.0704,322.076,74.3052,4202.09,141.61,9084.32,20.1859,-32.025,8.4307,-8601.02,16934.6,-3921.75,45.6426,49.7156,338.834,536.549,10186.6,-1238.31,-2.70057,43.1683,50.3668,-5621.45,4333.46,-1063.24,-16.1727,-27.7343,62.2152,-872.002,-10288.6,-592.489,-8.33088,-59.8048,92.9845,8436.52,-865.146,-497.202,79.4451,34.8444,-19.6526
3.395,16361.2,-1604.92,10702.5,-24.505,321.321,72.9987,4196.16,125.143,9083.72,20.22,-32.3011,8.41423,-8703.14,16958.5,-3930.8,45.6379,49.2064,338.379,533.316,10186.9,-1212.65,-2.77656,42.9341,50.531,-5655.52,4389.7,-1079.52,-16.2125,-28.9992,62.2123,-909.363,-10389.9,-612.193,-7.78433,-60.086,92.9892,8434.54,-814.031,-483.677,79.4295,34.6952,-19.5502
3.3955,16478.6,-1591.87,10646.1,-24.9395,320.567,71.6922,4190.23,108.675,9083.12,20.2541,-32.5773,8.39776,-8805.26,16982.3,-3939.85,45.6332,48.6972,337.925,530.082,10187.2,-1186.99,-2.85254,42.6999,50.6953,-5689.58,4445.95,-1095.8,-16.2523,-30.2641,62.2094,-946.724,-10491.1,-631.897,-7.23778,-60.3673,92.994,8432.56,-762.916,-470.152,79.4139,34.5461,-19.4477
3.396,16605.8,-1545.19,10580.0,-25.4264,319.791,70.4515,4224.47,80.5222,9079.04,20.2517,-32.7953,8.20012,-8919.15,17009.1,-3923.77,45.5932,48.2678,337.343,517.041,10209.6,-1160.88,-2.93665,42.5358,50.7897,-5709.0,4490.74,-1092.47,-16.2029,-31.6178,62.2476,-930.47,-10578.3,-656.231,-6.59965,-60.7203,92.9361,8410.04,-699.544,-451.002,79.4791,34.2497,-19.3356
3.3965,16734.1,-1494.31,10512.7,-25.9199,319.012,69.219,4263.74,50.9091,9074.54,20.2448,-33.006,7.97984,-9034.53,17036.3,-3904.54,45.5488,47.8484,336.745,502.774,10234.7,-1134.71,-3.02177,42.3804,50.8753,-5726.59,4534.11,-1086.69,-16.1424,-32.9825,62.291,-907.514,-10663.8,-681.143,-5.95007,-61.0823,92.8703,8384.96,-634.64,-431.149,79.5545,33.935,-19.2222
3.397,16862.5,-1443.42,10445.5,-26.4133,318.234,67.9865,4303.0,21.296,9070.03,20.2379,-33.2167,7.75957,-9149.9,17063.6,-3885.32,45.5043,47.429,336.147,488.508,10259.9,-1108.54,-3.10689,42.2251,50.9609,-5744.19,4577.47,-1080.91,-16.0819,-34.3473,62.3344,-884.558,-10749.2,-706.056,-5.3005,-61.4443,92.8046,8359.87,-569.736,-411.296,79.6299,33.6202,-19.1088
3.3975,16990.9,-1392.54,10378.2,-26.9067,317.455,66.754,4342.26,-8.31701,9065.52,20.2309,-33.4274,7.53929,-9265.27,17090.8,-3866.09,45.4599,47.0095,335.549,474.241,10285.0,-1082.37,-3.19202,42.0698,51.0466,-5761.77,4620.84,-1075.13,-16.0214,-35.712,62.3778,-861.602,-10834.6,-730.968,-4.65092,-61.8062,92.7389,8334.79,-504.832,-391.442,79.7053,33.3055,-18.9954
3.398,17119.3,-1341.66,10310.9,-27.4002,316.677,65.5216,4381.53,-37.9301,9061.01,20.224,-33.6381,7.31901,-9380.64,17118.0,-3846.87,45.4155,46.5901,334.951,459.974,10310.1,-1056.2,-3.27714,41.9144,51.1322,-5779.37,4664.2,-1069.35,-15.9608,-37.0767,62.4212,-838.646,-10920.1,-755.881,-4.00134,-62.1682,92.6731,8309.7,-439.928,-371.589,79.7807,32.9908,-18.882
3.3985,17247.7,-1290.77,10243.6,-27.8936,315.898,64.2891,4420.79,-67.5431,9056.5,20.2171,-33.8488,7.09873,-9496.01,17145.2,-3827.64,45.371,46.1707,334.353,445.707,10335.3,-1030.03,-3.36226,41.7591,51.2178,-5796.96,4707.56,-1063.57,-15.9003,-38.4415,62.4645,-815.69,-11005.5,-780.793,-3.35177,-62.5302,92.6074,8284.62,-375.024,-351.736,79.856,32.676,-18.7687
3.399,17376.1,-1239.89,10176.3,-28.387,315.12,63.0566,4460.05,-97.1562,9052.0,20.2102,-34.0596,6.87845,-9611.38,17172.4,-3808.41,45.3266,45.7513,333.755,431.44,10360.4,-1003.86,-3.44739,41.6038,51.3035,-5814.55,4750.93,-1057.8,-15.8398,-39.8062,62.5079,-792.733,-11090.9,-805.706,-2.70219,-62.8922,92.5417,8259.53,-310.119,-331.883,79.9314,32.3613,-18.6553
3.3995,17504.4,-1189.01,10109.1,-28.8805,314.341,61.8241,4499.32,-126.769,9047.49,20.2032,-34.2703,6.65817,-9726.75,17199.6,-3789.19,45.2821,45.3318,333.157,417.173,10385.5,-977.689,-3.53251,41.4484,51.3891,-5832.14,4794.29,-1052.02,-15.7793,-41.171,62.5513,-769.777,-11176.3,-830.618,-2.05262,-63.2542,92.476,8234.45,-245.215,-312.029,80.0068,32.0466,-18.5419
3.4,17632.8,-1138.13,10041.8,-29.3739,313.563,60.5916,4538.58,-156.382,9042.98,20.1963,-34.481,6.43789,-9842.13,17226.8,-3769.96,45.2377,44.9124,332.559,402.907,10410.7,-951.519,-3.61763,41.2931,51.4747,-5849.73,4837.66,-1046.24,-15.7188,-42.5357,62.5947,-746.821,-11261.8,-855.531,-1.40304,-63.6162,92.4102,8209.36,-180.311,-292.176,80.0822,31.7318,-18.4285
3.4005,17746.5,-1088.55,9965.77,-29.9062,312.635,59.5031,4535.23,-197.345,9056.27,20.1915,-34.8248,6.27569,-9966.42,17236.9,-3756.42,45.1522,44.584,331.899,402.092,10443.7,-925.227,-3.62338,41.0577,51.7434,-5828.5,4877.57,-1031.59,-15.5398,-43.7894,62.6729,-676.853,-11319.3,-906.845,-0.699725,-63.8354,92.237,8171.77,-116.034,-277.208,80.2727,31.2609,-18.1849
3.401,17860.1,-1038.98,9889.75,-30.4386,311.707,58.4145,4531.88,-238.307,9069.56,20.1866,-35.1685,6.11349,-10090.7,17247.1,-3742.87,45.0667,44.2556,331.24,401.278,10476.8,-898.935,-3.62912,40.8224,52.0121,-5807.27,4917.48,-1016.94,-15.3609,-45.043,62.7511,-606.885,-11376.8,-958.16,0.00358988,-64.0547,92.0639,8134.19,-51.7559,-262.24,80.4633,30.7901,-17.9414
3.4015,17973.8,-989.407,9813.74,-30.9709,310.779,57.3259,4528.53,-279.269,9082.84,20.1818,-35.5123,5.95129,-10215.0,17257.2,-3729.32,44.9811,43.9271,330.581,400.464,10509.8,-872.643,-3.63487,40.587,52.2808,-5786.04,4957.39,-1002.29,-15.1819,-46.2967,62.8294,-536.917,-11434.2,-1009.47,0.706905,-64.274,91.8907,8096.6,12.5218,-247.271,80.6538,30.3192,-17.6978
3.402,18087.4,-939.834,9737.72,-31.5033,309.851,56.2373,4525.18,-320.231,9096.13,20.1769,-35.8561,5.78909,-10339.3,17267.4,-3715.77,44.8956,43.5987,329.922,399.65,10542.9,-846.35,-3.64062,40.3517,52.5494,-5764.81,4997.3,-987.646,-15.003,-47.5503,62.9076,-466.948,-11491.7,-1060.79,1.41022,-64.4932,91.7175,8059.01,76.7994,-232.303,80.8443,29.8483,-17.4542
3.4025,18201.1,-890.261,9661.71,-32.0357,308.923,55.1487,4521.83,-361.194,9109.42,20.1721,-36.1998,5.62689,-10463.6,17277.5,-3702.22,44.8101,43.2702,329.263,398.836,10575.9,-820.058,-3.64636,40.1163,52.8181,-5743.58,5037.21,-972.998,-14.824,-48.804,62.9858,-396.98,-11549.2,-1112.1,2.11354,-64.7125,91.5443,8021.43,141.077,-217.335,81.0349,29.3774,-17.2106
3.403,18314.7,-840.687,9585.69,-32.568,307.995,54.0602,4518.48,-402.156,9122.71,20.1673,-36.5436,5.46469,-10587.9,17287.7,-3688.68,44.7246,42.9418,328.603,398.022,10609.0,-793.766,-3.65211,39.881,53.0868,-5722.35,5077.13,-958.35,-14.6451,-50.0576,63.064,-327.012,-11606.7,-1163.42,2.81685,-64.9318,91.3711,7983.84,205.355,-202.366,81.2254,28.9066,-16.9671
3.4035,18428.3,-791.114,9509.67,-33.1004,307.067,52.9716,4515.13,-443.118,9136.0,20.1624,-36.8874,5.30249,-10712.2,17297.8,-3675.13,44.6391,42.6134,327.944,397.208,10642.0,-767.474,-3.65785,39.6456,53.3554,-5701.13,5117.04,-943.702,-14.4661,-51.3113,63.1422,-257.044,-11664.2,-1214.73,3.52017,-65.151,91.1979,7946.25,269.632,-187.398,81.4159,28.4357,-16.7235
3.404,18542.0,-741.541,9433.66,-33.6327,306.139,51.883,4511.78,-484.081,9149.29,20.1576,-37.2311,5.14029,-10836.5,17308.0,-3661.58,44.5536,42.2849,327.285,396.394,10675.1,-741.182,-3.6636,39.4103,53.6241,-5679.9,5156.95,-929.054,-14.2872,-52.5649,63.2205,-187.076,-11721.7,-1266.05,4.22348,-65.3703,91.0247,7908.66,333.91,-172.43,81.6065,27.9648,-16.4799
3.4045,18654.5,-692.634,9356.49,-34.146,305.188,50.8178,4511.81,-521.763,9163.39,20.1602,-37.5666,4.96731,-10959.4,17319.2,-3644.88,44.4603,41.9684,326.621,394.565,10708.4,-714.291,-3.66998,39.1867,53.8834,-5659.21,5195.04,-917.241,-14.145,-53.7588,63.2602,-111.667,-11773.6,-1315.72,4.9194,-65.5667,90.8549,7870.55,397.492,-156.408,81.7856,27.4739,-16.2277
3.405,18757.6,-649.054,9270.12,-34.5065,304.056,49.9397,4538.86,-533.207,9184.08,20.2225,-37.836,4.70812,-11071.5,17339.5,-3602.97,44.3045,41.7472,325.918,384.619,10743.8,-682.608,-3.68145,39.0578,54.0674,-5642.9,5218.56,-928.111,-14.2965,-54.474,62.9916,7.26656,-11780.5,-1352.26,5.55614,-65.5799,90.7127,7828.2,455.508,-131.96,81.8739,26.8222,-15.9069
3.4055,18860.8,-605.474,9183.75,-34.867,302.925,49.0615,4565.91,-544.651,9204.77,20.2849,-38.1053,4.44892,-11183.7,17359.8,-3561.05,44.1488,41.526,325.216,374.674,10779.3,-650.926,-3.69292,38.9289,54.2515,-5626.58,5242.09,-938.981,-14.448,-55.1891,62.723,126.2,-11787.4,-1388.8,6.19289,-65.5932,90.5705,7785.85,513.525,-107.511,81.9621,26.1705,-15.5861
3.406,18964.0,-561.893,9097.38,-35.2275,301.793,48.1834,4592.96,-556.095,9225.46,20.3472,-38.3747,4.18973,-11295.8,17380.0,-3519.14,43.993,41.3048,324.513,364.728,10814.7,-619.243,-3.70438,38.8,54.4355,-5610.26,5265.61,-949.85,-14.5995,-55.9043,62.4545,245.133,-11794.4,-1425.33,6.82963,-65.6065,90.4282,7743.5,571.541,-83.0629,82.0503,25.5189,-15.2653
3.4065,19067.2,-518.313,9011.0,-35.5881,300.662,47.3053,4620.01,-567.539,9246.15,20.4095,-38.644,3.93053,-11407.9,17400.3,-3477.23,43.8373,41.0835,323.81,354.782,10850.2,-587.56,-3.71585,38.6711,54.6196,-5593.95,5289.14,-960.72,-14.751,-56.6195,62.1859,364.066,-11801.3,-1461.87,7.46637,-65.6197,90.286,7701.16,629.557,-58.6145,82.1385,24.8672,-14.9444
3.407,19170.3,-474.733,8924.63,-35.9486,299.53,46.4271,4647.06,-578.982,9266.83,20.4718,-38.9134,3.67133,-11520.1,17420.6,-3435.31,43.6815,40.8623,323.107,344.837,10885.6,-555.877,-3.72732,38.5422,54.8037,-5577.63,5312.66,-971.59,-14.9025,-57.3347,61.9173,483.0,-11808.2,-1498.41,8.10311,-65.633,90.1438,7658.81,687.573,-34.166,82.2268,24.2156,-14.6236
3.4075,19273.5,-431.153,8838.26,-36.3091,298.398,45.549,4674.11,-590.426,9287.52,20.5342,-39.1827,3.41214,-11632.2,17440.9,-3393.4,43.5258,40.6411,322.405,334.891,10921.0,-524.194,-3.73879,38.4133,54.9877,-5561.31,5336.19,-982.459,-15.0541,-58.0499,61.6488,601.933,-11815.2,-1534.95,8.73986,-65.6463,90.0016,7616.46,745.589,-9.7176,82.315,23.5639,-14.3028
3.408,19376.7,-387.572,8751.89,-36.6696,297.267,44.6708,4701.17,-601.87,9308.21,20.5965,-39.4521,3.15294,-11744.3,17461.1,-3351.49,43.37,40.4199,321.702,324.945,10956.5,-492.512,-3.75025,38.2844,55.1718,-5544.99,5359.71,-993.329,-15.2056,-58.7651,61.3802,720.866,-11822.1,-1571.48,9.3766,-65.6595,89.8593,7574.11,803.606,14.7308,82.4032,22.9122,-13.982
3.4085,19479.9,-343.992,8665.51,-37.0301,296.135,43.7927,4728.22,-613.314,9328.9,20.6588,-39.7214,2.89375,-11856.4,17481.4,-3309.57,43.2143,40.1987,320.999,315.0,10991.9,-460.829,-3.76172,38.1555,55.3559,-5528.68,5383.24,-1004.2,-15.3571,-59.4803,61.1116,839.8,-11829.0,-1608.02,10.0133,-65.6728,89.7171,7531.76,861.622,39.1793,82.4914,22.2606,-13.6611
3.409,19588.1,-310.09,8581.19,-37.3139,294.973,42.969,4745.63,-618.713,9346.64,20.7204,-40.0232,2.61953,-11964.6,17498.5,-3266.57,43.0243,39.9846,320.238,301.629,11025.6,-434.58,-3.78773,37.994,55.5531,-5506.25,5410.76,-1014.58,-15.506,-59.9927,60.7772,962.689,-11828.8,-1643.44,10.6253,-65.6063,89.5759,7493.44,920.361,63.472,82.5138,21.5762,-13.3382
3.4095,19714.3,-310.061,8504.05,-37.3291,293.706,42.3356,4729.3,-602.954,9354.07,20.7795,-40.4388,2.29271,-12058.6,17504.5,-3219.74,42.7145,39.7954,319.271,276.268,11052.9,-427.348,-3.86465,37.7184,55.7967,-5462.42,5452.28,-1023.23,-15.646,-59.7954,60.2122,1099.43,-11803.3,-1674.93,11.1507,-65.2606,89.4385,7469.23,981.628,87.2198,82.3054,20.7772,-13.0077
3.41,19840.4,-310.032,8426.91,-37.3442,292.438,41.7022,4712.97,-587.194,9361.5,20.8385,-40.8543,1.9659,-12152.7,17510.5,-3172.92,42.4047,39.6062,318.304,250.907,11080.2,-420.116,-3.94157,37.4428,56.0402,-5418.59,5493.79,-1031.88,-15.786,-59.598,59.6472,1236.16,-11777.8,-1706.41,11.6761,-64.9149,89.301,7445.01,1042.89,110.968,82.097,19.9782,-12.6771
3.4105,19966.5,-310.002,8349.76,-37.3594,291.17,41.0688,4696.64,-571.435,9368.92,20.8975,-41.2698,1.63909,-12246.7,17516.5,-3126.09,42.0949,39.417,317.338,225.546,11107.5,-412.884,-4.01849,37.1672,56.2837,-5374.77,5535.31,-1040.53,-15.9259,-59.4006,59.0822,1372.9,-11752.3,-1737.9,12.2015,-64.5693,89.1635,7420.8,1104.16,134.716,81.8886,19.1792,-12.3466
3.411,20092.7,-309.973,8272.62,-37.3745,289.903,40.4355,4680.31,-555.676,9376.35,20.9565,-41.6853,1.31228,-12340.8,17522.6,-3079.26,41.7851,39.2278,316.371,200.185,11134.8,-405.653,-4.09541,36.8916,56.5272,-5330.94,5576.83,-1049.18,-16.0659,-59.2033,58.5172,1509.64,-11726.8,-1769.39,12.7269,-64.2236,89.0261,7396.58,1165.43,158.463,81.6802,18.3802,-12.0161
3.4115,20218.8,-309.944,8195.48,-37.3897,288.635,39.8021,4663.98,-539.917,9383.78,21.0156,-42.1009,0.985463,-12434.9,17528.6,-3032.44,41.4753,39.0386,315.404,174.824,11162.1,-398.421,-4.17232,36.616,56.7707,-5287.11,5618.34,-1057.83,-16.2059,-59.0059,57.9522,1646.37,-11701.3,-1800.87,13.2523,-63.8779,88.8886,7372.37,1226.7,182.211,81.4718,17.5812,-11.6856
3.412,20345.0,-309.915,8118.34,-37.4048,287.368,39.1687,4647.65,-524.157,9391.21,21.0746,-42.5164,0.65865,-12528.9,17534.6,-2985.61,41.1655,38.8494,314.438,149.463,11189.5,-391.189,-4.24924,36.3404,57.0142,-5243.28,5659.86,-1066.48,-16.3458,-58.8086,57.3871,1783.11,-11675.8,-1832.36,13.7776,-63.5322,88.7511,7348.15,1287.96,205.959,81.2635,16.7822,-11.3551
3.4125,20471.1,-309.885,8041.19,-37.42,286.1,38.5353,4631.32,-508.398,9398.63,21.1336,-42.9319,0.331838,-12623.0,17540.6,-2938.79,40.8558,38.6602,313.471,124.103,11216.8,-383.958,-4.32616,36.0648,57.2577,-5199.46,5701.38,-1075.13,-16.4858,-58.6112,56.8221,1919.85,-11650.3,-1863.85,14.303,-63.1865,88.6137,7323.94,1349.23,229.707,81.0551,15.9832,-11.0246
3.413,20597.2,-309.856,7964.05,-37.4351,284.832,37.902,4614.99,-492.639,9406.06,21.1927,-43.3474,0.00502514,-12717.1,17546.6,-2891.96,40.546,38.471,312.504,98.7417,11244.1,-376.726,-4.40308,35.7893,57.5013,-5155.63,5742.89,-1083.78,-16.6258,-58.4138,56.2571,2056.59,-11624.8,-1895.33,14.8284,-62.8409,88.4762,7299.72,1410.5,253.455,80.8467,15.1842,-10.6941
3.4135,20725.0,-327.441,7885.31,-37.2968,283.611,37.3386,4598.51,-470.133,9408.86,21.2274,-43.7199,-0.283501,-12810.7,17555.2,-2851.83,40.193,38.3409,311.523,81.1001,11263.2,-375.315,-4.48022,35.484,57.7755,-5101.18,5778.57,-1086.51,-16.7411,-57.8497,55.6632,2189.0,-11592.7,-1923.76,15.3094,-62.3905,88.3666,7282.47,1465.68,266.316,80.5422,14.4019,-10.3494
3.414,20856.0,-380.254,7803.37,-36.8516,282.482,36.9154,4581.73,-434.135,9402.41,21.2134,-44.0063,-0.495455,-12903.5,17568.8,-2825.09,39.7538,38.3288,310.512,78.8967,11265.8,-385.548,-4.5578,35.1192,58.111,-5025.48,5802.58,-1077.4,-16.807,-56.5521,55.0114,2312.78,-11547.5,-1946.08,15.7016,-61.7309,88.3129,7279.16,1508.7,257.403,80.0457,13.653,-9.97658
3.4145,20987.0,-433.068,7721.43,-36.4064,281.353,36.4922,4564.94,-398.138,9395.96,21.1995,-44.2926,-0.707409,-12996.4,17582.5,-2798.35,39.3146,38.3168,309.5,76.6934,11268.5,-395.78,-4.63538,34.7545,58.4466,-4949.77,5826.59,-1068.29,-16.8729,-55.2545,54.3596,2436.55,-11502.2,-1968.4,16.0938,-61.0713,88.2592,7275.84,1551.73,248.491,79.5492,12.9042,-9.60372
3.415,21118.0,-485.881,7639.49,-35.9612,280.224,36.069,4548.15,-362.14,9389.5,21.1855,-44.579,-0.919363,-13089.2,17596.1,-2771.6,38.8753,38.3048,308.489,74.49,11271.2,-406.013,-4.71296,34.3898,58.7822,-4874.07,5850.6,-1059.18,-16.9388,-53.9569,53.7079,2560.33,-11456.9,-1990.71,16.486,-60.4117,88.2054,7272.52,1594.75,239.578,79.0527,12.1553,-9.23086
3.4155,21249.0,-538.694,7557.55,-35.516,279.095,35.6458,4531.37,-326.142,9383.05,21.1716,-44.8654,-1.13132,-13182.0,17609.7,-2744.86,38.4361,38.2928,307.477,72.2867,11273.8,-416.245,-4.79054,34.025,59.1178,-4798.37,5874.6,-1050.07,-17.0048,-52.6593,53.0561,2684.1,-11411.6,-2013.03,16.8783,-59.752,88.1517,7269.21,1637.77,230.666,78.5562,11.4064,-8.858
3.416,21380.0,-591.507,7475.61,-35.0708,277.966,35.2226,4514.58,-290.144,9376.6,21.1576,-45.1518,-1.34327,-13274.9,17623.4,-2718.12,37.9969,38.2808,306.466,70.0834,11276.5,-426.478,-4.86812,33.6603,59.4534,-4722.66,5898.61,-1040.96,-17.0707,-51.3617,52.4043,2807.88,-11366.4,-2035.34,17.2705,-59.0924,88.0979,7265.89,1680.79,221.753,78.0597,10.6576,-8.48514
3.4165,21511.0,-644.32,7393.67,-34.6255,276.836,34.7994,4497.8,-254.146,9370.15,21.1437,-45.4381,-1.55522,-13367.7,17637.0,-2691.38,37.5576,38.2687,305.455,67.88,11279.2,-436.71,-4.94569,33.2956,59.7889,-4646.96,5922.62,-1031.85,-17.1366,-50.0641,51.7525,2931.65,-11321.1,-2057.66,17.6627,-58.4328,88.0442,7262.57,1723.81,212.841,77.5631,9.90872,-8.11229
3.417,21642.0,-697.133,7311.73,-34.1803,275.707,34.3762,4481.01,-218.148,9363.69,21.1298,-45.7245,-1.76718,-13460.6,17650.7,-2664.64,37.1184,38.2567,304.443,65.6767,11281.8,-446.942,-5.02327,32.9309,60.1245,-4571.26,5946.62,-1022.74,-17.2025,-48.7665,51.1008,3055.42,-11275.8,-2079.97,18.0549,-57.7732,87.9904,7259.26,1766.83,203.928,77.0666,9.15985,-7.73943
3.4175,21773.0,-749.946,7229.79,-33.7351,274.578,33.953,4464.23,-182.151,9357.24,21.1158,-46.0109,-1.97913,-13553.4,17664.3,-2637.9,36.6792,38.2447,303.432,63.4733,11284.5,-457.175,-5.10085,32.5661,60.4601,-4495.55,5970.63,-1013.63,-17.2685,-47.4689,50.449,3179.2,-11230.5,-2102.29,18.4471,-57.1135,87.9367,7255.94,1809.85,195.016,76.5701,8.41099,-7.36657
3.418,21924.1,-783.954,7152.64,-33.1512,273.568,33.6489,4448.92,-156.111,9355.02,21.0488,-46.363,-2.16755,-13653.8,17690.8,-2598.16,36.1948,38.2925,302.366,54.4663,11290.6,-460.433,-5.10817,32.1957,60.7756,-4405.72,5993.31,-998.602,-17.2096,-45.5208,49.7782,3296.44,-11184.5,-2105.18,18.7532,-56.4428,87.8979,7258.27,1841.93,179.572,75.8904,7.76328,-6.98362
3.4185,22100.6,-794.455,7081.48,-32.3938,272.706,33.4937,4435.46,-142.519,9358.08,20.9154,-46.7972,-2.32655,-13763.6,17733.4,-2542.18,35.654,38.4151,301.231,36.9547,11300.9,-454.973,-5.02765,31.8181,61.0662,-4298.24,6014.33,-976.185,-16.9948,-42.7595,49.0837,3405.53,-11137.6,-2083.81,18.9517,-55.7581,87.8779,7267.66,1860.31,155.962,74.9816,7.24202,-6.58805
3.419,22277.0,-804.955,7010.31,-31.6364,271.844,33.3385,4422.0,-128.927,9361.14,20.782,-47.2314,-2.48554,-13873.4,17775.9,-2486.21,35.1132,38.5378,300.096,19.4431,11311.2,-449.513,-4.94714,31.4405,61.3567,-4190.76,6035.35,-953.769,-16.7799,-39.9983,48.3892,3514.61,-11090.7,-2062.43,19.1502,-55.0735,87.8579,7277.04,1878.7,132.353,74.0728,6.72076,-6.19248
3.4195,22453.4,-815.456,6939.14,-30.879,270.982,33.1834,4408.53,-115.334,9364.2,20.6486,-47.6656,-2.64454,-13983.2,17818.4,-2430.23,34.5724,38.6604,298.961,1.93145,11321.6,-444.052,-4.86662,31.0629,61.6472,-4083.27,6056.37,-931.352,-16.5651,-37.237,47.6947,3623.7,-11043.7,-2041.05,19.3487,-54.3888,87.8378,7286.43,1897.08,108.744,73.164,6.1995,-5.79691
3.42,22629.8,-825.957,6867.97,-30.1216,270.119,33.0282,4395.07,-101.742,9367.26,20.5152,-48.0998,-2.80354,-14093.0,17861.0,-2374.25,34.0316,38.783,297.826,-15.5802,11331.9,-438.592,-4.78611,30.6853,61.9377,-3975.79,6077.39,-908.935,-16.3502,-34.4758,47.0002,3732.78,-10996.8,-2019.67,19.5472,-53.7042,87.8178,7295.82,1915.46,85.1343,72.2552,5.67824,-5.40134
3.4205,22806.3,-836.457,6796.81,-29.3642,269.257,32.873,4381.61,-88.1502,9370.33,20.3819,-48.534,-2.96253,-14202.9,17903.5,-2318.27,33.4907,38.9056,296.691,-33.0918,11342.2,-433.132,-4.70559,30.3077,62.2283,-3868.31,6098.41,-886.519,-16.1354,-31.7146,46.3057,3841.87,-10949.9,-1998.29,19.7457,-53.0195,87.7978,7305.21,1933.85,61.525,71.3465,5.15697,-5.00577
3.421,22982.7,-846.958,6725.64,-28.6068,268.395,32.7179,4368.15,-74.558,9373.39,20.2485,-48.9682,-3.12153,-14312.7,17946.1,-2262.29,32.9499,39.0282,295.557,-50.6034,11352.6,-427.672,-4.62508,29.9301,62.5188,-3760.82,6119.43,-864.102,-15.9206,-28.9533,45.6112,3950.95,-10902.9,-1976.91,19.9441,-52.3349,87.7777,7314.6,1952.23,37.9157,70.4377,4.63571,-4.6102
3.4215,23159.1,-857.458,6654.47,-27.8494,267.533,32.5627,4354.69,-60.9659,9376.45,20.1151,-49.4024,-3.28053,-14422.5,17988.6,-2206.31,32.4091,39.1508,294.422,-68.115,11362.9,-422.212,-4.54456,29.5525,62.8093,-3653.34,6140.45,-841.686,-15.7057,-26.1921,44.9167,4060.03,-10856.0,-1955.53,20.1426,-51.6502,87.7577,7323.98,1970.62,14.3064,69.5289,4.11445,-4.21463
3.422,23335.5,-867.959,6583.3,-27.092,266.671,32.4075,4341.23,-47.3738,9379.51,19.9817,-49.8366,-3.43952,-14532.3,18031.2,-2150.33,31.8683,39.2735,293.287,-85.6266,11373.2,-416.752,-4.46405,29.1749,63.0998,-3545.86,6161.47,-819.269,-15.4909,-23.4308,44.2222,4169.12,-10809.1,-1934.15,20.3411,-50.9656,87.7377,7333.37,1989.0,-9.30287,68.6201,3.59319,-3.81906
3.4225,23544.9,-826.668,6523.29,-26.3027,265.945,32.4293,4345.6,-14.989,9377.74,19.8319,-50.2009,-3.54182,-14671.7,18072.9,-2090.01,31.3794,39.4759,292.03,-108.459,11369.0,-422.053,-4.4112,28.7227,63.4777,-3422.92,6193.06,-811.476,-15.0662,-20.0482,43.6871,4266.0,-10760.4,-1895.15,20.4735,-50.3795,87.7649,7350.28,1996.85,-28.2265,67.6376,3.18469,-3.48692
3.423,23780.7,-743.943,6472.2,-25.4879,265.329,32.5927,4364.24,32.4298,9372.09,19.6691,-50.5092,-3.59876,-14834.7,18113.8,-2026.23,30.9319,39.7422,290.676,-135.549,11353.2,-435.963,-4.38049,28.2106,63.9255,-3287.61,6233.11,-815.383,-14.4737,-16.1685,43.2796,4353.11,-10710.3,-1842.05,20.5531,-49.8722,87.8299,7373.22,1996.28,-43.4017,66.5961,2.86639,-3.20551
3.4235,24016.5,-661.219,6421.1,-24.6731,264.712,32.7561,4382.88,79.8486,9366.45,19.5062,-50.8175,-3.65569,-14997.7,18154.8,-1962.44,30.4844,40.0085,289.322,-162.638,11337.4,-449.874,-4.34977,27.6986,64.3733,-3152.31,6273.16,-819.289,-13.8812,-12.2888,42.8721,4440.22,-10660.2,-1788.94,20.6326,-49.365,87.8948,7396.15,1995.7,-58.5768,65.5546,2.54809,-2.92411
3.424,24252.3,-578.495,6370.01,-23.8583,264.095,32.9195,4401.53,127.267,9360.81,19.3434,-51.1258,-3.71263,-15160.7,18195.8,-1898.65,30.0369,40.2748,287.967,-189.727,11321.6,-463.784,-4.31906,27.1866,64.8211,-3017.0,6313.21,-823.196,-13.2887,-8.40905,42.4646,4527.33,-10610.2,-1735.84,20.7122,-48.8578,87.9598,7419.08,1995.13,-73.752,64.5131,2.22979,-2.6427
3.4245,24488.0,-495.77,6318.92,-23.0435,263.479,33.0829,4420.17,174.686,9355.17,19.1805,-51.4341,-3.76956,-15323.7,18236.8,-1834.87,29.5895,40.5411,286.613,-216.817,11305.7,-477.694,-4.28834,26.6746,65.2689,-2881.69,6353.26,-827.103,-12.6962,-4.52933,42.0571,4614.44,-10560.1,-1682.74,20.7918,-48.3505,88.0248,7442.01,1994.55,-88.9271,63.4716,1.91149,-2.3613
3.425,24723.8,-413.046,6267.82,-22.2287,262.862,33.2462,4438.81,222.105,9349.52,19.0176,-51.7423,-3.8265,-15486.7,18277.8,-1771.08,29.142,40.8074,285.259,-243.906,11289.9,-491.605,-4.25763,26.1626,65.7168,-2746.39,6393.3,-831.009,-12.1037,-0.649612,41.6497,4701.55,-10510.0,-1629.63,20.8713,-47.8433,88.0898,7464.94,1993.98,-104.102,62.43,1.5932,-2.07989
3.4255,24959.6,-330.321,6216.73,-21.4139,262.245,33.4096,4457.45,269.524,9343.88,18.8548,-52.0506,-3.88344,-15649.6,18318.8,-1707.29,28.6945,41.0737,283.904,-270.995,11274.1,-505.515,-4.22691,25.6506,66.1646,-2611.08,6433.35,-834.916,-11.5111,3.23011,41.2422,4788.67,-10459.9,-1576.53,20.9509,-47.3361,88.1547,7487.87,1993.4,-119.277,61.3885,1.2749,-1.79849
3.426,25195.4,-247.597,6165.64,-20.5991,261.628,33.573,4476.09,316.943,9338.24,18.6919,-52.3589,-3.94037,-15812.6,18359.8,-1643.5,28.247,41.34,282.55,-298.085,11258.3,-519.425,-4.1962,25.1385,66.6124,-2475.78,6473.4,-838.822,-10.9186,7.10983,40.8347,4875.78,-10409.8,-1523.42,21.0304,-46.8288,88.2197,7510.81,1992.83,-134.453,60.347,0.956601,-1.51708
3.4265,25431.1,-164.872,6114.55,-19.7842,261.012,33.7364,4494.73,364.362,9332.6,18.5291,-52.6672,-3.99731,-15975.6,18400.8,-1579.72,27.7996,41.6063,281.196,-325.174,11242.4,-533.336,-4.16548,24.6265,67.0602,-2340.47,6513.45,-842.729,-10.3261,10.9895,40.4272,4962.89,-10359.7,-1470.32,21.11,-46.3216,88.2847,7533.74,1992.25,-149.628,59.3055,0.638303,-1.23567
3.427,25664.7,-50.3543,6046.85,-19.0433,260.535,34.0787,4504.52,367.517,9343.78,18.3534,-53.0173,-4.06593,-16172.9,18443.5,-1512.24,27.3578,41.7979,279.806,-342.146,11240.8,-565.74,-4.23227,24.1834,67.4262,-2187.63,6554.69,-817.512,-9.33977,15.2139,40.1021,5037.07,-10306.9,-1436.46,21.1025,-45.8555,88.3534,7581.99,1971.68,-171.903,58.4206,0.424472,-0.993823
3.4275,25897.2,80.0601,5970.86,-18.3393,260.129,34.5104,4509.88,348.541,9363.39,18.1714,-53.3882,-4.14039,-16387.3,18486.9,-1442.93,26.919,41.952,278.397,-354.059,11246.3,-607.39,-4.3478,23.7747,67.7514,-2026.02,6596.53,-777.735,-8.15651,19.6105,39.8181,5104.8,-10252.6,-1412.22,21.0515,-45.4101,88.424,7642.91,1941.1,-197.729,57.6139,0.262874,-0.771749
3.428,26129.7,210.475,5894.86,-17.6353,259.722,34.9421,4515.24,329.566,9382.99,17.9894,-53.7591,-4.21486,-16601.6,18530.4,-1373.61,26.4801,42.1062,276.989,-365.972,11251.8,-649.041,-4.46334,23.366,68.0766,-1864.41,6638.36,-737.957,-6.97325,24.0072,39.5342,5172.52,-10198.3,-1387.98,21.0005,-44.9646,88.4946,7703.83,1910.53,-223.554,56.8073,0.101277,-0.549675
3.4285,26362.2,340.889,5818.86,-16.9313,259.315,35.3738,4520.6,310.59,9402.6,17.8073,-54.13,-4.28932,-16816.0,18573.9,-1304.3,26.0412,42.2603,275.581,-377.885,11257.3,-690.692,-4.57887,22.9574,68.4017,-1702.81,6680.2,-698.179,-5.78999,28.4038,39.2502,5240.24,-10144.1,-1363.74,20.9495,-44.5191,88.5652,7764.75,1879.95,-249.38,56.0007,-0.0603207,-0.327602
3.429,26594.7,471.303,5742.87,-16.2273,258.909,35.8055,4525.96,291.614,9422.2,17.6253,-54.5009,-4.36378,-17030.4,18617.4,-1234.99,25.6023,42.4145,274.173,-389.798,11262.8,-732.343,-4.6944,22.5487,68.7269,-1541.2,6722.04,-658.401,-4.60673,32.8004,38.9663,5307.96,-10089.8,-1339.5,20.8985,-44.0737,88.6358,7825.67,1849.38,-275.205,55.194,-0.221918,-0.105528
3.4295,26827.2,601.718,5666.87,-15.5233,258.502,36.2372,4531.32,272.638,9441.8,17.4433,-54.8718,-4.43824,-17244.8,18660.9,-1165.67,25.1635,42.5686,272.764,-401.712,11268.3,-773.994,-4.80994,22.14,69.0521,-1379.59,6763.88,-618.624,-3.42347,37.1971,38.6824,5375.69,-10035.5,-1315.26,20.8475,-43.6282,88.7064,7886.59,1818.8,-301.031,54.3874,-0.383516,0.116546
3.43,27059.7,732.132,5590.87,-14.8193,258.096,36.6689,4536.68,253.662,9461.41,17.2612,-55.2428,-4.51271,-17459.1,18704.4,-1096.36,24.7246,42.7228,271.356,-413.625,11273.8,-815.645,-4.92547,21.7313,69.3772,-1217.98,6805.71,-578.846,-2.24021,41.5937,38.3984,5443.41,-9981.26,-1291.02,20.7965,-43.1828,88.777,7947.51,1788.23,-326.856,53.5807,-0.545113,0.33862
3.4305,27292.2,862.547,5514.88,-14.1153,257.689,37.1006,4542.04,234.687,9481.01,17.0792,-55.6137,-4.58717,-17673.5,18747.9,-1027.04,24.2857,42.8769,269.948,-425.538,11279.3,-857.296,-5.04101,21.3226,69.7024,-1056.37,6847.55,-539.068,-1.05695,45.9903,38.1145,5511.13,-9926.99,-1266.78,20.7455,-42.7373,88.8476,8008.43,1757.65,-352.682,52.7741,-0.706711,0.560694
3.431,27524.7,992.961,5438.88,-13.4113,257.283,37.5324,4547.4,215.711,9500.62,16.8972,-55.9846,-4.66163,-17887.9,18791.3,-957.727,23.8469,43.0311,268.54,-437.451,11284.8,-898.946,-5.15654,20.9139,70.0276,-894.766,6889.39,-499.291,0.126305,50.387,37.8305,5578.85,-9872.72,-1242.54,20.6945,-42.2918,88.9182,8069.35,1727.08,-378.507,51.9675,-0.868308,0.782768
3.4315,27702.5,1122.32,5332.66,-12.8661,256.828,38.013,4537.56,197.663,9525.34,16.9336,-56.5141,-4.72521,-18115.9,18817.2,-886.538,23.5308,43.1221,267.073,-445.117,11298.8,-923.537,-5.21481,20.6831,70.4646,-708.099,6912.22,-429.944,1.6038,54.4831,37.5546,5634.56,-9822.2,-1241.09,20.4611,-41.8644,89.0538,8118.28,1690.41,-399.432,51.4412,-1.01626,1.05253
3.432,27864.8,1251.38,5217.79,-12.3664,256.36,38.5077,4523.38,179.881,9551.52,17.0324,-57.0889,-4.78567,-18347.8,18838.0,-814.813,23.2498,43.1951,265.59,-451.569,11315.2,-943.254,-5.25671,20.503,70.9335,-514.272,6929.62,-352.148,3.16536,58.4934,37.2809,5686.84,-9772.75,-1246.16,20.1755,-41.4421,89.2079,8163.78,1652.01,-418.957,50.9949,-1.16031,1.33592
3.4325,28027.0,1380.43,5102.93,-11.8667,255.892,39.0024,4509.2,162.098,9577.71,17.1312,-57.6638,-4.84613,-18579.8,18858.8,-743.089,22.9687,43.268,264.107,-458.021,11331.6,-962.971,-5.29862,20.3229,71.4025,-320.445,6947.02,-274.353,4.72692,62.5037,37.0072,5739.11,-9723.29,-1251.22,19.89,-41.0198,89.3621,8209.28,1613.6,-438.482,50.5487,-1.30437,1.61931
3.433,28189.2,1509.49,4988.07,-11.367,255.424,39.4971,4495.01,144.316,9603.89,17.2301,-58.2386,-4.90659,-18811.7,18879.6,-671.364,22.6877,43.341,262.624,-464.473,11348.0,-982.688,-5.34052,20.1428,71.8714,-126.618,6964.43,-196.558,6.28848,66.514,36.7335,5791.39,-9673.84,-1256.29,19.6045,-40.5975,89.5163,8254.78,1575.19,-458.007,50.1025,-1.44842,1.9027
3.4335,28351.4,1638.54,4873.2,-10.8672,254.957,39.9918,4480.83,126.533,9630.08,17.3289,-58.8134,-4.96705,-19043.6,18900.4,-599.64,22.4067,43.414,261.142,-470.926,11364.4,-1002.4,-5.38243,19.9627,72.3404,67.2089,6981.83,-118.762,7.85004,70.5243,36.4598,5843.67,-9624.39,-1261.35,19.3189,-40.1752,89.6705,8300.28,1536.79,-477.532,49.6563,-1.59247,2.18609
3.434,28513.7,1767.6,4758.34,-10.3675,254.489,40.4864,4466.65,108.751,9656.26,17.4277,-59.3883,-5.02751,-19275.5,18921.2,-527.915,22.1257,43.487,259.659,-477.378,11380.9,-1022.12,-5.42434,19.7826,72.8093,261.036,6999.23,-40.9671,9.4116,74.5345,36.1862,5895.94,-9574.94,-1266.42,19.0334,-39.7529,89.8246,8345.78,1498.38,-497.057,49.2101,-1.73653,2.46948
3.4345,28675.9,1896.66,4643.48,-9.86778,254.021,40.9811,4452.47,90.9681,9682.45,17.5265,-59.9631,-5.08798,-19507.4,18942.0,-456.191,21.8447,43.5599,258.176,-483.83,11397.3,-1041.84,-5.46624,19.6025,73.2783,454.863,7016.63,36.8282,10.9732,78.5448,35.9125,5948.22,-9525.48,-1271.49,18.7479,-39.3306,89.9788,8391.28,1459.97,-516.582,48.7638,-1.88058,2.75288
3.435,28838.1,2025.71,4528.62,-9.36805,253.553,41.4758,4438.29,73.1856,9708.63,17.6253,-60.5379,-5.14844,-19739.4,18962.8,-384.466,21.5637,43.6329,256.693,-490.282,11413.7,-1061.55,-5.50815,19.4224,73.7472,648.69,7034.04,114.623,12.5347,82.5551,35.6388,6000.49,-9476.03,-1276.55,18.4623,-38.9083,90.133,8436.78,1421.57,-536.107,48.3176,-2.02464,3.03627
3.4355,29000.3,2154.77,4413.75,-8.86832,253.085,41.9705,4424.1,55.4031,9734.82,17.7242,-61.1128,-5.2089,-19971.3,18983.6,-312.742,21.2827,43.7059,255.21,-496.734,11430.1,-1081.27,-5.55005,19.2423,74.2161,842.516,7051.44,192.419,14.0963,86.5654,35.3651,6052.77,-9426.58,-1281.62,18.1768,-38.486,90.2871,8482.28,1383.16,-555.632,47.8714,-2.16869,3.31966
3.436,29090.3,2235.73,4289.63,-8.59514,252.366,42.2612,4407.94,46.4727,9761.4,17.7887,-61.7596,-5.30672,-20143.5,18965.2,-278.302,21.137,43.7441,253.844,-463.677,11446.0,-1122.93,-5.56995,19.2332,74.7148,1044.01,7091.27,286.103,16.1816,89.5972,34.899,6096.54,-9388.69,-1298.84,17.6976,-38.0565,90.5635,8530.15,1345.12,-583.791,47.7576,-2.19028,3.59466
3.4365,29171.3,2310.68,4164.34,-8.35028,251.616,42.5263,4391.53,38.6488,9788.02,17.849,-62.4154,-5.40921,-20308.2,18941.9,-248.523,21.0082,43.7781,252.493,-425.68,11461.8,-1167.33,-5.5871,19.2455,75.2171,1246.46,7133.91,381.773,18.3325,92.5066,34.4089,6139.25,-9352.25,-1317.58,17.1941,-37.6261,90.8552,8578.32,1307.13,-613.03,47.6854,-2.19656,3.86862
3.437,29252.3,2385.63,4039.06,-8.10541,250.866,42.7915,4375.12,30.8249,9814.65,17.9092,-63.0713,-5.5117,-20472.9,18918.6,-218.744,20.8795,43.812,251.141,-387.684,11477.6,-1211.73,-5.60424,19.2578,75.7195,1448.92,7176.54,477.443,20.4833,95.4161,33.9188,6181.96,-9315.81,-1336.32,16.6907,-37.1957,91.1468,8626.49,1269.14,-642.269,47.6132,-2.20284,4.14258
3.4375,29333.3,2460.58,3913.78,-7.86055,250.116,43.0567,4358.71,23.001,9841.28,17.9695,-63.7271,-5.61419,-20637.6,18895.3,-188.965,20.7507,43.8459,249.79,-349.687,11493.4,-1256.13,-5.62139,19.2702,76.2218,1651.37,7219.17,573.113,22.6341,98.3256,33.4286,6224.67,-9279.37,-1355.06,16.1872,-36.7653,91.4385,8674.66,1231.15,-671.508,47.541,-2.20912,4.41653
3.438,29414.3,2535.53,3788.49,-7.61569,249.366,43.3219,4342.3,15.1771,9867.91,18.0297,-64.3829,-5.71668,-20802.3,18872.0,-159.187,20.622,43.8798,248.438,-311.691,11509.2,-1300.54,-5.63854,19.2825,76.7242,1853.82,7261.81,668.784,24.7849,101.235,32.9385,6267.38,-9242.93,-1373.8,15.6838,-36.3349,91.7301,8722.83,1193.16,-700.747,47.4688,-2.2154,4.69049
3.4385,29495.3,2610.48,3663.21,-7.37083,248.615,43.587,4325.89,7.35319,9894.54,18.09,-65.0388,-5.81917,-20967.1,18848.7,-129.408,20.4932,43.9138,247.087,-273.695,11525.0,-1344.94,-5.65568,19.2948,77.2265,2056.27,7304.44,764.454,26.9358,104.145,32.4484,6310.09,-9206.49,-1392.54,15.1803,-35.9045,92.0218,8771.0,1155.17,-729.986,47.3966,-2.22168,4.96445
3.439,29576.3,2685.43,3537.93,-7.12596,247.865,43.8522,4309.48,-0.47072,9921.17,18.1503,-65.6946,-5.92166,-21131.8,18825.4,-99.6288,20.3645,43.9477,245.736,-235.698,11540.8,-1389.34,-5.67283,19.3071,77.7289,2258.72,7347.08,860.124,29.0866,107.054,31.9583,6352.8,-9170.05,-1411.28,14.6768,-35.4741,92.3135,8819.17,1117.18,-759.224,47.3244,-2.22796,5.23841
3.4395,29657.2,2760.38,3412.64,-6.8811,247.115,44.1174,4293.07,-8.29463,9947.8,18.2105,-66.3504,-6.02415,-21296.5,18802.1,-69.8499,20.2357,43.9816,244.384,-197.702,11556.6,-1433.74,-5.68998,19.3195,78.2312,2461.18,7389.71,955.794,31.2374,109.963,31.4681,6395.51,-9133.61,-1430.02,14.1734,-35.0436,92.6051,8867.34,1079.19,-788.463,47.2522,-2.23424,5.51237
3.44,29738.2,2835.33,3287.36,-6.63624,246.365,44.3825,4276.66,-16.1185,9974.42,18.2708,-67.0063,-6.12664,-21461.2,18778.8,-40.071,20.1069,44.0155,243.033,-159.705,11572.4,-1478.14,-5.70712,19.3318,78.7336,2663.63,7432.35,1051.46,33.3883,112.873,30.978,6438.22,-9097.17,-1448.76,13.6699,-34.6132,92.8968,8915.51,1041.19,-817.702,47.1799,-2.24052,5.78632
3.4405,29748.8,2828.43,3146.52,-6.40397,245.298,44.2957,4291.09,4.096,9997.05,18.4264,-67.7748,-6.15208,-21578.8,18711.7,-47.5519,19.9564,44.165,241.667,-164.784,11616.0,-1505.22,-5.80987,19.4913,79.1898,2874.29,7475.86,1126.57,35.97,114.275,30.0334,6468.2,-9068.09,-1461.45,13.053,-34.2193,93.1667,8945.25,1019.33,-861.828,47.3919,-1.97853,5.88736
3.441,29759.4,2821.52,3005.69,-6.17171,244.232,44.2088,4305.51,24.3105,10019.7,18.5821,-68.5434,-6.17752,-21696.4,18644.6,-55.0328,19.8059,44.3144,240.302,-169.862,11659.6,-1532.3,-5.91261,19.6508,79.6459,3084.95,7519.37,1201.67,38.5517,115.678,29.0888,6498.18,-9039.02,-1474.14,12.436,-33.8254,93.4365,8974.99,997.471,-905.953,47.6039,-1.71653,5.9884
3.4415,29770.0,2814.61,2864.86,-5.93945,243.166,44.122,4319.93,44.5251,10042.3,18.7377,-69.312,-6.20296,-21813.9,18577.6,-62.5137,19.6554,44.4639,238.936,-174.941,11703.1,-1559.38,-6.01535,19.8103,80.1021,3295.61,7562.88,1276.78,41.1334,117.08,28.1442,6528.17,-9009.94,-1486.83,11.819,-33.4314,93.7064,9004.73,975.609,-950.078,47.8159,-1.45453,6.08943
3.442,29780.6,2807.71,2724.02,-5.70718,242.099,44.0351,4334.35,64.7396,10064.9,18.8934,-70.0805,-6.2284,-21931.5,18510.5,-69.9946,19.5049,44.6133,237.57,-180.019,11746.7,-1586.46,-6.11809,19.9698,80.5583,3506.28,7606.4,1351.88,43.7152,118.483,27.1996,6558.15,-8980.87,-1499.52,11.202,-33.0375,93.9763,9034.47,953.748,-994.204,48.0278,-1.19254,6.19047
3.4425,29791.2,2800.8,2583.19,-5.47492,241.033,43.9482,4348.78,84.9541,10087.5,19.0491,-70.8491,-6.25384,-22049.1,18443.4,-77.4755,19.3544,44.7628,236.204,-185.098,11790.3,-1613.54,-6.22083,20.1293,81.0144,3716.94,7649.91,1426.98,46.2969,119.885,26.2551,6588.13,-8951.79,-1512.22,10.585,-32.6436,94.2462,9064.21,931.886,-1038.33,48.2398,-0.930542,6.2915
3.443,29801.8,2793.89,2442.35,-5.24266,239.966,43.8614,4363.2,105.169,10110.2,19.2047,-71.6177,-6.27928,-22166.7,18376.4,-84.9564,19.2039,44.9122,234.839,-190.176,11833.9,-1640.63,-6.32358,20.2888,81.4706,3927.6,7693.42,1502.09,48.8786,121.288,25.3105,6618.11,-8922.71,-1524.91,9.96805,-32.2496,94.5161,9093.95,910.024,-1082.45,48.4518,-0.668546,6.39254
3.4435,29812.4,2786.99,2301.52,-5.01039,238.9,43.7745,4377.62,125.383,10132.8,19.3604,-72.3862,-6.30472,-22284.2,18309.3,-92.4373,19.0534,45.0616,233.473,-195.255,11877.5,-1667.71,-6.42632,20.4483,81.9268,4138.26,7736.93,1577.19,51.4603,122.69,24.3659,6648.09,-8893.64,-1537.6,9.35106,-31.8557,94.7859,9123.69,888.163,-1126.58,48.6638,-0.406549,6.49358
3.444,29822.9,2780.08,2160.69,-4.77813,237.833,43.6876,4392.04,145.598,10155.4,19.516,-73.1548,-6.33016,-22401.8,18242.2,-99.9182,18.9028,45.2111,232.107,-200.333,11921.1,-1694.79,-6.52906,20.6078,82.3829,4348.92,7780.45,1652.3,54.0421,124.093,23.4213,6678.07,-8864.56,-1550.29,8.73408,-31.4618,95.0558,9153.43,866.301,-1170.71,48.8757,-0.144553,6.59461
3.4445,29829.8,2769.02,2017.55,-4.54248,236.729,43.5724,4404.25,166.816,10178.7,19.6623,-73.9304,-6.35291,-22510.6,18170.3,-113.756,18.7807,45.3737,230.727,-204.867,11966.0,-1723.38,-6.62744,20.7653,82.8428,4560.17,7825.7,1729.29,56.6419,125.366,22.4668,6704.59,-8837.11,-1560.79,8.11069,-31.0869,95.33,9186.15,846.442,-1211.4,49.0738,0.121945,6.70255
3.445,29806.4,2724.76,1856.03,-4.27969,235.323,43.2303,4398.68,196.063,10207.5,19.7332,-74.7627,-6.35414,-22549.4,18059.3,-178.452,18.8852,45.6412,229.228,-205.048,12021.3,-1764.06,-6.69096,20.9065,83.3322,4776.11,7884.9,1821.39,59.387,125.608,21.4326,6703.41,-8822.59,-1553.83,7.43603,-30.8645,95.6389,9242.67,842.596,-1224.65,49.1607,0.424459,6.86574
3.4455,29783.1,2680.49,1694.51,-4.01691,233.916,42.8883,4393.12,225.31,10236.3,19.804,-75.5949,-6.35537,-22588.2,17948.3,-243.149,18.9898,45.9088,227.73,-205.229,12076.6,-1804.74,-6.75448,21.0477,83.8216,4992.05,7944.11,1913.49,62.132,125.849,20.3984,6702.23,-8808.07,-1546.87,6.76137,-30.6421,95.9477,9299.19,838.751,-1237.91,49.2475,0.726973,7.02893
3.446,29759.8,2636.22,1532.99,-3.75413,232.51,42.5462,4387.56,254.557,10265.1,19.8749,-76.4272,-6.3566,-22627.0,17837.3,-307.845,19.0944,46.1764,226.232,-205.409,12131.9,-1845.42,-6.818,21.189,84.311,5207.99,8003.31,2005.59,64.877,126.09,19.3642,6701.05,-8793.55,-1539.91,6.08671,-30.4197,96.2566,9355.71,834.905,-1251.16,49.3344,1.02949,7.19211
3.4465,29736.4,2591.96,1371.47,-3.49135,231.104,42.2041,4382.0,283.805,10293.9,19.9458,-77.2595,-6.35782,-22665.9,17726.4,-372.541,19.199,46.4439,224.734,-205.59,12187.2,-1886.11,-6.88152,21.3302,84.8004,5423.93,8062.51,2097.69,67.622,126.332,18.33,6699.87,-8779.03,-1532.95,5.41204,-30.1972,96.5654,9412.23,831.06,-1264.41,49.4213,1.332,7.3553
3.447,29713.1,2547.69,1209.95,-3.22857,229.697,41.8621,4376.43,313.052,10322.8,20.0167,-78.0917,-6.35905,-22704.7,17615.4,-437.237,19.3035,46.7115,223.235,-205.771,12242.5,-1926.79,-6.94504,21.4714,85.2898,5639.87,8121.72,2189.78,70.3671,126.573,17.2958,6698.69,-8764.51,-1525.99,4.73738,-29.9748,96.8743,9468.75,827.214,-1277.66,49.5081,1.63451,7.51849
3.4475,29689.7,2503.42,1048.43,-2.96578,228.291,41.52,4370.87,342.299,10351.6,20.0876,-78.924,-6.36028,-22743.5,17504.4,-501.933,19.4081,46.9791,221.737,-205.951,12297.8,-1967.47,-7.00856,21.6127,85.7792,5855.81,8180.92,2281.88,73.1121,126.814,16.2616,6697.51,-8750.0,-1519.03,4.06272,-29.7524,97.1831,9525.27,823.369,-1290.92,49.595,1.93703,7.68167
3.448,29666.4,2459.16,886.908,-2.703,226.885,41.1779,4365.31,371.546,10380.4,20.1584,-79.7562,-6.3615,-22782.3,17393.4,-566.629,19.5127,47.2467,220.239,-206.132,12353.0,-2008.15,-7.07208,21.7539,86.2686,6071.76,8240.12,2373.98,75.8571,127.056,15.2274,6696.33,-8735.48,-1512.07,3.38806,-29.53,97.492,9581.79,819.524,-1304.17,49.6818,2.23954,7.84486
3.4485,29643.1,2414.89,725.387,-2.44022,225.478,40.8359,4359.75,400.793,10409.2,20.2293,-80.5885,-6.36273,-22821.1,17282.4,-631.326,19.6173,47.5142,218.741,-206.313,12408.3,-2048.83,-7.13559,21.8951,86.758,6287.7,8299.33,2466.08,78.6021,127.297,14.1932,6695.15,-8720.96,-1505.11,2.7134,-29.3076,97.8008,9638.31,815.678,-1317.42,49.7687,2.54206,8.00805
3.449,29616.5,2376.45,562.871,-2.19664,224.007,40.4351,4353.64,436.221,10436.6,20.295,-81.4355,-6.35192,-22855.7,17166.0,-696.557,19.7788,47.7724,217.202,-213.145,12460.3,-2092.49,-7.20243,22.0572,87.284,6510.2,8364.77,2561.65,81.2897,127.301,13.1052,6689.63,-8712.75,-1494.66,2.04644,-29.1461,98.1047,9694.92,812.896,-1327.17,49.811,2.86064,8.1694
3.4495,29578.7,2358.38,396.869,-2.02029,222.307,39.8287,4345.61,493.283,10459.2,20.3422,-82.3341,-6.299,-22875.7,17030.6,-763.66,20.1399,47.9976,215.52,-243.258,12500.8,-2146.56,-7.28088,22.2925,87.9381,6755.7,8452.08,2669.36,83.7761,126.472,11.8288,6668.87,-8726.62,-1471.97,1.40641,-29.1981,98.3911,9751.85,813.834,-1324.66,49.6976,3.23548,8.32433
3.45,29540.9,2340.31,230.868,-1.84394,220.606,39.2224,4337.57,550.345,10481.9,20.3894,-83.2327,-6.24608,-22895.7,16895.1,-830.763,20.501,48.2228,213.839,-273.37,12541.3,-2200.63,-7.35933,22.5278,88.5923,7001.2,8539.39,2777.06,86.2625,125.643,10.5525,6648.11,-8740.5,-1449.28,0.766381,-29.25,98.6775,9808.77,814.772,-1322.14,49.5841,3.61031,8.47926
3.4505,29503.0,2322.25,64.8669,-1.66758,218.906,38.6161,4329.54,607.407,10504.5,20.4367,-84.1313,-6.19316,-22915.7,16759.7,-897.866,20.8622,48.4479,212.157,-303.483,12581.8,-2254.7,-7.43778,22.7631,89.2465,7246.69,8626.69,2884.77,88.7489,124.815,9.27609,6627.35,-8754.37,-1426.6,0.126354,-29.302,98.9639,9865.7,815.711,-1319.63,49.4706,3.98515,8.63419
3.451,29465.2,2304.18,-101.134,-1.49123,217.206,38.0098,4321.51,664.469,10527.2,20.4839,-85.0299,-6.14024,-22935.7,16624.2,-964.969,21.2233,48.6731,210.476,-333.595,12622.3,-2308.77,-7.51623,22.9984,89.9006,7492.19,8714.0,2992.47,91.2353,123.986,7.99973,6606.59,-8768.25,-1403.91,-0.513673,-29.354,99.2504,9922.62,816.649,-1317.12,49.3572,4.35999,8.78913
3.4515,29427.4,2286.11,-267.136,-1.31488,215.506,37.4034,4313.48,721.531,10549.8,20.5312,-85.9285,-6.08731,-22955.7,16488.8,-1032.07,21.5844,48.8983,208.794,-363.708,12662.8,-2362.84,-7.59468,23.2336,90.5548,7737.69,8801.31,3100.18,93.7216,123.157,6.72336,6585.83,-8782.12,-1381.22,-1.1537,-29.406,99.5368,9979.55,817.587,-1314.61,49.2437,4.73482,8.94406
3.452,29389.5,2268.05,-433.137,-1.13853,213.806,36.7971,4305.45,778.594,10572.4,20.5784,-86.8271,-6.03439,-22975.8,16353.3,-1099.18,21.9455,49.1235,207.113,-393.82,12703.2,-2416.91,-7.67313,23.4689,91.2089,7983.18,8888.62,3207.88,96.208,122.329,5.447,6565.07,-8795.99,-1358.54,-1.79373,-29.4579,99.8232,10036.5,818.525,-1312.09,49.1302,5.10966,9.09899
3.4525,29351.7,2249.98,-599.138,-0.962173,212.106,36.1908,4297.42,835.656,10595.1,20.6257,-87.7258,-5.98147,-22995.8,16217.9,-1166.28,22.3066,49.3487,205.431,-423.933,12743.7,-2470.98,-7.75157,23.7042,91.8631,8228.68,8975.92,3315.59,98.6944,121.5,4.17063,6544.31,-8809.87,-1335.85,-2.43375,-29.5099,100.11,10093.4,819.464,-1309.58,49.0168,5.4845,9.25392
3.453,29313.9,2231.92,-765.14,-0.78582,210.406,35.5845,4289.39,892.718,10617.7,20.6729,-88.6244,-5.92855,-23015.8,16082.4,-1233.38,22.6677,49.5739,203.75,-454.046,12784.2,-2525.04,-7.83002,23.9395,92.5172,8474.18,9063.23,3423.29,101.181,120.671,2.89427,6523.56,-8823.74,-1313.16,-3.07378,-29.5619,100.396,10150.3,820.402,-1307.07,48.9033,5.85933,9.40885
3.4535,29264.7,2237.84,-933.877,-0.739532,208.617,34.9263,4277.87,948.141,10644.4,20.6446,-89.5385,-5.84193,-23052.8,15937.6,-1307.2,23.0303,49.659,202.063,-484.422,12828.4,-2574.97,-7.94018,24.1399,93.1629,8729.67,9155.67,3530.92,103.382,119.537,1.70473,6500.39,-8850.66,-1289.45,-3.63816,-29.7158,100.616,10206.8,830.048,-1302.57,48.8407,6.28814,9.56797
3.454,29192.7,2291.74,-1108.09,-0.953374,206.652,34.1644,4259.4,1000.29,10679.2,20.4653,-90.4837,-5.6879,-23124.0,15774.1,-1394.43,23.396,49.4641,200.367,-515.325,12880.1,-2616.63,-8.11376,24.2704,93.7915,9005.17,9258.39,3638.39,105.015,117.792,0.688852,6472.42,-8903.67,-1263.7,-4.05125,-30.0738,100.704,10262.4,857.11,-1294.11,48.8796,6.82489,9.73547
3.4545,29120.7,2345.63,-1282.3,-1.16722,204.687,33.4026,4240.92,1052.43,10714.0,20.286,-91.4289,-5.53388,-23195.1,15610.6,-1481.67,23.7616,49.2692,198.671,-546.228,12931.7,-2658.28,-8.28734,24.401,94.4201,9280.67,9361.1,3745.85,106.647,116.046,-0.327028,6444.45,-8956.67,-1237.95,-4.46433,-30.4318,100.791,10318.0,884.172,-1285.65,48.9186,7.36163,9.90297
3.455,29048.7,2399.53,-1456.51,-1.38106,202.722,32.6407,4222.44,1104.58,10748.8,20.1067,-92.3741,-5.37985,-23266.2,15447.1,-1568.9,24.1273,49.0743,196.975,-577.13,12983.4,-2699.93,-8.46092,24.5316,95.0487,9556.17,9463.82,3853.32,108.279,114.301,-1.34291,6416.48,-9009.68,-1212.19,-4.87742,-30.7897,100.879,10373.6,911.234,-1277.18,48.9576,7.89838,10.0705
3.4555,28976.8,2453.43,-1630.72,-1.5949,200.757,31.8789,4203.96,1156.72,10783.6,19.9273,-93.3193,-5.22582,-23337.4,15283.6,-1656.14,24.4929,48.8794,195.279,-608.033,13035.1,-2741.58,-8.6345,24.6622,95.6773,9831.66,9566.53,3960.79,109.911,112.555,-2.35879,6388.51,-9062.69,-1186.44,-5.2905,-31.1477,100.967,10429.1,938.295,-1268.72,48.9965,8.43513,10.238
3.456,28904.8,2507.33,-1804.93,-1.80874,198.792,31.117,4185.49,1208.87,10818.4,19.748,-94.2645,-5.0718,-23408.5,15120.1,-1743.38,24.8586,48.6845,193.582,-638.936,13086.8,-2783.24,-8.80807,24.7928,96.306,10107.2,9669.25,4068.25,111.544,110.81,-3.37467,6360.54,-9115.69,-1160.69,-5.70359,-31.5057,101.054,10484.7,965.357,-1260.26,49.0355,8.97188,10.4055
3.4565,28832.8,2561.23,-1979.14,-2.02258,196.827,30.3552,4167.01,1261.01,10853.2,19.5687,-95.2097,-4.91777,-23479.6,14956.6,-1830.61,25.2242,48.4897,191.886,-669.839,13138.4,-2824.89,-8.98165,24.9234,96.9346,10382.7,9771.96,4175.72,113.176,109.064,-4.39055,6332.57,-9168.7,-1134.93,-6.11668,-31.8636,101.142,10540.3,992.419,-1251.8,49.0745,9.50863,10.573
3.457,28760.8,2615.13,-2153.35,-2.23642,194.862,29.5933,4148.53,1313.16,10888.0,19.3894,-96.1549,-4.76375,-23550.8,14793.1,-1917.85,25.5899,48.2948,190.19,-700.742,13190.1,-2866.54,-9.15523,25.054,97.5632,10658.2,9874.68,4283.19,114.808,107.319,-5.40643,6304.6,-9221.71,-1109.18,-6.52976,-32.2216,101.229,10595.9,1019.48,-1243.34,49.1135,10.0454,10.7405
3.4575,28688.8,2669.03,-2327.56,-2.45027,192.897,28.8315,4130.06,1365.3,10922.8,19.21,-97.1002,-4.60972,-23621.9,14629.6,-2005.08,25.9556,48.0999,188.494,-731.645,13241.8,-2908.19,-9.32881,25.1846,98.1918,10933.7,9977.39,4390.66,116.44,105.573,-6.42231,6276.63,-9274.71,-1083.42,-6.94285,-32.5796,101.317,10651.5,1046.54,-1234.87,49.1524,10.5821,10.908
3.458,28610.3,2759.66,-2488.52,-3.14346,190.835,28.0058,4112.9,1401.05,10951.8,19.1052,-98.083,-4.39225,-23746.7,14459.3,-2043.88,26.3192,47.288,186.739,-766.81,13281.5,-2935.72,-9.54577,25.2877,98.8581,11224.5,10090.0,4464.15,117.175,103.458,-7.40407,6245.29,-9340.8,-1058.56,-7.278,-33.0876,101.292,10700.9,1075.45,-1222.69,49.1591,11.0958,11.0835
3.4585,28523.5,2896.2,-2632.92,-4.43585,188.65,27.1004,4097.39,1416.31,10973.6,19.0935,-99.1131,-4.09545,-23938.4,14280.5,-2022.12,26.6803,45.7049,184.91,-807.303,13306.3,-2945.58,-9.81695,25.3566,99.5714,11534.6,10215.1,4495.18,116.788,100.881,-8.34319,6209.74,-9423.25,-1034.8,-7.51574,-33.7831,101.126,10742.7,1106.67,-1205.86,49.1255,11.5805,11.2691
3.459,28436.8,3032.74,-2777.32,-5.72824,186.465,26.195,4081.88,1431.57,10995.4,19.0819,-100.143,-3.79866,-24130.1,14101.7,-2000.36,27.0414,44.1219,183.081,-847.797,13331.1,-2955.43,-10.0881,25.4255,100.285,11844.7,10340.1,4526.21,116.401,98.3034,-9.2823,6174.18,-9505.69,-1011.04,-7.75348,-34.4786,100.96,10784.5,1137.88,-1189.02,49.0918,12.0653,11.4547
3.4595,28350.1,3169.28,-2921.72,-7.02062,184.28,25.2896,4066.37,1446.83,11017.2,19.0702,-101.173,-3.50187,-24321.8,13922.9,-1978.6,27.4025,42.5388,181.252,-888.29,13355.9,-2965.29,-10.3593,25.4944,100.998,12154.8,10465.1,4557.24,116.014,95.726,-10.2214,6138.63,-9588.14,-987.28,-7.99122,-35.1742,100.794,10826.3,1169.1,-1172.19,49.0582,12.5501,11.6403
3.46,28263.3,3305.83,-3066.12,-8.31301,182.096,24.3842,4050.87,1462.09,11039.0,19.0585,-102.203,-3.20508,-24513.5,13744.1,-1956.84,27.7636,40.9558,179.423,-928.783,13380.7,-2975.15,-10.6305,25.5633,101.711,12464.9,10590.2,4588.27,115.627,93.1485,-11.1605,6103.08,-9670.58,-963.521,-8.22895,-35.8697,100.628,10868.0,1200.32,-1155.35,49.0246,13.0348,11.8259
3.4605,28176.6,3442.37,-3210.52,-9.6054,179.911,23.4787,4035.36,1477.35,11060.8,19.0468,-103.233,-2.90828,-24705.2,13565.3,-1935.08,28.1247,39.3727,177.595,-969.276,13405.5,-2985.01,-10.9017,25.6322,102.425,12775.0,10715.2,4619.3,115.24,90.5711,-12.0997,6067.53,-9753.03,-939.761,-8.46669,-36.5653,100.462,10909.8,1231.53,-1138.52,48.9909,13.5196,12.0115
3.461,28089.9,3578.91,-3354.92,-10.8978,177.726,22.5733,4019.85,1492.61,11082.6,19.0351,-104.263,-2.61149,-24896.9,13386.5,-1913.32,28.4858,37.7896,175.766,-1009.77,13430.3,-2994.87,-11.1728,25.7011,103.138,13085.1,10840.2,4650.33,114.853,87.9937,-13.0388,6031.97,-9835.48,-916.002,-8.70443,-37.2608,100.296,10951.6,1262.75,-1121.68,48.9573,14.0044,12.1971
3.4615,28003.1,3715.45,-3499.32,-12.1902,175.541,21.6679,4004.34,1507.87,11104.4,19.0235,-105.293,-2.3147,-25088.6,13207.7,-1891.56,28.8468,36.2066,173.937,-1050.26,13455.1,-3004.73,-11.444,25.77,103.851,13395.2,10965.3,4681.36,114.466,85.4162,-13.9779,5996.42,-9917.92,-892.243,-8.94217,-37.9564,100.129,10993.4,1293.96,-1104.85,48.9236,14.4892,12.3827
3.462,27916.4,3852.0,-3643.72,-13.4826,173.356,20.7625,3988.83,1523.13,11126.2,19.0118,-106.323,-2.0179,-25280.3,13028.9,-1869.8,29.2079,34.6235,172.108,-1090.76,13480.0,-3014.59,-11.7152,25.8389,104.565,13705.3,11090.3,4712.39,114.079,82.8388,-14.917,5960.87,-10000.4,-868.484,-9.1799,-38.6519,99.9634,11035.1,1325.18,-1088.01,48.89,14.9739,12.5683
3.4625,27937.0,4045.56,-3814.2,-15.4066,170.886,19.5606,3982.32,1513.41,11142.1,19.1112,-107.425,-1.7379,-25508.4,12858.4,-1828.47,29.5622,32.4757,169.905,-1109.8,13502.6,-3020.95,-11.9744,25.9557,105.23,14007.2,11224.7,4677.69,111.989,80.0653,-15.6999,5929.04,-10089.2,-835.453,-9.31546,-39.4887,99.6896,11061.9,1365.45,-1074.51,48.6919,15.3555,12.7083
3.463,28043.4,4284.74,-4005.54,-17.8361,168.186,18.1216,3983.0,1483.72,11153.3,19.2996,-108.583,-1.47134,-25765.5,12694.6,-1771.5,29.9109,29.8762,167.401,-1111.7,13523.6,-3024.5,-12.2239,26.1108,105.858,14302.7,11366.7,4590.42,108.537,77.1349,-16.3579,5900.2,-10183.0,-795.005,-9.36926,-40.4387,99.3296,11076.5,1412.95,-1063.68,48.3623,15.6546,12.8118
3.4635,28149.9,4523.92,-4196.88,-20.2655,165.487,16.6826,3983.68,1454.02,11164.5,19.488,-109.742,-1.20477,-26022.6,12530.7,-1714.53,30.2596,27.2767,164.898,-1113.59,13544.5,-3028.06,-12.4734,26.2658,106.486,14598.1,11508.7,4503.14,105.084,74.2045,-17.0158,5871.36,-10276.9,-754.556,-9.42307,-41.3886,98.9696,11091.2,1460.46,-1052.85,48.0326,15.9537,12.9153
3.464,28256.3,4763.09,-4388.23,-22.695,162.787,15.2436,3984.37,1424.33,11175.7,19.6764,-110.9,-0.938199,-26279.7,12366.9,-1657.56,30.6083,24.6771,162.395,-1115.49,13565.5,-3031.61,-12.7229,26.4209,107.113,14893.5,11650.6,4415.87,101.632,71.2741,-17.6738,5842.52,-10370.7,-714.108,-9.47687,-42.3385,98.6096,11105.9,1507.97,-1042.01,47.7029,16.2527,13.0188
3.4645,28362.8,5002.27,-4579.57,-25.1244,160.088,13.8046,3985.05,1394.63,11186.9,19.8648,-112.059,-0.671631,-26536.8,12203.0,-1600.58,30.957,22.0776,159.891,-1117.38,13586.4,-3035.17,-12.9724,26.576,107.741,15188.9,11792.6,4328.59,98.1791,68.3437,-18.3317,5813.68,-10464.6,-673.66,-9.53068,-43.2884,98.2496,11120.6,1555.48,-1031.18,47.3733,16.5518,13.1223
3.465,28469.2,5241.45,-4770.91,-27.5539,157.388,12.3655,3985.73,1364.94,11198.1,20.0532,-113.217,-0.405063,-26793.9,12039.2,-1543.61,31.3057,19.4781,157.388,-1119.28,13607.4,-3038.72,-13.2219,26.7311,108.369,15484.3,11934.6,4241.32,94.7266,65.4133,-18.9897,5784.84,-10558.4,-633.211,-9.58448,-44.2383,97.8895,11135.3,1602.98,-1020.35,47.0436,16.8509,13.2258
3.4655,28575.6,5480.63,-4962.26,-29.9833,154.688,10.9265,3986.41,1335.24,11209.3,20.2416,-114.376,-0.138494,-27051.0,11875.3,-1486.64,31.6544,16.8785,154.885,-1121.17,13628.3,-3042.28,-13.4714,26.8861,108.996,15779.7,12076.6,4154.04,91.2741,62.4829,-19.6476,5755.99,-10652.3,-592.763,-9.63829,-45.1882,97.5295,11150.0,1650.49,-1009.51,46.714,17.1499,13.3293
3.466,28682.1,5719.81,-5153.6,-32.4128,151.989,9.48749,3987.09,1305.55,11220.5,20.43,-115.534,0.128074,-27308.1,11711.4,-1429.67,32.0032,14.279,152.381,-1123.07,13649.3,-3045.83,-13.7209,27.0412,109.624,16075.2,12218.5,4066.77,87.8217,59.5525,-20.3056,5727.15,-10746.1,-552.315,-9.69209,-46.1381,97.1695,11164.6,1698.0,-998.68,46.3843,17.449,13.4328
3.4665,28788.5,5958.99,-5344.94,-34.8422,149.289,8.04847,3987.77,1275.85,11231.7,20.6184,-116.693,0.394642,-27565.2,11547.6,-1372.7,32.3519,11.6795,149.878,-1124.96,13670.2,-3049.38,-13.9704,27.1963,110.252,16370.6,12360.5,3979.49,84.3692,56.6222,-20.9636,5698.31,-10840.0,-511.866,-9.7459,-47.088,96.8095,11179.3,1745.51,-987.847,46.0547,17.7481,13.5363
3.467,28993.3,6106.42,-5587.65,-37.055,146.757,6.11547,3987.78,1209.03,11255.8,20.8748,-117.915,0.565262,-27832.3,11414.3,-1382.33,32.8919,9.13331,147.125,-1097.33,13700.3,-3042.86,-14.1843,27.403,110.922,16631.5,12516.1,3807.29,79.5921,53.8602,-21.2364,5671.16,-10930.2,-489.724,-9.66625,-48.1292,96.3115,11183.7,1799.7,-989.36,45.6009,17.8973,13.6111
3.4675,29247.2,6207.99,-5856.04,-39.1593,144.309,3.93549,3987.44,1123.63,11286.3,21.1652,-119.17,0.687908,-28104.4,11296.2,-1425.28,33.5275,6.61388,144.247,-1054.92,13735.0,-3031.3,-14.3803,27.6356,111.614,16875.2,12678.5,3592.62,74.1528,51.1824,-21.3168,5644.86,-11018.6,-476.734,-9.51988,-49.2161,95.7445,11183.0,1857.25,-997.047,45.0851,17.9717,13.6715
3.468,29501.1,6309.55,-6124.42,-41.2637,141.861,1.7555,3987.11,1038.24,11316.7,21.4556,-120.424,0.810554,-28376.4,11178.2,-1468.22,34.1631,4.09444,141.369,-1012.52,13769.6,-3019.74,-14.5763,27.8682,112.306,17118.9,12840.9,3377.95,68.7135,48.5047,-21.3971,5618.56,-11107.0,-463.744,-9.37351,-50.3029,95.1776,11182.3,1914.79,-1004.73,44.5693,18.0461,13.7319
3.4685,29755.0,6411.12,-6392.81,-43.368,139.412,-0.424482,3986.78,952.848,11347.2,21.746,-121.678,0.9332,-28648.5,11060.1,-1511.16,34.7987,1.575,138.491,-970.12,13804.3,-3008.18,-14.7723,28.1008,112.998,17362.5,13003.3,3163.28,63.2741,45.8269,-21.4774,5592.25,-11195.4,-450.754,-9.22713,-51.3898,94.6106,11181.6,1972.33,-1012.42,44.0536,18.1204,13.7923
3.469,30008.9,6512.68,-6661.2,-45.4724,136.964,-2.60447,3986.44,867.454,11377.7,22.0364,-122.933,1.05585,-28920.5,10942.1,-1554.11,35.4344,-0.944437,135.613,-927.718,13838.9,-2996.62,-14.9683,28.3333,113.69,17606.2,13165.7,2948.61,57.8348,43.1491,-21.5578,5565.95,-11283.8,-437.765,-9.08076,-52.4766,94.0436,11180.9,2029.87,-1020.11,43.5378,18.1948,13.8526
3.4695,30262.8,6614.25,-6929.58,-47.5767,134.516,-4.78445,3986.11,782.061,11408.2,22.3269,-124.187,1.17849,-29192.6,10824.0,-1597.05,36.07,-3.46387,132.735,-885.317,13873.6,-2985.06,-15.1643,28.5659,114.382,17849.9,13328.1,2733.94,52.3954,40.4714,-21.6381,5539.65,-11372.2,-424.775,-8.93439,-53.5635,93.4766,11180.1,2087.41,-1027.79,43.022,18.2692,13.913
3.47,30516.7,6715.81,-7197.97,-49.6811,132.068,-6.96444,3985.78,696.668,11438.7,22.6173,-125.441,1.30114,-29464.6,10706.0,-1639.99,36.7056,-5.98331,129.857,-842.915,13908.2,-2973.5,-15.3604,28.7985,115.073,18093.6,13490.5,2519.27,46.9561,37.7936,-21.7184,5513.35,-11460.5,-411.785,-8.78802,-54.6504,92.9096,11179.4,2144.95,-1035.48,42.5062,18.3435,13.9734
3.4705,30770.6,6817.38,-7466.36,-51.7854,129.619,-9.14442,3985.44,611.275,11469.2,22.9077,-126.696,1.42378,-29736.7,10587.9,-1682.94,37.3412,-8.50275,126.979,-800.513,13942.9,-2961.94,-15.5564,29.0311,115.765,18337.3,13652.9,2304.6,41.5168,35.1158,-21.7988,5487.04,-11548.9,-398.795,-8.64164,-55.7372,92.3426,11178.7,2202.5,-1043.17,41.9904,18.4179,14.0338
3.471,31024.5,6918.94,-7734.74,-53.8898,127.171,-11.3244,3985.11,525.882,11499.7,23.1981,-127.95,1.54643,-30008.8,10469.8,-1725.88,37.9769,-11.0222,124.102,-758.112,13977.5,-2950.37,-15.7524,29.2637,116.457,18580.9,13815.3,2089.93,36.0774,32.4381,-21.8791,5460.74,-11637.3,-385.806,-8.49527,-56.8241,91.7756,11178.0,2260.04,-1050.85,41.4746,18.4923,14.0942
3.4715,31180.1,6861.35,-7958.3,-55.2511,124.912,-13.7385,4011.97,505.815,11495.5,23.3954,-129.225,1.63568,-30212.6,10380.6,-1734.75,38.1329,-13.5511,121.115,-733.052,14003.7,-2931.24,-15.9339,29.7518,117.128,18737.7,13910.9,1881.02,30.8951,30.164,-21.4301,5427.53,-11711.3,-396.084,-8.3314,-57.8538,91.0428,11192.4,2310.01,-1070.86,40.7364,18.5166,14.113
3.472,31307.6,6758.28,-8169.05,-56.4002,122.708,-16.2195,4046.61,504.414,11481.4,23.566,-130.506,1.71539,-30396.9,10299.7,-1733.89,38.1519,-16.0827,118.098,-712.946,14027.5,-2909.93,-16.1114,30.3129,117.793,18869.6,13987.4,1673.75,25.7863,28.0052,-20.8299,5392.34,-11781.2,-413.011,-8.16253,-58.8672,90.2627,11211.1,2357.83,-1094.39,39.9348,18.5267,14.12
3.4725,31435.1,6655.21,-8379.8,-57.5492,120.503,-18.7005,4081.24,503.012,11467.3,23.7367,-131.787,1.7951,-30581.2,10218.7,-1733.03,38.1709,-18.6144,115.08,-692.841,14051.2,-2888.63,-16.2888,30.874,118.458,19001.5,14063.9,1466.49,20.6775,25.8464,-20.2297,5357.16,-11851.0,-429.938,-7.99366,-59.8806,89.4825,11229.9,2405.64,-1117.91,39.1331,18.5367,14.127
3.473,31562.6,6552.14,-8590.55,-58.6983,118.298,-21.1815,4115.87,501.61,11453.2,23.9073,-133.068,1.87481,-30765.5,10137.8,-1732.17,38.1899,-21.146,112.063,-672.735,14075.0,-2867.32,-16.4662,31.4351,119.122,19133.4,14140.5,1259.22,15.5686,23.6877,-19.6295,5321.97,-11920.9,-446.865,-7.82479,-60.8939,88.7024,11248.6,2453.45,-1141.44,38.3314,18.5467,14.134
3.4735,31690.1,6449.07,-8801.3,-59.8473,116.094,-23.6624,4150.51,500.208,11439.1,24.0779,-134.349,1.95452,-30949.8,10056.8,-1731.32,38.2089,-23.6776,109.045,-652.63,14098.7,-2846.02,-16.6436,31.9963,119.787,19265.3,14217.0,1051.95,10.4598,21.5289,-19.0293,5286.79,-11990.8,-463.792,-7.65592,-61.9073,87.9222,11267.3,2501.27,-1164.97,37.5297,18.5568,14.141
3.474,31817.6,6346.01,-9012.06,-60.9964,113.889,-26.1434,4185.14,498.806,11425.0,24.2486,-135.63,2.03424,-31134.2,9975.86,-1730.46,38.2279,-26.2093,106.027,-632.525,14122.5,-2824.71,-16.821,32.5574,120.452,19397.2,14293.5,844.684,5.35096,19.3701,-18.4291,5251.6,-12060.7,-480.719,-7.48705,-62.9207,87.142,11286.1,2549.08,-1188.5,36.7281,18.5668,14.148
3.4745,31945.1,6242.94,-9222.81,-62.1454,111.685,-28.6244,4219.77,497.404,11410.9,24.4192,-136.911,2.11395,-31318.5,9894.9,-1729.6,38.2469,-28.7409,103.01,-612.419,14146.2,-2803.41,-16.9984,33.1185,121.117,19529.1,14370.0,637.417,0.242116,17.2113,-17.8289,5216.42,-12130.5,-497.646,-7.31818,-63.9341,86.3619,11304.8,2596.9,-1212.02,35.9264,18.5768,14.155
3.475,32072.6,6139.87,-9433.56,-63.2945,109.48,-31.1054,4254.41,496.003,11396.8,24.5899,-138.191,2.19366,-31502.8,9813.94,-1728.74,38.2659,-31.2725,99.9924,-592.314,14170.0,-2782.1,-17.1759,33.6796,121.782,19660.9,14446.5,430.149,-4.86672,15.0526,-17.2287,5181.23,-12200.4,-514.572,-7.14931,-64.9475,85.5817,11323.5,2644.71,-1235.55,35.1247,18.5869,14.162
3.4755,32200.1,6036.8,-9644.31,-64.4435,107.275,-33.5864,4289.04,494.601,11382.7,24.7605,-139.472,2.27337,-31687.1,9732.98,-1727.88,38.2849,-33.8042,96.9748,-572.208,14193.7,-2760.8,-17.3533,34.2407,122.446,19792.8,14523.0,222.882,-9.97556,12.8938,-16.6285,5146.05,-12270.3,-531.499,-6.98044,-65.9609,84.8016,11342.3,2692.52,-1259.08,34.323,18.5969,14.169
3.476,32128.4,5988.99,-9778.1,-64.9862,104.639,-35.8935,4309.0,506.041,11394.4,24.887,-140.72,2.36951,-31713.4,9692.84,-1622.45,37.9871,-36.3156,93.994,-569.985,14214.2,-2727.56,-17.4406,34.7418,123.04,19787.0,14531.9,123.049,-12.8921,11.4301,-15.4417,5121.81,-12313.9,-552.304,-6.85419,-66.8594,83.94,11340.7,2723.04,-1272.83,33.2623,18.541,14.115
3.4765,32031.8,5948.1,-9902.27,-65.453,101.948,-38.1789,4327.13,519.087,11409.5,25.0079,-141.962,2.4677,-31719.9,9657.79,-1503.96,37.6497,-38.8245,91.0178,-569.996,14234.2,-2692.84,-17.5166,35.2355,123.624,19763.9,14532.3,36.6455,-15.5346,10.0532,-14.1814,5098.93,-12354.3,-573.593,-6.73326,-67.7436,83.0682,11336.6,2751.39,-1285.35,32.1692,18.4769,14.0534
3.477,31935.1,5907.2,-10026.4,-65.9198,99.2574,-40.4643,4345.25,532.132,11424.5,25.1288,-143.205,2.56589,-31726.4,9622.75,-1385.47,37.3124,-41.3334,88.0416,-570.007,14254.2,-2658.11,-17.5927,35.7291,124.208,19740.9,14532.8,-49.758,-18.1771,8.67638,-12.9212,5076.06,-12394.7,-594.882,-6.61234,-68.6277,82.1964,11332.5,2779.74,-1297.88,31.0761,18.4127,13.9917
3.4775,31838.5,5866.3,-10150.6,-66.3867,96.5667,-42.7497,4363.38,545.178,11439.5,25.2498,-144.448,2.66408,-31732.9,9587.71,-1266.97,36.975,-43.8423,85.0654,-570.019,14274.2,-2623.38,-17.6687,36.2227,124.793,19717.8,14533.2,-136.161,-20.8196,7.29953,-11.661,5053.19,-12435.0,-616.171,-6.49141,-69.5119,81.3246,11328.3,2808.1,-1310.41,29.983,18.3486,13.9301
3.478,31741.9,5825.4,-10274.8,-66.8535,93.8759,-45.0351,4381.5,558.224,11454.5,25.3707,-145.691,2.76228,-31739.4,9552.66,-1148.48,36.6376,-46.3512,82.0892,-570.03,14294.3,-2588.65,-17.7447,36.7163,125.377,19694.7,14533.6,-222.565,-23.4621,5.92268,-10.4008,5030.32,-12475.4,-637.461,-6.37049,-70.3961,80.4528,11324.2,2836.45,-1322.93,28.8899,18.2845,13.8685
3.4785,31645.2,5784.51,-10398.9,-67.3203,91.1852,-47.3205,4399.63,571.269,11469.6,25.4917,-146.934,2.86047,-31745.9,9517.62,-1029.99,36.3002,-48.8601,79.113,-570.041,14314.3,-2553.93,-17.8208,37.2099,125.961,19671.7,14534.0,-308.968,-26.1046,4.54584,-9.14065,5007.44,-12515.8,-658.75,-6.24956,-71.2803,79.581,11320.1,2864.8,-1335.46,27.7968,18.2203,13.8069
3.479,31548.6,5743.61,-10523.1,-67.7872,88.4945,-49.6059,4417.75,584.315,11484.6,25.6126,-148.177,2.95866,-31752.4,9482.58,-911.497,35.9628,-51.3689,76.1368,-570.053,14334.3,-2519.2,-17.8968,37.7035,126.545,19648.6,14534.5,-395.372,-28.7471,3.16899,-7.88045,4984.57,-12556.1,-680.039,-6.12864,-72.1645,78.7092,11316.0,2893.15,-1347.99,26.7037,18.1562,13.7453
3.4795,31452.0,5702.71,-10647.3,-68.254,85.8038,-51.8913,4435.88,597.361,11499.6,25.7335,-149.42,3.05685,-31758.9,9447.53,-793.004,35.6254,-53.8778,73.1606,-570.064,14354.3,-2484.47,-17.9729,38.1971,127.13,19625.6,14534.9,-481.775,-31.3896,1.79214,-6.62025,4961.7,-12596.5,-701.328,-6.00772,-73.0486,77.8374,11311.8,2921.51,-1360.51,25.6106,18.0921,13.6837
3.48,31355.4,5661.81,-10771.5,-68.7208,83.1131,-54.1767,4454.0,610.406,11514.6,25.8545,-150.663,3.15505,-31765.4,9412.49,-674.511,35.2881,-56.3867,70.1844,-570.075,14374.3,-2449.75,-18.0489,38.6907,127.714,19602.5,14535.3,-568.179,-34.0321,0.41529,-5.36005,4938.82,-12636.9,-722.617,-5.88679,-73.9328,76.9656,11307.7,2949.86,-1373.04,24.5175,18.0279,13.6221
3.4805,31145.5,5762.76,-10805.8,-68.823,79.8137,-56.2087,4455.12,632.688,11532.2,25.9259,-152.048,3.26931,-31634.2,9371.18,-552.616,35.0571,-58.6332,67.1277,-582.648,14390.4,-2436.78,-18.0643,39.1932,128.329,19399.0,14490.0,-496.021,-34.1059,-0.401891,-3.86123,4919.67,-12641.1,-732.227,-5.83175,-74.7819,76.2446,11321.4,2933.38,-1384.36,23.31,17.8615,13.6122
3.481,30935.7,5863.71,-10840.1,-68.9251,76.5143,-58.2407,4456.24,654.969,11549.8,25.9973,-153.433,3.38358,-31503.1,9329.87,-430.722,34.8262,-60.8797,64.071,-595.22,14406.4,-2423.82,-18.0797,39.6956,128.944,19195.5,14444.7,-423.863,-34.1797,-1.21907,-2.36241,4900.52,-12645.3,-741.837,-5.77672,-75.631,75.5236,11335.1,2916.89,-1395.69,22.1026,17.6951,13.6024
3.4815,30725.9,5964.66,-10874.4,-69.0273,73.2149,-60.2727,4457.36,677.25,11567.4,26.0687,-154.818,3.49785,-31371.9,9288.56,-308.827,34.5953,-63.1263,61.0143,-607.793,14422.4,-2410.85,-18.0951,40.1981,129.559,18992.0,14399.3,-351.705,-34.2536,-2.03625,-0.863596,4881.37,-12649.6,-751.446,-5.72168,-76.4801,74.8026,11348.8,2900.4,-1407.01,20.8952,17.5287,13.5926
3.482,30516.1,6065.61,-10908.7,-69.1295,69.9155,-62.3047,4458.48,699.531,11585.0,26.1402,-156.203,3.61212,-31240.7,9247.25,-186.933,34.3643,-65.3728,57.9576,-620.366,14438.4,-2397.89,-18.1105,40.7005,130.174,18788.5,14354.0,-279.548,-34.3274,-2.85343,0.63522,4862.22,-12653.8,-761.056,-5.66664,-77.3291,74.0816,11362.4,2883.92,-1418.33,19.6877,17.3623,13.5827
3.4825,30306.3,6166.56,-10943.0,-69.2316,66.616,-64.3367,4459.6,721.813,11602.6,26.2116,-157.588,3.72639,-31109.5,9205.94,-65.0383,34.1334,-67.6193,54.9009,-632.938,14454.5,-2384.93,-18.1259,41.2029,130.789,18585.0,14308.7,-207.39,-34.4012,-3.67061,2.13404,4843.07,-12658.1,-770.666,-5.61161,-78.1782,73.3606,11376.1,2867.43,-1429.65,18.4803,17.1959,13.5729
3.483,30096.4,6267.51,-10977.3,-69.3338,63.3166,-66.3687,4460.72,744.094,11620.2,26.283,-158.973,3.84065,-30978.3,9164.63,56.8562,33.9025,-69.8658,51.8442,-645.511,14470.5,-2371.96,-18.1413,41.7054,131.404,18381.5,14263.3,-135.232,-34.475,-4.4878,3.63285,4823.92,-12662.3,-780.276,-5.55657,-79.0273,72.6396,11389.8,2850.95,-1440.98,17.2729,17.0295,13.5631
3.4835,29886.6,6368.46,-11011.6,-69.436,60.0172,-68.4007,4461.85,766.375,11637.8,26.3544,-160.358,3.95492,-30847.1,9123.33,178.751,33.6715,-72.1123,48.7875,-658.083,14486.5,-2359.0,-18.1567,42.2078,132.019,18177.9,14218.0,-63.0741,-34.5489,-5.30498,5.13167,4804.77,-12666.5,-789.885,-5.50153,-79.8764,71.9186,11403.5,2834.46,-1452.3,16.0654,16.863,13.5533
3.484,29676.8,6469.41,-11045.9,-69.5381,56.7178,-70.4327,4462.97,788.656,11655.4,26.4258,-161.743,4.06919,-30715.9,9082.02,300.645,33.4406,-74.3588,45.7308,-670.656,14502.5,-2346.03,-18.1721,42.7102,132.634,17974.4,14172.7,9.08379,-34.6227,-6.12216,6.63049,4785.63,-12670.8,-799.495,-5.4465,-80.7255,71.1976,11417.1,2817.97,-1463.62,14.858,16.6966,13.5434
3.4845,29475.0,6574.57,-11075.9,-69.6123,53.4026,-72.4458,4462.06,808.218,11674.5,26.4892,-163.133,4.18635,-30580.6,9045.86,420.086,33.204,-76.5441,42.6464,-683.454,14519.6,-2333.42,-18.1973,43.1886,133.248,17755.8,14130.6,91.6158,-34.5418,-6.89578,8.14297,4767.06,-12674.2,-805.346,-5.38833,-81.5787,70.4872,11429.5,2796.34,-1472.72,13.6684,16.521,13.5174
3.485,29337.9,6713.32,-11072.0,-69.4629,49.9616,-74.3075,4444.89,806.024,11706.3,26.4879,-164.56,4.3266,-30412.2,9050.94,519.892,32.9225,-78.2396,39.3403,-698.054,14545.2,-2323.6,-18.3004,43.474,133.846,17416.1,14114.0,257.141,-33.2237,-7.32092,9.76476,4753.19,-12671.3,-781.123,-5.30512,-82.4651,69.8622,11431.1,2733.51,-1463.98,12.6211,16.2719,13.3614
3.4855,29200.7,6852.08,-11068.0,-69.3134,46.5205,-76.1692,4427.73,803.831,11738.0,26.4866,-165.987,4.46686,-30243.7,9056.03,619.699,32.641,-79.935,36.0342,-712.653,14570.8,-2313.78,-18.4036,43.7595,134.445,17076.4,14097.4,422.666,-31.9056,-7.74606,11.3866,4739.32,-12668.4,-756.901,-5.22192,-83.3516,69.2371,11432.8,2670.68,-1455.24,11.5738,16.0227,13.2054
3.486,29063.6,6990.84,-11064.0,-69.1639,43.0794,-78.0308,4410.57,801.637,11769.8,26.4853,-167.414,4.60711,-30075.3,9061.11,719.506,32.3595,-81.6305,32.7281,-727.253,14596.3,-2303.96,-18.5068,44.0449,135.043,16736.7,14080.9,588.191,-30.5874,-8.17121,13.0083,4725.44,-12665.5,-732.679,-5.13872,-84.238,68.612,11434.4,2607.85,-1446.51,10.5266,15.7735,13.0495
3.4865,28926.4,7129.6,-11060.0,-69.0145,39.6384,-79.8925,4393.41,799.443,11801.6,26.484,-168.842,4.74736,-29906.8,9066.19,819.313,32.078,-83.326,29.422,-741.853,14621.9,-2294.15,-18.6099,44.3304,135.642,16397.0,14064.3,753.717,-29.2693,-8.59635,14.6301,4711.57,-12662.7,-708.457,-5.05551,-85.1244,67.9869,11436.0,2545.01,-1437.77,9.47929,15.5244,12.8935
3.487,28789.3,7268.36,-11056.0,-68.865,36.1973,-81.7542,4376.25,797.25,11833.3,26.4827,-170.269,4.88762,-29738.4,9071.27,919.12,31.7965,-85.0215,26.1159,-756.452,14647.4,-2284.33,-18.7131,44.6158,136.24,16057.3,14047.7,919.242,-27.9511,-9.02149,16.2519,4697.7,-12659.8,-684.235,-4.97231,-86.0109,67.3618,11437.7,2482.18,-1429.03,8.43203,15.2752,12.7375
3.4875,28652.1,7407.11,-11052.1,-68.7156,32.7562,-83.6159,4359.08,795.056,11865.1,26.4814,-171.696,5.02787,-29569.9,9076.35,1018.93,31.515,-86.717,22.8098,-771.052,14673.0,-2274.51,-18.8163,44.9013,136.838,15717.5,14031.2,1084.77,-26.633,-9.44663,17.8737,4683.83,-12656.9,-660.013,-4.88911,-86.8973,66.7368,11439.3,2419.35,-1420.29,7.38476,15.026,12.5816
