Time,RFoot_accel.x,RFoot_accel.y,RFoot_accel.z,RFoot_gyro.x,RFoot_gyro.y,RFoot_gyro.z,LFoot_accel.x,LFoot_accel.y,LFoot_accel.z,LFoot_gyro.x,LFoot_gyro.y,LFoot_gyro.z,RShank_accel.x,RShank_accel.y,RShank_accel.z,RShank_gyro.x,RShank_gyro.y,RShank_gyro.z,LShank_accel.x,LShank_accel.y,LShank_accel.z,LShank_gyro.x,LShank_gyro.y,LShank_gyro.z,RThigh_accel.x,RThigh_accel.y,RThigh_accel.z,RThigh_gyro.x,RThigh_gyro.y,RThigh_gyro.z,LThigh_accel.x,LThigh_accel.y,LThigh_accel.z,LThigh_gyro.x,LThigh_gyro.y,LThigh_gyro.z,Pelvis_accel.x,Pelvis_accel.y,Pelvis_accel.z,Pelvis_gyro.x,Pelvis_gyro.y,Pelvis_gyro.z
2.6,4098.87,15.443,8722.64,15.796,3.04277,-7.30115,6689.01,2356.05,8936.62,51.507,299.451,-60.4072,-1508.18,9730.04,-1417.34,1.1391,6.77286,-20.0344,-3529.81,9786.71,2286.01,44.3749,6.71121,-303.873,-2365.44,7134.52,-1039.52,74.7757,-64.0853,-123.132,-4469.95,-6398.39,-823.462,-31.012,71.0213,-168.155,5316.18,-337.88,811.819,-13.5017,22.8695,-23.1342
2.6005,4108.01,16.4608,8738.53,15.8357,3.05017,-7.4722,6640.84,2358.31,8944.46,50.5565,298.71,-62.4273,-1528.8,9725.48,-1405.98,1.05538,6.84226,-20.092,-3561.09,9821.64,2263.85,44.7234,4.83575,-304.152,-2403.47,7242.15,-1064.51,74.071,-64.4424,-122.948,-4485.27,-6354.96,-807.159,-30.4987,72.0972,-168.816,5314.0,-330.475,808.097,-13.0523,22.763,-23.0391
2.601,4117.16,17.4786,8754.42,15.8755,3.05757,-7.64325,6592.66,2360.57,8952.3,49.6061,297.969,-64.4475,-1549.42,9720.93,-1394.62,0.971661,6.91165,-20.1495,-3592.36,9856.58,2241.69,45.0718,2.9603,-304.431,-2441.5,7349.79,-1089.49,73.3663,-64.7996,-122.764,-4500.58,-6311.53,-790.855,-29.9854,73.173,-169.477,5311.82,-323.069,804.375,-12.603,22.6565,-22.944
2.6015,4126.3,18.4964,8770.3,15.9152,3.06497,-7.8143,6544.49,2362.83,8960.14,48.6557,297.229,-66.4677,-1570.03,9716.37,-1383.27,0.887941,6.98105,-20.2071,-3623.64,9891.51,2219.52,45.4203,1.08484,-304.71,-2479.52,7457.43,-1114.48,72.6616,-65.1567,-122.579,-4515.9,-6268.1,-774.552,-29.4721,74.2488,-170.139,5309.65,-315.664,800.653,-12.1536,22.5499,-22.8489
2.602,4135.44,19.5142,8786.19,15.955,3.07236,-7.98535,6496.31,2365.09,8967.98,47.7053,296.488,-68.4878,-1590.65,9711.81,-1371.91,0.804222,7.05044,-20.2647,-3654.92,9926.44,2197.36,45.7688,-0.790617,-304.988,-2517.55,7565.07,-1139.46,71.9569,-65.5138,-122.395,-4531.21,-6224.67,-758.249,-28.9588,75.3247,-170.8,5307.47,-308.259,796.931,-11.7043,22.4434,-22.7538
2.6025,4144.58,20.5321,8802.08,15.9947,3.07976,-8.1564,6448.14,2367.35,8975.82,46.7548,295.747,-70.508,-1611.27,9707.25,-1360.55,0.720502,7.11984,-20.3223,-3686.2,9961.38,2175.2,46.1173,-2.66607,-305.267,-2555.58,7672.7,-1164.45,71.2522,-65.871,-122.211,-4546.52,-6181.24,-741.946,-28.4455,76.4005,-171.461,5305.3,-300.854,793.209,-11.2549,22.3369,-22.6587
2.603,4153.72,21.5499,8817.97,16.0345,3.08716,-8.32745,6399.96,2369.61,8983.66,45.8044,295.006,-72.5281,-1631.89,9702.7,-1349.19,0.636782,7.18923,-20.3799,-3717.47,9996.31,2153.03,46.4658,-4.54153,-305.546,-2593.61,7780.34,-1189.43,70.5475,-66.2281,-122.027,-4561.84,-6137.81,-725.643,-27.9322,77.4763,-172.122,5303.12,-293.448,789.487,-10.8056,22.2304,-22.5636
2.6035,4162.86,22.5677,8833.86,16.0742,3.09455,-8.4985,6351.79,2371.87,8991.5,44.854,294.265,-74.5483,-1652.51,9698.14,-1337.83,0.553063,7.25863,-20.4374,-3748.75,10031.2,2130.87,46.8143,-6.41699,-305.825,-2631.63,7887.98,-1214.42,69.8428,-66.5852,-121.843,-4577.15,-6094.38,-709.34,-27.4189,78.5522,-172.784,5300.94,-286.043,785.765,-10.3562,22.1239,-22.4685
2.604,4172.01,23.5855,8849.74,16.114,3.10195,-8.66955,6303.61,2374.13,8999.33,43.9036,293.524,-76.5684,-1673.13,9693.58,-1326.47,0.469343,7.32802,-20.495,-3780.03,10066.2,2108.71,47.1628,-8.29244,-306.104,-2669.66,7995.62,-1239.4,69.1382,-66.9424,-121.658,-4592.47,-6050.95,-693.036,-26.9056,79.628,-173.445,5298.77,-278.638,782.043,-9.90688,22.0174,-22.3734
2.6045,4179.28,25.0537,8863.01,16.1431,3.10712,-8.83868,6258.69,2378.67,9011.06,42.9528,292.801,-78.5693,-1693.64,9689.07,-1315.17,0.398647,7.37981,-20.5524,-3808.81,10101.0,2086.88,47.5033,-10.1856,-306.376,-2703.43,8102.1,-1262.8,68.4502,-67.3128,-121.464,-4607.89,-6005.91,-678.888,-26.411,80.6933,-174.083,5296.43,-270.102,777.006,-9.45362,21.9113,-22.2782
2.605,4171.62,30.1254,8855.3,16.0865,3.09443,-8.99242,6239.82,2401.52,9053.88,41.9992,292.222,-80.4158,-1713.26,9684.93,-1304.29,0.432138,7.29075,-20.6087,-3817.61,10134.8,2067.79,47.7803,-12.2201,-306.591,-2703.17,8199.34,-1273.51,67.8958,-67.7897,-121.185,-4624.18,-5948.03,-681.975,-26.0661,81.6741,-174.541,5292.77,-252.525,761.444,-8.96903,21.8093,-22.1823
2.6055,4163.96,35.1971,8847.59,16.03,3.08174,-9.14616,6220.94,2424.36,9096.7,41.0457,291.643,-82.2622,-1732.89,9680.79,-1293.42,0.465629,7.20168,-20.6649,-3826.41,10168.6,2048.69,48.0573,-14.2546,-306.806,-2702.91,8296.57,-1284.22,67.3413,-68.2665,-120.907,-4640.47,-5890.14,-685.063,-25.7212,82.6549,-174.999,5289.12,-234.947,745.882,-8.48444,21.7074,-22.0863
2.606,4156.3,40.2688,8839.88,15.9735,3.06905,-9.2999,6202.07,2447.21,9139.52,40.0921,291.063,-84.1087,-1752.52,9676.66,-1282.54,0.49912,7.11262,-20.7211,-3835.21,10202.4,2029.59,48.3343,-16.2891,-307.021,-2702.64,8393.81,-1294.93,66.7869,-68.7434,-120.628,-4656.76,-5832.25,-688.15,-25.3763,83.6356,-175.456,5285.47,-217.37,730.319,-7.99984,21.6054,-21.9903
2.6065,4148.65,45.3405,8832.17,15.917,3.05636,-9.45363,6183.2,2470.05,9182.34,39.1386,290.484,-85.9551,-1772.14,9672.52,-1271.66,0.532611,7.02355,-20.7773,-3844.01,10236.2,2010.5,48.6113,-18.3236,-307.236,-2702.38,8491.04,-1305.64,66.2325,-69.2202,-120.35,-4673.05,-5774.36,-691.238,-25.0315,84.6164,-175.914,5281.81,-199.792,714.757,-7.51525,21.5034,-21.8943
2.607,4140.99,50.4121,8824.46,15.8605,3.04367,-9.60737,6164.32,2492.9,9225.16,38.185,289.904,-87.8016,-1791.77,9668.38,-1260.79,0.566103,6.93449,-20.8335,-3852.81,10270.0,1991.4,48.8883,-20.3581,-307.451,-2702.11,8588.28,-1316.35,65.6781,-69.6971,-120.071,-4689.34,-5716.48,-694.325,-24.6866,85.5972,-176.371,5278.16,-182.215,699.195,-7.03066,21.4014,-21.7984
2.6075,4133.33,55.4838,8816.75,15.804,3.03098,-9.76111,6145.45,2515.74,9267.98,37.2315,289.325,-89.648,-1811.39,9664.24,-1249.91,0.599594,6.84542,-20.8897,-3861.61,10303.8,1972.31,49.1653,-22.3926,-307.667,-2701.85,8685.52,-1327.06,65.1237,-70.1739,-119.792,-4705.63,-5658.59,-697.413,-24.3417,86.578,-176.829,5274.51,-164.637,683.633,-6.54607,21.2994,-21.7024
2.608,4125.67,60.5555,8809.05,15.7474,3.01829,-9.91485,6126.57,2538.59,9310.8,36.2779,288.745,-91.4945,-1831.02,9660.1,-1239.04,0.633085,6.75636,-20.9459,-3870.41,10337.6,1953.21,49.4423,-24.4271,-307.882,-2701.59,8782.75,-1337.77,64.5693,-70.6508,-119.514,-4721.92,-5600.7,-700.5,-23.9968,87.5588,-177.286,5270.85,-147.06,668.071,-6.06148,21.1974,-21.6064
2.6085,4118.01,65.6272,8801.34,15.6909,3.0056,-10.0686,6107.7,2561.43,9353.62,35.3244,288.166,-93.341,-1850.64,9655.97,-1228.16,0.666576,6.66729,-21.0021,-3879.21,10371.5,1934.11,49.7193,-26.4616,-308.097,-2701.32,8879.99,-1348.48,64.0149,-71.1276,-119.235,-4738.21,-5542.82,-703.588,-23.6519,88.5396,-177.744,5267.2,-129.482,652.509,-5.57689,21.0954,-21.5104
2.609,4111.62,72.6258,8794.78,15.6478,2.98677,-10.225,6108.8,2578.64,9403.98,34.4142,287.691,-95.1463,-1868.43,9650.34,-1217.66,0.723277,6.55288,-21.0645,-3880.86,10405.6,1918.89,49.941,-28.5127,-308.308,-2696.62,8973.84,-1345.96,63.5115,-71.6587,-118.955,-4755.42,-5491.48,-705.592,-23.3749,89.4716,-178.144,5268.08,-108.284,638.93,-5.11741,21.0012,-21.3836
2.6095,4109.66,86.3685,8792.28,15.6515,2.94645,-10.3908,6179.81,2576.08,9480.71,33.6557,287.586,-96.8077,-1879.77,9639.51,-1208.47,0.86121,6.34973,-21.1484,-3857.45,10440.8,1917.2,49.9692,-30.6221,-308.505,-2676.38,9055.82,-1297.14,63.1867,-72.3797,-118.67,-4775.86,-5463.07,-703.804,-23.3357,90.2331,-178.345,5284.86,-74.4127,632.295,-4.74582,20.9343,-21.1488
2.61,4107.7,100.111,8789.77,15.6552,2.90614,-10.5566,6250.82,2573.53,9557.44,32.8972,287.48,-98.4691,-1891.11,9628.67,-1199.28,0.999144,6.14659,-21.2323,-3834.05,10476.0,1915.52,49.9973,-32.7315,-308.702,-2656.13,9137.81,-1248.31,62.8619,-73.1007,-118.385,-4796.29,-5434.66,-702.016,-23.2964,90.9947,-178.545,5301.64,-40.5415,625.659,-4.37423,20.8674,-20.9139
2.6105,4105.73,113.854,8787.26,15.6589,2.86582,-10.7224,6321.83,2570.98,9634.18,32.1387,287.375,-100.131,-1902.45,9617.84,-1190.09,1.13708,5.94344,-21.3163,-3810.64,10511.2,1913.83,50.0255,-34.8408,-308.9,-2635.89,9219.79,-1199.48,62.5371,-73.8217,-118.1,-4816.72,-5406.26,-700.228,-23.2572,91.7562,-178.745,5318.42,-6.67034,619.024,-4.00264,20.8004,-20.6791
2.611,4103.77,127.597,8784.76,15.6626,2.82551,-10.8881,6392.84,2568.43,9710.91,31.3802,287.269,-101.792,-1913.79,9607.01,-1180.9,1.27501,5.7403,-21.4002,-3787.24,10546.4,1912.15,50.0537,-36.9502,-309.097,-2615.65,9301.77,-1150.66,62.2122,-74.5426,-117.814,-4837.16,-5377.85,-698.44,-23.218,92.5177,-178.945,5335.2,27.2008,612.388,-3.63105,20.7335,-20.4442
2.6115,4101.81,141.339,8782.25,15.6663,2.78519,-11.0539,6463.85,2565.88,9787.64,30.6217,287.164,-103.453,-1925.12,9596.17,-1171.71,1.41294,5.53715,-21.4841,-3763.84,10581.6,1910.46,50.0819,-39.0596,-309.294,-2595.41,9383.76,-1101.83,61.8874,-75.2636,-117.529,-4857.59,-5349.44,-696.653,-23.1787,93.2793,-179.145,5351.98,61.072,605.753,-3.25946,20.6666,-20.2094
2.612,4099.85,155.082,8779.75,15.67,2.74488,-11.2197,6534.86,2563.33,9864.38,29.8632,287.058,-105.115,-1936.46,9585.34,-1162.53,1.55088,5.33401,-21.568,-3740.43,10616.8,1908.78,50.1101,-41.1689,-309.491,-2575.16,9465.74,-1053.01,61.5626,-75.9846,-117.244,-4878.02,-5321.03,-694.865,-23.1395,94.0408,-179.346,5368.75,94.9432,599.117,-2.88787,20.5997,-19.9745
2.6125,4097.89,168.825,8777.24,15.6737,2.70456,-11.3855,6605.87,2560.78,9941.11,29.1046,286.953,-106.776,-1947.8,9574.5,-1153.34,1.68881,5.13086,-21.6519,-3717.03,10652.0,1907.09,50.1383,-43.2783,-309.688,-2554.92,9547.73,-1004.18,61.2378,-76.7056,-116.958,-4898.46,-5292.63,-693.077,-23.1003,94.8023,-179.546,5385.53,128.814,592.481,-2.51627,20.5328,-19.7397
2.613,4095.92,182.567,8774.73,15.6774,2.66425,-11.5513,6676.88,2558.22,10017.8,28.3461,286.847,-108.438,-1959.14,9563.67,-1144.15,1.82674,4.92772,-21.7359,-3693.62,10687.2,1905.41,50.1665,-45.3877,-309.886,-2534.68,9629.71,-955.353,60.913,-77.4265,-116.673,-4918.89,-5264.22,-691.289,-23.061,95.5639,-179.746,5402.31,162.686,585.846,-2.14468,20.4658,-19.5048
2.6135,4091.8,192.251,8772.16,15.651,2.65246,-11.715,6776.28,2544.32,10089.3,27.6667,286.97,-110.085,-1968.83,9553.26,-1138.8,1.94514,4.71002,-21.7991,-3657.94,10720.9,1899.56,50.1872,-47.4682,-310.099,-2511.92,9708.63,-913.927,60.5873,-78.2127,-116.403,-4939.96,-5235.8,-691.61,-23.051,96.2881,-179.863,5421.16,198.368,575.792,-1.82017,20.424,-19.2798
2.614,4083.35,193.817,8769.46,15.5644,2.6977,-11.8748,6932.44,2507.71,10150.1,27.1452,287.547,-111.702,-1975.21,9543.7,-1141.13,2.02445,4.46322,-21.8207,-3597.68,10751.5,1885.4,50.193,-49.4911,-310.343,-2484.15,9781.4,-887.302,60.2601,-79.129,-116.165,-4962.31,-5207.35,-696.149,-23.0993,96.9378,-179.813,5444.16,237.675,558.9,-1.5898,20.4323,-19.0743
2.6145,4074.9,195.382,8766.76,15.4778,2.74295,-12.0345,7088.61,2471.1,10210.9,26.6238,288.125,-113.32,-1981.59,9534.15,-1143.47,2.10376,4.21642,-21.8424,-3537.43,10782.2,1871.23,50.1987,-51.5139,-310.587,-2456.37,9854.17,-860.677,59.9329,-80.0454,-115.927,-4984.65,-5178.91,-700.688,-23.1476,97.5876,-179.763,5467.16,276.981,542.009,-1.35943,20.4406,-18.8689
2.615,4066.45,196.948,8764.06,15.3912,2.7882,-12.1943,7244.77,2434.48,10271.8,26.1023,288.702,-114.938,-1987.97,9524.59,-1145.8,2.18308,3.96962,-21.8641,-3477.17,10812.8,1857.07,50.2045,-53.5368,-310.831,-2428.59,9926.95,-834.052,59.6057,-80.9618,-115.689,-5007.0,-5150.46,-705.227,-23.1959,98.2373,-179.713,5490.16,316.287,525.117,-1.12905,20.4489,-18.6634
2.6155,4058.01,198.513,8761.36,15.3046,2.83345,-12.354,7400.93,2397.87,10332.6,25.5809,289.28,-116.555,-1994.35,9515.03,-1148.14,2.26239,3.72282,-21.8858,-3416.92,10843.5,1842.91,50.2102,-55.5596,-311.075,-2400.82,9999.72,-807.427,59.2785,-81.8782,-115.451,-5029.34,-5122.02,-709.765,-23.2443,98.887,-179.663,5513.16,355.593,508.226,-0.898684,20.4572,-18.4579
2.616,4049.56,200.079,8758.66,15.218,2.8787,-12.5138,7557.1,2361.26,10393.5,25.0594,289.857,-118.173,-2000.73,9505.47,-1150.47,2.3417,3.47602,-21.9075,-3356.66,10874.1,1828.74,50.216,-57.5824,-311.319,-2373.04,10072.5,-780.802,58.9513,-82.7946,-115.213,-5051.69,-5093.57,-714.304,-23.2926,99.5367,-179.613,5536.15,394.899,491.334,-0.668314,20.4655,-18.2525
2.6165,4041.11,201.644,8755.96,15.1314,2.92394,-12.6735,7713.26,2324.65,10454.3,24.538,290.435,-119.791,-2007.12,9495.91,-1152.8,2.42102,3.22922,-21.9292,-3296.41,10904.7,1814.58,50.2218,-59.6053,-311.563,-2345.27,10145.3,-754.177,58.6241,-83.711,-114.975,-5074.03,-5065.12,-718.843,-23.3409,100.186,-179.563,5559.15,434.206,474.443,-0.437943,20.4738,-18.047
2.617,4032.66,203.21,8753.25,15.0448,2.96919,-12.8333,7869.42,2288.04,10515.1,24.0165,291.013,-121.408,-2013.5,9486.35,-1155.14,2.50033,2.98242,-21.9509,-3236.16,10935.4,1800.41,50.2275,-61.6281,-311.807,-2317.49,10218.0,-727.552,58.2969,-84.6273,-114.737,-5096.38,-5036.68,-723.382,-23.3892,100.836,-179.514,5582.15,473.512,457.552,-0.207573,20.4821,-17.8416
2.6175,4024.21,204.775,8750.55,14.9582,3.01444,-12.993,8025.59,2251.43,10576.0,23.4951,291.59,-123.026,-2019.88,9476.8,-1157.47,2.57964,2.73562,-21.9726,-3175.9,10966.0,1786.25,50.2333,-63.651,-312.051,-2289.71,10290.8,-700.927,57.9697,-85.5437,-114.499,-5118.72,-5008.23,-727.921,-23.4375,101.486,-179.464,5605.15,512.818,440.66,0.0227979,20.4904,-17.6361
2.618,4014.24,207.777,8753.49,14.876,3.01915,-13.1617,8183.02,2231.25,10638.8,23.0053,292.387,-124.596,-2025.11,9472.61,-1158.16,2.68518,2.43999,-21.9949,-3111.79,10994.2,1767.59,50.2968,-65.5855,-312.366,-2254.71,10351.2,-684.534,57.6596,-86.5323,-114.285,-5140.5,-4982.28,-731.906,-23.5338,101.987,-179.271,5630.76,553.376,425.395,0.239272,20.532,-17.45
2.6185,4002.35,212.574,8763.49,14.7994,2.97317,-13.3414,8342.05,2231.6,10704.1,22.5551,293.459,-126.108,-2028.92,9475.15,-1156.8,2.8235,2.0833,-22.0178,-3042.87,11019.5,1743.33,50.4324,-67.4096,-312.771,-2210.67,10396.1,-680.933,57.371,-87.6112,-114.102,-5161.57,-4959.45,-735.2,-23.6901,102.301,-178.9,5659.65,595.499,412.164,0.438374,20.615,-17.288
2.619,3990.47,217.37,8773.48,14.7227,2.9272,-13.5211,8501.07,2231.96,10769.4,22.1049,294.531,-127.619,-2032.72,9477.68,-1155.44,2.96182,1.72661,-22.0408,-2973.95,11044.7,1719.06,50.568,-69.2337,-313.175,-2166.63,10440.9,-677.332,57.0823,-88.69,-113.918,-5182.65,-4936.62,-738.494,-23.8463,102.616,-178.529,5688.53,637.623,398.933,0.637477,20.6981,-17.1261
2.6195,3978.58,222.167,8783.47,14.6461,2.88123,-13.7009,8660.1,2232.32,10834.7,21.6548,295.602,-129.13,-2036.53,9480.22,-1154.08,3.10014,1.36993,-22.0637,-2905.02,11069.9,1694.8,50.7037,-71.0577,-313.58,-2122.59,10485.8,-673.731,56.7937,-89.7689,-113.735,-5203.72,-4913.79,-741.788,-24.0025,102.93,-178.158,5717.42,679.746,385.702,0.836579,20.7812,-16.9641
2.62,3966.7,226.964,8793.47,14.5694,2.83526,-13.8806,8819.12,2232.68,10900.0,21.2046,296.674,-130.641,-2040.33,9482.75,-1152.72,3.23846,1.01324,-22.0867,-2836.1,11095.1,1670.53,50.8393,-72.8818,-313.984,-2078.55,10530.7,-670.13,56.505,-90.8477,-113.551,-5224.79,-4890.96,-745.082,-24.1588,103.245,-177.787,5746.3,721.869,372.47,1.03568,20.8643,-16.8022
2.6205,3954.81,231.761,8803.46,14.4928,2.78929,-14.0604,8978.14,2233.03,10965.3,20.7544,297.746,-132.153,-2044.13,9485.29,-1151.36,3.37678,0.656557,-22.1096,-2767.17,11120.3,1646.27,50.9749,-74.7059,-314.389,-2034.51,10575.6,-666.529,56.2164,-91.9266,-113.368,-5245.86,-4868.13,-748.376,-24.315,103.559,-177.416,5775.18,763.993,359.239,1.23478,20.9474,-16.6402
2.621,3942.93,236.557,8813.46,14.4161,2.74332,-14.2401,9137.17,2233.39,11030.6,20.3042,298.817,-133.664,-2047.94,9487.82,-1149.99,3.5151,0.29987,-22.1326,-2698.25,11145.5,1622.0,51.1106,-76.53,-314.794,-1990.47,10620.4,-662.928,55.9277,-93.0054,-113.185,-5266.94,-4845.3,-751.67,-24.4713,103.874,-177.045,5804.07,806.116,346.008,1.43389,21.0304,-16.4783
2.6215,3931.04,241.354,8823.45,14.3395,2.69734,-14.4199,9296.19,2233.75,11096.0,19.854,299.889,-135.175,-2051.74,9490.36,-1148.63,3.65342,-0.0568155,-22.1555,-2629.33,11170.7,1597.74,51.2462,-78.3541,-315.198,-1946.43,10665.3,-659.327,55.6391,-94.0843,-113.001,-5288.01,-4822.47,-754.964,-24.6275,104.188,-176.674,5832.95,848.239,332.777,1.63299,21.1135,-16.3163
2.622,3919.15,246.151,8833.44,14.2629,2.65137,-14.5996,9455.22,2234.11,11161.3,19.4038,300.961,-136.686,-2055.55,9492.89,-1147.27,3.79174,-0.413502,-22.1785,-2560.4,11195.9,1573.47,51.3818,-80.1782,-315.603,-1902.39,10710.2,-655.726,55.3504,-95.1632,-112.818,-5309.08,-4799.64,-758.258,-24.7837,104.503,-176.303,5861.84,890.362,319.545,1.83209,21.1966,-16.1544
2.6225,3909.6,264.384,8848.39,14.122,2.57745,-14.7607,9579.62,2231.88,11233.8,18.9695,302.066,-138.018,-2065.82,9501.63,-1138.64,3.94969,-0.808891,-22.1854,-2502.75,11227.1,1542.86,51.5799,-81.8614,-316.069,-1858.58,10737.4,-646.567,55.1629,-96.3128,-112.715,-5327.11,-4785.38,-765.745,-24.8718,104.632,-175.771,5894.29,930.221,307.576,1.8483,21.2176,-15.9455
2.623,3901.91,293.368,8867.29,13.9298,2.48116,-14.9069,9676.33,2227.6,11312.2,18.5478,303.197,-139.205,-2081.26,9515.32,-1124.2,4.12336,-1.23524,-22.1797,-2454.12,11263.1,1507.16,51.828,-83.4318,-316.584,-1814.94,10750.4,-632.959,55.0563,-97.5192,-112.676,-5342.71,-4777.98,-776.586,-24.9054,104.614,-175.112,5929.6,968.268,296.615,1.71819,21.1889,-15.6991
2.6235,3894.22,322.351,8886.19,13.7375,2.38487,-15.0531,9773.05,2223.31,11390.6,18.126,304.329,-140.392,-2096.71,9529.02,-1109.75,4.29703,-1.66159,-22.1739,-2405.49,11299.1,1471.46,52.0761,-85.0023,-317.099,-1771.29,10763.5,-619.353,54.9497,-98.7256,-112.637,-5358.31,-4770.58,-787.426,-24.939,104.595,-174.453,5964.92,1006.32,285.655,1.58807,21.1602,-15.4527
2.624,3886.53,351.335,8905.1,13.5453,2.28859,-15.1993,9869.76,2219.03,11468.9,17.7043,305.46,-141.579,-2112.15,9542.71,-1095.31,4.4707,-2.08794,-22.1681,-2356.86,11335.0,1435.76,52.3242,-86.5727,-317.614,-1727.65,10776.6,-605.745,54.8431,-99.9319,-112.598,-5373.91,-4763.19,-798.267,-24.9726,104.577,-173.793,6000.23,1044.36,274.695,1.45796,21.1315,-15.2064
2.6245,3878.84,380.318,8924.0,13.3531,2.1923,-15.3455,9966.47,2214.74,11547.3,17.2826,306.592,-142.766,-2127.59,9556.41,-1080.86,4.64436,-2.5143,-22.1623,-2308.23,11371.0,1400.06,52.5723,-88.1432,-318.129,-1684.01,10789.6,-592.139,54.7365,-101.138,-112.56,-5389.51,-4755.79,-809.108,-25.0062,104.558,-173.134,6035.54,1082.41,263.735,1.32785,21.1028,-14.96
2.625,3871.15,409.302,8942.9,13.1608,2.09601,-15.4917,10063.2,2210.45,11625.7,16.8609,307.723,-143.954,-2143.04,9570.1,-1066.42,4.81803,-2.94065,-22.1565,-2259.6,11407.0,1364.37,52.8204,-89.7136,-318.644,-1640.37,10802.7,-578.531,54.6299,-102.345,-112.521,-5405.11,-4748.39,-819.949,-25.0398,104.539,-172.475,6070.85,1120.46,252.774,1.19774,21.0741,-14.7136
2.6255,3863.46,438.285,8961.8,12.9686,1.99973,-15.6379,10159.9,2206.17,11704.0,16.4392,308.855,-145.141,-2158.48,9583.8,-1051.97,4.9917,-3.367,-22.1507,-2210.97,11442.9,1328.67,53.0685,-91.2841,-319.159,-1596.73,10815.8,-564.925,54.5233,-103.551,-112.482,-5420.72,-4740.99,-830.789,-25.0734,104.521,-171.815,6106.16,1158.5,241.814,1.06762,21.0455,-14.4672
2.626,3855.77,467.268,8980.71,12.7764,1.90344,-15.7841,10256.6,2201.88,11782.4,16.0175,309.986,-146.328,-2173.93,9597.5,-1037.53,5.16537,-3.79335,-22.145,-2162.34,11478.9,1292.97,53.3166,-92.8546,-319.674,-1553.09,10828.8,-551.318,54.4167,-104.757,-112.443,-5436.32,-4733.59,-841.63,-25.107,104.502,-171.156,6141.48,1196.55,230.854,0.937512,21.0168,-14.2208
2.6265,3848.08,496.252,8999.61,12.5841,1.80715,-15.9303,10353.3,2197.6,11860.8,15.5958,311.118,-147.515,-2189.37,9611.19,-1023.08,5.33903,-4.2197,-22.1392,-2113.71,11514.9,1257.27,53.5647,-94.425,-320.189,-1509.45,10841.9,-537.711,54.3101,-105.964,-112.405,-5451.92,-4726.19,-852.471,-25.1406,104.484,-170.496,6176.79,1234.6,219.894,0.8074,20.9881,-13.9745
2.627,3856.28,514.784,9008.89,12.3077,1.62293,-16.1081,10398.5,2190.44,11917.0,15.1782,312.107,-148.587,-2203.39,9623.43,-1006.27,5.50931,-4.66741,-22.1748,-2083.11,11558.2,1215.58,53.7768,-95.8888,-320.799,-1460.06,10845.4,-543.782,54.4267,-107.067,-112.517,-5477.08,-4716.47,-869.628,-25.2193,104.212,-169.738,6202.29,1274.38,201.874,0.480611,20.9529,-13.7282
2.6275,3872.43,528.092,9013.35,11.9893,1.39475,-16.3017,10418.0,2181.84,11962.1,14.7626,313.026,-149.6,-2216.7,9634.94,-988.273,5.67789,-5.1258,-22.2312,-2061.52,11605.3,1170.88,53.9708,-97.2992,-321.456,-1407.79,10844.0,-559.693,54.6549,-108.118,-112.704,-5507.02,-4705.58,-889.942,-25.3206,103.815,-168.93,6222.89,1315.02,180.324,0.0554836,20.9145,-13.4819
2.628,3888.57,541.399,9017.81,11.6708,1.16657,-16.4954,10437.5,2173.25,12007.2,14.347,313.945,-150.614,-2230.01,9646.45,-970.278,5.84647,-5.58419,-22.2876,-2039.93,11652.4,1126.18,54.1649,-98.7097,-322.114,-1355.53,10842.7,-575.604,54.8831,-109.169,-112.892,-5536.96,-4694.7,-910.257,-25.4219,103.417,-168.122,6243.49,1355.67,158.774,-0.369644,20.8761,-13.2356
2.6285,3904.72,554.707,9022.28,11.3523,0.938382,-16.689,10457.0,2164.65,12052.4,13.9314,314.864,-151.628,-2243.31,9657.96,-952.282,6.01504,-6.04258,-22.344,-2018.34,11699.5,1081.49,54.3589,-100.12,-322.771,-1303.27,10841.3,-591.514,55.1113,-110.22,-113.079,-5566.9,-4683.82,-930.572,-25.5232,103.019,-167.314,6264.09,1396.31,137.224,-0.794771,20.8377,-12.9894
2.629,3920.86,568.014,9026.74,11.0338,0.710198,-16.8826,10476.5,2156.06,12097.5,13.5158,315.783,-152.641,-2256.62,9669.47,-934.287,6.18362,-6.50097,-22.4004,-1996.75,11746.6,1036.79,54.553,-101.531,-323.428,-1251.0,10840.0,-607.425,55.3395,-111.272,-113.267,-5596.84,-4672.93,-950.887,-25.6245,102.621,-166.506,6284.69,1436.96,115.674,-1.2199,20.7992,-12.7431
2.6295,3937.01,581.321,9031.2,10.7153,0.482014,-17.0762,10496.0,2147.47,12142.6,13.1003,316.702,-153.655,-2269.93,9680.98,-916.292,6.3522,-6.95936,-22.4568,-1975.17,11793.7,992.096,54.747,-102.941,-324.086,-1198.74,10838.7,-623.336,55.5677,-112.323,-113.454,-5626.78,-4662.05,-971.201,-25.7258,102.223,-165.698,6305.29,1477.6,94.1237,-1.64503,20.7608,-12.4969
2.63,3953.15,594.629,9035.67,10.3969,0.25383,-17.2699,10515.5,2138.87,12187.7,12.6847,317.62,-154.669,-2283.24,9692.49,-898.296,6.52078,-7.41775,-22.5132,-1953.58,11840.8,947.399,54.9411,-104.351,-324.743,-1146.47,10837.3,-639.247,55.7958,-113.374,-113.642,-5656.72,-4651.17,-991.516,-25.8271,101.825,-164.89,6325.88,1518.25,72.5737,-2.07015,20.7224,-12.2506
2.6305,3969.29,607.936,9040.13,10.0784,0.0256461,-17.4635,10535.0,2130.28,12232.8,12.2691,318.539,-155.682,-2296.54,9704.0,-880.301,6.68936,-7.87614,-22.5696,-1931.99,11887.9,902.703,55.1351,-105.762,-325.401,-1094.21,10836.0,-655.158,56.024,-114.425,-113.829,-5686.66,-4640.28,-1011.83,-25.9284,101.427,-164.082,6346.48,1558.9,51.0238,-2.49528,20.684,-12.0044
2.631,3985.44,621.243,9044.59,9.75989,-0.202538,-17.6571,10554.5,2121.68,12278.0,11.8535,319.458,-156.696,-2309.85,9715.52,-862.305,6.85794,-8.33453,-22.626,-1910.4,11935.0,858.007,55.3292,-107.172,-326.058,-1041.95,10834.7,-671.068,56.2522,-115.477,-114.017,-5716.6,-4629.4,-1032.15,-26.0297,101.029,-163.274,6367.08,1599.54,29.4738,-2.92041,20.6456,-11.7581
2.6315,3995.55,664.047,9052.32,9.3808,-0.469061,-17.8016,10545.0,2121.96,12293.9,11.3412,320.361,-157.753,-2333.75,9725.71,-836.002,7.04956,-8.84742,-22.7196,-1913.33,11984.4,819.388,55.4181,-108.453,-326.707,-987.367,10825.4,-682.139,56.4106,-116.265,-114.418,-5758.91,-4623.43,-1069.9,-25.9972,100.374,-162.425,6386.1,1637.89,16.4627,-3.46642,20.6428,-11.5769
2.632,4003.95,715.279,9060.99,8.98438,-0.746538,-17.932,10527.1,2124.78,12301.6,10.8013,321.259,-158.822,-2360.68,9735.53,-807.325,7.24776,-9.37588,-22.824,-1923.26,12034.6,782.506,55.477,-109.698,-327.354,-932.125,10813.8,-691.827,56.5491,-116.979,-114.88,-5804.76,-4618.87,-1112.64,-25.9264,99.6439,-161.564,6404.67,1675.58,5.89126,-4.04697,20.6502,-11.4142
2.6325,4012.34,766.51,9069.66,8.58797,-1.02402,-18.0624,10509.2,2127.6,12309.2,10.2614,322.157,-159.891,-2387.61,9745.34,-778.647,7.44597,-9.90434,-22.9283,-1933.2,12084.8,745.624,55.5358,-110.942,-328.001,-876.882,10802.2,-701.514,56.6875,-117.693,-115.342,-5850.6,-4614.3,-1155.38,-25.8556,98.9143,-160.703,6423.24,1713.27,-4.68016,-4.62752,20.6577,-11.2515
2.633,4020.73,817.741,9078.33,8.19155,-1.30149,-18.1928,10491.4,2130.41,12316.9,9.72148,323.055,-160.96,-2414.53,9755.16,-749.97,7.64417,-10.4328,-23.0327,-1943.13,12135.0,708.742,55.5947,-112.186,-328.648,-821.639,10790.7,-711.202,56.826,-118.407,-115.804,-5896.45,-4609.74,-1198.13,-25.7848,98.1847,-159.842,6441.81,1750.96,-15.2516,-5.20807,20.6651,-11.0888
2.6335,4029.12,868.973,9087.0,7.79513,-1.57897,-18.3233,10473.5,2133.23,12324.6,9.18156,323.953,-162.029,-2441.46,9764.98,-721.293,7.84238,-10.9613,-23.137,-1953.06,12185.2,671.859,55.6536,-113.43,-329.295,-766.397,10779.1,-720.89,56.9645,-119.12,-116.266,-5942.3,-4605.18,-1240.87,-25.714,97.4552,-158.981,6460.38,1788.65,-25.823,-5.78862,20.6725,-10.9261
2.634,4037.51,920.204,9095.67,7.39872,-1.85645,-18.4537,10455.7,2136.05,12332.2,8.64165,324.851,-163.098,-2468.39,9774.79,-692.616,8.04058,-11.4897,-23.2413,-1962.99,12235.3,634.977,55.7125,-114.675,-329.942,-711.154,10767.6,-730.577,57.1029,-119.834,-116.729,-5988.14,-4600.61,-1283.61,-25.6433,96.7256,-158.12,6478.95,1826.34,-36.3944,-6.36917,20.6799,-10.7634
2.6345,4045.91,971.436,9104.34,7.0023,-2.13392,-18.5841,10437.8,2138.87,12339.9,8.10174,325.749,-164.167,-2495.31,9784.61,-663.938,8.23879,-12.0182,-23.3457,-1972.93,12285.5,598.095,55.7714,-115.919,-330.589,-655.912,10756.0,-740.265,57.2414,-120.548,-117.191,-6033.99,-4596.05,-1326.35,-25.5725,95.996,-157.259,6497.53,1864.03,-46.9659,-6.94972,20.6874,-10.6007
2.635,4054.3,1022.67,9113.01,6.60589,-2.4114,-18.7145,10420.0,2141.68,12347.5,7.56183,326.647,-165.236,-2522.24,9794.43,-635.261,8.43699,-12.5466,-23.45,-1982.86,12335.7,561.213,55.8302,-117.163,-331.236,-600.669,10744.4,-749.953,57.3799,-121.262,-117.653,-6079.83,-4591.49,-1369.09,-25.5017,95.2664,-156.398,6516.1,1901.72,-57.5373,-7.53027,20.6948,-10.438
2.6355,4062.69,1073.9,9121.68,6.20947,-2.68888,-18.8449,10402.1,2144.5,12355.2,7.02192,327.545,-166.305,-2549.17,9804.24,-606.584,8.6352,-13.0751,-23.5543,-1992.79,12385.9,524.331,55.8891,-118.407,-331.882,-545.427,10732.9,-759.64,57.5183,-121.975,-118.115,-6125.68,-4586.92,-1411.83,-25.4309,94.5368,-155.537,6534.67,1939.41,-68.1087,-8.11082,20.7022,-10.2753
2.636,4051.54,1095.28,9127.67,5.73981,-2.97243,-18.8907,10384.2,2125.26,12361.1,6.30405,328.323,-167.502,-2547.0,9817.03,-583.701,8.84255,-13.5982,-23.6269,-2022.21,12444.9,503.655,55.8646,-119.513,-332.424,-494.729,10731.2,-723.046,57.7745,-122.645,-118.629,-6160.44,-4580.81,-1466.94,-25.4059,93.6587,-154.537,6546.63,1957.07,-68.5398,-8.75097,20.6929,-10.1539
2.6365,4037.95,1112.92,9133.33,5.261,-3.25675,-18.9259,10366.3,2103.26,12366.9,5.56394,329.087,-168.715,-2541.19,9830.18,-561.542,9.05105,-14.1207,-23.6956,-2054.07,12505.1,485.005,55.8297,-120.602,-332.953,-444.601,10730.7,-680.667,58.0454,-123.309,-119.15,-6193.81,-4574.5,-1523.6,-25.3867,92.7619,-153.519,6557.77,1972.24,-67.7033,-9.39857,20.6816,-10.0377
2.637,4024.36,1130.57,9139.0,4.78219,-3.54107,-18.961,10348.4,2081.26,12372.6,4.82382,329.85,-169.928,-2535.38,9843.34,-539.383,9.25955,-14.6431,-23.7642,-2085.92,12565.2,466.355,55.7947,-121.691,-333.482,-394.472,10730.3,-638.287,58.3162,-123.973,-119.671,-6227.18,-4568.19,-1580.26,-25.3675,91.8652,-152.501,6568.91,1987.4,-66.8668,-10.0462,20.6702,-9.92141
2.6375,4010.77,1148.21,9144.66,4.30337,-3.82538,-18.9962,10330.5,2059.26,12378.3,4.08371,330.614,-171.141,-2529.57,9856.5,-517.224,9.46805,-15.1656,-23.8329,-2117.78,12625.4,447.705,55.7598,-122.779,-334.01,-344.343,10729.8,-595.908,58.5871,-124.637,-120.192,-6260.55,-4561.88,-1636.92,-25.3482,90.9685,-151.483,6580.05,2002.56,-66.0303,-10.6938,20.6588,-9.80516
2.638,3997.18,1165.86,9150.32,3.82456,-4.1097,-19.0314,10312.7,2037.26,12384.1,3.3436,331.378,-172.354,-2523.76,9869.65,-495.065,9.67655,-15.688,-23.9015,-2149.64,12685.5,429.055,55.7248,-123.868,-334.539,-294.214,10729.4,-553.528,58.858,-125.301,-120.712,-6293.92,-4555.56,-1693.58,-25.329,90.0718,-150.465,6591.18,2017.73,-65.1938,-11.3414,20.6474,-9.6889
2.6385,3983.59,1183.51,9155.98,3.34574,-4.39402,-19.0665,10294.8,2015.26,12389.8,2.60349,332.141,-173.567,-2517.95,9882.81,-472.907,9.88504,-16.2104,-23.9702,-2181.49,12745.7,410.405,55.6898,-124.956,-335.067,-244.085,10728.9,-511.149,59.1289,-125.965,-121.233,-6327.29,-4549.25,-1750.24,-25.3098,89.175,-149.447,6602.32,2032.89,-64.3573,-11.989,20.6361,-9.57265
2.639,3970.0,1201.15,9161.64,2.86693,-4.67833,-19.1017,10276.9,1993.26,12395.6,1.86337,332.905,-174.78,-2512.14,9895.97,-450.748,10.0935,-16.7329,-24.0388,-2213.35,12805.8,391.755,55.6549,-126.045,-335.596,-193.956,10728.5,-468.769,59.3997,-126.629,-121.754,-6360.66,-4542.94,-1806.9,-25.2905,88.2783,-148.429,6613.46,2048.05,-63.5208,-12.6366,20.6247,-9.45639
2.6395,3956.41,1218.8,9167.3,2.38812,-4.96265,-19.1369,10259.0,1971.27,12401.3,1.12326,333.669,-175.993,-2506.33,9909.12,-428.589,10.302,-17.2553,-24.1074,-2245.21,12866.0,373.105,55.6199,-127.134,-336.125,-143.828,10728.0,-426.39,59.6706,-127.293,-122.274,-6394.04,-4536.63,-1863.56,-25.2713,87.3816,-147.411,6624.6,2063.22,-62.6843,-13.2842,20.6133,-9.34013
2.64,3942.82,1236.45,9172.97,1.9093,-5.24696,-19.172,10241.1,1949.27,12407.0,0.383146,334.432,-177.206,-2500.52,9922.28,-406.43,10.5105,-17.7778,-24.1761,-2277.06,12926.1,354.455,55.585,-128.222,-336.653,-93.6988,10727.5,-384.01,59.9415,-127.957,-122.795,-6427.41,-4530.32,-1920.22,-25.2521,86.4849,-146.393,6635.74,2078.38,-61.8478,-13.9318,20.6019,-9.22388
2.6405,3951.79,1241.16,9165.18,1.4186,-5.53222,-19.2261,10208.5,1909.96,12432.9,-0.298075,334.765,-178.192,-2497.49,9947.06,-390.735,10.6812,-18.2434,-24.2587,-2302.58,12987.1,321.11,55.4129,-129.221,-337.067,-35.0524,10697.3,-335.961,60.2694,-128.596,-123.351,-6458.68,-4500.58,-1979.75,-25.1736,85.9668,-145.463,6649.08,2097.67,-61.3542,-14.5064,20.6038,-9.05093
2.641,3960.76,1245.87,9157.4,0.927889,-5.81748,-19.2802,10175.8,1870.65,12458.8,-0.979296,335.099,-179.178,-2494.45,9971.85,-375.04,10.8519,-18.7091,-24.3413,-2328.1,13048.1,287.765,55.2408,-130.22,-337.482,23.594,10667.1,-287.913,60.5973,-129.236,-123.906,-6489.96,-4470.84,-2039.28,-25.0951,85.4488,-144.533,6662.42,2116.96,-60.8607,-15.0809,20.6056,-8.87798
2.6415,3969.74,1250.59,9149.61,0.437183,-6.10273,-19.3342,10143.1,1831.34,12484.7,-1.66052,335.432,-180.164,-2491.42,9996.63,-359.344,11.0225,-19.1747,-24.424,-2353.62,13109.0,254.42,55.0687,-131.219,-337.896,82.2403,10636.9,-239.864,60.9253,-129.876,-124.461,-6521.24,-4441.1,-2098.81,-25.0166,84.9308,-143.603,6675.76,2136.25,-60.3672,-15.6555,20.6075,-8.70504
2.642,3978.71,1255.3,9141.83,-0.0535235,-6.38799,-19.3883,10110.5,1792.03,12510.6,-2.34174,335.765,-181.15,-2488.39,10021.4,-343.649,11.1932,-19.6404,-24.5066,-2379.14,13170.0,221.075,54.8967,-132.217,-338.31,140.887,10606.7,-191.815,61.2532,-130.516,-125.016,-6552.52,-4411.35,-2158.33,-24.9381,84.4127,-142.672,6689.1,2155.54,-59.8736,-16.2301,20.6093,-8.53209
2.6425,3987.69,1260.01,9134.04,-0.54423,-6.67325,-19.4424,10077.8,1752.73,12536.5,-3.02296,336.098,-182.136,-2485.36,10046.2,-327.954,11.3639,-20.1061,-24.5892,-2404.66,13231.0,187.73,54.7246,-133.216,-338.724,199.533,10576.5,-143.766,61.5811,-131.155,-125.572,-6583.79,-4381.61,-2217.86,-24.8596,83.8947,-141.742,6702.45,2174.83,-59.3801,-16.8047,20.6111,-8.35914
2.643,3996.66,1264.72,9126.26,-1.03494,-6.9585,-19.4964,10045.1,1713.42,12562.4,-3.70418,336.432,-183.122,-2482.33,10071.0,-312.258,11.5345,-20.5717,-24.6718,-2430.18,13292.0,154.385,54.5525,-134.215,-339.138,258.18,10546.2,-95.7173,61.909,-131.795,-126.127,-6615.07,-4351.87,-2277.39,-24.7811,83.3767,-140.812,6715.79,2194.12,-58.8866,-17.3792,20.613,-8.1862
2.6435,4005.64,1269.44,9118.47,-1.52564,-7.24376,-19.5505,10012.5,1674.11,12588.3,-4.3854,336.765,-184.108,-2479.29,10095.8,-296.563,11.7052,-21.0374,-24.7544,-2455.7,13352.9,121.04,54.3804,-135.214,-339.552,316.826,10516.0,-47.6684,62.237,-132.435,-126.682,-6646.35,-4322.13,-2336.92,-24.7026,82.8586,-139.882,6729.13,2213.41,-58.3931,-17.9538,20.6148,-8.01325
2.644,4014.61,1274.15,9110.69,-2.01635,-7.52902,-19.6046,9979.82,1634.8,12614.1,-5.06662,337.098,-185.094,-2476.26,10120.5,-280.868,11.8759,-21.503,-24.8371,-2481.22,13413.9,87.6954,54.2083,-136.212,-339.966,375.472,10485.8,0.380405,62.5649,-133.075,-127.238,-6677.62,-4292.38,-2396.44,-24.6241,82.3406,-138.952,6742.47,2232.7,-57.8995,-18.5284,20.6167,-7.8403
2.6445,4022.7,1278.25,9102.51,-2.5013,-7.81712,-19.6538,9949.71,1591.36,12640.3,-5.70176,337.395,-186.051,-2472.49,10143.3,-268.152,12.0478,-21.9604,-24.9315,-2503.66,13475.3,54.4535,54.0201,-137.189,-340.366,432.799,10456.3,46.8211,62.8658,-133.711,-127.784,-6707.62,-4263.79,-2454.56,-24.5228,81.9085,-138.001,6755.14,2251.42,-56.4823,-19.0999,20.6129,-7.67453
2.645,4023.69,1277.42,9091.19,-2.94023,-8.12795,-19.6646,9939.96,1514.81,12668.9,-5.96816,337.404,-186.78,-2462.81,10150.0,-279.276,12.2296,-22.3518,-25.1207,-2501.45,13539.5,22.036,53.7024,-137.984,-340.648,479.564,10432.3,80.3962,62.9501,-134.324,-128.261,-6727.38,-4244.36,-2501.43,-24.2392,82.1641,-136.881,6762.41,2265.65,-47.6756,-19.6467,20.5642,-7.56616
2.6455,4024.68,1276.58,9079.87,-3.37917,-8.43878,-19.6755,9930.21,1438.26,12697.4,-6.23457,337.413,-187.509,-2453.13,10156.7,-290.399,12.4114,-22.7431,-25.3099,-2499.24,13603.7,-10.3815,53.3848,-138.779,-340.93,526.33,10408.4,113.971,63.0345,-134.936,-128.738,-6747.14,-4224.94,-2548.29,-23.9556,82.4197,-135.76,6769.68,2279.87,-38.869,-20.1934,20.5155,-7.45779
2.646,4025.67,1275.75,9068.55,-3.8181,-8.74962,-19.6863,9920.46,1361.72,12725.9,-6.50098,337.422,-188.239,-2443.45,10163.4,-301.523,12.5932,-23.1345,-25.499,-2497.04,13667.9,-42.7989,53.0671,-139.574,-341.212,573.095,10384.5,147.547,63.1188,-135.549,-129.215,-6766.89,-4205.52,-2595.15,-23.672,82.6752,-134.64,6776.95,2294.09,-30.0623,-20.7402,20.4668,-7.34941
2.6465,4026.67,1274.92,9057.23,-4.25703,-9.06045,-19.6971,9910.71,1285.17,12754.4,-6.76739,337.431,-188.968,-2433.77,10170.1,-312.646,12.775,-23.5258,-25.6882,-2494.83,13732.2,-75.2164,52.7495,-140.369,-341.495,619.861,10360.5,181.122,63.2032,-136.161,-129.692,-6786.65,-4186.09,-2642.02,-23.3884,82.9308,-133.52,6784.21,2308.32,-21.2556,-21.2869,20.4181,-7.24104
2.647,4027.66,1274.09,9045.92,-4.69596,-9.37129,-19.7079,9900.96,1208.62,12783.0,-7.0338,337.439,-189.697,-2424.09,10176.8,-323.77,12.9568,-23.9172,-25.8774,-2492.62,13796.4,-107.634,52.4318,-141.164,-341.777,666.627,10336.6,214.697,63.2875,-136.774,-130.169,-6806.41,-4166.67,-2688.88,-23.1048,83.1864,-132.399,6791.48,2322.54,-12.4489,-21.8337,20.3694,-7.13267
2.6475,4028.65,1273.26,9034.6,-5.13489,-9.68212,-19.7187,9891.21,1132.07,12811.5,-7.30021,337.448,-190.426,-2414.41,10183.5,-334.893,13.1386,-24.3085,-26.0665,-2490.42,13860.6,-140.051,52.1142,-141.959,-342.059,713.392,10312.7,248.272,63.3718,-137.386,-130.646,-6826.17,-4147.25,-2735.74,-22.8212,83.442,-131.279,6798.75,2336.76,-3.64227,-22.3804,20.3207,-7.0243
2.648,4029.65,1272.43,9023.28,-5.57382,-9.99296,-19.7296,9881.46,1055.53,12840.0,-7.56662,337.457,-191.155,-2404.74,10190.3,-346.017,13.3204,-24.6999,-26.2557,-2488.21,13924.8,-172.469,51.7966,-142.754,-342.342,760.158,10288.7,281.847,63.4562,-137.999,-131.123,-6845.92,-4127.82,-2782.6,-22.5376,83.6975,-130.159,6806.02,2350.98,5.16441,-22.9272,20.2719,-6.91593
2.6485,4030.64,1271.6,9011.96,-6.01276,-10.3038,-19.7404,9871.72,978.98,12868.5,-7.83303,337.466,-191.884,-2395.06,10197.0,-357.14,13.5022,-25.0913,-26.4449,-2486.01,13989.1,-204.886,51.4789,-143.549,-342.624,806.923,10264.8,315.422,63.5405,-138.611,-131.6,-6865.68,-4108.4,-2829.47,-22.254,83.9531,-129.038,6813.29,2365.21,13.9711,-23.474,20.2232,-6.80756
2.649,4030.99,1269.33,9006.46,-6.42978,-10.6092,-19.7385,9867.35,903.841,12895.5,-8.01245,337.423,-192.556,-2380.56,10203.4,-363.958,13.6717,-25.4295,-26.6473,-2476.62,14057.2,-238.27,51.1454,-144.256,-342.906,852.466,10241.7,342.177,63.5819,-139.215,-132.036,-6876.79,-4094.21,-2861.45,-21.8836,84.3786,-127.903,6818.51,2378.2,22.1289,-24.0601,20.1482,-6.69013
2.6495,4029.07,1262.05,9021.36,-6.77013,-10.8958,-19.692,9881.82,833.632,12916.9,-7.88743,337.2,-193.026,-2349.2,10208.8,-355.706,13.798,-25.5818,-26.8962,-2442.09,14138.9,-275.033,50.7564,-144.655,-343.189,893.731,10221.5,345.062,63.4728,-139.788,-132.325,-6857.61,-4098.32,-2841.34,-21.2094,85.3985,-126.715,6816.56,2386.88,28.0157,-24.7839,19.9812,-6.54104
2.65,4027.16,1254.77,9036.26,-7.11049,-11.1824,-19.6455,9896.29,763.422,12938.2,-7.76241,336.977,-193.497,-2317.85,10214.3,-347.453,13.9243,-25.7341,-27.1451,-2407.57,14220.6,-311.797,50.3674,-145.054,-343.471,934.995,10201.4,347.947,63.3637,-140.362,-132.614,-6838.44,-4102.44,-2821.23,-20.5352,86.4184,-125.526,6814.6,2395.56,33.9026,-25.5078,19.8141,-6.39194
2.6505,4025.25,1247.49,9051.16,-7.45084,-11.4689,-19.599,9910.77,693.213,12959.6,-7.63739,336.754,-193.968,-2286.49,10219.8,-339.201,14.0507,-25.8864,-27.394,-2373.04,14302.3,-348.561,49.9784,-145.453,-343.754,976.259,10181.2,350.832,63.2547,-140.935,-132.904,-6819.27,-4106.55,-2801.13,-19.861,87.4384,-124.338,6812.65,2404.23,39.7894,-26.2316,19.647,-6.24285
2.651,4023.34,1240.21,9066.06,-7.79119,-11.7555,-19.5525,9925.24,623.004,12981.0,-7.51237,336.53,-194.438,-2255.13,10225.2,-330.949,14.177,-26.0387,-27.6429,-2338.52,14384.0,-385.324,49.5894,-145.853,-344.036,1017.52,10161.0,353.717,63.1456,-141.508,-133.193,-6800.1,-4110.67,-2781.02,-19.1869,88.4583,-123.15,6810.69,2412.91,45.6762,-26.9554,19.48,-6.09376
2.6515,4021.43,1232.93,9080.96,-8.13154,-12.0421,-19.5061,9939.71,552.794,13002.3,-7.38735,336.307,-194.909,-2223.78,10230.7,-322.696,14.3033,-26.1909,-27.8918,-2304.0,14465.7,-422.088,49.2004,-146.252,-344.319,1058.79,10140.9,356.601,63.0365,-142.081,-133.483,-6780.92,-4114.78,-2760.92,-18.5127,89.4783,-121.961,6808.74,2421.59,51.5631,-27.6793,19.3129,-5.94466
2.652,4019.52,1225.65,9095.85,-8.47189,-12.3286,-19.4596,9954.18,482.585,13023.7,-7.26233,336.084,-195.38,-2192.42,10236.2,-314.444,14.4296,-26.3432,-28.1407,-2269.47,14547.4,-458.852,48.8114,-146.651,-344.601,1100.05,10120.7,359.486,62.9274,-142.655,-133.772,-6761.75,-4118.89,-2740.81,-17.8385,90.4982,-120.773,6806.78,2430.27,57.4499,-28.4031,19.1458,-5.79557
2.6525,4017.6,1218.37,9110.75,-8.81225,-12.6152,-19.4131,9968.65,412.376,13045.1,-7.13731,335.861,-195.85,-2161.07,10241.6,-306.192,14.556,-26.4955,-28.3896,-2234.95,14629.1,-495.615,48.4223,-147.05,-344.884,1141.32,10100.6,362.371,62.8183,-143.228,-134.062,-6742.58,-4123.01,-2720.7,-17.1643,91.5182,-119.585,6804.83,2438.95,63.3367,-29.127,18.9788,-5.64647
2.653,4015.69,1211.09,9125.65,-9.1526,-12.9018,-19.3666,9983.13,342.166,13066.5,-7.01229,335.638,-196.321,-2129.71,10247.1,-297.939,14.6823,-26.6478,-28.6385,-2200.42,14710.8,-532.379,48.0333,-147.449,-345.166,1182.58,10080.4,365.256,62.7093,-143.801,-134.351,-6723.4,-4127.12,-2700.6,-16.4902,92.5381,-118.397,6802.87,2447.63,69.2236,-29.8508,18.8117,-5.49738
2.6535,4008.78,1202.66,9141.11,-9.53609,-13.2008,-19.3707,10008.0,285.607,13084.4,-6.84674,335.396,-196.739,-2094.88,10250.3,-298.486,14.8111,-26.7818,-28.8675,-2150.66,14791.6,-567.794,47.6515,-147.725,-345.44,1221.01,10065.5,379.626,62.5542,-144.468,-134.524,-6701.44,-4129.69,-2660.68,-15.5799,93.5466,-117.277,6799.29,2453.22,73.2344,-30.5714,18.6257,-5.35283
2.654,3991.86,1191.91,9157.69,-10.0059,-13.525,-19.4758,10053.7,256.35,13095.4,-6.60011,335.117,-197.052,-2053.11,10248.8,-316.63,14.9449,-26.8791,-29.0568,-2070.4,14870.4,-600.511,47.2839,-147.753,-345.696,1253.78,10061.0,416.968,62.3073,-145.321,-134.462,-6673.9,-4129.16,-2581.14,-14.1975,94.5323,-116.297,6792.43,2452.64,73.4933,-31.2853,18.4018,-5.21737
2.6545,3974.94,1181.17,9174.28,-10.4756,-13.8491,-19.581,10099.4,227.093,13106.4,-6.35348,334.837,-197.365,-2011.34,10247.4,-334.775,15.0788,-26.9764,-29.246,-1990.15,14949.2,-633.229,46.9163,-147.782,-345.953,1286.54,10056.6,454.31,62.0604,-146.175,-134.401,-6646.36,-4128.63,-2501.59,-12.8151,95.5179,-115.316,6785.58,2452.06,73.7521,-31.9993,18.1779,-5.08191
2.655,3958.02,1170.43,9190.86,-10.9454,-14.1733,-19.6862,10145.1,197.836,13117.5,-6.10684,334.558,-197.678,-1969.57,10245.9,-352.919,15.2126,-27.0737,-29.4352,-1909.9,15028.0,-665.947,46.5487,-147.811,-346.209,1319.31,10052.2,491.652,61.8135,-147.029,-134.34,-6618.82,-4128.09,-2422.05,-11.4326,96.5035,-114.335,6778.73,2451.48,74.011,-32.7133,17.9541,-4.94646
2.6555,3941.11,1159.68,9207.44,-11.4152,-14.4974,-19.7914,10190.8,168.578,13128.5,-5.86021,334.279,-197.992,-1927.8,10244.5,-371.063,15.3465,-27.171,-29.6244,-1829.65,15106.9,-698.664,46.1812,-147.84,-346.466,1352.08,10047.8,528.994,61.5665,-147.882,-134.278,-6591.27,-4127.56,-2342.51,-10.0502,97.4892,-113.354,6771.87,2450.9,74.2698,-33.4273,17.7302,-4.811
2.656,3924.19,1148.94,9224.03,-11.8849,-14.8216,-19.8965,10236.5,139.321,13139.5,-5.61358,334.0,-198.305,-1886.03,10243.0,-389.208,15.4803,-27.2683,-29.8136,-1749.39,15185.7,-731.382,45.8136,-147.868,-346.722,1384.84,10043.3,566.336,61.3196,-148.736,-134.217,-6563.73,-4127.03,-2262.97,-8.66778,98.4748,-112.374,6765.02,2450.32,74.5287,-34.1413,17.5063,-4.67554
2.6565,3907.27,1138.19,9240.61,-12.3547,-15.1457,-20.0017,10282.2,110.064,13150.5,-5.36695,333.72,-198.618,-1844.27,10241.6,-407.352,15.6142,-27.3656,-30.0029,-1669.14,15264.5,-764.099,45.446,-147.897,-346.978,1417.61,10038.9,603.678,61.0727,-149.59,-134.155,-6536.19,-4126.5,-2183.42,-7.28535,99.4604,-111.393,6758.17,2449.74,74.7875,-34.8553,17.2824,-4.54008
2.657,3890.35,1127.45,9257.19,-12.8245,-15.4699,-20.1069,10327.9,80.8064,13161.6,-5.12032,333.441,-198.931,-1802.5,10240.1,-425.496,15.748,-27.4629,-30.1921,-1588.89,15343.3,-796.817,45.0784,-147.926,-347.235,1450.37,10034.5,641.02,60.8258,-150.443,-134.094,-6508.65,-4125.97,-2103.88,-5.90293,100.446,-110.412,6751.31,2449.16,75.0464,-35.5693,17.0585,-4.40463
2.6575,3873.43,1116.71,9273.78,-13.2943,-15.794,-20.2121,10373.6,51.5491,13172.6,-4.87369,333.161,-199.244,-1760.73,10238.7,-443.641,15.8818,-27.5602,-30.3813,-1508.64,15422.2,-829.534,44.7109,-147.954,-347.491,1483.14,10030.0,678.362,60.5789,-151.297,-134.032,-6481.11,-4125.43,-2024.34,-4.5205,101.432,-109.431,6744.46,2448.58,75.3052,-36.2832,16.8346,-4.26917
2.658,3853.9,1104.93,9277.97,-13.7472,-16.1046,-20.2843,10432.7,29.2983,13183.6,-4.65329,332.9,-199.503,-1729.79,10228.4,-470.924,16.0129,-27.6983,-30.6326,-1432.11,15493.9,-860.396,44.3549,-147.859,-347.735,1519.78,10007.9,668.647,60.084,-151.986,-133.914,-6445.51,-4136.28,-1916.63,-2.94222,101.898,-108.566,6743.28,2444.13,73.7475,-37.0145,16.6346,-4.17162
2.6585,3831.11,1091.86,9266.66,-14.1792,-16.3981,-20.3154,10508.6,15.8056,13194.7,-4.46567,332.662,-199.694,-1712.41,10207.1,-509.632,16.1404,-27.8876,-30.9615,-1360.24,15556.8,-888.938,44.0133,-147.608,-347.963,1561.26,9963.63,600.111,59.2793,-152.468,-133.724,-6399.86,-4161.36,-1773.7,-1.11911,101.715,-107.846,6749.2,2434.85,69.9191,-37.7672,16.4645,-4.12144
2.659,3808.32,1078.8,9255.35,-14.6112,-16.6917,-20.3465,10584.5,2.31295,13205.7,-4.27806,332.423,-199.885,-1695.02,10185.8,-548.341,16.2679,-28.0768,-31.2904,-1288.36,15619.7,-917.48,43.6718,-147.357,-348.191,1602.74,9919.37,531.574,58.4745,-152.951,-133.535,-6354.21,-4186.44,-1630.78,0.704004,101.533,-107.125,6755.11,2425.56,66.0907,-38.5199,16.2945,-4.07127
2.6595,3785.53,1065.73,9244.05,-15.0432,-16.9852,-20.3776,10660.3,-11.1797,13216.8,-4.09044,332.184,-200.076,-1677.64,10164.5,-587.049,16.3954,-28.266,-31.6192,-1216.49,15682.5,-946.022,43.3303,-147.106,-348.419,1644.21,9875.11,463.038,57.6698,-153.434,-133.345,-6308.55,-4211.52,-1487.85,2.52711,101.35,-106.405,6761.02,2416.28,62.2624,-39.2727,16.1244,-4.0211
2.66,3762.74,1052.67,9232.74,-15.4752,-17.2788,-20.4087,10736.2,-24.6724,13227.9,-3.90282,331.945,-200.267,-1660.25,10143.2,-625.757,16.5229,-28.4552,-31.9481,-1144.62,15745.4,-974.564,42.9888,-146.856,-348.647,1685.69,9830.86,394.501,56.865,-153.916,-133.156,-6262.9,-4236.6,-1344.92,4.35022,101.167,-105.684,6766.94,2406.99,58.434,-40.0254,15.9543,-3.97092
2.6605,3739.95,1039.6,9221.43,-15.9071,-17.5723,-20.4398,10812.1,-38.1651,13238.9,-3.7152,331.707,-200.458,-1642.87,10121.9,-664.465,16.6504,-28.6445,-32.277,-1072.74,15808.3,-1003.11,42.6472,-146.605,-348.875,1727.17,9786.6,325.965,56.0603,-154.399,-132.966,-6217.24,-4261.68,-1202.0,6.17334,100.985,-104.964,6772.85,2397.71,54.6056,-40.7782,15.7842,-3.92075
2.661,3717.16,1026.54,9210.13,-16.3391,-17.8659,-20.4708,10888.0,-51.6578,13250.0,-3.52759,331.468,-200.65,-1625.48,10100.5,-703.173,16.7779,-28.8337,-32.6059,-1000.87,15871.2,-1031.65,42.3057,-146.354,-349.103,1768.65,9742.34,257.428,55.2555,-154.882,-132.777,-6171.59,-4286.76,-1059.07,7.99645,100.802,-104.243,6778.77,2388.42,50.7772,-41.5309,15.6141,-3.87058
2.6615,3694.36,1013.47,9198.82,-16.7711,-18.1595,-20.5019,10963.9,-65.1505,13261.0,-3.33997,331.229,-200.841,-1608.1,10079.2,-741.881,16.9054,-29.0229,-32.9348,-928.997,15934.1,-1060.19,41.9642,-146.103,-349.331,1810.13,9698.08,188.892,54.4508,-155.364,-132.587,-6125.93,-4311.83,-916.146,9.81956,100.619,-103.523,6784.68,2379.14,46.9488,-42.2836,15.444,-3.8204
2.662,3671.57,1000.41,9187.51,-17.2031,-18.453,-20.533,11039.7,-78.6432,13272.1,-3.15235,330.991,-201.032,-1590.71,10057.9,-780.589,17.0329,-29.2121,-33.2636,-857.124,15996.9,-1088.73,41.6226,-145.852,-349.559,1851.61,9653.82,120.355,53.646,-155.847,-132.397,-6080.28,-4336.91,-773.22,11.6427,100.437,-102.802,6790.6,2369.85,43.1204,-43.0364,15.2739,-3.77023
2.6625,3668.55,957.261,9177.68,-17.5527,-18.7148,-20.6319,11119.8,-92.1185,13285.8,-3.05131,330.758,-201.16,-1575.05,10042.2,-832.005,17.117,-29.4153,-33.5879,-781.758,16059.4,-1122.45,41.2692,-145.462,-349.778,1887.16,9609.39,18.8661,52.8639,-155.844,-132.164,-6023.54,-4368.0,-644.834,13.4176,99.4342,-102.208,6801.75,2358.28,37.1834,-43.7973,15.0818,-3.70627
2.663,3681.35,890.054,9169.04,-17.8365,-18.9512,-20.785,11203.2,-105.58,13301.6,-3.01953,330.531,-201.239,-1560.76,10030.8,-893.586,17.1663,-29.6297,-33.9085,-703.597,16121.4,-1160.31,40.9063,-144.96,-349.988,1917.97,9564.82,-108.985,52.0998,-155.452,-131.895,-5957.95,-4403.9,-528.08,15.1539,97.7762,-101.716,6817.11,2344.88,29.5594,-44.5647,14.8722,-3.63128
2.6635,3694.15,822.846,9160.39,-18.1202,-19.1876,-20.938,11286.6,-119.041,13317.4,-2.98775,330.304,-201.318,-1546.47,10019.4,-955.167,17.2156,-29.844,-34.2291,-625.437,16183.4,-1198.17,40.5433,-144.459,-350.199,1948.79,9520.25,-236.836,51.3357,-155.061,-131.626,-5892.35,-4439.79,-411.327,16.8902,96.1182,-101.224,6832.46,2331.47,21.9355,-45.3321,14.6625,-3.55629
2.664,3706.95,755.638,9151.74,-18.404,-19.4239,-21.0911,11369.9,-132.503,13333.2,-2.95597,330.077,-201.397,-1532.19,10008.1,-1016.75,17.2649,-30.0583,-34.5497,-547.277,16245.5,-1236.03,40.1804,-143.957,-350.409,1979.6,9475.68,-364.687,50.5716,-154.67,-131.358,-5826.75,-4475.69,-294.573,18.6265,94.4602,-100.732,6847.81,2318.07,14.3115,-46.0995,14.4528,-3.48129
2.6645,3719.75,688.43,9143.09,-18.6877,-19.6603,-21.2442,11453.3,-145.964,13349.0,-2.92419,329.85,-201.476,-1517.9,9996.71,-1078.33,17.3142,-30.2726,-34.8702,-469.117,16307.5,-1273.88,39.8175,-143.455,-350.62,2010.42,9431.1,-492.538,49.8075,-154.278,-131.089,-5761.15,-4511.59,-177.819,20.3628,92.8023,-100.24,6863.17,2304.67,6.68753,-46.8669,14.2432,-3.4063
2.665,3732.55,621.222,9134.44,-18.9715,-19.8967,-21.3973,11536.7,-159.425,13364.8,-2.8924,329.623,-201.554,-1503.62,9985.35,-1139.91,17.3635,-30.487,-35.1908,-390.956,16369.5,-1311.74,39.4545,-142.953,-350.83,2041.23,9386.53,-620.389,49.0434,-153.887,-130.82,-5695.55,-4547.48,-61.0649,22.0992,91.1443,-99.7477,6878.52,2291.26,-0.936438,-47.6343,14.0335,-3.33131
2.6655,3745.35,554.014,9125.79,-19.2553,-20.1331,-21.5504,11620.1,-172.887,13380.6,-2.86062,329.396,-201.633,-1489.33,9973.99,-1201.49,17.4128,-30.7013,-35.5114,-312.796,16431.5,-1349.6,39.0916,-142.451,-351.041,2072.04,9341.96,-748.24,48.2793,-153.496,-130.551,-5629.95,-4583.38,55.689,23.8355,89.4863,-99.2556,6893.87,2277.86,-8.5604,-48.4018,13.8238,-3.25632
2.666,3758.15,486.807,9117.14,-19.539,-20.3695,-21.7034,11703.5,-186.348,13396.5,-2.82884,329.169,-201.712,-1475.04,9962.63,-1263.07,17.4621,-30.9156,-35.832,-234.636,16493.6,-1387.46,38.7287,-141.95,-351.252,2102.86,9297.39,-876.091,47.5152,-153.104,-130.283,-5564.35,-4619.28,172.443,25.5718,87.8283,-98.7634,6909.23,2264.46,-16.1844,-49.1692,13.6142,-3.18133
2.6665,3770.94,419.599,9108.49,-19.8228,-20.6058,-21.8565,11786.9,-199.809,13412.3,-2.79706,328.941,-201.791,-1460.76,9951.26,-1324.66,17.5114,-31.13,-36.1526,-156.476,16555.6,-1425.32,38.3657,-141.448,-351.462,2133.67,9252.82,-1003.94,46.7511,-152.713,-130.014,-5498.75,-4655.17,289.197,27.3081,86.1703,-98.2713,6924.58,2251.05,-23.8083,-49.9366,13.4045,-3.10634
2.667,3788.59,357.044,9108.15,-20.0888,-20.8453,-21.9772,11881.2,-204.175,13429.9,-2.89664,328.754,-201.706,-1449.27,9951.56,-1380.46,17.4997,-31.4515,-36.535,-69.1208,16622.5,-1458.47,37.9915,-140.761,-351.72,2154.98,9229.06,-1109.55,46.0404,-152.122,-129.634,-5452.68,-4664.23,357.643,28.7642,83.8022,-97.9346,6933.45,2236.89,-20.1087,-50.6802,13.1578,-3.03638
2.6675,3808.67,296.815,9111.96,-20.3459,-21.0862,-22.0816,11980.9,-203.994,13448.3,-3.0619,328.588,-201.54,-1439.19,9957.69,-1433.37,17.4575,-31.8267,-36.9483,22.8313,16691.8,-1489.27,37.6116,-139.982,-352.003,2171.53,9215.71,-1204.02,45.3563,-151.432,-129.199,-5416.36,-4659.87,401.935,30.0801,81.0792,-97.6756,6939.07,2222.34,-10.7473,-51.412,12.8925,-2.96893
2.668,3828.75,236.587,9115.78,-20.6031,-21.3272,-22.1861,12080.6,-203.812,13466.8,-3.22716,328.421,-201.374,-1429.11,9963.82,-1486.28,17.4154,-32.2019,-37.3616,114.783,16761.1,-1520.06,37.2317,-139.203,-352.285,2188.08,9202.36,-1298.5,44.6722,-150.742,-128.764,-5380.04,-4655.5,446.228,31.396,78.3562,-97.4166,6944.69,2207.79,-1.38589,-52.1437,12.6273,-2.90148
2.6685,3848.82,176.358,9119.59,-20.8603,-21.5682,-22.2906,12180.3,-203.631,13485.3,-3.39242,328.254,-201.208,-1419.02,9969.95,-1539.19,17.3732,-32.5771,-37.7749,206.736,16830.4,-1550.86,36.8518,-138.424,-352.567,2204.63,9189.0,-1392.98,43.9882,-150.051,-128.328,-5343.72,-4651.14,490.52,32.7119,75.6331,-97.1577,6950.31,2193.24,7.97553,-52.8755,12.362,-2.83404
2.669,3868.9,116.129,9123.4,-21.1174,-21.8092,-22.3951,12280.0,-203.449,13503.7,-3.55768,328.087,-201.042,-1408.94,9976.08,-1592.1,17.3311,-32.9522,-38.1882,298.688,16899.7,-1581.66,36.4719,-137.645,-352.85,2221.18,9175.65,-1487.46,43.3041,-149.361,-127.893,-5307.4,-4646.77,534.812,34.0278,72.9101,-96.8987,6955.93,2178.69,17.3369,-53.6073,12.0967,-2.76659
2.6695,3888.97,55.9009,9127.22,-21.3746,-22.0501,-22.4995,12379.7,-203.268,13522.2,-3.72294,327.92,-200.876,-1398.86,9982.21,-1645.01,17.2889,-33.3274,-38.6016,390.64,16969.0,-1612.46,36.092,-136.866,-353.132,2237.73,9162.3,-1581.94,42.62,-148.671,-127.458,-5271.08,-4642.41,579.105,35.3438,70.187,-96.6397,6961.55,2164.13,26.6984,-54.339,11.8315,-2.69915
2.67,3909.05,-4.32769,9131.03,-21.6317,-22.2911,-22.604,12479.4,-203.086,13540.6,-3.88821,327.753,-200.71,-1388.78,9988.34,-1697.92,17.2468,-33.7026,-39.0149,482.592,17038.3,-1643.26,35.7121,-136.087,-353.414,2254.29,9148.95,-1676.42,41.936,-147.981,-127.023,-5234.76,-4638.05,623.397,36.6597,67.464,-96.3807,6967.17,2149.58,36.0598,-55.0708,11.5662,-2.6317
2.6705,3929.13,-64.5563,9134.84,-21.8889,-22.5321,-22.7085,12579.1,-202.904,13559.1,-4.05347,327.587,-200.544,-1378.69,9994.47,-1750.83,17.2046,-34.0778,-39.4282,574.544,17107.6,-1674.05,35.3322,-135.308,-353.696,2270.84,9135.6,-1770.9,41.2519,-147.29,-126.587,-5198.44,-4633.68,667.689,37.9756,64.741,-96.1218,6972.79,2135.03,45.4212,-55.8025,11.301,-2.56426
2.671,3949.2,-124.785,9138.66,-22.146,-22.7731,-22.8129,12678.8,-202.723,13577.6,-4.21873,327.42,-200.377,-1368.61,10000.6,-1803.75,17.1624,-34.4529,-39.8415,666.496,17176.9,-1704.85,34.9523,-134.529,-353.979,2287.39,9122.25,-1865.38,40.5678,-146.6,-126.152,-5162.12,-4629.32,711.982,39.2915,62.0179,-95.8628,6978.41,2120.48,54.7826,-56.5343,11.0357,-2.49681
2.6715,3957.49,-151.736,9142.74,-22.2702,-22.9994,-23.0622,12777.8,-186.311,13572.7,-4.53594,327.306,-199.946,-1371.61,10002.5,-1840.3,17.0118,-34.8078,-40.2125,752.943,17245.1,-1728.26,34.6324,-133.75,-354.196,2294.67,9139.15,-1939.73,39.5601,-145.828,-125.604,-5127.45,-4622.05,703.019,40.0127,58.8354,-95.4489,6982.72,2097.86,68.3167,-57.1871,10.7058,-2.45412
2.672,3962.4,-169.179,9146.9,-22.3563,-23.2215,-23.3529,12876.7,-165.261,13561.1,-4.89657,327.208,-199.438,-1378.35,10003.2,-1872.19,16.8302,-35.1569,-40.5714,837.816,17312.9,-1749.56,34.3298,-132.971,-354.395,2299.31,9164.7,-2008.32,38.4599,-145.032,-125.024,-5093.26,-4613.95,678.84,40.5639,55.5217,-94.9907,6986.66,2072.93,83.0431,-57.8173,10.3574,-2.4185
2.6725,3967.31,-186.622,9151.06,-22.4424,-23.4436,-23.6435,12975.5,-144.212,13549.6,-5.25719,327.109,-198.93,-1385.09,10004.0,-1904.07,16.6486,-35.506,-40.9303,922.689,17380.7,-1770.86,34.0272,-132.191,-354.593,2303.94,9190.24,-2076.92,37.3596,-144.236,-124.444,-5059.07,-4605.85,654.661,41.1151,52.2079,-94.5325,6990.59,2048.0,97.7694,-58.4476,10.0091,-2.38288
2.673,3972.23,-204.065,9155.22,-22.5285,-23.6658,-23.9342,13074.4,-123.162,13538.0,-5.61782,327.011,-198.422,-1391.83,10004.7,-1935.95,16.4669,-35.8551,-41.2891,1007.56,17448.6,-1792.15,33.7245,-131.412,-354.792,2308.58,9215.79,-2145.52,36.2594,-143.44,-123.864,-5024.88,-4597.75,630.482,41.6663,48.8942,-94.0744,6994.52,2023.06,112.496,-59.0778,9.66067,-2.34726
2.6735,3977.14,-221.508,9159.38,-22.6146,-23.8879,-24.2249,13173.2,-102.113,13526.4,-5.97845,326.912,-197.914,-1398.57,10005.4,-1967.84,16.2853,-36.2042,-41.648,1092.44,17516.4,-1813.45,33.4219,-130.633,-354.991,2313.21,9241.34,-2214.11,35.1591,-142.644,-123.284,-4990.69,-4589.65,606.302,42.2175,45.5804,-93.6162,6998.46,1998.13,127.222,-59.708,9.31228,-2.31164
2.674,3982.06,-238.951,9163.54,-22.7007,-24.11,-24.5155,13272.1,-81.0631,13514.9,-6.33908,326.814,-197.406,-1405.31,10006.1,-1999.72,16.1037,-36.5533,-42.0069,1177.31,17584.3,-1834.75,33.1193,-129.854,-355.19,2317.85,9266.89,-2282.71,34.0589,-141.848,-122.704,-4956.5,-4581.55,582.123,42.7687,42.2666,-93.158,7002.39,1973.2,141.948,-60.3383,8.96389,-2.27602
2.6745,3986.97,-256.394,9167.7,-22.7868,-24.3322,-24.8062,13371.0,-60.0136,13503.3,-6.69971,326.715,-196.898,-1412.05,10006.8,-2031.6,15.9221,-36.9024,-42.3658,1262.18,17652.1,-1856.05,32.8166,-129.075,-355.388,2322.48,9292.43,-2351.31,32.9587,-141.052,-122.125,-4922.31,-4573.46,557.944,43.3199,38.9529,-92.6998,7006.33,1948.27,156.675,-60.9685,8.61551,-2.2404
2.675,3991.88,-273.837,9171.87,-22.8729,-24.5543,-25.0969,13469.8,-38.9641,13491.7,-7.06033,326.617,-196.39,-1418.79,10007.6,-2063.49,15.7404,-37.2514,-42.7247,1347.05,17720.0,-1877.34,32.514,-128.295,-355.587,2327.12,9317.98,-2419.91,31.8584,-140.257,-121.545,-4888.12,-4565.36,533.765,43.8711,35.6391,-92.2417,7010.26,1923.34,171.401,-61.5988,8.26712,-2.20478
2.6755,3996.8,-291.28,9176.03,-22.959,-24.7764,-25.3875,13568.7,-17.9145,13480.2,-7.42096,326.518,-195.882,-1425.53,10008.3,-2095.37,15.5588,-37.6005,-43.0836,1431.93,17787.8,-1898.64,32.2114,-127.516,-355.786,2331.75,9343.53,-2488.5,30.7582,-139.461,-120.965,-4853.92,-4557.26,509.586,44.4223,32.3254,-91.7835,7014.19,1898.4,186.127,-62.229,7.91874,-2.16915
2.676,4009.19,-275.19,9181.59,-23.202,-25.0022,-25.5614,13667.4,-3.59858,13448.9,-7.96413,326.402,-195.114,-1451.08,10013.0,-2099.13,15.3487,-37.942,-43.4053,1513.95,17850.5,-1916.29,31.8093,-126.671,-355.924,2334.88,9410.34,-2581.58,29.4757,-138.418,-120.149,-4842.42,-4552.27,448.976,44.3609,29.053,-91.0557,7017.5,1876.27,212.64,-62.8299,7.48155,-2.07413
2.6765,4022.53,-254.909,9187.33,-23.4646,-25.2284,-25.7206,13766.1,9.87569,13415.1,-8.53012,326.283,-194.312,-1478.98,10018.2,-2099.38,15.1349,-38.2826,-43.7223,1595.61,17912.5,-1933.47,31.3947,-125.818,-356.055,2337.83,9482.32,-2677.72,28.1704,-137.345,-119.304,-4833.76,-4547.67,383.811,44.2229,25.7858,-90.2942,7020.74,1854.48,240.626,-63.4272,7.03327,-1.97167
2.677,4035.86,-234.628,9193.06,-23.7272,-25.4546,-25.8799,13864.7,23.35,13381.3,-9.0961,326.163,-193.511,-1506.88,10023.3,-2099.63,14.9212,-38.6231,-44.0394,1677.27,17974.6,-1950.66,30.9802,-124.965,-356.185,2340.77,9554.3,-2773.86,26.8651,-136.271,-118.459,-4825.09,-4543.07,318.646,44.0849,22.5186,-89.5327,7023.97,1832.7,268.612,-64.0245,6.58499,-1.86922
2.6775,4049.19,-214.346,9198.8,-23.9898,-25.6808,-26.0392,13963.4,36.8242,13347.5,-9.66209,326.044,-192.71,-1534.77,10028.5,-2099.88,14.7075,-38.9637,-44.3565,1758.93,18036.6,-1967.85,30.5657,-124.112,-356.316,2343.71,9626.27,-2870.0,25.5599,-135.198,-117.614,-4816.42,-4538.47,253.481,43.9469,19.2514,-88.7712,7027.2,1810.91,296.598,-64.6217,6.13671,-1.76677
2.678,4062.52,-194.065,9204.54,-24.2524,-25.907,-26.1984,14062.1,50.2985,13313.8,-10.2281,325.925,-191.908,-1562.67,10033.7,-2100.13,14.4938,-39.3042,-44.6735,1840.59,18098.7,-1985.04,30.1511,-123.259,-356.447,2346.66,9698.25,-2966.13,24.2546,-134.125,-116.769,-4807.76,-4533.87,188.317,43.8089,15.9842,-88.0098,7030.43,1789.13,324.584,-65.219,5.68842,-1.66432
2.6785,4075.85,-173.784,9210.28,-24.5149,-26.1332,-26.3577,14160.7,63.7728,13280.0,-10.7941,325.806,-191.107,-1590.57,10038.9,-2100.38,14.2801,-39.6448,-44.9906,1922.25,18160.7,-2002.22,29.7366,-122.407,-356.578,2349.6,9770.22,-3062.27,22.9493,-133.051,-115.924,-4799.09,-4529.27,123.152,43.6709,12.717,-87.2483,7033.66,1767.34,352.57,-65.8162,5.24014,-1.56186
2.679,4089.18,-153.503,9216.02,-24.7775,-26.3594,-26.517,14259.4,77.247,13246.2,-11.36,325.687,-190.306,-1618.47,10044.1,-2100.62,14.0663,-39.9853,-45.3077,2003.91,18222.8,-2019.41,29.3221,-121.554,-356.708,2352.55,9842.2,-3158.41,21.6441,-131.978,-115.079,-4790.42,-4524.67,57.9872,43.5329,9.44978,-86.4868,7036.9,1745.55,380.556,-66.4135,4.79186,-1.45941
2.6795,4102.51,-133.222,9221.75,-25.0401,-26.5857,-26.6762,14358.1,90.7213,13212.4,-11.926,325.568,-189.504,-1646.37,10049.3,-2100.87,13.8526,-40.3259,-45.6247,2085.58,18284.8,-2036.6,28.9075,-120.701,-356.839,2355.49,9914.17,-3254.55,20.3388,-130.904,-114.234,-4781.76,-4520.06,-7.17756,43.3949,6.18258,-85.7253,7040.13,1723.77,408.543,-67.0108,4.34357,-1.35696
2.68,4115.84,-112.941,9227.49,-25.3027,-26.8119,-26.8355,14456.8,104.196,13178.6,-12.492,325.449,-188.703,-1674.26,10054.5,-2101.12,13.6389,-40.6664,-45.9418,2167.24,18346.8,-2053.79,28.493,-119.848,-356.97,2358.43,9986.15,-3350.69,19.0335,-129.831,-113.389,-4773.09,-4515.46,-72.3423,43.2569,2.91538,-84.9638,7043.36,1701.98,436.529,-67.608,3.89529,-1.2545
2.6805,4119.91,-90.9469,9223.97,-25.3731,-27.0616,-26.9396,14548.0,65.4679,13149.2,-13.0316,325.185,-187.733,-1669.94,10082.3,-2106.02,13.4173,-40.9391,-46.3471,2251.99,18424.0,-2065.92,27.9689,-118.95,-356.943,2361.73,10073.8,-3434.14,17.5869,-128.763,-112.404,-4794.97,-4526.55,-145.405,42.7273,0.242428,-83.9262,7036.58,1680.23,464.285,-68.172,3.18856,-1.08643
2.681,4123.98,-68.9532,9220.46,-25.4436,-27.3113,-27.0437,14639.3,26.7403,13119.7,-13.5712,324.921,-186.762,-1665.61,10110.0,-2110.92,13.1957,-41.2117,-46.7524,2336.75,18501.2,-2078.05,27.4447,-118.052,-356.916,2365.02,10161.4,-3517.6,16.1402,-127.695,-111.42,-4816.85,-4537.63,-218.467,42.1978,-2.43053,-82.8886,7029.79,1658.47,492.042,-68.736,2.48182,-0.918353
2.6815,4128.06,-46.9595,9216.94,-25.514,-27.561,-27.1478,14730.6,-11.9874,13090.2,-14.1107,324.657,-185.792,-1661.28,10137.8,-2115.82,12.974,-41.4844,-47.1578,2421.5,18578.4,-2090.18,26.9206,-117.154,-356.889,2368.32,10249.0,-3601.06,14.6935,-126.627,-110.435,-4838.73,-4548.72,-291.529,41.6683,-5.10348,-81.851,7023.01,1636.72,519.798,-69.3,1.77509,-0.750278
2.682,4132.13,-24.9658,9213.42,-25.5844,-27.8107,-27.252,14821.9,-50.715,13060.8,-14.6503,324.394,-184.821,-1656.95,10165.6,-2120.72,12.7524,-41.757,-47.5631,2506.26,18655.6,-2102.31,26.3964,-116.256,-356.862,2371.61,10336.6,-3684.51,13.2469,-125.559,-109.45,-4860.61,-4559.8,-364.591,41.1387,-7.77643,-80.8135,7016.23,1614.97,547.555,-69.864,1.06835,-0.582203
2.6825,4136.2,-2.97212,9209.9,-25.6548,-28.0604,-27.3561,14913.1,-89.4427,13031.3,-15.1899,324.13,-183.851,-1652.63,10193.4,-2125.62,12.5308,-42.0297,-47.9684,2591.01,18732.8,-2114.44,25.8723,-115.358,-356.835,2374.9,10424.2,-3767.97,11.8002,-124.491,-108.465,-4882.49,-4570.89,-437.654,40.6092,-10.4494,-79.7759,7009.45,1593.21,575.311,-70.428,0.361621,-0.414128
2.683,4140.27,19.0216,9206.39,-25.7252,-28.3101,-27.4602,15004.4,-128.17,13001.8,-15.7295,323.866,-182.881,-1648.3,10221.2,-2130.52,12.3092,-42.3024,-48.3737,2675.77,18810.0,-2126.56,25.3481,-114.46,-356.808,2378.2,10511.8,-3851.42,10.3535,-123.424,-107.481,-4904.37,-4581.97,-510.716,40.0797,-13.1223,-78.7383,7002.67,1571.46,603.068,-70.992,-0.345113,-0.246053
2.6835,4144.34,41.0153,9202.87,-25.7956,-28.5598,-27.5643,15095.7,-166.898,12972.4,-16.269,323.602,-181.91,-1643.97,10249.0,-2135.42,12.0876,-42.575,-48.779,2760.52,18887.2,-2138.69,24.824,-113.562,-356.781,2381.49,10599.4,-3934.88,8.90687,-122.356,-106.496,-4926.25,-4593.06,-583.778,39.5501,-15.7953,-77.7007,6995.88,1549.71,630.825,-71.556,-1.05185,-0.0779782
2.684,4148.41,63.009,9199.35,-25.8661,-28.8095,-27.6685,15187.0,-205.626,12942.9,-16.8086,323.338,-180.94,-1639.64,10276.8,-2140.32,11.8659,-42.8477,-49.1844,2845.28,18964.4,-2150.82,24.2998,-112.664,-356.754,2384.79,10687.0,-4018.34,7.46021,-121.288,-105.511,-4948.13,-4604.14,-656.841,39.0206,-18.4682,-76.6631,6989.1,1527.95,658.581,-72.12,-1.75858,0.0900967
2.6845,4150.53,79.6651,9196.52,-25.9167,-29.0531,-27.7727,15275.7,-250.091,12913.2,-17.3196,323.05,-179.934,-1633.57,10303.5,-2145.56,11.6338,-43.1124,-49.591,2930.34,19042.1,-2161.51,23.7624,-111.75,-356.718,2391.0,10771.7,-4103.89,6.07174,-120.18,-104.543,-4969.71,-4617.91,-729.053,38.4782,-21.0184,-75.6029,6983.11,1505.16,685.18,-72.6767,-2.46114,0.248438
2.685,4137.0,53.6207,9199.15,-25.8095,-29.2476,-27.8778,15343.8,-340.459,12881.7,-17.6023,322.57,-178.647,-1613.55,10321.3,-2153.52,11.3176,-43.314,-50.008,3017.8,19124.0,-2160.59,23.1183,-110.705,-356.615,2420.58,10832.6,-4206.22,5.14886,-118.754,-103.707,-4988.96,-4653.19,-794.47,37.8334,-22.5859,-74.3611,6983.44,1474.05,702.516,-73.1747,-3.13033,0.32891
2.6855,4123.47,27.5763,9201.79,-25.7024,-29.4421,-27.9829,15411.8,-430.826,12850.2,-17.8849,322.089,-177.36,-1593.53,10339.0,-2161.48,11.0013,-43.5155,-50.425,3105.26,19205.9,-2159.68,22.4742,-109.661,-356.512,2450.16,10893.6,-4308.54,4.22598,-117.327,-102.871,-5008.21,-4688.46,-859.886,37.1886,-24.1534,-73.1194,6983.77,1442.94,719.851,-73.6727,-3.79951,0.409383
2.686,4109.94,1.53184,9204.42,-25.5952,-29.6366,-28.088,15479.9,-521.194,12818.7,-18.1675,321.609,-176.073,-1573.51,10356.8,-2169.45,10.6851,-43.717,-50.842,3192.73,19287.8,-2158.77,21.8301,-108.617,-356.409,2479.74,10954.5,-4410.87,3.3031,-115.901,-102.036,-5027.45,-4723.73,-925.302,36.5438,-25.7209,-71.8777,6984.1,1411.82,737.187,-74.1707,-4.4687,0.489855
2.6865,4096.41,-24.5126,9207.06,-25.488,-29.8311,-28.1931,15548.0,-611.561,12787.2,-18.4501,321.128,-174.786,-1553.49,10374.6,-2177.41,10.3688,-43.9186,-51.259,3280.19,19369.7,-2157.86,21.1861,-107.573,-356.306,2509.33,11015.4,-4513.19,2.38022,-114.475,-101.2,-5046.7,-4759.01,-990.718,35.899,-27.2884,-70.6359,6984.43,1380.71,754.523,-74.6687,-5.13789,0.570328
2.687,4082.89,-50.557,9209.69,-25.3808,-30.0257,-28.2982,15616.1,-701.929,12755.7,-18.7328,320.648,-173.499,-1533.48,10392.4,-2185.37,10.0526,-44.1201,-51.676,3367.65,19451.6,-2156.94,20.542,-106.529,-356.203,2538.91,11076.4,-4615.52,1.45734,-113.048,-100.364,-5065.94,-4794.28,-1056.13,35.2542,-28.8559,-69.3942,6984.76,1349.6,771.859,-75.1667,-5.80707,0.6508
2.6875,4069.36,-76.6014,9212.33,-25.2736,-30.2202,-28.4033,15684.1,-792.296,12724.3,-19.0154,320.167,-172.212,-1513.46,10410.1,-2193.34,9.73631,-44.3216,-52.093,3455.11,19533.5,-2156.03,19.8979,-105.485,-356.1,2568.49,11137.3,-4717.84,0.534464,-111.622,-99.5282,-5085.19,-4829.56,-1121.55,34.6093,-30.4234,-68.1525,6985.09,1318.49,789.194,-75.6647,-6.47626,0.731273
2.688,4055.83,-102.646,9214.96,-25.1664,-30.4147,-28.5084,15752.2,-882.664,12692.8,-19.298,319.687,-170.925,-1493.44,10427.9,-2201.3,9.42007,-44.5232,-52.5099,3542.58,19615.4,-2155.12,19.2538,-104.44,-355.997,2598.07,11198.3,-4820.17,-0.388416,-110.195,-98.6924,-5104.44,-4864.83,-1186.97,33.9645,-31.9909,-66.9107,6985.42,1287.38,806.53,-76.1627,-7.14544,0.811745
2.6885,4042.3,-128.69,9217.6,-25.0592,-30.6092,-28.6134,15820.3,-973.032,12661.3,-19.5806,319.206,-169.637,-1473.42,10445.7,-2209.26,9.10382,-44.7247,-52.9269,3630.04,19697.3,-2154.21,18.6098,-103.396,-355.894,2627.65,11259.2,-4922.49,-1.3113,-108.769,-97.8566,-5123.68,-4900.1,-1252.38,33.3197,-33.5585,-65.669,6985.75,1256.27,823.866,-76.6607,-7.81463,0.892217
2.689,4032.37,-151.136,9221.29,-24.9499,-30.8005,-28.7131,15885.0,-1066.46,12631.0,-19.7599,318.671,-168.296,-1451.24,10469.0,-2212.08,8.76834,-44.8838,-53.3411,3724.05,19774.2,-2146.19,17.9551,-102.303,-355.765,2663.15,11315.1,-5029.12,-2.21714,-107.284,-97.0254,-5144.19,-4936.57,-1321.51,32.7116,-34.7338,-64.3894,6987.21,1228.47,837.959,-77.1637,-8.47593,0.996896
2.6895,4035.04,-160.986,9228.71,-24.8331,-30.9804,-28.7939,15938.0,-1170.58,12605.0,-19.5773,317.946,-166.764,-1421.51,10511.7,-2196.87,8.36559,-44.8945,-53.7454,3840.96,19833.7,-2113.33,17.2636,-101.037,-355.547,2719.38,11353.2,-5150.79,-3.06335,-105.592,-96.2105,-5169.1,-4977.22,-1403.63,32.2317,-34.5367,-62.9771,6992.66,1212.29,840.703,-77.6841,-9.10966,1.1863
2.69,4037.7,-170.836,9236.13,-24.7164,-31.1603,-28.8746,15991.0,-1274.7,12579.0,-19.3946,317.221,-165.231,-1391.78,10554.5,-2181.66,7.96284,-44.9052,-54.1497,3957.88,19893.1,-2080.47,16.5721,-99.7718,-355.329,2775.61,11391.3,-5272.45,-3.90956,-103.901,-95.3957,-5194.01,-5017.88,-1485.75,31.7519,-34.3396,-61.5648,6998.11,1196.1,843.446,-78.2045,-9.74339,1.3757
2.6905,4040.36,-180.686,9243.55,-24.5996,-31.3403,-28.9553,16043.9,-1378.82,12553.0,-19.212,316.495,-163.699,-1362.05,10597.2,-2166.45,7.56009,-44.9159,-54.5541,4074.79,19952.6,-2047.6,15.8806,-98.5062,-355.111,2831.84,11429.4,-5394.12,-4.75577,-102.209,-94.5808,-5218.93,-5058.53,-1567.87,31.272,-34.1425,-60.1525,7003.56,1179.91,846.19,-78.7249,-10.3771,1.5651
2.691,4043.03,-190.536,9250.96,-24.4828,-31.5202,-29.0361,16096.9,-1482.95,12526.9,-19.0294,315.77,-162.167,-1332.32,10640.0,-2151.24,7.15734,-44.9265,-54.9584,4191.71,20012.1,-2014.74,15.1891,-97.2406,-354.894,2888.06,11467.6,-5515.79,-5.60199,-100.518,-93.7659,-5243.84,-5099.18,-1649.99,30.7922,-33.9454,-58.7402,7009.0,1163.72,848.934,-79.2453,-11.0108,1.7545
2.6915,4045.69,-200.385,9258.38,-24.366,-31.7001,-29.1168,16149.9,-1587.07,12500.9,-18.8468,315.044,-160.635,-1302.59,10682.7,-2136.03,6.75459,-44.9372,-55.3627,4308.62,20071.5,-1981.87,14.4976,-95.975,-354.676,2944.29,11505.7,-5637.46,-6.4482,-98.8263,-92.951,-5268.75,-5139.83,-1732.11,30.3123,-33.7483,-57.3279,7014.45,1147.54,851.677,-79.7657,-11.6446,1.9439
2.692,4048.35,-210.235,9265.8,-24.2493,-31.88,-29.1975,16202.9,-1691.19,12474.9,-18.6641,314.319,-159.103,-1272.86,10725.4,-2120.82,6.35184,-44.9479,-55.767,4425.54,20131.0,-1949.01,13.8061,-94.7094,-354.458,3000.52,11543.8,-5759.13,-7.29441,-97.1348,-92.1361,-5293.66,-5180.48,-1814.22,29.8325,-33.5512,-55.9156,7019.9,1131.35,854.421,-80.2861,-12.2783,2.1333
2.6925,4051.02,-220.085,9273.22,-24.1325,-32.0599,-29.2783,16255.9,-1795.31,12448.9,-18.4815,313.593,-157.571,-1243.13,10768.2,-2105.61,5.94909,-44.9586,-56.1713,4542.45,20190.5,-1916.15,13.1146,-93.4438,-354.24,3056.75,11581.9,-5880.8,-8.14062,-95.4433,-91.3212,-5318.58,-5221.14,-1896.34,29.3526,-33.3541,-54.5033,7025.35,1115.16,857.165,-80.8064,-12.912,2.3227
2.693,4053.68,-229.935,9280.63,-24.0157,-32.2398,-29.359,16308.8,-1899.44,12422.9,-18.2989,312.868,-156.038,-1213.4,10810.9,-2090.4,5.54634,-44.9693,-56.5756,4659.37,20249.9,-1883.28,12.4231,-92.1782,-354.022,3112.97,11620.1,-6002.47,-8.98683,-93.7518,-90.5063,-5343.49,-5261.79,-1978.46,28.8728,-33.157,-53.091,7030.8,1098.98,859.908,-81.3269,-13.5458,2.5121
2.6935,4055.01,-236.098,9290.2,-23.8394,-32.4622,-29.3906,16368.1,-1991.41,12398.4,-18.0651,312.078,-154.504,-1186.26,10843.1,-2075.79,5.14545,-44.9141,-56.9967,4784.77,20306.8,-1861.28,11.6836,-90.8652,-353.757,3166.35,11663.6,-6070.73,-9.88975,-92.1776,-89.6973,-5359.75,-5306.93,-2050.31,28.4721,-32.2545,-51.7315,7042.2,1083.12,860.28,-81.7729,-14.1849,2.68009
2.694,4053.66,-234.889,9304.05,-23.5441,-32.7696,-29.3239,16440.1,-2059.09,12377.0,-17.7289,311.157,-152.966,-1164.29,10854.0,-2062.37,4.74825,-44.7272,-57.4512,4927.16,20358.4,-1860.98,10.848,-89.4572,-353.398,3214.03,11718.0,-6032.21,-10.9061,-90.8378,-88.9,-5358.7,-5361.06,-2101.63,28.2299,-29.9413,-50.4779,7065.51,1067.94,855.908,-82.0701,-14.8347,2.80524
2.6945,4052.32,-233.679,9317.9,-23.2488,-33.077,-29.2573,16512.0,-2126.76,12355.6,-17.3927,310.237,-151.429,-1142.33,10865.0,-2048.95,4.35106,-44.5403,-57.9057,5069.55,20410.1,-1860.69,10.0124,-88.0492,-353.039,3261.71,11772.3,-5993.68,-11.9224,-89.4981,-88.1027,-5357.66,-5415.19,-2152.95,27.9876,-27.628,-49.2242,7088.83,1052.76,851.535,-82.3673,-15.4846,2.9304
2.695,4050.97,-232.47,9331.75,-22.9535,-33.3843,-29.1906,16584.0,-2194.44,12334.3,-17.0565,309.317,-149.891,-1120.36,10876.0,-2035.54,3.95387,-44.3534,-58.3602,5211.94,20461.8,-1860.4,9.17676,-86.6412,-352.679,3309.39,11826.7,-5955.15,-12.9388,-88.1583,-87.3054,-5356.61,-5469.31,-2204.27,27.7453,-25.3148,-47.9705,7112.15,1037.58,847.163,-82.6646,-16.1345,3.05555
2.6955,4049.63,-231.26,9345.6,-22.6581,-33.6917,-29.1239,16655.9,-2262.11,12312.9,-16.7204,308.397,-148.353,-1098.39,10886.9,-2022.12,3.55668,-44.1665,-58.8147,5354.34,20513.4,-1860.11,8.34115,-85.2331,-352.32,3357.07,11881.1,-5916.62,-13.9551,-86.8186,-86.5081,-5355.56,-5523.44,-2255.59,27.503,-23.0015,-46.7168,7135.46,1022.4,842.791,-82.9618,-16.7844,3.18071
2.696,4048.28,-230.05,9359.45,-22.3628,-33.9991,-29.0573,16727.9,-2329.79,12291.5,-16.3842,307.477,-146.815,-1076.42,10897.9,-2008.7,3.15948,-43.9795,-59.2692,5496.73,20565.1,-1859.82,7.50554,-83.8251,-351.961,3404.75,11935.4,-5878.09,-14.9714,-85.4788,-85.7108,-5354.52,-5577.57,-2306.91,27.2607,-20.6883,-45.4631,7158.78,1007.21,838.419,-83.2591,-17.4343,3.30586
2.6965,4046.93,-228.841,9373.3,-22.0675,-34.3064,-28.9906,16799.8,-2397.47,12270.1,-16.048,306.556,-145.277,-1054.46,10908.9,-1995.28,2.76229,-43.7926,-59.7238,5639.12,20616.8,-1859.53,6.66994,-82.4171,-351.602,3452.43,11989.8,-5839.56,-15.9878,-84.139,-84.9135,-5353.47,-5631.7,-2358.23,27.0184,-18.375,-44.2094,7182.09,992.033,834.046,-83.5563,-18.0841,3.43102
2.697,4045.59,-227.631,9387.15,-21.7722,-34.6138,-28.924,16871.8,-2465.14,12248.8,-15.7118,305.636,-143.74,-1032.49,10919.9,-1981.87,2.3651,-43.6057,-60.1783,5781.51,20668.4,-1859.24,5.83433,-81.0091,-351.242,3500.11,12044.2,-5801.03,-17.0041,-82.7993,-84.1162,-5352.43,-5685.82,-2409.55,26.7761,-16.0618,-42.9557,7205.41,976.851,829.674,-83.8536,-18.734,3.55617
2.6975,4044.24,-226.421,9401.0,-21.4768,-34.9212,-28.8573,16943.7,-2532.82,12227.4,-15.3756,304.716,-142.202,-1010.52,10930.8,-1968.45,1.96791,-43.4188,-60.6328,5923.9,20720.1,-1858.94,4.99872,-79.6011,-350.883,3547.78,12098.5,-5762.5,-18.0204,-81.4595,-83.3189,-5351.38,-5739.95,-2460.87,26.5339,-13.7485,-41.702,7228.72,961.67,825.302,-84.1508,-19.3839,3.68133
2.698,4047.7,-225.394,9405.35,-21.2133,-35.1765,-28.8492,17033.9,-2567.35,12203.4,-15.1595,303.786,-140.658,-997.495,10940.3,-1956.54,1.56828,-43.1907,-61.0949,6055.65,20779.3,-1862.63,4.19755,-78.1543,-350.492,3595.37,12139.4,-5736.94,-19.0474,-80.1878,-82.5484,-5325.87,-5793.07,-2480.33,26.3225,-10.6298,-40.6317,7244.32,948.755,820.861,-84.4025,-20.0212,3.78189
2.6985,4057.16,-224.593,9397.83,-20.9896,-35.3669,-28.9143,17147.0,-2560.47,12176.2,-15.0934,302.846,-139.107,-995.644,10948.0,-1946.52,1.16563,-42.911,-61.5667,6174.09,20847.9,-1871.28,3.43943,-76.6591,-350.062,3642.83,12163.5,-5727.58,-20.0878,-79.0012,-81.8114,-5269.77,-5844.94,-2459.97,26.1497,-6.50414,-39.7905,7250.25,938.675,816.334,-84.5972,-20.6427,3.85171
2.699,4066.63,-223.793,9390.3,-20.7658,-35.5572,-28.9795,17260.1,-2553.58,12149.0,-15.0272,301.905,-137.555,-993.794,10955.7,-1936.49,0.762966,-42.6313,-62.0384,6292.53,20916.6,-1879.92,2.68131,-75.1638,-349.632,3690.3,12187.6,-5718.22,-21.1281,-77.8147,-81.0743,-5213.67,-5896.8,-2439.61,25.977,-2.37852,-38.9492,7256.19,928.595,811.807,-84.7919,-21.2642,3.92153
2.6995,4076.09,-222.993,9382.78,-20.542,-35.7476,-29.0446,17373.2,-2546.69,12121.8,-14.9611,300.964,-136.004,-991.943,10963.3,-1926.47,0.360307,-42.3516,-62.5101,6410.98,20985.2,-1888.57,1.92319,-73.6686,-349.202,3737.76,12211.7,-5708.87,-22.1684,-76.6281,-80.3373,-5157.57,-5948.67,-2419.25,25.8042,1.7471,-38.108,7262.13,918.515,807.28,-84.9867,-21.8858,3.99135
2.7,4085.55,-222.193,9375.25,-20.3183,-35.9379,-29.1097,17486.2,-2539.81,12094.6,-14.895,300.024,-134.453,-990.093,10971.0,-1916.45,-0.042352,-42.0719,-62.9818,6529.42,21053.8,-1897.22,1.16506,-72.1733,-348.772,3785.23,12235.7,-5699.51,-23.2088,-75.4415,-79.6002,-5101.48,-6000.53,-2398.89,25.6315,5.87273,-37.2668,7268.07,908.435,802.753,-85.1814,-22.5073,4.06117
2.7005,4095.01,-221.393,9367.73,-20.0945,-36.1282,-29.1749,17599.3,-2532.92,12067.4,-14.8289,299.083,-132.902,-988.242,10978.7,-1906.43,-0.445011,-41.7922,-63.4536,6647.86,21122.5,-1905.87,0.40694,-70.6781,-348.342,3832.69,12259.8,-5690.15,-24.2491,-74.2549,-78.8632,-5045.38,-6052.4,-2378.53,25.4587,9.99835,-36.4256,7274.01,898.355,798.226,-85.3762,-23.1289,4.131
2.701,4104.47,-220.593,9360.2,-19.8707,-36.3186,-29.24,17712.4,-2526.03,12040.2,-14.7628,298.142,-131.35,-986.392,10986.3,-1896.4,-0.84767,-41.5125,-63.9253,6766.3,21191.1,-1914.52,-0.351182,-69.1828,-347.912,3880.16,12283.9,-5680.8,-25.2894,-73.0683,-78.1261,-4989.28,-6104.26,-2358.17,25.286,14.124,-35.5844,7279.95,888.275,793.699,-85.5709,-23.7504,4.20082
2.7015,4113.94,-219.792,9352.67,-19.647,-36.5089,-29.3051,17825.4,-2519.15,12013.0,-14.6967,297.201,-129.799,-984.541,10994.0,-1886.38,-1.25033,-41.2328,-64.397,6884.75,21259.7,-1923.17,-1.1093,-67.6876,-347.482,3927.62,12308.0,-5671.44,-26.3298,-71.8818,-77.3891,-4933.18,-6156.13,-2337.81,25.1133,18.2496,-34.7432,7285.88,878.195,789.172,-85.7656,-24.372,4.27064
2.702,4123.4,-218.992,9345.15,-19.4232,-36.6992,-29.3703,17938.5,-2512.26,11985.8,-14.6306,296.261,-128.248,-982.691,11001.7,-1876.36,-1.65299,-40.9531,-64.8687,7003.19,21328.4,-1931.82,-1.86743,-66.1923,-347.052,3975.09,12332.1,-5662.08,-27.3701,-70.6952,-76.652,-4877.08,-6207.99,-2317.45,24.9405,22.3752,-33.9019,7291.82,868.115,784.645,-85.9604,-24.9935,4.34046
2.7025,4129.66,-206.817,9345.47,-19.2377,-36.9392,-29.4496,18080.5,-2445.7,11951.7,-14.8922,295.373,-126.574,-980.127,11015.4,-1872.78,-2.03023,-40.6778,-65.3592,7127.78,21392.8,-1950.03,-2.57741,-64.7335,-346.588,4019.41,12340.6,-5634.91,-28.1467,-69.4624,-75.812,-4800.52,-6251.31,-2262.61,24.7206,27.0323,-33.3626,7294.3,861.785,774.512,-86.1453,-25.5956,4.41659
2.703,4133.37,-185.541,9352.06,-19.0829,-37.2189,-29.5402,18245.7,-2331.4,11912.0,-15.416,294.527,-124.802,-976.993,11033.9,-1874.35,-2.38715,-40.4061,-65.8648,7257.29,21453.8,-1975.88,-3.24889,-63.3039,-346.097,4061.22,12336.8,-5593.47,-28.7124,-68.1927,-74.8897,-4707.57,-6287.79,-2180.18,24.4628,32.1145,-33.0648,7294.01,858.455,759.895,-86.3223,-26.182,4.49777
2.7035,4137.08,-164.265,9358.65,-18.928,-37.4985,-29.6308,18410.9,-2217.1,11872.4,-15.9398,293.681,-123.031,-973.859,11052.4,-1875.92,-2.74406,-40.1343,-66.3704,7386.79,21514.8,-2001.74,-3.92037,-61.8742,-345.606,4103.03,12332.9,-5552.03,-29.2781,-66.9231,-73.9674,-4614.63,-6324.27,-2097.76,24.2051,37.1967,-32.7669,7293.72,855.125,745.277,-86.4993,-26.7685,4.57895
2.704,4140.78,-142.99,9365.25,-18.7731,-37.7782,-29.7215,18576.1,-2102.79,11832.7,-16.4636,292.836,-121.259,-970.725,11070.9,-1877.5,-3.10098,-39.8626,-66.876,7516.3,21575.9,-2027.6,-4.59185,-60.4446,-345.115,4144.83,12329.0,-5510.6,-29.8437,-65.6534,-73.0451,-4521.69,-6360.76,-2015.34,23.9474,42.2789,-32.4691,7293.43,851.795,730.66,-86.6764,-27.355,4.66012
2.7045,4144.49,-121.714,9371.84,-18.6182,-38.0578,-29.8121,18741.3,-1988.49,11793.1,-16.9874,291.99,-119.488,-967.591,11089.4,-1879.07,-3.45789,-39.5908,-67.3816,7645.8,21636.9,-2053.46,-5.26333,-59.015,-344.623,4186.64,12325.2,-5469.16,-30.4094,-64.3837,-72.1228,-4428.74,-6397.24,-1932.91,23.6897,47.3611,-32.1713,7293.14,848.465,716.042,-86.8534,-27.9414,4.7413
2.705,4148.2,-100.438,9378.43,-18.4634,-38.3375,-29.9028,18906.5,-1874.19,11753.4,-17.5112,291.144,-117.716,-964.458,11107.9,-1880.64,-3.81481,-39.3191,-67.8872,7775.31,21697.9,-2079.32,-5.93481,-57.5853,-344.132,4228.45,12321.3,-5427.73,-30.9751,-63.114,-71.2005,-4335.8,-6433.72,-1850.49,23.432,52.4433,-31.8734,7292.85,845.135,701.425,-87.0304,-28.5279,4.82248
2.7055,4151.9,-79.1625,9385.03,-18.3085,-38.6172,-29.9934,19071.7,-1759.89,11713.7,-18.035,290.299,-115.945,-961.323,11126.4,-1882.21,-4.17172,-39.0473,-68.3927,7904.81,21758.9,-2105.18,-6.60629,-56.1557,-343.641,4270.26,12317.4,-5386.29,-31.5407,-61.8443,-70.2782,-4242.86,-6470.2,-1768.07,23.1742,57.5255,-31.5756,7292.56,841.805,686.807,-87.2075,-29.1144,4.90366
2.706,4155.61,-57.8868,9391.62,-18.1536,-38.8968,-30.084,19236.9,-1645.59,11674.1,-18.5588,289.453,-114.173,-958.19,11144.9,-1883.79,-4.52863,-38.7756,-68.8983,8034.32,21820.0,-2131.04,-7.27777,-54.7261,-343.15,4312.07,12313.6,-5344.86,-32.1064,-60.5746,-69.3559,-4149.91,-6506.68,-1685.64,22.9165,62.6077,-31.2778,7292.27,838.475,672.19,-87.3845,-29.7008,4.98484
2.7065,4159.32,-36.6111,9398.21,-17.9988,-39.1765,-30.1747,19402.1,-1531.28,11634.4,-19.0826,288.608,-112.401,-955.056,11163.4,-1885.36,-4.88555,-38.5038,-69.4039,8163.83,21881.0,-2156.89,-7.94925,-53.2964,-342.659,4353.88,12309.7,-5303.42,-32.6721,-59.3049,-68.4336,-4056.97,-6543.16,-1603.22,22.6588,67.6899,-30.9799,7291.98,835.145,657.572,-87.5615,-30.2873,5.06602
2.707,4171.16,-18.5195,9406.23,-17.7624,-39.4745,-30.2103,19584.6,-1392.43,11588.8,-20.2154,287.842,-110.549,-967.212,11163.1,-1864.27,-5.22745,-38.335,-69.8973,8256.91,21946.9,-2172.95,-8.6044,-52.0898,-342.174,4380.4,12269.1,-5215.69,-33.0095,-58.0078,-67.6964,-3963.16,-6550.86,-1478.76,22.1968,72.4658,-31.0103,7292.57,837.728,645.653,-87.7545,-30.8111,5.1322
2.7075,4187.06,-2.01977,9414.96,-17.4852,-39.7816,-30.2184,19775.9,-1241.31,11540.3,-21.6526,287.116,-108.656,-987.014,11153.4,-1831.84,-5.56185,-38.2176,-70.3846,8331.79,22015.4,-2184.1,-9.25139,-50.9947,-341.693,4399.28,12210.0,-5104.82,-33.2328,-56.6968,-67.0518,-3868.93,-6544.17,-1333.28,21.6325,77.0886,-31.2047,7293.59,843.268,635.083,-87.9555,-31.3035,5.19089
2.708,4202.97,14.4799,9423.69,-17.2081,-40.0887,-30.2266,19967.1,-1090.18,11491.8,-23.0898,286.391,-106.763,-1006.82,11143.6,-1799.41,-5.89625,-38.1003,-70.8719,8406.66,22083.8,-2195.24,-9.89838,-49.8996,-341.211,4418.16,12150.9,-4993.95,-33.4562,-55.3859,-66.4071,-3774.69,-6537.48,-1187.8,21.0683,81.7113,-31.3991,7294.61,848.808,624.513,-88.1565,-31.7958,5.24957
2.7085,4218.88,30.9796,9432.42,-16.931,-40.3959,-30.2347,20158.4,-939.06,11443.3,-24.5271,285.665,-104.87,-1026.62,11133.8,-1766.98,-6.23065,-37.9829,-71.3592,8481.53,22152.2,-2206.39,-10.5454,-48.8045,-340.729,4437.04,12091.9,-4883.08,-33.6795,-54.0749,-65.7625,-3680.45,-6530.79,-1042.32,20.5041,86.334,-31.5935,7295.63,854.348,613.943,-88.3574,-32.2882,5.30826
2.709,4234.78,47.4793,9441.15,-16.6538,-40.703,-30.2428,20349.6,-787.936,11394.8,-25.9643,284.939,-102.976,-1046.42,11124.1,-1734.55,-6.56505,-37.8656,-71.8465,8556.41,22220.6,-2217.54,-11.1924,-47.7094,-340.248,4455.92,12032.8,-4772.21,-33.9028,-52.764,-65.1178,-3586.21,-6524.1,-896.842,19.9399,90.9568,-31.788,7296.65,859.888,603.373,-88.5584,-32.7806,5.36695
2.7095,4250.69,63.979,9449.88,-16.3767,-41.0101,-30.2509,20540.9,-636.811,11346.2,-27.4015,284.214,-101.083,-1066.22,11114.3,-1702.12,-6.89945,-37.7482,-72.3338,8631.28,22289.0,-2228.69,-11.8393,-46.6143,-339.766,4474.8,11973.8,-4661.34,-34.1261,-51.4531,-64.4732,-3491.98,-6517.41,-751.362,19.3756,95.5795,-31.9824,7297.67,865.428,592.803,-88.7594,-33.273,5.42563
2.71,4266.59,80.4786,9458.6,-16.0995,-41.3173,-30.259,20732.1,-485.687,11297.7,-28.8387,283.488,-99.1903,-1086.02,11104.6,-1669.69,-7.23385,-37.6309,-72.8211,8706.16,22357.4,-2239.84,-12.4863,-45.5193,-339.285,4493.68,11914.7,-4550.47,-34.3494,-50.1421,-63.8285,-3397.74,-6510.72,-605.883,18.8114,100.202,-32.1768,7298.69,870.968,582.234,-88.9604,-33.7654,5.48432
2.7105,4282.5,96.9783,9467.33,-15.8224,-41.6244,-30.2672,20923.4,-334.562,11249.2,-30.276,282.762,-97.2973,-1105.82,11094.8,-1637.26,-7.56825,-37.5136,-73.3084,8781.03,22425.8,-2250.99,-13.1333,-44.4242,-338.803,4512.56,11855.7,-4439.6,-34.5728,-48.8312,-63.1839,-3303.5,-6504.03,-460.403,18.2472,104.825,-32.3713,7299.71,876.508,571.664,-89.1613,-34.2578,5.54301
2.711,4298.41,113.478,9476.06,-15.5452,-41.9315,-30.2753,21114.6,-183.438,11200.7,-31.7132,282.037,-95.4042,-1125.63,11085.1,-1604.83,-7.90265,-37.3962,-73.7957,8855.91,22494.3,-2262.14,-13.7803,-43.3291,-338.322,4531.44,11796.6,-4328.73,-34.7961,-47.5203,-62.5392,-3209.27,-6497.34,-314.924,17.683,109.448,-32.5657,7300.73,882.048,561.094,-89.3623,-34.7501,5.60169
2.7115,4300.93,129.275,9482.65,-15.204,-42.194,-30.2917,21286.8,-57.3779,11146.3,-33.515,281.382,-93.441,-1141.19,11099.2,-1577.93,-8.13641,-37.2205,-74.2245,8917.5,22566.7,-2271.52,-14.4751,-42.535,-337.713,4540.46,11708.0,-4271.26,-34.3762,-45.9106,-62.1135,-3106.32,-6489.78,-175.454,16.9195,112.674,-33.1784,7308.08,890.97,546.84,-89.4811,-35.177,5.72241
2.712,4299.64,144.87,9488.63,-14.8445,-42.4437,-30.3104,21453.6,61.5207,11090.2,-35.4209,280.747,-91.4578,-1155.54,11120.2,-1552.62,-8.34141,-37.0281,-74.6365,8975.31,22640.4,-2280.4,-15.1835,-41.827,-337.068,4546.68,11611.0,-4229.05,-33.7725,-44.2157,-61.7504,-3000.88,-6481.96,-37.7018,16.0992,115.502,-33.9107,7317.25,900.858,531.533,-89.5764,-35.5851,5.86086
2.7125,4298.34,160.466,9494.6,-14.4849,-42.6934,-30.3292,21620.4,180.419,11034.1,-37.3268,280.112,-89.4745,-1169.89,11141.1,-1527.3,-8.54642,-36.8357,-75.0486,9033.12,22714.0,-2289.28,-15.8919,-41.1189,-336.423,4552.9,11513.9,-4186.84,-33.1689,-42.5207,-61.3873,-2895.45,-6474.15,100.051,15.2788,118.33,-34.6429,7326.41,910.747,516.226,-89.6717,-35.9931,5.9993
2.713,4297.04,176.061,9500.58,-14.1254,-42.9431,-30.348,21787.2,299.318,10978.0,-39.2328,279.477,-87.4913,-1184.24,11162.1,-1501.99,-8.75143,-36.6432,-75.4606,9090.93,22787.7,-2298.16,-16.6003,-40.4108,-335.778,4559.11,11416.9,-4144.63,-32.5653,-40.8257,-61.0242,-2790.01,-6466.34,237.803,14.4584,121.158,-35.3752,7335.58,920.635,500.919,-89.767,-36.4012,6.13774
2.7135,4295.74,191.657,9506.55,-13.7659,-43.1927,-30.3667,21954.0,418.217,10921.9,-41.1387,278.843,-85.5081,-1198.59,11183.0,-1476.67,-8.95644,-36.4508,-75.8727,9148.74,22861.3,-2307.04,-17.3087,-39.7028,-335.132,4565.33,11319.9,-4102.42,-31.9616,-39.1308,-60.6611,-2684.58,-6458.53,375.556,13.6381,123.985,-36.1075,7344.74,930.524,485.612,-89.8623,-36.8093,6.27619
2.714,4294.45,207.253,9512.53,-13.4063,-43.4424,-30.3855,22120.8,537.115,10865.8,-43.0446,278.208,-83.5249,-1212.94,11204.0,-1451.35,-9.16144,-36.2584,-76.2847,9206.54,22935.0,-2315.93,-18.0171,-38.9947,-334.487,4571.54,11222.8,-4060.21,-31.358,-37.4358,-60.298,-2579.14,-6450.72,513.308,12.8177,126.813,-36.8397,7353.9,940.412,470.305,-89.9576,-37.2174,6.41463
2.7145,4293.15,222.848,9518.5,-13.0468,-43.6921,-30.4043,22287.6,656.014,10809.7,-44.9506,277.573,-81.5416,-1227.3,11225.0,-1426.04,-9.36645,-36.066,-76.6968,9264.35,23008.6,-2324.81,-18.7256,-38.2867,-333.842,4577.76,11125.8,-4017.99,-30.7543,-35.7408,-59.9349,-2473.71,-6442.91,651.061,11.9973,129.641,-37.572,7363.07,950.3,454.998,-90.0529,-37.6255,6.55308
2.715,4291.85,238.444,9524.48,-12.6873,-43.9418,-30.423,22454.4,774.913,10753.6,-46.8565,276.938,-79.5584,-1241.65,11245.9,-1400.72,-9.57146,-35.8736,-77.1088,9322.16,23082.2,-2333.69,-19.434,-37.5786,-333.197,4583.98,11028.8,-3975.78,-30.1507,-34.0459,-59.5718,-2368.27,-6435.1,788.813,11.1769,132.469,-38.3042,7372.23,960.189,439.692,-90.1482,-38.0336,6.69152
2.7155,4290.55,254.039,9530.46,-12.3277,-44.1915,-30.4418,22621.2,893.811,10697.5,-48.7624,276.303,-77.5752,-1256.0,11266.9,-1375.4,-9.77647,-35.6812,-77.5209,9379.96,23155.9,-2342.57,-20.1424,-36.8705,-332.552,4590.19,10931.7,-3933.57,-29.547,-32.3509,-59.2087,-2262.84,-6427.29,926.566,10.3566,135.297,-39.0365,7381.4,970.077,424.385,-90.2435,-38.4417,6.82997
2.716,4285.57,246.431,9539.13,-11.9932,-44.4596,-30.3554,22772.0,982.105,10635.6,-50.5166,275.625,-75.4268,-1245.34,11280.9,-1322.09,-10.0515,-35.6269,-77.9981,9453.83,23225.4,-2373.07,-20.7775,-36.4788,-331.669,4571.07,10852.8,-3836.56,-28.5215,-30.7861,-59.0068,-2157.26,-6450.61,1017.0,9.54458,135.942,-40.1659,7402.38,969.416,388.906,-90.1712,-38.6973,6.85993
2.7165,4280.13,235.922,9548.15,-11.6618,-44.7299,-30.2558,22920.7,1066.57,10572.8,-52.2518,274.941,-73.2578,-1231.56,11294.2,-1265.27,-10.3353,-35.5899,-78.4836,9529.71,23294.5,-2406.28,-21.4035,-36.1267,-330.757,4548.79,10776.1,-3732.71,-27.4432,-29.2376,-58.8251,-2051.66,-6477.82,1101.53,8.73363,136.315,-41.345,7424.85,967.435,350.905,-90.0779,-38.9339,6.87632
2.717,4274.69,225.413,9557.17,-11.3304,-45.0003,-30.1563,23069.5,1151.04,10510.1,-53.9871,274.257,-71.0888,-1217.77,11307.4,-1208.46,-10.6191,-35.553,-78.969,9605.59,23363.5,-2439.49,-22.0295,-35.7745,-329.846,4526.5,10699.3,-3628.85,-26.3649,-27.6891,-58.6434,-1946.06,-6505.03,1186.05,7.92267,136.688,-42.5241,7447.32,965.454,312.905,-89.9846,-39.1705,6.89272
2.7175,4269.25,214.904,9566.19,-10.999,-45.2707,-30.0567,23218.3,1235.51,10447.4,-55.7223,273.573,-68.9198,-1203.99,11320.6,-1151.64,-10.9029,-35.516,-79.4544,9681.46,23432.6,-2472.7,-22.6555,-35.4224,-328.934,4504.21,10622.6,-3524.99,-25.2866,-26.1406,-58.4617,-1840.45,-6532.24,1270.58,7.11172,137.061,-43.7033,7469.78,963.474,274.904,-89.8913,-39.4071,6.90912
2.718,4263.81,204.396,9575.21,-10.6675,-45.541,-29.9571,23367.0,1319.98,10384.7,-57.4575,272.889,-66.7508,-1190.2,11333.8,-1094.82,-11.1866,-35.479,-79.9398,9757.34,23501.6,-2505.91,-23.2815,-35.0702,-328.022,4481.93,10545.9,-3421.13,-24.2083,-24.5921,-58.28,-1734.85,-6559.46,1355.1,6.30077,137.434,-44.8824,7492.25,961.493,236.904,-89.7979,-39.6437,6.92552
2.7185,4258.37,193.887,9584.22,-10.3361,-45.8114,-29.8576,23515.8,1404.44,10322.0,-59.1927,272.205,-64.5818,-1176.42,11347.0,-1038.01,-11.4704,-35.442,-80.4253,9833.22,23570.7,-2539.11,-23.9074,-34.718,-327.11,4459.64,10469.2,-3317.27,-23.13,-23.0436,-58.0983,-1629.25,-6586.67,1439.62,5.48981,137.807,-46.0615,7514.72,959.513,198.903,-89.7046,-39.8803,6.94192
2.719,4252.93,183.378,9593.24,-10.0047,-46.0818,-29.758,23664.6,1488.91,10259.2,-60.9279,271.521,-62.4128,-1162.63,11360.2,-981.19,-11.7542,-35.4051,-80.9107,9909.09,23639.7,-2572.32,-24.5334,-34.3659,-326.198,4437.35,10392.5,-3213.42,-22.0517,-21.4951,-57.9167,-1523.65,-6613.88,1524.15,4.67886,138.181,-47.2406,7537.18,957.532,160.903,-89.6113,-40.1169,6.95832
2.7195,4247.49,172.869,9602.26,-9.6733,-46.3521,-29.6584,23813.3,1573.38,10196.5,-62.6631,270.837,-60.2438,-1148.85,11373.4,-924.374,-12.038,-35.3681,-81.3961,9984.97,23708.8,-2605.53,-25.1594,-34.0137,-325.286,4415.07,10315.8,-3109.56,-20.9734,-19.9466,-57.735,-1418.05,-6641.09,1608.67,3.86791,138.554,-48.4197,7559.65,955.552,122.902,-89.518,-40.3535,6.97472
2.72,4242.05,162.36,9611.27,-9.34188,-46.6225,-29.5589,23962.1,1657.85,10133.8,-64.3984,270.153,-58.0748,-1135.06,11386.6,-867.557,-12.3218,-35.3311,-81.8816,10060.8,23777.8,-2638.74,-25.7854,-33.6616,-324.374,4392.78,10239.1,-3005.7,-19.8952,-18.3981,-57.5533,-1312.45,-6668.3,1693.19,3.05696,138.927,-49.5988,7582.12,953.571,84.9015,-89.4247,-40.5901,6.99112
2.7205,4218.6,213.877,9635.08,-9.18545,-47.0763,-29.3411,24124.2,1735.4,10053.4,-65.8638,269.396,-55.7765,-1140.79,11408.3,-841.332,-12.667,-35.2484,-82.3693,10149.1,23825.9,-2662.7,-26.4374,-33.7998,-323.318,4361.38,10201.3,-2846.81,-18.9853,-17.8032,-57.553,-1217.13,-6658.99,1706.23,2.42781,137.213,-50.377,7631.26,943.808,48.1764,-89.243,-40.6111,6.97005
2.721,4195.16,265.393,9658.88,-9.02902,-47.53,-29.1234,24286.3,1812.95,9973.08,-67.3293,268.638,-53.4782,-1146.51,11429.9,-815.107,-13.0123,-35.1658,-82.8571,10237.3,23873.9,-2686.67,-27.0895,-33.9379,-322.262,4329.98,10163.6,-2687.92,-18.0755,-17.2084,-57.5527,-1121.81,-6649.68,1719.27,1.79866,135.499,-51.1553,7680.4,934.045,11.4513,-89.0612,-40.6321,6.94898
2.7215,4171.72,316.909,9682.68,-8.87259,-47.9838,-28.9056,24448.4,1890.5,9892.73,-68.7948,267.881,-51.18,-1152.23,11451.5,-788.883,-13.3576,-35.0831,-83.3448,10325.6,23922.0,-2710.63,-27.7415,-34.0761,-321.205,4298.58,10125.8,-2529.04,-17.1657,-16.6135,-57.5524,-1026.49,-6640.37,1732.31,1.16951,133.786,-51.9336,7729.54,924.282,-25.2738,-88.8795,-40.6531,6.92791
2.722,4148.28,368.426,9706.49,-8.71616,-48.4376,-28.6879,24610.5,1968.05,9812.38,-70.2603,267.123,-48.8817,-1157.96,11473.2,-762.658,-13.7028,-35.0005,-83.8326,10413.8,23970.0,-2734.6,-28.3936,-34.2143,-320.149,4267.19,10088.1,-2370.15,-16.2559,-16.0187,-57.5522,-931.166,-6631.06,1745.35,0.540361,132.072,-52.7118,7778.68,914.519,-61.9988,-88.6978,-40.6741,6.90684
2.7225,4124.84,419.942,9730.29,-8.55972,-48.8913,-28.4701,24772.6,2045.6,9732.04,-71.7257,266.366,-46.5834,-1163.68,11494.8,-736.433,-14.0481,-34.9178,-84.3203,10502.1,24018.0,-2758.57,-29.0456,-34.3525,-319.093,4235.79,10050.3,-2211.26,-15.346,-15.4238,-57.5519,-835.845,-6621.75,1758.39,-0.0887875,130.359,-53.4901,7827.82,904.756,-98.7239,-88.5161,-40.6952,6.88577
2.723,4101.4,471.459,9754.09,-8.40329,-49.3451,-28.2523,24934.7,2123.15,9651.68,-73.1912,265.608,-44.2851,-1169.4,11516.4,-710.208,-14.3933,-34.8352,-84.808,10590.3,24066.1,-2782.53,-29.6977,-34.4907,-318.036,4204.39,10012.6,-2052.37,-14.4362,-14.8289,-57.5516,-740.525,-6612.44,1771.43,-0.717936,128.645,-54.2684,7876.96,894.993,-135.449,-88.3343,-40.7162,6.86471
2.7235,4077.96,522.975,9777.9,-8.24686,-49.7989,-28.0346,25096.8,2200.7,9571.34,-74.6567,264.851,-41.9869,-1175.12,11538.1,-683.984,-14.7386,-34.7525,-85.2958,10678.5,24114.1,-2806.5,-30.3497,-34.6289,-316.98,4172.99,9974.85,-1893.49,-13.5264,-14.2341,-57.5513,-645.204,-6603.13,1784.46,-1.34708,126.932,-55.0467,7926.1,885.23,-172.174,-88.1526,-40.7372,6.84364
2.724,4054.51,574.491,9801.7,-8.09043,-50.2527,-27.8168,25258.8,2278.25,9490.99,-76.1222,264.093,-39.6886,-1180.85,11559.7,-657.759,-15.0839,-34.6699,-85.7835,10766.8,24162.2,-2830.46,-31.0018,-34.7671,-315.924,4141.59,9937.11,-1734.6,-12.6166,-13.6392,-57.5511,-549.883,-6593.82,1797.5,-1.97623,125.218,-55.8249,7975.24,875.467,-208.899,-87.9709,-40.7582,6.82257
2.7245,4031.68,627.287,9824.47,-7.95878,-50.7155,-27.5946,25418.4,2355.05,9402.82,-77.5682,263.343,-37.3917,-1184.11,11579.6,-631.612,-15.4073,-34.5944,-86.284,10855.9,24205.4,-2853.01,-31.6101,-34.9409,-314.854,4112.64,9901.43,-1580.48,-11.7486,-13.0693,-57.5545,-453.272,-6583.22,1803.33,-2.61573,123.391,-56.5324,8024.55,869.126,-245.705,-87.7976,-40.762,6.78839
2.725,4013.7,690.32,9838.99,-8.02542,-51.2513,-27.3364,25557.4,2425.82,9252.14,-78.8589,262.654,-35.1052,-1167.7,11585.7,-606.091,-15.5559,-34.5769,-86.8864,10951.8,24210.3,-2864.22,-31.8691,-35.3999,-313.677,4103.31,9882.29,-1464.48,-11.2159,-12.6988,-57.5876,-346.337,-6562.35,1751.45,-3.33797,120.662,-56.6731,8075.17,890.169,-283.153,-87.692,-40.6282,6.6493
2.7255,3995.73,753.352,9853.51,-8.09206,-51.787,-27.0782,25696.5,2496.58,9101.46,-80.1497,261.966,-32.8188,-1151.29,11591.7,-580.571,-15.7046,-34.5594,-87.4889,11047.8,24215.2,-2875.43,-32.128,-35.8589,-312.499,4093.98,9863.14,-1348.49,-10.6832,-12.3283,-57.6208,-239.402,-6541.47,1699.58,-4.06021,117.933,-56.8138,8125.8,911.211,-320.6,-87.5864,-40.4944,6.51021
2.726,3977.75,816.385,9868.03,-8.1587,-52.3228,-26.82,25835.6,2567.35,8950.77,-81.4404,261.277,-30.5324,-1134.89,11597.8,-555.05,-15.8532,-34.5419,-88.0913,11143.7,24220.1,-2886.64,-32.3869,-36.3179,-311.321,4084.65,9843.99,-1232.5,-10.1505,-11.9577,-57.6539,-132.467,-6520.59,1647.7,-4.78245,115.204,-56.9546,8176.43,932.253,-358.048,-87.4808,-40.3606,6.37111
2.7265,3959.78,879.417,9882.55,-8.22533,-52.8585,-26.5618,25974.6,2638.12,8800.09,-82.7311,260.588,-28.246,-1118.48,11603.8,-529.529,-16.0019,-34.5244,-88.6937,11239.7,24225.0,-2897.85,-32.6458,-36.7769,-310.143,4075.32,9824.85,-1116.51,-9.61779,-11.5872,-57.687,-25.5326,-6499.72,1595.83,-5.50469,112.475,-57.0953,8227.06,953.295,-395.496,-87.3751,-40.2267,6.23202
2.727,3941.8,942.45,9897.08,-8.29197,-53.3943,-26.3036,26113.7,2708.89,8649.41,-84.0218,259.899,-25.9596,-1102.07,11609.9,-504.008,-16.1505,-34.5068,-89.2961,11335.6,24229.9,-2909.06,-32.9047,-37.2359,-308.966,4065.98,9805.7,-1000.52,-9.08507,-11.2167,-57.7202,81.4022,-6478.84,1543.95,-6.22694,109.746,-57.2361,8277.69,974.337,-432.944,-87.2695,-40.0929,6.09293
2.7275,3923.82,1005.48,9911.6,-8.35861,-53.93,-26.0454,26252.7,2779.65,8498.72,-85.3126,259.21,-23.6731,-1085.66,11616.0,-478.487,-16.2992,-34.4893,-89.8986,11431.6,24234.8,-2920.27,-33.1637,-37.6949,-307.788,4056.65,9786.55,-884.528,-8.55236,-10.8461,-57.7533,188.337,-6457.97,1492.08,-6.94918,107.016,-57.3768,8328.32,995.379,-470.392,-87.1639,-39.9591,5.95384
2.728,3905.85,1068.51,9926.12,-8.42525,-54.4657,-25.7872,26391.8,2850.42,8348.04,-86.6033,258.522,-21.3867,-1069.25,11622.0,-452.967,-16.4478,-34.4718,-90.501,11527.6,24239.8,-2931.48,-33.4226,-38.1539,-306.61,4047.32,9767.41,-768.536,-8.01964,-10.4756,-57.7865,295.272,-6437.09,1440.2,-7.67142,104.287,-57.5176,8378.95,1016.42,-507.84,-87.0583,-39.8253,5.81475
2.7285,3887.87,1131.55,9940.64,-8.49188,-55.0015,-25.529,26530.8,2921.19,8197.36,-87.894,257.833,-19.1003,-1052.84,11628.1,-427.446,-16.5965,-34.4543,-91.1034,11623.5,24244.7,-2942.69,-33.6815,-38.6129,-305.433,4037.99,9748.26,-652.545,-7.48693,-10.1051,-57.8196,402.207,-6416.21,1388.33,-8.39366,101.558,-57.6583,8429.58,1037.46,-545.288,-86.9527,-39.6914,5.67566
2.729,3870.32,1178.42,9957.89,-8.49551,-55.5724,-25.2657,26657.8,2990.45,8044.97,-89.0814,257.115,-16.8575,-1041.13,11634.9,-402.906,-16.7702,-34.4686,-91.6849,11717.3,24247.5,-2955.05,-33.7495,-39.1455,-304.218,4030.64,9732.54,-543.273,-6.91417,-9.80681,-57.8607,510.697,-6397.25,1328.52,-9.1439,98.8693,-57.6419,8478.62,1060.66,-579.776,-86.8477,-39.5221,5.51209
2.7295,3854.25,1168.74,9984.72,-8.2786,-56.2666,-24.9845,26742.5,3054.46,7886.6,-89.9069,256.296,-14.7673,-1045.87,11644.5,-381.798,-17.0316,-34.5942,-92.1932,11803.5,24243.0,-2971.45,-33.1493,-39.9356,-302.874,4030.23,9728.8,-457.52,-6.20125,-9.76142,-57.9297,624.63,-6384.99,1240.94,-9.99211,96.3219,-57.0757,8522.11,1091.42,-603.906,-86.7449,-39.2286,5.26287
2.73,3838.19,1159.06,10011.5,-8.0617,-56.9608,-24.7034,26827.1,3118.47,7728.24,-90.7325,255.477,-12.6772,-1050.6,11654.0,-360.691,-17.293,-34.7198,-92.7016,11889.7,24238.5,-2987.85,-32.5492,-40.7258,-301.531,4029.81,9725.06,-371.768,-5.48834,-9.71603,-57.9986,738.564,-6372.73,1153.36,-10.8403,93.7746,-56.5095,8565.59,1122.17,-628.036,-86.6421,-38.935,5.01364
2.7305,3822.12,1149.39,10038.4,-7.84479,-57.6549,-24.4223,26911.8,3182.48,7569.88,-91.558,254.658,-10.587,-1055.34,11663.5,-339.584,-17.5544,-34.8453,-93.2099,11975.9,24234.0,-3004.25,-31.949,-41.5159,-300.187,4029.4,9721.32,-286.015,-4.77543,-9.67065,-58.0676,852.497,-6360.47,1065.78,-11.6885,91.2272,-55.9433,8609.07,1152.93,-652.165,-86.5393,-38.6414,4.76442
2.731,3806.05,1139.71,10065.2,-7.62788,-58.3491,-24.1411,26996.4,3246.49,7411.51,-92.3836,253.838,-8.49683,-1060.08,11673.0,-318.477,-17.8158,-34.9709,-93.7182,12062.2,24229.4,-3020.66,-31.3488,-42.3061,-298.843,4028.98,9717.58,-200.262,-4.06251,-9.62526,-58.1366,966.431,-6348.21,978.199,-12.5367,88.6798,-55.3771,8652.55,1183.68,-676.295,-86.4365,-38.3479,4.51519
2.7315,3789.99,1130.03,10092.0,-7.41097,-59.0433,-23.86,27081.1,3310.5,7253.15,-93.2091,253.019,-6.40666,-1064.81,11682.6,-297.37,-18.0772,-35.0965,-94.2265,12148.4,24224.9,-3037.06,-30.7486,-43.0962,-297.499,4028.57,9713.83,-114.509,-3.3496,-9.57987,-58.2055,1080.36,-6335.95,890.62,-13.3849,86.1325,-54.8109,8696.04,1214.44,-700.425,-86.3337,-38.0543,4.26597
2.732,3773.92,1120.35,10118.9,-7.19406,-59.7374,-23.5789,27165.8,3374.51,7094.78,-94.0347,252.2,-4.3165,-1069.55,11692.1,-276.262,-18.3386,-35.2221,-94.7348,12234.6,24220.4,-3053.46,-30.1484,-43.8863,-296.156,4028.15,9710.09,-28.7567,-2.63668,-9.53449,-58.2745,1194.3,-6323.68,803.041,-14.2332,83.5851,-54.2446,8739.52,1245.19,-724.554,-86.2309,-37.7608,4.01674
2.7325,3757.85,1110.67,10145.7,-6.97715,-60.4316,-23.2977,27250.4,3438.52,6936.42,-94.8603,251.381,-2.22633,-1074.29,11701.6,-255.155,-18.6001,-35.3477,-95.2432,12320.8,24215.9,-3069.86,-29.5483,-44.6765,-294.812,4027.74,9706.35,56.9961,-1.92377,-9.4891,-58.3434,1308.23,-6311.42,715.461,-15.0814,81.0378,-53.6784,8783.0,1275.95,-748.684,-86.1281,-37.4672,3.76751
2.733,3741.79,1100.99,10172.5,-6.76025,-61.1258,-23.0166,27335.1,3502.53,6778.06,-95.6858,250.562,-0.136163,-1079.02,11711.2,-234.048,-18.8615,-35.4733,-95.7515,12407.0,24211.4,-3086.26,-28.9481,-45.4666,-293.468,4027.32,9702.61,142.749,-1.21086,-9.44371,-58.4124,1422.16,-6299.16,627.882,-15.9296,78.4904,-53.1122,8826.49,1306.7,-772.814,-86.0253,-37.1736,3.51829
2.7335,3727.81,1090.19,10198.4,-6.56818,-61.829,-22.7323,27402.0,3563.15,6620.8,-96.2869,249.484,1.9153,-1082.27,11728.0,-210.0,-19.0978,-35.6029,-96.2693,12488.6,24205.2,-3132.21,-28.215,-46.273,-292.03,4026.64,9703.98,217.113,-0.458701,-9.50839,-58.4809,1535.11,-6297.47,546.785,-16.8217,76.2605,-52.295,8870.44,1330.63,-792.206,-85.9788,-36.8848,3.26371
2.734,3718.03,1077.13,10222.5,-6.42581,-62.5504,-22.4416,27433.6,3616.99,6465.77,-96.4391,247.89,3.88936,-1082.56,11759.5,-180.073,-19.2838,-35.7406,-96.8061,12561.0,24195.7,-3237.24,-27.2162,-47.112,-290.404,4025.41,9715.58,268.699,0.371943,-9.79318,-58.5483,1646.08,-6316.92,478.65,-17.8019,74.6654,-50.976,8915.32,1340.91,-802.124,-86.0449,-36.6054,2.99844
2.7345,3708.25,1064.06,10246.6,-6.28344,-63.2718,-22.1509,27465.1,3670.83,6310.74,-96.5914,246.295,5.86342,-1082.84,11791.0,-150.145,-19.4698,-35.8783,-97.3429,12633.4,24186.1,-3342.27,-26.2174,-47.951,-288.778,4024.18,9727.17,320.285,1.20259,-10.078,-58.6157,1757.05,-6336.38,410.515,-18.782,73.0703,-49.6569,8960.2,1351.19,-812.042,-86.111,-36.3259,2.73316
2.735,3698.47,1051.0,10270.8,-6.14107,-63.9931,-21.8602,27496.6,3724.67,6155.71,-96.7436,244.7,7.83748,-1083.13,11822.5,-120.217,-19.6558,-36.0159,-97.8797,12705.8,24176.6,-3447.3,-25.2186,-48.7901,-287.152,4022.95,9738.77,371.871,2.03323,-10.3628,-58.6831,1868.02,-6355.83,342.38,-19.7621,71.4752,-48.3378,9005.08,1361.47,-821.96,-86.177,-36.0465,2.46788
2.7355,3688.69,1037.94,10294.9,-5.9987,-64.7145,-21.5695,27528.1,3778.51,6000.68,-96.8958,243.106,9.81154,-1083.41,11854.0,-90.2896,-19.8418,-36.1536,-98.4165,12778.2,24167.0,-3552.33,-24.2198,-49.6291,-285.526,4021.73,9750.36,423.457,2.86387,-10.6475,-58.7505,1978.99,-6375.28,274.245,-20.7422,69.8801,-47.0187,9049.96,1371.75,-831.878,-86.2431,-35.7671,2.2026
2.736,3678.91,1024.88,10319.0,-5.85633,-65.4359,-21.2789,27559.7,3832.35,5845.64,-97.0481,241.511,11.7856,-1083.69,11885.5,-60.3619,-20.0278,-36.2913,-98.9533,12850.6,24157.5,-3657.36,-23.2209,-50.4681,-283.9,4020.5,9761.96,475.043,3.69451,-10.9323,-58.8179,2089.95,-6394.73,206.11,-21.7223,68.2851,-45.6996,9094.84,1382.03,-841.796,-86.3092,-35.4876,1.93733
2.7365,3669.13,1011.81,10343.1,-5.71396,-66.1573,-20.9882,27591.2,3886.19,5690.61,-97.2003,239.916,13.7597,-1083.98,11917.0,-30.4342,-20.2138,-36.429,-99.4901,12923.0,24147.9,-3762.39,-22.2221,-51.3071,-282.274,4019.27,9773.55,526.629,4.52516,-11.2171,-58.8853,2200.92,-6414.18,137.976,-22.7025,66.69,-44.3806,9139.72,1392.31,-851.714,-86.3752,-35.2082,1.67205
2.737,3659.35,998.751,10367.2,-5.57159,-66.8787,-20.6975,27622.7,3940.03,5535.58,-97.3525,238.322,15.7337,-1084.26,11948.5,-0.506533,-20.3998,-36.5667,-100.027,12995.4,24138.4,-3867.43,-21.2233,-52.1461,-280.648,4018.04,9785.15,578.215,5.3558,-11.5019,-58.9527,2311.89,-6433.64,69.8407,-23.6826,65.0949,-43.0615,9184.6,1402.59,-861.632,-86.4413,-34.9288,1.40677
2.7375,3649.57,985.688,10391.3,-5.42922,-67.6001,-20.4068,27654.2,3993.87,5380.55,-97.5047,236.727,17.7078,-1084.55,11980.0,29.4212,-20.5858,-36.7044,-100.564,13067.8,24128.8,-3972.46,-20.2245,-52.9851,-279.022,4016.81,9796.75,629.801,6.18644,-11.7867,-59.0201,2422.86,-6453.09,1.70587,-24.6627,63.4998,-41.7424,9229.48,1412.87,-871.55,-86.5074,-34.6493,1.14149
2.738,3643.48,990.098,10418.8,-5.32208,-68.3624,-20.0978,27677.0,4047.23,5198.49,-97.4799,234.878,19.5535,-1087.25,12010.4,43.8484,-20.7565,-36.8301,-101.115,13170.9,24106.4,-4103.15,-19.1885,-53.7922,-277.272,4018.35,9817.3,686.426,6.92169,-12.2096,-59.0759,2540.02,-6495.06,-31.25,-25.6998,62.2936,-40.1321,9288.03,1414.64,-882.484,-86.5844,-34.3745,0.886588
2.7385,3641.99,1016.35,10450.6,-5.259,-69.1758,-19.7658,27688.8,4100.01,4982.63,-97.2337,232.71,21.2387,-1092.99,12039.5,38.9002,-20.9082,-36.9409,-101.686,13312.4,24067.7,-4265.93,-18.106,-54.5594,-275.366,4023.34,9849.06,749.349,7.53769,-12.8051,-59.1171,2664.91,-6565.18,-20.232,-26.8081,61.5736,-38.1576,9363.66,1405.76,-894.688,-86.6752,-34.1053,0.64465
2.739,3640.5,1042.6,10482.4,-5.19592,-69.9892,-19.4339,27700.6,4152.79,4766.78,-96.9875,230.542,22.9239,-1098.73,12068.5,33.952,-21.0598,-37.0517,-102.256,13453.9,24029.1,-4428.7,-17.0235,-55.3266,-273.46,4028.33,9880.82,812.272,8.15369,-13.4007,-59.1582,2789.8,-6635.3,-9.21404,-27.9164,60.8535,-36.1832,9439.3,1396.88,-906.891,-86.766,-33.8362,0.402712
2.7395,3639.01,1068.85,10514.2,-5.13283,-70.8026,-19.1019,27712.3,4205.57,4550.93,-96.7413,228.375,24.6091,-1104.47,12097.5,29.0038,-21.2115,-37.1624,-102.826,13595.3,23990.5,-4591.48,-15.941,-56.0938,-271.555,4033.32,9912.58,875.195,8.7697,-13.9962,-59.1995,2914.7,-6705.43,1.80391,-29.0247,60.1335,-34.2088,9514.93,1387.99,-919.095,-86.8567,-33.567,0.160774
2.74,3637.51,1095.1,10546.0,-5.06975,-71.6161,-18.77,27724.1,4258.34,4335.07,-96.4951,226.207,26.2944,-1110.21,12126.6,24.0556,-21.3631,-37.2732,-103.397,13736.8,23951.8,-4754.25,-14.8586,-56.861,-269.649,4038.31,9944.34,938.118,9.3857,-14.5917,-59.2407,3039.59,-6775.55,12.8219,-30.133,59.4134,-32.2344,9590.57,1379.11,-931.299,-86.9475,-33.2979,-0.0811637
2.7405,3636.02,1121.35,10577.8,-5.00666,-72.4295,-18.438,27735.9,4311.12,4119.22,-96.2488,224.039,27.9796,-1115.95,12155.6,19.1074,-21.5148,-37.384,-103.967,13878.2,23913.2,-4917.03,-13.7761,-57.6282,-267.744,4043.3,9976.09,1001.04,10.0017,-15.1873,-59.2818,3164.48,-6845.67,23.8398,-31.2413,58.6933,-30.2599,9666.2,1370.23,-943.503,-87.0383,-33.0287,-0.323102
2.741,3634.53,1147.6,10609.6,-4.94358,-73.2429,-18.1061,27747.7,4363.9,3903.37,-96.0026,221.871,29.6648,-1121.69,12184.7,14.1592,-21.6665,-37.4948,-104.537,14019.7,23874.6,-5079.8,-12.6936,-58.3955,-265.838,4048.3,10007.9,1063.96,10.6177,-15.7828,-59.323,3289.38,-6915.79,34.8578,-32.3496,57.9733,-28.2855,9741.84,1361.35,-955.706,-87.129,-32.7596,-0.56504
2.7415,3633.04,1173.85,10641.3,-4.8805,-74.0563,-17.7741,27759.5,4416.68,3687.52,-95.7564,219.704,31.35,-1127.43,12213.7,9.21096,-21.8181,-37.6056,-105.107,14161.2,23835.9,-5242.58,-11.6111,-59.1627,-263.933,4053.29,10039.6,1126.89,11.2337,-16.3783,-59.3642,3414.27,-6985.92,45.8757,-33.4579,57.2532,-26.3111,9817.47,1352.47,-967.91,-87.2198,-32.4905,-0.806978
2.742,3631.55,1200.1,10673.1,-4.81741,-74.8698,-17.4422,27771.3,4469.45,3471.66,-95.5102,217.536,33.0353,-1133.17,12242.7,4.26275,-21.9698,-37.7164,-105.678,14302.6,23797.3,-5405.35,-10.5286,-59.9299,-262.027,4058.28,10071.4,1189.81,11.8497,-16.9739,-59.4054,3539.16,-7056.04,56.8937,-34.5662,56.5332,-24.3367,9893.11,1343.59,-980.114,-87.3106,-32.2213,-1.04892
2.7425,3636.53,1211.64,10705.8,-4.68928,-75.7297,-17.136,27788.2,4531.31,3216.75,-95.1802,215.379,34.5555,-1136.5,12273.8,-5.05206,-22.1147,-37.8185,-106.253,14484.6,23723.5,-5617.91,-9.39912,-60.5062,-260.069,4051.87,10119.2,1246.64,12.4569,-17.6885,-59.4015,3694.7,-7160.91,123.298,-35.4728,55.8832,-22.1017,9984.62,1332.2,-991.177,-87.3205,-31.9237,-1.3335
2.743,3646.7,1211.42,10739.3,-4.5091,-76.6268,-16.8503,27809.4,4600.42,2930.58,-94.7831,213.231,35.9436,-1137.9,12306.4,-17.8601,-22.2542,-37.9138,-106.832,14699.1,23621.5,-5870.29,-8.23196,-60.9297,-258.068,4036.35,10180.0,1298.59,13.0569,-18.4984,-59.3615,3874.76,-7293.58,234.012,-36.2182,55.2893,-19.6583,10088.8,1318.81,-1001.33,-87.2659,-31.6034,-1.65219
2.7435,3656.86,1211.2,10772.7,-4.32893,-77.5239,-16.5647,27830.5,4669.54,2644.41,-94.3859,211.083,37.3318,-1139.3,12339.1,-30.6682,-22.3938,-38.009,-107.411,14913.5,23519.5,-6122.67,-7.0648,-61.3533,-256.067,4020.83,10240.8,1350.55,13.657,-19.3083,-59.3215,4054.82,-7426.26,344.726,-36.9636,54.6953,-17.2149,10193.0,1305.42,-1011.48,-87.2113,-31.2832,-1.97089
2.744,3667.02,1210.98,10806.1,-4.14876,-78.4211,-16.279,27851.7,4738.65,2358.24,-93.9888,208.935,38.7199,-1140.7,12371.7,-43.4763,-22.5333,-38.1043,-107.989,15128.0,23417.5,-6375.04,-5.89764,-61.7768,-254.067,4005.31,10301.6,1402.51,14.257,-20.1182,-59.2815,4234.88,-7558.93,455.44,-37.7089,54.1014,-14.7715,10297.2,1292.03,-1021.63,-87.1566,-30.9629,-2.28958
2.7445,3677.19,1210.76,10839.6,-3.96858,-79.3182,-15.9934,27872.8,4807.77,2072.07,-93.5917,206.787,40.1081,-1142.1,12404.4,-56.2844,-22.6729,-38.1996,-108.568,15342.4,23315.5,-6627.42,-4.73048,-62.2003,-252.066,3989.78,10362.3,1454.46,14.8571,-20.9282,-59.2415,4414.94,-7691.6,566.154,-38.4543,53.5075,-12.3281,10401.5,1278.64,-1031.78,-87.102,-30.6426,-2.60828
2.745,3687.35,1210.54,10873.0,-3.78841,-80.2153,-15.7078,27893.9,4876.88,1785.9,-93.1945,204.639,41.4962,-1143.5,12437.0,-69.0925,-22.8124,-38.2948,-109.147,15556.8,23213.5,-6879.8,-3.56332,-62.6239,-250.066,3974.26,10423.1,1506.42,15.4572,-21.7381,-59.2015,4595.0,-7824.28,676.868,-39.1996,52.9136,-9.88464,10505.7,1265.25,-1041.93,-87.0473,-30.3223,-2.92697
2.7455,3697.51,1210.32,10906.5,-3.60824,-81.1125,-15.4221,27915.1,4946.0,1499.73,-92.7974,202.491,42.8844,-1144.9,12469.7,-81.9006,-22.9519,-38.3901,-109.726,15771.3,23111.5,-7132.18,-2.39616,-63.0474,-248.065,3958.74,10483.9,1558.37,16.0572,-22.548,-59.1615,4775.06,-7956.95,787.582,-39.945,52.3196,-7.44124,10609.9,1251.86,-1052.08,-86.9927,-30.002,-3.24566
2.746,3707.67,1210.1,10939.9,-3.42806,-82.0096,-15.1365,27936.2,5015.11,1213.57,-92.4003,200.343,44.2725,-1146.3,12502.4,-94.7087,-23.0915,-38.4853,-110.305,15985.7,23009.5,-7384.56,-1.229,-63.471,-246.064,3943.22,10544.6,1610.33,16.6573,-23.3579,-59.1215,4955.12,-8089.63,898.296,-40.6903,51.7257,-4.99783,10714.1,1238.47,-1062.23,-86.9381,-29.6817,-3.56436
2.7465,3717.84,1209.88,10973.3,-3.24789,-82.9067,-14.8508,27957.4,5084.23,927.397,-92.0031,198.195,45.6607,-1147.7,12535.0,-107.517,-23.231,-38.5806,-110.884,16200.2,22907.5,-7636.94,-0.0618396,-63.8945,-244.064,3927.69,10605.4,1662.28,17.2574,-24.1678,-59.0815,5135.18,-8222.3,1009.01,-41.4357,51.1318,-2.55442,10818.3,1225.07,-1072.39,-86.8834,-29.3614,-3.88305
2.747,3725.19,1187.72,10981.1,-2.979,-83.8768,-14.5765,27996.0,5161.46,692.95,-91.0853,196.038,46.9199,-1147.48,12579.6,-109.584,-23.4284,-38.5918,-111.48,16472.6,22788.8,-7901.18,0.886647,-63.9058,-241.975,3890.21,10637.7,1699.75,18.0512,-25.1741,-59.0374,5355.0,-8411.98,1142.47,-41.3924,50.4933,-0.0998933,10925.7,1190.47,-1076.38,-86.7902,-28.9282,-4.28308
2.7475,3731.14,1154.58,10976.1,-2.66576,-84.8833,-14.3078,28043.3,5242.74,484.363,-89.9072,193.876,48.1148,-1146.44,12630.1,-106.282,-23.6548,-38.561,-112.085,16774.1,22661.7,-8171.35,1.7258,-63.7109,-239.842,3841.73,10655.7,1729.98,18.9418,-26.2785,-58.9913,5594.71,-8630.17,1287.3,-40.9549,49.8326,2.36019,11034.7,1145.27,-1077.3,-86.6776,-28.4385,-4.72376
2.748,3737.09,1121.45,10971.1,-2.35252,-85.8899,-14.0391,28090.6,5324.02,275.776,-88.729,191.713,49.3096,-1145.4,12680.6,-102.979,-23.8812,-38.5302,-112.69,17075.6,22534.6,-8441.52,2.56495,-63.516,-237.71,3793.26,10673.7,1760.2,19.8325,-27.3829,-58.9451,5834.42,-8848.37,1432.13,-40.5174,49.1719,4.82027,11143.8,1100.06,-1078.22,-86.565,-27.9489,-5.16445
2.7485,3743.04,1088.31,10966.1,-2.03927,-86.8964,-13.7705,28138.0,5405.31,67.1893,-87.5509,189.551,50.5045,-1144.36,12731.1,-99.6765,-24.1075,-38.4995,-113.296,17377.1,22407.6,-8711.69,3.4041,-63.3211,-235.577,3744.79,10691.7,1790.43,20.7231,-28.4874,-58.899,6074.13,-9066.56,1576.96,-40.0798,48.5111,7.28035,11252.8,1054.86,-1079.15,-86.4524,-27.4592,-5.60513
2.749,3748.99,1055.17,10961.1,-1.72603,-87.9029,-13.5018,28185.3,5486.59,-141.398,-86.3727,187.389,51.6993,-1143.32,12781.6,-96.3738,-24.3339,-38.4687,-113.901,17678.5,22280.5,-8981.87,4.24325,-63.1262,-233.444,3696.32,10709.8,1820.65,21.6138,-29.5918,-58.8529,6313.84,-9284.75,1721.79,-39.6423,47.8504,9.74043,11361.8,1009.65,-1080.07,-86.3398,-26.9696,-6.04582
2.7495,3754.94,1022.04,10956.1,-1.41278,-88.9095,-13.2331,28232.6,5567.87,-349.985,-85.1946,185.226,52.8942,-1142.28,12832.2,-93.0712,-24.5602,-38.4379,-114.506,17980.0,22153.4,-9252.04,5.0824,-62.9313,-231.312,3647.85,10727.8,1850.88,22.5044,-30.6962,-58.8067,6553.55,-9502.94,1866.62,-39.2048,47.1897,12.2005,11470.8,964.445,-1080.99,-86.2273,-26.4799,-6.4865
2.75,3760.88,988.901,10951.0,-1.09954,-89.916,-12.9644,28280.0,5649.16,-558.571,-84.0164,183.064,54.089,-1141.24,12882.7,-89.7686,-24.7866,-38.4071,-115.111,18281.5,22026.3,-9522.21,5.92155,-62.7365,-229.179,3599.38,10745.8,1881.11,23.3951,-31.8007,-58.7606,6793.26,-9721.13,2011.45,-38.7672,46.5289,14.6606,11579.8,919.239,-1081.91,-86.1147,-25.9902,-6.92719
2.7505,3766.83,955.765,10946.0,-0.786296,-90.9225,-12.6957,28327.3,5730.44,-767.158,-82.8383,180.902,55.2838,-1140.2,12933.2,-86.466,-25.013,-38.3763,-115.717,18583.0,21899.3,-9792.39,6.7607,-62.5416,-227.046,3550.91,10763.8,1911.33,24.2858,-32.9051,-58.7145,7032.97,-9939.32,2156.29,-38.3297,45.8682,17.1207,11688.9,874.033,-1082.83,-86.0021,-25.5006,-7.36788
2.751,3772.78,922.629,10941.0,-0.473052,-91.9291,-12.4271,28374.6,5811.72,-975.745,-81.6601,178.74,56.4787,-1139.16,12983.7,-83.1633,-25.2393,-38.3455,-116.322,18884.4,21772.2,-10062.6,7.59985,-62.3467,-224.914,3502.44,10781.8,1941.56,25.1764,-34.0095,-58.6683,7272.68,-10157.5,2301.12,-37.8922,45.2075,19.5807,11797.9,828.827,-1083.75,-85.8895,-25.0109,-7.80856
2.7515,3792.57,885.737,10951.2,-0.131255,-92.9257,-12.1952,28513.8,5762.66,-1181.11,-79.2329,176.667,57.2697,-1142.39,13013.8,-92.7632,-25.382,-38.229,-116.927,19272.1,21661.7,-10280.5,7.57424,-60.7324,-222.415,3453.14,10807.7,1962.15,25.6666,-35.132,-58.5284,7572.57,-10440.5,2394.56,-35.9286,45.3912,21.6651,11897.5,791.876,-1082.76,-85.689,-24.5051,-8.11387
2.752,3816.3,847.773,10965.7,0.218699,-93.9195,-11.9739,28679.3,5676.34,-1385.54,-76.4489,174.619,57.9453,-1146.85,13038.1,-106.049,-25.5008,-38.088,-117.533,19684.3,21556.0,-10483.6,7.30156,-58.7125,-219.812,3403.6,10835.9,1979.99,26.0424,-36.2596,-58.3617,7889.66,-10742.0,2473.31,-33.529,45.8162,23.6421,11994.4,757.283,-1081.23,-85.4634,-23.9947,-8.38051
2.7525,3840.04,809.809,10980.2,0.568653,-94.9133,-11.7525,28844.8,5590.03,-1589.98,-73.6648,172.572,58.621,-1151.31,13062.4,-119.336,-25.6197,-37.947,-118.138,20096.5,21450.3,-10686.6,7.02888,-56.6927,-217.209,3354.07,10864.0,1997.83,26.4181,-37.3872,-58.195,8206.74,-11043.5,2552.07,-31.1294,46.2412,25.6192,12091.3,722.691,-1079.7,-85.2377,-23.4843,-8.64714
2.753,3863.77,771.844,10994.7,0.918607,-95.9071,-11.5312,29010.2,5503.72,-1794.42,-70.8807,170.525,59.2966,-1155.76,13086.6,-132.622,-25.7385,-37.806,-118.744,20508.8,21344.5,-10889.7,6.7562,-54.6728,-214.605,3304.53,10892.2,2015.67,26.7939,-38.5149,-58.0283,8523.83,-11345.0,2630.83,-28.7298,46.6662,27.5962,12188.2,688.098,-1078.16,-85.0121,-22.9739,-8.91378
2.7535,3887.51,733.88,11009.2,1.26856,-96.9009,-11.3099,29175.7,5417.41,-1998.86,-68.0967,168.478,59.9723,-1160.22,13110.9,-145.908,-25.8573,-37.665,-119.35,20921.0,21238.8,-11092.7,6.48352,-52.6529,-212.002,3254.99,10920.3,2033.51,27.1697,-39.6425,-57.8616,8840.91,-11646.5,2709.59,-26.3302,47.0911,29.5732,12285.1,653.505,-1076.63,-84.7865,-22.4635,-9.18041
2.754,3911.24,695.915,11023.7,1.61852,-97.8947,-11.0885,29341.2,5331.1,-2203.3,-65.3126,166.43,60.6479,-1164.67,13135.2,-159.195,-25.9761,-37.5239,-119.955,21333.2,21133.0,-11295.8,6.21084,-50.6331,-209.399,3205.46,10948.5,2051.35,27.5455,-40.7701,-57.695,9158.0,-11948.0,2788.34,-23.9306,47.5161,31.5502,12382.0,618.913,-1075.09,-84.5609,-21.9531,-9.44705
2.7545,3934.98,657.951,11038.3,1.96847,-98.8885,-10.8672,29506.6,5244.79,-2407.74,-62.5285,164.383,61.3235,-1169.13,13159.5,-172.481,-26.0949,-37.3829,-120.561,21745.4,21027.3,-11498.8,5.93817,-48.6132,-206.796,3155.92,10976.6,2069.19,27.9212,-41.8977,-57.5283,9475.08,-12249.5,2867.1,-21.531,47.9411,33.5272,12478.9,584.32,-1073.56,-84.3352,-21.4426,-9.71368
2.755,3958.71,619.986,11052.8,2.31842,-99.8823,-10.6459,29672.1,5158.48,-2612.18,-59.7445,162.336,61.9992,-1173.58,13183.8,-185.767,-26.2138,-37.2419,-121.166,22157.7,20921.6,-11701.9,5.66549,-46.5934,-204.192,3106.39,11004.7,2087.03,28.297,-43.0253,-57.3616,9792.17,-12551.0,2945.86,-19.1314,48.3661,35.5042,12575.8,549.727,-1072.03,-84.1096,-20.9322,-9.98031
2.7555,3982.45,582.022,11067.3,2.66838,-100.876,-10.4245,29837.6,5072.16,-2816.61,-56.9604,160.288,62.6748,-1178.04,13208.0,-199.053,-26.3326,-37.1009,-121.772,22569.9,20815.8,-11904.9,5.39281,-44.5735,-201.589,3056.85,11032.9,2104.87,28.6728,-44.153,-57.1949,10109.3,-12852.5,3024.62,-16.7318,48.7911,37.4813,12672.7,515.134,-1070.49,-83.884,-20.4218,-10.2469
2.756,3986.56,561.115,11081.6,2.96776,-101.881,-10.2928,30237.7,4803.24,-3107.48,-52.5661,158.627,62.874,-1174.8,13230.1,-204.313,-26.4657,-36.925,-122.335,23075.3,20748.0,-11919.5,4.94569,-41.6391,-198.653,2981.63,11101.0,2149.23,29.0274,-45.6793,-56.9784,10537.6,-13165.4,2970.34,-12.6019,51.2705,38.5468,12747.6,457.753,-1048.05,-83.7287,-20.0832,-10.6169
2.7565,3988.22,542.34,11095.9,3.26082,-102.888,-10.1722,30667.1,4511.49,-3409.15,-47.9705,157.014,63.0136,-1170.6,13251.8,-208.57,-26.6006,-36.7448,-122.893,23592.4,20684.9,-11910.5,4.47677,-38.5904,-195.674,2903.2,11174.2,2196.91,29.3795,-47.2555,-56.7557,10979.8,-13479.6,2899.42,-8.25568,54.0067,39.4984,12819.8,397.523,-1022.98,-83.5822,-19.7661,-10.9997
2.757,3989.88,523.565,11110.2,3.55388,-103.895,-10.0517,31096.5,4219.74,-3710.82,-43.3749,155.401,63.1533,-1166.4,13273.6,-212.827,-26.7355,-36.5646,-123.451,24109.4,20621.8,-11901.5,4.00785,-35.5416,-192.696,2824.77,11247.4,2244.59,29.7315,-48.8317,-56.533,11422.0,-13793.9,2828.51,-3.9095,56.7429,40.45,12891.9,337.293,-997.924,-83.4357,-19.4489,-11.3825
2.7575,3991.54,504.79,11124.5,3.84694,-104.901,-9.93113,31525.9,3927.99,-4012.49,-38.7793,153.788,63.2929,-1162.21,13295.3,-217.083,-26.8704,-36.3843,-124.01,24626.5,20558.6,-11892.6,3.53894,-32.4929,-189.717,2746.34,11320.5,2292.27,30.0835,-50.4079,-56.3103,11864.2,-14108.2,2757.6,0.436693,59.4791,41.4016,12964.0,277.062,-972.864,-83.2892,-19.1318,-11.7653
2.758,3993.21,486.015,11138.8,4.14,-105.908,-9.81058,31955.3,3636.23,-4314.16,-34.1837,152.175,63.4325,-1158.01,13317.1,-221.34,-27.0054,-36.2041,-124.568,25143.5,20495.5,-11883.6,3.07002,-29.4442,-186.739,2667.91,11393.7,2339.96,30.4355,-51.9841,-56.0875,12306.4,-14422.4,2686.69,4.78288,62.2153,42.3532,13036.2,216.832,-947.803,-83.1427,-18.8147,-12.1481
2.7585,3994.87,467.24,11153.1,4.43306,-106.915,-9.69003,32384.7,3344.48,-4615.84,-29.5881,150.562,63.5722,-1153.81,13338.9,-225.597,-27.1403,-36.0239,-125.126,25660.5,20432.4,-11874.6,2.6011,-26.3955,-183.761,2589.48,11466.9,2387.64,30.7875,-53.5602,-55.8648,12748.7,-14736.7,2615.78,9.12907,64.9515,43.3048,13108.3,156.602,-922.742,-82.9962,-18.4975,-12.5309
2.759,3996.53,448.466,11167.4,4.72612,-107.921,-9.56948,32814.2,3052.73,-4917.51,-24.9925,148.949,63.7118,-1149.61,13360.6,-229.853,-27.2752,-35.8436,-125.684,26177.6,20369.3,-11865.6,2.13218,-23.3468,-180.782,2511.05,11540.0,2435.32,31.1396,-55.1364,-55.6421,13190.9,-15050.9,2544.86,13.4753,67.6877,44.2564,13180.4,96.3719,-897.681,-82.8498,-18.1804,-12.9138
2.7595,3998.19,429.691,11181.7,5.01918,-108.928,-9.44893,33243.6,2760.98,-5219.18,-20.3969,147.336,63.8515,-1145.42,13382.4,-234.11,-27.4101,-35.6634,-126.242,26694.6,20306.2,-11856.6,1.66326,-20.298,-177.804,2432.62,11613.2,2483.0,31.4916,-56.7126,-55.4194,13633.1,-15365.2,2473.95,17.8214,70.4239,45.208,13252.6,36.1418,-872.621,-82.7033,-17.8633,-13.2966
2.76,3999.85,410.916,11196.0,5.31224,-109.935,-9.32838,33673.0,2469.23,-5520.85,-15.8013,145.723,63.9911,-1141.22,13404.1,-238.367,-27.545,-35.4832,-126.8,27211.7,20243.0,-11847.7,1.19434,-17.2493,-174.826,2354.19,11686.3,2530.68,31.8436,-58.2888,-55.1967,14075.3,-15679.5,2403.04,22.1676,73.1601,46.1596,13324.7,-24.0884,-847.56,-82.5568,-17.5461,-13.6794
2.7605,3998.97,440.921,11198.1,5.65898,-111.061,-9.17179,34189.8,2142.74,-5800.45,-10.217,144.742,63.626,-1141.67,13423.0,-234.309,-27.7571,-35.1474,-127.429,27676.9,20107.9,-11682.8,1.05446,-13.5055,-171.957,2263.47,11713.2,2549.13,32.0701,-60.0845,-54.8239,14641.4,-15875.2,2234.73,27.8874,78.1933,46.279,13357.1,-103.761,-839.059,-82.4202,-17.4023,-13.9562
2.761,3998.08,470.927,11200.1,6.00573,-112.188,-9.0152,34706.7,1816.25,-6080.05,-4.63273,143.761,63.2609,-1142.12,13441.9,-230.251,-27.9692,-34.8117,-128.058,28142.0,19972.8,-11518.0,0.914582,-9.76176,-169.088,2172.76,11740.1,2567.58,32.2966,-61.8802,-54.4511,15207.5,-16071.0,2066.42,33.6072,83.2265,46.3984,13389.5,-183.434,-830.558,-82.2837,-17.2585,-14.233
2.7615,3997.2,500.932,11202.1,6.35247,-113.314,-8.85861,35223.5,1489.75,-6359.66,0.951541,142.78,62.8958,-1142.57,13460.8,-226.193,-28.1813,-34.476,-128.687,28607.2,19837.7,-11353.1,0.774701,-6.01799,-166.219,2082.04,11766.9,2586.04,32.5231,-63.6758,-54.0782,15773.6,-16266.8,1898.11,39.3269,88.2597,46.5178,13421.9,-263.107,-822.057,-82.1472,-17.1147,-14.5098
2.762,3996.31,530.938,11204.2,6.69921,-114.44,-8.70202,35740.4,1163.26,-6639.26,6.53581,141.799,62.5307,-1143.02,13479.7,-222.135,-28.3934,-34.1402,-129.316,29072.4,19702.6,-11188.2,0.63482,-2.27421,-163.35,1991.32,11793.8,2604.49,32.7496,-65.4715,-53.7054,16339.7,-16462.6,1729.8,45.0467,93.2929,46.6373,13454.2,-342.78,-813.557,-82.0106,-16.9709,-14.7866
2.7625,3995.43,560.943,11206.2,7.04595,-115.567,-8.54543,36257.2,836.772,-6918.86,12.1201,140.819,62.1656,-1143.47,13498.6,-218.077,-28.6055,-33.8045,-129.946,29537.6,19567.5,-11023.4,0.494939,1.46956,-160.482,1900.61,11820.7,2622.94,32.9761,-67.2672,-53.3326,16905.8,-16658.4,1561.49,50.7665,98.326,46.7567,13486.6,-422.453,-805.056,-81.8741,-16.8271,-15.0634
2.763,3994.55,590.949,11208.3,7.3927,-116.693,-8.38884,36774.1,510.281,-7198.47,17.7044,139.838,61.8005,-1143.92,13517.5,-214.02,-28.8175,-33.4688,-130.575,30002.8,19432.4,-10858.5,0.355058,5.21333,-157.613,1809.89,11847.5,2641.4,33.2025,-69.0629,-52.9597,17471.9,-16854.2,1393.18,56.4862,103.359,46.8761,13519.0,-502.125,-796.555,-81.7375,-16.6832,-15.3402
2.7635,3993.66,620.954,11210.3,7.73944,-117.819,-8.23225,37290.9,183.789,-7478.07,23.2886,138.857,61.4354,-1144.37,13536.4,-209.962,-29.0296,-33.133,-131.204,30467.9,19297.2,-10693.7,0.215177,8.95711,-154.744,1719.18,11874.4,2659.85,33.429,-70.8586,-52.5869,18038.0,-17050.0,1224.87,62.206,108.392,46.9955,13551.4,-581.798,-788.054,-81.601,-16.5394,-15.617
2.764,3992.78,650.959,11212.3,8.08618,-118.946,-8.07566,37807.8,-142.702,-7757.67,28.8729,137.876,61.0703,-1144.81,13555.3,-205.904,-29.2417,-32.7973,-131.833,30933.1,19162.1,-10528.8,0.0752958,12.7009,-151.875,1628.46,11901.3,2678.3,33.6555,-72.6542,-52.2141,18604.1,-17245.8,1056.56,67.9258,113.426,47.115,13583.8,-661.471,-779.553,-81.4644,-16.3956,-15.8937
2.7645,3991.4,682.139,11216.6,8.43288,-120.076,-7.91158,38303.0,-459.233,-8037.86,34.4062,136.903,60.6458,-1144.18,13572.6,-199.263,-29.4503,-32.4702,-132.46,31385.1,19026.4,-10339.3,0.0308713,16.4216,-149.019,1541.39,11927.1,2692.99,33.8901,-74.4639,-51.8199,19169.0,-17421.7,898.754,73.5298,118.454,47.1928,13613.8,-738.86,-771.102,-81.2681,-16.2723,-16.1649
