Time,RFoot_accel.x,RFoot_accel.y,RFoot_accel.z,RFoot_gyro.x,RFoot_gyro.y,RFoot_gyro.z,LFoot_accel.x,LFoot_accel.y,LFoot_accel.z,LFoot_gyro.x,LFoot_gyro.y,LFoot_gyro.z,RShank_accel.x,RShank_accel.y,RShank_accel.z,RShank_gyro.x,RShank_gyro.y,RShank_gyro.z,LShank_accel.x,LShank_accel.y,LShank_accel.z,LShank_gyro.x,LShank_gyro.y,LShank_gyro.z,RThigh_accel.x,RThigh_accel.y,RThigh_accel.z,RThigh_gyro.x,RThigh_gyro.y,RThigh_gyro.z,LThigh_accel.x,LThigh_accel.y,LThigh_accel.z,LThigh_gyro.x,LThigh_gyro.y,LThigh_gyro.z,Pelvis_accel.x,Pelvis_accel.y,Pelvis_accel.z,Pelvis_gyro.x,Pelvis_gyro.y,Pelvis_gyro.z
4.0,7074.97,-2695.07,10472.0,26.4495,195.874,75.6426,3157.89,-2300.14,8943.86,1.44601,-3.26889,6.24158,-2155.83,12057.9,-1987.29,-7.81981,73.8807,201.625,-932.521,10404.4,-182.086,10.9034,16.158,22.0908,-2005.29,8724.57,-2199.79,-35.1988,144.445,102.097,2280.56,-10647.5,1031.52,-4.83159,-27.6313,81.0076,7751.33,-798.432,1034.82,41.4108,5.89177,11.6682
4.0005,7075.03,-2707.34,10458.1,26.3725,195.991,75.8579,3154.2,-2309.45,8932.09,1.81722,-3.33587,6.02927,-2173.23,12050.8,-1981.36,-7.72631,74.0701,201.756,-906.664,10403.4,-200.593,10.938,16.3514,22.3858,-2038.26,8745.43,-2190.57,-35.9577,144.648,101.989,2374.48,-10582.7,1020.6,-4.91067,-28.2413,80.7357,7776.7,-796.056,1034.7,41.2982,5.77666,11.4631
4.001,7075.08,-2719.62,10444.3,26.2955,196.108,76.0732,3150.51,-2318.77,8920.32,2.18844,-3.40284,5.81696,-2190.62,12043.6,-1975.42,-7.63282,74.2595,201.888,-880.807,10402.5,-219.101,10.9725,16.5449,22.6808,-2071.22,8766.3,-2181.34,-36.7166,144.851,101.881,2468.41,-10518.0,1009.68,-4.98975,-28.8513,80.4637,7802.07,-793.679,1034.57,41.1855,5.66155,11.258
4.0015,7075.13,-2731.89,10430.4,26.2186,196.225,76.2885,3146.82,-2328.08,8908.55,2.55965,-3.46982,5.60465,-2208.02,12036.5,-1969.49,-7.53932,74.4488,202.019,-854.949,10401.5,-237.609,11.0071,16.7383,22.9758,-2104.19,8787.17,-2172.12,-37.4755,145.054,101.773,2562.34,-10453.3,998.758,-5.06883,-29.4613,80.1917,7827.45,-791.302,1034.45,41.0728,5.54644,11.0529
4.002,7075.19,-2744.17,10416.5,26.1416,196.342,76.5038,3143.12,-2337.39,8896.79,2.93087,-3.53679,5.39234,-2225.42,12029.4,-1963.56,-7.44583,74.6382,202.151,-829.092,10400.5,-256.116,11.0417,16.9318,23.2708,-2137.16,8808.03,-2162.9,-38.2344,145.257,101.665,2656.27,-10388.6,987.838,-5.14791,-30.0713,79.9198,7852.82,-788.925,1034.33,40.9602,5.43133,10.8478
4.0025,7075.24,-2756.44,10402.7,26.0646,196.459,76.7191,3139.43,-2346.71,8885.02,3.30208,-3.60376,5.18004,-2242.82,12022.2,-1957.63,-7.35233,74.8276,202.282,-803.235,10399.6,-274.624,11.0763,17.1252,23.5658,-2170.13,8828.9,-2153.67,-38.9933,145.459,101.557,2750.2,-10323.8,976.917,-5.22699,-30.6814,79.6478,7878.19,-786.549,1034.21,40.8475,5.31623,10.6427
4.003,7075.29,-2768.72,10388.8,25.9876,196.576,76.9344,3135.74,-2356.02,8873.25,3.6733,-3.67074,4.96773,-2260.21,12015.1,-1951.7,-7.25884,75.017,202.414,-777.378,10398.6,-293.132,11.1109,17.3186,23.8607,-2203.1,8849.77,-2144.45,-39.7522,145.662,101.449,2844.13,-10259.1,965.997,-5.30608,-31.2914,79.3758,7903.57,-784.172,1034.09,40.7349,5.20112,10.4376
4.0035,7075.35,-2781.0,10374.9,25.9106,196.693,77.1497,3132.05,-2365.33,8861.48,4.04451,-3.73771,4.75542,-2277.61,12008.0,-1945.77,-7.16534,75.2063,202.545,-751.52,10397.6,-311.639,11.1454,17.5121,24.1557,-2236.06,8870.63,-2135.23,-40.5111,145.865,101.341,2938.05,-10194.4,955.077,-5.38516,-31.9014,79.1039,7928.94,-781.795,1033.96,40.6222,5.08601,10.2325
4.004,7075.4,-2793.27,10361.1,25.8336,196.81,77.365,3128.36,-2374.65,8849.72,4.41573,-3.80468,4.54311,-2295.01,12000.8,-1939.83,-7.07184,75.3957,202.677,-725.663,10396.7,-330.147,11.18,17.7055,24.4507,-2269.03,8891.5,-2126.0,-41.27,146.068,101.233,3031.98,-10129.7,944.156,-5.46424,-32.5114,78.8319,7954.31,-779.418,1033.84,40.5095,4.9709,10.0274
4.0045,7077.15,-2804.81,10349.0,25.7643,196.922,77.5911,3127.0,-2384.4,8841.15,4.80414,-3.86997,4.32876,-2311.0,11993.7,-1937.01,-6.9733,75.5891,202.808,-701.426,10395.8,-346.91,11.2152,17.9003,24.7488,-2302.0,8911.81,-2115.09,-42.0215,146.259,101.131,3125.68,-10065.8,930.139,-5.5521,-33.0966,78.5684,7978.82,-778.211,1035.51,40.3938,4.84688,9.83235
4.005,7092.45,-2810.49,10351.7,25.7557,196.998,77.9044,3144.32,-2397.74,8858.17,5.33018,-3.92178,4.09811,-2315.72,11987.0,-1959.06,-6.83432,75.8145,202.941,-690.148,10395.8,-349.718,11.255,18.1055,25.0721,-2334.95,8927.63,-2090.7,-42.7134,146.36,101.08,3217.56,-10009.3,891.346,-5.7102,-33.4834,78.3722,7996.44,-786.353,1051.54,40.2537,4.65153,9.71773
4.0055,7107.75,-2816.17,10354.4,25.7472,197.074,78.2177,3161.63,-2411.07,8875.19,5.85622,-3.97358,3.86745,-2320.44,11980.3,-1981.1,-6.69535,76.0399,203.074,-678.87,10395.8,-352.526,11.2948,18.3108,25.3954,-2367.91,8943.45,-2066.3,-43.4052,146.461,101.029,3309.44,-9952.7,852.553,-5.86829,-33.8703,78.1761,8014.06,-794.496,1067.56,40.1135,4.45618,9.60311
4.006,7123.05,-2821.85,10357.0,25.7387,197.149,78.531,3178.95,-2424.41,8892.22,6.38226,-4.02538,3.63679,-2325.17,11973.6,-2003.15,-6.55638,76.2652,203.206,-667.592,10395.8,-355.333,11.3346,18.5161,25.7187,-2400.86,8959.26,-2041.9,-44.0971,146.562,100.978,3401.31,-9896.14,813.76,-6.02639,-34.2571,77.98,8031.68,-802.639,1083.59,39.9734,4.26083,9.48849
4.0065,7138.36,-2827.53,10359.7,25.7302,197.225,78.8443,3196.26,-2437.74,8909.24,6.9083,-4.07719,3.40613,-2329.89,11966.9,-2025.2,-6.41741,76.4906,203.339,-656.314,10395.8,-358.141,11.3744,18.7214,26.042,-2433.82,8975.08,-2017.51,-44.789,146.663,100.927,3493.19,-9839.58,774.967,-6.18448,-34.6439,77.7838,8049.3,-810.782,1099.61,39.8332,4.06548,9.37387
4.007,7153.66,-2833.22,10362.4,25.7216,197.301,79.1576,3213.58,-2451.08,8926.26,7.43434,-4.12899,3.17548,-2334.62,11960.2,-2047.24,-6.27844,76.716,203.471,-645.036,10395.8,-360.949,11.4142,18.9267,26.3653,-2466.77,8990.91,-1993.11,-45.4809,146.764,100.876,3585.06,-9783.01,736.174,-6.34258,-35.0307,77.5877,8066.92,-818.925,1115.64,39.6931,3.87013,9.25925
4.0075,7168.96,-2838.9,10365.1,25.7131,197.377,79.4708,3230.89,-2464.41,8943.29,7.96038,-4.18079,2.94482,-2339.34,11953.5,-2069.29,-6.13946,76.9414,203.604,-633.758,10395.7,-363.756,11.454,19.132,26.6886,-2499.73,9006.72,-1968.71,-46.1727,146.865,100.825,3676.94,-9726.45,697.381,-6.50068,-35.4175,77.3916,8084.54,-827.068,1131.66,39.5529,3.67478,9.14463
4.008,7184.26,-2844.58,10367.7,25.7046,197.452,79.7841,3248.21,-2477.74,8960.31,8.48642,-4.2326,2.71416,-2344.06,11946.8,-2091.34,-6.00049,77.1667,203.737,-622.48,10395.7,-366.564,11.4938,19.3373,27.0119,-2532.68,9022.54,-1944.32,-46.8646,146.966,100.774,3768.82,-9669.89,658.589,-6.65877,-35.8043,77.1954,8102.16,-835.211,1147.69,39.4128,3.47943,9.03001
4.0085,7199.57,-2850.26,10370.4,25.6961,197.528,80.0974,3265.52,-2491.08,8977.33,9.01246,-4.2844,2.4835,-2348.79,11940.1,-2113.38,-5.86152,77.3921,203.869,-611.202,10395.7,-369.372,11.5335,19.5426,27.3352,-2565.64,9038.36,-1919.92,-47.5565,147.067,100.723,3860.69,-9613.32,619.796,-6.81687,-36.1911,76.9993,8119.77,-843.353,1163.71,39.2726,3.28409,8.91539
4.009,7214.79,-2855.1,10374.2,25.674,197.597,80.3939,3279.18,-2502.2,8990.8,9.53198,-4.33743,2.25794,-2355.77,11937.0,-2134.24,-5.72209,77.6234,204.005,-597.531,10396.4,-372.938,11.5585,19.7633,27.6536,-2594.58,9053.59,-1892.04,-48.2186,147.122,100.687,3950.44,-9559.38,578.268,-6.98799,-36.4834,76.8411,8136.45,-852.003,1179.02,39.157,3.09446,8.80972
4.0095,7229.74,-2857.04,10382.1,25.6047,197.641,80.6318,3280.02,-2505.55,8991.84,10.0287,-4.39472,2.05018,-2370.63,11946.1,-2150.94,-5.58107,77.8755,204.151,-575.481,10399.8,-379.162,11.5318,20.0384,27.9547,-2609.46,9066.77,-1851.95,-48.7765,147.016,100.708,4032.75,-9514.61,527.167,-7.20471,-36.4446,76.8156,8149.83,-862.428,1191.79,39.1271,2.92487,8.73536
4.01,7244.69,-2858.97,10389.9,25.5354,197.685,80.8697,3280.86,-2508.91,8992.88,10.5254,-4.45202,1.84243,-2385.5,11955.2,-2167.64,-5.44004,78.1275,204.297,-553.431,10403.1,-385.386,11.505,20.3134,28.2558,-2624.35,9079.94,-1811.87,-49.3344,146.91,100.728,4115.05,-9469.83,476.066,-7.42143,-36.4058,76.7902,8163.2,-872.853,1204.56,39.0971,2.75528,8.66099
4.0105,7259.64,-2860.9,10397.8,25.4661,197.729,81.1075,3281.7,-2512.27,8993.91,11.0221,-4.50931,1.63468,-2400.37,11964.3,-2184.34,-5.29902,78.3796,204.443,-531.381,10406.4,-391.609,11.4782,20.5884,28.5569,-2639.23,9093.11,-1771.78,-49.8923,146.804,100.748,4197.36,-9425.06,424.965,-7.63814,-36.367,76.7647,8176.58,-883.277,1217.33,39.0672,2.58569,8.58663
4.011,7274.59,-2862.84,10405.7,25.3968,197.774,81.3454,3282.54,-2515.63,8994.95,11.5189,-4.56661,1.42692,-2415.24,11973.4,-2201.04,-5.158,78.6316,204.589,-509.331,10409.8,-397.833,11.4515,20.8634,28.858,-2654.12,9106.28,-1731.7,-50.4501,146.697,100.768,4279.67,-9380.29,373.864,-7.85486,-36.3281,76.7392,8189.96,-893.702,1230.11,39.0373,2.4161,8.51227
4.0115,7289.54,-2864.77,10413.5,25.3275,197.818,81.5833,3283.38,-2518.99,8995.98,12.0156,-4.6239,1.21917,-2430.11,11982.5,-2217.74,-5.01697,78.8837,204.734,-487.281,10413.1,-404.056,11.4247,21.1385,29.1591,-2669.0,9119.45,-1691.62,-51.008,146.591,100.788,4361.97,-9335.52,322.763,-8.07158,-36.2893,76.7138,8203.33,-904.126,1242.88,39.0074,2.24651,8.43791
4.012,7304.49,-2866.7,10421.4,25.2582,197.862,81.8211,3284.22,-2522.35,8997.02,12.5123,-4.6812,1.01142,-2444.97,11991.6,-2234.45,-4.87595,79.1357,204.88,-465.232,10416.4,-410.28,11.3979,21.4135,29.4602,-2683.89,9132.63,-1651.53,-51.5659,146.485,100.808,4444.28,-9290.74,271.662,-8.28829,-36.2505,76.6883,8216.71,-914.551,1255.65,38.9775,2.07691,8.36355
4.0125,7319.44,-2868.64,10429.3,25.1889,197.906,82.059,3285.06,-2525.71,8998.06,13.009,-4.7385,0.803662,-2459.84,12000.7,-2251.15,-4.73493,79.3878,205.026,-443.182,10419.8,-416.504,11.3712,21.6885,29.7613,-2698.77,9145.8,-1611.45,-52.1238,146.379,100.828,4526.58,-9245.97,220.561,-8.50501,-36.2117,76.6628,8230.08,-924.976,1268.42,38.9476,1.90732,8.28918
4.013,7334.39,-2870.57,10437.1,25.1196,197.95,82.2969,3285.91,-2529.07,8999.09,13.5057,-4.79579,0.595909,-2474.71,12009.8,-2267.85,-4.5939,79.6398,205.172,-421.132,10423.1,-422.727,11.3444,21.9636,30.0624,-2713.66,9158.97,-1571.37,-52.6817,146.273,100.848,4608.89,-9201.2,169.46,-8.72173,-36.1729,76.6374,8243.46,-935.4,1281.19,38.9176,1.73773,8.21482
4.0135,7352.59,-2866.74,10445.4,25.0097,198.011,82.5466,3295.92,-2529.36,8997.11,14.0017,-4.88488,0.393874,-2488.86,12017.4,-2275.24,-4.46535,79.8338,205.317,-396.072,10420.2,-426.405,11.3504,22.2198,30.3635,-2730.48,9171.68,-1528.55,-53.2031,146.089,100.885,4681.44,-9162.33,119.405,-8.92129,-36.0617,76.6306,8258.71,-948.492,1288.54,38.9277,1.59379,8.1404
4.014,7377.29,-2851.37,10454.6,24.8187,198.103,82.8202,3324.29,-2523.51,8989.09,14.496,-5.03756,0.203279,-2501.59,12022.3,-2264.01,-4.36175,79.9118,205.459,-364.992,10404.9,-424.99,11.4219,22.4385,30.6646,-2751.19,9183.46,-1480.25,-53.6516,145.752,100.957,4734.49,-9135.28,71.4425,-9.08655,-35.8058,76.6613,8277.69,-966.917,1285.05,39.0177,1.50115,8.06588
4.0145,7401.99,-2836.0,10463.8,24.6277,198.196,83.0937,3352.65,-2517.66,8981.08,14.9903,-5.19024,0.0126827,-2514.31,12027.2,-2252.79,-4.25815,79.9897,205.601,-333.912,10389.6,-423.575,11.4933,22.6572,30.9657,-2771.9,9195.25,-1431.96,-54.1001,145.414,101.03,4787.53,-9108.23,23.48,-9.2518,-35.5498,76.692,8296.68,-985.342,1281.55,39.1077,1.40851,7.99135
4.015,7426.69,-2820.63,10472.9,24.4367,198.288,83.3673,3381.02,-2511.8,8973.06,15.4846,-5.34292,-0.177913,-2527.03,12032.0,-2241.56,-4.15454,80.0676,205.744,-302.832,10374.2,-422.16,11.5648,22.8759,31.2668,-2792.61,9207.03,-1383.67,-54.5486,145.076,101.102,4840.58,-9081.17,-24.4824,-9.41706,-35.2938,76.7227,8315.67,-1003.77,1278.05,39.1976,1.31587,7.91682
4.0155,7451.39,-2805.26,10482.1,24.2456,198.381,83.6408,3409.38,-2505.95,8965.04,15.9789,-5.49559,-0.368509,-2539.75,12036.9,-2230.33,-4.05094,80.1456,205.886,-271.752,10358.9,-420.746,11.6362,23.0946,31.5679,-2813.32,9218.82,-1335.37,-54.9971,144.739,101.174,4893.62,-9054.12,-72.4448,-9.58231,-35.0379,76.7534,8334.65,-1022.19,1274.55,39.2876,1.22323,7.8423
4.016,7476.09,-2789.89,10491.3,24.0546,198.474,83.9144,3437.75,-2500.1,8957.03,16.4732,-5.64827,-0.559105,-2552.47,12041.7,-2219.11,-3.94734,80.2235,206.028,-240.672,10343.6,-419.331,11.7077,23.3133,31.869,-2834.03,9230.61,-1287.08,-55.4455,144.401,101.246,4946.67,-9027.07,-120.407,-9.74757,-34.7819,76.7841,8353.64,-1040.62,1271.05,39.3776,1.13059,7.76777
4.0165,7500.79,-2774.52,10500.4,23.8636,198.566,84.1879,3466.12,-2494.25,8949.01,16.9675,-5.80095,-0.749701,-2565.2,12046.6,-2207.88,-3.84373,80.3015,206.17,-209.592,10328.3,-417.916,11.7792,23.532,32.1701,-2854.73,9242.39,-1238.79,-55.894,144.063,101.318,4999.71,-9000.02,-168.37,-9.91282,-34.526,76.8149,8372.62,-1059.04,1267.56,39.4676,1.03795,7.69324
4.017,7525.49,-2759.15,10509.6,23.6726,198.659,84.4615,3494.48,-2488.4,8940.99,17.4618,-5.95363,-0.940296,-2577.92,12051.5,-2196.66,-3.74013,80.3794,206.312,-178.512,10312.9,-416.501,11.8506,23.7507,32.4712,-2875.44,9254.18,-1190.49,-56.3425,143.726,101.39,5052.76,-8972.97,-216.332,-10.0781,-34.27,76.8456,8391.61,-1077.47,1264.06,39.5576,0.945306,7.61871
4.0175,7550.2,-2743.78,10518.8,23.4815,198.752,84.735,3522.85,-2482.55,8932.97,17.9561,-6.10631,-1.13089,-2590.64,12056.3,-2185.43,-3.63652,80.4573,206.454,-147.433,10297.6,-415.086,11.9221,23.9694,32.7723,-2896.15,9265.96,-1142.2,-56.791,143.388,101.463,5105.8,-8945.92,-264.294,-10.2433,-34.014,76.8763,8410.59,-1095.89,1260.56,39.6475,0.852665,7.54419
4.018,7579.79,-2733.13,10530.0,23.2946,198.86,85.0018,3558.91,-2464.34,8937.61,18.3829,-6.23365,-1.29278,-2608.71,12070.9,-2179.03,-3.51258,80.5656,206.557,-123.566,10288.0,-421.816,12.0116,24.1833,33.0668,-2914.54,9273.47,-1095.92,-57.2187,142.976,101.561,5150.72,-8921.21,-305.077,-10.4059,-33.7152,76.9101,8424.15,-1110.96,1254.74,39.795,0.755778,7.48037
4.0185,7615.49,-2728.39,10543.8,23.1127,198.99,85.2599,3604.6,-2430.67,8958.07,18.7251,-6.32932,-1.41879,-2633.46,12097.8,-2178.66,-3.36322,80.7116,206.61,-108.716,10285.6,-438.726,12.1237,24.3911,33.353,-2930.03,9275.65,-1052.17,-57.6204,142.47,101.693,5185.49,-8899.42,-336.885,-10.5652,-33.3629,76.9478,8430.92,-1121.84,1246.0,40.0142,0.653583,7.42994
4.019,7651.19,-2723.66,10557.6,22.9309,199.119,85.5181,3650.28,-2397.0,8978.52,19.0674,-6.42499,-1.5448,-2658.22,12124.6,-2178.29,-3.21385,80.8577,206.663,-93.8659,10283.1,-455.636,12.2358,24.5989,33.6392,-2945.52,9277.82,-1008.42,-58.0221,141.965,101.824,5220.26,-8877.64,-368.692,-10.7245,-33.0106,76.9856,8437.69,-1132.72,1237.27,40.2334,0.551387,7.3795
4.0195,7686.9,-2718.92,10571.4,22.749,199.249,85.7763,3695.97,-2363.34,8998.98,19.4096,-6.52065,-1.67081,-2682.97,12151.5,-2177.92,-3.06449,81.0038,206.715,-79.0159,10280.7,-472.546,12.3479,24.8067,33.9254,-2961.01,9280.0,-964.673,-58.4238,141.459,101.956,5255.03,-8855.86,-400.5,-10.8837,-32.6583,77.0233,8444.46,-1143.6,1228.53,40.4527,0.449192,7.32907
4.02,7722.6,-2714.18,10585.2,22.5672,199.378,86.0344,3741.66,-2329.67,9019.44,19.7519,-6.61632,-1.79681,-2707.72,12178.3,-2177.55,-2.91512,81.1499,206.768,-64.1659,10278.2,-489.456,12.4599,25.0145,34.2115,-2976.5,9282.17,-920.923,-58.8254,140.954,102.088,5289.8,-8834.08,-432.307,-11.043,-32.3059,77.061,8451.23,-1154.48,1219.8,40.6719,0.346997,7.27864
4.0205,7758.31,-2709.45,10599.0,22.3853,199.507,86.2926,3787.34,-2296.01,9039.89,20.0942,-6.71199,-1.92282,-2732.48,12205.2,-2177.18,-2.76576,81.296,206.821,-49.3159,10275.8,-506.366,12.572,25.2223,34.4977,-2991.99,9284.34,-877.172,-59.2271,140.448,102.219,5324.57,-8812.29,-464.115,-11.2023,-31.9536,77.0988,8458.0,-1165.35,1211.07,40.8911,0.244801,7.22821
4.021,7794.01,-2704.71,10612.8,22.2034,199.637,86.5508,3833.03,-2262.34,9060.35,20.4364,-6.80766,-2.04883,-2757.23,12232.0,-2176.81,-2.61639,81.442,206.874,-34.466,10273.3,-523.276,12.6841,25.4301,34.7839,-3007.48,9286.52,-833.422,-59.6288,139.942,102.351,5359.34,-8790.51,-495.922,-11.3616,-31.6013,77.1365,8464.77,-1176.23,1202.33,41.1104,0.142606,7.17778
4.0215,7829.72,-2699.97,10626.7,22.0216,199.766,86.8089,3878.72,-2228.67,9080.81,20.7787,-6.90333,-2.17484,-2781.98,12258.9,-2176.44,-2.46702,81.5881,206.927,-19.616,10270.9,-540.186,12.7962,25.6379,35.0701,-3022.97,9288.69,-789.671,-60.0305,139.437,102.482,5394.11,-8768.73,-527.73,-11.5208,-31.2489,77.1742,8471.54,-1187.11,1193.6,41.3296,0.0404104,7.12734
4.022,7865.42,-2695.23,10640.5,21.8397,199.895,87.0671,3924.4,-2195.01,9101.26,21.1209,-6.999,-2.30085,-2806.74,12285.7,-2176.07,-2.31766,81.7342,206.979,-4.76598,10268.4,-557.096,12.9083,25.8457,35.3563,-3038.46,9290.87,-745.921,-60.4322,138.931,102.614,5428.88,-8746.95,-559.538,-11.6801,-30.8966,77.212,8478.3,-1197.99,1184.86,41.5488,-0.061785,7.07691
4.0225,7881.09,-2683.62,10644.5,21.6442,199.964,87.2629,3944.22,-2143.41,9108.93,21.3327,-7.03958,-2.43974,-2829.55,12298.5,-2172.09,-2.23699,81.8136,207.051,-8.24318,10260.5,-588.03,12.9842,25.9674,35.6252,-3051.04,9287.39,-707.767,-60.8197,138.319,102.767,5450.42,-8733.67,-591.3,-11.8242,-30.5167,77.2416,8482.71,-1207.8,1184.94,41.8298,-0.206736,7.03908
4.023,7880.73,-2666.51,10640.8,21.4378,199.985,87.4088,3943.34,-2077.48,9106.37,21.4401,-7.03609,-2.58893,-2850.83,12300.1,-2165.24,-2.21127,81.8396,207.138,-26.3821,10248.2,-630.184,13.0312,26.0204,35.8803,-3061.31,9279.4,-674.09,-61.1957,137.62,102.937,5461.36,-8727.19,-623.025,-11.9562,-30.1146,77.2647,8485.24,-1216.75,1192.06,42.1602,-0.385892,7.01133
4.0235,7880.38,-2649.4,10637.0,21.2313,200.006,87.5546,3942.46,-2011.55,9103.8,21.5476,-7.0326,-2.73812,-2872.1,12301.7,-2158.38,-2.18555,81.8655,207.225,-44.5211,10235.9,-672.338,13.0783,26.0734,36.1354,-3071.58,9271.41,-640.413,-61.5718,136.922,103.106,5472.31,-8720.72,-654.751,-12.0882,-29.7126,77.2879,8487.77,-1225.7,1199.18,42.4905,-0.565047,6.98358
4.024,7880.02,-2632.29,10633.3,21.0249,200.027,87.7005,3941.58,-1945.61,9101.24,21.655,-7.02911,-2.88732,-2893.37,12303.2,-2151.53,-2.15983,81.8915,207.312,-62.6601,10223.5,-714.492,13.1253,26.1264,36.3905,-3081.85,9263.42,-606.736,-61.9478,136.224,103.276,5483.25,-8714.24,-686.476,-12.2201,-29.3105,77.311,8490.29,-1234.65,1206.3,42.8209,-0.744203,6.95583
4.0245,7879.67,-2615.18,10629.5,20.8184,200.048,87.8464,3940.71,-1879.68,9098.67,21.7624,-7.02562,-3.03651,-2914.65,12304.8,-2144.67,-2.13411,81.9175,207.398,-80.799,10211.2,-756.645,13.1723,26.1794,36.6456,-3092.12,9255.43,-573.06,-62.3239,135.526,103.446,5494.2,-8707.76,-718.202,-12.3521,-28.9085,77.3341,8492.82,-1243.61,1213.43,43.1513,-0.923358,6.92808
4.025,7879.31,-2598.07,10625.8,20.612,200.069,87.9923,3939.83,-1813.75,9096.11,21.8698,-7.02213,-3.1857,-2935.92,12306.4,-2137.82,-2.1084,81.9435,207.485,-98.938,10198.9,-798.799,13.2193,26.2324,36.9006,-3102.39,9247.44,-539.383,-62.6999,134.828,103.616,5505.14,-8701.29,-749.927,-12.4841,-28.5064,77.3573,8495.34,-1252.56,1220.55,43.4817,-1.10251,6.90033
4.0255,7878.96,-2580.96,10622.0,20.4055,200.09,88.1381,3938.95,-1747.81,9093.54,21.9772,-7.01864,-3.3349,-2957.19,12308.0,-2130.96,-2.08268,81.9695,207.572,-117.077,10186.6,-840.953,13.2663,26.2853,37.1557,-3112.66,9239.45,-505.706,-63.076,134.13,103.786,5516.09,-8694.81,-781.653,-12.616,-28.1044,77.3804,8497.87,-1261.51,1227.67,43.812,-1.28167,6.87258
4.026,7878.6,-2563.85,10618.3,20.199,200.111,88.284,3938.07,-1681.88,9090.98,22.0847,-7.01516,-3.48409,-2978.46,12309.6,-2124.1,-2.05696,81.9955,207.659,-135.216,10174.2,-883.107,13.3134,26.3383,37.4108,-3122.93,9231.46,-472.029,-63.452,133.431,103.956,5527.03,-8688.33,-813.379,-12.748,-27.7023,77.4035,8500.39,-1270.46,1234.79,44.1424,-1.46082,6.84483
4.0265,7878.25,-2546.73,10614.5,19.9926,200.132,88.4299,3937.19,-1615.94,9088.41,22.1921,-7.01167,-3.63329,-2999.74,12311.1,-2117.25,-2.03124,82.0215,207.746,-153.355,10161.9,-925.261,13.3604,26.3913,37.6659,-3133.2,9223.47,-438.352,-63.8281,132.733,104.126,5537.98,-8681.86,-845.104,-12.88,-27.3003,77.4267,8502.92,-1279.42,1241.92,44.4728,-1.63998,6.81708
4.027,7893.21,-2539.05,10614.5,19.8246,200.184,88.6018,3927.07,-1547.23,9094.09,22.1539,-7.04105,-3.75889,-3014.52,12317.0,-2116.61,-1.9146,82.0019,207.814,-183.681,10153.3,-964.466,13.406,26.3262,37.9477,-3149.98,9205.38,-407.263,-64.1448,131.953,104.271,5528.36,-8676.12,-859.627,-13.033,-26.8932,77.4069,8504.25,-1272.72,1246.21,44.8744,-1.78643,6.80065
4.0275,7915.84,-2536.09,10616.3,19.6758,200.25,88.7867,3912.34,-1477.11,9103.88,22.0428,-7.08686,-3.87269,-3026.06,12325.1,-2119.08,-1.75249,81.9595,207.873,-220.1,10146.5,-1002.2,13.451,26.2021,38.2427,-3170.01,9182.25,-377.467,-64.4319,131.132,104.405,5508.48,-8670.76,-865.548,-13.1965,-26.4836,77.3657,8505.0,-1258.21,1249.08,45.3116,-1.91654,6.7899
4.028,7938.46,-2533.12,10618.1,19.527,200.317,88.9716,3897.6,-1407.0,9113.67,21.9318,-7.13268,-3.98649,-3037.59,12333.2,-2121.55,-1.59038,81.9172,207.932,-256.519,10139.7,-1039.93,13.4959,26.0781,38.5378,-3190.05,9159.12,-347.671,-64.7189,130.312,104.538,5488.59,-8665.39,-871.469,-13.36,-26.074,77.3245,8505.74,-1243.69,1251.96,45.7488,-2.04664,6.77914
4.0285,7961.08,-2530.16,10620.0,19.3782,200.384,89.1565,3882.86,-1336.89,9123.46,21.8207,-7.1785,-4.1003,-3049.13,12341.2,-2124.01,-1.42828,81.8748,207.991,-292.938,10133.0,-1077.66,13.5408,25.954,38.8329,-3210.08,9135.99,-317.875,-65.006,129.491,104.672,5468.7,-8660.03,-877.39,-13.5235,-25.6644,77.2833,8506.49,-1229.18,1254.83,46.186,-2.17674,6.76838
4.029,7983.71,-2527.19,10621.8,19.2294,200.45,89.3414,3868.13,-1266.78,9133.25,21.7097,-7.22431,-4.2141,-3060.67,12349.3,-2126.48,-1.26617,81.8324,208.05,-329.357,10126.2,-1115.39,13.5858,25.8299,39.1279,-3230.11,9112.85,-288.079,-65.293,128.67,104.805,5448.81,-8654.66,-883.311,-13.687,-25.2548,77.2421,8507.23,-1214.67,1257.71,46.6233,-2.30685,6.75762
4.0295,8006.33,-2524.23,10623.6,19.0805,200.517,89.5262,3853.39,-1196.67,9143.04,21.5987,-7.27013,-4.3279,-3072.2,12357.4,-2128.95,-1.10406,81.7901,208.109,-365.777,10119.4,-1153.13,13.6307,25.7058,39.423,-3250.14,9089.72,-258.284,-65.5801,127.849,104.939,5428.92,-8649.3,-889.233,-13.8505,-24.8451,77.2009,8507.97,-1200.15,1260.58,47.0605,-2.43695,6.74686
4.03,8028.96,-2521.26,10625.4,18.9317,200.584,89.7111,3838.65,-1126.56,9152.83,21.4876,-7.31594,-4.44171,-3083.74,12365.4,-2131.42,-0.941954,81.7477,208.168,-402.196,10112.6,-1190.86,13.6756,25.5817,39.7181,-3270.18,9066.59,-228.488,-65.8671,127.028,105.072,5409.03,-8643.93,-895.154,-14.014,-24.4355,77.1597,8508.71,-1185.64,1263.46,47.4977,-2.56705,6.73611
4.0305,8051.58,-2518.3,10627.3,18.7829,200.65,89.896,3823.92,-1056.45,9162.62,21.3766,-7.36176,-4.55551,-3095.28,12373.5,-2133.89,-0.779847,81.7054,208.227,-438.615,10105.8,-1228.59,13.7206,25.4576,40.0132,-3290.21,9043.46,-198.692,-66.1542,126.207,105.206,5389.14,-8638.57,-901.075,-14.1775,-24.0259,77.1186,8509.46,-1171.12,1266.34,47.9349,-2.69716,6.72535
4.031,8074.2,-2515.33,10629.1,18.6341,200.717,90.0809,3809.18,-986.338,9172.41,21.2655,-7.40758,-4.66932,-3106.82,12381.6,-2136.36,-0.61774,81.663,208.285,-475.034,10099.1,-1266.32,13.7655,25.3335,40.3082,-3310.24,9020.32,-168.896,-66.4412,125.387,105.339,5369.25,-8633.2,-906.996,-14.341,-23.6163,77.0774,8510.2,-1156.61,1269.21,48.3721,-2.82726,6.71459
4.0315,8081.59,-2521.12,10637.3,18.5966,200.754,90.2833,3793.97,-928.987,9175.15,21.0918,-7.4337,-4.77091,-3128.28,12402.9,-2135.24,-0.517124,81.6173,208.33,-499.504,10093.9,-1300.68,13.7324,25.1067,40.6369,-3327.75,8987.99,-143.142,-66.6553,124.487,105.453,5340.3,-8632.71,-908.458,-14.5319,-23.2971,76.9929,8521.8,-1154.09,1265.46,48.7529,-2.95586,6.71892
4.032,8084.63,-2529.4,10647.3,18.5909,200.784,90.4906,3778.61,-875.282,9175.89,20.9001,-7.4542,-4.86902,-3152.59,12428.0,-2133.11,-0.434077,81.5706,208.37,-520.559,10089.2,-1334.08,13.6771,24.8506,40.9751,-3344.54,8953.04,-118.543,-66.8484,123.564,105.561,5308.75,-8633.61,-908.645,-14.7306,-23.0038,76.8961,8536.51,-1154.99,1259.81,49.1176,-3.08402,6.72756
4.0325,8087.66,-2537.68,10657.3,18.5851,200.813,90.6979,3763.26,-821.577,9176.62,20.7085,-7.4747,-4.96713,-3176.9,12453.1,-2130.97,-0.351029,81.524,208.41,-541.614,10084.5,-1367.48,13.6218,24.5944,41.3133,-3361.33,8918.08,-93.9436,-67.0416,122.641,105.669,5277.2,-8634.51,-908.832,-14.9293,-22.7105,76.7994,8551.21,-1155.89,1254.16,49.4822,-3.21219,6.73621
4.033,8090.7,-2545.96,10667.4,18.5794,200.843,90.9052,3747.91,-767.872,9177.36,20.5168,-7.49519,-5.06524,-3201.21,12478.2,-2128.84,-0.267982,81.4773,208.45,-562.669,10079.8,-1400.88,13.5664,24.3383,41.6515,-3378.12,8883.13,-69.3444,-67.2348,121.719,105.778,5245.66,-8635.41,-909.02,-15.1281,-22.4171,76.7026,8565.92,-1156.8,1248.51,49.8469,-3.34035,6.74485
4.0335,8093.73,-2554.24,10677.4,18.5737,200.872,91.1125,3732.56,-714.167,9178.09,20.3251,-7.51569,-5.16336,-3225.51,12503.4,-2126.7,-0.184934,81.4307,208.49,-583.724,10075.1,-1434.28,13.5111,24.0822,41.9897,-3394.91,8848.17,-44.7451,-67.428,120.796,105.886,5214.11,-8636.3,-909.207,-15.3268,-22.1238,76.6058,8580.62,-1157.7,1242.86,50.2115,-3.46852,6.75349
4.034,8096.77,-2562.53,10687.4,18.5679,200.901,91.3198,3717.21,-660.462,9178.83,20.1335,-7.53619,-5.26147,-3249.82,12528.5,-2124.57,-0.101887,81.384,208.53,-604.779,10070.4,-1467.67,13.4558,23.8261,42.328,-3411.7,8813.22,-20.1459,-67.6211,119.874,105.994,5182.56,-8637.2,-909.394,-15.5255,-21.8304,76.509,8595.33,-1158.61,1237.21,50.5761,-3.59669,6.76213
4.0345,8099.8,-2570.81,10697.4,18.5622,200.931,91.5271,3701.86,-606.757,9179.56,19.9418,-7.55669,-5.35958,-3274.13,12553.6,-2122.44,-0.0188396,81.3374,208.569,-625.834,10065.7,-1501.07,13.4004,23.5699,42.6662,-3428.49,8778.26,4.45334,-67.8143,118.951,106.102,5151.01,-8638.1,-909.582,-15.7242,-21.5371,76.4122,8610.03,-1159.51,1231.56,50.9408,-3.72485,6.77077
4.035,8102.84,-2579.09,10707.4,18.5565,200.96,91.7344,3686.51,-553.052,9180.3,19.7502,-7.57718,-5.45769,-3298.44,12578.7,-2120.3,0.0642078,81.2907,208.609,-646.889,10061.0,-1534.47,13.3451,23.3138,43.0044,-3445.28,8743.31,29.0526,-68.0075,118.028,106.211,5119.46,-8639.0,-909.769,-15.9229,-21.2437,76.3155,8624.74,-1160.42,1225.91,51.3054,-3.85302,6.77942
4.0355,8105.87,-2587.37,10717.5,18.5507,200.99,91.9417,3671.16,-499.347,9181.03,19.5585,-7.59768,-5.5558,-3322.74,12603.8,-2118.17,0.147255,81.244,208.649,-667.944,10056.3,-1567.87,13.2897,23.0577,43.3426,-3462.08,8708.35,53.6518,-68.2007,117.106,106.319,5087.92,-8639.9,-909.957,-16.1216,-20.9504,76.2187,8639.44,-1161.32,1220.26,51.6701,-3.98118,6.78806
4.036,8123.18,-2575.83,10700.0,18.4962,200.874,92.0659,3677.16,-474.216,9183.0,19.3569,-7.69857,-5.55844,-3325.04,12617.5,-2122.16,0.231993,81.187,208.708,-672.439,10048.2,-1600.23,13.1583,22.794,43.7084,-3478.98,8668.84,74.6406,-68.2411,116.154,106.323,5034.75,-8650.69,-923.701,-16.4219,-20.8213,76.0887,8636.85,-1159.15,1221.84,51.9579,-4.04352,6.78573
4.0365,8142.28,-2561.8,10679.2,18.4355,200.74,92.1797,3685.83,-452.657,9185.11,19.154,-7.8095,-5.54915,-3324.58,12629.7,-2126.92,0.316942,81.1286,208.769,-674.864,10039.6,-1632.46,13.0172,22.5294,44.0776,-3495.91,8628.76,95.178,-68.2625,115.198,106.314,4978.89,-8662.73,-939.141,-16.7349,-20.7129,75.9546,8632.09,-1156.59,1224.33,52.2361,-4.09764,6.78203
4.037,8161.37,-2547.78,10658.3,18.3749,200.606,92.2935,3694.5,-431.098,9187.23,18.9511,-7.92044,-5.53986,-3324.13,12641.9,-2131.68,0.401891,81.0702,208.83,-677.289,10031.0,-1664.69,12.8762,22.2647,44.4467,-3512.83,8588.68,115.715,-68.2838,114.243,106.306,4923.02,-8674.76,-954.58,-17.0479,-20.6044,75.8204,8627.34,-1154.03,1226.82,52.5143,-4.15175,6.77833
4.0375,8180.47,-2533.76,10637.5,18.3143,200.472,92.4073,3703.18,-409.54,9189.34,18.7482,-8.03137,-5.53057,-3323.67,12654.2,-2136.44,0.48684,81.0119,208.891,-679.715,10022.5,-1696.92,12.7352,22.0001,44.8159,-3529.76,8548.6,136.253,-68.3052,113.287,106.297,4867.15,-8686.8,-970.019,-17.3608,-20.4959,75.6863,8622.58,-1151.47,1229.3,52.7925,-4.20586,6.77463
4.038,8199.57,-2519.73,10616.7,18.2536,200.338,92.5211,3711.85,-387.981,9191.46,18.5453,-8.14231,-5.52127,-3323.21,12666.4,-2141.2,0.571789,80.9535,208.952,-682.14,10013.9,-1729.15,12.5942,21.7354,45.1851,-3546.68,8508.52,156.79,-68.3265,112.332,106.288,4811.29,-8698.83,-985.459,-17.6738,-20.3874,75.5522,8617.83,-1148.91,1231.79,53.0707,-4.25997,6.77093
4.0385,8218.66,-2505.71,10595.8,18.193,200.204,92.635,3720.52,-366.422,9193.57,18.3424,-8.25324,-5.51198,-3322.76,12678.6,-2145.96,0.656738,80.8951,209.013,-684.565,10005.4,-1761.38,12.4532,21.4708,45.5543,-3563.61,8468.44,177.328,-68.3479,111.376,106.279,4755.42,-8710.87,-1000.9,-17.9868,-20.279,75.4181,8613.08,-1146.35,1234.27,53.3489,-4.31409,6.76723
4.039,8237.76,-2491.68,10575.0,18.1324,200.07,92.7488,3729.19,-344.863,9195.69,18.1395,-8.36417,-5.50269,-3322.3,12690.8,-2150.71,0.741687,80.8367,209.074,-686.99,9996.79,-1793.61,12.3122,21.2062,45.9235,-3580.53,8428.36,197.865,-68.3693,110.421,106.27,4699.55,-8722.9,-1016.34,-18.2998,-20.1705,75.2839,8608.32,-1143.79,1236.76,53.6271,-4.3682,6.76353
4.0395,8256.86,-2477.66,10554.1,18.0717,199.936,92.8626,3737.86,-323.304,9197.8,17.9366,-8.47511,-5.4934,-3321.84,12703.1,-2155.47,0.826636,80.7784,209.134,-689.415,9988.22,-1825.84,12.1712,20.9415,46.2927,-3597.46,8388.28,218.403,-68.3906,109.465,106.262,4643.69,-8734.93,-1031.78,-18.6127,-20.062,75.1498,8603.57,-1141.23,1239.25,53.9053,-4.42231,6.75983
4.04,8275.95,-2463.64,10533.3,18.0111,199.802,92.9764,3746.53,-301.745,9199.92,17.7337,-8.58604,-5.48411,-3321.39,12715.3,-2160.23,0.911585,80.72,209.195,-691.84,9979.66,-1858.07,12.0301,20.6769,46.6619,-3614.38,8348.2,238.94,-68.412,108.509,106.253,4587.82,-8746.97,-1047.22,-18.9257,-19.9535,75.0157,8598.81,-1138.67,1241.73,54.1835,-4.47642,6.75613
4.0405,8272.57,-2464.44,10510.9,17.935,199.595,92.9648,3759.43,-312.699,9199.34,17.5535,-8.61187,-5.42683,-3331.31,12729.6,-2160.46,0.996394,80.5406,209.16,-672.525,9981.83,-1876.47,11.8443,20.4719,47.0183,-3618.12,8310.49,235.195,-68.2667,107.568,106.207,4498.68,-8761.08,-1053.84,-19.2839,-20.0319,74.8797,8602.08,-1123.04,1245.3,54.5434,-4.48289,6.81372
4.041,8269.19,-2465.24,10488.6,17.859,199.388,92.9532,3772.32,-323.654,9198.77,17.3732,-8.63769,-5.36955,-3341.24,12743.9,-2160.69,1.0812,80.3611,209.124,-653.211,9983.99,-1894.87,11.6584,20.2668,47.3747,-3621.87,8272.78,231.449,-68.1215,106.627,106.162,4409.55,-8775.19,-1060.46,-19.6422,-20.1103,74.7437,8605.34,-1107.41,1248.88,54.9033,-4.48935,6.87131
4.0415,8265.81,-2466.03,10466.3,17.7829,199.182,92.9416,3785.22,-334.608,9198.19,17.193,-8.66351,-5.31227,-3351.16,12758.2,-2160.91,1.16601,80.1817,209.089,-633.896,9986.16,-1913.27,11.4726,20.0618,47.7311,-3625.61,8235.08,227.704,-67.9763,105.686,106.116,4320.41,-8789.3,-1067.07,-20.0004,-20.1888,74.6077,8608.61,-1091.78,1252.45,55.2632,-4.49581,6.9289
4.042,8262.43,-2466.83,10444.0,17.7069,198.975,92.93,3798.11,-345.562,9197.62,17.0128,-8.68933,-5.25499,-3361.08,12772.5,-2161.14,1.25082,80.0023,209.053,-614.581,9988.33,-1931.67,11.2867,19.8568,48.0875,-3629.35,8197.37,223.958,-67.8311,104.745,106.071,4231.27,-8803.41,-1073.69,-20.3586,-20.2672,74.4717,8611.88,-1076.15,1256.02,55.6231,-4.50227,6.9865
4.0425,8259.05,-2467.63,10421.7,17.6308,198.768,92.9185,3811.01,-356.516,9197.04,16.8325,-8.71515,-5.19771,-3371.01,12786.8,-2161.37,1.33563,79.8228,209.017,-595.266,9990.5,-1950.07,11.1009,19.6517,48.4439,-3633.09,8159.66,220.213,-67.6858,103.804,106.025,4142.14,-8817.52,-1080.31,-20.7168,-20.3456,74.3357,8615.14,-1060.52,1259.59,55.983,-4.50874,7.04409
4.043,8255.66,-2468.43,10399.4,17.5547,198.561,92.9069,3823.91,-367.471,9196.47,16.6522,-8.74097,-5.14043,-3380.93,12801.1,-2161.6,1.42044,79.6434,208.982,-575.952,9992.66,-1968.47,10.915,19.4467,48.8003,-3636.84,8121.95,216.468,-67.5406,102.862,105.98,4053.0,-8831.63,-1086.93,-21.0751,-20.424,74.1997,8618.41,-1044.89,1263.17,56.3429,-4.5152,7.10168
4.0435,8252.28,-2469.23,10377.1,17.4787,198.354,92.8953,3836.8,-378.425,9195.9,16.472,-8.76679,-5.08315,-3390.85,12815.4,-2161.82,1.50524,79.464,208.946,-556.637,9994.83,-1986.87,10.7291,19.2417,49.1567,-3640.58,8084.24,212.722,-67.3954,101.921,105.934,3963.86,-8845.74,-1093.55,-21.4333,-20.5024,74.0637,8621.68,-1029.25,1266.74,56.7028,-4.52166,7.15927
4.044,8248.9,-2470.03,10354.8,17.4026,198.147,92.8837,3849.7,-389.379,9195.32,16.2917,-8.79261,-5.02587,-3400.78,12829.7,-2162.05,1.59005,79.2845,208.91,-537.322,9997.0,-2005.27,10.5433,19.0366,49.5131,-3644.32,8046.53,208.977,-67.2502,100.98,105.889,3874.73,-8859.84,-1100.17,-21.7915,-20.5808,73.9277,8624.94,-1013.62,1270.31,57.0627,-4.52812,7.21687
4.0445,8244.4,-2469.06,10334.0,17.341,197.933,92.8849,3864.55,-399.591,9195.07,16.1138,-8.82038,-4.97227,-3410.38,12842.3,-2162.21,1.66804,79.1193,208.873,-515.987,10000.0,-2023.72,10.366,18.8382,49.8659,-3648.44,8007.4,205.014,-67.0896,100.036,105.839,3785.39,-8874.63,-1108.06,-22.1357,-20.6806,73.7983,8626.46,-998.074,1272.56,57.4185,-4.53642,7.2733
4.045,8230.89,-2453.9,10325.7,17.3949,197.663,92.9878,3895.04,-403.862,9197.38,15.9546,-8.86367,-4.94815,-3417.4,12841.8,-2161.83,1.69144,79.0672,208.821,-478.487,10009.7,-2042.59,10.2571,18.6927,50.1895,-3655.61,7956.94,199.314,-66.8059,99.066,105.756,3694.43,-8894.81,-1126.12,-22.3679,-20.952,73.7221,8613.96,-983.187,1264.22,57.7416,-4.55937,7.32049
4.0455,8217.39,-2438.74,10317.4,17.4488,197.393,93.0908,3925.53,-408.133,9199.68,15.7953,-8.90696,-4.92402,-3424.42,12841.2,-2161.45,1.71485,79.0151,208.769,-440.988,10019.5,-2061.46,10.1482,18.5471,50.5132,-3662.79,7906.48,193.615,-66.5223,98.0964,105.674,3603.48,-8914.98,-1144.18,-22.6001,-21.2234,73.6458,8601.46,-968.299,1255.88,58.0646,-4.58233,7.36768
4.046,8203.88,-2423.57,10309.1,17.5027,197.122,93.1938,3956.01,-412.404,9201.99,15.636,-8.95026,-4.89989,-3431.44,12840.7,-2161.07,1.73825,78.963,208.717,-403.488,10029.2,-2080.33,10.0394,18.4015,50.8369,-3669.96,7856.01,187.915,-66.2387,97.1268,105.591,3512.52,-8935.16,-1162.24,-22.8323,-21.4947,73.5696,8588.95,-953.412,1247.53,58.3877,-4.60528,7.41488
4.0465,8190.38,-2408.41,10300.8,17.5566,196.852,93.2968,3986.5,-416.674,9204.3,15.4767,-8.99355,-4.87576,-3438.46,12840.1,-2160.7,1.76165,78.9109,208.664,-365.989,10038.9,-2099.19,9.93048,18.256,51.1606,-3677.13,7805.55,182.216,-65.9551,96.1572,105.509,3421.56,-8955.34,-1180.3,-23.0646,-21.7661,73.4933,8576.45,-938.525,1239.19,58.7108,-4.62824,7.46207
4.047,8176.87,-2393.25,10292.5,17.6105,196.582,93.3997,4016.99,-420.945,9206.6,15.3174,-9.03684,-4.85164,-3445.47,12839.6,-2160.32,1.78506,78.8588,208.612,-328.489,10048.7,-2118.06,9.8216,18.1104,51.4843,-3684.3,7755.08,176.516,-65.6715,95.1876,105.426,3330.61,-8975.51,-1198.36,-23.2968,-22.0375,73.417,8563.95,-923.637,1230.85,59.0338,-4.65119,7.50926
4.0475,8163.37,-2378.09,10284.3,17.6644,196.312,93.5027,4047.48,-425.216,9208.91,15.1582,-9.08014,-4.82751,-3452.49,12839.0,-2159.94,1.80846,78.8067,208.56,-290.99,10058.4,-2136.93,9.71272,17.9649,51.808,-3691.47,7704.62,170.816,-65.3878,94.218,105.343,3239.65,-8995.69,-1216.42,-23.529,-22.3089,73.3408,8551.45,-908.75,1222.51,59.3569,-4.67415,7.55645
4.048,8149.86,-2362.93,10276.0,17.7183,196.041,93.6057,4077.97,-429.487,9211.22,14.9989,-9.12343,-4.80338,-3459.51,12838.5,-2159.56,1.83187,78.7546,208.508,-253.49,10068.1,-2155.79,9.60384,17.8193,52.1317,-3698.64,7654.15,165.117,-65.1042,93.2484,105.261,3148.7,-9015.87,-1234.48,-23.7612,-22.5802,73.2645,8538.94,-893.863,1214.17,59.68,-4.6971,7.60364
4.0485,8136.36,-2347.77,10267.7,17.7722,195.771,93.7086,4108.46,-433.758,9213.52,14.8396,-9.16672,-4.77926,-3466.53,12837.9,-2159.18,1.85527,78.7025,208.456,-215.991,10077.8,-2174.66,9.49496,17.6738,52.4554,-3705.82,7603.69,159.417,-64.8206,92.2788,105.178,3057.74,-9036.04,-1252.54,-23.9934,-22.8516,73.1883,8526.44,-878.975,1205.83,60.003,-4.72005,7.65083
4.049,8125.26,-2328.76,10258.1,17.7783,195.481,93.7975,4130.54,-431.899,9215.12,14.6799,-9.21477,-4.76585,-3474.01,12840.5,-2158.62,1.89213,78.5993,208.393,-181.287,10085.1,-2192.2,9.40905,17.5555,52.7707,-3711.67,7555.73,151.776,-64.49,91.3204,105.061,2967.32,-9057.32,-1273.78,-24.185,-23.1603,73.1174,8515.57,-865.819,1195.91,60.2985,-4.75022,7.69421
4.0495,8122.6,-2296.29,10243.9,17.6174,195.125,93.8367,4123.17,-408.585,9214.23,14.5188,-9.27947,-4.78994,-3483.07,12854.1,-2157.41,1.97609,78.3173,208.292,-156.369,10083.8,-2205.08,9.40353,17.5328,53.057,-3712.92,7516.57,137.339,-63.9951,90.4014,104.825,2878.8,-9082.45,-1306.17,-24.2347,-23.5993,73.0652,8510.43,-858.721,1180.49,60.4976,-4.80565,7.72425
4.05,8119.93,-2263.81,10229.8,17.4564,194.768,93.876,4115.79,-385.271,9213.33,14.3578,-9.34417,-4.81404,-3492.14,12867.7,-2156.21,2.06004,78.0353,208.192,-131.452,10082.5,-2217.96,9.39801,17.51,53.3433,-3714.17,7477.4,122.903,-63.5001,89.4824,104.589,2790.27,-9107.58,-1338.56,-24.2844,-24.0384,73.013,8505.28,-851.622,1165.07,60.6967,-4.86107,7.75429
4.0505,8117.27,-2231.33,10215.7,17.2955,194.411,93.9152,4108.43,-361.957,9212.44,14.1967,-9.40887,-4.83813,-3501.21,12881.3,-2155.0,2.144,77.7533,208.091,-106.534,10081.2,-2230.84,9.39249,17.4872,53.6296,-3715.42,7438.23,108.466,-63.0051,88.5633,104.353,2701.74,-9132.71,-1370.94,-24.334,-24.4774,72.9608,8500.14,-844.524,1149.65,60.8958,-4.9165,7.78432
4.051,8114.6,-2198.85,10201.5,17.1346,194.054,93.9545,4101.06,-338.643,9211.54,14.0356,-9.47357,-4.86223,-3510.28,12894.9,-2153.79,2.22795,77.4713,207.99,-81.616,10079.8,-2243.72,9.38696,17.4645,53.9159,-3716.67,7399.06,94.0292,-62.5102,87.6443,104.116,2613.21,-9157.84,-1403.33,-24.3837,-24.9165,72.9086,8495.0,-837.426,1134.23,61.0949,-4.97193,7.81436
4.0515,8111.94,-2166.37,10187.4,16.9736,193.697,93.9937,4093.69,-315.328,9210.65,13.8745,-9.53827,-4.88632,-3519.34,12908.5,-2152.59,2.31191,77.1893,207.89,-56.6982,10078.5,-2256.6,9.38144,17.4417,54.2022,-3717.92,7359.9,79.5925,-62.0152,86.7252,103.88,2524.68,-9182.97,-1435.72,-24.4334,-25.3556,72.8564,8489.85,-830.328,1118.81,61.294,-5.02735,7.8444
4.052,8109.27,-2133.89,10173.3,16.8127,193.34,94.033,4086.32,-292.014,9209.76,13.7134,-9.60297,-4.91042,-3528.41,12922.1,-2151.38,2.39587,76.9073,207.789,-31.7804,10077.2,-2269.48,9.37592,17.419,54.4885,-3719.17,7320.73,65.1558,-61.5202,85.8062,103.644,2436.16,-9208.1,-1468.11,-24.483,-25.7946,72.8043,8484.71,-823.23,1103.39,61.4931,-5.08278,7.87444
4.0525,8106.61,-2101.41,10159.1,16.6518,192.984,94.0722,4078.95,-268.7,9208.86,13.5524,-9.66767,-4.93451,-3537.48,12935.7,-2150.17,2.47982,76.6254,207.688,-6.86266,10075.9,-2282.35,9.3704,17.3962,54.7748,-3720.42,7281.56,50.7191,-61.0253,84.8872,103.408,2347.63,-9233.23,-1500.5,-24.5327,-26.2337,72.7521,8479.56,-816.132,1087.97,61.6922,-5.1382,7.90448
4.053,8103.95,-2068.93,10145.0,16.4908,192.627,94.1115,4071.58,-245.386,9207.97,13.3913,-9.73237,-4.95861,-3546.55,12949.3,-2148.97,2.56378,76.3434,207.588,18.0551,10074.6,-2295.23,9.36487,17.3735,55.0611,-3721.67,7242.4,36.2824,-60.5303,83.9681,103.171,2259.1,-9258.36,-1532.88,-24.5824,-26.6728,72.6999,8474.42,-809.033,1072.55,61.8913,-5.19363,7.93451
4.0535,8102.58,-2027.84,10131.4,16.2959,192.195,94.0907,4064.47,-228.82,9206.52,13.2316,-9.81803,-4.97804,-3565.98,12957.4,-2138.09,2.65697,76.0246,207.498,37.9539,10076.1,-2313.75,9.34969,17.3415,55.3264,-3718.05,7209.38,19.2766,-59.9817,83.0754,102.918,2171.75,-9286.2,-1566.93,-24.6003,-27.1201,72.6648,8465.44,-799.291,1062.34,62.0991,-5.23184,7.98328
4.054,8103.81,-1969.5,10119.0,16.0331,191.613,93.9498,4057.91,-225.75,9203.94,13.0747,-9.9456,-4.98817,-3606.15,12954.5,-2107.88,2.76862,75.6322,207.431,47.8146,10083.3,-2343.55,9.31518,17.2912,55.5497,-3704.7,7188.65,-2.8675,-59.3258,82.2354,102.631,2086.78,-9319.46,-1604.29,-24.5546,-27.584,72.664,8448.81,-784.259,1062.56,62.3242,-5.23562,8.06951
4.0545,8105.05,-1911.16,10106.6,15.7703,191.031,93.8089,4051.34,-222.679,9201.37,12.9178,-10.0732,-4.99829,-3646.31,12951.6,-2077.66,2.88027,75.2398,207.364,57.6753,10090.5,-2373.35,9.28067,17.2409,55.7731,-3691.35,7167.92,-25.0116,-58.6699,81.3953,102.344,2001.8,-9352.72,-1641.66,-24.5089,-28.0479,72.6632,8432.18,-769.227,1062.77,62.5494,-5.2394,8.15573
4.055,8106.28,-1852.83,10094.1,15.5075,190.449,93.668,4044.78,-219.609,9198.79,12.7609,-10.2007,-5.00842,-3686.47,12948.6,-2047.44,2.99193,74.8474,207.296,67.536,10097.6,-2403.14,9.24616,17.1905,55.9964,-3677.99,7147.19,-47.1557,-58.014,80.5552,102.058,1916.82,-9385.98,-1679.02,-24.4633,-28.5118,72.6624,8415.55,-754.195,1062.98,62.7745,-5.24318,8.24196
4.0555,8107.52,-1794.49,10081.7,15.2447,189.867,93.5271,4038.21,-216.539,9196.22,12.6041,-10.3283,-5.01854,-3726.64,12945.7,-2017.23,3.10358,74.4551,207.229,77.3967,10104.8,-2432.94,9.21166,17.1402,56.2197,-3664.64,7126.46,-69.2998,-57.3581,79.7152,101.771,1831.84,-9419.25,-1716.38,-24.4176,-28.9756,72.6615,8398.92,-739.163,1063.19,62.9997,-5.24696,8.32819
4.056,8108.75,-1736.16,10069.3,14.9819,189.285,93.3862,4031.65,-213.469,9193.65,12.4472,-10.4559,-5.02866,-3766.8,12942.8,-1987.01,3.21524,74.0627,207.162,87.2574,10112.0,-2462.73,9.17715,17.0898,56.443,-3651.29,7105.73,-91.444,-56.7022,78.8751,101.484,1746.86,-9452.51,-1753.75,-24.3719,-29.4395,72.6607,8382.29,-724.131,1063.41,63.2249,-5.25075,8.41441
4.0565,8109.98,-1677.82,10056.9,14.7191,188.703,93.2453,4025.08,-210.399,9191.07,12.2903,-10.5834,-5.03879,-3806.97,12939.8,-1956.79,3.32689,73.6703,207.095,97.1181,10119.2,-2492.53,9.14264,17.0395,56.6664,-3637.93,7085.0,-113.588,-56.0463,78.035,101.197,1661.88,-9485.77,-1791.11,-24.3263,-29.9034,72.6599,8365.66,-709.099,1063.62,63.45,-5.25453,8.50064
4.057,8111.22,-1619.48,10044.4,14.4563,188.121,93.1045,4018.52,-207.328,9188.5,12.1334,-10.711,-5.04891,-3847.13,12936.9,-1926.58,3.43854,73.2779,207.027,106.979,10126.4,-2522.33,9.10813,16.9892,56.8897,-3624.58,7064.27,-135.732,-55.3904,77.195,100.91,1576.9,-9519.03,-1828.47,-24.2806,-30.3673,72.6591,8349.03,-694.068,1063.83,63.6752,-5.25831,8.58687
4.0575,8112.45,-1561.15,10032.0,14.1935,187.539,92.9636,4011.95,-204.258,9185.93,11.9765,-10.8386,-5.05904,-3887.3,12934.0,-1896.36,3.5502,72.8856,206.96,116.84,10133.6,-2552.12,9.07362,16.9388,57.113,-3611.23,7043.54,-157.876,-54.7345,76.3549,100.623,1491.92,-9552.29,-1865.83,-24.2349,-30.8312,72.6582,8332.4,-679.036,1064.05,63.9003,-5.26209,8.67309
4.058,8107.28,-1521.49,10021.4,13.9497,186.972,92.7833,4008.33,-200.03,9190.53,11.8343,-10.9847,-5.05098,-3932.55,12937.9,-1887.28,3.63868,72.4644,206.861,127.289,10142.3,-2579.77,9.01261,16.9363,57.334,-3595.53,7024.43,-173.062,-54.0154,75.5085,100.353,1415.54,-9582.38,-1897.66,-24.1285,-31.3281,72.6628,8317.46,-659.333,1059.0,64.1078,-5.29204,8.75976
4.0585,8094.1,-1505.17,10013.1,13.7298,186.422,92.5539,4008.39,-194.353,9204.12,11.7104,-11.154,-5.02021,-3984.15,12950.3,-1904.61,3.69819,72.0071,206.721,138.476,10152.7,-2604.74,8.91848,16.9937,57.5521,-3576.9,7007.32,-179.551,-53.2175,74.654,100.105,1349.91,-9608.49,-1922.57,-23.9462,-31.8663,72.6741,8304.63,-633.791,1047.37,64.2931,-5.35469,8.84697
4.059,8080.92,-1488.85,10004.8,13.5098,185.873,92.3245,4008.45,-188.677,9217.71,11.5865,-11.3233,-4.98943,-4035.76,12962.7,-1921.94,3.75771,71.5499,206.582,149.662,10163.2,-2629.71,8.82435,17.0511,57.7703,-3558.28,6990.22,-186.039,-52.4195,73.7996,99.8576,1284.28,-9634.6,-1947.48,-23.7638,-32.4045,72.6855,8291.8,-608.249,1035.75,64.4784,-5.41735,8.93418
4.0595,8067.74,-1472.53,9996.55,13.2899,185.323,92.0951,4008.51,-183.0,9231.29,11.4626,-11.4925,-4.95866,-4087.36,12975.2,-1939.27,3.81723,71.0927,206.442,160.849,10173.7,-2654.69,8.73021,17.1084,57.9884,-3539.66,6973.12,-192.528,-51.6215,72.9451,99.6098,1218.65,-9660.71,-1972.39,-23.5815,-32.9427,72.6968,8278.97,-582.707,1024.13,64.6637,-5.48,9.02139
4.06,8054.57,-1456.21,9988.27,13.07,184.774,91.8657,4008.57,-177.324,9244.88,11.3388,-11.6618,-4.92788,-4138.97,12987.6,-1956.6,3.87674,70.6355,206.303,172.035,10184.1,-2679.66,8.63608,17.1658,58.2065,-3521.03,6956.01,-199.016,-50.8235,72.0907,99.3619,1153.02,-9686.82,-1997.31,-23.3991,-33.4809,72.7081,8266.14,-557.166,1012.5,64.8491,-5.54266,9.1086
4.0605,8041.39,-1439.89,9979.99,12.85,184.224,91.6363,4008.63,-171.647,9258.46,11.2149,-11.8311,-4.89711,-4190.57,13000.0,-1973.93,3.93626,70.1782,206.163,183.222,10194.6,-2704.63,8.54195,17.2231,58.4246,-3502.41,6938.91,-205.504,-50.0255,71.2362,99.1141,1087.39,-9712.93,-2022.22,-23.2168,-34.0191,72.7194,8253.31,-531.624,1000.88,65.0344,-5.60531,9.19581
4.061,8028.21,-1423.57,9971.71,12.6301,183.675,91.4068,4008.69,-165.971,9272.05,11.091,-12.0004,-4.86633,-4242.18,13012.5,-1991.27,3.99577,69.721,206.024,194.408,10205.1,-2729.6,8.44781,17.2805,58.6428,-3483.78,6921.81,-211.993,-49.2275,70.3818,98.8662,1021.76,-9739.04,-2047.13,-23.0345,-34.5573,72.7308,8240.48,-506.082,989.258,65.2197,-5.66797,9.28302
4.0615,8015.03,-1407.25,9963.42,12.4102,183.125,91.1774,4008.75,-160.295,9285.63,10.9671,-12.1697,-4.83556,-4293.78,13024.9,-2008.6,4.05529,69.2638,205.884,205.595,10215.5,-2754.57,8.35368,17.3378,58.8609,-3465.16,6904.71,-218.481,-48.4295,69.5273,98.6184,956.128,-9765.15,-2072.04,-22.8521,-35.0955,72.7421,8227.65,-480.541,977.635,65.405,-5.73062,9.37023
4.062,8001.85,-1390.94,9955.14,12.1902,182.576,90.948,4008.82,-154.618,9299.22,10.8432,-12.3389,-4.80478,-4345.39,13037.3,-2025.93,4.1148,68.8066,205.745,216.781,10226.0,-2779.54,8.25955,17.3952,59.079,-3446.53,6887.6,-224.97,-47.6315,68.6729,98.3706,890.498,-9791.26,-2096.95,-22.6698,-35.6337,72.7534,8214.82,-454.999,966.012,65.5903,-5.79328,9.45744
4.0625,8020.67,-1384.35,9953.4,12.1199,182.006,90.7072,4005.74,-158.352,9315.81,10.747,-12.5291,-4.72404,-4379.33,13048.5,-2028.52,4.20849,68.324,205.643,238.424,10238.4,-2798.46,8.19565,17.506,59.2703,-3418.95,6880.67,-233.127,-46.7679,67.7961,98.1214,833.417,-9809.35,-2116.82,-22.4521,-36.2434,72.7469,8201.16,-434.961,955.671,65.7011,-5.87089,9.51713
4.063,8065.07,-1385.56,9956.9,12.1691,181.419,90.4572,4000.15,-169.614,9334.81,10.6729,-12.736,-4.60331,-4399.15,13058.6,-2019.32,4.32951,67.821,205.572,268.433,10252.3,-2812.55,8.15594,17.6595,59.4402,-3384.2,6881.88,-242.62,-45.8516,66.9015,97.8713,783.175,-9821.02,-2132.66,-22.2061,-36.9103,72.726,8186.83,-419.328,946.356,65.7523,-5.96046,9.5548
4.0635,8109.48,-1386.77,9960.39,12.2184,180.832,90.2073,3994.56,-180.876,9353.8,10.5987,-12.9429,-4.48259,-4418.96,13068.7,-2010.12,4.45052,67.3181,205.5,298.442,10266.3,-2826.64,8.11623,17.813,59.61,-3349.46,6883.1,-252.113,-44.9354,66.0068,97.6212,732.933,-9832.7,-2148.5,-21.9601,-37.5773,72.7052,8172.5,-403.694,937.042,65.8035,-6.05003,9.59246
4.064,8153.89,-1387.98,9963.89,12.2676,180.245,89.9573,3988.97,-192.138,9372.8,10.5246,-13.1498,-4.36187,-4438.78,13078.8,-2000.92,4.57154,66.8152,205.428,328.451,10280.2,-2840.73,8.07653,17.9666,59.7798,-3314.71,6884.31,-261.606,-44.0192,65.1122,97.371,682.691,-9844.37,-2164.34,-21.7142,-38.2442,72.6844,8158.17,-388.06,927.727,65.8547,-6.1396,9.63013
4.0645,8198.3,-1389.18,9967.38,12.3169,179.658,89.7074,3983.38,-203.401,9391.8,10.4505,-13.3567,-4.24115,-4458.6,13088.9,-1991.72,4.69256,66.3122,205.357,358.459,10294.2,-2854.82,8.03682,18.1201,59.9497,-3279.96,6885.52,-271.099,-43.103,64.2175,97.1209,632.449,-9856.04,-2180.18,-21.4682,-38.9111,72.6635,8143.85,-372.427,918.413,65.9058,-6.22917,9.66779
4.065,8242.71,-1390.39,9970.88,12.3662,179.071,89.4574,3977.79,-214.663,9410.79,10.3764,-13.5636,-4.12043,-4478.41,13099.1,-1982.53,4.81358,65.8093,205.285,388.468,10308.1,-2868.91,7.99711,18.2736,60.1195,-3245.21,6886.73,-280.591,-42.1867,63.3229,96.8708,582.207,-9867.71,-2196.02,-21.2222,-39.578,72.6427,8129.52,-356.793,909.098,65.957,-6.31874,9.70546
4.0655,8287.12,-1391.6,9974.37,12.4154,178.484,89.2075,3972.2,-225.925,9429.79,10.3023,-13.7705,-3.99971,-4498.23,13109.2,-1973.33,4.9346,65.3063,205.214,418.477,10322.1,-2883.0,7.9574,18.4272,60.2893,-3210.46,6887.94,-290.084,-41.2705,62.4282,96.6206,531.965,-9879.38,-2211.86,-20.9762,-40.245,72.6219,8115.19,-341.159,899.784,66.0082,-6.40831,9.74312
4.066,8331.52,-1392.8,9977.86,12.4647,177.897,88.9575,3966.61,-237.187,9448.79,10.2281,-13.9773,-3.87899,-4518.04,13119.3,-1964.13,5.05561,64.8034,205.142,448.486,10336.0,-2897.08,7.91769,18.5807,60.4592,-3175.72,6889.15,-299.577,-40.3543,61.5336,96.3705,481.723,-9891.06,-2227.7,-20.7303,-40.9119,72.601,8100.86,-325.525,890.469,66.0594,-6.49788,9.78079
4.0665,8375.93,-1394.01,9981.36,12.5139,177.31,88.7076,3961.02,-248.449,9467.79,10.154,-14.1842,-3.75827,-4537.86,13129.4,-1954.93,5.17663,64.3005,205.07,478.494,10350.0,-2911.17,7.87799,18.7342,60.629,-3140.97,6890.36,-309.07,-39.438,60.639,96.1203,431.481,-9902.73,-2243.54,-20.4843,-41.5788,72.5802,8086.53,-309.892,881.155,66.1105,-6.58745,9.81845
4.067,8410.59,-1420.64,9979.34,12.7772,176.771,88.3458,3957.31,-258.366,9475.41,10.1402,-14.4811,-3.62925,-4560.59,13129.2,-1958.69,5.3286,63.778,204.933,501.551,10366.1,-2927.74,7.84739,18.9333,60.8108,-3098.45,6898.31,-315.172,-38.513,59.7515,95.8376,403.978,-9918.54,-2251.39,-20.2556,-42.2584,72.5931,8069.78,-292.654,877.968,66.0832,-6.67281,9.83508
4.0675,8440.37,-1459.99,9974.58,13.1476,176.256,87.9281,3954.54,-267.611,9477.34,10.1566,-14.8229,-3.49609,-4584.79,13123.9,-1968.92,5.49603,63.2459,204.763,521.132,10383.4,-2945.53,7.82136,19.1552,60.9984,-3052.06,6909.61,-319.579,-37.5835,58.8677,95.5386,387.846,-9936.41,-2255.25,-20.0356,-42.9442,72.6228,8051.81,-274.613,877.846,66.0166,-6.75606,9.84118
4.068,8470.14,-1499.33,9969.81,13.5179,175.741,87.5104,3951.77,-276.856,9479.28,10.1729,-15.1648,-3.36293,-4608.98,13118.5,-1979.16,5.66347,62.7137,204.592,540.712,10400.6,-2963.33,7.79532,19.377,61.1861,-3005.66,6920.92,-323.986,-36.654,57.9839,95.2395,371.714,-9954.29,-2259.11,-19.8156,-43.6301,72.6525,8033.85,-256.573,877.724,65.95,-6.83932,9.84728
4.0685,8499.92,-1538.68,9965.04,13.8882,175.226,87.0927,3949.0,-286.101,9481.21,10.1893,-15.5066,-3.22977,-4633.17,13113.2,-1989.39,5.83091,62.1815,204.422,560.293,10417.9,-2981.13,7.76928,19.5989,61.3737,-2959.26,6932.23,-328.392,-35.7245,57.1001,94.9405,355.582,-9972.16,-2262.97,-19.5956,-44.316,72.6822,8015.88,-238.533,877.601,65.8833,-6.92257,9.85338
4.069,8529.7,-1578.02,9960.27,14.2586,174.711,86.675,3946.23,-295.346,9483.15,10.2056,-15.8484,-3.0966,-4657.37,13107.8,-1999.63,5.99834,61.6493,204.252,579.873,10435.1,-2998.93,7.74325,19.8207,61.5614,-2912.86,6943.54,-332.799,-34.795,56.2163,94.6414,339.449,-9990.04,-2266.83,-19.3756,-45.0018,72.712,7997.91,-220.492,877.479,65.8167,-7.00582,9.85948
4.0695,8559.48,-1617.37,9955.5,14.6289,174.196,86.2573,3943.46,-304.591,9485.08,10.222,-16.1903,-2.96344,-4681.56,13102.5,-2009.86,6.16578,61.1171,204.081,599.454,10452.4,-3016.73,7.71721,20.0426,61.749,-2866.46,6954.84,-337.206,-33.8655,55.3325,94.3424,323.317,-10007.9,-2270.69,-19.1556,-45.6877,72.7417,7979.95,-202.452,877.357,65.7501,-7.08907,9.86558
4.07,8589.26,-1656.71,9950.73,14.9992,173.681,85.8396,3940.69,-313.835,9487.02,10.2383,-16.5321,-2.83028,-4705.76,13097.1,-2020.1,6.33322,60.585,203.911,619.035,10469.6,-3034.52,7.69118,20.2644,61.9367,-2820.06,6966.15,-341.613,-32.936,54.4487,94.0433,307.185,-10025.8,-2274.55,-18.9356,-46.3736,72.7714,7961.98,-184.412,877.235,65.6835,-7.17232,9.87168
4.0705,8619.04,-1696.05,9945.96,15.3695,173.166,85.4219,3937.92,-323.08,9488.95,10.2547,-16.8739,-2.69712,-4729.95,13091.8,-2030.34,6.50065,60.0528,203.741,638.615,10486.9,-3052.32,7.66514,20.4863,62.1244,-2773.67,6977.46,-346.019,-32.0065,53.5648,93.7443,291.052,-10043.7,-2278.41,-18.7156,-47.0594,72.8011,7944.02,-166.372,877.112,65.6168,-7.25557,9.87778
4.071,8648.81,-1735.4,9941.19,15.7399,172.651,85.0042,3935.15,-332.325,9490.89,10.2711,-17.2158,-2.56395,-4754.15,13086.4,-2040.57,6.66809,59.5206,203.57,658.196,10504.1,-3070.12,7.6391,20.7081,62.312,-2727.27,6988.77,-350.426,-31.0769,52.681,93.4453,274.92,-10061.5,-2282.27,-18.4956,-47.7453,72.8308,7926.05,-148.331,876.99,65.5502,-7.33882,9.88388
4.0715,8704.62,-1778.49,9918.9,16.2398,172.314,84.3829,3940.39,-326.921,9497.09,10.3161,-17.57,-2.4372,-4781.41,13091.2,-2058.21,6.82247,59.0372,203.438,680.541,10517.0,-3090.27,7.54609,21.0464,62.4791,-2670.37,6999.22,-354.246,-30.2323,51.8124,93.1963,266.853,-10071.9,-2283.0,-18.2098,-48.4062,72.8421,7912.95,-136.921,861.527,65.3902,-7.39111,9.90459
4.072,8767.86,-1822.66,9891.59,16.7767,172.028,83.7035,3947.93,-317.331,9504.52,10.3694,-17.9277,-2.31228,-4809.54,13098.8,-2077.96,6.97312,58.5677,203.317,703.675,10528.5,-3111.09,7.43394,21.4178,62.6403,-2610.48,7009.43,-357.898,-29.4118,50.9482,92.9616,261.091,-10080.2,-2282.85,-17.9052,-49.06,72.848,7901.23,-127.405,841.68,65.2035,-7.43455,9.92948
4.0725,8831.1,-1866.82,9864.29,17.3137,171.742,83.0241,3955.46,-307.741,9511.95,10.4227,-18.2854,-2.18736,-4837.68,13106.5,-2097.72,7.12377,58.0982,203.195,726.81,10540.1,-3131.91,7.32179,21.7893,62.8015,-2550.59,7019.65,-361.55,-28.5914,50.0839,92.7269,255.328,-10088.4,-2282.7,-17.6006,-49.7138,72.854,7889.51,-117.889,821.834,65.0168,-7.47798,9.95436
4.073,8894.34,-1910.99,9836.99,17.8506,171.456,82.3447,3962.99,-298.151,9519.38,10.476,-18.6431,-2.06243,-4865.82,13114.2,-2117.47,7.27443,57.6288,203.074,749.945,10551.7,-3152.73,7.20963,22.1608,62.9627,-2490.7,7029.86,-365.203,-27.7709,49.2197,92.4922,249.566,-10096.7,-2282.54,-17.296,-50.3676,72.8599,7877.8,-108.373,801.987,64.8301,-7.52142,9.97925
4.0735,8957.58,-1955.15,9809.68,18.3875,171.17,81.6652,3970.53,-288.561,9526.8,10.5293,-19.0009,-1.93751,-4893.95,13121.8,-2137.23,7.42508,57.1593,202.952,773.079,10563.3,-3173.55,7.09748,22.5322,63.1239,-2430.81,7040.07,-368.855,-26.9505,48.3554,92.2575,243.803,-10104.9,-2282.39,-16.9914,-51.0214,72.8659,7866.08,-98.8574,782.141,64.6434,-7.56486,10.0041
4.074,9020.81,-1999.32,9782.38,18.9245,170.884,80.9858,3978.06,-278.971,9534.23,10.5826,-19.3586,-1.81259,-4922.09,13129.5,-2156.98,7.57573,56.6898,202.831,796.214,10574.8,-3194.37,6.98533,22.9037,63.2851,-2370.91,7050.28,-372.507,-26.13,47.4911,92.0229,238.041,-10113.2,-2282.23,-16.6868,-51.6752,72.8718,7854.36,-89.3415,762.294,64.4567,-7.60829,10.029
4.0745,9084.05,-2043.48,9755.07,19.4614,170.598,80.3064,3985.59,-269.382,9541.66,10.6359,-19.7163,-1.68767,-4950.22,13137.1,-2176.74,7.72638,56.2203,202.709,819.349,10586.4,-3215.19,6.87318,23.2752,63.4463,-2311.02,7060.49,-376.159,-25.3096,46.6269,91.7882,232.278,-10121.4,-2282.08,-16.3823,-52.329,72.8777,7842.64,-79.8256,742.448,64.27,-7.65173,10.0539
4.075,9147.29,-2087.65,9727.77,19.9983,170.312,79.6269,3993.13,-259.792,9549.09,10.6892,-20.0741,-1.56275,-4978.36,13144.8,-2196.49,7.87703,55.7509,202.588,842.483,10598.0,-3236.01,6.76103,23.6466,63.6075,-2251.13,7070.7,-379.811,-24.4891,45.7626,91.5535,226.516,-10129.7,-2281.92,-16.0777,-52.9828,72.8837,7830.93,-70.3097,722.602,64.0832,-7.69517,10.0788
4.0755,9210.53,-2131.81,9700.46,20.5353,170.025,78.9475,4000.66,-250.202,9556.51,10.7425,-20.4318,-1.43782,-5006.5,13152.5,-2216.24,8.02768,55.2814,202.467,865.618,10609.6,-3256.83,6.64888,24.0181,63.7687,-2191.24,7080.91,-383.464,-23.6687,44.8984,91.3188,220.753,-10137.9,-2281.77,-15.7731,-53.6366,72.8896,7819.21,-60.7938,702.755,63.8965,-7.73861,10.1037
4.076,9258.31,-2080.54,9713.59,21.0541,169.963,78.2513,4006.63,-239.899,9562.32,10.7838,-20.7309,-1.24119,-5040.63,13138.5,-2227.04,8.07653,54.6514,202.43,882.822,10611.3,-3269.11,6.56713,24.4347,63.9089,-2124.98,7103.21,-394.975,-22.9292,44.1525,91.091,242.256,-10143.4,-2266.58,-15.4362,-54.2052,72.9,7819.54,-63.8346,681.374,63.9208,-7.82196,10.1014
4.0765,9304.15,-2017.33,9731.76,21.5707,169.928,77.5529,4012.4,-229.508,9567.93,10.8236,-21.0226,-1.03559,-5075.52,13121.8,-2236.71,8.11265,54.0014,202.404,899.285,10611.9,-3280.31,6.48918,24.857,64.0465,-2057.92,7127.02,-407.469,-22.1998,43.4213,90.8642,267.168,-10148.6,-2249.52,-15.0954,-54.7631,72.911,7821.38,-68.4451,659.801,63.9715,-7.91031,10.0956
4.077,9350.0,-1954.12,9749.93,22.0873,169.894,76.8546,4018.17,-219.116,9573.54,10.8635,-21.3143,-0.829984,-5110.41,13105.2,-2246.38,8.14877,53.3514,202.378,915.748,10612.4,-3291.51,6.41124,25.2793,64.1841,-1990.86,7150.83,-419.963,-21.4705,42.6902,90.6373,292.079,-10153.8,-2232.46,-14.7545,-55.3211,72.922,7823.23,-73.0556,638.228,64.0222,-7.99865,10.0899
4.0775,9395.84,-1890.92,9768.1,22.604,169.859,76.1563,4023.94,-208.724,9579.15,10.9033,-21.606,-0.624383,-5145.3,13088.5,-2256.05,8.18489,52.7014,202.352,932.211,10613.0,-3302.72,6.33329,25.7015,64.3217,-1923.8,7174.64,-432.457,-20.7411,41.9591,90.4104,316.99,-10159.0,-2215.4,-14.4136,-55.879,72.9329,7825.06,-77.6661,616.654,64.0729,-8.087,10.0842
4.078,9441.69,-1827.71,9786.28,23.1206,169.825,75.4579,4029.71,-198.332,9584.76,10.9431,-21.8977,-0.418781,-5180.19,13071.9,-2265.72,8.22101,52.0514,202.325,948.674,10613.5,-3313.92,6.25535,26.1238,64.4594,-1856.75,7198.45,-444.951,-20.0117,41.228,90.1835,341.902,-10164.1,-2198.33,-14.0727,-56.4369,72.9439,7826.91,-82.2765,595.081,64.1235,-8.17535,10.0785
4.0785,9487.53,-1764.51,9804.45,23.6372,169.79,74.7596,4035.48,-187.941,9590.37,10.9829,-22.1894,-0.21318,-5215.08,13055.2,-2275.39,8.25713,51.4014,202.299,965.137,10614.1,-3325.13,6.1774,26.5461,64.597,-1789.69,7222.26,-457.445,-19.2824,40.4969,89.9566,366.813,-10169.3,-2181.27,-13.7318,-56.9949,72.9549,7828.75,-86.887,573.508,64.1742,-8.26369,10.0728
4.079,9533.38,-1701.3,9822.62,24.1538,169.756,74.0613,4041.25,-177.549,9595.97,11.0227,-22.4811,-0.00757848,-5249.96,13038.6,-2285.06,8.29325,50.7514,202.273,981.6,10614.7,-3336.33,6.09946,26.9684,64.7346,-1722.63,7246.07,-469.939,-18.553,39.7658,89.7297,391.724,-10174.5,-2164.21,-13.3909,-57.5528,72.9658,7830.59,-91.4975,551.935,64.2249,-8.35204,10.0671
4.0795,9579.22,-1638.1,9840.8,24.6704,169.721,73.363,4047.02,-167.157,9601.58,11.0625,-22.7729,0.198023,-5284.85,13021.9,-2294.73,8.32937,50.1014,202.247,998.063,10615.2,-3347.54,6.02151,27.3906,64.8722,-1655.57,7269.88,-482.433,-17.8236,39.0347,89.5028,416.636,-10179.6,-2147.14,-13.0501,-58.1108,72.9768,7832.43,-96.108,530.362,64.2756,-8.44038,10.0614
4.08,9625.07,-1574.89,9858.97,25.187,169.687,72.6646,4052.8,-156.765,9607.19,11.1024,-23.0646,0.403624,-5319.74,13005.3,-2304.41,8.36549,49.4514,202.221,1014.53,10615.8,-3358.74,5.94357,27.8129,65.0098,-1588.51,7293.69,-494.927,-17.0942,38.3036,89.276,441.547,-10184.8,-2130.08,-12.7092,-58.6687,72.9878,7834.27,-100.718,508.789,64.3262,-8.52873,10.0557
4.0805,9631.55,-1432.19,9877.3,24.9714,169.397,71.6244,4041.91,-145.86,9626.6,11.1765,-23.3745,0.680629,-5376.47,12983.1,-2298.17,8.34849,48.5307,202.012,1000.73,10609.5,-3370.21,5.93772,28.243,65.1242,-1518.28,7323.25,-493.884,-16.4802,37.6871,89.1017,486.309,-10195.5,-2113.89,-12.4612,-59.0861,72.9456,7839.45,-95.2175,499.784,64.4994,-8.57314,10.0195
4.081,9638.04,-1289.49,9895.63,24.7558,169.107,70.5841,4031.02,-134.956,9646.01,11.2507,-23.6843,0.957633,-5433.19,12960.9,-2291.94,8.33149,47.61,201.804,986.928,10603.2,-3381.69,5.93188,28.673,65.2385,-1448.04,7352.81,-492.84,-15.8661,37.0706,88.9275,531.072,-10206.2,-2097.7,-12.2133,-59.5036,72.9033,7844.64,-89.7165,490.779,64.6725,-8.61755,9.98332
4.0815,9644.53,-1146.8,9913.95,24.5401,168.817,69.5439,4020.13,-124.051,9665.42,11.3249,-23.9942,1.23464,-5489.92,12938.7,-2285.71,8.31449,46.6893,201.595,973.129,10596.9,-3393.16,5.92603,29.103,65.3529,-1377.8,7382.37,-491.797,-15.2521,36.4541,88.7533,575.834,-10216.9,-2081.52,-11.9653,-59.921,72.8611,7849.82,-84.2155,481.774,64.8456,-8.66196,9.94714
4.082,9651.02,-1004.1,9932.28,24.3245,168.528,68.5036,4009.24,-113.146,9684.83,11.3991,-24.3041,1.51164,-5546.65,12916.5,-2279.48,8.29749,45.7686,201.386,959.33,10590.6,-3404.63,5.92019,29.5331,65.4672,-1307.57,7411.93,-490.754,-14.638,35.8376,88.579,620.596,-10227.6,-2065.33,-11.7174,-60.3385,72.8189,7855.0,-78.7145,472.769,65.0187,-8.70637,9.91096
4.0825,9657.51,-861.398,9950.61,24.1089,168.238,67.4634,3998.35,-102.241,9704.25,11.4733,-24.614,1.78865,-5603.37,12894.3,-2273.25,8.28049,44.8479,201.177,945.532,10584.4,-3416.11,5.91434,29.9631,65.5816,-1237.33,7441.49,-489.71,-14.0239,35.2211,88.4048,665.358,-10238.3,-2049.14,-11.4694,-60.7559,72.7767,7860.19,-73.2135,463.764,65.1918,-8.75078,9.87478
4.083,9664.0,-718.699,9968.93,23.8932,167.948,66.4231,3987.47,-91.3361,9723.66,11.5474,-24.9239,2.06565,-5660.1,12872.1,-2267.02,8.26348,43.9273,200.968,931.733,10578.1,-3427.58,5.9085,30.3931,65.696,-1167.1,7471.05,-488.667,-13.4099,34.6046,88.2306,710.121,-10249.0,-2032.95,-11.2215,-61.1734,72.7344,7865.37,-67.7126,454.759,65.365,-8.79519,9.8386
4.0835,9670.49,-576.0,9987.26,23.6776,167.658,65.3829,3976.58,-80.4312,9743.07,11.6216,-25.2338,2.34266,-5716.82,12849.9,-2260.79,8.24648,43.0066,200.76,917.934,10571.8,-3439.05,5.90265,30.8232,65.8103,-1096.86,7500.61,-487.623,-12.7958,33.9882,88.0564,754.883,-10259.7,-2016.76,-10.9735,-61.5908,72.6922,7870.56,-62.2116,445.754,65.5381,-8.8396,9.80242
4.084,9676.98,-433.301,10005.6,23.462,167.368,64.3427,3965.69,-69.5263,9762.48,11.6958,-25.5437,2.61966,-5773.55,12827.7,-2254.56,8.22948,42.0859,200.551,904.135,10565.5,-3450.53,5.89681,31.2532,65.9247,-1026.62,7530.17,-486.579,-12.1817,33.3717,87.8821,799.645,-10270.4,-2000.57,-10.7255,-62.0082,72.65,7875.74,-56.7106,436.748,65.7112,-8.884,9.76624
4.0845,9682.2,-306.687,10020.9,23.2316,167.073,63.2604,3954.71,-58.9839,9780.03,11.7858,-25.8691,2.89641,-5830.34,12808.1,-2248.99,8.22913,41.1694,200.348,891.025,10561.9,-3461.31,5.89239,31.6916,66.0414,-957.957,7558.65,-486.009,-11.5899,32.7823,87.7134,843.72,-10281.8,-1986.12,-10.4845,-62.4129,72.6084,7878.9,-50.9886,427.052,65.8793,-8.92521,9.73003
4.085,9677.28,-308.751,10012.3,22.8827,166.737,61.8421,3942.95,-51.3411,9782.69,12.0025,-26.3188,3.17113,-5887.61,12809.9,-2248.68,8.36194,40.2864,200.187,883.426,10579.7,-3466.53,5.89939,32.197,66.1776,-901.84,7578.46,-489.22,-11.1761,32.4101,87.5888,882.298,-10299.6,-1985.61,-10.2984,-62.7151,72.5715,7865.86,-43.4986,411.823,66.0078,-8.94083,9.6936
4.0855,9672.37,-310.815,10003.6,22.5339,166.401,60.4239,3931.2,-43.6983,9785.36,12.2192,-26.7685,3.44585,-5944.88,12811.7,-2248.37,8.49475,39.4034,200.027,875.827,10597.5,-3471.76,5.9064,32.7023,66.3137,-845.722,7598.27,-492.432,-10.7623,32.0379,87.4642,920.875,-10317.3,-1985.1,-10.1124,-63.0173,72.5347,7852.82,-36.0086,396.594,66.1362,-8.95645,9.65717
4.086,9667.45,-312.88,9994.97,22.1851,166.065,59.0056,3919.44,-36.0555,9788.02,12.4359,-27.2183,3.72057,-6002.15,12813.5,-2248.05,8.62756,38.5205,199.867,868.228,10615.3,-3476.99,5.9134,33.2077,66.4498,-789.605,7618.08,-495.644,-10.3484,31.6656,87.3396,959.453,-10335.1,-1984.59,-9.92636,-63.3195,72.4979,7839.79,-28.5186,381.366,66.2646,-8.97207,9.62074
4.0865,9662.54,-314.944,9986.32,21.8363,165.729,57.5873,3907.69,-28.4127,9790.69,12.6526,-27.668,3.99529,-6059.41,12815.3,-2247.74,8.76037,37.6375,199.706,860.63,10633.0,-3482.21,5.9204,33.7131,66.5859,-733.488,7637.89,-498.855,-9.93462,31.2934,87.215,998.03,-10352.8,-1984.08,-9.74033,-63.6217,72.4611,7826.75,-21.0286,366.137,66.393,-8.98769,9.58431
4.087,9657.62,-317.008,9977.67,21.4875,165.393,56.1691,3895.93,-20.7699,9793.35,12.8693,-28.1177,4.27001,-6116.68,12817.1,-2247.43,8.89318,36.7546,199.546,853.031,10650.8,-3487.44,5.9274,34.2184,66.722,-677.371,7657.7,-502.067,-9.52079,30.9212,87.0903,1036.61,-10370.5,-1983.56,-9.55429,-63.9239,72.4242,7813.71,-13.5386,350.908,66.5215,-9.0033,9.54788
4.0875,9652.71,-319.072,9969.02,21.1387,165.057,54.7508,3884.18,-13.1271,9796.01,13.086,-28.5674,4.54472,-6173.95,12818.9,-2247.12,9.02599,35.8716,199.386,845.432,10668.6,-3492.67,5.93441,34.7238,66.8581,-621.254,7677.51,-505.279,-9.10696,30.5489,86.9657,1075.19,-10388.3,-1983.05,-9.36826,-64.2261,72.3874,7800.67,-6.04865,335.679,66.6499,-9.01892,9.51145
4.088,9647.79,-321.136,9960.37,20.7899,164.721,53.3325,3872.42,-5.48425,9798.68,13.3027,-29.0171,4.81944,-6231.22,12820.7,-2246.81,9.1588,34.9887,199.225,837.833,10686.4,-3497.89,5.94141,35.2292,66.9943,-565.137,7697.32,-508.49,-8.69313,30.1767,86.8411,1113.76,-10406.0,-1982.54,-9.18222,-64.5283,72.3506,7787.63,1.44134,320.45,66.7783,-9.03454,9.47502
4.0885,9642.88,-323.2,9951.72,20.4411,164.384,51.9143,3860.67,2.15856,9801.34,13.5194,-29.4669,5.09416,-6288.49,12822.5,-2246.5,9.29161,34.1057,199.065,830.234,10704.2,-3503.12,5.94841,35.7345,67.1304,-509.02,7717.13,-511.702,-8.2793,29.8044,86.7165,1152.34,-10423.7,-1982.03,-8.99619,-64.8305,72.3138,7774.59,8.93134,305.222,66.9067,-9.05016,9.43859
4.089,9640.09,-329.198,9938.99,20.1321,164.072,50.4645,3848.47,0.380057,9807.78,13.7797,-29.9414,5.37515,-6338.5,12825.8,-2248.32,9.41418,33.2108,198.893,827.266,10721.8,-3510.76,5.95722,36.2583,67.2694,-454.375,7738.23,-513.721,-7.90232,29.5064,86.5899,1191.87,-10439.1,-1980.95,-8.8352,-65.1213,72.2743,7769.31,15.8412,288.621,67.0383,-9.0888,9.40255
4.0895,9644.72,-348.964,9911.97,19.9624,163.845,48.9046,3834.74,-34.373,9827.44,14.1928,-30.5028,5.67807,-6363.09,12834.5,-2257.59,9.5009,32.2742,198.678,840.507,10738.8,-3526.81,5.97235,36.8462,67.4187,-404.883,7763.87,-511.563,-7.6543,29.468,86.4565,1234.73,-10446.2,-1977.87,-8.76186,-65.3724,72.2254,7791.19,20.7205,267.217,67.1809,-9.20804,9.36786
4.09,9649.35,-368.73,9884.95,19.7927,163.617,47.3447,3821.0,-69.1261,9847.1,14.6058,-31.0642,5.981,-6387.68,12843.3,-2266.85,9.58763,31.3375,198.464,853.748,10755.8,-3542.87,5.98749,37.4342,67.568,-355.391,7789.51,-509.405,-7.40628,29.4296,86.323,1277.59,-10453.2,-1974.79,-8.68851,-65.6234,72.1766,7813.06,25.5998,245.813,67.3235,-9.32728,9.33317
4.0905,9653.99,-388.496,9857.93,19.623,163.389,45.7848,3807.27,-103.879,9866.76,15.0189,-31.6256,6.28392,-6412.27,12852.1,-2276.12,9.67436,30.4009,198.25,866.989,10772.8,-3558.93,6.00262,38.0222,67.7174,-305.899,7815.16,-507.248,-7.15826,29.3913,86.1896,1320.45,-10460.3,-1971.72,-8.61517,-65.8744,72.1278,7834.93,30.4791,224.409,67.4661,-9.44652,9.29848
4.091,9658.62,-408.262,9830.91,19.4532,163.162,44.2249,3793.54,-138.632,9886.42,15.432,-32.1869,6.58684,-6436.86,12860.8,-2285.39,9.76108,29.4642,198.036,880.229,10789.8,-3574.99,6.01776,38.6101,67.8667,-256.407,7840.8,-505.09,-6.91024,29.3529,86.0561,1363.31,-10467.4,-1968.64,-8.54183,-66.1255,72.079,7856.8,35.3584,203.005,67.6088,-9.56576,9.26379
4.0915,9663.25,-428.028,9803.89,19.2835,162.934,42.665,3779.8,-173.385,9906.09,15.845,-32.7483,6.88977,-6461.45,12869.6,-2294.65,9.84781,28.5275,197.822,893.47,10806.8,-3591.05,6.03289,39.1981,68.016,-206.915,7866.44,-502.933,-6.66222,29.3145,85.9227,1406.17,-10474.5,-1965.56,-8.46849,-66.3765,72.0302,7878.68,40.2377,181.601,67.7514,-9.685,9.22911
4.092,9667.88,-447.794,9776.87,19.1138,162.706,41.1052,3766.07,-208.138,9925.75,16.2581,-33.3097,7.19269,-6486.04,12878.3,-2303.92,9.93453,27.5909,197.607,906.711,10823.8,-3607.11,6.04802,39.7861,68.1653,-157.423,7892.08,-500.775,-6.41421,29.2761,85.7892,1449.03,-10481.5,-1962.48,-8.39515,-66.6275,71.9814,7900.55,45.1171,160.197,67.894,-9.80424,9.19442
4.0925,9672.52,-467.56,9749.85,18.9441,162.479,39.5453,3752.33,-242.892,9945.41,16.6712,-33.8711,7.49561,-6510.63,12887.1,-2313.19,10.0213,26.6542,197.393,919.952,10840.8,-3623.17,6.06316,40.374,68.3146,-107.931,7917.72,-498.617,-6.16619,29.2377,85.6558,1491.89,-10488.6,-1959.41,-8.32181,-66.8786,71.9326,7922.42,49.9964,138.793,68.0366,-9.92348,9.15973
4.093,9677.15,-487.327,9722.83,18.7744,162.251,37.9854,3738.6,-277.645,9965.07,17.0843,-34.4325,7.79854,-6535.22,12895.9,-2322.45,10.108,25.7176,197.179,933.193,10857.8,-3639.23,6.07829,40.962,68.4639,-58.4388,7943.36,-496.46,-5.91817,29.1993,85.5223,1534.75,-10495.7,-1956.33,-8.24847,-67.1296,71.8838,7944.3,54.8757,117.389,68.1792,-10.0427,9.12504
4.0935,9693.78,-501.671,9697.96,18.6109,162.044,36.4569,3731.03,-302.319,9984.91,17.5754,-35.017,8.12283,-6561.36,12901.7,-2330.46,10.1906,24.7605,196.971,950.63,10866.5,-3667.05,6.13461,41.6094,68.6031,-7.83888,7965.67,-491.293,-5.70387,29.2425,85.3618,1574.13,-10496.6,-1949.65,-8.20018,-67.394,71.822,7964.35,58.6024,98.4738,68.2539,-10.1517,9.08145
4.094,9734.41,-505.174,9677.38,18.4599,161.879,34.9913,3735.79,-306.835,10005.1,18.2228,-35.6478,8.48986,-6590.59,12901.9,-2335.96,10.2651,23.7624,196.777,976.459,10858.6,-3718.38,6.27332,42.3755,68.7221,44.9771,7981.33,-480.108,-5.55701,29.4488,85.1471,1606.53,-10485.3,-1935.77,-8.20197,-67.6851,71.7343,7980.75,60.0238,84.5354,68.1929,-10.2403,9.02006
4.0945,9775.04,-508.676,9656.8,18.3088,161.714,33.5256,3740.54,-311.35,10025.3,18.8702,-36.2785,8.85689,-6619.81,12902.1,-2341.46,10.3395,22.7644,196.583,1002.29,10850.6,-3769.71,6.41202,43.1416,68.8411,97.793,7996.98,-468.922,-5.41015,29.6551,84.9323,1638.94,-10474.0,-1921.89,-8.20376,-67.9762,71.6466,7997.15,61.4452,70.5971,68.1319,-10.3288,8.95867
4.095,9815.66,-512.178,9636.22,18.1578,161.548,32.06,3745.3,-315.866,10045.5,19.5176,-36.9093,9.22392,-6649.04,12902.2,-2346.96,10.414,21.7664,196.389,1028.12,10842.7,-3821.05,6.55072,43.9077,68.9602,150.609,8012.63,-457.737,-5.2633,29.8614,84.7176,1671.35,-10462.7,-1908.01,-8.20555,-68.2674,71.5589,8013.55,62.8666,56.6587,68.0709,-10.4173,8.89727
4.0955,9856.29,-515.681,9615.64,18.0067,161.383,30.5944,3750.06,-320.382,10065.7,20.165,-37.5401,9.59095,-6678.27,12902.4,-2352.45,10.4884,20.7683,196.196,1053.95,10834.8,-3872.38,6.68942,44.6739,69.0792,203.425,8028.28,-446.552,-5.11644,30.0677,84.5029,1703.75,-10451.4,-1894.13,-8.20735,-68.5585,71.4712,8029.95,64.288,42.7204,68.0099,-10.5059,8.83588
4.096,9896.92,-519.183,9595.06,17.8557,161.218,29.1288,3754.82,-324.898,10085.9,20.8123,-38.1709,9.95798,-6707.5,12902.6,-2357.95,10.5629,19.7703,196.002,1079.78,10826.9,-3923.72,6.82812,45.44,69.1982,256.241,8043.93,-435.366,-4.96958,30.274,84.2881,1736.16,-10440.1,-1880.25,-8.20914,-68.8496,71.3835,8046.35,65.7094,28.782,67.9489,-10.5944,8.77449
4.0965,9937.55,-522.685,9574.48,17.7046,161.052,27.6632,3759.58,-329.414,10106.0,21.4597,-38.8016,10.325,-6736.73,12902.7,-2363.45,10.6373,18.7723,195.808,1105.6,10819.0,-3975.05,6.96682,46.2061,69.3172,309.057,8059.58,-424.181,-4.82273,30.4803,84.0734,1768.57,-10428.8,-1866.37,-8.21093,-69.1407,71.2957,8062.75,67.1308,14.8437,67.8878,-10.6829,8.71309
4.097,9978.17,-526.188,9553.89,17.5535,160.887,26.1975,3764.34,-333.93,10126.2,22.1071,-39.4324,10.692,-6765.95,12902.9,-2368.95,10.7118,17.7742,195.614,1131.43,10811.0,-4026.39,7.10552,46.9722,69.4362,361.873,8075.24,-412.996,-4.67587,30.6866,83.8587,1800.97,-10417.5,-1852.49,-8.21273,-69.4319,71.208,8079.15,68.5522,0.905304,67.8268,-10.7715,8.6517
4.0975,10018.8,-529.69,9533.31,17.4025,160.722,24.7319,3769.09,-338.446,10146.4,22.7545,-40.0632,11.0591,-6795.18,12903.1,-2374.44,10.7862,16.7762,195.42,1157.26,10803.1,-4077.72,7.24423,47.7383,69.5553,414.689,8090.89,-401.81,-4.52901,30.8929,83.644,1833.38,-10406.2,-1838.61,-8.21452,-69.723,71.1203,8095.55,69.9736,-13.0331,67.7658,-10.86,8.59031
4.098,10050.5,-519.07,9500.33,17.1991,160.542,23.1684,3778.42,-309.499,10153.3,23.2508,-40.638,11.4075,-6822.16,12893.2,-2378.34,10.8553,15.7465,195.167,1184.29,10793.9,-4124.66,7.31358,48.5525,69.6541,466.344,8103.67,-389.81,-4.39311,31.1548,83.4007,1855.77,-10398.3,-1823.44,-8.18499,-70.086,71.0394,8120.08,69.117,-26.6131,67.7029,-10.9376,8.55664
4.0985,10071.2,-490.798,9451.85,16.9304,160.344,21.4826,3793.45,-238.724,10143.5,23.5582,-41.143,11.7326,-6846.32,12870.8,-2380.25,10.9175,14.6772,194.84,1212.81,10783.0,-4166.09,7.29624,49.4269,69.7278,516.547,8112.87,-376.791,-4.2709,31.4862,83.1219,1865.63,-10394.5,-1806.66,-8.1163,-70.539,70.9669,8154.76,65.4129,-39.7451,67.6376,-11.0016,8.55765
4.099,10091.8,-462.526,9403.38,16.6617,160.145,19.7967,3808.47,-167.948,10133.7,23.8656,-41.6479,12.0577,-6870.49,12848.4,-2382.16,10.9798,13.6079,194.513,1241.33,10772.2,-4207.53,7.2789,50.3012,69.8015,566.751,8122.07,-363.772,-4.14869,31.8176,82.8431,1875.49,-10390.7,-1789.87,-8.04761,-70.9919,70.8944,8189.44,61.7089,-52.8772,67.5722,-11.0655,8.55865
4.0995,10112.4,-434.254,9354.9,16.393,159.947,18.1109,3823.5,-97.1733,10123.9,24.173,-42.1529,12.3828,-6894.65,12826.0,-2384.06,11.0421,12.5386,194.186,1269.84,10761.4,-4248.96,7.26156,51.1755,69.8751,616.955,8131.28,-350.753,-4.02648,32.149,82.5643,1885.35,-10386.9,-1773.09,-7.97893,-71.4448,70.8219,8224.12,58.0048,-66.0092,67.5069,-11.1295,8.55966
4.1,10133.0,-405.982,9306.42,16.1243,159.749,16.425,3838.53,-26.3981,10114.1,24.4805,-42.6578,12.7079,-6918.82,12803.6,-2385.97,11.1043,11.4693,193.859,1298.36,10750.5,-4290.4,7.24422,52.0498,69.9488,667.159,8140.48,-337.734,-3.90428,32.4804,82.2855,1895.21,-10383.2,-1756.31,-7.91024,-71.8977,70.7495,8258.8,54.3008,-79.1413,67.4416,-11.1935,8.56067
4.1005,10153.6,-377.71,9257.94,15.8555,159.55,14.7392,3853.56,44.3771,10104.3,24.7879,-43.1628,13.033,-6942.98,12781.2,-2387.87,11.1666,10.4,193.532,1326.88,10739.7,-4331.83,7.22688,52.9241,70.0225,717.363,8149.68,-324.715,-3.78207,32.8118,82.0067,1905.07,-10379.4,-1739.52,-7.84155,-72.3507,70.677,8293.48,50.5967,-92.2734,67.3763,-11.2574,8.56167
4.101,10174.3,-349.438,9209.46,15.5868,159.352,13.0533,3868.59,115.152,10094.5,25.0953,-43.6677,13.3581,-6967.15,12758.7,-2389.78,11.2289,9.33065,193.205,1355.4,10728.8,-4373.27,7.20954,53.7984,70.0961,767.567,8158.88,-311.696,-3.65986,33.1432,81.7279,1914.93,-10375.6,-1722.74,-7.77287,-72.8036,70.6045,8328.16,46.8927,-105.405,67.3109,-11.3214,8.56268
4.1015,10194.9,-321.166,9160.98,15.3181,159.154,11.3675,3883.62,185.928,10084.7,25.4028,-44.1727,13.6831,-6991.31,12736.3,-2391.68,11.2912,8.26134,192.878,1383.92,10718.0,-4414.7,7.1922,54.6727,70.1698,817.771,8168.08,-298.677,-3.53765,33.4746,81.449,1924.79,-10371.8,-1705.96,-7.70418,-73.2565,70.532,8362.84,43.1886,-118.537,67.2456,-11.3853,8.56368
4.102,10215.5,-292.893,9112.5,15.0494,158.955,9.68164,3898.64,256.703,10074.9,25.7102,-44.6776,14.0082,-7015.48,12713.9,-2393.59,11.3534,7.19203,192.551,1412.44,10707.1,-4456.14,7.17486,55.547,70.2435,867.975,8177.28,-285.658,-3.41545,33.806,81.1702,1934.65,-10368.0,-1689.17,-7.63549,-73.7094,70.4595,8397.52,39.4846,-131.67,67.1803,-11.4493,8.56469
4.1025,10229.7,-259.826,9077.37,14.6479,158.783,8.00223,3900.75,315.476,10063.0,25.7689,-45.0796,14.3081,-7040.81,12682.6,-2398.13,11.4251,6.04978,192.233,1401.52,10734.1,-4442.41,6.96572,56.2466,70.3162,916.34,8176.47,-267.714,-3.26635,34.1558,80.849,1938.17,-10371.7,-1677.87,-7.57846,-74.1587,70.385,8433.28,35.1162,-153.679,67.1151,-11.4728,8.54012
4.103,10238.8,-222.923,9052.91,14.1401,158.631,6.32798,3892.53,364.647,10049.3,25.6288,-45.3991,14.5877,-7067.08,12644.1,-2404.78,11.5042,4.84917,191.922,1359.06,10791.3,-4384.54,6.60313,56.8065,70.3882,963.235,8167.65,-245.83,-3.09575,34.5203,80.4939,1936.6,-10381.4,-1670.95,-7.53075,-74.605,70.3089,8469.92,30.2165,-182.789,67.0501,-11.4639,8.49509
4.1035,10247.9,-186.02,9028.45,13.6323,158.479,4.65372,3884.31,413.818,10035.7,25.4886,-45.7186,14.8673,-7093.35,12605.6,-2411.43,11.5832,3.64856,191.611,1316.6,10848.5,-4326.68,6.24054,57.3663,70.4601,1010.13,8158.83,-223.946,-2.92515,34.8848,80.1388,1935.04,-10391.1,-1664.03,-7.48304,-75.0512,70.2328,8506.56,25.3168,-211.9,66.9851,-11.455,8.45006
4.104,10257.0,-149.117,9003.99,13.1246,158.326,2.97947,3876.08,462.99,10022.0,25.3484,-46.0381,15.147,-7119.62,12567.1,-2418.08,11.6623,2.44795,191.3,1274.14,10905.7,-4268.82,5.87795,57.9262,70.5321,1057.02,8150.01,-202.063,-2.75455,35.2493,79.7837,1933.48,-10400.7,-1657.11,-7.43533,-75.4975,70.1567,8543.2,20.4171,-241.011,66.9201,-11.4461,8.40503
4.1045,10266.1,-112.214,8979.54,12.6168,158.174,1.30521,3867.86,512.161,10008.4,25.2082,-46.3576,15.4266,-7145.89,12528.6,-2424.73,11.7414,1.24734,190.989,1231.67,10962.9,-4210.96,5.51537,58.486,70.6041,1103.92,8141.19,-180.179,-2.58395,35.6138,79.4285,1931.91,-10410.4,-1650.19,-7.38761,-75.9438,70.0807,8579.84,15.5174,-270.121,66.855,-11.4372,8.36
4.105,10275.1,-75.3106,8955.08,12.109,158.022,-0.369043,3859.64,561.332,9994.75,25.068,-46.6771,15.7062,-7172.16,12490.1,-2431.38,11.8205,0.0467296,190.677,1189.21,11020.2,-4153.1,5.15278,59.0458,70.6761,1150.81,8132.37,-158.295,-2.41335,35.9783,79.0734,1930.35,-10420.1,-1643.27,-7.3399,-76.3901,70.0046,8616.48,10.6176,-299.232,66.79,-11.4283,8.31497
4.1055,10284.2,-38.4075,8930.62,11.6013,157.87,-2.0433,3851.41,610.503,9981.11,24.9279,-46.9966,15.9859,-7198.43,12451.7,-2438.03,11.8996,-1.15388,190.366,1146.75,11077.4,-4095.23,4.79019,59.6057,70.7481,1197.71,8123.56,-136.411,-2.24275,36.3428,78.7183,1928.79,-10429.7,-1636.35,-7.29219,-76.8364,69.9285,8653.12,5.71793,-328.343,66.725,-11.4195,8.26994
4.106,10293.3,-1.50433,8906.17,11.0935,157.718,-3.71755,3843.19,659.675,9967.47,24.7877,-47.3161,16.2655,-7224.7,12413.2,-2444.68,11.9787,-2.35449,190.055,1104.29,11134.6,-4037.37,4.4276,60.1655,70.82,1244.6,8114.74,-114.527,-2.07215,36.7074,78.3632,1927.22,-10439.4,-1629.43,-7.24448,-77.2826,69.8524,8689.76,0.818209,-357.453,66.66,-11.4106,8.22491
4.1065,10302.4,35.3988,8881.71,10.5857,157.566,-5.39181,3834.96,708.846,9953.82,24.6475,-47.6356,16.5451,-7250.98,12374.7,-2451.33,12.0578,-3.5551,189.744,1061.82,11191.8,-3979.51,4.06501,60.7253,70.892,1291.5,8105.92,-92.6436,-1.90155,37.0719,78.0081,1925.66,-10449.1,-1622.52,-7.19677,-77.7289,69.7763,8726.4,-4.08151,-386.564,66.5949,-11.4017,8.17988
4.107,10324.1,74.365,8852.7,9.78543,157.346,-7.02383,3827.77,668.946,9955.2,24.6519,-48.071,16.8099,-7289.06,12342.6,-2450.51,12.1976,-4.74887,189.353,1020.13,11223.5,-3906.56,3.71596,61.0717,71.0104,1329.87,8096.52,-61.1451,-1.68753,37.4069,77.5412,1903.43,-10449.4,-1632.5,-7.18082,-78.1186,69.6616,8762.49,-8.10866,-406.482,66.5604,-11.4395,8.14178
4.1075,10352.2,114.363,8821.42,8.83886,157.093,-8.63474,3821.08,584.511,9964.1,24.7285,-48.5644,17.0673,-7333.05,12313.8,-2445.95,12.3679,-5.93921,188.922,978.829,11242.5,-3826.06,3.37366,61.3114,71.1521,1363.97,8086.82,-24.8393,-1.45181,37.7271,77.0185,1870.86,-10445.2,-1650.94,-7.18076,-78.4799,69.5275,8798.32,-11.6995,-421.803,66.541,-11.5007,8.10714
4.108,10380.3,154.36,8790.14,7.89229,156.839,-10.2456,3814.4,500.075,9972.99,24.8051,-49.0577,17.3246,-7377.04,12284.9,-2441.38,12.5381,-7.12956,188.492,937.526,11261.5,-3745.57,3.03137,61.551,71.2937,1398.07,8077.13,11.4665,-1.21609,38.0474,76.4959,1838.3,-10440.9,-1669.37,-7.1807,-78.8412,69.3935,8834.14,-15.2904,-437.125,66.5217,-11.5619,8.0725
4.1085,10408.3,194.358,8758.86,6.94573,156.585,-11.8566,3807.72,415.64,9981.88,24.8818,-49.5511,17.582,-7421.03,12256.1,-2436.82,12.7084,-8.3199,188.061,896.222,11280.4,-3665.07,2.68908,61.7907,71.4354,1432.18,8067.44,47.7723,-0.980366,38.3676,75.9732,1805.73,-10436.6,-1687.81,-7.18064,-79.2025,69.2595,8869.96,-18.8813,-452.447,66.5024,-11.6231,8.03786
4.109,10436.4,234.356,8727.57,5.99916,156.332,-13.4675,3801.04,331.205,9990.77,24.9584,-50.0444,17.8394,-7465.02,12227.2,-2432.26,12.8787,-9.51025,187.63,854.919,11299.4,-3584.58,2.34679,62.0303,71.577,1466.28,8057.74,84.0781,-0.744644,38.6879,75.4505,1773.16,-10432.3,-1706.24,-7.18057,-79.5638,69.1254,8905.78,-22.4721,-467.768,66.483,-11.6843,8.00322
4.1095,10464.5,274.354,8696.29,5.05259,156.078,-15.0784,3794.35,246.769,9999.66,25.035,-50.5378,18.0968,-7509.0,12198.3,-2427.7,13.0489,-10.7006,187.199,813.615,11318.4,-3504.08,2.0045,62.2699,71.7187,1500.38,8048.05,120.384,-0.508922,39.0081,74.9278,1740.6,-10428.0,-1724.68,-7.18051,-79.9251,68.9914,8941.61,-26.063,-483.09,66.4637,-11.7455,7.96858
4.11,10492.6,314.351,8665.01,4.10602,155.825,-16.6893,3787.67,162.334,10008.6,25.1117,-51.0311,18.3541,-7552.99,12169.5,-2423.14,13.2192,-11.8909,186.768,772.312,11337.3,-3423.58,1.66221,62.5096,71.8603,1534.49,8038.35,156.69,-0.2732,39.3284,74.4051,1708.03,-10423.7,-1743.11,-7.18045,-80.2865,68.8574,8977.43,-29.6539,-498.412,66.4443,-11.8067,7.93394
4.1105,10520.6,354.349,8633.73,3.15946,155.571,-18.3002,3780.99,77.8986,10017.4,25.1883,-51.5245,18.6115,-7596.98,12140.6,-2418.57,13.3894,-13.0813,186.337,731.009,11356.3,-3343.09,1.31992,62.7492,72.002,1568.59,8028.66,192.996,-0.0374781,39.6486,73.8824,1675.47,-10419.5,-1761.55,-7.18039,-80.6478,68.7233,9013.25,-33.2448,-513.733,66.425,-11.8679,7.8993
4.111,10548.7,394.347,8602.45,2.21289,155.317,-19.9111,3774.31,-6.53681,10026.3,25.265,-52.0179,18.8689,-7640.97,12111.8,-2414.01,13.5597,-14.2716,185.906,689.705,11375.3,-3262.59,0.977626,62.9889,72.1436,1602.69,8018.97,229.301,0.198244,39.9689,73.3597,1642.9,-10415.2,-1779.98,-7.18032,-81.0091,68.5893,9049.08,-36.8356,-529.055,66.4057,-11.9292,7.86466
4.1115,10569.0,407.844,8591.21,1.05088,155.167,-21.5414,3762.71,-84.4618,10035.2,25.3878,-52.517,18.9646,-7681.13,12086.0,-2409.92,13.6722,-15.4295,185.462,667.615,11376.4,-3182.43,0.744617,63.1396,72.363,1621.59,8018.06,276.093,0.424138,40.2348,72.8264,1611.67,-10403.8,-1811.41,-7.20759,-81.3942,68.4499,9090.14,-52.5502,-548.835,66.4354,-11.9812,7.80909
4.112,10587.0,413.77,8585.69,-0.172678,155.047,-23.1773,3749.72,-160.527,10044.0,25.5239,-53.0179,19.014,-7720.2,12061.2,-2405.95,13.7683,-16.578,185.015,651.014,11372.5,-3102.35,0.542832,63.2648,72.6047,1636.15,8019.66,325.881,0.647223,40.4853,72.2899,1580.81,-10390.3,-1846.55,-7.24267,-81.786,68.3089,9132.7,-71.7287,-569.889,66.4792,-12.0307,7.74755
4.1125,10605.0,419.695,8580.17,-1.39624,154.927,-24.8131,3736.73,-236.592,10052.9,25.6599,-53.5187,19.0635,-7759.27,12036.3,-2401.99,13.8644,-17.7265,184.567,634.413,11368.5,-3022.28,0.341046,63.3901,72.8463,1650.7,8021.25,375.67,0.870309,40.7358,71.7535,1549.96,-10376.9,-1881.69,-7.27775,-82.1779,68.1679,9175.26,-90.9072,-590.944,66.5229,-12.0801,7.686
4.113,10623.0,425.621,8574.65,-2.6198,154.807,-26.449,3723.73,-312.656,10061.7,25.796,-54.0196,19.113,-7798.34,12011.4,-2398.03,13.9604,-18.8751,184.12,617.812,11364.6,-2942.2,0.139261,63.5154,73.0879,1665.25,8022.85,425.458,1.09339,40.9862,71.217,1519.1,-10363.4,-1916.83,-7.31283,-82.5698,68.0269,9217.83,-110.086,-611.998,66.5667,-12.1296,7.62446
4.1135,10641.1,431.547,8569.14,-3.84336,154.687,-28.0848,3710.74,-388.721,10070.5,25.932,-54.5204,19.1625,-7837.41,11986.6,-2394.07,14.0565,-20.0236,183.673,601.211,11360.7,-2862.13,-0.0625243,63.6406,73.3295,1679.81,8024.45,475.246,1.31648,41.2367,70.6806,1488.25,-10350.0,-1951.97,-7.34791,-82.9616,67.886,9260.39,-129.264,-633.052,66.6104,-12.179,7.56291
4.114,10659.1,437.473,8563.62,-5.06692,154.567,-29.7207,3697.74,-464.786,10079.4,26.0681,-55.0213,19.212,-7876.47,11961.7,-2390.11,14.1525,-21.1721,183.225,584.611,11356.7,-2782.05,-0.26431,63.7659,73.5711,1694.36,8026.05,525.034,1.53957,41.4872,70.1441,1457.39,-10336.5,-1987.11,-7.38298,-83.3535,67.745,9302.95,-148.443,-654.107,66.6542,-12.2285,7.50137
4.1145,10677.1,443.399,8558.1,-6.29048,154.447,-31.3566,3684.75,-540.851,10088.2,26.2042,-55.5221,19.2615,-7915.54,11936.8,-2386.14,14.2486,-22.3207,182.778,568.01,11352.8,-2701.98,-0.466095,63.8912,73.8127,1708.91,8027.65,574.822,1.76265,41.7377,69.6077,1426.54,-10323.1,-2022.24,-7.41806,-83.7454,67.604,9345.51,-167.621,-675.161,66.6979,-12.278,7.43982
4.115,10695.1,449.324,8552.58,-7.51404,154.326,-32.9924,3671.75,-616.916,10097.1,26.3402,-56.023,19.311,-7954.61,11912.0,-2382.18,14.3447,-23.4692,182.33,551.409,11348.8,-2621.91,-0.667881,64.0165,74.0543,1723.47,8029.25,624.61,1.98574,41.9881,69.0712,1395.68,-10309.6,-2057.38,-7.45314,-84.1373,67.4631,9388.07,-186.8,-696.215,66.7417,-12.3274,7.37827
4.1155,10713.2,455.25,8547.07,-8.7376,154.206,-34.6283,3658.76,-692.981,10105.9,26.4763,-56.5238,19.3605,-7993.68,11887.1,-2378.22,14.4407,-24.6177,181.883,534.808,11344.9,-2541.83,-0.869666,64.1417,74.2959,1738.02,8030.84,674.398,2.20882,42.2386,68.5348,1364.83,-10296.2,-2092.52,-7.48822,-84.5291,67.3221,9430.63,-205.978,-717.269,66.7854,-12.3769,7.31673
4.116,10787.3,470.97,8574.67,-10.0815,154.141,-36.1121,3668.15,-710.359,10107.6,26.4058,-57.0053,19.2873,-8032.11,11853.1,-2366.37,14.529,-25.7133,181.426,546.388,11349.8,-2492.56,-0.971905,64.2142,74.5177,1751.54,8052.67,733.051,2.3588,42.1895,68.0156,1331.41,-10285.6,-2112.37,-7.47174,-84.977,67.1722,9465.8,-212.117,-734.448,66.8802,-12.3686,7.24315
4.1165,10868.4,487.914,8606.42,-11.4404,154.083,-37.577,3680.34,-720.402,10108.4,26.3094,-57.4843,19.1988,-8070.46,11817.9,-2353.54,14.6163,-26.8023,180.968,561.491,11355.8,-2447.15,-1.0617,64.2801,74.737,1764.93,8077.03,792.812,2.49964,42.103,67.4987,1297.67,-10275.3,-2130.31,-7.44882,-85.4318,67.0211,9500.05,-216.626,-751.142,66.9813,-12.3532,7.16807
4.117,10949.5,504.857,8638.17,-12.7994,154.024,-39.0418,3692.53,-730.445,10109.3,26.2131,-57.9634,19.1103,-8108.81,11782.7,-2340.7,14.7035,-27.8912,180.51,576.594,11361.8,-2401.73,-1.15149,64.346,74.9563,1778.32,8101.39,852.574,2.64048,42.0165,66.9817,1263.93,-10265.1,-2148.25,-7.4259,-85.8866,66.8701,9534.3,-221.135,-767.836,67.0825,-12.3378,7.09299
4.1175,11030.6,521.801,8669.91,-14.1583,153.966,-40.5067,3704.72,-740.488,10110.1,26.1168,-58.4424,19.0218,-8147.16,11747.6,-2327.87,14.7908,-28.9802,180.052,591.696,11367.7,-2356.31,-1.24129,64.4119,75.1756,1791.71,8125.75,912.335,2.78132,41.93,66.4648,1230.18,-10254.8,-2166.19,-7.40298,-86.3415,66.7191,9568.54,-225.644,-784.53,67.1836,-12.3224,7.01791
4.118,11111.7,538.745,8701.66,-15.5172,153.908,-41.9715,3716.91,-750.531,10110.9,26.0204,-58.9214,18.9333,-8185.51,11712.4,-2315.03,14.8781,-30.0691,179.594,606.799,11373.7,-2310.89,-1.33109,64.4779,75.3949,1805.1,8150.11,972.096,2.92216,41.8435,65.9478,1196.44,-10244.6,-2184.13,-7.38006,-86.7963,66.5681,9602.79,-230.153,-801.224,67.2848,-12.3069,6.94283
4.1185,11192.9,555.689,8733.41,-16.8762,153.849,-43.4364,3729.1,-760.574,10111.8,25.9241,-59.4004,18.8447,-8223.86,11677.2,-2302.2,14.9654,-31.1581,179.136,621.902,11379.7,-2265.47,-1.42088,64.5438,75.6141,1818.48,8174.47,1031.86,3.063,41.757,65.4309,1162.7,-10234.3,-2202.07,-7.35714,-87.2512,66.417,9637.04,-234.662,-817.918,67.3859,-12.2915,6.86774
4.119,11274.0,572.633,8765.16,-18.2351,153.791,-44.9012,3741.29,-770.616,10112.6,25.8278,-59.8795,18.7562,-8262.21,11642.0,-2289.36,15.0527,-32.2471,178.678,637.005,11385.7,-2220.05,-1.51068,64.6097,75.8334,1831.87,8198.82,1091.62,3.20384,41.6705,64.9139,1128.96,-10224.0,-2220.01,-7.33422,-87.706,66.266,9671.29,-239.17,-834.612,67.4871,-12.2761,6.79266
4.1195,11355.1,589.577,8796.9,-19.594,153.732,-46.3661,3753.47,-780.659,10113.4,25.7314,-60.3585,18.6677,-8300.56,11606.9,-2276.53,15.1399,-33.336,178.221,652.107,11391.7,-2174.64,-1.60047,64.6756,76.0527,1845.26,8223.18,1151.38,3.34468,41.584,64.397,1095.22,-10213.8,-2237.95,-7.3113,-88.1608,66.115,9705.54,-243.679,-851.306,67.5882,-12.2607,6.71758
4.12,11436.2,606.52,8828.65,-20.953,153.674,-47.8309,3765.66,-790.702,10114.2,25.6351,-60.8375,18.5792,-8338.91,11571.7,-2263.7,15.2272,-34.425,177.763,667.21,11397.7,-2129.22,-1.69027,64.7415,76.272,1858.65,8247.54,1211.14,3.48552,41.4974,63.88,1061.48,-10203.5,-2255.89,-7.28838,-88.6157,65.964,9739.78,-248.188,-868.0,67.6894,-12.2452,6.6425
4.1205,11569.2,631.975,8807.76,-22.3551,153.965,-48.972,3789.14,-796.68,10107.4,25.5631,-61.3403,18.4545,-8404.63,11541.3,-2244.29,15.5235,-35.7134,177.334,661.296,11424.5,-2062.91,-1.8368,64.7,76.453,1866.83,8264.38,1278.15,3.41763,41.0325,63.4092,1044.85,-10201.3,-2263.09,-7.0631,-89.1509,65.9109,9777.35,-245.105,-884.15,67.731,-12.2753,6.51996
4.121,11702.2,657.429,8786.86,-23.7572,154.256,-50.1131,3812.61,-802.659,10100.6,25.491,-61.8431,18.3299,-8470.35,11510.8,-2224.89,15.8198,-37.0019,176.906,655.382,11451.4,-1996.61,-1.98334,64.6585,76.634,1875.0,8281.22,1345.16,3.34973,40.5675,62.9384,1028.23,-10199.0,-2270.28,-6.83783,-89.6862,65.8578,9814.91,-242.022,-900.301,67.7727,-12.3053,6.39742
4.1215,11835.2,682.883,8765.97,-25.1593,154.546,-51.2542,3836.08,-808.637,10093.7,25.4189,-62.3458,18.2053,-8536.08,11480.4,-2205.48,16.1161,-38.2904,176.477,649.468,11478.3,-1930.31,-2.12988,64.617,76.8149,1883.17,8298.06,1412.16,3.28184,40.1025,62.4676,1011.61,-10196.8,-2277.48,-6.61256,-90.2215,65.8048,9852.47,-238.939,-916.451,67.8143,-12.3353,6.27488
4.122,11968.2,708.337,8745.08,-26.5614,154.837,-52.3953,3859.56,-814.616,10086.9,25.3469,-62.8486,18.0806,-8601.8,11450.0,-2186.08,16.4125,-39.5788,176.049,643.554,11505.2,-1864.0,-2.27642,64.5755,76.9959,1891.35,8314.9,1479.17,3.21394,39.6375,61.9967,994.981,-10194.5,-2284.68,-6.38729,-90.7568,65.7517,9890.03,-235.856,-932.602,67.856,-12.3654,6.15234
4.1225,12101.2,733.791,8724.18,-27.9634,155.128,-53.5364,3883.03,-820.594,10080.0,25.2748,-63.3513,17.956,-8667.53,11419.5,-2166.67,16.7088,-40.8673,175.62,637.64,11532.0,-1797.7,-2.42296,64.534,77.1769,1899.52,8331.74,1546.18,3.14605,39.1726,61.5259,978.358,-10192.3,-2291.88,-6.16202,-91.2921,65.6987,9927.59,-232.773,-948.752,67.8977,-12.3954,6.0298
4.123,12234.2,759.246,8703.29,-29.3655,155.419,-54.6775,3906.5,-826.572,10073.2,25.2028,-63.8541,17.8314,-8733.25,11389.1,-2147.27,17.0051,-42.1557,175.192,631.725,11558.9,-1731.4,-2.5695,64.4924,77.3579,1907.69,8348.58,1613.18,3.07815,38.7076,61.0551,961.734,-10190.0,-2299.07,-5.93675,-91.8273,65.6456,9965.15,-229.69,-964.902,67.9393,-12.4254,5.90726
4.1235,12367.2,784.7,8682.39,-30.7676,155.709,-55.8186,3929.98,-832.551,10066.3,25.1307,-64.3568,17.7067,-8798.98,11358.7,-2127.86,17.3014,-43.4442,174.763,625.811,11585.8,-1665.09,-2.71604,64.4509,77.5388,1915.87,8365.42,1680.19,3.01026,38.2426,60.5843,945.111,-10187.8,-2306.27,-5.71148,-92.3626,65.5926,10002.7,-226.607,-981.053,67.981,-12.4554,5.78472
4.124,12500.2,810.154,8661.5,-32.1697,156.0,-56.9597,3953.45,-838.529,10059.5,25.0586,-64.8596,17.5821,-8864.7,11328.3,-2108.46,17.5977,-44.7327,174.335,619.897,11612.7,-1598.79,-2.86258,64.4094,77.7198,1924.04,8382.26,1747.2,2.94236,37.7776,60.1135,928.487,-10185.5,-2313.47,-5.48621,-92.8979,65.5395,10040.3,-223.524,-997.203,68.0227,-12.4855,5.66218
4.1245,12628.6,832.549,8633.63,-33.5592,156.277,-58.0733,3976.06,-844.77,10052.8,24.9898,-65.3614,17.4579,-8928.71,11298.1,-2089.46,17.9061,-46.0402,173.9,612.233,11637.2,-1538.03,-2.99182,64.3583,77.9111,1932.57,8399.98,1812.85,2.86911,37.2774,59.6602,916.62,-10184.3,-2320.38,-5.24512,-93.4127,65.4905,10079.1,-221.074,-1013.02,68.0602,-12.5044,5.54901
4.125,12720.0,830.468,8549.91,-34.8478,156.437,-58.966,3991.72,-853.113,10047.1,24.9468,-65.8553,17.3369,-8979.02,11270.0,-2073.68,18.3109,-47.5005,173.412,590.568,11643.0,-1521.57,-2.98272,64.2296,78.1843,1943.98,8424.7,1867.64,2.75307,36.4949,59.347,942.799,-10191.0,-2324.99,-4.87749,-93.7632,65.4737,10128.3,-223.691,-1026.14,68.0645,-12.4349,5.51082
4.1255,12811.5,828.387,8466.2,-36.1364,156.598,-59.8588,4007.37,-861.457,10041.5,24.9038,-66.3492,17.216,-9029.34,11241.9,-2057.9,18.7157,-48.9607,172.924,568.903,11648.9,-1505.11,-2.97362,64.1009,78.4575,1955.38,8449.43,1922.44,2.63703,35.7124,59.0339,968.978,-10197.7,-2329.59,-4.50986,-94.1138,65.4569,10177.6,-226.309,-1039.25,68.0689,-12.3654,5.47262
4.126,12902.9,826.307,8382.49,-37.425,156.759,-60.7516,4023.03,-869.8,10035.9,24.8608,-66.8431,17.095,-9079.65,11213.8,-2042.11,19.1205,-50.4209,172.436,547.239,11654.7,-1488.66,-2.96453,63.9722,78.7307,1966.79,8474.15,1977.24,2.52099,34.9299,58.7208,995.157,-10204.5,-2334.2,-4.14223,-94.4644,65.4401,10226.8,-228.926,-1052.37,68.0732,-12.2958,5.43442
4.1265,12994.4,824.226,8298.77,-38.7136,156.92,-61.6443,4038.69,-878.143,10030.2,24.8177,-67.3371,16.9741,-9129.96,11185.7,-2026.33,19.5253,-51.8812,171.949,525.574,11660.5,-1472.2,-2.95543,63.8435,79.0039,1978.19,8498.88,2032.03,2.40495,34.1475,58.4077,1021.34,-10211.2,-2338.8,-3.7746,-94.815,65.4233,10276.0,-231.543,-1065.49,68.0776,-12.2263,5.39623
4.127,13085.8,822.145,8215.06,-40.0022,157.081,-62.5371,4054.35,-886.487,10024.6,24.7747,-67.831,16.8532,-9180.28,11157.6,-2010.55,19.9301,-53.3414,171.461,503.909,11666.4,-1455.74,-2.94633,63.7148,79.2772,1989.6,8523.6,2086.83,2.28891,33.365,58.0946,1047.51,-10217.9,-2343.41,-3.40697,-95.1656,65.4065,10325.2,-234.16,-1078.61,68.0819,-12.1567,5.35803
4.1275,13177.3,820.065,8131.35,-41.2908,157.242,-63.4299,4070.01,-894.83,10018.9,24.7317,-68.3249,16.7322,-9230.59,11129.5,-1994.77,20.3349,-54.8017,170.973,482.244,11672.2,-1439.29,-2.93723,63.5861,79.5504,2001.0,8548.33,2141.62,2.17287,32.5825,57.7815,1073.69,-10224.7,-2348.01,-3.03934,-95.5161,65.3897,10374.4,-236.778,-1091.73,68.0863,-12.0872,5.31983
4.128,13268.7,817.984,8047.63,-42.5794,157.403,-64.3226,4085.66,-903.173,10013.3,24.6887,-68.8188,16.6113,-9280.9,11101.4,-1978.99,20.7398,-56.2619,170.485,460.579,11678.0,-1422.83,-2.92813,63.4574,79.8236,2012.4,8573.06,2196.42,2.05683,31.8,57.4683,1099.87,-10231.4,-2352.62,-2.67171,-95.8667,65.3729,10423.6,-239.395,-1104.84,68.0906,-12.0176,5.28164
4.1285,13360.2,815.903,7963.92,-43.868,157.564,-65.2154,4101.32,-911.517,10007.7,24.6456,-69.3128,16.4903,-9331.22,11073.3,-1963.21,21.1446,-57.7222,169.997,438.915,11683.9,-1406.37,-2.91903,63.3287,80.0968,2023.81,8597.78,2251.22,1.94079,31.0176,57.1552,1126.05,-10238.1,-2357.23,-2.30408,-96.2173,65.3561,10472.8,-242.012,-1117.96,68.0949,-11.9481,5.24344
4.129,13423.6,807.71,7881.29,-45.1292,157.611,-66.1297,4110.09,-916.006,10004.0,24.5985,-69.8024,16.3955,-9375.54,11049.0,-1947.12,21.5609,-59.165,169.498,418.075,11683.1,-1393.38,-2.88894,63.1865,80.3755,2031.85,8625.62,2303.06,1.8637,30.168,56.8581,1153.25,-10245.1,-2358.07,-1.93909,-96.5241,65.3417,10522.7,-246.134,-1132.09,68.0786,-11.8687,5.20911
4.1295,13389.2,778.12,7802.42,-46.2944,157.258,-67.1192,4094.72,-907.009,10007.4,24.5368,-70.2767,16.3921,-9398.88,11037.9,-1929.92,22.0176,-60.5466,168.961,400.124,11659.1,-1392.48,-2.7854,62.997,80.6729,2028.14,8664.33,2344.58,1.92294,29.0834,56.6168,1183.99,-10252.8,-2345.77,-1.58331,-96.6778,65.3359,10574.8,-255.524,-1149.72,67.9897,-11.7548,5.18829
4.13,13354.8,748.531,7723.55,-47.4596,156.906,-68.1087,4079.36,-898.012,10010.8,24.4752,-70.7511,16.3887,-9422.22,11026.7,-1912.71,22.4743,-61.9283,168.423,382.174,11635.2,-1391.58,-2.68185,62.8076,80.9704,2024.42,8703.04,2386.09,1.98218,27.9988,56.3755,1214.73,-10260.5,-2333.47,-1.22753,-96.8315,65.3301,10626.9,-264.913,-1167.36,67.9009,-11.6409,5.16748
4.1305,13320.4,718.941,7644.69,-48.6248,156.554,-69.0982,4064.0,-889.015,10014.2,24.4136,-71.2255,16.3853,-9445.56,11015.6,-1895.51,22.931,-63.31,167.885,364.223,11611.2,-1390.68,-2.5783,62.6181,81.2679,2020.71,8741.76,2427.61,2.04142,26.9143,56.1343,1245.47,-10268.2,-2321.17,-0.871748,-96.9852,65.3243,10679.0,-274.302,-1184.99,67.812,-11.527,5.14667
4.131,13286.0,689.352,7565.82,-49.79,156.201,-70.0877,4048.63,-880.018,10017.6,24.3519,-71.6999,16.3819,-9468.91,11004.5,-1878.31,23.3877,-64.6916,167.348,346.272,11587.2,-1389.78,-2.47476,62.4286,81.5654,2016.99,8780.47,2469.12,2.10066,25.8297,55.893,1276.22,-10275.9,-2308.87,-0.515969,-97.1389,65.3185,10731.1,-283.692,-1202.63,67.7231,-11.4131,5.12585
4.1315,13251.5,659.762,7486.96,-50.9552,155.849,-71.0773,4033.27,-871.021,10021.0,24.2903,-72.1743,16.3785,-9492.25,10993.4,-1861.11,23.8444,-66.0733,166.81,328.322,11563.3,-1388.89,-2.37121,62.2391,81.8629,2013.28,8819.18,2510.64,2.1599,24.7452,55.6517,1306.96,-10283.6,-2296.57,-0.160189,-97.2926,65.3127,10783.2,-293.081,-1220.26,67.6343,-11.2993,5.10504
4.132,13217.1,630.173,7408.09,-52.1204,155.497,-72.0668,4017.91,-862.024,10024.4,24.2286,-72.6487,16.3752,-9515.59,10982.2,-1843.91,24.3011,-67.4549,166.273,310.371,11539.3,-1387.99,-2.26767,62.0496,82.1604,2009.56,8857.9,2552.15,2.21914,23.6606,55.4105,1337.7,-10291.2,-2284.27,0.19559,-97.4464,65.3069,10835.3,-302.47,-1237.9,67.5454,-11.1854,5.08423
4.1325,13182.7,600.583,7329.23,-53.2856,155.145,-73.0563,4002.54,-853.027,10027.8,24.167,-73.1231,16.3718,-9538.93,10971.1,-1826.7,24.7578,-68.8366,165.735,292.42,11515.4,-1387.09,-2.16412,61.8602,82.4579,2005.85,8896.61,2593.67,2.27838,22.576,55.1692,1368.44,-10298.9,-2271.97,0.551369,-97.6001,65.3011,10887.4,-311.86,-1255.53,67.4566,-11.0715,5.06342
4.133,13148.3,570.994,7250.36,-54.4508,154.792,-74.0458,3987.18,-844.03,10031.2,24.1054,-73.5975,16.3684,-9562.28,10960.0,-1809.5,25.2144,-70.2183,165.197,274.469,11491.4,-1386.19,-2.06057,61.6707,82.7554,2002.13,8935.32,2635.18,2.33762,21.4915,54.9279,1399.19,-10306.6,-2259.67,0.907149,-97.7538,65.2953,10939.5,-321.249,-1273.17,67.3677,-10.9576,5.0426
4.1335,13094.8,533.897,7178.44,-55.5619,154.284,-75.0421,3971.02,-832.289,10039.2,24.0818,-74.1006,16.403,-9575.64,10951.5,-1801.55,25.6752,-71.5015,164.641,258.431,11478.0,-1393.89,-2.01043,61.4694,83.0499,2000.22,8964.35,2672.44,2.44363,20.3469,54.702,1437.68,-10311.9,-2243.16,1.2425,-97.8593,65.3084,10987.9,-328.133,-1281.37,67.2918,-10.8504,5.03378
4.134,13003.0,481.784,7120.42,-56.5648,153.463,-76.0519,3953.25,-815.06,10056.5,24.1342,-74.6612,16.5135,-9569.04,10948.5,-1812.1,26.1441,-72.588,164.045,246.216,11485.8,-1418.77,-2.06708,61.2446,83.3386,2001.91,8974.02,2701.2,2.64318,19.0822,54.5066,1491.69,-10312.2,-2218.24,1.53699,-97.8687,65.3593,11028.9,-330.006,-1270.7,67.2417,-10.7564,5.04895
4.1345,12911.3,429.672,7062.4,-57.5676,152.642,-77.0617,3935.49,-797.832,10073.9,24.1867,-75.2217,16.624,-9562.44,10945.4,-1822.65,26.613,-73.6745,163.45,234.002,11493.6,-1443.66,-2.12374,61.0197,83.6273,2003.59,8983.68,2729.96,2.84273,17.8175,54.3113,1545.69,-10312.4,-2193.32,1.83148,-97.878,65.4101,11069.9,-331.879,-1260.03,67.1916,-10.6625,5.06412
4.135,12819.6,377.559,7004.38,-58.5705,151.821,-78.0714,3917.73,-780.604,10091.2,24.2391,-75.7823,16.7346,-9555.84,10942.4,-1833.2,27.0819,-74.761,162.855,221.787,11501.4,-1468.55,-2.18039,60.7949,83.9159,2005.28,8993.34,2758.72,3.04229,16.5529,54.116,1599.7,-10312.7,-2168.4,2.12598,-97.8874,65.461,11110.8,-333.753,-1249.37,67.1415,-10.5685,5.07929
4.1355,12727.8,325.447,6946.36,-59.5733,151.0,-79.0812,3899.97,-763.375,10108.5,24.2916,-76.3428,16.8451,-9549.25,10939.3,-1843.75,27.5508,-75.8474,162.26,209.573,11509.2,-1493.43,-2.23704,60.5701,84.2046,2006.97,9003.0,2787.47,3.24184,15.2882,53.9206,1653.7,-10313.0,-2143.49,2.42047,-97.8967,65.5119,11151.8,-335.626,-1238.7,67.0914,-10.4746,5.09446
4.136,12636.1,273.334,6888.34,-60.5762,150.18,-80.091,3882.21,-746.147,10125.8,24.344,-76.9034,16.9557,-9542.65,10936.3,-1854.3,28.0198,-76.9339,161.665,197.358,11516.9,-1518.32,-2.2937,60.3452,84.4932,2008.66,9012.66,2816.23,3.44139,14.0236,53.7253,1707.71,-10313.3,-2118.57,2.71496,-97.906,65.5628,11192.8,-337.499,-1228.04,67.0413,-10.3806,5.10962
4.1365,12544.3,221.222,6830.31,-61.579,149.359,-81.1008,3864.44,-728.918,10143.1,24.3965,-77.4639,17.0662,-9536.05,10933.2,-1864.85,28.4887,-78.0204,161.069,185.143,11524.7,-1543.21,-2.35035,60.1204,84.7819,2010.34,9022.33,2844.99,3.64094,12.7589,53.5299,1761.71,-10313.6,-2093.65,3.00945,-97.9154,65.6137,11233.7,-339.372,-1217.37,66.9912,-10.2867,5.12479
4.137,12452.6,169.109,6772.29,-62.5819,148.538,-82.1106,3846.68,-711.69,10160.4,24.4489,-78.0245,17.1768,-9529.45,10930.2,-1875.4,28.9576,-79.1069,160.474,172.929,11532.5,-1568.09,-2.40701,59.8956,85.0705,2012.03,9031.99,2873.75,3.84049,11.4942,53.3346,1815.72,-10313.9,-2068.73,3.30395,-97.9247,65.6646,11274.7,-341.246,-1206.7,66.9411,-10.1927,5.13996
4.1375,12360.9,116.997,6714.27,-63.5847,147.717,-83.1204,3828.92,-694.461,10177.7,24.5014,-78.585,17.2873,-9522.85,10927.1,-1885.95,29.4265,-80.1933,159.879,160.714,11540.3,-1592.98,-2.46366,59.6707,85.3592,2013.72,9041.65,2902.51,4.04004,10.2296,53.1392,1869.72,-10314.2,-2043.81,3.59844,-97.934,65.7155,11315.7,-343.119,-1196.04,66.891,-10.0987,5.15513
4.138,12316.1,79.1395,6648.65,-64.4675,146.833,-84.0342,3814.81,-692.283,10197.1,24.5761,-79.2134,17.4025,-9518.26,10920.8,-1891.93,29.8211,-81.1601,159.248,156.828,11554.9,-1619.9,-2.55917,59.4679,85.6893,2015.08,9048.81,2917.25,4.36698,8.99357,52.9305,1924.82,-10312.7,-2020.92,3.81199,-97.8396,65.8045,11358.0,-345.46,-1187.36,66.8555,-9.95251,5.14583
4.1385,12330.1,59.1018,6573.53,-65.2002,145.871,-84.8281,3805.27,-708.916,10219.1,24.6788,-79.9267,17.5236,-9516.19,10910.3,-1892.19,30.1228,-81.9771,158.572,163.35,11577.9,-1649.37,-2.70326,59.2926,86.0713,2016.05,9052.83,2914.47,4.85316,7.79345,52.7051,1981.28,-10308.9,-2000.57,3.92438,-97.6154,65.9411,11401.9,-348.386,-1181.16,66.8381,-9.74093,5.10595
4.139,12344.0,39.0641,6498.41,-65.9329,144.909,-85.6219,3795.72,-725.549,10241.2,24.7815,-80.64,17.6446,-9514.12,10899.8,-1892.46,30.4246,-82.7942,157.897,169.873,11601.0,-1678.84,-2.84735,59.1174,86.4532,2017.01,9056.86,2911.69,5.33934,6.59332,52.4796,2037.74,-10305.1,-1980.22,4.03676,-97.3912,66.0778,11445.9,-351.312,-1174.97,66.8208,-9.52935,5.06606
4.1395,12358.0,19.0264,6423.3,-66.6656,143.947,-86.4158,3786.18,-742.183,10263.2,24.8841,-81.3532,17.7657,-9512.05,10889.3,-1892.73,30.7263,-83.6112,157.221,176.396,11624.0,-1708.3,-2.99144,58.9421,86.8352,2017.98,9060.89,2908.91,5.82552,5.3932,52.2542,2094.2,-10301.3,-1959.86,4.14914,-97.167,66.2144,11489.9,-354.238,-1168.78,66.8034,-9.31776,5.02618
4.14,12371.9,-1.01132,6348.18,-67.3983,142.985,-87.2096,3776.63,-758.816,10285.2,24.9868,-82.0665,17.8867,-9509.97,10878.7,-1893.0,31.0281,-84.4283,156.546,182.919,11647.1,-1737.77,-3.13553,58.7668,87.2171,2018.94,9064.92,2906.13,6.3117,4.19308,52.0287,2150.66,-10297.5,-1939.51,4.26153,-96.9428,66.3511,11533.8,-357.164,-1162.58,66.7861,-9.10618,4.98629
4.1405,12385.9,-21.049,6273.06,-68.131,142.023,-88.0035,3767.09,-775.449,10307.2,25.0894,-82.7798,18.0078,-9507.9,10868.2,-1893.26,31.3298,-85.2454,155.87,189.442,11670.2,-1767.24,-3.27962,58.5915,87.599,2019.91,9068.94,2903.35,6.79788,2.99295,51.8033,2207.12,-10293.7,-1919.16,4.37391,-96.7186,66.4877,11577.8,-360.09,-1156.39,66.7687,-8.8946,4.94641
4.141,12399.9,-41.0868,6197.94,-68.8637,141.061,-88.7973,3757.55,-792.083,10329.3,25.1921,-83.493,18.1289,-9505.83,10857.7,-1893.53,31.6316,-86.0624,155.194,195.965,11693.2,-1796.7,-3.42371,58.4162,87.981,2020.87,9072.97,2900.57,7.28406,1.79283,51.5778,2263.58,-10289.9,-1898.8,4.48629,-96.4944,66.6244,11621.8,-363.016,-1150.19,66.7514,-8.68301,4.90652
4.1415,12413.8,-61.1245,6122.82,-69.5964,140.099,-89.5912,3748.0,-808.716,10351.3,25.2947,-84.2063,18.2499,-9503.76,10847.2,-1893.8,31.9333,-86.8795,154.519,202.488,11716.3,-1826.17,-3.5678,58.2409,88.3629,2021.84,9077.0,2897.79,7.77024,0.592702,51.3524,2320.04,-10286.1,-1878.45,4.59868,-96.2702,66.761,11665.7,-365.942,-1144.0,66.7341,-8.47143,4.86664
4.142,12427.8,-81.1622,6047.7,-70.3291,139.137,-90.385,3738.46,-825.349,10373.3,25.3974,-84.9196,18.371,-9501.68,10836.7,-1894.07,32.235,-87.6965,153.843,209.011,11739.3,-1855.64,-3.71189,58.0656,88.7449,2022.8,9081.02,2895.01,8.25642,-0.607423,51.127,2376.5,-10282.3,-1858.1,4.71106,-96.046,66.8976,11709.7,-368.868,-1137.81,66.7167,-8.25985,4.82676
4.1425,12488.4,-83.3236,5977.45,-70.8685,138.198,-91.1265,3737.88,-835.377,10389.7,25.5665,-85.7033,18.4457,-9517.3,10827.8,-1887.13,32.4627,-88.4674,153.062,220.009,11758.5,-1867.91,-3.8107,57.9268,89.1244,2019.95,9094.68,2880.96,8.75574,-1.65619,50.9177,2420.13,-10284.8,-1826.7,4.68981,-95.7143,67.0034,11739.6,-375.196,-1134.74,66.6911,-8.10687,4.80252
4.143,12586.3,-71.1839,5911.09,-71.2534,137.279,-91.826,3744.46,-840.12,10401.7,25.7887,-86.5435,18.4835,-9547.08,10820.2,-1874.43,32.6312,-89.2014,152.197,234.588,11774.6,-1866.43,-3.87328,57.8172,89.5019,2014.06,9116.04,2857.9,9.26558,-2.58387,50.7215,2453.48,-10292.4,-1786.48,4.56166,-95.2967,67.0844,11758.2,-384.247,-1134.18,66.6587,-8.00078,4.79082
4.1435,12684.2,-59.0442,5844.72,-71.6383,136.359,-92.5256,3751.05,-844.863,10413.6,26.011,-87.3836,18.5213,-9576.85,10812.6,-1861.72,32.7997,-89.9353,151.332,249.166,11790.7,-1864.94,-3.93586,57.7076,89.8795,2008.16,9137.39,2834.84,9.77542,-3.51155,50.5252,2486.84,-10300.0,-1746.25,4.4335,-94.879,67.1654,11776.8,-393.298,-1133.62,66.6264,-7.89469,4.77911
4.144,12782.1,-46.9045,5778.36,-72.0232,135.439,-93.2251,3757.63,-849.606,10425.6,26.2332,-88.2238,18.559,-9606.62,10804.9,-1849.02,32.9682,-90.6693,150.467,263.745,11806.8,-1863.46,-3.99845,57.598,90.257,2002.26,9158.75,2811.77,10.2853,-4.43923,50.329,2520.2,-10307.6,-1706.02,4.30535,-94.4614,67.2464,11795.4,-402.349,-1133.06,66.5941,-7.7886,4.7674
4.1445,12880.1,-34.7648,5712.0,-72.4081,134.519,-93.9246,3764.22,-854.349,10437.5,26.4555,-89.064,18.5968,-9636.39,10797.3,-1836.32,33.1367,-91.4032,149.602,278.324,11823.0,-1861.98,-4.06103,57.4884,90.6346,1996.36,9180.11,2788.71,10.7951,-5.36691,50.1327,2553.56,-10315.1,-1665.8,4.17719,-94.0437,67.3273,11814.0,-411.399,-1132.5,66.5618,-7.68251,4.75569
4.145,12978.0,-22.6251,5645.64,-72.793,133.599,-94.6241,3770.81,-859.093,10449.4,26.6778,-89.9041,18.6346,-9666.16,10789.7,-1823.62,33.3051,-92.1372,148.737,292.903,11839.1,-1860.49,-4.12361,57.3788,91.0121,1990.46,9201.47,2765.65,11.3049,-6.29459,49.9365,2586.91,-10322.7,-1625.57,4.04904,-93.626,67.4083,11832.6,-420.45,-1131.93,66.5295,-7.57642,4.74399
4.1455,13075.9,-10.4854,5579.28,-73.1779,132.68,-95.3237,3777.39,-863.836,10461.4,26.9,-90.7443,18.6723,-9695.94,10782.1,-1810.91,33.4736,-92.8711,147.872,307.482,11855.2,-1859.01,-4.18619,57.2692,91.3897,1984.56,9222.82,2742.59,11.8148,-7.22227,49.7402,2620.27,-10330.3,-1585.34,3.92088,-93.2084,67.4893,11851.2,-429.501,-1131.37,66.4972,-7.47033,4.73228
4.146,13173.8,1.65429,5512.91,-73.5628,131.76,-96.0232,3783.98,-868.579,10473.3,27.1223,-91.5844,18.7101,-9725.71,10774.5,-1798.21,33.6421,-93.6051,147.007,322.06,11871.3,-1857.52,-4.24878,57.1596,91.7672,1978.66,9244.18,2719.52,12.3246,-8.14995,49.544,2653.63,-10337.9,-1545.12,3.79272,-92.7907,67.5703,11869.8,-438.552,-1130.81,66.4649,-7.36424,4.72057
4.1465,13271.7,13.794,5446.55,-73.9477,130.84,-96.7227,3790.57,-873.322,10485.3,27.3445,-92.4246,18.7478,-9755.48,10766.9,-1785.51,33.8106,-94.339,146.143,336.639,11887.4,-1856.04,-4.31136,57.05,92.1448,1972.76,9265.54,2696.46,12.8345,-9.07763,49.3477,2686.99,-10345.5,-1504.89,3.66457,-92.3731,67.6513,11888.4,-447.602,-1130.25,66.4326,-7.25815,4.70886
4.147,13381.4,30.1537,5379.68,-74.1708,130.043,-97.3526,3812.87,-865.26,10501.2,27.5494,-93.2622,18.7922,-9807.08,10759.9,-1766.57,33.9527,-95.0068,145.22,356.044,11915.1,-1863.53,-4.37584,57.0145,92.5219,1963.56,9281.75,2662.92,13.1965,-9.82577,49.2554,2719.53,-10364.6,-1470.74,3.55013,-91.8786,67.7154,11915.5,-452.275,-1131.04,66.3904,-7.15438,4.71691
4.1475,13496.9,48.6235,5312.55,-74.3131,129.308,-97.9475,3843.03,-850.796,10519.1,27.7457,-94.0985,18.8398,-9869.59,10753.4,-1744.53,34.0816,-95.6413,144.269,377.861,11948.7,-1875.5,-4.44127,57.016,92.8989,1952.71,9295.39,2624.14,13.4846,-10.4841,49.215,2751.67,-10389.4,-1439.64,3.44256,-91.3456,67.7709,11946.9,-454.758,-1132.5,66.3433,-7.05176,4.73483
4.148,13612.5,67.0932,5245.42,-74.4554,128.573,-98.5425,3873.2,-836.332,10537.0,27.942,-94.9348,18.8874,-9932.1,10746.8,-1722.48,34.2105,-96.2759,143.318,399.679,11982.3,-1887.47,-4.5067,57.0175,93.2759,1941.87,9309.02,2585.36,13.7727,-11.1425,49.1745,2783.81,-10414.2,-1408.54,3.33499,-90.8126,67.8265,11978.2,-457.242,-1133.97,66.2962,-6.94914,4.75276
4.1485,13728.0,85.563,5178.29,-74.5977,127.838,-99.1375,3903.36,-821.867,10554.8,28.1383,-95.7711,18.9351,-9994.61,10740.2,-1700.43,34.3394,-96.9105,142.367,421.496,12015.9,-1899.44,-4.57213,57.019,93.6529,1931.02,9322.66,2546.58,14.0609,-11.8009,49.1341,2815.95,-10439.0,-1377.43,3.22741,-90.2797,67.882,12009.6,-459.725,-1135.43,66.2491,-6.84652,4.77068
4.149,13843.6,104.033,5111.16,-74.74,127.102,-99.7325,3933.53,-807.403,10572.7,28.3345,-96.6075,18.9827,-10057.1,10733.6,-1678.38,34.4683,-97.5451,141.415,443.314,12049.4,-1911.41,-4.63757,57.0205,94.0299,1920.17,9336.3,2507.81,14.349,-12.4593,49.0937,2848.09,-10463.9,-1346.33,3.11984,-89.7467,67.9376,12040.9,-462.208,-1136.89,66.202,-6.7439,4.78861
4.1495,13959.1,122.503,5044.03,-74.8823,126.367,-100.327,3963.69,-792.938,10590.6,28.5308,-97.4438,19.0303,-10119.6,10727.1,-1656.33,34.5972,-98.1797,140.464,465.131,12083.0,-1923.39,-4.703,57.022,94.4068,1909.32,9349.93,2469.03,14.6371,-13.1176,49.0532,2880.23,-10488.7,-1315.23,3.01226,-89.2138,67.9931,12072.2,-464.691,-1138.35,66.1548,-6.64128,4.80653
4.15,14074.6,140.972,4976.9,-75.0246,125.632,-100.922,3993.85,-778.474,10608.5,28.7271,-98.2801,19.0779,-10182.1,10720.5,-1634.28,34.7261,-98.8143,139.513,486.949,12116.6,-1935.36,-4.76843,57.0234,94.7838,1898.47,9363.57,2430.25,14.9252,-13.776,49.0128,2912.37,-10513.5,-1284.12,2.90469,-88.6808,68.0487,12103.6,-467.175,-1139.82,66.1077,-6.53866,4.82445
4.1505,14190.2,159.442,4909.77,-75.1669,124.897,-101.517,4024.02,-764.01,10626.4,28.9233,-99.1164,19.1256,-10244.7,10713.9,-1612.24,34.855,-99.4489,138.562,508.767,12150.2,-1947.33,-4.83386,57.0249,95.1608,1887.63,9377.21,2391.47,15.2134,-14.4344,48.9724,2944.51,-10538.3,-1253.02,2.79712,-88.1478,68.1043,12134.9,-469.658,-1141.28,66.0606,-6.43604,4.84238
4.151,14305.7,177.912,4842.64,-75.3092,124.161,-102.112,4054.18,-749.545,10644.3,29.1196,-99.9528,19.1732,-10307.2,10707.3,-1590.19,34.9839,-100.083,137.61,530.584,12183.8,-1959.3,-4.89929,57.0264,95.5378,1876.78,9390.85,2352.69,15.5015,-15.0927,48.9319,2976.65,-10563.2,-1221.91,2.68954,-87.6149,68.1598,12166.3,-472.141,-1142.74,66.0135,-6.33342,4.8603
4.1515,14399.8,224.763,4762.9,-75.4681,123.333,-102.51,4069.16,-735.371,10660.5,29.2481,-100.796,19.3088,-10372.8,10702.5,-1535.12,35.0636,-100.73,136.601,544.971,12212.6,-1956.44,-4.89373,57.1037,95.8597,1864.44,9398.19,2293.48,15.5874,-15.5842,48.9365,3003.8,-10581.6,-1188.05,2.61765,-87.2494,68.207,12171.8,-473.196,-1140.89,66.0728,-6.20522,4.79244
4.152,14487.8,279.724,4679.56,-75.6318,122.478,-102.852,4079.8,-721.279,10676.2,29.3573,-101.642,19.4696,-10439.3,10698.1,-1470.62,35.1292,-101.381,135.575,557.235,12240.1,-1949.33,-4.86788,57.2026,96.1659,1851.67,9403.73,2228.44,15.6156,-16.0279,48.9538,3029.53,-10598.2,-1153.41,2.55595,-86.9318,68.2517,12170.0,-473.842,-1138.08,66.1626,-6.06972,4.70006
4.1525,14575.8,334.684,4596.23,-75.7954,121.622,-103.193,4090.44,-707.187,10692.0,29.4665,-102.488,19.6304,-10505.8,10693.8,-1406.12,35.1949,-102.031,134.549,569.499,12267.6,-1942.23,-4.84203,57.3015,96.4722,1838.9,9409.28,2163.39,15.6438,-16.4716,48.9712,3055.25,-10614.7,-1118.76,2.49425,-86.6143,68.2964,12168.2,-474.489,-1135.27,66.2524,-5.93421,4.60768
4.153,14663.8,389.644,4512.89,-75.959,120.767,-103.535,4101.08,-693.095,10707.7,29.5756,-103.334,19.7911,-10572.4,10689.4,-1341.63,35.2605,-102.681,133.523,581.763,12295.1,-1935.12,-4.81618,57.4004,96.7784,1826.13,9414.82,2098.34,15.672,-16.9154,48.9886,3080.97,-10631.3,-1084.11,2.43254,-86.2967,68.3412,12166.3,-475.135,-1132.46,66.3422,-5.7987,4.51531
4.1535,14751.8,444.605,4429.55,-76.1227,119.912,-103.876,4111.72,-679.003,10723.4,29.6848,-104.18,19.9519,-10638.9,10685.1,-1277.13,35.3262,-103.331,132.497,594.026,12322.6,-1928.02,-4.79033,57.4993,97.0846,1813.36,9420.36,2033.3,15.7002,-17.3591,49.0059,3106.7,-10647.9,-1049.46,2.37084,-85.9791,68.3859,12164.5,-475.781,-1129.65,66.432,-5.6632,4.42293
4.154,14839.8,499.565,4346.21,-76.2863,119.057,-104.217,4122.36,-664.911,10739.1,29.794,-105.026,20.1127,-10705.4,10680.7,-1212.63,35.3918,-103.982,131.471,606.29,12350.1,-1920.91,-4.76448,57.5982,97.3908,1800.59,9425.91,1968.25,15.7284,-17.8028,49.0233,3132.42,-10664.5,-1014.82,2.30914,-85.6615,68.4307,12162.7,-476.427,-1126.85,66.5217,-5.52769,4.33055
4.1545,14927.7,554.526,4262.88,-76.45,118.202,-104.559,4132.99,-650.82,10754.8,29.9032,-105.871,20.2734,-10771.9,10676.3,-1148.13,35.4574,-104.632,130.445,618.554,12377.6,-1913.81,-4.73864,57.6971,97.697,1787.82,9431.45,1903.21,15.7566,-18.2466,49.0407,3158.14,-10681.0,-980.167,2.24744,-85.3439,68.4754,12160.8,-477.074,-1124.04,66.6115,-5.39219,4.23818
4.155,15015.7,609.486,4179.54,-76.6136,117.346,-104.9,4143.63,-636.728,10770.5,30.0123,-106.717,20.4342,-10838.4,10672.0,-1083.63,35.5231,-105.282,129.419,630.818,12405.1,-1906.7,-4.71279,57.796,98.0033,1775.05,9436.99,1838.16,15.7848,-18.6903,49.0581,3183.87,-10697.6,-945.52,2.18574,-85.0263,68.5201,12159.0,-477.72,-1121.23,66.7013,-5.25668,4.1458
4.1555,15103.7,664.446,4096.2,-76.7772,116.491,-105.242,4154.27,-622.636,10786.3,30.1215,-107.563,20.595,-10905.0,10667.6,-1019.13,35.5887,-105.932,128.392,643.082,12432.5,-1899.6,-4.68694,57.8949,98.3095,1762.29,9442.54,1773.12,15.8129,-19.134,49.0754,3209.59,-10714.2,-910.872,2.12404,-84.7087,68.5649,12157.2,-478.366,-1118.42,66.7911,-5.12118,4.05342
4.156,15149.5,740.079,4008.64,-76.9434,115.272,-105.589,4141.35,-644.522,10789.6,30.2824,-108.534,20.7441,-10965.1,10675.2,-955.576,35.6132,-106.475,127.336,627.216,12459.0,-1902.29,-4.69576,57.9946,98.6485,1765.49,9446.65,1719.36,15.7384,-19.5246,49.1944,3221.03,-10735.7,-887.482,2.01413,-84.6171,68.524,12149.0,-461.174,-1122.75,66.8822,-5.05629,4.03547
4.1565,15190.0,818.296,3920.54,-77.1099,114.008,-105.936,4125.49,-670.905,10791.3,30.4497,-109.52,20.8918,-11024.4,10684.3,-892.139,35.6325,-107.004,126.275,607.834,12485.3,-1906.21,-4.70891,58.0944,98.9917,1770.69,9450.58,1667.01,15.651,-19.9086,49.326,3230.68,-10757.8,-865.5,1.89819,-84.5537,68.4723,12140.1,-441.751,-1127.97,66.9736,-5.00023,4.02683
4.157,15230.5,896.513,3832.44,-77.2764,112.744,-106.284,4109.63,-697.289,10793.1,30.6171,-110.507,21.0394,-11083.8,10693.3,-828.703,35.6518,-107.534,125.215,588.452,12511.6,-1910.13,-4.72206,58.1941,99.3348,1775.88,9454.51,1614.67,15.5635,-20.2925,49.4577,3240.33,-10779.9,-843.517,1.78225,-84.4903,68.4207,12131.2,-422.328,-1133.19,67.0649,-4.94418,4.01818
4.1575,15271.0,974.73,3744.35,-77.4429,111.479,-106.631,4093.77,-723.672,10794.9,30.7844,-111.493,21.1871,-11143.1,10702.4,-765.267,35.6712,-108.063,124.154,569.07,12537.9,-1914.06,-4.73521,58.2939,99.6779,1781.08,9458.44,1562.32,15.4761,-20.6765,49.5894,3249.98,-10802.1,-821.534,1.66632,-84.427,68.369,12122.2,-402.906,-1138.41,67.1563,-4.88812,4.00953
4.158,15311.5,1052.95,3656.25,-77.6094,110.215,-106.979,4077.91,-750.055,10796.6,30.9518,-112.48,21.3348,-11202.5,10711.4,-701.831,35.6905,-108.592,123.093,549.688,12564.2,-1917.98,-4.74837,58.3937,100.021,1786.28,9462.37,1509.98,15.3887,-21.0605,49.721,3259.63,-10824.2,-799.552,1.55038,-84.3636,68.3174,12113.3,-383.483,-1143.63,67.2476,-4.83206,4.00089
4.1585,15352.0,1131.16,3568.16,-77.7759,108.95,-107.327,4062.04,-776.438,10798.4,31.1191,-113.466,21.4824,-11261.8,10720.5,-638.395,35.7098,-109.122,122.033,530.306,12590.5,-1921.9,-4.76152,58.4935,100.364,1791.48,9466.3,1457.63,15.3013,-21.4444,49.8527,3269.28,-10846.3,-777.57,1.43444,-84.3002,68.2657,12104.4,-364.06,-1148.85,67.339,-4.77601,3.99224
4.159,15392.5,1209.38,3480.06,-77.9424,107.686,-107.674,4046.18,-802.822,10800.1,31.2864,-114.453,21.6301,-11321.2,10729.6,-574.959,35.7291,-109.651,120.972,510.924,12616.8,-1925.82,-4.77467,58.5933,100.707,1796.68,9470.23,1405.28,15.2139,-21.8284,49.9843,3278.93,-10868.4,-755.587,1.31851,-84.2368,68.2141,12095.4,-344.637,-1154.07,67.4303,-4.71995,3.98359
4.1595,15433.0,1287.6,3391.97,-78.1089,106.422,-108.022,4030.32,-829.205,10801.9,31.4538,-115.439,21.7778,-11380.5,10738.6,-511.523,35.7485,-110.18,119.912,491.542,12643.1,-1929.74,-4.78782,58.693,101.05,1801.87,9474.16,1352.94,15.1265,-22.2123,50.116,3288.58,-10890.6,-733.604,1.20257,-84.1734,68.1624,12086.5,-325.215,-1159.29,67.5217,-4.66389,3.97495
4.16,15473.6,1365.81,3303.87,-78.2754,105.157,-108.369,4014.46,-855.588,10803.7,31.6211,-116.426,21.9254,-11439.9,10747.7,-448.087,35.7678,-110.71,118.851,472.16,12669.4,-1933.66,-4.80098,58.7928,101.394,1807.07,9478.09,1300.59,15.0391,-22.5963,50.2477,3298.23,-10912.7,-711.622,1.08663,-84.11,68.1108,12077.5,-305.792,-1164.51,67.613,-4.60783,3.9663
4.1605,15488.2,1382.11,3216.07,-78.0639,103.558,-108.807,4001.53,-892.095,10812.1,31.8024,-117.425,21.9176,-11487.1,10754.8,-411.987,35.7605,-110.843,117.599,483.45,12713.0,-1892.0,-4.81572,58.9222,101.788,1810.4,9481.06,1246.05,15.0046,-23.2278,50.5312,3295.48,-10935.5,-716.799,0.993667,-84.2242,68.0344,12054.1,-302.736,-1150.8,67.3686,-4.71369,4.15932
4.161,15502.9,1398.41,3128.27,-77.8524,101.958,-109.245,3988.61,-928.601,10820.6,31.9837,-118.425,21.9098,-11534.3,10761.8,-375.887,35.7533,-110.976,116.347,494.74,12756.6,-1850.34,-4.83046,59.0516,102.182,1813.72,9484.02,1191.51,14.9702,-23.8593,50.8147,3292.74,-10958.2,-721.977,0.9007,-84.3384,67.958,12030.8,-299.68,-1137.1,67.1242,-4.81954,4.35234
4.1615,15517.6,1414.71,3040.47,-77.641,100.359,-109.684,3975.68,-965.107,10829.0,32.1649,-119.425,21.902,-11581.5,10768.9,-339.788,35.746,-111.109,115.096,506.03,12800.2,-1808.68,-4.8452,59.1809,102.576,1817.04,9486.99,1136.96,14.9358,-24.4909,51.0983,3289.99,-10981.0,-727.155,0.807732,-84.4526,67.8816,12007.4,-296.624,-1123.4,66.8798,-4.92539,4.54536
4.162,15532.3,1431.0,2952.67,-77.4295,98.7595,-110.122,3962.76,-1001.61,10837.5,32.3462,-120.424,21.8941,-11628.7,10776.0,-303.688,35.7388,-111.242,113.844,517.32,12843.8,-1767.02,-4.85994,59.3103,102.97,1820.37,9489.95,1082.42,14.9013,-25.1224,51.3818,3287.25,-11003.8,-732.332,0.714765,-84.5668,67.8052,11984.0,-293.569,-1109.7,66.6355,-5.03125,4.73838
4.1625,15546.9,1447.3,2864.87,-77.218,97.16,-110.56,3949.83,-1038.12,10845.9,32.5274,-121.424,21.8863,-11675.9,10783.1,-267.588,35.7315,-111.375,112.592,528.609,12887.4,-1725.36,-4.87468,59.4397,103.364,1823.69,9492.91,1027.88,14.8669,-25.7539,51.6653,3284.5,-11026.6,-737.51,0.621797,-84.681,67.7288,11960.6,-290.513,-1095.99,66.3911,-5.1371,4.9314
4.163,15561.6,1463.6,2777.07,-77.0066,95.5605,-110.998,3936.91,-1074.63,10854.4,32.7087,-122.424,21.8785,-11723.1,10790.1,-231.489,35.7243,-111.509,111.34,539.899,12931.0,-1683.7,-4.88941,59.569,103.758,1827.01,9495.88,973.332,14.8325,-26.3855,51.9489,3281.76,-11049.3,-742.687,0.52883,-84.7952,67.6525,11937.2,-287.457,-1082.29,66.1467,-5.24295,5.12443
4.1635,15576.3,1479.89,2689.27,-76.7951,93.961,-111.436,3923.98,-1111.13,10862.9,32.8899,-123.423,21.8707,-11770.3,10797.2,-195.389,35.717,-111.642,110.088,551.189,12974.6,-1642.04,-4.90415,59.6984,104.152,1830.34,9498.84,918.789,14.798,-27.017,52.2324,3279.01,-11072.1,-747.865,0.435862,-84.9094,67.5761,11913.8,-284.401,-1068.59,65.9023,-5.34881,5.31745
4.164,15591.0,1496.19,2601.47,-76.5837,92.3615,-111.874,3911.05,-1147.64,10871.3,33.0712,-124.423,21.8628,-11817.5,10804.3,-159.289,35.7098,-111.775,108.836,562.479,13018.2,-1600.38,-4.91889,59.8278,104.546,1833.66,9501.81,864.245,14.7636,-27.6485,52.5159,3276.27,-11094.9,-753.042,0.342895,-85.0236,67.4997,11890.4,-281.345,-1054.89,65.6579,-5.45466,5.51047
4.1645,15612.3,1506.89,2513.22,-76.3158,90.7653,-112.299,3899.25,-1179.77,10881.0,33.2436,-125.427,21.8486,-11863.0,10811.1,-125.957,35.6885,-111.861,107.563,570.873,13058.3,-1559.83,-4.95348,59.9433,104.934,1839.46,9504.37,809.708,14.765,-28.3225,52.8063,3271.61,-11116.8,-758.166,0.239071,-85.1338,67.4151,11867.3,-276.178,-1040.96,65.415,-5.56836,5.68998
4.165,15687.1,1472.84,2421.39,-75.5969,89.1955,-112.625,3896.44,-1176.9,10900.1,33.3454,-126.463,21.7827,-11894.7,10815.6,-114.767,35.5549,-111.574,106.122,556.103,13071.3,-1528.15,-5.14682,59.9483,105.282,1865.1,9503.7,755.218,15.0532,-29.3359,53.1517,3251.63,-11132.1,-762.859,0.048404,-85.2118,67.2653,11846.9,-254.12,-1025.2,65.1835,-5.74487,5.76147
4.1655,15761.9,1438.78,2329.55,-74.878,87.6257,-112.951,3893.63,-1174.03,10919.2,33.4472,-127.499,21.7168,-11926.4,10820.2,-103.577,35.4212,-111.287,104.68,541.333,13084.2,-1496.48,-5.34016,59.9532,105.63,1890.74,9503.03,700.728,15.3414,-30.3494,53.4971,3231.65,-11147.3,-767.553,-0.142264,-85.2899,67.1155,11826.5,-232.062,-1009.45,64.9519,-5.92137,5.83295
4.166,15836.7,1404.73,2237.72,-74.1591,86.0559,-113.277,3890.82,-1171.17,10938.4,33.5489,-128.535,21.6509,-11958.1,10824.8,-92.3864,35.2876,-111.0,103.239,526.562,13097.2,-1464.8,-5.53349,59.9582,105.978,1916.37,9502.36,646.239,15.6297,-31.3628,53.8424,3211.68,-11162.6,-772.246,-0.332931,-85.3679,66.9656,11806.1,-210.005,-993.694,64.7204,-6.09787,5.90444
4.1665,15911.5,1370.67,2145.89,-73.4401,84.4861,-113.603,3888.01,-1168.3,10957.5,33.6507,-129.571,21.585,-11989.8,10829.3,-81.1961,35.154,-110.713,101.797,511.792,13110.1,-1433.13,-5.72683,59.9631,106.326,1942.01,9501.69,591.749,15.9179,-32.3762,54.1878,3191.7,-11177.8,-776.939,-0.523598,-85.446,66.8158,11785.7,-187.947,-977.94,64.4889,-6.27437,5.97592
4.167,15986.2,1336.61,2054.05,-72.7212,82.9163,-113.929,3885.2,-1165.43,10976.6,33.7525,-130.608,21.5192,-12021.6,10833.9,-70.0058,35.0203,-110.426,100.356,497.022,13123.0,-1401.45,-5.92017,59.9681,106.674,1967.65,9501.01,537.26,16.2061,-33.3896,54.5331,3171.72,-11193.1,-781.633,-0.714266,-85.524,66.666,11765.3,-165.889,-962.186,64.2574,-6.45087,6.0474
4.1675,16061.0,1302.56,1962.22,-72.0023,81.3465,-114.255,3882.38,-1162.56,10995.8,33.8542,-131.644,21.4533,-12053.3,10838.4,-58.8154,34.8867,-110.139,98.9146,482.252,13136.0,-1369.77,-6.11351,59.973,107.022,1993.28,9500.34,482.77,16.4943,-34.4031,54.8785,3151.75,-11208.3,-786.326,-0.904933,-85.6021,66.5161,11744.9,-143.831,-946.432,64.0258,-6.62737,6.11889
