Time,RFoot_accel.x,RFoot_accel.y,RFoot_accel.z,RFoot_gyro.x,RFoot_gyro.y,RFoot_gyro.z,LFoot_accel.x,LFoot_accel.y,LFoot_accel.z,LFoot_gyro.x,LFoot_gyro.y,LFoot_gyro.z,RShank_accel.x,RShank_accel.y,RShank_accel.z,RShank_gyro.x,RShank_gyro.y,RShank_gyro.z,LShank_accel.x,LShank_accel.y,LShank_accel.z,LShank_gyro.x,LShank_gyro.y,LShank_gyro.z,RThigh_accel.x,RThigh_accel.y,RThigh_accel.z,RThigh_gyro.x,RThigh_gyro.y,RThigh_gyro.z,LThigh_accel.x,LThigh_accel.y,LThigh_accel.z,LThigh_gyro.x,LThigh_gyro.y,LThigh_gyro.z,Pelvis_accel.x,Pelvis_accel.y,Pelvis_accel.z,Pelvis_gyro.x,Pelvis_gyro.y,Pelvis_gyro.z
0.0,4969.22,-1873.18,8080.54,1.79573,0.485252,1.62429,4849.07,86.3646,8393.57,-0.22779,-0.160695,-1.25298,758.694,9540.98,-2210.79,2.53074,-6.72894,4.80567,596.773,-9920.34,-1452.02,-2.35399,-0.398832,-3.21141,-1983.83,9601.24,-478.472,1.48352,-5.26754,-3.13027,556.714,-9660.48,-1991.73,-8.69214,2.70575,3.74952,8780.75,-754.035,3909.97,-4.41511,5.88578,0.388671
0.001,4966.34,-1867.77,8086.16,1.90983,0.411886,1.57819,4848.67,93.1754,8391.21,-0.208908,-0.130458,-1.27311,739.348,9542.5,-2195.37,2.39056,-6.84797,4.82561,606.168,-9929.53,-1416.94,-2.43423,-0.328782,-3.22925,-1961.73,9594.53,-458.921,1.4238,-5.2446,-3.0955,567.523,-9664.95,-1982.99,-8.67451,2.77894,3.83905,8745.88,-738.393,3904.78,-4.57444,5.85469,0.203125
0.002,4963.46,-1862.37,8091.78,2.02394,0.33852,1.53208,4848.26,99.9862,8388.86,-0.190027,-0.100222,-1.29324,720.002,9544.02,-2179.96,2.25038,-6.967,4.84555,615.564,-9938.73,-1381.86,-2.51446,-0.258731,-3.24708,-1939.63,9587.81,-439.369,1.36409,-5.22167,-3.06072,578.332,-9669.42,-1974.25,-8.65689,2.85213,3.92858,8711.0,-722.751,3899.58,-4.73377,5.8236,0.0175784
0.003,4960.58,-1856.96,8097.4,2.13804,0.265155,1.48597,4847.85,106.797,8386.5,-0.171145,-0.0699849,-1.31337,700.655,9545.54,-2164.55,2.11021,-7.08603,4.86549,624.959,-9947.92,-1346.78,-2.5947,-0.188681,-3.26491,-1917.53,9581.1,-419.818,1.30438,-5.19873,-3.02594,589.141,-9673.89,-1965.51,-8.63926,2.92532,4.01812,8676.13,-707.109,3894.39,-4.8931,5.79251,-0.167968
0.004,4957.69,-1851.56,8103.02,2.25214,0.191789,1.43986,4847.45,113.608,8384.14,-0.152264,-0.0397481,-1.33349,681.309,9547.06,-2149.14,1.97003,-7.20507,4.88543,634.354,-9957.12,-1311.7,-2.67494,-0.11863,-3.28274,-1895.43,9574.39,-400.267,1.24466,-5.1758,-2.99116,599.95,-9678.36,-1956.77,-8.62163,2.99852,4.10765,8641.25,-691.468,3889.19,-5.05243,5.76142,-0.353514
0.005,4952.77,-1848.57,8110.47,2.35067,0.169858,1.41751,4842.75,106.291,8393.06,-0.165968,-0.0898685,-1.35237,681.522,9539.09,-2153.14,1.90492,-7.25657,4.8585,649.134,-9949.72,-1324.01,-2.77287,-0.0986512,-3.22613,-1866.9,9553.75,-392.791,1.21395,-5.18491,-3.03183,603.555,-9684.45,-1959.82,-8.64399,3.10356,4.25854,8629.03,-698.901,3890.14,-5.16489,5.73519,-0.659498
0.006,4946.21,-1847.5,8119.39,2.43674,0.189076,1.41416,4834.62,87.6711,8411.01,-0.205741,-0.204275,-1.37024,697.383,9523.53,-2172.66,1.89986,-7.25405,4.79407,668.223,-9929.05,-1374.25,-2.88495,-0.118729,-3.10997,-1833.21,9521.99,-394.974,1.20644,-5.21966,-3.13284,601.395,-9691.83,-1972.3,-8.69833,3.23408,4.45852,8634.92,-724.793,3896.01,-5.23986,5.71286,-1.06183
0.007,4939.65,-1846.44,8128.31,2.52281,0.208293,1.41081,4826.49,69.0516,8428.96,-0.245514,-0.318681,-1.38812,713.243,9507.97,-2192.19,1.89481,-7.25154,4.72964,687.312,-9908.37,-1424.49,-2.99703,-0.138807,-2.9938,-1799.53,9490.22,-397.157,1.19893,-5.25441,-3.23385,599.235,-9699.21,-1984.77,-8.75267,3.36461,4.6585,8640.82,-750.686,3901.88,-5.31482,5.69052,-1.46417
0.008,4933.1,-1845.38,8137.23,2.60888,0.227511,1.40746,4818.35,50.432,8446.92,-0.285287,-0.433087,-1.40599,729.103,9492.41,-2211.72,1.88975,-7.24902,4.66521,706.4,-9887.7,-1474.72,-3.10912,-0.158885,-2.87763,-1765.85,9458.46,-399.34,1.19142,-5.28916,-3.33487,597.076,-9706.6,-1997.25,-8.80702,3.49513,4.85848,8646.71,-776.578,3907.74,-5.38979,5.66819,-1.8665
0.009,4927.12,-1844.28,8146.17,2.68807,0.251671,1.41738,4810.68,34.2162,8463.82,-0.31324,-0.53975,-1.43301,744.102,9478.94,-2229.19,1.88216,-7.26222,4.59449,725.219,-9871.05,-1515.76,-3.20199,-0.168025,-2.77957,-1735.28,9432.84,-402.824,1.18813,-5.33057,-3.42946,596.834,-9713.55,-2008.45,-8.86802,3.6215,5.04695,8653.51,-799.066,3912.48,-5.47407,5.63146,-2.24937
0.01,4925.79,-1842.88,8155.28,2.71217,0.315373,1.53347,4806.67,37.231,8472.39,-0.246634,-0.584466,-1.53316,752.204,9482.23,-2230.25,1.85427,-7.40118,4.47338,741.878,-9886.57,-1483.18,-3.1412,-0.0896568,-2.82636,-1729.62,9456.42,-416.708,1.21864,-5.42532,-3.47274,611.934,-9717.05,-2009.45,-8.98234,3.71466,5.1433,8667.52,-794.311,3908.21,-5.63285,5.47959,-2.4765
0.011,4924.46,-1841.47,8164.39,2.73627,0.379074,1.64956,4802.66,40.2457,8480.96,-0.180028,-0.629183,-1.63331,760.307,9485.53,-2231.3,1.82638,-7.54014,4.35228,758.538,-9902.1,-1450.61,-3.0804,-0.011289,-2.87315,-1723.97,9480.0,-430.592,1.24916,-5.52006,-3.51603,627.034,-9720.55,-2010.45,-9.09666,3.80783,5.23965,8681.54,-789.557,3903.93,-5.79163,5.32772,-2.70363
0.012,4923.12,-1840.07,8173.5,2.76038,0.442776,1.76565,4798.64,43.2605,8489.52,-0.113423,-0.6739,-1.73347,768.409,9488.82,-2232.35,1.7985,-7.67909,4.23117,775.197,-9917.62,-1418.03,-3.0196,0.0670787,-2.91994,-1718.32,9503.59,-444.477,1.27967,-5.61481,-3.55931,642.134,-9724.05,-2011.46,-9.21097,3.90099,5.336,8695.55,-784.802,3899.66,-5.95041,5.17585,-2.93077
0.013,4921.79,-1838.66,8182.61,2.78448,0.506478,1.88174,4794.63,46.2753,8498.09,-0.0468168,-0.718617,-1.83362,776.512,9492.11,-2233.4,1.77061,-7.81805,4.11007,791.856,-9933.15,-1385.45,-2.9588,0.145446,-2.96672,-1712.67,9527.17,-458.361,1.31018,-5.70956,-3.60259,657.234,-9727.55,-2012.46,-9.32529,3.99415,5.43235,8709.56,-780.047,3895.39,-6.1092,5.02398,-3.1579
0.014,4922.21,-1847.82,8183.63,2.7957,0.529906,1.92566,4790.16,47.8397,8502.87,-0.0240524,-0.718059,-1.8798,781.849,9486.21,-2247.7,1.75338,-7.9735,4.00384,788.512,-9925.18,-1381.64,-2.95521,0.155187,-2.88388,-1707.21,9536.51,-446.613,1.32806,-5.72477,-3.57823,681.392,-9725.67,-2008.91,-9.36403,4.11161,5.44121,8716.65,-774.59,3905.17,-6.35129,4.9127,-3.33847
0.015,4923.49,-1862.27,8180.6,2.80048,0.533199,1.9335,4785.46,48.679,8505.77,-0.0232086,-0.694865,-1.899,785.803,9475.71,-2268.61,1.74147,-8.13719,3.90504,775.166,-9905.48,-1392.21,-2.98021,0.130613,-2.73623,-1701.84,9538.72,-422.048,1.33964,-5.70022,-3.52005,710.079,-9721.08,-2003.09,-9.36497,4.24122,5.40632,8720.29,-768.782,3921.99,-6.63504,4.82172,-3.49577
0.016,4924.78,-1876.72,8177.57,2.80526,0.536491,1.94134,4780.76,49.5183,8508.66,-0.0223648,-0.67167,-1.9182,789.758,9465.22,-2289.52,1.72956,-8.30089,3.80624,761.82,-9885.77,-1402.79,-3.00521,0.106039,-2.58858,-1696.48,9540.94,-397.483,1.35121,-5.67566,-3.46187,738.767,-9716.5,-1997.27,-9.36591,4.37082,5.37144,8723.92,-762.974,3938.82,-6.91878,4.73073,-3.65306
0.017,4926.06,-1891.16,8174.55,2.81004,0.539783,1.94918,4776.06,50.3576,8511.56,-0.021521,-0.648475,-1.93739,793.712,9454.72,-2310.43,1.71765,-8.46458,3.70744,748.474,-9866.07,-1413.36,-3.03022,0.0814655,-2.44093,-1691.12,9543.15,-372.918,1.36278,-5.65111,-3.40369,767.454,-9711.92,-1991.45,-9.36686,4.50043,5.33655,8727.54,-757.165,3955.64,-7.20253,4.63975,-3.81035
0.018,4927.72,-1906.17,8170.95,2.81465,0.533533,1.94162,4770.71,51.9964,8514.86,-0.0300553,-0.619094,-1.95342,798.098,9446.11,-2326.74,1.68036,-8.62796,3.61612,743.06,-9845.92,-1420.92,-3.0377,0.0473805,-2.33162,-1684.26,9547.5,-352.001,1.37947,-5.61626,-3.33844,791.704,-9708.11,-1990.43,-9.37223,4.63518,5.30788,8738.02,-749.604,3971.59,-7.41477,4.54638,-3.94102
0.019,4930.67,-1923.12,8165.35,2.81865,0.493883,1.88017,4763.08,56.4333,8519.57,-0.0714125,-0.568059,-1.95836,803.995,9444.11,-2326.99,1.55427,-8.79025,3.55093,765.409,-9824.26,-1417.94,-2.98387,-0.0199941,-2.35651,-1672.17,9559.32,-343.85,1.41406,-5.54538,-3.24849,800.422,-9707.02,-2006.24,-9.3931,4.78793,5.30095,8772.43,-735.91,3984.53,-7.37676,4.44466,-3.97847
0.02,4933.63,-1940.07,8159.74,2.82265,0.454232,1.81871,4755.46,60.8703,8524.29,-0.11277,-0.517024,-1.96329,809.892,9442.1,-2327.23,1.42818,-8.95253,3.48574,787.758,-9802.59,-1414.96,-2.93004,-0.0873688,-2.38141,-1660.09,9571.13,-335.7,1.44864,-5.4745,-3.15854,809.14,-9705.92,-2022.05,-9.41398,4.94068,5.29401,8806.84,-722.216,3997.46,-7.33875,4.34295,-4.01593
0.021,4936.59,-1957.03,8154.14,2.82665,0.414582,1.75726,4747.84,65.3072,8529.01,-0.154127,-0.465989,-1.96822,815.789,9440.09,-2327.47,1.30209,-9.11482,3.42055,810.107,-9780.92,-1411.98,-2.87621,-0.154743,-2.4063,-1648.0,9582.95,-327.55,1.48323,-5.40362,-3.06859,817.857,-9704.83,-2037.86,-9.43486,5.09343,5.28708,8841.25,-708.522,4010.39,-7.30074,4.24123,-4.05338
0.022,4939.55,-1973.98,8148.53,2.83065,0.374931,1.69581,4740.22,69.7441,8533.73,-0.195484,-0.414954,-1.97316,821.685,9438.09,-2327.71,1.176,-9.2771,3.35536,832.456,-9759.25,-1409.0,-2.82238,-0.222118,-2.43119,-1635.92,9594.76,-319.399,1.51781,-5.33274,-2.97864,826.575,-9703.74,-2053.67,-9.45573,5.24618,5.28015,8875.66,-694.828,4023.32,-7.26273,4.13951,-4.09084
0.023,4939.52,-1980.71,8148.12,2.85671,0.385048,1.63351,4750.15,82.6312,8534.98,-0.1896,-0.422992,-1.9958,834.584,9440.73,-2325.67,1.08272,-9.33478,3.27685,827.638,-9763.06,-1419.0,-2.87259,-0.107608,-2.36269,-1630.35,9600.47,-313.337,1.54614,-5.31626,-2.88257,854.04,-9716.22,-2058.53,-9.38138,5.35627,5.29494,8863.08,-695.129,4026.71,-7.32485,3.99444,-4.14786
0.024,4938.64,-1984.51,8149.19,2.88907,0.409384,1.57096,4765.1,97.9326,8535.25,-0.170217,-0.447907,-2.0235,849.484,9444.7,-2322.97,0.99882,-9.36257,3.19453,815.06,-9774.15,-1432.71,-2.95253,0.0588701,-2.2675,-1626.64,9604.43,-307.872,1.57267,-5.31533,-2.78474,886.861,-9732.59,-2060.27,-9.27983,5.45417,5.31595,8837.07,-699.429,4027.36,-7.41559,3.83699,-4.21049
0.025,4937.76,-1988.31,8150.26,2.92144,0.433719,1.50842,4780.05,113.234,8535.51,-0.150835,-0.472823,-2.0512,864.383,9448.67,-2320.27,0.914916,-9.39036,3.11222,802.481,-9785.24,-1446.42,-3.03248,0.225348,-2.17231,-1622.93,9608.39,-302.407,1.59921,-5.3144,-2.68692,919.683,-9748.95,-2062.01,-9.17828,5.55207,5.33695,8811.06,-703.728,4028.02,-7.50632,3.67954,-4.27311
0.026,4936.88,-1992.11,8151.33,2.9538,0.458055,1.44588,4795.0,128.535,8535.77,-0.131452,-0.497739,-2.07889,879.283,9452.64,-2317.58,0.831012,-9.41815,3.02991,789.902,-9796.33,-1460.13,-3.11242,0.391825,-2.07712,-1619.22,9612.35,-296.942,1.62574,-5.31347,-2.58911,952.504,-9765.32,-2063.75,-9.07673,5.64997,5.35795,8785.05,-708.027,4028.67,-7.59705,3.52209,-4.33573
0.027,4938.82,-1995.58,8152.4,3.02304,0.478247,1.38332,4807.18,144.533,8535.22,-0.142825,-0.543789,-2.09388,890.422,9455.17,-2315.66,0.748846,-9.44441,2.94257,784.444,-9808.42,-1478.39,-3.14934,0.538786,-2.0102,-1613.44,9618.79,-297.423,1.6394,-5.34216,-2.48298,982.003,-9780.18,-2059.84,-8.97461,5.73994,5.36424,8763.79,-712.863,4035.55,-7.67855,3.41242,-4.40311
0.028,4946.37,-1998.4,8153.46,3.16601,0.49015,1.32074,4813.81,161.921,8533.05,-0.21571,-0.632107,-2.08343,894.038,9454.82,-2315.31,0.670156,-9.46758,2.84521,793.227,-9822.5,-1505.75,-3.10023,0.646711,-1.9998,-1603.51,9630.19,-309.796,1.62733,-5.4301,-2.36023,1004.86,-9792.03,-2044.63,-8.87134,5.81405,5.34111,8752.04,-718.771,4054.88,-7.74157,3.39831,-4.48001
0.029,4953.92,-2001.22,8154.52,3.30899,0.502054,1.25815,4820.43,179.31,8530.87,-0.288594,-0.720426,-2.07299,897.655,9454.47,-2314.96,0.591466,-9.49075,2.74785,802.011,-9836.57,-1533.11,-3.05112,0.754637,-1.9894,-1593.58,9641.58,-322.169,1.61526,-5.51803,-2.23748,1027.72,-9803.87,-2029.42,-8.76807,5.88816,5.31799,8740.28,-724.679,4074.2,-7.80458,3.38421,-4.5569
0.03,4961.47,-2004.04,8155.59,3.45196,0.513958,1.19557,4827.06,196.699,8528.7,-0.361478,-0.808744,-2.06254,901.272,9454.12,-2314.61,0.512775,-9.51392,2.65048,810.795,-9850.65,-1560.47,-3.00201,0.862563,-1.97901,-1583.66,9652.97,-334.542,1.60318,-5.60597,-2.11473,1050.57,-9815.72,-2014.21,-8.6648,5.96227,5.29486,8728.53,-730.587,4093.52,-7.8676,3.3701,-4.6338
0.031,4969.02,-2006.86,8156.65,3.59494,0.525861,1.13299,4833.69,214.087,8526.52,-0.434362,-0.897063,-2.0521,904.889,9453.77,-2314.26,0.434085,-9.53709,2.55312,819.579,-9864.72,-1587.83,-2.9529,0.970488,-1.96861,-1573.73,9664.37,-346.915,1.59111,-5.69391,-1.99199,1073.43,-9827.57,-1999.0,-8.56153,6.03638,5.27173,8716.77,-736.495,4112.85,-7.93062,3.35599,-4.71069
0.032,4982.88,-2012.17,8157.72,3.64619,0.563784,1.08741,4824.41,195.105,8514.92,-0.518923,-0.838557,-2.06923,914.722,9439.4,-2309.57,0.373756,-9.51797,2.52569,843.069,-9872.36,-1561.42,-3.00745,1.01172,-1.78498,-1552.52,9675.52,-345.988,1.55522,-5.84656,-1.90947,1067.31,-9820.37,-1994.05,-8.57962,6.07591,5.2669,8706.56,-737.095,4116.84,-8.0236,3.30182,-4.85999
0.033,4997.54,-2017.79,8158.78,3.68598,0.604959,1.04397,4813.14,171.577,8502.14,-0.604944,-0.761697,-2.08981,925.333,9423.27,-2304.34,0.315722,-9.49356,2.50701,868.397,-9879.2,-1528.29,-3.07495,1.04461,-1.57969,-1529.9,9686.64,-343.398,1.51636,-6.0073,-1.83198,1057.58,-9810.79,-1990.38,-8.61288,6.11113,5.26435,8696.53,-737.032,4118.92,-8.12032,3.24264,-5.01834
0.034,5012.19,-2023.41,8159.85,3.72576,0.646133,1.00053,4801.88,148.049,8489.36,-0.690964,-0.684837,-2.11039,935.944,9407.14,-2299.11,0.257688,-9.46916,2.48833,893.725,-9886.04,-1495.16,-3.14245,1.0775,-1.37441,-1507.29,9697.76,-340.807,1.4775,-6.16805,-1.75449,1047.85,-9801.21,-1986.71,-8.64614,6.14635,5.26181,8686.51,-736.968,4121.0,-8.21704,3.18347,-5.1767
0.035,5026.84,-2029.04,8160.92,3.76555,0.687308,0.957081,4790.61,124.521,8476.58,-0.776985,-0.607978,-2.13097,946.555,9391.01,-2293.88,0.199654,-9.44475,2.46964,919.053,-9892.88,-1462.03,-3.20996,1.11039,-1.16912,-1484.67,9708.88,-338.217,1.43864,-6.32879,-1.677,1038.11,-9791.63,-1983.04,-8.67941,6.18156,5.25927,8676.49,-736.905,4123.09,-8.31376,3.12429,-5.33505
0.036,5039.93,-2033.16,8157.07,3.784,0.728431,0.903879,4786.11,113.552,8467.88,-0.816447,-0.527983,-2.1348,946.778,9378.65,-2290.39,0.160863,-9.41878,2.42269,918.815,-9882.54,-1458.14,-3.18845,1.16723,-0.997264,-1474.27,9706.33,-333.458,1.4487,-6.38256,-1.56468,1029.36,-9787.37,-1982.1,-8.70743,6.24328,5.22853,8673.1,-746.051,4114.08,-8.35659,3.05548,-5.47299
0.037,5051.09,-2035.4,8147.08,3.77579,0.769487,0.83848,4790.08,118.281,8464.3,-0.797713,-0.44407,-2.1177,934.016,9370.99,-2289.08,0.146125,-9.39087,2.34041,886.62,-9850.72,-1490.81,-3.05567,1.25401,-0.867199,-1479.13,9686.67,-325.987,1.51994,-6.30259,-1.40881,1021.83,-9789.77,-1984.57,-8.72892,6.33813,5.16255,8678.01,-766.709,4091.21,-8.33204,2.97464,-5.5854
0.038,5062.24,-2037.64,8137.08,3.76758,0.810544,0.773081,4794.04,123.01,8460.72,-0.778979,-0.360157,-2.10059,921.253,9363.32,-2287.77,0.131388,-9.36295,2.25812,854.425,-9818.9,-1523.48,-2.92289,1.34079,-0.737134,-1483.99,9667.02,-318.516,1.59117,-6.22263,-1.25293,1014.3,-9792.17,-1987.04,-8.75041,6.43298,5.09658,8682.92,-787.368,4068.33,-8.30749,2.89379,-5.69782
0.039,5073.39,-2039.89,8127.08,3.75937,0.8516,0.707682,4798.0,127.739,8457.14,-0.760245,-0.276244,-2.08348,908.491,9355.66,-2286.46,0.116651,-9.33504,2.17584,822.229,-9787.08,-1556.15,-2.79011,1.42757,-0.607069,-1488.86,9647.36,-311.045,1.6624,-6.14267,-1.09706,1006.77,-9794.57,-1989.51,-8.7719,6.52783,5.0306,8687.83,-808.026,4045.46,-8.28294,2.81295,-5.81023
0.04,5084.54,-2042.13,8117.08,3.75116,0.892657,0.642283,4801.97,132.468,8453.56,-0.741511,-0.192331,-2.06638,895.728,9348.0,-2285.15,0.101914,-9.30712,2.09356,790.034,-9755.26,-1588.82,-2.65733,1.51434,-0.477005,-1493.72,9627.71,-303.574,1.73364,-6.06271,-0.941191,999.246,-9796.98,-1991.98,-8.79338,6.62267,4.96463,8692.74,-828.685,4022.59,-8.25839,2.73211,-5.92265
0.041,5073.32,-2031.73,8106.9,3.77833,0.929746,0.615106,4796.06,133.082,8456.51,-0.775173,-0.176516,-2.03473,881.783,9364.58,-2284.18,-0.0545943,-9.37879,1.90779,771.993,-9753.58,-1567.98,-2.72449,1.50015,-0.448984,-1486.03,9644.2,-308.223,1.73597,-6.08791,-0.794537,1019.49,-9800.09,-1991.37,-8.72807,6.76158,4.89878,8688.25,-831.635,4050.43,-8.413,2.61316,-6.05149
0.042,5062.1,-2021.34,8096.71,3.80551,0.966835,0.587928,4790.15,133.696,8459.46,-0.808834,-0.1607,-2.00307,867.838,9381.17,-2283.21,-0.211103,-9.45046,1.72203,753.953,-9751.9,-1547.14,-2.79166,1.48595,-0.420963,-1478.34,9660.69,-312.872,1.7383,-6.1131,-0.647882,1039.74,-9803.2,-1990.76,-8.66276,6.90049,4.83294,8683.76,-834.585,4078.28,-8.56762,2.49422,-6.18032
0.043,5050.89,-2010.94,8086.53,3.83269,1.00392,0.56075,4784.25,134.309,8462.41,-0.842496,-0.144885,-1.97142,853.894,9397.76,-2282.23,-0.367611,-9.52213,1.53626,735.912,-9750.21,-1526.3,-2.85883,1.47175,-0.392942,-1470.65,9677.17,-317.522,1.74064,-6.1383,-0.501228,1059.98,-9806.32,-1990.15,-8.59745,7.03941,4.7671,8679.27,-837.535,4106.12,-8.72224,2.37527,-6.30916
0.044,5039.67,-2000.54,8076.34,3.85987,1.04101,0.533572,4778.34,134.923,8465.36,-0.876157,-0.129069,-1.93977,839.949,9414.34,-2281.26,-0.524119,-9.5938,1.3505,717.872,-9748.53,-1505.45,-2.926,1.45756,-0.364921,-1462.96,9693.66,-322.171,1.74297,-6.1635,-0.354573,1080.23,-9809.43,-1989.54,-8.53213,7.17832,4.70126,8674.77,-840.485,4133.96,-8.87685,2.25633,-6.438
0.045,5026.63,-1996.85,8074.91,3.88374,1.08187,0.471948,4772.4,134.732,8468.05,-0.896204,-0.110912,-1.91031,842.021,9425.49,-2288.83,-0.650319,-9.60585,1.15986,724.319,-9771.41,-1506.46,-2.92097,1.49463,-0.327815,-1463.74,9702.4,-315.953,1.7135,-6.20271,-0.256547,1107.41,-9805.12,-1990.39,-8.49193,7.23803,4.66652,8693.85,-829.83,4152.85,-8.97381,2.1538,-6.52009
0.046,5012.15,-1998.52,8080.49,3.90497,1.12573,0.382765,4766.44,133.897,8470.52,-0.90536,-0.0908816,-1.88261,856.908,9432.3,-2303.23,-0.752272,-9.57021,0.96532,750.357,-9813.93,-1524.94,-2.85818,1.57271,-0.283441,-1471.3,9704.94,-301.041,1.65859,-6.25312,-0.197424,1140.13,-9794.86,-1992.41,-8.47181,7.23439,4.65665,8731.78,-808.293,4164.59,-9.02464,2.0644,-6.56479
0.047,4997.67,-2000.19,8086.07,3.9262,1.1696,0.293583,4760.47,133.062,8473.0,-0.914515,-0.0708511,-1.85492,871.794,9439.1,-2317.63,-0.854226,-9.53456,0.770781,776.395,-9856.46,-1543.43,-2.7954,1.6508,-0.239068,-1478.85,9707.48,-286.13,1.60369,-6.30354,-0.1383,1172.85,-9784.6,-1994.43,-8.45169,7.23075,4.64678,8769.71,-786.755,4176.32,-9.07548,1.97501,-6.60949
0.048,4983.19,-2001.86,8091.65,3.94743,1.21346,0.204401,4754.5,132.227,8475.47,-0.92367,-0.0508207,-1.82722,886.681,9445.9,-2332.03,-0.956179,-9.49892,0.576241,802.433,-9898.98,-1561.91,-2.73261,1.72889,-0.194694,-1486.4,9710.02,-271.218,1.54878,-6.35396,-0.0791765,1205.57,-9774.34,-1996.44,-8.43157,7.22711,4.63692,8807.64,-765.218,4188.05,-9.12631,1.88561,-6.65418
0.049,4970.56,-2003.1,8097.52,3.97247,1.24937,0.116653,4749.54,132.345,8476.59,-0.937026,-0.037821,-1.79276,901.53,9452.08,-2344.2,-1.05265,-9.45422,0.392,824.277,-9932.69,-1576.67,-2.67641,1.79207,-0.136262,-1495.38,9712.42,-258.548,1.48834,-6.39441,-0.0233729,1233.55,-9765.31,-1998.23,-8.40884,7.225,4.61698,8838.64,-743.541,4196.73,-9.16188,1.80734,-6.69095
0.05,4972.73,-2000.91,8105.67,4.02797,1.22164,0.0403727,4752.64,140.085,8466.83,-0.983987,-0.0810675,-1.70425,916.079,9453.25,-2338.51,-1.10524,-9.33707,0.290152,812.565,-9895.84,-1561.66,-2.67289,1.73603,0.0346371,-1515.77,9713.7,-263.811,1.38358,-6.35509,0.00587054,1223.57,-9766.08,-1998.15,-8.36516,7.23509,4.51647,8814.16,-720.751,4181.01,-9.07534,1.81805,-6.66429
0.051,4974.91,-1998.73,8113.83,4.08347,1.19391,-0.0359072,4755.74,147.826,8457.08,-1.03095,-0.124314,-1.61574,930.628,9454.43,-2332.83,-1.15783,-9.21992,0.188304,800.853,-9858.99,-1546.64,-2.66937,1.67999,0.205536,-1536.15,9714.99,-269.073,1.27883,-6.31578,0.035114,1213.58,-9766.85,-1998.07,-8.32148,7.24517,4.41595,8789.68,-697.96,4165.28,-8.9888,1.82876,-6.63763
0.052,4977.09,-1996.55,8122.0,4.13897,1.16617,-0.112187,4758.85,155.567,8447.32,-1.07791,-0.167561,-1.52724,945.177,9455.6,-2327.14,-1.21042,-9.10278,0.0864567,789.142,-9822.14,-1531.63,-2.66585,1.62395,0.376435,-1556.54,9716.27,-274.335,1.17408,-6.27646,0.0643575,1203.6,-9767.62,-1997.99,-8.2778,7.25526,4.31544,8765.2,-675.17,4149.56,-8.90227,1.83947,-6.61098
0.053,4979.26,-1994.36,8130.15,4.19447,1.13844,-0.188467,4761.95,163.308,8437.56,-1.12487,-0.210807,-1.43873,959.727,9456.77,-2321.45,-1.26302,-8.98563,-0.015391,777.43,-9785.29,-1516.61,-2.66233,1.5679,0.547334,-1576.93,9717.56,-279.597,1.06932,-6.23715,0.0936009,1193.61,-9768.39,-1997.91,-8.23412,7.26535,4.21493,8740.72,-652.38,4133.83,-8.81573,1.85018,-6.58432
0.054,4980.7,-1982.59,8133.75,4.23975,1.14788,-0.251461,4766.07,162.216,8441.52,-1.22771,-0.26455,-1.40373,965.569,9462.94,-2312.83,-1.33436,-8.87602,-0.0590068,774.688,-9787.08,-1513.7,-2.67314,1.50552,0.748461,-1581.2,9714.86,-289.432,0.949513,-6.22404,0.15687,1172.77,-9772.62,-1980.61,-8.16369,7.27859,4.05758,8736.45,-636.234,4114.38,-8.79864,1.82349,-6.52079
0.055,4981.77,-1966.02,8135.06,4.27993,1.17591,-0.307811,4770.7,156.707,8452.34,-1.35848,-0.323542,-1.39548,967.057,9471.59,-2302.73,-1.41507,-8.77017,-0.0735065,776.43,-9808.2,-1516.83,-2.69112,1.43996,0.964703,-1577.43,9710.17,-301.554,0.822172,-6.22404,0.237151,1146.5,-9778.59,-1954.7,-8.07988,7.2934,3.8718,8742.28,-623.41,4093.06,-8.81627,1.7781,-6.43884
0.056,4982.83,-1949.45,8136.38,4.3201,1.20394,-0.364162,4775.33,151.199,8463.16,-1.48926,-0.382534,-1.38723,968.546,9480.25,-2292.64,-1.49579,-8.66432,-0.0880063,778.172,-9829.32,-1519.96,-2.7091,1.3744,1.18094,-1573.65,9705.47,-313.676,0.69483,-6.22404,0.317432,1120.23,-9784.55,-1928.79,-7.99607,7.30821,3.68603,8748.11,-610.587,4071.75,-8.8339,1.73272,-6.35689
0.057,4983.9,-1932.89,8137.69,4.36028,1.23198,-0.420512,4779.96,145.69,8473.98,-1.62003,-0.441525,-1.37899,970.035,9488.91,-2282.55,-1.5765,-8.55847,-0.102506,779.914,-9850.44,-1523.1,-2.72708,1.30885,1.39719,-1569.87,9700.78,-325.797,0.567489,-6.22404,0.397713,1093.96,-9790.52,-1902.89,-7.91227,7.32302,3.50026,8753.93,-597.763,4050.43,-8.85153,1.68734,-6.27494
0.058,4986.62,-1917.88,8140.5,4.38536,1.26142,-0.455426,4783.26,142.79,8481.13,-1.71871,-0.488191,-1.36029,971.46,9497.24,-2271.89,-1.64676,-8.44783,-0.134114,785.787,-9864.0,-1518.53,-2.71198,1.24063,1.57038,-1563.68,9694.14,-332.512,0.454966,-6.23093,0.490391,1071.07,-9798.19,-1889.21,-7.82353,7.32154,3.33188,8762.51,-585.539,4037.66,-8.87252,1.63353,-6.18542
0.059,4995.12,-1908.33,8148.5,4.35762,1.29581,-0.415309,4781.9,149.018,8475.45,-1.70506,-0.491715,-1.30499,972.663,9504.44,-2259.25,-1.68039,-8.32045,-0.225599,806.121,-9851.11,-1487.04,-2.58109,1.16313,1.5929,-1549.07,9680.69,-320.303,0.394306,-6.26194,0.626461,1060.03,-9811.81,-1918.36,-7.71754,7.26306,3.22436,8780.7,-575.415,4054.79,-8.90525,1.55028,-6.06943
0.06,5003.62,-1898.79,8156.51,4.32988,1.33021,-0.375192,4780.55,155.247,8469.78,-1.69141,-0.495239,-1.24969,973.865,9511.64,-2246.62,-1.71403,-8.19306,-0.317084,826.454,-9838.22,-1455.54,-2.4502,1.08562,1.61541,-1534.47,9667.24,-308.094,0.333646,-6.29295,0.76253,1048.98,-9825.43,-1947.5,-7.61155,7.20458,3.11685,8798.89,-565.29,4071.92,-8.93798,1.46702,-5.95344
0.061,5012.12,-1889.24,8164.52,4.30213,1.3646,-0.335075,4779.2,161.476,8464.1,-1.67776,-0.498763,-1.19439,975.068,9518.83,-2233.98,-1.74767,-8.06567,-0.408569,846.787,-9825.33,-1424.05,-2.31932,1.00812,1.63793,-1519.86,9653.79,-295.885,0.272986,-6.32396,0.898599,1037.93,-9839.05,-1976.64,-7.50556,7.1461,3.00933,8817.07,-555.166,4089.05,-8.97071,1.38376,-5.83745
0.062,5020.62,-1879.7,8172.52,4.27439,1.39899,-0.294958,4777.85,167.704,8458.43,-1.66411,-0.502288,-1.13909,976.271,9526.03,-2221.35,-1.7813,-7.93828,-0.500054,867.121,-9812.45,-1392.55,-2.18843,0.930613,1.66045,-1505.25,9640.34,-283.676,0.212327,-6.35498,1.03467,1026.88,-9852.67,-2005.79,-7.39957,7.08762,2.90182,8835.26,-545.042,4106.19,-9.00344,1.3005,-5.72146
0.063,5019.48,-1858.59,8165.1,4.34402,1.38812,-0.299769,4782.06,144.439,8461.55,-1.61538,-0.467812,-1.15196,973.493,9515.88,-2218.05,-1.83812,-7.82351,-0.613002,869.159,-9802.49,-1391.36,-2.188,0.940426,1.81639,-1495.57,9647.15,-274.531,0.223209,-6.44516,1.10514,1020.71,-9864.29,-2017.44,-7.3346,6.97396,2.81886,8846.02,-531.509,4118.22,-9.01821,1.21724,-5.59418
0.064,5015.58,-1834.17,8153.28,4.44147,1.36431,-0.317416,4787.86,112.747,8467.19,-1.55663,-0.422479,-1.1843,969.578,9500.76,-2217.42,-1.90156,-7.71235,-0.732083,865.969,-9793.37,-1398.83,-2.22484,0.975188,2.01046,-1487.3,9659.75,-266.261,0.254531,-6.55225,1.15686,1015.93,-9875.33,-2024.09,-7.28135,6.84455,2.74292,8854.66,-517.002,4128.79,-9.02784,1.13398,-5.46368
0.065,5011.68,-1809.75,8141.45,4.53892,1.34051,-0.335063,4793.65,81.0549,8472.82,-1.49787,-0.377147,-1.21664,965.662,9485.64,-2216.8,-1.965,-7.60118,-0.851164,862.78,-9784.24,-1406.29,-2.26169,1.00995,2.20452,-1479.03,9672.35,-257.991,0.285853,-6.65934,1.20859,1011.16,-9886.38,-2030.74,-7.22809,6.71513,2.66699,8863.3,-502.495,4139.37,-9.03747,1.05073,-5.33317
0.066,5007.78,-1785.33,8129.62,4.63637,1.3167,-0.35271,4799.45,49.3627,8478.46,-1.43912,-0.331814,-1.24899,961.747,9470.52,-2216.17,-2.02844,-7.49002,-0.970245,859.591,-9775.12,-1413.76,-2.29853,1.04471,2.39859,-1470.76,9684.94,-249.722,0.317176,-6.76644,1.26032,1006.38,-9897.43,-2037.39,-7.17484,6.58571,2.59105,8871.94,-487.988,4149.94,-9.0471,0.967468,-5.20267
0.067,4997.73,-1775.22,8118.72,4.70564,1.32775,-0.399564,4796.22,32.4545,8480.09,-1.42394,-0.311431,-1.25471,960.73,9461.12,-2214.81,-2.10406,-7.37885,-1.07259,855.841,-9762.29,-1421.94,-2.32067,1.04056,2.54912,-1471.47,9693.59,-247.907,0.318449,-6.85003,1.31639,1001.05,-9904.65,-2038.06,-7.11025,6.45842,2.48765,8877.45,-477.639,4157.36,-9.0591,0.864815,-5.06796
0.068,4975.37,-1793.72,8109.68,4.71854,1.40853,-0.504831,4774.93,45.1141,8473.72,-1.49592,-0.340948,-1.2072,965.512,9463.13,-2211.97,-2.20404,-7.26768,-1.14146,850.972,-9742.02,-1431.57,-2.3134,0.9586,2.61258,-1490.13,9694.33,-259.0,0.259625,-6.88661,1.38115,994.638,-9904.21,-2026.74,-7.02297,6.33536,2.32932,8876.69,-475.606,4158.48,-9.07582,0.723374,-4.92486
0.069,4953.01,-1812.22,8100.64,4.73145,1.4893,-0.610098,4753.64,57.7737,8467.35,-1.56789,-0.370465,-1.15969,970.293,9465.14,-2209.13,-2.30403,-7.15652,-1.21033,846.104,-9721.75,-1441.2,-2.30612,0.876636,2.67604,-1508.79,9695.07,-270.094,0.200802,-6.9232,1.44591,988.224,-9903.78,-2015.42,-6.9357,6.2123,2.17099,8875.92,-473.573,4159.59,-9.09253,0.581932,-4.78175
0.07,4930.65,-1830.72,8091.6,4.74435,1.57007,-0.715365,4732.35,70.4332,8460.98,-1.63986,-0.399981,-1.11218,975.075,9467.14,-2206.29,-2.40401,-7.04535,-1.2792,841.235,-9701.49,-1450.84,-2.29885,0.794672,2.7395,-1527.44,9695.8,-281.188,0.141978,-6.95979,1.51067,981.809,-9903.34,-2004.11,-6.84843,6.08925,2.01266,8875.16,-471.539,4160.7,-9.10925,0.440491,-4.63864
0.071,4908.29,-1849.23,8082.55,4.75726,1.65085,-0.820632,4711.06,83.0928,8454.61,-1.71184,-0.429498,-1.06467,979.857,9469.15,-2203.45,-2.504,-6.93419,-1.34808,836.366,-9681.22,-1460.47,-2.29158,0.712708,2.80296,-1546.1,9696.54,-292.282,0.0831541,-6.99637,1.57543,975.394,-9902.91,-1992.79,-6.76115,5.96619,1.85433,8874.4,-469.506,4161.82,-9.12597,0.29905,-4.49554
0.072,4922.83,-1864.92,8080.52,4.71824,1.7088,-0.855721,4704.11,94.3275,8476.97,-1.74199,-0.434312,-0.995073,955.069,9476.25,-2203.87,-2.49921,-6.84536,-1.4292,814.57,-9700.23,-1467.15,-2.12888,0.697375,2.94389,-1573.41,9688.08,-301.53,0.0130594,-6.93756,1.5956,970.999,-9918.56,-1992.58,-6.69909,5.87399,1.67177,8863.67,-490.614,4146.11,-9.05628,0.163442,-4.46237
0.073,4941.99,-1880.26,8079.36,4.67274,1.7639,-0.882039,4698.94,105.384,8502.92,-1.76691,-0.43604,-0.922711,926.585,9483.99,-2204.7,-2.48133,-6.75933,-1.51185,790.658,-9724.14,-1473.48,-1.94675,0.690372,3.0945,-1601.8,9678.46,-310.548,-0.0584441,-6.86682,1.61021,966.856,-9936.21,-1993.75,-6.64018,5.78564,1.48619,8851.69,-514.613,4128.29,-8.9758,0.0285622,-4.44294
0.074,4961.15,-1895.6,8078.2,4.62723,1.819,-0.908356,4693.78,116.441,8528.87,-1.79183,-0.437767,-0.850349,898.101,9491.73,-2205.52,-2.46345,-6.6733,-1.59451,766.747,-9748.05,-1479.8,-1.76462,0.683368,3.24511,-1630.19,9668.84,-319.565,-0.129948,-6.79608,1.62482,962.713,-9953.87,-1994.93,-6.58127,5.69729,1.3006,8839.71,-538.613,4110.48,-8.89532,-0.106317,-4.42352
0.075,4980.3,-1910.95,8077.04,4.58173,1.87409,-0.934674,4688.62,127.497,8554.82,-1.81675,-0.439494,-0.777987,869.618,9499.47,-2206.35,-2.44557,-6.58727,-1.67716,742.835,-9771.96,-1486.12,-1.58249,0.676364,3.39572,-1658.57,9659.22,-328.582,-0.201451,-6.72535,1.63943,958.57,-9971.53,-1996.11,-6.52236,5.60894,1.11501,8827.74,-562.613,4092.66,-8.81483,-0.241197,-4.40409
0.076,4998.08,-1914.41,8084.63,4.54031,1.90504,-0.910445,4694.29,134.162,8562.57,-1.81613,-0.415002,-0.735954,849.984,9503.07,-2208.45,-2.45658,-6.50904,-1.79698,736.381,-9788.18,-1477.12,-1.50907,0.682245,3.51944,-1678.78,9658.84,-327.893,-0.247568,-6.68237,1.65641,950.881,-9965.69,-2001.81,-6.45932,5.49064,0.911539,8814.11,-590.411,4086.05,-8.72376,-0.308148,-4.32317
0.077,5014.12,-1903.03,8103.17,4.50402,1.90581,-0.823032,4713.5,135.338,8547.57,-1.78357,-0.357738,-0.73183,841.413,9501.52,-2212.16,-2.50373,-6.44055,-1.96326,751.749,-9794.78,-1448.98,-1.57156,0.704233,3.60953,-1688.77,9670.0,-315.072,-0.261951,-6.67409,1.67636,938.757,-9930.49,-2013.18,-6.39113,5.33488,0.685701,8798.43,-622.957,4093.43,-8.61944,-0.29019,-4.16539
0.078,5030.16,-1891.66,8121.71,4.46772,1.90657,-0.735619,4732.71,136.513,8532.56,-1.75101,-0.300473,-0.727706,832.841,9499.96,-2215.86,-2.55087,-6.37207,-2.12953,767.117,-9801.38,-1420.83,-1.63404,0.72622,3.69963,-1698.76,9681.16,-302.25,-0.276334,-6.66582,1.69631,926.634,-9895.29,-2024.54,-6.32294,5.17913,0.459864,8782.75,-655.503,4100.82,-8.51512,-0.272231,-4.00761
0.079,5046.21,-1880.28,8140.24,4.43143,1.90733,-0.648206,4751.92,137.688,8517.56,-1.71844,-0.243209,-0.723583,824.27,9498.41,-2219.56,-2.59801,-6.30359,-2.29581,782.485,-9807.97,-1392.69,-1.69653,0.748207,3.78973,-1708.75,9692.32,-289.429,-0.290717,-6.65755,1.71626,914.51,-9860.09,-2035.91,-6.25474,5.02338,0.234026,8767.07,-688.048,4108.2,-8.4108,-0.254273,-3.84982
0.08,5062.25,-1868.9,8158.78,4.39513,1.90809,-0.560793,4771.13,138.864,8502.55,-1.68588,-0.185944,-0.719459,815.699,9496.85,-2223.27,-2.64515,-6.23511,-2.46209,797.853,-9814.57,-1364.54,-1.75901,0.770194,3.87982,-1718.74,9703.47,-276.607,-0.3051,-6.64927,1.73621,902.387,-9824.9,-2047.27,-6.18654,4.86763,0.00818875,8751.39,-720.594,4115.59,-8.30649,-0.236315,-3.69204
0.081,5067.25,-1871.86,8175.71,4.37736,1.92391,-0.560933,4776.95,149.197,8520.57,-1.76504,-0.171566,-0.67844,812.845,9505.16,-2218.59,-2.74771,-6.18481,-2.49187,792.037,-9819.25,-1362.98,-1.75633,0.724531,4.02131,-1725.2,9686.57,-269.285,-0.251005,-6.69724,1.82506,889.284,-9820.92,-2053.87,-6.06167,4.81134,-0.122092,8756.94,-738.632,4122.01,-8.26884,-0.27925,-3.58371
0.082,5072.24,-1874.82,8192.64,4.35959,1.93973,-0.561073,4782.78,159.531,8538.59,-1.84421,-0.157187,-0.637422,809.99,9513.46,-2213.92,-2.85026,-6.13452,-2.52165,786.221,-9823.93,-1361.41,-1.75365,0.678868,4.1628,-1731.67,9669.67,-261.963,-0.196911,-6.74521,1.91392,876.18,-9816.94,-2060.46,-5.9368,4.75505,-0.252373,8762.48,-756.67,4128.43,-8.23119,-0.322186,-3.47537
0.083,5077.23,-1877.78,8209.57,4.34182,1.95555,-0.561213,4788.6,169.864,8556.61,-1.92337,-0.142809,-0.596403,807.135,9521.77,-2209.24,-2.95282,-6.08422,-2.55144,780.405,-9828.62,-1359.84,-1.75097,0.633204,4.30429,-1738.14,9652.76,-254.641,-0.142816,-6.79318,2.00278,863.076,-9812.96,-2067.06,-5.81192,4.69875,-0.382653,8768.03,-774.708,4134.85,-8.19355,-0.365122,-3.36704
0.084,5082.22,-1880.74,8226.51,4.32406,1.97137,-0.561353,4794.43,180.198,8574.63,-2.00253,-0.12843,-0.555384,804.281,9530.07,-2204.57,-3.05538,-6.03393,-2.58122,774.589,-9833.3,-1358.27,-1.74828,0.587541,4.44578,-1744.61,9635.85,-247.319,-0.0887213,-6.84114,2.09163,849.972,-9808.98,-2073.66,-5.68705,4.64246,-0.512934,8773.58,-792.745,4141.27,-8.1559,-0.408057,-3.2587
0.085,5084.86,-1878.9,8230.06,4.36171,1.96172,-0.603856,4796.66,172.207,8585.03,-2.03764,-0.085062,-0.537192,805.219,9533.27,-2198.97,-3.11411,-5.96995,-2.58297,770.991,-9835.19,-1366.85,-1.7138,0.548472,4.53684,-1750.21,9627.0,-247.378,-0.0413493,-6.84363,2.16984,842.997,-9814.98,-2083.74,-5.64291,4.5835,-0.61463,8776.31,-796.945,4142.85,-8.11064,-0.42714,-3.14848
0.086,5085.62,-1873.21,8222.91,4.4437,1.9317,-0.680248,4796.0,149.557,8589.35,-2.0375,-0.0185015,-0.537262,809.19,9532.37,-2192.64,-3.13777,-5.89501,-2.56229,769.169,-9834.85,-1383.53,-1.65386,0.514678,4.58756,-1755.12,9624.58,-253.341,0.000644465,-6.80973,2.23951,840.923,-9828.96,-2096.6,-5.66335,4.5224,-0.69346,8776.78,-790.075,4140.55,-8.05928,-0.42714,-3.03675
0.087,5086.38,-1867.52,8215.76,4.5257,1.90167,-0.75664,4795.35,126.907,8593.66,-2.03736,0.048059,-0.537332,813.162,9531.48,-2186.3,-3.16143,-5.82008,-2.54161,767.347,-9834.51,-1400.22,-1.59393,0.480885,4.63828,-1760.04,9622.17,-259.303,0.0426383,-6.77583,2.30919,838.849,-9842.95,-2109.45,-5.68379,4.4613,-0.772289,8777.25,-783.205,4138.25,-8.00792,-0.42714,-2.92503
0.088,5087.15,-1861.83,8208.61,4.60769,1.87165,-0.833031,4794.69,104.256,8597.98,-2.03722,0.11462,-0.537402,817.133,9530.58,-2179.97,-3.18509,-5.74514,-2.52093,765.525,-9834.17,-1416.9,-1.53399,0.447091,4.68901,-1764.95,9619.75,-265.266,0.0846321,-6.74193,2.37887,836.776,-9856.93,-2122.31,-5.70424,4.4002,-0.851118,8777.72,-776.335,4135.95,-7.95656,-0.42714,-2.8133
0.089,5086.28,-1855.94,8201.38,4.67464,1.84217,-0.905559,4793.21,84.3363,8598.44,-2.05021,0.169312,-0.530282,818.967,9528.76,-2173.85,-3.2123,-5.66541,-2.50101,763.51,-9833.06,-1432.14,-1.48283,0.405598,4.73622,-1769.87,9618.12,-270.62,0.120436,-6.69953,2.43226,833.429,-9868.92,-2132.73,-5.72262,4.33509,-0.925152,8777.12,-768.898,4135.37,-7.89705,-0.42776,-2.69772
0.09,5072.37,-1848.44,8193.47,4.62126,1.81699,-0.947175,4785.08,86.2567,8568.11,-2.16828,0.129063,-0.465638,803.699,9519.49,-2169.49,-3.26789,-5.5473,-2.48712,759.961,-9825.79,-1435.77,-1.50186,0.302507,4.75538,-1774.79,9622.74,-271.097,0.106725,-6.58905,2.35542,819.895,-9864.99,-2123.57,-5.7245,4.23785,-0.960822,8767.93,-756.933,4148.6,-7.77233,-0.433343,-2.55131
0.091,5058.46,-1840.94,8185.57,4.56787,1.79181,-0.98879,4776.96,88.1771,8537.78,-2.28636,0.0888131,-0.400995,788.43,9510.22,-2165.13,-3.32348,-5.42918,-2.47322,756.412,-9818.51,-1439.4,-1.52089,0.199417,4.77454,-1779.71,9627.35,-271.573,0.0930135,-6.47858,2.27858,806.362,-9861.05,-2114.42,-5.72639,4.14061,-0.996491,8758.74,-744.967,4161.83,-7.6476,-0.438926,-2.4049
0.092,5044.55,-1833.44,8177.67,4.51449,1.76663,-1.03041,4768.83,90.0975,8507.45,-2.40443,0.0485635,-0.336352,773.161,9500.96,-2160.77,-3.37908,-5.31107,-2.45933,752.863,-9811.24,-1443.03,-1.53992,0.0963266,4.7937,-1784.64,9631.97,-272.05,0.079302,-6.36811,2.20173,792.828,-9857.12,-2105.26,-5.72827,4.04337,-1.03216,8749.56,-733.002,4175.06,-7.52288,-0.44451,-2.2585
0.093,5030.64,-1825.94,8169.76,4.46111,1.74145,-1.07202,4760.7,92.018,8477.12,-2.5225,0.00831397,-0.271709,757.893,9491.69,-2156.41,-3.43467,-5.19296,-2.44543,749.314,-9803.97,-1446.66,-1.55894,-0.00676373,4.81285,-1789.56,9636.59,-272.527,0.0655905,-6.25764,2.12489,779.294,-9853.18,-2096.11,-5.73015,3.94614,-1.06783,8740.37,-721.037,4188.28,-7.39815,-0.450093,-2.11209
0.094,5016.72,-1833.8,8168.6,4.41037,1.73496,-1.10806,4769.85,87.914,8466.09,-2.51232,-0.0437115,-0.285428,738.735,9483.91,-2160.81,-3.44987,-5.15989,-2.474,737.033,-9801.19,-1453.92,-1.53447,-0.0499922,4.83191,-1795.14,9623.68,-262.029,0.098874,-6.14179,2.13026,781.775,-9837.43,-2086.13,-5.73532,3.92647,-1.09545,8737.73,-706.744,4182.38,-7.34309,-0.526144,-2.05123
0.095,5002.79,-1849.33,8170.81,4.36095,1.7378,-1.14132,4787.64,80.7978,8464.71,-2.438,-0.101625,-0.338328,717.633,9476.87,-2169.58,-3.44487,-5.16934,-2.5238,720.387,-9800.66,-1462.98,-1.48824,-0.0632898,4.85091,-1801.04,9602.01,-246.043,0.155655,-6.02325,2.17674,792.263,-9815.78,-2075.74,-5.74213,3.9456,-1.11903,8738.36,-691.288,4166.9,-7.32286,-0.63743,-2.03314
0.096,4988.86,-1864.87,8173.01,4.31153,1.74065,-1.17457,4805.43,73.6816,8463.33,-2.36368,-0.159539,-0.391229,696.531,9469.83,-2178.36,-3.43987,-5.17879,-2.5736,703.74,-9800.12,-1472.05,-1.44202,-0.0765874,4.86991,-1806.95,9580.35,-230.058,0.212436,-5.90472,2.22322,802.75,-9794.12,-2065.36,-5.74895,3.96473,-1.14262,8738.99,-675.832,4151.42,-7.30264,-0.748715,-2.01506
0.097,4974.94,-1880.4,8175.22,4.26211,1.7435,-1.20783,4823.22,66.5654,8461.95,-2.28936,-0.217452,-0.444129,675.428,9462.79,-2187.13,-3.43487,-5.18823,-2.62341,687.094,-9799.59,-1481.12,-1.39579,-0.089885,4.88891,-1812.85,9558.68,-214.072,0.269217,-5.78618,2.2697,813.238,-9772.46,-2054.97,-5.75576,3.98385,-1.16621,8739.63,-660.376,4135.94,-7.28241,-0.860001,-1.99697
0.098,4959.72,-1888.3,8176.46,4.22039,1.73935,-1.25119,4836.57,61.0121,8459.34,-2.25476,-0.244265,-0.473199,662.997,9454.18,-2194.1,-3.43643,-5.17822,-2.6789,673.558,-9804.1,-1490.93,-1.35015,-0.104033,4.9377,-1817.66,9540.75,-202.877,0.334782,-5.67297,2.3341,818.816,-9753.17,-2042.93,-5.76066,3.99226,-1.20607,8740.5,-648.016,4122.07,-7.25858,-0.985084,-1.95656
0.099,4939.98,-1869.48,8174.31,4.20562,1.71071,-1.32995,4834.42,60.929,8452.38,-2.35917,-0.162229,-0.418861,680.914,9440.06,-2194.72,-3.46098,-5.10009,-2.75433,670.912,-9826.25,-1503.35,-1.30656,-0.121155,5.09079,-1818.66,9535.91,-208.445,0.431095,-5.57839,2.46126,807.211,-9742.17,-2025.1,-5.75886,3.96313,-1.30286,8742.24,-646.491,4113.8,-7.22218,-1.15846,-1.83804
0.1,4920.25,-1850.66,8172.17,4.19085,1.68207,-1.40871,4832.27,60.8459,8445.42,-2.46359,-0.0801923,-0.364523,698.831,9425.94,-2195.34,-3.48553,-5.02195,-2.82976,668.266,-9848.4,-1515.77,-1.26297,-0.138277,5.24387,-1819.65,9531.07,-214.014,0.527407,-5.48381,2.58842,795.605,-9731.16,-2007.27,-5.75707,3.93399,-1.39965,8743.97,-644.965,4105.54,-7.18578,-1.33184,-1.71952
0.101,4900.51,-1831.83,8170.03,4.17608,1.65343,-1.48747,4830.11,60.7628,8438.46,-2.568,0.00184427,-0.310185,716.748,9411.82,-2195.96,-3.51008,-4.94382,-2.90519,665.619,-9870.55,-1528.19,-1.21939,-0.155399,5.39695,-1820.65,9526.23,-219.583,0.623719,-5.38923,2.71559,784.0,-9720.16,-1989.44,-5.75528,3.90486,-1.49644,8745.7,-643.44,4097.28,-7.14938,-1.50521,-1.60101
0.102,4880.78,-1813.01,8167.89,4.16132,1.62479,-1.56623,4827.96,60.6796,8431.5,-2.67241,0.0838809,-0.255847,734.666,9397.7,-2196.58,-3.53463,-4.86568,-2.98061,662.973,-9892.71,-1540.61,-1.1758,-0.172521,5.55003,-1821.65,9521.38,-225.151,0.720032,-5.29465,2.84275,772.394,-9709.15,-1971.62,-5.75348,3.87573,-1.59324,8747.43,-641.914,4089.01,-7.11298,-1.67859,-1.48249
0.103,4873.07,-1822.75,8157.79,4.13239,1.64251,-1.52885,4824.39,73.653,8431.52,-2.70609,0.125278,-0.251149,744.851,9389.68,-2200.84,-3.59639,-4.74066,-2.98848,655.233,-9895.96,-1548.83,-1.14141,-0.226557,5.59785,-1825.94,9535.56,-233.362,0.714916,-5.25842,2.87545,758.029,-9721.05,-1976.15,-5.7189,3.90876,-1.66522,8732.73,-658.304,4089.46,-7.03018,-1.76171,-1.30321
0.104,4868.79,-1840.66,8145.42,4.09942,1.67347,-1.45828,4820.41,90.3567,8433.55,-2.71956,0.155064,-0.260634,752.827,9383.41,-2206.14,-3.66878,-4.60224,-2.97704,646.039,-9893.81,-1555.85,-1.10964,-0.29114,5.61561,-1831.17,9555.16,-242.329,0.680821,-5.23886,2.88117,742.876,-9739.49,-1987.07,-5.67495,3.95955,-1.73012,8713.34,-679.813,4092.38,-6.93411,-1.81904,-1.10657
0.105,4864.52,-1858.57,8133.05,4.06645,1.70443,-1.38772,4816.44,107.06,8435.57,-2.73303,0.18485,-0.270119,760.803,9377.14,-2211.44,-3.74118,-4.46382,-2.9656,636.844,-9891.67,-1562.87,-1.07788,-0.355722,5.63336,-1836.41,9574.77,-251.295,0.646726,-5.2193,2.88689,727.722,-9757.94,-1997.99,-5.631,4.01033,-1.79502,8693.95,-701.321,4095.31,-6.83805,-1.87638,-0.909939
0.106,4860.24,-1876.47,8120.69,4.03348,1.73539,-1.31715,4812.46,123.764,8437.6,-2.74651,0.214636,-0.279604,768.779,9370.87,-2216.75,-3.81357,-4.32541,-2.95416,627.649,-9889.52,-1569.89,-1.04612,-0.420305,5.65111,-1841.64,9594.37,-260.262,0.612631,-5.19974,2.89261,712.569,-9776.38,-2008.91,-5.58704,4.06112,-1.85992,8674.56,-722.83,4098.24,-6.74199,-1.93371,-0.713303
0.107,4861.31,-1886.26,8113.34,3.98761,1.75741,-1.2305,4813.31,140.503,8436.11,-2.75477,0.262495,-0.244493,769.198,9371.98,-2216.54,-3.84882,-4.22685,-2.9589,626.163,-9885.51,-1571.58,-1.02853,-0.47629,5.66428,-1846.03,9605.16,-268.311,0.605708,-5.15697,2.89924,694.306,-9786.57,-2024.45,-5.54262,4.0663,-1.92386,8663.33,-735.754,4096.93,-6.66407,-2.00432,-0.530319
0.108,4873.07,-1879.83,8116.02,3.91593,1.76156,-1.11168,4823.82,157.313,8427.62,-2.75261,0.346499,-0.120191,754.5,9387.85,-2205.31,-3.8098,-4.208,-2.99601,640.095,-9877.75,-1562.62,-1.0393,-0.51508,5.66825,-1848.72,9598.33,-274.526,0.653129,-5.06777,2.9077,669.822,-9780.27,-2049.23,-5.49723,3.98027,-1.9859,8668.41,-731.512,4087.15,-6.62241,-2.10149,-0.374639
0.109,4884.83,-1873.4,8118.71,3.84425,1.7657,-0.992851,4834.32,174.122,8419.12,-2.75045,0.430503,0.00411217,739.802,9403.73,-2194.08,-3.77077,-4.18915,-3.03311,654.028,-9870.0,-1553.66,-1.05007,-0.55387,5.67222,-1851.42,9591.49,-280.742,0.70055,-4.97857,2.91616,645.338,-9773.96,-2074.01,-5.45185,3.89423,-2.04794,8673.5,-727.27,4077.36,-6.58075,-2.19865,-0.218958
0.11,4896.58,-1866.96,8121.4,3.77257,1.76985,-0.874027,4844.82,190.932,8410.62,-2.7483,0.514507,0.128415,725.104,9419.6,-2182.85,-3.73175,-4.1703,-3.07022,667.96,-9862.25,-1544.7,-1.06084,-0.592659,5.6762,-1854.11,9584.65,-286.957,0.74797,-4.88936,2.92462,620.855,-9767.65,-2098.79,-5.40647,3.8082,-2.10997,8678.58,-723.027,4067.57,-6.53909,-2.29582,-0.063278
0.111,4908.34,-1860.53,8124.09,3.70089,1.774,-0.755203,4855.33,207.742,8402.12,-2.74614,0.59851,0.252718,710.407,9435.48,-2171.62,-3.69272,-4.15145,-3.10732,681.892,-9854.49,-1535.74,-1.0716,-0.631449,5.68017,-1856.81,9577.81,-293.173,0.795391,-4.80016,2.93307,596.371,-9761.35,-2123.57,-5.36108,3.72216,-2.17201,8683.66,-718.785,4057.78,-6.49743,-2.39298,0.0924025
0.112,4930.32,-1849.76,8137.87,3.7098,1.79303,-0.779137,4840.07,196.086,8403.05,-2.7459,0.620519,0.254948,714.118,9451.75,-2158.35,-3.72444,-4.14936,-3.16038,685.98,-9851.01,-1527.15,-1.04426,-0.599959,5.73752,-1852.19,9556.94,-303.612,0.817538,-4.6359,2.97874,610.057,-9776.64,-2125.52,-5.34658,3.62275,-2.28661,8692.41,-711.735,4066.45,-6.46713,-2.48441,0.153423
0.113,4953.58,-1838.45,8153.03,3.72877,1.81392,-0.820916,4821.6,180.872,8405.16,-2.7459,0.634779,0.241919,720.129,9468.07,-2144.82,-3.765,-4.14936,-3.21542,688.838,-9848.06,-1518.6,-1.01216,-0.559684,5.80154,-1846.66,9534.32,-314.58,0.836527,-4.46226,3.02906,628.514,-9794.64,-2124.62,-5.33594,3.52166,-2.40778,8701.62,-704.333,4077.43,-6.43824,-2.57511,0.202611
0.114,4976.84,-1827.14,8168.2,3.74775,1.83481,-0.862695,4803.12,165.658,8407.27,-2.7459,0.649038,0.228891,726.141,9484.38,-2131.29,-3.80556,-4.14936,-3.27047,691.696,-9845.11,-1510.05,-0.980051,-0.519409,5.86556,-1841.13,9511.7,-325.547,0.855515,-4.28862,3.07938,646.971,-9812.63,-2123.72,-5.3253,3.42058,-2.52896,8710.83,-696.932,4088.41,-6.40936,-2.66582,0.251799
0.115,5000.1,-1815.83,8183.36,3.76673,1.8557,-0.904474,4784.65,150.444,8409.38,-2.7459,0.663298,0.215862,732.153,9500.7,-2117.76,-3.84612,-4.14936,-3.32552,694.555,-9842.17,-1501.5,-0.947946,-0.479134,5.92958,-1835.61,9489.08,-336.515,0.874503,-4.11498,3.1297,665.428,-9830.63,-2122.82,-5.31465,3.31949,-2.65013,8720.03,-689.53,4099.38,-6.38048,-2.75653,0.300987
0.116,5013.27,-1813.4,8194.3,3.74976,1.83552,-0.964911,4775.41,139.889,8409.15,-2.79363,0.644704,0.259099,740.196,9515.31,-2114.2,-3.89511,-4.10698,-3.36316,692.663,-9835.8,-1495.05,-0.947287,-0.451834,5.95639,-1830.71,9476.17,-340.687,0.898406,-3.91812,3.1782,666.637,-9842.1,-2129.68,-5.26205,3.22162,-2.80253,8731.76,-692.254,4101.75,-6.35217,-2.81267,0.37842
0.117,5013.8,-1822.07,8199.95,3.68784,1.764,-1.04867,4777.72,135.158,8406.01,-2.90102,0.585044,0.372667,750.779,9527.78,-2123.08,-3.95465,-4.01164,-3.37905,684.836,-9825.17,-1491.23,-0.985935,-0.440753,5.93668,-1826.59,9475.41,-336.366,0.928451,-3.69223,3.22444,646.288,-9845.41,-2146.25,-5.157,3.12777,-2.99397,8746.63,-707.634,4093.35,-6.32459,-2.8256,0.491158
0.118,5014.34,-1830.73,8205.6,3.62593,1.69249,-1.13243,4780.03,130.427,8402.87,-3.0084,0.525384,0.486235,761.362,9540.25,-2131.96,-4.01419,-3.91629,-3.39495,677.008,-9814.54,-1487.42,-1.02458,-0.429673,5.91697,-1822.48,9474.64,-332.044,0.958496,-3.46635,3.27067,625.938,-9848.73,-2162.82,-5.05195,3.03392,-3.1854,8761.5,-723.015,4084.95,-6.297,-2.83852,0.603896
0.119,5014.88,-1839.4,8211.25,3.56402,1.62098,-1.21619,4782.33,125.695,8399.72,-3.11579,0.465724,0.599804,771.944,9552.72,-2140.85,-4.07372,-3.82094,-3.41084,669.18,-9803.91,-1483.6,-1.06323,-0.418593,5.89726,-1818.37,9473.88,-327.722,0.988541,-3.24047,3.31691,605.589,-9852.05,-2179.38,-4.9469,2.94007,-3.37684,8776.38,-738.395,4076.55,-6.26942,-2.85145,0.716634
0.12,5015.42,-1848.07,8216.9,3.5021,1.54946,-1.29995,4784.64,120.964,8396.58,-3.22318,0.406064,0.713372,782.527,9565.19,-2149.73,-4.13326,-3.7256,-3.42673,661.352,-9793.27,-1479.78,-1.10188,-0.407512,5.87755,-1814.25,9473.12,-323.4,1.01859,-3.01459,3.36314,585.239,-9855.37,-2195.95,-4.84185,2.84622,-3.56827,8791.25,-753.775,4068.15,-6.24183,-2.86438,0.829372
0.121,4995.49,-1844.85,8210.39,3.43709,1.58581,-1.14818,4801.57,139.597,8426.28,-3.19115,0.372973,0.646984,797.987,9565.36,-2148.17,-4.08572,-3.55074,-3.38962,686.057,-9797.03,-1481.33,-1.10434,-0.42069,5.85118,-1829.76,9477.2,-322.637,0.959378,-2.82929,3.37529,588.938,-9844.06,-2185.87,-4.70294,2.70631,-3.61664,8786.52,-755.32,4052.08,-6.10307,-2.89213,0.937694
0.122,4975.55,-1841.63,8203.88,3.37209,1.62215,-0.996406,4818.49,158.229,8455.98,-3.15912,0.339882,0.580596,813.447,9565.52,-2146.62,-4.03818,-3.37588,-3.35252,710.763,-9800.78,-1482.88,-1.1068,-0.433869,5.82482,-1845.27,9481.28,-321.873,0.900169,-2.644,3.38743,592.638,-9832.75,-2175.79,-4.56403,2.56641,-3.66501,8781.79,-756.865,4036.0,-5.9643,-2.91989,1.04602
0.123,4955.62,-1838.42,8197.38,3.30708,1.65849,-0.844634,4835.41,176.862,8485.68,-3.12709,0.306791,0.514208,828.907,9565.69,-2145.06,-3.99063,-3.20102,-3.31542,735.468,-9804.53,-1484.43,-1.10926,-0.447047,5.79845,-1860.78,9485.36,-321.109,0.84096,-2.4587,3.39958,596.337,-9821.44,-2165.7,-4.42512,2.42651,-3.71338,8777.05,-758.41,4019.93,-5.82554,-2.94764,1.15434
0.124,4935.68,-1835.2,8190.87,3.24207,1.69484,-0.692862,4852.34,195.495,8515.38,-3.09506,0.2737,0.44782,844.367,9565.86,-2143.51,-3.94309,-3.02616,-3.27832,760.173,-9808.29,-1485.98,-1.11172,-0.460226,5.77208,-1876.28,9489.43,-320.345,0.781751,-2.27341,3.41172,600.036,-9810.13,-2155.62,-4.28621,2.2866,-3.76174,8772.32,-759.955,4003.86,-5.68678,-2.97539,1.26266
0.125,4934.52,-1832.81,8189.06,3.20296,1.71278,-0.608929,4855.27,191.973,8513.94,-3.15148,0.297701,0.41179,851.226,9561.06,-2137.96,-3.92459,-2.86188,-3.27989,770.815,-9816.12,-1475.91,-1.11489,-0.407778,5.78401,-1897.75,9498.29,-316.839,0.686008,-2.15687,3.40836,601.795,-9810.58,-2154.74,-4.16534,2.25985,-3.83137,8763.27,-754.156,3997.17,-5.56303,-2.98437,1.36357
0.126,4948.37,-1831.09,8191.01,3.18458,1.716,-0.579266,4847.0,170.727,8487.58,-3.27866,0.367375,0.400047,851.203,9552.29,-2129.21,-3.92931,-2.70607,-3.31241,770.208,-9827.21,-1456.54,-1.11864,-0.30283,5.82656,-1923.99,9510.98,-311.137,0.56104,-2.09535,3.3926,602.002,-9820.44,-2161.22,-4.05892,2.32361,-3.91799,8750.75,-742.482,3997.97,-5.4513,-2.97833,1.45854
0.127,4962.22,-1829.37,8192.96,3.16619,1.71921,-0.549604,4838.73,149.482,8461.23,-3.40583,0.437049,0.388303,851.181,9543.52,-2120.46,-3.93404,-2.55026,-3.34493,769.6,-9838.3,-1437.16,-1.12238,-0.197882,5.86911,-1950.22,9523.67,-305.436,0.436071,-2.03382,3.37684,602.208,-9830.31,-2167.7,-3.95249,2.38737,-4.00462,8738.24,-730.808,3998.78,-5.33957,-2.9723,1.55352
0.128,4976.07,-1827.65,8194.91,3.1478,1.72243,-0.519941,4830.46,128.236,8434.88,-3.53301,0.506724,0.376559,851.159,9534.75,-2111.72,-3.93877,-2.39445,-3.37744,768.992,-9849.39,-1417.79,-1.12612,-0.092934,5.91167,-1976.45,9536.35,-299.735,0.311102,-1.9723,3.36108,602.414,-9840.17,-2174.17,-3.84606,2.45113,-4.09124,8725.72,-719.135,3999.59,-5.22784,-2.96626,1.64849
0.129,4989.65,-1823.55,8194.68,3.12781,1.72018,-0.501767,4820.82,109.226,8413.27,-3.63157,0.558769,0.36612,848.785,9527.06,-2104.02,-3.94191,-2.24708,-3.40463,765.648,-9859.74,-1400.97,-1.13219,0.0159873,5.95741,-1998.74,9545.53,-295.189,0.195405,-1.89032,3.34665,604.126,-9847.49,-2180.84,-3.73577,2.51437,-4.17204,8715.8,-707.673,4001.87,-5.10316,-2.96854,1.74605
0.13,5001.09,-1800.38,8176.95,3.09494,1.67419,-0.575499,4800.18,108.099,8429.62,-3.50121,0.469785,0.36612,827.597,9528.0,-2104.77,-3.9324,-2.16723,-3.38913,740.408,-9864.19,-1404.6,-1.1569,0.156694,6.02867,-1989.39,9526.65,-299.886,0.153881,-1.64468,3.34295,617.876,-9834.52,-2188.97,-3.59458,2.57345,-4.20624,8726.68,-697.909,4016.02,-4.87489,-3.03739,1.8643
0.131,5012.54,-1777.22,8159.23,3.06207,1.6282,-0.649231,4779.55,106.972,8445.96,-3.37085,0.380801,0.36612,806.409,9528.93,-2105.52,-3.92289,-2.08738,-3.37363,715.168,-9868.64,-1408.23,-1.18161,0.2974,6.09992,-1980.04,9507.77,-304.583,0.112356,-1.39904,3.33925,631.626,-9821.55,-2197.11,-3.45338,2.63253,-4.24044,8737.56,-688.145,4030.17,-4.64663,-3.10625,1.98255
0.132,5023.98,-1754.05,8141.51,3.0292,1.58221,-0.722964,4758.91,105.845,8462.3,-3.24049,0.291817,0.36612,785.221,9529.87,-2106.26,-3.91337,-2.00753,-3.35814,689.928,-9873.09,-1411.86,-1.20632,0.438107,6.17118,-1970.69,9488.9,-309.279,0.0708319,-1.1534,3.33554,645.376,-9808.58,-2205.24,-3.31218,2.69162,-4.27464,8748.44,-678.381,4044.31,-4.41836,-3.1751,2.1008
0.133,5035.42,-1730.89,8123.79,2.99633,1.53623,-0.796696,4738.28,104.717,8478.65,-3.11013,0.202833,0.36612,764.033,9530.81,-2107.01,-3.90386,-1.92769,-3.34264,664.688,-9877.54,-1415.49,-1.23104,0.578813,6.24244,-1961.35,9470.02,-313.976,0.0293077,-0.907762,3.33184,659.126,-9795.61,-2213.37,-3.17099,2.7507,-4.30884,8759.32,-668.617,4058.46,-4.19009,-3.24395,2.21904
0.134,5039.68,-1738.78,8128.04,3.00905,1.47387,-0.783961,4758.46,94.1035,8485.68,-3.07172,0.157228,0.481958,754.768,9525.48,-2098.28,-3.90603,-1.87328,-3.31855,645.162,-9890.17,-1410.48,-1.22462,0.658475,6.30067,-1951.05,9465.79,-332.092,-0.0338298,-0.711153,3.30201,649.811,-9776.31,-2225.11,-3.1187,2.7833,-4.3072,8765.39,-664.447,4070.74,-3.94885,-3.35896,2.34718
0.135,5040.34,-1762.19,8143.29,3.04456,1.40333,-0.727993,4799.06,78.7462,8488.04,-3.07929,0.133312,0.655715,751.464,9517.0,-2084.81,-3.91405,-1.83159,-3.29016,628.493,-9906.88,-1401.16,-1.20264,0.707615,6.3524,-1940.27,9468.88,-356.917,-0.107774,-0.539059,3.25912,628.964,-9753.85,-2238.65,-3.11086,2.80267,-4.28764,8769.05,-663.072,4082.09,-3.70113,-3.49704,2.48025
0.136,5041.01,-1785.61,8158.53,3.08007,1.3328,-0.672024,4839.65,63.3888,8490.42,-3.08685,0.109396,0.829472,748.159,9508.52,-2071.35,-3.92207,-1.78991,-3.26177,611.824,-9923.59,-1391.84,-1.18066,0.756754,6.40413,-1929.5,9471.96,-381.742,-0.181718,-0.366965,3.21622,608.117,-9731.39,-2252.2,-3.10303,2.82205,-4.26808,8772.71,-661.698,4093.45,-3.4534,-3.63512,2.61333
0.137,5041.67,-1809.03,8173.77,3.11558,1.26226,-0.616055,4880.25,48.0314,8492.78,-3.09442,0.0854803,1.00323,744.855,9500.05,-2057.88,-3.93008,-1.74822,-3.23339,595.155,-9940.3,-1382.52,-1.15868,0.805893,6.45586,-1918.72,9475.05,-406.567,-0.255662,-0.194871,3.17333,587.269,-9708.93,-2265.74,-3.0952,2.84142,-4.24851,8776.37,-660.323,4104.8,-3.20568,-3.7732,2.74641
0.138,5039.8,-1826.36,8188.94,3.14339,1.21499,-0.584821,4906.06,37.2486,8493.97,-3.10646,0.0693708,1.12298,738.407,9497.01,-2050.4,-3.92916,-1.68898,-3.23195,577.594,-9953.89,-1375.91,-1.15715,0.828229,6.47582,-1914.56,9479.84,-426.804,-0.325576,-0.0354551,3.14342,563.877,-9693.67,-2265.26,-3.09528,2.85957,-4.24221,8776.24,-661.522,4113.2,-2.98685,-3.90218,2.89777
0.139,5029.05,-1822.37,8203.81,3.14427,1.24915,-0.640155,4880.13,42.4768,8491.02,-3.13416,0.0805835,1.05372,720.959,9513.03,-2063.89,-3.89698,-1.5683,-3.32484,556.91,-9956.59,-1378.77,-1.2272,0.756752,6.38464,-1933.53,9490.57,-430.983,-0.381382,0.0795871,3.15898,531.58,-9703.63,-2215.71,-3.12306,2.87346,-4.2823,8762.89,-671.723,4111.26,-2.86916,-3.99932,3.11311
0.14,5018.3,-1818.39,8218.68,3.14515,1.28332,-0.695489,4854.2,47.7051,8488.07,-3.16185,0.0917962,0.98446,703.511,9529.04,-2077.38,-3.8648,-1.44762,-3.41772,536.225,-9959.28,-1381.63,-1.29725,0.685275,6.29345,-1952.5,9501.3,-435.162,-0.437188,0.194629,3.17454,499.282,-9713.58,-2166.17,-3.15084,2.88735,-4.3224,8749.54,-681.925,4109.32,-2.75147,-4.09645,3.32846
0.141,5007.56,-1814.4,8233.56,3.14603,1.31748,-0.750823,4828.27,52.9333,8485.12,-3.18955,0.103009,0.915199,686.063,9545.05,-2090.87,-3.83261,-1.32695,-3.51061,515.541,-9961.97,-1384.49,-1.3673,0.613797,6.20226,-1971.48,9512.03,-439.341,-0.492995,0.309671,3.19009,466.985,-9723.54,-2116.62,-3.17862,2.90124,-4.36249,8736.18,-692.126,4107.38,-2.63378,-4.19359,3.5438
0.142,4996.81,-1810.42,8248.43,3.14691,1.35164,-0.806157,4802.34,58.1615,8482.17,-3.21725,0.114222,0.845938,668.615,9561.07,-2104.36,-3.80043,-1.20627,-3.60349,494.857,-9964.66,-1387.35,-1.43736,0.54232,6.11108,-1990.45,9522.77,-443.521,-0.548801,0.424714,3.20565,434.687,-9733.49,-2067.08,-3.20641,2.91513,-4.40259,8722.83,-702.328,4105.44,-2.51609,-4.29072,3.75915
0.143,4997.71,-1803.15,8252.58,3.12552,1.34678,-0.738007,4790.44,45.9369,8480.53,-3.11704,0.127485,0.686268,657.852,9550.83,-2100.96,-3.75625,-1.06367,-3.66265,490.972,-9958.67,-1387.76,-1.40165,0.498381,6.12647,-1999.85,9528.56,-439.904,-0.55682,0.555652,3.15709,417.482,-9763.98,-2056.47,-3.12709,3.03612,-4.3387,8720.81,-702.054,4101.87,-2.44359,-4.28501,3.94541
0.144,5001.94,-1794.93,8253.66,3.09778,1.33075,-0.634575,4782.56,28.7259,8479.25,-2.98027,0.141334,0.500767,648.999,9533.09,-2092.73,-3.70865,-0.91481,-3.71218,491.887,-9950.2,-1387.48,-1.33572,0.46231,6.17233,-2006.52,9532.94,-434.059,-0.551184,0.691132,3.0902,404.59,-9800.33,-2056.99,-3.01718,3.18771,-4.24509,8722.02,-698.788,4097.83,-2.384,-4.24992,4.12335
0.145,5006.18,-1786.72,8254.74,3.07004,1.31473,-0.531144,4774.69,11.5148,8477.97,-2.84351,0.155184,0.315266,640.146,9515.35,-2084.5,-3.66105,-0.765947,-3.76171,492.802,-9941.73,-1387.2,-1.2698,0.426239,6.21818,-2013.19,9537.33,-428.215,-0.545549,0.826613,3.02331,391.698,-9836.68,-2057.5,-2.90727,3.33929,-4.15149,8723.24,-695.522,4093.8,-2.32441,-4.21483,4.3013
0.146,5010.41,-1778.51,8255.81,3.04229,1.29871,-0.427712,4766.81,-5.69621,8476.7,-2.70675,0.169033,0.129765,631.293,9497.61,-2076.27,-3.61344,-0.617084,-3.81124,493.717,-9933.26,-1386.91,-1.20388,0.390168,6.26403,-2019.86,9541.71,-422.371,-0.539913,0.962093,2.95643,378.805,-9873.03,-2058.02,-2.79735,3.49088,-4.05788,8724.45,-692.256,4089.76,-2.26482,-4.17975,4.47925
0.147,5011.16,-1775.57,8251.96,3.03133,1.28296,-0.34436,4769.1,-9.66096,8477.16,-2.64993,0.174369,0.00532115,635.9,9486.12,-2066.8,-3.55726,-0.471523,-3.83211,494.444,-9927.75,-1380.03,-1.1508,0.37716,6.31306,-2021.78,9537.94,-422.529,-0.524114,1.08471,2.87054,366.39,-9889.4,-2065.53,-2.69329,3.59007,-4.00423,8726.28,-688.046,4085.47,-2.20049,-4.13544,4.64913
0.148,5004.97,-1783.17,8238.23,3.05392,1.26774,-0.301166,4791.72,12.8669,8481.08,-2.753,0.162677,0.00299019,667.424,9487.13,-2054.81,-3.48393,-0.332566,-3.79568,494.791,-9928.15,-1359.94,-1.12343,0.410278,6.36845,-2014.17,9517.84,-434.693,-0.487987,1.18161,2.74665,354.93,-9865.81,-2087.0,-2.60092,3.58448,-4.03048,8729.33,-681.948,4080.68,-2.12667,-4.07271,4.80288
0.149,4998.77,-1790.77,8224.5,3.07651,1.25253,-0.257972,4814.35,35.3947,8485.01,-2.85607,0.150985,0.00065922,698.949,9488.13,-2042.83,-3.41059,-0.193609,-3.75924,495.139,-9928.55,-1339.85,-1.09606,0.443396,6.42384,-2006.57,9497.75,-446.857,-0.451861,1.2785,2.62275,343.47,-9842.23,-2108.48,-2.50856,3.57888,-4.05673,8732.38,-675.849,4075.89,-2.05285,-4.00999,4.95663
0.15,4992.57,-1798.37,8210.77,3.09911,1.23731,-0.214777,4836.97,57.9225,8488.93,-2.95914,0.139293,-0.00167175,730.473,9489.13,-2030.84,-3.33725,-0.0546516,-3.72281,495.487,-9928.95,-1319.76,-1.06869,0.476515,6.47924,-1998.97,9477.66,-459.021,-0.415734,1.3754,2.49886,332.01,-9818.64,-2129.95,-2.41619,3.57329,-4.08298,8735.43,-669.751,4071.1,-1.97903,-3.94726,5.11038
0.151,4986.38,-1805.98,8197.04,3.1217,1.22209,-0.171583,4859.6,80.4503,8492.85,-3.06221,0.127601,-0.00400271,761.997,9490.14,-2018.86,-3.26392,0.0843054,-3.68637,495.835,-9929.35,-1299.67,-1.04131,0.509633,6.53463,-1991.36,9457.57,-471.185,-0.379607,1.47229,2.37497,320.55,-9795.06,-2151.43,-2.32383,3.56769,-4.10923,8738.48,-663.652,4066.31,-1.90521,-3.88453,5.26413
0.152,4988.32,-1817.92,8184.05,3.04323,1.27485,-0.179114,4856.46,57.5841,8481.87,-3.09279,0.0910749,-0.0263257,760.921,9490.87,-2036.62,-3.34244,0.0831036,-3.56696,476.818,-9930.59,-1309.05,-1.10815,0.40333,6.46538,-1979.58,9461.62,-467.608,-0.445145,1.50835,2.38914,295.452,-9791.73,-2163.46,-2.34435,3.58246,-4.09861,8742.03,-680.658,4060.26,-1.82675,-3.84915,5.40885
0.153,4991.28,-1830.41,8171.16,2.95212,1.33611,-0.192986,4850.1,29.0436,8469.02,-3.11431,0.0514448,-0.0511476,755.77,9491.56,-2058.09,-3.43995,0.0643819,-3.43717,455.38,-9931.94,-1322.12,-1.18676,0.2796,6.38054,-1967.28,9468.68,-462.064,-0.523391,1.5368,2.42058,268.648,-9790.94,-2174.32,-2.37898,3.59978,-4.08339,8745.64,-700.552,4054.06,-1.7477,-3.81719,5.55245
0.154,4994.24,-1842.9,8158.26,2.86101,1.39737,-0.206858,4843.74,0.503188,8456.17,-3.13583,0.0118147,-0.0759696,750.618,9492.26,-2079.56,-3.53746,0.0456602,-3.30739,433.942,-9933.28,-1335.19,-1.26538,0.155869,6.29571,-1954.98,9475.74,-456.52,-0.601636,1.56526,2.45201,241.844,-9790.15,-2185.18,-2.41361,3.61709,-4.06817,8749.25,-720.445,4047.86,-1.66865,-3.78523,5.69605
0.155,4997.2,-1855.38,8145.36,2.7699,1.45862,-0.22073,4837.37,-28.0373,8443.32,-3.15736,-0.0278155,-0.100792,745.467,9492.95,-2101.04,-3.63497,0.0269385,-3.1776,412.504,-9934.63,-1348.25,-1.34399,0.032139,6.21087,-1942.67,9482.8,-450.976,-0.679882,1.59371,2.48344,215.041,-9789.36,-2196.03,-2.44824,3.63441,-4.05295,8752.86,-740.339,4041.65,-1.5896,-3.75327,5.83965
0.156,4989.72,-1862.71,8140.94,2.73584,1.46524,-0.197795,4840.41,-31.6122,8430.36,-3.11764,-0.0278217,-0.103763,739.902,9497.56,-2110.05,-3.72106,0.0236608,-3.12371,408.165,-9924.91,-1358.89,-1.43681,-0.048147,6.14537,-1944.8,9488.92,-449.728,-0.706273,1.63804,2.5193,197.497,-9788.84,-2189.26,-2.51875,3.58196,-4.07998,8757.78,-753.724,4033.23,-1.54102,-3.69083,6.00954
0.157,4969.19,-1863.59,8147.11,2.77311,1.40354,-0.128851,4855.2,-3.98005,8417.25,-3.00139,0.0217019,-0.0794204,733.819,9507.05,-2103.5,-3.79286,0.039688,-3.16467,425.201,-9901.38,-1366.49,-1.5474,-0.0741274,6.10401,-1964.96,9493.89,-453.85,-0.667845,1.7022,2.5607,191.527,-9788.66,-2160.44,-2.63411,3.44231,-4.15983,8764.33,-758.974,4022.02,-1.53054,-3.5903,6.21229
0.158,4948.65,-1864.47,8153.29,2.81037,1.34184,-0.0599078,4869.99,23.652,8404.14,-2.88514,0.0712255,-0.0550782,727.736,9516.54,-2096.94,-3.86466,0.0557151,-3.20563,442.237,-9877.84,-1374.09,-1.65799,-0.100108,6.06266,-1985.12,9498.85,-457.973,-0.629418,1.76637,2.60209,185.557,-9788.47,-2131.62,-2.74947,3.30266,-4.23969,8770.89,-764.224,4010.81,-1.52005,-3.48978,6.41504
0.159,4928.11,-1865.35,8159.46,2.84763,1.28015,0.0090356,4884.77,51.2841,8391.04,-2.76888,0.120749,-0.0307359,721.654,9526.03,-2090.39,-3.93646,0.0717423,-3.2466,459.273,-9854.3,-1381.69,-1.76858,-0.126088,6.02131,-2005.29,9503.81,-462.095,-0.59099,1.83054,2.64349,179.587,-9788.29,-2102.8,-2.86483,3.16302,-4.31954,8777.45,-769.473,3999.59,-1.50957,-3.38925,6.61779
0.16,4907.58,-1866.22,8165.64,2.8849,1.21845,0.077979,4899.56,78.9162,8377.93,-2.65263,0.170273,-0.00639364,715.571,9535.52,-2083.83,-4.00826,0.0877695,-3.28756,476.309,-9830.77,-1389.29,-1.87916,-0.152069,5.97996,-2025.45,9508.78,-466.217,-0.552562,1.89471,2.68488,173.617,-9788.11,-2073.98,-2.9802,3.02337,-4.39939,8784.0,-774.723,3988.38,-1.49909,-3.28872,6.82055
0.161,4924.04,-1834.13,8159.49,2.89805,1.28588,0.0176689,4866.41,70.2496,8391.68,-2.58051,0.2388,0.034435,697.65,9530.27,-2108.52,-4.00294,0.0996016,-3.44574,499.475,-9823.89,-1380.54,-1.82281,-0.126976,5.9161,-2024.01,9510.5,-465.099,-0.611028,1.94398,2.62342,201.874,-9809.85,-2087.61,-3.04461,2.96576,-4.35118,8784.78,-770.064,3974.07,-1.44156,-3.26697,6.9176
0.162,4940.5,-1802.05,8153.35,2.9112,1.35331,-0.0426411,4833.25,61.583,8405.42,-2.50838,0.307327,0.0752636,679.729,9525.02,-2133.2,-3.99762,0.111434,-3.60392,522.641,-9817.01,-1371.8,-1.76645,-0.101883,5.85224,-2022.56,9512.23,-463.98,-0.669495,1.99326,2.56195,230.132,-9831.59,-2101.23,-3.10903,2.90816,-4.30296,8785.56,-765.405,3959.76,-1.38404,-3.24521,7.01465
0.163,4956.96,-1769.96,8147.21,2.92435,1.42073,-0.102951,4800.1,52.9164,8419.17,-2.43626,0.375854,0.116092,661.808,9519.76,-2157.88,-3.9923,0.123266,-3.7621,545.807,-9810.13,-1363.06,-1.71009,-0.07679,5.78839,-2021.12,9513.96,-462.862,-0.727961,2.04253,2.50049,258.389,-9853.33,-2114.86,-3.17344,2.85055,-4.25475,8786.34,-760.746,3945.46,-1.32651,-3.22346,7.1117
0.164,4973.42,-1737.87,8141.06,2.9375,1.48816,-0.163261,4766.94,44.2499,8432.92,-2.36414,0.444382,0.156921,643.887,9514.51,-2182.56,-3.98698,0.135098,-3.92028,568.973,-9803.25,-1354.31,-1.65374,-0.0516971,5.72453,-2019.68,9515.68,-461.743,-0.786427,2.0918,2.43903,286.646,-9875.06,-2128.49,-3.23785,2.79295,-4.20653,8787.12,-756.086,3931.15,-1.26899,-3.20171,7.20875
0.165,4985.29,-1740.04,8144.66,2.90018,1.55203,-0.204445,4764.63,38.9814,8460.77,-2.30097,0.491225,0.190788,632.955,9506.07,-2204.67,-3.98233,0.197805,-3.93659,581.27,-9810.21,-1359.28,-1.61098,-0.0274315,5.73047,-2018.9,9512.79,-452.066,-0.788869,2.12139,2.43199,298.631,-9869.2,-2124.63,-3.39288,2.71008,-4.24205,8791.49,-751.657,3926.59,-1.23113,-3.19594,7.28584
0.166,4993.49,-1769.62,8156.06,2.82249,1.61306,-0.230328,4786.99,36.4315,8499.9,-2.24498,0.520722,0.219086,627.615,9495.08,-2224.71,-3.97821,0.301212,-3.83942,584.87,-9828.23,-1375.21,-1.57911,-0.00382786,5.79226,-2018.65,9506.21,-435.542,-0.746491,2.13524,2.46849,297.598,-9841.26,-2106.79,-3.6204,2.60699,-4.34455,8798.74,-747.411,3929.82,-1.209,-3.20296,7.34697
0.167,5001.68,-1799.21,8167.46,2.7448,1.67409,-0.25621,4809.35,33.8815,8539.03,-2.18898,0.55022,0.247384,622.275,9484.1,-2244.75,-3.97409,0.40462,-3.74224,588.47,-9846.26,-1391.14,-1.54724,0.0197758,5.85405,-2018.4,9499.62,-419.018,-0.704113,2.14908,2.50499,296.566,-9813.33,-2088.95,-3.84792,2.50391,-4.44705,8806.0,-743.165,3933.06,-1.18687,-3.20999,7.4081
0.168,5009.88,-1828.79,8178.85,2.66711,1.73511,-0.282093,4831.72,31.3316,8578.15,-2.13298,0.579717,0.275682,616.935,9473.11,-2264.8,-3.96996,0.508027,-3.64507,592.07,-9864.29,-1407.07,-1.51538,0.0433795,5.91583,-2018.15,9493.04,-402.494,-0.661735,2.16292,2.54149,295.534,-9785.38,-2071.11,-4.07545,2.40082,-4.54955,8813.25,-738.919,3936.3,-1.16475,-3.21701,7.46923
0.169,5014.94,-1854.85,8187.56,2.59085,1.7856,-0.307495,4850.52,32.787,8611.23,-2.08151,0.603072,0.280146,611.372,9464.02,-2279.68,-3.97072,0.591521,-3.55542,595.064,-9882.62,-1423.4,-1.49446,0.0679547,5.95296,-2018.24,9486.71,-389.445,-0.613615,2.16976,2.58024,292.925,-9760.04,-2055.96,-4.26814,2.3162,-4.64764,8821.33,-734.388,3938.68,-1.13233,-3.222,7.52648
0.17,4994.88,-1852.72,8174.77,2.52609,1.75176,-0.329053,4840.9,66.2845,8595.83,-2.06622,0.577292,0.0939303,604.031,9470.12,-2253.3,-4.01049,0.515708,-3.52593,593.205,-9903.43,-1442.86,-1.56122,0.100302,5.79285,-2021.06,9482.43,-404.194,-0.519554,2.12056,2.63694,277.71,-9755.43,-2062.36,-4.18218,2.37928,-4.71044,8836.09,-727.575,3934.11,-1.01765,-3.2107,7.55264
0.171,4974.82,-1850.6,8161.98,2.46132,1.71793,-0.35061,4831.27,99.782,8580.44,-2.05093,0.551512,-0.092285,596.69,9476.22,-2226.91,-4.05026,0.439895,-3.49645,591.345,-9924.24,-1462.33,-1.62798,0.132649,5.63273,-2023.87,9478.15,-418.942,-0.425494,2.07136,2.69364,262.495,-9750.82,-2068.77,-4.09623,2.44237,-4.77324,8850.86,-720.761,3929.54,-0.902959,-3.1994,7.5788
0.172,4954.77,-1848.47,8149.19,2.39655,1.68409,-0.372167,4821.65,133.279,8565.04,-2.03564,0.525732,-0.2785,589.349,9482.32,-2200.53,-4.09003,0.364082,-3.46696,589.486,-9945.05,-1481.8,-1.69474,0.164995,5.47262,-2026.69,9473.87,-433.691,-0.331434,2.02217,2.75035,247.279,-9746.21,-2075.17,-4.01028,2.50546,-4.83603,8865.62,-713.948,3924.98,-0.788272,-3.1881,7.60496
0.173,4934.71,-1846.34,8136.4,2.33179,1.65026,-0.393725,4812.02,166.777,8549.65,-2.02036,0.499952,-0.464716,582.008,9488.42,-2174.14,-4.1298,0.28827,-3.43747,587.627,-9965.86,-1501.26,-1.7615,0.197342,5.3125,-2029.5,9469.59,-448.44,-0.237373,1.97297,2.80705,232.064,-9741.6,-2081.57,-3.92433,2.56855,-4.89883,8880.38,-707.135,3920.41,-0.673584,-3.17681,7.63112
0.174,4943.17,-1860.88,8135.34,2.3897,1.65295,-0.448529,4800.16,165.137,8529.4,-2.05998,0.436922,-0.539139,573.679,9496.86,-2149.02,-4.13967,0.27314,-3.42848,597.532,-9955.23,-1501.85,-1.81987,0.260024,5.26894,-2041.62,9476.77,-444.552,-0.242054,1.89512,2.86264,223.345,-9747.91,-2087.61,-3.90478,2.56951,-4.87277,8887.28,-707.067,3932.68,-0.543167,-3.13396,7.65675
0.175,4965.9,-1883.74,8140.13,2.50895,1.67391,-0.519956,4787.17,145.928,8506.72,-2.12707,0.355265,-0.557667,564.857,9506.48,-2124.54,-4.1346,0.288352,-3.42973,613.319,-9928.88,-1493.0,-1.87403,0.337872,5.28365,-2058.4,9489.68,-431.344,-0.296104,1.80295,2.91768,217.876,-9759.68,-2093.47,-3.91842,2.53941,-4.80228,8890.25,-710.372,3953.37,-0.404886,-3.07534,7.68212
0.176,4988.62,-1906.6,8144.93,2.62819,1.69487,-0.591384,4774.19,126.719,8484.04,-2.19416,0.273609,-0.576195,556.035,9516.09,-2100.06,-4.12953,0.303563,-3.43098,629.107,-9902.53,-1484.15,-1.9282,0.415721,5.29836,-2075.17,9502.58,-418.137,-0.350155,1.71078,2.97272,212.406,-9771.45,-2099.32,-3.93206,2.50931,-4.73179,8893.21,-713.676,3974.06,-0.266605,-3.01672,7.70748
0.177,5011.34,-1929.46,8149.72,2.74744,1.71583,-0.662811,4761.2,107.511,8461.36,-2.26125,0.191953,-0.594722,547.212,9525.71,-2075.58,-4.12446,0.318775,-3.43224,644.895,-9876.18,-1475.3,-1.98236,0.493569,5.31307,-2091.95,9515.49,-404.93,-0.404205,1.61861,3.02776,206.936,-9783.21,-2105.17,-3.9457,2.4792,-4.66131,8896.18,-716.981,3994.76,-0.128323,-2.95811,7.73284
0.178,5027.74,-1941.63,8153.61,2.84031,1.73155,-0.69015,4752.24,89.4059,8452.41,-2.28042,0.137195,-0.618259,539.73,9532.08,-2061.02,-4.12804,0.312596,-3.40043,659.803,-9856.57,-1463.9,-2.03156,0.56225,5.31238,-2106.36,9522.38,-396.591,-0.454443,1.53975,3.07774,209.282,-9792.6,-2111.83,-3.9483,2.41532,-4.60782,8902.83,-719.462,4009.72,-0.053395,-2.90608,7.74716
0.179,5021.99,-1916.34,8154.29,2.84082,1.72891,-0.563179,4757.35,75.1645,8491.53,-2.13192,0.176582,-0.659327,536.935,9527.09,-2081.19,-4.16191,0.231551,-3.25294,671.634,-9860.54,-1443.61,-2.06334,0.598845,5.2578,-2112.51,9508.25,-405.295,-0.491333,1.50747,3.11003,238.984,-9793.66,-2121.28,-3.91224,2.23322,-4.61384,8922.37,-719.06,4004.64,-0.200203,-2.87711,7.72281
0.18,5016.24,-1891.05,8154.98,2.84133,1.72627,-0.436209,4762.46,60.9232,8530.64,-1.98342,0.215969,-0.700395,534.14,9522.11,-2101.36,-4.19578,0.150505,-3.10545,683.465,-9864.51,-1423.31,-2.09513,0.635439,5.20323,-2118.66,9494.12,-413.999,-0.528222,1.47519,3.14232,268.686,-9794.72,-2130.74,-3.87619,2.05111,-4.61986,8941.92,-718.659,3999.55,-0.347012,-2.84814,7.69846
0.181,5010.49,-1865.76,8155.67,2.84184,1.72363,-0.309238,4767.58,46.6819,8569.76,-1.83492,0.255356,-0.741462,531.345,9517.12,-2121.53,-4.22964,0.0694596,-2.95796,695.297,-9868.48,-1403.01,-2.12691,0.672033,5.14865,-2124.81,9479.99,-422.702,-0.565112,1.44291,3.1746,298.388,-9795.78,-2140.2,-3.84014,1.86901,-4.62588,8961.46,-718.257,3994.47,-0.49382,-2.81918,7.67411
0.182,5004.74,-1840.47,8156.36,2.84236,1.721,-0.182267,4772.69,32.4405,8608.88,-1.68642,0.294744,-0.78253,528.55,9512.14,-2141.7,-4.26351,-0.0115858,-2.81047,707.128,-9872.45,-1382.71,-2.1587,0.708628,5.09407,-2130.96,9465.86,-431.406,-0.602002,1.41063,3.20689,328.09,-9796.84,-2149.66,-3.80409,1.6869,-4.6319,8981.0,-717.856,3989.38,-0.640628,-2.79021,7.64977
0.183,4983.93,-1830.19,8137.04,2.70552,1.68347,-0.214246,4782.24,30.8562,8611.98,-1.74849,0.250386,-0.610409,519.431,9500.85,-2151.44,-4.2899,-0.13768,-2.87818,695.824,-9870.52,-1368.38,-2.19574,0.784973,5.02481,-2114.12,9454.46,-436.74,-0.602933,1.33806,3.19576,331.719,-9805.75,-2160.97,-3.80389,1.57562,-4.5636,8986.32,-721.996,3980.09,-0.825742,-2.72715,7.56611
0.184,4958.8,-1824.21,8112.0,2.52944,1.63599,-0.29164,4793.06,32.8882,8604.79,-1.87073,0.182102,-0.377376,508.506,9487.76,-2158.2,-4.31416,-0.276646,-3.00738,677.911,-9866.9,-1355.75,-2.23429,0.872676,4.95135,-2090.71,9443.84,-441.112,-0.593589,1.25396,3.17223,327.899,-9816.91,-2172.81,-3.81393,1.48457,-4.47407,8987.56,-727.435,3969.59,-1.0218,-2.65434,7.46552
0.185,4933.68,-1818.23,8086.96,2.35336,1.5885,-0.369033,4803.89,34.9202,8597.6,-1.99297,0.113818,-0.144344,497.581,9474.66,-2164.96,-4.33841,-0.415612,-3.13658,659.997,-9863.28,-1343.12,-2.27284,0.960379,4.87789,-2067.3,9433.23,-445.484,-0.584246,1.16987,3.1487,324.079,-9828.07,-2184.65,-3.82397,1.39352,-4.38454,8988.8,-732.873,3959.1,-1.21786,-2.58154,7.36493
0.186,4908.56,-1812.24,8061.92,2.17727,1.54101,-0.446426,4814.71,36.9522,8590.4,-2.11521,0.0455336,0.0886885,486.656,9461.57,-2171.72,-4.36267,-0.554578,-3.26578,642.083,-9859.66,-1330.49,-2.31139,1.04808,4.80444,-2043.9,9422.61,-449.856,-0.574902,1.08578,3.12517,320.259,-9839.23,-2196.49,-3.834,1.30247,-4.29501,8990.05,-738.312,3948.6,-1.41391,-2.50874,7.26433
0.187,4899.96,-1807.2,8058.51,2.10022,1.5249,-0.555609,4821.89,37.9259,8585.86,-2.10581,0.00446713,0.184671,481.031,9452.0,-2180.5,-4.41176,-0.679396,-3.31394,622.194,-9856.32,-1328.95,-2.36911,1.06465,4.72958,-2029.55,9415.42,-457.542,-0.564059,0.985042,3.07988,310.739,-9835.6,-2206.66,-3.81479,1.23145,-4.21163,8992.88,-740.858,3940.42,-1.53505,-2.43914,7.13382
0.188,4924.39,-1804.03,8098.38,2.22123,1.57154,-0.72837,4821.78,36.7831,8586.6,-1.83313,0.0178363,0.00655368,486.006,9449.48,-2193.3,-4.51055,-0.775919,-3.20003,598.352,-9853.56,-1349.59,-2.46518,0.938947,4.65192,-2033.32,9415.07,-471.855,-0.550217,0.851006,2.99107,289.818,-9802.4,-2213.52,-3.73705,1.20046,-4.14058,8998.87,-737.618,3936.88,-1.50633,-2.37596,6.94348
0.189,4948.83,-1800.87,8138.25,2.34224,1.61818,-0.90113,4821.68,35.6402,8587.34,-1.56046,0.0312054,-0.171564,490.98,9446.96,-2206.11,-4.60933,-0.872442,-3.08612,574.51,-9850.79,-1370.23,-2.56126,0.813245,4.57426,-2037.09,9414.73,-486.169,-0.536375,0.716971,2.90226,268.898,-9769.19,-2220.37,-3.65932,1.16947,-4.06952,9004.86,-734.378,3933.33,-1.47761,-2.31278,6.75313
0.19,4973.26,-1797.7,8178.12,2.46325,1.66483,-1.07389,4821.58,34.4974,8588.08,-1.28778,0.0445745,-0.349681,495.955,9444.44,-2218.92,-4.70811,-0.968965,-2.97221,550.668,-9848.03,-1390.87,-2.65733,0.687543,4.4966,-2040.87,9414.38,-500.483,-0.522533,0.582936,2.81346,247.977,-9735.99,-2227.23,-3.58158,1.13848,-3.99846,9010.85,-731.138,3929.78,-1.4489,-2.24959,6.56279
0.191,4997.7,-1794.54,8217.99,2.58426,1.71147,-1.24665,4821.48,33.3545,8588.82,-1.0151,0.0579437,-0.527798,500.929,9441.92,-2231.72,-4.80689,-1.06549,-2.8583,526.826,-9845.26,-1411.51,-2.75341,0.56184,4.41894,-2044.64,9414.04,-514.796,-0.508691,0.448901,2.72465,227.057,-9702.79,-2234.08,-3.50385,1.10749,-3.9274,9016.85,-727.899,3926.23,-1.42018,-2.18641,6.37244
0.192,5000.28,-1797.53,8206.85,2.56606,1.72724,-1.32401,4810.79,27.1324,8555.1,-1.17688,0.0205847,-0.513421,490.125,9450.13,-2224.6,-4.77576,-1.11201,-2.75338,511.389,-9864.3,-1403.06,-2.79471,0.610096,4.40459,-2063.41,9416.0,-509.226,-0.51186,0.319472,2.67589,221.991,-9725.35,-2235.11,-3.63314,1.25603,-4.08156,9016.53,-742.521,3919.35,-1.47326,-2.07506,6.19737
0.193,5000.14,-1801.29,8189.33,2.53047,1.73915,-1.38944,4798.78,20.2755,8517.09,-1.39297,-0.0231152,-0.474981,477.349,9459.68,-2214.98,-4.72838,-1.15227,-2.64959,497.003,-9886.05,-1390.97,-2.82917,0.680096,4.39816,-2084.04,9418.26,-501.171,-0.517155,0.19062,2.63213,218.906,-9754.89,-2235.41,-3.7883,1.42701,-4.26386,9015.42,-759.376,3912.04,-1.53657,-1.95769,6.0242
0.194,5000.0,-1805.05,8171.81,2.49487,1.75106,-1.45488,4786.77,13.4185,8479.07,-1.60906,-0.0668152,-0.436542,464.572,9469.23,-2205.37,-4.68101,-1.19254,-2.5458,482.617,-9907.81,-1378.89,-2.86363,0.750096,4.39172,-2104.68,9420.51,-493.115,-0.522451,0.0617675,2.58838,215.822,-9784.42,-2235.72,-3.94347,1.59798,-4.44617,9014.3,-776.231,3904.74,-1.59988,-1.84032,5.85103
0.195,4999.85,-1808.81,8154.3,2.45928,1.76296,-1.52031,4774.75,6.5615,8441.05,-1.82515,-0.110515,-0.398103,451.796,9478.78,-2195.75,-4.63363,-1.23281,-2.44201,468.231,-9929.56,-1366.8,-2.89808,0.820096,4.38528,-2125.32,9422.76,-485.059,-0.527746,-0.0670849,2.54462,212.737,-9813.96,-2236.02,-4.09863,1.76896,-4.62848,9013.19,-793.086,3897.43,-1.66319,-1.72295,5.67787
0.196,5010.58,-1808.86,8148.71,2.45421,1.79026,-1.49761,4762.12,17.9907,8430.62,-1.90291,-0.205465,-0.435269,456.969,9492.08,-2186.85,-4.61759,-1.27726,-2.37779,460.415,-9939.19,-1356.97,-2.87292,0.855557,4.33235,-2140.89,9424.11,-478.549,-0.528234,-0.18113,2.56149,207.716,-9821.52,-2230.1,-4.19335,1.81903,-4.67313,9009.31,-809.98,3890.47,-1.75617,-1.65661,5.47141
0.197,5034.91,-1804.26,8158.04,2.4873,1.83679,-1.36474,4748.71,52.2776,8454.65,-1.80776,-0.364479,-0.566943,484.578,9510.09,-2178.85,-4.6407,-1.32695,-2.36304,460.813,-9933.66,-1349.94,-2.77322,0.847847,4.22128,-2150.14,9424.33,-473.972,-0.522714,-0.276665,2.65414,200.274,-9801.59,-2216.42,-4.21251,1.71796,-4.54572,9001.96,-826.923,3883.94,-1.88625,-1.65404,5.22334
0.198,5059.24,-1799.66,8167.38,2.52039,1.88332,-1.23187,4735.3,86.5644,8478.69,-1.71261,-0.523492,-0.698616,512.187,9528.1,-2170.85,-4.66382,-1.37663,-2.34828,461.211,-9928.14,-1342.91,-2.67353,0.840136,4.11022,-2159.38,9424.55,-469.394,-0.517193,-0.3722,2.7468,192.831,-9781.67,-2202.74,-4.23167,1.61689,-4.4183,8994.61,-843.865,3877.4,-2.01634,-1.65148,4.97528
0.199,5083.57,-1795.06,8176.71,2.55348,1.92985,-1.099,4721.88,120.851,8502.73,-1.61746,-0.682505,-0.83029,539.796,9546.11,-2162.85,-4.68694,-1.42631,-2.33352,461.609,-9922.61,-1335.88,-2.57384,0.832425,3.99915,-2168.62,9424.77,-464.817,-0.511672,-0.467735,2.83945,185.389,-9761.75,-2189.06,-4.25083,1.51582,-4.29089,8987.26,-860.808,3870.87,-2.14642,-1.64892,4.72721
0.2,5107.9,-1790.46,8186.04,2.58658,1.97638,-0.966132,4708.47,155.138,8526.77,-1.52231,-0.841519,-0.961963,567.405,9564.11,-2154.85,-4.71006,-1.476,-2.31876,462.007,-9917.08,-1328.86,-2.47414,0.824714,3.88809,-2177.86,9424.99,-460.24,-0.506152,-0.56327,2.9321,177.946,-9741.83,-2175.38,-4.26999,1.41475,-4.16348,8979.92,-877.75,3864.33,-2.2765,-1.64636,4.47914
0.201,5074.62,-1823.66,8174.82,2.57142,1.92589,-0.976289,4759.92,130.593,8515.94,-1.49365,-0.732639,-0.843064,583.338,9576.77,-2145.91,-4.84343,-1.43157,-2.34098,439.704,-9918.52,-1341.1,-2.55777,0.75938,3.79459,-2174.52,9429.28,-458.887,-0.560867,-0.734468,2.85506,182.032,-9733.87,-2204.87,-4.18887,1.39864,-4.1603,8986.45,-881.377,3873.05,-2.39677,-1.61855,4.22014
0.202,5041.35,-1856.86,8163.59,2.55626,1.87541,-0.986446,4811.37,106.047,8505.11,-1.465,-0.62376,-0.724165,599.271,9589.42,-2136.97,-4.9768,-1.38715,-2.36321,417.402,-9919.95,-1353.35,-2.64141,0.694046,3.70109,-2171.18,9433.58,-457.534,-0.615583,-0.905667,2.77801,186.118,-9725.92,-2234.37,-4.10775,1.38252,-4.15712,8992.99,-885.005,3881.77,-2.51703,-1.59074,3.96114
0.203,5008.07,-1890.06,8152.36,2.5411,1.82492,-0.996603,4862.81,81.502,8494.29,-1.43634,-0.51488,-0.605266,615.204,9602.07,-2128.03,-5.11017,-1.34273,-2.38543,395.099,-9921.39,-1365.59,-2.72504,0.628711,3.60759,-2167.84,9437.87,-456.182,-0.670299,-1.07687,2.70096,190.204,-9717.96,-2263.87,-4.02662,1.36641,-4.15395,8999.53,-888.632,3890.49,-2.6373,-1.56293,3.70213
0.204,4974.8,-1923.26,8141.14,2.52594,1.77444,-1.00676,4914.26,56.9565,8483.46,-1.40769,-0.406,-0.486367,631.137,9614.73,-2119.09,-5.24354,-1.29831,-2.40766,372.796,-9922.82,-1377.84,-2.80867,0.563377,3.51409,-2164.5,9442.16,-454.829,-0.725015,-1.24806,2.62392,194.29,-9710.01,-2293.37,-3.9455,1.3503,-4.15077,9006.07,-892.259,3899.21,-2.75757,-1.53513,3.44313
0.205,4941.97,-1926.62,8142.66,2.55675,1.72009,-1.05426,4921.79,39.5886,8489.73,-1.36284,-0.330823,-0.45993,628.427,9612.64,-2112.61,-5.23108,-1.35902,-2.35778,368.943,-9929.03,-1377.26,-2.85623,0.588229,3.41258,-2165.01,9442.94,-459.759,-0.773459,-1.41198,2.61847,187.155,-9699.25,-2311.46,-3.93949,1.41171,-3.9968,9005.79,-895.706,3906.83,-2.86473,-1.43472,3.13428
0.206,4909.5,-1906.12,8154.39,2.62434,1.66265,-1.13162,4894.18,27.9627,8509.67,-1.30505,-0.282608,-0.507463,610.804,9598.76,-2108.11,-5.10197,-1.50384,-2.25022,379.848,-9939.04,-1366.44,-2.87493,0.68523,3.30465,-2168.6,9440.91,-469.716,-0.816885,-1.57008,2.67031,171.042,-9686.25,-2320.41,-3.99357,1.53514,-3.72219,9000.06,-899.008,3913.57,-2.96141,-1.27625,2.78555
0.207,4877.02,-1885.61,8166.11,2.69193,1.60521,-1.20899,4866.58,16.3367,8529.62,-1.24726,-0.234393,-0.554996,593.18,9584.88,-2103.6,-4.97286,-1.64866,-2.14267,390.753,-9949.06,-1355.61,-2.89363,0.782232,3.19672,-2172.19,9438.88,-479.673,-0.860311,-1.72818,2.72215,154.929,-9673.25,-2329.37,-4.04764,1.65857,-3.44758,8994.33,-902.311,3920.31,-3.05809,-1.11777,2.43683
0.208,4844.55,-1865.1,8177.84,2.75952,1.54777,-1.28635,4838.97,4.71079,8549.56,-1.18947,-0.186178,-0.602529,575.557,9571.01,-2099.1,-4.84374,-1.79348,-2.03511,401.658,-9959.07,-1344.79,-2.91234,0.879233,3.08879,-2175.78,9436.84,-489.631,-0.903738,-1.88628,2.77399,138.816,-9660.25,-2338.32,-4.10172,1.78199,-3.17297,8988.6,-905.613,3927.06,-3.15477,-0.959293,2.0881
0.209,4819.55,-1845.9,8188.39,2.82751,1.51332,-1.35231,4815.63,-6.06255,8567.63,-1.12683,-0.155072,-0.663349,560.719,9557.49,-2097.13,-4.73661,-1.93238,-1.93297,413.093,-9966.96,-1336.43,-2.92489,0.953683,2.98312,-2178.33,9434.52,-498.773,-0.937622,-2.04331,2.82655,124.141,-9652.73,-2343.54,-4.17872,1.89785,-2.92279,8981.44,-908.2,3933.96,-3.24784,-0.806387,1.74189
0.21,4854.37,-1837.19,8189.58,2.89868,1.66284,-1.32701,4826.45,-10.0151,8570.68,-1.02537,-0.260839,-0.83046,568.165,9546.84,-2115.41,-4.80532,-2.02391,-1.87413,428.767,-9957.83,-1347.88,-2.88825,0.847723,2.89546,-2172.56,9429.87,-501.401,-0.895172,-2.19175,2.88482,120.976,-9689.07,-2318.91,-4.43916,1.95308,-2.86806,8962.79,-905.062,3942.13,-3.312,-0.698061,1.41587
0.211,4889.18,-1828.47,8190.77,2.96985,1.81235,-1.30171,4837.26,-13.9677,8573.73,-0.923914,-0.366605,-0.997571,575.612,9536.19,-2133.7,-4.87403,-2.11545,-1.81529,444.441,-9948.7,-1359.32,-2.85161,0.741763,2.8078,-2166.8,9425.23,-504.028,-0.852721,-2.34019,2.94308,117.81,-9725.42,-2294.29,-4.69959,2.00831,-2.81333,8944.13,-901.924,3950.3,-3.37616,-0.589735,1.08985
0.212,4924.0,-1819.76,8191.96,3.04102,1.96187,-1.27641,4848.07,-17.9203,8576.78,-0.822458,-0.472371,-1.16468,583.058,9525.55,-2151.98,-4.94273,-2.20699,-1.75644,460.115,-9939.56,-1370.76,-2.81497,0.635803,2.72015,-2161.04,9420.58,-506.656,-0.810271,-2.48863,3.00135,114.644,-9761.76,-2269.66,-4.96002,2.06354,-2.75859,8925.48,-898.786,3958.48,-3.44032,-0.481409,0.76383
0.213,4958.81,-1811.05,8193.14,3.1122,2.11139,-1.25111,4858.88,-21.8729,8579.83,-0.721001,-0.578137,-1.33179,590.504,9514.9,-2170.27,-5.01144,-2.29853,-1.6976,475.79,-9930.43,-1382.21,-2.77833,0.529843,2.63249,-2155.28,9415.94,-509.283,-0.767821,-2.63707,3.05962,111.479,-9798.11,-2245.03,-5.22045,2.11877,-2.70386,8906.83,-895.648,3966.65,-3.50448,-0.373083,0.437809
0.214,4978.47,-1800.04,8192.81,3.05201,2.13503,-1.28814,4868.92,-20.8853,8567.83,-0.724407,-0.619832,-1.34971,579.958,9506.14,-2165.51,-5.05579,-2.32117,-1.7431,471.666,-9918.02,-1381.9,-2.74642,0.459427,2.58888,-2163.08,9406.19,-508.711,-0.673757,-2.73402,3.09074,114.177,-9795.2,-2244.46,-5.29027,2.15614,-2.6927,8888.34,-889.739,3958.37,-3.54348,-0.316576,0.109009
0.215,4990.55,-1787.9,8191.73,2.92614,2.09574,-1.35634,4878.57,-17.4276,8548.3,-0.780244,-0.62949,-1.29304,560.416,9498.33,-2149.22,-5.08795,-2.30936,-1.84077,457.645,-9903.96,-1375.73,-2.71689,0.406782,2.56728,-2177.66,9393.9,-506.538,-0.553888,-2.80523,3.10829,119.807,-9772.67,-2255.91,-5.26478,2.18457,-2.70331,8869.93,-882.445,3941.87,-3.56989,-0.285979,-0.22118
0.216,5002.62,-1775.75,8190.64,2.80028,2.05645,-1.42454,4888.22,-13.97,8528.76,-0.83608,-0.639149,-1.23636,540.873,9490.52,-2132.94,-5.12011,-2.29755,-1.93843,443.623,-9889.91,-1369.55,-2.68735,0.354138,2.54569,-2192.24,9381.6,-504.366,-0.434018,-2.87644,3.12585,125.437,-9750.14,-2267.36,-5.23929,2.21301,-2.71392,8851.53,-875.151,3925.37,-3.59631,-0.255381,-0.551369
0.217,5014.7,-1763.61,8189.55,2.67441,2.01715,-1.49273,4897.87,-10.5123,8509.23,-0.891917,-0.648808,-1.17969,521.331,9482.71,-2116.65,-5.15228,-2.28574,-2.0361,429.601,-9875.85,-1363.37,-2.65781,0.301494,2.5241,-2206.82,9369.31,-502.193,-0.314148,-2.94765,3.1434,131.068,-9727.61,-2278.81,-5.21381,2.24145,-2.72454,8833.12,-867.856,3908.86,-3.62273,-0.224784,-0.881558
0.218,5027.72,-1760.95,8189.32,2.57552,1.98215,-1.55879,4906.59,-6.62447,8493.39,-0.905323,-0.6455,-1.16213,511.409,9483.15,-2106.25,-5.16468,-2.29394,-2.08227,421.024,-9864.42,-1361.07,-2.64565,0.265403,2.47865,-2218.47,9364.94,-495.554,-0.23341,-3.02137,3.15785,138.32,-9708.44,-2285.39,-5.2092,2.27624,-2.70468,8820.42,-858.086,3898.32,-3.67261,-0.189153,-1.19796
0.219,5044.06,-1791.47,8192.11,2.57106,1.96217,-1.61733,4912.1,-1.23127,8490.47,-0.770223,-0.596808,-1.28146,535.156,9512.49,-2116.46,-5.10789,-2.37217,-1.94817,431.503,-9862.16,-1372.32,-2.69428,0.287248,2.34966,-2219.85,9388.32,-473.284,-0.289634,-3.10387,3.16145,151.247,-9701.04,-2274.95,-5.27768,2.33327,-2.5782,8827.72,-839.65,3908.63,-3.8046,-0.135904,-1.46613
0.22,5060.4,-1822.0,8194.89,2.5666,1.94218,-1.67588,4917.6,4.16192,8487.54,-0.635124,-0.548116,-1.4008,558.903,9541.84,-2126.68,-5.05111,-2.45039,-1.81407,441.983,-9859.89,-1383.58,-2.74291,0.309094,2.22067,-2221.24,9411.7,-451.014,-0.345857,-3.18637,3.16505,164.174,-9693.64,-2264.51,-5.34615,2.3903,-2.45171,8835.01,-821.213,3918.94,-3.93659,-0.0826557,-1.73429
0.221,5076.74,-1852.53,8197.68,2.56214,1.9222,-1.73442,4923.1,9.55512,8484.62,-0.500024,-0.499424,-1.52013,582.65,9571.18,-2136.89,-4.99432,-2.52862,-1.67998,452.462,-9857.63,-1394.83,-2.79154,0.330939,2.09168,-2222.63,9435.08,-428.744,-0.402081,-3.26888,3.16864,177.101,-9686.24,-2254.07,-5.41463,2.44733,-2.32523,8842.31,-802.777,3929.24,-4.06859,-0.029407,-2.00246
0.222,5093.08,-1883.06,8200.47,2.55768,1.90222,-1.79296,4928.6,14.9483,8481.69,-0.364924,-0.450733,-1.63947,606.397,9600.52,-2147.1,-4.93753,-2.60685,-1.54588,462.941,-9855.37,-1406.08,-2.84017,0.352784,1.96269,-2224.02,9458.46,-406.474,-0.458304,-3.35138,3.17224,190.028,-9678.84,-2243.63,-5.4831,2.50436,-2.19875,8849.6,-784.341,3939.55,-4.20058,0.0238416,-2.27063
0.223,5089.68,-1878.15,8195.24,2.56747,1.86756,-1.91712,4914.18,8.86815,8471.16,-0.395216,-0.470551,-1.5809,610.139,9589.82,-2154.8,-4.99167,-2.63485,-1.48708,461.985,-9874.73,-1382.19,-2.91488,0.369278,1.80475,-2211.04,9463.93,-402.103,-0.495194,-3.43702,3.1811,198.889,-9677.3,-2243.05,-5.52922,2.58811,-2.04402,8859.29,-793.555,3945.1,-4.29252,0.0197087,-2.45153
0.224,5080.64,-1863.12,8187.73,2.58135,1.82872,-2.06001,4894.07,-0.49012,8458.46,-0.472762,-0.509943,-1.47151,608.165,9567.68,-2161.79,-5.07751,-2.64849,-1.44979,457.76,-9900.27,-1348.25,-2.99703,0.384243,1.63853,-2193.95,9464.29,-402.846,-0.526559,-3.52356,3.19145,206.589,-9677.43,-2245.28,-5.56894,2.67949,-1.88124,8869.65,-810.668,3949.28,-4.37301,-0.000818898,-2.60751
0.225,5071.6,-1848.09,8180.22,2.59522,1.78987,-2.20291,4873.95,-9.84839,8445.75,-0.550308,-0.549336,-1.36211,606.191,9545.54,-2168.77,-5.16334,-2.66214,-1.41251,453.536,-9925.81,-1314.32,-3.07918,0.399207,1.47231,-2176.87,9464.65,-403.59,-0.557925,-3.6101,3.20181,214.289,-9677.57,-2247.51,-5.60866,2.77087,-1.71845,8880.02,-827.782,3953.47,-4.4535,-0.0213465,-2.76349
0.226,5062.56,-1833.06,8172.7,2.60909,1.75102,-2.34581,4853.83,-19.2067,8433.05,-0.627854,-0.588728,-1.25272,604.217,9523.4,-2175.75,-5.24917,-2.67578,-1.37522,449.312,-9951.35,-1280.38,-3.16134,0.414172,1.30609,-2159.79,9465.01,-404.334,-0.58929,-3.69664,3.21217,221.988,-9677.7,-2249.74,-5.64838,2.86226,-1.55566,8890.39,-844.896,3957.65,-4.534,-0.0418741,-2.91947
0.227,5048.25,-1817.14,8163.8,2.63138,1.74072,-2.40774,4844.41,-26.3934,8422.75,-0.636754,-0.616413,-1.25068,596.871,9504.75,-2177.15,-5.31115,-2.66469,-1.36188,448.849,-9958.7,-1266.23,-3.20412,0.43771,1.20148,-2150.28,9464.82,-408.45,-0.627649,-3.76805,3.16087,223.971,-9685.38,-2252.3,-5.6773,2.91473,-1.42098,8894.8,-849.693,3957.13,-4.58126,-0.0639242,-3.04819
0.228,5023.39,-1799.43,8152.12,2.67051,1.78751,-2.30774,4856.36,-29.237,8417.25,-0.508362,-0.620682,-1.46337,578.78,9493.09,-2167.39,-5.3254,-2.60412,-1.39644,455.912,-9929.67,-1291.64,-3.16815,0.478395,1.22008,-2155.94,9463.56,-419.312,-0.679998,-3.80923,2.98625,214.522,-9708.16,-2255.51,-5.6846,2.88938,-1.3425,8887.31,-829.86,3947.21,-4.56207,-0.0890193,-3.1224
0.229,4998.53,-1781.72,8140.44,2.70964,1.83431,-2.20774,4868.32,-32.0806,8411.75,-0.37997,-0.624951,-1.67605,560.69,9481.43,-2157.64,-5.33966,-2.54355,-1.431,462.974,-9900.63,-1317.06,-3.13217,0.51908,1.23867,-2161.59,9462.29,-430.175,-0.732347,-3.8504,2.81164,205.072,-9730.94,-2258.71,-5.69191,2.86404,-1.26403,8879.82,-810.027,3937.28,-4.54288,-0.114114,-3.1966
0.23,4973.67,-1764.01,8128.75,2.74878,1.8811,-2.10775,4880.27,-34.9242,8406.25,-0.251578,-0.62922,-1.88874,542.599,9469.77,-2147.88,-5.35392,-2.48297,-1.46556,470.036,-9871.6,-1342.48,-3.0962,0.559765,1.25727,-2167.24,9461.02,-441.037,-0.784695,-3.89158,2.63703,195.622,-9753.72,-2261.92,-5.69921,2.83869,-1.18555,8872.33,-790.194,3927.36,-4.52369,-0.139209,-3.2708
0.231,4948.81,-1746.3,8117.07,2.78791,1.92789,-2.00775,4892.23,-37.7678,8400.75,-0.123186,-0.63349,-2.10142,524.508,9458.11,-2138.12,-5.36818,-2.4224,-1.50013,477.098,-9842.57,-1367.89,-3.06023,0.60045,1.27587,-2172.89,9459.75,-451.899,-0.837044,-3.93275,2.46242,186.172,-9776.5,-2265.12,-5.70652,2.81334,-1.10708,8864.84,-770.361,3917.43,-4.50449,-0.164304,-3.34501
0.232,4969.15,-1740.43,8123.84,2.77248,1.90294,-1.91972,4901.79,-27.3183,8421.86,-0.199809,-0.563013,-2.10278,539.317,9464.48,-2122.09,-5.30426,-2.35391,-1.53011,488.508,-9845.19,-1398.93,-3.07936,0.751061,1.25446,-2189.76,9457.85,-450.951,-0.782096,-4.00897,2.4596,225.873,-9768.94,-2267.55,-5.80289,2.82028,-1.09231,8863.15,-770.613,3912.86,-4.56591,-0.0514517,-3.45744
0.233,4995.15,-1736.04,8132.91,2.75024,1.86902,-1.83319,4911.06,-15.2072,8446.29,-0.302058,-0.483193,-2.07771,558.239,9473.1,-2105.28,-5.23057,-2.28442,-1.55951,500.461,-9851.77,-1430.68,-3.10538,0.915412,1.22805,-2208.04,9455.87,-448.526,-0.713736,-4.08956,2.47826,271.719,-9757.6,-2269.89,-5.91039,2.83125,-1.08549,8862.19,-773.375,3908.95,-4.6374,0.0786444,-3.57464
0.234,5021.14,-1731.65,8141.99,2.72799,1.8351,-1.74665,4920.33,-3.09603,8470.72,-0.404308,-0.403373,-2.05265,577.16,9481.73,-2088.46,-5.15688,-2.21494,-1.58892,512.414,-9858.35,-1462.42,-3.1314,1.07976,1.20163,-2226.31,9453.89,-446.102,-0.645377,-4.17016,2.49692,317.564,-9746.25,-2272.22,-6.01789,2.84222,-1.07868,8861.23,-776.138,3905.04,-4.70889,0.20874,-3.69185
0.235,5047.13,-1727.26,8151.06,2.70575,1.80119,-1.66012,4929.59,9.01511,8495.16,-0.506557,-0.323553,-2.02758,596.082,9490.35,-2071.65,-5.08319,-2.14546,-1.61833,524.367,-9864.92,-1494.17,-3.15742,1.24411,1.17522,-2244.58,9451.91,-443.677,-0.577017,-4.25075,2.51558,363.409,-9734.91,-2274.55,-6.12539,2.8532,-1.07187,8860.26,-778.9,3901.13,-4.78039,0.338837,-3.80906
0.236,5054.4,-1738.24,8158.24,2.7442,1.76959,-1.57505,4927.8,17.4432,8504.52,-0.51923,-0.31103,-2.01174,605.534,9500.42,-2068.44,-5.01626,-2.1479,-1.5585,525.822,-9857.19,-1499.55,-3.15385,1.28725,1.09958,-2257.08,9448.99,-442.791,-0.508836,-4.33384,2.53574,390.609,-9737.9,-2278.18,-6.13611,2.84644,-1.02891,8863.36,-781.63,3901.39,-4.8509,0.431021,-3.87558
0.237,5038.26,-1768.42,8163.04,2.85852,1.74089,-1.49182,4912.17,21.2674,8495.04,-0.419932,-0.382629,-2.00743,603.149,9512.31,-2082.26,-4.95778,-2.24025,-1.38711,514.155,-9831.58,-1471.98,-3.11331,1.17886,0.962411,-2262.37,9444.89,-443.827,-0.440879,-4.42004,2.55777,394.502,-9758.81,-2283.43,-6.02584,2.81752,-0.940744,8871.54,-784.32,3906.85,-4.92019,0.475816,-3.87875
0.238,5022.12,-1798.6,8167.85,2.97284,1.71218,-1.40859,4896.55,25.0916,8485.57,-0.320635,-0.454228,-2.00312,600.765,9524.19,-2096.07,-4.8993,-2.3326,-1.21573,502.488,-9805.97,-1444.41,-3.07277,1.07048,0.825238,-2267.65,9440.8,-444.863,-0.372922,-4.50624,2.5798,398.396,-9779.71,-2288.68,-5.91557,2.78861,-0.852583,8879.72,-787.009,3912.31,-4.98948,0.520611,-3.88191
0.239,5005.98,-1828.78,8172.65,3.08716,1.68348,-1.32536,4880.92,28.9159,8476.1,-0.221337,-0.525827,-1.99881,598.38,9536.07,-2109.88,-4.84081,-2.42495,-1.04434,490.821,-9780.35,-1416.84,-3.03223,0.962094,0.688064,-2272.94,9436.7,-445.899,-0.304965,-4.59244,2.60183,402.289,-9800.62,-2293.93,-5.8053,2.75969,-0.764423,8887.9,-789.698,3917.77,-5.05877,0.565405,-3.88508
0.24,4989.84,-1858.95,8177.46,3.20148,1.65478,-1.24212,4865.3,32.7401,8466.62,-0.12204,-0.597426,-1.9945,595.996,9547.95,-2123.69,-4.78233,-2.5173,-0.87296,479.154,-9754.74,-1389.26,-2.99169,0.85371,0.550891,-2278.22,9432.6,-446.935,-0.237008,-4.67864,2.62386,406.182,-9821.53,-2299.18,-5.69503,2.73078,-0.676262,8896.08,-792.388,3923.23,-5.12805,0.6102,-3.88824
0.241,4990.74,-1868.04,8193.08,3.09129,1.74455,-1.44616,4853.56,42.778,8475.89,-0.132937,-0.571284,-1.95762,580.643,9549.06,-2117.38,-4.82767,-2.54016,-0.728871,487.295,-9772.73,-1403.78,-3.03327,0.840497,0.586259,-2270.83,9433.34,-443.409,-0.214062,-4.84815,2.62386,418.506,-9789.79,-2311.19,-5.72856,2.70465,-0.678491,8884.29,-790.21,3911.76,-5.04605,0.737131,-3.75142
0.242,4991.64,-1877.13,8208.71,2.9811,1.83433,-1.65019,4841.82,52.816,8485.16,-0.143834,-0.545143,-1.92074,565.291,9550.16,-2111.07,-4.87301,-2.56302,-0.584782,495.437,-9790.72,-1418.3,-3.07485,0.827284,0.621626,-2263.43,9434.09,-439.883,-0.191116,-5.01766,2.62386,430.83,-9758.04,-2323.2,-5.7621,2.67853,-0.680721,8872.51,-788.032,3900.29,-4.96405,0.864061,-3.61459
0.243,4992.54,-1886.23,8224.33,2.87092,1.9241,-1.85422,4830.09,62.8539,8494.42,-0.15473,-0.519001,-1.88387,549.939,9551.27,-2104.76,-4.91835,-2.58589,-0.440692,503.578,-9808.71,-1432.81,-3.11643,0.814071,0.656993,-2256.04,9434.83,-436.357,-0.16817,-5.18718,2.62386,443.154,-9726.3,-2335.21,-5.79564,2.6524,-0.68295,8860.73,-785.854,3888.82,-4.88205,0.990992,-3.47776
0.244,4993.44,-1895.32,8239.96,2.76073,2.01388,-2.05825,4818.35,72.8918,8503.69,-0.165627,-0.49286,-1.84699,534.586,9552.37,-2098.45,-4.96369,-2.60875,-0.296603,511.72,-9826.71,-1447.33,-3.15801,0.800858,0.692361,-2248.64,9435.57,-432.83,-0.145225,-5.35669,2.62386,455.478,-9694.55,-2347.21,-5.82917,2.62628,-0.68518,8848.95,-783.676,3877.35,-4.80004,1.11792,-3.34094
0.245,5003.68,-1879.99,8234.11,2.70107,2.00505,-2.08157,4802.06,85.463,8503.21,-0.208496,-0.480066,-1.82687,529.821,9552.31,-2100.27,-4.9295,-2.61243,-0.318695,527.343,-9832.19,-1445.61,-3.19384,0.802398,0.608636,-2226.12,9435.21,-434.435,-0.15767,-5.41836,2.59959,471.615,-9693.65,-2341.78,-5.76237,2.68088,-0.628481,8843.25,-781.031,3881.74,-4.6823,1.18343,-3.24124
0.246,5021.39,-1845.14,8211.07,2.68182,1.91736,-1.96032,4782.13,100.061,8494.94,-0.276943,-0.477951,-1.82017,533.525,9551.3,-2108.6,-4.8317,-2.60076,-0.473733,548.951,-9827.67,-1430.9,-3.22506,0.815739,0.429638,-2191.49,9433.95,-440.144,-0.198429,-5.39374,2.55591,490.801,-9717.42,-2322.38,-5.6153,2.80007,-0.52464,8842.41,-778.011,3898.83,-4.53596,1.19981,-3.17124
0.247,5039.11,-1810.29,8188.04,2.66257,1.82966,-1.83907,4762.19,114.659,8486.67,-0.34539,-0.475836,-1.81346,537.23,9550.3,-2116.92,-4.73389,-2.58909,-0.628771,570.559,-9823.15,-1416.19,-3.25628,0.82908,0.250641,-2156.86,9432.7,-445.853,-0.239188,-5.36913,2.51223,509.988,-9741.2,-2302.99,-5.46823,2.91926,-0.420798,8841.57,-774.992,3915.91,-4.38963,1.21618,-3.10124
0.248,5056.82,-1775.44,8165.01,2.64332,1.74196,-1.71782,4742.26,129.257,8478.4,-0.413837,-0.473721,-1.80676,540.934,9549.3,-2125.25,-4.63608,-2.57742,-0.783808,592.167,-9818.62,-1401.48,-3.2875,0.842421,0.0716426,-2122.24,9431.44,-451.562,-0.279947,-5.34451,2.46855,529.175,-9764.98,-2283.6,-5.32117,3.03845,-0.316957,8840.73,-771.973,3932.99,-4.24329,1.23256,-3.03125
0.249,5071.72,-1745.12,8147.8,2.62319,1.66656,-1.61687,4727.66,139.63,8472.52,-0.461087,-0.478878,-1.79425,544.607,9547.95,-2130.59,-4.55406,-2.56982,-0.908598,608.37,-9816.18,-1388.47,-3.32532,0.854785,-0.0707313,-2092.55,9429.12,-455.582,-0.319877,-5.32076,2.41989,542.567,-9782.69,-2265.24,-5.20515,3.1523,-0.220382,8839.71,-769.305,3947.79,-4.118,1.24765,-2.9644
0.25,5064.05,-1751.04,8177.21,2.59597,1.68954,-1.67829,4755.75,116.206,8485.78,-0.338759,-0.542218,-1.73526,548.027,9543.81,-2111.95,-4.59828,-2.59477,-0.791408,581.338,-9830.33,-1389.01,-3.41598,0.859326,0.0798862,-2102.35,9418.29,-446.091,-0.35318,-5.30391,2.33143,509.601,-9751.95,-2255.17,-5.33759,3.22337,-0.181947,8837.25,-769.451,3944.3,-4.16104,1.25251,-2.92277
0.251,5056.38,-1756.96,8206.62,2.56876,1.71252,-1.73971,4783.85,92.7816,8499.04,-0.216431,-0.605559,-1.67627,551.447,9539.67,-2093.31,-4.64251,-2.61973,-0.674217,554.306,-9844.49,-1389.55,-3.50664,0.863867,0.230504,-2112.15,9407.46,-436.599,-0.386483,-5.28705,2.24296,476.635,-9721.21,-2245.09,-5.47002,3.29444,-0.143511,8834.78,-769.596,3940.81,-4.20408,1.25737,-2.88114
0.252,5048.71,-1762.88,8236.03,2.54154,1.7355,-1.80113,4811.94,69.3575,8512.3,-0.0941027,-0.668899,-1.61728,554.867,9535.53,-2074.67,-4.68673,-2.64468,-0.557026,527.274,-9858.65,-1390.1,-3.5973,0.868408,0.381121,-2121.96,9396.63,-427.108,-0.419786,-5.2702,2.15449,443.668,-9690.46,-2235.02,-5.60246,3.36551,-0.105075,8832.31,-769.742,3937.32,-4.24713,1.26224,-2.83951
0.253,5041.04,-1768.79,8265.44,2.51433,1.75848,-1.86255,4840.04,45.9335,8525.57,0.0282255,-0.732239,-1.55829,558.287,9531.39,-2056.03,-4.73096,-2.66963,-0.439835,500.242,-9872.81,-1390.64,-3.68796,0.872949,0.531739,-2131.76,9385.8,-417.616,-0.453088,-5.25334,2.06603,410.702,-9659.72,-2224.94,-5.73489,3.43659,-0.0666393,8829.84,-769.888,3933.83,-4.29017,1.2671,-2.79789
0.254,5047.49,-1780.08,8266.65,2.46878,1.79363,-1.79441,4847.75,46.8889,8519.7,0.0744034,-0.713573,-1.50367,560.922,9531.22,-2044.92,-4.76527,-2.74895,-0.448042,506.473,-9876.98,-1404.53,-3.70185,0.912528,0.511988,-2132.16,9382.25,-402.123,-0.445494,-5.24029,2.05367,414.788,-9646.43,-2246.61,-5.81324,3.51465,-0.0410074,8832.45,-753.946,3928.72,-4.19298,1.34408,-2.64607
0.255,5061.0,-1794.05,8253.78,2.41407,1.83486,-1.66149,4845.28,60.034,8504.28,0.0825062,-0.653905,-1.45122,563.164,9533.03,-2037.58,-4.79462,-2.85544,-0.518946,529.337,-9876.16,-1425.11,-3.67734,0.969625,0.407053,-2127.86,9382.33,-383.629,-0.417451,-5.22914,2.07938,437.4,-9641.87,-2284.15,-5.86455,3.59622,-0.0217775,8837.61,-729.961,3922.79,-4.02568,1.45712,-2.43917
0.256,5074.52,-1808.02,8240.9,2.35935,1.87609,-1.52857,4842.8,73.1791,8488.86,0.0906089,-0.594237,-1.39877,565.407,9534.85,-2030.25,-4.82397,-2.96194,-0.589851,552.2,-9875.34,-1445.69,-3.65284,1.02672,0.302117,-2123.56,9382.42,-365.135,-0.389408,-5.218,2.10508,460.012,-9637.32,-2321.7,-5.91586,3.67778,-0.00254768,8842.76,-705.975,3916.87,-3.85838,1.57016,-2.23227
0.257,5088.03,-1821.99,8228.02,2.30464,1.91732,-1.39565,4840.33,86.3242,8473.44,0.0987117,-0.534569,-1.34632,567.649,9536.66,-2022.91,-4.85333,-3.06843,-0.660756,575.064,-9874.53,-1466.26,-3.62834,1.08382,0.197182,-2119.26,9382.5,-346.641,-0.361365,-5.20685,2.13079,482.623,-9632.76,-2359.24,-5.96718,3.75935,0.0166822,8847.92,-681.99,3910.94,-3.69108,1.6832,-2.02537
0.258,5093.85,-1833.15,8221.28,2.23763,1.94349,-1.35835,4837.69,95.4186,8465.23,0.097502,-0.487256,-1.3345,573.12,9536.01,-2018.53,-4.87938,-3.14349,-0.684249,589.805,-9878.75,-1479.37,-3.58327,1.10958,0.0802295,-2116.05,9383.09,-336.943,-0.350341,-5.1851,2.14807,504.034,-9632.37,-2384.02,-5.97608,3.83693,0.0409668,8848.75,-665.515,3910.23,-3.57552,1.78459,-1.866
0.259,5072.71,-1834.46,8236.0,2.12763,1.91697,-1.65573,4834.46,90.3352,8482.27,0.0636987,-0.483186,-1.46485,589.896,9526.72,-2024.49,-4.89389,-3.10854,-0.541801,576.117,-9900.61,-1466.31,-3.46623,1.02564,-0.0787834,-2116.67,9385.47,-358.029,-0.398879,-5.12623,2.13589,521.242,-9646.59,-2364.11,-5.83657,3.90056,0.0829431,8834.47,-675.329,3927.78,-3.64108,1.8452,-1.87302
0.26,5051.57,-1835.78,8250.72,2.01763,1.89044,-1.95311,4831.23,85.2518,8499.31,0.0298955,-0.479115,-1.5952,606.671,9517.44,-2030.46,-4.9084,-3.07359,-0.399352,562.429,-9922.48,-1453.25,-3.34918,0.941703,-0.237796,-2117.29,9387.85,-379.116,-0.447417,-5.06735,2.12371,538.45,-9660.81,-2344.21,-5.69705,3.96419,0.124919,8820.19,-685.142,3945.33,-3.70664,1.9058,-1.88005
0.261,5030.43,-1837.1,8265.45,1.90763,1.86392,-2.25048,4828.0,80.1684,8516.35,-0.00390779,-0.475045,-1.72555,623.446,9508.15,-2036.42,-4.92291,-3.03864,-0.256904,548.741,-9944.34,-1440.19,-3.23214,0.857766,-0.396809,-2117.92,9390.22,-400.203,-0.495955,-5.00848,2.11154,555.657,-9675.03,-2324.31,-5.55753,4.02782,0.166896,8805.91,-694.956,3962.88,-3.7722,1.96641,-1.88707
0.262,5009.29,-1838.42,8280.17,1.79763,1.8374,-2.54786,4824.77,75.0849,8533.4,-0.0377111,-0.470975,-1.8559,640.221,9498.87,-2042.39,-4.93742,-3.00369,-0.114455,535.053,-9966.21,-1427.13,-3.11509,0.773829,-0.555822,-2118.54,9392.6,-421.289,-0.544493,-4.9496,2.09936,572.865,-9689.25,-2304.41,-5.41802,4.09145,0.208872,8791.63,-704.769,3980.42,-3.83776,2.02702,-1.89409
0.263,5001.07,-1819.41,8250.92,1.86866,1.8738,-2.51941,4824.48,76.4911,8523.38,-0.0806465,-0.465286,-1.92771,641.921,9490.81,-2029.1,-4.98283,-3.07858,-0.183608,532.968,-9958.54,-1444.68,-3.13467,0.7109,-0.553264,-2131.62,9393.42,-419.095,-0.591422,-4.90922,2.08396,572.271,-9698.64,-2283.2,-5.42007,4.12557,0.175977,8789.09,-727.028,3977.94,-3.81948,1.9145,-1.72966
0.264,4996.55,-1794.6,8209.1,1.99142,1.92819,-2.39787,4825.04,79.7514,8505.63,-0.126191,-0.459134,-1.9828,639.313,9483.11,-2010.31,-5.03708,-3.18485,-0.313218,534.198,-9942.43,-1470.97,-3.19329,0.653972,-0.504544,-2148.26,9393.81,-410.248,-0.637891,-4.87412,2.06765,566.591,-9706.66,-2261.63,-5.46257,4.15125,0.121691,8789.91,-752.842,3969.74,-3.77726,1.75251,-1.51624
0.265,4992.03,-1769.78,8167.28,2.11417,1.98257,-2.27633,4825.59,83.0118,8487.88,-0.171736,-0.452982,-2.03788,636.706,9475.4,-1991.52,-5.09133,-3.29112,-0.442829,535.428,-9926.32,-1497.26,-3.2519,0.597045,-0.455823,-2164.91,9394.2,-401.402,-0.68436,-4.83903,2.05133,560.911,-9714.68,-2240.05,-5.50506,4.17693,0.067404,8790.72,-778.657,3961.54,-3.73503,1.59052,-1.30282
0.266,4987.51,-1744.97,8125.46,2.23692,2.03696,-2.15479,4826.15,86.2721,8470.13,-0.21728,-0.44683,-2.09296,634.099,9467.7,-1972.73,-5.14558,-3.39739,-0.572439,536.659,-9910.21,-1523.55,-3.31052,0.540118,-0.407102,-2181.55,9394.59,-392.556,-0.730829,-4.80393,2.03502,555.231,-9722.7,-2218.47,-5.54756,4.2026,0.0131175,8791.54,-804.471,3953.34,-3.6928,1.42854,-1.08941
0.267,4978.88,-1723.9,8107.07,2.31864,2.03714,-2.05107,4823.3,90.0083,8461.44,-0.22601,-0.472079,-2.09965,637.326,9473.91,-1971.83,-5.11403,-3.42813,-0.627998,538.058,-9898.56,-1530.45,-3.31802,0.539707,-0.35107,-2188.65,9401.46,-383.569,-0.787134,-4.78278,2.02719,547.854,-9739.82,-2208.29,-5.60097,4.22284,-0.0526732,8796.0,-811.272,3951.18,-3.65599,1.33901,-0.904273
0.268,4962.04,-1710.31,8135.56,2.31827,1.92892,-1.983,4813.63,94.6963,8470.86,-0.161109,-0.56013,-2.00953,652.221,9507.96,-2006.7,-4.91087,-3.30779,-0.535455,539.795,-9895.82,-1498.56,-3.22328,0.652329,-0.280417,-2176.66,9421.28,-374.299,-0.863111,-4.78955,2.03631,537.083,-9775.15,-2220.91,-5.67618,4.23221,-0.141472,8807.73,-780.046,3961.12,-3.63003,1.39442,-0.775711
0.269,4945.2,-1696.72,8164.04,2.3179,1.8207,-1.91493,4803.96,99.3844,8480.29,-0.0962081,-0.64818,-1.91941,667.117,9542.0,-2041.57,-4.70771,-3.18746,-0.442912,541.532,-9893.09,-1466.67,-3.12855,0.764951,-0.209763,-2164.68,9441.11,-365.03,-0.939087,-4.79631,2.04543,526.311,-9810.47,-2233.53,-5.7514,4.24157,-0.230271,8819.47,-748.82,3971.05,-3.60406,1.44983,-0.647149
0.27,4928.36,-1683.13,8192.52,2.31753,1.71248,-1.84685,4794.3,104.072,8489.71,-0.0313073,-0.736231,-1.82928,682.013,9576.04,-2076.45,-4.50455,-3.06712,-0.350369,543.269,-9890.35,-1434.78,-3.03381,0.877573,-0.13911,-2152.69,9460.93,-355.76,-1.01506,-4.80308,2.05456,515.54,-9845.8,-2246.16,-5.82662,4.25094,-0.319069,8831.21,-717.594,3980.98,-3.5781,1.50524,-0.518587
0.271,4911.52,-1669.54,8221.0,2.31717,1.60427,-1.77878,4784.63,108.76,8499.13,0.0335936,-0.824282,-1.73916,696.908,9610.09,-2111.32,-4.3014,-2.94678,-0.257826,545.006,-9887.61,-1402.89,-2.93907,0.990195,-0.0684564,-2140.7,9480.75,-346.49,-1.09104,-4.80985,2.06368,504.769,-9881.12,-2258.78,-5.90183,4.2603,-0.407868,8842.95,-686.369,3990.91,-3.55214,1.56065,-0.390025
0.272,4931.81,-1692.23,8190.45,2.29362,1.67333,-1.79065,4786.47,117.236,8502.6,0.00980081,-0.805189,-1.68629,681.414,9588.28,-2091.58,-4.28979,-2.73711,-0.270962,543.761,-9896.14,-1436.02,-2.994,0.972595,-0.135875,-2118.91,9483.17,-347.599,-1.00839,-4.66829,1.96362,505.217,-9863.9,-2255.55,-5.77339,4.24684,-0.346392,8829.96,-691.136,3991.81,-3.53692,1.51074,-0.320347
0.273,4956.73,-1719.46,8152.52,2.26719,1.76456,-1.81252,4789.74,126.185,8505.32,-0.0250787,-0.772703,-1.63808,662.122,9559.49,-2065.02,-4.30213,-2.51627,-0.297307,542.143,-9906.08,-1477.28,-3.06764,0.938717,-0.220554,-2095.89,9483.41,-350.005,-0.905904,-4.50819,1.84991,507.069,-9840.11,-2250.34,-5.61948,4.23052,-0.266131,8813.89,-700.402,3991.57,-3.52304,1.44766,-0.25803
0.274,4981.65,-1746.69,8114.58,2.24075,1.85579,-1.83439,4793.01,135.134,8508.05,-0.0599583,-0.740217,-1.58986,642.829,9530.69,-2038.45,-4.31447,-2.29543,-0.323652,540.526,-9916.02,-1518.54,-3.14128,0.904839,-0.305232,-2072.88,9483.65,-352.411,-0.803423,-4.3481,1.73619,508.92,-9816.32,-2245.13,-5.46557,4.2142,-0.18587,8797.81,-709.668,3991.33,-3.50916,1.38459,-0.195712
0.275,5006.57,-1773.91,8076.65,2.21431,1.94701,-1.85625,4796.29,144.083,8510.77,-0.0948378,-0.707731,-1.54165,623.536,9501.9,-2011.89,-4.3268,-2.07459,-0.349997,538.908,-9925.96,-1559.8,-3.21492,0.870961,-0.38991,-2049.86,9483.88,-354.817,-0.700941,-4.188,1.62248,510.771,-9792.53,-2239.92,-5.31167,4.19789,-0.105609,8781.73,-718.934,3991.09,-3.49529,1.32151,-0.133395
0.276,5009.88,-1781.76,8062.21,2.21133,1.933,-1.7733,4786.15,146.464,8505.12,-0.138289,-0.675117,-1.52211,610.566,9487.81,-2006.05,-4.36385,-1.93347,-0.32817,537.521,-9923.99,-1569.49,-3.23754,0.87738,-0.446462,-2030.95,9484.53,-349.918,-0.655339,-4.07537,1.61747,515.936,-9772.75,-2236.88,-5.21842,4.17303,-0.0679169,8781.57,-726.645,3978.44,-3.47619,1.34254,-0.0688817
0.277,4986.17,-1765.37,8077.13,2.23766,1.78745,-1.55932,4759.24,140.636,8489.01,-0.192454,-0.642341,-1.53842,605.498,9492.11,-2026.13,-4.43177,-1.892,-0.246128,536.422,-9907.14,-1539.72,-3.19639,0.934169,-0.467855,-2017.16,9485.7,-335.887,-0.680837,-4.02209,1.74835,525.242,-9757.97,-2236.55,-5.20098,4.13749,-0.0834348,8801.29,-732.411,3950.27,-3.45056,1.46871,-0.00162344
0.278,4962.45,-1748.98,8092.06,2.264,1.64189,-1.34534,4732.34,134.807,8472.9,-0.246619,-0.609565,-1.55473,600.43,9496.4,-2046.2,-4.49969,-1.85053,-0.164085,535.323,-9890.29,-1509.95,-3.15524,0.990958,-0.489248,-2003.37,9486.87,-321.856,-0.706335,-3.9688,1.87922,534.549,-9743.2,-2236.22,-5.18354,4.10195,-0.0989528,8821.02,-738.178,3922.11,-3.42493,1.59488,0.0656349
0.279,4938.74,-1732.6,8106.98,2.29034,1.49634,-1.13136,4705.44,128.979,8456.79,-0.300784,-0.576789,-1.57104,595.363,9500.69,-2066.27,-4.56762,-1.80907,-0.0820426,534.224,-9873.43,-1480.17,-3.11409,1.04775,-0.510642,-1989.58,9488.04,-307.824,-0.731833,-3.91551,2.0101,543.855,-9728.43,-2235.89,-5.16611,4.06641,-0.114471,8840.74,-743.944,3893.94,-3.3993,1.72104,0.132893
0.28,4915.03,-1716.21,8121.91,2.31667,1.35078,-0.917385,4678.53,123.151,8440.67,-0.354949,-0.544013,-1.58736,590.295,9504.98,-2086.35,-4.63554,-1.7676,0.0,533.126,-9856.58,-1450.4,-3.07294,1.10454,-0.532035,-1975.79,9489.21,-293.793,-0.757332,-3.86222,2.14097,553.161,-9713.66,-2235.56,-5.14867,4.03087,-0.129989,8860.46,-749.711,3865.77,-3.37367,1.84721,0.200151
0.281,4928.99,-1729.18,8156.23,2.29791,1.40015,-0.930034,4719.95,121.329,8442.54,-0.338467,-0.584296,-1.67914,608.772,9504.77,-2067.36,-4.60463,-1.74098,-0.00155961,546.541,-9833.25,-1453.11,-3.10092,1.05368,-0.582537,-1987.03,9514.57,-298.677,-0.694489,-3.76361,2.17907,570.267,-9726.82,-2230.96,-5.20393,3.9724,-0.216081,8867.14,-756.713,3888.2,-3.35782,1.91853,0.37663
0.282,4942.95,-1742.15,8190.55,2.27914,1.44952,-0.942682,4761.36,119.506,8444.41,-0.321985,-0.624579,-1.77092,627.249,9504.55,-2048.37,-4.57371,-1.71435,-0.00311922,559.956,-9809.92,-1455.81,-3.1289,1.00283,-0.633039,-1998.27,9539.93,-303.561,-0.631646,-3.665,2.21716,587.372,-9739.98,-2226.36,-5.25919,3.91394,-0.302174,8873.82,-763.715,3910.62,-3.34197,1.98985,0.553109
0.283,4956.91,-1755.11,8224.88,2.26038,1.49889,-0.955331,4802.77,117.684,8446.28,-0.305503,-0.664861,-1.8627,645.727,9504.34,-2029.39,-4.5428,-1.68773,-0.00467883,573.371,-9786.6,-1458.52,-3.15687,0.951981,-0.683541,-2009.51,9565.3,-308.444,-0.568803,-3.56639,2.25525,604.477,-9753.15,-2221.76,-5.31444,3.85548,-0.388267,8880.5,-770.717,3933.05,-3.32611,2.06117,0.729587
0.284,4970.87,-1768.08,8259.2,2.24161,1.54826,-0.967979,4844.18,115.862,8448.14,-0.289021,-0.705144,-1.95448,664.204,9504.13,-2010.4,-4.51189,-1.66111,-0.00623844,586.786,-9763.27,-1461.23,-3.18485,0.901129,-0.734043,-2020.76,9590.66,-313.328,-0.50596,-3.46778,2.29335,621.583,-9766.31,-2217.16,-5.3697,3.79701,-0.474359,8887.18,-777.719,3955.48,-3.31026,2.13249,0.906065
0.285,4981.79,-1778.94,8262.37,2.16726,1.5269,-0.964637,4865.64,121.251,8447.02,-0.275483,-0.681472,-1.92436,680.605,9500.13,-2003.66,-4.42652,-1.65235,-0.0347185,596.804,-9763.06,-1457.55,-3.20453,0.885772,-0.760413,-2024.32,9593.25,-319.806,-0.438519,-3.36243,2.29145,619.172,-9767.42,-2212.88,-5.46101,3.77462,-0.552098,8897.22,-782.965,3966.18,-3.30889,2.20841,1.05897
0.286,4990.29,-1788.11,8240.61,2.04845,1.44895,-0.948501,4871.13,132.41,8443.51,-0.2643,-0.606635,-1.7967,695.346,9493.11,-2006.71,-4.29758,-1.65789,-0.084735,604.105,-9781.33,-1448.77,-3.21757,0.898812,-0.767476,-2021.73,9577.63,-327.559,-0.3674,-3.2517,2.25756,601.149,-9758.88,-2208.84,-5.58116,3.7811,-0.623153,8909.94,-786.806,3967.51,-3.31911,2.28801,1.193
0.287,4998.78,-1797.27,8218.85,1.92963,1.371,-0.932366,4876.62,143.568,8440.0,-0.253117,-0.531798,-1.66905,710.086,9486.08,-2009.76,-4.16864,-1.66344,-0.134752,611.406,-9799.61,-1439.98,-3.23061,0.911851,-0.77454,-2019.15,9562.01,-335.313,-0.296281,-3.14096,2.22366,583.126,-9750.34,-2204.81,-5.7013,3.78757,-0.694208,8922.66,-790.647,3968.84,-3.32932,2.36761,1.32704
0.288,5007.27,-1806.44,8197.09,1.81082,1.29304,-0.91623,4882.1,154.726,8436.49,-0.241935,-0.456961,-1.5414,724.826,9479.06,-2012.82,-4.0397,-1.66898,-0.184768,618.707,-9817.89,-1431.2,-3.24365,0.924891,-0.781604,-2016.56,9546.38,-343.066,-0.225162,-3.03022,2.18977,565.103,-9741.81,-2200.77,-5.82145,3.79404,-0.765262,8935.38,-794.488,3970.17,-3.33954,2.44721,1.46108
0.289,5013.46,-1812.51,8179.58,1.70377,1.22549,-0.897018,4884.77,162.087,8434.73,-0.233682,-0.388057,-1.43132,735.434,9473.62,-2015.36,-3.93639,-1.65333,-0.220445,624.301,-9834.66,-1422.68,-3.2513,0.931458,-0.779389,-2014.6,9532.8,-348.597,-0.171655,-2.9235,2.16038,548.367,-9736.52,-2195.36,-5.92037,3.80428,-0.828065,8944.22,-801.136,3970.67,-3.33119,2.52044,1.58597
0.29,5001.21,-1793.8,8196.05,1.69079,1.24116,-0.853192,4864.9,139.07,8446.93,-0.248868,-0.366615,-1.46189,712.977,9480.8,-2013.8,-4.03815,-1.46819,-0.14141,616.244,-9839.37,-1416.19,-3.21583,0.886241,-0.702946,-2017.68,9535.51,-336.349,-0.259048,-2.8489,2.16704,541.917,-9757.25,-2178.93,-5.84945,3.84464,-0.824846,8922.01,-830.238,3964.53,-3.17436,2.54273,1.63769
0.291,4988.96,-1775.09,8212.52,1.67782,1.25683,-0.809365,4845.02,116.054,8459.14,-0.264054,-0.345172,-1.49246,690.52,9487.98,-2012.24,-4.13991,-1.28305,-0.0623752,608.186,-9844.07,-1409.7,-3.18035,0.841025,-0.626503,-2020.76,9538.23,-324.101,-0.34644,-2.7743,2.1737,535.468,-9777.99,-2162.49,-5.77854,3.885,-0.821626,8899.81,-859.339,3958.39,-3.01753,2.56502,1.68942
0.292,4976.71,-1756.38,8228.99,1.66484,1.27249,-0.765539,4825.14,93.0371,8471.34,-0.279241,-0.32373,-1.52303,668.063,9495.16,-2010.69,-4.24167,-1.09791,0.0166599,600.129,-9848.78,-1403.21,-3.14488,0.795809,-0.55006,-2023.83,9540.94,-311.853,-0.433833,-2.69971,2.18036,529.019,-9798.72,-2146.06,-5.70762,3.92536,-0.818407,8877.6,-888.441,3952.25,-2.8607,2.58731,1.74115
0.293,4964.46,-1737.67,8245.46,1.65187,1.28816,-0.721713,4805.27,70.0205,8483.55,-0.294427,-0.302288,-1.55361,645.606,9502.34,-2009.13,-4.34343,-0.912775,0.095695,592.071,-9853.48,-1396.72,-3.10941,0.750593,-0.473617,-2026.91,9543.65,-299.605,-0.521225,-2.62511,2.18702,522.57,-9819.46,-2129.63,-5.63671,3.96572,-0.815188,8855.4,-917.543,3946.12,-2.70387,2.6096,1.79288
0.294,4969.34,-1736.76,8260.08,1.64338,1.31766,-0.783405,4807.94,74.7282,8481.29,-0.25503,-0.304148,-1.58352,642.501,9504.65,-2015.25,-4.33519,-0.840609,0.117287,577.328,-9855.98,-1396.39,-3.09294,0.702892,-0.408576,-2020.02,9543.81,-293.654,-0.535015,-2.47304,2.2471,529.141,-9825.61,-2135.33,-5.54696,3.89001,-0.84598,8849.86,-911.576,3931.97,-2.67942,2.56046,1.9037
0.295,4982.79,-1744.77,8273.77,1.63714,1.35408,-0.897857,4821.9,93.2982,8471.81,-0.18834,-0.317661,-1.6131,649.073,9504.54,-2025.2,-4.27194,-0.824931,0.110158,559.243,-9857.39,-1399.14,-3.08596,0.65395,-0.349235,-2008.14,9542.7,-290.85,-0.512002,-2.28224,2.3339,542.222,-9824.46,-2152.11,-5.44779,3.75626,-0.893777,8852.66,-888.074,3913.81,-2.72116,2.47561,2.04406
0.296,4996.23,-1752.77,8287.46,1.6309,1.3905,-1.01231,4835.85,111.868,8462.32,-0.121651,-0.331173,-1.64268,655.644,9504.43,-2035.16,-4.2087,-0.809252,0.103029,541.157,-9858.79,-1401.89,-3.07899,0.605008,-0.289895,-1996.27,9541.58,-288.047,-0.48899,-2.09144,2.4207,555.302,-9823.32,-2168.88,-5.34863,3.62251,-0.941574,8855.46,-864.573,3895.65,-2.7629,2.39075,2.18443
0.297,5009.68,-1760.77,8301.15,1.62467,1.42691,-1.12676,4849.8,130.438,8452.83,-0.0549615,-0.344685,-1.67226,662.215,9504.32,-2045.11,-4.14545,-0.793573,0.0958998,523.071,-9860.19,-1404.64,-3.07201,0.556066,-0.230555,-1984.39,9540.46,-285.244,-0.465978,-1.90064,2.50749,568.383,-9822.18,-2185.66,-5.24947,3.48876,-0.98937,8858.26,-841.072,3877.5,-2.80464,2.3059,2.3248
0.298,5018.36,-1764.41,8303.44,1.60552,1.4496,-1.21112,4860.89,142.624,8443.19,-0.0302757,-0.332715,-1.69011,671.419,9507.2,-2055.1,-4.10197,-0.770938,0.0689421,511.857,-9864.88,-1408.03,-3.06719,0.515968,-0.190138,-1978.44,9533.12,-280.896,-0.44976,-1.71428,2.57472,579.984,-9817.33,-2192.47,-5.16623,3.3407,-1.01564,8865.58,-826.472,3861.2,-2.84974,2.25717,2.45957
0.299,5010.4,-1752.76,8265.79,1.54121,1.42422,-1.19015,4861.93,132.465,8432.99,-0.152603,-0.23156,-1.66693,689.835,9520.54,-2065.18,-4.12764,-0.723957,-0.0274154,524.694,-9881.04,-1413.64,-3.06987,0.506828,-0.215954,-1993.2,9503.98,-271.143,-0.45732,-1.54346,2.57344,586.409,-9799.49,-2164.43,-5.13877,3.14251,-0.966539,8888.78,-843.025,3851.4,-2.90664,2.33488,2.57475
0.3,5002.43,-1741.11,8228.14,1.47689,1.39884,-1.16919,4862.97,122.306,8422.8,-0.27493,-0.130405,-1.64375,708.252,9533.89,-2075.27,-4.15332,-0.676976,-0.123773,537.531,-9897.21,-1419.26,-3.07256,0.497688,-0.241769,-2007.97,9474.85,-261.39,-0.46488,-1.37265,2.57216,592.833,-9781.66,-2136.39,-5.11131,2.94433,-0.917443,8911.98,-859.578,3841.6,-2.96354,2.4126,2.68994
0.301,4994.46,-1729.47,8190.49,1.41258,1.37346,-1.14822,4864.01,112.147,8412.6,-0.397257,-0.0292501,-1.62056,726.668,9547.24,-2085.35,-4.179,-0.629995,-0.22013,550.368,-9913.37,-1424.87,-3.07525,0.488548,-0.267585,-2022.74,9445.71,-251.637,-0.47244,-1.20183,2.57088,599.257,-9763.83,-2108.34,-5.08385,2.74615,-0.868347,8935.17,-876.131,3831.8,-3.02044,2.49031,2.80513
0.302,4986.5,-1717.82,8152.84,1.34826,1.34808,-1.12725,4865.05,101.988,8402.4,-0.519584,0.071905,-1.59738,745.084,9560.58,-2095.44,-4.20467,-0.583015,-0.316488,563.204,-9929.54,-1430.48,-3.07793,0.479408,-0.293401,-2037.51,9416.58,-241.884,-0.480001,-1.03101,2.5696,605.681,-9746.0,-2080.3,-5.05638,2.54796,-0.81925,8958.37,-892.684,3821.99,-3.07734,2.56803,2.92032
0.303,4984.89,-1725.06,8176.43,1.42435,1.34656,-1.06871,4854.88,94.0092,8408.19,-0.462388,0.0627892,-1.54412,725.525,9566.09,-2086.16,-4.19799,-0.488966,-0.288298,568.268,-9918.04,-1432.72,-3.0787,0.494356,-0.290074,-2030.97,9425.57,-250.165,-0.492447,-0.969814,2.53929,597.606,-9742.72,-2098.71,-5.00455,2.40192,-0.821908,8936.72,-894.79,3842.35,-3.09384,2.65103,2.9143
0.304,4985.1,-1737.71,8217.52,1.54054,1.35186,-0.999431,4841.51,86.654,8418.55,-0.353901,0.0221674,-1.48226,695.115,9569.36,-2071.34,-4.18206,-0.381469,-0.224524,571.11,-9898.65,-1433.98,-3.07891,0.516185,-0.278421,-2018.33,9445.46,-263.598,-0.506289,-0.939935,2.50068,585.387,-9743.61,-2130.4,-4.94576,2.27077,-0.839354,8902.27,-892.768,3871.33,-3.0988,2.73554,2.87367
0.305,4985.31,-1750.35,8258.6,1.65674,1.35716,-0.930152,4828.14,79.2988,8428.91,-0.245414,-0.0184544,-1.4204,664.705,9572.64,-2056.52,-4.16613,-0.273972,-0.160749,573.952,-9879.26,-1435.24,-3.07913,0.538015,-0.266768,-2005.7,9465.36,-277.031,-0.520131,-0.910057,2.46207,573.169,-9744.5,-2162.08,-4.88697,2.13962,-0.856799,8867.81,-890.746,3900.3,-3.10376,2.82004,2.83303
0.306,4985.51,-1762.99,8299.68,1.77293,1.36246,-0.860873,4814.78,71.9437,8439.27,-0.136927,-0.0590762,-1.35854,634.296,9575.91,-2041.71,-4.1502,-0.166476,-0.0969743,576.794,-9859.87,-1436.51,-3.07934,0.559845,-0.255116,-1993.07,9485.25,-290.465,-0.533973,-0.880178,2.42346,560.951,-9745.39,-2193.77,-4.82818,2.00848,-0.874244,8833.35,-888.725,3929.28,-3.10872,2.90455,2.79239
0.307,4985.84,-1767.23,8317.05,1.82096,1.38009,-0.863768,4805.49,72.1469,8449.78,-0.0651224,-0.0993368,-1.30636,622.491,9578.63,-2023.11,-4.08911,-0.0707218,-0.0928897,571.737,-9847.1,-1439.04,-3.08994,0.572218,-0.268555,-1978.24,9499.03,-304.851,-0.551981,-0.82232,2.38387,552.666,-9747.11,-2215.13,-4.78963,1.90559,-0.89885,8810.66,-875.89,3946.44,-3.07792,2.97586,2.77663
0.308,4986.4,-1754.68,8286.99,1.73266,1.42237,-1.01101,4804.35,87.467,8460.58,-0.0666844,-0.138875,-1.27352,647.896,9580.27,-1996.95,-3.9377,0.00154585,-0.208185,550.882,-9847.6,-1444.1,-3.1213,0.565677,-0.33218,-1959.0,9500.58,-321.145,-0.57832,-0.708503,2.34235,552.249,-9750.51,-2215.84,-4.79158,1.85923,-0.937779,8811.5,-841.431,3939.98,-2.97563,3.02076,2.81062
0.309,4986.97,-1742.13,8256.93,1.64437,1.46465,-1.15826,4803.21,102.787,8471.38,-0.0682463,-0.178413,-1.24068,673.301,9581.9,-1970.79,-3.78628,0.0738135,-0.32348,530.027,-9848.09,-1449.17,-3.15265,0.559137,-0.395805,-1939.77,9502.13,-337.438,-0.604659,-0.594686,2.30082,551.832,-9753.9,-2216.55,-4.79352,1.81287,-0.976707,8812.35,-806.973,3933.52,-2.87333,3.06567,2.84462
0.31,4987.53,-1729.58,8226.87,1.55607,1.50693,-1.3055,4802.07,118.107,8482.17,-0.0698083,-0.217951,-1.20785,698.706,9583.53,-1944.63,-3.63487,0.146081,-0.438776,509.172,-9848.59,-1454.23,-3.18401,0.552596,-0.459429,-1920.53,9503.69,-353.732,-0.630998,-0.480869,2.2593,551.415,-9757.3,-2217.25,-4.79546,1.76651,-1.01564,8813.2,-772.514,3927.05,-2.77104,3.11058,2.87862
0.311,4988.1,-1717.03,8196.81,1.46777,1.54921,-1.45275,4800.93,133.427,8492.97,-0.0713702,-0.25749,-1.17501,724.111,9585.16,-1918.47,-3.48345,0.218349,-0.554071,488.317,-9849.09,-1459.3,-3.21537,0.546056,-0.523054,-1901.29,9505.24,-370.025,-0.657337,-0.367052,2.21777,550.998,-9760.7,-2217.96,-4.79741,1.72015,-1.05456,8814.04,-738.055,3920.59,-2.66874,3.15548,2.91262
0.312,4977.79,-1705.99,8194.89,1.45851,1.51515,-1.28007,4813.33,137.781,8503.33,-0.160634,-0.225063,-1.24205,731.425,9574.15,-1941.38,-3.55852,0.308688,-0.497048,504.661,-9850.56,-1460.96,-3.16103,0.538169,-0.533858,-1923.12,9498.29,-360.811,-0.617621,-0.355753,2.23229,567.108,-9750.1,-2210.7,-4.789,1.68716,-1.12063,8824.32,-750.036,3921.99,-2.62767,3.16299,3.04539
0.313,4966.11,-1695.15,8196.48,1.45913,1.47156,-1.06741,4827.42,140.764,8513.64,-0.26086,-0.18364,-1.32158,736.478,9561.55,-1970.43,-3.66189,0.401285,-0.418486,525.655,-9852.15,-1462.19,-3.09598,0.530113,-0.538059,-1950.07,9490.28,-348.409,-0.569648,-0.357268,2.25381,585.284,-9737.75,-2202.43,-4.7793,1.65583,-1.19008,8835.79,-767.823,3924.37,-2.59426,3.16581,3.1905
0.314,4954.44,-1684.3,8198.08,1.45975,1.42796,-0.854751,4841.52,143.748,8523.95,-0.361087,-0.142218,-1.40112,741.531,9548.96,-1999.47,-3.76527,0.493883,-0.339923,546.649,-9853.74,-1463.42,-3.03092,0.522057,-0.54226,-1977.03,9482.26,-336.007,-0.521676,-0.358784,2.27533,603.46,-9725.41,-2194.17,-4.7696,1.6245,-1.25954,8847.25,-785.609,3926.75,-2.56085,3.16864,3.33562
0.315,4942.77,-1673.45,8199.67,1.46037,1.38437,-0.64209,4855.61,146.731,8534.26,-0.461313,-0.100795,-1.48065,746.583,9536.36,-2028.51,-3.86864,0.586481,-0.261361,567.643,-9855.33,-1464.66,-2.96587,0.514001,-0.546461,-2003.98,9474.25,-323.605,-0.473703,-0.3603,2.29685,621.636,-9713.06,-2185.91,-4.75989,1.59317,-1.32899,8858.71,-803.396,3929.13,-2.52744,3.17147,3.48074
0.316,4935.62,-1682.52,8203.1,1.49757,1.41394,-0.549318,4856.57,147.958,8536.78,-0.48416,-0.110844,-1.50978,739.39,9527.41,-2044.47,-3.9377,0.658792,-0.247061,584.033,-9853.48,-1463.8,-2.90524,0.461922,-0.554628,-2016.98,9474.37,-312.618,-0.473332,-0.299443,2.34373,637.542,-9706.62,-2184.83,-4.69004,1.61597,-1.38409,8858.08,-824.783,3936.46,-2.50817,3.20793,3.4722
0.317,4934.11,-1716.49,8208.81,1.5805,1.53498,-0.606408,4841.11,146.991,8529.58,-0.410283,-0.18523,-1.47592,716.89,9523.02,-2044.06,-3.96385,0.705746,-0.313091,594.667,-9847.34,-1460.33,-2.85015,0.354814,-0.56775,-2012.54,9484.65,-303.401,-0.532462,-0.16062,2.4223,650.609,-9707.54,-2192.74,-4.545,1.70642,-1.42123,8842.34,-850.671,3950.0,-2.50659,3.28643,3.27159
0.318,4932.61,-1750.45,8214.53,1.66343,1.65602,-0.663498,4825.65,146.025,8522.37,-0.336406,-0.259617,-1.44206,694.389,9518.63,-2043.65,-3.99,0.752699,-0.379121,605.302,-9841.2,-1456.87,-2.79506,0.247706,-0.580873,-2008.1,9494.92,-294.184,-0.591593,-0.0217966,2.50087,663.676,-9708.47,-2200.65,-4.39996,1.79687,-1.45838,8826.6,-876.558,3963.53,-2.505,3.36494,3.07099
0.319,4931.11,-1784.41,8220.25,1.74636,1.77706,-0.720588,4810.19,145.058,8515.17,-0.262529,-0.334003,-1.40821,671.888,9514.25,-2043.25,-4.01615,0.799653,-0.445151,615.937,-9835.06,-1453.4,-2.73997,0.140598,-0.593996,-2003.66,9505.2,-284.967,-0.650723,0.117027,2.57944,676.744,-9709.39,-2208.56,-4.25492,1.88732,-1.49553,8810.85,-902.446,3977.07,-2.50341,3.44344,2.87038
0.32,4929.61,-1818.37,8225.97,1.82929,1.8981,-0.777678,4794.73,144.091,8507.96,-0.188652,-0.40839,-1.37435,649.387,9509.86,-2042.84,-4.0423,0.846607,-0.511181,626.571,-9828.92,-1449.93,-2.68488,0.0334901,-0.607119,-1999.22,9515.48,-275.75,-0.709854,0.25585,2.65802,689.811,-9710.32,-2216.47,-4.10988,1.97776,-1.53268,8795.11,-928.334,3990.6,-2.50182,3.52194,2.66978
0.321,4925.4,-1817.38,8232.55,1.73917,1.78583,-0.746143,4810.02,149.001,8511.51,-0.254934,-0.353981,-1.35754,639.769,9529.64,-2038.68,-3.96649,0.825135,-0.53204,623.933,-9832.99,-1453.15,-2.72035,0.0166449,-0.549948,-1994.64,9505.27,-311.376,-0.74056,0.305435,2.6769,682.536,-9724.21,-2209.19,-4.18321,1.92478,-1.4994,8806.76,-898.399,3976.72,-2.55475,3.52582,2.50066
0.322,4921.2,-1816.4,8239.13,1.64904,1.67356,-0.714607,4825.32,153.911,8515.06,-0.321216,-0.299573,-1.34072,630.152,9549.42,-2034.52,-3.89069,0.803664,-0.5529,621.296,-9837.06,-1456.36,-2.75583,-0.000200301,-0.492776,-1990.06,9495.06,-347.002,-0.771266,0.355021,2.69577,675.26,-9738.1,-2201.92,-4.25654,1.87181,-1.46613,8818.41,-868.464,3962.84,-2.60768,3.52969,2.33154
0.323,4916.99,-1815.41,8245.71,1.55892,1.56129,-0.683072,4840.61,158.822,8518.62,-0.387498,-0.245164,-1.32391,620.534,9569.2,-2030.35,-3.81488,0.782193,-0.57376,618.658,-9841.13,-1459.58,-2.7913,-0.0170455,-0.435605,-1985.48,9484.85,-382.628,-0.801973,0.404606,2.71465,667.985,-9752.0,-2194.64,-4.32987,1.81883,-1.43286,8830.06,-838.529,3948.97,-2.66061,3.53356,2.16242
0.324,4912.79,-1814.42,8252.28,1.46879,1.44902,-0.651536,4855.9,163.732,8522.17,-0.453779,-0.190756,-1.3071,610.916,9588.99,-2026.19,-3.73908,0.760722,-0.59462,616.02,-9845.2,-1462.8,-2.82677,-0.0338907,-0.378434,-1980.9,9474.64,-418.253,-0.832679,0.454192,2.73353,660.709,-9765.89,-2187.37,-4.4032,1.76585,-1.39958,8841.71,-808.594,3935.09,-2.71354,3.53744,1.99331
0.325,4910.7,-1816.28,8254.14,1.44959,1.3107,-0.611223,4852.55,163.563,8525.33,-0.475861,-0.171643,-1.22269,611.557,9586.54,-2020.68,-3.68651,0.707999,-0.555867,608.281,-9848.53,-1468.69,-2.85255,-0.0010275,-0.327112,-1981.53,9456.13,-412.913,-0.825742,0.484914,2.69926,658.082,-9775.15,-2175.13,-4.43777,1.69025,-1.40857,8868.15,-795.223,3933.87,-2.71586,3.53916,1.86279
