Time,RFoot_accel.x,RFoot_accel.y,RFoot_accel.z,RFoot_gyro.x,RFoot_gyro.y,RFoot_gyro.z,LFoot_accel.x,LFoot_accel.y,LFoot_accel.z,LFoot_gyro.x,LFoot_gyro.y,LFoot_gyro.z,RShank_accel.x,RShank_accel.y,RShank_accel.z,RShank_gyro.x,RShank_gyro.y,RShank_gyro.z,LShank_accel.x,LShank_accel.y,LShank_accel.z,LShank_gyro.x,LShank_gyro.y,LShank_gyro.z,RThigh_accel.x,RThigh_accel.y,RThigh_accel.z,RThigh_gyro.x,RThigh_gyro.y,RThigh_gyro.z,LThigh_accel.x,LThigh_accel.y,LThigh_accel.z,LThigh_gyro.x,LThigh_gyro.y,LThigh_gyro.z,Pelvis_accel.x,Pelvis_accel.y,Pelvis_accel.z,Pelvis_gyro.x,Pelvis_gyro.y,Pelvis_gyro.z
0.0,5034.82,-1555.28,8024.86,8.79649,1.64434,0.323156,5021.29,108.076,8346.03,-0.382639,-0.356428,-2.24034,-178.284,9739.54,-1298.12,0.0317504,-5.21934,-0.238226,394.533,-9861.26,-1541.92,-3.28411,-2.16107,-8.75466,-1644.16,9670.94,-629.352,3.70144,-2.74852,-1.07066,1204.29,-9651.03,-2035.93,-6.2796,-2.82875,3.16867,9160.88,-877.269,3476.38,9.32345,-4.10729,0.936348
0.001,5024.98,-1577.26,8026.45,8.90829,1.59654,0.346553,5028.27,90.3185,8335.7,-0.581235,-0.332359,-2.35409,-172.473,9721.18,-1298.97,-0.0228888,-5.41943,-0.202061,363.651,-9865.74,-1524.93,-3.25727,-2.12011,-8.69437,-1657.85,9665.98,-627.069,3.66159,-2.99937,-1.01696,1227.31,-9621.58,-2036.81,-6.2126,-2.64645,3.14236,9159.1,-878.147,3476.8,9.0812,-3.93662,0.780294
0.002,5015.15,-1599.24,8028.04,9.02009,1.54874,0.369949,5035.26,72.5606,8325.37,-0.779831,-0.308291,-2.46784,-166.661,9702.83,-1299.83,-0.077528,-5.61951,-0.165896,332.769,-9870.23,-1507.94,-3.23042,-2.07915,-8.63409,-1671.54,9661.02,-624.787,3.62173,-3.25022,-0.963256,1250.32,-9592.13,-2037.68,-6.1456,-2.46415,3.11606,9157.32,-879.024,3477.22,8.83895,-3.76594,0.62424
0.003,5005.31,-1621.22,8029.62,9.1319,1.50095,0.393345,5042.24,54.8027,8315.04,-0.978427,-0.284223,-2.58159,-160.849,9684.47,-1300.69,-0.132167,-5.81959,-0.129731,301.887,-9874.72,-1490.95,-3.20357,-2.03819,-8.5738,-1685.23,9656.05,-622.504,3.58187,-3.50107,-0.909555,1273.34,-9562.68,-2038.56,-6.0786,-2.28184,3.08975,9155.55,-879.901,3477.64,8.5967,-3.59527,0.468186
0.004,4995.47,-1643.2,8031.21,9.2437,1.45315,0.416742,5049.23,37.0448,8304.71,-1.17702,-0.260155,-2.69534,-155.037,9666.11,-1301.55,-0.186806,-6.01967,-0.0935664,271.006,-9879.2,-1473.97,-3.17673,-1.99723,-8.51352,-1698.92,9651.09,-620.221,3.54201,-3.75192,-0.855854,1296.36,-9533.23,-2039.44,-6.0116,-2.09954,3.06344,9153.77,-880.779,3478.06,8.35445,-3.4246,0.312132
0.005,4988.31,-1644.41,8035.68,9.36394,1.45206,0.397497,5047.17,30.9154,8312.42,-1.25107,-0.262322,-2.74368,-162.609,9665.33,-1302.26,-0.173406,-6.14202,0.0441995,261.556,-9883.86,-1473.61,-3.12143,-1.98186,-8.45397,-1715.81,9639.61,-629.973,3.5109,-4.00556,-0.809907,1289.34,-9535.62,-2038.06,-6.02671,-1.89569,3.05139,9146.1,-887.02,3482.21,8.15865,-3.29929,0.189611
0.006,4983.29,-1629.0,8042.47,9.49093,1.48835,0.344139,5037.86,34.0889,8334.57,-1.22548,-0.285478,-2.7397,-180.889,9678.61,-1302.85,-0.105573,-6.20217,0.263246,269.253,-9888.65,-1486.57,-3.04336,-1.98695,-8.395,-1735.26,9622.93,-649.352,3.48679,-4.26144,-0.770163,1258.29,-9563.5,-2034.86,-6.1075,-1.67462,3.05076,9133.7,-897.553,3489.35,8.00002,-3.21029,0.0939161
0.007,4978.26,-1613.59,8049.25,9.61792,1.52464,0.290781,5028.56,37.2623,8356.71,-1.19988,-0.308634,-2.73571,-199.169,9691.88,-1303.45,-0.0377404,-6.26232,0.482293,276.95,-9893.45,-1499.52,-2.9653,-1.99205,-8.33603,-1754.71,9606.25,-668.73,3.46267,-4.51732,-0.730419,1227.24,-9591.38,-2031.67,-6.1883,-1.45355,3.05013,9121.31,-908.085,3496.48,7.84139,-3.12128,-0.00177896
0.008,4973.24,-1598.18,8056.03,9.74491,1.56092,0.237422,5019.26,40.4357,8378.85,-1.17429,-0.33179,-2.73172,-217.448,9705.16,-1304.04,0.0300921,-6.32247,0.701339,284.646,-9898.24,-1512.47,-2.88723,-1.99714,-8.27706,-1774.16,9589.57,-688.109,3.43856,-4.7732,-0.690675,1196.19,-9619.25,-2028.47,-6.26909,-1.23247,3.04949,9108.92,-918.618,3503.62,7.68276,-3.03228,-0.097474
0.009,4971.71,-1584.65,8065.52,9.88315,1.58853,0.183488,5011.44,45.6533,8394.64,-1.16652,-0.362429,-2.72291,-234.864,9714.0,-1305.82,0.0957556,-6.41708,0.914834,294.544,-9900.55,-1522.27,-2.80851,-2.02206,-8.20837,-1793.65,9573.14,-706.277,3.41775,-5.0233,-0.655648,1169.52,-9644.86,-2026.24,-6.3182,-1.02923,3.03975,9096.33,-928.603,3510.59,7.52811,-2.94573,-0.172768
0.01,4998.15,-1586.16,8096.66,10.1114,1.54669,0.124943,5015.51,67.2247,8359.57,-1.3013,-0.452934,-2.67557,-245.369,9687.33,-1317.05,0.144066,-6.78734,1.08392,322.05,-9882.98,-1506.78,-2.7245,-2.2056,-8.06195,-1813.46,9558.65,-714.755,3.42345,-5.22715,-0.658352,1177.9,-9652.24,-2031.69,-6.1139,-0.968638,2.95712,9082.22,-934.206,3516.28,7.40528,-2.87892,-0.0848576
0.011,5024.58,-1587.67,8127.8,10.3397,1.50485,0.0663986,5019.58,88.7961,8324.5,-1.43609,-0.543439,-2.62823,-255.873,9660.67,-1328.28,0.192376,-7.1576,1.25301,349.556,-9865.42,-1491.29,-2.6405,-2.38914,-7.91553,-1833.27,9544.17,-723.233,3.42915,-5.431,-0.661056,1186.28,-9659.63,-2037.14,-5.90961,-0.908049,2.87449,9068.1,-939.809,3521.98,7.28246,-2.81211,0.00305313
0.012,5051.02,-1589.18,8158.94,10.568,1.46302,0.00785379,5023.65,110.367,8289.43,-1.57087,-0.633944,-2.58088,-266.377,9634.0,-1339.51,0.240686,-7.52786,1.42209,377.062,-9847.85,-1475.8,-2.5565,-2.57267,-7.76911,-1853.08,9529.68,-731.712,3.43485,-5.63484,-0.66376,1194.67,-9667.01,-2042.59,-5.70531,-0.847459,2.79186,9053.98,-945.412,3527.67,7.15963,-2.7453,0.0909639
0.013,5077.45,-1590.69,8190.08,10.7963,1.42118,-0.050691,5027.72,131.939,8254.37,-1.70566,-0.724449,-2.53354,-276.882,9607.33,-1350.74,0.288997,-7.89813,1.59118,404.568,-9830.28,-1460.31,-2.4725,-2.75621,-7.62269,-1872.89,9515.2,-740.19,3.44055,-5.83869,-0.666464,1203.05,-9674.4,-2048.04,-5.50101,-0.78687,2.70923,9039.87,-951.014,3533.36,7.03681,-2.67848,0.178875
0.014,5086.56,-1597.57,8198.35,10.9877,1.45595,-0.0414608,5021.79,144.323,8273.72,-1.88576,-0.701312,-2.4594,-270.523,9611.42,-1355.32,0.320994,-8.1367,1.65946,403.112,-9828.42,-1454.77,-2.45022,-2.84328,-7.55447,-1874.36,9494.84,-738.987,3.47013,-6.0387,-0.772411,1199.48,-9672.17,-2053.28,-5.44902,-0.539698,2.65765,9033.36,-953.088,3528.11,6.88719,-2.52724,0.221296
0.015,5087.0,-1607.14,8195.18,11.1607,1.52902,0.00165675,5010.86,152.113,8320.28,-2.08852,-0.621355,-2.37187,-255.733,9630.89,-1356.56,0.344835,-8.30943,1.67734,387.176,-9834.41,-1454.21,-2.45881,-2.88211,-7.52534,-1866.65,9471.53,-732.943,3.51166,-6.23678,-0.92998,1189.93,-9665.12,-2058.41,-5.4732,-0.199235,2.62159,9030.66,-953.396,3517.4,6.72418,-2.33378,0.240974
0.016,5087.45,-1616.71,8192.01,11.3337,1.60209,0.0447743,4999.92,159.903,8366.84,-2.29128,-0.541398,-2.28434,-240.943,9650.37,-1357.81,0.368676,-8.48217,1.69522,371.24,-9840.4,-1453.66,-2.46739,-2.92094,-7.49622,-1858.95,9448.22,-726.899,3.55319,-6.43486,-1.08755,1180.38,-9658.08,-2063.55,-5.49737,0.141227,2.58553,9027.97,-953.705,3506.69,6.56117,-2.14032,0.260651
0.017,5087.89,-1626.27,8188.84,11.5067,1.67516,0.0878919,4988.99,167.694,8413.41,-2.49404,-0.461441,-2.19681,-226.153,9669.84,-1359.06,0.392516,-8.6549,1.7131,355.305,-9846.39,-1453.1,-2.47598,-2.95978,-7.46709,-1851.24,9424.91,-720.855,3.59472,-6.63294,-1.24512,1170.83,-9651.04,-2068.69,-5.52155,0.48169,2.54947,9025.27,-954.014,3495.98,6.39816,-1.94686,0.280328
0.018,5091.14,-1630.47,8184.59,11.6382,1.74185,0.126976,4973.69,170.366,8445.31,-2.66293,-0.387317,-2.12415,-227.104,9686.94,-1362.0,0.446682,-8.85171,1.75432,348.861,-9853.74,-1455.09,-2.47045,-3.0084,-7.40759,-1856.41,9410.33,-715.578,3.63247,-6.85231,-1.35489,1170.9,-9640.71,-2071.46,-5.52036,0.773065,2.55313,9025.42,-951.592,3488.0,6.24979,-1.73119,0.303122
0.019,5104.2,-1615.89,8176.53,11.6243,1.78624,0.151941,4943.1,155.124,8425.94,-2.71326,-0.333609,-2.10355,-283.145,9695.72,-1370.84,0.606982,-9.13277,1.87724,375.639,-9865.82,-1465.99,-2.41555,-3.09131,-7.24178,-1906.65,9426.29,-712.987,3.65698,-7.14623,-1.29739,1204.62,-9618.89,-2065.96,-5.43044,0.892633,2.6958,9035.53,-939.613,3489.55,6.15265,-1.43779,0.336824
0.02,5117.27,-1601.3,8168.48,11.6104,1.83062,0.176907,4912.51,139.882,8406.56,-2.7636,-0.279901,-2.08295,-339.187,9704.51,-1379.68,0.767282,-9.41384,2.00016,402.417,-9877.91,-1476.89,-2.36064,-3.17421,-7.07597,-1956.89,9442.26,-710.396,3.6815,-7.44015,-1.23989,1238.34,-9597.07,-2060.47,-5.34051,1.0122,2.83848,9045.64,-927.634,3491.11,6.05551,-1.14438,0.370527
0.021,5130.33,-1586.71,8160.43,11.5965,1.875,0.201872,4881.92,124.64,8387.18,-2.81393,-0.226193,-2.06234,-395.229,9713.29,-1388.53,0.927583,-9.6949,2.12308,429.195,-9889.99,-1487.79,-2.30574,-3.25712,-6.91016,-2007.12,9458.22,-707.804,3.70601,-7.73406,-1.18239,1272.06,-9575.25,-2054.97,-5.25059,1.13177,2.98116,9055.75,-915.656,3492.66,5.95837,-0.850967,0.40423
0.022,5143.4,-1572.12,8152.37,11.5826,1.91939,0.226838,4851.33,109.399,8367.8,-2.86426,-0.172485,-2.04174,-451.27,9722.07,-1397.37,1.08788,-9.97597,2.246,455.973,-9902.07,-1498.69,-2.25083,-3.34002,-6.74435,-2057.36,9474.19,-705.213,3.73053,-8.02798,-1.12489,1305.79,-9553.43,-2049.48,-5.16067,1.25134,3.12383,9065.86,-903.677,3494.22,5.86123,-0.557558,0.437933
0.023,5158.63,-1581.61,8154.42,11.7025,2.01203,0.147006,4856.25,102.191,8367.94,-2.89184,-0.139484,-1.98331,-464.293,9722.2,-1385.5,1.18828,-10.2439,2.36339,442.062,-9898.63,-1507.55,-2.23129,-3.44409,-6.6587,-2060.69,9478.47,-705.482,3.70828,-8.26065,-1.08442,1297.89,-9570.86,-2042.77,-5.20382,1.51795,3.07766,9072.96,-914.923,3517.25,5.77407,-0.37181,0.501508
0.024,5174.49,-1597.97,8159.35,11.8606,2.11845,0.0372324,4871.33,97.2792,8373.66,-2.91292,-0.1124,-1.91406,-465.024,9719.85,-1367.71,1.27157,-10.508,2.47921,416.525,-9890.75,-1515.84,-2.22187,-3.55421,-6.59596,-2050.61,9479.41,-706.568,3.67267,-8.47582,-1.04881,1278.09,-9599.5,-2035.72,-5.28499,1.82659,2.97752,9079.2,-932.805,3546.42,5.68977,-0.216822,0.573619
0.025,5190.35,-1614.34,8164.29,12.0187,2.22488,-0.0725413,4886.4,92.3672,8379.38,-2.934,-0.0853149,-1.84482,-465.755,9717.5,-1349.91,1.35485,-10.7721,2.59503,390.988,-9882.88,-1524.12,-2.21244,-3.66432,-6.53321,-2040.53,9480.35,-707.655,3.63707,-8.69099,-1.01321,1258.3,-9628.13,-2028.67,-5.36617,2.13522,2.87739,9085.44,-950.687,3575.59,5.60547,-0.0618339,0.64573
0.026,5206.21,-1630.7,8169.23,12.1768,2.33131,-0.182315,4901.47,87.4552,8385.1,-2.95508,-0.0582303,-1.77557,-466.486,9715.15,-1332.12,1.43814,-11.0363,2.71085,365.452,-9875.0,-1532.4,-2.20301,-3.77444,-6.47047,-2030.45,9481.29,-708.741,3.60146,-8.90616,-0.977599,1238.51,-9656.77,-2021.62,-5.44734,2.44385,2.77725,9091.68,-968.569,3604.76,5.52116,0.093154,0.717841
0.027,5219.18,-1629.71,8172.67,12.2832,2.40973,-0.26,4914.11,86.4606,8392.25,-2.98515,-0.0536187,-1.71146,-467.771,9721.39,-1324.81,1.45861,-11.3549,2.84019,349.991,-9861.22,-1536.27,-2.19259,-3.79436,-6.36097,-2025.2,9482.88,-709.581,3.61759,-9.0928,-0.999219,1219.17,-9680.24,-2011.7,-5.51239,2.68606,2.6637,9094.17,-983.414,3628.04,5.41454,0.23834,0.784191
0.028,5226.38,-1594.01,8173.15,12.2864,2.43213,-0.273507,4921.89,93.3007,8402.28,-3.03319,-0.0939531,-1.65764,-470.164,9744.78,-1338.45,1.35344,-11.7826,2.99658,354.682,-9835.66,-1531.33,-2.18021,-3.63389,-6.15797,-2029.59,9485.76,-709.928,3.73718,-9.22238,-1.1353,1200.73,-9693.36,-1996.04,-5.54521,2.79542,2.52329,9089.16,-992.185,3639.53,5.26328,0.36392,0.839018
0.029,5233.58,-1558.3,8173.62,12.2896,2.45453,-0.287015,4929.67,100.141,8412.31,-3.08124,-0.134287,-1.60381,-472.557,9768.17,-1352.09,1.24828,-12.2103,3.15297,359.372,-9810.09,-1526.39,-2.16782,-3.47343,-5.95497,-2033.99,9488.64,-710.276,3.85678,-9.35196,-1.27138,1182.28,-9706.49,-1980.39,-5.57802,2.90478,2.38289,9084.15,-1000.96,3651.03,5.11202,0.489501,0.893845
0.03,5240.79,-1522.6,8174.1,12.2928,2.47693,-0.300522,4937.44,106.981,8422.33,-3.12928,-0.174622,-1.54999,-474.95,9791.55,-1365.73,1.14312,-12.638,3.30937,364.063,-9784.53,-1521.44,-2.15544,-3.31297,-5.75196,-2038.39,9491.53,-710.623,3.97638,-9.48154,-1.40745,1163.84,-9719.62,-1964.73,-5.61084,3.01413,2.24249,9079.15,-1009.73,3662.52,4.96075,0.615082,0.948671
0.031,5247.99,-1486.9,8174.57,12.296,2.49933,-0.314029,4945.22,113.821,8432.36,-3.17732,-0.214956,-1.49616,-477.343,9814.94,-1379.37,1.03796,-13.0657,3.46576,368.753,-9758.97,-1516.5,-2.14305,-3.1525,-5.54896,-2042.79,9494.41,-710.97,4.09598,-9.61112,-1.54353,1145.4,-9732.75,-1949.07,-5.64366,3.12349,2.10209,9074.14,-1018.5,3674.02,4.80949,0.740663,1.0035
0.032,5237.55,-1487.62,8184.11,12.2798,2.64524,-0.313444,4922.35,90.2788,8447.13,-3.13973,-0.123628,-1.49254,-455.797,9813.29,-1355.28,1.02337,-13.3274,3.66716,393.953,-9768.79,-1523.33,-2.08424,-2.9267,-5.41729,-2020.68,9522.51,-705.013,4.13168,-9.81362,-1.66501,1182.02,-9732.05,-1943.22,-5.56925,3.19483,2.10864,9064.42,-1016.61,3661.05,4.70147,0.887544,1.04271
0.033,5224.9,-1492.9,8194.77,12.2612,2.80659,-0.311097,4895.65,62.9388,8462.48,-3.09144,-0.0158418,-1.49519,-431.259,9808.52,-1326.47,1.0201,-13.5683,3.87419,421.717,-9783.03,-1531.64,-2.01961,-2.69273,-5.29453,-1995.27,9553.76,-698.268,4.1569,-10.0252,-1.78466,1225.52,-9729.62,-1938.59,-5.48144,3.26142,2.13355,9054.12,-1013.39,3645.04,4.59886,1.03709,1.07996
0.034,5212.26,-1498.18,8205.44,12.2427,2.96794,-0.308751,4868.95,35.5988,8477.84,-3.04314,0.0919444,-1.49785,-406.721,9803.74,-1297.67,1.01683,-13.8093,4.08121,449.48,-9797.28,-1539.94,-1.95499,-2.45877,-5.17177,-1969.85,9585.01,-691.523,4.18212,-10.2369,-1.90431,1269.02,-9727.2,-1933.96,-5.39363,3.32801,2.15846,9043.82,-1010.17,3629.02,4.49625,1.18663,1.11722
0.035,5199.61,-1503.46,8216.11,12.2241,3.12929,-0.306404,4842.26,8.25875,8493.2,-2.99485,0.199731,-1.5005,-382.183,9798.96,-1268.87,1.01356,-14.0502,4.28824,477.243,-9811.52,-1548.25,-1.89037,-2.2248,-5.04901,-1944.44,9616.26,-684.778,4.20734,-10.4485,-2.02397,1312.53,-9724.77,-1929.34,-5.30581,3.39459,2.18338,9033.51,-1006.94,3613.0,4.39363,1.33617,1.15448
0.036,5191.03,-1498.18,8210.35,12.1506,3.21709,-0.341398,4828.89,-8.98368,8487.64,-3.01357,0.25002,-1.41794,-370.974,9793.0,-1250.26,1.03529,-14.3161,4.44031,493.679,-9818.72,-1553.2,-1.86932,-2.06947,-4.95401,-1923.5,9625.49,-670.892,4.22291,-10.6536,-2.12433,1337.16,-9720.7,-1926.53,-5.26347,3.37361,2.1218,9023.63,-1010.42,3606.24,4.30685,1.43046,1.20091
0.037,5187.52,-1479.72,8184.04,12.0084,3.21295,-0.423068,4832.19,-13.6041,8455.93,-3.11608,0.228439,-1.22885,-376.427,9785.57,-1244.4,1.08827,-14.6132,4.5237,495.955,-9817.11,-1553.96,-1.90272,-2.01243,-4.89372,-1908.14,9607.19,-648.08,4.22643,-10.8507,-2.20058,1338.2,-9714.59,-1926.0,-5.27795,3.24316,1.95209,9014.28,-1022.26,3611.06,4.23986,1.45566,1.25881
0.038,5184.0,-1461.26,8157.73,11.8662,3.20881,-0.504738,4835.48,-18.2246,8424.22,-3.21859,0.206857,-1.03977,-381.88,9778.14,-1238.54,1.14126,-14.9102,4.60708,498.231,-9815.5,-1554.71,-1.93613,-1.95539,-4.83342,-1892.79,9588.89,-625.267,4.22994,-11.0478,-2.27683,1339.24,-9708.47,-1925.48,-5.29243,3.11271,1.78239,9004.93,-1034.1,3615.88,4.17286,1.48087,1.31672
0.039,5180.49,-1442.8,8131.43,11.724,3.20468,-0.586408,4838.78,-22.845,8392.51,-3.3211,0.185276,-0.850678,-387.332,9770.71,-1232.68,1.19424,-15.2072,4.69046,500.507,-9813.89,-1555.47,-1.96954,-1.89835,-4.77312,-1877.43,9570.59,-602.454,4.23346,-11.2449,-2.35308,1340.28,-9702.36,-1924.95,-5.30691,2.98227,1.61269,8995.58,-1045.94,3620.7,4.10587,1.50607,1.37462
0.04,5176.98,-1424.33,8105.12,11.5818,3.20054,-0.668078,4842.08,-27.4654,8360.8,-3.42361,0.163694,-0.661591,-392.785,9763.28,-1226.82,1.24723,-15.5043,4.77384,502.782,-9812.28,-1556.23,-2.00295,-1.84131,-4.71283,-1862.07,9552.29,-579.642,4.23698,-11.442,-2.42933,1341.32,-9696.25,-1924.42,-5.3214,2.85182,1.44298,8986.23,-1057.78,3625.52,4.03888,1.53128,1.43253
0.041,5163.85,-1418.76,8115.86,11.3917,3.37149,-0.812418,4855.5,-31.3471,8368.11,-3.30772,0.355692,-0.652314,-393.308,9756.37,-1224.15,1.30861,-15.7396,4.90807,476.893,-9818.3,-1513.77,-2.07134,-1.79931,-4.57765,-1858.94,9561.04,-555.983,4.19814,-11.7958,-2.38853,1333.11,-9687.68,-1865.5,-5.21282,2.80192,1.37508,8978.61,-1063.71,3630.3,3.88773,1.60284,1.4464
0.042,5150.71,-1413.18,8126.6,11.2016,3.54245,-0.956757,4868.92,-35.2287,8375.42,-3.19182,0.54769,-0.643037,-393.832,9749.45,-1221.49,1.37,-15.975,5.0423,451.004,-9824.33,-1471.31,-2.13973,-1.75731,-4.44247,-1855.81,9569.79,-532.324,4.15931,-12.1496,-2.34773,1324.9,-9679.12,-1806.58,-5.10425,2.75202,1.30718,8970.99,-1069.64,3635.09,3.73658,1.67439,1.46028
0.043,5137.58,-1407.61,8137.33,11.0115,3.7134,-1.1011,4882.34,-39.1103,8382.73,-3.07593,0.739689,-0.63376,-394.355,9742.54,-1218.82,1.43138,-16.2104,5.17653,425.115,-9830.35,-1428.86,-2.20813,-1.71531,-4.30729,-1852.67,9578.54,-508.666,4.12048,-12.5034,-2.30693,1316.69,-9670.56,-1747.66,-4.99568,2.70213,1.23928,8963.36,-1075.58,3639.88,3.58544,1.74595,1.47416
0.044,5124.44,-1402.03,8148.07,10.8214,3.88435,-1.24544,4895.76,-42.9919,8390.04,-2.96003,0.931687,-0.624484,-394.879,9735.62,-1216.16,1.49277,-16.4458,5.31076,399.226,-9836.38,-1386.4,-2.27652,-1.67331,-4.17211,-1849.54,9587.28,-485.007,4.08164,-12.8572,-2.26614,1308.48,-9661.99,-1688.73,-4.88711,2.65223,1.17138,8955.74,-1081.51,3644.67,3.43429,1.81751,1.48804
0.045,5122.12,-1395.74,8160.0,10.6091,4.02281,-1.37444,4902.36,-33.2087,8383.34,-2.96408,1.01366,-0.622708,-382.664,9737.48,-1211.94,1.50777,-16.7427,5.50412,410.623,-9819.82,-1373.03,-2.27847,-1.68368,-3.9744,-1854.06,9592.76,-460.629,4.04744,-13.2403,-2.19618,1312.58,-9675.75,-1654.12,-4.84669,2.57166,1.03917,8949.01,-1081.22,3651.51,3.30475,1.91938,1.53229
0.046,5128.45,-1388.87,8172.88,10.3791,4.13527,-1.49117,4903.5,-12.4935,8365.42,-3.06408,1.00761,-0.626935,-360.258,9746.35,-1206.49,1.48566,-17.0888,5.74479,451.849,-9785.2,-1382.94,-2.22727,-1.73595,-3.72666,-1864.7,9595.63,-435.676,4.01694,-13.6468,-2.1029,1326.52,-9707.37,-1638.95,-4.86078,2.46656,0.855524,8943.0,-1075.97,3659.98,3.19249,2.04552,1.60086
0.047,5134.78,-1382.01,8185.75,10.149,4.24774,-1.60791,4904.63,8.22169,8347.5,-3.16408,1.00157,-0.631161,-337.852,9755.23,-1201.04,1.46356,-17.435,5.98546,493.076,-9750.57,-1392.85,-2.17606,-1.78822,-3.47892,-1875.35,9598.5,-410.722,3.98645,-14.0532,-2.00961,1340.47,-9738.99,-1623.77,-4.87487,2.36146,0.671875,8936.98,-1070.72,3668.45,3.08024,2.17165,1.66942
0.048,5141.11,-1375.14,8198.63,9.91897,4.3602,-1.72464,4905.77,28.9369,8329.58,-3.26408,0.995519,-0.635387,-315.447,9764.1,-1195.59,1.44145,-17.7812,6.22612,534.302,-9715.95,-1402.76,-2.12486,-1.84049,-3.23118,-1885.99,9601.36,-385.769,3.95595,-14.4597,-1.91633,1354.41,-9770.61,-1608.6,-4.88896,2.25636,0.488225,8930.97,-1065.47,3676.92,2.96798,2.29779,1.73799
0.049,5144.24,-1366.5,8210.88,9.68155,4.47096,-1.82327,4905.7,42.7226,8316.02,-3.3457,0.996987,-0.633967,-292.474,9773.15,-1191.12,1.43502,-18.128,6.44065,571.399,-9688.21,-1410.28,-2.08075,-1.89012,-2.99213,-1896.97,9604.23,-361.523,3.92683,-14.8483,-1.84814,1366.19,-9800.45,-1596.99,-4.88097,2.16893,0.305217,8924.65,-1060.09,3685.58,2.86356,2.41841,1.80583
0.05,5121.77,-1343.7,8218.11,9.38526,4.56806,-1.77702,4895.93,1.07262,8337.35,-3.28028,1.05858,-0.587369,-264.959,9783.63,-1194.56,1.55404,-18.4806,6.44612,575.457,-9715.54,-1398.64,-2.09339,-1.91861,-2.82255,-1910.64,9607.11,-342.934,3.90868,-15.0938,-1.98073,1360.61,-9816.03,-1613.85,-4.69631,2.2228,0.127343,8915.91,-1053.63,3695.83,2.82184,2.49496,1.86787
0.051,5099.3,-1320.89,8225.34,9.08897,4.66516,-1.73078,4886.16,-40.5773,8358.67,-3.21486,1.12017,-0.540771,-237.445,9794.1,-1198.0,1.67305,-18.8331,6.45158,579.516,-9742.87,-1386.99,-2.10603,-1.94711,-2.65296,-1924.32,9610.0,-324.346,3.89054,-15.3392,-2.11331,1355.02,-9831.61,-1630.7,-4.51166,2.27667,-0.0505321,8907.17,-1047.17,3706.08,2.78012,2.57151,1.92991
0.052,5076.83,-1298.09,8232.57,8.79269,4.76226,-1.68453,4876.39,-82.2273,8380.0,-3.14945,1.18176,-0.494173,-209.931,9804.58,-1201.44,1.79206,-19.1856,6.45705,583.574,-9770.2,-1375.35,-2.11867,-1.9756,-2.48338,-1938.0,9612.88,-305.758,3.87239,-15.5847,-2.2459,1349.44,-9847.19,-1647.56,-4.32701,2.33054,-0.228407,8898.43,-1040.72,3716.33,2.73839,2.64806,1.99196
0.053,5054.36,-1275.28,8239.8,8.4964,4.85936,-1.63828,4866.62,-123.877,8401.33,-3.08403,1.24335,-0.447576,-182.417,9815.05,-1204.87,1.91108,-19.5381,6.46251,587.632,-9797.53,-1363.71,-2.1313,-2.00409,-2.31379,-1951.67,9615.76,-287.169,3.85424,-15.8302,-2.37849,1343.86,-9862.77,-1664.41,-4.14236,2.38441,-0.406282,8889.69,-1034.26,3726.58,2.69667,2.72462,2.054
0.054,5063.3,-1266.35,8246.56,8.2676,4.86674,-1.70715,4865.18,-124.417,8409.82,-3.05911,1.21512,-0.403512,-171.748,9818.54,-1170.15,1.99479,-19.7899,6.53147,592.046,-9805.05,-1340.74,-2.09164,-1.99306,-2.13779,-1968.23,9602.25,-273.352,3.87409,-16.0158,-2.45603,1338.32,-9849.86,-1665.87,-4.07279,2.45489,-0.460059,8875.46,-1036.48,3735.3,2.62674,2.79086,2.13173
0.055,5087.94,-1264.36,8253.09,8.07254,4.82924,-1.83357,4867.91,-104.403,8411.9,-3.05445,1.14198,-0.360715,-169.5,9818.53,-1116.35,2.06086,-19.9912,6.63216,596.637,-9802.65,-1312.1,-2.02582,-1.96227,-1.95858,-1986.23,9580.54,-261.921,3.91294,-16.1715,-2.50604,1332.79,-9822.7,-1659.63,-4.06075,2.53368,-0.451787,8858.47,-1043.05,3743.26,2.5427,2.85196,2.21732
0.056,5112.57,-1262.37,8259.62,7.87749,4.79175,-1.95998,4870.63,-84.3881,8413.97,-3.04978,1.06884,-0.317918,-167.253,9818.51,-1062.54,2.12693,-20.1925,6.73286,601.229,-9800.26,-1283.47,-1.96,-1.93149,-1.77936,-2004.23,9558.82,-250.49,3.95179,-16.3272,-2.55606,1327.27,-9795.54,-1653.39,-4.04872,2.61246,-0.443516,8841.48,-1049.61,3751.22,2.45866,2.91306,2.3029
0.057,5137.21,-1260.38,8266.16,7.68244,4.75425,-2.0864,4873.36,-64.3734,8416.05,-3.04512,0.995696,-0.275121,-165.006,9818.5,-1008.74,2.193,-20.3938,6.83355,605.82,-9797.87,-1254.84,-1.89418,-1.9007,-1.60015,-2022.22,9537.11,-239.059,3.99065,-16.4828,-2.60607,1321.75,-9768.38,-1647.15,-4.03668,2.69125,-0.435244,8824.5,-1056.18,3759.17,2.37463,2.97416,2.38848
0.058,5153.89,-1261.01,8273.55,7.49891,4.73477,-2.16637,4871.9,-49.4818,8419.16,-3.02425,0.945579,-0.252307,-160.011,9815.7,-974.043,2.2603,-20.5647,6.9208,612.642,-9793.58,-1237.42,-1.87276,-1.83991,-1.45033,-2032.39,9525.8,-237.044,4.01878,-16.6095,-2.61786,1315.66,-9754.29,-1647.48,-4.01835,2.82084,-0.471528,8812.28,-1063.87,3765.53,2.28459,3.01505,2.4694
0.059,5142.72,-1270.84,8283.97,7.35571,4.77831,-2.08377,4855.79,-52.521,8425.91,-2.94669,0.976042,-0.299438,-145.399,9803.12,-1006.23,2.33196,-20.629,6.961,627.269,-9782.66,-1259.26,-2.00672,-1.6741,-1.40339,-2015.16,9550.92,-267.987,4.00942,-16.6346,-2.49584,1307.57,-9785.97,-1670.83,-3.97801,3.12823,-0.663757,8816.72,-1075.49,3766.28,2.17357,2.98525,2.53401
0.06,5131.54,-1280.68,8294.38,7.21251,4.82184,-2.00118,4839.69,-55.5601,8432.65,-2.86912,1.0065,-0.346568,-130.787,9790.55,-1038.42,2.40361,-20.6933,7.0012,641.896,-9771.74,-1281.1,-2.14067,-1.5083,-1.35644,-1997.93,9576.03,-298.93,4.00005,-16.6597,-2.37383,1299.48,-9817.65,-1694.18,-3.93766,3.43562,-0.855986,8821.16,-1087.11,3767.03,2.06255,2.95545,2.59863
0.061,5120.37,-1290.51,8304.8,7.06931,4.86538,-1.91858,4823.58,-58.5993,8439.4,-2.79156,1.03697,-0.393698,-116.174,9777.97,-1070.61,2.47526,-20.7577,7.0414,656.523,-9760.81,-1302.95,-2.27463,-1.3425,-1.3095,-1980.7,9601.15,-329.873,3.99068,-16.6848,-2.25181,1291.39,-9849.33,-1717.53,-3.89732,3.74302,-1.04821,8825.61,-1098.73,3767.78,1.95153,2.92565,2.66324
0.062,5109.2,-1300.34,8315.22,6.92612,4.90892,-1.83598,4807.47,-61.6384,8446.14,-2.71399,1.06743,-0.440828,-101.562,9765.4,-1102.8,2.54692,-20.822,7.0816,671.15,-9749.89,-1324.79,-2.40859,-1.17669,-1.26255,-1963.47,9626.26,-360.816,3.98132,-16.7099,-2.12979,1283.29,-9881.01,-1740.88,-3.85697,4.05041,-1.24044,8830.05,-1110.35,3768.53,1.84051,2.89585,2.72785
0.063,5098.6,-1278.13,8313.01,6.63059,4.91306,-1.91634,4823.41,-70.7665,8441.62,-2.66264,1.10651,-0.42123,-120.422,9746.71,-1109.69,2.59857,-20.7819,7.07597,687.99,-9759.74,-1344.37,-2.43385,-1.047,-1.12145,-1946.91,9619.73,-359.648,4.07413,-16.6161,-2.14706,1241.68,-9888.98,-1761.19,-3.68107,4.299,-1.35201,8831.36,-1109.83,3765.96,1.69483,2.85259,2.75529
0.064,5088.17,-1246.77,8307.19,6.29155,4.90595,-2.04325,4848.49,-81.6342,8433.88,-2.61878,1.14806,-0.382567,-148.846,9726.28,-1109.36,2.64451,-20.712,7.05725,705.464,-9775.51,-1363.31,-2.42805,-0.927616,-0.953452,-1930.55,9604.16,-349.305,4.19614,-16.4882,-2.20411,1190.49,-9890.18,-1780.64,-3.46643,4.53079,-1.44053,8831.77,-1105.84,3762.45,1.53924,2.80549,2.7721
0.065,5077.74,-1215.4,8301.37,5.9525,4.89883,-2.17017,4873.58,-92.5019,8426.13,-2.57492,1.18961,-0.343903,-177.27,9705.84,-1109.03,2.69044,-20.6421,7.03853,722.937,-9791.29,-1382.24,-2.42225,-0.808235,-0.785451,-1914.18,9588.59,-338.963,4.31814,-16.3604,-2.26117,1139.3,-9891.38,-1800.1,-3.2518,4.76258,-1.52906,8832.19,-1101.86,3758.94,1.38365,2.75838,2.78891
0.066,5067.3,-1184.04,8295.55,5.61346,4.89172,-2.29708,4898.67,-103.37,8418.39,-2.53106,1.23115,-0.30524,-205.694,9685.41,-1108.69,2.73638,-20.5722,7.0198,740.41,-9807.07,-1401.17,-2.41645,-0.688855,-0.61745,-1897.82,9573.02,-328.62,4.44015,-16.2325,-2.31823,1088.11,-9892.57,-1819.55,-3.03717,4.99438,-1.61758,8832.6,-1097.87,3755.43,1.22807,2.71128,2.80572
0.067,5064.7,-1152.81,8287.48,5.33896,4.94988,-2.3819,4920.06,-113.059,8413.38,-2.50082,1.2747,-0.274237,-215.565,9670.9,-1105.62,2.81194,-20.4681,7.01856,729.886,-9814.1,-1420.8,-2.4484,-0.534297,-0.456719,-1879.36,9566.14,-322.299,4.48457,-16.1045,-2.37888,1055.12,-9894.26,-1838.14,-2.92405,5.20744,-1.69126,8832.98,-1097.82,3755.04,1.07473,2.70093,2.82786
0.068,5077.76,-1121.86,8274.89,5.19356,5.13862,-2.38254,4934.04,-120.391,8413.85,-2.49782,1.32226,-0.258553,-188.329,9668.21,-1097.06,2.94674,-20.2954,7.05226,663.367,-9803.66,-1441.82,-2.55586,-0.309382,-0.310529,-1856.7,9576.66,-324.021,4.37383,-15.9762,-2.44673,1058.52,-9896.93,-1855.02,-3.01396,5.38303,-1.73528,8833.3,-1105.67,3760.87,0.925902,2.76408,2.86064
0.069,5090.82,-1090.91,8262.31,5.04817,5.32735,-2.38318,4948.02,-127.724,8414.33,-2.49481,1.36981,-0.242869,-161.093,9665.53,-1088.5,3.08154,-20.1227,7.08595,596.848,-9793.21,-1462.84,-2.66332,-0.0844665,-0.164339,-1834.05,9587.18,-325.743,4.26309,-15.8479,-2.51458,1061.93,-9899.61,-1871.89,-3.10387,5.55863,-1.77929,8833.61,-1113.51,3766.71,0.777072,2.82724,2.89342
0.07,5103.87,-1059.95,8249.72,4.90277,5.51608,-2.38381,4962.01,-135.056,8414.8,-2.49181,1.41737,-0.227185,-133.858,9662.84,-1079.93,3.21634,-19.9501,7.11965,530.329,-9782.77,-1483.85,-2.77078,0.140448,-0.0181482,-1811.4,9597.69,-327.464,4.15234,-15.7196,-2.58244,1065.33,-9902.28,-1888.77,-3.19378,5.73423,-1.82331,8833.93,-1121.36,3772.55,0.628242,2.89039,2.92621
0.071,5116.93,-1029.0,8237.13,4.75737,5.70481,-2.38445,4975.99,-142.388,8415.27,-2.4888,1.46492,-0.211501,-106.622,9660.15,-1071.37,3.35113,-19.7774,7.15335,463.811,-9772.32,-1504.87,-2.87825,0.365364,0.128042,-1788.75,9608.21,-329.186,4.0416,-15.5913,-2.65029,1068.74,-9904.95,-1905.65,-3.28369,5.90983,-1.86732,8834.25,-1129.2,3778.39,0.479412,2.95355,2.95899
0.072,5124.78,-1034.19,8285.75,4.5278,5.64895,-2.25837,4985.16,-136.194,8413.77,-2.43452,1.52343,-0.228827,-94.2822,9656.25,-1067.9,3.44883,-19.5631,7.16575,454.724,-9788.13,-1502.47,-2.80031,0.450157,0.0665072,-1782.4,9604.13,-326.043,3.94327,-15.4972,-2.51658,1052.92,-9890.93,-1907.77,-3.23294,5.9239,-1.92605,8831.23,-1136.06,3774.29,0.322996,2.89855,2.89944
0.073,5131.98,-1043.91,8342.02,4.28771,5.56251,-2.11645,4993.73,-128.31,8412.02,-2.37382,1.5833,-0.250278,-83.8045,9652.2,-1065.06,3.54188,-19.3436,7.17549,452.817,-9807.22,-1497.15,-2.6992,0.517435,-0.0209934,-1778.09,9598.23,-322.292,3.84648,-15.4072,-2.35768,1034.69,-9874.82,-1908.05,-3.16461,5.91777,-1.98662,8827.8,-1142.79,3768.95,0.165633,2.82878,2.82836
0.074,5139.19,-1053.62,8398.29,4.04762,5.47607,-1.97453,5002.29,-120.425,8410.27,-2.31313,1.64318,-0.27173,-73.3268,9648.14,-1062.22,3.63494,-19.1242,7.18522,450.91,-9826.31,-1491.82,-2.59809,0.584713,-0.108494,-1773.78,9592.32,-318.541,3.7497,-15.3173,-2.19879,1016.46,-9858.71,-1908.33,-3.09628,5.91164,-2.04719,8824.37,-1149.52,3763.61,0.00826902,2.75901,2.75727
0.075,5146.39,-1063.34,8454.56,3.80753,5.38964,-1.83261,5010.86,-112.54,8408.52,-2.25243,1.70306,-0.293182,-62.8491,9644.09,-1059.38,3.72799,-18.9047,7.19495,449.002,-9845.4,-1486.5,-2.49697,0.651991,-0.195994,-1769.48,9586.42,-314.79,3.65292,-15.2274,-2.03989,998.237,-9842.61,-1908.61,-3.02794,5.90552,-2.10776,8820.94,-1156.25,3758.27,-0.149095,2.68924,2.68619
0.076,5138.84,-1055.12,8470.5,3.62072,5.28078,-1.63416,5007.88,-103.403,8404.52,-2.16058,1.74287,-0.312306,-54.4044,9646.85,-1056.09,3.86383,-18.6256,7.21191,426.494,-9853.89,-1474.22,-2.4379,0.713111,-0.18891,-1768.43,9588.08,-316.594,3.57134,-15.1194,-1.92059,978.328,-9837.0,-1896.63,-2.99235,5.86363,-2.17726,8820.89,-1154.73,3750.59,-0.287882,2.63309,2.67948
0.077,5112.86,-1024.5,8436.03,3.5005,5.14392,-1.36504,4990.47,-92.6993,8397.71,-2.02979,1.75759,-0.328519,-48.501,9658.15,-1052.22,4.05315,-18.2721,7.23789,378.234,-9849.15,-1453.25,-2.43137,0.766534,-0.0635946,-1771.47,9599.19,-325.343,3.50876,-14.989,-1.85081,956.318,-9844.51,-1869.35,-2.99768,5.77705,-2.25795,8825.05,-1142.89,3739.99,-0.403448,2.59397,2.75325
0.078,5086.88,-993.871,8401.56,3.38028,5.00705,-1.09593,4973.06,-81.9959,8390.89,-1.899,1.77232,-0.344733,-42.5976,9669.44,-1048.36,4.24247,-17.9185,7.26387,329.973,-9844.4,-1432.28,-2.42485,0.819956,0.061721,-1774.5,9610.3,-334.092,3.44618,-14.8585,-1.78102,934.307,-9852.02,-1842.07,-3.003,5.69047,-2.33863,8829.21,-1131.06,3729.4,-0.519013,2.55485,2.82701
0.079,5060.9,-963.246,8367.09,3.26006,4.87018,-0.826816,4955.65,-71.2925,8384.07,-1.76821,1.78705,-0.360946,-36.6942,9680.73,-1044.49,4.43179,-17.5649,7.28985,281.713,-9839.66,-1411.31,-2.41832,0.873378,0.187036,-1777.53,9621.42,-342.84,3.3836,-14.728,-1.71123,912.297,-9859.53,-1814.79,-3.00833,5.60389,-2.41931,8833.38,-1119.23,3718.8,-0.634579,2.51573,2.90078
0.08,5034.92,-932.621,8332.61,3.13984,4.73331,-0.557703,4938.24,-60.5891,8377.25,-1.63742,1.80178,-0.37716,-30.7908,9692.02,-1040.63,4.62111,-17.2114,7.31584,233.453,-9834.91,-1390.34,-2.41179,0.9268,0.312352,-1780.57,9632.53,-351.589,3.32102,-14.5975,-1.64145,890.286,-9867.04,-1787.5,-3.01366,5.5173,-2.5,8837.54,-1107.4,3708.2,-0.750145,2.47661,2.97455
0.081,5026.13,-940.989,8324.12,2.92415,4.35899,-0.46352,4937.09,-58.698,8389.19,-1.73637,1.78753,-0.382522,3.4997,9679.32,-1040.41,4.77559,-16.8697,7.34524,272.323,-9849.65,-1396.48,-2.37101,1.03827,0.351082,-1766.07,9626.55,-347.988,3.21938,-14.2781,-1.60505,871.829,-9865.3,-1802.93,-3.02731,5.50953,-2.55533,8855.84,-1112.87,3713.34,-0.933975,2.56357,2.93779
0.082,5017.34,-949.357,8315.62,2.70846,3.98466,-0.369336,4935.94,-56.807,8401.14,-1.83531,1.77328,-0.387885,37.7902,9666.63,-1040.19,4.93007,-16.5279,7.37465,311.192,-9864.39,-1402.61,-2.33023,1.14973,0.389812,-1751.58,9620.56,-344.388,3.11773,-13.9587,-1.56865,853.372,-9863.57,-1818.36,-3.04097,5.50177,-2.61065,8874.13,-1118.34,3718.47,-1.1178,2.65053,2.90103
0.083,5008.56,-957.726,8307.13,2.49277,3.61033,-0.275153,4934.79,-54.916,8413.08,-1.93425,1.75903,-0.393247,72.0807,9653.93,-1039.98,5.08455,-16.1862,7.40406,350.062,-9879.13,-1408.74,-2.28945,1.2612,0.428541,-1737.09,9614.58,-340.787,3.01609,-13.6393,-1.53225,834.915,-9861.83,-1833.78,-3.05462,5.494,-2.66598,8892.43,-1123.82,3723.6,-1.30163,2.73749,2.86427
0.084,4999.77,-966.094,8298.63,2.27708,3.23601,-0.18097,4933.64,-53.0249,8425.02,-2.0332,1.74478,-0.398609,106.371,9641.23,-1039.76,5.23903,-15.8445,7.43347,388.931,-9893.88,-1414.87,-2.24866,1.37267,0.467271,-1722.59,9608.59,-337.186,2.91445,-13.3199,-1.49585,816.458,-9860.09,-1849.21,-3.06828,5.48623,-2.72131,8910.72,-1129.29,3728.74,-1.48546,2.82445,2.82751
0.085,4981.25,-979.899,8304.49,2.12407,2.98617,0.0541528,4936.15,-44.9973,8427.49,-2.0311,1.76544,-0.339702,130.155,9644.7,-1049.47,5.35159,-15.4766,7.41836,406.269,-9898.88,-1425.25,-2.25561,1.38573,0.575267,-1707.23,9608.85,-336.831,2.80596,-12.995,-1.50173,801.659,-9860.75,-1860.62,-3.06779,5.529,-2.74092,8925.29,-1133.21,3729.16,-1.69413,2.86081,2.80716
0.086,4954.94,-998.053,8321.84,2.02121,2.83593,0.402027,4941.58,-32.0604,8422.38,-1.94816,1.81403,-0.229379,145.533,9661.1,-1067.12,5.4306,-15.0877,7.36763,406.381,-9896.1,-1439.02,-2.30075,1.32008,0.738675,-1691.17,9614.1,-339.072,2.69199,-12.6657,-1.54143,789.786,-9863.33,-1868.81,-3.05599,5.6122,-2.73196,8936.88,-1135.89,3725.82,-1.92268,2.85669,2.79995
0.087,4928.63,-1016.21,8339.2,1.91834,2.68568,0.749901,4947.02,-19.1236,8417.28,-1.86522,1.86262,-0.119056,160.911,9677.49,-1084.77,5.50961,-14.6987,7.31691,406.494,-9893.31,-1452.78,-2.34589,1.25442,0.902083,-1675.1,9619.34,-341.313,2.57802,-12.3364,-1.58114,777.913,-9865.91,-1877.01,-3.04419,5.6954,-2.723,8948.48,-1138.57,3722.48,-2.15122,2.85256,2.79273
0.088,4902.32,-1034.36,8356.55,1.81547,2.53544,1.09777,4952.45,-6.18669,8412.17,-1.78228,1.91121,-0.00873309,176.29,9693.89,-1102.43,5.58862,-14.3098,7.26618,406.606,-9890.53,-1466.55,-2.39102,1.18877,1.06549,-1659.04,9624.59,-343.553,2.46406,-12.0072,-1.62084,766.04,-9868.49,-1885.2,-3.03238,5.7786,-2.71404,8960.07,-1141.26,3719.14,-2.37976,2.84844,2.78552
0.089,4883.37,-1053.02,8368.54,1.72811,2.39391,1.41289,4956.16,2.04786,8408.44,-1.70856,1.96231,0.0731436,187.024,9710.23,-1115.93,5.66886,-13.9281,7.22425,404.142,-9887.9,-1475.12,-2.4285,1.12438,1.20783,-1643.44,9629.48,-345.562,2.35727,-11.6921,-1.6326,751.551,-9871.4,-1896.18,-3.0327,5.84589,-2.70179,8971.9,-1143.59,3715.51,-2.59248,2.83491,2.77296
0.09,4923.33,-1075.73,8337.72,1.76475,2.32206,1.46595,4946.05,-27.3362,8415.63,-1.70856,2.03348,-0.0725499,160.607,9726.11,-1096.25,5.7589,-13.6043,7.25264,381.066,-9886.56,-1442.05,-2.40473,1.07017,1.18161,-1631.49,9631.51,-345.707,2.30793,-11.4902,-1.42078,716.131,-9876.97,-1929.51,-3.12994,5.78588,-2.66327,8985.62,-1143.15,3709.62,-2.67866,2.74613,2.71772
0.091,4963.28,-1098.43,8306.9,1.80139,2.25021,1.51901,4935.94,-56.7202,8422.82,-1.70856,2.10466,-0.218243,134.191,9742.0,-1076.57,5.84894,-13.2804,7.28104,357.99,-9885.22,-1408.98,-2.38095,1.01595,1.1554,-1619.55,9633.55,-345.853,2.25859,-11.2884,-1.20896,680.712,-9882.53,-1962.84,-3.22717,5.72587,-2.62474,8999.33,-1142.7,3703.72,-2.76484,2.65736,2.66247
0.092,5003.24,-1121.13,8276.07,1.83803,2.17836,1.57207,4925.83,-86.1042,8430.01,-1.70856,2.17584,-0.363937,107.774,9757.89,-1056.89,5.93899,-12.9566,7.30943,334.914,-9883.88,-1375.92,-2.35718,0.961732,1.12918,-1607.61,9635.58,-345.999,2.20925,-11.0865,-0.997138,645.292,-9888.1,-1996.17,-3.32441,5.66586,-2.58622,9013.05,-1142.26,3697.83,-2.85102,2.56859,2.60722
0.093,5043.2,-1143.84,8245.25,1.87468,2.10651,1.62512,4915.72,-115.488,8437.2,-1.70856,2.24702,-0.509631,81.3573,9773.77,-1037.22,6.02903,-12.6327,7.33783,311.838,-9882.54,-1342.85,-2.33341,0.907514,1.10296,-1595.66,9637.61,-346.144,2.15991,-10.8847,-0.785318,609.872,-9893.67,-2029.49,-3.42165,5.60585,-2.54769,9026.77,-1141.81,3691.94,-2.93719,2.47981,2.55198
0.094,5058.65,-1144.72,8254.22,1.85155,1.97324,1.68858,4889.94,-118.459,8424.63,-1.72344,2.25048,-0.629297,78.3756,9776.74,-1035.39,6.04052,-12.3109,7.36435,321.029,-9877.95,-1337.07,-2.277,0.802109,1.05993,-1576.7,9629.48,-348.59,2.08094,-10.7485,-0.713597,603.493,-9885.31,-2067.34,-3.54096,5.5585,-2.52074,9040.46,-1130.4,3689.37,-3.08803,2.43263,2.43225
0.095,5061.86,-1134.7,8283.09,1.79855,1.80926,1.75723,4856.34,-108.224,8402.19,-1.74577,2.2201,-0.73595,87.1113,9773.25,-1042.49,6.01272,-11.9902,7.38994,346.354,-9871.76,-1344.92,-2.20429,0.67111,1.0085,-1554.22,9616.25,-352.186,1.98714,-10.6452,-0.711927,611.633,-9870.0,-2107.45,-3.6713,5.51748,-2.49958,9054.14,-1113.5,3688.47,-3.27118,2.40625,2.28028
0.096,5065.07,-1124.68,8311.95,1.74554,1.64528,1.82588,4822.73,-97.9886,8379.74,-1.7681,2.18972,-0.842604,95.847,9769.76,-1049.6,5.98493,-11.6695,7.41553,371.68,-9865.56,-1352.78,-2.13158,0.540111,0.957069,-1531.75,9603.03,-355.782,1.89334,-10.5418,-0.710256,619.773,-9854.69,-2147.56,-3.80164,5.47645,-2.47842,9067.81,-1096.6,3687.56,-3.45434,2.37987,2.12832
0.097,5068.28,-1114.66,8340.82,1.69254,1.48129,1.89453,4789.12,-87.7532,8357.29,-1.79042,2.15933,-0.949257,104.583,9766.27,-1056.7,5.95713,-11.3487,7.44111,397.005,-9859.36,-1360.64,-2.05886,0.409112,0.905637,-1509.27,9589.81,-359.378,1.79955,-10.4385,-0.708586,627.913,-9839.38,-2187.67,-3.93198,5.43543,-2.45726,9081.49,-1079.7,3686.66,-3.6375,2.35349,1.97635
0.098,5069.35,-1106.11,8359.56,1.62684,1.31979,1.99977,4765.44,-78.1384,8344.48,-1.82198,2.13143,-1.01649,108.174,9763.19,-1067.33,5.92934,-11.037,7.45599,415.146,-9854.38,-1364.05,-1.98828,0.26719,0.875679,-1485.96,9576.63,-362.425,1.72318,-10.3345,-0.719001,629.763,-9821.47,-2218.56,-4.06578,5.39658,-2.44389,9089.84,-1067.9,3686.97,-3.81984,2.32957,1.82466
0.099,5062.95,-1102.73,8342.88,1.51671,1.16699,2.23305,4776.51,-70.6955,8365.39,-1.88588,2.11223,-0.945727,93.761,9761.57,-1090.28,5.90155,-10.7567,7.43336,408.141,-9853.67,-1351.88,-1.92517,0.0870347,0.920879,-1459.71,9563.61,-363.554,1.70783,-10.2281,-0.771712,609.596,-9794.5,-2217.2,-4.21165,5.36531,-2.45777,9079.51,-1073.9,3691.55,-3.99931,2.31427,1.67393
0.1,5056.55,-1099.34,8326.19,1.40658,1.01418,2.46633,4787.58,-63.2526,8386.31,-1.94977,2.09303,-0.874968,79.3477,9759.95,-1113.24,5.87375,-10.4765,7.41073,401.136,-9852.97,-1339.7,-1.86207,-0.0931204,0.96608,-1433.46,9550.59,-364.683,1.69247,-10.1217,-0.824424,589.428,-9767.52,-2215.83,-4.35753,5.33404,-2.47166,9069.19,-1079.9,3696.13,-4.17878,2.29896,1.5232
0.101,5050.15,-1095.96,8309.51,1.29645,0.861374,2.69962,4798.65,-55.8097,8407.22,-2.01366,2.07382,-0.80421,64.9345,9758.33,-1136.19,5.84596,-10.1963,7.38811,394.132,-9852.27,-1327.53,-1.79896,-0.273275,1.01128,-1407.21,9537.56,-365.812,1.67712,-10.0153,-0.877136,569.261,-9740.54,-2214.47,-4.50341,5.30278,-2.48555,9058.87,-1085.9,3700.71,-4.35825,2.28366,1.37246
0.102,5043.76,-1092.58,8292.82,1.18632,0.708568,2.9329,4809.72,-48.3668,8428.13,-2.07755,2.05462,-0.733451,50.5212,9756.71,-1159.15,5.81816,-9.91601,7.36548,387.127,-9851.57,-1315.35,-1.73585,-0.453431,1.05648,-1380.95,9524.54,-366.941,1.66177,-9.90888,-0.929847,549.093,-9713.57,-2213.1,-4.64928,5.27151,-2.49944,9048.55,-1091.9,3705.29,-4.53772,2.26835,1.22173
0.103,5045.65,-1118.65,8307.31,1.08655,0.610175,3.09261,4808.56,-55.5232,8422.16,-2.08404,2.03962,-0.671596,47.3263,9755.23,-1171.3,5.80282,-9.75307,7.36209,389.565,-9853.22,-1316.38,-1.72259,-0.499805,0.985239,-1364.3,9526.58,-381.857,1.60375,-9.8086,-1.0177,546.804,-9676.46,-2244.05,-4.60424,5.36745,-2.46943,9037.78,-1111.51,3713.09,-4.7866,2.26664,1.05871
0.104,5049.92,-1153.13,8330.71,0.989743,0.527328,3.23131,4803.92,-66.8509,8408.49,-2.07413,2.02581,-0.612285,47.3368,9753.8,-1180.37,5.79103,-9.62365,7.3642,394.701,-9855.54,-1321.18,-1.72357,-0.507957,0.880728,-1350.38,9532.91,-400.712,1.53355,-9.71006,-1.11559,549.623,-9636.45,-2284.23,-4.50466,5.49974,-2.42689,9026.88,-1135.02,3721.8,-5.0553,2.26881,0.892177
0.105,5054.18,-1187.62,8354.11,0.892935,0.444482,3.37,4799.27,-78.1785,8394.83,-2.06422,2.01201,-0.552974,47.3472,9752.37,-1189.43,5.77924,-9.49423,7.36631,399.837,-9857.87,-1325.98,-1.72455,-0.516108,0.776217,-1336.47,9539.25,-419.567,1.46334,-9.61151,-1.21348,552.442,-9596.44,-2324.41,-4.40508,5.63203,-2.38435,9015.98,-1158.52,3730.51,-5.324,2.27097,0.725647
0.106,5058.45,-1222.1,8377.5,0.796127,0.361635,3.5087,4794.63,-89.5061,8381.17,-2.05431,1.99821,-0.493663,47.3576,9750.94,-1198.5,5.76745,-9.36481,7.36841,404.973,-9860.19,-1330.79,-1.72552,-0.52426,0.671706,-1322.56,9545.58,-438.423,1.39314,-9.51297,-1.31137,555.261,-9556.43,-2364.59,-4.30549,5.76431,-2.3418,9005.09,-1182.02,3739.22,-5.5927,2.27314,0.559117
0.107,5060.66,-1246.53,8379.66,0.721692,0.324252,3.61431,4800.58,-93.4971,8371.15,-2.03141,2.01967,-0.464965,43.3051,9748.77,-1208.73,5.77156,-9.23519,7.36808,406.653,-9865.19,-1343.49,-1.71805,-0.480814,0.565908,-1307.97,9555.26,-451.112,1.32809,-9.36607,-1.37185,559.11,-9540.81,-2397.28,-4.2349,5.89712,-2.23098,8995.8,-1198.3,3741.18,-5.84757,2.2779,0.37477
0.108,5058.77,-1250.87,8339.32,0.692003,0.377796,3.65377,4827.75,-82.8145,8368.41,-1.98257,2.11168,-0.497494,31.1267,9745.13,-1221.3,5.80746,-9.10519,7.36286,401.42,-9875.55,-1372.01,-1.69368,-0.334174,0.457536,-1292.05,9571.63,-451.469,1.27337,-9.12245,-1.3575,565.019,-9573.98,-2415.0,-4.2223,6.03094,-1.98359,8989.74,-1200.11,3729.62,-6.07476,2.28784,0.154792
0.109,5056.88,-1255.21,8298.99,0.662314,0.431341,3.69322,4854.91,-72.132,8365.68,-1.93372,2.20368,-0.530022,18.9483,9741.5,-1233.86,5.84337,-8.97518,7.35764,396.187,-9885.91,-1400.52,-1.66931,-0.187534,0.349164,-1276.13,9588.0,-451.825,1.21865,-8.87882,-1.34316,570.929,-9607.15,-2432.72,-4.2097,6.16477,-1.73621,8983.67,-1201.93,3718.06,-6.30195,2.29778,-0.0651871
0.11,5054.99,-1259.55,8258.66,0.632625,0.484885,3.73268,4882.07,-61.4495,8362.94,-1.88487,2.29569,-0.56255,6.76997,9737.86,-1246.43,5.87928,-8.84517,7.35242,390.955,-9896.27,-1429.04,-1.64494,-0.0408935,0.240792,-1260.21,9604.37,-452.182,1.16393,-8.6352,-1.32881,576.838,-9640.32,-2450.43,-4.1971,6.29859,-1.48882,8977.61,-1203.75,3706.5,-6.52915,2.30772,-0.285166
0.111,5053.11,-1263.88,8218.33,0.602937,0.53843,3.77213,4909.23,-50.767,8360.2,-1.83603,2.38769,-0.595078,-5.4084,9734.22,-1258.99,5.91518,-8.71516,7.3472,385.722,-9906.63,-1457.56,-1.62057,0.105747,0.132421,-1244.29,9620.74,-452.539,1.1092,-8.39157,-1.31447,582.747,-9673.48,-2468.15,-4.1845,6.43242,-1.24144,8971.55,-1205.56,3694.94,-6.75634,2.31766,-0.505145
0.112,5066.13,-1267.52,8235.1,0.467506,0.481768,3.68956,4929.78,-34.7406,8367.18,-1.8418,2.38783,-0.553184,-15.5483,9729.13,-1279.52,5.93054,-8.50307,7.35769,366.901,-9897.44,-1463.5,-1.68662,0.19628,0.0436048,-1251.31,9613.7,-445.668,1.08143,-8.2626,-1.20878,550.154,-9671.48,-2458.62,-4.17262,6.52489,-1.15049,8969.15,-1203.07,3695.43,-6.87703,2.16581,-0.695278
0.113,5081.03,-1271.06,8259.01,0.318858,0.411331,3.59174,4949.51,-18.0462,8375.38,-1.8544,2.37648,-0.501987,-25.4333,9723.85,-1301.05,5.94333,-8.28072,7.37014,346.382,-9885.8,-1466.63,-1.76397,0.2798,-0.0427665,-1261.21,9603.72,-437.894,1.05701,-8.14797,-1.09167,512.748,-9665.08,-2445.68,-4.16083,6.6122,-1.0791,8967.21,-1200.05,3697.44,-6.9844,1.99375,-0.881681
0.114,5095.92,-1274.61,8282.92,0.17021,0.340894,3.49392,4969.24,-1.35183,8383.58,-1.86699,2.36513,-0.45079,-35.3183,9718.57,-1322.57,5.95612,-8.05837,7.38258,325.862,-9874.16,-1469.76,-1.84132,0.363321,-0.129138,-1271.11,9593.75,-430.121,1.0326,-8.03333,-0.97456,475.343,-9658.67,-2432.75,-4.14904,6.6995,-1.0077,8965.28,-1197.02,3699.44,-7.09177,1.82168,-1.06808
0.115,5110.81,-1278.16,8306.83,0.0215622,0.270456,3.3961,4988.97,15.3425,8391.77,-1.87959,2.35379,-0.399593,-45.2034,9713.29,-1344.09,5.96891,-7.83602,7.39503,305.343,-9862.52,-1472.89,-1.91868,0.446841,-0.215509,-1281.01,9583.78,-422.347,1.00819,-7.91869,-0.857451,437.937,-9652.27,-2419.81,-4.13726,6.7868,-0.936311,8963.34,-1193.99,3701.45,-7.19914,1.64961,-1.25449
0.116,5102.04,-1286.35,8312.61,-0.0636944,0.186236,3.2876,5006.89,24.2326,8396.17,-1.90698,2.33782,-0.360362,-46.5461,9709.27,-1360.88,5.93994,-7.6448,7.40725,279.96,-9864.89,-1470.39,-2.0098,0.60121,-0.3237,-1286.83,9577.11,-421.085,1.0192,-7.75653,-0.827292,416.477,-9651.82,-2407.81,-4.0923,6.87852,-0.85641,8956.65,-1197.45,3701.63,-7.33262,1.47365,-1.4218
0.117,5063.67,-1300.34,8295.72,-0.0697117,0.0847856,3.16576,5022.55,23.3672,8395.82,-1.95284,2.31608,-0.33609,-37.2108,9706.83,-1371.74,5.85878,-7.49249,7.4192,248.499,-9884.78,-1460.86,-2.11812,0.844141,-0.459165,-1287.56,9574.55,-427.963,1.07448,-7.53495,-0.905819,414.949,-9658.8,-2396.99,-4.00588,6.97576,-0.765874,8944.01,-1209.01,3699.54,-7.49872,1.29281,-1.56525
0.118,5025.31,-1314.34,8278.83,-0.075729,-0.0166646,3.04392,5038.21,22.5019,8395.47,-1.99871,2.29435,-0.311819,-27.8755,9704.39,-1382.6,5.77762,-7.34019,7.43115,217.037,-9904.67,-1451.33,-2.22645,1.08707,-0.594631,-1288.29,9571.99,-434.841,1.12976,-7.31336,-0.984345,413.421,-9665.79,-2386.16,-3.91947,7.073,-0.675338,8931.38,-1220.56,3697.45,-7.66482,1.11198,-1.7087
0.119,4986.95,-1328.33,8261.93,-0.0817464,-0.118115,2.92208,5053.87,21.6365,8395.12,-2.04457,2.27261,-0.287547,-18.5402,9701.94,-1393.46,5.69646,-7.18788,7.4431,185.576,-9924.55,-1441.8,-2.33478,1.33,-0.730096,-1289.02,9569.43,-441.72,1.18503,-7.09178,-1.06287,411.893,-9672.77,-2375.34,-3.83305,7.17024,-0.584802,8918.74,-1232.12,3695.37,-7.83093,0.931143,-1.85214
0.12,4948.59,-1342.33,8245.04,-0.0877637,-0.219565,2.80023,5069.52,20.7712,8394.77,-2.09044,2.25087,-0.263275,-9.20496,9699.5,-1404.32,5.61531,-7.03557,7.45504,154.114,-9944.44,-1432.27,-2.44311,1.57293,-0.865562,-1289.74,9566.88,-448.598,1.24031,-6.8702,-1.1414,410.364,-9679.76,-2364.52,-3.74663,7.26747,-0.494265,8906.11,-1243.67,3693.28,-7.99703,0.750308,-1.99559
0.121,4934.48,-1352.12,8268.33,-0.249721,-0.0766329,2.75604,5056.84,-0.183949,8401.46,-2.14584,2.24963,-0.272686,-4.03382,9687.85,-1411.36,5.64412,-6.96798,7.39602,152.382,-9955.16,-1426.25,-2.37684,1.64826,-0.951925,-1292.23,9554.1,-454.773,1.21736,-6.62252,-1.19891,416.297,-9694.28,-2349.77,-3.72313,7.33475,-0.362707,8900.45,-1246.42,3705.14,-8.12102,0.667645,-2.13437
0.122,4920.38,-1361.92,8291.63,-0.411679,0.0662991,2.71185,5044.16,-21.1391,8408.15,-2.20123,2.2484,-0.282096,1.13732,9676.21,-1418.4,5.67293,-6.90038,7.33699,150.65,-9965.89,-1420.23,-2.31058,1.72358,-1.03829,-1294.72,9541.33,-460.948,1.19442,-6.37483,-1.25642,422.23,-9708.8,-2335.03,-3.69963,7.40203,-0.231149,8894.79,-1249.17,3717.0,-8.24502,0.584983,-2.27314
0.123,4906.27,-1371.72,8314.93,-0.573636,0.209231,2.66765,5031.48,-42.0942,8414.83,-2.25663,2.24716,-0.291507,6.30846,9664.56,-1425.44,5.70175,-6.83278,7.27797,148.917,-9976.62,-1414.21,-2.24432,1.79891,-1.12465,-1297.2,9528.56,-467.123,1.17147,-6.12714,-1.31392,428.162,-9723.31,-2320.29,-3.67612,7.4693,-0.0995909,8889.13,-1251.91,3728.86,-8.36901,0.502321,-2.41192
0.124,4892.17,-1381.52,8338.22,-0.735593,0.352163,2.62346,5018.8,-63.0493,8421.52,-2.31202,2.24593,-0.300917,11.4796,9652.92,-1432.49,5.73056,-6.76519,7.21895,147.185,-9987.34,-1408.19,-2.17806,1.87423,-1.21101,-1299.69,9515.79,-473.298,1.14852,-5.87946,-1.37143,434.095,-9737.83,-2305.55,-3.65262,7.53658,0.0319673,8883.48,-1254.66,3740.72,-8.493,0.419658,-2.55069
0.125,4903.4,-1390.66,8330.46,-0.845234,0.38967,2.55468,5017.59,-86.4403,8422.89,-2.33957,2.17321,-0.307632,7.17945,9647.13,-1437.97,5.74859,-6.69911,7.19787,142.089,-9983.35,-1401.81,-2.15185,1.9337,-1.32727,-1299.34,9514.79,-476.037,1.12524,-5.74907,-1.34395,431.662,-9757.08,-2300.6,-3.6468,7.56401,0.199154,8885.71,-1252.63,3736.74,-8.58909,0.394304,-2.67891
0.126,4934.91,-1399.29,8297.85,-0.913021,0.342836,2.46623,5025.54,-111.78,8420.0,-2.34483,2.04331,-0.31219,-4.69773,9646.04,-1442.22,5.75799,-6.63424,7.20715,134.302,-9967.58,-1395.15,-2.15769,1.98049,-1.46745,-1296.73,9523.21,-476.027,1.10169,-5.71253,-1.24847,422.535,-9780.11,-2303.48,-3.65512,7.55957,0.394844,8894.25,-1246.78,3720.1,-8.66286,0.414795,-2.79869
0.127,4966.42,-1407.91,8265.23,-0.980809,0.296003,2.37778,5033.49,-137.12,8417.11,-2.35008,1.91341,-0.316748,-16.5749,9644.94,-1446.47,5.7674,-6.56938,7.21642,126.515,-9951.82,-1388.49,-2.16353,2.02727,-1.60763,-1294.13,9531.63,-476.016,1.07815,-5.67598,-1.153,413.409,-9803.14,-2306.37,-3.66343,7.55513,0.590533,8902.8,-1240.94,3703.46,-8.73662,0.435286,-2.91846
0.128,4997.92,-1416.53,8232.62,-1.0486,0.249169,2.28933,5041.44,-162.459,8414.22,-2.35534,1.78351,-0.321306,-28.4521,9643.85,-1450.71,5.7768,-6.50451,7.2257,118.728,-9936.05,-1381.83,-2.16936,2.07406,-1.7478,-1291.52,9540.05,-476.006,1.0546,-5.63944,-1.05752,404.282,-9826.17,-2309.25,-3.67175,7.55069,0.786223,8911.34,-1235.09,3686.82,-8.81039,0.455778,-3.03824
0.129,5028.86,-1423.22,8203.99,-1.11306,0.217709,2.21687,5049.02,-185.88,8411.66,-2.35652,1.66549,-0.328975,-40.1894,9643.14,-1453.94,5.76891,-6.45278,7.22818,111.64,-9924.82,-1376.4,-2.16029,2.122,-1.88214,-1288.16,9548.08,-474.514,1.03788,-5.62497,-0.972451,397.112,-9844.28,-2311.36,-3.69095,7.55031,0.964198,8915.22,-1231.52,3671.85,-8.88045,0.46944,-3.1624
0.13,5055.26,-1414.37,8207.17,-1.15096,0.309238,2.27236,5053.65,-193.948,8411.72,-2.32506,1.64247,-0.361535,-50.8078,9645.51,-1448.98,5.62263,-6.50618,7.17625,110.142,-9949.91,-1380.79,-2.03196,2.17928,-1.96975,-1278.83,9553.02,-461.172,1.0758,-5.78718,-0.970642,405.591,-9822.95,-2307.31,-3.79715,7.58245,1.00046,8881.77,-1246.19,3670.32,-8.92089,0.428468,-3.32166
0.131,5081.65,-1405.53,8210.36,-1.18886,0.400766,2.32785,5058.28,-202.016,8411.78,-2.29361,1.61945,-0.394094,-61.4262,9647.89,-1444.03,5.47635,-6.55958,7.12432,108.644,-9974.99,-1385.19,-1.90362,2.23655,-2.05735,-1269.51,9557.96,-447.829,1.11371,-5.94938,-0.968834,414.071,-9801.63,-2303.25,-3.90335,7.6146,1.03673,8848.32,-1260.85,3668.78,-8.96134,0.387496,-3.48092
0.132,5108.05,-1396.69,8213.55,-1.22676,0.492294,2.38334,5062.91,-210.084,8411.83,-2.26215,1.59643,-0.426653,-72.0446,9650.26,-1439.07,5.33006,-6.61297,7.07238,107.146,-10000.1,-1389.58,-1.77529,2.29382,-2.14496,-1260.18,9562.89,-434.486,1.15162,-6.11158,-0.967026,422.551,-9780.3,-2299.19,-4.00956,7.64674,1.07299,8814.88,-1275.52,3667.25,-9.00178,0.346524,-3.64018
0.133,5134.45,-1387.84,8216.74,-1.26466,0.583822,2.43883,5067.53,-218.151,8411.89,-2.23069,1.5734,-0.459213,-82.663,9652.63,-1434.12,5.18378,-6.66637,7.02045,105.649,-10025.2,-1393.98,-1.64695,2.35109,-2.23257,-1250.85,9567.83,-421.144,1.18953,-6.27379,-0.965218,431.03,-9758.97,-2295.14,-4.11576,7.67889,1.10925,8781.43,-1290.18,3665.71,-9.04222,0.305552,-3.79944
0.134,5125.67,-1397.23,8210.72,-1.26447,0.626439,2.48217,5054.72,-208.111,8418.46,-2.26245,1.58528,-0.513031,-91.9094,9653.08,-1428.88,5.05893,-6.76932,6.99468,93.2369,-10030.7,-1392.18,-1.58551,2.36933,-2.29664,-1234.22,9573.44,-417.498,1.2612,-6.4546,-0.97013,426.535,-9737.32,-2297.46,-4.23289,7.75071,1.27107,8761.35,-1310.02,3658.03,-9.08074,0.288631,-3.9075
0.135,5099.31,-1415.73,8200.09,-1.24523,0.6446,2.51943,5033.18,-189.018,8428.28,-2.32581,1.61461,-0.577479,-100.47,9652.57,-1423.49,4.94478,-6.89704,6.98199,75.3684,-10026.6,-1387.28,-1.55751,2.36805,-2.34893,-1213.94,9579.38,-418.7,1.34975,-6.64471,-0.978402,415.553,-9715.51,-2302.96,-4.35548,7.84237,1.49567,8747.96,-1332.44,3647.26,-9.11829,0.283736,-3.98994
0.136,5072.96,-1434.23,8189.47,-1.226,0.662761,2.55669,5011.65,-169.924,8438.11,-2.38917,1.64393,-0.641928,-109.03,9652.06,-1418.11,4.83063,-7.02476,6.96929,57.5,-10022.4,-1382.38,-1.52951,2.36676,-2.40123,-1193.66,9585.33,-419.902,1.43829,-6.83483,-0.986675,404.57,-9693.7,-2308.47,-4.47808,7.93404,1.72027,8734.58,-1354.86,3636.5,-9.15584,0.27884,-4.07239
0.137,5046.6,-1452.73,8178.85,-1.20677,0.680922,2.59395,4990.11,-150.83,8447.93,-2.45254,1.67326,-0.706376,-117.591,9651.55,-1412.73,4.71649,-7.15249,6.9566,39.6315,-10018.2,-1377.48,-1.50151,2.36548,-2.45353,-1173.38,9591.28,-421.104,1.52684,-7.02494,-0.994947,393.588,-9671.88,-2313.98,-4.60067,8.0257,1.94487,8721.19,-1377.28,3625.74,-9.19339,0.273945,-4.15483
0.138,5030.71,-1468.52,8174.1,-1.17466,0.709111,2.5869,4968.57,-134.202,8456.6,-2.49963,1.70539,-0.758979,-124.966,9653.47,-1409.65,4.61129,-7.26146,6.94005,26.892,-10014.2,-1371.68,-1.46508,2.34501,-2.52422,-1153.11,9597.62,-423.276,1.57571,-7.22011,-0.98677,389.65,-9662.18,-2315.56,-4.69552,8.0977,2.13061,8708.9,-1396.09,3619.19,-9.20754,0.234318,-4.24368
0.139,5051.48,-1474.82,8189.94,-1.0975,0.772398,2.42479,4946.98,-126.202,8461.22,-2.4898,1.74735,-0.770125,-128.195,9663.9,-1414.63,4.53741,-7.3048,6.90997,32.1035,-10010.8,-1362.71,-1.39914,2.25741,-2.65926,-1132.88,9605.36,-428.84,1.48572,-7.43294,-0.921021,410.367,-9694.85,-2303.39,-4.69326,8.10085,2.18036,8700.47,-1402.26,3627.37,-9.13979,0.073133,-4.35492
0.14,5072.24,-1481.12,8205.78,-1.02034,0.835684,2.26267,4925.4,-118.203,8465.85,-2.47997,1.78931,-0.781271,-131.423,9674.33,-1419.6,4.46354,-7.34813,6.87989,37.3151,-10007.4,-1353.75,-1.3332,2.1698,-2.7943,-1112.65,9613.09,-434.404,1.39574,-7.64578,-0.855273,431.084,-9727.53,-2291.22,-4.691,8.10399,2.2301,8692.03,-1408.44,3635.55,-9.07203,-0.0880524,-4.46616
0.141,5093.0,-1487.42,8221.61,-0.943185,0.89897,2.10056,4903.82,-110.204,8470.47,-2.47013,1.83127,-0.792417,-134.652,9684.76,-1424.58,4.38966,-7.39147,6.84982,42.5267,-10004.0,-1344.78,-1.26726,2.0822,-2.92933,-1092.42,9620.83,-439.968,1.30576,-7.85862,-0.789524,451.801,-9760.21,-2279.05,-4.68875,8.10714,2.27985,8683.59,-1414.61,3643.73,-9.00428,-0.249238,-4.5774
0.142,5113.77,-1493.73,8237.45,-0.866027,0.962256,1.93845,4882.24,-102.204,8475.09,-2.4603,1.87322,-0.803563,-137.88,9695.2,-1429.56,4.31578,-7.43481,6.81974,47.7382,-10000.6,-1335.82,-1.20132,1.9946,-3.06437,-1072.19,9628.56,-445.532,1.21578,-8.07145,-0.723775,472.518,-9792.88,-2266.89,-4.68649,8.11029,2.3296,8675.15,-1420.78,3651.91,-8.93652,-0.410423,-4.68865
0.143,5116.21,-1505.16,8231.99,-0.841259,0.982656,1.90499,4894.04,-86.9027,8471.2,-2.44441,1.82967,-0.810939,-132.386,9699.46,-1441.73,4.2573,-7.49765,6.78462,73.7535,-9982.31,-1339.78,-1.15063,1.93867,-3.19983,-1066.76,9614.79,-442.555,1.10301,-8.25388,-0.673639,480.001,-9799.3,-2257.54,-4.74001,8.09441,2.39895,8697.61,-1417.23,3665.9,-8.84297,-0.433496,-4.76636
0.144,5113.41,-1518.05,8220.44,-0.831459,0.990802,1.9083,4915.38,-69.515,8464.88,-2.42678,1.76168,-0.817238,-124.401,9701.96,-1455.96,4.20321,-7.56606,6.74806,105.713,-9959.79,-1347.43,-1.10429,1.89179,-3.3354,-1065.57,9594.87,-437.138,0.983725,-8.42762,-0.627963,483.703,-9798.21,-2249.01,-4.80946,8.07309,2.47391,8728.89,-1410.89,3681.54,-8.74204,-0.417107,-4.83449
0.145,5110.62,-1530.95,8208.89,-0.82166,0.998948,1.91161,4936.72,-52.1272,8458.56,-2.40916,1.6937,-0.823536,-116.415,9704.46,-1470.19,4.14912,-7.63448,6.71149,137.672,-9937.27,-1355.09,-1.05796,1.84491,-3.47097,-1064.37,9574.96,-431.721,0.864444,-8.60135,-0.582288,487.404,-9797.12,-2240.47,-4.87892,8.05177,2.54886,8760.17,-1404.56,3697.18,-8.64111,-0.400718,-4.90262
0.146,5107.83,-1543.85,8197.34,-0.811861,1.00709,1.91491,4958.06,-34.7395,8452.23,-2.39153,1.62571,-0.829835,-108.429,9706.96,-1484.42,4.09503,-7.70289,6.67493,169.631,-9914.75,-1362.74,-1.01162,1.79803,-3.60655,-1063.17,9555.04,-426.304,0.745163,-8.77509,-0.536612,491.106,-9796.03,-2231.93,-4.94837,8.03045,2.62381,8791.45,-1398.22,3712.82,-8.54018,-0.38433,-4.97074
0.147,5100.11,-1550.09,8187.89,-0.815076,1.03577,1.84913,4973.26,-28.0608,8450.53,-2.36603,1.57513,-0.859575,-100.599,9706.11,-1492.77,4.03372,-7.77847,6.65032,195.244,-9902.26,-1365.41,-0.982211,1.73314,-3.71015,-1062.31,9542.57,-428.69,0.654016,-8.91419,-0.486506,495.51,-9796.86,-2222.38,-5.01083,8.00162,2.70947,8818.64,-1398.86,3720.74,-8.44393,-0.414906,-4.98225
0.148,5082.55,-1543.03,8182.62,-0.844321,1.1055,1.64518,4976.19,-42.8003,8458.07,-2.32478,1.55937,-0.936195,-93.0789,9698.57,-1489.37,3.95795,-7.86838,6.64959,208.166,-9909.82,-1358.11,-0.98664,1.63224,-3.74979,-1062.12,9544.98,-446.681,0.619137,-8.98399,-0.427537,501.321,-9801.54,-2210.8,-5.05928,7.95776,2.81656,8837.62,-1413.45,3713.2,-8.35703,-0.539413,-4.88052
0.149,5064.98,-1535.97,8177.36,-0.873566,1.17523,1.44123,4979.12,-57.5398,8465.6,-2.28354,1.5436,-1.01282,-85.5588,9691.04,-1485.98,3.88218,-7.95829,6.64887,221.088,-9917.38,-1350.81,-0.991069,1.53135,-3.78944,-1061.92,9547.39,-464.673,0.584257,-9.0538,-0.368569,507.132,-9806.21,-2199.22,-5.10774,7.9139,2.92364,8856.61,-1428.04,3705.66,-8.27013,-0.663919,-4.77879
0.15,5047.42,-1528.91,8172.09,-0.90281,1.24496,1.23728,4982.04,-72.2793,8473.14,-2.24229,1.52783,-1.08944,-78.0387,9683.5,-1482.58,3.80641,-8.04819,6.64814,234.009,-9924.95,-1343.51,-0.995498,1.43045,-3.82909,-1061.73,9549.8,-482.665,0.549378,-9.12361,-0.309601,512.943,-9810.89,-2187.64,-5.15619,7.87004,3.03072,8875.6,-1442.64,3698.12,-8.18322,-0.788425,-4.67706
0.151,5029.85,-1521.85,8166.83,-0.932055,1.31469,1.03333,4984.97,-87.0188,8480.68,-2.20104,1.51206,-1.16606,-70.5186,9675.96,-1479.19,3.73064,-8.1381,6.64742,246.931,-9932.51,-1336.21,-0.999927,1.32955,-3.86874,-1061.54,9552.22,-500.656,0.514499,-9.19341,-0.250632,518.754,-9815.57,-2176.06,-5.20465,7.82618,3.13781,8894.59,-1457.23,3690.58,-8.09632,-0.912931,-4.57533
0.152,5023.89,-1526.53,8176.87,-0.962074,1.29567,0.959883,4980.09,-110.185,8482.16,-2.15425,1.51148,-1.17809,-69.5241,9669.52,-1482.83,3.68395,-8.26169,6.6115,257.709,-9931.89,-1337.06,-0.997762,1.33762,-3.91177,-1043.75,9568.13,-485.873,0.520524,-9.22578,-0.288339,513.259,-9819.63,-2159.05,-5.17909,7.68821,3.16622,8892.84,-1453.82,3680.54,-8.05882,-0.982522,-4.52991
0.153,5019.38,-1532.67,8188.83,-0.992189,1.26555,0.902751,4974.25,-134.406,8482.89,-2.10676,1.51281,-1.18204,-69.3455,9663.22,-1487.34,3.64089,-8.3895,6.57117,268.22,-9930.25,-1338.93,-0.994772,1.3593,-3.95523,-1023.77,9585.72,-466.993,0.531661,-9.25346,-0.33813,506.351,-9823.6,-2141.35,-5.14427,7.53847,3.1848,8888.51,-1448.15,3670.18,-8.0275,-1.04525,-4.49153
0.154,5014.87,-1538.81,8200.79,-1.0223,1.23544,0.84562,4968.4,-158.626,8483.61,-2.05927,1.51413,-1.18599,-69.1668,9656.92,-1491.85,3.59783,-8.51731,6.53085,278.73,-9928.61,-1340.8,-0.991783,1.38098,-3.99868,-1003.78,9603.32,-448.112,0.542798,-9.28115,-0.387921,499.443,-9827.58,-2123.66,-5.10946,7.38874,3.20338,8884.18,-1442.49,3659.83,-7.99618,-1.10798,-4.45314
0.155,5010.36,-1544.96,8212.75,-1.05242,1.20532,0.788488,4962.55,-182.846,8484.34,-2.01179,1.51545,-1.18995,-68.9881,9650.61,-1496.37,3.55478,-8.64511,6.49052,289.241,-9926.97,-1342.67,-0.988794,1.40267,-4.04213,-983.796,9620.92,-429.232,0.553936,-9.30884,-0.437712,492.534,-9831.56,-2105.96,-5.07465,7.239,3.22196,8879.85,-1436.83,3649.47,-7.96485,-1.1707,-4.41476
0.156,5019.6,-1549.08,8217.21,-1.04528,1.21484,0.733857,4960.42,-200.699,8477.17,-1.99804,1.53368,-1.19519,-60.5746,9650.32,-1501.06,3.50685,-8.75001,6.4518,298.461,-9919.61,-1353.14,-1.00468,1.38983,-4.08517,-971.719,9631.51,-405.935,0.509528,-9.3315,-0.47307,488.906,-9833.89,-2088.2,-5.02325,7.1065,3.2037,8877.62,-1428.01,3638.38,-7.86636,-1.20704,-4.34661
0.157,5046.03,-1550.66,8212.3,-0.991579,1.2739,0.682354,4962.95,-210.593,8460.11,-2.02646,1.57306,-1.20203,-41.8678,9657.52,-1505.97,3.45285,-8.82628,6.41508,306.068,-9905.1,-1374.36,-1.04416,1.33383,-4.1277,-969.53,9633.34,-377.116,0.39569,-9.3479,-0.490386,489.376,-9834.14,-2070.35,-4.95114,6.99554,3.1394,8878.0,-1415.24,3626.36,-7.6839,-1.21038,-4.24125
0.158,5072.45,-1552.25,8207.38,-0.937876,1.33296,0.63085,4965.48,-220.488,8443.06,-2.05488,1.61244,-1.20887,-23.161,9664.73,-1510.88,3.39884,-8.90255,6.37837,313.676,-9890.6,-1395.58,-1.08364,1.27783,-4.17023,-967.34,9635.17,-348.298,0.281852,-9.36429,-0.507703,489.847,-9834.4,-2052.51,-4.87902,6.88458,3.07509,8878.38,-1402.48,3614.34,-7.50144,-1.21372,-4.13589
0.159,5098.88,-1553.83,8202.47,-0.884173,1.39202,0.579347,4968.0,-230.382,8426.01,-2.0833,1.65182,-1.21571,-4.45417,9671.94,-1515.8,3.34483,-8.97882,6.34165,321.283,-9876.09,-1416.81,-1.12312,1.22183,-4.21276,-965.151,9637.0,-319.479,0.168014,-9.38069,-0.52502,490.317,-9834.65,-2034.66,-4.80691,6.77362,3.01079,8878.76,-1389.71,3602.32,-7.31898,-1.21706,-4.03052
0.16,5125.31,-1555.41,8197.55,-0.83047,1.45108,0.527843,4970.53,-240.277,8408.96,-2.11172,1.69119,-1.22255,14.2527,9679.14,-1520.71,3.29082,-9.05509,6.30493,328.891,-9861.58,-1438.03,-1.1626,1.16583,-4.25529,-962.961,9638.83,-290.661,0.0541764,-9.39708,-0.542336,490.787,-9834.91,-2016.82,-4.73479,6.66266,2.94648,8879.15,-1376.95,3590.3,-7.13652,-1.2204,-3.92516
0.161,5101.94,-1547.43,8190.05,-0.800424,1.53238,0.564421,4969.43,-224.929,8413.56,-2.1089,1.78569,-1.18639,41.251,9677.53,-1526.48,3.14285,-8.9458,6.28051,330.236,-9868.14,-1438.81,-1.19556,1.1166,-4.25306,-970.598,9624.42,-295.014,0.0539684,-9.41436,-0.461499,498.778,-9846.24,-2002.04,-4.72663,6.56606,2.78005,8889.96,-1385.93,3585.62,-7.01813,-1.28451,-3.70091
0.162,5078.57,-1539.45,8182.56,-0.770378,1.61369,0.600998,4968.32,-209.581,8418.17,-2.10608,1.88019,-1.15024,68.2493,9675.91,-1532.26,2.99489,-8.83651,6.25609,331.58,-9874.7,-1439.59,-1.22851,1.06737,-4.25083,-978.235,9610.02,-299.367,0.0537604,-9.43164,-0.380662,506.768,-9857.57,-1987.26,-4.71848,6.46946,2.61361,8900.77,-1394.91,3580.93,-6.89974,-1.34861,-3.47666
0.163,5055.2,-1531.47,8175.06,-0.740332,1.69499,0.637575,4967.21,-194.234,8422.78,-2.10326,1.97469,-1.11408,95.2476,9674.29,-1538.03,2.84692,-8.72722,6.23167,332.925,-9881.26,-1440.37,-1.26147,1.01814,-4.2486,-985.871,9595.61,-303.721,0.0535524,-9.44891,-0.299825,514.759,-9868.9,-1972.47,-4.71032,6.37285,2.44717,8911.59,-1403.89,3576.25,-6.78135,-1.41272,-3.25241
0.164,5031.83,-1523.49,8167.56,-0.710286,1.7763,0.674153,4966.11,-178.886,8427.39,-2.10044,2.06919,-1.07792,122.246,9672.67,-1543.81,2.69895,-8.61793,6.20725,334.27,-9887.82,-1441.15,-1.29442,0.968915,-4.24638,-993.508,9581.2,-308.074,0.0533444,-9.46619,-0.218988,522.749,-9880.23,-1957.69,-4.70217,6.27625,2.28073,8922.4,-1412.87,3571.57,-6.66296,-1.47682,-3.02816
0.165,5027.34,-1519.5,8164.86,-0.705095,1.84982,0.615187,4965.93,-158.476,8428.67,-2.11314,2.0722,-1.07893,136.862,9664.78,-1542.09,2.54114,-8.53643,6.09748,341.892,-9883.09,-1430.16,-1.31265,0.927616,-4.23026,-987.301,9573.94,-313.063,0.121768,-9.4741,-0.17001,529.442,-9890.75,-1941.18,-4.70509,6.17114,2.18478,8934.46,-1426.75,3564.02,-6.50391,-1.53352,-2.78972
0.166,5037.95,-1518.7,8166.0,-0.719786,1.91711,0.479788,4966.5,-134.017,8427.29,-2.13826,2.00201,-1.10968,141.572,9651.86,-1534.37,2.37546,-8.47716,5.91942,354.537,-9869.34,-1409.75,-1.31908,0.892659,-4.20304,-970.019,9572.39,-318.56,0.245097,-9.47452,-0.146519,535.097,-9900.64,-1923.29,-4.71689,6.05921,2.1452,8947.53,-1444.55,3554.2,-6.31232,-1.58429,-2.53992
0.167,5048.55,-1517.9,8167.14,-0.734478,1.9844,0.344389,4967.07,-109.557,8425.91,-2.16338,1.93182,-1.14044,146.283,9638.94,-1526.66,2.20977,-8.4179,5.74135,367.181,-9855.58,-1389.34,-1.32552,0.857702,-4.17582,-952.737,9570.84,-324.057,0.368427,-9.47494,-0.123028,540.752,-9910.52,-1905.39,-4.72868,5.94729,2.10563,8960.6,-1462.34,3544.37,-6.12073,-1.63506,-2.29013
0.168,5059.16,-1517.11,8168.27,-0.74917,2.05169,0.20899,4967.64,-85.0977,8424.53,-2.1885,1.86163,-1.17119,150.993,9626.03,-1518.95,2.04409,-8.35863,5.56329,379.825,-9841.82,-1368.93,-1.33196,0.822745,-4.1486,-935.455,9569.3,-329.554,0.491756,-9.47536,-0.0995375,546.407,-9920.4,-1887.5,-4.74047,5.83537,2.06605,8973.67,-1480.14,3534.54,-5.92914,-1.68582,-2.04033
0.169,5065.12,-1514.14,8170.0,-0.751489,2.11914,0.0927675,4966.72,-64.0693,8425.46,-2.20457,1.78359,-1.19956,156.294,9614.24,-1510.83,1.8956,-8.29248,5.39324,392.46,-9831.28,-1350.9,-1.34297,0.795062,-4.13367,-919.477,9568.1,-335.954,0.603128,-9.46094,-0.0705091,553.154,-9930.5,-1870.83,-4.74394,5.72982,2.022,8984.06,-1493.99,3525.91,-5.73905,-1.72094,-1.81616
0.17,5033.95,-1493.84,8176.4,-0.65483,2.18791,0.129956,4953.88,-70.4902,8444.91,-2.1483,1.64275,-1.20893,166.322,9611.44,-1499.52,1.88462,-8.1712,5.28724,405.021,-9846.42,-1351.85,-1.39062,0.825574,-4.21704,-913.928,9569.68,-349.577,0.618841,-9.32775,0.00282108,568.636,-9942.32,-1863.98,-4.68085,5.6753,1.94221,8973.0,-1476.32,3526.85,-5.56093,-1.6308,-1.79695
0.171,5002.78,-1473.54,8182.8,-0.558171,2.25669,0.167145,4941.04,-76.911,8464.35,-2.09204,1.50192,-1.2183,176.349,9608.64,-1488.22,1.87365,-8.04992,5.18124,417.581,-9861.55,-1352.81,-1.43827,0.856086,-4.30042,-908.379,9571.27,-363.2,0.634555,-9.19456,0.0761512,584.118,-9954.13,-1857.12,-4.61776,5.62077,1.86241,8961.94,-1458.64,3527.8,-5.38281,-1.54067,-1.77774
0.172,4971.6,-1453.24,8189.21,-0.461513,2.32546,0.204334,4928.2,-83.3319,8483.8,-2.03577,1.36109,-1.22766,186.377,9605.85,-1476.91,1.86267,-7.92865,5.07524,430.141,-9876.69,-1353.76,-1.48592,0.886597,-4.38379,-902.83,9572.86,-376.822,0.650268,-9.06136,0.149481,599.6,-9965.95,-1850.27,-4.55467,5.56625,1.78261,8950.88,-1440.96,3528.75,-5.20469,-1.45054,-1.75853
0.173,4940.43,-1432.94,8195.61,-0.364854,2.39423,0.241523,4915.36,-89.7528,8503.24,-1.97951,1.22026,-1.23703,196.405,9603.05,-1465.6,1.8517,-7.80737,4.96924,442.701,-9891.83,-1354.71,-1.53357,0.917109,-4.46716,-897.281,9574.44,-390.445,0.665982,-8.92817,0.222812,615.082,-9977.77,-1843.42,-4.49158,5.51172,1.70281,8939.82,-1423.29,3529.69,-5.02657,-1.36041,-1.73933
0.174,4954.9,-1425.2,8199.35,-0.387589,2.49392,0.238031,4905.8,-108.356,8509.54,-1.8589,1.10196,-1.21888,210.07,9606.64,-1470.61,1.81565,-7.65753,4.87873,445.483,-9905.08,-1361.53,-1.53505,1.01867,-4.48094,-890.007,9587.93,-383.867,0.62649,-8.72689,0.372851,613.691,-9973.82,-1828.45,-4.44138,5.4102,1.59798,8941.4,-1418.46,3538.15,-4.90069,-1.3658,-1.68649
0.175,4992.2,-1423.74,8201.75,-0.470021,2.60908,0.214198,4897.89,-133.051,8509.25,-1.70613,0.994942,-1.18698,225.552,9613.43,-1483.77,1.76707,-7.4934,4.79597,443.375,-9917.38,-1371.27,-1.51344,1.15577,-4.45993,-881.87,9607.37,-367.189,0.559395,-8.49156,0.561245,603.864,-9961.99,-1809.44,-4.39764,5.28518,1.48063,8949.3,-1420.05,3550.37,-4.80093,-1.41896,-1.61684
0.176,5029.49,-1422.28,8204.16,-0.552452,2.72424,0.190365,4889.98,-157.745,8508.97,-1.55335,0.88792,-1.15508,241.035,9620.22,-1496.94,1.71848,-7.32927,4.7132,441.268,-9929.69,-1381.02,-1.49182,1.29286,-4.43891,-873.733,9626.81,-350.511,0.492299,-8.25623,0.749639,594.037,-9950.17,-1790.42,-4.35389,5.16016,1.36329,8957.21,-1421.64,3562.58,-4.70117,-1.47212,-1.54719
0.177,5066.78,-1420.82,8206.56,-0.634884,2.83939,0.166533,4882.08,-182.44,8508.68,-1.40058,0.780899,-1.12317,256.518,9627.01,-1510.11,1.6699,-7.16514,4.63044,439.16,-9942.0,-1390.77,-1.47021,1.42995,-4.4179,-865.596,9646.25,-333.833,0.425204,-8.0209,0.938034,584.21,-9938.34,-1771.4,-4.31014,5.03514,1.24594,8965.11,-1423.24,3574.8,-4.60141,-1.52527,-1.47754
0.178,5091.11,-1419.27,8210.4,-0.679584,2.93007,0.106199,4879.07,-205.768,8502.77,-1.27619,0.664545,-1.10102,267.403,9631.59,-1521.57,1.59523,-7.00915,4.53737,438.426,-9950.49,-1397.52,-1.44263,1.58051,-4.40771,-856.897,9664.9,-316.391,0.364033,-7.78833,1.12463,574.642,-9926.91,-1756.7,-4.2727,4.92714,1.1283,8971.84,-1420.51,3580.95,-4.4978,-1.5456,-1.40679
0.179,5070.04,-1417.38,8219.26,-0.592223,2.93507,-0.0818903,4893.23,-224.314,8477.17,-1.25116,0.515529,-1.11301,262.198,9628.44,-1527.08,1.42926,-6.88161,4.40826,442.502,-9945.58,-1393.8,-1.39417,1.77823,-4.43539,-846.23,9680.76,-296.273,0.323594,-7.56543,1.30491,565.977,-9916.86,-1757.1,-4.25733,4.8787,1.00966,8974.5,-1402.68,3565.91,-4.38071,-1.45105,-1.3322
0.18,5048.98,-1415.48,8228.11,-0.504862,2.94007,-0.269979,4907.39,-242.861,8451.57,-1.22614,0.366513,-1.12499,256.993,9625.28,-1532.58,1.26328,-6.75407,4.27915,446.579,-9940.68,-1390.07,-1.3457,1.97594,-4.46307,-835.564,9696.61,-276.155,0.283156,-7.34252,1.48519,557.312,-9906.81,-1757.51,-4.24195,4.83026,0.891023,8977.15,-1384.84,3550.87,-4.26361,-1.35649,-1.25761
0.181,5027.91,-1413.59,8236.97,-0.417501,2.94507,-0.458068,4921.55,-261.407,8425.97,-1.20111,0.217497,-1.13698,251.787,9622.12,-1538.09,1.09731,-6.62654,4.15004,450.655,-9935.78,-1386.35,-1.29724,2.17365,-4.49075,-824.898,9712.47,-256.038,0.242718,-7.11962,1.66548,548.647,-9896.76,-1757.92,-4.22658,4.78181,0.772384,8979.8,-1367.01,3535.82,-4.14652,-1.26193,-1.18302
0.182,5006.84,-1411.7,8245.82,-0.33014,2.95007,-0.646157,4935.71,-279.953,8400.37,-1.17608,0.0684816,-1.14897,246.582,9618.97,-1543.59,0.93133,-6.499,4.02092,454.731,-9930.88,-1382.63,-1.24878,2.37136,-4.51843,-814.232,9728.33,-235.92,0.20228,-6.89671,1.84576,539.982,-9886.71,-1758.33,-4.21121,4.73337,0.653746,8982.46,-1349.17,3520.78,-4.02942,-1.16738,-1.10843
0.183,5014.42,-1413.05,8238.36,-0.35697,2.9707,-0.744987,4949.12,-278.309,8404.55,-1.20536,-0.13824,-1.15891,244.589,9615.56,-1533.27,0.821039,-6.37556,4.02477,452.942,-9929.87,-1373.73,-1.27524,2.48383,-4.54675,-821.056,9722.78,-241.347,0.180091,-6.67584,1.92212,534.947,-9885.22,-1763.5,-4.08769,4.70922,0.561304,8999.78,-1346.1,3529.08,-3.98623,-1.13617,-0.975685
0.184,5030.18,-1415.33,8226.23,-0.416426,2.9958,-0.818315,4962.32,-270.896,8417.25,-1.25015,-0.36145,-1.16827,243.514,9612.09,-1518.43,0.726659,-6.25329,4.06661,449.478,-9929.98,-1363.35,-1.32312,2.57195,-4.57524,-832.878,9711.11,-254.073,0.163115,-6.45554,1.96879,530.949,-9886.18,-1770.02,-3.93328,4.692,0.476348,9021.3,-1347.24,3544.06,-3.96415,-1.12307,-0.826326
0.185,5045.94,-1417.61,8214.1,-0.475881,3.0209,-0.891643,4975.52,-263.484,8429.95,-1.29495,-0.584659,-1.17763,242.439,9608.61,-1503.59,0.632277,-6.13101,4.10845,446.013,-9930.09,-1352.97,-1.37099,2.66006,-4.60373,-844.699,9699.44,-266.799,0.146139,-6.23524,2.01545,526.951,-9887.13,-1776.55,-3.77887,4.67479,0.391391,9042.81,-1348.39,3559.04,-3.94208,-1.10996,-0.676967
0.186,5061.7,-1419.89,8201.97,-0.535337,3.04601,-0.964971,4988.72,-256.071,8442.64,-1.33974,-0.807868,-1.18699,241.364,9605.14,-1488.74,0.537897,-6.00874,4.15029,442.549,-9930.2,-1342.59,-1.41887,2.74818,-4.63222,-856.521,9687.77,-279.525,0.129163,-6.01495,2.06212,522.953,-9888.09,-1783.07,-3.62446,4.65757,0.306435,9064.33,-1349.53,3574.01,-3.92,-1.09685,-0.527608
0.187,5066.31,-1419.6,8196.72,-0.569456,3.05716,-1.00182,4996.92,-247.09,8456.07,-1.36176,-0.996837,-1.21147,245.642,9604.27,-1480.26,0.494096,-5.84475,4.14607,434.892,-9928.22,-1330.76,-1.44799,2.78453,-4.64282,-866.211,9676.78,-293.458,0.0692353,-5.77032,2.11201,516.252,-9882.34,-1786.39,-3.50889,4.62278,0.215632,9083.15,-1354.89,3580.72,-3.86285,-1.08503,-0.399528
0.188,5048.65,-1414.16,8205.24,-0.552901,3.0404,-0.965725,4995.13,-234.972,8470.96,-1.33822,-1.11733,-1.26617,260.626,9608.63,-1484.51,0.551456,-5.59733,4.04974,418.851,-9922.07,-1316.04,-1.43961,2.71736,-4.61761,-871.638,9667.13,-309.804,-0.0765972,-5.47703,2.16834,504.145,-9863.17,-1783.31,-3.47104,4.55285,0.113135,9096.57,-1368.69,3570.9,-3.73555,-1.07576,-0.314005
0.189,5030.99,-1408.72,8213.75,-0.536346,3.02364,-0.929626,4993.33,-222.855,8485.85,-1.31467,-1.23781,-1.32087,275.61,9613.0,-1488.76,0.608816,-5.34991,3.95341,402.81,-9915.92,-1301.32,-1.43124,2.65019,-4.5924,-877.065,9657.48,-326.15,-0.22243,-5.18374,2.22468,492.038,-9844.0,-1780.22,-3.43318,4.48291,0.010638,9109.99,-1382.49,3561.08,-3.60825,-1.06649,-0.228482
0.19,5013.32,-1403.29,8222.27,-0.519792,3.00688,-0.893528,4991.54,-210.738,8500.74,-1.29113,-1.3583,-1.37558,290.594,9617.36,-1493.01,0.666175,-5.10249,3.85709,386.769,-9909.77,-1286.59,-1.42286,2.58302,-4.56719,-882.492,9647.83,-342.496,-0.368262,-4.89045,2.28101,479.931,-9824.83,-1777.14,-3.39532,4.41297,-0.0918589,9123.41,-1396.29,3551.25,-3.48096,-1.05722,-0.142959
0.191,4995.66,-1397.85,8230.79,-0.503237,2.99012,-0.85743,4989.75,-198.62,8515.63,-1.26759,-1.47879,-1.43028,305.578,9621.72,-1497.27,0.723535,-4.85506,3.76076,370.728,-9903.62,-1271.87,-1.41448,2.51585,-4.54198,-887.919,9638.18,-358.843,-0.514095,-4.59716,2.33735,467.824,-9805.67,-1774.06,-3.35746,4.34304,-0.194356,9136.84,-1410.09,3541.43,-3.35366,-1.04796,-0.0574364
0.192,4965.67,-1392.4,8254.78,-0.544158,2.88837,-0.783958,4975.38,-187.221,8515.55,-1.26552,-1.49884,-1.48606,299.254,9626.08,-1484.66,0.743833,-4.57741,3.64811,371.364,-9885.45,-1286.7,-1.43014,2.50898,-4.54215,-885.769,9637.41,-370.017,-0.554318,-4.33785,2.4446,487.629,-9797.46,-1773.79,-3.38433,4.18212,-0.31105,9103.04,-1385.93,3552.8,-3.29759,-1.03459,-0.0383471
0.193,4934.14,-1386.94,8280.71,-0.592262,2.77599,-0.705815,4959.44,-175.911,8513.61,-1.26615,-1.50634,-1.54198,290.267,9630.44,-1469.95,0.759498,-4.29599,3.53342,374.085,-9865.78,-1305.22,-1.44881,2.50965,-4.54548,-882.672,9637.75,-380.545,-0.581341,-4.08279,2.55821,511.423,-9790.62,-1773.88,-3.4193,4.00984,-0.42952,9063.35,-1357.03,3566.81,-3.25042,-1.02071,-0.027562
0.194,4902.62,-1381.49,8306.63,-0.640367,2.66362,-0.627672,4943.5,-164.601,8511.66,-1.26677,-1.51384,-1.59791,281.279,9634.81,-1455.24,0.775162,-4.01456,3.41873,376.806,-9846.11,-1323.74,-1.46748,2.51032,-4.54881,-879.575,9638.09,-391.072,-0.608363,-3.82772,2.67183,535.218,-9783.78,-1773.96,-3.45427,3.83755,-0.547989,9023.65,-1328.13,3580.83,-3.20325,-1.00684,-0.0167769
0.195,4871.09,-1376.04,8332.56,-0.688472,2.55124,-0.549529,4927.55,-153.292,8509.72,-1.26739,-1.52133,-1.65383,272.291,9639.17,-1440.53,0.790827,-3.73313,3.30405,379.526,-9826.44,-1342.26,-1.48615,2.51099,-4.55215,-876.478,9638.43,-401.6,-0.635385,-3.57266,2.78544,559.012,-9776.94,-1774.05,-3.48923,3.66526,-0.666459,8983.96,-1299.23,3594.85,-3.15608,-0.992959,-0.00599174
0.196,4869.0,-1363.97,8340.08,-0.693214,2.48537,-0.474531,4910.2,-147.262,8505.76,-1.29604,-1.5255,-1.70094,265.852,9650.63,-1428.71,0.804601,-3.42627,3.19427,386.274,-9819.69,-1358.55,-1.49757,2.53452,-4.52844,-885.004,9635.9,-407.378,-0.642887,-3.33388,2.90211,584.029,-9771.32,-1771.93,-3.46798,3.45864,-0.759947,8965.79,-1293.21,3598.1,-3.14392,-0.952707,-0.0052749
0.197,4903.71,-1343.65,8324.58,-0.643751,2.47764,-0.403464,4891.07,-147.831,8499.31,-1.35972,-1.5255,-1.73705,262.598,9670.97,-1420.5,0.816011,-3.08762,3.09063,398.054,-9829.09,-1372.06,-1.49995,2.58665,-4.47094,-908.06,9629.78,-407.218,-0.625988,-3.11545,3.02257,610.575,-9767.23,-1767.06,-3.37646,3.2091,-0.82221,8974.53,-1315.79,3587.9,-3.1755,-0.879487,-0.0171434
0.198,4938.42,-1323.32,8309.08,-0.594289,2.46991,-0.332397,4871.95,-148.4,8492.85,-1.4234,-1.5255,-1.77315,259.343,9691.3,-1412.29,0.827422,-2.74898,2.98698,409.835,-9838.49,-1385.56,-1.50232,2.63878,-4.41345,-931.115,9623.67,-407.058,-0.609089,-2.89702,3.14304,637.12,-9763.14,-1762.19,-3.28494,2.95955,-0.884473,8983.26,-1338.37,3577.7,-3.20709,-0.806266,-0.0290119
0.199,4973.13,-1302.99,8293.58,-0.544826,2.46218,-0.26133,4852.82,-148.969,8486.39,-1.48708,-1.5255,-1.80926,256.089,9711.64,-1404.09,0.838832,-2.41033,2.88334,421.616,-9847.89,-1399.07,-1.5047,2.6909,-4.35595,-954.171,9617.55,-406.898,-0.59219,-2.67859,3.2635,663.666,-9759.05,-1757.32,-3.19342,2.71001,-0.946736,8992.0,-1360.95,3567.49,-3.23868,-0.733046,-0.0408805
0.2,5007.84,-1282.67,8278.08,-0.495364,2.45444,-0.190264,4833.7,-149.539,8479.93,-1.55076,-1.5255,-1.84537,252.835,9731.97,-1395.88,0.850242,-2.07169,2.7797,433.397,-9857.29,-1412.58,-1.50708,2.74303,-4.29845,-977.227,9611.43,-406.738,-0.575291,-2.46015,3.38397,690.211,-9754.95,-1752.44,-3.1019,2.46046,-1.009,9000.74,-1383.53,3557.29,-3.27027,-0.659826,-0.052749
0.201,5037.12,-1277.26,8274.22,-0.555086,2.44262,-0.246774,4835.96,-134.638,8465.7,-1.55936,-1.5255,-1.87774,240.005,9688.53,-1393.61,0.873898,-1.82685,2.73992,435.712,-9859.5,-1395.96,-1.46987,2.67453,-4.20965,-1007.13,9625.44,-407.359,-0.610605,-2.08781,3.4255,700.471,-9744.63,-1754.21,-3.07996,2.20897,-1.1585,8974.93,-1363.39,3549.59,-3.20375,-0.696727,-0.0666265
0.202,5066.39,-1271.85,8270.35,-0.614809,2.43079,-0.303284,4838.23,-119.738,8451.46,-1.56795,-1.5255,-1.91011,227.176,9645.09,-1391.33,0.897553,-1.58202,2.70015,438.027,-9861.7,-1379.34,-1.43266,2.60603,-4.12086,-1037.04,9639.45,-407.98,-0.645918,-1.71546,3.46703,710.731,-9734.3,-1755.98,-3.05802,1.95747,-1.30801,8949.13,-1343.26,3541.89,-3.13723,-0.733627,-0.080504
0.203,5095.67,-1266.44,8266.49,-0.674532,2.41896,-0.359793,4840.49,-104.837,8437.23,-1.57654,-1.5255,-1.94248,214.346,9601.65,-1389.06,0.921209,-1.33719,2.66037,440.343,-9863.91,-1362.72,-1.39545,2.53754,-4.03207,-1066.95,9653.46,-408.6,-0.681232,-1.34311,3.50856,720.991,-9723.97,-1757.75,-3.03608,1.70597,-1.45752,8923.32,-1323.12,3534.19,-3.07072,-0.770527,-0.0943815
0.204,5124.94,-1261.04,8262.63,-0.734254,2.40713,-0.416303,4842.75,-89.9368,8423.0,-1.58514,-1.5255,-1.97485,201.517,9558.21,-1386.79,0.944865,-1.09236,2.6206,442.658,-9866.11,-1346.1,-1.35824,2.46904,-3.94328,-1096.85,9667.47,-409.221,-0.716545,-0.970765,3.55009,731.251,-9713.64,-1759.52,-3.01414,1.45448,-1.60702,8897.52,-1302.99,3526.48,-3.0042,-0.807427,-0.108259
0.205,5133.13,-1270.97,8258.19,-0.781804,2.35165,-0.434213,4850.9,-82.063,8417.63,-1.60712,-1.55532,-1.96941,195.895,9544.51,-1382.74,0.906968,-0.916411,2.56471,449.904,-9861.62,-1337.9,-1.33944,2.41072,-3.88347,-1118.62,9681.02,-406.484,-0.697772,-0.628117,3.59544,738.128,-9717.21,-1765.57,-2.95905,1.23373,-1.77154,8898.12,-1291.03,3526.86,-2.92162,-0.773569,-0.128895
0.206,5124.44,-1293.18,8253.29,-0.819615,2.26125,-0.421241,4863.75,-79.8104,8419.37,-1.63981,-1.609,-1.93372,196.04,9554.61,-1377.26,0.81983,-0.795573,2.49595,461.096,-9851.76,-1336.43,-1.33535,2.36055,-3.84687,-1133.88,9694.19,-401.061,-0.635728,-0.30923,3.64387,742.297,-9731.89,-1775.06,-2.87745,1.03757,-1.94807,8919.87,-1285.63,3533.69,-2.82619,-0.683105,-0.154937
0.207,5115.75,-1315.4,8248.39,-0.857426,2.17086,-0.40827,4876.6,-77.5578,8421.11,-1.6725,-1.66268,-1.89802,196.185,9564.71,-1371.79,0.732693,-0.674735,2.42718,472.287,-9841.91,-1334.97,-1.33126,2.31038,-3.81026,-1149.14,9707.36,-395.639,-0.573685,0.00965809,3.69229,746.467,-9746.57,-1784.55,-2.79586,0.841415,-2.12461,8941.61,-1280.23,3540.52,-2.73076,-0.59264,-0.180979
0.208,5107.06,-1337.61,8243.49,-0.895236,2.08047,-0.395298,4889.45,-75.3053,8422.84,-1.7052,-1.71636,-1.86233,196.33,9574.81,-1366.32,0.645555,-0.553897,2.35841,483.479,-9832.06,-1333.5,-1.32718,2.26021,-3.77365,-1164.4,9720.53,-390.216,-0.511642,0.328546,3.74071,750.637,-9761.25,-1794.04,-2.71426,0.645259,-2.30114,8963.35,-1274.82,3547.35,-2.63533,-0.502175,-0.207021
0.209,5096.57,-1358.05,8240.95,-0.932666,1.98697,-0.379975,4901.35,-73.5694,8424.83,-1.73668,-1.76197,-1.8306,196.771,9583.44,-1361.71,0.568245,-0.418011,2.28909,495.805,-9824.19,-1335.42,-1.33052,2.22056,-3.72764,-1178.15,9731.17,-384.245,-0.45822,0.631199,3.79847,757.477,-9774.61,-1802.68,-2.63089,0.471071,-2.47458,8981.86,-1268.27,3552.45,-2.54929,-0.410795,-0.235989
0.21,5071.62,-1364.3,8257.24,-0.967045,1.86863,-0.345836,4905.66,-75.9669,8428.8,-1.7585,-1.74301,-1.8306,199.582,9580.32,-1363.95,0.569562,-0.161742,2.21532,517.208,-9832.24,-1364.44,-1.39327,2.26505,-3.6064,-1179.77,9721.52,-373.892,-0.473777,0.803979,3.93092,785.682,-9777.46,-1804.56,-2.53335,0.472618,-2.62327,8974.55,-1252.57,3543.77,-2.53834,-0.31209,-0.288368
0.211,5046.68,-1370.56,8273.53,-1.00142,1.7503,-0.311698,4909.96,-78.3644,8432.78,-1.78032,-1.72404,-1.8306,202.394,9577.2,-1366.19,0.570879,0.0945263,2.14156,538.611,-9840.28,-1393.45,-1.45601,2.30955,-3.48516,-1181.39,9711.88,-363.539,-0.489333,0.976759,4.06337,813.887,-9780.31,-1806.44,-2.43581,0.474165,-2.77195,8967.24,-1236.86,3535.09,-2.52738,-0.213386,-0.340746
0.212,5021.74,-1376.82,8289.82,-1.0358,1.63196,-0.277559,4914.26,-80.7619,8436.75,-1.80214,-1.70508,-1.8306,205.206,9574.09,-1368.44,0.572195,0.350795,2.06779,560.014,-9848.32,-1422.46,-1.51876,2.35404,-3.36392,-1183.02,9702.24,-353.185,-0.50489,1.14954,4.19582,842.092,-9783.16,-1808.32,-2.33827,0.475712,-2.92064,8959.92,-1221.16,3526.42,-2.51643,-0.114681,-0.393125
0.213,4996.79,-1383.07,8306.11,-1.07018,1.51362,-0.243421,4918.56,-83.1594,8440.73,-1.82396,-1.68611,-1.8306,208.017,9570.97,-1370.68,0.573512,0.607064,1.99402,581.418,-9856.36,-1451.48,-1.5815,2.39854,-3.24268,-1184.64,9692.6,-342.832,-0.520446,1.32232,4.32827,870.297,-9786.01,-1810.2,-2.24073,0.477259,-3.06932,8952.61,-1205.46,3517.74,-2.50547,-0.0159767,-0.445503
0.214,4994.32,-1387.46,8312.19,-1.06938,1.39555,-0.280372,4929.07,-80.3561,8436.62,-1.83136,-1.60603,-1.78428,195.548,9569.04,-1379.54,0.569501,0.813293,1.91334,576.151,-9861.43,-1465.08,-1.58494,2.49344,-3.15706,-1183.67,9680.05,-334.415,-0.560688,1.47193,4.40642,893.783,-9783.13,-1819.79,-2.18388,0.445407,-3.13697,8956.53,-1223.8,3521.92,-2.49351,-0.00968671,-0.433517
0.215,5003.08,-1390.9,8313.17,-1.05099,1.27762,-0.352867,4942.67,-74.9525,8428.47,-1.83155,-1.49538,-1.7148,175.438,9567.7,-1391.72,0.562828,0.994502,1.82919,557.549,-9865.02,-1470.99,-1.55872,2.61354,-3.08926,-1181.4,9666.05,-326.968,-0.613272,1.60996,4.45741,914.91,-9777.39,-1833.24,-2.14737,0.396857,-3.16409,8966.06,-1259.18,3532.54,-2.48105,-0.0496041,-0.389347
0.216,5011.85,-1394.34,8314.15,-1.03261,1.15968,-0.425362,4956.28,-69.5489,8420.33,-1.83174,-1.38474,-1.64531,155.328,9566.36,-1403.9,0.556154,1.17571,1.74504,538.947,-9868.61,-1476.89,-1.53251,2.73363,-3.02145,-1179.14,9652.05,-319.52,-0.665856,1.748,4.5084,936.036,-9771.65,-1846.68,-2.11085,0.348306,-3.19121,8975.59,-1294.55,3543.17,-2.46859,-0.0895215,-0.345178
0.217,5020.61,-1397.78,8315.13,-1.01422,1.04174,-0.497857,4969.88,-64.1452,8412.18,-1.83193,-1.27409,-1.57583,135.218,9565.02,-1416.07,0.54948,1.35692,1.6609,520.345,-9872.19,-1482.79,-1.50629,2.85373,-2.95365,-1176.87,9638.05,-312.072,-0.71844,1.88603,4.55939,957.163,-9765.91,-1860.13,-2.07434,0.299755,-3.21833,8985.13,-1329.93,3553.79,-2.45613,-0.129439,-0.301008
0.218,5029.49,-1399.65,8313.04,-1.01505,0.982801,-0.536307,4979.88,-58.695,8407.11,-1.83183,-1.18207,-1.51929,122.736,9564.86,-1424.04,0.535025,1.51826,1.59536,505.422,-9878.33,-1489.14,-1.48406,2.95081,-2.88326,-1180.71,9623.78,-304.787,-0.75011,2.03393,4.59038,974.097,-9762.5,-1878.18,-2.01602,0.251066,-3.23697,8988.38,-1352.35,3559.01,-2.45737,-0.142003,-0.282335
0.219,5038.8,-1395.99,8300.17,-1.08314,1.13034,-0.455601,4977.26,-53.0818,8412.81,-1.83069,-1.15523,-1.50801,136.952,9568.82,-1417.26,0.493334,1.61006,1.59495,503.374,-9893.38,-1497.09,-1.4758,2.96733,-2.80381,-1205.94,9608.6,-298.073,-0.708581,2.21639,4.55135,976.36,-9767.28,-1912.39,-1.88139,0.201891,-3.22591,8969.69,-1329.42,3545.37,-2.50653,-0.0588317,-0.352899
0.22,5048.1,-1392.33,8287.31,-1.15124,1.27788,-0.374894,4974.64,-47.4686,8418.51,-1.82954,-1.12839,-1.49674,151.168,9572.79,-1410.48,0.451644,1.70186,1.59455,501.327,-9908.43,-1505.03,-1.46755,2.98385,-2.72435,-1231.16,9593.41,-291.359,-0.667052,2.39885,4.51232,978.623,-9772.06,-1946.6,-1.74676,0.152716,-3.21485,8951.0,-1306.5,3531.73,-2.55569,0.0243397,-0.423464
0.221,5057.4,-1388.66,8274.44,-1.21934,1.42542,-0.294188,4972.01,-41.8553,8424.21,-1.8284,-1.10155,-1.48546,165.385,9576.75,-1403.7,0.409953,1.79366,1.59414,499.279,-9923.48,-1512.98,-1.45929,3.00036,-2.6449,-1256.38,9578.22,-284.645,-0.625524,2.58131,4.47329,980.886,-9776.84,-1980.82,-1.61213,0.103541,-3.20379,8932.31,-1283.57,3518.08,-2.60485,0.107511,-0.494028
0.222,5066.7,-1385.0,8261.57,-1.28743,1.57296,-0.213482,4969.39,-36.2421,8429.92,-1.82725,-1.07471,-1.47419,179.601,9580.71,-1396.93,0.368262,1.88546,1.59373,497.231,-9938.53,-1520.92,-1.45103,3.01688,-2.56545,-1281.6,9563.04,-277.931,-0.583995,2.76377,4.43426,983.149,-9781.62,-2015.03,-1.4775,0.0543662,-3.19274,8913.62,-1260.65,3504.44,-2.654,0.190683,-0.564592
0.223,5065.91,-1379.7,8246.49,-1.2592,1.48646,-0.184142,4945.83,-31.4631,8436.34,-1.86217,-1.06834,-1.45724,154.074,9595.43,-1383.3,0.372559,1.99371,1.62607,504.466,-9927.17,-1505.87,-1.4108,2.94127,-2.488,-1316.05,9574.62,-290.861,-0.605328,2.82733,4.39636,992.643,-9776.42,-2022.17,-1.39715,0.0447558,-3.25215,8921.33,-1256.04,3502.71,-2.7081,0.354161,-0.674794
0.224,5062.23,-1373.93,8230.78,-1.20346,1.33308,-0.169479,4916.28,-26.9224,8442.98,-1.90738,-1.06782,-1.43868,117.193,9613.21,-1367.71,0.389995,2.10665,1.66776,514.354,-9908.27,-1484.24,-1.36143,2.83935,-2.41112,-1353.14,9593.84,-309.404,-0.644621,2.85694,4.35877,1004.2,-9768.36,-2021.59,-1.3323,0.0464497,-3.3317,8936.59,-1256.66,3504.4,-2.76361,0.540583,-0.79632
0.225,5058.56,-1368.16,8215.07,-1.14771,1.17971,-0.154816,4886.73,-22.3817,8449.61,-1.9526,-1.06729,-1.42011,80.311,9631.0,-1352.13,0.407432,2.2196,1.70945,524.241,-9889.36,-1462.62,-1.31207,2.73742,-2.33424,-1390.22,9613.07,-327.946,-0.683915,2.88654,4.32118,1015.76,-9760.3,-2021.0,-1.26746,0.0481435,-3.41125,8951.84,-1257.29,3506.08,-2.81912,0.727006,-0.917847
0.226,5054.88,-1362.38,8199.36,-1.09196,1.02633,-0.140153,4857.19,-17.841,8456.24,-1.99781,-1.06677,-1.40154,43.4293,9648.79,-1336.54,0.424868,2.33254,1.75114,534.129,-9870.46,-1440.99,-1.2627,2.63549,-2.25736,-1427.3,9632.3,-346.489,-0.723208,2.91614,4.28359,1027.32,-9752.25,-2020.42,-1.20261,0.0498373,-3.4908,8967.1,-1257.91,3507.76,-2.87463,0.913429,-1.03937
0.227,5047.96,-1357.43,8194.98,-1.05806,0.939864,-0.0492397,4838.12,-16.0718,8461.5,-2.03272,-1.04232,-1.37466,20.3618,9663.5,-1327.88,0.443707,2.39942,1.77947,539.2,-9862.53,-1430.32,-1.21729,2.58331,-2.16473,-1450.46,9644.3,-362.963,-0.773884,2.91247,4.26069,1036.28,-9750.15,-2012.5,-1.15394,0.0417059,-3.57081,8978.37,-1251.32,3505.24,-2.87853,1.00785,-1.15342
0.228,5034.57,-1354.11,8213.25,-1.06786,0.987215,0.194176,4840.04,-19.8454,8464.04,-2.04701,-0.970031,-1.33115,24.9224,9672.07,-1333.06,0.465354,2.37416,1.78107,534.638,-9876.57,-1441.56,-1.17978,2.63061,-2.04057,-1445.75,9641.83,-375.299,-0.847323,2.84227,4.26716,1040.01,-9759.98,-1989.92,-1.13763,0.0139241,-3.65173,8981.7,-1230.29,3494.34,-2.77921,0.918281,-1.25251
0.229,5021.17,-1350.78,8231.52,-1.07766,1.03457,0.437591,4841.95,-23.6191,8466.57,-2.06131,-0.897739,-1.28763,29.483,9680.63,-1338.24,0.487001,2.34891,1.78267,530.076,-9890.61,-1452.81,-1.14228,2.67792,-1.91641,-1441.05,9639.37,-387.636,-0.920762,2.77206,4.27363,1043.75,-9769.8,-1967.34,-1.12131,-0.0138576,-3.73266,8985.02,-1209.25,3483.43,-2.67989,0.828708,-1.3516
0.23,5007.77,-1347.46,8249.8,-1.08747,1.08192,0.681007,4843.87,-27.3928,8469.1,-2.0756,-0.825447,-1.24412,34.0437,9689.2,-1343.42,0.508648,2.32366,1.78428,525.514,-9904.65,-1464.05,-1.10477,2.72522,-1.79225,-1436.34,9636.91,-399.973,-0.9942,2.70186,4.28011,1047.49,-9779.63,-1944.76,-1.105,-0.0416394,-3.81358,8988.35,-1188.22,3472.52,-2.58057,0.739136,-1.45069
0.231,4994.37,-1344.13,8268.07,-1.09727,1.12927,0.924422,4845.78,-31.1664,8471.63,-2.08989,-0.753155,-1.2006,38.6043,9697.77,-1348.6,0.530295,2.29841,1.78588,520.952,-9918.69,-1475.29,-1.06727,2.77253,-1.66809,-1431.64,9634.45,-412.309,-1.06764,2.63166,4.28658,1051.23,-9789.45,-1922.18,-1.08868,-0.0694212,-3.8945,8991.68,-1167.19,3461.61,-2.48125,0.649563,-1.54978
0.232,4998.67,-1341.61,8266.61,-1.07964,1.1255,0.919975,4854.64,-35.5195,8468.77,-2.0977,-0.733327,-1.1205,42.3475,9702.08,-1343.04,0.590336,2.27582,1.82805,516.504,-9922.98,-1481.76,-1.07768,2.62805,-1.63841,-1433.48,9610.42,-400.69,-1.05885,2.65079,4.26687,1058.21,-9790.98,-1926.99,-1.00302,-0.185934,-3.79516,8994.89,-1159.09,3461.59,-2.58033,0.49453,-1.51953
0.233,5005.19,-1339.18,8262.69,-1.05858,1.11534,0.884544,4864.36,-39.9449,8465.23,-2.10471,-0.720058,-1.03583,45.9886,9705.86,-1336.14,0.655176,2.25358,1.87528,512.072,-9926.05,-1487.63,-1.09409,2.4596,-1.62053,-1436.15,9583.69,-386.076,-1.03979,2.68109,4.24389,1065.6,-9791.47,-1935.22,-0.908693,-0.313538,-3.67329,8998.09,-1152.61,3462.92,-2.70421,0.331314,-1.47312
0.234,5011.7,-1336.75,8258.76,-1.03752,1.10518,0.849113,4874.08,-44.3704,8461.69,-2.11171,-0.706789,-0.95116,49.6297,9709.64,-1329.24,0.720015,2.23133,1.92252,507.639,-9929.12,-1493.5,-1.1105,2.29115,-1.60265,-1438.81,9556.96,-371.463,-1.02072,2.71139,4.2209,1072.99,-9791.97,-1943.45,-0.814363,-0.441143,-3.55142,9001.29,-1146.12,3464.25,-2.82809,0.168099,-1.42671
0.235,5018.21,-1334.32,8254.83,-1.01647,1.09502,0.813683,4883.8,-48.7958,8458.14,-2.11871,-0.693519,-0.866489,53.2708,9713.42,-1322.33,0.784855,2.20908,1.96975,503.206,-9932.19,-1499.38,-1.12691,2.1227,-1.58477,-1441.48,9530.24,-356.849,-1.00165,2.74168,4.19792,1080.38,-9792.46,-1951.69,-0.720033,-0.568747,-3.42954,9004.5,-1139.64,3465.59,-2.95197,0.00488294,-1.38031
0.236,5027.46,-1335.56,8254.03,-0.991358,1.07524,0.760295,4886.0,-50.5122,8447.79,-2.15228,-0.682844,-0.796982,53.108,9722.51,-1323.76,0.816512,2.14149,1.95324,500.468,-9924.1,-1501.94,-1.08276,1.94861,-1.53557,-1451.49,9515.71,-349.693,-1.0013,2.74212,4.13593,1088.61,-9793.77,-1955.47,-0.643578,-0.639387,-3.34116,9006.35,-1145.12,3459.47,-2.97102,-0.112879,-1.34158
0.237,5040.14,-1341.38,8257.13,-0.961186,1.04345,0.684462,4878.78,-48.8423,8428.93,-2.21904,-0.675413,-0.746431,48.1902,9738.25,-1335.58,0.80669,2.01722,1.85703,499.85,-9902.07,-1500.36,-0.962916,1.76747,-1.44722,-1470.68,9516.42,-351.86,-1.02434,2.70524,4.02519,1097.88,-9796.11,-1953.68,-0.589469,-0.638821,-3.29464,9006.51,-1165.57,3444.05,-2.85904,-0.173825,-1.31247
0.238,5052.81,-1347.2,8260.23,-0.931014,1.01166,0.608628,4871.56,-47.1723,8410.07,-2.28581,-0.667981,-0.695879,43.2725,9753.99,-1347.41,0.796867,1.89295,1.76082,499.231,-9880.03,-1498.78,-0.843071,1.58633,-1.35887,-1489.88,9517.14,-354.027,-1.04738,2.66836,3.91444,1107.15,-9798.45,-1951.89,-0.535359,-0.638255,-3.24813,9006.67,-1186.02,3428.62,-2.74706,-0.23477,-1.28336
0.239,5065.48,-1353.03,8263.33,-0.900843,0.979872,0.532794,4864.34,-45.5024,8391.2,-2.35258,-0.660549,-0.645327,38.3547,9769.73,-1359.24,0.787045,1.76868,1.66461,498.612,-9857.99,-1497.2,-0.723225,1.40519,-1.27051,-1509.07,9517.86,-356.194,-1.07042,2.63148,3.8037,1116.43,-9800.79,-1950.1,-0.48125,-0.637689,-3.20161,9006.83,-1206.46,3413.19,-2.63508,-0.295715,-1.25424
0.24,5078.16,-1358.85,8266.43,-0.870671,0.948082,0.45696,4857.13,-43.8325,8372.34,-2.41934,-0.653117,-0.594776,33.437,9785.47,-1371.07,0.777223,1.64441,1.5684,497.994,-9835.95,-1495.63,-0.60338,1.22405,-1.18216,-1528.26,9518.58,-358.361,-1.09346,2.59459,3.69296,1125.7,-9803.13,-1948.32,-0.42714,-0.637123,-3.15509,9006.99,-1226.91,3397.76,-2.5231,-0.35666,-1.22513
0.241,5064.42,-1350.53,8268.79,-0.930657,1.01859,0.551093,4858.67,-45.8463,8361.54,-2.40725,-0.562363,-0.625705,25.7719,9765.46,-1391.79,0.809193,1.60393,1.65756,476.979,-9841.57,-1481.55,-0.589099,1.17249,-1.19823,-1521.24,9523.99,-377.854,-0.948518,2.59307,3.62902,1106.06,-9783.54,-1934.8,-0.539477,-0.538029,-3.13474,9011.17,-1219.37,3426.46,-2.50497,-0.17196,-1.37086
0.242,5050.68,-1342.2,8271.15,-0.990643,1.08909,0.645225,4860.23,-47.8602,8350.75,-2.39516,-0.471609,-0.656635,18.1068,9745.46,-1412.51,0.841164,1.56344,1.74673,455.965,-9847.18,-1467.48,-0.574818,1.12092,-1.21431,-1514.21,9529.4,-397.348,-0.803579,2.59154,3.56508,1086.42,-9763.95,-1921.28,-0.651814,-0.438935,-3.11439,9015.36,-1211.82,3455.15,-2.48684,0.0127411,-1.51659
0.243,5036.94,-1333.88,8273.51,-1.05063,1.15959,0.739357,4861.78,-49.874,8339.95,-2.38306,-0.380855,-0.687564,10.4418,9725.45,-1433.23,0.873135,1.52296,1.83589,434.95,-9852.79,-1453.4,-0.560537,1.06935,-1.23038,-1507.18,9534.82,-416.841,-0.65864,2.59002,3.50115,1066.78,-9744.36,-1907.76,-0.764151,-0.339841,-3.09404,9019.55,-1204.28,3483.85,-2.4687,0.197442,-1.66232
0.244,5023.2,-1325.55,8275.88,-1.11061,1.2301,0.833489,4863.33,-51.8878,8329.16,-2.37097,-0.290101,-0.718494,2.77668,9705.44,-1453.95,0.905105,1.48247,1.92505,413.935,-9858.4,-1439.33,-0.546255,1.01778,-1.24646,-1500.15,9540.23,-436.334,-0.513701,2.58849,3.43721,1047.14,-9724.77,-1894.25,-0.876488,-0.240747,-3.07369,9023.74,-1196.74,3512.54,-2.45057,0.382143,-1.80805
0.245,5010.45,-1323.28,8269.31,-1.15003,1.22795,0.859913,4879.25,-52.7885,8334.27,-2.34779,-0.213203,-0.680362,-10.6032,9699.35,-1447.64,0.950196,1.40509,1.99794,405.101,-9859.3,-1422.88,-0.474879,0.939595,-1.25708,-1501.17,9548.33,-444.215,-0.427402,2.568,3.40661,1022.87,-9717.62,-1899.29,-0.997397,-0.135731,-3.06236,9028.61,-1193.25,3512.83,-2.4423,0.467223,-1.8227
0.246,4998.5,-1325.86,8255.61,-1.173,1.16768,0.832168,4906.66,-52.7986,8352.12,-2.31574,-0.14739,-0.58698,-28.5549,9704.38,-1419.7,1.00578,1.29819,2.0578,406.01,-9856.42,-1404.53,-0.357826,0.840112,-1.26334,-1508.64,9558.58,-442.804,-0.388017,2.53234,3.40266,994.895,-9720.4,-1919.18,-1.12516,-0.0259774,-3.05823,9034.03,-1193.01,3490.38,-2.44191,0.472607,-1.73248
0.247,4986.54,-1328.45,8241.9,-1.19596,1.10741,0.804424,4934.08,-52.8087,8369.96,-2.28369,-0.0815766,-0.493599,-46.5066,9709.41,-1391.77,1.06137,1.19129,2.11766,406.919,-9853.55,-1386.18,-0.240773,0.740628,-1.2696,-1516.1,9568.83,-441.394,-0.348631,2.49668,3.39872,966.92,-9723.19,-1939.07,-1.25293,0.083776,-3.05411,9039.44,-1192.77,3467.93,-2.44153,0.477991,-1.64226
0.248,4974.58,-1331.03,8228.19,-1.21892,1.04714,0.776679,4961.5,-52.8189,8387.8,-2.25164,-0.0157636,-0.400218,-64.4583,9714.45,-1363.83,1.11696,1.08439,2.17752,407.828,-9850.68,-1367.83,-0.12372,0.641145,-1.27586,-1523.57,9579.08,-439.984,-0.309245,2.46101,3.39478,938.946,-9725.98,-1958.97,-1.38069,0.193529,-3.04999,9044.86,-1192.53,3445.48,-2.44114,0.483374,-1.55205
0.249,4964.17,-1335.35,8217.42,-1.23375,0.986177,0.748935,4983.73,-53.4293,8404.26,-2.22074,0.0491088,-0.316305,-79.0256,9717.24,-1338.63,1.16772,0.976338,2.22899,405.104,-9848.68,-1352.42,-0.0284869,0.545686,-1.26653,-1530.31,9587.84,-438.307,-0.271038,2.42617,3.39103,912.041,-9731.37,-1976.78,-1.50108,0.301991,-3.05096,9050.87,-1191.6,3427.03,-2.44535,0.482098,-1.46409
0.25,4966.08,-1353.55,8230.11,-1.18352,0.919667,0.721191,4964.42,-58.8422,8409.58,-2.19899,0.106456,-0.308139,-66.5175,9702.07,-1335.29,1.17987,0.859086,2.21335,373.307,-9853.71,-1360.51,-0.107807,0.482423,-1.1325,-1531.29,9584.71,-434.504,-0.242264,2.39792,3.38882,893.688,-9757.6,-1977.97,-1.56246,0.400117,-3.09263,9061.67,-1185.18,3440.53,-2.48627,0.427538,-1.39423
0.251,4968.0,-1371.76,8242.81,-1.13329,0.853157,0.693446,4945.12,-64.255,8414.9,-2.17724,0.163804,-0.299973,-54.0093,9686.91,-1331.95,1.19203,0.741834,2.19771,341.51,-9858.73,-1368.61,-0.187126,0.41916,-0.998469,-1532.27,9581.59,-430.7,-0.21349,2.36968,3.3866,875.334,-9783.83,-1979.15,-1.62384,0.498242,-3.13431,9072.46,-1178.75,3454.04,-2.52719,0.372978,-1.32437
0.252,4969.91,-1389.97,8255.5,-1.08306,0.786648,0.665702,4925.81,-69.6679,8420.22,-2.15549,0.221151,-0.291807,-41.5012,9671.74,-1328.61,1.20419,0.624582,2.18208,309.714,-9863.75,-1376.7,-0.266446,0.355897,-0.86444,-1533.26,9578.46,-426.897,-0.184716,2.34143,3.38439,856.98,-9810.06,-1980.34,-1.68522,0.596368,-3.17598,9083.26,-1172.33,3467.54,-2.56811,0.318418,-1.25451
0.253,4971.82,-1408.18,8268.19,-1.03283,0.720138,0.637957,4906.51,-75.0807,8425.55,-2.13374,0.278499,-0.283641,-28.9931,9656.57,-1325.28,1.21635,0.50733,2.16644,277.917,-9868.78,-1384.8,-0.345766,0.292635,-0.730411,-1534.24,9575.33,-423.093,-0.155941,2.31318,3.38218,838.626,-9836.29,-1981.53,-1.7466,0.694494,-3.21765,9094.05,-1165.91,3481.05,-2.60903,0.263857,-1.18465
0.254,4976.77,-1410.85,8255.4,-1.0134,0.723304,0.603646,4887.04,-64.791,8420.11,-2.1508,0.317043,-0.279925,-25.8556,9664.36,-1326.37,1.2204,0.423529,2.23825,278.905,-9880.06,-1388.39,-0.322322,0.201,-0.757438,-1525.79,9571.05,-427.321,-0.0643718,2.27717,3.31793,831.405,-9835.5,-1990.57,-1.77051,0.776682,-3.27757,9097.65,-1165.87,3484.16,-2.60408,0.282199,-1.11511
0.255,4983.23,-1405.75,8229.88,-1.00938,0.761307,0.566051,4867.5,-46.65,8409.3,-2.18726,0.346186,-0.278435,-27.4034,9683.63,-1329.68,1.2204,0.356453,2.35377,296.285,-9894.47,-1389.72,-0.247497,0.0951794,-0.864993,-1512.62,9566.19,-435.564,0.0585951,2.23728,3.22267,829.75,-9821.18,-2003.55,-1.77568,0.850902,-3.34662,9097.64,-1169.02,3482.07,-2.57619,0.336991,-1.04573
0.256,4989.69,-1400.66,8204.35,-1.00536,0.79931,0.528457,4847.95,-28.509,8398.5,-2.22372,0.37533,-0.276945,-28.9512,9702.89,-1332.99,1.2204,0.289378,2.46929,313.665,-9908.88,-1391.05,-0.172672,-0.0106412,-0.972549,-1499.46,9561.33,-443.807,0.181562,2.1974,3.12741,828.096,-9806.87,-2016.53,-1.78085,0.925122,-3.41567,9097.64,-1172.17,3479.98,-2.5483,0.391784,-0.976341
0.257,4996.15,-1395.56,8178.82,-1.00134,0.837314,0.490862,4828.4,-10.368,8387.69,-2.26019,0.404473,-0.275454,-30.499,9722.15,-1336.29,1.2204,0.222302,2.58482,331.045,-9923.29,-1392.39,-0.0978466,-0.116462,-1.0801,-1486.29,9556.48,-452.05,0.304529,2.15751,3.03216,826.441,-9792.55,-2029.51,-1.78602,0.999342,-3.48472,9097.63,-1175.32,3477.89,-2.52041,0.446576,-0.906956
0.258,5004.09,-1391.86,8159.8,-1.00129,0.861594,0.474067,4816.29,0.528134,8380.43,-2.29797,0.418097,-0.2703,-34.3751,9730.85,-1343.84,1.22537,0.172701,2.69372,343.499,-9926.82,-1398.31,-0.0348388,-0.226484,-1.16942,-1477.15,9551.6,-456.217,0.409455,2.11412,2.94257,820.373,-9781.28,-2036.59,-1.78696,1.06631,-3.51774,9093.65,-1175.72,3474.84,-2.46249,0.501208,-0.837799
0.259,5017.19,-1393.03,8163.57,-1.01516,0.837844,0.530071,4830.23,-13.9326,8385.6,-2.34036,0.377402,-0.25232,-46.3997,9702.54,-1366.22,1.24776,0.184264,2.77943,338.709,-9892.27,-1420.28,-0.0131921,-0.35121,-1.19489,-1482.06,9546.67,-446.122,0.451237,2.0585,2.87285,798.859,-9780.65,-2023.02,-1.77306,1.10791,-3.42463,9075.79,-1166.54,3468.45,-2.29947,0.555277,-0.769442
0.26,5030.29,-1394.2,8167.33,-1.02904,0.814094,0.586076,4844.17,-28.3933,8390.76,-2.38276,0.336707,-0.234341,-58.4244,9674.23,-1388.6,1.27014,0.195826,2.86514,333.919,-9857.73,-1442.25,0.00845464,-0.475936,-1.22036,-1486.97,9541.73,-436.026,0.49302,2.00287,2.80313,777.345,-9780.02,-2009.45,-1.75917,1.1495,-3.33153,9057.92,-1157.35,3462.06,-2.13644,0.609345,-0.701085
0.261,5043.4,-1395.37,8171.1,-1.04291,0.790344,0.64208,4858.1,-42.854,8395.93,-2.42516,0.296012,-0.216362,-70.4491,9645.93,-1410.98,1.29252,0.207388,2.95086,329.128,-9823.17,-1464.22,0.0301013,-0.600663,-1.24583,-1491.89,9536.8,-425.93,0.534802,1.94725,2.73341,755.831,-9779.39,-1995.89,-1.74528,1.19109,-3.23842,9040.05,-1148.16,3455.67,-1.97341,0.663414,-0.632728
0.262,5056.5,-1396.54,8174.86,-1.05678,0.766593,0.698085,4872.04,-57.3147,8401.1,-2.46755,0.255317,-0.198382,-82.4737,9617.62,-1433.36,1.31491,0.21895,3.03657,324.338,-9788.63,-1486.19,0.0517481,-0.725389,-1.2713,-1496.8,9531.87,-415.834,0.576584,1.89162,2.66368,734.317,-9778.76,-1982.32,-1.73139,1.23269,-3.14532,9022.18,-1138.97,3449.29,-1.81038,0.717483,-0.564371
0.263,5065.84,-1406.41,8189.0,-1.03823,0.78421,0.771003,4879.23,-74.0606,8414.74,-2.48132,0.26307,-0.177391,-87.698,9613.61,-1438.74,1.35917,0.225468,3.145,337.916,-9800.16,-1452.75,0.0270147,-0.780349,-1.24741,-1504.28,9523.52,-431.091,0.590127,1.85773,2.63092,739.312,-9772.88,-1964.87,-1.63667,1.17535,-3.13115,9037.13,-1160.72,3449.95,-1.82702,0.701788,-0.545609
0.264,5074.11,-1418.76,8206.11,-1.01042,0.813646,0.848753,4884.5,-91.4594,8430.82,-2.48691,0.284666,-0.15554,-90.9794,9616.54,-1439.26,1.40968,0.230544,3.25992,356.742,-9824.86,-1403.5,-0.0109702,-0.815376,-1.20943,-1512.49,9514.2,-453.591,0.595602,1.83004,2.6087,751.882,-9765.51,-1946.3,-1.51884,1.08976,-3.13953,9061.46,-1191.3,3452.64,-1.89499,0.666161,-0.541019
0.265,5082.38,-1431.11,8223.21,-0.982607,0.843082,0.926504,4889.76,-108.858,8446.89,-2.4925,0.306262,-0.133689,-94.2607,9619.46,-1439.78,1.46019,0.23562,3.37484,375.567,-9849.56,-1354.24,-0.048955,-0.850403,-1.17145,-1520.7,9504.88,-476.091,0.601076,1.80236,2.58649,764.451,-9758.13,-1927.72,-1.40102,1.00416,-3.14791,9085.78,-1221.88,3455.32,-1.96296,0.630533,-0.536428
0.266,5090.65,-1443.46,8240.31,-0.954795,0.872518,1.00425,4895.03,-126.257,8462.96,-2.49809,0.327858,-0.111837,-97.542,9622.39,-1440.31,1.5107,0.240696,3.48975,394.393,-9874.26,-1304.98,-0.0869399,-0.885431,-1.13346,-1528.91,9495.55,-498.591,0.60655,1.77467,2.56428,777.021,-9750.76,-1909.15,-1.2832,0.918563,-3.1563,9110.11,-1252.46,3458.01,-2.03093,0.594905,-0.531837
0.267,5089.77,-1445.58,8247.29,-0.928867,0.885733,1.03312,4895.69,-137.95,8476.18,-2.47669,0.330859,-0.0983515,-90.4455,9625.69,-1429.49,1.55906,0.228712,3.6119,414.596,-9885.34,-1280.55,-0.117419,-0.900426,-1.04107,-1536.72,9488.8,-522.098,0.598891,1.74133,2.52894,788.231,-9747.21,-1891.38,-1.17472,0.824805,-3.15906,9125.13,-1270.57,3453.49,-2.07837,0.632408,-0.472648
0.268,5070.62,-1427.25,8234.02,-0.906707,0.866508,0.964225,4887.14,-138.231,8483.71,-2.40129,0.296671,-0.101597,-62.5935,9629.73,-1396.0,1.60312,0.182609,3.74849,437.552,-9869.2,-1305.78,-0.132885,-0.875359,-0.839868,-1543.73,9487.19,-547.615,0.564963,1.69668,2.46732,796.719,-9751.3,-1875.2,-1.0849,0.714725,-3.15059,9121.55,-1263.74,3434.55,-2.08474,0.816172,-0.304263
0.269,5051.46,-1408.91,8220.74,-0.884548,0.847282,0.895327,4878.6,-138.513,8491.24,-2.3259,0.262482,-0.104843,-34.7414,9633.77,-1362.51,1.64718,0.136506,3.88509,460.508,-9853.05,-1331.01,-0.148352,-0.850292,-0.638666,-1550.74,9485.57,-573.133,0.531035,1.65203,2.40571,805.208,-9755.39,-1859.02,-0.995089,0.604645,-3.14212,9117.97,-1256.9,3415.62,-2.09111,0.999937,-0.135878
0.27,5032.3,-1390.58,8207.47,-0.862388,0.828057,0.826429,4870.05,-138.794,8498.76,-2.25051,0.228293,-0.108089,-6.88933,9637.82,-1329.02,1.69124,0.0904035,4.02168,483.464,-9836.91,-1356.24,-0.163818,-0.825225,-0.437463,-1557.75,9483.96,-598.651,0.497107,1.60738,2.34409,813.696,-9759.48,-1842.84,-0.905275,0.494565,-3.13365,9114.39,-1250.06,3396.69,-2.09747,1.1837,0.0325076
0.271,5013.15,-1372.25,8194.19,-0.840229,0.808832,0.757531,4861.5,-139.076,8506.29,-2.17511,0.194104,-0.111335,20.9627,9641.86,-1295.53,1.7353,0.0443005,4.15828,506.42,-9820.76,-1381.48,-0.179285,-0.800158,-0.236261,-1564.75,9482.35,-624.169,0.463179,1.56273,2.28248,822.184,-9763.57,-1826.66,-0.815461,0.384485,-3.12518,9110.81,-1243.23,3377.75,-2.10384,1.36747,0.200893
0.272,5005.76,-1354.93,8189.5,-0.870344,0.816231,0.812235,4846.22,-134.455,8483.79,-2.19944,0.220214,-0.0806551,34.5321,9653.22,-1305.03,1.69411,-0.0518069,4.06832,503.982,-9843.92,-1404.98,-0.205481,-0.724351,-0.291969,-1563.66,9485.9,-619.141,0.41783,1.45507,2.33169,822.947,-9758.9,-1839.75,-0.756092,0.355304,-3.15302,9101.26,-1254.24,3374.77,-1.93992,1.31076,0.0988967
0.273,4999.85,-1337.74,8185.89,-0.906994,0.826958,0.88239,4830.09,-129.221,8457.54,-2.23623,0.253862,-0.0457346,46.3161,9665.49,-1319.91,1.64225,-0.154165,3.95004,498.371,-9871.98,-1428.27,-0.233019,-0.642201,-0.379791,-1561.56,9490.09,-610.294,0.371054,1.33953,2.39476,822.744,-9753.14,-1856.49,-0.700529,0.336236,-3.1854,9090.96,-1267.48,3373.78,-1.75472,1.22399,-0.0368969
0.274,4993.93,-1320.54,8182.28,-0.943643,0.837686,0.952545,4813.96,-123.987,8431.29,-2.27302,0.287509,-0.0108142,58.1,9677.77,-1334.79,1.5904,-0.256523,3.83177,492.76,-9900.05,-1451.56,-0.260556,-0.560051,-0.467612,-1559.46,9494.29,-601.447,0.324278,1.22399,2.45782,822.541,-9747.37,-1873.23,-0.644965,0.317168,-3.21777,9080.66,-1280.72,3372.8,-1.56951,1.13722,-0.172691
0.275,4988.01,-1303.35,8178.66,-0.980293,0.848413,1.0227,4797.84,-118.753,8405.05,-2.30981,0.321157,0.0241063,69.884,9690.04,-1349.67,1.53855,-0.358881,3.71349,487.148,-9928.11,-1474.85,-0.288094,-0.477901,-0.555434,-1557.36,9498.49,-592.601,0.277501,1.10845,2.52088,822.338,-9741.61,-1889.97,-0.589402,0.2981,-3.25015,9070.35,-1293.96,3371.81,-1.38431,1.05045,-0.308484
0.276,4988.46,-1295.61,8178.35,-0.978498,0.862645,1.032,4794.07,-119.246,8391.58,-2.31522,0.349296,0.0804362,68.2415,9699.85,-1367.84,1.52103,-0.422988,3.68436,492.043,-9930.98,-1477.92,-0.352414,-0.425335,-0.604891,-1559.62,9507.48,-574.135,0.275634,1.03077,2.5578,824.788,-9740.08,-1901.54,-0.55591,0.337825,-3.31225,9073.67,-1299.12,3371.88,-1.28142,1.04998,-0.29707
0.277,4996.87,-1299.67,8182.17,-0.928648,0.881258,0.965234,4805.75,-126.898,8394.08,-2.2814,0.370549,0.163528,49.8158,9706.58,-1390.13,1.54642,-0.439281,3.76666,510.071,-9902.36,-1455.71,-0.462713,-0.409746,-0.606393,-1567.33,9522.48,-543.648,0.329903,1.00042,2.56202,830.554,-9743.83,-1906.65,-0.550009,0.451039,-3.4115,9094.01,-1294.17,3373.29,-1.28142,1.15736,-0.101647
0.278,5005.28,-1303.73,8186.0,-0.878798,0.899871,0.898468,4817.43,-134.55,8396.58,-2.24758,0.391802,0.246619,31.3901,9713.31,-1412.42,1.57182,-0.455574,3.84896,528.099,-9873.74,-1433.49,-0.573011,-0.394158,-0.607894,-1575.04,9537.48,-513.16,0.384171,0.970075,2.56624,836.321,-9747.59,-1911.76,-0.544107,0.564254,-3.51075,9114.34,-1289.23,3374.69,-1.28142,1.26475,0.0937765
0.279,5013.69,-1307.79,8189.82,-0.828948,0.918484,0.831701,4829.12,-142.202,8399.09,-2.21376,0.413056,0.329711,12.9644,9720.04,-1434.71,1.59722,-0.471867,3.93126,546.128,-9845.12,-1411.29,-0.68331,-0.378569,-0.609396,-1582.75,9552.48,-482.672,0.43844,0.939727,2.57046,842.088,-9751.34,-1916.87,-0.538206,0.677469,-3.61,9134.68,-1284.28,3376.09,-1.28142,1.37214,0.2892
0.28,5022.09,-1311.85,8193.64,-0.779098,0.937097,0.764935,4840.8,-149.854,8401.59,-2.17994,0.434309,0.412802,-5.46124,9726.78,-1457.0,1.62261,-0.48816,4.01356,564.156,-9816.5,-1389.07,-0.793609,-0.362981,-0.610898,-1590.46,9567.48,-452.184,0.492708,0.909378,2.57468,847.854,-9755.1,-1921.98,-0.532304,0.790684,-3.70925,9155.01,-1279.34,3377.49,-1.28142,1.47952,0.484623
0.281,5031.43,-1329.35,8201.25,-0.795295,0.916296,0.745297,4859.18,-153.65,8405.29,-2.12879,0.436435,0.364877,-23.6429,9700.14,-1456.16,1.68836,-0.644513,4.09052,529.658,-9826.75,-1406.41,-0.805868,-0.23873,-0.634373,-1590.54,9567.35,-446.404,0.391717,0.871506,2.4828,830.93,-9754.91,-1918.12,-0.606758,0.812265,-3.67907,9121.07,-1281.2,3383.8,-1.28991,1.3161,0.46037
0.282,5040.78,-1346.86,8208.87,-0.811492,0.895496,0.725659,4877.55,-157.447,8408.98,-2.07765,0.438562,0.316953,-41.8245,9673.5,-1455.32,1.7541,-0.800866,4.16748,495.16,-9837.0,-1423.74,-0.818128,-0.11448,-0.657849,-1590.61,9567.22,-440.624,0.290725,0.833634,2.39092,814.005,-9754.72,-1914.25,-0.681211,0.833845,-3.64888,9087.12,-1283.06,3390.11,-1.2984,1.15268,0.436117
0.283,5050.12,-1364.36,8216.48,-0.827689,0.874695,0.706021,4895.93,-161.244,8412.68,-2.02651,0.440688,0.269028,-60.0061,9646.87,-1454.48,1.81985,-0.957219,4.24444,460.662,-9847.25,-1441.07,-0.830388,0.00977101,-0.681324,-1590.68,9567.09,-434.844,0.189733,0.795762,2.29904,797.081,-9754.53,-1910.38,-0.755665,0.855426,-3.61869,9053.17,-1284.92,3396.42,-1.30689,0.989256,0.411863
0.284,5059.46,-1381.86,8224.1,-0.843886,0.853895,0.686383,4914.3,-165.04,8416.38,-1.97537,0.442814,0.221104,-78.1877,9620.23,-1453.64,1.88559,-1.11357,4.32141,426.164,-9857.49,-1458.4,-0.842647,0.134022,-0.7048,-1590.76,9566.96,-429.064,0.0887411,0.757891,2.20716,780.157,-9754.34,-1906.52,-0.830119,0.877006,-3.58851,9019.22,-1286.78,3402.74,-1.31538,0.825834,0.38761
0.285,5056.37,-1385.49,8218.55,-0.885286,0.846899,0.699733,4918.3,-160.621,8420.26,-1.93788,0.449309,0.194503,-73.1021,9610.49,-1456.15,1.91954,-1.19536,4.38744,406.622,-9852.67,-1468.97,-0.820416,0.219667,-0.634486,-1578.73,9556.76,-438.198,-0.0295495,0.684987,2.09264,751.395,-9745.58,-1913.27,-0.940019,0.871163,-3.53449,9021.22,-1280.02,3407.31,-1.37884,0.793568,0.290377
0.286,5043.32,-1378.02,8202.48,-0.946847,0.850947,0.739474,4910.8,-149.63,8424.29,-1.91132,0.4593,0.184961,-49.4028,9614.27,-1461.36,1.92805,-1.21749,4.44473,399.045,-9835.79,-1474.14,-0.770593,0.274428,-0.489139,-1557.04,9538.5,-459.263,-0.161679,0.584058,1.95999,713.162,-9729.95,-1928.51,-1.07828,0.843381,-3.4614,9051.97,-1266.36,3410.49,-1.48628,0.866226,0.134761
0.287,5030.28,-1370.55,8186.41,-1.00841,0.854995,0.779214,4903.3,-138.638,8428.31,-1.88476,0.46929,0.175419,-25.7034,9618.05,-1466.57,1.93656,-1.23962,4.50201,391.468,-9818.9,-1479.32,-0.72077,0.329189,-0.343793,-1535.34,9520.24,-480.328,-0.293809,0.483128,1.82735,674.929,-9714.33,-1943.74,-1.21653,0.8156,-3.38831,9082.72,-1252.7,3413.67,-1.59372,0.938883,-0.020855
0.288,5017.25,-1363.07,8170.34,-1.06997,0.859043,0.818955,4895.81,-127.646,8432.34,-1.8582,0.47928,0.165877,-2.00403,9621.83,-1471.78,1.94507,-1.26175,4.5593,383.891,-9802.02,-1484.49,-0.670947,0.38395,-0.198447,-1513.64,9501.98,-501.393,-0.425938,0.382199,1.69471,636.697,-9698.7,-1958.98,-1.35479,0.787818,-3.31522,9113.48,-1239.05,3416.85,-1.70116,1.01154,-0.176471
0.289,5006.3,-1357.06,8155.89,-1.12488,0.859559,0.854954,4889.28,-118.105,8435.49,-1.82998,0.489157,0.146602,18.2379,9625.84,-1474.33,1.96088,-1.29103,4.61503,378.99,-9789.45,-1483.8,-0.635401,0.435935,-0.0736207,-1495.71,9487.04,-520.489,-0.532506,0.275152,1.57094,601.168,-9688.44,-1970.96,-1.47499,0.769295,-3.25179,9135.76,-1229.43,3419.93,-1.78711,1.08819,-0.318018
0.29,5012.14,-1362.7,8154.4,-1.12662,0.831814,0.861021,4890.52,-120.172,8431.63,-1.78843,0.49813,0.0494627,10.8203,9631.66,-1455.65,2.03505,-1.37756,4.65825,395.509,-9811.35,-1436.24,-0.714075,0.465706,-0.112957,-1507.95,9498.69,-523.837,-0.43458,0.119162,1.51821,587.265,-9721.14,-1956.79,-1.4507,0.824846,-3.26567,9090.33,-1252.15,3422.21,-1.70111,1.19673,-0.34701
0.291,5017.98,-1368.34,8152.9,-1.12836,0.80407,0.867088,4891.76,-122.239,8427.77,-1.74689,0.507102,-0.0476766,3.4027,9637.47,-1436.97,2.10922,-1.46409,4.70148,412.027,-9833.25,-1388.69,-0.792748,0.495477,-0.152294,-1520.18,9510.34,-527.184,-0.336653,-0.0368271,1.46548,573.362,-9753.83,-1942.63,-1.42642,0.880397,-3.27955,9044.9,-1274.86,3424.48,-1.61512,1.30526,-0.376003
0.292,5023.83,-1373.99,8151.41,-1.1301,0.776326,0.873154,4893.0,-124.306,8423.91,-1.70534,0.516075,-0.144816,-4.0149,9643.28,-1418.3,2.18339,-1.55062,4.74471,428.545,-9855.15,-1341.13,-0.871422,0.525248,-0.191631,-1532.41,9521.99,-530.532,-0.238727,-0.192817,1.41275,559.46,-9786.52,-1928.46,-1.40214,0.935947,-3.29342,8999.47,-1297.58,3426.76,-1.52913,1.4138,-0.404995
0.293,5029.67,-1379.63,8149.91,-1.13184,0.748581,0.879221,4894.24,-126.373,8420.05,-1.66379,0.525047,-0.241955,-11.4325,9649.1,-1399.62,2.25756,-1.63715,4.78793,445.063,-9877.05,-1293.58,-0.950096,0.555019,-0.230968,-1544.65,9533.64,-533.879,-0.140801,-0.348806,1.36002,545.557,-9819.22,-1914.29,-1.37786,0.991498,-3.3073,8954.04,-1320.3,3429.03,-1.44313,1.52234,-0.433988
0.294,5039.38,-1381.83,8155.38,-1.15215,0.749814,0.857374,4896.44,-132.879,8413.88,-1.61013,0.549393,-0.30344,-10.7597,9659.26,-1397.86,2.2961,-1.67238,4.74661,442.01,-9897.78,-1267.02,-0.972467,0.598419,-0.245621,-1563.5,9545.57,-525.366,-0.0766926,-0.520775,1.35466,553.511,-9830.34,-1918.14,-1.37062,1.00916,-3.35381,8972.01,-1295.19,3432.04,-1.43482,1.61496,-0.465862
0.295,5051.02,-1382.31,8164.33,-1.18174,0.765536,0.821571,4899.12,-141.606,8406.55,-1.5504,0.581425,-0.347096,-6.04176,9671.59,-1404.56,2.31684,-1.68196,4.66301,429.17,-9917.93,-1250.97,-0.966687,0.648635,-0.247933,-1585.68,9557.64,-510.924,-0.0294937,-0.700733,1.37298,572.393,-9830.68,-1930.99,-1.3719,1.00788,-3.41664,9021.68,-1246.18,3435.42,-1.46534,1.6996,-0.499178
0.296,5062.66,-1382.78,8173.27,-1.21133,0.781258,0.785767,4901.8,-150.334,8399.21,-1.49067,0.613456,-0.390753,-1.3238,9683.93,-1411.26,2.33758,-1.69153,4.57942,416.331,-9938.08,-1234.91,-0.960907,0.69885,-0.250245,-1607.85,9569.72,-496.481,0.0177051,-0.880692,1.39131,591.275,-9831.01,-1943.85,-1.37317,1.00661,-3.47947,9071.34,-1197.17,3438.79,-1.49587,1.78425,-0.532493
0.297,5074.3,-1383.26,8182.22,-1.24093,0.79698,0.749963,4904.48,-159.061,8391.88,-1.43094,0.645488,-0.43441,3.39416,9696.26,-1417.96,2.35831,-1.70111,4.49582,403.491,-9958.22,-1218.86,-0.955127,0.749066,-0.252557,-1630.02,9581.79,-482.039,0.064904,-1.06065,1.40963,610.157,-9831.35,-1956.7,-1.37445,1.00533,-3.5423,9121.01,-1148.15,3442.17,-1.5264,1.8689,-0.565809
0.298,5079.9,-1384.0,8191.84,-1.27115,0.816153,0.717476,4907.68,-161.596,8387.62,-1.3957,0.673494,-0.45607,7.85352,9704.78,-1425.13,2.38035,-1.71985,4.45151,395.779,-9976.28,-1211.27,-0.937927,0.784061,-0.260577,-1642.31,9592.71,-470.017,0.085155,-1.2303,1.42592,628.222,-9830.1,-1969.27,-1.36253,1.01009,-3.58751,9155.04,-1113.83,3445.39,-1.56043,1.95428,-0.585196
0.299,5064.33,-1385.66,8203.78,-1.30357,0.8474,0.696597,4912.74,-142.46,8394.11,-1.4462,0.687407,-0.400741,11.4078,9699.93,-1433.95,2.40694,-1.77063,4.54466,406.014,-9987.02,-1233.29,-0.880762,0.765786,-0.288575,-1620.02,9599.61,-466.467,0.0110886,-1.36388,1.43505,643.428,-9823.26,-1980.86,-1.30439,1.03601,-3.57105,9134.34,-1130.9,3448.06,-1.60674,2.04222,-0.555832
0.3,5048.77,-1387.31,8215.73,-1.33598,0.878648,0.675718,4917.79,-123.324,8400.61,-1.4967,0.701321,-0.345411,14.962,9695.09,-1442.77,2.43354,-1.82141,4.63782,416.248,-9997.76,-1255.31,-0.823596,0.747511,-0.316573,-1597.74,9606.51,-462.917,-0.0629778,-1.49746,1.44418,658.633,-9816.43,-1992.44,-1.24626,1.06192,-3.55459,9113.64,-1147.98,3450.73,-1.65304,2.13016,-0.526469
0.301,5033.2,-1388.97,8227.67,-1.3684,0.909896,0.654839,4922.85,-104.187,8407.1,-1.54719,0.715235,-0.290082,18.5163,9690.24,-1451.59,2.46013,-1.87219,4.73098,426.482,-10008.5,-1277.34,-0.76643,0.729236,-0.344571,-1575.45,9613.41,-459.366,-0.137044,-1.63104,1.45332,673.839,-9809.6,-2004.03,-1.18813,1.08784,-3.53813,9092.93,-1165.05,3453.4,-1.69935,2.2181,-0.497106
0.302,5017.63,-1390.62,8239.62,-1.40081,0.941144,0.633959,4927.9,-85.0513,8413.6,-1.59769,0.729148,-0.234753,22.0705,9685.39,-1460.41,2.48672,-1.92298,4.82414,436.716,-10019.2,-1299.36,-0.709264,0.710961,-0.372568,-1553.17,9620.31,-455.816,-0.211111,-1.76461,1.46245,689.045,-9802.76,-2015.62,-1.13,1.11375,-3.52167,9072.23,-1182.13,3456.07,-1.74566,2.30603,-0.467742
0.303,5022.28,-1395.22,8239.86,-1.44706,0.987814,0.642854,4932.37,-87.3302,8407.83,-1.62252,0.71047,-0.23391,19.9093,9699.64,-1447.96,2.45422,-1.96749,4.84127,419.2,-10017.7,-1299.02,-0.730885,0.656757,-0.41243,-1523.56,9612.56,-438.65,-0.244513,-1.88773,1.40606,678.464,-9786.54,-2004.17,-1.12008,1.01627,-3.44321,9066.42,-1184.51,3449.02,-1.75659,2.35337,-0.508646
0.304,5032.71,-1400.66,8236.76,-1.49725,1.03889,0.660256,4936.67,-95.7278,8398.55,-1.64001,0.682481,-0.248636,16.1152,9719.34,-1429.43,2.40484,-2.01021,4.83668,393.756,-10012.6,-1292.3,-0.775017,0.592287,-0.45568,-1491.86,9600.61,-417.594,-0.266297,-2.00787,1.33094,660.515,-9767.64,-1986.14,-1.12394,0.883531,-3.34703,9064.87,-1182.69,3439.18,-1.75741,2.3891,-0.569626
0.305,5043.13,-1406.1,8233.66,-1.54744,1.08997,0.677658,4940.97,-104.125,8389.27,-1.6575,0.654492,-0.263361,12.3211,9739.04,-1410.9,2.35545,-2.05294,4.83209,368.311,-10007.5,-1285.57,-0.819149,0.527818,-0.498931,-1460.16,9588.67,-396.537,-0.288082,-2.128,1.25582,642.566,-9748.74,-1968.11,-1.1278,0.750792,-3.25085,9063.32,-1180.88,3429.35,-1.75824,2.42483,-0.630606
0.306,5053.56,-1411.53,8230.55,-1.59764,1.14104,0.69506,4945.27,-112.523,8379.99,-1.67499,0.626502,-0.278086,8.52691,9758.74,-1392.37,2.30607,-2.09566,4.82749,342.867,-10002.4,-1278.85,-0.863282,0.463349,-0.542182,-1428.46,9576.73,-375.481,-0.309866,-2.24813,1.18071,624.617,-9729.84,-1950.07,-1.13166,0.618053,-3.15468,9061.77,-1179.06,3419.52,-1.75906,2.46056,-0.691587
0.307,5061.08,-1415.19,8229.57,-1.64415,1.17025,0.712702,4951.09,-114.687,8375.2,-1.65537,0.609742,-0.312667,3.52098,9762.79,-1383.33,2.31108,-2.10764,4.83283,339.067,-9988.59,-1273.04,-0.883942,0.386229,-0.613834,-1400.01,9567.75,-363.009,-0.33878,-2.35074,1.09055,610.297,-9714.24,-1941.27,-1.11768,0.539427,-3.03139,9064.22,-1179.32,3412.23,-1.82534,2.53268,-0.73224
0.308,5062.77,-1415.3,8232.84,-1.68331,1.15571,0.730824,4959.94,-104.385,8379.36,-1.56153,0.615441,-0.386959,-3.90853,9735.51,-1393.29,2.42489,-2.05812,4.85802,378.558,-9957.31,-1269.05,-0.857659,0.283809,-0.742287,-1378.07,9564.66,-367.707,-0.381955,-2.41831,0.970301,603.233,-9705.23,-1950.92,-1.06803,0.569025,-2.85389,9074.68,-1183.73,3410.06,-2.02252,2.67759,-0.73224
0.309,5064.46,-1415.4,8236.1,-1.72247,1.14117,0.748945,4968.78,-94.0835,8383.53,-1.46769,0.62114,-0.461252,-11.338,9708.25,-1403.24,2.53869,-2.0086,4.88322,418.049,-9926.03,-1265.05,-0.831375,0.181389,-0.870741,-1356.14,9561.58,-372.404,-0.42513,-2.48588,0.850054,596.17,-9696.23,-1960.57,-1.01838,0.598624,-2.67639,9085.14,-1188.13,3407.88,-2.2197,2.82249,-0.73224
0.31,5066.15,-1415.51,8239.37,-1.76163,1.12663,0.767067,4977.63,-83.7817,8387.7,-1.37385,0.626838,-0.535544,-18.7676,9680.97,-1413.2,2.65249,-1.95908,4.90841,457.54,-9894.75,-1261.06,-0.805092,0.0789688,-0.999195,-1334.2,9558.5,-377.102,-0.468305,-2.55345,0.729808,589.106,-9687.23,-1970.23,-0.968725,0.628222,-2.49889,9095.6,-1192.54,3405.7,-2.41689,2.9674,-0.73224
0.311,5067.84,-1415.61,8242.64,-1.80079,1.11209,0.785189,4986.48,-73.4798,8391.86,-1.28001,0.632537,-0.609836,-26.1971,9653.71,-1423.15,2.76629,-1.90956,4.9336,497.031,-9863.47,-1257.07,-0.778808,-0.0234512,-1.12765,-1312.26,9555.41,-381.799,-0.51148,-2.62102,0.609561,582.042,-9678.23,-1979.88,-0.919072,0.657821,-2.32139,9106.06,-1196.95,3403.52,-2.61407,3.11231,-0.73224
0.312,5058.52,-1416.1,8232.66,-1.80978,1.04688,0.818999,4967.38,-69.2437,8395.17,-1.22683,0.572741,-0.632415,-22.7614,9664.04,-1423.88,2.7728,-2.04234,4.96111,498.512,-9848.23,-1272.61,-0.814281,0.00051378,-1.11306,-1308.54,9552.52,-382.181,-0.441035,-2.6398,0.528196,585.583,-9701.35,-1990.38,-1.06132,0.595524,-2.30838,9113.44,-1178.76,3399.14,-2.72768,2.99791,-0.730484
0.313,5047.83,-1416.64,8221.03,-1.815,0.97534,0.85477,4944.8,-65.7658,8398.37,-1.17874,0.504759,-0.648531,-17.9676,9679.07,-1423.44,2.7659,-2.19791,4.9889,495.241,-9835.0,-1290.58,-0.857473,0.0402769,-1.0806,-1307.1,9549.65,-382.022,-0.356386,-2.65248,0.451692,590.448,-9728.49,-2000.98,-1.22756,0.521741,-2.31593,9120.45,-1157.75,3394.48,-2.83083,2.85111,-0.728507
0.314,5037.13,-1417.18,8209.39,-1.82022,0.903797,0.890541,4922.22,-62.2879,8401.57,-1.13065,0.436776,-0.664647,-13.1738,9694.1,-1423.01,2.759,-2.35347,5.01669,491.97,-9821.78,-1308.56,-0.900665,0.08004,-1.04813,-1305.66,9546.78,-381.864,-0.271738,-2.66516,0.375188,595.314,-9755.62,-2011.58,-1.3938,0.447957,-2.32348,9127.45,-1136.74,3389.82,-2.93399,2.7043,-0.726531
0.315,5026.44,-1417.72,8197.76,-1.82545,0.832255,0.926313,4899.63,-58.81,8404.77,-1.08255,0.368794,-0.680763,-8.38006,9709.14,-1422.58,2.7521,-2.50904,5.04449,488.699,-9808.55,-1326.53,-0.943857,0.119803,-1.01567,-1304.22,9543.91,-381.706,-0.18709,-2.67784,0.298683,600.18,-9782.76,-2022.19,-1.56004,0.374173,-2.33103,9134.45,-1115.73,3385.16,-3.03715,2.55749,-0.724555
0.316,5019.77,-1413.41,8192.97,-1.85303,0.838686,0.94002,4888.76,-61.948,8415.38,-1.10135,0.320534,-0.653423,12.0878,9721.98,-1426.98,2.74209,-2.58049,5.07822,470.585,-9803.45,-1340.42,-0.933199,0.148775,-0.980533,-1295.11,9545.19,-379.648,-0.119955,-2.71515,0.266167,614.525,-9787.93,-2024.01,-1.6854,0.374872,-2.32956,9140.09,-1105.49,3377.79,-3.09061,2.50721,-0.716346
0.317,5018.15,-1403.04,8196.72,-1.90857,0.942583,0.926148,4892.54,-73.356,8435.25,-1.20374,0.296929,-0.571765,52.1483,9732.09,-1437.43,2.72819,-2.54678,5.11938,433.918,-9808.53,-1349.2,-0.855231,0.164258,-0.942058,-1276.44,9551.65,-375.216,-0.074711,-2.78326,0.288634,640.721,-9765.63,-2014.87,-1.75965,0.468672,-2.31682,9144.02,-1108.72,3367.02,-3.08197,2.57758,-0.700345
0.318,5016.53,-1392.67,8200.47,-1.96412,1.04648,0.912276,4896.31,-84.764,8455.13,-1.30614,0.273324,-0.490107,92.2088,9742.19,-1447.87,2.7143,-2.51308,5.16053,397.251,-9813.61,-1357.98,-0.777262,0.179741,-0.903583,-1257.76,9558.12,-370.784,-0.0294673,-2.85137,0.311101,666.916,-9743.33,-2005.72,-1.8339,0.562473,-2.30407,9147.96,-1111.95,3356.25,-3.07333,2.64795,-0.684345
0.319,5014.92,-1382.31,8204.22,-2.01966,1.15038,0.898403,4900.08,-96.172,8475.0,-1.40853,0.249719,-0.408449,132.269,9752.3,-1458.32,2.7004,-2.47937,5.20169,360.584,-9818.68,-1366.76,-0.699293,0.195225,-0.865107,-1239.08,9564.58,-366.352,0.0157763,-2.91948,0.333568,693.111,-9721.04,-1996.57,-1.90815,0.656274,-2.29133,9151.89,-1115.19,3345.48,-3.06469,2.71833,-0.668344
0.32,5013.3,-1371.94,8207.97,-2.0752,1.25427,0.884531,4903.86,-107.58,8494.87,-1.51093,0.226114,-0.326792,172.33,9762.41,-1468.77,2.6865,-2.44567,5.24285,323.917,-9823.76,-1375.54,-0.621324,0.210708,-0.826632,-1220.4,9571.04,-361.92,0.06102,-2.98759,0.356036,719.306,-9698.74,-1987.42,-1.9824,0.750075,-2.27858,9155.82,-1118.42,3334.71,-3.05605,2.7887,-0.652343
0.321,5024.55,-1372.43,8205.1,-2.06055,1.30743,0.870659,4902.51,-120.621,8489.58,-1.50637,0.298799,-0.441544,135.193,9727.63,-1455.25,2.55082,-2.55283,5.24395,336.968,-9865.07,-1367.98,-0.654729,0.168711,-0.851995,-1209.61,9584.53,-358.203,-0.0472567,-2.90731,0.401564,706.336,-9710.98,-1992.46,-2.07026,0.854345,-2.22771,9161.49,-1146.75,3365.52,-3.12139,2.90955,-0.638216
0.322,5035.8,-1372.93,8202.24,-2.0459,1.36059,0.856787,4901.16,-133.662,8484.3,-1.5018,0.371484,-0.556296,98.0557,9692.84,-1441.73,2.41515,-2.65998,5.24504,350.019,-9906.38,-1360.43,-0.688134,0.126714,-0.877358,-1198.82,9598.03,-354.485,-0.155533,-2.82703,0.447093,693.367,-9723.21,-1997.5,-2.15811,0.958615,-2.17683,9167.15,-1175.08,3396.32,-3.18673,3.0304,-0.624089
0.323,5047.05,-1373.42,8199.37,-2.03125,1.41374,0.842915,4899.81,-146.702,8479.01,-1.49724,0.44417,-0.671049,60.9186,9658.06,-1428.21,2.27947,-2.76714,5.24614,363.07,-9947.68,-1352.87,-0.721539,0.0847177,-0.902721,-1188.02,9611.52,-350.768,-0.26381,-2.74675,0.492621,680.397,-9735.44,-2002.55,-2.24597,1.06289,-2.12596,9172.81,-1203.41,3427.13,-3.25208,3.15126,-0.609962
0.324,5058.3,-1373.91,8196.5,-2.0166,1.4669,0.829042,4898.46,-159.743,8473.72,-1.49267,0.516855,-0.785801,23.7816,9623.28,-1414.7,2.14379,-2.87429,5.24723,376.121,-9988.99,-1345.31,-0.754944,0.0427211,-0.928084,-1177.23,9625.02,-347.05,-0.372087,-2.66647,0.53815,667.428,-9747.68,-2007.59,-2.33383,1.16716,-2.07508,9178.47,-1231.74,3457.94,-3.31742,3.27211,-0.595835
0.325,5074.58,-1377.32,8187.59,-1.97125,1.52407,0.767114,4901.77,-160.669,8463.54,-1.45769,0.553389,-0.863983,17.1176,9600.96,-1405.59,2.05955,-2.87713,5.19445,372.42,-9990.23,-1348.54,-0.826939,-0.00941458,-0.946441,-1157.17,9630.18,-344.286,-0.399706,-2.68448,0.553798,672.009,-9752.46,-2008.04,-2.36836,1.27402,-2.03461,9177.94,-1233.11,3465.78,-3.31803,3.32016,-0.620394
