Time,RFoot_accel.x,RFoot_accel.y,RFoot_accel.z,RFoot_gyro.x,RFoot_gyro.y,RFoot_gyro.z,LFoot_accel.x,LFoot_accel.y,LFoot_accel.z,LFoot_gyro.x,LFoot_gyro.y,LFoot_gyro.z,RShank_accel.x,RShank_accel.y,RShank_accel.z,RShank_gyro.x,RShank_gyro.y,RShank_gyro.z,LShank_accel.x,LShank_accel.y,LShank_accel.z,LShank_gyro.x,LShank_gyro.y,LShank_gyro.z,RThigh_accel.x,RThigh_accel.y,RThigh_accel.z,RThigh_gyro.x,RThigh_gyro.y,RThigh_gyro.z,LThigh_accel.x,LThigh_accel.y,LThigh_accel.z,LThigh_gyro.x,LThigh_gyro.y,LThigh_gyro.z,Pelvis_accel.x,Pelvis_accel.y,Pelvis_accel.z,Pelvis_gyro.x,Pelvis_gyro.y,Pelvis_gyro.z
0.0,4801.94,-1668.35,8265.53,-3.62543,0.35034,-0.394523,5436.04,229.908,8299.57,8.28312,-3.90528,3.2389,206.549,9589.38,-1783.7,-0.663737,-6.02601,-1.19795,693.447,-9794.98,-1481.8,-0.988424,9.4717,-1.17248,-861.446,9696.87,-473.508,2.80444,-5.60889,-2.31975,748.91,-9727.34,-1727.31,-3.03099,-5.91449,0.307323,9166.55,-611.516,3381.24,2.49995,2.88155,2.10189
0.001,4818.02,-1620.27,8267.52,-3.71511,0.282689,-0.509144,5425.8,215.699,8289.08,8.09718,-3.6132,3.08645,210.686,9588.29,-1788.07,-0.690997,-5.91082,-1.17896,684.294,-9812.19,-1442.64,-0.906763,9.27301,-1.10678,-848.658,9706.01,-458.9,2.73433,-5.46506,-2.34631,760.381,-9739.38,-1747.92,-2.91853,-5.89134,0.320553,9166.68,-605.406,3386.07,2.56427,2.75492,1.87238
0.002,4834.1,-1572.19,8269.52,-3.80479,0.215038,-0.623764,5415.57,201.49,8278.58,7.91123,-3.32112,2.934,214.823,9587.2,-1792.45,-0.718257,-5.79563,-1.15998,675.14,-9829.39,-1403.48,-0.825101,9.07433,-1.04107,-835.869,9715.15,-444.292,2.66422,-5.32124,-2.37287,771.853,-9751.43,-1768.53,-2.80607,-5.86818,0.333782,9166.81,-599.297,3390.91,2.62859,2.62829,1.64286
0.003,4850.18,-1524.12,8271.51,-3.89447,0.147386,-0.738385,5405.33,187.282,8268.09,7.72528,-3.02904,2.78155,218.959,9586.11,-1796.83,-0.745517,-5.68044,-1.14099,665.987,-9846.6,-1364.32,-0.743439,8.87564,-0.975369,-823.081,9724.29,-429.683,2.5941,-5.17741,-2.39944,783.324,-9763.47,-1789.14,-2.69361,-5.84502,0.347011,9166.94,-593.188,3395.74,2.69291,2.50167,1.41334
0.004,4866.26,-1476.04,8273.51,-3.98415,0.0797349,-0.853005,5395.1,173.073,8257.6,7.53933,-2.73696,2.6291,223.096,9585.02,-1801.21,-0.772777,-5.56524,-1.122,656.834,-9863.81,-1325.16,-0.661777,8.67695,-0.909665,-810.292,9733.43,-415.075,2.52399,-5.03359,-2.426,794.795,-9775.51,-1809.74,-2.58115,-5.82187,0.36024,9167.07,-587.079,3400.57,2.75723,2.37504,1.18383
0.005,4872.2,-1479.33,8266.93,-3.90183,0.0265496,-0.885242,5396.8,175.764,8245.91,7.55435,-2.55125,2.56103,233.699,9588.22,-1816.08,-0.831703,-5.43053,-1.1924,637.783,-9847.45,-1314.86,-0.62236,8.47022,-0.863147,-805.432,9721.75,-420.387,2.42493,-4.71552,-2.41154,801.572,-9776.02,-1815.94,-2.59876,-5.84788,0.362473,9159.59,-586.121,3399.64,2.78585,2.31033,1.13929
0.006,4870.03,-1523.72,8253.49,-3.68191,-0.0150629,-0.851572,5408.07,191.975,8233.28,7.73013,-2.45064,2.56045,249.476,9594.86,-1839.33,-0.915963,-5.28019,-1.33431,610.814,-9804.23,-1327.65,-0.61674,8.25704,-0.831979,-806.915,9693.4,-441.635,2.30271,-4.25805,-2.36426,804.594,-9767.3,-1810.61,-2.72043,-5.91322,0.355909,9146.01,-589.285,3394.1,2.7859,2.29515,1.24273
0.007,4867.85,-1568.1,8240.04,-3.46199,-0.0566755,-0.817901,5419.33,208.185,8220.64,7.90592,-2.35004,2.55988,265.252,9601.49,-1862.59,-1.00022,-5.12985,-1.47622,583.845,-9761.01,-1340.44,-0.61112,8.04387,-0.80081,-808.397,9665.05,-462.883,2.18049,-3.80058,-2.31698,807.615,-9758.58,-1805.28,-2.84209,-5.97857,0.349345,9132.43,-592.448,3388.56,2.78596,2.27997,1.34617
0.008,4865.68,-1612.49,8226.6,-3.24207,-0.098288,-0.784231,5430.59,224.396,8208.0,8.08171,-2.24943,2.5593,281.028,9608.13,-1885.85,-1.08448,-4.97952,-1.61813,556.876,-9717.8,-1353.23,-0.605499,7.8307,-0.769642,-809.879,9636.7,-484.131,2.05827,-3.34311,-2.2697,810.637,-9749.86,-1799.95,-2.96376,-6.04392,0.342781,9118.85,-595.611,3383.02,2.78601,2.2648,1.4496
0.009,4865.91,-1650.4,8218.39,-3.04454,-0.139396,-0.762007,5438.78,239.617,8201.08,8.25242,-2.14071,2.5747,292.54,9614.81,-1907.31,-1.16001,-4.83137,-1.74565,533.627,-9683.22,-1368.37,-0.598119,7.70217,-0.727248,-808.403,9612.64,-503.252,1.94671,-2.94261,-2.19852,816.923,-9741.43,-1791.32,-3.05624,-6.10135,0.325472,9104.21,-597.442,3378.45,2.79428,2.24444,1.53926
0.01,4885.36,-1636.49,8252.04,-3.02614,-0.176473,-0.831362,5422.38,246.924,8239.81,8.38252,-1.96706,2.71792,269.933,9621.85,-1914.41,-1.16564,-4.70067,-1.758,540.134,-9717.74,-1402.23,-0.576662,8.25078,-0.595052,-783.253,9622.87,-505.354,1.92038,-2.99782,-1.93611,849.327,-9735.33,-1756.33,-2.91522,-6.09546,0.2222,9081.08,-588.617,3381.69,2.86822,2.18261,1.51863
0.011,4904.81,-1622.59,8285.69,-3.00773,-0.213549,-0.900716,5405.98,254.231,8278.55,8.51262,-1.79341,2.86114,247.325,9628.88,-1921.5,-1.17128,-4.56998,-1.77036,546.642,-9752.26,-1436.09,-0.555205,8.79939,-0.462856,-758.104,9633.09,-507.455,1.89405,-3.05304,-1.67371,881.73,-9729.23,-1721.34,-2.7742,-6.08958,0.118928,9057.94,-579.792,3384.93,2.94217,2.12078,1.49799
0.012,4924.26,-1608.68,8319.33,-2.98932,-0.250625,-0.97007,5389.58,261.538,8317.28,8.64273,-1.61976,3.00436,224.718,9635.92,-1928.59,-1.17691,-4.43929,-1.78271,553.149,-9786.78,-1469.95,-0.533748,9.348,-0.33066,-732.955,9643.32,-509.557,1.86772,-3.10825,-1.4113,914.134,-9723.12,-1686.34,-2.63318,-6.08369,0.015656,9034.81,-570.968,3388.17,3.01612,2.05895,1.47736
0.013,4943.71,-1594.78,8352.98,-2.97091,-0.287701,-1.03942,5373.18,268.845,8356.02,8.77283,-1.44611,3.14758,202.111,9642.96,-1935.69,-1.18255,-4.30859,-1.79507,559.657,-9821.3,-1503.81,-0.51229,9.89661,-0.198463,-707.805,9653.54,-511.659,1.84138,-3.16346,-1.1489,946.538,-9717.02,-1651.35,-2.49217,-6.07781,-0.087616,9011.68,-562.143,3391.41,3.09007,1.99712,1.45673
0.014,4919.12,-1592.27,8351.04,-2.91939,-0.297615,-1.10708,5395.01,246.941,8383.52,9.09078,-1.20728,3.08798,177.933,9636.95,-1922.31,-1.19369,-4.20333,-1.76303,573.146,-9841.93,-1541.16,-0.462287,10.5288,-0.172635,-701.846,9651.6,-512.536,1.84108,-2.94607,-1.16765,966.189,-9731.31,-1645.0,-2.45899,-6.02561,-0.125849,9007.86,-558.094,3381.05,3.04298,1.98555,1.49149
0.015,4872.52,-1595.46,8331.31,-2.85131,-0.293947,-1.17388,5435.96,210.431,8405.41,9.50264,-0.935861,2.92697,152.97,9624.4,-1898.69,-1.20758,-4.11079,-1.7088,590.126,-9855.61,-1580.27,-0.39801,11.2028,-0.19999,-705.482,9643.58,-512.803,1.8538,-2.59237,-1.32699,979.463,-9755.8,-1652.98,-2.47974,-5.95026,-0.131562,9013.71,-556.433,3363.88,2.93538,1.99912,1.55396
0.016,4825.91,-1598.65,8311.58,-2.78323,-0.29028,-1.24068,5476.91,173.92,8427.3,9.91451,-0.66444,2.76596,128.007,9611.86,-1875.07,-1.22148,-4.01824,-1.65456,607.106,-9869.3,-1619.37,-0.333733,11.8767,-0.227345,-709.118,9635.55,-513.069,1.86651,-2.23867,-1.48632,992.738,-9780.29,-1660.95,-2.50048,-5.87491,-0.137275,9019.55,-554.772,3346.72,2.82778,2.01268,1.61642
0.017,4779.31,-1601.84,8291.85,-2.71516,-0.286613,-1.30749,5517.86,137.41,8449.2,10.3264,-0.393019,2.60495,103.044,9599.31,-1851.45,-1.23537,-3.9257,-1.60033,624.086,-9882.99,-1658.48,-0.269457,12.5507,-0.254701,-712.754,9627.52,-513.335,1.87922,-1.88497,-1.64565,1006.01,-9804.77,-1668.93,-2.52123,-5.79956,-0.142988,9025.39,-553.111,3329.56,2.72018,2.02625,1.67889
0.018,4751.16,-1608.83,8266.61,-2.64893,-0.302504,-1.36932,5562.36,106.064,8456.57,10.6367,-0.108654,2.50412,81.7589,9589.04,-1832.71,-1.25325,-3.85417,-1.55812,646.158,-9891.67,-1680.22,-0.206654,13.1336,-0.293917,-723.593,9622.89,-514.588,1.88437,-1.56493,-1.77064,1017.97,-9820.25,-1680.46,-2.55318,-5.73709,-0.161996,9029.85,-548.079,3316.04,2.6429,2.0342,1.69535
0.019,4787.63,-1629.11,8222.05,-2.5892,-0.386849,-1.41377,5619.32,92.7882,8413.11,10.5917,0.221013,2.61394,73.3436,9586.73,-1831.03,-1.28504,-3.85621,-1.55795,686.052,-9882.87,-1641.19,-0.14901,13.3977,-0.374649,-759.643,9630.12,-519.295,1.86307,-1.36271,-1.77539,1025.34,-9804.17,-1704.44,-2.62433,-5.71967,-0.22754,9029.47,-531.248,3315.23,2.67177,2.02251,1.5508
0.02,4824.1,-1649.39,8177.5,-2.52946,-0.471193,-1.45822,5676.29,79.5128,8369.66,10.5467,0.550681,2.72376,64.9282,9584.42,-1829.35,-1.31684,-3.85826,-1.55779,725.945,-9874.07,-1602.16,-0.0913669,13.6618,-0.455381,-795.693,9637.35,-524.003,1.84176,-1.1605,-1.78013,1032.7,-9788.1,-1728.42,-2.69548,-5.70226,-0.293083,9029.08,-514.418,3314.42,2.70064,2.01083,1.40626
0.021,4860.57,-1669.66,8132.95,-2.46973,-0.555538,-1.50266,5733.25,66.2375,8326.21,10.5017,0.880349,2.83357,56.5129,9582.11,-1827.67,-1.34863,-3.8603,-1.55763,765.839,-9865.27,-1563.13,-0.0337234,13.9258,-0.536113,-831.743,9644.58,-528.71,1.82045,-0.958283,-1.78488,1040.07,-9772.02,-1752.41,-2.76663,-5.68484,-0.358627,9028.7,-497.588,3313.61,2.72951,1.99914,1.26171
0.022,4897.04,-1689.94,8088.4,-2.41,-0.639883,-1.54711,5790.21,52.9621,8282.76,10.4567,1.21002,2.94339,48.0976,9579.8,-1825.99,-1.38043,-3.86234,-1.55746,805.732,-9856.47,-1524.1,0.0239201,14.1899,-0.616844,-867.793,9651.81,-533.417,1.79915,-0.756068,-1.78963,1047.43,-9755.95,-1776.39,-2.83778,-5.66743,-0.42417,9028.32,-480.757,3312.81,2.75838,1.98745,1.11716
0.023,4899.88,-1683.23,8100.85,-2.33453,-0.638261,-1.6085,5764.91,61.8102,8267.59,10.4446,1.4177,3.02337,33.6293,9589.77,-1825.26,-1.43073,-3.8666,-1.55682,813.994,-9846.74,-1456.92,0.0114989,13.8911,-0.454443,-874.84,9653.13,-510.613,1.67445,-0.635148,-1.85743,1084.45,-9758.04,-1793.66,-2.74735,-5.4276,-0.485434,9025.69,-487.764,3327.62,2.81488,2.04819,1.06934
0.024,4893.1,-1668.81,8129.59,-2.25458,-0.612078,-1.67474,5716.1,76.9794,8260.5,10.4418,1.59054,3.09483,17.4317,9603.24,-1824.8,-1.48631,-3.87149,-1.55605,813.218,-9836.74,-1381.7,-0.0209409,13.4315,-0.222576,-873.599,9652.76,-479.949,1.52022,-0.537455,-1.94325,1129.95,-9765.33,-1809.01,-2.61075,-5.12423,-0.545476,9022.43,-501.582,3346.89,2.87928,2.12963,1.04915
0.025,4886.33,-1654.4,8158.33,-2.17462,-0.585894,-1.74098,5667.29,92.1485,8253.41,10.439,1.76338,3.1663,1.23403,9616.71,-1824.34,-1.54189,-3.87638,-1.55527,812.442,-9826.75,-1306.48,-0.0533806,12.9718,0.0092914,-872.359,9652.39,-449.284,1.36598,-0.439763,-2.02906,1175.44,-9772.61,-1824.36,-2.47415,-4.82086,-0.605518,9019.17,-515.399,3366.16,2.94367,2.21106,1.02896
0.026,4879.55,-1639.98,8187.07,-2.09466,-0.559711,-1.80722,5618.48,107.318,8246.33,10.4363,1.93622,3.23776,-14.9636,9630.17,-1823.89,-1.59747,-3.88127,-1.5545,811.666,-9816.75,-1231.26,-0.0858204,12.5122,0.241159,-871.119,9652.01,-418.619,1.21174,-0.342071,-2.11487,1220.93,-9779.9,-1839.71,-2.33755,-4.51748,-0.66556,9015.9,-529.217,3385.43,3.00807,2.29249,1.00877
0.027,4873.11,-1621.12,8206.22,-2.05589,-0.531967,-1.86525,5579.41,124.969,8240.84,10.3271,2.05765,3.33083,-30.5941,9637.98,-1817.13,-1.66985,-3.90423,-1.573,795.138,-9799.7,-1176.37,-0.121448,11.994,0.514528,-875.094,9649.43,-387.086,1.12427,-0.248478,-2.13978,1262.19,-9786.42,-1832.61,-2.30567,-4.26184,-0.803151,9009.49,-539.896,3401.7,3.05541,2.3384,0.98914
0.028,4867.34,-1593.38,8206.18,-2.09948,-0.501101,-1.90686,5559.85,147.585,8238.57,10.0052,2.0763,3.46714,-45.0903,9634.44,-1797.78,-1.77581,-3.96332,-1.63008,747.105,-9768.54,-1162.17,-0.163452,11.3587,0.870902,-889.5,9642.41,-353.817,1.17033,-0.163084,-2.04288,1294.96,-9791.42,-1780.58,-2.48321,-4.10166,-1.09584,8996.79,-544.298,3411.98,3.06864,2.31323,0.970643
0.029,4861.56,-1565.63,8206.13,-2.14306,-0.470236,-1.94847,5540.28,170.201,8236.29,9.68331,2.09494,3.60344,-59.5865,9630.91,-1778.43,-1.88178,-4.02241,-1.68715,699.072,-9737.38,-1147.97,-0.205456,10.7234,1.22728,-903.906,9635.4,-320.547,1.21638,-0.0776908,-1.94598,1327.73,-9796.42,-1728.56,-2.66075,-3.94147,-1.38853,8984.08,-548.7,3422.26,3.08188,2.28807,0.952145
0.03,4855.79,-1537.89,8206.09,-2.18665,-0.43937,-1.99008,5520.71,192.817,8234.02,9.36141,2.11358,3.73975,-74.0827,9627.38,-1759.08,-1.98775,-4.08149,-1.74423,651.04,-9706.23,-1133.77,-0.24746,10.0881,1.58365,-918.311,9628.38,-287.278,1.26244,0.00770287,-1.84908,1360.5,-9801.42,-1676.53,-2.83828,-3.78129,-1.68121,8971.38,-553.102,3432.54,3.09511,2.26291,0.933648
0.031,4850.02,-1510.15,8206.05,-2.23024,-0.408504,-2.0317,5501.14,215.433,8231.74,9.0395,2.13222,3.87605,-88.5789,9623.85,-1739.72,-2.09372,-4.14058,-1.8013,603.007,-9675.07,-1119.57,-0.289464,9.45279,1.94002,-932.717,9621.37,-254.009,1.30849,0.0930965,-1.75218,1393.27,-9806.42,-1624.51,-3.01582,-3.62111,-1.9739,8958.67,-557.504,3442.82,3.10834,2.23774,0.91515
0.032,4860.35,-1516.89,8217.66,-2.18173,-0.305447,-2.06022,5419.3,241.063,8209.73,8.88872,2.33905,3.90604,-78.285,9624.95,-1727.5,-2.20774,-4.29622,-1.78783,606.923,-9701.14,-1128.57,-0.354897,9.09085,2.24463,-950.52,9610.45,-240.33,1.39122,-0.135362,-1.67701,1419.94,-9813.45,-1609.6,-2.84708,-3.50612,-1.99726,8973.72,-534.492,3458.76,3.12531,2.08679,0.94399
0.033,4872.7,-1527.94,8230.74,-2.12171,-0.193365,-2.0871,5329.69,267.07,8185.26,8.75934,2.5694,3.92274,-64.8924,9626.63,-1716.16,-2.32277,-4.46393,-1.76553,617.334,-9734.36,-1140.46,-0.423259,8.76308,2.54278,-968.747,9599.05,-229.1,1.47853,-0.403051,-1.60456,1445.86,-9820.73,-1599.33,-2.63506,-3.39678,-1.98695,8992.24,-508.054,3475.41,3.14275,1.92011,0.978746
0.034,4885.05,-1538.99,8243.81,-2.06169,-0.081284,-2.11399,5240.07,293.077,8160.79,8.62995,2.79976,3.93944,-51.4998,9628.3,-1704.83,-2.4378,-4.63164,-1.74324,627.744,-9767.59,-1152.35,-0.49162,8.43531,2.84092,-986.974,9587.64,-217.871,1.56584,-0.670741,-1.53211,1471.77,-9828.01,-1589.07,-2.42303,-3.28744,-1.97664,9010.76,-481.615,3492.06,3.16019,1.75343,1.0135
0.035,4897.4,-1550.04,8256.88,-2.00167,0.0307975,-2.14088,5150.45,319.083,8136.32,8.50056,3.03011,3.95614,-38.1072,9629.98,-1693.49,-2.55283,-4.79936,-1.72095,638.154,-9800.81,-1164.25,-0.559981,8.10753,3.13906,-1005.2,9576.24,-206.641,1.65316,-0.93843,-1.45966,1497.69,-9835.29,-1578.8,-2.21101,-3.17809,-1.96632,9029.28,-455.177,3508.71,3.17762,1.58674,1.04826
0.036,4901.57,-1550.44,8266.22,-1.9058,0.045514,-2.11442,5093.89,361.31,8130.18,8.34902,3.14745,4.01404,-18.4184,9627.98,-1678.37,-2.61198,-5.02234,-1.71445,632.459,-9834.47,-1174.84,-0.563316,7.7706,3.29788,-1022.09,9577.87,-199.713,1.61994,-1.14979,-1.51243,1527.23,-9835.73,-1568.46,-2.14455,-3.06459,-1.96677,9044.26,-440.193,3507.07,3.15698,1.48125,1.06005
0.037,4895.5,-1537.54,8270.88,-1.76512,-0.0614759,-2.02128,5078.66,423.812,8146.96,8.16978,3.12351,4.12345,9.14083,9621.37,-1658.52,-2.60126,-5.31442,-1.72771,606.633,-9868.66,-1183.8,-0.485367,7.42222,3.28254,-1037.29,9595.8,-198.162,1.43608,-1.29074,-1.72172,1561.29,-9827.6,-1558.01,-2.26004,-2.94588,-1.98066,9054.84,-439.527,3482.57,3.08874,1.45224,1.04314
0.038,4889.44,-1524.63,8275.55,-1.62444,-0.168466,-1.92814,5063.43,486.314,8163.74,7.99054,3.09957,4.23285,36.7,9614.76,-1638.68,-2.59054,-5.6065,-1.74097,580.808,-9902.85,-1192.76,-0.407417,7.07384,3.26721,-1052.5,9613.72,-196.612,1.25221,-1.43169,-1.93101,1595.35,-9819.48,-1547.56,-2.37553,-2.82717,-1.99455,9065.41,-438.862,3458.08,3.0205,1.42322,1.02623
0.039,4883.37,-1511.73,8280.22,-1.48376,-0.275456,-1.835,5048.2,548.816,8180.52,7.8113,3.07564,4.34225,64.2592,9608.16,-1618.83,-2.57982,-5.89858,-1.75423,554.982,-9937.04,-1201.73,-0.329468,6.72546,3.25187,-1067.71,9631.65,-195.061,1.06834,-1.57264,-2.1403,1629.42,-9811.35,-1537.11,-2.49102,-2.70846,-2.00844,9075.98,-438.196,3433.58,2.95227,1.39421,1.00932
0.04,4877.31,-1498.82,8284.88,-1.34309,-0.382446,-1.74186,5032.97,611.317,8197.31,7.63207,3.0517,4.45165,91.8184,9601.55,-1598.98,-2.5691,-6.19066,-1.76749,529.157,-9971.23,-1210.69,-0.251519,6.37708,3.23654,-1082.92,9649.57,-193.51,0.884472,-1.71359,-2.34959,1663.48,-9803.22,-1526.66,-2.60651,-2.58975,-2.02234,9086.56,-437.53,3409.08,2.88403,1.3652,0.992408
0.041,4877.21,-1504.11,8315.07,-1.42532,-0.252095,-1.59736,4996.44,598.745,8188.78,7.47918,2.80445,4.58962,108.27,9589.42,-1588.78,-2.54689,-6.36347,-1.83606,563.068,-9920.22,-1223.78,-0.27729,6.19171,3.34576,-1096.66,9617.33,-200.799,0.966283,-1.71622,-2.28895,1705.57,-9808.22,-1570.03,-2.61255,-2.33547,-2.01297,9070.27,-442.893,3413.02,2.85638,1.41843,1.01007
0.042,4877.11,-1509.39,8345.26,-1.50755,-0.121744,-1.45287,4959.9,586.173,8180.25,7.32629,2.5572,4.72758,124.721,9577.29,-1578.59,-2.52468,-6.53629,-1.90462,596.979,-9869.21,-1236.88,-0.303061,6.00635,3.45498,-1110.4,9585.09,-208.088,1.0481,-1.71886,-2.22831,1747.65,-9813.22,-1613.39,-2.61859,-2.0812,-2.00361,9053.98,-448.255,3416.96,2.82873,1.47166,1.02773
0.043,4877.01,-1514.68,8375.44,-1.58978,0.0086069,-1.30837,4923.37,573.601,8171.73,7.1734,2.30996,4.86555,141.172,9565.16,-1568.39,-2.50247,-6.70911,-1.97319,630.891,-9818.2,-1249.98,-0.328832,5.82098,3.5642,-1124.14,9552.85,-215.376,1.12991,-1.72149,-2.16768,1789.74,-9818.22,-1656.76,-2.62462,-1.82693,-1.99425,9037.7,-453.617,3420.89,2.80109,1.52489,1.04539
0.044,4876.91,-1519.97,8405.63,-1.67201,0.138958,-1.16388,4886.84,561.029,8163.2,7.02051,2.06271,5.00352,157.624,9553.03,-1558.2,-2.48026,-6.88192,-2.04176,664.802,-9767.19,-1263.08,-0.354603,5.63562,3.67342,-1137.89,9520.6,-222.665,1.21172,-1.72412,-2.10704,1831.83,-9823.22,-1700.13,-2.63066,-1.57266,-1.98489,9021.41,-458.979,3424.83,2.77344,1.57812,1.06305
0.045,4886.44,-1518.97,8408.26,-1.70982,0.170944,-1.24969,4904.42,554.996,8158.18,6.79055,1.96033,5.07041,158.245,9561.89,-1558.21,-2.45874,-6.95112,-2.07597,712.182,-9761.11,-1271.93,-0.391741,5.38435,3.79373,-1143.27,9514.78,-239.085,1.27974,-1.66679,-2.15652,1845.71,-9833.68,-1717.65,-2.70599,-1.29266,-1.92,9018.05,-462.872,3431.17,2.69493,1.51808,1.08851
0.046,4903.68,-1512.95,8388.85,-1.71208,0.124238,-1.51974,4965.29,554.196,8155.95,6.49894,1.97387,5.08045,146.202,9587.52,-1566.39,-2.43777,-6.93742,-2.08271,770.338,-9790.98,-1277.38,-0.437974,5.08035,3.92292,-1141.97,9530.1,-262.809,1.33672,-1.56148,-2.2941,1837.01,-9848.5,-1714.51,-2.83675,-0.992073,-1.81067,9025.03,-465.59,3439.43,2.57574,1.36743,1.12022
0.047,4920.92,-1506.93,8369.43,-1.71435,0.0775318,-1.78979,5026.16,553.396,8153.73,6.20733,1.9874,5.09049,134.16,9613.16,-1574.57,-2.4168,-6.92372,-2.08945,828.493,-9820.85,-1282.84,-0.484206,4.77636,4.0521,-1140.67,9545.41,-286.534,1.39371,-1.45618,-2.43168,1828.32,-9863.32,-1711.36,-2.96751,-0.691489,-1.70133,9032.02,-468.307,3447.68,2.45654,1.21679,1.15192
0.048,4938.16,-1500.91,8350.02,-1.71661,0.0308259,-2.05983,5087.03,552.596,8151.51,5.91572,2.00093,5.10052,122.117,9638.8,-1582.75,-2.39584,-6.91002,-2.09619,886.649,-9850.72,-1288.3,-0.530439,4.47236,4.18128,-1139.37,9560.73,-310.259,1.45069,-1.35087,-2.56926,1819.62,-9878.13,-1708.21,-3.09827,-0.390906,-1.592,9039.0,-471.025,3455.94,2.33735,1.06614,1.18362
0.049,4954.58,-1495.78,8330.85,-1.72043,-0.00218243,-2.28178,5137.68,554.522,8148.87,5.61675,2.01126,5.07433,110.521,9662.42,-1591.36,-2.37744,-6.89919,-2.10087,938.215,-9875.63,-1293.47,-0.599602,4.19108,4.32818,-1137.89,9576.11,-331.576,1.4965,-1.24899,-2.67853,1805.29,-9889.99,-1706.73,-3.1994,-0.0782281,-1.49701,9043.24,-474.422,3461.34,2.23049,0.921258,1.21552
0.05,4964.49,-1497.77,8313.67,-1.73671,0.0743903,-2.11886,5106.56,578.256,8142.89,5.25891,1.99602,4.75832,102.504,9670.0,-1603.44,-2.37959,-6.91129,-2.08913,937.07,-9860.84,-1296.39,-0.852214,4.09146,4.61684,-1134.98,9592.06,-333.633,1.45291,-1.17448,-2.5613,1745.85,-9878.18,-1718.61,-3.06342,0.3312,-1.51675,9025.56,-483.253,3443.86,2.22237,0.822493,1.249
0.051,4974.4,-1499.76,8296.48,-1.75299,0.150963,-1.95595,5075.44,601.989,8136.92,4.90107,1.98079,4.44231,94.4859,9677.57,-1615.52,-2.38175,-6.92338,-2.0774,935.926,-9846.05,-1299.3,-1.10483,3.99184,4.90551,-1132.07,9608.0,-335.69,1.40931,-1.09998,-2.44408,1686.42,-9866.36,-1730.48,-2.92744,0.740629,-1.53649,9007.88,-492.084,3426.37,2.21426,0.723728,1.28248
0.052,4984.3,-1501.75,8279.3,-1.76927,0.227536,-1.79304,5044.31,625.723,8130.94,4.54324,1.96555,4.12629,86.4682,9685.14,-1627.6,-2.38391,-6.93548,-2.06566,934.781,-9831.27,-1302.22,-1.35744,3.89222,5.19417,-1129.16,9623.95,-337.747,1.36571,-1.02547,-2.32685,1626.98,-9854.54,-1742.36,-2.79146,1.15006,-1.55622,8990.21,-500.916,3408.89,2.20614,0.624963,1.31596
0.053,4994.21,-1503.74,8262.12,-1.78554,0.304108,-1.63013,5013.19,649.456,8124.96,4.1854,1.95031,3.81028,78.4505,9692.71,-1639.68,-2.38607,-6.94758,-2.05392,933.636,-9816.48,-1305.14,-1.61005,3.7926,5.48283,-1126.25,9639.9,-339.804,1.32212,-0.950968,-2.20963,1567.54,-9842.72,-1754.24,-2.65548,1.55949,-1.57596,8972.53,-509.747,3391.41,2.19802,0.526199,1.34944
0.054,4991.59,-1508.32,8249.27,-1.80267,0.381532,-1.56148,4994.02,667.946,8135.87,3.90338,1.88984,3.57912,77.834,9695.36,-1644.73,-2.38402,-6.94373,-2.05743,948.875,-9794.59,-1302.39,-1.63932,3.67306,5.67634,-1123.2,9651.67,-339.639,1.33288,-0.78827,-2.14632,1541.55,-9840.33,-1753.62,-2.6993,1.93214,-1.53217,8967.8,-500.443,3398.76,2.22565,0.532617,1.38966
0.055,4982.7,-1514.21,8238.58,-1.82022,0.459381,-1.53997,4980.82,683.814,8155.21,3.65926,1.80675,3.3904,80.9181,9695.55,-1646.25,-2.37987,-6.93191,-2.06856,972.306,-9769.15,-1296.82,-1.55693,3.54355,5.82227,-1120.09,9661.34,-338.362,1.37081,-0.581475,-2.10997,1532.28,-9842.65,-1746.75,-2.83301,2.28641,-1.45662,8969.56,-482.072,3418.52,2.27116,0.591627,1.43325
0.056,4973.82,-1520.09,8227.9,-1.83777,0.53723,-1.51846,4967.62,699.681,8174.55,3.41515,1.72366,3.20168,84.0022,9695.73,-1647.78,-2.37573,-6.92009,-2.07969,995.737,-9743.71,-1291.24,-1.47454,3.41405,5.9682,-1116.98,9671.02,-337.085,1.40875,-0.37468,-2.07362,1523.01,-9844.97,-1739.89,-2.96673,2.64069,-1.38107,8971.31,-463.7,3438.29,2.31667,0.650638,1.47683
0.057,4964.93,-1525.98,8217.21,-1.85532,0.615079,-1.49694,4954.42,715.549,8193.89,3.17103,1.64057,3.01296,87.0863,9695.92,-1649.31,-2.37158,-6.90826,-2.09082,1019.17,-9718.28,-1285.66,-1.39215,3.28454,6.11413,-1113.87,9680.7,-335.808,1.44668,-0.167885,-2.03727,1513.74,-9847.29,-1733.02,-3.10044,2.99496,-1.30552,8973.07,-445.329,3458.05,2.36217,0.709648,1.52042
0.058,4965.21,-1534.92,8207.57,-1.86042,0.66918,-1.46908,4932.25,735.633,8203.78,2.96406,1.55748,2.8615,88.2326,9695.83,-1650.55,-2.34154,-6.91353,-2.09519,1036.83,-9700.67,-1283.84,-1.31874,3.19099,6.22738,-1105.83,9685.37,-330.707,1.45617,-0.00747904,-2.02757,1506.29,-9846.39,-1721.37,-3.21871,3.32302,-1.24609,8972.63,-433.804,3474.78,2.36543,0.743509,1.57607
0.059,4997.56,-1554.53,8201.57,-1.82192,0.640158,-1.41897,4878.69,770.472,8180.61,2.88708,1.47439,2.84043,82.5966,9694.79,-1650.77,-2.22087,-6.97862,-2.07588,1034.31,-9710.48,-1295.17,-1.27678,3.22327,6.22626,-1080.54,9672.54,-312.22,1.36606,-0.00943468,-2.11114,1505.19,-9834.21,-1692.94,-3.2829,3.55934,-1.24307,8964.54,-446.243,3480.88,2.2208,0.689346,1.67396
0.06,5029.92,-1574.15,8195.57,-1.78343,0.611137,-1.36887,4825.13,805.311,8157.43,2.81011,1.3913,2.81936,76.9606,9693.75,-1650.99,-2.1002,-7.04371,-2.05657,1031.78,-9720.29,-1306.49,-1.23482,3.25556,6.22514,-1055.25,9659.72,-293.733,1.27595,-0.0113903,-2.19471,1504.1,-9822.04,-1664.52,-3.34709,3.79567,-1.24006,8956.45,-458.683,3486.99,2.07617,0.635183,1.77184
0.061,5062.28,-1593.77,8189.58,-1.74493,0.582115,-1.31876,4771.57,840.15,8134.26,2.73313,1.30821,2.7983,71.3246,9692.7,-1651.2,-1.97954,-7.10879,-2.03726,1029.26,-9730.1,-1317.82,-1.19286,3.28784,6.22402,-1029.96,9646.89,-275.246,1.18585,-0.013346,-2.27828,1503.0,-9809.87,-1636.1,-3.41128,4.03199,-1.23704,8948.35,-471.122,3493.09,1.93154,0.58102,1.86973
0.062,5094.63,-1613.38,8183.58,-1.70643,0.553094,-1.26865,4718.0,874.989,8111.08,2.65616,1.22512,2.77723,65.6886,9691.66,-1651.42,-1.85887,-7.17388,-2.01795,1026.74,-9739.91,-1329.15,-1.15089,3.32012,6.2229,-1004.67,9634.06,-256.759,1.09574,-0.0153016,-2.36185,1501.9,-9797.69,-1607.68,-3.47547,4.26831,-1.23402,8940.26,-483.561,3499.2,1.78691,0.526857,1.96762
0.063,5088.23,-1613.27,8187.79,-1.63975,0.608302,-1.25355,4702.07,847.168,8123.83,2.42265,1.13857,2.61641,54.7458,9691.57,-1660.96,-1.8555,-7.15131,-2.04331,1059.26,-9763.17,-1344.12,-1.24273,3.27142,6.0979,-991.636,9638.07,-244.866,1.02792,0.0488628,-2.31683,1505.45,-9777.49,-1616.62,-3.44478,4.43398,-1.29309,8949.35,-478.65,3500.3,1.70397,0.48156,2.05045
0.064,5070.75,-1607.51,8194.92,-1.56502,0.687577,-1.24845,4696.88,801.443,8146.84,2.14441,1.05104,2.41567,42.2868,9691.76,-1673.17,-1.88565,-7.10371,-2.08144,1101.8,-9790.26,-1360.14,-1.3728,3.19958,5.93752,-982.103,9646.89,-234.856,0.96647,0.131919,-2.23507,1510.33,-9754.99,-1636.25,-3.38699,4.57947,-1.36989,8963.35,-468.782,3499.96,1.63865,0.438795,2.12899
0.065,5053.26,-1601.76,8202.05,-1.49028,0.766851,-1.24335,4691.7,755.718,8169.85,1.86617,0.963508,2.21492,29.8278,9691.94,-1685.38,-1.9158,-7.0561,-2.11956,1144.34,-9817.36,-1376.16,-1.50287,3.12774,5.77713,-972.57,9655.71,-224.846,0.905018,0.214975,-2.15331,1515.2,-9732.5,-1655.87,-3.3292,4.72495,-1.4467,8977.35,-458.914,3499.63,1.57334,0.39603,2.20752
0.066,5035.78,-1596.0,8209.18,-1.41555,0.846126,-1.23825,4686.52,709.994,8192.87,1.58793,0.875976,2.01417,17.3688,9692.13,-1697.59,-1.94595,-7.0085,-2.15769,1186.88,-9844.45,-1392.18,-1.63294,3.0559,5.61675,-963.038,9664.53,-214.836,0.843566,0.29803,-2.07155,1520.08,-9710.0,-1675.49,-3.27141,4.87044,-1.5235,8991.35,-449.046,3499.3,1.50802,0.353265,2.28606
0.067,5017.08,-1594.76,8213.16,-1.34591,0.866935,-1.25467,4684.0,678.707,8209.36,1.30189,0.759872,1.85987,13.0017,9688.5,-1699.65,-2.02367,-6.96273,-2.1699,1218.3,-9848.18,-1409.63,-1.76104,3.0193,5.52437,-958.956,9667.94,-207.57,0.748262,0.375954,-2.04113,1522.12,-9698.48,-1690.15,-3.2792,5.01786,-1.52787,8998.77,-436.466,3490.26,1.4425,0.330463,2.3504
0.068,4995.93,-1602.54,8210.83,-1.28647,0.770815,-1.31412,4686.84,676.297,8212.82,1.00024,0.586623,1.79845,24.8184,9677.27,-1681.42,-2.19652,-6.92064,-2.13031,1227.47,-9805.19,-1429.95,-1.88521,3.05319,5.568,-965.776,9660.52,-205.792,0.585256,0.443615,-2.11338,1518.5,-9708.9,-1694.87,-3.41815,5.16917,-1.38737,8993.05,-418.463,3463.79,1.37656,0.347585,2.38637
0.069,4974.78,-1610.31,8208.5,-1.22703,0.674695,-1.37357,4689.68,673.888,8216.28,0.698589,0.413374,1.73703,36.6351,9666.03,-1663.19,-2.36936,-6.87854,-2.09072,1236.64,-9762.2,-1450.26,-2.00938,3.08707,5.61163,-972.595,9653.1,-204.015,0.42225,0.511275,-2.18563,1514.87,-9719.33,-1699.6,-3.5571,5.32048,-1.24687,8987.33,-400.459,3437.33,1.31061,0.364708,2.42233
0.07,4953.63,-1618.09,8206.16,-1.16759,0.578575,-1.43303,4692.52,671.478,8219.74,0.396938,0.240125,1.6756,48.4519,9654.79,-1644.97,-2.54221,-6.83645,-2.05112,1245.81,-9719.21,-1470.58,-2.13355,3.12096,5.65525,-979.415,9645.69,-202.237,0.259244,0.578936,-2.25788,1511.25,-9729.75,-1704.32,-3.69605,5.47178,-1.10637,8981.61,-382.456,3410.86,1.24467,0.38183,2.45829
0.071,4932.48,-1625.87,8203.83,-1.10814,0.482454,-1.49248,4695.36,669.068,8223.2,0.0952861,0.0668764,1.61418,60.2686,9643.56,-1626.74,-2.71506,-6.79436,-2.01153,1254.98,-9676.22,-1490.9,-2.25772,3.15484,5.69888,-986.234,9638.27,-200.459,0.0962378,0.646596,-2.33014,1507.63,-9740.18,-1709.04,-3.835,5.62309,-0.965868,8975.89,-364.453,3384.39,1.17872,0.398953,2.49426
0.072,4934.35,-1599.33,8206.93,-1.00441,0.570411,-1.47443,4739.12,661.848,8214.18,-0.158255,-0.00393843,1.46585,78.3003,9638.34,-1617.58,-2.73396,-6.74715,-2.05864,1260.27,-9670.41,-1496.95,-2.12022,3.1354,5.76362,-995.854,9653.66,-210.966,0.106358,0.651239,-2.20862,1463.08,-9719.04,-1718.97,-3.80682,5.57078,-1.00495,8983.2,-384.712,3395.83,1.07646,0.299057,2.46313
0.073,4939.11,-1568.49,8210.7,-0.895134,0.681378,-1.44669,4787.99,654.027,8203.59,-0.405781,-0.061949,1.30664,97.1089,9633.87,-1609.55,-2.73362,-6.69929,-2.11658,1265.06,-9669.26,-1501.22,-1.95001,3.10929,5.831,-1005.82,9671.9,-223.009,0.138118,0.648004,-2.06288,1413.41,-9693.95,-1729.54,-3.75775,5.49303,-1.06647,8992.14,-409.754,3412.01,0.969654,0.184535,2.42361
0.074,4943.87,-1537.66,8214.48,-0.785861,0.792345,-1.41894,4836.87,646.206,8193.01,-0.653308,-0.11996,1.14744,115.917,9629.41,-1601.53,-2.73327,-6.65144,-2.17452,1269.86,-9668.1,-1505.49,-1.7798,3.08319,5.89838,-1015.79,9690.14,-235.052,0.169878,0.64477,-1.91715,1363.75,-9668.86,-1740.12,-3.70867,5.41527,-1.12799,9001.08,-434.795,3428.18,0.862849,0.0700122,2.38409
0.075,4948.62,-1506.83,8218.25,-0.676588,0.903312,-1.3912,4885.75,638.385,8182.42,-0.900835,-0.17797,0.988238,134.726,9624.94,-1593.5,-2.73293,-6.60358,-2.23246,1274.66,-9666.95,-1509.76,-1.60959,3.05708,5.96576,-1025.76,9708.38,-247.095,0.201639,0.641536,-1.77141,1314.09,-9643.77,-1750.69,-3.6596,5.33751,-1.18952,9010.02,-459.837,3444.36,0.756043,-0.0445103,2.34457
0.076,4943.46,-1485.74,8226.61,-0.59556,0.996923,-1.37069,4912.94,624.42,8181.3,-1.13463,-0.247996,0.873411,142.581,9616.29,-1593.31,-2.70243,-6.55391,-2.30057,1259.14,-9668.75,-1505.53,-1.55526,3.04213,6.05772,-1038.57,9720.14,-253.56,0.244848,0.693615,-1.67336,1272.9,-9633.88,-1759.17,-3.61999,5.28662,-1.22021,9018.01,-473.696,3450.71,0.721382,-0.125601,2.34781
0.077,4925.9,-1476.85,8240.69,-0.549839,1.06884,-1.35922,4913.01,602.775,8192.02,-1.35124,-0.33304,0.814052,136.745,9602.42,-1602.93,-2.63423,-6.50195,-2.3814,1218.24,-9674.24,-1490.67,-1.64577,3.04114,6.18039,-1054.94,9723.81,-253.054,0.30237,0.814835,-1.63493,1242.32,-9642.96,-1765.03,-3.59221,5.26932,-1.21237,9024.81,-473.578,3444.76,0.7769,-0.164903,2.4045
0.078,4908.34,-1467.96,8254.78,-0.504118,1.14076,-1.34775,4913.09,581.129,8202.73,-1.56786,-0.418084,0.754694,130.908,9588.56,-1612.54,-2.56602,-6.44999,-2.46222,1177.34,-9679.73,-1475.81,-1.73628,3.04014,6.30306,-1071.31,9727.48,-252.548,0.359891,0.936056,-1.59649,1211.74,-9652.05,-1770.89,-3.56443,5.25202,-1.20453,9031.61,-473.459,3438.82,0.832417,-0.204204,2.46119
0.079,4890.77,-1459.07,8268.86,-0.458398,1.21267,-1.33628,4913.17,559.484,8213.45,-1.78448,-0.503129,0.695335,125.072,9574.69,-1622.15,-2.49782,-6.39804,-2.54304,1136.44,-9685.23,-1460.96,-1.82679,3.03914,6.42574,-1087.68,9731.15,-252.041,0.417412,1.05728,-1.55805,1181.15,-9661.14,-1776.75,-3.53664,5.23472,-1.19668,9038.41,-473.341,3432.88,0.887935,-0.243505,2.51787
0.08,4873.21,-1450.17,8282.94,-0.412677,1.28459,-1.32481,4913.25,537.838,8224.16,-2.0011,-0.588173,0.635977,119.235,9560.82,-1631.77,-2.42962,-6.34608,-2.62386,1095.54,-9690.72,-1446.1,-1.9173,3.03815,6.54841,-1104.05,9734.82,-251.535,0.474934,1.1785,-1.51961,1150.57,-9670.23,-1782.61,-3.50886,5.21742,-1.18884,9045.2,-473.222,3426.94,0.943453,-0.282807,2.57456
0.081,4877.81,-1496.6,8292.37,-0.392015,1.2359,-1.35963,4916.08,581.642,8241.58,-2.16231,-0.520041,0.535181,105.5,9541.32,-1633.74,-2.40183,-6.23005,-2.64872,1059.28,-9702.15,-1445.14,-2.00916,3.09108,6.59349,-1114.91,9728.78,-252.895,0.5283,1.2175,-1.43629,1139.95,-9666.77,-1773.82,-3.51678,5.19321,-1.3099,9038.9,-480.282,3409.38,0.942217,-0.274093,2.58044
0.082,4882.41,-1543.03,8301.79,-0.371353,1.1872,-1.39445,4918.91,625.446,8259.0,-2.32353,-0.451909,0.434385,91.7646,9521.83,-1635.71,-2.37404,-6.11401,-2.67359,1023.02,-9713.58,-1444.18,-2.10102,3.14401,6.63857,-1125.77,9722.74,-254.255,0.581666,1.25651,-1.35298,1129.32,-9663.31,-1765.03,-3.52471,5.169,-1.43096,9032.59,-487.342,3391.83,0.940982,-0.26538,2.58632
0.083,4887.0,-1589.46,8311.21,-0.350691,1.13851,-1.42927,4921.73,669.251,8276.42,-2.48474,-0.383777,0.333588,78.0294,9502.33,-1637.68,-2.34625,-5.99798,-2.69845,986.765,-9725.0,-1443.23,-2.19288,3.19694,6.68364,-1136.63,9716.7,-255.615,0.635032,1.29551,-1.26966,1118.7,-9659.85,-1756.25,-3.53263,5.14478,-1.55202,9026.28,-494.402,3374.27,0.939746,-0.256666,2.5922
0.084,4891.6,-1635.89,8320.63,-0.330029,1.08982,-1.4641,4924.56,713.055,8293.84,-2.64595,-0.315645,0.232792,64.2942,9482.84,-1639.65,-2.31846,-5.88194,-2.72332,950.507,-9736.43,-1442.27,-2.28474,3.24987,6.72872,-1147.5,9710.66,-256.976,0.688399,1.33452,-1.18635,1108.07,-9656.4,-1747.46,-3.54055,5.12057,-1.67308,9019.97,-501.463,3356.71,0.93851,-0.247953,2.59808
0.085,4895.25,-1665.08,8315.12,-0.299693,1.06456,-1.48728,4936.25,718.126,8279.24,-2.86242,-0.255956,0.186128,60.6342,9473.88,-1640.39,-2.30476,-5.67063,-2.70117,918.741,-9759.23,-1438.79,-2.28818,3.25784,6.79918,-1159.81,9689.95,-269.284,0.700698,1.41229,-1.12842,1112.99,-9660.17,-1749.36,-3.58922,5.09795,-1.76547,9012.52,-504.732,3349.04,0.884025,-0.252906,2.55782
0.086,4898.12,-1680.46,8297.66,-0.261617,1.05803,-1.50115,4955.02,692.212,8239.03,-3.12308,-0.20302,0.18277,65.0344,9473.36,-1640.16,-2.30233,-5.38311,-2.64141,890.568,-9791.13,-1433.3,-2.22089,3.22984,6.88995,-1173.28,9657.49,-290.351,0.680144,1.52107,-1.09081,1130.35,-9669.72,-1759.81,-3.6705,5.07659,-1.83493,9004.15,-504.97,3349.28,0.786941,-0.268792,2.48066
0.087,4901.0,-1695.85,8280.2,-0.223542,1.05151,-1.51502,4973.79,666.298,8198.81,-3.38374,-0.150085,0.179412,69.4346,9472.83,-1639.92,-2.2999,-5.09558,-2.58164,862.395,-9823.02,-1427.8,-2.15359,3.20183,6.98071,-1186.76,9625.04,-311.418,0.659589,1.62985,-1.0532,1147.71,-9679.27,-1770.25,-3.75177,5.05523,-1.90439,8995.78,-505.208,3349.52,0.689856,-0.284678,2.40349
0.088,4903.88,-1711.24,8262.74,-0.185466,1.04499,-1.52889,4992.56,640.384,8158.59,-3.6444,-0.0971491,0.176054,73.8347,9472.31,-1639.68,-2.29747,-4.80805,-2.52188,834.222,-9854.91,-1422.31,-2.0863,3.17383,7.07148,-1200.23,9592.58,-332.485,0.639035,1.73864,-1.01558,1165.07,-9688.82,-1780.7,-3.83304,5.03388,-1.97384,8987.41,-505.445,3349.76,0.592772,-0.300564,2.32633
0.089,4906.02,-1723.43,8245.81,-0.14813,1.04332,-1.54194,5007.1,616.052,8123.25,-3.90151,-0.0486653,0.155761,78.8869,9475.83,-1639.73,-2.29303,-4.52728,-2.46827,809.738,-9883.34,-1417.68,-2.02158,3.14782,7.14925,-1214.95,9563.0,-351.713,0.618706,1.85268,-0.96966,1179.77,-9698.18,-1789.53,-3.90528,5.01243,-2.04417,8979.36,-506.002,3349.13,0.498103,-0.321724,2.2511
0.09,4902.27,-1710.06,8233.12,-0.11671,1.08041,-1.54846,4987.77,604.387,8126.85,-4.13019,-0.0357959,-4.74e-06,89.1552,9511.72,-1642.02,-2.27244,-4.30057,-2.46389,814.764,-9884.04,-1419.91,-1.97751,3.13771,7.12308,-1239.66,9556.44,-356.231,0.600177,2.00883,-0.857233,1173.16,-9706.06,-1785.46,-3.90528,4.99022,-2.12141,8973.91,-509.104,3341.57,0.422759,-0.385072,2.19131
0.091,4898.51,-1696.69,8220.43,-0.0852901,1.1175,-1.55497,4968.44,592.721,8130.46,-4.35888,-0.0229266,-0.155771,99.4235,9547.61,-1644.31,-2.25186,-4.07387,-2.45951,819.789,-9884.75,-1422.14,-1.93344,3.12761,7.0969,-1264.36,9549.87,-360.748,0.581647,2.16499,-0.744806,1166.55,-9713.94,-1781.4,-3.90528,4.96802,-2.19866,8968.45,-512.207,3334.01,0.347415,-0.44842,2.13153
0.092,4894.75,-1683.32,8207.74,-0.0538702,1.1546,-1.56149,4949.11,581.056,8134.07,-4.58756,-0.0100573,-0.311537,109.692,9583.5,-1646.6,-2.23127,-3.84716,-2.45513,824.815,-9885.45,-1424.37,-1.88936,3.11751,7.07073,-1289.06,9543.31,-365.266,0.563118,2.32114,-0.632379,1159.94,-9721.81,-1777.34,-3.90528,4.94582,-2.2759,8962.99,-515.31,3326.45,0.272071,-0.511768,2.07174
0.093,4890.99,-1669.96,8195.05,-0.0224503,1.19169,-1.568,4929.78,569.39,8137.67,-4.81624,0.00281209,-0.467303,119.96,9619.39,-1648.9,-2.21069,-3.62046,-2.45075,829.84,-9886.15,-1426.6,-1.84529,3.1074,7.04456,-1313.76,9536.74,-369.783,0.544589,2.47729,-0.519952,1153.33,-9729.69,-1773.27,-3.90528,4.92362,-2.35315,8957.53,-518.413,3318.89,0.196727,-0.575116,2.01195
0.094,4902.23,-1647.12,8203.96,0.031043,1.19735,-1.58894,4933.64,565.305,8139.69,-4.9925,-0.0662095,-0.495556,118.092,9631.85,-1664.06,-2.1819,-3.46642,-2.46632,832.691,-9884.67,-1444.79,-1.83277,3.13486,7.08316,-1329.0,9543.79,-373.392,0.432878,2.59102,-0.519941,1120.28,-9725.57,-1764.08,-3.89987,4.92933,-2.43291,8968.46,-530.281,3323.94,0.162456,-0.608923,1.91633
0.095,4920.97,-1619.54,8223.66,0.0955729,1.1873,-1.61708,4949.09,565.011,8140.92,-5.14255,-0.176177,-0.460052,110.157,9632.59,-1685.65,-2.149,-3.34871,-2.49187,834.454,-9882.09,-1470.96,-1.83602,3.1811,7.15414,-1339.5,9557.64,-376.547,0.274576,2.68354,-0.576138,1074.02,-9715.46,-1752.33,-3.89176,4.949,-2.51392,8987.57,-546.532,3335.29,0.148723,-0.627961,1.8028
0.096,4939.71,-1591.97,8243.37,0.160103,1.17725,-1.64522,4964.55,564.716,8142.15,-5.29259,-0.286144,-0.424548,102.221,9633.34,-1707.25,-2.1161,-3.231,-2.51742,836.218,-9879.51,-1497.12,-1.83928,3.22734,7.22513,-1350.0,9571.5,-379.702,0.116274,2.77605,-0.632335,1027.75,-9705.35,-1740.58,-3.88365,4.96867,-2.59494,9006.68,-562.783,3346.64,0.134989,-0.646998,1.68926
0.097,4958.45,-1564.39,8263.07,0.224633,1.1672,-1.67337,4980.01,564.422,8143.38,-5.44264,-0.396111,-0.389044,94.2853,9634.08,-1728.85,-2.08319,-3.1133,-2.54297,837.982,-9876.93,-1523.29,-1.84253,3.27358,7.29612,-1360.5,9585.35,-382.857,-0.0420274,2.86857,-0.688531,981.48,-9695.24,-1728.83,-3.87553,4.98834,-2.67595,9025.79,-579.034,3358.0,0.121255,-0.666035,1.57572
0.098,4971.3,-1542.6,8280.71,0.292002,1.1629,-1.69968,4999.34,561.508,8151.65,-5.56418,-0.478563,-0.406604,84.7907,9633.97,-1742.06,-2.04546,-2.99616,-2.55289,836.899,-9871.64,-1541.65,-1.85366,3.31501,7.35991,-1366.71,9597.85,-375.348,-0.189214,2.93576,-0.742502,943.616,-9690.39,-1724.26,-3.86868,5.00458,-2.7501,9042.56,-590.919,3367.58,0.104039,-0.673236,1.47889
0.099,4963.53,-1541.05,8291.14,0.369309,1.17874,-1.71956,5032.21,549.43,8184.55,-5.58596,-0.464715,-0.609887,69.8395,9630.83,-1725.92,-1.99082,-2.88099,-2.50814,825.853,-9856.86,-1532.72,-1.89235,3.33959,7.39849,-1357.95,9605.64,-330.516,-0.2975,2.91429,-0.788681,935.169,-9703.98,-1744.81,-3.8662,5.0088,-2.80021,9051.14,-587.528,3370.96,0.0746324,-0.639012,1.44056
0.1,4955.76,-1539.5,8301.56,0.446615,1.19459,-1.73944,5065.09,537.352,8217.45,-5.60773,-0.450866,-0.813171,54.8884,9627.7,-1709.77,-1.93617,-2.76582,-2.46338,814.808,-9842.08,-1523.78,-1.93104,3.36417,7.43707,-1349.19,9613.43,-285.684,-0.405785,2.89282,-0.83486,926.722,-9717.56,-1765.37,-3.86373,5.01301,-2.85032,9059.72,-584.137,3374.34,0.0452259,-0.604787,1.40223
0.101,4947.99,-1537.95,8311.99,0.523922,1.21043,-1.75932,5097.97,525.273,8250.35,-5.62951,-0.437018,-1.01646,39.9372,9624.56,-1693.63,-1.88153,-2.65065,-2.41862,803.763,-9827.3,-1514.84,-1.96973,3.38875,7.47566,-1340.43,9621.22,-240.852,-0.51407,2.87135,-0.881039,918.275,-9731.14,-1785.93,-3.86125,5.01723,-2.90043,9068.3,-580.746,3377.72,0.0158193,-0.570562,1.36389
0.102,4940.22,-1536.4,8322.41,0.601229,1.22628,-1.7792,5130.84,513.195,8283.25,-5.65129,-0.42317,-1.21974,24.9861,9621.42,-1677.48,-1.82688,-2.53548,-2.37387,792.717,-9812.53,-1505.9,-2.00842,3.41334,7.51424,-1331.66,9629.0,-196.02,-0.622356,2.84988,-0.927219,909.828,-9744.73,-1806.49,-3.85878,5.02145,-2.95054,9076.88,-577.355,3381.1,-0.0135872,-0.536337,1.32556
0.103,4927.37,-1516.65,8314.9,0.570089,1.25062,-1.66038,5143.36,500.056,8284.03,-5.69556,-0.411973,-1.17693,3.96083,9622.26,-1650.28,-1.81743,-2.48353,-2.38079,778.378,-9809.04,-1475.27,-2.07459,3.45645,7.51522,-1363.34,9616.6,-166.163,-0.661112,2.73571,-1.07429,904.3,-9744.7,-1825.53,-3.90485,5.03319,-2.98504,9079.65,-574.232,3370.51,-0.00624745,-0.567326,1.29715
0.104,4913.06,-1491.69,8302.27,0.507966,1.27738,-1.50193,5150.06,486.614,8275.64,-5.74626,-0.401534,-1.0638,-18.7999,9624.24,-1619.92,-1.82089,-2.44964,-2.40249,763.097,-9808.77,-1438.45,-2.14862,3.50486,7.50545,-1406.58,9598.42,-140.585,-0.680004,2.59507,-1.2502,899.606,-9740.78,-1844.14,-3.9648,5.04708,-3.01507,9080.77,-571.186,3355.92,0.0115912,-0.616949,1.27157
0.105,4898.76,-1466.73,8289.63,0.445842,1.30415,-1.34348,5156.77,473.172,8267.25,-5.79696,-0.391095,-0.950678,-41.5606,9626.22,-1589.55,-1.82435,-2.41576,-2.42419,747.816,-9808.51,-1401.63,-2.22264,3.55327,7.49569,-1449.81,9580.24,-115.006,-0.698895,2.45442,-1.4261,894.912,-9736.86,-1862.75,-4.02474,5.06097,-3.04511,9081.89,-568.14,3341.34,0.0294299,-0.666572,1.24599
0.106,4884.45,-1441.77,8277.0,0.383718,1.33092,-1.18502,5163.47,459.73,8258.86,-5.84767,-0.380656,-0.837553,-64.3213,9628.2,-1559.19,-1.82782,-2.38187,-2.44588,732.536,-9808.25,-1364.81,-2.29666,3.60167,7.48592,-1493.05,9562.06,-89.4276,-0.717787,2.31378,-1.60201,890.218,-9732.94,-1881.36,-4.08469,5.07487,-3.07515,9083.0,-565.094,3326.75,0.0472685,-0.716194,1.22042
0.107,4880.16,-1420.71,8269.76,0.309557,1.33631,-1.10969,5164.44,446.527,8264.42,-5.83301,-0.384999,-0.808413,-87.1249,9630.37,-1540.42,-1.84711,-2.40723,-2.42471,728.851,-9806.85,-1349.73,-2.34482,3.63785,7.42645,-1522.4,9556.24,-68.9224,-0.717119,2.18753,-1.70474,884.706,-9736.64,-1895.36,-4.11904,5.06605,-3.07665,9082.43,-564.707,3315.0,0.0999083,-0.779129,1.20348
0.108,4895.9,-1407.45,8273.29,0.211321,1.29894,-1.20058,5153.95,433.804,8297.91,-5.68763,-0.418907,-0.94724,-110.014,9632.92,-1544.84,-1.89808,-2.55109,-2.31781,748.358,-9803.18,-1378.13,-2.34124,3.64957,7.26756,-1523.97,9575.13,-58.564,-0.677333,2.09009,-1.66114,877.559,-9755.57,-1900.12,-4.1022,5.01181,-3.02109,9078.48,-569.641,3308.91,0.22215,-0.868688,1.20383
0.109,4911.63,-1394.18,8276.83,0.113085,1.26157,-1.29146,5143.46,421.081,8331.39,-5.54224,-0.452815,-1.08607,-132.903,9635.48,-1549.26,-1.94905,-2.69495,-2.21091,767.866,-9799.52,-1406.53,-2.33766,3.66129,7.10866,-1525.54,9594.03,-48.2056,-0.637546,1.99265,-1.61754,870.411,-9774.5,-1904.88,-4.08537,4.95758,-2.96552,9074.53,-574.574,3302.82,0.344393,-0.958247,1.20418
0.11,4927.37,-1380.91,8280.36,0.0148491,1.2242,-1.38235,5132.97,408.358,8364.87,-5.39686,-0.486723,-1.22489,-155.793,9638.04,-1553.69,-2.00002,-2.83881,-2.10401,787.373,-9795.85,-1434.92,-2.33408,3.67301,6.94977,-1527.12,9612.92,-37.8472,-0.59776,1.89522,-1.57394,863.264,-9793.43,-1909.64,-4.06853,4.90334,-2.90996,9070.58,-579.508,3296.74,0.466635,-1.04781,1.20453
0.111,4943.1,-1367.65,8283.89,-0.0833869,1.18683,-1.47324,5122.48,395.635,8398.36,-5.25148,-0.520632,-1.36372,-178.682,9640.6,-1558.11,-2.05099,-2.98267,-1.9971,806.881,-9792.19,-1463.32,-2.3305,3.68474,6.79087,-1528.69,9631.82,-27.4888,-0.557974,1.79778,-1.53034,856.116,-9812.36,-1914.4,-4.05169,4.84911,-2.85439,9066.64,-584.441,3290.65,0.588877,-1.13736,1.20488
0.112,4936.81,-1366.53,8290.87,-0.136462,1.17751,-1.46059,5137.09,399.68,8391.33,-5.33336,-0.628948,-1.34222,-164.709,9641.11,-1549.37,-1.92128,-3.18392,-1.9047,795.474,-9804.42,-1447.22,-2.30269,3.63027,6.74234,-1524.98,9613.56,-35.2284,-0.609644,1.54884,-1.5255,841.61,-9828.35,-1932.09,-3.92712,4.69948,-2.82391,9084.0,-589.903,3296.24,0.572595,-1.17934,1.24878
0.113,4927.77,-1366.93,8298.27,-0.183891,1.17169,-1.435,5154.84,405.822,8379.25,-5.44365,-0.746566,-1.30067,-146.128,9641.37,-1538.99,-1.76899,-3.39235,-1.8141,780.203,-9818.64,-1425.55,-2.27185,3.56753,6.7076,-1520.61,9590.67,-45.2303,-0.672745,1.28098,-1.5255,826.184,-9843.98,-1951.4,-3.78909,4.53793,-2.79657,9104.03,-595.431,3303.29,0.538997,-1.21536,1.29812
0.114,4918.72,-1367.33,8305.67,-0.231321,1.16587,-1.4094,5172.59,411.964,8367.16,-5.55393,-0.864184,-1.25913,-127.547,9641.63,-1528.61,-1.61669,-3.60078,-1.7235,764.933,-9832.86,-1403.88,-2.24101,3.50479,6.67286,-1516.23,9567.77,-55.2322,-0.735847,1.01311,-1.5255,810.758,-9859.62,-1970.71,-3.65105,4.37637,-2.76922,9124.06,-600.959,3310.34,0.505399,-1.25138,1.34747
0.115,4909.68,-1367.73,8313.07,-0.27875,1.16006,-1.38381,5190.34,418.105,8355.07,-5.66422,-0.981802,-1.21758,-108.967,9641.9,-1518.23,-1.4644,-3.80921,-1.63291,749.662,-9847.08,-1382.21,-2.21017,3.44204,6.63813,-1511.86,9544.87,-65.2341,-0.798948,0.74524,-1.5255,795.331,-9875.25,-1990.03,-3.51302,4.21482,-2.74188,9144.09,-606.487,3317.39,0.471802,-1.2874,1.39681
0.116,4907.38,-1367.15,8323.47,-0.313147,1.16929,-1.3424,5201.86,410.368,8340.38,-5.83484,-0.976294,-1.18886,-101.28,9645.43,-1506.83,-1.34554,-4.08601,-1.56405,731.645,-9851.46,-1363.74,-2.14063,3.34291,6.56699,-1515.58,9539.31,-77.1191,-0.820067,0.523634,-1.53113,760.607,-9894.08,-1995.09,-3.43479,4.09698,-2.70444,9158.3,-609.304,3324.48,0.423341,-1.28877,1.45108
0.117,4913.51,-1365.36,8337.6,-0.331252,1.19732,-1.28122,5205.58,385.282,8322.44,-6.08089,-0.816879,-1.17618,-107.213,9653.06,-1494.16,-1.26849,-4.44828,-1.52236,710.194,-9843.55,-1349.27,-2.02274,3.19828,6.45037,-1529.43,9555.4,-91.3582,-0.788709,0.359856,-1.54381,701.758,-9916.92,-1982.34,-3.43134,4.0338,-2.65437,9165.25,-608.731,3331.61,0.3563,-1.24683,1.51151
0.118,4919.64,-1363.56,8351.74,-0.349357,1.22535,-1.22005,5209.3,360.196,8304.5,-6.32694,-0.657464,-1.16349,-113.145,9660.69,-1481.49,-1.19144,-4.81054,-1.48068,688.744,-9835.63,-1334.8,-1.90484,3.05365,6.33374,-1543.28,9571.5,-105.597,-0.75735,0.196078,-1.55649,642.91,-9939.77,-1969.59,-3.42788,3.97062,-2.60431,9172.2,-608.159,3338.74,0.28926,-1.20488,1.57193
0.119,4925.77,-1361.76,8365.88,-0.367462,1.25339,-1.15887,5213.02,335.11,8286.55,-6.57298,-0.498049,-1.15081,-119.078,9668.31,-1468.82,-1.11439,-5.17281,-1.43899,667.294,-9827.72,-1320.33,-1.78695,2.90903,6.21712,-1557.12,9587.6,-119.836,-0.725991,0.0322995,-1.56916,584.061,-9962.61,-1956.84,-3.42443,3.90744,-2.55424,9179.15,-607.587,3345.87,0.222219,-1.16293,1.63236
0.12,4931.9,-1359.96,8380.02,-0.385567,1.28142,-1.09769,5216.74,310.025,8268.61,-6.81903,-0.338634,-1.13812,-125.01,9675.94,-1456.14,-1.03734,-5.53507,-1.3973,645.843,-9819.8,-1305.86,-1.66905,2.7644,6.10049,-1570.97,9603.69,-134.075,-0.694632,-0.131479,-1.58184,525.213,-9985.45,-1944.09,-3.42097,3.84426,-2.50418,9186.1,-607.015,3352.99,0.155179,-1.12098,1.69279
0.121,4936.93,-1363.29,8370.68,-0.431715,1.29542,-1.14397,5242.08,281.229,8254.95,-6.92098,-0.30145,-1.31444,-115.551,9674.12,-1459.26,-0.900413,-5.72132,-1.3654,601.002,-9846.68,-1315.34,-1.74263,2.59084,5.92073,-1588.69,9600.78,-128.409,-0.430908,-0.383929,-1.60767,483.218,-9993.51,-1942.12,-3.40735,3.82415,-2.32981,9177.83,-623.504,3334.49,0.205439,-1.13053,1.78883
0.122,4941.97,-1366.61,8361.35,-0.477863,1.30943,-1.19025,5267.42,252.433,8241.3,-7.02292,-0.264265,-1.49075,-106.093,9672.3,-1462.37,-0.763485,-5.90756,-1.33349,556.16,-9873.56,-1324.81,-1.81621,2.41728,5.74098,-1606.4,9597.87,-122.743,-0.167184,-0.636378,-1.6335,441.224,-10001.6,-1940.15,-3.39372,3.80404,-2.15544,9169.57,-639.993,3315.99,0.2557,-1.14007,1.88487
0.123,4947.0,-1369.94,8352.01,-0.524011,1.32343,-1.23653,5292.75,223.637,8227.64,-7.12487,-0.227081,-1.66707,-96.6346,9670.48,-1465.48,-0.626558,-6.0938,-1.30159,511.319,-9900.44,-1334.29,-1.88979,2.24372,5.56122,-1624.12,9594.96,-117.077,0.0965406,-0.888828,-1.65933,399.229,-10009.6,-1938.17,-3.38009,3.78393,-1.98107,9161.31,-656.482,3297.49,0.305961,-1.14961,1.98091
0.124,4952.04,-1373.27,8342.67,-0.57016,1.33743,-1.28281,5318.09,194.841,8213.99,-7.22682,-0.189896,-1.84339,-87.1762,9668.66,-1468.59,-0.489631,-6.28004,-1.26968,466.477,-9927.31,-1343.77,-1.96337,2.07016,5.38146,-1641.84,9592.05,-111.41,0.360265,-1.14128,-1.68516,357.234,-10017.7,-1936.2,-3.36647,3.76382,-1.8067,9153.05,-672.971,3278.99,0.356222,-1.15915,2.07695
0.125,4952.27,-1376.69,8338.28,-0.606082,1.33738,-1.33153,5346.55,191.509,8192.6,-7.39279,-0.151625,-2.05907,-75.2824,9661.01,-1469.45,-0.442266,-6.45334,-1.21243,427.079,-9944.98,-1344.83,-1.96292,1.87062,5.18611,-1647.32,9593.95,-97.6876,0.577886,-1.40525,-1.69026,311.387,-10007.1,-1936.37,-3.31309,3.68654,-1.65491,9156.79,-682.446,3265.91,0.415143,-1.14435,2.13759
0.126,4948.68,-1380.19,8337.84,-0.633824,1.3261,-1.38221,5377.51,208.548,8165.02,-7.60998,-0.112485,-2.30626,-61.4402,9648.69,-1468.49,-0.466551,-6.61628,-1.13491,392.035,-9955.27,-1339.16,-1.90323,1.65028,4.9783,-1643.01,9599.71,-77.5197,0.758625,-1.67845,-1.67877,262.458,-9981.75,-1938.25,-3.2279,3.56351,-1.52119,9170.12,-686.311,3257.18,0.480991,-1.11005,2.16992
0.127,4945.08,-1383.68,8337.41,-0.661565,1.31481,-1.43288,5408.46,225.587,8137.44,-7.82716,-0.0733443,-2.55344,-47.5981,9636.38,-1467.54,-0.490836,-6.77922,-1.05739,356.992,-9965.57,-1333.49,-1.84355,1.42994,4.77048,-1638.71,9605.47,-57.3519,0.939364,-1.95165,-1.66727,213.528,-9956.35,-1940.13,-3.14272,3.44049,-1.38746,9183.46,-690.175,3248.45,0.54684,-1.07576,2.20224
0.128,4941.48,-1387.18,8336.97,-0.689307,1.30353,-1.48356,5439.42,242.626,8109.86,-8.04435,-0.034204,-2.80062,-33.7559,9624.06,-1466.59,-0.515121,-6.94217,-0.979867,321.948,-9975.86,-1327.83,-1.78387,1.20961,4.56266,-1634.41,9611.23,-37.1841,1.1201,-2.22484,-1.65578,164.599,-9930.95,-1942.01,-3.05753,3.31746,-1.25374,9196.79,-694.039,3239.72,0.612688,-1.04147,2.23456
0.129,4938.29,-1388.21,8336.02,-0.724199,1.28172,-1.52717,5470.19,257.672,8088.55,-8.23355,0.0182459,-3.02003,-24.329,9613.65,-1468.61,-0.534453,-7.11087,-0.91251,289.55,-9984.39,-1322.59,-1.72016,0.984895,4.36981,-1629.65,9615.74,-18.0774,1.29042,-2.50386,-1.65817,120.655,-9907.53,-1944.69,-2.98729,3.18425,-1.12514,9209.53,-697.912,3233.25,0.678656,-0.999675,2.26753
0.13,4938.45,-1369.47,8330.96,-0.816295,1.1757,-1.51433,5499.5,256.775,8117.39,-8.19882,0.177172,-3.01717,-50.2242,9618.52,-1494.4,-0.514157,-7.32562,-0.926477,278.319,-9978.78,-1320.82,-1.62416,0.725153,4.29666,-1621.26,9610.28,-7.46008,1.37737,-2.82945,-1.77166,116.6,-9899.89,-1953.82,-3.03658,2.9695,-1.03758,9217.53,-701.847,3244.88,0.74558,-0.897836,2.30575
0.131,4938.6,-1350.73,8325.89,-0.90839,1.06968,-1.50149,5528.8,255.878,8146.23,-8.16409,0.336099,-3.01432,-76.1193,9623.39,-1520.19,-0.493862,-7.54038,-0.940443,267.087,-9973.18,-1319.05,-1.52816,0.465412,4.22351,-1612.88,9604.82,3.15727,1.46431,-3.15504,-1.88514,112.546,-9892.25,-1962.96,-3.08588,2.75475,-0.950013,9225.53,-705.782,3256.51,0.812504,-0.795997,2.34397
0.132,4938.76,-1331.99,8320.82,-1.00049,0.963666,-1.48865,5558.11,254.981,8175.07,-8.12937,0.495025,-3.01146,-102.014,9628.26,-1545.98,-0.473566,-7.75514,-0.95441,255.856,-9967.57,-1317.28,-1.43217,0.20567,4.15036,-1604.49,9599.36,13.7746,1.55126,-3.48062,-1.99863,108.491,-9884.61,-1972.09,-3.13517,2.54,-0.862448,9233.53,-709.718,3268.14,0.879428,-0.694157,2.38218
0.133,4938.91,-1313.25,8315.76,-1.09258,0.85765,-1.47581,5587.41,254.084,8203.91,-8.09464,0.653952,-3.00861,-127.91,9633.13,-1571.78,-0.453271,-7.9699,-0.968376,244.625,-9961.96,-1315.51,-1.33617,-0.0540714,4.07722,-1596.11,9593.9,24.392,1.63821,-3.80621,-2.11211,104.436,-9876.97,-1981.22,-3.18446,2.32525,-0.774883,9241.53,-713.653,3279.77,0.946352,-0.592318,2.4204
0.134,4942.93,-1300.31,8318.24,-1.22804,0.774553,-1.43828,5557.38,251.927,8216.47,-8.1954,0.761264,-3.11245,-137.439,9635.22,-1567.99,-0.468708,-8.10063,-0.934714,244.928,-9955.75,-1317.17,-1.29936,-0.340472,3.94328,-1590.13,9587.33,34.0572,1.79199,-4.13934,-2.13433,98.8644,-9871.89,-1982.97,-3.25704,2.12592,-0.723498,9258.81,-720.13,3283.14,1.01102,-0.470192,2.5256
0.135,4948.88,-1290.26,8324.5,-1.38519,0.702915,-1.38842,5497.68,249.14,8220.88,-8.36391,0.842769,-3.26965,-138.787,9635.93,-1549.41,-0.502011,-8.18934,-0.877238,251.0,-9949.24,-1320.54,-1.29214,-0.640202,3.77894,-1585.35,9580.21,43.2465,1.97918,-4.47623,-2.11091,92.5341,-9868.08,-1981.03,-3.34126,1.93431,-0.690202,9280.75,-727.877,3282.39,1.07456,-0.337922,2.66429
0.136,4954.83,-1280.22,8330.75,-1.54234,0.631277,-1.33855,5437.97,246.353,8225.29,-8.53242,0.924274,-3.42685,-140.134,9636.63,-1530.83,-0.535314,-8.27805,-0.819761,257.071,-9942.73,-1323.92,-1.28493,-0.939931,3.61461,-1580.57,9573.1,52.4357,2.16638,-4.81312,-2.08749,86.2038,-9864.28,-1979.1,-3.42548,1.7427,-0.656906,9302.68,-735.624,3281.64,1.1381,-0.205652,2.80299
0.137,4960.79,-1270.18,8337.01,-1.69948,0.559639,-1.28868,5378.27,243.565,8229.71,-8.70092,1.00578,-3.58404,-141.481,9637.33,-1512.26,-0.568617,-8.36676,-0.762285,263.142,-9936.21,-1327.29,-1.27771,-1.23966,3.45027,-1575.79,9565.98,61.6249,2.35358,-5.15001,-2.06407,79.8734,-9860.47,-1977.16,-3.5097,1.55108,-0.623611,9324.61,-743.371,3280.89,1.20164,-0.0733822,2.94168
0.138,4964.7,-1265.68,8338.35,-1.83596,0.502408,-1.24595,5328.82,239.128,8241.32,-8.84784,1.04927,-3.71979,-137.678,9641.89,-1499.52,-0.605317,-8.47984,-0.723816,266.422,-9931.04,-1330.35,-1.2609,-1.53062,3.26948,-1568.36,9560.79,63.9484,2.54366,-5.4493,-2.04951,74.7745,-9859.22,-1976.87,-3.57939,1.35575,-0.582148,9346.12,-747.331,3281.55,1.25417,0.0402237,3.06798
0.139,4961.5,-1280.61,8322.49,-1.90008,0.495598,-1.22817,5315.26,228.916,8278.12,-8.91916,0.959735,-3.7805,-115.849,9659.92,-1507.26,-0.653906,-8.67818,-0.751874,259.931,-9930.58,-1332.27,-1.21048,-1.79086,3.03107,-1551.69,9562.32,42.2421,2.74383,-5.61695,-2.066,73.9857,-9866.91,-1982.35,-3.59818,1.14738,-0.5121,9366.1,-738.036,3287.15,1.26819,0.0885054,3.15089
0.14,4958.3,-1295.53,8306.64,-1.9642,0.488788,-1.21039,5301.7,218.704,8314.92,-8.99049,0.870196,-3.84121,-94.0195,9677.96,-1514.99,-0.702495,-8.87652,-0.779933,253.441,-9930.11,-1334.19,-1.16007,-2.0511,2.79267,-1535.02,9563.86,20.5358,2.944,-5.78461,-2.08248,73.1969,-9874.6,-1987.84,-3.61698,0.939005,-0.442052,9386.09,-728.741,3292.75,1.28221,0.136787,3.23381
0.141,4955.1,-1310.46,8290.78,-2.02832,0.481978,-1.19261,5288.14,208.492,8351.72,-9.06182,0.780657,-3.90191,-72.1904,9696.0,-1522.72,-0.751084,-9.07486,-0.807991,246.95,-9929.64,-1336.11,-1.10966,-2.31134,2.55427,-1518.34,9565.39,-1.17058,3.14417,-5.95226,-2.09896,72.408,-9882.29,-1993.32,-3.63578,0.730635,-0.372003,9406.07,-719.447,3298.35,1.29622,0.185069,3.31673
0.142,4951.9,-1325.39,8274.92,-2.09244,0.475169,-1.17483,5274.58,198.28,8388.52,-9.13315,0.691118,-3.96262,-50.3613,9714.04,-1530.45,-0.799673,-9.27321,-0.836049,240.459,-9929.17,-1338.03,-1.05924,-2.57159,2.31586,-1501.67,9566.93,-22.8769,3.34434,-6.11991,-2.11544,71.6192,-9889.98,-1998.8,-3.65458,0.522264,-0.301955,9426.06,-710.152,3303.95,1.31024,0.233351,3.39965
0.143,4941.94,-1342.51,8275.85,-2.17492,0.453432,-1.10898,5286.44,203.955,8392.79,-9.24592,0.68417,-4.03857,-34.4225,9729.13,-1551.27,-0.719114,-9.4458,-0.84681,233.366,-9932.78,-1348.77,-1.07335,-2.77702,2.10173,-1474.16,9570.66,-61.7733,3.46594,-6.20261,-2.13826,47.7966,-9894.14,-2012.48,-3.74755,0.341131,-0.172716,9425.44,-700.185,3312.75,1.32359,0.227486,3.4839
0.144,4930.05,-1360.25,8281.58,-2.26265,0.427431,-1.02939,5305.57,214.169,8387.76,-9.37053,0.700819,-4.11889,-20.1666,9743.39,-1575.83,-0.601656,-9.61104,-0.852629,226.102,-9937.57,-1362.03,-1.10588,-2.96679,1.89453,-1443.56,9575.01,-105.581,3.56509,-6.26103,-2.1629,17.3929,-9897.28,-2028.5,-3.86172,0.167781,-0.0265651,9418.94,-690.026,3322.46,1.33676,0.206152,3.56853
0.145,4918.15,-1378.0,8287.31,-2.35038,0.401429,-0.949797,5324.71,224.383,8382.74,-9.49514,0.717469,-4.19921,-5.91064,9757.64,-1600.4,-0.484198,-9.77628,-0.858448,218.838,-9942.35,-1375.3,-1.13842,-3.15657,1.68733,-1412.95,9579.37,-149.389,3.66424,-6.31945,-2.18753,-13.0107,-9900.42,-2044.52,-3.97589,-0.00556951,0.119586,9412.44,-679.867,3332.18,1.34992,0.184817,3.65316
0.146,4906.26,-1395.74,8293.03,-2.43811,0.375428,-0.870206,5343.84,234.597,8377.71,-9.61975,0.734118,-4.27952,8.34529,9771.9,-1624.96,-0.36674,-9.94152,-0.864267,211.574,-9947.13,-1388.56,-1.17095,-3.34634,1.48013,-1382.35,9583.72,-193.197,3.76339,-6.37787,-2.21217,-43.4144,-9903.56,-2060.55,-4.09005,-0.17892,0.265737,9405.93,-669.708,3341.89,1.36308,0.163483,3.73779
0.147,4901.88,-1407.68,8300.49,-2.53364,0.337651,-0.8089,5369.38,245.002,8358.75,-9.73459,0.787384,-4.34168,17.5379,9777.99,-1639.27,-0.28673,-10.0477,-0.895841,204.027,-9951.79,-1402.26,-1.16843,-3.50094,1.26539,-1346.44,9599.61,-229.176,3.79522,-6.40957,-2.23579,-63.1715,-9902.91,-2076.23,-4.19405,-0.308168,0.421999,9404.34,-665.831,3347.83,1.38415,0.16923,3.81868
0.148,4912.51,-1407.99,8311.38,-2.64477,0.276326,-0.784161,5407.76,255.788,8311.93,-9.82987,0.913882,-4.36751,16.6039,9767.76,-1633.06,-0.281618,-10.0358,-0.978924,195.917,-9956.21,-1416.83,-1.09577,-3.5852,1.03556,-1299.9,9638.55,-249.498,3.6924,-6.38785,-2.25739,-61.6354,-9894.66,-2091.25,-4.27771,-0.349211,0.598482,9412.55,-674.515,3346.2,1.42104,0.229139,3.89212
0.149,4923.15,-1408.31,8322.28,-2.7559,0.215,-0.759422,5446.14,266.574,8265.1,-9.92516,1.04038,-4.39335,15.6698,9757.52,-1626.85,-0.276505,-10.0239,-1.06201,187.807,-9960.62,-1431.4,-1.02312,-3.66947,0.805738,-1253.36,9677.49,-269.82,3.58958,-6.36613,-2.27899,-60.0994,-9886.41,-2106.26,-4.36138,-0.390253,0.774966,9420.77,-683.199,3344.57,1.45793,0.289048,3.96555
0.15,4933.79,-1408.63,8333.18,-2.86703,0.153674,-0.734684,5484.51,277.361,8218.28,-10.0204,1.16688,-4.41918,14.7358,9747.29,-1620.65,-0.271393,-10.012,-1.14509,179.696,-9965.04,-1445.97,-0.95046,-3.75373,0.575914,-1206.82,9716.42,-290.141,3.48676,-6.34441,-2.30059,-58.5633,-9878.16,-2121.27,-4.44504,-0.431296,0.951449,9428.98,-691.884,3342.94,1.49482,0.348958,4.03898
0.151,4944.42,-1408.95,8344.08,-2.97816,0.092348,-0.709945,5522.89,288.147,8171.45,-10.1157,1.29338,-4.44502,13.8017,9737.05,-1614.44,-0.26628,-10.0001,-1.22817,171.586,-9969.45,-1460.54,-0.877806,-3.83799,0.346089,-1160.28,9755.36,-310.463,3.38394,-6.32268,-2.32219,-57.0273,-9869.91,-2136.29,-4.52871,-0.472339,1.12793,9437.2,-700.568,3341.31,1.53171,0.408867,4.11241
0.152,4952.58,-1419.89,8341.8,-3.01696,0.0626646,-0.668417,5570.57,303.326,8171.12,-10.2317,1.59004,-4.33282,19.7424,9724.43,-1618.5,-0.263864,-10.105,-1.12226,171.572,-9964.61,-1475.95,-0.884072,-3.6897,0.238338,-1139.21,9761.72,-322.719,3.30955,-6.26158,-2.22767,-50.6301,-9850.44,-2150.47,-4.57934,-0.469919,1.21218,9427.1,-711.214,3347.77,1.57036,0.505146,4.07377
0.153,4960.43,-1432.17,8337.88,-3.04671,0.0369365,-0.624791,5619.41,319.055,8176.6,-10.3503,1.90797,-4.20338,26.5425,9711.51,-1623.84,-0.261785,-10.2245,-0.992711,172.57,-9958.62,-1491.47,-0.900203,-3.51234,0.145847,-1121.32,9764.01,-333.967,3.23872,-6.19557,-2.11865,-43.6252,-9829.58,-2164.54,-4.62585,-0.462066,1.2849,9414.72,-722.104,3355.24,1.60923,0.605971,4.02112
0.154,4968.28,-1444.45,8333.96,-3.07647,0.0112084,-0.581165,5668.25,334.784,8182.09,-10.4688,2.2259,-4.07393,33.3425,9698.58,-1629.18,-0.259706,-10.3439,-0.863166,173.568,-9952.63,-1506.99,-0.916335,-3.33498,0.0533563,-1103.43,9766.3,-345.215,3.16788,-6.12955,-2.00962,-36.6204,-9808.72,-2178.62,-4.67236,-0.454213,1.35762,9402.34,-732.995,3362.72,1.6481,0.706795,3.96847
0.155,4976.13,-1456.72,8330.03,-3.10623,-0.0145197,-0.537539,5717.09,350.512,8187.57,-10.5874,2.54383,-3.94448,40.1425,9685.66,-1634.52,-0.257627,-10.4634,-0.733621,174.566,-9946.63,-1522.5,-0.932466,-3.15762,-0.0391348,-1085.54,9768.59,-356.463,3.09705,-6.06353,-1.90059,-29.6155,-9787.85,-2192.7,-4.71886,-0.446361,1.43034,9389.96,-743.885,3370.19,1.68697,0.80762,3.91582
0.156,4976.3,-1466.15,8322.3,-3.113,-0.0323005,-0.524621,5740.13,354.248,8198.56,-10.5591,2.90371,-3.83784,45.9577,9685.16,-1642.33,-0.309534,-10.5002,-0.688731,176.653,-9937.92,-1548.42,-0.950148,-2.86581,-0.115463,-1065.9,9760.51,-368.245,2.99644,-5.93487,-1.88521,-9.99067,-9770.62,-2196.5,-4.71945,-0.441959,1.48087,9376.79,-742.194,3380.18,1.65501,0.891637,3.87073
0.157,4966.86,-1472.02,8309.81,-3.09106,-0.0401473,-0.550089,5730.93,342.993,8216.44,-10.3473,3.31603,-3.75969,50.5417,9700.19,-1653.24,-0.428924,-10.4337,-0.749659,180.1,-9925.79,-1587.35,-0.969768,-2.43093,-0.171589,-1044.06,9739.48,-380.697,2.8586,-5.72792,-1.98689,25.4092,-9757.92,-2187.48,-4.66264,-0.441871,1.50367,9362.61,-724.776,3393.3,1.53452,0.954645,3.83508
0.158,4957.42,-1477.89,8297.32,-3.06912,-0.047994,-0.575556,5721.73,331.738,8234.32,-10.1354,3.72835,-3.68154,55.1257,9715.21,-1664.14,-0.548313,-10.3672,-0.810587,183.547,-9913.67,-1626.27,-0.989389,-1.99604,-0.227714,-1022.23,9718.45,-393.148,2.72077,-5.52097,-2.08857,60.809,-9745.23,-2178.45,-4.60583,-0.441782,1.52646,9348.44,-707.358,3406.43,1.41403,1.01765,3.79943
0.159,4947.98,-1483.76,8284.83,-3.04717,-0.0558407,-0.601024,5712.53,320.483,8252.2,-9.9236,4.14068,-3.60339,59.7098,9730.24,-1675.04,-0.667702,-10.3007,-0.871514,186.994,-9901.55,-1665.2,-1.00901,-1.56116,-0.28384,-1000.4,9697.41,-405.6,2.58293,-5.31402,-2.19024,96.2088,-9732.53,-2169.42,-4.54902,-0.441694,1.54926,9334.26,-689.94,3419.55,1.29354,1.08066,3.76379
0.16,4938.54,-1489.63,8272.34,-3.02523,-0.0636875,-0.626491,5703.33,309.228,8270.08,-9.71177,4.553,-3.52524,64.2938,9745.26,-1685.95,-0.787092,-10.2342,-0.932442,190.441,-9889.42,-1704.12,-1.02863,-1.12628,-0.339965,-978.562,9676.38,-418.051,2.4451,-5.10707,-2.29192,131.609,-9719.83,-2160.39,-4.4922,-0.441606,1.57205,9320.09,-672.522,3432.68,1.17305,1.14367,3.72814
0.161,4931.23,-1504.73,8264.72,-2.99354,-0.0200486,-0.691862,5746.96,294.713,8288.62,-9.28981,5.02936,-3.47239,87.9111,9732.57,-1695.97,-0.815938,-10.0303,-0.989863,206.713,-9886.75,-1714.8,-0.888616,-0.528234,-0.417305,-942.619,9687.57,-419.138,2.2056,-5.01152,-2.17688,151.586,-9717.73,-2168.32,-4.52185,-0.390679,1.59704,9314.95,-649.733,3442.64,1.05086,1.17466,3.76355
0.162,4923.92,-1519.83,8257.11,-2.96185,0.0235902,-0.757234,5790.6,280.198,8307.16,-8.86786,5.50573,-3.41953,111.528,9719.88,-1705.99,-0.844785,-9.82628,-1.04728,222.986,-9884.08,-1725.48,-0.748602,0.0698099,-0.494644,-906.677,9698.76,-420.224,1.9661,-4.91597,-2.06184,171.562,-9715.63,-2176.25,-4.55151,-0.339751,1.62204,9309.82,-626.944,3452.6,0.928664,1.20566,3.79896
0.163,4916.6,-1534.93,8249.5,-2.93016,0.067229,-0.822605,5834.24,265.682,8325.7,-8.44591,5.9821,-3.36668,135.146,9707.19,-1716.01,-0.873632,-9.62232,-1.1047,239.258,-9881.41,-1736.15,-0.608589,0.667854,-0.571983,-870.734,9709.95,-421.31,1.72661,-4.82042,-1.94679,191.539,-9713.53,-2184.17,-4.58116,-0.288824,1.64703,9304.68,-604.155,3462.56,0.80647,1.23665,3.83436
0.164,4909.29,-1550.03,8241.88,-2.89847,0.110868,-0.887976,5877.88,251.167,8344.24,-8.02395,6.45847,-3.31382,158.763,9694.5,-1726.03,-0.902479,-9.41835,-1.16212,255.531,-9878.74,-1746.83,-0.468575,1.2659,-0.649323,-834.792,9721.14,-422.397,1.48711,-4.72487,-1.83175,211.516,-9711.42,-2192.1,-4.61081,-0.237896,1.67202,9299.54,-581.365,3472.52,0.684277,1.26764,3.86977
0.165,4907.82,-1552.62,8241.36,-2.83667,0.104716,-0.889892,5929.98,245.027,8358.14,-7.59397,6.99912,-3.1847,164.564,9692.3,-1725.96,-0.947074,-9.19783,-1.19809,266.494,-9875.75,-1757.86,-0.358135,1.87616,-0.726142,-820.741,9719.53,-425.022,1.36662,-4.54086,-1.72122,228.88,-9715.67,-2197.12,-4.62296,-0.211236,1.62305,9297.38,-571.812,3478.15,0.641565,1.30311,3.86524
0.166,4911.03,-1545.21,8246.5,-2.75078,0.0587311,-0.841043,5988.87,245.588,8368.33,-7.15756,7.59119,-2.99456,156.112,9698.52,-1717.82,-1.00427,-8.96406,-1.2169,273.209,-9872.51,-1769.17,-0.271352,2.4962,-0.802546,-824.205,9707.67,-428.879,1.34135,-4.28607,-1.61429,244.154,-9725.0,-2199.81,-4.62111,-0.203991,1.51492,9297.61,-572.848,3480.33,0.662438,1.34216,3.82874
0.167,4914.24,-1537.8,8251.65,-2.66489,0.0127464,-0.792195,6047.75,246.149,8378.52,-6.72115,8.18327,-2.80442,147.66,9704.73,-1709.68,-1.06146,-8.7303,-1.23571,279.924,-9869.27,-1780.48,-0.18457,3.11624,-0.878949,-827.668,9695.82,-432.736,1.31607,-4.03128,-1.50736,259.427,-9734.34,-2202.5,-4.61926,-0.196746,1.40678,9297.83,-573.884,3482.51,0.68331,1.38121,3.79225
0.168,4917.44,-1530.39,8256.8,-2.57901,-0.0332383,-0.743347,6106.63,246.709,8388.71,-6.28474,8.77535,-2.61428,139.208,9710.94,-1701.54,-1.11865,-8.49653,-1.25452,286.639,-9866.03,-1791.79,-0.0977876,3.73629,-0.955353,-831.131,9683.96,-436.593,1.29079,-3.7765,-1.40043,274.701,-9743.67,-2205.19,-4.61741,-0.1895,1.29865,9298.05,-574.92,3484.68,0.704183,1.42026,3.75576
0.169,4920.23,-1523.92,8261.26,-2.48257,-0.088042,-0.684787,6156.9,249.373,8397.35,-5.846,9.32396,-2.40708,132.204,9710.91,-1698.13,-1.17077,-8.25605,-1.27923,292.097,-9862.87,-1797.97,-0.0273574,4.32827,-1.01879,-834.825,9671.89,-441.779,1.26049,-3.52041,-1.29819,294.928,-9751.95,-2203.58,-4.60263,-0.186086,1.18927,9297.97,-575.507,3486.3,0.712775,1.46798,3.72843
0.17,4919.66,-1524.94,8260.22,-2.30173,-0.213397,-0.548541,6138.24,268.859,8393.56,-5.38866,9.52482,-2.06339,136.793,9660.98,-1732.58,-1.18222,-7.96181,-1.35115,287.496,-9860.33,-1763.15,-0.0877448,4.69579,-0.978533,-840.359,9658.09,-457.594,1.18996,-3.25393,-1.23351,354.775,-9751.85,-2167.61,-4.48441,-0.213317,1.06995,9295.43,-572.507,3483.49,0.623127,1.58503,3.77444
0.171,4919.09,-1525.95,8259.18,-2.12089,-0.338753,-0.412294,6119.58,288.345,8389.77,-4.93133,9.72568,-1.71969,141.382,9611.05,-1767.03,-1.19367,-7.66756,-1.42307,282.895,-9857.79,-1728.33,-0.148132,5.06331,-0.938272,-845.894,9644.28,-473.409,1.11943,-2.98744,-1.16882,414.621,-9751.74,-2131.63,-4.3662,-0.240549,0.950638,9292.89,-569.507,3480.68,0.533478,1.70207,3.82046
0.172,4918.52,-1526.97,8258.15,-1.94005,-0.464108,-0.276047,6100.92,307.832,8385.98,-4.47399,9.92655,-1.37599,145.97,9561.13,-1801.48,-1.20513,-7.37332,-1.49498,278.293,-9855.25,-1693.51,-0.20852,5.43083,-0.898011,-851.428,9630.47,-489.224,1.04891,-2.72095,-1.10413,474.468,-9751.63,-2095.66,-4.24798,-0.26778,0.831321,9290.36,-566.507,3477.86,0.44383,1.81911,3.86647
0.173,4917.95,-1527.99,8257.11,-1.75921,-0.589463,-0.139801,6082.26,327.318,8382.19,-4.01665,10.1274,-1.0323,150.559,9511.2,-1835.93,-1.21658,-7.07908,-1.5669,273.692,-9852.71,-1658.69,-0.268907,5.79835,-0.85775,-856.962,9616.66,-505.04,0.978382,-2.45447,-1.03945,534.315,-9751.52,-2059.69,-4.12977,-0.295012,0.712004,9287.82,-563.507,3475.05,0.354182,1.93616,3.91248
0.174,4919.43,-1532.74,8249.1,-1.56218,-0.722528,-0.0808954,6020.25,321.626,8379.57,-3.46677,10.3469,-0.454031,140.047,9525.16,-1842.62,-1.27533,-6.88706,-1.57583,267.271,-9849.01,-1630.52,-0.322626,6.11672,-0.792914,-846.933,9604.81,-525.499,0.951524,-2.14127,-1.015,595.68,-9753.29,-2043.4,-3.95122,-0.30396,0.644481,9267.81,-561.961,3483.72,0.223357,2.00138,3.8947
0.175,4921.94,-1539.36,8237.61,-1.35705,-0.859446,-0.0606609,5936.55,303.346,8377.54,-2.8706,10.5757,0.24152,121.984,9571.08,-1835.43,-1.35772,-6.74614,-1.55327,259.94,-9844.73,-1605.66,-0.37301,6.41052,-0.71579,-829.123,9593.94,-548.28,0.9465,-1.80471,-1.01066,657.804,-9756.01,-2036.97,-3.74252,-0.303768,0.602855,9239.06,-561.144,3498.14,0.0719454,2.04069,3.84502
0.176,4924.45,-1545.98,8226.12,-1.15192,-0.996365,-0.0404264,5852.85,285.065,8375.51,-2.27443,10.8046,0.93707,103.921,9616.99,-1828.25,-1.44011,-6.60523,-1.53071,252.609,-9840.46,-1580.8,-0.423394,6.70432,-0.638667,-811.312,9583.06,-571.062,0.941476,-1.46816,-1.00633,719.928,-9758.73,-2030.53,-3.53381,-0.303576,0.561229,9210.31,-560.326,3512.56,-0.0794667,2.08,3.79535
0.177,4926.96,-1552.6,8214.63,-0.946791,-1.13328,-0.0201918,5769.16,266.784,8373.48,-1.67827,11.0334,1.63262,85.8588,9662.9,-1821.07,-1.5225,-6.46432,-1.50815,245.278,-9836.18,-1555.94,-0.473778,6.99811,-0.561543,-793.501,9572.19,-593.844,0.936452,-1.1316,-1.002,782.052,-9761.44,-2024.09,-3.3251,-0.303383,0.519603,9181.56,-559.508,3526.98,-0.230879,2.11931,3.74567
0.178,4931.56,-1559.19,8207.86,-0.747557,-1.26242,-0.00551685,5695.68,239.047,8370.92,-1.06222,11.2776,2.3031,70.2601,9696.71,-1816.42,-1.61616,-6.23718,-1.50521,242.761,-9833.69,-1538.8,-0.511726,7.28319,-0.497838,-776.202,9564.49,-611.98,0.891313,-0.805922,-1.00749,838.726,-9764.42,-2017.2,-3.11863,-0.284547,0.473129,9155.38,-559.085,3539.84,-0.351356,2.14978,3.68035
0.179,4943.5,-1565.65,8217.58,-0.568958,-1.36429,-0.0103003,5657.99,178.212,8366.49,-0.37659,11.5754,2.88585,63.2848,9688.14,-1820.67,-1.74924,-5.70825,-1.57095,257.089,-9837.46,-1548.68,-0.506145,7.53777,-0.481093,-760.692,9567.93,-613.858,0.705773,-0.518315,-1.04735,876.325,-9768.34,-2008.76,-2.92,-0.200455,0.409688,9138.15,-560.042,3547.27,-0.36356,2.14932,3.56024
0.18,4955.43,-1572.11,8227.3,-0.390359,-1.46617,-0.0150838,5620.3,117.377,8362.07,0.309043,11.8732,3.46859,56.3096,9679.57,-1824.92,-1.88231,-5.17933,-1.63669,271.417,-9841.23,-1558.55,-0.500563,7.79234,-0.464349,-745.182,9571.38,-615.737,0.520233,-0.230707,-1.08721,913.924,-9772.26,-2000.31,-2.72136,-0.116363,0.346248,9120.93,-561.0,3554.7,-0.375764,2.14885,3.44013
0.181,4967.37,-1578.58,8237.02,-0.211759,-1.56805,-0.0198673,5582.61,56.5424,8357.64,0.994675,12.171,4.05133,49.3344,9670.99,-1829.17,-2.01539,-4.6504,-1.70243,285.746,-9845.0,-1568.42,-0.494982,8.04692,-0.447605,-729.672,9574.82,-617.616,0.334693,0.0569003,-1.12708,951.523,-9776.18,-1991.86,-2.52273,-0.0322712,0.282807,9103.7,-561.958,3562.13,-0.387968,2.14839,3.32003
0.182,4979.31,-1585.04,8246.74,-0.03316,-1.66993,-0.0246508,5544.92,-4.29249,8353.21,1.68031,12.4688,4.63408,42.3591,9662.42,-1833.42,-2.14846,-4.12147,-1.76817,300.074,-9848.78,-1578.3,-0.4894,8.30149,-0.430861,-714.161,9578.26,-619.494,0.149154,0.344508,-1.16694,989.122,-9780.09,-1983.41,-2.32409,0.0518206,0.219366,9086.48,-562.915,3569.56,-0.400173,2.14793,3.19992
0.183,4977.6,-1593.62,8238.92,0.0856449,-1.70741,-0.0735873,5551.41,-76.7644,8364.02,2.34542,12.875,4.9388,38.894,9654.0,-1847.69,-2.29552,-3.86865,-1.77232,306.586,-9864.44,-1559.3,-0.447598,8.35767,-0.386578,-718.994,9599.64,-604.909,-0.0404575,0.626618,-1.09169,1025.73,-9793.13,-1975.45,-2.23268,0.156943,0.180692,9084.53,-555.145,3568.86,-0.476899,2.14988,3.13231
0.184,4972.0,-1602.8,8226.08,0.187366,-1.72648,-0.135139,5570.53,-152.561,8379.17,3.00466,13.312,5.16409,36.4317,9645.63,-1864.82,-2.44658,-3.69472,-1.75888,310.863,-9883.49,-1532.05,-0.395448,8.35716,-0.334428,-729.638,9626.14,-585.619,-0.231232,0.907158,-0.983546,1062.06,-9808.78,-1967.63,-2.17191,0.268074,0.149093,9086.95,-544.881,3565.84,-0.572061,2.15251,3.0797
0.185,4966.4,-1611.99,8213.25,0.289086,-1.74556,-0.196691,5589.65,-228.358,8394.33,3.6639,13.7491,5.38937,33.9695,9637.26,-1881.95,-2.59763,-3.52079,-1.74543,315.141,-9902.55,-1504.81,-0.343297,8.35665,-0.282277,-740.282,9652.65,-566.329,-0.422006,1.1877,-0.875404,1098.39,-9824.42,-1959.82,-2.11114,0.379205,0.117495,9089.37,-534.617,3562.82,-0.667223,2.15514,3.0271
0.186,4960.8,-1621.17,8200.42,0.390807,-1.76463,-0.258242,5608.77,-304.155,8409.49,4.32315,14.1862,5.61466,31.5072,9628.89,-1899.08,-2.74869,-3.34686,-1.73199,319.419,-9921.61,-1477.56,-0.291146,8.35614,-0.230126,-750.927,9679.15,-547.04,-0.61278,1.46824,-0.767262,1134.72,-9840.06,-1952.0,-2.05036,0.490336,0.0858964,9091.79,-524.353,3559.8,-0.762385,2.15777,2.97449
0.187,4957.84,-1627.91,8199.01,0.48341,-1.76524,-0.279504,5616.72,-345.352,8424.09,4.85766,14.618,5.77628,43.579,9628.19,-1908.66,-2.86763,-3.22248,-1.73012,315.926,-9937.42,-1440.13,-0.231364,8.29157,-0.146441,-755.061,9695.69,-526.576,-0.775947,1.67797,-0.670037,1174.4,-9848.18,-1946.3,-2.0155,0.623832,0.0740916,9086.76,-523.923,3558.01,-0.865024,2.12938,2.96525
0.188,4960.18,-1629.74,8220.45,0.55778,-1.72894,-0.220187,5602.33,-317.352,8437.57,5.14274,15.0393,5.81056,84.719,9642.82,-1903.13,-2.92233,-3.19719,-1.7514,296.894,-9946.73,-1382.34,-0.15632,8.09889,0.000312368,-746.175,9692.31,-503.764,-0.883899,1.74609,-0.594647,1220.8,-9841.23,-1944.86,-2.03245,0.802061,0.101874,9066.83,-543.158,3558.67,-0.982616,2.03893,3.04276
0.189,4962.52,-1631.56,8241.9,0.632149,-1.69264,-0.16087,5587.94,-289.352,8451.05,5.42781,15.4606,5.84483,125.859,9657.46,-1897.6,-2.97704,-3.1719,-1.77268,277.861,-9956.05,-1324.54,-0.0812753,7.9062,0.147066,-737.289,9688.92,-480.953,-0.991851,1.81421,-0.519257,1267.19,-9834.29,-1943.42,-2.0494,0.98029,0.129657,9046.9,-562.394,3559.34,-1.10021,1.94848,3.12028
0.19,4964.86,-1633.39,8263.34,0.706519,-1.65634,-0.101554,5573.55,-261.352,8464.53,5.71288,15.8819,5.87911,166.999,9672.1,-1892.07,-3.03175,-3.14661,-1.79396,258.828,-9965.36,-1266.75,-0.00623087,7.71352,0.293819,-728.402,9685.54,-458.141,-1.0998,1.88232,-0.443867,1313.58,-9827.34,-1941.98,-2.06635,1.15852,0.15744,9026.97,-581.63,3560.01,-1.2178,1.85804,3.19779
0.191,4967.2,-1635.22,8284.79,0.780888,-1.62004,-0.0422366,5559.17,-233.351,8478.01,5.99795,16.3032,5.91339,208.139,9686.73,-1886.54,-3.08645,-3.12133,-1.81524,239.796,-9974.67,-1208.95,0.0688135,7.52084,0.440573,-719.516,9682.16,-435.33,-1.20776,1.95044,-0.368477,1359.98,-9820.4,-1940.54,-2.0833,1.33675,0.185223,9007.04,-600.866,3560.68,-1.33539,1.76759,3.2753
0.192,4971.82,-1624.31,8304.62,0.900152,-1.67763,-0.00468026,5564.17,-179.674,8471.36,6.33656,16.5655,6.21879,185.872,9699.53,-1861.69,-3.03012,-3.18353,-1.87547,217.483,-9978.95,-1174.23,0.0819148,7.21397,0.487323,-755.066,9676.08,-425.306,-1.25552,1.88629,-0.363479,1366.45,-9832.53,-1937.29,-2.09395,1.60709,0.206234,8978.33,-591.745,3562.93,-1.38704,1.68807,3.21965
0.193,4976.74,-1611.79,8324.25,1.02503,-1.74696,0.030156,5571.6,-122.786,8462.19,6.68187,16.8078,6.55808,155.679,9712.1,-1834.43,-2.9599,-3.25667,-1.94056,194.761,-9982.6,-1142.39,0.0872732,6.89283,0.521573,-796.169,9669.66,-416.88,-1.29575,1.8056,-0.367279,1367.93,-9847.05,-1933.81,-2.10381,1.88895,0.2264,8948.52,-579.079,3565.37,-1.43044,1.60992,3.14736
0.194,4981.65,-1599.28,8343.88,1.1499,-1.81629,0.0649923,5579.03,-65.8987,8453.03,7.02717,17.0501,6.89737,125.487,9724.67,-1807.17,-2.88968,-3.32981,-2.00565,172.038,-9986.24,-1110.55,0.0926316,6.57168,0.555823,-837.273,9663.25,-408.454,-1.33599,1.72491,-0.37108,1369.41,-9861.57,-1930.32,-2.11367,2.1708,0.246566,8918.72,-566.413,3567.82,-1.47384,1.53176,3.07507
0.195,4986.56,-1586.77,8363.52,1.27478,-1.88561,0.0998286,5586.46,-9.01125,8443.86,7.37248,17.2925,7.23666,95.294,9737.24,-1779.9,-2.81947,-3.40295,-2.07074,149.316,-9989.89,-1078.71,0.09799,6.25054,0.590073,-878.377,9656.83,-400.029,-1.37623,1.64422,-0.374881,1370.89,-9876.09,-1926.84,-2.12353,2.45266,0.266731,8888.91,-553.748,3570.26,-1.51724,1.45361,3.00277
0.196,4974.84,-1573.06,8363.54,1.4,-1.94529,0.0858155,5576.58,36.5804,8439.29,7.70616,17.4769,7.44684,68.5441,9731.09,-1767.93,-2.8274,-3.38544,-2.10418,136.542,-10005.5,-1069.11,0.0716194,5.94837,0.615785,-914.471,9656.4,-398.959,-1.36098,1.54191,-0.30164,1373.34,-9894.87,-1918.96,-2.16161,2.74087,0.284108,8872.69,-548.947,3572.77,-1.57321,1.40732,2.9014
0.197,4942.31,-1557.86,8339.03,1.52565,-1.99289,0.0107406,5545.06,68.0524,8440.47,8.02533,17.5889,7.49561,46.0976,9701.56,-1775.07,-2.93302,-3.25462,-2.09806,136.203,-10036.0,-1087.3,0.00558745,5.6699,0.630825,-944.302,9663.46,-407.083,-1.27638,1.41259,-0.132097,1377.0,-9918.98,-1905.57,-2.23495,3.03704,0.297999,8873.47,-553.976,3575.34,-1.64489,1.40087,2.76366
0.198,4909.79,-1542.67,8314.53,1.65129,-2.04049,-0.0643342,5513.54,99.5245,8441.66,8.3445,17.7009,7.54439,23.6512,9672.03,-1782.22,-3.03864,-3.12381,-2.09194,135.865,-10066.5,-1105.49,-0.0604445,5.39143,0.645864,-974.133,9670.51,-415.207,-1.19179,1.28326,0.0374464,1380.66,-9943.1,-1892.18,-2.3083,3.3332,0.311891,8874.24,-559.006,3577.92,-1.71657,1.39441,2.62593
0.199,4877.27,-1527.47,8290.03,1.77694,-2.0881,-0.139409,5482.02,130.996,8442.84,8.66367,17.8129,7.59316,1.20473,9642.5,-1789.36,-3.14426,-2.99299,-2.08582,135.526,-10097.0,-1123.68,-0.126476,5.11296,0.660904,-1003.96,9677.57,-423.331,-1.10719,1.15394,0.20699,1384.33,-9967.21,-1878.8,-2.38164,3.62937,0.325782,8875.02,-564.036,3580.49,-1.78824,1.38795,2.48819
0.2,4844.74,-1512.27,8265.53,1.90259,-2.1357,-0.214484,5450.5,162.468,8444.02,8.98283,17.9249,7.64194,-21.2417,9612.97,-1796.5,-3.24988,-2.86217,-2.0797,135.187,-10127.5,-1141.87,-0.192508,4.83449,0.675944,-1033.8,9684.63,-431.456,-1.02259,1.02462,0.376533,1387.99,-9991.32,-1865.41,-2.45499,3.92553,0.339674,8875.79,-569.065,3583.07,-1.85992,1.3815,2.35046
0.201,4841.78,-1533.17,8268.22,2.01134,-2.17897,-0.149026,5400.87,156.364,8476.73,9.35065,18.1733,7.5433,-22.9267,9622.24,-1805.4,-3.26005,-2.91356,-2.06581,162.726,-10135.1,-1140.63,-0.198283,4.61603,0.688611,-1052.17,9673.95,-431.867,-1.06091,1.18964,0.480934,1387.98,-9979.95,-1835.67,-2.45692,4.06042,0.409151,8889.31,-574.081,3588.05,-1.84987,1.35966,2.30694
0.202,4838.81,-1554.06,8270.92,2.1201,-2.22224,-0.0835675,5351.25,150.259,8509.43,9.71846,18.4216,7.44467,-24.6116,9631.51,-1814.3,-3.27022,-2.96496,-2.05191,190.265,-10142.6,-1139.4,-0.204058,4.39756,0.701277,-1070.54,9663.27,-432.279,-1.09924,1.35466,0.585335,1387.97,-9968.58,-1805.93,-2.45884,4.19531,0.478629,8902.84,-579.096,3593.03,-1.83983,1.33781,2.26342
0.203,4835.84,-1574.96,8273.62,2.22886,-2.26551,-0.0181093,5301.62,144.155,8542.14,10.0863,18.6699,7.34603,-26.2966,9640.78,-1823.2,-3.28039,-3.01635,-2.03802,217.803,-10150.2,-1138.16,-0.209833,4.1791,0.713944,-1088.91,9652.58,-432.691,-1.13756,1.51968,0.689736,1387.95,-9957.2,-1776.18,-2.46077,4.3302,0.548107,8916.36,-584.111,3598.0,-1.82978,1.31597,2.2199
0.204,4832.87,-1595.85,8276.31,2.33761,-2.30878,0.0473489,5252.0,138.05,8574.85,10.4541,18.9183,7.2474,-27.9816,9650.05,-1832.1,-3.29056,-3.06775,-2.02412,245.342,-10157.7,-1136.92,-0.215608,3.96063,0.72661,-1107.28,9641.9,-433.103,-1.17588,1.6847,0.794137,1387.94,-9945.83,-1746.44,-2.4627,4.4651,0.617585,8929.88,-589.127,3602.98,-1.81973,1.29413,2.17638
0.205,4842.6,-1613.33,8279.13,2.41677,-2.34565,0.0758859,5235.33,137.363,8588.46,10.7662,19.145,7.21515,-32.1129,9651.3,-1822.3,-3.33818,-3.13637,-2.04615,292.012,-10153.3,-1126.33,-0.258456,3.8362,0.754576,-1127.46,9630.4,-444.401,-1.20255,1.89754,0.880059,1373.45,-9937.04,-1722.77,-2.45133,4.6035,0.674191,8941.75,-592.82,3594.2,-1.8926,1.30161,2.12415
0.206,4862.48,-1628.07,8282.04,2.47226,-2.37741,0.0748859,5245.02,141.011,8586.8,11.0339,19.3543,7.236,-38.2013,9646.12,-1797.54,-3.41577,-3.21878,-2.09691,353.988,-10139.3,-1108.27,-0.330963,3.787,0.79478,-1149.09,9618.23,-464.407,-1.2199,2.14863,0.951199,1347.38,-9930.32,-1703.97,-2.42933,4.74472,0.720499,8952.3,-595.456,3574.4,-2.03181,1.33254,2.06494
0.207,4882.36,-1642.81,8284.95,2.52774,-2.40916,0.0738859,5254.72,144.659,8585.14,11.3015,19.5637,7.25686,-44.2897,9640.93,-1772.77,-3.49336,-3.30119,-2.14767,415.964,-10125.3,-1090.22,-0.403471,3.73779,0.834984,-1170.71,9606.06,-484.413,-1.23725,2.39972,1.02234,1321.31,-9923.6,-1685.16,-2.40733,4.88595,0.766808,8962.85,-598.091,3554.6,-2.17101,1.36347,2.00574
0.208,4902.24,-1657.55,8287.86,2.58322,-2.44091,0.072886,5264.41,148.307,8583.48,11.5691,19.773,7.27772,-50.3781,9635.75,-1748.01,-3.57094,-3.3836,-2.19843,477.94,-10111.3,-1072.16,-0.475978,3.68859,0.875188,-1192.34,9593.89,-504.42,-1.2546,2.65082,1.09348,1295.24,-9916.87,-1666.36,-2.38533,5.02717,0.813117,8973.4,-600.727,3534.81,-2.31021,1.3944,1.94653
0.209,4919.07,-1669.05,8288.4,2.64037,-2.47259,0.0597917,5278.07,151.592,8581.97,11.8306,20.0073,7.3086,-55.2608,9631.11,-1725.71,-3.6419,-3.43264,-2.23226,534.787,-10096.9,-1055.83,-0.554021,3.64411,0.918294,-1212.61,9585.12,-523.044,-1.26971,2.90015,1.16901,1270.43,-9911.76,-1649.97,-2.36582,5.17923,0.870809,8985.23,-604.64,3517.64,-2.44122,1.41937,1.87545
0.21,4911.52,-1654.67,8269.99,2.71084,-2.50369,-0.0500571,5323.46,151.969,8581.7,12.0435,20.4409,7.41975,-50.498,9630.73,-1723.12,-3.65978,-3.21479,-2.13068,550.598,-10079.6,-1053.35,-0.676355,3.63747,0.984622,-1221.97,9603.58,-530.607,-1.267,3.13535,1.27972,1255.71,-9919.58,-1652.89,-2.36617,5.41802,1.01957,9007.31,-618.77,3521.47,-2.50673,1.39665,1.70937
0.211,4903.96,-1640.28,8251.57,2.78132,-2.53479,-0.159906,5368.85,152.346,8581.43,12.2565,20.8745,7.5309,-45.7352,9630.36,-1720.52,-3.67767,-2.99693,-2.0291,566.41,-10062.3,-1050.88,-0.798688,3.63082,1.05095,-1231.34,9622.04,-538.171,-1.26429,3.37056,1.39042,1240.98,-9927.38,-1655.82,-2.36652,5.65681,1.16834,9029.38,-632.9,3525.3,-2.57223,1.37392,1.54329
0.212,4896.4,-1625.89,8233.15,2.85179,-2.56588,-0.269755,5414.24,152.723,8581.16,12.4694,21.3081,7.64205,-40.9724,9629.98,-1717.93,-3.69556,-2.77907,-1.92752,582.221,-10045.0,-1048.4,-0.921022,3.62418,1.11728,-1240.7,9640.5,-545.734,-1.26157,3.60577,1.50112,1226.26,-9935.2,-1658.75,-2.36687,5.8956,1.3171,9051.46,-647.03,3529.13,-2.63774,1.3512,1.37722
0.213,4888.84,-1611.5,8214.74,2.92226,-2.59698,-0.379603,5459.63,153.101,8580.89,12.6823,21.7417,7.75319,-36.2097,9629.6,-1715.33,-3.71345,-2.56122,-1.82593,598.032,-10027.7,-1045.92,-1.04336,3.61754,1.18361,-1250.06,9658.96,-553.298,-1.25886,3.84097,1.61182,1211.54,-9943.0,-1661.67,-2.36722,6.13439,1.46586,9073.54,-661.161,3532.96,-2.70324,1.32847,1.21114
0.214,4887.6,-1601.45,8212.17,2.96051,-2.56704,-0.419864,5486.56,157.937,8571.73,12.7052,22.0899,7.97791,-45.558,9618.38,-1712.35,-3.65794,-2.35765,-1.84175,586.516,-10021.9,-1060.6,-1.14695,3.47885,1.17469,-1272.41,9661.83,-550.702,-1.30619,4.01583,1.65337,1190.21,-9944.94,-1664.75,-2.36567,6.43125,1.56418,9072.38,-679.199,3539.69,-2.72528,1.27467,1.0794
0.215,4889.52,-1593.56,8217.52,2.98265,-2.50659,-0.425331,5504.26,165.003,8558.13,12.6333,22.3953,8.25941,-61.9619,9601.73,-1709.18,-3.56573,-2.16121,-1.91627,561.337,-10021.8,-1083.85,-1.24118,3.27415,1.12816,-1301.25,9656.91,-543.026,-1.37853,4.16052,1.66034,1165.59,-9943.94,-1667.92,-2.36316,6.75713,1.63726,9059.6,-699.192,3547.88,-2.72558,1.20532,0.964827
0.216,4891.44,-1585.67,8222.88,3.00479,-2.44613,-0.430798,5521.96,172.07,8544.52,12.5613,22.7007,8.5409,-78.3658,9585.07,-1706.01,-3.47353,-1.96478,-1.99078,536.157,-10021.7,-1107.09,-1.33541,3.06944,1.08162,-1330.08,9651.99,-535.349,-1.45088,4.30521,1.66732,1140.96,-9942.94,-1671.08,-2.36066,7.08301,1.71035,9046.83,-719.184,3556.07,-2.72588,1.13598,0.850256
0.217,4893.36,-1577.78,8228.23,3.02693,-2.38568,-0.436265,5539.66,179.136,8530.92,12.4893,23.0061,8.8224,-94.7696,9568.42,-1702.84,-3.38132,-1.76835,-2.0653,510.977,-10021.5,-1130.34,-1.42964,2.86473,1.03509,-1358.92,9647.07,-527.673,-1.52322,4.4499,1.67429,1116.33,-9941.94,-1674.24,-2.35816,7.4089,1.78344,9034.05,-739.177,3564.25,-2.72619,1.06663,0.735685
0.218,4895.01,-1568.54,8235.14,3.03625,-2.32241,-0.437202,5551.63,207.821,8512.81,12.3148,23.1688,9.56725,-103.912,9553.93,-1697.07,-3.32081,-1.58427,-2.1,484.691,-10017.4,-1155.97,-1.53367,2.66331,0.987471,-1385.9,9638.13,-522.463,-1.59589,4.57986,1.66383,1091.94,-9942.66,-1678.52,-2.3822,7.71326,1.85584,9022.48,-749.142,3571.19,-2.71685,1.00572,0.635381
0.219,4895.73,-1554.55,8247.49,3.00074,-2.24928,-0.422288,5543.53,312.17,8478.95,11.7817,22.8321,11.9338,-87.6376,9547.03,-1682.21,-3.37126,-1.44345,-1.99537,454.534,-9998.98,-1189.9,-1.67201,2.47335,0.936063,-1406.35,9615.14,-525.886,-1.66971,4.65823,1.59231,1068.35,-9949.44,-1686.71,-2.49915,7.94233,1.92581,9015.14,-724.01,3573.77,-2.67381,0.974317,0.585008
0.22,4896.46,-1540.57,8259.84,2.96522,-2.17616,-0.407373,5535.44,416.52,8445.09,11.2487,22.4953,14.3004,-71.3634,9540.12,-1667.34,-3.42171,-1.30263,-1.89075,424.376,-9980.6,-1223.83,-1.81035,2.28339,0.884654,-1426.81,9592.15,-529.309,-1.74352,4.7366,1.5208,1044.77,-9956.22,-1694.89,-2.6161,8.17139,1.99579,9007.8,-698.878,3576.35,-2.63076,0.942917,0.534635
0.221,4897.18,-1526.58,8272.19,2.9297,-2.10304,-0.392459,5527.34,520.87,8411.22,10.7156,22.1585,16.667,-55.0892,9533.21,-1652.48,-3.47215,-1.16181,-1.78612,394.219,-9962.22,-1257.75,-1.94869,2.09343,0.833246,-1447.26,9569.16,-532.732,-1.81733,4.81497,1.44929,1021.19,-9963.0,-1703.08,-2.73306,8.40046,2.06576,9000.46,-673.747,3578.92,-2.58771,0.911516,0.484261
0.222,4897.91,-1512.59,8284.54,2.89418,-2.02991,-0.377544,5519.25,625.22,8377.36,10.1826,21.8217,19.0336,-38.8151,9526.3,-1637.62,-3.5226,-1.02099,-1.68149,364.061,-9943.83,-1291.68,-2.08703,1.90347,0.781837,-1467.72,9546.17,-536.155,-1.89115,4.89334,1.37777,997.601,-9969.78,-1711.27,-2.85001,8.62952,2.13574,8993.12,-648.615,3581.5,-2.54466,0.880116,0.433888
0.223,4899.63,-1508.86,8278.71,2.84776,-1.98902,-0.432759,5479.53,478.821,8357.21,10.3749,21.6257,23.0143,-28.2669,9543.74,-1614.14,-3.47131,-0.828757,-1.59293,315.931,-9950.01,-1319.09,-2.21157,1.52266,0.781059,-1480.02,9540.85,-520.168,-1.96731,4.86447,1.29135,1001.85,-9971.19,-1707.87,-3.03007,8.73402,2.26614,9013.68,-638.945,3565.81,-2.54105,0.877325,0.352898
0.224,4901.64,-1508.07,8267.68,2.79823,-1.95735,-0.508012,5430.78,260.78,8340.98,10.7744,21.4698,27.4562,-19.3547,9568.13,-1588.21,-3.39094,-0.621833,-1.50896,262.666,-9963.19,-1344.64,-2.33217,1.08732,0.794747,-1489.98,9540.59,-498.636,-2.04414,4.80495,1.20068,1014.06,-9971.06,-1701.16,-3.22815,8.80294,2.4138,9042.2,-633.692,3544.91,-2.54871,0.882708,0.26316
0.225,4903.65,-1507.27,8256.66,2.7487,-1.92568,-0.583264,5382.02,42.7393,8324.76,11.174,21.314,31.8981,-10.4425,9592.53,-1562.28,-3.31058,-0.414908,-1.42498,209.401,-9976.38,-1370.18,-2.45277,0.651984,0.808435,-1499.95,9540.32,-477.104,-2.12098,4.74543,1.11,1026.26,-9970.93,-1694.44,-3.42624,8.87185,2.56146,9070.73,-628.439,3524.0,-2.55638,0.888091,0.173421
0.226,4905.66,-1506.47,8245.63,2.69917,-1.894,-0.658516,5333.27,-175.302,8308.53,11.5736,21.1581,36.3401,-1.53029,9616.92,-1536.34,-3.23022,-0.207983,-1.34101,156.136,-9989.57,-1395.73,-2.57337,0.216647,0.822123,-1509.91,9540.05,-455.572,-2.19781,4.68591,1.01932,1038.47,-9970.81,-1687.73,-3.62433,8.94076,2.70913,9099.25,-623.186,3503.09,-2.56404,0.893474,0.0836829
0.227,4908.1,-1504.12,8236.51,2.63691,-1.86245,-0.689255,5281.6,-613.377,8331.46,12.2231,21.3834,39.8841,10.8742,9637.93,-1517.19,-3.19007,-0.0327761,-1.24809,86.2245,-10003.7,-1339.86,-2.3488,-0.755053,0.844385,-1517.85,9539.75,-440.65,-2.28257,4.62701,0.93672,1043.46,-9970.01,-1673.92,-3.74861,8.87416,2.81691,9119.07,-621.738,3477.87,-2.54721,0.895175,0.0357021
0.228,4911.39,-1498.67,8231.18,2.54918,-1.83115,-0.630966,5224.07,-1491.52,8432.7,13.3725,22.3711,41.6325,30.2632,9652.17,-1511.59,-3.23036,0.0789961,-1.13729,-16.9806,-10019.6,-1121.18,-1.43389,-2.79948,0.883798,-1521.72,9539.39,-438.948,-2.38316,4.56934,0.870264,1034.04,-9967.9,-1645.91,-3.72526,8.53655,2.84495,9121.47,-627.902,3444.0,-2.48139,0.889513,0.071236
0.229,4914.69,-1493.21,8225.85,2.46146,-1.79985,-0.572678,5166.55,-2369.66,8533.95,14.5219,23.3588,43.3809,49.6522,9666.42,-1506.0,-3.27065,0.190768,-1.02649,-120.186,-10035.5,-902.497,-0.518987,-4.8439,0.923211,-1525.6,9539.03,-437.246,-2.48375,4.51166,0.803808,1024.62,-9965.78,-1617.89,-3.70192,8.19894,2.87299,9123.86,-634.065,3410.14,-2.41558,0.88385,0.10677
0.23,4917.98,-1487.75,8220.53,2.37374,-1.76854,-0.514389,5109.03,-3247.81,8635.2,15.6713,24.3466,45.1293,69.0412,9680.66,-1500.4,-3.31093,0.302541,-0.915691,-223.391,-10051.4,-683.815,0.39592,-6.88833,0.962624,-1529.47,9538.67,-435.544,-2.58435,4.45399,0.737352,1015.19,-9963.66,-1589.88,-3.67858,7.86132,2.90102,9126.26,-640.228,3376.28,-2.34976,0.878188,0.142304
0.231,4921.28,-1482.3,8215.2,2.28602,-1.73724,-0.456101,5051.5,-4125.95,8736.45,16.8208,25.3343,46.8777,88.4303,9694.9,-1494.81,-3.35122,0.414313,-0.804891,-326.596,-10067.3,-465.133,1.31083,-8.93275,1.00204,-1533.35,9538.31,-433.842,-2.68494,4.39632,0.670895,1005.77,-9961.54,-1561.86,-3.65523,7.52371,2.92906,9128.65,-646.391,3342.42,-2.28394,0.872526,0.177838
0.232,4929.44,-1472.28,8220.99,2.22866,-1.77246,-0.376817,5012.22,-4312.44,8789.69,16.5068,26.3123,47.124,55.1061,9693.63,-1512.0,-3.31794,0.392297,-0.730823,-421.545,-10111.1,-266.1,2.45379,-11.2777,1.13721,-1553.3,9533.12,-415.638,-2.77937,4.39069,0.584918,994.05,-9949.32,-1513.86,-3.47648,6.82718,2.98385,9134.58,-660.342,3354.68,-2.27486,0.797934,0.127205
0.233,4938.2,-1461.7,8228.16,2.1751,-1.816,-0.29491,4975.22,-4412.48,8836.93,16.01,27.2891,47.1826,15.1928,9690.42,-1532.04,-3.27547,0.353557,-0.661346,-515.463,-10158.4,-69.5225,3.62527,-13.6603,1.28435,-1575.26,9527.31,-395.371,-2.87302,4.39156,0.496501,982.041,-9935.83,-1463.35,-3.27831,6.08579,3.04199,9140.96,-675.267,3372.72,-2.27287,0.714726,0.0658003
0.234,4946.96,-1451.12,8235.34,2.12154,-1.85953,-0.213002,4938.22,-4512.52,8884.17,15.5132,28.2659,47.2412,-24.7205,9687.21,-1552.08,-3.233,0.314818,-0.59187,-609.38,-10205.7,127.055,4.79674,-16.0428,1.43149,-1597.22,9521.51,-375.104,-2.96668,4.39243,0.408083,970.032,-9922.35,-1412.85,-3.08013,5.3444,3.10013,9147.33,-690.192,3390.74,-2.27087,0.631518,0.00439612
0.235,4955.73,-1440.54,8242.51,2.06799,-1.90307,-0.131095,4901.21,-4612.56,8931.41,15.0163,29.2427,47.2998,-64.6338,9684.0,-1572.12,-3.19052,0.276078,-0.522393,-703.297,-10253.0,323.632,5.96822,-18.4254,1.57864,-1619.18,9515.71,-354.836,-3.06034,4.3933,0.319666,958.023,-9908.87,-1362.35,-2.88196,4.60301,3.15827,9153.7,-705.116,3408.78,-2.26888,0.54831,-0.0570081
0.236,4961.45,-1435.92,8245.23,2.06173,-1.94941,-0.13875,4869.12,-4359.02,8967.72,15.0364,29.9818,47.5776,-91.3463,9682.58,-1571.49,-3.12531,0.327216,-0.453077,-757.994,-10314.8,433.785,6.71673,-20.7113,1.45879,-1641.67,9516.78,-334.636,-3.13454,4.4049,0.207448,938.786,-9889.11,-1308.29,-2.69771,3.80631,3.21533,9149.87,-705.649,3429.55,-2.31305,0.448306,-0.110882
0.237,4963.38,-1438.77,8242.38,2.1146,-1.99927,-0.258358,4843.17,-3663.49,8990.38,15.7027,30.4238,48.1296,-101.558,9683.38,-1545.02,-3.03166,0.490699,-0.383963,-763.664,-10394.9,435.906,6.93653,-22.8763,1.0052,-1664.83,9526.46,-314.519,-3.18444,4.4299,0.0654804,910.515,-9861.51,-1249.78,-2.53086,2.94046,3.27105,9133.27,-688.19,3453.75,-2.41493,0.327307,-0.155343
0.238,4965.3,-1441.62,8239.52,2.16747,-2.04912,-0.377967,4817.22,-2967.97,9013.03,16.3689,30.8658,48.6816,-111.77,9684.19,-1518.56,-2.93802,0.654183,-0.314849,-769.335,-10475.0,438.027,7.15633,-25.0414,0.551617,-1687.98,9536.13,-294.402,-3.23434,4.4549,-0.0764873,882.243,-9833.91,-1191.27,-2.36401,2.07462,3.32676,9116.68,-670.731,3477.96,-2.51681,0.206308,-0.199804
0.239,4967.22,-1444.46,8236.67,2.22033,-2.09898,-0.497575,4791.26,-2272.45,9035.68,17.0351,31.3078,49.2336,-121.981,9685.0,-1492.09,-2.84437,0.817666,-0.245734,-775.005,-10555.1,440.148,7.37613,-27.2064,0.0980313,-1711.14,9545.81,-274.285,-3.28424,4.47991,-0.218455,853.971,-9806.31,-1132.77,-2.19717,1.20877,3.38248,9100.08,-653.273,3502.16,-2.61869,0.0853093,-0.244265
0.24,4969.15,-1447.31,8233.81,2.2732,-2.14884,-0.617184,4765.31,-1576.92,9058.33,17.7014,31.7498,49.7856,-132.193,9685.8,-1465.63,-2.75073,0.98115,-0.17662,-780.676,-10635.2,442.269,7.59593,-29.3715,-0.355554,-1734.3,9555.48,-254.168,-3.33414,4.50491,-0.360423,825.7,-9778.71,-1074.26,-2.03032,0.342927,3.4382,9083.49,-635.814,3526.36,-2.72057,-0.0356896,-0.288726
0.241,4982.17,-1444.94,8252.64,2.24304,-2.16809,-0.494378,4699.4,-1041.99,8995.92,17.7742,31.7515,50.3826,-156.733,9677.03,-1468.4,-2.78502,1.02336,-0.117342,-709.526,-10570.2,330.236,7.33407,-31.2796,-1.08677,-1733.43,9562.35,-261.955,-3.31796,4.44603,-0.438804,776.164,-9792.43,-1029.03,-1.93839,-0.494638,3.62574,9091.96,-618.638,3519.29,-2.79447,-0.00773828,-0.31278
0.242,4995.19,-1442.58,8271.47,2.21288,-2.18735,-0.371573,4633.5,-507.055,8933.51,17.847,31.7533,50.9796,-181.274,9668.25,-1471.18,-2.81932,1.06558,-0.0580647,-638.376,-10505.1,218.203,7.07221,-33.1878,-1.81798,-1732.57,9569.22,-269.742,-3.30178,4.38716,-0.517185,726.629,-9806.16,-983.787,-1.84647,-1.3322,3.81328,9100.43,-601.462,3512.22,-2.86837,0.020213,-0.336834
0.243,5008.21,-1440.21,8290.3,2.18272,-2.20661,-0.248767,4567.59,27.8793,8871.1,17.9198,31.755,51.5766,-205.814,9659.47,-1473.95,-2.85361,1.10779,0.00121305,-567.226,-10440.1,106.169,6.81034,-35.0959,-2.5492,-1731.7,9576.09,-277.53,-3.2856,4.32828,-0.595566,677.093,-9819.88,-938.549,-1.75454,-2.16977,4.00083,9108.89,-584.286,3505.14,-2.94226,0.0481643,-0.360888
0.244,5021.22,-1437.84,8309.13,2.15256,-2.22587,-0.125962,4501.68,562.813,8808.69,17.9927,31.7567,52.1735,-230.355,9650.69,-1476.73,-2.8879,1.15001,0.0604908,-496.076,-10375.0,-5.86413,6.54848,-37.0041,-3.28041,-1730.84,9582.96,-285.317,-3.26942,4.2694,-0.673946,627.557,-9833.61,-893.311,-1.66262,-3.00733,4.18837,9117.36,-567.11,3498.07,-3.01616,0.0761156,-0.384942
0.245,5027.99,-1419.54,8327.16,2.18772,-2.3236,0.0416894,4472.3,860.733,8754.26,18.0481,31.6943,52.1799,-245.898,9655.24,-1472.02,-2.81977,1.19772,0.168668,-372.493,-10317.5,-115.915,6.21931,-38.3043,-3.92129,-1736.48,9584.38,-287.577,-3.252,4.19254,-0.753436,562.531,-9838.67,-868.491,-1.55131,-3.71807,4.33338,9135.47,-572.18,3486.3,-2.99379,0.117561,-0.411043
0.246,5029.74,-1388.5,8344.54,2.27514,-2.48411,0.245218,4472.15,969.04,8706.21,18.0897,31.5808,51.7138,-254.243,9670.46,-1461.34,-2.6697,1.24983,0.315966,-206.964,-10266.0,-224.379,5.8363,-39.1182,-4.4899,-1747.34,9581.44,-285.416,-3.23359,4.1013,-0.833811,485.111,-9836.79,-860.004,-1.4245,-4.32735,4.44436,9161.29,-595.047,3470.79,-2.89439,0.169803,-0.438781
0.247,5031.5,-1357.45,8361.92,2.36256,-2.64461,0.448746,4471.99,1077.35,8658.17,18.1313,31.4672,51.2477,-262.588,9685.67,-1450.65,-2.51962,1.30194,0.463263,-41.4351,-10214.5,-332.843,5.45328,-39.932,-5.05851,-1758.19,9578.5,-283.255,-3.21518,4.01006,-0.914187,407.691,-9834.92,-851.518,-1.29768,-4.93663,4.55535,9187.11,-617.914,3455.27,-2.795,0.222044,-0.46652
0.248,5033.26,-1326.41,8379.3,2.44998,-2.80512,0.652275,4471.84,1185.66,8610.12,18.1729,31.3537,50.7816,-270.932,9700.89,-1439.97,-2.36955,1.35405,0.610561,124.094,-10163.0,-441.307,5.07027,-40.7459,-5.62711,-1769.04,9575.56,-281.094,-3.19677,3.91881,-0.994562,330.271,-9833.04,-843.031,-1.17087,-5.54591,4.66633,9212.92,-640.781,3439.76,-2.69561,0.274285,-0.494258
0.249,5033.21,-1296.76,8395.05,2.53619,-2.96288,0.850957,4480.86,1274.02,8563.47,18.2078,31.2388,50.2128,-274.055,9711.75,-1427.74,-2.22554,1.39788,0.747174,292.991,-10113.6,-555.351,4.70611,-41.4477,-6.15633,-1779.54,9570.58,-278.482,-3.1677,3.81771,-1.07848,252.66,-9835.76,-838.042,-1.05521,-6.13056,4.77285,9235.16,-662.604,3424.82,-2.59496,0.319531,-0.519671
0.25,5018.78,-1278.27,8397.74,2.61275,-3.09858,1.01088,4563.32,1202.83,8528.01,18.1888,31.1135,48.8226,-235.396,9687.87,-1403.18,-2.12999,1.37538,0.798317,488.827,-10081.4,-714.034,4.49285,-41.2527,-6.37038,-1787.25,9549.2,-272.254,-3.05326,3.63776,-1.19078,173.517,-9875.2,-861.039,-1.02878,-6.51817,4.84369,9228.7,-676.081,3414.51,-2.48426,0.308817,-0.526481
0.251,5004.34,-1259.79,8400.43,2.68931,-3.23429,1.17079,4645.79,1131.64,8492.55,18.1699,30.9882,47.4325,-196.738,9663.98,-1378.62,-2.03444,1.35289,0.849459,684.664,-10049.2,-872.717,4.27958,-41.0577,-6.58442,-1794.95,9527.82,-266.027,-2.93882,3.4578,-1.30307,94.3737,-9914.65,-884.035,-1.00235,-6.90577,4.91453,9222.24,-689.558,3404.2,-2.37355,0.298103,-0.533291
0.252,4989.9,-1241.3,8403.12,2.76586,-3.37,1.33071,4728.25,1060.45,8457.08,18.151,30.8629,46.0423,-158.08,9640.09,-1354.06,-1.93889,1.3304,0.900602,880.501,-10017.0,-1031.4,4.06631,-40.8627,-6.79847,-1802.66,9506.44,-259.799,-2.82438,3.27785,-1.41536,15.2305,-9954.09,-907.032,-0.975928,-7.29337,4.98537,9215.78,-703.035,3393.89,-2.26285,0.287389,-0.5401
0.253,4975.46,-1222.82,8405.81,2.84242,-3.50571,1.49063,4810.71,989.262,8421.62,18.132,30.7376,44.6522,-119.421,9616.21,-1329.5,-1.84334,1.30791,0.951745,1076.34,-9984.78,-1190.08,3.85305,-40.6676,-7.01252,-1810.37,9485.06,-253.572,-2.70994,3.0979,-1.52765,-63.9126,-9993.54,-930.028,-0.949502,-7.68097,5.05621,9209.32,-716.512,3383.58,-2.15214,0.276675,-0.54691
0.254,4968.88,-1233.13,8386.92,2.862,-3.60312,1.6107,4885.89,975.182,8393.28,17.9995,30.5619,43.1098,-100.548,9626.04,-1331.3,-1.76655,1.19236,1.08891,1176.58,-9907.82,-1318.69,3.52087,-39.903,-6.90092,-1803.38,9472.63,-249.724,-2.57408,2.958,-1.63262,-149.228,-10027.3,-952.871,-0.992159,-7.97313,5.01678,9195.0,-727.022,3391.54,-2.09294,0.247542,-0.626943
0.255,4966.22,-1257.83,8357.25,2.85309,-3.68139,1.71084,4957.44,989.657,8368.5,17.8101,30.3609,41.4914,-91.5676,9652.74,-1346.29,-1.69912,1.03028,1.26909,1229.03,-9808.49,-1432.25,3.12923,-38.8535,-6.62649,-1789.04,9464.68,-247.066,-2.4275,2.83813,-1.73393,-237.629,-10058.3,-975.638,-1.06936,-8.21758,4.92223,9176.76,-736.049,3408.63,-2.05948,0.2092,-0.743588
0.256,4963.57,-1282.53,8327.57,2.84418,-3.75966,1.81098,5028.99,1004.13,8343.73,17.6207,30.16,39.8729,-82.5869,9679.44,-1361.28,-1.63169,0.868202,1.44927,1281.48,-9709.16,-1545.81,2.73759,-37.8041,-6.35207,-1774.7,9456.73,-244.408,-2.28093,2.71827,-1.83523,-326.03,-10089.3,-998.405,-1.14656,-8.46202,4.82768,9158.51,-745.075,3425.72,-2.02602,0.170857,-0.860232
0.257,4960.92,-1307.23,8297.89,2.83527,-3.83793,1.91112,5100.54,1018.61,8318.95,17.4314,29.959,38.2544,-73.6063,9706.13,-1376.26,-1.56427,0.706124,1.62944,1333.93,-9609.83,-1659.38,2.34596,-36.7546,-6.07764,-1760.36,9448.78,-241.75,-2.13436,2.5984,-1.93654,-414.431,-10120.2,-1021.17,-1.22376,-8.70646,4.73313,9140.27,-754.102,3442.81,-1.99256,0.132515,-0.976877
0.258,4958.71,-1332.24,8275.62,2.83129,-3.92937,1.98323,5158.73,1062.76,8293.25,17.2493,29.75,36.5964,-74.9705,9730.55,-1387.56,-1.50362,0.523072,1.76773,1369.61,-9526.79,-1755.41,1.97183,-35.6511,-5.81941,-1748.05,9443.32,-239.546,-2.00178,2.48079,-2.01824,-488.605,-10153.1,-1042.89,-1.31434,-8.96075,4.65157,9128.71,-758.803,3453.04,-1.96584,0.112547,-1.0633
0.259,4958.1,-1358.31,8279.24,2.84458,-4.06692,1.95724,5170.14,1210.79,8264.3,17.0927,29.5125,34.8001,-112.541,9747.0,-1385.94,-1.4667,0.266609,1.75939,1346.59,-9500.76,-1790.06,1.65898,-34.3587,-5.61789,-1742.8,9446.56,-238.931,-1.9182,2.37111,-2.03129,-512.985,-10192.6,-1060.93,-1.45176,-9.24948,4.61546,9140.56,-748.364,3439.29,-1.96271,0.156889,-1.04396
0.26,4957.48,-1384.38,8282.87,2.85786,-4.20446,1.93126,5181.56,1358.81,8235.35,16.9361,29.275,33.0037,-150.112,9763.45,-1384.32,-1.42978,0.0101469,1.75105,1323.57,-9474.74,-1824.71,1.34613,-33.0662,-5.41636,-1737.55,9449.8,-238.315,-1.83462,2.26142,-2.04434,-537.365,-10232.1,-1078.98,-1.58918,-9.53821,4.57935,9152.41,-737.925,3425.54,-1.95959,0.201231,-1.02463
0.261,4956.86,-1410.45,8286.5,2.87115,-4.34201,1.90527,5192.97,1506.84,8206.4,16.7795,29.0375,31.2074,-187.683,9779.9,-1382.7,-1.39286,-0.246316,1.74271,1300.55,-9448.71,-1859.36,1.03329,-31.7737,-5.21484,-1732.3,9453.03,-237.7,-1.75103,2.15173,-2.05739,-561.746,-10271.6,-1097.03,-1.7266,-9.82694,4.54324,9164.25,-727.486,3411.79,-1.95646,0.245574,-1.00529
0.262,4956.24,-1436.52,8290.13,2.88443,-4.47956,1.87929,5204.39,1654.86,8177.45,16.6229,28.8,29.411,-225.254,9796.35,-1381.08,-1.35594,-0.502778,1.73437,1277.53,-9422.69,-1894.02,0.720438,-30.4812,-5.01331,-1727.05,9456.27,-237.084,-1.66745,2.04205,-2.07044,-586.126,-10311.2,-1115.07,-1.86402,-10.1157,4.50713,9176.1,-717.047,3398.04,-1.95333,0.289916,-0.985948
0.263,4933.36,-1433.13,8314.08,2.96618,-4.70396,1.9626,5198.51,1794.59,8160.05,16.356,28.5749,27.664,-221.15,9783.53,-1385.85,-1.35115,-0.58244,1.67481,1256.88,-9452.88,-1948.03,0.506432,-29.2869,-4.80551,-1714.95,9470.48,-250.436,-1.58971,1.97974,-2.1003,-574.273,-10310.5,-1153.83,-2.196,-10.468,4.24793,9201.46,-719.3,3394.78,-1.83413,0.235197,-0.919249
0.264,4904.12,-1421.33,8343.84,3.06748,-4.95317,2.07713,5187.7,1931.93,8145.95,16.0575,28.3533,25.9312,-205.139,9762.36,-1392.45,-1.35555,-0.611588,1.60061,1236.9,-9499.13,-2007.58,0.320667,-28.1206,-4.5959,-1700.91,9487.83,-267.778,-1.51363,1.93098,-2.13497,-552.069,-10298.4,-1198.5,-2.58356,-10.8386,3.92499,9230.68,-725.18,3394.52,-1.68176,0.152175,-0.83902
0.265,4874.88,-1409.53,8373.6,3.16878,-5.20239,2.19167,5176.88,2069.28,8131.86,15.759,28.1316,24.1983,-189.128,9741.19,-1399.05,-1.35994,-0.640736,1.52642,1216.93,-9545.39,-2067.13,0.134902,-26.9543,-4.3863,-1686.86,9505.17,-285.12,-1.43755,1.88221,-2.16963,-529.864,-10286.3,-1243.18,-2.97113,-11.2091,3.60205,9259.9,-731.06,3394.25,-1.52939,0.0691525,-0.75879
0.266,4845.64,-1397.73,8403.36,3.27008,-5.4516,2.30621,5166.06,2206.63,8117.76,15.4606,27.91,22.4654,-173.117,9720.01,-1405.65,-1.36434,-0.669883,1.45222,1196.96,-9591.64,-2126.68,-0.0508635,-25.788,-4.17669,-1672.82,9522.52,-302.462,-1.36147,1.83344,-2.20429,-507.66,-10274.2,-1287.85,-3.3587,-11.5796,3.27911,9289.12,-736.94,3393.99,-1.37703,-0.0138698,-0.678561
0.267,4821.03,-1378.11,8428.6,3.38697,-5.71796,2.44881,5154.75,2309.6,8108.28,15.061,27.6577,20.8264,-155.607,9692.66,-1418.38,-1.33897,-0.705241,1.45364,1166.31,-9629.94,-2164.1,-0.267288,-24.6368,-3.98992,-1658.69,9538.71,-310.394,-1.29248,1.77255,-2.225,-472.197,-10263.3,-1345.57,-3.72958,-11.939,2.98477,9305.28,-742.833,3399.74,-1.19603,-0.0704073,-0.615708
0.268,4805.68,-1342.84,8444.8,3.53503,-6.0186,2.64755,5142.43,2343.8,8108.03,14.4593,27.3438,19.3751,-135.098,9652.94,-1443.37,-1.25408,-0.753019,1.6063,1114.32,-9652.32,-2157.27,-0.54503,-23.5156,-3.8488,-1644.41,9552.61,-299.503,-1.23768,1.68742,-2.21779,-410.218,-10254.7,-1429.36,-4.06709,-12.2762,2.74762,9295.32,-748.75,3417.51,-0.957766,-0.0739755,-0.587609
0.269,4790.34,-1307.56,8461.0,3.68308,-6.31925,2.84629,5130.12,2377.99,8107.78,13.8576,27.0298,17.9239,-114.59,9613.23,-1468.36,-1.16918,-0.800797,1.75896,1062.34,-9674.71,-2150.44,-0.822772,-22.3944,-3.70768,-1630.12,9566.51,-288.613,-1.18288,1.60229,-2.21059,-348.238,-10246.1,-1513.16,-4.4046,-12.6133,2.51047,9285.36,-754.666,3435.29,-0.719504,-0.0775437,-0.559509
0.27,4775.0,-1272.29,8477.2,3.83114,-6.61989,3.04503,5117.8,2412.19,8107.53,13.2558,26.7159,16.4726,-94.0818,9573.51,-1493.34,-1.08429,-0.848575,1.91162,1010.35,-9697.09,-2143.61,-1.10051,-21.2733,-3.56656,-1615.83,9580.41,-277.722,-1.12807,1.51715,-2.20338,-286.259,-10237.6,-1596.96,-4.74211,-12.9504,2.27333,9275.41,-760.583,3453.06,-0.481243,-0.0811118,-0.53141
0.271,4759.65,-1237.02,8493.41,3.97919,-6.92054,3.24377,5105.49,2446.39,8107.28,12.6541,26.402,15.0213,-73.5736,9533.79,-1518.33,-0.999392,-0.896352,2.06428,958.358,-9719.48,-2136.79,-1.37826,-20.1521,-3.42545,-1601.55,9594.31,-266.832,-1.07327,1.43202,-2.19618,-224.279,-10229.0,-1680.75,-5.07962,-13.2875,2.03618,9265.45,-766.5,3470.84,-0.242982,-0.08468,-0.50331
0.272,4780.48,-1231.98,8501.93,4.106,-7.19151,3.47219,5080.16,2410.02,8121.52,12.0734,26.1082,13.7885,-70.9146,9595.55,-1524.57,-0.897495,-0.994125,2.2859,946.859,-9753.98,-2144.48,-1.53606,-18.9753,-3.25259,-1580.22,9598.9,-252.094,-1.10557,1.27675,-2.20245,-129.7,-10170.0,-1771.93,-5.38579,-13.4873,1.78677,9255.3,-757.79,3447.59,-0.252587,-0.0901877,-0.289409
0.273,4805.82,-1230.73,8509.5,4.23015,-7.45877,3.70431,5053.21,2364.84,8137.57,11.4954,25.8169,12.583,-70.4868,9669.99,-1528.46,-0.793472,-1.09815,2.51613,940.42,-9789.99,-2154.0,-1.67886,-17.7916,-3.07576,-1558.01,9602.32,-236.875,-1.14876,1.11271,-2.21041,-31.0464,-10104.7,-1864.02,-5.68804,-13.6699,1.53583,9245.14,-747.252,3419.21,-0.293175,-0.0959378,-0.0522831
0.274,4831.17,-1229.48,8517.06,4.3543,-7.72603,3.93643,5026.26,2319.65,8153.62,10.9173,25.5255,11.3776,-70.0591,9744.42,-1532.35,-0.68945,-1.20217,2.74637,933.982,-9826.0,-2163.51,-1.82167,-16.6078,-2.89893,-1535.8,9605.74,-221.657,-1.19195,0.948677,-2.21837,67.6075,-10039.4,-1956.12,-5.99029,-13.8525,1.28489,9234.97,-736.714,3390.84,-0.333764,-0.101688,0.184843
0.275,4856.52,-1228.23,8524.63,4.47845,-7.99329,4.16855,4999.31,2274.47,8169.67,10.3392,25.2342,10.1721,-69.6313,9818.86,-1536.25,-0.585428,-1.30619,2.97661,927.544,-9862.01,-2173.02,-1.96448,-15.4241,-2.7221,-1513.59,9609.16,-206.438,-1.23514,0.784641,-2.22633,166.261,-9974.15,-2048.21,-6.29254,-14.0351,1.03395,9224.8,-726.175,3362.46,-0.374352,-0.107438,0.421969
0.276,4876.46,-1232.45,8515.96,4.57109,-8.1886,4.39138,4960.82,2213.99,8178.15,9.78087,24.9743,9.10039,-70.8146,9847.26,-1534.53,-0.477839,-1.42202,3.09587,939.778,-9877.1,-2177.22,-2.14394,-14.3392,-2.62207,-1493.55,9613.91,-206.926,-1.24104,0.644007,-2.23633,276.38,-9921.61,-2137.84,-6.51074,-14.0652,0.766302,9213.4,-714.821,3351.27,-0.395981,-0.111773,0.617848
0.277,4889.64,-1243.49,8487.0,4.62433,-8.29397,4.60258,4907.89,2134.39,8177.14,9.24709,24.7537,8.1959,-74.012,9818.12,-1525.82,-0.365791,-1.55262,3.07641,975.351,-9866.05,-2174.76,-2.36921,-13.3778,-2.61804,-1476.23,9620.33,-227.047,-1.20034,0.532624,-2.24889,400.83,-9885.0,-2224.37,-6.62388,-13.9047,0.477782,9200.46,-702.446,3361.55,-0.393909,-0.11434,0.762168
0.278,4902.82,-1254.53,8458.05,4.67758,-8.39933,4.81379,4854.96,2054.79,8176.14,8.71331,24.5331,7.2914,-77.2093,9788.97,-1517.1,-0.253744,-1.68321,3.05695,1010.93,-9855.01,-2172.31,-2.59449,-12.4164,-2.61401,-1458.91,9626.75,-247.168,-1.15964,0.421242,-2.26145,525.28,-9848.38,-2310.9,-6.73703,-13.7442,0.189262,9187.52,-690.072,3371.84,-0.391837,-0.116907,0.906489
0.279,4916.01,-1265.58,8429.09,4.73082,-8.5047,5.025,4802.02,1975.19,8175.14,8.17954,24.3125,6.38691,-80.4066,9759.83,-1508.38,-0.141696,-1.8138,3.03749,1046.5,-9843.96,-2169.86,-2.81976,-11.4549,-2.60999,-1441.58,9633.17,-267.289,-1.11894,0.309859,-2.27401,649.729,-9811.77,-2397.44,-6.85017,-13.5838,-0.0992574,9174.58,-677.697,3382.13,-0.389765,-0.119473,1.05081
0.28,4929.19,-1276.62,8400.14,4.78407,-8.61007,5.2362,4749.09,1895.59,8174.13,7.64576,24.092,5.48242,-83.604,9730.68,-1499.67,-0.029649,-1.9444,3.01803,1082.07,-9832.91,-2167.4,-3.04503,-10.4935,-2.60596,-1424.26,9639.58,-287.41,-1.07824,0.198477,-2.28657,774.179,-9775.16,-2483.97,-6.96331,-13.4233,-0.387777,9161.64,-665.322,3392.41,-0.387693,-0.12204,1.19513
0.281,4927.54,-1285.33,8382.33,4.91921,-8.61263,5.26442,4693.15,1816.57,8180.14,7.2237,23.74,4.76707,-82.4133,9730.19,-1527.29,-0.156232,-1.91838,2.97659,1103.76,-9801.37,-2180.65,-3.01892,-9.61744,-2.52001,-1426.06,9639.89,-301.701,-0.9489,0.110669,-2.26538,862.163,-9743.99,-2557.92,-7.06229,-12.967,-0.636078,9151.08,-628.209,3405.2,-0.417166,-0.144925,1.34041
0.282,4925.88,-1294.04,8364.51,5.05436,-8.61519,5.29264,4637.2,1737.54,8186.15,6.80164,23.388,4.05172,-81.2226,9729.69,-1554.91,-0.282815,-1.89236,2.93515,1125.45,-9769.83,-2193.9,-2.9928,-8.74134,-2.43407,-1427.85,9640.19,-315.991,-0.819564,0.0228612,-2.24418,950.147,-9712.82,-2631.88,-7.16128,-12.5107,-0.884379,9140.53,-591.096,3417.99,-0.446639,-0.167809,1.48569
0.283,4924.23,-1302.74,8346.7,5.18951,-8.61775,5.32086,4581.25,1658.52,8192.16,6.37958,23.0361,3.33637,-80.032,9729.2,-1582.53,-0.409398,-1.86634,2.89371,1147.13,-9738.28,-2207.14,-2.96668,-7.86525,-2.34812,-1429.65,9640.5,-330.281,-0.690229,-0.0649464,-2.22298,1038.13,-9681.65,-2705.83,-7.26026,-12.0544,-1.13268,9129.97,-553.982,3430.78,-0.476112,-0.190694,1.63097
0.284,4922.57,-1311.45,8328.88,5.32465,-8.62031,5.34907,4525.31,1579.49,8198.16,5.95752,22.6841,2.62102,-78.8413,9728.7,-1610.14,-0.535982,-1.84033,2.85228,1168.82,-9706.74,-2220.39,-2.94057,-6.98916,-2.26217,-1431.45,9640.8,-344.571,-0.560893,-0.152754,-2.20178,1126.11,-9650.48,-2779.79,-7.35924,-11.5982,-1.38098,9119.41,-516.869,3443.57,-0.505584,-0.213578,1.77625
0.285,4924.34,-1321.89,8306.54,5.36383,-8.63575,5.3495,4490.33,1517.97,8208.71,5.57484,22.3568,2.05879,-84.2875,9723.98,-1619.1,-0.567085,-1.77715,2.8558,1189.73,-9692.95,-2225.02,-2.93442,-6.04616,-2.14875,-1422.35,9649.22,-342.075,-0.524262,-0.230839,-2.11889,1226.34,-9617.37,-2842.89,-7.41601,-11.0241,-1.62253,9118.87,-495.476,3442.17,-0.612577,-0.174815,1.89984
0.286,4928.85,-1333.71,8280.58,5.32622,-8.66151,5.3277,4472.13,1470.47,8222.88,5.22366,22.0492,1.61906,-95.0431,9715.88,-1613.12,-0.521805,-1.68426,2.8953,1210.02,-9693.35,-2222.77,-2.94424,-5.04964,-2.01335,-1404.54,9664.13,-326.151,-0.561794,-0.301147,-1.98665,1336.36,-9582.71,-2897.32,-7.43902,-10.3559,-1.85868,9126.35,-486.658,3429.42,-0.781587,-0.0867338,2.00607
0.287,4933.36,-1345.52,8254.61,5.28862,-8.68726,5.3059,4453.92,1422.97,8237.06,4.87249,21.7416,1.17933,-105.799,9707.79,-1607.14,-0.476524,-1.59137,2.9348,1230.3,-9693.76,-2220.51,-2.95407,-4.05311,-1.87795,-1386.73,9679.04,-310.226,-0.599326,-0.371454,-1.85441,1446.38,-9548.05,-2951.75,-7.46202,-9.68774,-2.09483,9133.82,-477.84,3416.67,-0.950596,0.00134736,2.1123
0.288,4937.87,-1357.34,8228.65,5.25102,-8.71301,5.28409,4435.72,1375.46,8251.23,4.52131,21.434,0.739607,-116.554,9699.69,-1601.16,-0.431244,-1.49847,2.9743,1250.59,-9694.17,-2218.26,-2.9639,-3.05659,-1.74255,-1368.92,9693.95,-294.302,-0.636858,-0.441761,-1.72216,1556.4,-9513.4,-3006.18,-7.48502,-9.01954,-2.33098,9141.29,-469.023,3403.93,-1.1196,0.0894285,2.21854
0.289,4944.82,-1369.56,8206.46,5.19925,-8.7182,5.26205,4420.84,1332.28,8262.75,4.16753,21.1389,0.328731,-123.759,9691.92,-1596.47,-0.381566,-1.40922,3.01172,1273.46,-9691.18,-2214.91,-2.98525,-2.04328,-1.58335,-1351.55,9706.28,-277.695,-0.688824,-0.524436,-1.59854,1661.45,-9477.55,-3053.22,-7.48807,-8.34686,-2.54974,9147.61,-459.716,3392.5,-1.27969,0.173539,2.31985
0.29,4971.37,-1384.99,8214.5,5.03421,-8.55884,5.23813,4432.56,1323.64,8252.99,3.7929,20.944,0.148673,-102.556,9686.73,-1602.06,-0.29671,-1.34915,3.03245,1316.98,-9661.03,-2202.87,-3.09882,-0.89568,-1.23376,-1337.66,9698.03,-255.636,-0.856256,-0.706052,-1.54385,1726.76,-9432.14,-3041.08,-7.33158,-7.63841,-2.6294,9144.7,-446.502,3391.65,-1.36836,0.225884,2.38177
0.291,4997.91,-1400.42,8222.55,4.86917,-8.39949,5.21421,4444.28,1315.01,8243.22,3.41826,20.7491,-0.0313844,-81.3525,9681.54,-1607.64,-0.211854,-1.28909,3.05319,1360.49,-9630.87,-2190.82,-3.21239,0.251915,-0.884175,-1323.77,9689.77,-233.576,-1.02369,-0.887667,-1.48916,1792.08,-9386.73,-3028.95,-7.17509,-6.92997,-2.70906,9141.79,-433.287,3390.79,-1.45704,0.27823,2.44369
0.292,5024.46,-1415.85,8230.6,4.70413,-8.24013,5.19029,4456.0,1306.37,8233.46,3.04363,20.5542,-0.211442,-60.1492,9676.36,-1613.23,-0.126997,-1.22902,3.07392,1404.01,-9600.72,-2178.78,-3.32596,1.39951,-0.534587,-1309.89,9681.52,-211.516,-1.19112,-1.06928,-1.43447,1857.39,-9341.32,-3016.81,-7.0186,-6.22152,-2.78872,9138.87,-420.072,3389.93,-1.54571,0.330575,2.50561
0.293,5051.0,-1431.27,8238.65,4.53909,-8.08078,5.16637,4467.72,1297.73,8223.7,2.669,20.3593,-0.3915,-38.9459,9671.17,-1618.81,-0.0421411,-1.16895,3.09466,1447.53,-9570.57,-2166.74,-3.43953,2.5471,-0.184998,-1296.0,9673.26,-189.457,-1.35855,-1.2509,-1.37978,1922.7,-9295.91,-3004.68,-6.86211,-5.51307,-2.86838,9135.96,-406.858,3389.07,-1.63438,0.38292,2.56753
0.294,5067.95,-1438.24,8225.84,4.41142,-7.89083,5.09914,4492.96,1285.55,8211.29,2.28117,20.1882,-0.544039,-33.0588,9650.86,-1615.98,-0.109103,-1.1447,3.09902,1460.6,-9542.19,-2165.07,-3.54358,3.61969,0.0169513,-1275.75,9661.02,-181.222,-1.50868,-1.38418,-1.44257,1974.01,-9271.94,-2976.54,-6.61226,-4.74414,-2.89248,9133.22,-391.674,3384.04,-1.71808,0.412292,2.62515
0.295,5080.11,-1440.97,8202.61,4.30242,-7.68558,5.01025,4524.95,1271.59,8197.58,1.88675,20.0289,-0.682818,-34.8296,9622.98,-1608.93,-0.251974,-1.13836,3.09519,1458.43,-9514.7,-2168.58,-3.64288,4.65477,0.145081,-1252.33,9646.79,-179.899,-1.65016,-1.4933,-1.5641,2018.33,-9258.68,-2940.38,-6.31573,-3.94498,-2.8888,9130.57,-375.507,3376.9,-1.79929,0.430177,2.68063
0.296,5092.26,-1443.71,8179.37,4.19342,-7.48033,4.92137,4556.95,1257.63,8183.86,1.49232,19.8697,-0.821598,-36.6005,9595.09,-1601.88,-0.394846,-1.13202,3.09137,1456.26,-9487.2,-2172.09,-3.74217,5.68984,0.273212,-1228.9,9632.57,-178.576,-1.79165,-1.60242,-1.68563,2062.64,-9245.42,-2904.23,-6.0192,-3.14581,-2.88511,9127.92,-359.339,3369.77,-1.88049,0.448062,2.7361
0.297,5104.41,-1446.44,8156.14,4.08442,-7.27509,4.83248,4588.95,1243.68,8170.14,1.0979,19.7105,-0.960377,-38.3713,9567.21,-1594.83,-0.537717,-1.12567,3.08755,1454.1,-9459.71,-2175.61,-3.84147,6.72492,0.401342,-1205.48,9618.34,-177.253,-1.93313,-1.71153,-1.80716,2106.96,-9232.16,-2868.08,-5.72267,-2.34665,-2.88143,9125.27,-343.171,3362.64,-1.9617,0.465947,2.79158
0.298,5117.18,-1453.31,8136.32,3.97426,-7.08148,4.73179,4617.39,1229.01,8163.0,0.675522,19.5544,-1.07119,-42.753,9547.65,-1590.14,-0.650418,-1.12155,3.09085,1443.91,-9442.24,-2174.43,-3.90506,7.76342,0.550708,-1185.32,9608.31,-181.243,-2.06084,-1.79506,-1.9147,2139.64,-9220.83,-2831.89,-5.45681,-1.57106,-2.8857,9119.17,-324.876,3359.97,-2.06736,0.477605,2.85239
0.299,5132.07,-1474.65,8128.48,3.86003,-6.9286,4.58982,4633.41,1211.87,8178.86,0.155293,19.4091,-1.08414,-56.2725,9557.22,-1593.7,-0.65752,-1.12518,3.11912,1405.63,-9459.82,-2156.84,-3.84371,8.8139,0.774398,-1176.57,9612.99,-203.83,-2.14035,-1.78903,-1.97328,2131.61,-9216.29,-2795.54,-5.29833,-0.877992,-2.91781,9100.98,-299.133,3372.93,-2.25858,0.467472,2.93187
0.3,5146.97,-1495.98,8120.64,3.7458,-6.77573,4.44785,4649.43,1194.73,8194.72,-0.364935,19.2639,-1.09708,-69.7921,9566.78,-1597.26,-0.664623,-1.12882,3.14739,1367.35,-9477.41,-2139.25,-3.78237,9.86437,0.998088,-1167.82,9617.67,-226.417,-2.21986,-1.78299,-2.03185,2123.59,-9211.74,-2759.19,-5.13985,-0.184927,-2.94993,9082.8,-273.39,3385.88,-2.44981,0.45734,3.01135
0.301,5161.86,-1517.32,8112.8,3.63157,-6.62286,4.30587,4665.45,1177.59,8210.58,-0.885164,19.1187,-1.11003,-83.3116,9576.35,-1600.81,-0.671726,-1.13245,3.17565,1329.08,-9495.0,-2121.67,-3.72102,10.9148,1.22178,-1159.07,9622.35,-249.004,-2.29937,-1.77696,-2.09043,2115.56,-9207.19,-2722.85,-4.98137,0.508139,-2.98204,9064.61,-247.647,3398.83,-2.64103,0.447207,3.09083
0.302,5176.76,-1538.66,8104.96,3.51734,-6.46999,4.1639,4681.47,1160.45,8226.44,-1.40539,18.9735,-1.12297,-96.8311,9585.92,-1604.37,-0.678829,-1.13608,3.20392,1290.8,-9512.59,-2104.08,-3.65967,11.9653,1.44547,-1150.32,9627.03,-271.591,-2.37888,-1.77092,-2.149,2107.53,-9202.64,-2686.5,-4.82289,1.2012,-3.01415,9046.42,-221.904,3411.79,-2.83226,0.437074,3.17031
0.303,5170.17,-1541.97,8107.67,3.42745,-6.32812,4.12773,4663.94,1156.95,8234.19,-1.87898,18.7058,-1.19385,-92.0717,9597.87,-1605.25,-0.770469,-1.08785,3.17083,1256.35,-9527.6,-2086.21,-3.69687,12.6544,1.5932,-1153.68,9627.71,-299.657,-2.4889,-1.68333,-2.11429,2108.42,-9196.82,-2646.17,-4.65415,1.83754,-2.86321,9025.56,-239.481,3432.55,-2.98934,0.433478,3.14882
0.304,5157.43,-1540.12,8113.4,3.3445,-6.1894,4.1218,4636.83,1157.36,8239.63,-2.33924,18.4031,-1.28128,-82.0897,9610.51,-1605.36,-0.886262,-1.0248,3.12021,1223.0,-9541.88,-2068.25,-3.76223,13.2402,1.71923,-1160.5,9627.24,-329.288,-2.60764,-1.57244,-2.05292,2111.85,-9190.63,-2604.71,-4.48248,2.45766,-2.65996,9003.93,-269.436,3455.54,-3.13668,0.431749,3.09849
0.305,5144.7,-1538.27,8119.13,3.26156,-6.05069,4.11586,4609.73,1157.76,8245.07,-2.7995,18.1004,-1.36871,-72.1076,9623.15,-1605.48,-1.00205,-0.961744,3.06959,1189.65,-9556.16,-2050.29,-3.82758,13.826,1.84525,-1167.32,9626.76,-358.919,-2.72637,-1.46154,-1.99155,2115.28,-9184.43,-2563.25,-4.31081,3.07779,-2.45672,8982.29,-299.39,3478.54,-3.28401,0.430021,3.04815
0.306,5131.97,-1536.43,8124.87,3.17861,-5.91197,4.10993,4582.62,1158.17,8250.51,-3.25975,17.7977,-1.45614,-62.1256,9635.79,-1605.59,-1.11785,-0.898691,3.01898,1156.3,-9570.44,-2032.34,-3.89294,14.4118,1.97128,-1174.14,9626.29,-388.55,-2.84511,-1.35065,-1.93018,2118.72,-9178.24,-2521.78,-4.13914,3.69791,-2.25347,8960.66,-329.344,3501.53,-3.43135,0.428292,2.99782
0.307,5121.14,-1543.7,8131.14,3.08958,-5.72724,4.05614,4550.63,1147.89,8255.28,-3.66533,17.4269,-1.60257,-54.1906,9645.4,-1612.91,-1.19283,-0.87579,2.953,1120.87,-9582.72,-2011.65,-3.92868,14.8751,2.07223,-1177.31,9626.58,-405.284,-2.94483,-1.25229,-1.88107,2106.23,-9180.29,-2474.71,-3.99603,4.33083,-2.03463,8953.12,-350.126,3515.85,-3.56352,0.468075,2.94524
0.308,5114.11,-1569.22,8138.51,2.98837,-5.45049,3.90664,4508.85,1116.26,8258.72,-3.96153,16.9197,-1.867,-50.3497,9648.96,-1634.63,-1.18618,-0.933195,2.85632,1081.28,-9591.01,-1985.49,-3.90519,15.0933,2.12302,-1173.17,9628.36,-396.224,-3.0065,-1.17901,-1.85648,2061.9,-9198.8,-2416.42,-3.91004,4.98934,-1.78459,8973.76,-352.562,3512.81,-3.66537,0.59088,2.88818
0.309,5107.08,-1594.74,8145.87,2.88715,-5.17375,3.75713,4467.08,1084.63,8262.16,-4.25773,16.4126,-2.13143,-46.5088,9652.52,-1656.34,-1.17953,-0.9906,2.75964,1041.69,-9599.3,-1959.32,-3.8817,15.3114,2.17381,-1169.04,9630.15,-387.163,-3.06816,-1.10572,-1.83189,2017.56,-9217.31,-2358.14,-3.82405,5.64785,-1.53455,8994.39,-354.998,3509.77,-3.76722,0.713684,2.83111
0.31,5100.05,-1620.26,8153.24,2.78594,-4.897,3.60763,4425.31,1053.0,8265.6,-4.55392,15.9055,-2.39586,-42.6679,9656.07,-1678.06,-1.17289,-1.048,2.66296,1002.1,-9607.59,-1933.16,-3.85821,15.5296,2.2246,-1164.91,9631.93,-378.103,-3.12983,-1.03244,-1.8073,1973.23,-9235.83,-2299.85,-3.73806,6.30636,-1.28451,9015.03,-357.434,3506.73,-3.86907,0.836489,2.77405
0.311,5093.02,-1645.78,8160.6,2.68473,-4.62025,3.45813,4383.54,1021.37,8269.04,-4.85012,15.3983,-2.6603,-38.827,9659.63,-1699.78,-1.16624,-1.10541,2.56628,962.516,-9615.88,-1907.0,-3.83472,15.7478,2.27539,-1160.78,9633.71,-369.042,-3.1915,-0.95915,-1.78271,1928.9,-9254.34,-2241.56,-3.65207,6.96487,-1.03446,9035.66,-359.87,3503.69,-3.97092,0.959293,2.71698
0.312,5093.31,-1649.99,8153.18,2.51746,-4.42068,3.32351,4347.78,1001.01,8263.24,-5.09077,14.9273,-2.92858,-32.7905,9647.45,-1720.47,-1.21309,-1.1128,2.57376,942.28,-9649.72,-1861.68,-3.60198,15.6209,2.31109,-1149.19,9638.17,-360.266,-3.29468,-0.941586,-1.82631,1907.43,-9275.07,-2215.94,-3.8791,7.41764,-0.752461,9012.66,-385.929,3473.29,-4.03542,0.941658,2.56197
0.313,5094.51,-1651.54,8143.91,2.34192,-4.23074,3.19076,4312.76,982.052,8256.29,-5.32448,14.4608,-3.19735,-26.4794,9633.31,-1741.03,-1.26663,-1.11394,2.59426,924.463,-9686.75,-1813.96,-3.34309,15.4508,2.34491,-1136.66,9642.96,-351.526,-3.40304,-0.930987,-1.87844,1888.82,-9296.08,-2194.4,-4.14525,7.84469,-0.466462,8984.2,-414.941,3439.47,-4.09524,0.906468,2.39471
0.314,5095.71,-1653.09,8134.65,2.16639,-4.04081,3.058,4277.75,963.096,8249.34,-5.55818,13.9942,-3.46612,-20.1683,9619.17,-1761.59,-1.32017,-1.11508,2.61476,906.645,-9723.77,-1766.24,-3.0842,15.2808,2.37872,-1124.13,9647.76,-342.786,-3.51141,-0.920388,-1.93056,1870.21,-9317.09,-2172.86,-4.41141,8.27174,-0.180463,8955.74,-443.953,3405.65,-4.15506,0.871278,2.22745
0.315,5096.91,-1654.64,8125.38,1.99086,-3.85088,2.92524,4242.74,944.14,8242.39,-5.79189,13.5277,-3.73489,-13.8573,9605.03,-1782.15,-1.37372,-1.11622,2.63527,888.828,-9760.8,-1718.52,-2.82531,15.1107,2.41253,-1111.61,9652.55,-334.045,-3.61978,-0.909789,-1.98269,1851.59,-9338.1,-2151.32,-4.67756,8.6988,0.105537,8927.28,-472.965,3371.83,-4.21489,0.836087,2.06019
0.316,5093.6,-1656.95,8115.84,1.8894,-3.60971,2.75856,4202.19,934.145,8233.58,-6.06064,13.1033,-4.03161,-9.96351,9600.91,-1784.73,-1.41242,-1.10429,2.62133,865.594,-9773.37,-1678.26,-2.6447,14.8476,2.45199,-1094.14,9654.84,-326.138,-3.7294,-0.854881,-2.04241,1805.36,-9377.2,-2140.2,-4.89184,9.1791,0.437268,8917.01,-483.006,3367.7,-4.23929,0.84212,1.91505
0.317,5084.66,-1660.22,8105.97,1.88053,-3.30449,2.54946,4154.72,935.352,8222.45,-6.37319,12.7316,-4.36326,-9.09139,9609.33,-1764.86,-1.43257,-1.07603,2.56435,835.587,-9755.36,-1647.35,-2.56195,14.4681,2.49848,-1070.51,9654.0,-319.27,-3.84059,-0.744589,-2.11163,1724.6,-9438.9,-2142.09,-5.04127,9.72598,0.826165,8929.5,-469.333,3400.67,-4.2194,0.899682,1.79755
0.318,5075.71,-1663.49,8096.1,1.87166,-2.99927,2.34037,4107.25,936.559,8211.31,-6.68574,12.3598,-4.69491,-8.21928,9617.74,-1744.98,-1.45272,-1.04777,2.50736,805.581,-9737.36,-1616.43,-2.4792,14.0886,2.54498,-1046.87,9653.16,-312.403,-3.95179,-0.634296,-2.18084,1643.83,-9500.6,-2143.99,-5.1907,10.2729,1.21506,8941.98,-455.66,3433.65,-4.19952,0.957244,1.68005
0.319,5066.77,-1666.76,8086.22,1.86279,-2.69405,2.13128,4059.78,937.766,8200.17,-6.99829,11.9881,-5.02656,-7.34716,9626.16,-1725.1,-1.47287,-1.01951,2.45038,775.575,-9719.35,-1585.52,-2.39645,13.7091,2.59148,-1023.24,9652.32,-305.535,-4.06298,-0.524003,-2.25006,1563.07,-9562.31,-2145.89,-5.34012,10.8197,1.60396,8954.46,-441.987,3466.62,-4.17964,1.01481,1.56255
0.32,5057.82,-1670.02,8076.35,1.85392,-2.38883,1.92218,4012.32,938.974,8189.04,-7.31084,11.6164,-5.3582,-6.47505,9634.58,-1705.22,-1.49302,-0.991247,2.39339,745.569,-9701.35,-1554.6,-2.3137,13.3295,2.63798,-999.602,9651.47,-298.668,-4.17418,-0.413711,-2.31927,1482.31,-9624.01,-2147.79,-5.48955,11.3666,1.99285,8966.94,-428.314,3499.59,-4.15976,1.07237,1.44505
0.321,5070.98,-1654.02,8102.31,1.75196,-2.36232,1.78576,3990.95,947.695,8193.98,-7.74294,11.0419,-5.72945,3.72912,9621.77,-1717.82,-1.51292,-0.966347,2.43467,757.461,-9705.33,-1522.71,-2.21182,12.9553,2.64853,-990.644,9647.13,-289.83,-4.17093,-0.255967,-2.20425,1435.3,-9639.43,-2132.83,-5.70074,11.8992,2.1372,8938.51,-433.73,3500.0,-4.47491,1.04012,1.1944
0.322,5084.14,-1638.02,8128.27,1.65,-2.33582,1.64934,3969.59,956.417,8198.92,-8.17503,10.4675,-6.10069,13.9333,9608.96,-1730.42,-1.53282,-0.941447,2.47594,769.354,-9709.32,-1490.81,-2.10994,12.5811,2.65909,-981.685,9642.78,-280.992,-4.16768,-0.0982231,-2.08923,1388.29,-9654.85,-2117.87,-5.91192,12.4318,2.28155,8910.08,-439.146,3500.41,-4.79006,1.00787,0.943749
0.323,5097.3,-1622.02,8154.22,1.54804,-2.30931,1.51292,3948.22,965.138,8203.87,-8.60712,9.89302,-6.47193,24.1375,9596.14,-1743.01,-1.55272,-0.916548,2.51721,781.247,-9713.3,-1458.91,-2.00806,12.2069,2.66964,-972.727,9638.44,-272.154,-4.16443,0.0595206,-1.97421,1341.28,-9670.28,-2102.91,-6.12311,12.9644,2.42589,8881.66,-444.561,3500.81,-5.10521,0.975617,0.6931
0.324,5110.46,-1606.01,8180.18,1.44607,-2.28281,1.3765,3926.86,973.86,8208.81,-9.03922,9.31857,-6.84317,34.3416,9583.33,-1755.61,-1.57262,-0.891648,2.55849,793.139,-9717.29,-1427.02,-1.90618,11.8327,2.68019,-963.768,9634.09,-263.316,-4.16119,0.217264,-1.85919,1294.27,-9685.7,-2087.95,-6.3343,13.497,2.57024,8853.23,-449.977,3501.22,-5.42036,0.943366,0.442452
0.325,5115.98,-1588.27,8192.54,1.32369,-2.16513,1.32258,3898.07,981.924,8211.67,-9.43796,8.64863,-7.17907,32.3593,9569.85,-1748.11,-1.53809,-0.817742,2.54956,804.163,-9710.63,-1417.73,-1.87231,11.4106,2.63301,-958.13,9630.86,-257.578,-4.09423,0.41441,-1.80465,1253.63,-9693.59,-2093.9,-6.51699,13.9369,2.64763,8847.08,-452.698,3501.27,-5.60326,0.898784,0.298782
0.326,5115.38,-1569.13,8194.02,1.18497,-1.9745,1.33466,3863.33,989.463,8212.86,-9.81003,7.9023,-7.4867,20.6277,9555.82,-1724.53,-1.46001,-0.704631,2.50048,814.492,-9695.45,-1426.53,-1.89284,10.9502,2.53965,-955.149,9628.51,-254.319,-3.97631,0.643077,-1.79849,1218.08,-9695.46,-2116.59,-6.6769,14.3027,2.67146,8858.76,-453.264,3501.02,-5.68037,0.844337,0.240695
