Time,RFoot_accel.x,RFoot_accel.y,RFoot_accel.z,RFoot_gyro.x,RFoot_gyro.y,RFoot_gyro.z,LFoot_accel.x,LFoot_accel.y,LFoot_accel.z,LFoot_gyro.x,LFoot_gyro.y,LFoot_gyro.z,RShank_accel.x,RShank_accel.y,RShank_accel.z,RShank_gyro.x,RShank_gyro.y,RShank_gyro.z,LShank_accel.x,LShank_accel.y,LShank_accel.z,LShank_gyro.x,LShank_gyro.y,LShank_gyro.z,RThigh_accel.x,RThigh_accel.y,RThigh_accel.z,RThigh_gyro.x,RThigh_gyro.y,RThigh_gyro.z,LThigh_accel.x,LThigh_accel.y,LThigh_accel.z,LThigh_gyro.x,LThigh_gyro.y,LThigh_gyro.z,Pelvis_accel.x,Pelvis_accel.y,Pelvis_accel.z,Pelvis_gyro.x,Pelvis_gyro.y,Pelvis_gyro.z
4.26,4539.32,-4081.17,7178.4,17.6784,-18.6964,-11.3063,7221.0,3211.91,8678.42,8.35417,281.244,-123.273,-69.4024,9494.92,-2198.89,-2.0312,-6.40705,-28.2032,-2325.09,-10479.9,-1974.93,31.9286,100.274,-266.788,-3088.44,9314.51,-1428.78,-16.6503,-11.6596,-51.1939,-5813.32,-6653.22,563.085,5.78191,125.353,-87.0343,9312.41,-203.931,1145.53,-12.3673,1.412,-19.8169
4.2605,4558.57,-4084.81,7169.49,17.9303,-18.9702,-11.3669,7252.14,3256.48,8707.79,8.34321,281.109,-123.447,-71.8465,9493.74,-2189.32,-2.02612,-6.32305,-28.1968,-2344.96,-10537.3,-1956.46,31.9971,100.386,-267.312,-3096.95,9328.75,-1438.89,-16.554,-11.4938,-51.0288,-5821.31,-6647.46,583.744,5.82066,124.703,-87.0473,9316.95,-201.731,1147.53,-12.1795,1.47749,-19.9949
4.261,4577.82,-4088.45,7160.58,18.1823,-19.244,-11.4275,7283.28,3301.05,8737.17,8.33224,280.974,-123.622,-74.2907,9492.55,-2179.75,-2.02104,-6.23906,-28.1905,-2364.83,-10594.7,-1937.99,32.0655,100.498,-267.837,-3105.46,9342.99,-1448.99,-16.4577,-11.328,-50.8636,-5829.31,-6641.7,604.404,5.85941,124.053,-87.0603,9321.49,-199.531,1149.54,-11.9917,1.54299,-20.173
4.2615,4597.08,-4092.09,7151.67,18.4342,-19.5178,-11.4881,7314.42,3345.61,8766.55,8.32127,280.839,-123.796,-76.7349,9491.36,-2170.18,-2.01595,-6.15506,-28.1842,-2384.7,-10652.1,-1919.52,32.1339,100.61,-268.361,-3113.97,9357.23,-1459.1,-16.3614,-11.1621,-50.6985,-5837.3,-6635.93,625.064,5.89817,123.403,-87.0732,9326.03,-197.331,1151.54,-11.804,1.60848,-20.351
4.262,4616.33,-4095.73,7142.76,18.6861,-19.7916,-11.5487,7345.56,3390.18,8795.92,8.31031,280.704,-123.97,-79.1791,9490.18,-2160.62,-2.01087,-6.07106,-28.1778,-2404.57,-10709.5,-1901.05,32.2023,100.723,-268.885,-3122.48,9371.48,-1469.21,-16.2651,-10.9963,-50.5333,-5845.29,-6630.17,645.723,5.93692,122.753,-87.0862,9330.57,-195.131,1153.54,-11.6162,1.67398,-20.5291
4.2625,4639.91,-4096.76,7156.33,18.9214,-20.0376,-11.5873,7390.05,3440.88,8825.95,8.20714,280.494,-124.234,-72.9526,9487.66,-2151.01,-2.0212,-5.96362,-28.1949,-2424.97,-10765.4,-1888.94,32.2262,100.883,-269.385,-3095.94,9390.04,-1459.74,-16.1742,-10.793,-50.3976,-5861.31,-6628.4,660.155,5.99171,121.926,-87.117,9325.07,-196.831,1151.38,-11.5166,1.75888,-20.6682
4.263,4666.95,-4095.7,7187.89,19.1435,-20.2612,-11.6082,7445.21,3496.46,8856.48,8.0302,280.222,-124.569,-59.7897,9484.06,-2141.37,-2.04385,-5.83743,-28.2308,-2445.79,-10820.1,-1881.92,32.2146,101.081,-269.865,-3041.35,9412.05,-1434.6,-16.0875,-10.5596,-50.2855,-5883.73,-6629.83,669.605,6.05932,120.958,-87.1621,9311.54,-201.653,1145.89,-11.4875,1.85932,-20.7763
4.2635,4693.99,-4094.64,7219.45,19.3656,-20.4849,-11.6292,7500.37,3552.05,8887.01,7.85327,279.951,-124.903,-46.6268,9480.47,-2131.73,-2.0665,-5.71123,-28.2666,-2466.61,-10874.8,-1874.9,32.2029,101.279,-270.346,-2986.77,9434.06,-1409.47,-16.0009,-10.3263,-50.1733,-5906.15,-6631.26,679.054,6.12694,119.99,-87.2071,9298.0,-206.474,1140.39,-11.4584,1.95975,-20.8843
4.264,4721.03,-4093.58,7251.01,19.5876,-20.7086,-11.6501,7555.54,3607.64,8917.54,7.67634,279.679,-125.238,-33.4639,9476.88,-2122.09,-2.08915,-5.58503,-28.3025,-2487.43,-10929.5,-1867.87,32.1912,101.477,-270.826,-2932.18,9456.07,-1384.34,-15.9142,-10.093,-50.0612,-5928.58,-6632.69,688.504,6.19456,119.022,-87.2522,9284.47,-211.295,1134.9,-11.4294,2.06019,-20.9923
4.2645,4748.07,-4092.52,7282.58,19.8097,-20.9322,-11.6711,7610.7,3663.23,8948.08,7.4994,279.408,-125.573,-20.3009,9473.29,-2112.45,-2.11181,-5.45884,-28.3384,-2508.25,-10984.2,-1860.85,32.1796,101.675,-271.306,-2877.6,9478.08,-1359.2,-15.8276,-9.85968,-49.949,-5951.0,-6634.12,697.953,6.26217,118.054,-87.2973,9270.93,-216.116,1129.4,-11.4003,2.16062,-21.1004
4.265,4775.11,-4091.46,7314.14,20.0317,-21.1559,-11.6921,7665.87,3718.82,8978.61,7.32247,279.136,-125.907,-7.13801,9469.7,-2102.81,-2.13446,-5.33264,-28.3742,-2529.08,-11038.9,-1853.83,32.1679,101.873,-271.787,-2823.01,9500.09,-1334.07,-15.7409,-9.62636,-49.8368,-5973.43,-6635.54,707.403,6.32979,117.086,-87.3423,9257.4,-220.937,1123.91,-11.3712,2.26106,-21.2084
4.2655,4802.15,-4090.4,7345.7,20.2538,-21.3796,-11.713,7721.03,3774.4,9009.14,7.14554,278.865,-126.242,6.02491,9466.11,-2093.16,-2.15711,-5.20644,-28.4101,-2549.9,-11093.6,-1846.8,32.1562,102.071,-272.267,-2768.43,9522.1,-1308.94,-15.6542,-9.39304,-49.7247,-5995.85,-6636.97,716.852,6.39741,116.118,-87.3874,9243.86,-225.758,1118.41,-11.3421,2.36149,-21.3165
4.266,4829.19,-4089.34,7377.26,20.4759,-21.6032,-11.734,7776.19,3829.99,9039.68,6.9686,278.593,-126.577,19.1878,9462.52,-2083.52,-2.17976,-5.08025,-28.4459,-2570.72,-11148.3,-1839.78,32.1446,102.269,-272.747,-2713.84,9544.11,-1283.8,-15.5676,-9.15972,-49.6125,-6018.27,-6638.4,726.302,6.46502,115.15,-87.4325,9230.33,-230.58,1112.92,-11.313,2.46193,-21.4245
4.2665,4856.23,-4088.28,7408.82,20.6979,-21.8269,-11.7549,7831.36,3885.58,9070.21,6.79167,278.322,-126.911,32.3508,9458.92,-2073.88,-2.20241,-4.95405,-28.4818,-2591.54,-11203.0,-1832.75,32.1329,102.467,-273.228,-2659.26,9566.13,-1258.67,-15.4809,-8.9264,-49.5003,-6040.7,-6639.83,735.751,6.53264,114.182,-87.4776,9216.79,-235.401,1107.42,-11.2839,2.56236,-21.5325
4.267,4886.21,-4058.16,7430.58,20.7751,-21.9209,-11.749,7890.19,3920.7,9100.5,6.55346,278.093,-127.396,29.6617,9462.05,-2068.81,-2.19238,-4.79781,-28.5325,-2611.41,-11267.4,-1832.27,32.1208,102.68,-273.67,-2573.46,9590.48,-1241.12,-15.4328,-8.70321,-49.2242,-6045.58,-6657.78,739.974,6.69209,113.039,-87.6092,9201.7,-234.553,1109.28,-11.1911,2.63098,-21.6462
4.2675,4917.65,-4013.51,7447.43,20.7799,-21.9501,-11.7297,7950.86,3945.6,9130.67,6.2846,277.885,-127.955,19.0466,9468.53,-2066.01,-2.16602,-4.62656,-28.5905,-2630.8,-11336.5,-1835.05,32.1084,102.901,-274.093,-2472.07,9616.02,-1227.36,-15.404,-8.48508,-48.8661,-6041.7,-6684.0,741.583,6.89747,111.809,-87.7841,9185.83,-230.87,1114.82,-11.0663,2.6837,-21.7627
4.268,4949.09,-3968.86,7464.28,20.7847,-21.9792,-11.7103,8011.53,3970.49,9160.84,6.01575,277.677,-128.514,8.43146,9475.02,-2063.22,-2.13965,-4.45531,-28.6486,-2650.19,-11405.7,-1837.83,32.0961,103.122,-274.517,-2370.67,9641.55,-1213.6,-15.3752,-8.26695,-48.5079,-6037.82,-6710.22,743.193,7.10284,110.578,-87.959,9169.95,-227.187,1120.36,-10.9416,2.73641,-21.8792
4.2685,4980.54,-3924.21,7481.13,20.7895,-22.0084,-11.691,8072.2,3995.39,9191.0,5.7469,277.47,-129.073,-2.18364,9481.5,-2060.43,-2.11328,-4.28405,-28.7067,-2669.59,-11474.8,-1840.61,32.0838,103.343,-274.94,-2269.27,9667.08,-1199.84,-15.3464,-8.04882,-48.1498,-6033.94,-6736.44,744.802,7.30822,109.348,-88.1339,9154.08,-223.504,1125.9,-10.8169,2.78913,-21.9958
4.269,5011.98,-3879.56,7497.98,20.7942,-22.0376,-11.6716,8132.87,4020.28,9221.17,5.47805,277.262,-129.633,-12.7987,9487.99,-2057.63,-2.08691,-4.1128,-28.7647,-2688.98,-11544.0,-1843.39,32.0714,103.564,-275.363,-2167.88,9692.62,-1186.09,-15.3176,-7.83068,-47.7916,-6030.06,-6762.66,746.412,7.51359,108.117,-88.3088,9138.21,-219.821,1131.44,-10.6922,2.84184,-22.1123
4.2695,5043.42,-3834.91,7514.83,20.799,-22.0667,-11.6523,8193.54,4045.18,9251.34,5.20919,277.055,-130.192,-23.4138,9494.47,-2054.84,-2.06054,-3.94155,-28.8228,-2708.37,-11613.1,-1846.17,32.0591,103.785,-275.786,-2066.48,9718.15,-1172.33,-15.2888,-7.61255,-47.4335,-6026.17,-6788.88,748.021,7.71897,106.887,-88.4837,9122.33,-216.138,1136.97,-10.5674,2.89456,-22.2288
4.27,5074.86,-3790.26,7531.68,20.8038,-22.0959,-11.6329,8254.21,4070.07,9281.51,4.94034,276.847,-130.751,-34.0289,9500.95,-2052.04,-2.03417,-3.77029,-28.8809,-2727.76,-11682.3,-1848.95,32.0467,104.006,-276.21,-1965.09,9743.68,-1158.57,-15.2599,-7.39442,-47.0754,-6022.29,-6815.1,749.631,7.92434,105.657,-88.6586,9106.46,-212.455,1142.51,-10.4427,2.94727,-22.3453
4.2705,5106.3,-3745.61,7548.53,20.8086,-22.1251,-11.6136,8314.88,4094.97,9311.68,4.67149,276.639,-131.31,-44.644,9507.44,-2049.25,-2.00781,-3.59904,-28.9389,-2747.15,-11751.4,-1851.73,32.0344,104.227,-276.633,-1863.69,9769.22,-1144.81,-15.2311,-7.17629,-46.7172,-6018.41,-6841.32,751.24,8.12972,104.426,-88.8335,9090.58,-208.772,1148.05,-10.318,2.99999,-22.4618
4.271,5137.75,-3700.96,7565.38,20.8134,-22.1542,-11.5942,8375.55,4119.86,9341.84,4.40264,276.432,-131.87,-55.2591,9513.92,-2046.46,-1.98144,-3.42779,-28.997,-2766.54,-11820.6,-1854.51,32.022,104.448,-277.056,-1762.29,9794.75,-1131.05,-15.2023,-6.95816,-46.3591,-6014.53,-6867.54,752.85,8.33509,103.196,-89.0084,9074.71,-205.089,1153.59,-10.1932,3.0527,-22.5783
4.2715,5170.27,-3647.78,7569.53,20.7451,-22.1337,-11.5849,8433.4,4140.13,9379.69,4.05123,276.307,-132.57,-68.9025,9515.33,-2044.32,-1.96289,-3.23394,-29.0336,-2781.87,-11885.9,-1855.71,32.0356,104.655,-277.521,-1644.18,9788.91,-1136.08,-15.3436,-6.7129,-46.2186,-6011.97,-6888.65,749.439,8.56087,101.912,-89.0666,9071.04,-206.782,1152.71,-10.1593,3.11622,-22.6667
4.272,5203.09,-3592.17,7570.04,20.656,-22.099,-11.5785,8490.45,4159.08,9419.72,3.67625,276.206,-133.311,-83.4111,9515.28,-2042.37,-1.94658,-3.03364,-29.0642,-2796.04,-11950.1,-1856.45,32.0566,104.859,-277.998,-1521.29,9774.11,-1146.47,-15.5335,-6.45989,-46.1404,-6009.8,-6908.29,744.593,8.79248,100.612,-89.0915,9070.86,-210.011,1150.0,-10.1513,3.18282,-22.747
4.2725,5235.92,-3536.56,7570.55,20.567,-22.0644,-11.5721,8547.5,4178.02,9459.76,3.30126,276.105,-134.052,-97.9197,9515.24,-2040.42,-1.93027,-2.83335,-29.0947,-2810.2,-12014.3,-1857.19,32.0776,105.062,-278.475,-1398.41,9759.31,-1156.86,-15.7233,-6.20687,-46.0621,-6007.63,-6927.94,739.748,9.02408,99.3125,-89.1163,9070.69,-213.24,1147.29,-10.1433,3.24943,-22.8273
4.273,5268.75,-3480.94,7571.06,20.4779,-22.0297,-11.5657,8604.55,4196.97,9499.8,2.92627,276.004,-134.793,-112.428,9515.19,-2038.47,-1.91396,-2.63305,-29.1252,-2824.37,-12078.5,-1857.92,32.0986,105.266,-278.952,-1275.52,9744.51,-1167.26,-15.9132,-5.95386,-45.9838,-6005.46,-6947.58,734.903,9.25569,98.013,-89.1412,9070.51,-216.469,1144.58,-10.1353,3.31603,-22.9077
4.2735,5301.58,-3425.33,7571.57,20.3888,-21.995,-11.5592,8661.6,4215.91,9539.83,2.55129,275.903,-135.534,-126.937,9515.15,-2036.52,-1.89765,-2.43275,-29.1558,-2838.54,-12142.7,-1858.66,32.1196,105.469,-279.429,-1152.63,9729.71,-1177.65,-16.1031,-5.70084,-45.9055,-6003.29,-6967.23,730.058,9.48729,96.7135,-89.166,9070.33,-219.698,1141.87,-10.1273,3.38264,-22.988
4.274,5334.41,-3369.72,7572.09,20.2997,-21.9603,-11.5528,8718.66,4234.86,9579.87,2.1763,275.802,-136.275,-141.445,9515.1,-2034.57,-1.88134,-2.23245,-29.1863,-2852.71,-12206.9,-1859.4,32.1406,105.673,-279.906,-1029.75,9714.91,-1188.04,-16.2929,-5.44783,-45.8272,-6001.12,-6986.88,725.213,9.7189,95.414,-89.1909,9070.15,-222.927,1139.16,-10.1193,3.44924,-23.0683
4.2745,5367.24,-3314.1,7572.6,20.2106,-21.9256,-11.5464,8775.71,4253.8,9619.91,1.80131,275.701,-137.016,-155.954,9515.06,-2032.62,-1.86503,-2.03216,-29.2168,-2866.88,-12271.1,-1860.14,32.1616,105.876,-280.383,-906.859,9700.11,-1198.43,-16.4828,-5.19481,-45.7489,-5998.95,-7006.52,720.367,9.95051,94.1144,-89.2157,9069.97,-226.156,1136.45,-10.1113,3.51585,-23.1486
4.275,5400.06,-3258.49,7573.11,20.1216,-21.8909,-11.5399,8832.76,4272.75,9659.95,1.42633,275.6,-137.757,-170.463,9515.01,-2030.67,-1.84872,-1.83186,-29.2474,-2881.04,-12335.4,-1860.88,32.1826,106.08,-280.86,-783.972,9685.3,-1208.83,-16.6727,-4.9418,-45.6707,-5996.78,-7026.17,715.522,10.1821,92.8149,-89.2406,9069.79,-229.385,1133.74,-10.1033,3.58245,-23.2289
4.2755,5432.89,-3202.88,7573.62,20.0325,-21.8562,-11.5335,8889.81,4291.7,9699.98,1.05134,275.499,-138.498,-184.971,9514.97,-2028.72,-1.83241,-1.63156,-29.2779,-2895.21,-12399.6,-1861.62,32.2036,106.283,-281.337,-661.085,9670.5,-1219.22,-16.8626,-4.68879,-45.5924,-5994.61,-7045.82,710.677,10.4137,91.5154,-89.2654,9069.61,-232.614,1131.04,-10.0953,3.64906,-23.3093
4.276,5444.2,-3192.66,7570.72,19.9219,-21.7399,-11.5856,8938.81,4310.6,9733.06,0.604788,275.336,-139.33,-196.422,9519.85,-2009.86,-1.8235,-1.50372,-29.3446,-2908.92,-12466.6,-1877.66,32.2435,106.477,-281.769,-579.437,9638.5,-1244.38,-16.9752,-4.40034,-45.7114,-5985.65,-7055.76,710.133,10.6247,90.2033,-89.2825,9064.8,-219.263,1131.27,-10.1287,3.77774,-23.3703
4.2765,5452.83,-3188.12,7567.39,19.8085,-21.6134,-11.645,8986.8,4329.5,9765.28,0.14929,275.166,-140.173,-207.491,9525.36,-1988.89,-1.81552,-1.38493,-29.4158,-2922.57,-12533.9,-1895.61,32.2857,106.671,-282.195,-502.944,9604.35,-1271.38,-17.0782,-4.10746,-45.855,-5975.84,-7064.49,710.127,10.8332,88.8897,-89.2986,9059.42,-203.84,1131.87,-10.1673,3.91418,-23.4289
4.277,5461.45,-3183.58,7564.06,19.6952,-21.4869,-11.7044,9034.8,4348.4,9797.49,-0.306208,274.996,-141.016,-218.559,9530.86,-1967.91,-1.80754,-1.26614,-29.4869,-2936.21,-12601.3,-1913.56,32.3279,106.864,-282.621,-426.451,9570.2,-1298.38,-17.1812,-3.81459,-45.9987,-5966.04,-7073.21,710.121,11.0416,87.576,-89.3147,9054.04,-188.416,1132.47,-10.2058,4.05062,-23.4874
4.2775,5470.07,-3179.04,7560.73,19.5819,-21.3604,-11.7638,9082.79,4367.3,9829.7,-0.761706,274.826,-141.859,-229.628,9536.37,-1946.94,-1.79955,-1.14736,-29.5581,-2949.86,-12668.6,-1931.52,32.3701,107.057,-283.047,-349.958,9536.04,-1325.39,-17.2841,-3.52171,-46.1423,-5956.23,-7081.94,710.115,11.25,86.2624,-89.3308,9048.65,-172.993,1133.08,-10.2444,4.18706,-23.546
4.278,5478.69,-3174.5,7557.41,19.4686,-21.2339,-11.8233,9130.79,4386.2,9861.91,-1.2172,274.655,-142.702,-240.697,9541.87,-1925.97,-1.79157,-1.02857,-29.6293,-2963.51,-12735.9,-1949.47,32.4123,107.25,-283.473,-273.465,9501.89,-1352.39,-17.3871,-3.22884,-46.286,-5946.42,-7090.67,710.108,11.4585,84.9487,-89.3469,9043.27,-157.569,1133.68,-10.2829,4.3235,-23.6046
4.2785,5487.31,-3169.96,7554.08,19.3552,-21.1074,-11.8827,9178.78,4405.1,9894.12,-1.6727,274.485,-143.545,-251.765,9547.38,-1905.0,-1.78358,-0.909786,-29.7005,-2977.16,-12803.3,-1967.42,32.4545,107.444,-283.899,-196.971,9467.74,-1379.4,-17.4901,-2.93596,-46.4296,-5936.62,-7099.4,710.102,11.6669,83.635,-89.3629,9037.88,-142.146,1134.28,-10.3215,4.45994,-23.6632
4.279,5495.94,-3165.42,7550.75,19.2419,-20.9809,-11.9421,9226.78,4424.0,9926.33,-2.1282,274.315,-144.388,-262.834,9552.88,-1884.02,-1.7756,-0.791,-29.7716,-2990.81,-12870.6,-1985.37,32.4967,107.637,-284.325,-120.478,9433.58,-1406.4,-17.5931,-2.64309,-46.5733,-5926.81,-7108.13,710.096,11.8754,82.3214,-89.379,9032.5,-126.722,1134.88,-10.36,4.59638,-23.7218
4.2795,5504.56,-3160.88,7547.42,19.1286,-20.8543,-12.0015,9274.77,4442.91,9958.55,-2.5837,274.145,-145.232,-273.903,9558.38,-1863.05,-1.76762,-0.672213,-29.8428,-3004.46,-12938.0,-2003.32,32.5389,107.83,-284.751,-43.9851,9399.43,-1433.4,-17.6961,-2.35021,-46.717,-5917.0,-7116.86,710.09,12.0838,81.0077,-89.3951,9027.11,-111.299,1135.49,-10.3986,4.73282,-23.7804
4.28,5513.18,-3156.34,7544.09,19.0153,-20.7278,-12.0609,9322.76,4461.81,9990.76,-3.0392,273.974,-146.075,-284.971,9563.89,-1842.08,-1.75963,-0.553427,-29.914,-3018.11,-13005.3,-2021.28,32.5811,108.023,-285.177,32.5081,9365.28,-1460.41,-17.799,-2.05734,-46.8606,-5907.2,-7125.59,710.084,12.2922,79.6941,-89.4112,9021.73,-95.8756,1136.09,-10.4372,4.86926,-23.8389
4.2805,5510.52,-3157.12,7543.29,19.0232,-20.6464,-12.0661,9342.66,4494.89,10027.5,-3.48221,273.638,-146.845,-299.976,9565.29,-1825.94,-1.73834,-0.520587,-29.926,-3025.93,-13082.4,-2046.75,32.694,108.233,-285.56,75.2473,9354.81,-1476.38,-17.8844,-1.69037,-47.1497,-5904.45,-7135.4,703.262,12.4379,78.3298,-89.2504,9007.17,-98.493,1124.57,-10.5427,4.92638,-23.8598
4.281,5507.85,-3157.9,7542.48,19.0312,-20.5649,-12.0712,9362.55,4527.97,10064.2,-3.92523,273.302,-147.615,-314.981,9566.68,-1809.8,-1.71704,-0.487748,-29.938,-3033.76,-13159.5,-2072.23,32.8069,108.442,-285.944,117.987,9344.34,-1492.36,-17.9698,-1.32341,-47.4387,-5901.7,-7145.22,696.441,12.5836,76.9656,-89.0896,8992.61,-101.11,1113.06,-10.6482,4.9835,-23.8806
4.2815,5505.19,-3158.67,7541.68,19.0392,-20.4835,-12.0764,9382.44,4561.06,10101.0,-4.36825,272.966,-148.386,-329.986,9568.08,-1793.66,-1.69574,-0.454908,-29.95,-3041.59,-13236.7,-2097.7,32.9198,108.651,-286.327,160.726,9333.87,-1508.33,-18.0552,-0.956448,-47.7278,-5898.95,-7155.04,689.62,12.7293,75.6013,-88.9289,8978.05,-103.728,1101.55,-10.7536,5.04062,-23.9014
4.282,5502.53,-3159.45,7540.88,19.0471,-20.402,-12.0815,9402.33,4594.14,10137.7,-4.81126,272.63,-149.156,-344.991,9569.48,-1777.52,-1.67445,-0.422069,-29.962,-3049.41,-13313.8,-2123.18,33.0327,108.86,-286.71,203.465,9323.4,-1524.31,-18.1406,-0.589486,-48.0169,-5896.2,-7164.86,682.799,12.875,74.2371,-88.7681,8963.49,-106.345,1090.03,-10.8591,5.09775,-23.9222
4.2825,5499.87,-3160.23,7540.07,19.0551,-20.3206,-12.0867,9422.23,4627.22,10174.4,-5.25428,272.294,-149.926,-359.996,9570.88,-1761.38,-1.65315,-0.389229,-29.974,-3057.24,-13390.9,-2148.65,33.1455,109.069,-287.093,246.204,9312.92,-1540.29,-18.2259,-0.222523,-48.3059,-5893.45,-7174.67,675.978,13.0207,72.8728,-88.6073,8948.93,-108.962,1078.52,-10.9646,5.15487,-23.943
4.283,5497.2,-3161.01,7539.27,19.0631,-20.2391,-12.0918,9442.12,4660.31,10211.2,-5.69729,271.958,-150.697,-375.001,9572.28,-1745.24,-1.63185,-0.35639,-29.9859,-3065.07,-13468.0,-2174.13,33.2584,109.278,-287.477,288.943,9302.45,-1556.26,-18.3113,0.144439,-48.595,-5890.7,-7184.49,669.156,13.1663,71.5086,-88.4465,8934.37,-111.58,1067.0,-11.0701,5.21199,-23.9638
4.2835,5494.54,-3161.79,7538.46,19.0711,-20.1576,-12.097,9462.01,4693.39,10247.9,-6.14031,271.622,-151.467,-390.006,9573.68,-1729.1,-1.61056,-0.32355,-29.9979,-3072.9,-13545.1,-2199.6,33.3713,109.487,-287.86,331.683,9291.98,-1572.24,-18.3967,0.511402,-48.884,-5887.95,-7194.31,662.335,13.312,70.1443,-88.2858,8919.8,-114.197,1055.49,-11.1756,5.26911,-23.9846
4.284,5491.88,-3162.56,7537.66,19.079,-20.0762,-12.1021,9481.9,4726.48,10284.6,-6.58333,271.286,-152.237,-405.011,9575.07,-1712.96,-1.58926,-0.29071,-30.0099,-3080.72,-13622.2,-2225.08,33.4842,109.696,-288.243,374.422,9281.51,-1588.21,-18.4821,0.878364,-49.1731,-5885.2,-7204.13,655.514,13.4577,68.7801,-88.125,8905.24,-116.815,1043.97,-11.2811,5.32623,-24.0055
4.2845,5486.19,-3164.96,7537.0,19.084,-20.0012,-12.1156,9500.29,4760.09,10319.4,-7.02443,270.929,-153.015,-419.354,9576.76,-1698.18,-1.56931,-0.25533,-30.0247,-3088.68,-13696.4,-2250.42,33.5949,109.901,-288.622,415.549,9270.72,-1602.22,-18.559,1.25195,-49.4666,-5880.49,-7214.45,648.287,13.5994,67.4049,-87.9476,8889.1,-118.39,1033.91,-11.3771,5.38357,-24.0227
4.285,5456.26,-3180.3,7537.43,19.0646,-19.9776,-12.196,9506.57,4797.93,10338.3,-7.45022,270.41,-153.849,-428.407,9580.74,-1694.27,-1.56015,-0.199625,-30.0613,-3097.64,-13746.6,-2274.75,33.6877,110.073,-288.962,443.779,9257.36,-1600.51,-18.5688,1.67849,-49.7957,-5860.03,-7228.77,637.812,13.709,65.9428,-87.6379,8860.24,-111.634,1035.48,-11.3967,5.44264,-24.0114
4.2855,5426.34,-3195.64,7537.87,19.0452,-19.9539,-12.2764,9512.86,4835.77,10357.3,-7.87601,269.891,-154.683,-437.459,9584.72,-1690.37,-1.55098,-0.14392,-30.0979,-3106.6,-13796.8,-2299.08,33.7806,110.245,-289.302,472.008,9244.0,-1598.79,-18.5785,2.10503,-50.1247,-5839.57,-7243.09,627.337,13.8186,64.4807,-87.3281,8831.38,-104.878,1037.05,-11.4164,5.5017,-24.0001
4.286,5396.41,-3210.98,7538.3,19.0258,-19.9303,-12.3569,9519.15,4873.62,10376.2,-8.3018,269.372,-155.518,-446.511,9588.7,-1686.46,-1.54182,-0.0882143,-30.1345,-3115.56,-13847.1,-2323.41,33.8735,110.417,-289.643,500.238,9230.64,-1597.07,-18.5883,2.53157,-50.4537,-5819.11,-7257.41,616.862,13.9282,63.0186,-87.0184,8802.52,-98.1212,1038.63,-11.4361,5.56077,-23.9888
4.2865,5366.49,-3226.33,7538.74,19.0064,-19.9067,-12.4373,9525.44,4911.46,10395.2,-8.7276,268.853,-156.352,-455.563,9592.68,-1682.56,-1.53265,-0.032509,-30.1712,-3124.52,-13897.3,-2347.74,33.9663,110.589,-289.983,528.468,9217.28,-1595.35,-18.598,2.95812,-50.7828,-5798.65,-7271.73,606.387,14.0378,61.5565,-86.7087,8773.66,-91.3648,1040.2,-11.4557,5.61983,-23.9776
4.287,5336.56,-3241.67,7539.17,18.987,-19.8831,-12.5177,9531.72,4949.31,10414.1,-9.15339,268.335,-157.187,-464.616,9596.66,-1678.65,-1.52349,0.0231963,-30.2078,-3133.48,-13947.5,-2372.07,34.0592,110.761,-290.324,556.697,9203.92,-1593.64,-18.6078,3.38466,-51.1118,-5778.19,-7286.05,595.912,14.1474,60.0944,-86.3989,8744.8,-84.6084,1041.77,-11.4754,5.6789,-23.9663
4.2875,5306.64,-3257.01,7539.61,18.9676,-19.8595,-12.5981,9538.01,4987.15,10433.1,-9.57918,267.816,-158.021,-473.668,9600.64,-1674.75,-1.51432,0.0789016,-30.2444,-3142.44,-13997.8,-2396.4,34.1521,110.933,-290.664,584.927,9190.57,-1591.92,-18.6175,3.8112,-51.4409,-5757.73,-7300.37,585.437,14.257,58.6323,-86.0892,8715.94,-77.852,1043.34,-11.4951,5.73796,-23.955
4.288,5276.71,-3272.35,7540.04,18.9482,-19.8359,-12.6785,9544.3,5024.99,10452.0,-10.005,267.297,-158.855,-482.72,9604.62,-1670.84,-1.50516,0.134607,-30.281,-3151.4,-14048.0,-2420.73,34.245,111.105,-291.004,613.157,9177.21,-1590.2,-18.6273,4.23774,-51.7699,-5737.27,-7314.69,574.961,14.3666,57.1701,-85.7794,8687.08,-71.0956,1044.91,-11.5147,5.79703,-23.9437
4.2885,5246.79,-3287.69,7540.48,18.9289,-19.8123,-12.7589,9550.59,5062.84,10471.0,-10.4308,266.778,-159.69,-491.773,9608.59,-1666.93,-1.49599,0.190312,-30.3176,-3160.36,-14098.2,-2445.06,34.3378,111.277,-291.345,641.387,9163.85,-1588.48,-18.637,4.66428,-52.0989,-5716.8,-7329.01,564.486,14.4762,55.708,-85.4697,8658.22,-64.3391,1046.48,-11.5344,5.85609,-23.9324
4.289,5223.15,-3299.27,7544.66,18.9073,-19.7846,-12.7971,9560.29,5093.16,10492.8,-10.8663,266.221,-160.518,-497.803,9610.18,-1660.61,-1.47012,0.250214,-30.3592,-3167.82,-14148.8,-2470.53,34.4354,111.443,-291.679,660.301,9153.06,-1581.22,-18.6496,5.10455,-52.4317,-5691.58,-7343.64,552.375,14.5941,54.2524,-85.157,8635.21,-56.701,1046.41,-11.5471,5.90969,-23.8974
4.2895,5221.51,-3297.71,7561.96,18.8783,-19.7426,-12.6877,9581.93,5097.17,10524.7,-11.3358,265.529,-161.322,-493.256,9603.4,-1645.8,-1.38578,0.324804,-30.4181,-3170.06,-14200.5,-2499.99,34.5495,111.59,-291.992,646.611,9151.27,-1554.56,-18.6723,5.59287,-52.7777,-5649.71,-7359.32,534.534,14.7411,52.8194,-84.8341,8632.67,-45.977,1040.58,-11.5356,5.94415,-23.7793
4.29,5219.87,-3296.14,7579.26,18.8492,-19.7007,-12.5782,9603.56,5101.19,10556.6,-11.8053,264.837,-162.126,-488.709,9596.62,-1630.99,-1.30144,0.399395,-30.4769,-3172.3,-14252.3,-2529.45,34.6637,111.737,-292.304,632.922,9149.49,-1527.9,-18.695,6.08119,-53.1237,-5607.83,-7374.99,516.693,14.888,51.3863,-84.5112,8630.12,-35.253,1034.74,-11.524,5.97862,-23.6613
4.2905,5218.23,-3294.57,7596.56,18.8201,-19.6587,-12.4688,9625.2,5105.2,10588.4,-12.2748,264.146,-162.931,-484.162,9589.85,-1616.19,-1.21711,0.473985,-30.5357,-3174.54,-14304.0,-2558.91,34.7778,111.884,-292.617,619.232,9147.7,-1501.24,-18.7177,6.5695,-53.4697,-5565.96,-7390.67,498.853,15.0349,49.9533,-84.1883,8627.58,-24.529,1028.91,-11.5125,6.01308,-23.5432
4.291,5216.59,-3293.01,7613.86,18.7911,-19.6167,-12.3593,9646.84,5109.21,10620.3,-12.7444,263.454,-163.735,-479.615,9583.07,-1601.38,-1.13277,0.548575,-30.5946,-3176.78,-14355.8,-2588.37,34.8919,112.031,-292.93,605.543,9145.92,-1474.58,-18.7404,7.05782,-53.8156,-5524.08,-7406.35,481.012,15.1819,48.5203,-83.8654,8625.03,-13.805,1023.08,-11.501,6.04754,-23.4251
4.2915,5214.95,-3291.44,7631.16,18.762,-19.5748,-12.2499,9668.48,5113.23,10652.2,-13.2139,262.763,-164.54,-475.068,9576.29,-1586.58,-1.04843,0.623165,-30.6534,-3179.02,-14407.5,-2617.83,35.006,112.178,-293.242,591.853,9144.13,-1447.92,-18.7631,7.54614,-54.1616,-5482.21,-7422.03,463.172,15.3288,47.0873,-83.5425,8622.49,-3.081,1017.24,-11.4894,6.082,-23.3071
4.292,5213.31,-3289.88,7648.45,18.7329,-19.5328,-12.1404,9690.12,5117.24,10684.0,-13.6834,262.071,-165.344,-470.522,9569.51,-1571.77,-0.964088,0.697755,-30.7123,-3181.26,-14459.3,-2647.29,35.1201,112.325,-293.555,578.164,9142.35,-1421.26,-18.7858,8.03446,-54.5076,-5440.33,-7437.71,445.331,15.4757,45.6543,-83.2196,8619.94,7.64301,1011.41,-11.4779,6.11647,-23.189
4.2925,5211.66,-3288.31,7665.75,18.7038,-19.4908,-12.031,9711.75,5121.25,10715.9,-14.1529,261.379,-166.148,-465.975,9562.73,-1556.97,-0.879749,0.772346,-30.7711,-3183.5,-14511.0,-2676.75,35.2342,112.472,-293.868,564.474,9140.56,-1394.6,-18.8085,8.52277,-54.8536,-5398.45,-7453.39,427.491,15.6227,44.2213,-82.8968,8617.4,18.367,1005.58,-11.4663,6.15093,-23.0709
4.293,5210.02,-3286.74,7683.05,18.6748,-19.4489,-11.9215,9733.39,5125.26,10747.8,-14.6225,260.688,-166.953,-461.428,9555.95,-1542.16,-0.79541,0.846936,-30.8299,-3185.74,-14562.8,-2706.21,35.3484,112.619,-294.18,550.785,9138.77,-1367.94,-18.8312,9.01109,-55.1995,-5356.58,-7469.07,409.65,15.7696,42.7882,-82.5739,8614.86,29.091,999.745,-11.4548,6.18539,-22.9529
4.2935,5215.72,-3279.8,7697.05,18.6367,-19.4104,-11.8162,9757.36,5126.02,10778.7,-15.0924,259.964,-167.723,-460.036,9556.15,-1531.88,-0.728772,0.915958,-30.8789,-3193.07,-14609.8,-2738.6,35.4456,112.819,-294.47,529.376,9137.53,-1347.22,-18.8461,9.47404,-55.5278,-5318.55,-7481.74,387.712,15.9691,41.4204,-82.2379,8608.64,39.0641,994.41,-11.4782,6.21095,-22.8273
4.294,5236.1,-3262.1,7704.43,18.5805,-19.3789,-11.7193,9785.97,5120.27,10807.5,-15.5633,259.176,-168.423,-464.954,9570.32,-1530.67,-0.697535,0.973844,-30.9082,-3210.59,-14647.3,-2776.84,35.5091,113.124,-294.713,492.528,9137.38,-1338.37,-18.8455,9.88627,-55.8208,-5288.22,-7488.41,357.58,16.2738,40.1828,-81.8759,8595.1,47.5353,990.071,-11.5717,6.21871,-22.6867
4.2945,5256.48,-3244.4,7711.82,18.5243,-19.3474,-11.6223,9814.59,5114.52,10836.4,-16.0342,258.388,-169.124,-469.873,9584.49,-1529.46,-0.666298,1.03173,-30.9375,-3228.11,-14684.8,-2815.08,35.5726,113.428,-294.956,455.681,9137.23,-1329.53,-18.8449,10.2985,-56.1137,-5257.9,-7495.08,327.448,16.5785,38.9453,-81.5139,8581.55,56.0066,985.731,-11.6652,6.22646,-22.5461
4.295,5276.85,-3226.71,7719.21,18.4681,-19.3159,-11.5254,9843.21,5108.77,10865.3,-16.5051,257.6,-169.825,-474.792,9598.66,-1528.24,-0.635062,1.08962,-30.9669,-3245.63,-14722.4,-2853.32,35.6361,113.733,-295.2,418.834,9137.07,-1320.69,-18.8443,10.7107,-56.4066,-5227.57,-7501.74,297.315,16.8832,37.7077,-81.1519,8568.0,64.4778,981.391,-11.7586,6.23422,-22.4055
4.2955,5297.23,-3209.01,7726.59,18.4119,-19.2844,-11.4284,9871.82,5103.02,10894.1,-16.976,256.812,-170.526,-479.71,9612.82,-1527.03,-0.603825,1.1475,-30.9962,-3263.15,-14759.9,-2891.56,35.6996,114.038,-295.443,381.987,9136.92,-1311.84,-18.8437,11.123,-56.6995,-5197.24,-7508.41,267.183,17.1879,36.4702,-80.7899,8554.45,72.949,977.052,-11.8521,6.24197,-22.2649
4.296,5317.61,-3191.31,7733.98,18.3557,-19.2529,-11.3315,9900.44,5097.28,10923.0,-17.4469,256.024,-171.227,-484.629,9626.99,-1525.81,-0.572588,1.20539,-31.0255,-3280.67,-14797.4,-2929.8,35.7631,114.343,-295.686,345.139,9136.77,-1303.0,-18.8431,11.5352,-56.9924,-5166.91,-7515.07,237.051,17.4925,35.2327,-80.4279,8540.91,81.4202,972.712,-11.9456,6.24973,-22.1243
4.2965,5337.98,-3173.61,7741.36,18.2994,-19.2215,-11.2345,9929.06,5091.53,10951.9,-17.9178,255.236,-171.927,-489.547,9641.16,-1524.6,-0.541351,1.26328,-31.0548,-3298.19,-14835.0,-2968.04,35.8265,114.648,-295.929,308.292,9136.62,-1294.16,-18.8425,11.9474,-57.2854,-5136.58,-7521.74,206.918,17.7972,33.9951,-80.0659,8527.36,89.8915,968.372,-12.039,6.25748,-21.9837
4.297,5358.36,-3155.92,7748.75,18.2432,-19.19,-11.1376,9957.67,5085.78,10980.7,-18.3887,254.447,-172.628,-494.466,9655.33,-1523.39,-0.510114,1.32116,-31.0841,-3315.71,-14872.5,-3006.29,35.89,114.952,-296.173,271.445,9136.46,-1285.31,-18.8419,12.3596,-57.5783,-5106.25,-7528.4,176.786,18.1019,32.7576,-79.7039,8513.81,98.3627,964.032,-12.1325,6.26524,-21.8431
4.2975,5378.74,-3138.22,7756.14,18.187,-19.1585,-11.0406,9986.29,5080.03,11009.6,-18.8596,253.659,-173.329,-499.384,9669.49,-1522.17,-0.478878,1.37905,-31.1134,-3333.23,-14910.0,-3044.53,35.9535,115.257,-296.416,234.597,9136.31,-1276.47,-18.8413,12.7719,-57.8712,-5075.93,-7535.07,146.654,18.4066,31.52,-79.3419,8500.26,106.834,959.693,-12.2259,6.27299,-21.7025
4.298,5396.84,-3115.82,7747.7,18.0692,-19.0928,-10.9498,10018.1,5071.91,11033.5,-19.2209,252.873,-173.999,-508.276,9677.57,-1521.39,-0.462318,1.41459,-31.1311,-3353.21,-14948.2,-3079.11,36.0253,115.588,-296.616,196.639,9141.61,-1264.95,-18.8554,13.1384,-58.13,-5043.81,-7542.9,122.315,18.7022,30.4439,-78.9785,8491.86,116.643,952.751,-12.3013,6.27766,-21.552
4.2985,5412.11,-3087.54,7719.5,17.8742,-18.9844,-10.8665,10054.0,5060.83,11051.2,-19.4452,252.088,-174.631,-522.135,9678.05,-1521.14,-0.464106,1.4222,-31.1345,-3376.26,-14987.1,-3109.12,36.1074,115.951,-296.762,157.292,9153.73,-1250.07,-18.8878,13.4479,-58.3462,-5009.44,-7552.18,105.217,18.9864,29.5695,-78.6131,8489.88,128.126,942.556,-12.354,6.27848,-21.3891
4.299,5427.38,-3059.25,7691.29,17.6792,-18.8759,-10.7833,10089.9,5049.75,11068.9,-19.6696,251.303,-175.263,-535.994,9678.53,-1520.9,-0.465894,1.42982,-31.1379,-3399.32,-15025.9,-3139.13,36.1895,116.315,-296.908,117.945,9165.85,-1235.19,-18.9201,13.7574,-58.5624,-4975.08,-7561.46,88.1187,19.2707,28.6951,-78.2478,8487.9,139.608,932.361,-12.4067,6.27929,-21.2262
4.2995,5442.64,-3030.97,7663.08,17.4842,-18.7675,-10.7,10125.8,5038.67,11086.5,-19.8939,250.518,-175.895,-549.853,9679.0,-1520.65,-0.467681,1.43743,-31.1413,-3422.38,-15064.8,-3169.13,36.2716,116.678,-297.054,78.5978,9177.96,-1220.31,-18.9525,14.0669,-58.7786,-4940.72,-7570.75,71.0208,19.5549,27.8207,-77.8824,8485.92,151.09,922.166,-12.4594,6.28011,-21.0633
4.3,5457.91,-3002.69,7634.87,17.2892,-18.6591,-10.6168,10161.7,5027.6,11104.2,-20.1182,249.733,-176.527,-563.712,9679.48,-1520.41,-0.469469,1.44504,-31.1446,-3445.44,-15103.7,-3199.14,36.3537,117.041,-297.2,39.2507,9190.08,-1205.43,-18.9849,14.3763,-58.9947,-4906.36,-7580.03,53.9229,19.8391,26.9462,-77.5171,8483.94,162.572,911.971,-12.5121,6.28092,-20.9004
4.3005,5473.18,-2974.4,7606.66,17.0942,-18.5506,-10.5335,10197.6,5016.52,11121.9,-20.3426,248.948,-177.159,-577.572,9679.95,-1520.17,-0.471256,1.45265,-31.148,-3468.5,-15142.6,-3229.15,36.4358,117.404,-297.346,-0.0963783,9202.2,-1190.55,-19.0173,14.6858,-59.2109,-4872.0,-7589.31,36.8249,20.1233,26.0718,-77.1517,8481.96,174.055,901.776,-12.5648,6.28174,-20.7375
4.301,5488.45,-2946.12,7578.45,16.8992,-18.4422,-10.4503,10233.5,5005.44,11139.6,-20.5669,248.163,-177.791,-591.431,9680.43,-1519.92,-0.473044,1.46026,-31.1514,-3491.55,-15181.5,-3259.16,36.5179,117.768,-297.492,-39.4435,9214.32,-1175.67,-19.0497,14.9953,-59.4271,-4837.63,-7598.59,19.727,20.4075,25.1974,-76.7864,8479.98,185.537,891.581,-12.6175,6.28255,-20.5746
4.3015,5503.71,-2917.84,7550.24,16.7042,-18.3337,-10.367,10269.4,4994.36,11157.2,-20.7913,247.377,-178.423,-605.29,9680.9,-1519.68,-0.474832,1.46788,-31.1548,-3514.61,-15220.3,-3289.17,36.6,118.131,-297.639,-78.7905,9226.44,-1160.79,-19.0821,15.3048,-59.6433,-4803.27,-7607.88,2.62903,20.6918,24.323,-76.421,8478.0,197.019,881.386,-12.6702,6.28337,-20.4117
4.302,5518.98,-2889.56,7522.03,16.5092,-18.2253,-10.2838,10305.3,4983.28,11174.9,-21.0156,246.592,-179.055,-619.149,9681.38,-1519.43,-0.476619,1.47549,-31.1581,-3537.67,-15259.2,-3319.17,36.6821,118.494,-297.785,-118.138,9238.55,-1145.91,-19.1145,15.6143,-59.8595,-4768.91,-7617.16,-14.4689,20.976,23.4486,-76.0557,8476.02,208.501,871.192,-12.7229,6.28418,-20.2488
4.3025,5526.97,-2880.45,7515.84,16.3835,-18.0915,-10.2362,10350.8,4980.84,11194.7,-21.1993,245.844,-179.65,-624.631,9679.29,-1522.49,-0.467812,1.4522,-31.1874,-3571.06,-15296.7,-3346.77,36.7628,118.792,-297.882,-166.149,9245.71,-1133.16,-19.1436,15.8862,-60.0311,-4729.72,-7618.85,-23.0628,21.2018,22.7941,-75.6693,8466.8,214.081,865.367,-12.7198,6.21186,-20.0817
4.303,5529.13,-2886.69,7527.25,16.3133,-17.9375,-10.2172,10404.0,4985.31,11216.3,-21.3506,245.124,-180.215,-623.411,9675.15,-1528.18,-0.45053,1.4042,-31.2373,-3612.71,-15333.1,-3372.44,36.8426,119.038,-297.94,-221.093,9248.89,-1122.11,-19.1702,16.1283,-60.167,-4686.67,-7614.46,-24.8535,21.381,22.3154,-75.2662,8451.79,214.939,863.038,-12.6723,6.08102,-19.9113
4.3035,5531.29,-2892.93,7538.66,16.243,-17.7834,-10.1981,10457.2,4989.78,11237.8,-21.5018,244.405,-180.781,-622.192,9671.01,-1533.87,-0.433247,1.3562,-31.2872,-3654.35,-15369.6,-3398.1,36.9223,119.284,-297.999,-276.036,9252.08,-1111.06,-19.1968,16.3703,-60.3029,-4643.62,-7610.06,-26.6441,21.5601,21.8368,-74.8631,8436.78,215.797,860.709,-12.6247,5.95018,-19.7408
4.304,5533.45,-2899.16,7550.08,16.1727,-17.6294,-10.1791,10510.4,4994.25,11259.3,-21.6531,243.685,-181.346,-620.972,9666.87,-1539.56,-0.415965,1.30819,-31.3371,-3696.0,-15406.0,-3423.77,37.0021,119.53,-298.057,-330.979,9255.26,-1100.01,-19.2234,16.6123,-60.4389,-4600.58,-7605.67,-28.4348,21.7393,21.3581,-74.4599,8421.77,216.655,858.381,-12.5771,5.81934,-19.5703
4.3045,5535.61,-2905.4,7561.49,16.1025,-17.4753,-10.16,10563.7,4998.72,11280.9,-21.8043,242.965,-181.911,-619.753,9662.73,-1545.25,-0.398682,1.26019,-31.3871,-3737.65,-15442.4,-3449.43,37.0818,119.776,-298.115,-385.923,9258.44,-1088.96,-19.25,16.8543,-60.5748,-4557.53,-7601.28,-30.2254,21.9184,20.8795,-74.0568,8406.76,217.513,856.052,-12.5295,5.6885,-19.3999
4.305,5537.77,-2911.64,7572.9,16.0322,-17.3213,-10.141,10616.9,5003.19,11302.4,-21.9555,242.246,-182.476,-618.533,9658.59,-1550.94,-0.3814,1.21219,-31.437,-3779.3,-15478.8,-3475.1,37.1615,120.021,-298.174,-440.866,9261.63,-1077.91,-19.2766,17.0963,-60.7108,-4514.48,-7596.89,-32.0161,22.0976,20.4008,-73.6537,8391.75,218.37,853.723,-12.4819,5.55766,-19.2294
4.3055,5539.93,-2917.88,7584.32,15.962,-17.1672,-10.1219,10670.1,5007.66,11324.0,-22.1068,241.526,-183.041,-617.314,9654.45,-1556.63,-0.364117,1.16419,-31.4869,-3820.95,-15515.2,-3500.77,37.2413,120.267,-298.232,-495.809,9264.81,-1066.86,-19.3032,17.3383,-60.8467,-4471.43,-7592.5,-33.8068,22.2767,19.9222,-73.2505,8376.74,219.228,851.394,-12.4343,5.42682,-19.059
4.306,5542.09,-2924.11,7595.73,15.8917,-17.0132,-10.1028,10723.3,5012.13,11345.5,-22.258,240.807,-183.606,-616.094,9650.31,-1562.32,-0.346835,1.11618,-31.5368,-3862.6,-15551.6,-3526.43,37.321,120.513,-298.291,-550.753,9268.0,-1055.81,-19.3297,17.5803,-60.9826,-4428.38,-7588.11,-35.5974,22.4559,19.4435,-72.8474,8361.73,220.086,849.066,-12.3867,5.29598,-18.8885
4.3065,5544.25,-2930.35,7607.14,15.8215,-16.8592,-10.0838,10776.5,5016.6,11367.0,-22.4092,240.087,-184.171,-614.875,9646.17,-1568.01,-0.329552,1.06818,-31.5868,-3904.25,-15588.0,-3552.1,37.4007,120.759,-298.349,-605.696,9271.18,-1044.76,-19.3563,17.8223,-61.1186,-4385.33,-7583.72,-37.3881,22.635,18.9649,-72.4443,8346.71,220.944,846.737,-12.3391,5.16514,-18.7181
4.307,5539.41,-2947.32,7610.78,15.8451,-16.796,-10.1122,10852.0,5015.29,11385.9,-22.3993,239.408,-184.61,-612.394,9638.99,-1573.77,-0.308011,0.997362,-31.6231,-3943.76,-15614.6,-3587.91,37.474,120.962,-298.381,-658.193,9280.31,-1031.68,-19.4111,17.9684,-61.1837,-4330.99,-7564.5,-27.9062,22.7338,18.6851,-72.0567,8334.18,224.75,852.76,-12.2983,4.99971,-18.5733
4.3075,5531.06,-2969.66,7610.52,15.9158,-16.7782,-10.1644,10938.7,5011.1,11403.4,-22.3087,238.75,-184.986,-609.283,9630.3,-1579.56,-0.284341,0.915136,-31.6527,-3982.2,-15636.3,-3628.79,37.544,121.145,-298.401,-709.466,9292.42,-1017.6,-19.4799,18.0665,-61.2134,-4270.99,-7537.86,-12.788,22.7924,18.5047,-71.677,8322.89,230.031,862.96,-12.2608,4.81698,-18.4415
4.308,5522.72,-2992.0,7610.26,15.9864,-16.7605,-10.2165,11025.4,5006.9,11420.9,-22.2181,238.091,-185.362,-606.172,9621.6,-1585.36,-0.26067,0.83291,-31.6823,-4020.65,-15658.0,-3669.68,37.614,121.327,-298.42,-760.74,9304.53,-1003.51,-19.5487,18.1646,-61.2431,-4211.0,-7511.22,2.33012,22.8511,18.3243,-71.2972,8311.6,235.311,873.16,-12.2233,4.63425,-18.3096
4.3085,5514.37,-3014.34,7610.0,16.057,-16.7427,-10.2686,11112.0,5002.7,11438.4,-22.1275,237.433,-185.738,-603.06,9612.9,-1591.15,-0.237,0.750684,-31.7119,-4059.1,-15679.7,-3710.56,37.684,121.509,-298.44,-812.013,9316.64,-989.419,-19.6175,18.2627,-61.2729,-4151.01,-7484.59,17.4483,22.9097,18.1439,-70.9175,8300.31,240.591,883.36,-12.1858,4.45152,-18.1777
4.309,5506.03,-3036.67,7609.74,16.1277,-16.7249,-10.3208,11198.7,4998.51,11455.9,-22.0369,236.774,-186.113,-599.949,9604.21,-1596.94,-0.21333,0.668459,-31.7415,-4097.54,-15701.4,-3751.45,37.754,121.691,-298.459,-863.286,9328.75,-975.331,-19.6863,18.3608,-61.3026,-4091.01,-7457.95,32.5664,22.9683,17.9635,-70.5378,8289.02,245.872,893.559,-12.1484,4.26878,-18.0459
4.3095,5497.68,-3059.01,7609.49,16.1983,-16.7072,-10.3729,11285.3,4994.31,11473.4,-21.9463,236.116,-186.489,-596.838,9595.51,-1602.74,-0.189659,0.586233,-31.7711,-4135.99,-15723.1,-3792.33,37.824,121.874,-298.478,-914.56,9340.85,-961.242,-19.7551,18.4589,-61.3323,-4031.02,-7431.32,47.6846,23.0269,17.7832,-70.158,8277.73,251.152,903.759,-12.1109,4.08605,-17.914
4.31,5489.34,-3081.35,7609.23,16.2689,-16.6894,-10.4251,11372.0,4990.12,11490.9,-21.8557,235.457,-186.865,-593.727,9586.81,-1608.53,-0.165989,0.504007,-31.8007,-4174.43,-15744.8,-3833.22,37.894,122.056,-298.498,-965.833,9352.96,-947.154,-19.8239,18.557,-61.362,-3971.03,-7404.68,62.8027,23.0856,17.6028,-69.7783,8266.43,256.433,913.959,-12.0734,3.90332,-17.7821
4.3105,5480.99,-3103.69,7608.97,16.3396,-16.6717,-10.4772,11458.7,4985.92,11508.4,-21.7652,234.799,-187.241,-590.616,9578.12,-1614.33,-0.142318,0.421781,-31.8303,-4212.88,-15766.5,-3874.1,37.964,122.238,-298.517,-1017.11,9365.07,-933.066,-19.8927,18.6551,-61.3917,-3911.03,-7378.04,77.9209,23.1442,17.4224,-69.3985,8255.14,261.713,924.158,-12.0359,3.72059,-17.6503
4.311,5472.65,-3126.02,7608.71,16.4102,-16.6539,-10.5294,11545.3,4981.73,11525.9,-21.6746,234.14,-187.616,-587.504,9569.42,-1620.12,-0.118648,0.339556,-31.8599,-4251.32,-15788.2,-3914.99,38.034,122.42,-298.537,-1068.38,9377.18,-918.978,-19.9615,18.7533,-61.4214,-3851.04,-7351.41,93.039,23.2028,17.242,-69.0188,8243.85,266.993,934.358,-11.9984,3.53786,-17.5184
4.3115,5447.11,-3136.48,7606.06,16.4309,-16.7205,-10.5802,11650.1,4974.1,11546.1,-21.5857,233.637,-187.941,-587.849,9569.72,-1632.76,-0.0431249,0.243429,-31.9026,-4297.18,-15803.8,-3954.11,38.0295,122.626,-298.511,-1102.51,9391.31,-904.637,-20.0562,18.6922,-61.366,-3779.4,-7333.57,124.918,23.0894,17.228,-68.6641,8234.54,263.152,931.286,-12.076,3.29177,-17.3056
4.312,5416.66,-3143.53,7602.72,16.4374,-16.8111,-10.6307,11760.1,4965.49,11567.1,-21.4973,233.177,-188.251,-589.182,9572.6,-1647.36,0.0472133,0.143332,-31.9489,-4345.16,-15817.6,-3992.74,38.0036,122.838,-298.471,-1131.75,9406.03,-890.225,-20.1583,18.5856,-61.2863,-3704.42,-7318.25,161.586,22.9268,17.2615,-68.3166,8225.79,256.704,924.423,-12.1865,3.02757,-17.0696
4.3125,5386.21,-3150.59,7599.37,16.4438,-16.9018,-10.6812,11870.0,4956.88,11588.1,-21.4089,232.718,-188.561,-590.514,9575.47,-1661.96,0.137551,0.043234,-31.9953,-4393.14,-15831.4,-4031.36,37.9778,123.051,-298.432,-1160.98,9420.74,-875.813,-20.2604,18.479,-61.2065,-3629.45,-7302.93,198.254,22.7642,17.295,-67.9691,8217.04,250.256,917.559,-12.297,2.76337,-16.8337
4.313,5355.76,-3157.65,7596.03,16.4503,-16.9925,-10.7316,11980.0,4948.27,11609.1,-21.3205,232.258,-188.871,-591.846,9578.35,-1676.56,0.22789,-0.0568637,-32.0417,-4441.12,-15845.3,-4069.98,37.952,123.263,-298.393,-1190.22,9435.45,-861.401,-20.3625,18.3724,-61.1268,-3554.48,-7287.61,234.923,22.6016,17.3285,-67.6215,8208.29,243.809,910.696,-12.4074,2.49917,-16.5977
4.3135,5325.31,-3164.71,7592.69,16.4567,-17.0831,-10.7821,12090.0,4939.66,11630.0,-21.2321,231.799,-189.181,-593.179,9581.22,-1691.16,0.318228,-0.156961,-32.088,-4489.1,-15859.1,-4108.61,37.9261,123.475,-298.354,-1219.45,9450.17,-846.989,-20.4646,18.2659,-61.047,-3479.51,-7272.29,271.591,22.439,17.3619,-67.274,8199.54,237.361,903.832,-12.5179,2.23497,-16.3618
4.314,5294.87,-3171.76,7589.35,16.4632,-17.1738,-10.8326,12199.9,4931.05,11651.0,-21.1437,231.34,-189.492,-594.511,9584.09,-1705.76,0.408566,-0.257059,-32.1344,-4537.08,-15872.9,-4147.23,37.9003,123.687,-298.314,-1248.69,9464.88,-832.577,-20.5668,18.1593,-60.9673,-3404.53,-7256.97,308.259,22.2764,17.3954,-66.9265,8190.79,230.913,896.968,-12.6284,1.97077,-16.1258
4.3145,5264.42,-3178.82,7586.01,16.4696,-17.2645,-10.883,12309.9,4922.44,11672.0,-21.0553,230.88,-189.802,-595.843,9586.97,-1720.36,0.498904,-0.357157,-32.1808,-4585.06,-15886.7,-4185.85,37.8744,123.9,-298.275,-1277.93,9479.6,-818.165,-20.6689,18.0527,-60.8875,-3329.56,-7241.65,344.927,22.1138,17.4289,-66.5789,8182.04,224.465,890.105,-12.7388,1.70657,-15.8899
4.315,5233.97,-3185.88,7582.67,16.4761,-17.3551,-10.9335,12419.8,4913.83,11693.0,-20.9669,230.421,-190.112,-597.176,9589.84,-1734.96,0.589242,-0.457255,-32.2272,-4633.03,-15900.5,-4224.48,37.8486,124.112,-298.236,-1307.16,9494.31,-803.753,-20.771,17.9461,-60.8078,-3254.59,-7226.33,381.595,21.9512,17.4624,-66.2314,8173.29,218.017,883.241,-12.8493,1.44237,-15.6539
4.3155,5203.52,-3192.94,7579.33,16.4825,-17.4458,-10.984,12529.8,4905.22,11714.0,-20.8785,229.961,-190.422,-598.508,9592.72,-1749.56,0.67958,-0.557352,-32.2735,-4681.01,-15914.4,-4263.1,37.8228,124.324,-298.197,-1336.4,9509.03,-789.341,-20.8731,17.8396,-60.728,-3179.62,-7211.01,418.263,21.7886,17.4959,-65.8839,8164.54,211.57,876.378,-12.9598,1.17817,-15.418
4.316,5198.0,-3195.06,7565.92,16.5255,-17.4838,-10.9413,12637.9,4921.02,11723.3,-20.9557,229.764,-190.619,-593.8,9586.82,-1751.83,0.738508,-0.645217,-32.3283,-4742.25,-15926.4,-4308.38,37.8575,124.532,-298.142,-1355.54,9509.75,-767.398,-20.8788,17.6144,-60.6789,-3096.57,-7211.62,448.493,21.5777,17.8761,-65.5199,8155.35,203.878,868.789,-13.0537,0.907196,-15.2258
4.3165,5195.6,-3196.56,7551.25,16.5731,-17.5152,-10.887,12745.7,4939.86,11731.3,-21.0535,229.6,-190.802,-588.338,9579.82,-1752.56,0.793509,-0.731554,-32.3841,-4805.15,-15938.1,-4354.49,37.8997,124.74,-298.086,-1373.42,9508.72,-744.513,-20.8724,17.3745,-60.6336,-3012.52,-7214.21,477.918,21.3608,18.2997,-65.1537,8146.12,196.032,861.109,-13.1455,0.635379,-15.0391
4.317,5193.2,-3198.07,7536.59,16.6206,-17.5466,-10.8326,12853.5,4958.71,11739.2,-21.1513,229.435,-190.985,-582.876,9572.83,-1753.29,0.848511,-0.81789,-32.44,-4868.05,-15949.9,-4400.6,37.942,124.948,-298.03,-1391.3,9507.7,-721.629,-20.8661,17.1346,-60.5884,-2928.47,-7216.8,507.343,21.1439,18.7233,-64.7876,8136.88,188.185,853.429,-13.2373,0.363561,-14.8524
4.3175,5190.8,-3199.57,7521.92,16.6681,-17.5781,-10.7783,12961.3,4977.56,11747.1,-21.2491,229.27,-191.168,-577.413,9565.83,-1754.02,0.903512,-0.904226,-32.4958,-4930.95,-15961.7,-4446.71,37.9843,125.155,-297.974,-1409.19,9506.67,-698.745,-20.8598,16.8946,-60.5431,-2844.42,-7219.4,536.769,20.9269,19.1469,-64.4215,8127.65,180.339,845.749,-13.3291,0.0917434,-14.6658
4.318,5188.4,-3201.08,7507.25,16.7157,-17.6095,-10.7239,13069.2,4996.4,11755.0,-21.3469,229.106,-191.351,-571.951,9558.83,-1754.76,0.958514,-0.990562,-32.5516,-4993.85,-15973.5,-4492.82,38.0266,125.363,-297.918,-1427.07,9505.64,-675.86,-20.8534,16.6547,-60.4978,-2760.37,-7221.99,566.194,20.71,19.5704,-64.0554,8118.41,172.492,838.07,-13.421,-0.180074,-14.4791
4.3185,5185.99,-3202.58,7492.59,16.7632,-17.6409,-10.6696,13177.0,5015.25,11762.9,-21.4448,228.941,-191.534,-566.488,9551.84,-1755.49,1.01352,-1.0769,-32.6075,-5056.75,-15985.2,-4538.93,38.0689,125.571,-297.862,-1444.95,9504.62,-652.976,-20.8471,16.4147,-60.4525,-2676.32,-7224.59,595.619,20.4931,19.994,-63.6893,8109.17,164.645,830.39,-13.5128,-0.451892,-14.2924
4.319,5183.59,-3204.09,7477.92,16.8108,-17.6723,-10.6153,13284.8,5034.09,11770.8,-21.5426,228.777,-191.717,-561.026,9544.84,-1756.22,1.06852,-1.16323,-32.6633,-5119.64,-15997.0,-4585.04,38.1111,125.778,-297.806,-1462.83,9503.59,-630.092,-20.8407,16.1748,-60.4073,-2592.27,-7227.18,625.044,20.2761,20.4176,-63.3232,8099.94,156.799,822.71,-13.6046,-0.723709,-14.1057
4.3195,5181.19,-3205.59,7463.26,16.8583,-17.7038,-10.5609,13392.7,5052.94,11778.7,-21.6404,228.612,-191.9,-555.564,9537.84,-1756.95,1.12352,-1.24957,-32.7191,-5182.54,-16008.8,-4631.15,38.1534,125.986,-297.75,-1480.71,9502.56,-607.208,-20.8344,15.9348,-60.362,-2508.22,-7229.77,654.469,20.0592,20.8412,-62.9571,8090.7,148.952,815.03,-13.6964,-0.995527,-13.919
4.32,5178.79,-3207.1,7448.59,16.9058,-17.7352,-10.5066,13500.5,5071.79,11786.6,-21.7382,228.448,-192.083,-550.101,9530.85,-1757.68,1.17852,-1.33591,-32.7749,-5245.44,-16020.6,-4677.26,38.1957,126.193,-297.694,-1498.6,9501.54,-584.323,-20.828,15.6949,-60.3167,-2424.17,-7232.37,683.895,19.8423,21.2648,-62.591,8081.46,141.106,807.35,-13.7883,-1.26734,-13.7324
4.3205,5189.14,-3211.55,7451.97,17.0165,-17.7682,-10.5291,13609.0,5077.87,11769.7,-21.9281,228.587,-192.185,-548.919,9531.6,-1773.14,1.18414,-1.47377,-32.8266,-5276.23,-16013.2,-4709.47,38.2154,126.475,-297.599,-1512.36,9494.37,-582.916,-20.8999,15.2285,-60.2504,-2350.93,-7235.99,701.729,19.5864,22.0506,-62.2209,8083.4,136.01,808.107,-13.8455,-1.57739,-13.5469
4.321,5199.49,-3216.0,7455.34,17.1271,-17.8013,-10.5516,13717.6,5083.95,11752.7,-22.118,228.726,-192.287,-547.737,9532.36,-1788.61,1.18977,-1.61164,-32.8783,-5307.02,-16005.9,-4741.67,38.235,126.756,-297.504,-1526.12,9487.2,-581.509,-20.9719,14.7622,-60.184,-2277.7,-7239.62,719.563,19.3305,22.8364,-61.8507,8085.33,130.915,808.863,-13.9028,-1.88744,-13.3614
4.3215,5209.83,-3220.46,7458.72,17.2377,-17.8344,-10.5741,13826.1,5090.04,11735.8,-22.3079,228.865,-192.389,-546.554,9533.11,-1804.07,1.19539,-1.74951,-32.9299,-5337.81,-15998.5,-4773.88,38.2546,127.037,-297.409,-1539.88,9480.04,-580.102,-21.0438,14.2958,-60.1177,-2204.46,-7243.25,737.396,19.0746,23.6222,-61.4806,8087.26,125.819,809.619,-13.96,-2.19749,-13.1759
4.322,5220.18,-3224.91,7462.1,17.3483,-17.8674,-10.5966,13934.7,5096.12,11718.8,-22.4978,229.004,-192.491,-545.372,9533.86,-1819.54,1.20101,-1.88738,-32.9816,-5368.61,-15991.2,-4806.08,38.2743,127.319,-297.314,-1553.65,9472.87,-578.695,-21.1157,13.8295,-60.0513,-2131.23,-7246.87,755.23,18.8187,24.408,-61.1105,8089.2,120.724,810.376,-14.0173,-2.50754,-12.9904
4.3225,5230.53,-3229.36,7465.47,17.459,-17.9005,-10.6191,14043.2,5102.2,11701.9,-22.6877,229.143,-192.593,-544.19,9534.62,-1835.0,1.20663,-2.02525,-33.0333,-5399.4,-15983.8,-4838.29,38.2939,127.6,-297.219,-1567.41,9465.7,-577.288,-21.1877,13.3631,-59.985,-2058.0,-7250.5,773.064,18.5628,25.1938,-60.7403,8091.13,115.628,811.132,-14.0746,-2.81759,-12.805
4.323,5240.88,-3233.82,7468.85,17.5696,-17.9335,-10.6416,14151.7,5108.29,11684.9,-22.8776,229.283,-192.695,-543.008,9535.37,-1850.47,1.21226,-2.16311,-33.0849,-5430.19,-15976.5,-4870.49,38.3136,127.882,-297.123,-1581.17,9458.53,-575.881,-21.2596,12.8967,-59.9186,-1984.76,-7254.12,790.898,18.3069,25.9796,-60.3702,8093.06,110.533,811.888,-14.1318,-3.12764,-12.6195
4.3235,5251.23,-3238.27,7472.22,17.6802,-17.9666,-10.6641,14260.3,5114.37,11667.9,-23.0675,229.422,-192.797,-541.825,9536.12,-1865.93,1.21788,-2.30098,-33.1366,-5460.98,-15969.2,-4902.69,38.3332,128.163,-297.028,-1594.93,9451.37,-574.473,-21.3315,12.4304,-59.8523,-1911.53,-7257.75,808.732,18.051,26.7654,-60.0,8094.99,105.437,812.645,-14.1891,-3.43769,-12.434
4.324,5261.58,-3242.72,7475.6,17.7908,-17.9997,-10.6866,14368.8,5120.45,11651.0,-23.2574,229.561,-192.899,-540.643,9536.88,-1881.4,1.2235,-2.43885,-33.1883,-5491.77,-15961.8,-4934.9,38.3528,128.444,-296.933,-1608.7,9444.2,-573.066,-21.4035,11.964,-59.7859,-1838.3,-7261.37,826.566,17.7951,27.5512,-59.6299,8096.93,100.342,813.401,-14.2463,-3.74774,-12.2485
4.3245,5270.64,-3246.96,7477.86,17.8995,-18.0398,-10.7071,14471.8,5128.09,11634.3,-23.4716,229.704,-192.974,-540.518,9537.99,-1895.36,1.23061,-2.57221,-33.2357,-5523.33,-15954.6,-4965.44,38.3692,128.722,-296.833,-1619.69,9437.28,-572.477,-21.4687,11.5081,-59.7308,-1765.85,-7265.57,845.309,17.5337,28.3639,-59.2666,8098.81,95.3678,814.182,-14.3108,-4.05728,-12.069
4.325,5269.43,-3249.43,7471.2,17.9926,-18.1365,-10.7108,14530.4,5148.21,11619.7,-23.8799,229.882,-192.841,-548.846,9542.0,-1897.29,1.24958,-2.6695,-33.2489,-5561.04,-15948.3,-4982.66,38.359,128.971,-296.694,-1608.56,9432.3,-578.434,-21.4805,11.1355,-59.7658,-1699.69,-7274.3,871.327,17.2278,29.3917,-58.9583,8100.3,91.363,815.158,-14.4332,-4.36279,-11.9371
4.3255,5268.22,-3251.89,7464.55,18.0858,-18.2331,-10.7145,14588.9,5168.32,11605.1,-24.2881,230.059,-192.707,-557.175,9546.0,-1899.22,1.26856,-2.76678,-33.2622,-5598.76,-15942.1,-4999.88,38.3488,129.221,-296.554,-1597.42,9427.32,-584.39,-21.4923,10.7629,-59.8007,-1633.54,-7283.03,897.344,16.9219,30.4195,-58.65,8101.79,87.3583,816.135,-14.5557,-4.66831,-11.8051
4.326,5267.0,-3254.36,7457.89,18.1789,-18.3298,-10.7182,14647.5,5188.44,11590.5,-24.6964,230.236,-192.573,-565.504,9550.01,-1901.16,1.28753,-2.86407,-33.2754,-5636.47,-15935.9,-5017.1,38.3386,129.47,-296.415,-1586.29,9422.34,-590.347,-21.5041,10.3903,-59.8356,-1567.38,-7291.76,923.362,16.616,31.4473,-58.3417,8103.28,83.3535,817.112,-14.6781,-4.97382,-11.6732
4.3265,5265.79,-3256.83,7451.23,18.2721,-18.4264,-10.7219,14706.1,5208.55,11575.9,-25.1047,230.414,-192.44,-573.833,9554.02,-1903.09,1.30651,-2.96136,-33.2887,-5674.19,-15929.6,-5034.33,38.3284,129.72,-296.275,-1575.16,9417.37,-596.304,-21.5159,10.0177,-59.8705,-1501.23,-7300.49,949.379,16.3101,32.4751,-58.0333,8104.77,79.3487,818.088,-14.8005,-5.27933,-11.5412
4.327,5264.58,-3259.3,7444.58,18.3652,-18.5231,-10.7256,14764.7,5228.67,11561.3,-25.5129,230.591,-192.306,-582.162,9558.03,-1905.03,1.32548,-3.05865,-33.3019,-5711.9,-15923.4,-5051.55,38.3182,129.969,-296.136,-1564.02,9412.39,-602.26,-21.5277,9.64516,-59.9054,-1435.07,-7309.23,975.397,16.0042,33.5029,-57.725,8106.25,75.344,819.065,-14.9229,-5.58484,-11.4093
4.3275,5263.36,-3261.76,7437.92,18.4584,-18.6198,-10.7293,14823.2,5248.78,11546.7,-25.9212,230.768,-192.172,-590.491,9562.03,-1906.96,1.34445,-3.15593,-33.3152,-5749.62,-15917.2,-5068.77,38.308,130.219,-295.997,-1552.89,9407.41,-608.217,-21.5394,9.27258,-59.9403,-1368.92,-7317.96,1001.41,15.6984,34.5306,-57.4167,8107.74,71.3392,820.041,-15.0454,-5.89036,-11.2774
4.328,5262.15,-3264.23,7431.26,18.5515,-18.7164,-10.7329,14881.8,5268.9,11532.1,-26.3294,230.945,-192.039,-598.819,9566.04,-1908.9,1.36343,-3.25322,-33.3284,-5787.33,-15910.9,-5085.99,38.2978,130.468,-295.857,-1541.75,9402.44,-614.173,-21.5512,8.9,-59.9752,-1302.76,-7326.69,1027.43,15.3925,35.5584,-57.1084,8109.23,67.3345,821.018,-15.1678,-6.19587,-11.1454
4.3285,5260.94,-3266.7,7424.61,18.6446,-18.8131,-10.7366,14940.4,5289.01,11517.5,-26.7377,231.123,-191.905,-607.148,9570.05,-1910.83,1.3824,-3.35051,-33.3417,-5825.05,-15904.7,-5103.21,38.2876,130.717,-295.718,-1530.62,9397.46,-620.13,-21.563,8.52742,-60.0101,-1236.61,-7335.42,1053.45,15.0866,36.5862,-56.8001,8110.72,63.3297,821.995,-15.2902,-6.50138,-11.0135
4.329,5259.17,-3269.87,7419.04,18.7204,-18.9016,-10.7256,14991.4,5302.67,11499.3,-27.1232,231.289,-191.721,-613.548,9574.84,-1911.82,1.39775,-3.44953,-33.3639,-5854.33,-15905.3,-5116.43,38.274,130.971,-295.559,-1526.77,9392.31,-627.089,-21.5694,8.15064,-60.0591,-1174.44,-7344.58,1078.53,14.7648,37.623,-56.5016,8109.68,59.4278,823.374,-15.4048,-6.8114,-10.8774
4.3295,5255.46,-3275.49,7417.27,18.7353,-18.9618,-10.6629,15016.1,5293.74,11468.4,-27.4292,231.416,-191.359,-613.199,9582.39,-1909.5,1.40038,-3.55465,-33.4178,-5854.09,-15929.8,-5115.61,38.2482,131.238,-295.329,-1548.4,9386.58,-637.557,-21.557,7.75916,-60.1574,-1126.26,-7355.24,1100.33,14.3874,38.6913,-56.2374,8099.79,55.8858,826.16,-15.4919,-7.13716,-10.7268
4.33,5251.76,-3281.11,7415.5,18.7503,-19.022,-10.6002,15040.7,5284.81,11437.4,-27.7351,231.543,-190.998,-612.849,9589.95,-1907.18,1.40301,-3.65976,-33.4717,-5853.86,-15954.3,-5114.78,38.2225,131.506,-295.1,-1570.03,9380.85,-648.025,-21.5446,7.36769,-60.2558,-1078.08,-7365.9,1122.14,14.01,39.7595,-55.9733,8089.9,52.3438,828.947,-15.579,-7.46292,-10.5763
4.3305,5248.05,-3286.73,7413.73,18.7652,-19.0821,-10.5375,15065.4,5275.88,11406.5,-28.0411,231.67,-190.637,-612.5,9597.5,-1904.86,1.40564,-3.76487,-33.5255,-5853.62,-15978.8,-5113.96,38.1968,131.773,-294.871,-1591.66,9375.12,-658.493,-21.5322,6.97621,-60.3541,-1029.9,-7376.56,1143.94,13.6326,40.8278,-55.7092,8080.01,48.8018,831.734,-15.6661,-7.78868,-10.4257
4.331,5244.35,-3292.35,7411.96,18.7802,-19.1423,-10.4748,15090.0,5266.95,11375.6,-28.3471,231.797,-190.276,-612.15,9605.05,-1902.54,1.40827,-3.86999,-33.5794,-5853.39,-16003.4,-5113.14,38.171,132.04,-294.642,-1613.29,9369.38,-668.962,-21.5198,6.58473,-60.4524,-981.723,-7387.22,1165.74,13.2552,41.896,-55.4451,8070.12,45.2598,834.521,-15.7532,-8.11444,-10.2752
4.3315,5240.64,-3297.98,7410.19,18.7951,-19.2025,-10.4121,15114.7,5258.01,11344.7,-28.653,231.924,-189.914,-611.8,9612.6,-1900.21,1.41091,-3.9751,-33.6332,-5853.15,-16027.9,-5112.32,38.1453,132.308,-294.413,-1634.92,9363.65,-679.43,-21.5073,6.19325,-60.5507,-933.542,-7397.88,1187.55,12.8778,42.9643,-55.181,8060.23,41.7178,837.308,-15.8403,-8.44021,-10.1246
4.332,5236.93,-3303.6,7408.42,18.81,-19.2626,-10.3494,15139.4,5249.08,11313.8,-28.959,232.051,-189.553,-611.451,9620.16,-1897.89,1.41354,-4.08021,-33.6871,-5852.92,-16052.4,-5111.5,38.1196,132.575,-294.184,-1656.56,9357.92,-689.898,-21.4949,5.80177,-60.649,-885.362,-7408.54,1209.35,12.5004,44.0325,-54.9168,8050.33,38.1758,840.095,-15.9274,-8.76597,-9.97408
4.3325,5233.23,-3309.22,7406.65,18.825,-19.3228,-10.2867,15164.0,5240.15,11282.8,-29.2649,232.179,-189.192,-611.101,9627.71,-1895.57,1.41617,-4.18533,-33.741,-5852.68,-16076.9,-5110.68,38.0938,132.842,-293.955,-1678.19,9352.19,-700.366,-21.4825,5.41029,-60.7473,-837.181,-7419.2,1231.15,12.123,45.1008,-54.6527,8040.44,34.6338,842.882,-16.0145,-9.09173,-9.82353
4.333,5229.52,-3314.84,7404.88,18.8399,-19.383,-10.224,15188.7,5231.22,11251.9,-29.5709,232.306,-188.83,-610.751,9635.26,-1893.25,1.4188,-4.29044,-33.7948,-5852.45,-16101.4,-5109.86,38.0681,133.11,-293.725,-1699.82,9346.45,-710.834,-21.4701,5.01881,-60.8457,-789.0,-7429.86,1252.96,11.7456,46.1691,-54.3886,8030.55,31.0918,845.669,-16.1016,-9.41749,-9.67298
4.3335,5221.47,-3322.08,7407.65,18.8987,-19.4395,-10.2098,15204.4,5203.02,11220.3,-29.8695,232.331,-188.454,-607.312,9638.37,-1889.62,1.43445,-4.3999,-33.8399,-5859.75,-16113.6,-5122.63,37.9816,133.353,-293.469,-1718.89,9340.76,-717.274,-21.4933,4.63043,-60.9738,-752.559,-7441.34,1265.2,11.2779,47.2402,-54.1027,8023.86,26.5088,845.487,-16.1823,-9.73624,-9.52108
4.334,5204.72,-3332.55,7419.5,19.0452,-19.4886,-10.2926,15202.3,5136.27,11187.4,-30.1533,232.154,-188.046,-597.695,9632.59,-1883.38,1.47615,-4.51803,-33.8674,-5882.13,-16100.9,-5162.59,37.7735,133.548,-293.158,-1732.85,9335.14,-715.659,-21.5875,4.24823,-61.1617,-739.596,-7454.48,1258.33,10.6293,48.317,-53.7732,8023.58,19.8438,839.368,-16.2503,-10.041,-9.3665
4.3345,5187.97,-3343.01,7431.35,19.1917,-19.5378,-10.3755,15200.3,5069.52,11154.4,-30.4371,231.977,-187.638,-588.078,9626.81,-1877.14,1.51784,-4.63617,-33.895,-5904.51,-16088.3,-5202.55,37.5654,133.743,-292.847,-1746.81,9329.52,-714.043,-21.6818,3.86603,-61.3496,-726.634,-7467.63,1251.46,9.98079,49.3938,-53.4438,8023.3,13.1788,833.248,-16.3183,-10.3457,-9.21192
4.335,5171.22,-3353.48,7443.21,19.3381,-19.5869,-10.4583,15198.2,5002.77,11121.5,-30.721,231.799,-187.23,-578.46,9621.03,-1870.89,1.55954,-4.7543,-33.9225,-5926.88,-16075.6,-5242.51,37.3574,133.938,-292.536,-1760.76,9323.9,-712.427,-21.7761,3.48384,-61.5375,-713.671,-7480.77,1244.6,9.33226,50.4707,-53.1143,8023.01,6.51375,827.129,-16.3863,-10.6504,-9.05733
4.3355,5154.46,-3363.95,7455.06,19.4846,-19.6361,-10.5412,15196.1,4936.02,11088.5,-31.0048,231.622,-186.822,-568.843,9615.25,-1864.65,1.60123,-4.87243,-33.95,-5949.26,-16063.0,-5282.47,37.1493,134.133,-292.225,-1774.72,9318.28,-710.812,-21.8704,3.10164,-61.7254,-700.708,-7493.91,1237.73,8.68372,51.5475,-52.7848,8022.73,-0.151252,821.01,-16.4543,-10.9551,-8.90275
4.336,5137.71,-3374.42,7466.91,19.6311,-19.6852,-10.624,15194.0,4869.28,11055.5,-31.2887,231.444,-186.414,-559.225,9609.47,-1858.41,1.64293,-4.99057,-33.9776,-5971.63,-16050.3,-5322.43,36.9412,134.328,-291.914,-1788.68,9312.66,-709.196,-21.9647,2.71944,-61.9133,-687.745,-7507.05,1230.86,8.03519,52.6243,-52.4554,8022.45,-6.81625,814.89,-16.5223,-11.2599,-8.74817
4.3365,5120.96,-3384.88,7478.76,19.7775,-19.7344,-10.7069,15191.9,4802.53,11022.6,-31.5725,231.267,-186.006,-549.608,9603.7,-1852.16,1.68462,-5.1087,-34.0051,-5994.01,-16037.7,-5362.39,36.7332,134.523,-291.603,-1802.64,9307.04,-707.581,-22.059,2.33725,-62.1012,-674.782,-7520.19,1223.99,7.38665,53.7011,-52.1259,8022.16,-13.4813,808.771,-16.5903,-11.5646,-8.59358
4.337,5104.21,-3395.35,7490.61,19.924,-19.7836,-10.7897,15189.8,4735.78,10989.6,-31.8563,231.09,-185.598,-539.99,9597.92,-1845.92,1.72632,-5.22684,-34.0326,-6016.39,-16025.0,-5402.35,36.5251,134.718,-291.292,-1816.59,9301.42,-705.965,-22.1533,1.95505,-62.2891,-661.82,-7533.33,1217.12,6.73812,54.778,-51.7965,8021.88,-20.1463,802.652,-16.6583,-11.8693,-8.439
4.3375,5087.46,-3405.82,7502.46,20.0705,-19.8327,-10.8726,15187.7,4669.03,10956.7,-32.1402,230.912,-185.191,-530.373,9592.14,-1839.67,1.76801,-5.34497,-34.0602,-6038.76,-16012.4,-5442.31,36.317,134.913,-290.981,-1830.55,9295.79,-704.349,-22.2476,1.57285,-62.477,-648.857,-7546.47,1210.25,6.08958,55.8548,-51.467,8021.6,-26.8113,796.532,-16.7263,-12.1741,-8.28442
4.338,5084.71,-3397.23,7507.02,20.2171,-19.8531,-10.9275,15169.3,4584.47,10946.0,-32.3073,230.578,-184.843,-525.901,9588.59,-1835.19,1.81217,-5.44953,-34.0878,-6083.53,-16002.8,-5459.6,36.1175,134.996,-290.556,-1841.18,9302.55,-703.911,-22.3133,1.18397,-62.6144,-648.902,-7563.31,1196.66,5.34257,56.9331,-51.1282,8020.32,-37.3065,795.043,-16.7676,-12.474,-8.13149
4.3385,5099.47,-3364.83,7502.47,20.3638,-19.8375,-10.9477,15130.3,4477.64,10963.1,-32.3284,230.049,-184.571,-527.86,9587.83,-1832.89,1.85942,-5.53711,-34.1155,-6156.27,-15997.0,-5448.56,35.9285,134.938,-289.988,-1847.66,9324.79,-704.944,-22.3433,0.786728,-62.6886,-665.206,-7584.77,1174.66,4.47246,58.0133,-50.7779,8017.8,-52.5895,799.342,-16.7755,-12.768,-7.98065
4.339,5114.22,-3332.42,7497.92,20.5105,-19.8219,-10.9678,15091.4,4370.81,10980.3,-32.3496,229.521,-184.299,-529.819,9587.07,-1830.6,1.90667,-5.62469,-34.1433,-6229.01,-15991.1,-5437.53,35.7396,134.881,-289.421,-1854.14,9347.02,-705.977,-22.3733,0.389488,-62.7629,-681.509,-7606.23,1152.66,3.60235,59.0935,-50.4275,8015.28,-67.8724,803.64,-16.7834,-13.062,-7.8298
4.3395,5128.98,-3300.02,7493.36,20.6572,-19.8063,-10.988,15052.5,4263.98,10997.4,-32.3707,228.992,-184.027,-531.778,9586.31,-1828.31,1.95392,-5.71228,-34.171,-6301.75,-15985.3,-5426.49,35.5507,134.823,-288.853,-1860.61,9369.25,-707.01,-22.4032,-0.00775182,-62.8372,-697.813,-7627.69,1130.66,2.73224,60.1736,-50.0772,8012.76,-83.1554,807.939,-16.7913,-13.3559,-7.67895
4.34,5143.73,-3267.62,7488.81,20.804,-19.7907,-11.0081,15013.6,4157.15,11014.5,-32.3919,228.463,-183.755,-533.737,9585.55,-1826.02,2.00117,-5.79986,-34.1988,-6374.5,-15979.5,-5415.45,35.3618,134.766,-288.285,-1867.09,9391.49,-708.043,-22.4332,-0.404992,-62.9114,-714.117,-7649.15,1108.66,1.86213,61.2538,-49.7268,8010.24,-98.4384,812.238,-16.7992,-13.6499,-7.52811
4.3405,5158.49,-3235.21,7484.26,20.9507,-19.7752,-11.0283,14974.7,4050.32,11031.7,-32.413,227.934,-183.483,-535.696,9584.79,-1823.72,2.04842,-5.88744,-34.2265,-6447.24,-15973.7,-5404.41,35.1729,134.709,-287.718,-1873.57,9413.72,-709.076,-22.4632,-0.802232,-62.9857,-730.421,-7670.6,1086.66,0.992027,62.334,-49.3764,8007.72,-113.721,816.536,-16.8071,-13.9439,-7.37726
4.341,5173.25,-3202.81,7479.7,21.0974,-19.7596,-11.0484,14935.7,3943.49,11048.8,-32.4342,227.405,-183.211,-537.655,9584.03,-1821.43,2.09567,-5.97502,-34.2543,-6519.98,-15967.9,-5393.37,34.984,134.651,-287.15,-1880.04,9435.96,-710.109,-22.4932,-1.19947,-63.0599,-746.725,-7692.06,1064.66,0.121918,63.4141,-49.0261,8005.2,-129.004,820.835,-16.815,-14.2379,-7.22642
4.3415,5188.0,-3170.41,7475.15,21.2441,-19.744,-11.0685,14896.8,3836.65,11066.0,-32.4553,226.876,-182.939,-539.614,9583.28,-1819.14,2.14292,-6.0626,-34.2821,-6592.72,-15962.1,-5382.33,34.7951,134.594,-286.583,-1886.52,9458.19,-711.142,-22.5231,-1.59671,-63.1342,-763.029,-7713.52,1042.66,-0.74819,64.4943,-48.6757,8002.68,-144.287,825.134,-16.8229,-14.5319,-7.07557
4.342,5202.76,-3138.0,7470.6,21.3909,-19.7284,-11.0887,14857.9,3729.82,11083.1,-32.4765,226.347,-182.666,-541.573,9582.52,-1816.85,2.19017,-6.15019,-34.3098,-6665.47,-15956.3,-5371.3,34.6062,134.537,-286.015,-1892.99,9480.42,-712.175,-22.5531,-1.99395,-63.2084,-779.333,-7734.98,1020.66,-1.6183,65.5745,-48.3254,8000.16,-159.57,829.432,-16.8308,-14.8258,-6.92472
4.3425,5205.7,-3128.53,7474.3,21.5226,-19.8072,-11.0945,14857.4,3557.99,11090.9,-32.0928,225.551,-182.359,-549.768,9582.02,-1816.36,2.24205,-6.24089,-34.3521,-6754.6,-15966.9,-5297.73,34.6093,134.112,-285.415,-1908.28,9493.44,-709.015,-22.6265,-2.41723,-63.3169,-800.388,-7749.6,1014.37,-2.44361,66.5196,-47.9215,8000.02,-170.078,832.534,-16.7552,-15.1119,-6.74551
4.343,5199.2,-3137.4,7484.6,21.6423,-19.9615,-11.089,14887.6,3334.15,11091.2,-31.3852,224.543,-182.024,-562.952,9581.73,-1817.33,2.29765,-6.3341,-34.4061,-6856.84,-15990.6,-5174.13,34.7661,133.394,-284.788,-1930.63,9499.08,-702.501,-22.7346,-2.86134,-63.4527,-825.244,-7758.74,1020.65,-3.23309,67.3566,-47.4749,8001.78,-176.765,834.679,-16.6128,-15.3918,-6.54361
4.3435,5192.69,-3146.27,7494.9,21.762,-20.1159,-11.0834,14917.8,3110.3,11091.4,-30.6777,223.535,-181.689,-576.137,9581.44,-1818.29,2.35324,-6.42731,-34.46,-6959.08,-16014.3,-5050.54,34.9228,132.675,-284.16,-1952.97,9504.72,-695.987,-22.8426,-3.30545,-63.5885,-850.1,-7767.89,1026.93,-4.02257,68.1937,-47.0282,8003.55,-183.451,836.823,-16.4704,-15.6716,-6.34171
4.344,5186.18,-3155.14,7505.2,21.8818,-20.2702,-11.0778,14948.1,2886.46,11091.7,-29.9701,222.527,-181.354,-589.321,9581.16,-1819.25,2.40883,-6.52052,-34.514,-7061.32,-16038.1,-4926.95,35.0796,131.957,-283.533,-1975.31,9510.36,-689.473,-22.9507,-3.74955,-63.7243,-874.957,-7777.03,1033.22,-4.81205,69.0307,-46.5816,8005.31,-190.138,838.968,-16.328,-15.9514,-6.13981
4.3445,5179.68,-3164.0,7515.5,22.0015,-20.4246,-11.0722,14978.3,2662.62,11092.0,-29.2626,221.519,-181.018,-602.505,9580.87,-1820.21,2.46442,-6.61372,-34.5679,-7163.56,-16061.8,-4803.35,35.2364,131.239,-282.906,-1997.65,9516.0,-682.959,-23.0588,-4.19366,-63.8601,-899.813,-7786.18,1039.5,-5.60153,69.8678,-46.135,8007.08,-196.825,841.112,-16.1856,-16.2313,-5.93791
4.345,5173.17,-3172.87,7525.81,22.1212,-20.5789,-11.0666,15008.5,2438.78,11092.3,-28.555,220.511,-180.683,-615.689,9580.58,-1821.17,2.52002,-6.70693,-34.6219,-7265.81,-16085.5,-4679.76,35.3931,130.52,-282.279,-2019.99,9521.65,-676.444,-23.1669,-4.63777,-63.9959,-924.669,-7795.32,1045.78,-6.391,70.7048,-45.6883,8008.85,-203.512,843.256,-16.0432,-16.5111,-5.73601
4.3455,5166.67,-3181.74,7536.11,22.241,-20.7333,-11.061,15038.8,2214.94,11092.6,-27.8475,219.502,-180.348,-628.874,9580.29,-1822.14,2.57561,-6.80014,-34.6758,-7368.05,-16109.2,-4556.17,35.5499,129.802,-281.652,-2042.33,9527.29,-669.93,-23.275,-5.08188,-64.1317,-949.525,-7804.47,1052.06,-7.18048,71.5419,-45.2417,8010.61,-210.199,845.401,-15.9008,-16.7909,-5.53411
4.346,5160.16,-3190.61,7546.41,22.3607,-20.8876,-11.0554,15069.0,1991.1,11092.9,-27.1399,218.494,-180.013,-642.058,9580.01,-1823.1,2.6312,-6.89334,-34.7298,-7470.29,-16133.0,-4432.57,35.7066,129.083,-281.025,-2064.67,9532.93,-663.416,-23.3831,-5.52599,-64.2675,-974.381,-7813.61,1058.35,-7.96996,72.3789,-44.795,8012.38,-216.886,847.545,-15.7584,-17.0707,-5.33221
4.3465,5153.65,-3199.48,7556.71,22.4804,-21.0419,-11.0498,15099.2,1767.25,11093.1,-26.4324,217.486,-179.678,-655.242,9579.72,-1824.06,2.6868,-6.98655,-34.7837,-7572.53,-16156.7,-4308.98,35.8634,128.365,-280.398,-2087.01,9538.57,-656.902,-23.4912,-5.97009,-64.4034,-999.237,-7822.76,1064.63,-8.75944,73.216,-44.3484,8014.14,-223.573,849.69,-15.616,-17.3506,-5.13031
4.347,5163.89,-3205.27,7547.52,22.5858,-21.0776,-11.1089,15149.1,1563.0,11031.8,-25.1048,216.531,-179.158,-665.931,9581.67,-1826.54,2.74042,-7.11113,-34.8205,-7651.08,-16191.9,-4216.22,36.1147,127.368,-279.73,-2109.22,9535.82,-648.558,-23.6253,-6.46181,-64.4959,-990.662,-7839.17,1076.81,-9.67837,73.7285,-44.0909,8021.46,-226.464,847.004,-15.4531,-17.6194,-4.95511
4.3475,5182.49,-3209.53,7528.58,22.6841,-21.0538,-11.2004,15208.9,1368.54,10939.5,-23.4671,215.603,-178.545,-675.372,9584.73,-1829.78,2.79307,-7.25139,-34.8487,-7717.78,-16232.9,-4138.87,36.4132,126.231,-279.043,-2131.36,9528.88,-639.299,-23.7725,-6.97734,-64.5668,-965.371,-7859.22,1091.93,-10.662,74.0787,-43.928,8031.54,-227.457,841.904,-15.2799,-17.8828,-4.79326
4.348,5201.09,-3213.78,7509.65,22.7823,-21.0301,-11.2919,15268.6,1174.07,10847.3,-21.8295,214.675,-177.933,-684.814,9587.79,-1833.01,2.84572,-7.39165,-34.8768,-7784.48,-16273.9,-4061.53,36.7118,125.093,-278.355,-2153.51,9521.94,-630.04,-23.9197,-7.49286,-64.6377,-940.081,-7879.27,1107.05,-11.6457,74.429,-43.7651,8041.63,-228.451,836.803,-15.1067,-18.1462,-4.63141
4.3485,5219.69,-3218.04,7490.71,22.8806,-21.0064,-11.3833,15328.4,979.609,10755.1,-20.1918,213.746,-177.321,-694.255,9590.86,-1836.25,2.89836,-7.53192,-34.905,-7851.18,-16314.9,-3984.18,37.0104,123.956,-277.667,-2175.66,9515.0,-620.781,-24.0669,-8.00839,-64.7086,-914.79,-7899.31,1122.18,-12.6294,74.7792,-43.6022,8051.72,-229.444,831.702,-14.9336,-18.4095,-4.46956
4.349,5238.29,-3222.29,7471.77,22.9788,-20.9826,-11.4748,15388.1,785.146,10662.9,-18.5542,212.818,-176.708,-703.696,9593.92,-1839.49,2.95101,-7.67218,-34.9332,-7917.88,-16355.9,-3906.84,37.3089,122.819,-276.979,-2197.8,9508.06,-611.522,-24.214,-8.52391,-64.7795,-889.499,-7919.36,1137.3,-13.613,75.1295,-43.4393,8061.8,-230.437,826.602,-14.7604,-18.6729,-4.30771
4.3495,5256.89,-3226.55,7452.83,23.0771,-20.9589,-11.5662,15447.9,590.682,10570.6,-16.9165,211.89,-176.096,-713.137,9596.98,-1842.72,3.00366,-7.81244,-34.9614,-7984.58,-16396.9,-3829.49,37.6075,121.682,-276.292,-2219.95,9501.12,-602.263,-24.3612,-9.03944,-64.8505,-864.209,-7939.41,1152.42,-14.5967,75.4797,-43.2764,8071.89,-231.431,821.501,-14.5872,-18.9363,-4.14586
4.35,5275.49,-3230.8,7433.89,23.1754,-20.9352,-11.6577,15507.6,396.219,10478.4,-15.2789,210.961,-175.484,-722.579,9600.05,-1845.96,3.0563,-7.95271,-34.9896,-8051.28,-16437.9,-3752.15,37.906,120.545,-275.604,-2242.1,9494.18,-593.004,-24.5084,-9.55496,-64.9214,-838.918,-7959.45,1167.55,-15.5804,75.8299,-43.1136,8081.98,-232.424,816.401,-14.414,-19.1997,-3.98401
4.3505,5294.09,-3235.06,7414.96,23.2736,-20.9114,-11.7491,15567.4,201.756,10386.2,-13.6412,210.033,-174.871,-732.02,9603.11,-1849.2,3.10895,-8.09297,-35.0177,-8117.98,-16478.9,-3674.81,38.2046,119.408,-274.916,-2264.25,9487.24,-583.745,-24.6556,-10.0705,-64.9923,-813.627,-7979.5,1182.67,-16.564,76.1802,-42.9507,8092.06,-233.418,811.3,-14.2409,-19.463,-3.82216
4.351,5312.69,-3239.31,7396.02,23.3719,-20.8877,-11.8406,15627.1,7.29285,10294.0,-12.0036,209.105,-174.259,-741.461,9606.17,-1852.43,3.1616,-8.23323,-35.0459,-8184.68,-16519.9,-3597.46,38.5031,118.271,-274.229,-2286.39,9480.3,-574.486,-24.8028,-10.586,-65.0632,-788.337,-7999.55,1197.79,-17.5477,76.5304,-42.7878,8102.15,-234.411,806.199,-14.0677,-19.7264,-3.66031
4.3515,5327.23,-3239.17,7386.65,23.5466,-20.8348,-11.8384,15701.3,20.0881,10223.4,-10.5503,208.458,-173.591,-742.603,9602.92,-1856.5,3.1687,-8.37611,-35.0955,-8223.47,-16539.2,-3558.65,38.636,117.211,-273.516,-2296.63,9484.19,-588.094,-24.8861,-11.1207,-65.1737,-709.573,-8022.02,1212.82,-18.7453,76.379,-42.9819,8108.93,-237.018,807.065,-13.8216,-20.017,-3.58414
4.352,5340.61,-3237.78,7380.01,23.7432,-20.7736,-11.8096,15779.6,92.1,10159.0,-9.14976,207.891,-172.908,-741.372,9597.86,-1860.81,3.1628,-8.51975,-35.1513,-8254.29,-16552.2,-3530.86,38.7215,116.172,-272.797,-2303.45,9491.17,-608.237,-24.9512,-11.6609,-65.2955,-615.532,-8045.19,1227.82,-20.0041,76.0842,-43.278,8114.77,-240.085,809.635,-13.5548,-20.3155,-3.53244
4.3525,5353.98,-3236.39,7373.38,23.9398,-20.7124,-11.7807,15858.0,164.112,10094.6,-7.74919,207.324,-172.224,-740.142,9592.8,-1865.11,3.15689,-8.66338,-35.207,-8285.1,-16565.2,-3503.06,38.807,115.134,-272.078,-2310.28,9498.15,-628.379,-25.0163,-12.201,-65.4174,-521.491,-8068.36,1242.82,-21.2628,75.7893,-43.5741,8120.61,-243.152,812.205,-13.2879,-20.6139,-3.48075
4.353,5367.36,-3234.99,7366.74,24.1364,-20.6512,-11.7518,15936.3,236.124,10030.2,-6.34862,206.757,-171.54,-738.912,9587.74,-1869.42,3.15099,-8.80701,-35.2628,-8315.92,-16578.2,-3475.27,38.8925,114.096,-271.359,-2317.11,9505.13,-648.521,-25.0813,-12.7412,-65.5392,-427.45,-8091.53,1257.82,-22.5216,75.4945,-43.8702,8126.44,-246.22,814.775,-13.0211,-20.9123,-3.42905
4.3535,5380.74,-3233.6,7360.11,24.333,-20.5899,-11.7229,16014.6,308.136,9965.81,-4.94804,206.19,-170.857,-737.682,9582.68,-1873.72,3.14508,-8.95064,-35.3185,-8346.74,-16591.3,-3447.47,38.978,113.058,-270.64,-2323.94,9512.11,-668.663,-25.1464,-13.2814,-65.661,-333.409,-8114.71,1272.82,-23.7804,75.1997,-44.1664,8132.28,-249.287,817.345,-12.7542,-21.2107,-3.37736
4.354,5394.11,-3232.21,7353.47,24.5296,-20.5287,-11.694,16092.9,380.148,9901.41,-3.54747,205.624,-170.173,-736.452,9577.62,-1878.03,3.13918,-9.09428,-35.3743,-8377.56,-16604.3,-3419.68,39.0634,112.02,-269.92,-2330.77,9519.09,-688.806,-25.2115,-13.8215,-65.7828,-239.368,-8137.88,1287.82,-25.0391,74.9049,-44.4625,8138.12,-252.354,819.915,-12.4873,-21.5092,-3.32567
4.3545,5407.49,-3230.81,7346.84,24.7262,-20.4675,-11.6651,16171.3,452.159,9837.01,-2.1469,205.057,-169.49,-735.222,9572.56,-1882.33,3.13327,-9.23791,-35.43,-8408.38,-16617.3,-3391.88,39.1489,110.982,-269.201,-2337.6,9526.07,-708.948,-25.2766,-14.3617,-65.9047,-145.327,-8161.05,1302.82,-26.2979,74.6101,-44.7586,8143.95,-255.422,822.485,-12.2205,-21.8076,-3.27397
4.355,5420.87,-3229.42,7340.2,24.9228,-20.4063,-11.6362,16249.6,524.171,9772.62,-0.746326,204.49,-168.806,-733.992,9567.5,-1886.64,3.12737,-9.38154,-35.4858,-8439.2,-16630.3,-3364.09,39.2344,109.943,-268.482,-2344.43,9533.05,-729.09,-25.3417,-14.9019,-66.0265,-51.2859,-8184.22,1317.82,-27.5567,74.3152,-45.0547,8149.79,-258.489,825.055,-11.9536,-22.106,-3.22228
4.3555,5434.24,-3228.03,7333.57,25.1194,-20.3451,-11.6074,16327.9,596.183,9708.22,0.654246,203.923,-168.122,-732.762,9562.44,-1890.94,3.12146,-9.52517,-35.5415,-8470.01,-16643.4,-3336.29,39.3199,108.905,-267.763,-2351.25,9540.03,-749.232,-25.4068,-15.4421,-66.1483,42.7552,-8207.39,1332.82,-28.8154,74.0204,-45.3509,8155.63,-261.557,827.625,-11.6867,-22.4045,-3.17058
4.356,5421.62,-3232.03,7325.64,25.2128,-20.2947,-11.6091,16355.3,775.097,9724.1,0.799932,203.447,-167.148,-735.667,9560.89,-1894.46,3.11931,-9.73347,-35.5831,-8501.16,-16655.0,-3321.01,39.2432,107.958,-266.935,-2357.05,9537.15,-767.654,-25.5564,-15.836,-66.3145,154.579,-8212.6,1328.89,-30.3239,73.1964,-45.8068,8152.32,-266.674,824.449,-11.2731,-22.6856,-3.02111
4.3565,5405.75,-3236.71,7317.55,25.2933,-20.2457,-11.6146,16376.4,967.374,9750.02,0.788758,202.982,-166.137,-739.089,9559.79,-1897.88,3.11762,-9.94985,-35.6229,-8532.35,-16666.6,-3307.3,39.1462,107.023,-266.094,-2362.72,9533.03,-785.86,-25.7166,-16.2117,-66.4863,268.626,-8215.58,1322.6,-31.8636,72.3063,-46.2827,8147.87,-272.048,820.555,-10.8411,-22.9647,-2.85943
4.357,5389.88,-3241.39,7309.45,25.3738,-20.1967,-11.6202,16397.5,1159.65,9775.95,0.777583,202.517,-165.127,-742.512,9558.68,-1901.31,3.11594,-10.1662,-35.6626,-8563.53,-16678.1,-3293.59,39.0492,106.087,-265.252,-2368.4,9528.92,-804.066,-25.8767,-16.5875,-66.658,382.673,-8218.55,1316.31,-33.4033,71.4161,-46.7586,8143.42,-277.422,816.66,-10.4092,-23.2437,-2.69774
4.3575,5374.01,-3246.07,7301.36,25.4543,-20.1476,-11.6257,16418.5,1351.93,9801.87,0.766409,202.053,-164.116,-745.933,9557.57,-1904.73,3.11426,-10.3826,-35.7024,-8594.72,-16689.6,-3279.88,38.9522,105.152,-264.411,-2374.07,9524.8,-822.272,-26.0369,-16.9632,-66.8298,496.72,-8221.53,1310.01,-34.943,70.526,-47.2345,8138.97,-282.796,812.766,-9.97718,-23.5228,-2.53605
4.358,5358.14,-3250.75,7293.27,25.5348,-20.0986,-11.6312,16439.6,1544.2,9827.79,0.755234,201.588,-163.106,-749.355,9556.46,-1908.15,3.11257,-10.599,-35.7422,-8625.9,-16701.1,-3266.17,38.8552,104.216,-263.57,-2379.74,9520.69,-840.478,-26.1971,-17.3389,-67.0015,610.767,-8224.5,1303.72,-36.4827,69.6358,-47.7104,8134.52,-288.169,808.871,-9.5452,-23.8018,-2.37436
4.3585,5342.27,-3255.43,7285.18,25.6153,-20.0496,-11.6368,16460.7,1736.48,9853.71,0.744059,201.123,-162.095,-752.777,9555.35,-1911.57,3.11089,-10.8154,-35.7819,-8657.09,-16712.6,-3252.46,38.7582,103.281,-262.729,-2385.41,9516.57,-858.685,-26.3572,-17.7146,-67.1732,724.814,-8227.47,1297.43,-38.0224,68.7457,-48.1863,8130.07,-293.543,804.977,-9.11322,-24.0809,-2.21267
4.359,5326.4,-3260.11,7277.08,25.6958,-20.0006,-11.6423,16481.7,1928.76,9879.63,0.732885,200.658,-161.085,-756.199,9554.24,-1914.99,3.1092,-11.0317,-35.8217,-8688.28,-16724.1,-3238.74,38.6612,102.345,-261.887,-2391.08,9512.46,-876.891,-26.5174,-18.0903,-67.345,838.861,-8230.45,1291.13,-39.5621,67.8555,-48.6622,8125.62,-298.917,801.082,-8.68125,-24.3599,-2.05098
4.3595,5310.53,-3264.79,7268.99,25.7763,-19.9515,-11.6479,16502.8,2121.04,9905.55,0.72171,200.193,-160.074,-759.621,9553.13,-1918.42,3.10752,-11.2481,-35.8615,-8719.46,-16735.6,-3225.03,38.5642,101.41,-261.046,-2396.75,9508.34,-895.097,-26.6776,-18.466,-67.5167,952.908,-8233.42,1284.84,-41.1018,66.9654,-49.1381,8121.17,-304.291,797.188,-8.24927,-24.6389,-1.88929
4.36,5294.66,-3269.47,7260.9,25.8568,-19.9025,-11.6534,16523.9,2313.31,9931.47,0.710536,199.729,-159.064,-763.043,9552.02,-1921.84,3.10584,-11.4645,-35.9013,-8750.65,-16747.1,-3211.32,38.4672,100.474,-260.205,-2402.42,9504.23,-913.303,-26.8377,-18.8417,-67.6885,1066.96,-8236.39,1278.55,-42.6415,66.0752,-49.614,8116.72,-309.665,793.293,-7.8173,-24.918,-1.7276
4.3605,5287.35,-3289.79,7279.32,25.8924,-19.8675,-11.6671,16488.3,2281.09,9951.23,0.0902382,199.11,-157.912,-756.87,9555.48,-1928.47,3.17698,-11.6629,-35.973,-8811.91,-16748.5,-3176.21,38.3213,99.5908,-259.549,-2393.73,9501.85,-915.586,-27.0097,-19.152,-67.786,1185.2,-8240.06,1255.38,-44.5978,64.7654,-50.1424,8117.75,-312.996,794.087,-7.34207,-25.1665,-1.5686
4.361,5280.05,-3310.11,7297.75,25.9281,-19.8325,-11.6808,16452.8,2248.86,9970.99,-0.530059,198.491,-156.761,-750.697,9558.95,-1935.1,3.24812,-11.8614,-36.0447,-8873.18,-16749.9,-3141.1,38.1754,98.7075,-258.892,-2385.04,9499.47,-917.87,-27.1817,-19.4623,-67.8835,1303.44,-8243.73,1232.2,-46.5541,63.4556,-50.6707,8118.78,-316.327,794.882,-6.86685,-25.4149,-1.4096
4.3615,5272.75,-3330.43,7316.17,25.9637,-19.7975,-11.6945,16417.2,2216.63,9990.75,-1.15036,197.872,-155.61,-744.524,9562.41,-1941.73,3.31926,-12.0598,-36.1163,-8934.44,-16751.3,-3105.98,38.0295,97.8241,-258.236,-2376.35,9497.09,-920.153,-27.3537,-19.7726,-67.9809,1421.69,-8247.4,1209.03,-48.5104,62.1459,-51.1991,8119.81,-319.658,795.676,-6.39163,-25.6634,-1.25059
4.362,5265.44,-3350.76,7334.59,25.9994,-19.7625,-11.7082,16381.7,2184.41,10010.5,-1.77065,197.253,-154.459,-738.351,9565.87,-1948.36,3.39041,-12.2582,-36.188,-8995.7,-16752.6,-3070.87,37.8836,96.9408,-257.58,-2367.65,9494.71,-922.436,-27.5257,-20.0828,-68.0784,1539.93,-8251.07,1185.86,-50.4667,60.8361,-51.7275,8120.85,-322.989,796.47,-5.91641,-25.9119,-1.09159
4.3625,5258.14,-3371.08,7353.02,26.035,-19.7275,-11.722,16346.1,2152.18,10030.3,-2.39095,196.634,-153.308,-732.178,9569.34,-1954.99,3.46155,-12.4566,-36.2597,-9056.97,-16754.0,-3035.76,37.7377,96.0575,-256.924,-2358.96,9492.33,-924.719,-27.6978,-20.3931,-68.1759,1658.17,-8254.73,1162.68,-52.423,59.5263,-52.2558,8121.88,-326.32,797.264,-5.44118,-26.1604,-0.932588
4.363,5250.83,-3391.4,7371.44,26.0707,-19.6925,-11.7357,16310.6,2119.95,10050.0,-3.01125,196.016,-152.156,-726.004,9572.8,-1961.62,3.53269,-12.6551,-36.3314,-9118.23,-16755.4,-3000.65,37.5918,95.1741,-256.268,-2350.27,9489.96,-927.003,-27.8698,-20.7034,-68.2734,1776.42,-8258.4,1139.51,-54.3794,58.2165,-52.7842,8122.91,-329.651,798.058,-4.96596,-26.4088,-0.773586
4.3635,5243.53,-3411.72,7389.86,26.1063,-19.6575,-11.7494,16275.1,2087.73,10069.8,-3.63155,195.397,-151.005,-719.831,9576.26,-1968.25,3.60384,-12.8535,-36.4031,-9179.49,-16756.7,-2965.53,37.4459,94.2908,-255.611,-2341.58,9487.58,-929.286,-28.0418,-21.0137,-68.3709,1894.66,-8262.07,1116.34,-56.3357,56.9067,-53.3126,8123.94,-332.982,798.852,-4.49074,-26.6573,-0.614583
4.364,5236.23,-3432.04,7408.29,26.142,-19.6225,-11.7631,16239.5,2055.5,10089.6,-4.25184,194.778,-149.854,-713.658,9579.73,-1974.88,3.67498,-13.0519,-36.4748,-9240.75,-16758.1,-2930.42,37.3,93.4075,-254.955,-2332.89,9485.2,-931.569,-28.2138,-21.324,-68.4684,2012.91,-8265.74,1093.17,-58.292,55.5969,-53.8409,8124.97,-336.313,799.646,-4.01552,-26.9058,-0.455581
4.3645,5230.02,-3449.18,7425.46,26.1889,-19.586,-11.7776,16202.0,2007.68,10103.6,-4.80008,194.153,-148.723,-706.259,9582.96,-1980.06,3.74253,-13.2445,-36.5476,-9302.47,-16761.1,-2896.96,37.1487,92.5055,-254.313,-2322.9,9485.68,-934.941,-28.3969,-21.6331,-68.5607,2132.07,-8273.28,1069.37,-60.2831,54.2621,-54.3495,8127.08,-338.426,799.285,-3.54942,-27.1368,-0.305927
4.365,5232.62,-3440.84,7432.69,26.3264,-19.5376,-11.7983,16148.4,1835.11,10071.7,-4.77178,193.475,-147.758,-689.055,9584.4,-1973.66,3.78132,-13.3905,-36.6287,-9367.77,-16777.1,-2876.73,36.9541,91.454,-253.781,-2302.56,9509.05,-947.019,-28.6692,-21.9331,-68.6113,2258.57,-8311.79,1040.62,-62.5528,52.7266,-54.6992,8137.77,-330.797,789.686,-3.15631,-27.2285,-0.231066
4.3655,5235.22,-3432.5,7439.92,26.4638,-19.4892,-11.819,16094.9,1662.53,10039.8,-4.74349,192.797,-146.792,-671.85,9585.83,-1967.26,3.82012,-13.5364,-36.7097,-9433.08,-16793.1,-2856.49,36.7595,90.4025,-253.249,-2282.21,9532.43,-959.097,-28.9415,-22.2331,-68.6619,2385.08,-8350.3,1011.86,-64.8224,51.1911,-55.0489,8148.47,-323.168,780.086,-2.7632,-27.3202,-0.156204
4.366,5237.82,-3424.17,7447.15,26.6012,-19.4408,-11.8398,16041.3,1489.96,10007.8,-4.7152,192.119,-145.827,-654.646,9587.26,-1960.86,3.85891,-13.6823,-36.7908,-9498.38,-16809.0,-2836.26,36.5648,89.3511,-252.717,-2261.87,9555.8,-971.175,-29.2137,-22.5331,-68.7124,2511.58,-8388.81,983.102,-67.0921,49.6556,-55.3986,8159.17,-315.539,770.487,-2.37009,-27.4118,-0.0813422
4.3665,5240.41,-3415.83,7454.38,26.7386,-19.3924,-11.8605,15987.7,1317.39,9975.93,-4.68691,191.442,-144.861,-637.441,9588.69,-1954.46,3.8977,-13.8283,-36.8719,-9563.68,-16825.0,-2816.03,36.3702,88.2996,-252.185,-2241.52,9579.17,-983.254,-29.486,-22.833,-68.763,2638.09,-8427.33,954.345,-69.3617,48.1201,-55.7483,8169.86,-307.91,760.888,-1.97699,-27.5035,-0.00648056
4.367,5243.01,-3407.49,7461.61,26.876,-19.344,-11.8812,15934.2,1144.81,9944.02,-4.65861,190.764,-143.896,-620.236,9590.13,-1948.06,3.93649,-13.9742,-36.953,-9628.99,-16841.0,-2795.79,36.1756,87.2482,-251.653,-2221.18,9602.55,-995.332,-29.7583,-23.133,-68.8136,2764.6,-8465.84,925.588,-71.6314,46.5846,-56.098,8180.56,-300.281,751.288,-1.58388,-27.5952,0.0683811
4.3675,5245.61,-3399.16,7468.84,27.0135,-19.2957,-11.9019,15880.6,972.24,9912.1,-4.63032,190.086,-142.93,-603.032,9591.56,-1941.66,3.97529,-14.1201,-37.0341,-9694.29,-16857.0,-2775.56,35.981,86.1967,-251.121,-2200.84,9625.92,-1007.41,-30.0306,-23.433,-68.8642,2891.1,-8504.35,896.831,-73.901,45.0491,-56.4477,8191.25,-292.652,741.689,-1.19077,-27.6868,0.143243
4.368,5248.21,-3390.82,7476.07,27.1509,-19.2473,-11.9227,15827.0,799.666,9880.19,-4.60203,189.408,-141.965,-585.827,9592.99,-1935.27,4.01408,-14.266,-37.1152,-9759.6,-16872.9,-2755.32,35.7863,85.1452,-250.59,-2180.49,9649.29,-1019.49,-30.3029,-23.7329,-68.9148,3017.61,-8542.87,868.074,-76.1707,43.5137,-56.7974,8201.95,-285.023,732.09,-0.797662,-27.7785,0.218104
4.3685,5250.8,-3382.48,7483.3,27.2883,-19.1989,-11.9434,15773.5,627.092,9848.28,-4.57374,188.731,-140.999,-568.623,9594.42,-1928.87,4.05287,-14.412,-37.1963,-9824.9,-16888.9,-2735.09,35.5917,84.0938,-250.058,-2160.15,9672.67,-1031.57,-30.5752,-24.0329,-68.9654,3144.11,-8581.38,839.317,-78.4404,41.9782,-57.1471,8212.64,-277.393,722.49,-0.404555,-27.8702,0.292966
4.369,5255.97,-3372.02,7484.71,27.4167,-19.1532,-11.9534,15728.9,451.724,9815.81,-4.37981,187.998,-140.062,-552.579,9594.06,-1921.58,4.08922,-14.5414,-37.2879,-9899.05,-16907.3,-2708.64,35.4163,82.993,-249.543,-2132.8,9692.87,-1044.84,-30.8268,-24.3096,-69.008,3269.1,-8624.91,802.738,-80.6847,40.4205,-57.4158,8223.91,-267.912,712.633,-0.034572,-27.9115,0.372446
4.3695,5270.1,-3354.1,7465.74,27.5133,-19.1169,-11.9258,15715.7,266.575,9781.4,-3.60618,187.074,-139.222,-540.599,9587.4,-1911.2,4.11702,-14.6133,-37.4164,-10004.2,-16933.9,-2660.45,35.3083,81.7199,-249.089,-2080.92,9701.99,-1062.29,-31.0063,-24.5047,-69.0227,3388.75,-8685.98,738.782,-82.8404,38.7851,-57.4009,8237.16,-251.947,701.872,0.254472,-27.7766,0.468092
4.37,5284.24,-3336.19,7446.77,27.61,-19.0806,-11.8982,15702.4,81.4268,9747.0,-2.83254,186.15,-138.381,-528.619,9580.74,-1900.82,4.14482,-14.6851,-37.5448,-10109.3,-16960.6,-2612.26,35.2003,80.4467,-248.636,-2029.05,9711.11,-1079.75,-31.1859,-24.6999,-69.0375,3508.41,-8747.05,674.825,-84.9961,37.1496,-57.386,8250.4,-235.982,691.111,0.543516,-27.6417,0.563737
4.3705,5298.38,-3318.27,7427.8,27.7066,-19.0443,-11.8706,15689.2,-103.722,9712.59,-2.0589,185.225,-137.541,-516.639,9574.08,-1890.44,4.17261,-14.757,-37.6733,-10214.4,-16987.2,-2564.07,35.0923,79.1736,-248.182,-1977.18,9720.23,-1097.2,-31.3654,-24.895,-69.0522,3628.07,-8808.12,610.869,-87.1518,35.5142,-57.3711,8263.65,-220.018,680.351,0.83256,-27.5068,0.659382
4.371,5312.51,-3300.35,7408.84,27.8032,-19.008,-11.843,15676.0,-288.871,9678.18,-1.28527,184.301,-136.701,-504.659,9567.42,-1880.06,4.20041,-14.8288,-37.8018,-10319.5,-17013.9,-2515.87,34.9843,77.9004,-247.728,-1925.3,9729.35,-1114.65,-31.5449,-25.0902,-69.0669,3747.73,-8869.19,546.912,-89.3075,33.8788,-57.3561,8276.9,-204.053,669.59,1.1216,-27.3719,0.755028
4.3715,5326.65,-3282.44,7389.87,27.8999,-18.9717,-11.8155,15662.7,-474.019,9643.77,-0.511633,183.377,-135.861,-492.678,9560.75,-1869.67,4.22821,-14.9006,-37.9302,-10424.6,-17040.6,-2467.68,34.8763,76.6273,-247.275,-1873.43,9738.46,-1132.11,-31.7244,-25.2853,-69.0816,3867.38,-8930.26,482.956,-91.4631,32.2434,-57.3412,8290.14,-188.088,658.829,1.41065,-27.237,0.850673
4.372,5340.79,-3264.52,7370.9,27.9965,-18.9354,-11.7879,15649.5,-659.168,9609.36,0.262002,182.452,-135.021,-480.698,9554.09,-1859.29,4.256,-14.9725,-38.0587,-10529.7,-17067.2,-2419.49,34.7683,75.3541,-246.821,-1821.56,9747.58,-1149.56,-31.9039,-25.4804,-69.0964,3987.04,-8991.33,419.0,-93.6188,30.608,-57.3263,8303.39,-172.123,648.069,1.69969,-27.1021,0.946318
4.3725,5354.92,-3246.6,7351.94,28.0932,-18.8991,-11.7603,15636.3,-844.316,9574.96,1.03564,181.528,-134.181,-468.718,9547.43,-1848.91,4.2838,-15.0443,-38.1871,-10634.8,-17093.9,-2371.29,34.6603,74.081,-246.367,-1769.68,9756.7,-1167.01,-32.0834,-25.6756,-69.1111,4106.7,-9052.4,355.043,-95.7745,28.9725,-57.3114,8316.64,-156.158,637.308,1.98874,-26.9673,1.04196
4.373,5369.06,-3228.69,7332.97,28.1898,-18.8628,-11.7327,15623.0,-1029.47,9540.55,1.80927,180.604,-133.341,-456.738,9540.77,-1838.53,4.31159,-15.1162,-38.3156,-10739.9,-17120.5,-2323.1,34.5523,72.8078,-245.914,-1717.81,9765.82,-1184.47,-32.263,-25.8707,-69.1258,4226.35,-9113.46,291.087,-97.9302,27.3371,-57.2965,8329.89,-140.193,626.547,2.27778,-26.8324,1.13761
4.3735,5383.42,-3211.92,7315.14,28.2624,-18.7616,-11.706,15618.6,-1186.47,9510.34,2.64485,179.724,-132.492,-444.661,9537.86,-1831.79,4.33594,-15.1594,-38.4636,-10841.8,-17132.8,-2272.07,34.484,71.3986,-245.473,-1662.55,9767.35,-1202.67,-32.432,-26.0324,-69.1343,4349.03,-9177.42,223.254,-99.9329,25.7892,-57.1555,8342.86,-128.38,618.844,2.53038,-26.6825,1.23623
4.374,5398.25,-3197.45,7299.57,28.2866,-18.5306,-11.6811,15631.7,-1287.17,9488.53,3.60432,178.932,-131.625,-432.389,9542.45,-1832.33,4.35338,-15.1456,-38.6509,-10937.2,-17116.2,-2215.34,34.4951,69.7173,-245.059,-1600.53,9753.7,-1222.38,-32.58,-26.1273,-69.1301,4477.72,-9247.13,147.669,-101.629,24.4163,-56.7625,8355.29,-124.871,617.254,2.71009,-26.5026,1.34079
4.3745,5413.08,-3182.99,7284.01,28.3109,-18.2996,-11.6561,15644.9,-1387.88,9466.73,4.56379,178.141,-130.758,-420.118,9547.04,-1832.87,4.37082,-15.1317,-38.8382,-11032.7,-17099.6,-2158.62,34.5062,68.036,-244.646,-1538.51,9740.04,-1242.09,-32.728,-26.2221,-69.126,4606.42,-9316.84,72.0838,-103.326,23.0433,-56.3695,8367.71,-121.361,615.664,2.8898,-26.3227,1.44536
4.375,5427.91,-3168.52,7268.44,28.3352,-18.0686,-11.6312,15658.0,-1488.58,9444.92,5.52326,177.349,-129.891,-407.847,9551.62,-1833.4,4.38826,-15.1179,-39.0254,-11128.1,-17083.1,-2101.9,34.5174,66.3547,-244.232,-1476.49,9726.39,-1261.8,-32.876,-26.317,-69.1219,4735.11,-9386.55,-3.50127,-105.023,21.6704,-55.9765,8380.14,-117.851,614.074,3.06952,-26.1428,1.54993
4.3755,5442.73,-3154.06,7252.88,28.3594,-17.8376,-11.6063,15671.1,-1589.29,9423.12,6.48274,176.558,-129.024,-395.576,9556.21,-1833.94,4.4057,-15.104,-39.2127,-11223.6,-17066.5,-2045.18,34.5285,64.6734,-243.818,-1414.47,9712.73,-1281.51,-33.0241,-26.4118,-69.1177,4863.81,-9456.26,-79.0864,-106.719,20.2974,-55.5835,8392.56,-114.341,612.484,3.24923,-25.9629,1.65449
4.376,5457.56,-3139.59,7237.31,28.3837,-17.6066,-11.5813,15684.3,-1689.99,9401.31,7.44221,175.767,-128.156,-383.304,9560.8,-1834.48,4.42314,-15.0902,-39.4,-11319.0,-17049.9,-1988.45,34.5397,62.9921,-243.405,-1352.45,9699.08,-1301.22,-33.1721,-26.5067,-69.1136,4992.51,-9525.97,-154.671,-108.416,18.9245,-55.1905,8404.99,-110.832,610.895,3.42894,-25.783,1.75906
4.3765,5472.39,-3125.13,7221.75,28.408,-17.3757,-11.5564,15697.4,-1790.7,9379.51,8.40168,174.975,-127.289,-371.033,9565.39,-1835.02,4.44058,-15.0763,-39.5872,-11414.5,-17033.3,-1931.73,34.5508,61.3108,-242.991,-1290.43,9685.43,-1320.92,-33.3201,-26.6015,-69.1095,5121.2,-9595.68,-230.257,-110.112,17.5515,-54.7975,8417.41,-107.322,609.305,3.60865,-25.6031,1.86362
4.377,5487.22,-3110.66,7206.19,28.4322,-17.1447,-11.5315,15710.6,-1891.4,9357.7,9.36115,174.184,-126.422,-358.762,9569.97,-1835.56,4.45802,-15.0625,-39.7745,-11509.9,-17016.8,-1875.01,34.5619,59.6295,-242.577,-1228.41,9671.77,-1340.63,-33.4681,-26.6964,-69.1053,5249.9,-9665.39,-305.842,-111.809,16.1786,-54.4045,8429.84,-103.812,607.715,3.78836,-25.4232,1.96819
4.3775,5502.04,-3096.2,7190.62,28.4565,-16.9137,-11.5065,15723.7,-1992.11,9335.9,10.3206,173.392,-125.555,-346.49,9574.56,-1836.1,4.47546,-15.0486,-39.9618,-11605.4,-17000.2,-1818.29,34.5731,57.9482,-242.163,-1166.39,9658.12,-1360.34,-33.6162,-26.7912,-69.1012,5378.59,-9735.1,-381.427,-113.505,14.8056,-54.0115,8442.27,-100.302,606.125,3.96808,-25.2432,2.07276
4.378,5507.61,-3087.16,7180.35,28.4017,-16.6318,-11.3896,15724.4,-2055.2,9319.27,11.4508,172.475,-124.505,-333.601,9576.65,-1840.57,4.49924,-15.0269,-40.1739,-11712.2,-16969.1,-1788.46,34.5645,56.1675,-241.744,-1102.77,9644.63,-1384.2,-33.7935,-26.8688,-69.0956,5507.28,-9805.6,-457.287,-114.838,13.7214,-53.4941,8454.88,-96.532,597.523,4.11256,-25.0001,2.12121
4.3785,5501.61,-3084.92,7176.68,28.2479,-16.2862,-11.1577,15709.4,-2071.28,9309.12,12.7942,171.4,-123.225,-319.939,9575.6,-1849.98,4.53094,-14.9955,-40.4171,-11833.2,-16919.7,-1792.27,34.5314,54.2624,-241.317,-1037.15,9631.36,-1413.24,-34.0076,-26.9247,-69.0881,5635.97,-9877.06,-533.49,-115.717,12.9982,-52.821,8467.73,-92.4357,580.154,4.213,-24.6777,2.09952
4.379,5495.61,-3082.68,7173.01,28.0942,-15.9407,-10.9257,15694.5,-2087.36,9298.97,14.1377,170.324,-121.945,-306.277,9574.55,-1859.39,4.56265,-14.964,-40.6603,-11954.2,-16870.4,-1796.07,34.4983,52.3573,-240.89,-971.537,9618.08,-1442.28,-34.2217,-26.9807,-69.0806,5764.65,-9948.53,-609.693,-116.596,12.275,-52.148,8480.58,-88.3394,562.785,4.31344,-24.3554,2.07784
4.3795,5489.61,-3080.44,7169.34,27.9405,-15.5951,-10.6938,15679.6,-2103.44,9288.82,15.4812,169.249,-120.665,-292.615,9573.51,-1868.79,4.59435,-14.9326,-40.9035,-12075.2,-16821.0,-1799.88,34.4652,50.4522,-240.463,-905.92,9604.81,-1471.32,-34.4358,-27.0366,-69.0732,5893.33,-10020.0,-685.896,-117.474,11.5518,-51.475,8493.43,-84.2431,545.417,4.41388,-24.0331,2.05615
4.38,5483.6,-3078.2,7165.67,27.7868,-15.2495,-10.4619,15664.6,-2119.52,9278.67,16.8246,168.174,-119.385,-278.953,9572.46,-1878.2,4.62606,-14.9011,-41.1468,-12196.2,-16771.6,-1803.68,34.432,48.5471,-240.036,-840.302,9591.53,-1500.36,-34.6499,-27.0926,-69.0657,6022.01,-10091.5,-762.1,-118.353,10.8286,-50.8019,8506.28,-80.1468,528.048,4.51432,-23.7108,2.03446
4.3805,5477.6,-3075.96,7162.0,27.6331,-14.904,-10.2299,15649.7,-2135.6,9268.52,18.1681,167.099,-118.105,-265.291,9571.41,-1887.61,4.65776,-14.8696,-41.39,-12317.2,-16722.3,-1807.48,34.3989,46.642,-239.609,-774.684,9578.25,-1529.4,-34.864,-27.1485,-69.0582,6150.69,-10162.9,-838.303,-119.232,10.1053,-50.1289,8519.13,-76.0505,510.68,4.61476,-23.3885,2.01278
4.381,5471.6,-3073.72,7158.33,27.4794,-14.5584,-9.99802,15634.8,-2151.68,9258.37,19.5116,166.024,-116.825,-251.629,9570.37,-1897.01,4.68947,-14.8382,-41.6332,-12438.2,-16672.9,-1811.29,34.3658,44.7369,-239.182,-709.067,9564.98,-1558.45,-35.0781,-27.2045,-69.0508,6279.37,-10234.4,-914.506,-120.11,9.38211,-49.4559,8531.98,-71.9542,493.311,4.7152,-23.0661,1.99109
4.3815,5465.6,-3071.48,7154.67,27.3257,-14.2129,-9.76609,15619.8,-2167.76,9248.22,20.855,164.949,-115.545,-237.967,9569.32,-1906.42,4.72117,-14.8067,-41.8764,-12559.3,-16623.6,-1815.09,34.3327,42.8318,-238.755,-643.449,9551.7,-1587.49,-35.2922,-27.2604,-69.0433,6408.06,-10305.9,-990.709,-120.989,8.65889,-48.7829,8544.83,-67.8579,475.942,4.81564,-22.7438,1.9694
4.382,5459.6,-3069.24,7151.0,27.1719,-13.8673,-9.53416,15604.9,-2183.84,9238.07,22.1985,163.874,-114.265,-224.305,9568.27,-1915.83,4.75287,-14.7753,-42.1196,-12680.3,-16574.2,-1818.89,34.2995,40.9267,-238.328,-577.831,9538.43,-1616.53,-35.5063,-27.3164,-69.0359,6536.74,-10377.3,-1066.91,-121.868,7.93567,-48.1098,8557.68,-63.7616,458.574,4.91608,-22.4215,1.94772
4.3825,5472.74,-3066.11,7152.2,27.109,-13.4293,-9.5002,15650.8,-2243.8,9201.31,23.3966,162.532,-113.202,-208.329,9559.29,-1925.61,4.76969,-14.716,-42.3789,-12779.0,-16519.9,-1768.05,34.3294,38.4707,-237.899,-528.59,9514.94,-1646.77,-35.6841,-27.3139,-69.0327,6657.3,-10430.2,-1133.78,-122.158,7.50419,-47.3428,8574.08,-53.0794,449.614,4.92158,-22.0901,1.92176
4.383,5501.2,-3062.27,7157.31,27.1186,-12.9173,-9.62462,15745.4,-2338.87,9143.28,24.4784,160.977,-112.313,-190.503,9543.95,-1935.7,4.77459,-14.6345,-42.6511,-12859.8,-16461.6,-1673.48,34.4096,35.5738,-237.471,-492.448,9483.29,-1677.96,-35.8327,-27.2647,-69.0331,6771.36,-10468.3,-1193.19,-121.978,7.30611,-46.5007,8593.33,-37.1283,447.38,4.85111,-21.7515,1.89238
4.3835,5529.65,-3058.43,7162.41,27.1282,-12.4053,-9.74903,15839.9,-2433.94,9085.25,25.5601,159.422,-111.423,-172.677,9528.61,-1945.78,4.77949,-14.5529,-42.9233,-12940.7,-16403.3,-1578.91,34.4899,32.677,-237.042,-456.307,9451.64,-1709.15,-35.9814,-27.2155,-69.0335,6885.43,-10506.3,-1252.59,-121.799,7.10803,-45.6585,8612.57,-21.1773,445.147,4.78064,-21.4129,1.863
4.384,5558.11,-3054.59,7167.52,27.1377,-11.8933,-9.87345,15934.5,-2529.01,9027.21,26.6419,157.867,-110.534,-154.851,9513.27,-1955.87,4.78439,-14.4714,-43.1955,-13021.6,-16345.0,-1484.34,34.5701,29.7802,-236.613,-420.165,9419.98,-1740.35,-36.13,-27.1664,-69.0338,6999.49,-10544.4,-1312.0,-121.619,6.90995,-44.8163,8631.82,-5.22628,442.914,4.71018,-21.0743,1.83362
4.3845,5586.57,-3050.75,7172.62,27.1473,-11.3813,-9.99786,16029.0,-2624.08,8969.18,27.7237,156.312,-109.644,-137.025,9497.94,-1965.95,4.78929,-14.3899,-43.4677,-13102.5,-16286.7,-1389.77,34.6503,26.8834,-236.184,-384.024,9388.33,-1771.54,-36.2787,-27.1172,-69.0342,7113.56,-10582.5,-1371.4,-121.439,6.71186,-43.9741,8651.06,10.7248,440.681,4.63971,-20.7356,1.80424
4.385,5615.03,-3046.91,7177.73,27.1569,-10.8694,-10.1223,16123.6,-2719.15,8911.14,28.8055,154.757,-108.755,-119.199,9482.6,-1976.04,4.79419,-14.3084,-43.7399,-13183.3,-16228.4,-1295.2,34.7306,23.9866,-235.755,-347.883,9356.68,-1802.74,-36.4273,-27.068,-69.0346,7227.63,-10620.5,-1430.81,-121.259,6.51378,-43.132,8670.3,26.6758,438.447,4.56925,-20.397,1.77486
4.3855,5643.49,-3043.07,7182.83,27.1665,-10.3574,-10.2467,16218.2,-2814.22,8853.11,29.8873,153.202,-107.865,-101.373,9467.26,-1986.12,4.79909,-14.2269,-44.0121,-13264.2,-16170.1,-1200.64,34.8108,21.0897,-235.326,-311.741,9325.03,-1833.93,-36.576,-27.0188,-69.0349,7341.69,-10658.6,-1490.21,-121.079,6.3157,-42.2898,8689.55,42.6268,436.214,4.49878,-20.0584,1.74548
4.386,5671.95,-3039.23,7187.94,27.1761,-9.84538,-10.3711,16312.7,-2909.29,8795.07,30.9691,151.647,-106.976,-83.5472,9451.92,-1996.21,4.80399,-14.1453,-44.2842,-13345.1,-16111.8,-1106.07,34.891,18.1929,-234.897,-275.6,9293.37,-1865.12,-36.7247,-26.9696,-69.0353,7455.76,-10696.6,-1549.62,-120.899,6.11762,-41.4476,8708.79,58.5779,433.981,4.42831,-19.7198,1.7161
4.3865,5700.41,-3035.39,7193.05,27.1857,-9.3334,-10.4955,16407.3,-3004.36,8737.04,32.0508,150.092,-106.086,-65.7212,9436.59,-2006.29,4.80889,-14.0638,-44.5564,-13426.0,-16053.5,-1011.5,34.9712,15.2961,-234.468,-239.459,9261.72,-1896.32,-36.8733,-26.9204,-69.0357,7569.82,-10734.7,-1609.02,-120.719,5.91954,-40.6054,8728.03,74.5289,431.748,4.35785,-19.3812,1.68672
4.387,5704.79,-3037.75,7260.68,26.7148,-9.19484,-10.5021,16619.6,-3007.36,8577.26,33.0875,148.977,-105.129,-55.0508,9431.45,-2006.97,4.78026,-13.9974,-44.7945,-13465.8,-15969.5,-998.192,34.9975,12.1072,-233.998,-211.938,9246.96,-1930.38,-36.9683,-26.7793,-68.9862,7657.31,-10742.7,-1699.38,-119.664,6.00851,-39.7322,8749.41,80.6192,435.928,4.17769,-19.0245,1.66578
4.3875,5697.15,-3043.2,7359.57,26.0036,-9.24301,-10.4497,16890.8,-2964.33,8366.61,34.1016,148.082,-104.138,-47.9582,9431.41,-2002.93,4.73486,-13.9385,-45.0155,-13485.1,-15872.5,-1025.52,34.9967,8.77219,-233.506,-188.729,9240.64,-1965.88,-37.0364,-26.5923,-68.9117,7731.52,-10735.8,-1805.21,-118.17,6.24102,-38.8434,8771.86,81.7792,443.314,3.94268,-18.6587,1.64906
4.388,5689.5,-3048.65,7458.47,25.2924,-9.29118,-10.3973,17162.1,-2921.29,8155.97,35.1157,147.188,-103.146,-40.8656,9431.37,-1998.9,4.68946,-13.8797,-45.2365,-13504.4,-15775.5,-1052.84,34.9959,5.43721,-233.014,-165.519,9234.33,-2001.38,-37.1046,-26.4052,-68.8373,7805.72,-10728.8,-1911.04,-116.676,6.47352,-37.9545,8794.31,82.9391,450.7,3.70767,-18.2929,1.63234
4.3885,5681.85,-3054.1,7557.36,24.5813,-9.33934,-10.3449,17433.3,-2878.26,7945.32,36.1298,146.293,-102.155,-33.773,9431.32,-1994.87,4.64406,-13.8208,-45.4575,-13523.7,-15678.5,-1080.17,34.9951,2.10223,-232.523,-142.309,9228.01,-2036.88,-37.1727,-26.2182,-68.7629,7879.93,-10721.8,-2016.87,-115.183,6.70602,-37.0657,8816.76,84.0991,458.086,3.47266,-17.9272,1.61562
4.389,5674.2,-3059.55,7656.26,23.8701,-9.38751,-10.2925,17704.5,-2835.23,7734.67,37.1439,145.398,-101.164,-26.6804,9431.28,-1990.83,4.59866,-13.762,-45.6785,-13543.1,-15581.5,-1107.49,34.9943,-1.23275,-232.031,-119.099,9221.69,-2072.38,-37.2408,-26.0311,-68.6884,7954.13,-10714.9,-2122.7,-113.689,6.93853,-36.1769,8839.21,85.259,465.473,3.23765,-17.5614,1.5989
4.3895,5666.55,-3065.0,7755.15,23.1589,-9.43568,-10.2402,17975.7,-2792.19,7524.02,38.158,144.504,-100.172,-19.5879,9431.24,-1986.8,4.55326,-13.7031,-45.8995,-13562.4,-15484.5,-1134.82,34.9935,-4.56774,-231.54,-95.8894,9215.38,-2107.87,-37.309,-25.8441,-68.614,8028.34,-10707.9,-2228.53,-112.195,7.17103,-35.2881,8861.66,86.419,472.859,3.00264,-17.1956,1.58217
4.39,5658.9,-3070.45,7854.04,22.4477,-9.48385,-10.1878,18247.0,-2749.16,7313.38,39.1721,143.609,-99.1812,-12.4953,9431.2,-1982.77,4.50786,-13.6443,-46.1205,-13581.7,-15387.5,-1162.15,34.9927,-7.90272,-231.048,-72.6796,9209.06,-2143.37,-37.3771,-25.657,-68.5396,8102.55,-10701.0,-2334.36,-110.702,7.40353,-34.3993,8884.11,87.5789,480.245,2.76763,-16.8299,1.56545
4.3905,5651.25,-3075.91,7952.94,21.7365,-9.53201,-10.1354,18518.2,-2706.13,7102.73,40.1861,142.714,-98.19,-5.40268,9431.16,-1978.73,4.46246,-13.5854,-46.3415,-13601.0,-15290.5,-1189.47,34.9919,-11.2377,-230.556,-49.4698,9202.74,-2178.87,-37.4452,-25.4699,-68.4651,8176.75,-10694.0,-2440.19,-109.208,7.63604,-33.5104,8906.55,88.7389,487.632,2.53262,-16.4641,1.54873
4.391,5643.61,-3081.36,8051.83,21.0253,-9.58018,-10.083,18789.4,-2663.09,6892.08,41.2002,141.82,-97.1987,1.68992,9431.12,-1974.7,4.41706,-13.5266,-46.5625,-13620.3,-15193.5,-1216.8,34.9911,-14.5727,-230.065,-26.26,9196.42,-2214.37,-37.5133,-25.2829,-68.3907,8250.96,-10687.0,-2546.02,-107.714,7.86854,-32.6216,8929.0,89.8988,495.018,2.29761,-16.0983,1.53201
4.3915,5632.59,-3042.11,8085.59,21.115,-9.92299,-10.0667,19069.2,-2474.16,6629.92,41.3157,142.343,-95.5977,11.6688,9440.48,-1980.59,4.39862,-13.4315,-46.813,-13631.2,-15031.0,-1318.8,34.6858,-17.1137,-229.305,13.1037,9197.42,-2257.19,-37.4479,-24.9685,-68.2467,8289.73,-10683.8,-2671.28,-105.3,8.72273,-31.7538,8949.86,82.2756,491.967,2.06448,-15.6905,1.5174
4.392,5620.62,-2990.09,8100.74,21.4335,-10.35,-10.0606,19351.4,-2243.54,6353.05,41.1744,143.272,-93.8225,22.4724,9452.53,-1989.31,4.38787,-13.326,-47.072,-13639.7,-14849.6,-1442.14,34.2935,-19.428,-228.467,57.083,9200.5,-2302.11,-37.3442,-24.6178,-68.0827,8318.38,-10681.6,-2802.09,-102.623,9.75455,-30.8921,8970.26,72.143,485.934,1.83187,-15.2706,1.5034
4.3925,5608.64,-2938.07,8115.88,21.752,-10.777,-10.0546,19633.6,-2012.92,6076.18,41.033,144.2,-92.0473,33.276,9464.58,-1998.03,4.37712,-13.2205,-47.331,-13648.2,-14668.3,-1565.48,33.9012,-21.7422,-227.63,101.062,9203.59,-2347.03,-37.2406,-24.267,-67.9188,8347.03,-10679.5,-2932.9,-99.9467,10.7864,-30.0303,8990.67,62.0103,479.9,1.59927,-14.8507,1.4894
4.393,5596.67,-2886.06,8131.03,22.0705,-11.204,-10.0486,19915.8,-1782.3,5799.3,40.8917,145.129,-90.2721,44.0795,9476.62,-2006.75,4.36637,-13.115,-47.59,-13656.7,-14487.0,-1688.82,33.5089,-24.0564,-226.793,145.041,9206.67,-2391.94,-37.137,-23.9163,-67.7549,8375.68,-10677.3,-3063.71,-97.2698,11.8182,-29.1686,9011.07,51.8776,473.867,1.36667,-14.4309,1.4754
4.3935,5584.69,-2834.04,8146.18,22.3889,-11.631,-10.0425,20198.1,-1551.68,5522.43,40.7504,146.057,-88.4969,54.8831,9488.67,-2015.47,4.35562,-13.0096,-47.849,-13665.2,-14305.7,-1812.16,33.1166,-26.3706,-225.956,189.021,9209.76,-2436.86,-37.0333,-23.5655,-67.591,8404.33,-10675.1,-3194.52,-94.593,12.85,-28.3068,9031.48,41.7449,467.834,1.13406,-14.011,1.4614
4.394,5572.72,-2782.02,8161.33,22.7074,-12.058,-10.0365,20480.3,-1321.06,5245.55,40.6091,146.986,-86.7217,65.6867,9500.72,-2024.19,4.34487,-12.9041,-48.108,-13673.7,-14124.4,-1935.5,32.7243,-28.6848,-225.119,233.0,9212.84,-2481.78,-36.9297,-23.2148,-67.427,8432.98,-10673.0,-3325.33,-91.9162,13.8818,-27.4451,9051.88,31.6122,461.801,0.90146,-13.5911,1.4474
4.3945,5560.74,-2730.0,8176.47,23.0259,-12.485,-10.0305,20762.5,-1090.44,4968.68,40.4678,147.914,-84.9465,76.4902,9512.76,-2032.91,4.33413,-12.7986,-48.367,-13682.2,-13943.1,-2058.84,32.332,-30.9991,-224.282,276.979,9215.92,-2526.7,-36.826,-22.8641,-67.2631,8461.64,-10670.8,-3456.14,-89.2394,14.9137,-26.5833,9072.28,21.4796,455.767,0.668857,-13.1712,1.43339
4.395,5548.77,-2677.99,8191.62,23.3444,-12.912,-10.0244,21044.7,-859.821,4691.81,40.3264,148.843,-83.1713,87.2938,9524.81,-2041.63,4.32338,-12.6931,-48.6259,-13690.7,-13761.8,-2182.18,31.9396,-33.3133,-223.445,320.958,9219.01,-2571.61,-36.7224,-22.5133,-67.0992,8490.29,-10668.6,-3586.95,-86.5626,15.9455,-25.7216,9092.69,11.3469,449.734,0.436253,-12.7514,1.41939
4.3955,5536.79,-2625.97,8206.77,23.6629,-13.339,-10.0184,21326.9,-629.201,4414.93,40.1851,149.771,-81.3961,98.0974,9536.86,-2050.35,4.31263,-12.5877,-48.8849,-13699.2,-13580.5,-2305.52,31.5473,-35.6275,-222.607,364.937,9222.09,-2616.53,-36.6188,-22.1626,-66.9352,8518.94,-10666.5,-3717.76,-83.8858,16.9773,-24.8598,9113.09,1.21421,443.701,0.20365,-12.3315,1.40539
4.396,5480.12,-2638.05,8129.54,22.7864,-13.6029,-9.83318,21441.6,-378.307,4245.06,38.954,150.895,-79.1196,109.062,9539.63,-2063.08,4.34374,-12.4539,-49.195,-13717.2,-13395.8,-2444.77,30.8468,-37.393,-221.793,415.786,9218.68,-2650.22,-36.3778,-21.7659,-66.8119,8530.08,-10687.1,-3792.48,-80.4422,18.7588,-24.2232,9137.64,-2.66629,445.434,0.0803626,-11.9991,1.34406
4.3965,5417.86,-2658.15,8040.77,21.7605,-13.8464,-9.62556,21535.3,-124.878,4088.56,37.5866,152.042,-76.7804,120.047,9541.23,-2076.31,4.38008,-12.3167,-49.5115,-13736.3,-13210.7,-2586.02,30.1077,-39.0898,-220.982,467.494,9214.46,-2682.51,-36.1196,-21.3634,-66.6935,8539.03,-10710.6,-3860.19,-76.9029,20.634,-23.6147,9162.72,-5.76526,448.138,-0.0292607,-11.6777,1.27682
4.397,5355.6,-2678.25,7952.0,20.7346,-14.09,-9.41794,21629.0,128.551,3932.06,36.2192,153.19,-74.4412,131.032,9542.84,-2089.54,4.41642,-12.1794,-49.8279,-13755.5,-13025.7,-2727.26,29.3686,-40.7867,-220.17,519.202,9210.24,-2714.79,-35.8614,-20.9609,-66.5752,8547.97,-10734.1,-3927.9,-73.3635,22.5092,-23.0062,9187.79,-8.86423,450.842,-0.138884,-11.3563,1.20957
4.3975,5293.34,-2698.35,7863.23,19.7087,-14.3336,-9.21031,21722.7,381.979,3775.56,34.8518,154.337,-72.102,142.016,9544.45,-2102.76,4.45277,-12.0421,-50.1444,-13774.6,-12840.6,-2868.51,28.6295,-42.4836,-219.359,570.91,9206.02,-2747.08,-35.6032,-20.5585,-66.4569,8556.92,-10757.6,-3995.61,-69.8241,24.3844,-22.3977,9212.86,-11.9632,453.547,-0.248507,-11.0349,1.14233
4.398,5231.07,-2718.45,7774.45,18.6829,-14.5771,-9.00269,21816.4,635.408,3619.06,33.4845,155.485,-69.7628,153.001,9546.06,-2115.99,4.48911,-11.9049,-50.4609,-13793.8,-12655.5,-3009.75,27.8905,-44.1804,-218.547,622.618,9201.79,-2779.37,-35.345,-20.156,-66.3386,8565.87,-10781.1,-4063.32,-66.2847,26.2596,-21.7893,9237.94,-15.0622,456.251,-0.358131,-10.7135,1.07509
4.3985,5168.81,-2738.54,7685.68,17.657,-14.8207,-8.79507,21910.1,888.837,3462.56,32.1171,156.632,-67.4235,163.986,9547.66,-2129.22,4.52545,-11.7676,-50.7773,-13812.9,-12470.5,-3150.99,27.1514,-45.8773,-217.736,674.325,9197.57,-2811.65,-35.0868,-19.7535,-66.2203,8574.82,-10804.5,-4131.02,-62.7454,28.1347,-21.1808,9263.01,-18.1612,458.955,-0.467754,-10.3921,1.00784
4.399,5106.55,-2758.64,7596.91,16.6311,-15.0642,-8.58745,22003.8,1142.27,3306.06,30.7497,157.78,-65.0843,174.971,9549.27,-2142.45,4.5618,-11.6303,-51.0938,-13832.1,-12285.4,-3292.24,26.4123,-47.5742,-216.924,726.033,9193.35,-2843.94,-34.8286,-19.3511,-66.102,8583.77,-10828.0,-4198.73,-59.206,30.0099,-20.5723,9288.08,-21.2601,461.659,-0.577377,-10.0707,0.940598
4.3995,5044.29,-2778.74,7508.14,15.6052,-15.3078,-8.37982,22097.5,1395.69,3149.55,29.3823,158.927,-62.7451,185.956,9550.88,-2155.68,4.59814,-11.4931,-51.4103,-13851.2,-12100.3,-3433.48,25.6732,-49.2711,-216.113,777.741,9189.13,-2876.23,-34.5704,-18.9486,-65.9836,8592.72,-10851.5,-4266.44,-55.6666,31.8851,-19.9638,9313.15,-24.3591,464.363,-0.687001,-9.74924,0.873354
4.4,4982.03,-2798.84,7419.37,14.5794,-15.5513,-8.1722,22191.2,1649.12,2993.05,28.015,160.075,-60.4059,196.94,9552.49,-2168.91,4.63448,-11.3558,-51.7267,-13870.4,-11915.3,-3574.73,24.9341,-50.9679,-215.302,829.449,9184.9,-2908.51,-34.3123,-18.5461,-65.8653,8601.67,-10875.0,-4334.15,-52.1272,33.7603,-19.3553,9338.23,-27.4581,467.067,-0.796624,-9.42783,0.80611
4.4005,5036.17,-2819.68,7530.78,14.4956,-15.4533,-7.99411,22124.3,1733.41,2837.28,26.5012,160.785,-57.5003,202.38,9566.84,-2179.56,4.61979,-11.1952,-52.0028,-13874.0,-11755.9,-3685.91,23.8491,-51.9187,-214.181,868.108,9184.78,-2928.37,-34.0769,-18.1317,-65.6657,8598.14,-10925.8,-4308.36,-48.2449,36.0042,-19.1587,9360.67,-43.7774,466.44,-0.777571,-9.06283,0.700012
4.401,5090.31,-2840.52,7642.2,14.4118,-15.3552,-7.81603,22057.3,1817.7,2681.51,24.9875,161.495,-54.5947,207.819,9581.19,-2190.21,4.60511,-11.0346,-52.2788,-13877.7,-11596.5,-3797.1,22.7641,-52.8694,-213.061,906.767,9184.65,-2948.23,-33.8415,-17.7172,-65.466,8594.61,-10976.7,-4282.58,-44.3625,38.248,-18.9622,9383.11,-60.0968,465.813,-0.758517,-8.69784,0.593914
4.4015,5144.45,-2861.36,7753.62,14.328,-15.2572,-7.63794,21990.3,1901.99,2525.74,23.4738,162.205,-51.6891,213.258,9595.54,-2200.86,4.59042,-10.8739,-52.5548,-13881.3,-11437.1,-3908.29,21.679,-53.8202,-211.941,945.426,9184.52,-2968.09,-33.6061,-17.3027,-65.2663,8591.08,-11027.5,-4256.79,-40.4801,40.4918,-18.7656,9405.55,-76.4161,465.187,-0.739464,-8.33285,0.487816
4.402,5198.59,-2882.2,7865.04,14.2442,-15.1592,-7.45986,21923.3,1986.28,2369.96,21.96,162.915,-48.7835,218.697,9609.89,-2211.51,4.57573,-10.7133,-52.8308,-13885.0,-11277.7,-4019.48,20.594,-54.7709,-210.82,984.085,9184.39,-2987.95,-33.3708,-16.8882,-65.0667,8587.54,-11078.4,-4231.0,-36.5978,42.7357,-18.569,9427.99,-92.7354,464.56,-0.720411,-7.96786,0.381719
4.4025,5252.73,-2903.04,7976.45,14.1604,-15.0611,-7.28177,21856.3,2070.56,2214.19,20.4463,163.625,-45.8779,224.136,9624.24,-2222.16,4.56104,-10.5527,-53.1069,-13888.6,-11118.3,-4130.66,19.5089,-55.7217,-209.7,1022.74,9184.27,-3007.8,-33.1354,-16.4738,-64.867,8584.01,-11129.2,-4205.21,-32.7154,44.9795,-18.3724,9450.43,-109.055,463.933,-0.701358,-7.60287,0.275621
4.403,5306.87,-2923.88,8087.87,14.0767,-14.9631,-7.10368,21789.4,2154.85,2058.42,18.9326,164.335,-42.9723,229.575,9638.59,-2232.81,4.54635,-10.3921,-53.3829,-13892.3,-10958.9,-4241.85,18.4239,-56.6724,-208.58,1061.4,9184.14,-3027.66,-32.9,-16.0593,-64.6673,8580.48,-11180.1,-4179.42,-28.8331,47.2233,-18.1758,9472.87,-125.374,463.306,-0.682305,-7.23787,0.169523
4.4035,5361.01,-2944.72,8199.29,13.9929,-14.865,-6.9256,21722.4,2239.14,1902.64,17.4188,165.045,-40.0667,235.015,9652.94,-2243.46,4.53167,-10.2315,-53.6589,-13895.9,-10799.5,-4353.04,17.3388,-57.6231,-207.459,1100.06,9184.01,-3047.52,-32.6646,-15.6448,-64.4677,8576.95,-11230.9,-4153.64,-24.9507,49.4672,-17.9792,9495.31,-141.693,462.679,-0.663251,-6.87288,0.0634249
4.404,5415.15,-2965.56,8310.7,13.9091,-14.767,-6.74751,21655.4,2323.43,1746.87,15.9051,165.755,-37.1611,240.454,9667.29,-2254.11,4.51698,-10.0709,-53.935,-13899.6,-10640.2,-4464.23,16.2538,-58.5739,-206.339,1138.72,9183.88,-3067.38,-32.4293,-15.2304,-64.268,8573.41,-11281.8,-4127.85,-21.0683,51.711,-17.7826,9517.75,-158.013,462.052,-0.644198,-6.50789,-0.0426731
4.4045,5465.6,-2980.09,8404.65,13.8479,-14.683,-6.59931,21580.8,2380.41,1594.2,14.4722,166.376,-34.3118,247.034,9681.6,-2265.55,4.50102,-9.91839,-54.211,-13902.0,-10483.7,-4567.01,15.1715,-59.5031,-205.171,1178.6,9185.36,-3086.64,-32.1983,-14.8263,-64.0642,8567.96,-11332.3,-4095.48,-17.2089,53.9324,-17.637,9539.59,-172.817,462.762,-0.603179,-6.1445,-0.146324
4.405,5486.6,-2944.14,8358.81,13.9675,-14.7112,-6.69018,21445.0,2218.88,1466.38,13.6865,166.291,-31.9136,262.738,9695.59,-2283.27,4.47486,-9.8312,-54.4872,-13894.1,-10350.5,-4602.6,14.1113,-60.2601,-203.621,1228.26,9199.68,-3101.11,-32.0025,-14.5053,-63.8274,8547.12,-11380.9,-4010.5,-13.5325,55.9745,-17.8996,9556.66,-175.503,474.167,-0.386428,-5.79394,-0.230403
4.4055,5507.59,-2908.18,8312.98,14.0872,-14.7394,-6.78105,21309.3,2057.35,1338.56,12.9008,166.206,-29.5154,278.442,9709.58,-2300.98,4.4487,-9.744,-54.7634,-13886.3,-10217.2,-4638.18,13.051,-61.017,-202.072,1277.92,9213.99,-3115.58,-31.8068,-14.1843,-63.5905,8526.27,-11429.5,-3925.51,-9.85608,58.0165,-18.1622,9573.74,-178.189,485.571,-0.169677,-5.44338,-0.314481
4.406,5528.58,-2872.22,8267.14,14.2068,-14.7676,-6.87193,21173.5,1895.82,1210.73,12.1151,166.121,-27.1172,294.146,9723.57,-2318.7,4.42254,-9.6568,-55.0396,-13878.5,-10084.0,-4673.76,11.9908,-61.774,-200.522,1327.58,9228.3,-3130.05,-31.611,-13.8633,-63.3537,8505.43,-11478.0,-3840.52,-6.17968,60.0585,-18.4248,9590.8,-180.875,496.976,0.0470744,-5.09282,-0.398559
4.4065,5549.58,-2836.27,8221.31,14.3264,-14.7959,-6.9628,21037.8,1734.29,1082.91,11.3294,166.036,-24.7189,309.85,9737.57,-2336.42,4.39638,-9.56961,-55.3158,-13870.7,-9950.78,-4709.34,10.9306,-62.531,-198.972,1377.23,9242.62,-3144.52,-31.4152,-13.5424,-63.1168,8484.59,-11526.6,-3755.53,-2.50328,62.1005,-18.6874,9607.88,-183.561,508.381,0.263825,-4.74226,-0.482638
4.407,5570.57,-2800.31,8175.47,14.446,-14.8241,-7.05367,20902.0,1572.77,955.082,10.5436,165.951,-22.3207,325.554,9751.56,-2354.14,4.37022,-9.48241,-55.592,-13862.8,-9817.55,-4744.93,9.87036,-63.2879,-197.422,1426.89,9256.94,-3158.99,-31.2195,-13.2214,-62.88,8463.75,-11575.2,-3670.54,1.17312,64.1426,-18.9499,9624.95,-186.247,519.785,0.480576,-4.3917,-0.566716
4.4075,5591.56,-2764.35,8129.63,14.5656,-14.8523,-7.14454,20766.3,1411.24,827.257,9.75791,165.866,-19.9225,341.258,9765.55,-2371.85,4.34406,-9.39521,-55.8682,-13855.0,-9684.33,-4780.51,8.81014,-64.0449,-195.873,1476.55,9271.25,-3173.46,-31.0237,-12.9004,-62.6432,8442.9,-11623.7,-3585.55,4.84952,66.1846,-19.2125,9642.02,-188.933,531.19,0.697327,-4.04114,-0.650794
4.408,5612.55,-2728.4,8083.8,14.6853,-14.8805,-7.23542,20630.5,1249.71,699.433,8.97219,165.781,-17.5243,356.962,9779.54,-2389.57,4.3179,-9.30802,-56.1444,-13847.2,-9551.1,-4816.09,7.74991,-64.8019,-194.323,1526.21,9285.56,-3187.93,-30.828,-12.5795,-62.4063,8422.06,-11672.3,-3500.57,8.52592,68.2266,-19.4751,9659.09,-191.619,542.595,0.914078,-3.69058,-0.734873
4.4085,5633.55,-2692.44,8037.96,14.8049,-14.9088,-7.32629,20494.8,1088.18,571.608,8.18647,165.696,-15.126,372.666,9793.53,-2407.29,4.29175,-9.22082,-56.4205,-13839.3,-9417.87,-4851.67,6.68969,-65.5589,-192.773,1575.86,9299.88,-3202.4,-30.6322,-12.2585,-62.1695,8401.22,-11720.8,-3415.58,12.2023,70.2687,-19.7377,9676.16,-194.305,553.999,1.13083,-3.34002,-0.818951
4.409,5643.56,-2675.64,7992.05,14.8682,-14.8975,-7.42862,20370.1,896.598,442.528,7.73274,165.437,-13.004,380.993,9806.65,-2424.66,4.25489,-9.12732,-56.7115,-13834.4,-9295.79,-4882.64,5.66056,-66.299,-191.126,1621.03,9313.19,-3214.55,-30.4466,-11.9373,-61.9336,8372.51,-11760.1,-3329.36,15.7171,72.2371,-20.0426,9696.54,-194.248,568.783,1.3614,-3.04588,-0.9101
4.4095,5615.11,-2725.89,7945.84,14.7344,-14.7482,-7.57104,20283.9,599.806,309.054,8.44098,164.568,-11.8488,363.501,9816.73,-2440.83,4.18061,-9.01177,-57.0542,-13839.4,-9212.68,-4897.45,4.74024,-66.9803,-189.136,1650.47,9322.96,-3218.62,-30.2967,-11.6155,-61.7013,8316.26,-11766.8,-3238.86,18.6663,73.9482,-20.4957,9728.51,-184.59,595.391,1.64034,-2.9492,-1.026
4.41,5586.67,-2776.14,7899.64,14.6006,-14.5988,-7.71346,20197.8,303.013,175.579,9.14923,163.698,-10.6935,346.009,9826.8,-2457.01,4.10633,-8.89622,-57.3969,-13844.5,-9129.57,-4912.26,3.81992,-67.6616,-187.147,1679.9,9332.74,-3222.68,-30.1467,-11.2937,-61.4689,8260.01,-11773.5,-3148.35,21.6154,75.6592,-20.9489,9760.48,-174.931,622.0,1.91928,-2.85252,-1.1419
4.4105,5558.23,-2826.39,7853.43,14.4668,-14.4494,-7.85588,20111.6,6.22113,42.1048,9.85747,162.829,-9.53828,328.517,9836.87,-2473.18,4.03204,-8.78067,-57.7396,-13849.5,-9046.46,-4927.08,2.89961,-68.3428,-185.158,1709.34,9342.52,-3226.75,-29.9968,-10.972,-61.2366,8203.77,-11780.1,-3057.84,24.5645,77.3703,-21.402,9792.45,-165.273,648.608,2.19823,-2.75584,-1.25779
4.411,5529.79,-2876.64,7807.23,14.3331,-14.3001,-7.9983,20025.5,-290.571,-91.3698,10.5657,161.959,-8.38303,311.025,9846.94,-2489.35,3.95776,-8.66511,-58.0823,-13854.6,-8963.36,-4941.89,1.97929,-69.0241,-183.168,1738.78,9352.3,-3230.81,-29.8468,-10.6502,-61.0043,8147.52,-11786.8,-2967.33,27.5137,79.0814,-21.8551,9824.43,-155.614,675.216,2.47717,-2.65915,-1.37369
4.4115,5501.35,-2926.89,7761.02,14.1993,-14.1507,-8.14072,19939.3,-587.363,-224.844,11.274,161.09,-7.22778,293.533,9857.02,-2505.52,3.88347,-8.54956,-58.425,-13859.6,-8880.25,-4956.7,1.05897,-69.7054,-181.179,1768.22,9362.08,-3234.88,-29.6969,-10.3284,-60.7719,8091.27,-11793.5,-2876.83,30.4628,80.7924,-22.3083,9856.4,-145.956,701.825,2.75611,-2.56247,-1.48959
4.412,5472.91,-2977.13,7714.82,14.0655,-14.0014,-8.28314,19853.2,-884.156,-358.319,11.9822,160.22,-6.07254,276.041,9867.09,-2521.69,3.80919,-8.43401,-58.7676,-13864.7,-8797.14,-4971.51,0.138655,-70.3867,-179.189,1797.66,9371.86,-3238.94,-29.5469,-10.0066,-60.5396,8035.02,-11800.2,-2786.32,33.412,82.5035,-22.7614,9888.37,-136.297,728.433,3.03505,-2.46579,-1.60549
4.4125,5444.47,-3027.38,7668.62,13.9317,-13.852,-8.42556,19767.0,-1180.95,-491.793,12.6905,159.351,-4.91729,258.549,9877.16,-2537.86,3.73491,-8.31845,-59.1103,-13869.7,-8714.03,-4986.32,-0.781662,-71.068,-177.2,1827.09,9381.64,-3243.01,-29.397,-9.68479,-60.3072,7978.77,-11806.9,-2695.81,36.3611,84.2145,-23.2146,9920.34,-126.639,755.042,3.31399,-2.36911,-1.72138
4.413,5416.03,-3077.63,7622.41,13.7979,-13.7026,-8.56799,19680.9,-1477.74,-625.268,13.3987,158.482,-3.76204,241.057,9887.24,-2554.03,3.66062,-8.2029,-59.453,-13874.7,-8630.92,-5001.13,-1.70198,-71.7493,-175.211,1856.53,9391.42,-3247.07,-29.247,-9.363,-60.0749,7922.52,-11813.5,-2605.31,39.3103,85.9256,-23.6677,9952.31,-116.98,781.65,3.59293,-2.27242,-1.83728
4.4135,5393.99,-3112.3,7608.08,13.6862,-13.6215,-8.64241,19607.0,-1732.48,-765.252,14.4099,157.428,-2.8754,222.785,9897.65,-2563.7,3.5666,-8.0961,-59.7906,-13894.8,-8557.23,-5003.52,-2.55577,-72.3823,-173.084,1883.04,9401.94,-3248.63,-29.1049,-9.09307,-59.8461,7860.03,-11806.2,-2513.85,41.8166,87.465,-24.0781,9983.28,-105.506,806.81,3.82639,-2.21595,-1.95723
4.414,5384.75,-3115.8,7657.49,13.6186,-13.677,-8.58084,19557.8,-1903.12,-918.256,16.027,156.005,-2.52595,202.953,9908.74,-2560.37,3.43309,-8.00681,-60.1181,-13945.0,-8502.38,-4981.04,-3.2765,-72.9187,-170.682,1903.67,9413.96,-3245.16,-28.9785,-8.92686,-59.6245,7785.05,-11770.7,-2420.51,43.4371,88.6609,-24.4031,10012.2,-90.3994,829.074,3.96888,-2.23989,-2.08528
4.4145,5375.51,-3119.31,7706.9,13.5511,-13.7324,-8.51927,19508.5,-2073.76,-1071.26,17.6442,154.583,-2.17651,183.122,9919.82,-2557.03,3.29959,-7.91751,-60.4455,-13995.1,-8447.52,-4958.56,-3.99724,-73.4552,-168.28,1924.31,9425.97,-3241.7,-28.852,-8.76065,-59.4029,7710.08,-11735.3,-2327.16,45.0576,89.8569,-24.7281,10041.2,-75.293,851.338,4.11137,-2.26382,-2.21332
4.415,5366.26,-3122.81,7756.31,13.4835,-13.7878,-8.45771,19459.2,-2244.4,-1224.26,19.2613,153.161,-1.82706,163.29,9930.91,-2553.69,3.16608,-7.82822,-60.773,-14045.3,-8392.67,-4936.09,-4.71797,-73.9917,-165.878,1944.95,9437.99,-3238.23,-28.7256,-8.59444,-59.1813,7635.1,-11699.8,-2233.82,46.6782,91.0529,-25.0531,10070.1,-60.1866,873.601,4.25387,-2.28776,-2.34137
4.4155,5357.02,-3126.32,7805.72,13.416,-13.8432,-8.39614,19410.0,-2415.04,-1377.27,20.8784,151.738,-1.47762,143.459,9942.0,-2550.36,3.03257,-7.73893,-61.1005,-14095.4,-8337.81,-4913.61,-5.4387,-74.5281,-163.476,1965.59,9450.0,-3234.77,-28.5991,-8.42823,-58.9597,7560.12,-11664.4,-2140.47,48.2987,92.2488,-25.3781,10099.0,-45.0802,895.865,4.39636,-2.3117,-2.46942
4.416,5347.78,-3129.82,7855.13,13.3484,-13.8986,-8.33457,19360.7,-2585.68,-1530.27,22.4956,150.316,-1.12817,123.627,9953.09,-2547.02,2.89907,-7.64963,-61.4279,-14145.5,-8282.96,-4891.13,-6.15944,-75.0646,-161.074,1986.23,9462.02,-3231.3,-28.4727,-8.26202,-58.7382,7485.14,-11629.0,-2047.13,49.9192,93.4448,-25.7031,10128.0,-29.9738,918.129,4.53885,-2.33564,-2.59747
4.4165,5338.54,-3133.33,7904.54,13.2809,-13.954,-8.273,19311.4,-2756.32,-1683.27,24.1127,148.894,-0.778728,103.795,9964.18,-2543.68,2.76556,-7.56034,-61.7554,-14195.7,-8228.1,-4868.66,-6.88017,-75.601,-158.672,2006.87,9474.04,-3227.84,-28.3463,-8.09581,-58.5166,7410.16,-11593.5,-1953.78,51.5398,94.6408,-26.028,10156.9,-14.8674,940.392,4.68134,-2.35958,-2.72552
4.417,5329.3,-3136.83,7953.95,13.2133,-14.0094,-8.21143,19262.2,-2926.96,-1836.28,25.7298,147.471,-0.429282,83.9639,9975.26,-2540.35,2.63206,-7.47104,-62.0828,-14245.8,-8173.24,-4846.18,-7.6009,-76.1375,-156.271,2027.51,9486.05,-3224.37,-28.2198,-7.9296,-58.295,7335.18,-11558.1,-1860.44,53.1603,95.8367,-26.353,10185.9,0.23895,962.656,4.82383,-2.38351,-2.85356
4.4175,5320.05,-3140.33,8003.36,13.1458,-14.0648,-8.14987,19212.9,-3097.6,-1989.28,27.3469,146.049,-0.0798373,64.1323,9986.35,-2537.01,2.49855,-7.38175,-62.4103,-14296.0,-8118.39,-4823.7,-8.32164,-76.674,-153.869,2048.14,9498.07,-3220.9,-28.0934,-7.76339,-58.0734,7260.2,-11522.6,-1767.09,54.7808,97.0327,-26.678,10214.8,15.3453,984.92,4.96632,-2.40745,-2.98161
4.418,5328.7,-3141.58,8032.1,13.167,-14.104,-8.11452,19199.7,-3232.46,-2134.53,29.1754,144.346,0.539777,51.026,9999.84,-2531.01,2.37597,-7.33624,-62.72,-14349.7,-8071.86,-4791.53,-8.91666,-77.0714,-151.394,2067.13,9511.01,-3219.42,-27.9969,-7.64446,-57.9014,7210.76,-11483.0,-1661.48,55.838,97.9048,-26.8628,10237.1,34.4188,1003.16,5.03223,-2.42134,-3.11521
4.4185,5359.72,-3139.99,8035.0,13.2994,-14.1227,-8.11197,19231.5,-3322.58,-2270.09,31.268,142.292,1.4971,46.3264,10016.3,-2521.68,2.26706,-7.34546,-63.0076,-14407.8,-8035.75,-4747.24,-9.35455,-77.295,-148.827,2084.06,9525.1,-3220.41,-27.938,-7.58465,-57.7915,7193.25,-11438.3,-1540.54,56.1908,98.3722,-26.8724,10251.2,58.451,1016.37,5.0024,-2.42266,-3.25574
4.419,5390.73,-3138.4,8037.9,13.4317,-14.1415,-8.10941,19263.3,-3412.71,-2405.64,33.3607,140.238,2.45443,41.6268,10032.8,-2512.35,2.15815,-7.35468,-63.2951,-14465.8,-7999.64,-4702.95,-9.79244,-77.5186,-146.261,2100.98,9539.19,-3221.41,-27.8791,-7.52483,-57.6816,7175.73,-11393.5,-1419.59,56.5436,98.8395,-26.882,10265.2,82.4832,1029.58,4.97257,-2.42398,-3.39628
4.4195,5421.75,-3136.81,8040.8,13.564,-14.1602,-8.10685,19295.1,-3502.83,-2541.2,35.4533,138.184,3.41176,36.9272,10049.3,-2503.02,2.04924,-7.3639,-63.5827,-14523.9,-7963.53,-4658.66,-10.2303,-77.7422,-143.695,2117.91,9553.28,-3222.4,-27.8203,-7.46501,-57.5717,7158.21,-11348.8,-1298.65,56.8965,99.3069,-26.8916,10279.2,106.515,1042.79,4.94274,-2.42529,-3.53681
4.42,5452.76,-3135.22,8043.7,13.6963,-14.179,-8.10429,19326.9,-3592.95,-2676.75,37.5459,136.129,4.36908,32.2276,10065.7,-2493.69,1.94032,-7.37313,-63.8703,-14582.0,-7927.42,-4614.36,-10.6682,-77.9659,-141.129,2134.83,9567.37,-3223.39,-27.7614,-7.4052,-57.4618,7140.7,-11304.0,-1177.71,57.2493,99.7742,-26.9012,10293.2,130.548,1056.0,4.91291,-2.42661,-3.67735
4.4205,5483.77,-3133.64,8046.6,13.8286,-14.1978,-8.10173,19358.7,-3683.07,-2812.31,39.6386,134.075,5.32641,27.528,10082.2,-2484.36,1.83141,-7.38235,-64.1578,-14640.1,-7891.31,-4570.07,-11.1061,-78.1895,-138.562,2151.76,9581.46,-3224.39,-27.7025,-7.34538,-57.3519,7123.18,-11259.3,-1056.76,57.6022,100.242,-26.9108,10307.3,154.58,1069.22,4.88308,-2.42793,-3.81788
4.421,5514.79,-3132.05,8049.5,13.9609,-14.2165,-8.09918,19390.5,-3773.2,-2947.86,41.7312,132.021,6.28374,22.8285,10098.7,-2475.03,1.7225,-7.39157,-64.4454,-14698.2,-7855.2,-4525.78,-11.544,-78.4131,-135.996,2168.69,9595.55,-3225.38,-27.6436,-7.28556,-57.242,7105.66,-11214.5,-935.821,57.955,100.709,-26.9204,10321.3,178.612,1082.43,4.85325,-2.42925,-3.95841
4.4215,5545.8,-3130.46,8052.4,14.0932,-14.2353,-8.09662,19422.3,-3863.32,-3083.42,43.8238,129.967,7.24106,18.1289,10115.2,-2465.7,1.61358,-7.40079,-64.733,-14756.3,-7819.09,-4481.49,-11.9819,-78.6368,-133.43,2185.61,9609.64,-3226.37,-27.5847,-7.22574,-57.1321,7088.15,-11169.8,-814.878,58.3078,101.176,-26.93,10335.3,202.644,1095.64,4.82342,-2.43057,-4.09895
4.422,5576.81,-3128.87,8055.31,14.2255,-14.254,-8.09406,19454.1,-3953.44,-3218.97,45.9165,127.913,8.19839,13.4293,10131.7,-2456.37,1.50467,-7.41001,-65.0205,-14814.4,-7782.98,-4437.2,-12.4198,-78.8604,-130.863,2202.54,9623.73,-3227.37,-27.5258,-7.16593,-57.0222,7070.63,-11125.0,-693.935,58.6607,101.644,-26.9396,10349.3,226.677,1108.85,4.7936,-2.43189,-4.23948
4.4225,5580.76,-3118.61,8050.22,14.4223,-14.3379,-8.07828,19524.0,-4021.41,-3378.91,48.0202,125.856,9.65833,8.2321,10144.5,-2445.26,1.38418,-7.46362,-65.3042,-14861.6,-7746.75,-4385.35,-12.8119,-78.923,-128.314,2208.08,9632.08,-3230.34,-27.4325,-7.20704,-56.9774,7080.08,-11108.0,-547.214,58.5572,101.577,-26.9979,10365.4,249.067,1123.76,4.69711,-2.41372,-4.40445
4.423,5563.05,-3101.41,8038.76,14.6706,-14.4739,-8.05192,19624.3,-4071.65,-3558.35,50.133,123.798,11.5204,2.63688,10154.4,-2432.73,1.25442,-7.55273,-65.5847,-14900.2,-7710.41,-4327.45,-13.1673,-78.8567,-125.778,2204.51,9635.84,-3234.9,-27.3118,-7.32891,-56.9846,7111.12,-11113.1,-379.871,58.0886,101.082,-27.095,10383.2,270.144,1140.04,4.54731,-2.37995,-4.58895
4.4235,5545.34,-3084.21,8027.29,14.919,-14.6098,-8.02555,19724.7,-4121.9,-3737.79,52.2457,121.74,13.3824,-2.95835,10164.3,-2420.2,1.12466,-7.64185,-65.8652,-14938.7,-7674.07,-4269.55,-13.5227,-78.7904,-123.242,2200.95,9639.59,-3239.46,-27.1911,-7.45078,-56.9918,7142.15,-11118.3,-212.528,57.62,100.587,-27.1921,10400.9,291.221,1156.32,4.39751,-2.34619,-4.77346
4.424,5527.63,-3067.01,8015.82,15.1673,-14.7458,-7.99919,19825.0,-4172.14,-3917.24,54.3584,119.681,15.2445,-8.55357,10174.3,-2407.68,0.994907,-7.73096,-66.1458,-14977.2,-7637.73,-4211.66,-13.8782,-78.7241,-120.707,2197.38,9643.35,-3244.01,-27.0704,-7.57264,-56.999,7173.18,-11123.4,-45.1843,57.1514,100.093,-27.2892,10418.7,312.297,1172.6,4.2477,-2.31243,-4.95797
