Time,RFoot_accel.x,RFoot_accel.y,RFoot_accel.z,RFoot_gyro.x,RFoot_gyro.y,RFoot_gyro.z,LFoot_accel.x,LFoot_accel.y,LFoot_accel.z,LFoot_gyro.x,LFoot_gyro.y,LFoot_gyro.z,RShank_accel.x,RShank_accel.y,RShank_accel.z,RShank_gyro.x,RShank_gyro.y,RShank_gyro.z,LShank_accel.x,LShank_accel.y,LShank_accel.z,LShank_gyro.x,LShank_gyro.y,LShank_gyro.z,RThigh_accel.x,RThigh_accel.y,RThigh_accel.z,RThigh_gyro.x,RThigh_gyro.y,RThigh_gyro.z,LThigh_accel.x,LThigh_accel.y,LThigh_accel.z,LThigh_gyro.x,LThigh_gyro.y,LThigh_gyro.z,Pelvis_accel.x,Pelvis_accel.y,Pelvis_accel.z,Pelvis_gyro.x,Pelvis_gyro.y,Pelvis_gyro.z
4.05,3224.08,2132.05,9242.42,-19.0697,-59.2659,-61.5247,9853.64,2345.65,13997.0,126.2,300.794,-146.743,-415.953,10641.1,-625.484,-12.5218,-112.202,-36.0767,-3865.15,-15505.8,-170.76,-79.3689,60.3806,-352.076,942.128,9669.5,-2305.26,6.88336,-107.208,-50.4316,7788.32,6423.11,1033.06,-7.18352,-57.9168,-93.6984,9734.72,1198.59,1151.2,-34.6929,9.19868,-10.1859
4.0505,3236.29,2142.44,9204.45,-19.3014,-59.4431,-61.3843,9963.43,2600.42,14015.6,124.619,300.194,-145.254,-363.22,10598.0,-635.547,-12.3664,-111.558,-36.1418,-3872.38,-15611.6,-150.66,-79.2713,57.8388,-352.324,983.892,9657.41,-2293.91,6.90922,-106.721,-50.5695,7875.35,6392.15,1237.24,-9.01983,-56.8244,-93.143,9728.8,1196.55,1135.05,-35.0203,8.97129,-10.2779
4.051,3248.49,2152.84,9166.47,-19.5332,-59.6204,-61.2439,10073.2,2855.19,14034.3,123.038,299.594,-143.764,-310.487,10554.9,-645.611,-12.211,-110.914,-36.207,-3879.61,-15717.5,-130.561,-79.1736,55.297,-352.573,1025.66,9645.32,-2282.57,6.93507,-106.235,-50.7074,7962.38,6361.2,1441.42,-10.8561,-55.732,-92.5876,9722.89,1194.51,1118.9,-35.3476,8.7439,-10.3698
4.0515,3260.7,2163.23,9128.5,-19.7649,-59.7976,-61.1035,10183.0,3109.96,14053.0,121.457,298.994,-142.274,-257.754,10511.8,-655.674,-12.0557,-110.271,-36.2721,-3886.84,-15823.4,-110.462,-79.076,52.7552,-352.822,1067.42,9633.23,-2271.22,6.96092,-105.748,-50.8453,8049.41,6330.24,1645.6,-12.6925,-54.6395,-92.0322,9716.97,1192.46,1102.75,-35.675,8.51651,-10.4617
4.052,3272.91,2173.62,9090.53,-19.9967,-59.9748,-60.963,10292.8,3364.73,14071.6,119.876,298.394,-140.785,-205.02,10468.7,-665.737,-11.9003,-109.627,-36.3373,-3894.07,-15929.3,-90.3627,-78.9783,50.2134,-353.071,1109.18,9621.13,-2259.88,6.98677,-105.262,-50.9832,8136.44,6299.29,1849.78,-14.5288,-53.5471,-91.4768,9711.05,1190.42,1086.61,-36.0024,8.28911,-10.5536
4.0525,3285.12,2184.01,9052.56,-20.2284,-60.1521,-60.8226,10402.6,3619.49,14090.3,118.295,297.794,-139.295,-152.287,10425.6,-675.801,-11.745,-108.983,-36.4025,-3901.3,-16035.1,-70.2635,-78.8806,47.6716,-353.32,1150.95,9609.04,-2248.53,7.01262,-104.775,-51.1211,8223.46,6268.33,2053.96,-16.3651,-52.4547,-90.9214,9705.14,1188.38,1070.46,-36.3297,8.06172,-10.6456
4.053,3297.32,2194.41,9014.58,-20.4602,-60.3293,-60.6822,10512.3,3874.26,14109.0,116.714,297.194,-137.805,-99.5542,10382.5,-685.864,-11.5896,-108.339,-36.4676,-3908.53,-16141.0,-50.1643,-78.783,45.1298,-353.568,1192.71,9596.95,-2237.19,7.03848,-104.289,-51.259,8310.49,6237.37,2258.14,-18.2014,-51.3623,-90.366,9699.22,1186.33,1054.31,-36.6571,7.83433,-10.7375
4.0535,3315.85,2226.78,8985.95,-20.6042,-60.4808,-60.524,10632.0,4113.87,14138.7,115.007,296.642,-136.381,-54.9348,10345.1,-687.339,-11.3952,-107.585,-36.5819,-3914.57,-16253.0,-41.6195,-78.7148,42.7563,-353.791,1232.24,9591.01,-2227.16,7.032,-103.728,-51.3407,8393.46,6203.45,2449.45,-20.1478,-50.5216,-89.9576,9691.56,1181.26,1043.97,-36.9614,7.59664,-10.8289
4.054,3347.03,2303.11,8976.01,-20.5725,-60.5805,-60.3302,10771.6,4323.16,14190.5,113.051,296.186,-135.088,-26.5431,10319.1,-671.638,-11.1228,-106.61,-36.7946,-3918.23,-16377.3,-56.1836,-78.7055,40.7196,-353.961,1267.29,9597.4,-2219.76,6.96088,-103.019,-51.31,8468.31,6163.59,2615.0,-22.3142,-50.1846,-89.843,9680.43,1170.12,1045.24,-37.2196,7.33836,-10.9191
4.0545,3378.21,2379.44,8966.06,-20.5409,-60.6803,-60.1363,10911.1,4532.44,14242.4,111.095,295.73,-133.794,1.84865,10293.0,-655.937,-10.8504,-105.635,-37.0072,-3921.89,-16501.7,-70.7477,-78.6962,38.6828,-354.131,1302.33,9603.78,-2212.36,6.88976,-102.31,-51.2794,8543.17,6123.72,2780.56,-24.4806,-49.8475,-89.7285,9669.3,1158.99,1046.51,-37.4778,7.08007,-11.0094
4.055,3409.39,2455.77,8956.11,-20.5092,-60.7801,-59.9425,11050.7,4741.73,14294.2,109.138,295.274,-132.501,30.2404,10267.0,-640.235,-10.578,-104.66,-37.2198,-3925.55,-16626.0,-85.3119,-78.687,36.6461,-354.302,1337.38,9610.17,-2204.96,6.81864,-101.602,-51.2487,8618.02,6083.86,2946.11,-26.647,-49.5105,-89.614,9658.17,1147.85,1047.78,-37.7361,6.82178,-11.0996
4.0555,3440.56,2532.1,8946.16,-20.4776,-60.8799,-59.7487,11190.2,4951.02,14346.1,107.182,294.818,-131.207,58.6321,10241.0,-624.534,-10.3056,-103.684,-37.4324,-3929.21,-16750.3,-99.876,-78.6777,34.6093,-354.472,1372.43,9616.55,-2197.56,6.74752,-100.893,-51.218,8692.87,6044.0,3111.66,-28.8134,-49.1735,-89.4995,9647.04,1136.72,1049.05,-37.9943,6.56349,-11.1899
4.056,3471.74,2608.42,8936.21,-20.4459,-60.9797,-59.5549,11329.7,5160.3,14397.9,105.225,294.362,-129.914,87.0239,10215.0,-608.833,-10.0331,-102.709,-37.6451,-3932.88,-16874.6,-114.44,-78.6684,32.5725,-354.642,1407.48,9622.93,-2190.16,6.6764,-100.184,-51.1873,8767.72,6004.14,3277.22,-30.9799,-48.8364,-89.385,9635.91,1125.58,1050.31,-38.2525,6.30521,-11.2802
4.0565,3502.92,2684.75,8926.26,-20.4143,-61.0795,-59.3611,11469.3,5369.59,14449.7,103.269,293.906,-128.62,115.416,10189.0,-593.131,-9.76073,-101.734,-37.8577,-3936.54,-16998.9,-129.004,-78.6592,30.5358,-354.812,1442.53,9629.32,-2182.77,6.60528,-99.4754,-51.1566,8842.57,5964.27,3442.77,-33.1463,-48.4994,-89.2705,9624.77,1114.45,1051.58,-38.5107,6.04692,-11.3704
4.057,3534.1,2761.08,8916.31,-20.3827,-61.1793,-59.1672,11608.8,5578.88,14501.6,101.312,293.45,-127.327,143.807,10163.0,-577.43,-9.48831,-100.759,-38.0703,-3940.2,-17123.2,-143.568,-78.6499,28.499,-354.982,1477.58,9635.7,-2175.37,6.53416,-98.7667,-51.1259,8917.42,5924.41,3608.32,-35.3127,-48.1623,-89.156,9613.64,1103.31,1052.85,-38.769,5.78863,-11.4607
4.0575,3565.27,2837.41,8906.36,-20.351,-61.2791,-58.9734,11748.4,5788.16,14553.4,99.3558,292.994,-126.033,172.199,10137.0,-561.729,-9.21589,-99.7844,-38.283,-3943.86,-17247.5,-158.133,-78.6407,26.4622,-355.153,1512.62,9642.09,-2167.97,6.46304,-98.0579,-51.0952,8992.27,5884.55,3773.88,-37.4791,-47.8253,-89.0414,9602.51,1092.18,1054.12,-39.0272,5.53034,-11.5509
4.058,3601.34,2917.08,8891.42,-20.2815,-61.3396,-58.6656,11892.2,5955.86,14612.6,97.2898,292.617,-124.915,189.035,10121.6,-530.78,-9.0195,-98.8902,-38.5429,-3946.06,-17361.6,-188.086,-78.6031,24.6413,-355.279,1545.36,9650.86,-2154.97,6.38515,-97.3011,-51.049,9051.02,5845.34,3918.53,-39.6284,-47.5753,-89.0424,9590.92,1091.92,1057.33,-39.4047,5.21436,-11.5753
4.0585,3643.53,3000.92,8870.23,-20.1647,-61.3511,-58.2153,12041.6,6071.57,14680.9,95.0869,292.338,-124.015,191.425,10119.4,-480.772,-8.91812,-98.0971,-38.862,-3946.43,-17463.1,-237.277,-78.5301,23.0901,-355.351,1575.22,9662.64,-2134.96,6.29879,-96.4842,-50.9833,9089.65,5806.95,4037.05,-41.7563,-47.434,-89.1877,9578.75,1105.24,1062.98,-39.9314,4.82625,-11.5174
4.059,3685.71,3084.77,8849.04,-20.0478,-61.3625,-57.7649,12190.9,6187.28,14749.3,92.8839,292.06,-123.115,193.815,10117.3,-430.765,-8.81675,-97.304,-39.1811,-3946.8,-17564.5,-286.467,-78.457,21.5389,-355.423,1605.07,9674.41,-2114.96,6.21244,-95.6672,-50.9176,9128.28,5768.56,4155.57,-43.8842,-47.2928,-89.333,9566.57,1118.57,1068.62,-40.4581,4.43814,-11.4594
4.0595,3727.9,3168.61,8827.85,-19.931,-61.3739,-57.3146,12340.3,6303.0,14817.7,90.681,291.782,-122.215,196.206,10115.1,-380.757,-8.71537,-96.5109,-39.5001,-3947.17,-17665.9,-335.657,-78.384,19.9877,-355.495,1634.93,9686.18,-2094.96,6.12609,-94.8503,-50.852,9166.9,5730.18,4274.09,-46.012,-47.1515,-89.4783,9554.4,1131.9,1074.26,-40.9848,4.05003,-11.4015
4.06,3770.08,3252.45,8806.66,-19.8142,-61.3854,-56.8643,12489.6,6418.71,14886.0,88.478,291.503,-121.314,198.596,10112.9,-330.749,-8.614,-95.7177,-39.8192,-3947.54,-17767.4,-384.848,-78.311,18.4365,-355.566,1664.78,9697.95,-2074.95,6.03973,-94.0334,-50.7863,9205.52,5691.79,4392.62,-48.1399,-47.0103,-89.6236,9542.23,1145.23,1079.9,-41.5115,3.66192,-11.3436
4.0605,3812.27,3336.29,8785.47,-19.6973,-61.3968,-56.414,12638.9,6534.42,14954.4,86.2751,291.225,-120.414,200.986,10110.8,-280.742,-8.51262,-94.9246,-40.1383,-3947.91,-17868.8,-434.038,-78.238,16.8853,-355.638,1694.64,9709.72,-2054.95,5.95338,-93.2165,-50.7207,9244.15,5653.4,4511.14,-50.2677,-46.869,-89.7688,9530.06,1158.56,1085.54,-42.0382,3.27381,-11.2856
4.061,3854.45,3420.14,8764.28,-19.5805,-61.4082,-55.9636,12788.3,6650.13,15022.8,84.0721,290.947,-119.514,203.377,10108.6,-230.734,-8.41125,-94.1315,-40.4574,-3948.28,-17970.3,-483.229,-78.165,15.3341,-355.71,1724.49,9721.49,-2034.94,5.86703,-92.3995,-50.655,9282.78,5615.01,4629.66,-52.3956,-46.7277,-89.9141,9517.88,1171.89,1091.18,-42.5649,2.8857,-11.2277
4.0615,3896.63,3503.98,8743.09,-19.4637,-61.4197,-55.5133,12937.6,6765.84,15091.1,81.8692,290.668,-118.614,205.767,10106.5,-180.726,-8.30987,-93.3384,-40.7765,-3948.66,-18071.7,-532.419,-78.092,13.7829,-355.782,1754.35,9733.26,-2014.94,5.78067,-91.5826,-50.5893,9321.4,5576.62,4748.18,-54.5235,-46.5865,-90.0594,9505.71,1185.21,1096.82,-43.0917,2.4976,-11.1698
4.062,3938.82,3587.82,8721.9,-19.3468,-61.4311,-55.063,13086.9,6881.55,15159.5,79.6662,290.39,-117.714,208.157,10104.3,-130.719,-8.2085,-92.5453,-41.0956,-3949.03,-18173.1,-581.61,-78.019,12.2317,-355.854,1784.2,9745.03,-1994.94,5.69432,-90.7657,-50.5237,9360.03,5538.24,4866.7,-56.6513,-46.4452,-90.2047,9493.54,1198.54,1102.46,-43.6184,2.10949,-11.1118
4.0625,3963.61,3629.71,8715.34,-19.1223,-61.3729,-54.5584,13238.9,6927.19,15252.5,77.5518,290.074,-117.146,197.085,10108.4,-70.0905,-8.23382,-91.95,-41.4116,-3948.04,-18273.8,-643.074,-77.8261,11.1088,-355.859,1802.66,9758.5,-1976.11,5.67072,-89.9081,-50.5121,9378.48,5508.85,4926.2,-58.5576,-45.9474,-90.2793,9480.69,1208.72,1103.4,-44.0651,1.65526,-11.1241
4.063,3974.48,3638.02,8720.47,-18.8117,-61.2591,-54.0104,13392.9,6916.75,15365.2,75.5082,289.728,-116.844,175.242,10117.6,-0.966085,-8.3605,-91.5129,-41.7251,-3945.98,-18373.8,-714.358,-77.5373,10.3286,-355.811,1811.99,9773.32,-1958.22,5.69733,-89.0179,-50.5438,9380.81,5486.65,4938.46,-60.2867,-45.1644,-90.2974,9467.31,1216.38,1100.59,-44.4479,1.14814,-11.1926
4.0635,3985.36,3646.34,8725.61,-18.501,-61.1452,-53.4624,13546.9,6906.32,15478.0,73.4646,289.381,-116.541,153.398,10126.9,68.1584,-8.48718,-91.0758,-42.0386,-3943.92,-18473.8,-785.643,-77.2485,9.54843,-355.763,1821.33,9788.14,-1940.33,5.72394,-88.1276,-50.5756,9383.14,5464.46,4950.73,-62.0157,-44.3814,-90.3154,9453.93,1224.04,1097.77,-44.8307,0.641023,-11.261
4.064,3996.24,3654.65,8730.75,-18.1904,-61.0313,-52.9144,13700.8,6895.89,15590.7,71.4209,289.035,-116.239,131.555,10136.1,137.283,-8.61386,-90.6387,-42.3522,-3941.86,-18573.8,-856.927,-76.9597,8.76823,-355.714,1830.66,9802.97,-1922.44,5.75055,-87.2374,-50.6073,9385.46,5442.27,4963.0,-63.7448,-43.5984,-90.3335,9440.55,1231.71,1094.95,-45.2135,0.133904,-11.3294
4.0645,4007.11,3662.97,8735.88,-17.8797,-60.9175,-52.3664,13854.8,6885.46,15703.5,69.3773,288.689,-115.937,109.712,10145.3,206.407,-8.74054,-90.2017,-42.6657,-3939.79,-18673.8,-928.211,-76.6709,7.98803,-355.666,1840.0,9817.79,-1904.55,5.77716,-86.3472,-50.639,9387.79,5420.08,4975.27,-65.4739,-42.8154,-90.3515,9427.17,1239.37,1092.13,-45.5963,-0.373215,-11.3979
4.065,4017.99,3671.29,8741.02,-17.5691,-60.8036,-51.8184,14008.8,6875.03,15816.2,67.3337,288.342,-115.634,87.8692,10154.5,275.532,-8.86722,-89.7646,-42.9792,-3937.73,-18773.8,-999.495,-76.3821,7.20784,-355.618,1849.33,9832.61,-1886.66,5.80378,-85.457,-50.6707,9390.11,5397.89,4987.54,-67.2029,-42.0324,-90.3695,9413.79,1247.03,1089.31,-45.9791,-0.880333,-11.4663
4.0655,4028.86,3679.6,8746.15,-17.2584,-60.6897,-51.2705,14162.8,6864.6,15929.0,65.2901,287.996,-115.332,66.0261,10163.7,344.656,-8.9939,-89.3275,-43.2928,-3935.67,-18873.8,-1070.78,-76.0933,6.42764,-355.57,1858.67,9847.43,-1868.77,5.83039,-84.5668,-50.7024,9392.44,5375.69,4999.8,-68.932,-41.2494,-90.3876,9400.41,1254.69,1086.49,-46.3618,-1.38745,-11.5347
4.066,4039.74,3687.92,8751.29,-16.9478,-60.5759,-50.7225,14316.8,6854.16,16041.7,63.2465,287.649,-115.03,44.183,10172.9,413.781,-9.12058,-88.8904,-43.6063,-3933.6,-18973.8,-1142.06,-75.8045,5.64744,-355.522,1868.0,9862.25,-1850.88,5.857,-83.6766,-50.7342,9394.76,5353.5,5012.07,-70.661,-40.4663,-90.4056,9387.02,1262.35,1083.67,-46.7446,-1.89457,-11.6032
4.0665,4050.61,3696.23,8756.43,-16.6371,-60.462,-50.1745,14470.8,6843.73,16154.5,61.2029,287.303,-114.727,22.3399,10182.1,482.905,-9.24726,-88.4533,-43.9199,-3931.54,-19073.8,-1213.35,-75.5157,4.86724,-355.474,1877.34,9877.07,-1832.99,5.88361,-82.7864,-50.7659,9397.09,5331.31,5024.34,-72.3901,-39.6833,-90.4237,9373.64,1270.01,1080.85,-47.1274,-2.40169,-11.6716
4.067,4041.82,3695.33,8767.17,-16.3469,-60.5049,-49.6314,14637.5,6752.5,16239.8,59.1949,287.09,-114.843,0.239867,10198.2,544.915,-9.43774,-88.1755,-44.2415,-3933.55,-19182.2,-1281.26,-75.1461,4.61985,-355.386,1881.5,9893.64,-1810.68,5.79496,-81.9904,-50.8182,9364.74,5324.2,4988.02,-73.765,-38.2364,-90.2269,9357.27,1279.04,1073.03,-47.4438,-2.86018,-11.6728
4.0675,4023.2,3689.82,8780.71,-16.067,-60.6263,-49.0909,14810.6,6620.87,16311.5,57.2047,286.944,-115.168,-21.9887,10217.8,603.367,-9.66011,-87.9774,-44.5671,-3937.6,-19294.8,-1347.49,-74.7362,4.63887,-355.278,1883.07,9911.08,-1786.16,5.64867,-81.2416,-50.8809,9315.06,5324.63,4927.42,-74.9629,-36.4576,-89.9228,9339.41,1288.75,1062.71,-47.727,-3.29436,-11.6404
4.068,4004.57,3684.31,8794.25,-15.7871,-60.7476,-48.5503,14983.7,6489.24,16383.2,55.2145,286.797,-115.494,-44.2172,10237.3,661.82,-9.88248,-87.7792,-44.8927,-3941.65,-19407.3,-1413.71,-74.3262,4.65789,-355.17,1884.64,9928.52,-1761.65,5.50239,-80.4927,-50.9436,9265.38,5325.06,4866.81,-76.1608,-34.6787,-89.6187,9321.54,1298.46,1052.39,-48.0102,-3.72854,-11.6079
4.0685,3985.95,3678.8,8807.79,-15.5071,-60.8689,-48.0097,15156.8,6357.61,16454.9,53.2244,286.651,-115.819,-66.4458,10256.9,720.272,-10.1049,-87.581,-45.2184,-3945.69,-19519.9,-1479.94,-73.9162,4.67691,-355.063,1886.22,9945.96,-1737.13,5.35611,-79.7439,-51.0062,9215.7,5325.49,4806.2,-77.3587,-32.8999,-89.3146,9303.68,1308.17,1042.07,-48.2934,-4.16271,-11.5755
4.069,3967.32,3673.29,8821.34,-15.2272,-60.9903,-47.4691,15329.9,6225.98,16526.5,51.2342,286.504,-116.144,-88.6744,10276.5,778.725,-10.3272,-87.3828,-45.544,-3949.74,-19632.5,-1546.17,-73.5063,4.69593,-354.955,1887.79,9963.4,-1712.62,5.20983,-78.995,-51.0689,9166.02,5325.92,4745.59,-78.5565,-31.121,-89.0104,9285.82,1317.88,1031.75,-48.5766,-4.59689,-11.543
4.0695,3948.69,3667.79,8834.88,-14.9473,-61.1116,-46.9285,15503.0,6094.35,16598.2,49.244,286.358,-116.469,-110.903,10296.1,837.177,-10.5496,-87.1847,-45.8697,-3953.79,-19745.1,-1612.4,-73.0963,4.71495,-354.847,1889.36,9980.84,-1688.1,5.06355,-78.2461,-51.1316,9116.34,5326.35,4684.99,-79.7544,-29.3421,-88.7063,9267.95,1327.59,1021.43,-48.8598,-5.03107,-11.5106
4.07,3930.07,3662.28,8848.42,-14.6673,-61.233,-46.388,15676.0,5962.71,16669.9,47.2538,286.211,-116.794,-133.131,10315.6,895.63,-10.772,-86.9865,-46.1953,-3957.84,-19857.7,-1678.62,-72.6863,4.73397,-354.739,1890.93,9998.28,-1663.59,4.91726,-77.4973,-51.1943,9066.66,5326.78,4624.38,-80.9523,-27.5633,-88.4022,9250.09,1337.3,1011.11,-49.143,-5.46525,-11.4782
4.0705,3911.44,3656.77,8861.96,-14.3874,-61.3543,-45.8474,15849.1,5831.08,16741.6,45.2637,286.065,-117.119,-155.36,10335.2,954.082,-10.9944,-86.7883,-46.5209,-3961.88,-19970.3,-1744.85,-72.2763,4.75299,-354.631,1892.51,10015.7,-1639.07,4.77098,-76.7484,-51.2569,9016.98,5327.21,4563.77,-82.1502,-25.7844,-88.0981,9232.23,1347.01,1000.79,-49.4261,-5.89942,-11.4457
4.071,3892.82,3651.26,8875.5,-14.1074,-61.4756,-45.3068,16022.2,5699.45,16813.3,43.2735,285.919,-117.445,-177.589,10354.8,1012.53,-11.2167,-86.5901,-46.8466,-3965.93,-20082.8,-1811.08,-71.8664,4.772,-354.524,1894.08,10033.2,-1614.56,4.6247,-75.9995,-51.3196,8967.3,5327.64,4503.16,-83.3481,-24.0056,-87.7939,9214.36,1356.72,990.468,-49.7093,-6.3336,-11.4133
4.0715,3865.3,3634.94,8874.01,-13.9365,-61.6232,-44.8306,16239.3,5539.69,16804.0,41.6557,285.992,-118.33,-188.133,10379.5,1046.83,-11.407,-86.3306,-47.1518,-3975.78,-20196.0,-1832.32,-71.4898,4.93115,-354.478,1888.62,10040.1,-1584.84,4.55304,-75.268,-51.3047,8880.17,5341.92,4414.01,-84.3101,-21.3726,-87.1239,9193.81,1373.42,983.624,-49.8968,-6.73304,-11.4055
4.072,3835.25,3615.53,8868.21,-13.7967,-61.7782,-44.3728,16469.0,5371.9,16771.7,40.1443,286.127,-119.375,-195.338,10405.7,1074.22,-11.5881,-86.0535,-47.4512,-3987.28,-20309.3,-1840.71,-71.1229,5.13034,-354.45,1881.16,10044.1,-1553.62,4.50271,-74.5415,-51.2677,8782.33,5360.17,4316.69,-85.2048,-18.4957,-86.3493,9172.49,1392.11,977.773,-50.057,-7.12256,-11.4048
4.0725,3805.2,3596.12,8862.42,-13.657,-61.9333,-43.915,16698.7,5204.11,16739.4,38.6328,286.263,-120.42,-202.544,10431.9,1101.62,-11.7693,-85.7764,-47.7506,-3998.78,-20422.6,-1849.1,-70.7559,5.32953,-354.422,1873.7,10048.1,-1522.41,4.45237,-73.815,-51.2307,8684.49,5378.41,4219.38,-86.0995,-15.6187,-85.5748,9151.16,1410.81,971.923,-50.2171,-7.51207,-11.4041
4.073,3775.15,3576.71,8856.62,-13.5172,-62.0883,-43.4572,16928.4,5036.31,16707.1,37.1214,286.399,-121.465,-209.749,10458.1,1129.01,-11.9504,-85.4994,-48.05,-4010.29,-20536.0,-1857.48,-70.3889,5.52872,-354.394,1866.23,10052.1,-1491.2,4.40204,-73.0884,-51.1937,8586.66,5396.66,4122.07,-86.9942,-12.7418,-84.8002,9129.84,1429.51,966.072,-50.3773,-7.90159,-11.4034
4.0735,3745.1,3557.3,8850.82,-13.3774,-62.2434,-42.9993,17158.1,4868.52,16674.7,35.61,286.535,-122.51,-216.955,10484.3,1156.41,-12.1315,-85.2223,-48.3495,-4021.79,-20649.3,-1865.87,-70.0219,5.72791,-354.366,1858.77,10056.1,-1459.99,4.3517,-72.3619,-51.1567,8488.82,5414.9,4024.76,-87.8889,-9.86479,-84.0256,9108.52,1448.21,960.221,-50.5374,-8.2911,-11.4027
4.074,3715.05,3537.89,8845.03,-13.2376,-62.3984,-42.5415,17387.7,4700.73,16642.4,34.0986,286.67,-123.555,-224.16,10510.6,1183.8,-12.3126,-84.9452,-48.6489,-4033.29,-20762.6,-1874.26,-69.6549,5.9271,-354.338,1851.31,10060.1,-1428.77,4.30137,-71.6354,-51.1197,8390.98,5433.14,3927.44,-88.7835,-6.98783,-83.2511,9087.2,1466.9,954.371,-50.6976,-8.68062,-11.402
4.0745,3685.0,3518.48,8839.23,-13.0979,-62.5535,-42.0837,17617.4,4532.93,16610.1,32.5871,286.806,-124.6,-231.366,10536.8,1211.2,-12.4938,-84.6681,-48.9483,-4044.8,-20875.9,-1882.65,-69.288,6.12629,-354.31,1843.85,10064.1,-1397.56,4.25103,-70.9088,-51.0826,8293.14,5451.39,3830.13,-89.6782,-4.11086,-82.4765,9065.87,1485.6,948.52,-50.8577,-9.07013,-11.4013
4.075,3654.95,3499.07,8833.44,-12.9581,-62.7085,-41.6259,17847.1,4365.14,16577.8,31.0757,286.942,-125.645,-238.571,10563.0,1238.59,-12.6749,-84.3911,-49.2477,-4056.3,-20989.3,-1891.04,-68.921,6.32547,-354.282,1836.38,10068.1,-1366.35,4.2007,-70.1823,-51.0456,8195.31,5469.63,3732.82,-90.5729,-1.2339,-81.7019,9044.55,1504.3,942.669,-51.0178,-9.45965,-11.4006
4.0755,3624.89,3479.66,8827.64,-12.8183,-62.8636,-41.1681,18076.8,4197.35,16545.4,29.5643,287.078,-126.69,-245.777,10589.2,1265.98,-12.856,-84.114,-49.5471,-4067.8,-21102.6,-1899.42,-68.554,6.52466,-354.254,1828.92,10072.1,-1335.14,4.15036,-69.4558,-51.0086,8097.47,5487.88,3635.51,-91.4676,1.64306,-80.9273,9023.23,1522.99,936.819,-51.178,-9.84916,-11.3999
4.076,3616.83,3503.4,8819.07,-12.7867,-62.9681,-40.7059,18320.1,4145.04,16503.4,29.05,287.135,-127.562,-239.5,10613.4,1275.48,-12.9339,-83.6524,-49.7496,-4108.63,-21198.7,-1889.27,-68.3323,6.72151,-354.34,1801.74,10078.8,-1309.95,4.00568,-68.8521,-50.9479,7969.01,5539.28,3510.26,-92.2823,5.59499,-79.6157,8990.86,1533.27,918.806,-51.3371,-10.247,-11.4003
4.0765,3611.51,3532.54,8810.15,-12.7685,-63.0662,-40.243,18565.1,4107.17,16460.2,28.6604,287.182,-128.413,-231.537,10637.4,1282.73,-12.999,-83.1678,-49.94,-4153.11,-21292.7,-1876.8,-68.1288,6.91806,-354.44,1772.1,10085.9,-1285.52,3.8492,-68.2638,-50.8843,7836.72,5594.82,3381.53,-93.0871,9.6813,-78.2369,8957.11,1542.5,899.273,-51.4961,-10.6459,-11.401
4.077,3606.19,3561.68,8801.23,-12.7504,-63.1643,-39.7802,18810.1,4069.29,16417.0,28.2708,287.229,-129.263,-223.574,10661.5,1289.98,-13.064,-82.6832,-50.1304,-4197.6,-21386.7,-1864.32,-67.9253,7.11461,-354.54,1742.46,10092.9,-1261.09,3.69272,-67.6755,-50.8207,7704.44,5650.37,3252.79,-93.8918,13.7676,-76.8581,8923.36,1551.72,879.74,-51.6551,-11.0448,-11.4016
4.0775,3600.87,3590.82,8792.32,-12.7322,-63.2625,-39.3174,19055.1,4031.42,16373.7,27.8811,287.276,-130.113,-215.611,10685.5,1297.24,-13.129,-82.1985,-50.3208,-4242.08,-21480.7,-1851.85,-67.7218,7.31117,-354.64,1712.82,10100.0,-1236.66,3.53624,-67.0872,-50.757,7572.15,5705.92,3124.05,-94.6966,17.8539,-75.4793,8889.61,1560.95,860.207,-51.8142,-11.4437,-11.4023
4.078,3595.55,3619.96,8783.4,-12.714,-63.3606,-38.8546,19300.1,3993.54,16330.5,27.4915,287.323,-130.964,-207.648,10709.5,1304.49,-13.194,-81.7139,-50.5112,-4286.57,-21574.7,-1839.38,-67.5183,7.50772,-354.741,1683.17,10107.0,-1212.22,3.37975,-66.4989,-50.6934,7439.86,5761.46,2995.32,-95.5014,21.9402,-74.1005,8855.86,1570.17,840.674,-51.9732,-11.8426,-11.4029
4.0785,3590.23,3649.09,8774.48,-12.6959,-63.4588,-38.3918,19545.1,3955.67,16287.3,27.1019,287.37,-131.814,-199.685,10733.5,1311.75,-13.259,-81.2293,-50.7016,-4331.06,-21668.7,-1826.9,-67.3148,7.70427,-354.841,1653.53,10114.1,-1187.79,3.22327,-65.9106,-50.6297,7307.58,5817.01,2866.58,-96.3061,26.0265,-72.7217,8822.12,1579.4,821.142,-52.1322,-12.2416,-11.4036
4.079,3584.91,3678.23,8765.56,-12.6777,-63.5569,-37.929,19790.1,3917.8,16244.1,26.7123,287.417,-132.664,-191.722,10757.5,1319.0,-13.3241,-80.7446,-50.8919,-4375.54,-21762.7,-1814.43,-67.1113,7.90083,-354.941,1623.89,10121.2,-1163.36,3.06679,-65.3223,-50.5661,7175.29,5872.56,2737.85,-97.1109,30.1128,-71.3428,8788.37,1588.62,801.609,-52.2912,-12.6405,-11.4042
4.0795,3579.59,3707.37,8756.65,-12.6596,-63.6551,-37.4662,20035.1,3879.92,16200.8,26.3226,287.464,-133.514,-183.759,10781.5,1326.25,-13.3891,-80.26,-51.0823,-4420.03,-21856.7,-1801.96,-66.9078,8.09738,-355.041,1594.25,10128.2,-1138.93,2.91031,-64.734,-50.5025,7043.0,5928.11,2609.11,-97.9156,34.1991,-69.964,8754.62,1597.85,782.076,-52.4502,-13.0394,-11.4049
4.08,3574.27,3736.51,8747.73,-12.6414,-63.7532,-37.0034,20280.0,3842.05,16157.6,25.933,287.511,-134.365,-175.796,10805.5,1333.51,-13.4541,-79.7754,-51.2727,-4464.51,-21950.7,-1789.49,-66.7043,8.29393,-355.141,1564.61,10135.3,-1114.5,2.75383,-64.1457,-50.4388,6910.72,5983.65,2480.37,-98.7204,38.2854,-68.5852,8720.87,1607.07,762.543,-52.6092,-13.4383,-11.4055
4.0805,3607.52,3753.87,8741.68,-12.5844,-63.759,-36.4884,20439.2,3859.53,16139.7,26.1318,287.101,-135.176,-167.195,10804.0,1330.98,-13.4616,-79.077,-51.4081,-4552.7,-22005.4,-1805.84,-66.5928,8.56188,-355.155,1547.3,10144.2,-1101.61,2.56033,-63.6505,-50.4004,6779.12,6024.14,2374.09,-99.2691,43.0903,-66.6111,8696.06,1626.98,751.317,-52.7024,-13.9849,-11.4333
4.081,3640.78,3771.23,8735.63,-12.5273,-63.7647,-35.9734,20598.3,3877.02,16121.7,26.3306,286.691,-135.987,-158.594,10802.5,1328.46,-13.4691,-78.3787,-51.5435,-4640.88,-22060.2,-1822.19,-66.4813,8.82983,-355.168,1529.99,10153.0,-1088.73,2.36682,-63.1553,-50.362,6647.53,6064.62,2267.81,-99.8178,47.8952,-64.637,8671.25,1646.9,740.091,-52.7956,-14.5315,-11.461
4.0815,3674.03,3788.58,8729.58,-12.4702,-63.7705,-35.4584,20757.4,3894.5,16103.8,26.5294,286.281,-136.799,-149.993,10801.0,1325.93,-13.4765,-77.6804,-51.6789,-4729.07,-22115.0,-1838.54,-66.3699,9.09778,-355.182,1512.67,10161.9,-1075.85,2.17331,-62.6601,-50.3235,6515.94,6105.1,2161.53,-100.366,52.7001,-62.6629,8646.44,1666.81,728.865,-52.8888,-15.0782,-11.4887
4.082,3707.29,3805.94,8723.53,-12.4132,-63.7762,-34.9434,20916.5,3911.98,16085.8,26.7282,285.871,-137.61,-141.392,10799.4,1323.4,-13.484,-76.982,-51.8142,-4817.25,-22169.7,-1854.9,-66.2584,9.36572,-355.196,1495.36,10170.8,-1062.96,1.97981,-62.1649,-50.2851,6384.34,6145.59,2055.25,-100.915,57.505,-60.6888,8621.63,1686.73,717.639,-52.9819,-15.6248,-11.5164
4.0825,3740.55,3823.3,8717.48,-12.3561,-63.782,-34.4284,21075.7,3929.47,16067.9,26.927,285.461,-138.421,-132.791,10797.9,1320.88,-13.4915,-76.2837,-51.9496,-4905.44,-22224.5,-1871.25,-66.1469,9.63367,-355.209,1478.05,10179.7,-1050.08,1.7863,-61.6698,-50.2466,6252.75,6186.07,1948.97,-101.464,62.3099,-58.7147,8596.82,1706.64,706.413,-53.0751,-16.1715,-11.5441
4.083,3773.8,3840.65,8711.43,-12.2991,-63.7877,-33.9134,21234.8,3946.95,16050.0,27.1258,285.051,-139.233,-124.19,10796.4,1318.35,-13.499,-75.5853,-52.085,-4993.63,-22279.3,-1887.6,-66.0354,9.90162,-355.223,1460.74,10188.6,-1037.2,1.59279,-61.1746,-50.2082,6121.16,6226.56,1842.69,-102.013,67.1148,-56.7406,8572.01,1726.55,695.187,-53.1683,-16.7181,-11.5718
4.0835,3807.06,3858.01,8705.38,-12.242,-63.7935,-33.3984,21393.9,3964.43,16032.0,27.3246,284.641,-140.044,-115.589,10794.9,1315.82,-13.5064,-74.887,-52.2204,-5081.81,-22334.1,-1903.95,-65.9239,10.1696,-355.237,1443.43,10197.4,-1024.32,1.39929,-60.6794,-50.1698,5989.56,6267.04,1736.41,-102.561,71.9197,-54.7665,8547.21,1746.47,683.961,-53.2615,-17.2647,-11.5996
4.084,3840.31,3875.37,8699.33,-12.1849,-63.7993,-32.8834,21553.0,3981.92,16014.1,27.5234,284.231,-140.855,-106.988,10793.4,1313.3,-13.5139,-74.1886,-52.3557,-5170.0,-22388.8,-1920.31,-65.8124,10.4375,-355.25,1426.12,10206.3,-1011.43,1.20578,-60.1842,-50.1313,5857.97,6307.52,1630.13,-103.11,76.7246,-52.7924,8522.4,1766.38,672.735,-53.3547,-17.8114,-11.6273
4.0845,3872.92,3892.57,8693.34,-12.1242,-63.8208,-32.3597,21702.9,4004.24,15993.5,27.7247,283.788,-141.684,-99.7316,10790.3,1309.38,-13.5221,-73.4763,-52.4952,-5261.49,-22439.7,-1940.28,-65.7254,10.712,-355.24,1407.31,10215.7,-998.27,1.01331,-59.6929,-50.0847,5724.87,6339.92,1533.56,-103.561,81.4229,-50.8142,8499.48,1787.51,663.507,-53.4697,-18.3566,-11.6562
4.085,3900.37,3908.57,8687.75,-12.0343,-63.9683,-31.7668,21778.4,4065.34,15951.4,27.9463,283.077,-142.655,-103.232,10775.2,1294.36,-13.5355,-72.6523,-52.6674,-5379.49,-22458.9,-1989.25,-65.8338,11.0388,-355.043,1376.51,10228.7,-982.87,0.829126,-59.2331,-49.9727,5579.74,6307.62,1514.69,-103.231,85.2679,-48.804,8491.72,1818.36,670.262,-53.7598,-18.8902,-11.6945
4.0855,3927.81,3924.57,8682.16,-11.9444,-64.1159,-31.1738,21853.9,4126.44,15909.3,28.1679,282.367,-143.626,-106.732,10760.0,1279.33,-13.549,-71.8284,-52.8396,-5497.48,-22478.2,-2038.21,-65.9422,11.3656,-354.845,1345.71,10241.7,-967.47,0.644945,-58.7732,-49.8608,5434.62,6275.32,1495.81,-102.901,89.113,-46.7938,8483.97,1849.2,677.017,-54.0498,-19.4238,-11.7329
4.086,3955.25,3940.57,8676.57,-11.8544,-64.2634,-30.5809,21929.4,4187.53,15867.2,28.3895,281.656,-144.597,-110.232,10744.9,1264.31,-13.5624,-71.0044,-53.0117,-5615.47,-22497.5,-2087.17,-66.0506,11.6925,-354.647,1314.91,10254.8,-952.071,0.460763,-58.3133,-49.7488,5289.49,6243.03,1476.93,-102.571,92.9581,-44.7836,8476.21,1880.05,683.773,-54.3398,-19.9574,-11.7712
4.0865,3982.7,3956.57,8670.97,-11.7645,-64.4109,-29.9879,22004.9,4248.63,15825.1,28.6111,280.945,-145.568,-113.733,10729.7,1249.28,-13.5759,-70.1804,-53.1839,-5733.47,-22516.7,-2136.14,-66.159,12.0193,-354.45,1284.11,10267.8,-936.671,0.276582,-57.8535,-49.6368,5144.36,6210.73,1458.06,-102.241,96.8032,-42.7735,8468.46,1910.9,690.528,-54.6298,-20.491,-11.8096
4.087,4010.14,3972.57,8665.38,-11.6746,-64.5585,-29.395,22080.4,4309.73,15783.1,28.8327,280.234,-146.539,-117.233,10714.6,1234.26,-13.5893,-69.3564,-53.3561,-5851.46,-22536.0,-2185.1,-66.2673,12.3461,-354.252,1253.31,10280.8,-921.272,0.0924002,-57.3936,-49.5249,4999.23,6178.43,1439.18,-101.91,100.648,-40.7633,8460.7,1941.74,697.283,-54.9199,-21.0246,-11.8479
4.0875,4037.58,3988.57,8659.79,-11.5846,-64.706,-28.802,22155.9,4370.82,15741.0,29.0543,279.524,-147.51,-120.733,10699.4,1219.23,-13.6028,-68.5325,-53.5283,-5969.45,-22555.3,-2234.06,-66.3757,12.6729,-354.054,1222.51,10293.9,-905.872,-0.0917813,-56.9337,-49.4129,4854.1,6146.13,1420.3,-101.58,104.493,-38.7531,8452.94,1972.59,704.039,-55.2099,-21.5582,-11.8863
4.088,4065.03,4004.57,8654.2,-11.4947,-64.8536,-28.2091,22231.4,4431.92,15698.9,29.2759,278.813,-148.481,-124.234,10684.2,1204.2,-13.6162,-67.7085,-53.7005,-6087.45,-22574.6,-2283.03,-66.4841,12.9998,-353.856,1191.71,10306.9,-890.472,-0.275963,-56.4739,-49.3009,4708.97,6113.83,1401.42,-101.25,108.338,-36.7429,8445.19,2003.44,710.794,-55.4999,-22.0919,-11.9246
4.0885,4092.47,4020.57,8648.61,-11.4048,-65.0011,-27.6161,22306.8,4493.01,15656.8,29.4975,278.102,-149.452,-127.734,10669.1,1189.18,-13.6297,-66.8845,-53.8726,-6205.44,-22593.8,-2331.99,-66.5925,13.3266,-353.659,1160.91,10320.0,-875.073,-0.460144,-56.014,-49.189,4563.84,6081.53,1382.55,-100.92,112.183,-34.7327,8437.43,2034.28,717.549,-55.79,-22.6255,-11.963
4.089,4116.48,4033.92,8644.73,-11.2853,-65.131,-27.015,22372.8,4561.85,15602.9,29.6484,277.332,-150.457,-134.683,10659.7,1176.36,-13.6392,-66.0844,-54.0577,-6325.51,-22614.2,-2387.73,-66.7798,13.6985,-353.419,1137.03,10331.0,-863.246,-0.65565,-55.5559,-49.0895,4413.02,6036.15,1388.13,-100.319,115.452,-32.9105,8425.87,2063.13,722.561,-56.1332,-23.1361,-11.956
4.0895,4128.49,4037.96,8646.84,-11.0625,-65.199,-26.3853,22405.3,4657.76,15507.4,29.5523,276.355,-151.583,-153.701,10670.3,1171.24,-13.6349,-65.3681,-54.2877,-6452.86,-22638.5,-2467.2,-67.2432,14.2282,-353.036,1137.38,10335.3,-863.925,-0.890792,-55.1039,-49.034,4242.26,5944.97,1479.32,-98.7678,116.703,-31.7463,8400.98,2085.0,721.472,-56.6628,-23.5664,-11.7906
4.09,4140.49,4042.0,8648.95,-10.8396,-65.267,-25.7556,22437.8,4753.66,15412.0,29.4562,275.378,-152.708,-172.719,10681.0,1166.13,-13.6306,-64.6517,-54.5177,-6580.21,-22662.8,-2546.67,-67.7065,14.758,-352.652,1137.73,10339.5,-864.604,-1.12593,-54.652,-48.9784,4071.5,5853.79,1570.51,-97.2169,117.953,-30.5822,8376.1,2106.87,720.383,-57.1923,-23.9968,-11.6251
4.0905,4152.5,4046.04,8651.06,-10.6168,-65.335,-25.1259,22470.3,4849.57,15316.5,29.3601,274.401,-153.833,-191.737,10691.7,1161.02,-13.6264,-63.9354,-54.7477,-6707.56,-22687.1,-2626.13,-68.1699,15.2877,-352.268,1138.08,10343.8,-865.282,-1.36107,-54.2,-48.9228,3900.74,5762.61,1661.7,-95.6659,119.204,-29.4181,8351.22,2128.74,719.293,-57.7219,-24.4271,-11.4597
4.091,4164.5,4050.08,8653.17,-10.3939,-65.403,-24.4962,22502.8,4945.48,15221.1,29.264,273.424,-154.958,-210.755,10702.4,1155.91,-13.6221,-63.219,-54.9777,-6834.91,-22711.3,-2705.6,-68.6333,15.8175,-351.884,1138.43,10348.0,-865.961,-1.59622,-53.748,-48.8672,3729.98,5671.43,1752.89,-94.115,120.455,-28.2539,8326.33,2150.61,718.204,-58.2514,-24.8574,-11.2942
4.0915,4176.51,4054.12,8655.28,-10.1711,-65.471,-23.8665,22535.3,5041.39,15125.7,29.1679,272.447,-156.083,-229.774,10713.0,1150.8,-13.6178,-62.5027,-55.2077,-6962.26,-22735.6,-2785.06,-69.0967,16.3472,-351.5,1138.78,10352.2,-866.64,-1.83136,-53.2961,-48.8116,3559.22,5580.25,1844.08,-92.5641,121.705,-27.0898,8301.45,2172.47,717.115,-58.781,-25.2877,-11.1287
4.092,4188.51,4058.16,8657.39,-9.94826,-65.539,-23.2369,22567.8,5137.3,15030.2,29.0718,271.47,-157.208,-248.792,10723.7,1145.68,-13.6135,-61.7863,-55.4377,-7089.61,-22759.9,-2864.53,-69.5601,16.877,-351.116,1139.13,10356.5,-867.318,-2.0665,-52.8441,-48.756,3388.46,5489.07,1935.27,-91.0131,122.956,-25.9257,8276.57,2194.34,716.026,-59.3105,-25.718,-10.9633
4.0925,4200.52,4062.2,8659.49,-9.72542,-65.607,-22.6072,22600.3,5233.21,14934.8,28.9756,270.493,-158.333,-267.81,10734.4,1140.57,-13.6093,-61.0699,-55.6677,-7216.96,-22784.2,-2944.0,-70.0235,17.4067,-350.732,1139.49,10360.7,-867.997,-2.30164,-52.3921,-48.7004,3217.7,5397.89,2026.46,-89.4622,124.207,-24.7615,8251.68,2216.21,714.936,-59.8401,-26.1483,-10.7978
4.093,4212.52,4066.24,8661.6,-9.50258,-65.675,-21.9775,22632.8,5329.12,14839.3,28.8795,269.516,-159.458,-286.828,10745.1,1135.46,-13.605,-60.3536,-55.8977,-7344.31,-22808.5,-3023.46,-70.4868,17.9364,-350.349,1139.84,10365.0,-868.676,-2.53678,-51.9402,-48.6448,3046.94,5306.71,2117.65,-87.9113,125.457,-23.5974,8226.8,2238.08,713.847,-60.3696,-26.5786,-10.6324
4.0935,4220.23,4059.57,8666.2,-9.30678,-65.7583,-21.4159,22658.2,5428.15,14738.3,28.7695,268.455,-160.685,-307.322,10754.6,1136.74,-13.595,-59.718,-56.1392,-7465.12,-22833.5,-3102.08,-70.9832,18.6067,-349.915,1138.92,10370.6,-872.689,-2.74883,-51.5161,-48.5824,2871.53,5230.46,2222.38,-86.1072,126.02,-22.6541,8199.6,2252.28,715.61,-60.8042,-26.9914,-10.4938
4.094,4219.35,4031.47,8675.77,-9.16504,-65.8724,-20.9905,22669.4,5533.44,14626.0,28.6315,267.226,-162.113,-330.766,10761.8,1150.82,-13.5736,-59.244,-56.4035,-7572.86,-22859.9,-3179.0,-71.5456,19.5581,-349.381,1135.48,10379.1,-883.373,-2.91468,-51.1479,-48.506,2686.81,5184.05,2354.18,-83.7968,125.206,-22.1526,8167.79,2251.14,723.077,-61.0488,-27.3691,-10.4091
4.0945,4218.48,4003.37,8685.35,-9.02331,-65.9865,-20.5651,22680.6,5638.73,14513.8,28.4935,265.998,-163.542,-354.21,10769.0,1164.9,-13.5522,-58.7701,-56.6678,-7680.6,-22886.3,-3255.92,-72.108,20.5096,-348.847,1132.04,10387.6,-894.057,-3.08053,-50.7797,-48.4297,2502.09,5137.64,2485.99,-81.4865,124.393,-21.6511,8135.97,2250.01,730.544,-61.2935,-27.7468,-10.3244
4.095,4217.6,3975.27,8694.92,-8.88158,-66.1005,-20.1397,22691.7,5744.01,14401.6,28.3556,264.769,-164.971,-377.655,10776.2,1178.98,-13.5308,-58.2961,-56.9321,-7788.34,-22912.8,-3332.84,-72.6704,21.461,-348.314,1128.59,10396.1,-904.741,-3.24638,-50.4115,-48.3534,2317.37,5091.23,2617.79,-79.1761,123.579,-21.1496,8104.16,2248.87,738.012,-61.5381,-28.1244,-10.2397
4.0955,4216.72,3947.16,8704.49,-8.73985,-66.2146,-19.7143,22702.9,5849.3,14289.3,28.2176,263.54,-166.4,-401.099,10783.4,1193.06,-13.5093,-57.8221,-57.1964,-7896.08,-22939.2,-3409.76,-73.2328,22.4124,-347.78,1125.15,10404.6,-915.425,-3.41223,-50.0433,-48.2771,2132.65,5044.82,2749.6,-76.8658,122.766,-20.6482,8072.34,2247.74,745.479,-61.7827,-28.5021,-10.155
4.096,4215.84,3919.06,8714.07,-8.59812,-66.3286,-19.2889,22714.1,5954.59,14177.1,28.0796,262.311,-167.828,-424.543,10790.6,1207.14,-13.4879,-57.3481,-57.4606,-8003.83,-22965.6,-3486.68,-73.7953,23.3638,-347.246,1121.71,10413.1,-926.109,-3.57808,-49.6751,-48.2008,1947.94,4998.41,2881.4,-74.5554,121.952,-20.1467,8040.53,2246.6,752.946,-62.0274,-28.8798,-10.0702
4.0965,4214.96,3890.96,8723.64,-8.45638,-66.4427,-18.8635,22725.3,6059.88,14064.8,27.9417,261.082,-169.257,-447.988,10797.8,1221.22,-13.4665,-56.8741,-57.7249,-8111.57,-22992.0,-3563.6,-74.3577,24.3152,-346.713,1118.26,10421.6,-936.793,-3.74393,-49.3069,-48.1245,1763.22,4952.0,3013.21,-72.2451,121.138,-19.6452,8008.71,2245.46,760.414,-62.272,-29.2575,-9.98552
4.097,4214.08,3862.86,8733.21,-8.31465,-66.5567,-18.4381,22736.5,6165.16,13952.6,27.8037,259.853,-170.686,-471.432,10805.0,1235.3,-13.4451,-56.4002,-57.9892,-8219.31,-23018.5,-3640.52,-74.9201,25.2666,-346.179,1114.82,10430.1,-947.477,-3.90978,-48.9386,-48.0482,1578.5,4905.59,3145.01,-69.9347,120.325,-19.1437,7976.9,2244.33,767.881,-62.5166,-29.6351,-9.90081
4.0975,4213.2,3834.76,8742.78,-8.17292,-66.6708,-18.0127,22747.7,6270.45,13840.3,27.6657,258.625,-172.115,-494.876,10812.2,1249.38,-13.4237,-55.9262,-58.2535,-8327.05,-23044.9,-3717.44,-75.4825,26.218,-345.645,1111.38,10438.6,-958.161,-4.07563,-48.5704,-47.9719,1393.78,4859.18,3276.82,-67.6244,119.511,-18.6422,7945.08,2243.19,775.348,-62.7613,-30.0128,-9.81609
4.098,4207.04,3818.81,8753.03,-8.02804,-66.8155,-17.5163,22762.7,6290.8,13762.2,28.3783,257.134,-173.865,-512.73,10818.0,1259.75,-13.461,-55.5497,-58.5148,-8433.21,-23062.6,-3848.55,-76.2356,27.6643,-345.043,1111.0,10448.4,-961.518,-4.21382,-48.226,-47.9245,1197.34,4851.79,3360.49,-65.0533,118.604,-18.0105,7919.09,2244.26,786.701,-62.8988,-30.398,-9.75474
4.0985,4194.29,3818.04,8764.1,-7.87922,-66.9986,-16.931,22782.7,6204.99,13726.6,30.1542,255.317,-176.016,-523.596,10822.1,1265.49,-13.5716,-55.2952,-58.7725,-8537.41,-23069.4,-4047.4,-77.2271,29.7292,-344.355,1114.44,10459.9,-955.716,-4.31744,-47.9114,-47.9132,986.243,4893.19,3384.0,-62.1563,117.579,-17.2162,7900.37,2248.07,802.911,-62.9025,-30.7925,-9.72259
4.099,4181.53,3817.27,8775.18,-7.7304,-67.1816,-16.3458,22802.7,6119.17,13691.0,31.93,253.5,-178.167,-534.462,10826.2,1271.23,-13.6823,-55.0406,-59.0301,-8641.62,-23076.1,-4246.25,-78.2185,31.7941,-343.666,1117.89,10471.5,-949.915,-4.42105,-47.5968,-47.9019,775.145,4934.58,3407.51,-59.2593,116.554,-16.4219,7881.65,2251.88,819.122,-62.9061,-31.187,-9.69044
4.0995,4168.77,3816.5,8786.26,-7.58159,-67.3647,-15.7605,22822.6,6033.36,13655.4,33.7059,251.682,-180.318,-545.327,10830.3,1276.96,-13.793,-54.786,-59.2877,-8745.82,-23082.9,-4445.1,-79.21,33.859,-342.978,1121.33,10483.0,-944.113,-4.52467,-47.2821,-47.8906,564.048,4975.97,3431.02,-56.3623,115.528,-15.6275,7862.94,2255.7,835.332,-62.9098,-31.5815,-9.65829
4.1,4156.02,3815.74,8797.34,-7.43277,-67.5477,-15.1753,22842.6,5947.54,13619.8,35.4817,249.865,-182.469,-556.193,10834.4,1282.7,-13.9037,-54.5314,-59.5453,-8850.02,-23089.7,-4643.95,-80.2015,35.9239,-342.29,1124.78,10494.6,-938.311,-4.62828,-46.9675,-47.8793,352.951,5017.36,3454.53,-53.4653,114.503,-14.8332,7844.22,2259.51,851.543,-62.9134,-31.976,-9.62614
4.1005,4143.26,3814.97,8808.42,-7.28395,-67.7308,-14.59,22862.6,5861.72,13584.3,37.2576,248.048,-184.621,-567.059,10838.5,1288.44,-14.0144,-54.2769,-59.8029,-8954.22,-23096.5,-4842.8,-81.1929,37.9888,-341.602,1128.22,10506.1,-932.51,-4.7319,-46.6529,-47.868,141.854,5058.75,3478.04,-50.5683,113.478,-14.0389,7825.5,2263.32,867.753,-62.9171,-32.3706,-9.594
4.101,4130.5,3814.2,8819.5,-7.13513,-67.9139,-14.0048,22882.6,5775.91,13548.7,39.0334,246.23,-186.772,-577.925,10842.6,1294.17,-14.125,-54.0223,-60.0605,-9058.42,-23103.2,-5041.65,-82.1844,40.0538,-340.913,1131.67,10517.6,-926.708,-4.83551,-46.3382,-47.8567,-69.2436,5100.14,3501.54,-47.6713,112.453,-13.2446,7806.78,2267.14,883.963,-62.9207,-32.7651,-9.56185
4.1015,4117.75,3813.43,8830.58,-6.98631,-68.0969,-13.4195,22902.5,5690.09,13513.1,40.8093,244.413,-188.923,-588.79,10846.7,1299.91,-14.2357,-53.7677,-60.3181,-9162.62,-23110.0,-5240.5,-83.1759,42.1187,-340.225,1135.11,10529.2,-920.906,-4.93913,-46.0236,-47.8454,-280.341,5141.53,3525.05,-44.7744,111.428,-12.4502,7788.06,2270.95,900.174,-62.9243,-33.1596,-9.5297
4.102,4104.99,3812.67,8841.66,-6.8375,-68.28,-12.8343,22922.5,5604.28,13477.5,42.5851,242.596,-191.074,-599.656,10850.8,1305.65,-14.3464,-53.5132,-60.5757,-9266.82,-23116.8,-5439.34,-84.1674,44.1836,-339.537,1138.56,10540.7,-915.104,-5.04274,-45.709,-47.8341,-491.438,5182.92,3548.56,-41.8774,110.403,-11.6559,7769.34,2274.76,916.384,-62.928,-33.5541,-9.49755
4.1025,4100.24,3803.0,8844.73,-6.72444,-68.4835,-12.3114,22923.3,5203.93,13504.9,44.8413,240.784,-193.825,-612.322,10865.3,1309.75,-14.5273,-53.3051,-60.8551,-9392.39,-23113.6,-5600.96,-85.2072,46.3641,-338.724,1157.36,10552.1,-918.404,-5.1609,-45.4,-47.78,-682.183,5248.28,3481.73,-38.8264,109.507,-10.7442,7760.44,2279.97,924.574,-62.8594,-33.9523,-9.3969
4.103,4101.9,3786.22,8841.41,-6.63998,-68.7033,-11.8384,22908.9,4551.96,13582.5,47.4817,238.977,-197.057,-626.428,10888.1,1312.54,-14.7643,-53.1342,-61.1519,-9535.07,-23102.3,-5732.8,-86.2858,48.637,-337.81,1188.44,10563.4,-928.985,-5.2907,-45.0955,-47.6918,-856.645,5332.82,3342.62,-35.6523,108.714,-9.73845,7759.37,2286.28,926.349,-62.7331,-34.3535,-9.24144
4.1035,4103.55,3769.43,8838.09,-6.55553,-68.9231,-11.3654,22894.5,3899.99,13660.2,50.1222,237.171,-200.288,-640.533,10910.9,1315.33,-15.0014,-52.9633,-61.4487,-9677.74,-23091.1,-5864.64,-87.3643,50.91,-336.897,1219.53,10574.6,-939.566,-5.4205,-44.791,-47.6035,-1031.11,5417.35,3203.51,-32.4782,107.921,-8.73275,7758.31,2292.6,928.123,-62.6068,-34.7547,-9.08598
4.104,4105.21,3752.65,8834.77,-6.47107,-69.143,-10.8925,22880.1,3248.02,13737.8,52.7626,235.364,-203.519,-654.639,10933.8,1318.12,-15.2384,-52.7925,-61.7455,-9820.42,-23079.9,-5996.47,-88.4429,53.1829,-335.984,1250.61,10585.9,-950.147,-5.5503,-44.4865,-47.5152,-1205.57,5501.89,3064.4,-29.3041,107.128,-7.72705,7757.25,2298.92,929.897,-62.4805,-35.1558,-8.93052
4.1045,4106.86,3735.86,8831.44,-6.38662,-69.3628,-10.4195,22865.6,2596.05,13815.4,55.403,233.557,-206.751,-668.744,10956.6,1320.92,-15.4755,-52.6216,-62.0423,-9963.09,-23068.6,-6128.31,-89.5214,55.4558,-335.071,1281.7,10597.2,-960.728,-5.6801,-44.182,-47.427,-1380.03,5586.42,2925.29,-26.13,106.335,-6.72134,7756.19,2305.24,931.671,-62.3542,-35.557,-8.77506
4.105,4108.52,3719.08,8828.12,-6.30216,-69.5826,-9.94653,22851.2,1944.08,13893.1,58.0435,231.75,-209.982,-682.85,10979.4,1323.71,-15.7126,-52.4507,-62.3392,-10105.8,-23057.4,-6260.15,-90.6,57.7288,-334.158,1312.78,10608.5,-971.309,-5.8099,-43.8775,-47.3387,-1554.5,5670.96,2786.18,-22.9558,105.543,-5.71564,7755.13,2311.56,933.445,-62.2279,-35.9582,-8.6196
4.1055,4110.17,3702.29,8824.8,-6.21771,-69.8024,-9.47356,22836.8,1292.11,13970.7,60.6839,229.943,-213.214,-696.956,11002.2,1326.5,-15.9496,-52.2799,-62.636,-10248.4,-23046.2,-6391.98,-91.6786,60.0017,-333.245,1343.87,10619.7,-981.89,-5.9397,-43.573,-47.2505,-1728.96,5755.5,2647.07,-19.7817,104.75,-4.70993,7754.07,2317.88,935.219,-62.1016,-36.3593,-8.46414
4.106,4111.83,3685.51,8821.47,-6.13325,-70.0223,-9.00058,22822.4,640.135,14048.4,63.3243,228.137,-216.445,-711.061,11025.1,1329.29,-16.1867,-52.109,-62.9328,-10391.1,-23034.9,-6523.82,-92.7571,62.2746,-332.332,1374.95,10631.0,-992.471,-6.06949,-43.2685,-47.1622,-1903.42,5840.03,2507.96,-16.6076,103.957,-3.70423,7753.01,2324.2,936.994,-61.9753,-36.7605,-8.30868
4.1065,4113.49,3668.73,8818.15,-6.0488,-70.2421,-8.52761,22807.9,-11.8353,14126.0,65.9647,226.33,-219.676,-725.167,11047.9,1332.08,-16.4237,-51.9381,-63.2296,-10533.8,-23023.7,-6655.66,-93.8357,64.5476,-331.419,1406.04,10642.3,-1003.05,-6.19929,-42.964,-47.074,-2077.88,5924.57,2368.85,-13.4335,103.164,-2.69852,7751.95,2330.51,938.768,-61.8489,-37.1617,-8.15322
4.107,4110.35,3654.22,8829.64,-5.96177,-70.4176,-8.07928,22876.1,-615.86,14033.2,67.8945,224.98,-222.299,-733.229,11064.0,1323.65,-16.6214,-51.7612,-63.4412,-10668.2,-23031.9,-6502.23,-93.8924,65.8179,-330.386,1423.47,10647.4,-1006.21,-6.30484,-42.7676,-46.9999,-2200.61,6012.37,2210.27,-10.6328,102.428,-2.01276,7732.83,2335.64,931.0,-61.4984,-37.538,-8.07562
4.1075,4104.82,3640.84,8848.53,-5.87345,-70.5709,-7.64328,22985.5,-1195.91,13855.2,69.4689,223.86,-224.617,-738.27,11076.7,1309.61,-16.7993,-51.5813,-63.6103,-10798.4,-23049.9,-6206.18,-93.4382,66.5869,-329.292,1434.07,10649.5,-1005.65,-6.39827,-42.6252,-46.933,-2297.48,6101.8,2041.96,-8.01886,101.719,-1.48698,7704.7,2340.17,918.462,-61.0357,-37.9018,-8.03694
4.108,4099.28,3627.47,8867.43,-5.78513,-70.7242,-7.20728,23094.9,-1775.96,13677.1,71.0433,222.739,-226.936,-743.311,11089.4,1295.56,-16.9773,-51.4013,-63.7793,-10928.7,-23067.8,-5910.13,-92.984,67.356,-328.199,1444.67,10651.5,-1005.09,-6.49169,-42.4829,-46.866,-2394.34,6191.23,1873.65,-5.4049,101.01,-0.961192,7676.56,2344.7,905.923,-60.573,-38.2657,-7.99826
4.1085,4093.75,3614.1,8886.32,-5.69681,-70.8775,-6.77127,23204.4,-2356.01,13499.1,72.6177,221.619,-229.254,-748.352,11102.2,1281.52,-17.1552,-51.2214,-63.9483,-11058.9,-23085.8,-5614.07,-92.5298,68.125,-327.106,1455.28,10653.6,-1004.53,-6.58512,-42.3405,-46.7991,-2491.21,6280.66,1705.34,-2.79094,100.301,-0.435407,7648.42,2349.24,893.385,-60.1104,-38.6296,-7.95958
4.109,4088.22,3600.73,8905.21,-5.60849,-71.0309,-6.33527,23313.8,-2936.06,13321.1,74.1921,220.498,-231.573,-753.392,11114.9,1267.47,-17.3332,-51.0414,-64.1174,-11189.2,-23103.7,-5318.02,-92.0756,68.894,-326.012,1465.88,10655.7,-1003.97,-6.67854,-42.1982,-46.7321,-2588.07,6370.1,1537.03,-0.176985,99.5919,0.0903788,7620.28,2353.77,880.846,-59.6477,-38.9934,-7.9209
4.1095,4082.69,3587.35,8924.11,-5.52017,-71.1842,-5.89926,23423.2,-3516.12,13143.0,75.7665,219.378,-233.891,-758.433,11127.6,1253.43,-17.5111,-50.8615,-64.2864,-11319.5,-23121.7,-5021.97,-91.6214,69.6631,-324.919,1476.48,10657.7,-1003.41,-6.77196,-42.0558,-46.6652,-2684.94,6459.53,1368.72,2.43697,98.883,0.616164,7592.14,2358.3,868.308,-59.185,-39.3573,-7.88222
4.11,4077.15,3573.98,8943.0,-5.43185,-71.3375,-5.46326,23532.7,-4096.17,12965.0,77.3409,218.257,-236.21,-763.474,11140.3,1239.38,-17.6891,-50.6816,-64.4555,-11449.7,-23139.6,-4725.92,-91.1672,70.4321,-323.826,1487.08,10659.8,-1002.86,-6.86539,-41.9134,-46.5983,-2781.8,6548.96,1200.42,5.05093,98.1741,1.14195,7564.0,2362.83,855.769,-58.7224,-39.7211,-7.84354
4.1105,4071.62,3560.61,8961.9,-5.34353,-71.4908,-5.02726,23642.1,-4676.22,12787.0,78.9153,217.136,-238.528,-768.515,11153.0,1225.34,-17.867,-50.5016,-64.6245,-11580.0,-23157.6,-4429.86,-90.713,71.2011,-322.732,1497.68,10661.9,-1002.3,-6.95881,-41.7711,-46.5313,-2878.67,6638.39,1032.11,7.66489,97.4652,1.66774,7535.87,2367.36,843.231,-58.2597,-40.085,-7.80486
4.111,4066.09,3547.24,8980.79,-5.25521,-71.6441,-4.59125,23751.5,-5256.27,12608.9,80.4897,216.016,-240.846,-773.556,11165.8,1211.29,-18.045,-50.3217,-64.7936,-11710.2,-23175.5,-4133.81,-90.2588,71.9702,-321.639,1508.28,10663.9,-1001.74,-7.05224,-41.6287,-46.4644,-2975.53,6727.82,863.797,10.2789,96.7563,2.19352,7507.73,2371.89,830.692,-57.797,-40.4489,-7.76618
4.1115,4072.84,3542.49,8981.26,-5.07279,-71.8539,-4.06938,23933.6,-5348.02,12398.1,82.4404,214.941,-241.196,-764.245,11171.3,1192.28,-18.1471,-50.017,-64.9789,-11829.3,-23218.6,-3769.73,-89.3356,71.9156,-320.312,1522.67,10656.2,-1016.63,-7.0558,-41.5816,-46.4261,-3094.68,6763.65,778.355,11.9235,96.4045,2.23834,7469.82,2373.2,832.515,-57.2957,-40.8926,-7.79208
4.112,4083.09,3540.2,8976.46,-4.86349,-72.0797,-3.52297,24136.4,-5300.26,12177.9,84.4987,213.878,-240.983,-750.835,11174.9,1171.86,-18.2276,-49.6766,-65.1688,-11945.1,-23268.8,-3386.22,-88.2784,71.6258,-318.919,1538.14,10645.7,-1035.92,-7.0337,-41.5618,-46.3961,-3220.21,6784.16,716.59,13.2912,96.1547,2.14574,7429.12,2373.58,838.442,-56.7833,-41.3591,-7.83642
4.1125,4093.35,3537.92,8971.66,-4.65419,-72.3055,-2.97656,24339.2,-5252.5,11957.6,86.5569,212.816,-240.771,-737.424,11178.4,1151.43,-18.308,-49.3362,-65.3587,-12060.9,-23319.1,-3002.7,-87.2213,71.336,-317.525,1553.61,10635.3,-1055.22,-7.01159,-41.542,-46.3661,-3345.73,6804.67,654.825,14.6588,95.9048,2.05315,7388.42,2373.97,844.368,-56.2709,-41.8257,-7.88077
4.113,4103.61,3535.63,8966.86,-4.44489,-72.5314,-2.43015,24542.0,-5204.74,11737.4,88.6152,211.754,-240.558,-724.013,11182.0,1131.0,-18.3885,-48.9958,-65.5486,-12176.7,-23369.3,-2619.19,-86.1641,71.0462,-316.131,1569.08,10624.8,-1074.52,-6.98949,-41.5222,-46.3361,-3471.25,6825.18,593.06,16.0265,95.655,1.96055,7347.72,2374.35,850.295,-55.7585,-42.2922,-7.92512
4.1135,4113.87,3533.35,8962.07,-4.23559,-72.7572,-1.88375,24744.8,-5156.97,11517.2,90.6735,210.692,-240.345,-710.603,11185.5,1110.58,-18.4689,-48.6555,-65.7386,-12292.5,-23419.6,-2235.67,-85.1069,70.7563,-314.738,1584.55,10614.3,-1093.82,-6.96738,-41.5023,-46.3061,-3596.77,6845.69,531.294,17.3942,95.4052,1.86795,7307.02,2374.74,856.221,-55.2461,-42.7588,-7.96946
4.114,4124.12,3531.06,8957.27,-4.02629,-72.983,-1.33734,24947.6,-5109.21,11296.9,92.7317,209.63,-240.132,-697.192,11189.1,1090.15,-18.5494,-48.3151,-65.9285,-12408.3,-23469.8,-1852.16,-84.0497,70.4665,-313.344,1600.01,10603.8,-1113.12,-6.94528,-41.4825,-46.2761,-3722.29,6866.2,469.529,18.7619,95.1554,1.77536,7266.32,2375.12,862.148,-54.7337,-43.2253,-8.01381
4.1145,4134.38,3528.78,8952.47,-3.81699,-73.2089,-0.790929,25150.4,-5061.45,11076.7,94.79,208.567,-239.92,-683.782,11192.6,1069.72,-18.6298,-47.9747,-66.1184,-12524.1,-23520.1,-1468.64,-82.9926,70.1767,-311.95,1615.48,10593.3,-1132.42,-6.92317,-41.4627,-46.2461,-3847.82,6886.71,407.764,20.1296,94.9055,1.68276,7225.62,2375.5,868.075,-54.2213,-43.6919,-8.05816
4.115,4144.64,3526.5,8947.67,-3.60769,-73.4347,-0.244521,25353.2,-5013.69,10856.5,96.8483,207.505,-239.707,-670.371,11196.2,1049.3,-18.7103,-47.6343,-66.3084,-12639.9,-23570.3,-1085.13,-81.9354,69.8868,-310.557,1630.95,10582.8,-1151.72,-6.90106,-41.4429,-46.2161,-3973.34,6907.22,345.999,21.4973,94.6557,1.59016,7184.92,2375.89,874.001,-53.7089,-44.1584,-8.1025
4.1155,4154.9,3524.21,8942.87,-3.39839,-73.6605,0.301887,25556.0,-4965.93,10636.3,98.9065,206.443,-239.494,-656.961,11199.7,1028.87,-18.7907,-47.294,-66.4983,-12755.7,-23620.6,-701.61,-80.8782,69.597,-309.163,1646.42,10572.3,-1171.02,-6.87896,-41.4231,-46.1861,-4098.86,6927.73,284.234,22.8649,94.4059,1.49757,7144.21,2376.27,879.928,-53.1965,-44.625,-8.14685
4.116,4160.26,3510.32,8939.32,-3.32085,-73.8942,0.754206,25777.8,-4622.55,10496.0,101.168,205.302,-238.723,-643.059,11197.4,983.042,-18.7487,-46.8031,-66.7225,-12858.3,-23641.3,-595.02,-80.6744,69.5708,-307.462,1673.66,10568.0,-1183.06,-6.94311,-41.4444,-46.1572,-4280.35,6907.45,345.785,23.376,94.6845,0.986219,7112.11,2371.0,892.436,-52.9191,-45.158,-8.01446
4.1165,4165.01,3494.99,8935.93,-3.25978,-74.1288,1.19476,26002.1,-4242.22,10365.7,103.455,204.152,-237.882,-629.095,11194.4,934.041,-18.6914,-46.2935,-66.9509,-12959.2,-23658.2,-523.046,-80.5773,69.5775,-305.723,1702.37,10564.4,-1194.19,-7.01805,-41.4709,-46.1285,-4468.84,6882.08,422.751,23.78,95.0292,0.42253,7081.07,2365.02,905.767,-52.6712,-45.6994,-7.85999
4.117,4169.75,3479.65,8932.53,-3.19871,-74.3634,1.63532,26226.3,-3861.89,10235.4,105.741,203.002,-237.041,-615.132,11191.3,885.039,-18.6341,-45.7839,-67.1794,-13060.1,-23675.2,-451.071,-80.4802,69.5842,-303.983,1731.08,10560.9,-1205.32,-7.09299,-41.4974,-46.0998,-4657.32,6856.71,499.717,24.1839,95.3739,-0.141159,7050.04,2359.04,919.098,-52.4233,-46.2408,-7.70551
4.1175,4174.5,3464.31,8929.14,-3.13764,-74.598,2.07588,26450.6,-3481.56,10105.1,108.028,201.852,-236.2,-601.169,11188.2,836.038,-18.5768,-45.2742,-67.4078,-13161.0,-23692.1,-379.097,-80.3832,69.5909,-302.244,1759.79,10557.3,-1216.45,-7.16793,-41.5238,-46.0711,-4845.81,6831.33,576.683,24.5879,95.7186,-0.704849,7019.0,2353.06,932.429,-52.1753,-46.7821,-7.55103
4.118,4179.25,3448.98,8925.75,-3.07657,-74.8327,2.51644,26674.8,-3101.24,9974.84,110.315,200.701,-235.359,-587.206,11185.2,787.036,-18.5195,-44.7646,-67.6363,-13261.9,-23709.1,-307.123,-80.2861,69.5977,-300.504,1788.5,10553.8,-1227.59,-7.24287,-41.5503,-46.0424,-5034.29,6805.96,653.649,24.9919,96.0633,-1.26854,6987.97,2347.08,945.761,-51.9274,-47.3235,-7.39655
4.1185,4184.0,3433.64,8922.35,-3.0155,-75.0673,2.95699,26899.1,-2720.91,9844.55,112.601,199.551,-234.518,-573.242,11182.1,738.035,-18.4623,-44.255,-67.8647,-13362.8,-23726.1,-235.148,-80.189,69.6044,-298.765,1817.21,10550.2,-1238.72,-7.31781,-41.5768,-46.0138,-5222.78,6780.59,730.615,25.3959,96.408,-1.83223,6956.93,2341.09,959.092,-51.6794,-47.8649,-7.24207
4.119,4188.75,3418.3,8918.96,-2.95443,-75.3019,3.39755,27123.4,-2340.58,9714.27,114.888,198.401,-233.678,-559.279,11179.1,689.034,-18.405,-43.7453,-68.0932,-13463.7,-23743.0,-163.174,-80.0919,69.6111,-297.026,1845.92,10546.7,-1249.85,-7.39274,-41.6033,-45.9851,-5411.26,6755.21,807.58,25.7998,96.7527,-2.39592,6925.9,2335.11,972.423,-51.4315,-48.4062,-7.08759
4.1195,4193.5,3402.97,8915.56,-2.89336,-75.5365,3.83811,27347.6,-1960.25,9583.99,117.175,197.25,-232.837,-545.316,11176.0,640.032,-18.3477,-43.2357,-68.3216,-13564.5,-23760.0,-91.1993,-79.9948,69.6178,-295.286,1874.63,10543.2,-1260.98,-7.46768,-41.6298,-45.9564,-5599.75,6729.84,884.546,26.2038,97.0974,-2.95961,6894.86,2329.13,985.754,-51.1835,-48.9476,-6.93312
4.12,4198.25,3387.63,8912.17,-2.83229,-75.7711,4.27867,27571.9,-1579.92,9453.7,119.461,196.1,-231.996,-531.353,11173.0,591.031,-18.2904,-42.7261,-68.5501,-13665.4,-23777.0,-19.2249,-79.8977,69.6245,-293.547,1903.34,10539.6,-1272.11,-7.54262,-41.6563,-45.9277,-5788.23,6704.47,961.512,26.6078,97.442,-3.5233,6863.83,2323.15,999.085,-50.9356,-49.4889,-6.77864
4.1205,4210.97,3372.7,8916.87,-2.7539,-75.9838,4.55305,27758.6,-1306.81,9352.04,119.847,195.117,-231.822,-541.728,11170.3,562.789,-18.3485,-42.3484,-68.7795,-13681.5,-23756.5,-92.263,-80.0369,70.7071,-291.839,1936.79,10508.6,-1274.3,-7.61101,-41.7194,-45.979,-5899.79,6654.83,1077.31,26.8811,97.5833,-4.35278,6840.62,2307.8,982.002,-50.766,-49.8238,-6.54019
4.121,4223.7,3357.77,8921.57,-2.67551,-76.1964,4.82743,27945.3,-1033.69,9250.38,120.232,194.133,-231.648,-552.103,11167.6,534.547,-18.4067,-41.9707,-69.0089,-13697.6,-23736.1,-165.301,-80.176,71.7896,-290.132,1970.24,10477.5,-1276.48,-7.67941,-41.7825,-46.0304,-6011.35,6605.18,1193.11,27.1544,97.7245,-5.18227,6817.42,2292.45,964.918,-50.5965,-50.1586,-6.30173
4.1215,4236.43,3342.84,8926.27,-2.59712,-76.409,5.10181,28132.1,-760.579,9148.72,120.618,193.15,-231.473,-562.479,11165.0,506.304,-18.4648,-41.593,-69.2383,-13713.7,-23715.6,-238.339,-80.3152,72.8722,-288.424,2003.69,10446.5,-1278.66,-7.7478,-41.8456,-46.0817,-6122.91,6555.54,1308.91,27.4278,97.8657,-6.01176,6794.22,2277.1,947.834,-50.4269,-50.4935,-6.06328
4.122,4249.15,3327.91,8930.97,-2.51873,-76.6216,5.37619,28318.8,-487.465,9047.06,121.003,192.167,-231.299,-572.854,11162.3,478.062,-18.523,-41.2153,-69.4677,-13729.8,-23695.2,-311.377,-80.4544,73.9547,-286.717,2037.15,10415.4,-1280.84,-7.81619,-41.9088,-46.1331,-6234.47,6505.9,1424.71,27.7011,98.0069,-6.84124,6771.01,2261.76,930.751,-50.2574,-50.8283,-5.82483
4.1225,4261.88,3312.98,8935.67,-2.44033,-76.8342,5.65057,28505.5,-214.351,8945.4,121.389,191.183,-231.125,-583.23,11159.7,449.82,-18.5811,-40.8376,-69.6971,-13745.9,-23674.8,-384.415,-80.5936,75.0373,-285.01,2070.6,10384.3,-1283.02,-7.88459,-41.9719,-46.1844,-6346.03,6456.26,1540.51,27.9744,98.1481,-7.67073,6747.81,2246.41,913.667,-50.0878,-51.1632,-5.58638
4.123,4274.61,3298.05,8940.37,-2.36194,-77.0468,5.92495,28692.3,58.7637,8843.74,121.774,190.2,-230.951,-593.605,11157.0,421.578,-18.6393,-40.4599,-69.9265,-13762.0,-23654.3,-457.454,-80.7327,76.1198,-283.302,2104.05,10353.3,-1285.2,-7.95298,-42.035,-46.2358,-6457.59,6406.61,1656.31,28.2478,98.2893,-8.50022,6724.6,2231.06,896.584,-49.9183,-51.498,-5.34792
4.1235,4287.33,3283.11,8945.06,-2.28355,-77.2594,6.19933,28879.0,331.878,8742.08,122.159,189.217,-230.777,-603.981,11154.3,393.336,-18.6975,-40.0822,-70.1559,-13778.1,-23633.9,-530.492,-80.8719,77.2024,-281.595,2137.5,10322.2,-1287.38,-8.02137,-42.0982,-46.2871,-6569.15,6356.97,1772.11,28.5211,98.4305,-9.32971,6701.4,2215.71,879.5,-49.7487,-51.8328,-5.10947
4.124,4300.06,3268.18,8949.76,-2.20516,-77.472,6.4737,29065.7,604.992,8640.41,122.545,188.233,-230.603,-614.356,11151.7,365.094,-18.7556,-39.7045,-70.3853,-13794.2,-23613.5,-603.53,-81.0111,78.2849,-279.887,2170.95,10291.2,-1289.56,-8.08977,-42.1613,-46.3384,-6680.71,6307.33,1887.91,28.7944,98.5718,-10.1592,6678.2,2200.36,862.417,-49.5792,-52.1677,-4.87102
4.1245,4312.34,3254.22,8955.68,-2.11782,-77.6899,6.74631,29241.3,863.875,8531.34,122.625,187.263,-230.471,-624.593,11149.2,340.547,-18.8304,-39.3586,-70.6199,-13800.7,-23589.5,-662.882,-81.1022,79.4808,-278.186,2204.11,10262.5,-1291.56,-8.15075,-42.2307,-46.397,-6787.37,6267.01,1984.48,29.1585,98.6601,-10.975,6656.12,2184.45,840.561,-49.386,-52.4562,-4.65202
4.125,4321.06,3248.01,8971.29,-1.95885,-77.9495,7.00469,29327.8,1008.9,8362.93,120.265,186.4,-230.676,-633.722,11147.7,345.558,-19.0381,-39.2669,-70.8954,-13731.2,-23537.8,-612.747,-80.809,81.5828,-276.534,2234.99,10253.1,-1292.13,-8.15247,-42.3504,-46.5136,-6854.85,6301.28,1927.16,30.2484,98.3257,-11.6817,6643.07,2164.09,780.532,-49.0039,-52.3743,-4.58868
4.1255,4329.78,3241.79,8986.9,-1.79989,-78.2092,7.26308,29414.2,1153.93,8194.52,117.905,185.537,-230.881,-642.852,11146.3,350.569,-19.2459,-39.1753,-71.1709,-13661.7,-23486.0,-562.613,-80.5159,83.6848,-274.882,2265.86,10243.6,-1292.7,-8.15419,-42.4701,-46.6301,-6922.33,6335.54,1869.84,31.3383,97.9913,-12.3884,6630.02,2143.73,720.502,-48.6218,-52.2924,-4.52533
4.126,4338.5,3235.58,9002.52,-1.64093,-78.4688,7.52147,29500.6,1298.96,8026.11,115.545,184.673,-231.086,-651.981,11144.9,355.579,-19.4536,-39.0836,-71.4464,-13592.2,-23434.2,-512.478,-80.2227,85.7868,-273.231,2296.73,10234.1,-1293.26,-8.15592,-42.5898,-46.7467,-6989.8,6369.81,1812.53,32.4283,97.6569,-13.095,6616.97,2123.38,660.472,-48.2397,-52.2105,-4.46198
4.1265,4347.22,3229.36,9018.13,-1.48197,-78.7285,7.77986,29587.0,1443.99,7857.7,113.185,183.81,-231.291,-661.11,11143.4,360.59,-19.6614,-38.992,-71.722,-13522.7,-23382.4,-462.343,-79.9295,87.8887,-271.579,2327.6,10224.6,-1293.83,-8.15764,-42.7095,-46.8633,-7057.28,6404.08,1755.21,33.5182,97.3225,-13.8017,6603.91,2103.02,600.442,-47.8576,-52.1286,-4.39863
4.127,4355.93,3223.15,9033.74,-1.32301,-78.9881,8.03824,29673.4,1589.02,7689.29,110.825,182.947,-231.496,-670.239,11142.0,365.601,-19.8691,-38.9003,-71.9975,-13453.2,-23330.7,-412.208,-79.6364,89.9907,-269.927,2358.47,10215.1,-1294.4,-8.15936,-42.8292,-46.9798,-7124.76,6438.35,1697.89,34.6081,96.9881,-14.5084,6590.86,2082.66,540.413,-47.4754,-52.0467,-4.33528
4.1275,4364.65,3216.94,9049.35,-1.16404,-79.2478,8.29663,29759.8,1734.05,7520.88,108.465,182.083,-231.701,-679.369,11140.6,370.612,-20.0769,-38.8086,-72.273,-13383.7,-23278.9,-362.074,-79.3432,92.0927,-268.275,2389.34,10205.6,-1294.96,-8.16108,-42.9489,-47.0964,-7192.24,6472.62,1640.58,35.698,96.6537,-15.215,6577.81,2062.3,480.383,-47.0933,-51.9648,-4.27194
4.128,4373.37,3210.72,9064.97,-1.00508,-79.5075,8.55502,29846.2,1879.07,7352.47,106.105,181.22,-231.906,-688.498,11139.1,375.622,-20.2846,-38.717,-72.5485,-13314.2,-23227.1,-311.939,-79.05,94.1947,-266.623,2420.21,10196.1,-1295.53,-8.1628,-43.0686,-47.2129,-7259.72,6506.88,1583.26,36.788,96.3192,-15.9217,6564.76,2041.94,420.353,-46.7112,-51.8829,-4.20859
4.1285,4382.09,3204.51,9080.58,-0.846121,-79.7671,8.8134,29932.7,2024.1,7184.06,103.745,180.357,-232.111,-697.627,11137.7,380.633,-20.4924,-38.6253,-72.824,-13244.7,-23175.4,-261.804,-78.7568,96.2967,-264.972,2451.08,10186.6,-1296.1,-8.16452,-43.1883,-47.3295,-7327.19,6541.15,1525.94,37.8779,95.9848,-16.6283,6551.71,2021.58,360.324,-46.3291,-51.801,-4.14524
4.129,4388.98,3195.02,9092.23,-0.692846,-80.0264,9.08745,29996.0,2174.37,7031.87,101.157,179.365,-232.169,-703.258,11135.6,379.85,-20.6863,-38.5521,-73.0957,-13172.7,-23124.3,-212.57,-78.5214,98.6075,-263.284,2481.03,10172.9,-1297.12,-8.16525,-43.316,-47.4609,-7408.4,6605.21,1372.49,39.6578,95.6151,-17.1936,6544.66,1999.13,291.892,-45.9281,-51.6589,-4.09107
4.1295,4389.5,3174.06,9090.0,-0.559477,-80.2843,9.41632,29978.5,2342.98,6936.45,97.7678,177.921,-231.716,-696.644,11131.1,358.786,-20.8315,-38.5432,-73.3541,-13092.0,-23075.8,-166.486,-78.4879,101.649,-261.472,2507.76,10144.5,-1299.72,-8.1625,-43.4717,-47.6443,-7537.63,6773.55,882.555,43.8529,95.1215,-17.2638,6558.64,1969.39,194.056,-45.4607,-51.306,-4.06901
4.13,4390.02,3153.11,9087.77,-0.426108,-80.5422,9.74519,29961.1,2511.6,6841.03,94.3791,176.478,-231.263,-690.031,11126.7,337.723,-20.9767,-38.5343,-73.6124,-13011.3,-23027.4,-120.402,-78.4545,104.69,-259.661,2534.48,10116.1,-1302.33,-8.15974,-43.6275,-47.8277,-7666.86,6941.89,392.62,48.048,94.6279,-17.3341,6572.62,1939.64,96.2199,-44.9933,-50.9532,-4.04695
4.1305,4390.54,3132.16,9085.55,-0.292739,-80.8002,10.0741,29943.6,2680.21,6745.61,90.9904,175.034,-230.81,-683.417,11122.2,316.659,-21.122,-38.5254,-73.8708,-12930.5,-22978.9,-74.3176,-78.4211,107.731,-257.849,2561.21,10087.7,-1304.94,-8.15699,-43.7833,-48.0111,-7796.09,7110.23,-97.3137,52.243,94.1343,-17.4044,6586.6,1909.89,-1.6164,-44.526,-50.6003,-4.02489
4.131,4391.06,3111.21,9083.32,-0.15937,-81.0581,10.4029,29926.2,2848.82,6650.19,87.6018,173.591,-230.357,-676.803,11117.7,295.595,-21.2672,-38.5165,-74.1291,-12849.8,-22930.4,-28.2335,-78.3876,110.773,-256.037,2587.93,10059.3,-1307.54,-8.15423,-43.939,-48.1945,-7925.32,7278.57,-587.248,56.4381,93.6407,-17.4746,6600.58,1880.15,-99.4527,-44.0586,-50.2475,-4.00283
4.1315,4391.57,3090.26,9081.09,-0.0260014,-81.316,10.7318,29908.7,3017.44,6554.77,84.2131,172.148,-229.904,-670.19,11113.3,274.532,-21.4124,-38.5077,-74.3874,-12769.1,-22881.9,17.8505,-78.3542,113.814,-254.225,2614.65,10030.9,-1310.15,-8.15148,-44.0948,-48.378,-8054.56,7446.91,-1077.18,60.6332,93.1471,-17.5449,6614.56,1850.4,-197.289,-43.5912,-49.8946,-3.98077
4.132,4392.09,3069.3,9078.87,0.107368,-81.574,11.0607,29891.3,3186.05,6459.35,80.8244,170.704,-229.45,-663.576,11108.8,253.468,-21.5577,-38.4988,-74.6458,-12688.4,-22833.4,63.9345,-78.3207,116.855,-252.414,2641.38,10002.5,-1312.76,-8.14872,-44.2506,-48.5614,-8183.79,7615.25,-1567.12,64.8282,92.6535,-17.6152,6628.54,1820.66,-295.125,-43.1239,-49.5417,-3.95871
4.1325,4392.61,3048.35,9076.64,0.240737,-81.8319,11.3895,29873.8,3354.66,6363.93,77.4357,169.261,-228.997,-656.962,11104.3,232.405,-21.7029,-38.4899,-74.9041,-12607.6,-22785.0,110.019,-78.2873,119.897,-250.602,2668.1,9974.07,-1315.36,-8.14597,-44.4063,-48.7448,-8313.02,7783.59,-2057.05,69.0233,92.1599,-17.6854,6642.52,1790.91,-392.962,-42.6565,-49.1889,-3.93665
4.133,4393.13,3027.4,9074.41,0.374106,-82.0898,11.7184,29856.4,3523.27,6268.51,74.047,167.817,-228.544,-650.349,11099.9,211.341,-21.8482,-38.481,-75.1625,-12526.9,-22736.5,156.103,-78.2538,122.938,-248.79,2694.82,9945.67,-1317.97,-8.14321,-44.5621,-48.9282,-8442.25,7951.93,-2546.98,73.2184,91.6663,-17.7557,6656.5,1761.17,-490.798,-42.1892,-48.836,-3.91459
4.1335,4393.79,3001.39,9073.52,0.482917,-82.3422,12.0249,29740.7,3591.4,6292.05,72.1533,165.693,-228.179,-644.589,11095.5,182.538,-21.9787,-38.4258,-75.4497,-12472.6,-22690.9,151.872,-78.2802,126.325,-247.064,2718.79,9917.73,-1324.37,-8.15058,-44.7449,-49.0888,-8550.8,8162.16,-3097.32,77.7796,91.1871,-17.5257,6673.4,1745.69,-576.841,-41.6007,-48.445,-3.86509
4.134,4394.74,2965.26,9075.3,0.542613,-82.5836,12.2866,29428.6,3458.55,6553.52,73.2496,162.205,-227.99,-640.537,11091.3,138.255,-22.0799,-38.278,-75.7949,-12471.1,-22651.0,47.0115,-78.4264,130.402,-245.508,2737.26,9890.73,-1338.36,-8.1782,-44.9819,-49.2039,-8617.97,8456.18,-3768.46,83.0732,90.7368,-16.6951,6696.14,1758.74,-639.299,-40.77,-47.9778,-3.7607
4.1345,4395.69,2929.13,9077.08,0.602309,-82.825,12.5483,29116.5,3325.71,6814.98,74.3459,158.718,-227.802,-636.485,11087.0,93.9731,-22.1811,-38.1302,-76.1401,-12469.6,-22611.1,-57.8488,-78.5725,134.48,-243.952,2755.72,9863.73,-1352.35,-8.20582,-45.2189,-49.3189,-8685.14,8750.19,-4439.61,88.3669,90.2865,-15.8644,6718.88,1771.79,-701.757,-39.9394,-47.5106,-3.65631
4.135,4396.63,2893.0,9078.86,0.662006,-83.0664,12.81,28804.5,3192.86,7076.44,75.4422,155.23,-227.613,-632.433,11082.8,49.6907,-22.2823,-37.9824,-76.4853,-12468.1,-22571.2,-162.709,-78.7186,138.557,-242.397,2774.18,9836.73,-1366.34,-8.23344,-45.4558,-49.4339,-8752.31,9044.21,-5110.75,93.6605,89.8361,-15.0338,6741.63,1784.84,-764.215,-39.1087,-47.0433,-3.55193
4.1355,4397.58,2856.87,9080.64,0.721702,-83.3077,13.0717,28492.4,3060.02,7337.9,76.5385,151.743,-227.424,-628.381,11078.6,5.40837,-22.3834,-37.8346,-76.8305,-12466.5,-22531.3,-267.569,-78.8647,142.635,-240.841,2792.65,9809.74,-1380.32,-8.26106,-45.6928,-49.5489,-8819.48,9338.23,-5781.89,98.9541,89.3858,-14.2032,6764.37,1797.89,-826.672,-38.2781,-46.5761,-3.44754
4.136,4398.53,2820.74,9082.43,0.781398,-83.5491,13.3333,28180.3,2927.17,7599.37,77.6349,148.255,-227.235,-624.33,11074.4,-38.874,-22.4846,-37.6868,-77.1757,-12465.0,-22491.3,-372.43,-79.0108,146.712,-239.285,2811.11,9782.74,-1394.31,-8.28868,-45.9298,-49.664,-8886.65,9632.24,-6453.04,104.248,88.9355,-13.3726,6787.12,1810.94,-889.13,-37.4474,-46.1088,-3.34315
4.1365,4399.48,2784.61,9084.21,0.841095,-83.7905,13.595,27868.2,2794.33,7860.83,78.7312,144.768,-227.047,-620.278,11070.2,-83.1563,-22.5858,-37.5389,-77.5209,-12463.5,-22451.4,-477.29,-79.157,150.79,-237.73,2829.57,9755.74,-1408.3,-8.3163,-46.1668,-49.779,-8953.82,9926.26,-7124.18,109.541,88.4851,-12.542,6809.86,1824.0,-951.588,-36.6167,-45.6416,-3.23876
4.137,4400.43,2748.48,9085.99,0.900791,-84.0319,13.8567,27556.1,2661.48,8122.29,79.8275,141.28,-226.858,-616.226,11066.0,-127.439,-22.687,-37.3911,-77.8661,-12462.0,-22411.5,-582.15,-79.3031,154.867,-236.174,2848.04,9728.74,-1422.29,-8.34392,-46.4037,-49.894,-9020.99,10220.3,-7795.32,114.835,88.0348,-11.7114,6832.61,1837.05,-1014.05,-35.7861,-45.1744,-3.13437
4.1375,4401.38,2712.35,9087.77,0.960487,-84.2732,14.1184,27244.0,2528.64,8383.76,80.9238,137.792,-226.669,-612.174,11061.8,-171.721,-22.7881,-37.2433,-78.2113,-12460.5,-22371.6,-687.01,-79.4492,158.945,-234.619,2866.5,9701.75,-1436.28,-8.37154,-46.6407,-50.009,-9088.16,10514.3,-8466.46,120.129,87.5845,-10.8807,6855.35,1850.1,-1076.5,-34.9554,-44.7071,-3.02999
4.138,4395.61,2681.27,9094.43,0.963844,-84.5454,14.3447,26842.2,1804.92,8561.77,83.5017,134.185,-228.27,-604.073,11059.5,-192.854,-22.9465,-37.1265,-78.544,-12499.0,-22338.3,-709.822,-78.9171,162.78,-233.025,2882.41,9673.97,-1461.44,-8.37832,-46.8794,-50.1108,-9070.3,10814.1,-9017.14,124.503,87.4566,-9.89208,6879.06,1868.96,-1094.16,-33.9016,-44.2114,-3.00776
4.1385,4381.45,2656.5,9107.19,0.896779,-84.8559,14.5266,26328.3,342.608,8635.47,87.9314,130.427,-232.107,-590.91,11059.8,-185.052,-23.1764,-37.0485,-78.861,-12587.5,-22313.1,-630.074,-77.5372,166.311,-231.385,2895.13,9645.22,-1500.57,-8.35906,-47.1201,-50.1959,-8946.18,11121.1,-9417.22,127.728,87.7317,-8.70589,6903.99,1895.08,-1055.82,-32.569,-43.68,-3.08823
4.139,4367.28,2631.73,9119.95,0.829713,-85.1665,14.7086,25814.3,-1119.7,8709.17,92.3612,126.668,-235.944,-577.748,11060.1,-177.249,-23.4062,-36.9704,-79.1781,-12676.1,-22288.0,-550.325,-76.1573,169.842,-229.744,2907.85,9616.46,-1539.69,-8.3398,-47.3609,-50.281,-8822.05,11428.1,-9817.31,130.953,88.0068,-7.51969,6928.91,1921.2,-1017.48,-31.2363,-43.1487,-3.1687
4.1395,4353.12,2606.95,9132.71,0.762646,-85.477,14.8905,25300.4,-2582.01,8782.87,96.791,122.91,-239.781,-564.585,11060.4,-169.446,-23.6361,-36.8924,-79.4951,-12764.6,-22262.8,-470.577,-74.7774,173.374,-228.103,2920.57,9587.71,-1578.82,-8.32053,-47.6017,-50.3662,-8697.93,11735.2,-10217.4,134.178,88.2818,-6.3335,6953.84,1947.33,-979.138,-29.9037,-42.6173,-3.24918
4.14,4338.96,2582.18,9145.47,0.69558,-85.7876,15.0725,24786.5,-4044.32,8856.57,101.221,119.152,-243.618,-551.423,11060.7,-161.643,-23.8659,-36.8144,-79.8121,-12853.2,-22237.6,-390.828,-73.3974,176.905,-226.463,2933.29,9558.96,-1617.95,-8.30127,-47.8424,-50.4513,-8573.8,12042.2,-10617.5,137.403,88.5569,-5.1473,6978.76,1973.45,-940.796,-28.571,-42.086,-3.32965
4.1405,4324.8,2557.41,9158.23,0.628514,-86.0981,15.2544,24272.5,-5506.63,8930.27,105.651,115.394,-247.455,-538.26,11061.0,-153.84,-24.0958,-36.7364,-80.1292,-12941.7,-22212.5,-311.08,-72.0175,180.436,-224.822,2946.01,9530.21,-1657.07,-8.28201,-48.0832,-50.5364,-8449.68,12349.2,-11017.6,140.627,88.832,-3.96111,7003.69,1999.57,-902.455,-27.2384,-41.5547,-3.41012
4.141,4310.63,2532.63,9170.99,0.561449,-86.4087,15.4363,23758.6,-6968.94,9003.97,110.08,111.636,-251.292,-525.097,11061.3,-146.037,-24.3256,-36.6583,-80.4462,-13030.3,-22187.3,-231.331,-70.6376,183.968,-223.182,2958.73,9501.45,-1696.2,-8.26275,-48.324,-50.6216,-8325.55,12656.2,-11417.7,143.852,89.1071,-2.77491,7028.61,2025.69,-864.114,-25.9057,-41.0233,-3.49059
4.1415,4296.47,2507.86,9183.75,0.494383,-86.7192,15.6183,23244.6,-8431.25,9077.67,114.51,107.878,-255.129,-511.935,11061.6,-138.234,-24.5555,-36.5803,-80.7633,-13118.8,-22162.2,-151.582,-69.2577,187.499,-221.541,2971.45,9472.7,-1735.33,-8.24348,-48.5647,-50.7067,-8201.43,12963.3,-11817.7,147.077,89.3822,-1.58872,7053.54,2051.81,-825.772,-24.5731,-40.492,-3.57106
4.142,4282.31,2483.09,9196.51,0.427316,-87.0298,15.8002,22730.7,-9893.56,9151.37,118.94,104.12,-258.967,-498.772,11061.9,-130.432,-24.7853,-36.5023,-81.0803,-13207.3,-22137.0,-71.8339,-67.8778,191.03,-219.9,2984.17,9443.95,-1774.46,-8.22422,-48.8055,-50.7918,-8077.3,13270.3,-12217.8,150.302,89.6573,-0.402522,7078.46,2077.94,-787.431,-23.2404,-39.9606,-3.65154
4.1425,4275.35,2476.36,9212.68,0.55787,-87.3152,16.0361,22400.5,-11401.7,9017.45,121.539,101.321,-262.44,-481.073,11066.0,-140.032,-24.9955,-36.3907,-81.4211,-13329.6,-22152.0,221.787,-65.3476,193.628,-218.425,2998.7,9423.99,-1812.28,-8.22085,-49.0441,-50.8372,-7878.6,13500.1,-12597.7,152.817,91.783,1.14605,7121.8,2128.27,-696.08,-21.8332,-39.3229,-3.72381
4.143,4274.16,2484.06,9231.6,0.846518,-87.5806,16.3151,22217.3,-12946.6,8717.45,122.674,99.29,-265.623,-459.745,11073.2,-163.555,-25.19,-36.2524,-81.781,-13478.9,-22199.2,686.505,-61.8972,195.48,-217.081,3014.69,9411.06,-1849.07,-8.2302,-49.2811,-50.8507,-7620.25,13668.0,-12961.5,154.765,95.3892,2.98454,7179.85,2197.98,-562.321,-20.3663,-38.6,-3.78952
4.1435,4272.96,2491.77,9250.51,1.13517,-87.846,16.5942,22034.2,-14491.4,8417.45,123.809,97.259,-268.806,-438.417,11080.4,-187.078,-25.3844,-36.114,-82.1408,-13628.2,-22246.4,1151.22,-58.4467,197.332,-215.737,3030.67,9398.13,-1885.86,-8.23954,-49.518,-50.8642,-7361.89,13836.0,-13325.3,156.712,98.9954,4.82302,7237.91,2267.69,-428.563,-18.8994,-37.8771,-3.85523
4.144,4271.77,2499.48,9269.42,1.42382,-88.1114,16.8732,21851.0,-16036.3,8117.44,124.944,95.228,-271.99,-417.089,11087.6,-210.602,-25.5789,-35.9757,-82.5006,-13777.5,-22293.6,1615.94,-54.9963,199.183,-214.393,3046.65,9385.21,-1922.65,-8.24888,-49.7549,-50.8777,-7103.53,14003.9,-13689.1,158.66,102.602,6.6615,7295.97,2337.39,-294.804,-17.4325,-37.1543,-3.92094
4.1445,4270.58,2507.19,9288.33,1.71246,-88.3767,17.1522,21667.8,-17581.1,7817.44,126.079,93.197,-275.173,-395.761,11094.8,-234.125,-25.7733,-35.8373,-82.8605,-13926.8,-22340.7,2080.66,-51.5458,201.035,-213.049,3062.64,9372.28,-1959.44,-8.25823,-49.9918,-50.8912,-6845.17,14171.9,-14052.8,160.607,106.208,8.49998,7354.03,2407.1,-161.045,-15.9656,-36.4314,-3.98665
4.145,4269.38,2514.9,9307.24,2.00111,-88.6421,17.4312,21484.7,-19126.0,7517.43,127.214,91.1659,-278.356,-374.433,11102.0,-257.648,-25.9678,-35.699,-83.2203,-14076.1,-22387.9,2545.38,-48.0954,202.887,-211.705,3078.62,9359.35,-1996.23,-8.26757,-50.2287,-50.9047,-6586.81,14339.8,-14416.6,162.555,109.814,10.3385,7412.08,2476.8,-27.2863,-14.4987,-35.7086,-4.05236
4.1455,4268.19,2522.6,9326.15,2.28976,-88.9075,17.7103,21301.5,-20670.8,7217.43,128.349,89.1349,-281.539,-353.105,11109.2,-281.171,-26.1622,-35.5606,-83.5801,-14225.4,-22435.1,3010.09,-44.6449,204.738,-210.361,3094.61,9346.42,-2033.02,-8.27692,-50.4656,-50.9182,-6328.46,14507.8,-14780.4,164.502,113.42,12.1769,7470.14,2546.51,106.472,-13.0318,-34.9857,-4.11807
4.146,4267.0,2530.31,9345.06,2.57841,-89.1729,17.9893,21118.3,-22215.7,6917.43,129.484,87.1039,-284.722,-331.777,11116.5,-304.694,-26.3567,-35.4222,-83.94,-14374.7,-22482.3,3474.81,-41.1945,206.59,-209.017,3110.59,9333.5,-2069.8,-8.28626,-50.7025,-50.9317,-6070.1,14675.8,-15144.1,166.45,117.026,14.0154,7528.2,2616.22,240.231,-11.5649,-34.2628,-4.18379
4.1465,4265.8,2538.02,9363.97,2.86706,-89.4383,18.2683,20935.2,-23760.5,6617.42,130.619,85.0729,-287.905,-310.449,11123.7,-328.218,-26.5511,-35.2839,-84.2998,-14524.0,-22529.4,3939.53,-37.744,208.442,-207.673,3126.57,9320.57,-2106.59,-8.29561,-50.9394,-50.9452,-5811.74,14843.7,-15507.9,168.397,120.633,15.8539,7586.25,2685.92,373.99,-10.098,-33.54,-4.2495
4.147,4275.59,2517.44,9376.22,3.08745,-89.7393,18.5876,20915.2,-24398.4,6376.84,132.721,83.3107,-286.813,-294.455,11134.7,-367.85,-26.659,-34.9475,-84.7025,-14736.5,-22595.3,4450.85,-34.8719,207.647,-206.775,3150.61,9317.47,-2147.46,-8.2818,-51.183,-50.9558,-5550.37,14943.9,-15741.6,169.034,125.996,18.3454,7644.36,2748.88,511.389,-8.88636,-32.3685,-4.40837
4.1475,4290.86,2482.71,9385.13,3.27372,-90.0583,18.9269,20976.8,-24582.7,6165.98,135.306,81.6829,-283.583,-281.128,11147.6,-415.538,-26.7237,-34.512,-85.1267,-14980.7,-22670.6,4985.48,-32.289,205.529,-206.102,3178.68,9319.28,-2190.38,-8.25642,-51.4299,-50.965,-5287.5,15010.3,-15910.2,169.015,132.239,21.1635,7702.5,2808.46,650.607,-7.80241,-30.9728,-4.61383
4.148,4306.14,2447.97,9394.04,3.45998,-90.3772,19.2663,21038.5,-24767.1,5955.11,137.891,80.0551,-280.352,-267.801,11160.5,-463.226,-26.7883,-34.0766,-85.5508,-15224.8,-22745.9,5520.1,-29.7061,203.411,-205.428,3206.74,9321.09,-2233.29,-8.23104,-51.6768,-50.9743,-5024.62,15076.7,-16078.8,168.996,138.481,23.9815,7760.64,2868.04,789.826,-6.71846,-29.577,-4.81929
4.1485,4321.41,2413.24,9402.95,3.64624,-90.6962,19.6056,21100.1,-24951.5,5744.25,140.476,78.4273,-277.122,-254.474,11173.4,-510.914,-26.8529,-33.6411,-85.975,-15468.9,-22821.2,6054.73,-27.1231,201.293,-204.754,3234.81,9322.9,-2276.2,-8.20566,-51.9237,-50.9835,-4761.75,15143.0,-16247.4,168.977,144.724,26.7996,7818.78,2927.62,929.045,-5.63451,-28.1813,-5.02475
4.149,4336.69,2378.51,9411.86,3.83251,-91.0151,19.9449,21161.8,-25135.8,5533.38,143.062,76.7995,-273.892,-241.147,11186.4,-558.602,-26.9175,-33.2057,-86.3991,-15713.1,-22896.4,6589.35,-24.5402,199.175,-204.08,3262.87,9324.71,-2319.12,-8.18028,-52.1706,-50.9927,-4498.87,15209.4,-16416.0,168.958,150.966,29.6176,7876.91,2987.2,1068.26,-4.55055,-26.7856,-5.23021
4.1495,4351.96,2343.78,9420.76,4.01877,-91.334,20.2843,21223.4,-25320.2,5322.52,145.647,75.1717,-270.662,-227.82,11199.3,-606.289,-26.9822,-32.7702,-86.8233,-15957.2,-22971.7,7123.98,-21.9573,197.057,-203.406,3290.94,9326.52,-2362.03,-8.1549,-52.4175,-51.002,-4236.0,15275.7,-16584.6,168.94,157.209,32.4357,7935.05,3046.78,1207.48,-3.4666,-25.3898,-5.43567
4.15,4367.24,2309.05,9429.67,4.20504,-91.653,20.6236,21285.1,-25504.6,5111.65,148.232,73.5439,-267.432,-214.493,11212.2,-653.977,-27.0468,-32.3348,-87.2474,-16201.3,-23047.0,7658.6,-19.3743,194.94,-202.732,3319.0,9328.33,-2404.94,-8.12952,-52.6643,-51.0112,-3973.13,15342.1,-16753.2,168.921,163.451,35.2537,7993.19,3106.36,1346.7,-2.38265,-23.9941,-5.64113
4.1505,4382.52,2274.32,9438.58,4.3913,-91.9719,20.963,21346.7,-25688.9,4900.79,150.817,71.9161,-264.202,-201.166,11225.1,-701.665,-27.1114,-31.8993,-87.6716,-16445.5,-23122.2,8193.23,-16.7914,192.822,-202.059,3347.07,9330.15,-2447.85,-8.10414,-52.9112,-51.0204,-3710.25,15408.4,-16921.8,168.902,169.694,38.0717,8051.32,3165.94,1485.92,-1.29869,-22.5984,-5.84659
4.151,4397.79,2239.59,9447.49,4.57756,-92.2908,21.3023,21408.3,-25873.3,4689.92,153.402,70.2883,-260.972,-187.839,11238.1,-749.353,-27.176,-31.4639,-88.0958,-16689.6,-23197.5,8727.85,-14.2084,190.704,-201.385,3375.13,9331.96,-2490.77,-8.07876,-53.1581,-51.0297,-3447.38,15474.8,-17090.4,168.883,175.936,40.8898,8109.46,3225.52,1625.14,-0.21474,-21.2026,-6.05205
4.1515,4395.16,2212.19,9465.67,4.76835,-92.7184,21.4671,21520.3,-25384.2,4393.7,154.71,69.2317,-254.854,-181.425,11247.9,-783.365,-27.2611,-30.926,-88.5202,-16984.2,-23130.6,9060.5,-11.6692,185.496,-200.669,3408.34,9335.43,-2523.09,-8.04516,-53.2819,-51.007,-3209.67,15463.4,-16930.5,165.971,181.221,43.4064,8166.99,3228.23,1726.08,-0.124672,-19.4532,-6.38321
4.152,4387.42,2186.89,9486.49,4.96043,-93.177,21.5819,21646.7,-24702.5,4073.1,155.653,68.3384,-247.912,-176.986,11256.9,-813.469,-27.3519,-30.3588,-88.9448,-17293.1,-23023.2,9335.43,-9.14246,179.406,-199.94,3443.01,9339.39,-2552.38,-8.00922,-53.3705,-50.9753,-2979.16,15429.8,-16676.6,162.232,186.232,45.8368,8224.34,3214.68,1816.09,-0.318571,-17.6028,-6.75028
4.1525,4379.68,2161.58,9507.31,5.1525,-93.6356,21.6968,21773.1,-24020.9,3752.49,156.595,67.445,-240.97,-172.547,11265.9,-843.573,-27.4428,-29.7916,-89.3694,-17602.1,-22915.7,9610.37,-6.61571,173.316,-199.212,3477.68,9343.34,-2581.67,-7.97328,-53.4591,-50.9436,-2748.64,15396.2,-16422.7,158.492,191.244,48.2672,8281.7,3201.14,1906.1,-0.51247,-15.7523,-7.11735
4.153,4371.93,2136.28,9528.13,5.34458,-94.0942,21.8116,21899.5,-23339.3,3431.89,157.538,66.5516,-234.028,-168.109,11274.9,-873.678,-27.5337,-29.2244,-89.7939,-17911.1,-22808.3,9885.31,-4.08896,167.225,-198.484,3512.36,9347.3,-2610.96,-7.93733,-53.5478,-50.9118,-2518.13,15362.5,-16168.9,154.753,196.255,50.6977,8339.05,3187.59,1996.11,-0.706369,-13.9019,-7.48443
4.1535,4364.19,2110.97,9548.94,5.53665,-94.5528,21.9265,22025.9,-22657.7,3111.28,158.48,65.6583,-227.086,-163.67,11283.9,-903.782,-27.6246,-28.6572,-90.2185,-18220.0,-22700.8,10160.2,-1.56221,161.135,-197.756,3547.03,9351.25,-2640.25,-7.90139,-53.6364,-50.8801,-2287.61,15328.9,-15915.0,151.014,201.266,53.1281,8396.41,3174.04,2086.12,-0.900268,-12.0515,-7.8515
4.154,4356.45,2085.67,9569.76,5.72873,-95.0114,22.0413,22152.3,-21976.1,2790.67,159.423,64.7649,-220.144,-159.232,11292.9,-933.886,-27.7154,-28.09,-90.6431,-18529.0,-22593.4,10435.2,0.964534,155.045,-197.028,3581.7,9355.2,-2669.55,-7.86544,-53.725,-50.8484,-2057.1,15295.3,-15661.1,147.275,206.278,55.5586,8453.76,3160.49,2176.13,-1.09417,-10.201,-8.21857
4.1545,4348.7,2060.37,9590.58,5.92081,-95.47,22.1562,22278.6,-21294.5,2470.07,160.365,63.8716,-213.201,-154.793,11301.9,-963.991,-27.8063,-27.5228,-91.0676,-18838.0,-22486.0,10710.1,3.49128,148.954,-196.299,3616.38,9359.16,-2698.84,-7.8295,-53.8136,-50.8167,-1826.58,15261.7,-15407.2,143.536,211.289,57.989,8511.12,3146.95,2266.13,-1.28807,-8.35057,-8.58565
4.155,4340.96,2035.06,9611.4,6.11288,-95.9287,22.271,22405.0,-20612.9,2149.46,161.308,62.9782,-206.259,-150.354,11310.9,-994.095,-27.8972,-26.9556,-91.4922,-19146.9,-22378.5,10985.1,6.01803,142.864,-195.571,3651.05,9363.11,-2728.13,-7.79355,-53.9022,-50.7849,-1596.07,15228.1,-15153.4,139.797,216.3,60.4194,8568.47,3133.4,2356.14,-1.48196,-6.50012,-8.95272
4.1555,4333.22,2009.76,9632.22,6.30496,-96.3873,22.3859,22531.4,-19931.3,1828.85,162.25,62.0849,-199.317,-145.916,11319.9,-1024.2,-27.9881,-26.3884,-91.9168,-19455.9,-22271.1,11260.0,8.54478,136.774,-194.843,3685.72,9367.06,-2757.42,-7.75761,-53.9908,-50.7532,-1365.55,15194.4,-14899.5,136.058,221.311,62.8499,8625.83,3119.85,2446.15,-1.67586,-4.64968,-9.31979
4.156,4340.75,2007.06,9650.92,6.55206,-96.8797,22.5096,22799.2,-18780.6,1452.4,158.065,61.9849,-193.417,-143.81,11340.9,-1042.57,-28.1373,-25.8636,-92.4123,-19807.3,-22071.0,11227.3,10.7094,130.806,-193.822,3723.71,9392.85,-2774.06,-7.79914,-53.8875,-50.7663,-1289.01,15056.8,-14450.7,130.006,222.182,63.5568,8678.54,3029.01,2473.46,-3.2976,-3.27324,-9.25369
4.1565,4350.2,2007.2,9669.36,6.80605,-97.3764,22.6345,23084.6,-17571.2,1068.96,153.238,61.9842,-187.647,-141.997,11363.3,-1059.48,-28.2939,-25.344,-92.9167,-20163.9,-21859.4,11156.2,12.8287,124.853,-192.765,3762.12,9421.37,-2789.11,-7.85037,-53.7601,-50.785,-1231.71,14906.2,-13977.5,123.665,222.535,64.0483,8730.67,2928.51,2492.93,-5.09781,-1.95605,-9.13344
4.157,4359.64,2007.33,9687.8,7.06003,-97.8731,22.7593,23370.0,-16361.8,685.525,148.412,61.9834,-181.877,-140.183,11385.8,-1076.39,-28.4505,-24.8244,-93.4211,-20520.6,-21647.7,11085.1,14.9481,118.9,-191.708,3800.52,9449.89,-2804.16,-7.90159,-53.6328,-50.8036,-1174.42,14755.6,-13504.4,117.324,222.887,64.5398,8782.8,2828.01,2512.4,-6.89802,-0.638859,-9.01319
4.1575,4369.09,2007.46,9706.23,7.31402,-98.3697,22.8842,23655.4,-15152.4,302.089,143.585,61.9826,-176.107,-138.369,11408.3,-1093.3,-28.607,-24.3048,-93.9256,-20877.3,-21436.1,11014.0,17.0674,112.947,-190.651,3838.93,9478.41,-2819.21,-7.95281,-53.5055,-50.8223,-1117.12,14605.0,-13031.2,110.982,223.24,65.0313,8834.93,2727.5,2531.88,-8.69823,0.678331,-8.89294
4.158,4378.53,2007.59,9724.67,7.56801,-98.8664,23.009,23940.8,-13943.0,-81.3473,138.759,61.9819,-170.337,-136.556,11430.8,-1110.2,-28.7636,-23.7853,-94.43,-21234.0,-21224.5,10942.9,19.1867,106.994,-189.593,3877.33,9506.93,-2834.26,-8.00403,-53.3781,-50.841,-1059.83,14454.4,-12558.0,104.641,223.593,65.5228,8887.07,2627.0,2551.35,-10.4984,1.99552,-8.7727
4.1585,4387.97,2007.72,9743.11,7.82199,-99.3631,23.1339,24226.3,-12733.6,-464.784,133.932,61.9811,-164.567,-134.742,11453.2,-1127.11,-28.9201,-23.2657,-94.9344,-21590.6,-21012.9,10871.8,21.3061,101.042,-188.536,3915.74,9535.45,-2849.31,-8.05525,-53.2508,-50.8597,-1002.53,14303.8,-12084.8,98.3003,223.946,66.0143,8939.2,2526.5,2570.82,-12.2987,3.31271,-8.65245
4.159,4397.42,2007.85,9761.54,8.07597,-99.8597,23.2588,24511.7,-11524.2,-848.22,129.106,61.9803,-158.797,-132.928,11475.7,-1144.02,-29.0767,-22.7461,-95.4388,-21947.3,-20801.2,10800.7,23.4254,95.0887,-187.479,3954.15,9563.96,-2864.35,-8.10647,-53.1235,-50.8784,-945.237,14153.1,-11611.7,91.9592,224.299,66.5058,8991.33,2425.99,2590.29,-14.0989,4.6299,-8.5322
4.1595,4406.86,2007.98,9779.98,8.32996,-100.356,23.3836,24797.1,-10314.8,-1231.66,124.279,61.9796,-153.027,-131.114,11498.2,-1160.93,-29.2333,-22.2265,-95.9432,-22304.0,-20589.6,10729.6,25.5447,89.1359,-186.422,3992.55,9592.48,-2879.41,-8.15769,-52.9961,-50.8971,-887.942,14002.5,-11138.5,85.6181,224.651,66.9973,9043.46,2325.49,2609.76,-15.8991,5.94709,-8.41195
4.16,4416.31,2008.12,9798.42,8.58395,-100.853,23.5085,25082.5,-9105.41,-1615.09,119.453,61.9788,-147.257,-129.301,11520.6,-1177.84,-29.3898,-21.707,-96.4476,-22660.6,-20378.0,10658.5,27.6641,83.183,-185.364,4030.96,9621.0,-2894.46,-8.20891,-52.8688,-50.9158,-830.647,13851.9,-10665.3,79.277,225.004,67.4888,9095.6,2224.99,2629.24,-17.6993,7.26428,-8.2917
4.1605,4417.01,2007.46,9793.89,8.69908,-101.388,23.6354,25473.2,-7833.62,-1904.16,111.457,62.5554,-143.602,-136.746,11545.4,-1195.23,-29.5443,-21.285,-96.777,-22884.0,-20065.5,10289.7,27.8484,78.2258,-184.243,4055.22,9641.32,-2894.47,-8.28557,-52.4592,-50.884,-1028.03,13688.4,-10269.1,72.9279,218.71,65.7735,9115.25,2031.83,2549.72,-19.8064,7.52879,-7.74879
4.161,4417.72,2006.79,9789.35,8.81422,-101.923,23.7623,25863.8,-6561.83,-2193.22,103.46,63.1319,-139.948,-144.192,11570.2,-1212.62,-29.6989,-20.863,-97.1063,-23107.3,-19753.0,9920.92,28.0326,73.2686,-183.121,4079.49,9661.64,-2894.49,-8.36223,-52.0495,-50.8521,-1225.41,13524.8,-9872.95,66.5787,212.416,64.0582,9134.9,1838.67,2470.21,-21.9136,7.79331,-7.20589
4.1615,4418.43,2006.13,9784.82,8.92936,-102.458,23.8893,26254.4,-5290.04,-2482.29,95.4641,63.7085,-136.294,-151.638,11595.0,-1230.01,-29.8534,-20.441,-97.4356,-23330.7,-19440.5,9552.15,28.2169,68.3113,-181.999,4103.75,9681.95,-2894.5,-8.43889,-51.6399,-50.8203,-1422.78,13361.3,-9476.77,60.2295,206.123,62.3429,9154.55,1645.51,2390.69,-24.0207,8.05783,-6.66299
4.162,4419.14,2005.47,9780.29,9.0445,-102.992,24.0162,26645.1,-4018.25,-2771.35,87.4679,64.285,-132.64,-159.083,11619.8,-1247.4,-30.0079,-20.0191,-97.7649,-23554.0,-19128.0,9183.38,28.4012,63.3541,-180.878,4128.02,9702.27,-2894.52,-8.51554,-51.2303,-50.7885,-1620.16,13197.7,-9080.59,53.8804,199.829,60.6277,9174.21,1452.36,2311.18,-26.1279,8.32234,-6.12008
4.1625,4419.84,2004.81,9775.76,9.15964,-103.527,24.1432,27035.7,-2746.46,-3060.42,79.4717,64.8616,-128.985,-166.529,11644.6,-1264.79,-30.1624,-19.5971,-98.0942,-23777.4,-18815.5,8814.61,28.5855,58.3969,-179.756,4152.29,9722.59,-2894.53,-8.5922,-50.8206,-50.7567,-1817.54,13034.2,-8684.4,47.5312,193.535,58.9124,9193.86,1259.2,2231.66,-28.235,8.58686,-5.57718
4.163,4420.55,2004.15,9771.22,9.27478,-104.062,24.2701,27426.3,-1474.67,-3349.49,71.4755,65.4381,-125.331,-173.975,11669.3,-1282.18,-30.3169,-19.1751,-98.4235,-24000.8,-18503.0,8445.83,28.7697,53.4397,-178.634,4176.55,9742.91,-2894.55,-8.66886,-50.411,-50.7249,-2014.92,12870.6,-8288.22,41.1821,187.241,57.1971,9213.51,1066.04,2152.15,-30.3422,8.85137,-5.03427
4.1635,4421.26,2003.49,9766.69,9.38992,-104.597,24.397,27817.0,-202.877,-3638.55,63.4793,66.0147,-121.677,-181.42,11694.1,-1299.57,-30.4714,-18.7531,-98.7529,-24224.1,-18190.6,8077.06,28.954,48.4824,-177.513,4200.82,9763.22,-2894.57,-8.74552,-50.0013,-50.6931,-2212.3,12707.1,-7892.04,34.8329,180.947,55.4819,9233.16,872.884,2072.63,-32.4493,9.11589,-4.49137
4.164,4421.97,2002.83,9762.16,9.50506,-105.132,24.524,28207.6,1068.91,-3927.62,55.4831,66.5912,-118.023,-188.866,11718.9,-1316.96,-30.6259,-18.3311,-99.0822,-24447.5,-17878.1,7708.29,29.1383,43.5252,-176.391,4225.08,9783.54,-2894.58,-8.82218,-49.5917,-50.6613,-2409.68,12543.5,-7495.85,28.4837,174.654,53.7666,9252.82,679.726,1993.12,-34.5565,9.3804,-3.94846
4.1645,4422.81,2003.07,9759.57,9.61984,-105.667,24.6512,28590.7,2302.17,-4206.58,47.4524,67.161,-114.39,-197.873,11741.8,-1333.28,-30.7836,-17.9317,-99.4099,-24644.6,-17564.5,7307.26,29.2016,38.7011,-175.254,4247.4,9802.71,-2894.31,-8.90624,-49.1506,-50.6103,-2637.69,12389.4,-7096.53,22.3206,167.643,51.7765,9272.3,487.337,1910.31,-36.5903,9.54891,-3.35117
4.165,4424.74,2010.46,9772.54,9.73181,-106.209,24.7808,28913.0,3227.22,-4404.76,39.1456,67.6765,-110.926,-219.373,11749.2,-1341.07,-30.9664,-17.7127,-99.725,-24632.6,-17242.8,6648.19,28.297,34.9426,-174.001,4254.14,9812.67,-2891.75,-9.0495,-48.458,-50.4059,-3110.76,12310.5,-6672.06,17.646,154.902,47.5874,9290.46,301.096,1801.15,-38.0371,8.94939,-2.31876
4.1655,4426.67,2017.86,9785.52,9.84377,-106.751,24.9105,29235.3,4152.26,-4602.93,30.8388,68.1919,-107.463,-240.873,11756.6,-1348.87,-31.1492,-17.4937,-100.04,-24620.5,-16921.1,5989.11,27.3924,31.1841,-172.748,4260.88,9822.63,-2889.18,-9.19276,-47.7654,-50.2015,-3583.83,12231.5,-6247.6,12.9714,142.161,43.3983,9308.63,114.855,1692.0,-39.4839,8.34988,-1.28635
4.166,4428.6,2025.26,9798.49,9.95573,-107.292,25.0401,29557.7,5077.3,-4801.1,22.5321,68.7074,-103.999,-262.372,11764.0,-1356.66,-31.3319,-17.2747,-100.355,-24608.4,-16599.3,5330.03,26.4878,27.4256,-171.494,4267.62,9832.59,-2886.62,-9.33602,-47.0728,-49.9971,-4056.89,12152.6,-5823.14,8.29685,129.419,39.2093,9326.79,-71.3857,1582.84,-40.9307,7.75036,-0.253933
4.1665,4430.54,2032.66,9811.46,10.0677,-107.834,25.1698,29880.0,6002.35,-4999.28,14.2253,69.2228,-100.536,-283.872,11771.3,-1364.46,-31.5147,-17.0556,-100.67,-24596.3,-16277.6,4670.96,25.5832,23.6671,-170.241,4274.35,9842.55,-2884.05,-9.47927,-46.3802,-49.7927,-4529.96,12073.7,-5398.68,3.62226,116.678,35.0202,9344.95,-257.627,1473.69,-42.3775,7.15084,0.778479
4.167,4432.47,2040.06,9824.43,10.1797,-108.376,25.2994,30202.3,6927.39,-5197.45,5.9185,69.7383,-97.0727,-305.372,11778.7,-1372.25,-31.6975,-16.8366,-100.985,-24584.2,-15955.9,4011.88,24.6786,19.9085,-168.987,4281.09,9852.51,-2881.49,-9.62253,-45.6876,-49.5883,-5003.03,11994.8,-4974.22,-1.05233,103.936,30.8312,9363.11,-443.868,1364.53,-43.8243,6.55132,1.81089
4.1675,4434.4,2047.46,9837.41,10.2916,-108.918,25.4291,30524.6,7852.43,-5395.63,-2.38828,70.2537,-93.6093,-326.871,11786.1,-1380.05,-31.8803,-16.6176,-101.3,-24572.1,-15634.2,3352.8,23.774,16.15,-167.734,4287.83,9862.47,-2878.92,-9.76579,-44.995,-49.3839,-5476.09,11915.9,-4549.76,-5.72693,91.195,26.6421,9381.27,-630.109,1255.37,-45.2711,5.9518,2.8433
4.168,4436.33,2054.85,9850.38,10.4036,-109.459,25.5587,30847.0,8777.47,-5593.8,-10.6951,70.7692,-90.1459,-348.371,11793.5,-1387.84,-32.0631,-16.3986,-101.616,-24560.0,-15312.4,2693.72,22.8694,12.3915,-166.481,4294.57,9872.43,-2876.36,-9.90905,-44.3024,-49.1795,-5949.16,11837.0,-4125.29,-10.4015,78.4536,22.453,9399.43,-816.35,1146.22,-46.7179,5.35228,3.87572
4.1685,4438.26,2062.25,9863.35,10.5156,-110.001,25.6884,31169.3,9702.52,-5791.98,-19.0018,71.2846,-86.6825,-369.871,11800.9,-1395.64,-32.2459,-16.1796,-101.931,-24547.9,-14990.7,2034.65,21.9648,8.63297,-165.227,4301.3,9882.39,-2873.8,-10.0523,-43.6098,-48.9751,-6422.23,11758.1,-3700.83,-15.0761,65.7123,18.264,9417.59,-1002.59,1037.06,-48.1647,4.75276,4.90813
4.169,4439.76,2066.22,9877.25,10.6201,-110.564,25.8179,31433.2,10475.3,-5993.7,-26.9449,71.7655,-83.0422,-386.933,11806.9,-1406.31,-32.4074,-16.0395,-102.243,-24521.1,-14667.8,1344.79,20.9991,5.36192,-163.895,4306.12,9889.64,-2866.44,-10.2212,-42.8619,-48.7413,-6922.2,11706.6,-3264.63,-19.4452,52.4646,13.6873,9442.67,-1189.51,936.792,-49.3905,4.0488,5.95396
4.1695,4439.74,2058.15,9894.39,10.6989,-111.2,25.9472,31492.8,10714.9,-6207.83,-33.6149,72.1255,-78.7828,-388.464,11807.8,-1427.07,-32.4944,-16.1759,-102.546,-24443.0,-14340.6,547.184,19.8196,3.79698,-162.288,4304.22,9887.4,-2842.34,-10.4799,-41.9206,-48.4047,-7516.35,11751.3,-2787.34,-22.7451,37.4452,7.75399,9491.94,-1378.8,867.629,-49.8427,2.97928,7.04677
4.17,4439.71,2050.09,9911.53,10.7777,-111.836,26.0765,31552.4,10954.6,-6421.96,-40.2848,72.4855,-74.5234,-389.996,11808.7,-1447.83,-32.5814,-16.3123,-102.849,-24364.9,-14013.5,-250.419,18.64,2.23204,-160.681,4302.32,9885.17,-2818.24,-10.7386,-40.9792,-48.0682,-8110.49,11795.9,-2310.05,-26.045,22.4257,1.82067,9541.21,-1568.09,798.466,-50.295,1.90976,8.13957
4.1705,4439.69,2042.03,9928.66,10.8565,-112.473,26.2058,31612.0,11194.2,-6636.09,-46.9548,72.8455,-70.2639,-391.527,11809.6,-1468.59,-32.6684,-16.4486,-103.152,-24286.8,-13686.3,-1048.02,17.4605,0.667106,-159.074,4300.42,9882.93,-2794.13,-10.9973,-40.0378,-47.7316,-8704.64,11840.5,-1832.75,-29.3449,7.40626,-4.11265,9590.48,-1757.38,729.303,-50.7473,0.840245,9.23237
4.171,4439.67,2033.97,9945.8,10.9353,-113.109,26.3351,31671.5,11433.9,-6850.23,-53.6248,73.2054,-66.0045,-393.058,11810.5,-1489.36,-32.7554,-16.585,-103.455,-24208.7,-13359.2,-1845.63,16.2809,-0.89783,-157.467,4298.52,9880.7,-2770.03,-11.256,-39.0964,-47.395,-9298.78,11885.2,-1355.46,-32.6447,-7.61321,-10.046,9639.75,-1946.67,660.14,-51.1996,-0.229273,10.3252
4.1715,4439.64,2025.91,9962.94,11.0141,-113.745,26.4644,31731.1,11673.5,-7064.36,-60.2948,73.5654,-61.7451,-394.589,11811.5,-1510.12,-32.8424,-16.7214,-103.758,-24130.6,-13032.0,-2643.23,15.1014,-2.46277,-155.859,4296.62,9878.46,-2745.92,-11.5147,-38.155,-47.0584,-9892.93,11929.8,-878.171,-35.9446,-22.6327,-15.9793,9689.02,-2135.97,590.977,-51.6518,-1.29879,11.418
4.172,4439.62,2017.84,9980.08,11.0929,-114.381,26.5937,31790.7,11913.2,-7278.49,-66.9648,73.9254,-57.4857,-396.121,11812.4,-1530.88,-32.9294,-16.8577,-104.061,-24052.5,-12704.9,-3440.83,13.9218,-4.0277,-154.252,4294.72,9876.23,-2721.82,-11.7734,-37.2136,-46.7219,-10487.1,11974.4,-400.879,-39.2445,-37.6521,-21.9126,9738.29,-2325.26,521.813,-52.1041,-2.36831,12.5108
4.1725,4439.59,2009.78,9997.22,11.1717,-115.017,26.723,31850.2,12152.8,-7492.62,-73.6348,74.2854,-53.2262,-397.652,11813.3,-1551.64,-33.0164,-16.9941,-104.364,-23974.4,-12377.7,-4238.44,12.7423,-5.59264,-152.645,4292.83,9873.99,-2697.72,-12.0321,-36.2722,-46.3853,-11081.2,12019.1,76.4132,-42.5444,-52.6716,-27.8459,9787.56,-2514.55,452.65,-52.5564,-3.43783,13.6036
4.173,4439.57,2001.72,10014.4,11.2505,-115.654,26.8523,31909.8,12392.5,-7706.75,-80.3047,74.6453,-48.9668,-399.183,11814.2,-1572.4,-33.1034,-17.1304,-104.667,-23896.3,-12050.6,-5036.04,11.5627,-7.15758,-151.038,4290.93,9871.76,-2673.61,-12.2908,-35.3308,-46.0487,-11675.4,12063.7,553.705,-45.8443,-67.6911,-33.7792,9836.83,-2703.84,383.487,-53.0086,-4.50735,14.6964
4.1735,4436.11,1983.3,10034.2,11.2941,-116.312,26.9657,31877.0,12358.1,-7920.19,-85.7202,75.0071,-44.7093,-401.209,11813.0,-1597.89,-33.1297,-17.3186,-104.958,-23846.4,-11721.0,-5731.24,10.3385,-8.45487,-149.358,4284.48,9867.57,-2646.9,-12.5563,-34.362,-45.6976,-12236.4,12130.7,973.755,-49.3132,-81.385,-39.4116,9879.27,-2860.76,327.936,-52.9626,-5.56291,15.6194
4.174,4425.79,1944.17,10059.5,11.2671,-117.015,27.0471,31659.3,11775.7,-8132.24,-88.6265,75.3726,-40.4557,-404.222,11807.7,-1632.86,-33.0349,-17.6103,-105.226,-23852.9,-11386.7,-6221.65,9.02507,-9.21685,-147.534,4268.93,9859.47,-2614.96,-12.8354,-33.3382,-45.3175,-12731.2,12242.4,1279.32,-53.1201,-92.428,-44.4422,9908.08,-2952.94,299.609,-51.9198,-6.59057,16.203
4.1745,4415.47,1905.04,10084.8,11.2402,-117.719,27.1285,31441.6,11193.2,-8344.29,-91.5328,75.7381,-36.2021,-407.236,11802.4,-1667.83,-32.9401,-17.9021,-105.493,-23859.4,-11052.4,-6712.05,7.7116,-9.97884,-145.71,4253.38,9851.37,-2583.03,-13.1145,-32.3145,-44.9374,-13226.0,12354.2,1584.88,-56.927,-103.471,-49.4727,9936.88,-3045.13,271.283,-50.877,-7.61822,16.7865
4.175,4405.14,1865.91,10110.0,11.2133,-118.422,27.2099,31223.9,10610.7,-8556.33,-94.4391,76.1035,-31.9485,-410.25,11797.1,-1702.8,-32.8453,-18.1938,-105.76,-23865.9,-10718.1,-7202.46,6.39814,-10.7408,-143.886,4237.84,9843.27,-2551.09,-13.3936,-31.2907,-44.5572,-13720.8,12465.9,1890.45,-60.734,-114.514,-54.5033,9965.69,-3137.31,242.956,-49.8343,-8.64588,17.37
4.1755,4394.82,1826.77,10135.3,11.1864,-119.125,27.2913,31006.2,10028.3,-8768.38,-97.3454,76.469,-27.6948,-413.263,11791.8,-1737.77,-32.7505,-18.4856,-106.027,-23872.5,-10383.8,-7692.86,5.08468,-11.5028,-142.062,4222.29,9835.17,-2519.16,-13.6727,-30.267,-44.1771,-14215.6,12577.6,2196.01,-64.5409,-125.557,-59.5338,9994.49,-3229.49,214.63,-48.7915,-9.67353,17.9535
4.176,4384.49,1787.64,10160.6,11.1594,-119.828,27.3727,30788.5,9445.83,-8980.43,-100.252,76.8344,-23.4412,-416.277,11786.5,-1772.74,-32.6557,-18.7773,-106.295,-23879.0,-10049.5,-8183.26,3.77122,-12.2648,-140.238,4206.75,9827.06,-2487.23,-13.9518,-29.2432,-43.797,-14710.4,12689.4,2501.58,-68.3478,-136.6,-64.5644,10023.3,-3321.67,186.303,-47.7487,-10.7012,18.5371
4.1765,4374.17,1748.51,10185.9,11.1325,-120.531,27.4541,30570.9,8863.38,-9192.48,-103.158,77.1999,-19.1876,-419.291,11781.2,-1807.71,-32.5608,-19.0691,-106.562,-23885.5,-9715.24,-8673.67,2.45775,-13.0268,-138.414,4191.2,9818.96,-2455.29,-14.2308,-28.2195,-43.4168,-15205.1,12801.1,2807.14,-72.1548,-147.643,-69.5949,10052.1,-3413.85,157.976,-46.706,-11.7288,19.1206
4.177,4363.85,1709.38,10211.1,11.1056,-121.235,27.5356,30353.2,8280.92,-9404.52,-106.064,77.5653,-14.934,-422.305,11775.9,-1842.68,-32.466,-19.3608,-106.829,-23892.0,-9380.94,-9164.07,1.14429,-13.7888,-136.59,4175.65,9810.86,-2423.36,-14.5099,-27.1958,-43.0367,-15699.9,12912.9,3112.71,-75.9617,-158.686,-74.6255,10080.9,-3506.04,129.65,-45.6632,-12.7565,19.7041
4.1775,4353.52,1670.25,10236.4,11.0787,-121.938,27.617,30135.5,7698.47,-9616.57,-108.971,77.9308,-10.6804,-425.318,11770.6,-1877.64,-32.3712,-19.6526,-107.096,-23898.5,-9046.64,-9654.48,-0.169173,-14.5508,-134.766,4160.11,9802.76,-2391.42,-14.789,-26.172,-42.6566,-16194.7,13024.6,3418.27,-79.7687,-169.729,-79.6561,10109.7,-3598.22,101.323,-44.6204,-13.7842,20.2876
4.178,4343.9,1621.75,10259.9,10.9745,-122.644,27.6121,29927.8,6924.92,-9774.07,-110.209,78.2143,-6.66424,-434.745,11768.7,-1930.3,-32.2681,-19.9802,-107.377,-23943.6,-8729.03,-9900.33,-1.11281,-16.0479,-132.542,4138.09,9799.69,-2347.32,-15.0801,-25.1719,-42.279,-16589.9,13143.6,3622.1,-83.9264,-178.179,-83.1308,10141.9,-3652.9,102.323,-43.4981,-14.5774,20.6559
4.1785,4335.14,1561.54,10281.1,10.7738,-123.353,27.4994,29732.5,5912.52,-9863.39,-109.363,78.3955,-2.94496,-452.186,11771.3,-2005.07,-32.1546,-20.3526,-107.674,-24036.8,-8432.26,-9840.51,-1.59415,-18.4641,-129.82,4107.98,9802.9,-2288.02,-15.3862,-24.2013,-41.9046,-16860.5,13271.8,3698.77,-88.5227,-183.387,-84.6607,10178.2,-3660.71,139.982,-42.2763,-15.0776,20.7552
4.179,4326.38,1501.33,10302.4,10.5731,-124.062,27.3867,29537.3,4900.11,-9952.7,-108.517,78.5766,0.774319,-469.628,11773.8,-2079.83,-32.0412,-20.7249,-107.971,-24130.1,-8135.5,-9780.68,-2.0755,-20.8803,-127.097,4077.86,9806.11,-2228.72,-15.6923,-23.2307,-41.5302,-17131.1,13400.0,3775.44,-93.119,-188.595,-86.1906,10214.5,-3668.52,177.641,-41.0545,-15.5778,20.8544
4.1795,4317.62,1441.12,10323.6,10.3725,-124.771,27.274,29342.0,3887.7,-10042.0,-107.671,78.7578,4.4936,-487.07,11776.3,-2154.6,-31.9277,-21.0973,-108.267,-24223.4,-7838.74,-9720.86,-2.55684,-23.2964,-124.375,4047.75,9809.33,-2169.41,-15.9984,-22.2601,-41.1558,-17401.7,13528.2,3852.11,-97.7154,-193.803,-87.7205,10250.9,-3676.33,215.3,-39.8327,-16.078,20.9536
4.18,4308.86,1380.91,10344.8,10.1718,-125.48,27.1613,29146.8,2875.29,-10131.3,-106.826,78.9389,8.21288,-504.511,11778.8,-2229.36,-31.8143,-21.4697,-108.564,-24316.7,-7541.97,-9661.03,-3.03819,-25.7126,-121.653,4017.64,9812.54,-2110.11,-16.3044,-21.2895,-40.7814,-17672.3,13656.3,3928.78,-102.312,-199.011,-89.2504,10287.2,-3684.14,252.958,-38.6109,-16.5782,21.0528
4.1805,4300.1,1320.7,10366.1,9.97107,-126.189,27.0486,28951.5,1862.89,-10220.7,-105.98,79.12,11.9322,-521.953,11781.3,-2304.13,-31.7008,-21.8421,-108.861,-24410.0,-7245.21,-9601.2,-3.51954,-28.1287,-118.93,3987.53,9815.75,-2050.81,-16.6105,-20.3189,-40.407,-17942.9,13784.5,4005.45,-106.908,-204.219,-90.7803,10323.5,-3691.95,290.617,-37.3891,-17.0784,21.1521
4.181,4291.34,1260.49,10387.3,9.77038,-126.898,26.9359,28756.3,850.481,-10310.0,-105.134,79.3012,15.6514,-539.395,11783.8,-2378.89,-31.5873,-22.2145,-109.158,-24503.3,-6948.45,-9541.38,-4.00088,-30.5449,-116.208,3957.42,9818.96,-1991.5,-16.9166,-19.3483,-40.0326,-18213.6,13912.7,4082.12,-111.504,-209.427,-92.3103,10359.9,-3699.76,328.276,-36.1674,-17.5786,21.2513
4.1815,4282.58,1200.28,10408.6,9.56969,-127.607,26.8232,28561.0,-161.926,-10399.3,-104.288,79.4823,19.3707,-556.836,11786.3,-2453.66,-31.4739,-22.5869,-109.455,-24596.5,-6651.68,-9481.55,-4.48223,-32.961,-113.485,3927.3,9822.17,-1932.2,-17.2227,-18.3777,-39.6582,-18484.2,14040.8,4158.79,-116.101,-214.635,-93.8402,10396.2,-3707.57,365.935,-34.9456,-18.0788,21.3505
4.182,4273.82,1140.07,10429.8,9.369,-128.316,26.7104,28365.8,-1174.33,-10488.6,-103.442,79.6634,23.09,-574.278,11788.8,-2528.42,-31.3604,-22.9593,-109.752,-24689.8,-6354.92,-9421.73,-4.96358,-35.3772,-110.763,3897.19,9825.38,-1872.9,-17.5288,-17.4071,-39.2838,-18754.8,14169.0,4235.46,-120.697,-219.843,-95.3701,10432.6,-3715.38,403.594,-33.7238,-18.579,21.4497
4.1825,4271.76,1076.21,10455.7,9.13704,-129.154,26.499,28251.0,-2099.84,-10523.6,-100.653,79.8863,26.855,-598.073,11797.9,-2598.14,-31.2289,-23.386,-110.027,-24807.1,-6063.42,-9155.99,-4.95783,-39.2691,-107.414,3866.25,9836.58,-1805.19,-17.8502,-16.595,-38.9098,-18939.1,14168.9,4183.54,-123.16,-222.336,-95.2831,10467.5,-3697.75,443.519,-32.3667,-18.7881,21.2057
4.183,4275.05,1009.41,10485.4,8.88005,-130.096,26.2086,28200.7,-2955.83,-10515.2,-96.3088,80.1425,30.6567,-626.952,11812.3,-2663.81,-31.083,-23.8561,-110.285,-24943.7,-5776.11,-8725.52,-4.5624,-44.3416,-103.565,3834.64,9854.16,-1730.76,-18.1839,-15.9096,-38.5361,-19054.3,14066.0,4028.75,-123.916,-222.657,-93.9026,10501.3,-3659.77,485.257,-30.9013,-18.7641,20.687
4.1835,4278.35,942.62,10515.1,8.62306,-131.037,25.9183,28150.3,-3811.82,-10506.8,-91.9649,80.3988,34.4583,-655.831,11826.7,-2729.49,-30.937,-24.3261,-110.542,-25080.3,-5488.81,-8295.05,-4.16697,-49.4141,-99.7152,3803.02,9871.74,-1656.34,-18.5176,-15.2243,-38.1623,-19169.6,13963.2,3873.96,-124.672,-222.978,-92.5221,10535.1,-3621.8,526.996,-29.436,-18.7402,20.1683
4.184,4281.64,875.827,10544.8,8.36607,-131.978,25.6279,28099.9,-4667.81,-10498.4,-87.6211,80.655,38.2599,-684.709,11841.0,-2795.16,-30.7911,-24.7962,-110.8,-25216.8,-5201.51,-7864.58,-3.77154,-54.4866,-95.8657,3771.41,9889.32,-1581.91,-18.8513,-14.5389,-37.7885,-19284.8,13860.4,3719.17,-125.428,-223.299,-91.1415,10568.8,-3583.82,568.734,-27.9706,-18.7162,19.6496
4.1845,4284.94,809.034,10574.5,8.10908,-132.919,25.3375,28049.6,-5523.8,-10490.0,-83.2773,80.9113,42.0615,-713.588,11855.4,-2860.84,-30.6451,-25.2663,-111.057,-25353.4,-4914.21,-7434.12,-3.37612,-59.5591,-92.0162,3739.8,9906.91,-1507.48,-19.185,-13.8535,-37.4148,-19400.1,13757.5,3564.38,-126.184,-223.62,-89.761,10602.6,-3545.84,610.472,-26.5052,-18.6922,19.1309
4.185,4288.23,742.24,10604.2,7.85209,-133.861,25.0471,27999.2,-6379.79,-10481.6,-78.9334,81.1675,45.8631,-742.467,11869.8,-2926.51,-30.4992,-25.7363,-111.315,-25489.9,-4626.91,-7003.65,-2.98069,-64.6316,-88.1666,3708.19,9924.49,-1433.06,-19.5187,-13.1682,-37.041,-19515.3,13654.7,3409.59,-126.941,-223.941,-88.3805,10636.4,-3507.86,652.211,-25.0399,-18.6683,18.6121
4.1855,4291.53,675.447,10633.9,7.59511,-134.802,24.7567,27948.8,-7235.78,-10473.2,-74.5896,81.4237,49.6648,-771.345,11884.2,-2992.18,-30.3533,-26.2064,-111.572,-25626.5,-4339.61,-6573.18,-2.58526,-69.7041,-84.3171,3676.58,9942.07,-1358.63,-19.8524,-12.4828,-36.6673,-19630.6,13551.9,3254.8,-127.697,-224.262,-87.0,10670.2,-3469.88,693.949,-23.5745,-18.6443,18.0934
4.186,4294.82,608.654,10663.6,7.33812,-135.743,24.4663,27898.5,-8091.77,-10464.7,-70.2458,81.68,53.4664,-800.224,11898.5,-3057.86,-30.2073,-26.6765,-111.829,-25763.0,-4052.31,-6142.71,-2.18983,-74.7766,-80.4676,3644.97,9959.65,-1284.21,-20.1861,-11.7974,-36.2935,-19745.8,13449.1,3100.01,-128.453,-224.583,-85.6194,10704.0,-3431.9,735.688,-22.1092,-18.6204,17.5747
4.1865,4298.12,541.861,10693.3,7.08113,-136.685,24.1759,27848.1,-8947.76,-10456.3,-65.902,81.9362,57.268,-829.103,11912.9,-3123.53,-30.0614,-27.1466,-112.087,-25899.6,-3765.01,-5712.25,-1.79441,-79.8491,-76.6181,3613.36,9977.23,-1209.78,-20.5198,-11.112,-35.9198,-19861.1,13346.2,2945.21,-129.209,-224.904,-84.2389,10737.8,-3393.92,777.426,-20.6438,-18.5964,17.056
4.187,4301.07,488.818,10710.8,6.68908,-137.738,23.8141,27843.4,-9513.13,-10388.3,-60.2569,82.0014,61.1677,-844.518,11914.0,-3179.76,-29.988,-27.6255,-112.369,-26023.3,-3590.78,-5288.08,-1.65585,-85.3513,-72.6112,3590.29,10017.5,-1152.47,-20.7982,-10.619,-35.5553,-19926.3,13149.5,2799.84,-127.211,-223.363,-81.9732,10776.7,-3317.76,808.19,-19.2238,-18.3282,16.4832
4.1875,4303.85,442.651,10722.2,6.22951,-138.847,23.4165,27861.6,-9933.18,-10290.4,-53.9611,81.971,65.1164,-853.201,11908.4,-3231.26,-29.9509,-28.1089,-112.664,-26140.6,-3473.09,-4867.06,-1.64572,-91.0684,-68.5255,3571.5,10069.1,-1103.72,-21.049,-10.222,-35.1954,-19966.4,12905.8,2659.19,-123.836,-220.89,-79.2649,10818.3,-3222.5,833.467,-17.8265,-17.9379,15.8833
4.188,4306.63,396.485,10733.6,5.76994,-139.956,23.0189,27879.7,-10353.2,-10192.6,-47.6654,81.9406,69.0651,-861.884,11902.8,-3282.76,-29.9138,-28.5923,-112.959,-26257.8,-3355.39,-4446.05,-1.63559,-96.7854,-64.4398,3552.71,10120.7,-1054.97,-21.2997,-9.82512,-34.8356,-20006.6,12662.1,2518.53,-120.462,-218.417,-76.5567,10859.8,-3127.24,858.743,-16.4292,-17.5476,15.2834
4.1885,4309.41,350.318,10745.0,5.31036,-141.066,22.6214,27897.9,-10773.3,-10094.7,-41.3696,81.9102,73.0139,-870.567,11897.2,-3334.26,-29.8767,-29.0757,-113.254,-26375.1,-3237.7,-4025.04,-1.62546,-102.502,-60.3541,3533.92,10172.3,-1006.21,-21.5505,-9.42819,-34.4757,-20046.8,12418.4,2377.87,-117.087,-215.944,-73.8484,10901.4,-3031.98,884.02,-15.0319,-17.1572,14.6835
4.189,4312.19,304.151,10756.4,4.85079,-142.175,22.2238,27916.0,-11193.3,-9996.82,-35.0739,81.8798,76.9626,-879.25,11891.6,-3385.76,-29.8396,-29.5591,-113.549,-26492.3,-3120.01,-3604.02,-1.61534,-108.219,-56.2684,3515.13,10223.9,-957.462,-21.8012,-9.03126,-34.1159,-20087.0,12174.8,2237.21,-113.712,-213.471,-71.1401,10942.9,-2936.72,909.297,-13.6346,-16.7669,14.0836
4.1895,4314.97,257.984,10767.8,4.39121,-143.284,21.8262,27934.2,-11613.4,-9898.95,-28.7781,81.8494,80.9113,-887.934,11886.0,-3437.27,-29.8025,-30.0425,-113.843,-26609.6,-3002.31,-3183.01,-1.60521,-113.937,-52.1827,3496.34,10275.6,-908.71,-22.0519,-8.63434,-33.756,-20127.1,11931.1,2096.55,-110.337,-210.998,-68.4318,10984.5,-2841.46,934.574,-12.2373,-16.3765,13.4837
4.19,4317.75,211.817,10779.2,3.93164,-144.393,21.4286,27952.3,-12033.5,-9801.08,-22.4824,81.819,84.86,-896.617,11880.4,-3488.77,-29.7654,-30.5259,-114.138,-26726.9,-2884.62,-2761.99,-1.59508,-119.654,-48.097,3477.55,10327.2,-859.958,-22.3027,-8.23741,-33.3961,-20167.3,11687.4,1955.9,-106.963,-208.525,-65.7236,11026.0,-2746.2,959.851,-10.84,-15.9862,12.8838
4.1905,4320.53,165.65,10790.5,3.47207,-145.503,21.0311,27970.5,-12453.5,-9703.22,-16.1867,81.7886,88.8088,-905.3,11874.8,-3540.27,-29.7283,-31.0093,-114.433,-26844.1,-2766.93,-2340.98,-1.58495,-125.371,-44.0113,3458.76,10378.8,-811.206,-22.5534,-7.84048,-33.0363,-20207.5,11443.7,1815.24,-103.588,-206.051,-63.0153,11067.5,-2650.94,985.127,-9.44266,-15.5958,12.2839
4.191,4323.31,119.483,10801.9,3.01249,-146.612,20.6335,27988.6,-12873.6,-9605.35,-9.89091,81.7582,92.7575,-913.983,11869.2,-3591.77,-29.6911,-31.4927,-114.728,-26961.4,-2649.23,-1919.96,-1.57483,-131.088,-39.9256,3439.97,10430.4,-762.455,-22.8042,-7.44356,-32.6764,-20247.7,11200.0,1674.58,-100.213,-203.578,-60.307,11109.1,-2555.68,1010.4,-8.04535,-15.2055,11.684
4.1915,4326.13,90.8093,10813.7,2.5159,-147.715,20.1366,27972.5,-12977.4,-9525.14,-3.75709,81.3916,96.3484,-913.347,11877.7,-3631.66,-29.7444,-31.8974,-115.104,-26987.2,-2638.32,-1668.62,-2.237,-135.616,-36.3457,3424.44,10486.5,-741.149,-23.0219,-7.1531,-32.4116,-20180.7,10986.5,1624.38,-95.8386,-200.217,-57.7568,11137.2,-2473.55,990.895,-6.75512,-14.6558,11.0942
4.192,4328.97,67.1335,10825.4,2.00873,-148.816,19.6114,27946.6,-12991.0,-9449.97,2.33047,80.9288,99.8372,-910.048,11890.2,-3668.24,-29.8235,-32.2796,-115.502,-26987.0,-2657.92,-1465.76,-3.09126,-139.805,-32.9104,3409.85,10543.8,-727.685,-23.2302,-6.89306,-32.1739,-20083.1,10781.5,1600.02,-91.1785,-196.602,-55.2518,11161.4,-2395.17,958.59,-5.4955,-14.0605,10.5073
4.1925,4331.8,43.4577,10837.2,1.50156,-149.917,19.0862,27920.6,-13004.5,-9374.8,8.41802,80.4661,103.326,-906.749,11902.7,-3704.82,-29.9025,-32.6618,-115.901,-26986.7,-2677.52,-1262.89,-3.94552,-143.994,-29.4751,3395.25,10601.2,-714.221,-23.4385,-6.63302,-31.9363,-19985.5,10576.6,1575.67,-86.5183,-192.986,-52.7468,11185.6,-2316.78,926.285,-4.23587,-13.4652,9.92037
4.193,4334.64,19.7819,10849.0,0.99439,-151.018,18.561,27894.7,-13018.0,-9299.63,14.5056,80.0033,106.815,-903.45,11915.2,-3741.4,-29.9816,-33.044,-116.299,-26986.4,-2697.12,-1060.03,-4.79977,-148.183,-26.0399,3380.65,10658.5,-700.758,-23.6468,-6.37298,-31.6986,-19887.9,10371.6,1551.31,-81.8582,-189.371,-50.2418,11209.8,-2238.4,893.98,-2.97625,-12.8699,9.33345
4.1935,4337.47,-3.89395,10860.8,0.48722,-152.119,18.0357,27868.8,-13031.6,-9224.46,20.5931,79.5406,110.303,-900.151,11927.7,-3777.97,-30.0606,-33.4262,-116.698,-26986.1,-2716.72,-857.168,-5.65403,-152.371,-22.6046,3366.05,10715.9,-687.294,-23.8551,-6.11294,-31.4609,-19790.2,10166.7,1526.95,-77.1981,-185.756,-47.7367,11234.0,-2160.02,861.675,-1.71662,-12.2747,8.74653
4.194,4340.3,-27.5698,10872.6,-0.0199502,-153.22,17.5105,27842.8,-13045.1,-9149.29,26.6807,79.0779,113.792,-896.852,11940.2,-3814.55,-30.1397,-33.8084,-117.097,-26985.8,-2736.32,-654.306,-6.50829,-156.56,-19.1693,3351.46,10773.2,-673.83,-24.0634,-5.8529,-31.2232,-19692.6,9961.72,1502.6,-72.5379,-182.14,-45.2317,11258.2,-2081.64,829.37,-0.456993,-11.6794,8.15961
4.1945,4343.14,-51.2456,10884.4,-0.52712,-154.322,16.9853,27816.9,-13058.7,-9074.12,32.7682,78.6151,117.281,-893.553,11952.7,-3851.13,-30.2188,-34.1906,-117.495,-26985.6,-2755.92,-451.443,-7.36255,-160.749,-15.734,3336.86,10830.6,-660.366,-24.2717,-5.59286,-30.9856,-19595.0,9756.78,1478.24,-67.8778,-178.525,-42.7267,11282.5,-2003.26,797.065,0.802634,-11.0841,7.57269
4.195,4345.97,-74.9214,10896.2,-1.03429,-155.423,16.46,27791.0,-13072.2,-8998.95,38.8558,78.1524,120.769,-890.254,11965.2,-3887.71,-30.2978,-34.5728,-117.894,-26985.3,-2775.52,-248.58,-8.21681,-164.938,-12.2987,3322.26,10888.0,-646.902,-24.48,-5.33282,-30.7479,-19497.4,9551.83,1453.89,-63.2177,-174.91,-40.2217,11306.7,-1924.87,764.76,2.06226,-10.4888,6.98577
4.1955,4348.81,-98.5972,10908.0,-1.54146,-156.524,15.9348,27765.0,-13085.7,-8923.77,44.9434,77.6896,124.258,-886.956,11977.7,-3924.29,-30.3769,-34.955,-118.293,-26985.0,-2795.12,-45.7168,-9.07107,-169.127,-8.86338,3307.67,10945.3,-633.439,-24.6883,-5.07279,-30.5102,-19399.8,9346.88,1429.53,-58.5575,-171.295,-37.7167,11330.9,-1846.49,732.455,3.32189,-9.89355,6.39885
4.196,4357.56,-96.7342,10912.5,-2.09325,-157.656,15.3826,27710.7,-12805.2,-8952.96,49.9535,76.9004,126.986,-883.435,11996.9,-3914.24,-30.4013,-35.278,-118.79,-26831.8,-2870.65,-80.0964,-10.2448,-171.176,-5.77484,3279.3,10980.8,-635.173,-24.8493,-4.77843,-30.3731,-19131.4,9283.26,1456.94,-55.1452,-168.229,-36.4517,11337.4,-1745.87,674.463,4.57467,-9.47145,5.84837
4.1965,4367.05,-91.6789,10916.2,-2.65061,-158.793,14.8271,27652.7,-12487.8,-8995.19,54.829,76.0704,129.62,-879.886,12016.9,-3898.37,-30.4189,-35.5936,-119.301,-26659.4,-2953.17,-144.131,-11.4585,-172.958,-2.72963,3249.22,11013.5,-638.807,-25.0043,-4.47979,-30.2486,-18841.7,9237.3,1490.81,-51.8889,-165.232,-35.3417,11341.6,-1642.47,613.259,5.8266,-9.071,5.30245
4.197,4376.55,-86.6236,10919.8,-3.20797,-159.929,14.2716,27594.8,-12170.5,-9037.42,59.7045,75.2404,132.253,-876.338,12037.0,-3882.49,-30.4364,-35.9092,-119.811,-26487.1,-3035.69,-208.166,-12.6721,-174.74,0.315571,3219.14,11046.2,-642.441,-25.1593,-4.18114,-30.124,-18552.0,9191.34,1524.69,-48.6325,-162.236,-34.2318,11345.9,-1539.07,552.056,7.07852,-8.67055,4.75653
4.1975,4386.04,-81.5682,10923.4,-3.76533,-161.065,13.716,27536.8,-11853.1,-9079.65,64.58,74.4104,134.886,-872.789,12057.0,-3866.62,-30.454,-36.2248,-120.321,-26314.7,-3118.21,-272.201,-13.8858,-176.522,3.36078,3189.06,11078.9,-646.076,-25.3144,-3.8825,-29.9995,-18262.3,9145.38,1558.56,-45.3762,-159.239,-33.1218,11350.2,-1435.67,490.852,8.33045,-8.2701,4.21061
4.198,4395.53,-76.5129,10927.0,-4.32269,-162.202,13.1605,27478.9,-11535.8,-9121.88,69.4554,73.5804,137.519,-869.241,12077.0,-3850.75,-30.4716,-36.5404,-120.831,-26142.4,-3200.73,-336.236,-15.0995,-178.304,6.40598,3158.97,11111.6,-649.71,-25.4694,-3.58385,-29.8749,-17972.6,9099.42,1592.44,-42.1199,-156.242,-32.0118,11354.4,-1332.28,429.649,9.58238,-7.86965,3.66469
4.1985,4405.03,-71.4576,10930.7,-4.88006,-163.338,12.6049,27420.9,-11218.4,-9164.12,74.3309,72.7504,140.152,-865.692,12097.0,-3834.88,-30.4891,-36.856,-121.342,-25970.0,-3283.26,-400.271,-16.3131,-180.086,9.45118,3128.89,11144.3,-653.344,-25.6244,-3.28521,-29.7504,-17682.8,9053.46,1626.31,-38.8635,-153.246,-30.9019,11358.7,-1228.88,368.445,10.8343,-7.4692,3.11877
4.199,4414.52,-66.4022,10934.3,-5.43742,-164.474,12.0494,27363.0,-10901.1,-9206.35,79.2064,71.9204,142.785,-862.144,12117.1,-3819.0,-30.5067,-37.1716,-121.852,-25797.7,-3365.78,-464.306,-17.5268,-181.868,12.4964,3098.81,11177.0,-656.978,-25.7794,-2.98656,-29.6258,-17393.1,9007.5,1660.18,-35.6072,-150.249,-29.7919,11363.0,-1125.48,307.242,12.0862,-7.06875,2.57285
4.1995,4424.01,-61.3469,10937.9,-5.99478,-165.611,11.4939,27305.0,-10583.8,-9248.58,84.0819,71.0904,145.419,-858.595,12137.1,-3803.13,-30.5243,-37.4872,-122.362,-25625.4,-3448.3,-528.341,-18.7405,-183.65,15.5416,3068.73,11209.8,-660.612,-25.9345,-2.68792,-29.5013,-17103.4,8961.54,1694.06,-32.3508,-147.253,-28.6819,11367.2,-1022.08,246.038,13.3382,-6.6683,2.02693
4.2,4433.51,-56.2915,10941.5,-6.55214,-166.747,10.9383,27247.1,-10266.4,-9290.81,88.9574,70.2604,148.052,-855.047,12157.1,-3787.26,-30.5419,-37.8028,-122.872,-25453.0,-3530.82,-592.376,-19.9541,-185.432,18.5868,3038.64,11242.5,-664.247,-26.0895,-2.38928,-29.3767,-16813.7,8915.58,1727.93,-29.0945,-144.256,-27.572,11371.5,-918.678,184.835,14.5901,-6.26784,1.48101
4.2005,4443.03,-19.5148,10921.2,-7.11775,-167.883,10.4478,27100.7,-9821.41,-9295.66,92.5586,68.8955,150.224,-869.497,12158.8,-3765.4,-30.5588,-38.174,-123.279,-25167.9,-3668.09,-660.857,-21.1161,-185.348,21.6603,3016.82,11246.9,-652.703,-26.2434,-2.35289,-29.3088,-16455.2,8903.93,1763.62,-27.4683,-143.331,-27.9504,11389.1,-819.615,140.599,15.1378,-6.44104,1.25902
4.201,4452.56,17.262,10900.9,-7.68336,-169.018,9.95725,26954.3,-9376.4,-9300.5,96.1598,67.5305,152.396,-883.947,12160.5,-3743.54,-30.5757,-38.5452,-123.685,-24882.7,-3805.36,-729.339,-22.2781,-185.264,24.7338,2995.0,11251.3,-641.159,-26.3974,-2.3165,-29.2408,-16096.6,8892.29,1799.31,-25.842,-142.407,-28.3289,11406.7,-720.553,96.3637,15.6855,-6.61423,1.03703
4.2015,4462.09,54.0387,10880.6,-8.24897,-170.154,9.46671,26808.0,-8931.4,-9305.35,99.761,66.1656,154.568,-898.397,12162.2,-3721.68,-30.5926,-38.9163,-124.092,-24597.6,-3942.63,-797.821,-23.4401,-185.18,27.8073,2973.17,11255.7,-629.615,-26.5513,-2.28011,-29.1728,-15738.1,8880.64,1835.0,-24.2158,-141.482,-28.7074,11424.4,-621.491,52.128,16.2332,-6.78742,0.815035
4.202,4471.62,90.8155,10860.3,-8.81458,-171.29,8.97617,26661.6,-8486.39,-9310.2,103.362,64.8007,156.741,-912.847,12163.9,-3699.82,-30.6096,-39.2875,-124.498,-24312.4,-4079.9,-866.302,-24.602,-185.096,30.8808,2951.35,11260.1,-618.071,-26.7053,-2.24372,-29.1049,-15379.6,8869.0,1870.69,-22.5895,-140.558,-29.0859,11442.0,-522.428,7.89241,16.7809,-6.96061,0.593043
4.2025,4481.14,127.592,10839.9,-9.38018,-172.425,8.48563,26515.2,-8041.39,-9315.05,106.963,63.4357,158.913,-927.297,12165.6,-3677.96,-30.6265,-39.6587,-124.905,-24027.3,-4217.17,-934.784,-25.764,-185.013,33.9543,2929.53,11264.6,-606.527,-26.8592,-2.20733,-29.0369,-15021.1,8857.35,1906.38,-20.9633,-139.633,-29.4644,11459.6,-423.366,-36.3432,17.3286,-7.1338,0.371051
4.203,4490.67,164.369,10819.6,-9.94579,-173.561,7.99509,26368.9,-7596.38,-9319.9,110.565,62.0708,161.085,-941.747,12167.3,-3656.1,-30.6434,-40.0299,-125.311,-23742.2,-4354.44,-1003.27,-26.926,-184.929,37.0279,2907.7,11269.0,-594.983,-27.0132,-2.17094,-28.9689,-14662.6,8845.71,1942.07,-19.337,-138.708,-29.8428,11477.2,-324.304,-80.5788,17.8762,-7.30699,0.149058
4.2035,4500.2,201.146,10799.3,-10.5114,-174.697,7.50455,26222.5,-7151.38,-9324.75,114.166,60.7059,163.257,-956.197,12169.0,-3634.24,-30.6604,-40.4011,-125.718,-23457.0,-4491.7,-1071.75,-28.0879,-184.845,40.1014,2885.88,11273.4,-583.44,-27.1671,-2.13455,-28.901,-14304.0,8834.06,1977.76,-17.7108,-137.784,-30.2213,11494.8,-225.241,-124.814,18.4239,-7.48018,-0.072934
4.204,4509.73,237.923,10779.0,-11.077,-175.832,7.01401,26076.2,-6706.37,-9329.6,117.767,59.3409,165.43,-970.647,12170.7,-3612.39,-30.6773,-40.7722,-126.124,-23171.9,-4628.97,-1140.23,-29.2499,-184.761,43.1749,2864.06,11277.8,-571.896,-27.3211,-2.09816,-28.833,-13945.5,8822.41,2013.45,-16.0845,-136.859,-30.5998,11512.5,-126.179,-169.05,18.9716,-7.65337,-0.294926
4.2045,4519.37,276.289,10760.3,-11.6378,-176.961,6.53562,25915.2,-6277.3,-9328.65,121.245,57.8987,167.528,-986.101,12173.0,-3587.03,-30.6914,-41.157,-126.524,-22881.6,-4775.77,-1197.39,-30.3533,-184.597,46.2564,2840.9,11279.4,-560.58,-27.4641,-2.07898,-28.7701,-13579.3,8801.94,2034.67,-14.4751,-136.011,-31.0618,11525.8,-29.9874,-213.073,19.4505,-7.8719,-0.514731
4.205,4529.98,327.375,10754.6,-12.1597,-178.035,6.15442,25637.6,-5975.71,-9281.34,123.736,55.8383,169.036,-1009.59,12180.1,-3533.71,-30.6828,-41.6499,-126.874,-22549.8,-4998.83,-1163.96,-30.9878,-183.788,49.4017,2807.09,11258.8,-551.087,-27.5199,-2.19747,-28.7474,-13151.1,8710.85,1940.11,-12.9998,-135.779,-32.1922,11505.0,43.2383,-255.394,19.3785,-8.45308,-0.717031
4.2055,4540.58,378.46,10748.9,-12.6815,-179.109,5.77322,25360.0,-5674.12,-9234.03,126.227,53.7778,170.543,-1033.07,12187.1,-3480.4,-30.6742,-42.1429,-127.223,-22218.0,-5221.88,-1130.53,-31.6224,-182.978,52.5471,2773.29,11238.2,-541.594,-27.5757,-2.31596,-28.7248,-12722.9,8619.75,1845.56,-11.5245,-135.546,-33.3226,11484.2,116.464,-297.714,19.3066,-9.03427,-0.919332
4.206,4551.18,429.545,10743.2,-13.2034,-180.182,5.39202,25082.4,-5372.53,-9186.72,128.718,51.7174,172.051,-1056.56,12194.2,-3427.08,-30.6656,-42.6359,-127.573,-21886.2,-5444.94,-1097.1,-32.257,-182.169,55.6925,2739.48,11217.5,-532.101,-27.6315,-2.43446,-28.7021,-12294.8,8528.66,1751.0,-10.0492,-135.313,-34.453,11463.4,189.69,-340.035,19.2346,-9.61546,-1.12163
4.2065,4561.78,480.631,10737.5,-13.7253,-181.256,5.01082,24804.8,-5070.94,-9139.41,131.209,49.657,173.559,-1080.04,12201.2,-3373.76,-30.657,-43.1289,-127.922,-21554.4,-5667.99,-1063.67,-32.8915,-181.36,58.8379,2705.68,11196.9,-522.608,-27.6873,-2.55295,-28.6795,-11866.6,8437.57,1656.44,-8.57393,-135.08,-35.5834,11442.6,262.915,-382.355,19.1627,-10.1967,-1.32393
4.207,4572.38,531.716,10731.8,-14.2472,-182.33,4.62961,24527.2,-4769.35,-9092.1,133.7,47.5965,175.066,-1103.53,12208.3,-3320.44,-30.6483,-43.6219,-128.272,-21222.6,-5891.05,-1030.23,-33.5261,-180.55,61.9833,2671.87,11176.3,-513.115,-27.7431,-2.67144,-28.6569,-11438.5,8346.47,1561.89,-7.09864,-134.847,-36.7138,11421.7,336.141,-424.676,19.0907,-10.7778,-1.52623
4.2075,4582.98,582.802,10726.1,-14.7691,-183.404,4.24841,24249.6,-4467.76,-9044.79,136.191,45.5361,176.574,-1127.01,12215.3,-3267.12,-30.6397,-44.1149,-128.621,-20890.8,-6114.1,-996.804,-34.1607,-179.741,65.1287,2638.06,11155.6,-503.622,-27.7989,-2.78993,-28.6342,-11010.3,8255.38,1467.33,-5.62336,-134.614,-37.8442,11400.9,409.367,-466.997,19.0188,-11.359,-1.72853
4.208,4593.59,633.887,10720.4,-15.291,-184.478,3.86721,23972.0,-4166.18,-8997.48,138.682,43.4757,178.082,-1150.5,12222.3,-3213.81,-30.6311,-44.6079,-128.971,-20559.0,-6337.16,-963.374,-34.7952,-178.932,68.2741,2604.26,11135.0,-494.129,-27.8547,-2.90842,-28.6116,-10582.1,8164.29,1372.78,-4.14808,-134.381,-38.9746,11380.1,482.593,-509.317,18.9468,-11.9402,-1.93083
4.2085,4604.19,684.972,10714.7,-15.8129,-185.552,3.48601,23694.3,-3864.59,-8950.17,141.173,41.4152,179.589,-1173.98,12229.4,-3160.49,-30.6225,-45.1008,-129.32,-20227.2,-6560.21,-929.944,-35.4298,-178.122,71.4194,2570.45,11114.4,-484.636,-27.9105,-3.02692,-28.5889,-10154.0,8073.19,1278.22,-2.6728,-134.149,-40.105,11359.3,555.818,-551.638,18.8749,-12.5214,-2.13314
4.209,4615.47,734.736,10708.2,-16.3487,-186.618,3.13263,23415.1,-3604.68,-8883.88,143.208,39.2098,180.9,-1196.76,12239.9,-3107.74,-30.5949,-45.6536,-129.634,-19880.5,-6793.16,-871.062,-35.8298,-177.268,74.4395,2535.67,11089.2,-476.349,-27.9584,-3.19069,-28.6095,-9742.71,7979.15,1177.27,-1.1405,-133.652,-41.2171,11345.8,627.901,-589.319,18.7702,-13.1653,-2.32428
4.2095,4629.12,779.872,10698.9,-16.933,-187.66,2.87662,23129.9,-3490.68,-8751.15,143.648,36.4971,181.523,-1217.09,12262.7,-3056.96,-30.5008,-46.4154,-129.823,-19481.7,-7060.74,-723.102,-35.4087,-176.256,77.0208,2497.46,11048.1,-472.286,-27.9788,-3.51294,-28.7811,-9390.51,7874.75,1053.97,0.591391,-132.233,-42.2655,11358.0,695.981,-610.76,18.5508,-14.0285,-2.4764
4.21,4642.77,825.009,10689.7,-17.5174,-188.702,2.62061,22844.8,-3376.67,-8618.42,144.087,33.7844,182.145,-1237.42,12285.5,-3006.18,-30.4067,-47.1771,-130.012,-19082.9,-7328.32,-575.141,-34.9877,-175.245,79.6021,2459.26,11007.0,-468.223,-27.9992,-3.8352,-28.9528,-9038.3,7770.35,930.671,2.32328,-130.815,-43.3138,11370.3,764.062,-632.201,18.3315,-14.8917,-2.62852
4.2105,4656.42,870.145,10680.4,-18.1017,-189.744,2.3646,22559.7,-3262.67,-8485.69,144.526,31.0716,182.767,-1257.74,12308.3,-2955.41,-30.3125,-47.9389,-130.2,-18684.2,-7595.9,-427.181,-34.5667,-174.233,82.1834,2421.05,10965.9,-464.16,-28.0195,-4.15745,-29.1244,-8686.1,7665.96,807.369,4.05516,-129.396,-44.3622,11382.5,832.142,-653.642,18.1121,-15.755,-2.78064
4.211,4670.08,915.282,10671.2,-18.686,-190.786,2.10859,22274.6,-3148.66,-8352.95,144.966,28.3589,183.39,-1278.07,12331.1,-2904.63,-30.2184,-48.7007,-130.389,-18285.4,-7863.48,-279.221,-34.1456,-173.222,84.7647,2382.84,10924.8,-460.097,-28.0399,-4.47971,-29.2961,-8333.9,7561.56,684.067,5.78705,-127.977,-45.4105,11394.7,900.222,-675.083,17.8928,-16.6182,-2.93276
4.2115,4683.73,960.418,10661.9,-19.2704,-191.828,1.85259,21989.5,-3034.66,-8220.22,145.405,25.6462,184.012,-1298.4,12353.9,-2853.85,-30.1243,-49.4625,-130.578,-17886.6,-8131.06,-131.261,-33.7246,-172.21,87.346,2344.64,10883.6,-456.034,-28.0603,-4.80196,-29.4677,-7981.7,7457.17,560.766,7.51894,-126.558,-46.4588,11406.9,968.303,-696.524,17.6734,-17.4815,-3.08488
4.212,4697.38,1005.55,10652.7,-19.8547,-192.87,1.59658,21704.3,-2920.66,-8087.49,145.845,22.9335,184.634,-1318.72,12376.7,-2803.08,-30.0301,-50.2243,-130.767,-17487.8,-8398.63,16.6996,-33.3035,-171.199,89.9273,2306.43,10842.5,-451.971,-28.0806,-5.12422,-29.6394,-7629.49,7352.77,437.464,9.25082,-125.139,-47.5072,11419.1,1036.38,-717.965,17.454,-18.3447,-3.237
4.2125,4711.03,1050.69,10643.4,-20.439,-193.912,1.34057,21419.2,-2806.65,-7954.76,146.284,20.2207,185.257,-1339.05,12399.5,-2752.3,-29.936,-50.9861,-130.956,-17089.0,-8666.21,164.66,-32.8825,-170.187,92.5085,2268.23,10801.4,-447.908,-28.101,-5.44647,-29.811,-7277.29,7248.37,314.162,10.9827,-123.721,-48.5555,11431.4,1104.46,-739.406,17.2347,-19.2079,-3.38912
4.213,4724.69,1095.83,10634.1,-21.0234,-194.954,1.08456,21134.1,-2692.65,-7822.03,146.723,17.508,185.879,-1359.37,12422.2,-2701.52,-29.8419,-51.7479,-131.145,-16690.3,-8933.79,312.62,-32.4614,-169.176,95.0898,2230.02,10760.3,-443.845,-28.1214,-5.76873,-29.9827,-6925.09,7143.98,190.861,12.7146,-122.302,-49.6039,11443.6,1172.54,-760.847,17.0153,-20.0712,-3.54124
4.2135,4733.17,1135.69,10622.5,-21.6264,-195.98,0.861336,20864.3,-2599.34,-7694.26,146.512,14.8118,186.255,-1374.55,12443.1,-2653.67,-29.7734,-52.5561,-131.309,-16298.0,-9187.17,450.185,-31.819,-167.952,97.5272,2189.03,10720.5,-431.654,-28.1874,-6.22067,-30.1647,-6596.79,7050.96,68.891,14.3988,-120.065,-50.4593,11456.2,1227.11,-778.035,16.7598,-20.8917,-3.68118
4.214,4731.32,1165.0,10606.2,-22.2671,-196.974,0.703675,20625.2,-2547.43,-7576.42,144.999,12.1486,186.137,-1379.43,12460.2,-2611.67,-29.7564,-53.457,-131.427,-15918.9,-9412.13,566.96,-30.7337,-166.305,99.6767,2142.45,10683.3,-403.205,-28.3447,-6.93201,-30.3674,-6316.28,6980.71,-50.4146,15.9877,-116.192,-50.9287,11469.7,1254.63,-786.717,16.4321,-21.6267,-3.79676
4.2145,4729.46,1194.31,10589.8,-22.9077,-197.968,0.546014,20386.1,-2495.52,-7458.58,143.486,9.48533,186.019,-1384.3,12477.2,-2569.66,-29.7394,-54.358,-131.544,-15539.8,-9637.1,683.735,-29.6485,-164.657,101.826,2095.87,10646.1,-374.757,-28.5021,-7.64334,-30.5701,-6035.77,6910.45,-169.72,17.5765,-112.32,-51.3981,11483.2,1282.16,-795.4,16.1043,-22.3617,-3.91235
