Time,RFoot_accel.x,RFoot_accel.y,RFoot_accel.z,RFoot_gyro.x,RFoot_gyro.y,RFoot_gyro.z,LFoot_accel.x,LFoot_accel.y,LFoot_accel.z,LFoot_gyro.x,LFoot_gyro.y,LFoot_gyro.z,RShank_accel.x,RShank_accel.y,RShank_accel.z,RShank_gyro.x,RShank_gyro.y,RShank_gyro.z,LShank_accel.x,LShank_accel.y,LShank_accel.z,LShank_gyro.x,LShank_gyro.y,LShank_gyro.z,RThigh_accel.x,RThigh_accel.y,RThigh_accel.z,RThigh_gyro.x,RThigh_gyro.y,RThigh_gyro.z,LThigh_accel.x,LThigh_accel.y,LThigh_accel.z,LThigh_gyro.x,LThigh_gyro.y,LThigh_gyro.z,Pelvis_accel.x,Pelvis_accel.y,Pelvis_accel.z,Pelvis_gyro.x,Pelvis_gyro.y,Pelvis_gyro.z
3.09,5170.93,1430.22,7917.31,-14.0312,-98.3943,-16.7797,14894.0,-3843.26,20669.6,85.1737,324.096,-274.845,433.796,10048.5,-432.35,-33.0766,-48.875,-67.1322,-842.619,-22007.3,-1832.91,-120.434,150.19,-385.573,2285.55,9366.71,-3596.89,-8.02117,-122.302,-70.2379,8638.99,4764.06,-5122.17,-35.8798,13.507,-107.924,6187.04,-1472.8,1245.72,-70.5715,14.3406,-14.8387
3.0905,5193.18,1469.76,7924.05,-13.9032,-98.3887,-16.8238,15009.3,-4488.93,20814.1,87.4026,324.248,-276.171,393.342,10078.9,-380.446,-33.3045,-48.561,-67.4031,-972.759,-22061.7,-1790.86,-120.323,151.224,-385.631,2285.41,9377.48,-3642.22,-8.2343,-120.215,-70.4927,8693.36,4827.55,-5129.3,-36.3435,16.4882,-107.441,6226.12,-1442.31,1245.25,-70.0368,14.3588,-15.0213
3.091,5215.43,1509.3,7930.8,-13.7752,-98.383,-16.8679,15124.6,-5134.61,20958.6,89.6315,324.399,-277.497,352.888,10109.4,-328.543,-33.5324,-48.247,-67.6741,-1102.9,-22116.1,-1748.82,-120.213,152.257,-385.689,2285.27,9388.24,-3687.55,-8.44742,-118.129,-70.7475,8747.72,4891.03,-5136.44,-36.8072,19.4695,-106.958,6265.21,-1411.81,1244.78,-69.5022,14.377,-15.2039
3.0915,5237.69,1548.84,7937.54,-13.6471,-98.3774,-16.9119,15239.9,-5780.29,21103.1,91.8604,324.55,-278.823,312.435,10139.8,-276.639,-33.7603,-47.933,-67.945,-1233.04,-22170.5,-1706.78,-120.103,153.29,-385.748,2285.13,9399.01,-3732.88,-8.66055,-116.043,-71.0023,8802.09,4954.51,-5143.57,-37.2709,22.4508,-106.475,6304.29,-1381.32,1244.31,-68.9676,14.3951,-15.3865
3.092,5259.94,1588.38,7944.28,-13.5191,-98.3718,-16.956,15355.2,-6425.97,21247.6,94.0893,324.702,-280.149,271.981,10170.2,-224.736,-33.9882,-47.6189,-68.216,-1363.18,-22224.9,-1664.74,-119.992,154.324,-385.806,2284.99,9409.78,-3778.21,-8.87368,-113.957,-71.257,8856.45,5018.0,-5150.71,-37.7347,25.4321,-105.992,6343.38,-1350.83,1243.84,-68.433,14.4133,-15.5691
3.0925,5282.19,1627.92,7951.03,-13.3911,-98.3662,-17.0001,15470.5,-7071.65,21392.1,96.3182,324.853,-281.475,231.527,10200.6,-172.833,-34.2161,-47.3049,-68.4869,-1493.32,-22279.4,-1622.7,-119.882,155.357,-385.865,2284.85,9420.54,-3823.53,-9.08681,-111.871,-71.5118,8910.81,5081.48,-5157.84,-38.1984,28.4134,-105.509,6382.46,-1320.33,1243.37,-67.8984,14.4315,-15.7517
3.093,5304.44,1667.46,7957.77,-13.263,-98.3606,-17.0441,15585.8,-7717.33,21536.6,98.5471,325.005,-282.801,191.074,10231.1,-120.929,-34.4439,-46.9909,-68.7579,-1623.46,-22333.8,-1580.66,-119.772,156.39,-385.923,2284.71,9431.31,-3868.86,-9.29993,-109.785,-71.7666,8965.18,5144.96,-5164.98,-38.6621,31.3947,-105.026,6421.54,-1289.84,1242.9,-67.3637,14.4497,-15.9343
3.0935,5319.46,1709.37,7972.82,-13.0745,-98.4055,-17.0514,15727.0,-8246.22,21599.3,100.753,325.338,-283.326,159.624,10266.8,-74.0562,-34.6552,-46.725,-69.019,-1765.47,-22396.0,-1479.02,-119.407,157.243,-385.924,2288.85,9443.81,-3911.4,-9.52232,-107.668,-72.0238,9019.46,5216.92,-5175.69,-39.4736,34.631,-104.588,6474.44,-1258.25,1260.69,-66.7538,14.3389,-16.1294
3.094,5320.01,1756.05,8004.46,-12.7651,-98.5515,-16.9851,15919.9,-8541.53,21498.4,102.912,326.037,-282.251,146.181,10313.4,-37.2442,-34.8333,-46.5552,-69.2604,-1931.21,-22474.0,-1258.19,-118.534,157.735,-385.811,2301.57,9459.75,-3948.34,-9.76323,-105.491,-72.2858,9073.57,5305.82,-5193.56,-40.9804,38.3772,-104.239,6554.98,-1224.48,1315.0,-65.9933,13.9704,-16.3498
3.0945,5320.56,1802.72,8036.1,-12.4557,-98.6974,-16.9187,16112.8,-8836.85,21397.5,105.072,326.735,-281.175,132.738,10359.9,-0.432303,-35.0114,-46.3853,-69.5019,-2096.96,-22551.9,-1037.36,-117.661,158.227,-385.698,2314.28,9475.7,-3985.28,-10.0041,-103.313,-72.5477,9127.68,5394.71,-5211.42,-42.4873,42.1234,-103.891,6635.52,-1190.71,1369.31,-65.2327,13.6018,-16.5701
3.095,5321.1,1849.39,8067.74,-12.1463,-98.8434,-16.8524,16305.7,-9132.16,21296.6,107.231,327.433,-280.1,119.295,10406.4,36.3796,-35.1895,-46.2155,-69.7433,-2262.71,-22629.8,-816.525,-116.788,158.719,-385.584,2327.0,9491.65,-4022.23,-10.245,-101.136,-72.8097,9181.78,5483.61,-5229.29,-43.9941,45.8695,-103.542,6716.05,-1156.94,1423.61,-64.4722,13.2333,-16.7905
3.0955,5321.65,1896.07,8099.38,-11.8368,-98.9893,-16.7861,16498.6,-9427.48,21195.7,109.391,328.132,-279.025,105.852,10453.0,73.1916,-35.3676,-46.0457,-69.9848,-2428.45,-22707.7,-595.694,-115.915,159.211,-385.471,2339.71,9507.59,-4059.17,-10.4859,-98.958,-73.0716,9235.89,5572.51,-5247.16,-45.501,49.6157,-103.193,6796.59,-1123.17,1477.92,-63.7117,12.8648,-17.0108
3.096,5322.2,1942.74,8131.02,-11.5274,-99.1353,-16.7197,16691.5,-9722.79,21094.8,111.55,328.83,-277.949,92.4094,10499.5,110.003,-35.5456,-45.8758,-70.2262,-2594.2,-22785.7,-374.864,-115.041,159.704,-385.357,2352.42,9523.54,-4096.12,-10.7269,-96.7805,-73.3336,9290.0,5661.4,-5265.02,-47.0079,53.3619,-102.844,6877.12,-1089.4,1532.23,-62.9511,12.4962,-17.2312
3.0965,5322.75,1989.41,8162.66,-11.218,-99.2812,-16.6534,16884.4,-10018.1,20993.9,113.71,329.529,-276.874,78.9666,10546.0,146.815,-35.7237,-45.706,-70.4677,-2759.94,-22863.6,-154.033,-114.168,160.196,-385.244,2365.14,9539.49,-4133.06,-10.9678,-94.6029,-73.5955,9344.11,5750.3,-5282.89,-48.5147,57.1081,-102.496,6957.66,-1055.63,1586.54,-62.1906,12.1277,-17.4515
3.097,5323.29,2036.09,8194.3,-10.9086,-99.4272,-16.5871,17077.4,-10313.4,20893.1,115.869,330.227,-275.799,65.5237,10592.6,183.627,-35.9018,-45.5362,-70.7091,-2925.69,-22941.5,66.7981,-113.295,160.688,-385.13,2377.85,9555.44,-4170.01,-11.2087,-92.4253,-73.8575,9398.22,5839.2,-5300.76,-50.0216,60.8543,-102.147,7038.19,-1021.86,1640.85,-61.4301,11.7592,-17.6718
3.0975,5323.84,2082.76,8225.95,-10.5991,-99.5732,-16.5207,17270.3,-10608.7,20792.2,118.029,330.925,-274.723,52.0809,10639.1,220.439,-36.0799,-45.3664,-70.9505,-3091.44,-23019.5,287.629,-112.422,161.18,-385.017,2390.57,9571.38,-4206.95,-11.4496,-90.2477,-74.1194,9452.33,5928.1,-5318.63,-51.5285,64.6005,-101.798,7118.73,-988.093,1695.16,-60.6696,11.3906,-17.8922
3.098,5328.68,2110.85,8240.84,-10.2962,-99.7161,-16.3741,17479.7,-10578.9,20736.2,119.475,331.533,-272.777,33.8763,10676.6,230.274,-36.2804,-45.2143,-71.1591,-3252.64,-23116.6,476.518,-111.55,161.505,-384.806,2411.61,9600.1,-4228.38,-11.689,-88.0923,-74.3919,9480.82,5996.88,-5351.28,-53.1187,68.9588,-101.422,7185.68,-923.282,1740.1,-60.0436,10.8164,-17.9339
3.0985,5338.89,2115.7,8234.81,-10.0015,-99.8553,-16.127,17709.7,-10142.8,20736.5,120.031,332.028,-269.742,9.71946,10702.7,206.388,-36.5089,-45.0843,-71.3267,-3408.16,-23237.7,625.48,-110.679,161.621,-384.474,2443.08,9644.77,-4230.42,-11.9267,-85.9647,-74.6777,9477.28,6040.51,-5402.42,-54.8133,74.0821,-101.011,7235.67,-819.669,1773.33,-59.5859,9.98506,-17.7523
3.099,5349.1,2120.56,8228.78,-9.70679,-99.9946,-15.8799,17939.7,-9706.57,20736.8,120.586,332.523,-266.707,-14.4374,10728.7,182.501,-36.7373,-44.9544,-71.4942,-3563.68,-23358.8,774.441,-109.808,161.737,-384.142,2474.54,9689.45,-4232.46,-12.1643,-83.8371,-74.9634,9473.74,6084.14,-5453.56,-56.5079,79.2055,-100.599,7285.65,-716.056,1806.56,-59.1283,9.15371,-17.5708
3.0995,5359.31,2125.41,8222.74,-9.41206,-100.134,-15.6329,18169.7,-9270.39,20737.1,121.142,333.017,-263.672,-38.5942,10754.8,158.615,-36.9658,-44.8244,-71.6617,-3719.21,-23479.9,923.403,-108.937,161.854,-383.81,2506.01,9734.12,-4234.5,-12.4019,-81.7095,-75.2492,9470.2,6127.78,-5504.71,-58.2024,84.3289,-100.188,7335.63,-612.444,1839.79,-58.6706,8.32236,-17.3892
3.1,5369.52,2130.26,8216.71,-9.11733,-100.273,-15.3858,18399.8,-8834.2,20737.4,121.698,333.512,-260.637,-62.751,10780.9,134.729,-37.1943,-44.6945,-71.8292,-3874.73,-23601.0,1072.36,-108.066,161.97,-383.478,2537.48,9778.8,-4236.54,-12.6395,-79.5819,-75.535,9466.66,6171.41,-5555.85,-59.897,89.4523,-99.7769,7385.61,-508.831,1873.03,-58.2129,7.49101,-17.2076
3.1005,5379.72,2135.12,8210.67,-8.82261,-100.412,-15.1387,18629.8,-8398.02,20737.6,122.253,334.007,-257.602,-86.9078,10807.0,110.842,-37.4228,-44.5645,-71.9968,-4030.25,-23722.2,1221.33,-107.195,162.086,-383.146,2568.94,9823.47,-4238.58,-12.8772,-77.4543,-75.8207,9463.12,6215.05,-5606.99,-61.5915,94.5756,-99.3656,7435.59,-405.219,1906.26,-57.7552,6.65966,-17.0261
3.101,5389.93,2139.97,8204.64,-8.52788,-100.552,-14.8916,18859.8,-7961.83,20737.9,122.809,334.501,-254.567,-111.065,10833.1,86.9559,-37.6513,-44.4346,-72.1643,-4185.77,-23843.3,1370.29,-106.324,162.202,-382.814,2600.41,9868.15,-4240.62,-13.1148,-75.3267,-76.1065,9459.58,6258.68,-5658.13,-63.2861,99.699,-98.9544,7485.57,-301.606,1939.49,-57.2975,5.82832,-16.8445
3.1015,5400.14,2144.82,8198.6,-8.23315,-100.691,-14.6446,19089.8,-7525.65,20738.2,123.364,334.996,-251.532,-135.221,10859.2,63.0695,-37.8798,-44.3046,-72.3318,-4341.29,-23964.4,1519.25,-105.453,162.318,-382.482,2631.87,9912.83,-4242.65,-13.3524,-73.1991,-76.3922,9456.04,6302.31,-5709.27,-64.9806,104.822,-98.5432,7535.55,-197.993,1972.73,-56.8399,4.99697,-16.6629
3.102,5410.35,2149.68,8192.57,-7.93842,-100.83,-14.3975,19319.8,-7089.46,20738.5,123.92,335.49,-248.496,-159.378,10885.3,39.1831,-38.1082,-44.1747,-72.4994,-4496.82,-24085.5,1668.21,-104.582,162.434,-382.15,2663.34,9957.5,-4244.69,-13.59,-71.0715,-76.678,9452.5,6345.95,-5760.42,-66.6752,109.946,-98.1319,7585.53,-94.3808,2005.96,-56.3822,4.16562,-16.4813
3.1025,5415.95,2135.09,8189.69,-7.73377,-100.998,-14.2102,19547.3,-6624.16,20770.3,123.761,335.798,-246.166,-172.904,10911.5,27.3104,-38.3578,-44.1603,-72.5749,-4632.9,-24215.9,1720.43,-103.889,162.406,-381.865,2713.35,10002.7,-4241.14,-13.8269,-69.0769,-76.8534,9399.12,6348.52,-5774.0,-67.8401,114.801,-97.5536,7608.62,-27.7448,2057.38,-56.126,3.05514,-16.1778
3.103,5417.85,2104.94,8189.32,-7.60118,-101.19,-14.0706,19772.6,-6135.57,20827.5,123.031,335.955,-244.398,-177.924,10937.6,25.0487,-38.6242,-44.2385,-72.5767,-4753.42,-24353.6,1695.26,-103.338,162.263,-381.617,2778.2,10048.2,-4233.12,-14.0631,-67.1887,-76.9405,9305.88,6318.24,-5757.54,-68.5813,119.441,-96.8417,7610.21,9.30989,2123.35,-56.0311,1.72136,-15.7767
3.1035,5419.76,2074.79,8188.96,-7.4686,-101.382,-13.9311,19998.0,-5646.97,20884.6,122.301,336.112,-242.631,-182.945,10963.8,22.787,-38.8906,-44.3167,-72.5786,-4873.94,-24491.3,1670.09,-102.786,162.12,-381.369,2843.05,10093.8,-4225.1,-14.2992,-65.3004,-77.0276,9212.63,6287.97,-5741.08,-69.3226,124.081,-96.1298,7611.8,46.3646,2189.32,-55.9362,0.387576,-15.3756
3.104,5421.67,2044.64,8188.59,-7.33601,-101.574,-13.7916,20223.3,-5158.38,20941.7,121.571,336.269,-240.864,-187.965,10990.0,20.5252,-39.157,-44.3949,-72.5804,-4994.46,-24629.1,1644.92,-102.235,161.976,-381.122,2907.9,10139.3,-4217.08,-14.5354,-63.4121,-77.1147,9119.39,6257.69,-5724.62,-70.0638,128.721,-95.4179,7613.38,83.4193,2255.3,-55.8412,-0.946206,-14.9746
3.1045,5423.58,2014.49,8188.23,-7.20342,-101.765,-13.6521,20448.7,-4669.78,20998.9,120.84,336.426,-239.097,-192.985,11016.2,18.2635,-39.4234,-44.4731,-72.5823,-5114.99,-24766.8,1619.75,-101.684,161.833,-380.874,2972.75,10184.9,-4209.06,-14.7716,-61.5239,-77.2018,9026.15,6227.41,-5708.16,-70.805,133.361,-94.706,7614.97,120.474,2321.27,-55.7463,-2.27999,-14.5735
3.105,5425.49,1984.34,8187.87,-7.07083,-101.957,-13.5125,20674.0,-4181.19,21056.0,120.11,336.583,-237.329,-198.006,11042.4,16.0018,-39.6898,-44.5513,-72.5842,-5235.51,-24904.5,1594.58,-101.132,161.69,-380.627,3037.61,10230.4,-4201.04,-15.0078,-59.6356,-77.2889,8932.91,6197.14,-5691.7,-71.5462,138.001,-93.9941,7616.55,157.529,2387.24,-55.6514,-3.61377,-14.1724
3.1055,5427.4,1954.2,8187.5,-6.93824,-102.149,-13.373,20899.4,-3692.6,21113.1,119.38,336.74,-235.562,-203.026,11068.6,13.7401,-39.9562,-44.6295,-72.586,-5356.03,-25042.3,1569.4,-100.581,161.546,-380.379,3102.46,10276.0,-4193.01,-15.244,-57.7474,-77.376,8839.66,6166.86,-5675.24,-72.2875,142.641,-93.2822,7618.14,194.583,2453.21,-55.5564,-4.94755,-13.7713
3.106,5429.31,1924.05,8187.14,-6.80565,-102.341,-13.2335,21124.7,-3204.0,21170.3,118.65,336.897,-233.795,-208.046,11094.8,11.4784,-40.2225,-44.7077,-72.5879,-5476.56,-25180.0,1544.23,-100.03,161.403,-380.131,3167.31,10321.5,-4184.99,-15.4802,-55.8591,-77.4631,8746.42,6136.58,-5658.78,-73.0287,147.281,-92.5702,7619.72,231.638,2519.19,-55.4615,-6.28134,-13.3702
3.1065,5431.22,1893.9,8186.77,-6.67306,-102.532,-13.094,21350.1,-2715.41,21227.4,117.92,337.054,-232.028,-213.067,11120.9,9.21665,-40.4889,-44.7858,-72.5898,-5597.08,-25317.7,1519.06,-99.4781,161.259,-379.884,3232.16,10367.1,-4176.97,-15.7164,-53.9709,-77.5502,8653.18,6106.31,-5642.32,-73.7699,151.921,-91.8583,7621.31,268.693,2585.16,-55.3666,-7.61512,-12.9691
3.107,5435.85,1874.07,8191.85,-6.54906,-102.69,-13.0496,21552.1,-2488.03,21218.8,116.143,337.198,-231.119,-219.109,11128.1,23.6956,-40.7898,-44.8906,-72.5954,-5720.23,-25447.0,1468.41,-98.6113,161.484,-379.569,3300.35,10400.4,-4142.47,-15.9203,-52.2622,-77.5653,8504.52,6036.1,-5501.01,-73.4759,154.103,-91.1496,7625.47,307.918,2609.74,-55.5584,-9.00665,-12.5585
3.1075,5441.85,1859.41,8199.65,-6.42936,-102.83,-13.0528,21742.4,-2391.27,21177.3,113.843,337.337,-230.641,-225.663,11125.8,46.5448,-41.1079,-45.0088,-72.603,-5844.71,-25572.1,1405.03,-97.5866,161.892,-379.221,3370.2,10427.6,-4094.73,-16.1082,-50.6434,-77.5445,8328.17,5945.93,-5297.27,-72.6642,155.056,-90.4424,7630.91,348.229,2613.62,-55.8936,-10.4271,-12.143
3.108,5447.85,1844.74,8207.45,-6.30966,-102.971,-13.056,21932.8,-2294.5,21135.8,111.544,337.475,-230.162,-232.217,11123.5,69.3941,-41.4259,-45.1269,-72.6105,-5969.18,-25697.3,1341.64,-96.5619,162.3,-378.873,3440.05,10454.9,-4046.99,-16.296,-49.0247,-77.5237,8151.81,5855.76,-5093.53,-71.8525,156.009,-89.7352,7636.36,388.54,2617.5,-56.2287,-11.8475,-11.7275
3.1085,5453.85,1830.08,8215.24,-6.18996,-103.111,-13.0592,22123.2,-2197.73,21094.4,109.244,337.613,-229.683,-238.771,11121.2,92.2433,-41.744,-45.245,-72.6181,-6093.65,-25822.4,1278.26,-95.5373,162.708,-378.525,3509.91,10482.1,-3999.25,-16.4838,-47.4059,-77.5028,7975.46,5765.59,-4889.79,-71.0408,156.961,-89.028,7641.8,428.851,2621.39,-56.5639,-13.2679,-11.3121
3.109,5459.85,1815.42,8223.04,-6.07025,-103.251,-13.0624,22313.5,-2100.97,21052.9,106.944,337.752,-229.204,-245.324,11118.8,115.093,-42.0621,-45.3631,-72.6256,-6218.12,-25947.5,1214.87,-94.5126,163.116,-378.177,3579.76,10509.3,-3951.5,-16.6717,-45.7871,-77.482,7799.1,5675.41,-4686.05,-70.2291,157.914,-88.3209,7647.24,469.161,2625.27,-56.8991,-14.6883,-10.8966
3.1095,5465.85,1800.75,8230.84,-5.95055,-103.392,-13.0656,22503.9,-2004.2,21011.4,104.644,337.89,-228.726,-251.878,11116.5,137.942,-42.3802,-45.4812,-72.6332,-6342.59,-26072.6,1151.48,-93.488,163.524,-377.829,3649.61,10536.6,-3903.76,-16.8595,-44.1683,-77.4612,7622.75,5585.24,-4482.31,-69.4174,158.867,-87.6137,7652.69,509.472,2629.15,-57.2343,-16.1087,-10.4811
3.11,5471.85,1786.09,8238.64,-5.83085,-103.532,-13.0688,22694.2,-1907.43,20969.9,102.344,338.029,-228.247,-258.432,11114.2,160.791,-42.6982,-45.5993,-72.6407,-6467.07,-26197.7,1088.1,-92.4633,163.932,-377.481,3719.47,10563.8,-3856.02,-17.0473,-42.5495,-77.4404,7446.39,5495.07,-4278.57,-68.6057,159.819,-86.9065,7658.13,549.783,2633.04,-57.5695,-17.5291,-10.0657
3.1105,5477.85,1771.42,8246.43,-5.71115,-103.672,-13.072,22884.6,-1810.67,20928.4,100.045,338.167,-227.768,-264.985,11111.9,183.64,-43.0163,-45.7174,-72.6483,-6591.54,-26322.8,1024.71,-91.4387,164.34,-377.133,3789.32,10591.0,-3808.28,-17.2352,-40.9307,-77.4196,7270.03,5404.9,-4074.84,-67.794,160.772,-86.1993,7663.58,590.094,2636.92,-57.9047,-18.9495,-9.65018
3.111,5483.85,1756.76,8254.23,-5.59144,-103.813,-13.0752,23074.9,-1713.9,20887.0,97.7448,338.305,-227.289,-271.539,11109.6,206.49,-43.3344,-45.8355,-72.6558,-6716.01,-26447.9,961.325,-90.414,164.748,-376.784,3859.18,10618.3,-3760.54,-17.423,-39.3119,-77.3987,7093.68,5314.73,-3871.1,-66.9823,161.725,-85.4922,7669.02,630.405,2640.8,-58.2398,-20.3699,-9.23472
3.1115,5480.64,1754.6,8251.57,-5.51664,-103.981,-13.0797,23266.0,-1839.07,20787.9,94.7646,338.512,-226.764,-270.912,11090.0,188.177,-43.515,-45.8236,-72.7008,-6845.46,-26567.0,962.359,-88.8462,165.405,-376.229,3929.32,10645.7,-3679.34,-17.639,-38.17,-77.2844,6846.04,5201.18,-3573.11,-64.5785,158.968,-84.9693,7655.09,660.412,2626.51,-58.3186,-21.5599,-8.92668
3.112,5474.8,1756.02,8245.92,-5.45467,-104.158,-13.0846,23457.3,-2027.66,20672.3,91.59,338.737,-226.227,-268.234,11065.5,158.103,-43.6564,-45.7744,-72.7565,-6976.34,-26684.5,981.797,-87.1233,166.133,-375.615,3999.55,10673.1,-3588.58,-17.8632,-37.1645,-77.1433,6578.05,5080.94,-3248.19,-61.7197,155.153,-84.499,7635.62,687.477,2607.03,-58.324,-22.6841,-8.64934
3.1125,5468.96,1757.44,8240.27,-5.3927,-104.334,-13.0895,23648.5,-2216.24,20556.8,88.4154,338.963,-225.689,-265.555,11041.0,128.029,-43.7978,-45.7253,-72.8122,-7107.21,-26801.9,1001.24,-85.4004,166.861,-375.0,4069.78,10700.5,-3497.83,-18.0873,-36.1589,-77.0022,6310.05,4960.7,-2923.28,-58.8609,151.337,-84.0288,7616.15,714.541,2587.55,-58.3294,-23.8083,-8.372
3.113,5463.12,1758.86,8234.63,-5.33072,-104.51,-13.0944,23839.8,-2404.82,20441.3,85.2408,339.189,-225.151,-262.877,11016.5,97.9554,-43.9392,-45.6762,-72.8679,-7238.09,-26919.3,1020.68,-83.6774,167.588,-374.386,4140.0,10728.0,-3407.07,-18.3114,-35.1534,-76.8612,6042.05,4840.47,-2598.36,-56.0021,147.521,-83.5585,7596.69,741.605,2568.07,-58.3349,-24.9325,-8.09466
3.1135,5457.28,1760.28,8228.98,-5.26875,-104.686,-13.0993,24031.0,-2593.4,20325.7,82.0662,339.414,-224.613,-260.198,10992.0,67.8817,-44.0806,-45.6271,-72.9236,-7368.96,-27036.8,1040.11,-81.9545,168.316,-373.771,4210.23,10755.4,-3316.31,-18.5355,-34.1478,-76.7201,5774.05,4720.23,-2273.44,-53.1434,143.705,-83.0883,7577.22,768.669,2548.59,-58.3403,-26.0567,-7.81732
3.114,5451.44,1761.7,8223.33,-5.20678,-104.863,-13.1041,24222.3,-2781.99,20210.2,78.8916,339.64,-224.075,-257.52,10967.5,37.808,-44.222,-45.5779,-72.9793,-7499.83,-27154.2,1059.55,-80.2315,169.044,-373.157,4280.46,10782.9,-3225.56,-18.7596,-33.1423,-76.579,5506.05,4600.0,-1948.53,-50.2846,139.89,-82.618,7557.75,795.733,2529.11,-58.3457,-27.1808,-7.53998
3.1145,5445.6,1763.11,8217.68,-5.14481,-105.039,-13.109,24413.6,-2970.57,20094.6,75.717,339.866,-223.537,-254.841,10942.9,7.73426,-44.3633,-45.5288,-73.035,-7630.71,-27271.6,1078.99,-78.5086,169.772,-372.542,4350.69,10810.3,-3134.8,-18.9837,-32.1367,-76.4379,5238.06,4479.76,-1623.61,-47.4258,136.074,-82.1478,7538.28,822.798,2509.62,-58.3512,-28.305,-7.26263
3.115,5439.76,1764.53,8212.03,-5.08284,-105.215,-13.1139,24604.8,-3159.15,19979.1,72.5424,340.092,-222.999,-252.163,10918.4,-22.3395,-44.5047,-45.4797,-73.0907,-7761.58,-27389.1,1098.43,-76.7856,170.5,-371.928,4420.92,10837.8,-3044.05,-19.2078,-31.1312,-76.2969,4970.06,4359.53,-1298.7,-44.567,132.258,-81.6775,7518.81,849.862,2490.14,-58.3566,-29.4292,-6.98529
3.1155,5433.92,1765.95,8206.38,-5.02086,-105.392,-13.1188,24796.1,-3347.73,19863.6,69.3678,340.317,-222.461,-249.484,10893.9,-52.4132,-44.6461,-45.4305,-73.1465,-7892.46,-27506.5,1117.87,-75.0627,171.227,-371.313,4491.15,10865.2,-2953.29,-19.4319,-30.1256,-76.1558,4702.06,4239.29,-973.781,-41.7083,128.442,-81.2073,7499.35,876.926,2470.66,-58.362,-30.5534,-6.70795
3.116,5444.51,1757.78,8208.52,-4.9039,-105.588,-13.0987,24963.2,-3639.47,19751.9,66.635,340.079,-221.808,-223.864,10851.5,-64.4425,-44.7442,-45.4485,-73.4225,-8047.66,-27635.1,1200.22,-73.1582,171.364,-370.298,4541.23,10842.3,-2845.61,-19.6607,-29.655,-76.1032,4322.44,4152.62,-702.701,-37.5921,121.993,-80.6412,7478.73,919.278,2454.08,-58.2424,-31.4925,-6.33735
3.1165,5457.16,1748.42,8211.62,-4.78007,-105.787,-13.0756,25127.3,-3944.1,19640.6,63.9575,339.783,-221.14,-195.375,10806.8,-74.2163,-44.8369,-45.4749,-73.7261,-8205.9,-27765.0,1290.42,-71.2311,171.427,-369.232,4588.78,10813.0,-2735.81,-19.8901,-29.2511,-76.0617,3928.87,4070.15,-438.351,-33.3189,115.215,-80.0631,7457.97,963.54,2437.86,-58.1071,-32.4084,-5.95509
3.117,5469.8,1739.05,8214.72,-4.65623,-105.986,-13.0524,25291.3,-4248.72,19529.4,61.28,339.487,-220.472,-166.887,10762.1,-83.9901,-44.9296,-45.5013,-74.0297,-8364.14,-27895.0,1380.63,-69.304,171.489,-368.166,4636.34,10783.8,-2626.02,-20.1196,-28.8473,-76.0202,3535.3,3987.67,-174.001,-29.0456,108.436,-79.485,7437.21,1007.8,2421.65,-57.9719,-33.3244,-5.57284
3.1175,5482.45,1729.68,8217.83,-4.5324,-106.185,-13.0292,25455.4,-4553.35,19418.2,58.6025,339.19,-219.804,-138.399,10717.4,-93.7639,-45.0223,-45.5277,-74.3333,-8522.38,-28025.0,1470.84,-67.3769,171.552,-367.1,4683.9,10754.5,-2516.23,-20.349,-28.4435,-75.9787,3141.74,3905.2,90.3491,-24.7723,101.658,-78.9069,7416.46,1052.07,2405.43,-57.8366,-34.2403,-5.19058
3.118,5495.1,1720.32,8220.93,-4.40856,-106.384,-13.0061,25619.5,-4857.98,19306.9,55.925,338.894,-219.137,-109.911,10672.8,-103.538,-45.115,-45.5541,-74.6369,-8680.62,-28155.0,1561.05,-65.4498,171.614,-366.034,4731.46,10725.2,-2406.43,-20.5784,-28.0397,-75.9372,2748.17,3822.72,354.699,-20.499,94.8793,-78.3288,7395.7,1096.33,2389.22,-57.7013,-35.1563,-4.80832
3.1185,5507.74,1710.95,8224.04,-4.28472,-106.583,-12.9829,25783.5,-5162.61,19195.7,53.2475,338.598,-218.469,-81.4223,10628.1,-113.312,-45.2077,-45.5804,-74.9405,-8838.86,-28284.9,1651.26,-63.5227,171.677,-364.968,4779.02,10696.0,-2296.64,-20.8078,-27.6359,-75.8957,2354.6,3740.25,619.049,-16.2257,88.1008,-77.7507,7374.94,1140.59,2373.0,-57.5661,-36.0722,-4.42606
3.119,5520.39,1701.58,8227.14,-4.16089,-106.782,-12.9597,25947.6,-5467.24,19084.5,50.57,338.302,-217.801,-52.934,10583.4,-123.085,-45.3004,-45.6068,-75.2441,-8997.1,-28414.9,1741.47,-61.5956,171.739,-363.902,4826.58,10666.7,-2186.84,-21.0372,-27.2321,-75.8542,1961.03,3657.78,883.399,-11.9525,81.3224,-77.1726,7354.18,1184.85,2356.78,-57.4308,-36.9882,-4.04381
3.1195,5533.04,1692.22,8230.24,-4.03705,-106.98,-12.9366,26111.7,-5771.86,18973.3,47.8925,338.005,-217.133,-24.4458,10538.7,-132.859,-45.393,-45.6332,-75.5477,-9155.34,-28544.9,1831.68,-59.6685,171.802,-362.836,4874.14,10637.5,-2077.05,-21.2667,-26.8283,-75.8127,1567.46,3575.3,1147.75,-7.67918,74.5439,-76.5946,7333.42,1229.12,2340.57,-57.2956,-37.9042,-3.66155
3.12,5545.68,1682.85,8233.35,-3.91322,-107.179,-12.9134,26275.7,-6076.49,18862.0,45.215,337.709,-216.465,4.04249,10494.0,-142.633,-45.4857,-45.6596,-75.8513,-9313.58,-28674.8,1921.89,-57.7414,171.864,-361.77,4921.7,10608.2,-1967.25,-21.4961,-26.4245,-75.7712,1173.89,3492.83,1412.1,-3.4059,67.7654,-76.0165,7312.66,1273.38,2324.35,-57.1603,-38.8201,-3.27929
3.1205,5548.76,1657.53,8234.19,-3.82724,-107.404,-12.9971,26396.0,-6285.2,18717.2,42.8346,336.892,-215.575,28.9186,10489.8,-162.874,-45.6244,-45.7803,-76.16,-9530.57,-28869.3,2062.0,-55.4103,171.127,-360.402,4969.97,10570.2,-1862.54,-21.7363,-26.5097,-75.7565,724.72,3544.11,1490.01,0.380523,60.464,-74.8528,7259.7,1301.07,2284.23,-56.5078,-39.4461,-3.11357
3.121,5551.83,1632.21,8235.03,-3.74126,-107.629,-13.0807,26516.3,-6493.91,18572.4,40.4542,336.075,-214.685,53.7947,10485.5,-183.116,-45.7631,-45.9009,-76.4687,-9747.57,-29063.7,2202.11,-53.0793,170.39,-359.034,5018.23,10532.3,-1757.83,-21.9766,-26.5949,-75.7418,275.549,3595.4,1567.91,4.16694,53.1626,-73.6892,7206.74,1328.77,2244.12,-55.8553,-40.072,-2.94785
3.1215,5554.9,1606.9,8235.88,-3.65528,-107.853,-13.1644,26636.6,-6702.62,18427.5,38.0738,335.258,-213.795,78.6708,10481.3,-203.357,-45.9018,-46.0216,-76.7774,-9964.56,-29258.1,2342.22,-50.7483,169.652,-357.666,5066.5,10494.3,-1653.12,-22.2168,-26.6801,-75.7271,-173.621,3646.68,1645.82,7.95337,45.8612,-72.5256,7153.78,1356.46,2204.0,-55.2028,-40.6979,-2.78213
3.122,5557.98,1581.58,8236.72,-3.5693,-108.078,-13.248,26756.9,-6911.33,18282.7,35.6934,334.441,-212.905,103.547,10477.0,-223.599,-46.0404,-46.1423,-77.0861,-10181.6,-29452.6,2482.33,-48.4172,168.915,-356.298,5114.76,10456.3,-1548.41,-22.4571,-26.7653,-75.7124,-622.792,3697.97,1723.72,11.7398,38.5598,-71.362,7100.82,1384.16,2163.89,-54.5503,-41.3239,-2.61641
3.1225,5561.05,1556.26,8237.56,-3.48333,-108.302,-13.3316,26877.2,-7120.04,18137.8,33.313,333.624,-212.015,128.423,10472.8,-243.84,-46.1791,-46.2629,-77.3947,-10398.5,-29647.0,2622.44,-46.0862,168.177,-354.93,5163.03,10418.4,-1443.69,-22.6973,-26.8505,-75.6977,-1071.96,3749.25,1801.63,15.5262,31.2584,-70.1983,7047.87,1411.86,2123.77,-53.8979,-41.9498,-2.45069
3.123,5564.12,1530.94,8238.41,-3.39735,-108.527,-13.4153,26997.5,-7328.76,17993.0,30.9326,332.807,-211.125,153.299,10468.5,-264.081,-46.3178,-46.3836,-77.7034,-10615.5,-29841.5,2762.55,-43.7551,167.44,-353.562,5211.29,10380.4,-1338.98,-22.9376,-26.9357,-75.683,-1521.13,3800.54,1879.54,19.3126,23.9569,-69.0347,6994.91,1439.55,2083.66,-53.2454,-42.5758,-2.28497
3.1235,5567.2,1505.62,8239.25,-3.31137,-108.752,-13.4989,27117.8,-7537.47,17848.2,28.5522,331.99,-210.235,178.175,10464.3,-284.323,-46.4565,-46.5043,-78.0121,-10832.5,-30035.9,2902.66,-41.4241,166.703,-352.194,5259.56,10342.4,-1234.27,-23.1779,-27.0209,-75.6683,-1970.31,3851.83,1957.44,23.0991,16.6555,-67.8711,6941.95,1467.25,2043.54,-52.5929,-43.2017,-2.11925
3.124,5570.27,1480.3,8240.09,-3.22539,-108.976,-13.5826,27238.1,-7746.18,17703.3,26.1718,331.173,-209.345,203.051,10460.0,-304.564,-46.5951,-46.6249,-78.3208,-11049.5,-30230.3,3042.77,-39.093,165.965,-350.826,5307.82,10304.5,-1129.56,-23.4181,-27.1061,-75.6536,-2419.48,3903.11,2035.35,26.8855,9.3541,-66.7074,6888.99,1494.94,2003.43,-51.9404,-43.8277,-1.95353
3.1245,5574.62,1455.08,8232.61,-3.09564,-109.163,-13.6454,27353.3,-7932.7,17554.8,23.7707,330.308,-208.414,228.997,10458.4,-321.548,-46.7462,-46.7639,-78.642,-11266.2,-30427.4,3181.85,-36.7317,165.191,-349.488,5355.09,10265.1,-1029.51,-23.6617,-27.218,-75.6523,-2854.65,3963.68,2097.01,30.4555,2.16512,-65.5358,6837.21,1523.96,1963.24,-51.3325,-44.4324,-1.76383
3.125,5589.13,1430.57,8158.56,-2.61573,-109.048,-13.5417,27427.6,-7941.7,17377.2,21.2032,329.055,-207.159,263.501,10477.3,-312.475,-46.9959,-47.049,-79.0632,-11479.9,-30645.9,3312.61,-34.128,164.123,-348.386,5394.33,10214.8,-966.744,-23.932,-27.5432,-75.7585,-3177.87,4098.48,2028.73,32.2942,-4.12442,-64.3006,6794.87,1563.53,1922.43,-51.0816,-44.8677,-1.38226
3.1255,5603.65,1406.07,8084.5,-2.13583,-108.933,-13.4381,27501.9,-7950.7,17199.6,18.6358,327.802,-205.904,298.004,10496.3,-303.402,-47.2457,-47.3341,-79.4845,-11693.7,-30864.4,3443.38,-31.5243,163.054,-347.284,5433.57,10164.5,-903.978,-24.2023,-27.8684,-75.8646,-3501.09,4233.29,1960.46,34.133,-10.414,-63.0653,6752.54,1603.11,1881.62,-50.8307,-45.303,-1.00069
3.126,5618.17,1381.57,8010.45,-1.65592,-108.817,-13.3344,27576.3,-7959.69,17022.0,16.0684,326.549,-204.649,332.508,10515.3,-294.329,-47.4955,-47.6192,-79.9057,-11907.4,-31082.8,3574.15,-28.9207,161.986,-346.182,5472.82,10114.2,-841.212,-24.4726,-28.1936,-75.9707,-3824.31,4368.09,1892.18,35.9717,-16.7035,-61.83,6710.21,1642.68,1840.82,-50.5798,-45.7382,-0.619126
3.1265,5632.68,1357.06,7936.39,-1.17601,-108.702,-13.2307,27650.6,-7968.69,16844.4,13.501,325.296,-203.394,367.011,10534.3,-285.255,-47.7453,-47.9043,-80.327,-12121.2,-31301.3,3704.91,-26.317,160.918,-345.081,5512.06,10063.9,-778.446,-24.7429,-28.5189,-76.0768,-4147.53,4502.89,1823.9,37.8104,-22.9931,-60.5947,6667.87,1682.26,1800.01,-50.3289,-46.1735,-0.237558
3.127,5647.2,1332.56,7862.34,-0.696101,-108.587,-13.127,27724.9,-7977.69,16666.7,10.9335,324.043,-202.139,401.515,10553.3,-276.182,-47.9951,-48.1894,-80.7482,-12335.0,-31519.7,3835.68,-23.7133,159.849,-343.979,5551.31,10013.6,-715.681,-25.0132,-28.8441,-76.1829,-4470.75,4637.7,1755.62,39.6492,-29.2826,-59.3594,6625.54,1721.83,1759.2,-50.078,-46.6088,0.14401
3.1275,5661.72,1308.06,7788.28,-0.216193,-108.471,-13.0234,27799.2,-7986.69,16489.1,8.36611,322.79,-200.884,436.018,10572.3,-267.109,-48.2449,-48.4745,-81.1695,-12548.7,-31738.2,3966.45,-21.1097,158.781,-342.877,5590.55,9963.31,-652.915,-25.2835,-29.1693,-76.289,-4793.97,4772.5,1687.35,41.4879,-35.5721,-58.1241,6583.2,1761.41,1718.4,-49.8271,-47.044,0.525578
3.128,5676.24,1283.55,7714.23,0.263716,-108.356,-12.9197,27873.5,-7995.69,16311.5,5.79869,321.537,-199.629,470.522,10591.3,-258.036,-48.4947,-48.7596,-81.5907,-12762.5,-31956.6,4097.22,-18.506,157.713,-341.775,5629.79,9913.01,-590.149,-25.5538,-29.4945,-76.3951,-5117.19,4907.31,1619.07,43.3266,-41.8617,-56.8889,6540.87,1800.98,1677.59,-49.5761,-47.4793,0.907146
3.1285,5690.75,1259.05,7640.17,0.743624,-108.241,-12.816,27947.9,-8004.69,16133.9,3.23127,320.284,-198.375,505.025,10610.3,-248.962,-48.7445,-49.0447,-82.012,-12976.2,-32175.1,4227.98,-15.9023,156.645,-340.673,5669.04,9862.71,-527.383,-25.8242,-29.8197,-76.5012,-5440.41,5042.11,1550.79,45.1654,-48.1512,-55.6536,6498.53,1840.56,1636.78,-49.3252,-47.9146,1.28871
3.129,5696.78,1242.63,7623.05,1.00237,-108.329,-12.7633,28017.2,-7992.24,15958.3,0.667837,318.94,-197.139,544.476,10628.6,-246.361,-48.9903,-49.1633,-82.4255,-13193.1,-32379.3,4346.0,-13.363,155.622,-339.694,5703.52,9812.07,-470.259,-26.0082,-30.1968,-76.6196,-5712.63,5175.56,1456.7,46.8062,-53.9196,-54.5363,6463.18,1875.44,1597.01,-49.0796,-48.2839,1.67458
3.1295,5673.12,1254.51,7805.22,0.487039,-109.128,-12.8889,28069.1,-7904.72,15790.0,-1.88162,317.28,-195.973,601.242,10645.0,-266.413,-49.2223,-48.6989,-82.8119,-13420.9,-32533.5,4419.36,-11.0487,154.759,-339.145,5721.34,9760.29,-432.883,-25.8902,-30.7554,-76.7809,-5806.37,5304.25,1272.28,47.7544,-57.8637,-53.8322,6452.26,1893.89,1560.88,-48.8524,-48.4223,2.07551
3.13,5649.45,1266.39,7987.38,-0.0282904,-109.928,-13.0145,28120.9,-7817.2,15621.7,-4.43107,315.62,-194.806,658.008,10661.3,-286.464,-49.4543,-48.2346,-83.1983,-13648.7,-32687.7,4492.73,-8.73451,153.895,-338.595,5739.17,9708.5,-395.507,-25.7723,-31.3139,-76.9421,-5900.1,5432.95,1087.85,48.7025,-61.8078,-53.1281,6441.34,1912.35,1524.74,-48.6253,-48.5607,2.47644
3.1305,5625.78,1278.26,8169.55,-0.54362,-110.728,-13.1401,28172.8,-7729.68,15453.3,-6.98053,313.96,-193.64,714.773,10677.6,-306.515,-49.6863,-47.7703,-83.5847,-13876.5,-32842.0,4566.1,-6.42029,153.032,-338.046,5756.99,9656.71,-358.13,-25.6543,-31.8725,-77.1034,-5993.84,5561.64,903.423,49.6507,-65.752,-52.424,6430.43,1930.81,1488.6,-48.3981,-48.6992,2.87737
3.131,5602.11,1290.14,8351.72,-1.05895,-111.528,-13.2657,28224.7,-7642.16,15285.0,-9.52999,312.299,-192.473,771.539,10693.9,-326.567,-49.9183,-47.306,-83.9711,-14104.3,-32996.2,4639.47,-4.10606,152.169,-337.496,5774.81,9604.92,-320.754,-25.5364,-32.4311,-77.2647,-6087.58,5690.34,718.997,50.5989,-69.6961,-51.7199,6419.51,1949.27,1452.47,-48.1709,-48.8376,3.27829
3.1315,5578.44,1302.02,8533.88,-1.57428,-112.328,-13.3913,28276.6,-7554.64,15116.6,-12.0794,310.639,-191.307,828.305,10710.2,-346.618,-50.1502,-46.8417,-84.3576,-14332.1,-33150.4,4712.84,-1.79184,151.306,-336.946,5792.63,9553.13,-283.378,-25.4184,-32.9897,-77.4259,-6181.31,5819.03,534.57,51.547,-73.6402,-51.0158,6408.59,1967.72,1416.33,-47.9438,-48.976,3.67922
3.132,5554.77,1313.89,8716.05,-2.08961,-113.128,-13.5168,28328.4,-7467.11,14948.3,-14.6289,308.979,-190.141,885.071,10726.5,-366.669,-50.3822,-46.3773,-84.744,-14559.9,-33304.7,4786.21,0.522385,150.442,-336.397,5810.46,9501.34,-246.002,-25.3005,-33.5482,-77.5872,-6275.05,5947.73,350.144,52.4952,-77.5844,-50.3116,6397.67,1986.18,1380.19,-47.7166,-49.1145,4.08015
3.1325,5531.11,1325.77,8898.21,-2.60494,-113.927,-13.6424,28380.3,-7379.59,14780.0,-17.1784,307.319,-188.974,941.837,10742.9,-386.721,-50.6142,-45.913,-85.1304,-14787.7,-33458.9,4859.57,2.83661,149.579,-335.847,5828.28,9449.56,-208.625,-25.1825,-34.1068,-77.7485,-6368.78,6076.42,165.717,53.4434,-81.5285,-49.6075,6386.76,2004.64,1344.05,-47.4894,-49.2529,4.48108
3.133,5507.44,1337.65,9080.38,-3.12027,-114.727,-13.768,28432.2,-7292.07,14611.6,-19.7278,305.658,-187.808,998.603,10759.2,-406.772,-50.8462,-45.4487,-85.5168,-15015.5,-33613.1,4932.94,5.15083,148.716,-335.298,5846.1,9397.77,-171.249,-25.0646,-34.6654,-77.9097,-6462.52,6205.12,-18.7093,54.3915,-85.4726,-48.9034,6375.84,2023.1,1307.92,-47.2623,-49.3913,4.882
3.1335,5475.79,1366.32,9160.3,-3.4452,-115.269,-13.9032,28496.5,-7213.99,14445.4,-22.291,303.899,-186.71,1039.0,10766.1,-432.687,-51.004,-44.965,-85.9346,-15230.9,-33712.5,4991.34,7.33202,147.889,-334.901,5864.61,9353.21,-143.008,-24.8549,-35.2425,-78.0432,-6504.95,6316.65,-239.199,55.7148,-88.224,-48.3603,6365.16,2040.67,1268.5,-47.0737,-49.4212,5.20079
3.134,5428.2,1428.59,9035.74,-3.38934,-115.295,-14.0575,28585.9,-7154.81,14283.4,-24.8818,301.942,-185.752,1046.64,10754.4,-470.33,-51.0134,-44.4426,-86.4154,-15421.7,-33702.2,5019.79,9.24714,147.137,-334.809,5884.49,9323.1,-133.038,-24.4616,-35.8569,-78.1209,-6444.76,6393.83,-531.814,57.7883,-88.5898,-48.1394,6354.95,2056.47,1222.52,-46.9623,-49.2339,5.35529
3.1345,5380.6,1490.86,8911.18,-3.33349,-115.322,-14.2119,28675.2,-7095.62,14121.4,-27.4725,299.984,-184.793,1054.29,10742.6,-507.972,-51.0228,-43.9203,-86.8961,-15612.5,-33691.8,5048.24,11.1623,146.384,-334.718,5904.38,9292.99,-123.068,-24.0684,-36.4713,-78.1986,-6384.57,6471.02,-824.43,59.8618,-88.9556,-47.9185,6344.75,2072.26,1176.54,-46.8509,-49.0466,5.50979
3.135,5333.01,1553.13,8786.61,-3.27763,-115.348,-14.3662,28764.5,-7036.43,13959.4,-30.0632,298.026,-183.834,1061.94,10730.9,-545.615,-51.0323,-43.3979,-87.3769,-15803.3,-33681.5,5076.69,13.0774,145.631,-334.627,5924.26,9262.88,-113.098,-23.6752,-37.0857,-78.2763,-6324.38,6548.21,-1117.05,61.9352,-89.3214,-47.6975,6334.54,2088.06,1130.56,-46.7396,-48.8594,5.66429
3.1355,5285.42,1615.4,8662.05,-3.22178,-115.374,-14.5205,28853.8,-6977.24,13797.4,-32.654,296.069,-182.875,1069.59,10719.2,-583.258,-51.0417,-42.8755,-87.8576,-15994.1,-33671.1,5105.14,14.9925,144.879,-334.535,5944.15,9232.78,-103.128,-23.2819,-37.7,-78.3541,-6264.19,6625.4,-1409.66,64.0087,-89.6872,-47.4766,6324.34,2103.86,1084.58,-46.6282,-48.6721,5.81879
3.136,5237.82,1677.67,8537.49,-3.16592,-115.4,-14.6749,28943.1,-6918.05,13635.5,-35.2447,294.111,-181.916,1077.23,10707.4,-620.9,-51.0511,-42.3531,-88.3383,-16184.9,-33660.8,5133.58,16.9076,144.126,-334.444,5964.03,9202.67,-93.1576,-22.8887,-38.3144,-78.4318,-6204.0,6702.59,-1702.28,66.0822,-90.0531,-47.2556,6314.13,2119.66,1038.6,-46.5168,-48.4848,5.97329
3.1365,5190.23,1739.94,8412.92,-3.11006,-115.426,-14.8292,29032.4,-6858.86,13473.5,-37.8354,292.153,-180.957,1084.88,10695.7,-658.543,-51.0605,-41.8307,-88.8191,-16375.7,-33650.4,5162.03,18.8227,143.373,-334.353,5983.92,9172.56,-83.1875,-22.4954,-38.9288,-78.5095,-6143.81,6779.78,-1994.89,68.1557,-90.4189,-47.0347,6303.92,2135.46,992.625,-46.4054,-48.2975,6.12779
3.137,5142.63,1802.21,8288.36,-3.05421,-115.453,-14.9835,29121.8,-6799.68,13311.5,-40.4262,290.196,-179.999,1092.53,10683.9,-696.186,-51.0699,-41.3084,-89.2998,-16566.5,-33640.1,5190.48,20.7378,142.62,-334.261,6003.8,9142.46,-73.2173,-22.1022,-39.5431,-78.5873,-6083.62,6856.97,-2287.51,70.2291,-90.7847,-46.8138,6293.72,2151.25,946.646,-46.294,-48.1103,6.2823
3.1375,5095.04,1864.48,8163.8,-2.99835,-115.479,-15.1379,29211.1,-6740.49,13149.5,-43.0169,288.238,-179.04,1100.18,10672.2,-733.828,-51.0793,-40.786,-89.7806,-16757.3,-33629.7,5218.93,22.653,141.868,-334.17,6023.69,9112.35,-63.2472,-21.709,-40.1575,-78.665,-6023.43,6934.16,-2580.12,72.3026,-91.1505,-46.5928,6283.51,2167.05,900.666,-46.1826,-47.923,6.4368
3.138,5074.66,1903.17,8104.54,-2.71867,-115.518,-15.1,29322.0,-6699.02,12985.9,-45.6947,286.243,-178.118,1108.03,10673.4,-721.264,-51.2439,-40.3661,-90.3334,-16929.5,-33527.7,5237.84,24.2851,141.003,-333.999,6037.68,9080.44,-83.3974,-21.2778,-40.5931,-78.7496,-5940.19,7013.13,-2848.93,74.9718,-90.2208,-46.3704,6272.58,2186.92,858.49,-46.0311,-47.6164,6.56666
3.1385,5088.31,1912.38,8126.9,-2.15919,-115.574,-14.822,29459.9,-6679.71,12820.4,-48.4815,284.2,-177.242,1116.15,10691.0,-645.942,-51.6025,-40.0743,-90.9762,-17078.6,-33311.0,5244.81,25.5636,139.999,-333.727,6044.31,9046.28,-141.198,-20.7993,-40.8053,-78.8428,-5828.14,7094.3,-3087.97,78.3858,-87.6718,-46.1463,6260.73,2211.88,821.067,-45.8294,-47.1608,6.66571
3.139,5101.96,1921.58,8149.27,-1.59971,-115.63,-14.5439,29597.9,-6660.39,12654.9,-51.2682,282.158,-176.365,1124.26,10708.5,-570.619,-51.9611,-39.7824,-91.6191,-17227.7,-33094.4,5251.79,26.8421,138.996,-333.456,6050.93,9012.11,-198.999,-20.3207,-41.0175,-78.9359,-5716.08,7175.48,-3327.02,81.7998,-85.1228,-45.9221,6248.89,2236.84,783.644,-45.6278,-46.7052,6.76476
3.1395,5115.61,1930.79,8171.63,-1.04024,-115.686,-14.2658,29735.8,-6641.07,12489.4,-54.055,280.116,-175.489,1132.38,10726.1,-495.297,-52.3197,-39.4906,-92.262,-17376.7,-32877.7,5258.76,28.1206,137.992,-333.184,6057.56,8977.95,-256.799,-19.8421,-41.2297,-79.0291,-5604.03,7256.65,-3566.07,85.2137,-82.5738,-45.698,6237.05,2261.8,746.221,-45.4261,-46.2496,6.86382
3.14,5129.25,1939.99,8194.0,-0.480761,-115.742,-13.9878,29873.8,-6621.76,12323.8,-56.8417,278.073,-174.613,1140.5,10743.6,-419.974,-52.6783,-39.1988,-92.9049,-17525.8,-32661.1,5265.74,29.3991,136.988,-332.913,6064.18,8943.79,-314.6,-19.3636,-41.4419,-79.1223,-5491.97,7337.83,-3805.11,88.6277,-80.0247,-45.4739,6225.2,2286.75,708.799,-45.2244,-45.794,6.96287
3.1405,5142.9,1949.2,8216.36,0.0787148,-115.798,-13.7097,30011.7,-6602.44,12158.3,-59.6285,276.031,-173.737,1148.61,10761.1,-344.652,-53.0369,-38.907,-93.5477,-17674.8,-32444.4,5272.71,30.6775,135.984,-332.641,6070.81,8909.62,-372.4,-18.885,-41.6541,-79.2155,-5379.91,7419.0,-4044.16,92.0416,-77.4757,-45.2497,6213.36,2311.71,671.376,-45.0227,-45.3383,7.06193
3.141,5156.55,1958.41,8238.73,0.638191,-115.854,-13.4316,30149.6,-6583.13,11992.8,-62.4152,273.988,-172.86,1156.73,10778.7,-269.329,-53.3955,-38.6152,-94.1906,-17823.9,-32227.8,5279.68,31.956,134.98,-332.37,6077.44,8875.46,-430.201,-18.4065,-41.8663,-79.3087,-5267.86,7500.18,-4283.2,95.4556,-74.9267,-45.0256,6201.51,2336.67,633.953,-44.821,-44.8827,7.16098
3.1415,5170.2,1967.61,8261.09,1.19767,-115.91,-13.1536,30287.6,-6563.81,11827.3,-65.2019,271.946,-171.984,1164.85,10796.2,-194.007,-53.754,-38.3234,-94.8335,-17973.0,-32011.1,5286.66,33.2345,133.976,-332.098,6084.06,8841.29,-488.002,-17.9279,-42.0785,-79.4018,-5155.8,7581.35,-4522.25,98.8695,-72.3776,-44.8014,6189.67,2361.63,596.53,-44.6194,-44.4271,7.26004
3.142,5183.85,1976.82,8283.46,1.75714,-115.966,-12.8755,30425.5,-6544.5,11661.8,-67.9887,269.903,-171.108,1172.96,10813.7,-118.684,-54.1126,-38.0316,-95.4764,-18122.0,-31794.5,5293.63,34.513,132.972,-331.827,6090.69,8807.13,-545.802,-17.4494,-42.2907,-79.495,-5043.75,7662.53,-4761.29,102.283,-69.8286,-44.5773,6177.82,2386.59,559.107,-44.4177,-43.9715,7.35909
3.1425,5211.78,1937.58,8313.74,2.03716,-116.161,-12.6188,30589.0,-6527.4,11438.8,-71.1182,268.023,-170.06,1205.55,10830.8,-76.3809,-54.4381,-37.6988,-96.138,-18271.1,-31523.1,5237.9,35.6233,131.999,-331.058,6108.76,8785.8,-629.113,-16.9292,-42.203,-79.5677,-4927.17,7774.75,-4916.48,105.312,-66.2112,-43.9415,6185.44,2396.07,534.318,-44.0264,-43.4421,7.44591
3.143,5251.14,1859.59,8350.35,2.0936,-116.467,-12.3792,30773.0,-6512.08,11169.9,-74.5219,266.271,-168.875,1257.72,10847.4,-60.4931,-54.7371,-37.3334,-96.8145,-18420.2,-31208.0,5131.99,36.5992,131.052,-329.891,6135.98,8774.75,-732.832,-16.3758,-41.8755,-79.624,-4806.99,7911.8,-5004.59,108.032,-61.739,-42.9766,6208.62,2393.16,519.637,-43.4834,-42.8535,7.52295
3.1435,5290.5,1781.6,8386.96,2.15004,-116.774,-12.1396,30957.0,-6496.76,10901.0,-77.9256,264.52,-167.689,1309.89,10864.0,-44.6053,-55.036,-36.968,-97.4911,-18569.2,-30893.0,5026.08,37.575,130.104,-328.725,6163.2,8763.69,-836.551,-15.8224,-41.548,-79.6803,-4686.8,8048.85,-5092.69,110.752,-57.2668,-42.0116,6231.8,2390.25,504.955,-42.9404,-42.265,7.59998
3.144,5329.86,1703.6,8423.58,2.20648,-117.081,-11.9,31140.9,-6481.44,10632.1,-81.3293,262.768,-166.504,1362.05,10880.7,-28.7176,-55.335,-36.6025,-98.1677,-18718.3,-30577.9,4920.17,38.5508,129.156,-327.558,6190.42,8752.63,-940.27,-15.269,-41.2205,-79.7366,-4566.62,8185.9,-5180.79,113.473,-52.7945,-41.0467,6254.98,2387.35,490.274,-42.3975,-41.6765,7.67702
3.1445,5369.23,1625.61,8460.19,2.26292,-117.387,-11.6604,31324.9,-6466.12,10363.2,-84.733,261.017,-165.319,1414.22,10897.3,-12.8298,-55.6339,-36.2371,-98.8443,-18867.4,-30262.8,4814.27,39.5267,128.209,-326.391,6217.64,8741.58,-1043.99,-14.7156,-40.8929,-79.7929,-4446.43,8322.95,-5268.9,116.193,-48.3223,-40.0817,6278.16,2384.44,475.592,-41.8545,-41.088,7.75405
3.145,5408.59,1547.62,8496.81,2.31937,-117.694,-11.4208,31508.9,-6450.8,10094.3,-88.1367,259.266,-164.133,1466.39,10914.0,3.05793,-55.9329,-35.8717,-99.5209,-19016.5,-29947.7,4708.36,40.5025,127.261,-325.225,6244.86,8730.52,-1147.71,-14.1621,-40.5654,-79.8493,-4326.25,8460.0,-5357.0,118.913,-43.8501,-39.1168,6301.34,2381.53,460.91,-41.3115,-40.4995,7.83108
3.1455,5447.95,1469.63,8533.42,2.37581,-118.001,-11.1811,31692.9,-6435.48,9825.44,-91.5404,257.514,-162.948,1518.56,10930.6,18.9457,-56.2318,-35.5062,-100.197,-19165.5,-29632.6,4602.45,41.4784,126.313,-324.058,6272.08,8719.46,-1251.43,-13.6087,-40.2379,-79.9056,-4206.06,8597.05,-5445.1,121.633,-39.3779,-38.1518,6324.52,2378.63,446.229,-40.7685,-39.911,7.90812
3.146,5487.31,1391.64,8570.04,2.43225,-118.307,-10.9415,31876.9,-6420.17,9556.54,-94.9441,255.763,-161.763,1570.72,10947.2,34.8335,-56.5308,-35.1408,-100.874,-19314.6,-29317.6,4496.55,42.4542,125.365,-322.891,6299.3,8708.41,-1355.15,-13.0553,-39.9103,-79.9619,-4085.88,8734.1,-5533.21,124.354,-34.9057,-37.1869,6347.7,2375.72,431.547,-40.2255,-39.3225,7.98515
3.1465,5526.67,1313.64,8606.65,2.48869,-118.614,-10.7019,32060.8,-6404.85,9287.65,-98.3478,254.012,-160.578,1622.89,10963.9,50.7212,-56.8298,-34.7753,-101.551,-19463.7,-29002.5,4390.64,43.43,124.418,-321.725,6326.53,8697.35,-1458.87,-12.5019,-39.5828,-80.0182,-3965.69,8871.15,-5621.31,127.074,-30.4335,-36.2219,6370.88,2372.81,416.865,-39.6826,-38.734,8.06219
3.147,5541.02,1288.55,8648.04,2.53227,-119.005,-10.6248,32237.1,-6299.0,8902.47,-102.694,252.871,-158.846,1661.78,10973.6,55.1402,-57.2003,-34.3102,-102.22,-19654.6,-28685.7,4178.94,44.0219,123.359,-320.071,6342.12,8705.04,-1521.04,-11.9803,-39.1602,-79.9521,-3869.26,8997.91,-5565.68,128.279,-24.871,-34.8479,6416.74,2385.6,427.204,-38.9648,-38.199,8.02367
3.1475,5542.85,1289.91,8691.83,2.56942,-119.439,-10.6289,32409.5,-6147.89,8459.16,-107.51,252.036,-156.842,1694.02,10979.8,53.8247,-57.6066,-33.7951,-102.885,-19866.4,-28368.1,3914.35,44.4218,122.245,-318.173,6351.89,8722.11,-1562.44,-11.4746,-38.6901,-79.8249,-3784.71,9119.52,-5438.18,128.727,-18.7634,-33.2694,6473.94,2406.22,450.052,-38.1596,-37.6907,7.92737
3.148,5544.69,1291.27,8735.62,2.60656,-119.873,-10.6329,32581.9,-5996.79,8015.84,-112.327,251.201,-154.837,1726.26,10986.0,52.5092,-58.0129,-33.28,-103.55,-20078.1,-28050.5,3649.76,44.8217,121.13,-316.275,6361.67,8739.17,-1603.84,-10.969,-38.2199,-79.6976,-3700.16,9241.13,-5310.68,129.174,-12.6558,-31.6908,6531.14,2426.85,472.901,-37.3545,-37.1824,7.83107
3.1485,5546.53,1292.63,8779.4,2.64371,-120.306,-10.637,32754.4,-5845.68,7572.52,-117.143,250.366,-152.833,1758.51,10992.2,51.1938,-58.4192,-32.765,-104.216,-20289.9,-27733.0,3385.17,45.2216,120.016,-314.377,6371.45,8756.24,-1645.23,-10.4633,-37.7498,-79.5704,-3615.61,9362.75,-5183.18,129.622,-6.54826,-30.1123,6588.35,2447.48,495.749,-36.5493,-36.6741,7.73478
3.149,5548.37,1293.98,8823.19,2.68085,-120.74,-10.6411,32926.8,-5694.57,7129.21,-121.96,249.531,-150.829,1790.75,10998.4,49.8783,-58.8255,-32.2499,-104.881,-20501.7,-27415.4,3120.58,45.6215,118.902,-312.479,6381.22,8773.3,-1686.63,-9.95764,-37.2796,-79.4431,-3531.06,9484.36,-5055.68,130.069,-0.440664,-28.5337,6645.55,2468.11,518.598,-35.7441,-36.1658,7.63848
3.1495,5550.21,1295.34,8866.97,2.718,-121.174,-10.6452,33099.2,-5543.46,6685.89,-126.777,248.696,-148.824,1822.99,11004.6,48.5629,-59.2319,-31.7349,-105.547,-20713.5,-27097.8,2855.99,46.0214,117.787,-310.582,6391.0,8790.37,-1728.03,-9.45198,-36.8095,-79.3159,-3446.51,9605.97,-4928.18,130.517,5.66693,-26.9551,6702.75,2488.73,541.446,-34.939,-35.6574,7.54218
3.15,5552.05,1296.7,8910.76,2.75514,-121.608,-10.6493,33271.6,-5392.36,6242.57,-131.593,247.861,-146.82,1855.24,11010.8,47.2474,-59.6382,-31.2198,-106.212,-20925.3,-26780.2,2591.4,46.4213,116.673,-308.684,6400.78,8807.43,-1769.43,-8.94631,-36.3394,-79.1886,-3361.95,9727.59,-4800.68,130.964,11.7745,-25.3766,6759.95,2509.36,564.295,-34.1338,-35.1491,7.44589
3.1505,5553.88,1298.06,8954.54,2.79229,-122.041,-10.6533,33444.0,-5241.25,5799.26,-136.41,247.026,-144.816,1887.48,11017.0,45.932,-60.0445,-30.7047,-106.877,-21137.1,-26462.6,2326.81,46.8212,115.559,-306.786,6410.56,8824.5,-1810.83,-8.44064,-35.8692,-79.0614,-3277.4,9849.2,-4673.18,131.412,17.8821,-23.798,6817.15,2529.99,587.143,-33.3287,-34.6408,7.34959
3.151,5555.72,1299.41,8998.33,2.82943,-122.475,-10.6574,33616.4,-5090.14,5355.94,-141.227,246.191,-142.811,1919.73,11023.2,44.6165,-60.4508,-30.1897,-107.543,-21348.9,-26145.0,2062.22,47.2211,114.444,-304.888,6420.33,8841.56,-1852.23,-7.93497,-35.3991,-78.9342,-3192.85,9970.81,-4545.68,131.86,23.9897,-22.2195,6874.35,2550.61,609.992,-32.5235,-34.1325,7.25329
3.1515,5533.44,1349.36,9047.45,3.06328,-122.971,-10.5214,33747.6,-4629.45,4907.2,-146.843,245.781,-139.715,1963.2,11042.3,36.7016,-60.7128,-29.5099,-108.288,-21579.4,-25839.5,1633.06,46.8695,113.79,-302.828,6418.86,8876.5,-1874.55,-7.59781,-35.071,-78.8193,-3200.95,10041.0,-4201.53,130.569,30.2907,-20.6397,6910.22,2530.1,667.467,-31.9698,-33.6271,6.99028
3.152,5504.27,1413.19,9098.08,3.35334,-123.485,-10.3453,33866.9,-4080.3,4456.91,-152.688,245.492,-136.307,2009.89,11065.0,26.9011,-60.9337,-28.783,-109.056,-21815.3,-25537.4,1156.88,46.3032,113.267,-300.721,6414.17,8916.53,-1891.41,-7.30879,-34.7834,-78.708,-3235.52,10096.5,-3795.48,128.782,36.6469,-19.0596,6939.99,2497.84,734.836,-31.4879,-33.1225,6.67963
3.1525,5475.1,1477.02,9148.72,3.64339,-124.0,-10.1692,33986.2,-3531.16,4006.62,-158.533,245.204,-132.899,2056.58,11087.7,17.1007,-61.1545,-28.0561,-109.824,-22051.2,-25235.4,680.693,45.7369,112.743,-298.614,6409.48,8956.57,-1908.28,-7.01976,-34.4959,-78.5968,-3270.09,10151.9,-3389.43,126.995,43.0031,-17.4794,6969.76,2465.58,802.205,-31.006,-32.6178,6.36899
3.153,5445.93,1540.85,9199.36,3.93344,-124.514,-9.9931,34105.5,-2982.01,3556.33,-164.377,244.915,-129.491,2103.26,11110.5,7.30021,-61.3754,-27.3293,-110.592,-22287.1,-24933.3,204.51,45.1706,112.22,-296.507,6404.79,8996.61,-1925.15,-6.73074,-34.2083,-78.4855,-3304.66,10207.4,-2983.38,125.208,49.3593,-15.8993,6999.53,2433.32,869.574,-30.5241,-32.1132,6.05834
3.1535,5416.76,1604.68,9250.0,4.22349,-125.028,-9.81701,34224.8,-2432.87,3106.04,-170.222,244.627,-126.083,2149.95,11133.2,-2.50025,-61.5962,-26.6024,-111.36,-22523.0,-24631.2,-271.673,44.6043,111.697,-294.4,6400.1,9036.65,-1942.01,-6.44172,-33.9208,-78.3742,-3339.22,10262.9,-2577.33,123.42,55.7155,-14.3191,7029.3,2401.05,936.943,-30.0423,-31.6086,5.7477
3.154,5387.59,1668.51,9300.63,4.51354,-125.542,-9.64092,34344.1,-1883.72,2655.75,-176.067,244.338,-122.675,2196.64,11155.9,-12.3007,-61.817,-25.8755,-112.129,-22758.8,-24329.2,-747.857,44.038,111.174,-292.293,6395.4,9076.69,-1958.88,-6.1527,-33.6333,-78.2629,-3373.79,10318.4,-2171.28,121.633,62.0718,-12.739,7059.07,2368.79,1004.31,-29.5604,-31.104,5.43705
3.1545,5358.42,1732.34,9351.27,4.8036,-126.056,-9.46483,34463.4,-1334.58,2205.47,-181.912,244.05,-119.267,2243.32,11178.6,-22.1012,-62.0378,-25.1486,-112.897,-22994.7,-24027.1,-1224.04,43.4717,110.651,-290.186,6390.71,9116.73,-1975.75,-5.86367,-33.3457,-78.1516,-3408.36,10373.9,-1765.23,119.846,68.428,-11.1588,7088.84,2336.53,1071.68,-29.0785,-30.5994,5.1264
3.155,5329.25,1796.17,9401.91,5.09365,-126.57,-9.28874,34582.7,-785.431,1755.18,-187.756,243.761,-115.858,2290.01,11201.3,-31.9016,-62.2587,-24.4218,-113.665,-23230.6,-23725.0,-1700.22,42.9054,110.127,-288.079,6386.02,9156.77,-1992.61,-5.57465,-33.0582,-78.0404,-3442.93,10429.3,-1359.18,118.059,74.7842,-9.57869,7118.61,2304.27,1139.05,-28.5966,-30.0948,4.81576
3.1555,5300.08,1859.99,9452.55,5.3837,-127.084,-9.11265,34702.0,-236.286,1304.89,-193.601,243.473,-112.45,2336.7,11224.1,-41.7021,-62.4795,-23.6949,-114.433,-23466.5,-23422.9,-2176.41,42.3391,109.604,-285.972,6381.33,9196.81,-2009.48,-5.28563,-32.7706,-77.9291,-3477.5,10484.8,-953.136,116.272,81.1404,-7.99855,7148.38,2272.0,1206.42,-28.1148,-29.5902,4.50511
3.156,5289.44,1908.73,9503.66,5.79649,-127.764,-8.69136,34704.8,503.625,1053.77,-196.782,242.549,-108.138,2385.28,11249.2,-52.4192,-62.5956,-22.9268,-115.184,-23725.6,-23086.1,-2719.52,40.3289,109.743,-284.364,6369.77,9238.07,-1985.81,-5.05909,-32.6148,-77.7086,-3762.35,10549.1,-317.962,113.427,85.0992,-6.41392,7266.35,2226.32,1274.2,-28.6774,-28.9122,4.37921
3.1565,5281.13,1955.59,9554.83,6.22463,-128.464,-8.23943,34693.1,1267.38,827.544,-199.631,241.547,-103.713,2434.09,11274.6,-63.2509,-62.6987,-22.1536,-115.933,-23987.5,-22744.9,-3271.01,38.1383,109.965,-282.818,6357.35,9279.49,-1957.06,-4.84036,-32.4755,-77.4744,-4078.49,10614.5,345.853,110.451,88.7583,-4.82872,7395.36,2178.95,1342.04,-29.3705,-28.2126,4.27639
3.157,5272.81,2002.44,9606.0,6.65277,-129.165,-7.78749,34681.3,2031.14,601.32,-202.479,240.544,-99.2878,2482.91,11300.1,-74.0826,-62.8017,-21.3804,-116.682,-24249.5,-22403.7,-3822.49,35.9478,110.187,-281.273,6344.93,9320.9,-1928.32,-4.62163,-32.3361,-77.2402,-4394.63,10679.9,1009.67,107.474,92.4174,-3.24352,7524.36,2131.59,1409.87,-30.0637,-27.513,4.17358
3.1575,5264.49,2049.29,9657.17,7.08091,-129.866,-7.33555,34669.5,2794.89,375.097,-205.328,239.542,-94.8626,2531.73,11325.5,-84.9143,-62.9048,-20.6072,-117.431,-24511.4,-22062.5,-4373.97,33.7572,110.409,-279.727,6332.51,9362.32,-1899.58,-4.4029,-32.1968,-77.0061,-4710.78,10745.3,1673.48,104.497,96.0765,-1.65833,7653.36,2084.22,1477.71,-30.7569,-26.8134,4.07076
3.158,5256.17,2096.15,9708.35,7.50904,-130.566,-6.88361,34657.8,3558.65,148.873,-208.176,238.539,-90.4375,2580.55,11350.9,-95.746,-63.0078,-19.834,-118.18,-24773.4,-21721.4,-4925.46,31.5666,110.632,-278.181,6320.08,9403.73,-1870.83,-4.18417,-32.0575,-76.7719,-5026.92,10810.7,2337.3,101.521,99.7356,-0.0731336,7782.36,2036.86,1545.54,-31.4501,-26.1138,3.96795
3.1585,5247.85,2143.0,9759.52,7.93718,-131.267,-6.43167,34646.0,4322.41,-77.3506,-211.025,237.537,-86.0123,2629.37,11376.4,-106.578,-63.1108,-19.0608,-118.929,-25035.3,-21380.2,-5476.94,29.376,110.854,-276.636,6307.66,9445.15,-1842.09,-3.96544,-31.9181,-76.5378,-5343.06,10876.1,3001.11,98.544,103.395,1.51206,7911.36,1989.49,1613.38,-32.1432,-25.4142,3.86514
3.159,5239.53,2189.85,9810.69,8.36532,-131.968,-5.97973,34634.3,5086.16,-303.574,-213.873,236.534,-81.5871,2678.18,11401.8,-117.409,-63.2139,-18.2876,-119.678,-25297.3,-21039.0,-6028.42,27.1854,111.076,-275.09,6295.24,9486.56,-1813.35,-3.74671,-31.7788,-76.3036,-5659.2,10941.5,3664.93,95.5673,107.054,3.09726,8040.36,1942.13,1681.21,-32.8364,-24.7146,3.76232
3.1595,5231.21,2236.71,9861.86,8.79346,-132.668,-5.5278,34622.5,5849.92,-529.798,-216.722,235.531,-77.1619,2727.0,11427.2,-128.241,-63.3169,-17.5144,-120.427,-25559.3,-20697.8,-6579.9,24.9948,111.298,-273.544,6282.82,9527.98,-1784.6,-3.52799,-31.6394,-76.0694,-5975.34,11006.9,4328.74,92.5907,110.713,4.68245,8169.36,1894.76,1749.05,-33.5296,-24.015,3.65951
3.16,5222.9,2283.56,9913.03,9.22159,-133.369,-5.07586,34610.8,6613.68,-756.021,-219.57,234.529,-72.7367,2775.82,11452.7,-139.073,-63.42,-16.7412,-121.176,-25821.2,-20356.6,-7131.39,22.8042,111.52,-271.999,6270.4,9569.39,-1755.86,-3.30926,-31.5001,-75.8353,-6291.48,11072.3,4992.56,89.6141,114.372,6.26765,8298.36,1847.4,1816.88,-34.2227,-23.3154,3.5567
3.1605,5226.59,2253.08,9926.88,9.62606,-134.142,-4.82563,34521.9,6745.92,-966.984,-215.819,232.81,-68.8687,2770.38,11524.8,-197.012,-63.5564,-15.8935,-122.035,-26081.8,-19901.0,-7469.56,20.2376,109.6,-270.914,6262.85,9652.03,-1709.45,-3.16058,-31.474,-75.5603,-6963.42,11183.6,5646.96,86.5271,112.112,7.04821,8397.76,1765.12,1859.18,-35.5648,-22.5561,3.64953
3.161,5230.28,2222.6,9940.74,10.0305,-134.915,-4.57541,34433.1,6878.17,-1177.95,-212.067,231.09,-65.0008,2764.94,11596.8,-254.951,-63.6928,-15.0459,-122.895,-26342.4,-19445.3,-7807.74,17.671,107.679,-269.829,6255.3,9734.67,-1663.03,-3.01191,-31.4478,-75.2853,-7635.36,11294.8,6301.37,83.4402,109.852,7.82878,8497.16,1682.85,1901.48,-36.9068,-21.7969,3.74236
3.1615,5233.97,2192.12,9954.59,10.435,-135.689,-4.32519,34344.2,7010.41,-1388.91,-208.316,229.371,-61.1328,2759.5,11668.9,-312.891,-63.8293,-14.1982,-123.754,-26603.0,-18989.6,-8145.92,15.1044,105.759,-268.745,6247.75,9817.31,-1616.61,-2.86324,-31.4217,-75.0103,-8307.3,11406.1,6955.78,80.3533,107.592,8.60934,8596.56,1600.57,1943.78,-38.2489,-21.0376,3.83519
3.162,5237.66,2161.64,9968.44,10.8395,-136.462,-4.07496,34255.4,7142.66,-1599.87,-204.565,227.652,-57.2649,2754.05,11741.0,-370.83,-63.9657,-13.3506,-124.614,-26863.6,-18534.0,-8484.1,12.5378,103.839,-267.66,6240.2,9899.95,-1570.2,-2.71457,-31.3956,-74.7353,-8979.24,11517.4,7610.18,77.2664,105.332,9.38991,8695.96,1518.29,1986.08,-39.5909,-20.2784,3.92802
3.1625,5241.36,2131.16,9982.29,11.2439,-137.235,-3.82474,34166.6,7274.91,-1810.83,-200.813,225.933,-53.3969,2748.61,11813.1,-428.769,-64.1022,-12.5029,-125.473,-27124.2,-18078.3,-8822.27,9.9712,101.919,-266.575,6232.65,9982.59,-1523.78,-2.5659,-31.3695,-74.4603,-9651.18,11628.6,8264.59,74.1795,103.072,10.1705,8795.36,1436.02,2028.38,-40.9329,-19.5191,4.02085
3.163,5245.05,2100.68,9996.14,11.6484,-138.008,-3.57451,34077.7,7407.15,-2021.8,-197.062,224.213,-49.5289,2743.17,11885.2,-486.709,-64.2386,-11.6553,-126.333,-27384.8,-17622.7,-9160.45,7.4046,99.9984,-265.491,6225.1,10065.2,-1477.37,-2.41723,-31.3433,-74.1853,-10323.1,11739.9,8919.0,71.0926,100.812,10.951,8894.76,1353.74,2070.68,-42.275,-18.7598,4.11368
3.1635,5248.74,2070.2,10010.0,12.0529,-138.781,-3.32429,33988.9,7539.4,-2232.76,-193.31,222.494,-45.661,2737.73,11957.3,-544.648,-64.3751,-10.8076,-127.192,-27645.4,-17167.0,-9498.63,4.838,98.0781,-264.406,6217.55,10147.9,-1430.95,-2.26856,-31.3172,-73.9103,-10995.1,11851.2,9573.41,68.0057,98.5519,11.7316,8994.16,1271.47,2112.98,-43.617,-18.0006,4.20651
3.164,5252.43,2039.72,10023.8,12.4573,-139.555,-3.07407,33900.0,7671.64,-2443.72,-189.559,220.775,-41.793,2732.29,12029.4,-602.587,-64.5115,-9.96,-128.052,-27906.0,-16711.3,-9836.8,2.2714,96.1579,-263.321,6210.0,10230.5,-1384.54,-2.11988,-31.2911,-73.6354,-11667.0,11962.4,10227.8,64.9188,96.2918,12.5122,9093.56,1189.19,2155.28,-44.959,-17.2413,4.29934
3.1645,5256.6,2005.65,10040.5,12.8199,-140.345,-2.83861,33824.5,7676.22,-2666.21,-185.311,219.093,-38.1259,2725.15,12099.6,-656.265,-64.6393,-9.13264,-128.884,-28180.7,-16240.1,-10150.8,-0.285998,94.0842,-262.134,6198.82,10315.1,-1334.54,-1.99058,-31.2802,-73.3622,-12365.3,12082.8,10835.7,61.7749,93.1981,13.0671,9191.46,1099.64,2196.15,-46.1858,-16.5017,4.36002
3.165,5264.57,1942.87,10079.9,12.8467,-141.273,-2.72132,33855.1,6659.44,-2980.87,-177.093,217.711,-36.0656,2704.49,12155.2,-675.853,-64.698,-8.46754,-129.496,-28568.4,-15643.9,-10271.5,-2.76978,90.7833,-260.121,6158.64,10415.2,-1255.91,-2.01625,-31.3913,-73.1033,-13274.3,12275.6,11071.8,58.1752,83.4343,11.8169,9277.34,951.897,2225.61,-46.4905,-15.9186,4.16356
3.1655,5272.55,1880.09,10119.2,12.8736,-142.202,-2.60403,33885.7,5642.65,-3295.54,-168.875,216.33,-34.0054,2683.82,12210.9,-695.442,-64.7566,-7.80244,-130.109,-28956.1,-15047.7,-10392.1,-5.25356,87.4824,-258.108,6118.46,10515.2,-1177.27,-2.04191,-31.5024,-72.8445,-14183.3,12468.5,11307.9,54.5756,73.6705,10.5667,9363.22,804.151,2255.07,-46.7951,-15.3355,3.9671
3.166,5280.52,1817.31,10158.6,12.9005,-143.13,-2.48673,33916.4,4625.87,-3610.21,-160.657,214.948,-31.9451,2663.15,12266.5,-715.03,-64.8152,-7.13735,-130.721,-29343.7,-14451.6,-10512.8,-7.73734,84.1814,-256.095,6078.27,10615.3,-1098.64,-2.06758,-31.6136,-72.5857,-15092.3,12661.3,11544.0,50.9759,63.9067,9.31657,9449.1,656.405,2284.53,-47.0998,-14.7524,3.77064
3.1665,5288.49,1754.53,10197.9,12.9274,-144.059,-2.36944,33947.0,3609.09,-3924.88,-152.439,213.566,-29.8848,2642.48,12322.1,-734.618,-64.8739,-6.47225,-131.334,-29731.4,-13855.4,-10633.4,-10.2211,80.8805,-254.082,6038.09,10715.4,-1020.01,-2.09325,-31.7247,-72.3269,-16001.4,12854.2,11780.1,47.3762,54.1429,8.06639,9534.98,508.659,2313.99,-47.4045,-14.1694,3.57419
3.167,5296.47,1691.74,10237.3,12.9543,-144.987,-2.25215,33977.6,2592.31,-4239.55,-144.221,212.184,-27.8245,2621.81,12377.7,-754.206,-64.9325,-5.80715,-131.946,-30119.1,-13259.2,-10754.1,-12.7049,77.5795,-252.069,5997.91,10815.5,-941.377,-2.11891,-31.8358,-72.068,-16910.4,13047.0,12016.1,43.7766,44.3792,6.81621,9620.86,360.914,2343.45,-47.7091,-13.5863,3.37773
3.1675,5304.44,1628.96,10276.6,12.9811,-145.916,-2.13485,34008.3,1575.52,-4554.22,-136.002,210.803,-25.7642,2601.15,12433.3,-773.795,-64.9911,-5.14206,-132.559,-30506.7,-12663.1,-10874.7,-15.1887,74.2786,-250.056,5957.72,10915.6,-862.744,-2.14458,-31.9469,-71.8092,-17819.4,13239.9,12252.2,40.1769,34.6154,5.56603,9706.75,213.168,2372.91,-48.0138,-13.0032,3.18127
3.168,5312.42,1566.18,10316.0,13.008,-146.844,-2.01756,34038.9,558.742,-4868.89,-127.784,209.421,-23.704,2580.48,12489.0,-793.383,-65.0498,-4.47696,-133.171,-30894.4,-12066.9,-10995.4,-17.6725,70.9777,-248.043,5917.54,11015.6,-784.112,-2.17024,-32.058,-71.5504,-18728.4,13432.7,12488.3,36.5772,24.8516,4.31586,9792.63,65.4218,2402.37,-48.3185,-12.4201,2.98481
3.1685,5320.39,1503.4,10355.3,13.0349,-147.773,-1.90027,34069.5,-458.04,-5183.55,-119.566,208.039,-21.6437,2559.81,12544.6,-812.971,-65.1084,-3.81186,-133.784,-31282.1,-11470.7,-11116.0,-20.1562,67.6767,-246.03,5877.36,11115.7,-705.479,-2.19591,-32.1691,-71.2916,-19637.5,13625.6,12724.4,32.9775,15.0878,3.06568,9878.51,-82.3241,2431.83,-48.6231,-11.8371,2.78835
3.169,5329.1,1450.4,10385.1,13.0159,-148.688,-1.82433,34140.2,-1499.98,-5491.28,-110.887,206.677,-19.528,2536.92,12604.9,-829.968,-65.1901,-3.28553,-134.4,-31689.7,-10883.4,-11173.6,-22.5046,64.0804,-243.569,5836.36,11210.0,-623.326,-2.25887,-32.3193,-70.9915,-20520.4,13860.4,12846.9,28.4591,4.06738,1.50551,9958.85,-215.659,2457.06,-48.6606,-11.3995,2.51928
3.1695,5340.4,1431.63,10381.5,12.8364,-149.558,-1.89315,34350.9,-2629.96,-5774.71,-100.597,205.385,-17.2185,2506.27,12681.9,-837.893,-65.3528,-3.24488,-135.029,-32167.3,-10326.9,-11010.2,-24.3789,59.4501,-239.54,5792.51,11283.8,-528.849,-2.45239,-32.6063,-70.5471,-21311.8,14242.1,12572.2,20.7249,-11.3514,-1.13961,10019.8,-298.553,2467.49,-47.7629,-11.4712,1.99609
3.17,5351.7,1412.86,10377.9,12.6568,-150.428,-1.96197,34561.5,-3759.94,-6058.13,-90.3065,204.093,-14.9089,2475.62,12758.8,-845.819,-65.5154,-3.20423,-135.658,-32644.9,-9770.41,-10846.8,-26.2533,54.8199,-235.511,5748.66,11357.6,-434.372,-2.64591,-32.8933,-70.1026,-22103.2,14623.8,12297.4,12.9907,-26.7702,-3.78472,10080.7,-381.447,2477.92,-46.8652,-11.5429,1.4729
3.1705,5363.01,1394.09,10374.3,12.4773,-151.298,-2.03079,34772.2,-4889.92,-6341.56,-80.016,202.801,-12.5994,2444.97,12835.8,-853.744,-65.678,-3.16358,-136.286,-33122.5,-9213.92,-10683.4,-28.1276,50.1896,-231.482,5704.81,11431.5,-339.895,-2.83943,-33.1802,-69.6582,-22894.7,15005.5,12022.6,5.25653,-42.1889,-6.42984,10141.7,-464.342,2488.35,-45.9676,-11.6145,0.949709
3.171,5374.31,1375.32,10370.7,12.2978,-152.168,-2.0996,34982.9,-6019.9,-6624.98,-69.7255,201.509,-10.2898,2414.32,12912.7,-861.67,-65.8407,-3.12293,-136.915,-33600.1,-8657.44,-10520.0,-30.0019,45.5593,-227.453,5660.97,11505.3,-245.418,-3.03295,-33.4672,-69.2138,-23686.1,15387.2,11747.8,-2.47765,-57.6077,-9.07496,10202.6,-547.236,2498.78,-45.0699,-11.6862,0.426519
3.1715,5385.61,1356.55,10367.1,12.1182,-153.038,-2.16842,35193.5,-7149.88,-6908.41,-59.4351,200.216,-7.98028,2383.67,12989.7,-869.596,-66.0033,-3.08228,-137.544,-34077.7,-8100.95,-10356.6,-31.8762,40.9291,-223.424,5617.12,11579.2,-150.941,-3.22647,-33.7542,-68.7693,-24477.5,15768.9,11473.1,-10.2118,-73.0265,-11.7201,10263.6,-630.13,2509.21,-44.1722,-11.7579,-0.0966716
3.172,5396.91,1337.78,10363.5,11.9387,-153.908,-2.23724,35404.2,-8279.86,-7191.84,-49.1446,198.924,-5.67073,2353.02,13066.6,-877.521,-66.166,-3.04163,-138.173,-34555.3,-7544.46,-10193.2,-33.7506,36.2988,-219.395,5573.27,11653.0,-56.464,-3.41999,-34.0411,-68.3249,-25268.9,16150.6,11198.3,-17.946,-88.4452,-14.3652,10324.5,-713.025,2519.64,-43.2745,-11.8296,-0.619862
3.1725,5408.21,1319.01,10359.9,11.7592,-154.778,-2.30606,35614.9,-9409.84,-7475.26,-38.8541,197.632,-3.36119,2322.37,13143.6,-885.447,-66.3286,-3.00098,-138.802,-35032.9,-6987.97,-10029.9,-35.6249,31.6685,-215.365,5529.42,11726.8,38.013,-3.61352,-34.3281,-67.8805,-26060.4,16532.3,10923.5,-25.6802,-103.864,-17.0103,10385.4,-795.919,2530.06,-42.3768,-11.9013,-1.14305
3.173,5419.51,1300.24,10356.4,11.5796,-155.648,-2.37488,35825.6,-10539.8,-7758.69,-28.5637,196.34,-1.05164,2291.72,13220.5,-893.372,-66.4912,-2.96033,-139.431,-35510.5,-6431.48,-9866.47,-37.4992,27.0383,-211.336,5485.57,11800.7,132.49,-3.80704,-34.6151,-67.436,-26851.8,16913.9,10648.7,-33.4144,-119.283,-19.6554,10446.4,-878.813,2540.49,-41.4791,-11.9729,-1.66624
3.1735,5430.68,1280.87,10356.0,11.3863,-156.566,-2.45966,36043.2,-11436.2,-8060.58,-18.1885,194.846,1.50677,2260.43,13278.5,-904.374,-66.646,-3.00518,-139.979,-35937.6,-5956.64,-9608.22,-39.1717,21.7633,-207.04,5437.7,11862.8,222.054,-4.01534,-34.9947,-66.9421,-27471.9,17303.5,10246.6,-42.2845,-134.165,-22.3939,10529.2,-969.451,2548.72,-40.5902,-11.9965,-2.16139
3.174,5441.58,1260.29,10362.2,11.1653,-157.581,-2.57636,36275.0,-11865.2,-8399.39,-7.64384,192.947,4.56292,2227.88,13298.3,-921.526,-66.7851,-3.22104,-140.366,-36263.5,-5645.11,-9160.26,-40.4407,15.1989,-202.211,5381.78,11901.5,301.794,-4.2532,-35.5595,-66.3492,-27749.4,17708.7,9589.85,-53.4266,-147.975,-25.3192,10655.7,-1075.58,2552.56,-39.7188,-11.9239,-2.60045
3.1745,5452.49,1239.72,10368.4,10.9444,-158.596,-2.69306,36506.7,-12294.3,-8738.2,2.9008,191.049,7.61907,2195.34,13318.1,-938.679,-66.9241,-3.4369,-140.752,-36589.4,-5333.58,-8712.29,-41.7096,8.63441,-197.381,5325.87,11940.2,381.534,-4.49106,-36.1244,-65.7563,-28026.9,18113.8,8933.09,-64.5686,-161.785,-28.2445,10782.3,-1181.7,2556.39,-38.8474,-11.8512,-3.0395
3.175,5463.39,1219.15,10374.6,10.7234,-159.612,-2.80976,36738.5,-12723.3,-9077.01,13.4454,189.151,10.6752,2162.79,13338.0,-955.832,-67.0632,-3.65277,-141.138,-36915.3,-5022.05,-8264.33,-42.9785,2.06996,-192.552,5269.95,11978.9,461.273,-4.72892,-36.6892,-65.1634,-28304.4,18519.0,8276.32,-75.7107,-175.594,-31.1698,10908.8,-1287.82,2560.22,-37.976,-11.7786,-3.47856
3.1755,5474.3,1198.57,10380.7,10.5024,-160.627,-2.92647,36970.2,-13152.4,-9415.83,23.9901,187.253,13.7314,2130.24,13357.8,-972.985,-67.2023,-3.86863,-141.525,-37241.1,-4710.52,-7816.36,-44.2475,-4.49448,-187.722,5214.04,12017.6,541.013,-4.96678,-37.2541,-64.5705,-28581.9,18924.2,7619.56,-86.8527,-189.404,-34.0951,11035.4,-1393.95,2564.06,-37.1046,-11.7059,-3.91762
3.176,5485.2,1178.0,10386.9,10.2815,-161.642,-3.04317,37201.9,-13581.4,-9754.64,34.5347,185.354,16.7875,2097.69,13377.6,-990.138,-67.3413,-4.08449,-141.911,-37567.0,-4398.98,-7368.39,-45.5164,-11.0589,-182.892,5158.12,12056.3,620.752,-5.20464,-37.8189,-63.9777,-28859.4,19329.4,6962.79,-97.9948,-203.214,-37.0204,11161.9,-1500.07,2567.89,-36.2332,-11.6333,-4.35668
3.1765,5496.1,1157.42,10393.1,10.0605,-162.657,-3.15987,37433.7,-14010.5,-10093.4,45.0794,183.456,19.8437,2065.15,13397.5,-1007.29,-67.4804,-4.30035,-142.298,-37892.9,-4087.45,-6920.43,-46.7853,-17.6234,-178.063,5102.21,12095.0,700.492,-5.4425,-38.3838,-63.3848,-29136.9,19734.6,6306.03,-109.137,-217.023,-39.9457,11288.5,-1606.2,2571.72,-35.3618,-11.5607,-4.79573
3.177,5507.01,1136.85,10399.3,9.83953,-163.673,-3.27657,37665.4,-14439.5,-10432.3,55.624,181.558,22.8998,2032.6,13417.3,-1024.44,-67.6194,-4.51621,-142.684,-38218.8,-3775.92,-6472.46,-48.0542,-24.1878,-173.233,5046.29,12133.7,780.231,-5.68036,-38.9486,-62.7919,-29414.4,20139.8,5649.26,-120.279,-230.833,-42.871,11415.0,-1712.32,2575.56,-34.4904,-11.488,-5.23479
3.1775,5517.91,1116.28,10405.4,9.61856,-164.688,-3.39328,37897.1,-14868.6,-10771.1,66.1686,179.659,25.956,2000.05,13437.1,-1041.6,-67.7585,-4.73207,-143.07,-38544.7,-3464.39,-6024.49,-49.3232,-30.7523,-168.403,4990.38,12172.4,859.971,-5.91822,-39.5135,-62.199,-29691.9,20544.9,4992.5,-131.421,-244.643,-45.7963,11541.6,-1818.45,2579.39,-33.619,-11.4154,-5.67385
3.178,5520.5,1082.36,10422.2,9.38504,-165.736,-3.52565,38046.6,-14942.6,-11094.7,75.7553,177.364,29.0679,1970.58,13455.2,-1060.75,-67.9094,-5.03525,-143.494,-38732.9,-3297.28,-5560.08,-50.586,-37.4362,-163.839,4929.41,12200.0,918.489,-6.18643,-40.1232,-61.563,-29751.3,20835.6,4341.65,-141.57,-255.999,-48.6162,11612.1,-1879.88,2520.38,-32.3013,-11.1289,-6.33084
3.1785,5512.7,1031.77,10452.3,9.13583,-166.823,-3.6776,38093.1,-14572.8,-11399.2,84.1446,174.572,32.2495,1944.94,13471.0,-1082.41,-68.0751,-5.44758,-143.963,-38749.0,-3310.68,-5075.11,-51.8412,-44.2696,-159.606,4862.12,12213.7,950.479,-6.49259,-40.789,-60.873,-29537.9,20983.1,3698.21,-150.478,-264.288,-51.3044,11612.6,-1885.44,2382.82,-30.4259,-10.5752,-7.26026
3.179,5504.9,981.183,10482.3,8.88662,-167.911,-3.82956,38139.6,-14203.1,-11703.8,92.5339,171.78,35.4312,1919.31,13486.8,-1104.07,-68.2407,-5.85992,-144.432,-38765.1,-3324.09,-4590.14,-53.0964,-51.103,-155.374,4794.83,12227.5,982.469,-6.79875,-41.4547,-60.1831,-29324.5,21130.6,3054.76,-159.386,-272.577,-53.9926,11613.1,-1891.0,2245.26,-28.5504,-10.0215,-8.18968
3.1795,5497.1,930.594,10512.3,8.63742,-168.999,-3.98151,38186.1,-13833.3,-12008.3,100.923,168.989,38.6129,1893.68,13502.5,-1125.73,-68.4064,-6.27225,-144.901,-38781.1,-3337.5,-4105.17,-54.3515,-57.9364,-151.141,4727.54,12241.3,1014.46,-7.10492,-42.1205,-59.4932,-29111.2,21278.1,2411.32,-168.294,-280.866,-56.6807,11613.6,-1896.57,2107.69,-26.675,-9.46786,-9.1191
3.18,5489.29,880.005,10542.3,8.38821,-170.087,-4.13347,38232.7,-13463.5,-12312.8,109.312,166.197,41.7945,1868.05,13518.3,-1147.38,-68.5721,-6.68458,-145.371,-38797.2,-3350.91,-3620.2,-55.6067,-64.7697,-146.908,4660.25,12255.0,1046.45,-7.41108,-42.7863,-58.8033,-28897.8,21425.6,1767.87,-177.202,-289.155,-59.3689,11614.1,-1902.13,1970.13,-24.7995,-8.91417,-10.0485
3.1805,5481.49,829.415,10572.4,8.139,-171.175,-4.28543,38279.2,-13093.7,-12617.4,117.702,163.405,44.9762,1842.42,13534.1,-1169.04,-68.7378,-7.09691,-145.84,-38813.3,-3364.32,-3135.23,-56.8619,-71.6031,-142.676,4592.96,12268.8,1078.44,-7.71724,-43.4521,-58.1133,-28684.4,21573.1,1124.43,-186.11,-297.444,-62.0571,11614.6,-1907.69,1832.57,-22.9241,-8.36048,-10.9779
3.181,5473.69,778.826,10602.4,7.88979,-172.262,-4.43738,38325.7,-12724.0,-12921.9,126.091,160.613,48.1579,1816.79,13549.9,-1190.7,-68.9035,-7.50924,-146.309,-38829.4,-3377.73,-2650.26,-58.1171,-78.4365,-138.443,4525.67,12282.6,1110.43,-8.0234,-44.1179,-57.4234,-28471.1,21720.7,480.979,-195.018,-305.734,-64.7452,11615.1,-1913.25,1695.01,-21.0486,-7.80679,-11.9073
3.1815,5465.89,728.237,10632.4,7.64058,-173.35,-4.58934,38372.2,-12354.2,-13226.5,134.48,157.822,51.3395,1791.15,13565.7,-1212.36,-69.0692,-7.92158,-146.778,-38845.4,-3391.14,-2165.29,-59.3723,-85.2699,-134.21,4458.38,12296.4,1142.42,-8.32956,-44.7837,-56.7335,-28257.7,21868.2,-162.466,-203.926,-314.023,-67.4334,11615.6,-1918.82,1557.44,-19.1731,-7.2531,-12.8368
3.182,5458.09,677.647,10662.4,7.39137,-174.438,-4.74129,38418.8,-11984.4,-13531.0,142.87,155.03,54.5212,1765.52,13581.5,-1234.02,-69.2348,-8.33391,-147.248,-38861.5,-3404.55,-1680.32,-60.6274,-92.1033,-129.977,4391.09,12310.1,1174.41,-8.63572,-45.4495,-56.0435,-28044.3,22015.7,-805.912,-212.834,-322.312,-70.1216,11616.1,-1924.38,1419.88,-17.2977,-6.69941,-13.7662
3.1825,5449.79,630.971,10686.7,7.16864,-175.668,-4.92788,38377.0,-11430.8,-13804.3,149.564,151.648,57.555,1767.52,13602.0,-1254.2,-69.4236,-8.68281,-147.737,-38717.5,-3481.61,-1289.78,-61.6614,-98.1295,-126.108,4340.82,12310.6,1193.5,-8.96922,-46.2727,-55.4023,-27693.5,21926.5,-1262.68,-218.988,-329.273,-72.7684,11636.1,-1935.0,1353.24,-15.3392,-6.12149,-14.8154
3.183,5441.09,587.424,10706.3,6.96709,-177.012,-5.14217,38264.7,-10730.2,-14052.6,154.902,147.795,60.4706,1791.61,13626.4,-1273.2,-69.6308,-8.98095,-148.242,-38445.3,-3609.59,-974.805,-62.5184,-103.51,-122.53,4304.18,12300.4,1202.26,-9.32458,-47.2219,-54.8001,-27232.7,21647.9,-1570.1,-222.94,-335.17,-75.3821,11671.6,-1949.66,1343.33,-13.3143,-5.52418,-15.9604
3.1835,5432.39,543.877,10726.0,6.76554,-178.356,-5.35646,38152.4,-10029.5,-14300.9,160.24,143.941,63.3861,1815.7,13650.7,-1292.19,-69.8379,-9.2791,-148.747,-38173.2,-3737.58,-659.826,-63.3755,-108.891,-118.952,4267.55,12290.3,1211.02,-9.67995,-48.1711,-54.1979,-26771.8,21369.3,-1877.52,-226.891,-341.068,-77.9957,11707.1,-1964.32,1333.42,-11.2893,-4.92687,-17.1054
3.184,5423.69,500.331,10745.6,6.56399,-179.699,-5.57075,38040.0,-9328.82,-14549.1,165.578,140.087,66.3017,1839.8,13675.1,-1311.19,-70.0451,-9.57725,-149.252,-37901.1,-3865.56,-344.847,-64.2325,-114.271,-115.374,4230.91,12280.1,1219.78,-10.0353,-49.1203,-53.5957,-26311.0,21090.7,-2184.94,-230.842,-346.966,-80.6094,11742.7,-1978.98,1323.51,-9.26438,-4.32957,-18.2504
3.1845,5414.99,456.784,10765.3,6.36244,-181.043,-5.78504,37927.7,-8628.14,-14797.4,170.916,136.234,69.2172,1863.89,13699.4,-1330.19,-70.2523,-9.8754,-149.757,-37629.0,-3993.54,-29.868,-65.0895,-119.652,-111.796,4194.27,12270.0,1228.55,-10.3907,-50.0695,-52.9934,-25850.1,20812.1,-2492.36,-234.794,-352.864,-83.2231,11778.2,-1993.65,1313.61,-7.23944,-3.73226,-19.3954
3.185,5406.29,413.237,10784.9,6.16089,-182.387,-5.99933,37815.4,-7927.47,-15045.7,176.253,132.38,72.1328,1887.99,13723.8,-1349.19,-70.4595,-10.1735,-150.262,-37356.9,-4121.52,285.111,-65.9465,-125.032,-108.218,4157.63,12259.8,1237.31,-10.746,-51.0187,-52.3912,-25389.3,20533.5,-2799.78,-238.745,-358.762,-85.8368,11813.7,-2008.31,1303.7,-5.21451,-3.13495,-20.5404
3.1855,5397.59,369.691,10804.6,5.95934,-183.731,-6.21362,37703.1,-7226.8,-15294.0,181.591,128.527,75.0483,1912.08,13748.1,-1368.18,-70.6667,-10.4717,-150.767,-37084.8,-4249.51,600.09,-66.8035,-130.413,-104.64,4120.99,12249.6,1246.07,-11.1014,-51.9679,-51.789,-24928.5,20254.9,-3107.2,-242.696,-364.66,-88.4505,11849.3,-2022.97,1293.79,-3.18957,-2.53764,-21.6854
3.186,5388.89,326.144,10824.2,5.75779,-185.074,-6.42791,37590.7,-6526.12,-15542.2,186.929,124.673,77.9639,1936.18,13772.5,-1387.18,-70.8739,-10.7698,-151.272,-36812.7,-4377.49,915.069,-67.6606,-135.793,-101.062,4084.35,12239.5,1254.83,-11.4568,-52.9172,-51.1868,-24467.6,19976.3,-3414.62,-246.648,-370.557,-91.0642,11884.8,-2037.63,1283.88,-1.16463,-1.94033,-22.8304
3.1865,5380.19,282.597,10843.8,5.55624,-186.418,-6.6422,37478.4,-5825.45,-15790.5,192.267,120.82,80.8795,1960.27,13796.8,-1406.18,-71.081,-11.068,-151.777,-36540.6,-4505.47,1230.05,-68.5176,-141.174,-97.4841,4047.71,12229.3,1263.6,-11.8121,-53.8664,-50.5846,-24006.8,19697.7,-3722.04,-250.599,-376.455,-93.6778,11920.3,-2052.3,1273.97,0.860304,-1.34303,-23.9754
3.187,5373.71,265.511,10845.0,5.37451,-187.831,-6.77369,37308.4,-5341.77,-16005.0,195.111,116.618,83.0365,1985.62,13803.2,-1408.11,-71.2004,-11.2122,-152.315,-36158.8,-4672.45,1410.08,-68.5902,-144.787,-93.6529,4022.68,12199.0,1236.51,-12.0254,-55.023,-50.1037,-23540.1,19279.1,-3875.99,-252.26,-381.203,-95.3247,11964.1,-2049.82,1243.87,2.85699,-0.871901,-25.0376
3.1875,5368.34,261.655,10837.0,5.20269,-189.279,-6.86379,37109.6,-4966.6,-16202.6,196.708,112.243,84.8144,2011.6,13800.5,-1401.51,-71.2759,-11.2795,-152.868,-35722.1,-4858.92,1522.63,-68.2706,-147.516,-89.6951,4003.45,12158.5,1191.49,-12.1676,-56.2833,-49.6835,-23070.4,18790.7,-3953.2,-252.776,-385.375,-96.4881,12011.9,-2038.78,1203.67,4.83956,-0.463868,-26.0585
3.188,5362.97,257.799,10828.9,5.03087,-190.727,-6.95389,36910.8,-4591.43,-16400.2,198.305,107.868,86.5922,2037.58,13797.9,-1394.91,-71.3514,-11.3468,-153.422,-35285.5,-5045.39,1635.18,-67.951,-150.245,-85.7373,3984.22,12118.1,1146.48,-12.3098,-57.5436,-49.2633,-22600.8,18302.2,-4030.42,-253.292,-389.548,-97.6515,12059.8,-2027.74,1163.46,6.82212,-0.0558342,-27.0794
3.1885,5357.6,253.943,10820.8,4.85905,-192.174,-7.04399,36712.0,-4216.25,-16597.7,199.902,103.493,88.3701,2063.55,13795.3,-1388.3,-71.4269,-11.4141,-153.976,-34848.8,-5231.86,1747.73,-67.6314,-152.974,-81.7795,3964.99,12077.6,1101.46,-12.452,-58.8039,-48.843,-22131.2,17813.7,-4107.64,-253.808,-393.72,-98.8148,12107.6,-2016.7,1123.26,8.80469,0.352199,-28.1002
3.189,5352.23,250.087,10812.8,4.68723,-193.622,-7.13409,36513.2,-3841.08,-16795.3,201.499,99.1182,90.1479,2089.53,13792.6,-1381.7,-71.5024,-11.4814,-154.529,-34412.2,-5418.33,1860.28,-67.3117,-155.703,-77.8217,3945.76,12037.2,1056.45,-12.5942,-60.0642,-48.4228,-21661.5,17325.2,-4184.85,-254.324,-397.893,-99.9782,12155.5,-2005.66,1083.06,10.7872,0.760233,-29.1211
3.1895,5346.86,246.231,10804.7,4.51542,-195.07,-7.22419,36314.4,-3465.91,-16992.9,203.096,94.7431,91.9258,2115.51,13790.0,-1375.1,-71.5779,-11.5487,-155.083,-33975.5,-5604.8,1972.84,-66.9921,-158.432,-73.8639,3926.54,11996.7,1011.43,-12.7364,-61.3245,-48.0026,-21191.9,16836.8,-4262.07,-254.84,-402.065,-101.142,12203.3,-1994.62,1042.85,12.7698,1.16827,-30.142
3.19,5341.49,242.375,10796.7,4.3436,-196.517,-7.31429,36115.6,-3090.73,-17190.5,204.693,90.3681,93.7036,2141.49,13787.3,-1368.5,-71.6534,-11.616,-155.637,-33538.9,-5791.27,2085.39,-66.6725,-161.161,-69.9062,3907.31,11956.3,966.419,-12.8786,-62.5848,-47.5824,-20722.2,16348.3,-4339.28,-255.356,-406.238,-102.305,12251.2,-1983.58,1002.65,14.7524,1.5763,-31.1628
3.1905,5336.12,238.519,10788.6,4.17178,-197.965,-7.40439,35916.8,-2715.56,-17388.1,206.29,85.993,95.4815,2167.47,13784.7,-1361.89,-71.7289,-11.6832,-156.19,-33102.2,-5977.74,2197.94,-66.3529,-163.891,-65.9484,3888.08,11915.8,921.404,-13.0208,-63.8451,-47.1622,-20252.6,15859.8,-4416.5,-255.872,-410.41,-103.468,12299.0,-1972.54,962.445,16.7349,1.98433,-32.1837
3.191,5330.75,234.663,10780.5,3.99996,-199.413,-7.49448,35718.0,-2340.39,-17585.7,207.887,81.618,97.2593,2193.44,13782.1,-1355.29,-71.8043,-11.7505,-156.744,-32665.6,-6164.21,2310.49,-66.0333,-166.62,-61.9906,3868.85,11875.4,876.389,-13.163,-65.1054,-46.742,-19782.9,15371.3,-4493.72,-256.388,-414.582,-104.632,12346.9,-1961.5,922.242,18.7175,2.39237,-33.2046
3.1915,5330.2,262.242,10811.9,3.9283,-201.152,-7.57791,35549.2,-2284.11,-17563.6,206.22,77.1321,97.8763,2211.19,13785.7,-1341.68,-71.8244,-11.6597,-157.298,-32202.1,-6422.45,2419.75,-64.7421,-166.564,-58.083,3864.08,11849.4,823.722,-13.3648,-66.2265,-46.3598,-19461.4,14806.0,-4472.93,-252.369,-413.326,-104.337,12384.0,-1916.41,922.642,20.103,2.80168,-33.9736
3.192,5331.02,298.802,10854.6,3.88526,-202.974,-7.65942,35388.9,-2318.95,-17478.7,203.62,72.6145,98.1615,2226.57,13791.1,-1326.07,-71.8287,-11.5237,-157.852,-31730.9,-6701.18,2528.06,-63.1733,-165.713,-54.1897,3863.43,11827.5,768.868,-13.5838,-67.3078,-45.9884,-19182.3,14218.6,-4424.14,-247.054,-410.519,-103.626,12418.0,-1861.59,934.643,21.3179,3.21137,-34.6708
3.1925,5331.85,335.362,10897.2,3.84223,-204.797,-7.74094,35228.7,-2353.79,-17393.8,201.02,68.0969,98.4468,2241.96,13796.5,-1310.47,-71.833,-11.3877,-158.406,-31259.7,-6979.92,2636.38,-61.6045,-164.862,-50.2964,3862.78,11805.7,714.014,-13.8027,-68.3891,-45.6171,-18903.1,13631.3,-4375.35,-241.739,-407.712,-102.916,12452.0,-1806.77,946.644,22.5328,3.62105,-35.3679
3.193,5332.68,371.922,10939.8,3.79919,-206.619,-7.82246,35068.4,-2388.63,-17308.9,198.42,63.5793,98.732,2257.35,13801.9,-1294.86,-71.8373,-11.2516,-158.96,-30788.5,-7258.66,2744.69,-60.0357,-164.01,-46.4031,3862.14,11783.8,659.16,-14.0216,-69.4705,-45.2457,-18623.9,13043.9,-4326.56,-236.424,-404.905,-102.205,12486.0,-1751.96,958.645,23.7478,4.03073,-36.065
3.1935,5333.51,408.481,10982.5,3.75615,-208.442,-7.90397,34908.1,-2423.47,-17224.1,195.819,59.0617,99.0173,2272.74,13807.3,-1279.25,-71.8416,-11.1156,-159.514,-30317.3,-7537.4,2853.01,-58.467,-163.159,-42.5098,3861.49,11762.0,604.306,-14.2405,-70.5518,-44.8743,-18344.7,12456.6,-4277.76,-231.109,-402.098,-101.494,12520.1,-1697.14,970.645,24.9627,4.44041,-36.7621
3.194,5334.34,445.041,11025.1,3.71311,-210.264,-7.98549,34747.9,-2458.31,-17139.2,193.219,54.5441,99.3025,2288.13,13812.7,-1263.64,-71.8458,-10.9796,-160.068,-29846.1,-7816.14,2961.32,-56.8982,-162.308,-38.6165,3860.84,11740.1,549.452,-14.4595,-71.6331,-44.503,-18065.6,11869.3,-4228.97,-225.794,-399.291,-100.783,12554.1,-1642.32,982.646,26.1776,4.8501,-37.4592
3.1945,5335.17,481.601,11067.8,3.67007,-212.087,-8.06701,34587.6,-2493.15,-17054.3,190.619,50.0265,99.5877,2303.52,13818.1,-1248.03,-71.8501,-10.8436,-160.622,-29374.9,-8094.88,3069.64,-55.3294,-161.456,-34.7232,3860.2,11718.3,494.598,-14.6784,-72.7144,-44.1316,-17786.4,11281.9,-4180.18,-220.479,-396.484,-100.072,12588.1,-1587.5,994.647,27.3925,5.25978,-38.1563
3.195,5335.99,518.161,11110.4,3.62703,-213.909,-8.14852,34427.3,-2527.99,-16969.4,188.019,45.5089,99.873,2318.9,13823.5,-1232.42,-71.8544,-10.7076,-161.176,-28903.7,-8373.62,3177.95,-53.7606,-160.605,-30.8299,3859.55,11696.4,439.744,-14.8973,-73.7958,-43.7603,-17507.2,10694.6,-4131.39,-215.164,-393.677,-99.3609,12622.1,-1532.68,1006.65,28.6074,5.66946,-38.8534
3.1955,5336.82,554.721,11153.0,3.584,-215.732,-8.23004,34267.1,-2562.83,-16884.6,185.419,40.9914,100.158,2334.29,13828.9,-1216.82,-71.8587,-10.5716,-161.73,-28432.5,-8652.36,3286.27,-52.1918,-159.754,-26.9366,3858.9,11674.5,384.89,-15.1163,-74.8771,-43.3889,-17228.0,10107.2,-4082.6,-209.849,-390.87,-98.65,12656.1,-1477.87,1018.65,29.8223,6.07915,-39.5505
3.196,5349.89,594.431,11122.2,3.48672,-217.219,-8.24608,34116.3,-2817.68,-16683.9,180.256,36.8278,98.8441,2305.05,13833.2,-1207.43,-71.7353,-10.5666,-162.302,-28058.8,-8889.45,3392.92,-49.8869,-156.974,-23.1491,3893.79,11656.8,341.264,-15.296,-75.933,-43.0401,-17026.8,9563.55,-3841.06,-197.794,-380.415,-97.6921,12710.3,-1434.87,980.631,30.9806,6.3535,-40.043
3.1965,5364.49,634.535,11082.3,3.38266,-218.664,-8.25394,33966.7,-3100.02,-16468.8,174.774,32.7085,97.3301,2270.23,13837.5,-1198.81,-71.5959,-10.5781,-162.877,-27697.2,-9121.33,3499.36,-47.49,-153.953,-19.3748,3933.12,11639.6,299.041,-15.4709,-76.9857,-42.6941,-16835.4,9025.33,-3575.43,-184.897,-369.005,-96.7033,12767.0,-1393.34,936.362,32.1317,6.61095,-40.5098
3.197,5379.08,674.639,11042.3,3.2786,-220.11,-8.26179,33817.0,-3382.37,-16253.6,169.291,28.5893,95.816,2235.41,13841.7,-1190.2,-71.4566,-10.5895,-163.451,-27335.7,-9353.22,3605.81,-45.0931,-150.932,-15.6006,3972.46,11622.4,256.819,-15.6458,-78.0384,-42.3481,-16644.0,8487.11,-3309.8,-171.999,-357.594,-95.7146,12823.6,-1351.82,892.092,33.2829,6.86839,-40.9767
3.1975,5393.68,714.743,11002.3,3.17454,-221.555,-8.26965,33667.4,-3664.71,-16038.5,163.808,24.47,94.302,2200.59,13845.9,-1181.59,-71.3172,-10.601,-164.025,-26974.2,-9585.1,3712.25,-42.6962,-147.911,-11.8263,4011.79,11605.2,214.597,-15.8207,-79.0911,-42.002,-16452.5,7948.89,-3044.17,-159.101,-346.184,-94.7259,12880.3,-1310.3,847.822,34.4341,7.12583,-41.4435
3.198,5408.28,754.847,10962.3,3.07049,-223.001,-8.27751,33517.8,-3947.06,-15823.4,158.325,20.3507,92.7879,2165.76,13850.1,-1172.98,-71.1779,-10.6124,-164.6,-26612.7,-9816.99,3818.69,-40.2993,-144.89,-8.05207,4051.12,11588.0,172.374,-15.9956,-80.1438,-41.656,-16261.1,7410.67,-2778.54,-146.204,-334.773,-93.7371,12937.0,-1268.77,803.553,35.5852,7.38328,-41.9103
3.1985,5422.88,794.951,10922.3,2.96643,-224.446,-8.28536,33368.2,-4229.4,-15608.3,152.843,16.2314,91.2739,2130.94,13854.3,-1164.37,-71.0385,-10.6239,-165.174,-26251.2,-10048.9,3925.14,-37.9024,-141.869,-4.27781,4090.45,11570.8,130.152,-16.1705,-81.1966,-41.31,-16069.6,6872.44,-2512.91,-133.306,-323.362,-92.7484,12993.7,-1227.25,759.283,36.7364,7.64072,-42.3772
3.199,5437.47,835.055,10882.4,2.86237,-225.891,-8.29322,33218.6,-4511.75,-15393.2,147.36,12.1121,89.7598,2096.12,13858.5,-1155.75,-70.8992,-10.6353,-165.749,-25889.7,-10280.8,4031.58,-35.5055,-138.848,-0.503554,4129.78,11553.6,87.9292,-16.3454,-82.2493,-40.964,-15878.2,6334.22,-2247.28,-120.408,-311.952,-91.7596,13050.3,-1185.73,715.013,37.8875,7.89816,-42.844
3.1995,5452.07,875.159,10842.4,2.75831,-227.337,-8.30107,33069.0,-4794.09,-15178.0,141.877,7.99287,88.2458,2061.3,13862.8,-1147.14,-70.7598,-10.6468,-166.323,-25528.1,-10512.6,4138.02,-33.1086,-135.827,3.2707,4169.11,11536.4,45.7067,-16.5203,-83.302,-40.618,-15686.8,5796.0,-1981.65,-107.511,-300.541,-90.7709,13107.0,-1144.21,670.744,39.0387,8.15561,-43.3109
3.2,5466.67,915.262,10802.4,2.65425,-228.782,-8.30893,32919.4,-5076.44,-14962.9,136.395,3.87359,86.7317,2026.48,13867.0,-1138.53,-70.6205,-10.6582,-166.898,-25166.6,-10744.5,4244.47,-30.7117,-132.806,7.04496,4208.44,11519.2,3.48425,-16.6952,-84.3547,-40.272,-15495.3,5257.78,-1716.02,-94.6133,-289.13,-89.7822,13163.7,-1102.68,626.474,40.1898,8.41305,-43.7777
3.2005,5521.9,949.842,10865.3,2.55322,-230.501,-8.33576,32818.8,-5360.99,-14763.4,129.649,0.607202,84.0571,2031.06,13887.4,-1092.19,-70.7116,-11.122,-167.467,-24938.8,-10880.1,4450.95,-27.9497,-128.946,10.622,4268.24,11494.9,-6.92649,-16.8982,-85.3559,-40.0471,-15201.4,4940.98,-1273.19,-79.4221,-273.503,-89.6994,13152.2,-1042.38,623.669,40.9226,8.37715,-44.0154
3.201,5577.14,984.422,10928.1,2.45218,-232.219,-8.36259,32718.3,-5645.54,-14563.8,122.903,-2.65919,81.3825,2035.64,13907.8,-1045.85,-70.8027,-11.5858,-168.037,-24710.9,-11015.7,4657.43,-25.1877,-125.086,14.199,4328.05,11470.6,-17.3372,-17.1013,-86.3571,-39.8223,-14907.4,4624.19,-830.351,-64.2309,-257.875,-89.6167,13140.8,-982.073,620.865,41.6553,8.34124,-44.2532
3.2015,5632.37,1019.0,10991.0,2.35114,-233.938,-8.38942,32617.7,-5930.09,-14364.3,116.157,-5.92558,78.7078,2040.22,13928.2,-999.516,-70.8939,-12.0495,-168.606,-24483.1,-11151.2,4863.92,-22.4257,-121.226,17.7761,4387.85,11446.3,-27.748,-17.3044,-87.3583,-39.5975,-14613.4,4307.4,-387.516,-49.0397,-242.248,-89.534,13129.3,-921.769,618.061,42.3881,8.30534,-44.4909
3.202,5687.61,1053.58,11053.8,2.25011,-235.657,-8.41625,32517.2,-6214.64,-14164.8,109.412,-9.19197,76.0332,2044.8,13948.7,-953.177,-70.985,-12.5133,-169.176,-24255.2,-11286.8,5070.4,-19.6637,-117.366,21.3531,4447.65,11422.0,-38.1587,-17.5075,-88.3595,-39.3727,-14319.5,3990.6,55.3184,-33.8484,-226.62,-89.4513,13117.8,-861.465,615.256,43.1208,8.26944,-44.7286
3.2025,5742.85,1088.16,11116.7,2.14907,-237.375,-8.44308,32416.6,-6499.19,-13965.2,102.666,-12.4584,73.3586,2049.39,13969.1,-906.839,-71.0761,-12.9771,-169.745,-24027.4,-11422.4,5276.89,-16.9017,-113.506,24.9302,4507.45,11397.7,-48.5695,-17.7105,-89.3607,-39.1478,-14025.5,3673.81,498.153,-18.6572,-210.992,-89.3686,13106.4,-801.16,612.452,43.8536,8.23354,-44.9663
3.203,5798.08,1122.74,11179.6,2.04803,-239.094,-8.46991,32316.0,-6783.74,-13765.7,95.9202,-15.7248,70.684,2053.97,13989.5,-860.501,-71.1673,-13.4409,-170.315,-23799.5,-11558.0,5483.37,-14.1397,-109.646,28.5072,4567.25,11373.4,-58.9802,-17.9136,-90.3619,-38.923,-13731.6,3357.02,940.988,-3.46604,-195.365,-89.2858,13094.9,-740.856,609.647,44.5863,8.19764,-45.2041
3.2035,5853.32,1157.32,11242.4,1.947,-240.812,-8.49674,32215.5,-7068.29,-13566.2,89.1745,-18.9911,68.0093,2058.55,14009.9,-814.163,-71.2584,-13.9047,-170.884,-23571.7,-11693.5,5689.85,-11.3777,-105.787,32.0843,4627.06,11349.1,-69.3909,-18.1167,-91.3632,-38.6982,-13437.6,3040.23,1383.82,11.7252,-179.737,-89.2031,13083.5,-680.552,606.843,45.3191,8.16174,-45.4418
3.204,5908.55,1191.9,11305.3,1.84596,-242.531,-8.52357,32114.9,-7352.84,-13366.6,82.4288,-22.2575,65.3347,2063.13,14030.4,-767.824,-71.3495,-14.3684,-171.454,-23343.8,-11829.1,5896.34,-8.6157,-101.927,35.6613,4686.86,11324.8,-79.8017,-18.3197,-92.3644,-38.4734,-13143.6,2723.43,1826.66,26.9164,-164.109,-89.1204,13072.0,-620.247,604.039,46.0518,8.12584,-45.6795
3.2045,5953.62,1225.45,11364.8,1.75246,-244.248,-8.53177,32019.6,-7617.93,-13170.3,75.8505,-25.4201,62.6371,2068.63,14051.9,-724.626,-71.4443,-14.8773,-172.007,-23123.4,-11961.8,6107.83,-5.85949,-98.1209,39.2004,4744.95,11302.1,-91.5554,-18.5316,-93.3703,-38.2474,-12829.2,2437.9,2261.1,41.638,-148.71,-89.1254,13061.8,-560.834,599.989,46.7174,8.05364,-45.9189
3.205,5917.37,1250.77,11397.5,1.71928,-245.955,-8.39096,31966.0,-7727.36,-12999.8,70.6112,-27.7518,59.7556,2081.48,14082.1,-706.544,-71.5683,-15.7467,-172.427,-22962.0,-12071.3,6359.39,-3.1496,-94.7473,42.4357,4789.38,11292.3,-114.053,-18.8142,-94.4137,-38.0123,-12351.3,2402.44,2628.43,52.6035,-135.141,-89.8316,13061.6,-508.547,585.978,46.8451,7.69105,-46.1719
3.2055,5881.12,1276.1,11430.2,1.68609,-247.661,-8.25015,31912.4,-7836.78,-12829.3,65.372,-30.0834,56.8741,2094.33,14112.4,-688.462,-71.6923,-16.6161,-172.847,-22800.6,-12180.9,6610.95,-0.43971,-91.3736,45.671,4833.82,11282.6,-136.55,-19.0968,-95.4572,-37.7772,-11873.3,2366.98,2995.76,63.5689,-121.571,-90.5378,13061.5,-456.259,571.967,46.9729,7.32847,-46.4249
3.206,5844.87,1301.42,11463.0,1.6529,-249.368,-8.10934,31858.8,-7946.2,-12658.8,60.1328,-32.4151,53.9927,2107.19,14142.6,-670.38,-71.8163,-17.4855,-173.267,-22639.2,-12290.5,6862.52,2.27018,-88.0,48.9063,4878.25,11272.9,-159.047,-19.3793,-96.5007,-37.5421,-11395.3,2331.52,3363.09,74.5344,-108.001,-91.244,13061.3,-403.972,557.956,47.1006,6.96589,-46.6779
3.2065,5808.62,1326.75,11495.7,1.61971,-251.074,-7.96853,31805.1,-8055.63,-12488.2,54.8935,-34.7468,51.1112,2120.04,14172.9,-652.298,-71.9403,-18.355,-173.688,-22477.8,-12400.0,7114.08,4.98007,-84.6264,52.1415,4922.69,11263.2,-181.544,-19.6619,-97.5442,-37.3071,-10917.3,2296.06,3730.42,85.4998,-94.4314,-91.9502,13061.1,-351.685,543.945,47.2284,6.6033,-46.9309
3.207,5772.37,1352.07,11528.4,1.58653,-252.781,-7.82772,31751.5,-8165.05,-12317.7,49.6543,-37.0785,48.2297,2132.89,14203.1,-634.216,-72.0643,-19.2244,-174.108,-22316.4,-12509.6,7365.64,7.68996,-81.2528,55.3768,4967.12,11253.5,-204.042,-19.9444,-98.5877,-37.072,-10439.4,2260.6,4097.75,96.4653,-80.8617,-92.6564,13060.9,-299.398,529.934,47.3561,6.24072,-47.1839
3.2075,5736.11,1377.4,11561.1,1.55334,-254.487,-7.6869,31697.9,-8274.47,-12147.2,44.415,-39.4102,45.3483,2145.74,14233.4,-616.135,-72.1883,-20.0938,-174.528,-22155.1,-12619.1,7617.2,10.3998,-77.8792,58.6121,5011.55,11243.7,-226.539,-20.227,-99.6311,-36.8369,-9961.37,2225.14,4465.08,107.431,-67.2919,-93.3627,13060.7,-247.111,515.923,47.4839,5.87814,-47.4369
3.208,5699.86,1402.72,11593.8,1.52015,-256.194,-7.54609,31644.3,-8383.89,-11976.7,39.1758,-41.7419,42.4668,2158.6,14263.6,-598.053,-72.3123,-20.9632,-174.948,-21993.7,-12728.7,7868.77,13.1097,-74.5055,61.8474,5055.98,11234.0,-249.036,-20.5096,-100.675,-36.6018,-9483.39,2189.68,4832.41,118.396,-53.7222,-94.0689,13060.6,-194.824,501.912,47.6116,5.51555,-47.6899
3.2085,5663.61,1428.05,11626.6,1.48696,-257.901,-7.40528,31590.7,-8493.32,-11806.2,33.9365,-44.0735,39.5853,2171.45,14293.9,-579.971,-72.4363,-21.8327,-175.368,-21832.3,-12838.3,8120.33,15.8196,-71.1319,65.0827,5100.42,11224.3,-271.533,-20.7921,-101.718,-36.3667,-9005.42,2154.22,5199.74,129.362,-40.1524,-94.7751,13060.4,-142.536,487.902,47.7394,5.15297,-47.943
3.209,5622.17,1439.48,11659.2,1.45325,-259.725,-7.28263,31539.1,-8589.91,-11636.3,29.0329,-46.2398,36.7232,2191.23,14325.7,-573.221,-72.5561,-22.7183,-175.745,-21699.6,-12938.3,8337.56,18.3675,-67.8255,68.1935,5144.19,11217.9,-286.904,-21.062,-102.772,-36.137,-8522.62,2159.36,5481.25,138.912,-27.6367,-95.4407,13068.3,-87.69,478.157,47.6114,4.6679,-48.0541
3.2095,5562.57,1402.27,11691.5,1.4177,-261.961,-7.22356,31494.5,-8641.58,-11468.6,25.3038,-47.827,33.9289,2235.26,14362.9,-606.135,-72.6614,-23.6607,-175.972,-21667.4,-13005.2,8434.66,20.3484,-64.7541,70.8685,5185.66,11223.5,-277.33,-21.2876,-103.864,-35.9262,-8022.96,2306.59,5462.4,143.511,-18.8101,-95.9642,13104.4,-23.8864,483.343,46.5883,3.75411,-47.6687
3.21,5502.97,1365.06,11723.8,1.38216,-264.197,-7.16449,31449.9,-8693.26,-11300.9,21.5747,-49.4143,31.1346,2279.29,14400.2,-639.049,-72.7666,-24.6031,-176.199,-21635.2,-13072.1,8531.75,22.3293,-61.6828,73.5436,5227.13,11229.0,-267.756,-21.5132,-104.956,-35.7153,-7523.31,2453.83,5443.55,148.111,-9.98343,-96.4877,13140.6,39.9172,488.529,45.5652,2.84032,-47.2833
3.2105,5443.36,1327.85,11756.1,1.34661,-266.433,-7.10541,31405.3,-8744.93,-11133.2,17.8455,-51.0015,28.3403,2323.32,14437.4,-671.962,-72.8718,-25.5455,-176.425,-21602.9,-13138.9,8628.84,24.3102,-58.6115,76.2186,5268.6,11234.5,-258.182,-21.7388,-106.047,-35.5045,-7023.65,2601.06,5424.7,152.71,-1.15678,-97.0112,13176.7,103.721,493.715,44.5421,1.92654,-46.898
3.211,5383.76,1290.64,11788.5,1.31106,-268.669,-7.04634,31360.7,-8796.6,-10965.4,14.1164,-52.5888,25.546,2367.34,14474.7,-704.876,-72.977,-26.4879,-176.652,-21570.7,-13205.8,8725.93,26.291,-55.5401,78.8936,5310.07,11240.0,-248.608,-21.9644,-107.139,-35.2937,-6523.99,2748.3,5405.85,157.309,7.66986,-97.5347,13212.9,167.524,498.901,43.519,1.01275,-46.5126
3.2115,5324.16,1253.43,11820.8,1.27551,-270.905,-6.98727,31316.2,-8848.28,-10797.7,10.3873,-54.176,22.7517,2411.37,14511.9,-737.79,-73.0823,-27.4303,-176.878,-21538.5,-13272.7,8823.02,28.2719,-52.4688,81.5687,5351.54,11245.6,-239.034,-22.19,-108.231,-35.0828,-6024.33,2895.54,5386.99,161.908,16.4965,-98.0581,13249.0,231.328,504.088,42.4959,0.0989643,-46.1272
3.212,5264.56,1216.21,11853.1,1.23996,-273.141,-6.92819,31271.6,-8899.95,-10630.0,6.65819,-55.7633,19.9574,2455.4,14549.1,-770.703,-73.1875,-28.3727,-177.105,-21506.2,-13339.6,8920.12,30.2528,-49.3974,84.2437,5393.0,11251.1,-229.461,-22.4155,-109.322,-34.872,-5524.68,3042.77,5368.14,166.507,25.3232,-98.5816,13285.1,295.132,509.274,41.4728,-0.814822,-45.7418
3.2125,5204.95,1179.0,11885.4,1.20442,-275.376,-6.86912,31227.0,-8951.62,-10462.3,2.92907,-57.3505,17.1631,2499.43,14586.4,-803.617,-73.2927,-29.3151,-177.331,-21474.0,-13406.4,9017.21,32.2337,-46.3261,86.9188,5434.47,11256.6,-219.887,-22.6411,-110.414,-34.6612,-5025.02,3190.01,5349.29,171.107,34.1498,-99.1051,13321.3,358.935,514.46,40.4497,-1.72861,-45.3564
3.213,5145.35,1141.79,11917.7,1.16887,-277.612,-6.81004,31182.4,-9003.3,-10294.6,-0.800049,-58.9377,14.3688,2543.46,14623.6,-836.531,-73.3979,-30.2575,-177.558,-21441.8,-13473.3,9114.3,34.2146,-43.2548,89.5938,5475.94,11262.1,-210.313,-22.8667,-111.505,-34.4503,-4525.36,3337.24,5330.44,175.706,42.9764,-99.6286,13357.4,422.739,519.646,39.4266,-2.64239,-44.9711
3.2135,5094.23,1101.6,11940.2,0.96283,-280.041,-6.74873,31132.9,-9022.64,-10122.8,-4.12437,-60.3703,11.8041,2572.52,14649.4,-899.781,-73.4607,-31.0261,-177.861,-21429.3,-13521.4,9155.4,35.8161,-40.3133,92.1355,5510.57,11273.4,-193.534,-23.0894,-112.591,-34.2201,-4072.81,3515.53,5186.76,178.437,50.8192,-99.7797,13404.6,480.026,520.13,38.244,-3.69882,-44.5641
3.214,5060.08,1055.45,11942.9,0.415807,-282.856,-6.68293,31073.5,-8977.33,-9942.79,-6.63908,-61.4936,9.69864,2571.63,14652.3,-1023.7,-73.4387,-31.4469,-178.315,-21456.5,-13532.1,9084.53,36.6589,-37.6316,94.4106,5531.53,11296.1,-162.347,-23.3061,-113.663,-33.9512,-3714.47,3755.93,4793.42,177.431,56.694,-99.1859,13473.7,524.28,511.208,36.7424,-5.04052,-44.1139
3.2145,5025.92,1009.3,11945.6,-0.131216,-285.671,-6.61713,31014.1,-8932.01,-9762.75,-9.1538,-62.6169,7.59313,2570.74,14655.2,-1147.63,-73.4167,-31.8677,-178.769,-21483.7,-13542.7,9013.66,37.5018,-34.9499,96.6857,5552.48,11318.8,-131.16,-23.5229,-114.735,-33.6823,-3356.14,3996.33,4400.08,176.426,62.5689,-98.5922,13542.8,568.535,502.286,35.2408,-6.38222,-43.6637
3.215,4991.77,963.146,11948.3,-0.678239,-288.486,-6.55133,30954.7,-8886.7,-9582.72,-11.6685,-63.7402,5.48763,2569.86,14658.1,-1271.55,-73.3947,-32.2885,-179.224,-21510.9,-13553.3,8942.79,38.3446,-32.2681,98.9607,5573.43,11341.6,-99.9721,-23.7397,-115.808,-33.4133,-2997.8,4236.73,4006.75,175.421,68.4438,-97.9984,13611.9,612.789,493.364,33.7391,-7.72392,-43.2136
3.2155,4957.61,916.993,11951.0,-1.22526,-291.301,-6.48553,30895.3,-8841.39,-9402.68,-14.1832,-64.8634,3.38212,2568.97,14661.0,-1395.47,-73.3727,-32.7093,-179.678,-21538.1,-13563.9,8871.92,39.1874,-29.5864,101.236,5594.39,11364.3,-68.7846,-23.9565,-116.88,-33.1444,-2639.46,4477.13,3613.41,174.415,74.3187,-97.4047,13681.0,657.043,484.443,32.2375,-9.06562,-42.7634
3.216,4923.46,870.841,11953.7,-1.77229,-294.116,-6.41973,30835.9,-8796.08,-9222.65,-16.6979,-65.9867,1.27662,2568.08,14663.8,-1519.4,-73.3507,-33.1301,-180.132,-21565.3,-13574.6,8801.05,40.0303,-26.9047,103.511,5615.34,11387.0,-37.5971,-24.1732,-117.952,-32.8755,-2281.13,4717.54,3220.07,173.41,80.1936,-96.8109,13750.1,701.298,475.521,30.7359,-10.4073,-42.3132
3.2165,4889.3,824.688,11956.4,-2.31931,-296.93,-6.35393,30776.5,-8750.76,-9042.61,-19.2127,-67.11,-0.828885,2567.19,14666.7,-1643.32,-73.3287,-33.5509,-180.587,-21592.5,-13585.2,8730.18,40.8731,-24.223,105.786,5636.29,11409.7,-6.4097,-24.39,-119.025,-32.6065,-1922.79,4957.94,2826.74,172.405,86.0685,-96.2172,13819.2,745.552,466.599,29.2343,-11.749,-41.863
3.217,4855.15,778.536,11959.1,-2.86633,-299.745,-6.28813,30717.1,-8705.45,-8862.58,-21.7274,-68.2333,-2.93439,2566.31,14669.6,-1767.24,-73.3067,-33.9717,-181.041,-21619.8,-13595.8,8659.3,41.7159,-21.5413,108.061,5657.25,11432.5,24.7778,-24.6068,-120.097,-32.3376,-1564.45,5198.34,2433.4,171.399,91.9433,-95.6234,13888.2,789.806,457.677,27.7326,-13.0907,-41.4129
3.2175,4820.99,732.383,11961.8,-3.41335,-302.56,-6.22233,30657.7,-8660.14,-8682.54,-24.2421,-69.3565,-5.03989,2565.42,14672.5,-1891.17,-73.2846,-34.3925,-181.496,-21646.9,-13606.5,8588.43,42.5587,-18.8596,110.336,5678.2,11455.2,55.9652,-24.8235,-121.169,-32.0687,-1206.12,5438.74,2040.06,170.394,97.8182,-95.0297,13957.3,834.061,448.756,26.231,-14.4324,-40.9627
3.218,4820.12,696.351,11925.4,-4.44412,-305.063,-6.4081,30582.0,-8554.97,-8500.19,-26.0859,-70.3382,-6.61965,2535.48,14685.1,-2022.86,-73.1067,-34.7539,-181.928,-21669.3,-13576.9,8479.34,43.0034,-16.5588,112.535,5697.99,11482.0,96.6029,-25.1257,-122.194,-31.8161,-912.681,5668.99,1593.6,168.131,102.79,-94.2417,13998.1,875.68,425.863,24.9709,-15.7365,-40.59
3.2185,4860.86,672.968,11840.1,-6.07957,-307.174,-6.90834,30486.0,-8375.0,-8314.93,-27.0911,-71.1429,-7.54222,2469.24,14709.9,-2164.25,-72.7338,-35.041,-182.332,-21685.7,-13497.2,8322.47,42.9502,-14.7341,114.639,5716.32,11513.8,149.053,-25.5347,-123.16,-31.5838,-700.369,5886.56,1080.71,164.296,106.633,-93.211,14003.3,914.005,385.508,24.0126,-16.9935,-40.314
3.219,4901.6,649.586,11754.9,-7.71501,-309.286,-7.40857,30389.9,-8195.02,-8129.67,-28.0962,-71.9475,-8.46478,2402.99,14734.8,-2305.65,-72.3609,-35.328,-182.736,-21702.0,-13417.4,8165.61,42.8971,-12.9095,116.743,5734.66,11545.7,201.504,-25.9436,-124.126,-31.3516,-488.056,6104.13,567.823,160.461,110.475,-92.1803,14008.6,952.329,345.152,23.0544,-18.2505,-40.038
3.2195,4942.34,626.204,11669.6,-9.35046,-311.398,-7.90881,30293.9,-8015.05,-7944.42,-29.1014,-72.7522,-9.38735,2336.75,14759.6,-2447.04,-71.988,-35.6151,-183.141,-21718.4,-13337.7,8008.74,42.844,-11.0849,118.847,5752.99,11577.5,253.954,-26.3525,-125.092,-31.1194,-275.743,6321.7,54.9375,156.625,114.318,-91.1495,14013.9,990.654,304.797,22.0961,-19.5076,-39.762
3.22,4983.08,602.821,11584.3,-10.9859,-313.51,-8.40905,30197.9,-7835.07,-7759.16,-30.1066,-73.5568,-10.3099,2270.5,14784.4,-2588.44,-71.6151,-35.9022,-183.545,-21734.7,-13258.0,7851.87,42.7909,-9.2603,120.951,5771.32,11609.4,306.404,-26.7614,-126.059,-30.8871,-63.4308,6539.27,-457.948,152.79,118.161,-90.1188,14019.1,1028.98,264.441,21.1379,-20.7646,-39.4861
3.2205,5023.82,579.439,11499.0,-12.6214,-315.622,-8.90928,30101.9,-7655.1,-7573.9,-31.1118,-74.3615,-11.2325,2204.26,14809.2,-2729.84,-71.2422,-36.1893,-183.949,-21751.1,-13178.2,7695.0,42.7378,-7.43568,123.055,5789.65,11641.3,358.855,-27.1704,-127.025,-30.6549,148.882,6756.84,-970.834,148.955,122.003,-89.0881,14024.4,1067.3,224.086,20.1796,-22.0216,-39.2101
3.221,5064.56,556.057,11413.8,-14.2568,-317.734,-9.40952,30005.8,-7475.12,-7388.64,-32.1169,-75.1661,-12.1551,2138.01,14834.1,-2871.23,-70.8694,-36.4764,-184.353,-21767.5,-13098.5,7538.14,42.6847,-5.61106,125.159,5807.99,11673.1,411.305,-27.5793,-127.991,-30.4227,361.194,6974.4,-1483.72,145.12,125.846,-88.0574,14029.7,1105.63,183.73,19.2214,-23.2786,-38.9341
3.2215,5105.3,532.674,11328.5,-15.8922,-319.846,-9.90976,29909.8,-7295.15,-7203.39,-33.1221,-75.9708,-13.0776,2071.76,14858.9,-3012.63,-70.4965,-36.7635,-184.758,-21783.8,-13018.7,7381.27,42.6316,-3.78644,127.263,5826.32,11705.0,463.756,-27.9882,-128.957,-30.1904,573.507,7191.97,-1996.61,141.285,129.689,-87.0266,14034.9,1143.95,143.375,18.2631,-24.5357,-38.6581
3.222,5146.04,509.292,11243.2,-17.5277,-321.958,-10.41,29813.8,-7115.17,-7018.13,-34.1273,-76.7754,-14.0002,2005.52,14883.7,-3154.02,-70.1236,-37.0506,-185.162,-21800.2,-12939.0,7224.4,42.5784,-1.96183,129.367,5844.65,11736.8,516.206,-28.3972,-129.923,-29.9582,785.82,7409.54,-2509.49,137.45,133.531,-85.9959,14040.2,1182.28,103.019,17.3049,-25.7927,-38.3822
3.2225,5217.45,481.919,11274.0,-18.5231,-324.116,-10.9657,29683.5,-6916.49,-6830.68,-34.3314,-77.4732,-14.4456,1961.96,14919.0,-3211.23,-69.8442,-38.2913,-185.466,-21765.4,-12824.1,7030.8,42.0937,-0.601694,131.377,5871.94,11768.0,574.479,-28.9043,-130.721,-29.7101,903.987,7610.7,-2917.23,133.459,136.182,-84.8123,14037.3,1201.55,68.5839,16.3964,-27.0273,-38.1033
3.223,5313.4,451.353,11397.7,-19.0066,-326.312,-11.5657,29525.9,-6702.86,-6641.48,-33.8947,-78.0853,-14.5093,1936.55,14962.8,-3201.1,-69.6396,-40.2949,-185.691,-21689.9,-12681.1,6807.83,41.2637,0.386853,133.313,5906.4,11798.7,637.41,-29.4899,-131.386,-29.4494,946.838,7798.73,-3240.86,129.344,137.879,-83.5064,14027.8,1205.57,38.885,15.5277,-28.2439,-37.8222
3.2235,5409.35,420.787,11521.3,-19.49,-328.508,-12.1656,29368.3,-6489.22,-6452.28,-33.458,-78.6975,-14.5729,1911.14,15006.5,-3190.96,-69.435,-42.2986,-185.916,-21614.3,-12538.1,6584.85,40.4337,1.3754,135.249,5940.85,11829.4,700.341,-30.0756,-132.051,-29.1886,989.689,7986.76,-3564.49,125.228,139.577,-82.2004,14018.4,1209.59,9.18606,14.6591,-29.4605,-37.5411
3.224,5505.29,390.221,11645.0,-19.9735,-330.704,-12.7656,29210.6,-6275.58,-6263.08,-33.0213,-79.3097,-14.6366,1885.73,15050.2,-3180.82,-69.2304,-44.3022,-186.14,-21538.7,-12395.1,6361.88,39.6037,2.36395,137.184,5975.31,11860.1,763.273,-30.6612,-132.715,-28.9278,1032.54,8174.78,-3888.11,121.112,141.274,-80.8945,14009.0,1213.62,-20.5129,13.7904,-30.6771,-37.26
3.2245,5601.24,359.655,11768.6,-20.4569,-332.901,-13.3656,29053.0,-6061.95,-6073.88,-32.5846,-79.9219,-14.7003,1860.31,15093.9,-3170.68,-69.0259,-46.3058,-186.365,-21463.1,-12252.1,6138.9,38.7737,3.35249,139.12,6009.76,11890.8,826.204,-31.2469,-133.38,-28.6671,1075.39,8362.81,-4211.74,116.997,142.971,-79.5885,13999.5,1217.64,-50.2118,12.9217,-31.8937,-36.9789
3.225,5697.19,329.09,11892.3,-20.9403,-335.097,-13.9656,28895.4,-5848.31,-5884.69,-32.1479,-80.534,-14.7639,1834.9,15137.7,-3160.55,-68.8213,-48.3095,-186.589,-21387.5,-12109.0,5915.92,37.9437,4.34104,141.056,6044.22,11921.5,889.135,-31.8325,-134.044,-28.4063,1118.24,8550.84,-4535.36,112.881,144.668,-78.2826,13990.1,1221.66,-79.9107,12.053,-33.1103,-36.6978
3.2255,5793.14,298.524,12016.0,-21.4238,-337.293,-14.5656,28737.7,-5634.67,-5695.49,-31.7112,-81.1462,-14.8276,1809.49,15181.4,-3150.41,-68.6167,-50.3131,-186.814,-21311.9,-11966.0,5692.95,37.1137,5.32958,142.991,6078.67,11952.2,952.066,-32.4182,-134.709,-28.1456,1161.09,8738.87,-4858.99,108.766,146.365,-76.9766,13980.6,1225.68,-109.61,11.1844,-34.327,-36.4167
3.226,5889.09,267.958,12139.6,-21.9072,-339.489,-15.1656,28580.1,-5421.04,-5506.29,-31.2745,-81.7584,-14.8912,1784.08,15225.1,-3140.27,-68.4121,-52.3167,-187.038,-21236.3,-11823.0,5469.97,36.2837,6.31813,144.927,6113.13,11982.9,1015.0,-33.0038,-135.373,-27.8848,1203.94,8926.9,-5182.61,104.65,148.063,-75.6707,13971.2,1229.71,-139.309,10.3157,-35.5436,-36.1356
3.2265,5985.03,237.392,12263.3,-22.3906,-341.685,-15.7656,28422.4,-5207.4,-5317.09,-30.8378,-82.3706,-14.9549,1758.67,15268.9,-3130.13,-68.2075,-54.3204,-187.263,-21160.8,-11680.0,5247.0,35.4537,7.30668,146.863,6147.58,12013.6,1077.93,-33.5895,-136.038,-27.624,1246.79,9114.93,-5506.24,100.535,149.76,-74.3647,13961.7,1233.73,-169.007,9.44703,-36.7602,-35.8545
3.227,6017.8,84.3087,12360.6,-22.4637,-344.261,-16.4606,28225.7,-5044.5,-5118.44,-29.8255,-82.9007,-14.9017,1816.71,15295.7,-3129.17,-68.471,-57.0954,-187.284,-21036.6,-11537.9,5020.3,34.4448,7.80871,148.71,6174.61,12029.1,1107.09,-34.1144,-136.18,-27.2891,1193.91,9238.84,-5583.48,96.8236,150.02,-72.4538,13953.0,1243.62,-199.572,8.39623,-37.762,-35.4989
3.2275,6018.98,-130.033,12444.9,-22.3317,-347.027,-17.2031,28009.3,-4906.97,-4915.07,-28.5255,-83.3899,-14.7901,1916.49,15314.1,-3132.79,-68.9686,-60.2562,-187.203,-20888.1,-11396.2,4791.73,33.3465,8.0675,150.514,6197.93,12036.9,1119.38,-34.609,-136.062,-26.917,1093.15,9330.7,-5537.53,93.3149,149.562,-70.2405,13944.7,1256.44,-230.569,7.25436,-38.6563,-35.106
3.228,6020.15,-344.375,12529.1,-22.1996,-349.793,-17.9455,27792.9,-4769.45,-4711.7,-27.2255,-83.8791,-14.6785,2016.26,15332.5,-3136.42,-69.4662,-63.417,-187.122,-20739.7,-11254.5,4563.17,32.2481,8.32628,152.318,6221.24,12044.8,1131.66,-35.1036,-135.943,-26.545,992.388,9422.56,-5491.57,89.8061,149.104,-68.0272,13936.4,1269.25,-261.566,6.11249,-39.5507,-34.7131
3.2285,6021.33,-558.717,12613.3,-22.0675,-352.559,-18.688,27576.5,-4631.92,-4508.33,-25.9255,-84.3682,-14.5669,2116.03,15350.9,-3140.04,-69.9637,-66.5778,-187.042,-20591.2,-11112.8,4334.61,31.1498,8.58506,154.121,6244.56,12052.6,1143.94,-35.5982,-135.825,-26.1729,891.629,9514.42,-5445.62,86.2973,148.646,-65.8138,13928.1,1282.07,-292.563,4.97062,-40.4451,-34.3203
3.229,6022.51,-773.059,12697.5,-21.9355,-355.325,-19.4305,27360.2,-4494.39,-4304.96,-24.6254,-84.8574,-14.4553,2215.8,15369.3,-3143.66,-70.4613,-69.7386,-186.961,-20442.8,-10971.1,4106.05,30.0514,8.84384,155.925,6267.87,12060.4,1156.22,-36.0928,-135.706,-25.8009,790.87,9606.28,-5399.66,82.7886,148.188,-63.6005,13919.8,1294.89,-323.56,3.82876,-41.3394,-33.9274
3.2295,6023.69,-987.401,12781.7,-21.8034,-358.091,-20.1729,27143.8,-4356.86,-4101.59,-23.3254,-85.3466,-14.3437,2315.57,15387.7,-3147.28,-70.9588,-72.8994,-186.88,-20294.3,-10829.4,3877.49,28.9531,9.10262,157.729,6291.18,12068.3,1168.5,-36.5874,-135.588,-25.4288,690.111,9698.14,-5353.71,79.2798,147.73,-61.3871,13911.4,1307.71,-354.557,2.68689,-42.2338,-33.5345
3.23,6024.86,-1201.74,12865.9,-21.6713,-360.857,-20.9154,26927.4,-4219.33,-3898.22,-22.0254,-85.8357,-14.2321,2415.34,15406.1,-3150.91,-71.4564,-76.0602,-186.799,-20145.9,-10687.8,3648.93,27.8547,9.3614,159.533,6314.5,12076.1,1180.79,-37.082,-135.469,-25.0568,589.352,9790.0,-5307.75,75.7711,147.272,-59.1738,13903.1,1320.53,-385.554,1.54502,-43.1282,-33.1416
3.2305,6026.04,-1416.09,12950.1,-21.5393,-363.623,-21.6578,26711.0,-4081.8,-3694.85,-20.7254,-86.3249,-14.1204,2515.12,15424.5,-3154.53,-71.954,-79.221,-186.718,-19997.4,-10546.1,3420.36,26.7564,9.62019,161.336,6337.81,12083.9,1193.07,-37.5766,-135.35,-24.6847,488.594,9881.86,-5261.8,72.2623,146.814,-56.9605,13894.8,1333.35,-416.551,0.403152,-44.0225,-32.7488
3.231,6027.22,-1630.43,13034.3,-21.4072,-366.389,-22.4003,26494.7,-3944.27,-3491.48,-19.4254,-86.8141,-14.0088,2614.89,15442.9,-3158.15,-72.4515,-82.3818,-186.638,-19849.0,-10404.4,3191.8,25.658,9.87897,163.14,6361.13,12091.8,1205.35,-38.0712,-135.232,-24.3126,387.835,9973.72,-5215.84,68.7535,146.356,-54.7471,13886.5,1346.17,-447.548,-0.738716,-44.9169,-32.3559
3.2315,5903.18,-1831.77,13045.5,-23.0598,-369.632,-23.0071,26261.7,-3863.01,-3293.53,-17.6757,-87.2822,-13.9327,2720.06,15442.2,-3321.2,-72.6506,-84.5882,-186.582,-19659.1,-10270.0,2989.61,24.5654,9.94308,164.936,6368.79,12098.3,1206.41,-38.5094,-134.651,-23.9341,208.006,10022.6,-4915.98,64.0272,144.793,-51.4669,13858.9,1362.29,-496.858,-1.82925,-45.6705,-32.0851
3.232,5743.37,-2029.39,13035.8,-25.2222,-373.01,-23.5751,26024.0,-3797.83,-3097.13,-15.7975,-87.7442,-13.8667,2826.78,15436.1,-3529.79,-72.7643,-86.5219,-186.532,-19457.3,-10137.6,2794.95,23.4743,9.95157,166.73,6371.98,12104.5,1204.25,-38.9316,-133.937,-23.5537,5.5856,10059.1,-4543.58,58.953,142.915,-47.8818,13825.9,1379.35,-551.4,-2.90512,-46.3838,-31.8492
3.2325,5583.55,-2227.01,13026.1,-27.3846,-376.389,-24.1432,25786.3,-3732.65,-2900.73,-13.9194,-88.2063,-13.8006,2933.49,15430.0,-3738.38,-72.8781,-88.4556,-186.483,-19255.6,-10005.3,2600.28,22.3833,9.96006,168.524,6375.17,12110.7,1202.1,-39.3537,-133.223,-23.1732,-196.835,10095.7,-4171.17,53.8788,141.036,-44.2967,13792.8,1396.42,-605.942,-3.98099,-47.0971,-31.6133
3.233,5423.74,-2424.63,13016.4,-29.547,-379.767,-24.7112,25548.5,-3667.47,-2704.33,-12.0412,-88.6683,-13.7346,3040.21,15423.8,-3946.97,-72.9918,-90.3894,-186.434,-19053.8,-9872.98,2405.62,21.2922,9.96855,170.318,6378.36,12116.9,1199.95,-39.7758,-132.51,-22.7928,-399.255,10132.3,-3798.77,48.8046,139.158,-40.7116,13759.8,1413.48,-660.484,-5.05685,-47.8105,-31.3774
3.2335,5263.93,-2622.26,13006.6,-31.7095,-383.146,-25.2793,25310.8,-3602.28,-2507.92,-10.1631,-89.1304,-13.6686,3146.93,15417.7,-4155.57,-73.1056,-92.3231,-186.385,-18852.1,-9740.65,2210.96,20.2012,9.97704,172.112,6381.55,12123.1,1197.8,-40.198,-131.796,-22.4124,-601.675,10168.9,-3426.36,43.7303,137.279,-37.1265,13726.7,1430.54,-715.026,-6.13272,-48.5238,-31.1415
3.234,5104.12,-2819.88,12996.9,-33.8719,-386.524,-25.8473,25073.1,-3537.1,-2311.52,-8.2849,-89.5924,-13.6026,3253.64,15411.6,-4364.16,-73.2193,-94.2568,-186.336,-18650.4,-9608.31,2016.3,19.1101,9.98553,173.906,6384.74,12129.3,1195.65,-40.6201,-131.082,-22.032,-804.095,10205.4,-3053.96,38.6561,135.401,-33.5414,13693.6,1447.61,-769.568,-7.20859,-49.2371,-30.9056
3.2345,4944.31,-3017.5,12987.2,-36.0343,-389.903,-26.4153,24835.4,-3471.92,-2115.12,-6.40674,-90.0545,-13.5365,3360.36,15405.5,-4572.75,-73.3331,-96.1905,-186.287,-18448.6,-9475.98,1821.63,18.0191,9.99402,175.699,6387.93,12135.5,1193.49,-41.0422,-130.369,-21.6516,-1006.52,10242.0,-2681.55,33.5819,133.522,-29.9563,13660.6,1464.67,-824.11,-8.28446,-49.9505,-30.6698
3.235,4784.5,-3215.12,12977.5,-38.1968,-393.281,-26.9834,24597.7,-3406.74,-1918.72,-4.52859,-90.5165,-13.4705,3467.07,15399.3,-4781.34,-73.4469,-98.1242,-186.238,-18246.9,-9343.65,1626.97,16.9281,10.0025,177.493,6391.12,12141.7,1191.34,-41.4643,-129.655,-21.2711,-1208.94,10278.6,-2309.15,28.5077,131.644,-26.3712,13627.5,1481.73,-878.653,-9.36032,-50.6638,-30.4339
3.2355,4624.68,-3412.75,12967.8,-40.3592,-396.66,-27.5514,24360.0,-3341.55,-1722.31,-2.65043,-90.9786,-13.4045,3573.79,15393.2,-4989.94,-73.5606,-100.058,-186.189,-18045.1,-9211.32,1432.31,15.837,10.011,179.287,6394.31,12147.9,1189.19,-41.8865,-128.941,-20.8907,-1411.36,10315.1,-1936.74,23.4335,129.766,-22.7861,13594.5,1498.8,-933.195,-10.4362,-51.3771,-30.198
3.236,4475.58,-3326.46,12875.1,-43.2658,-399.947,-28.2214,24134.4,-3317.36,-1537.0,-0.338032,-91.2754,-13.3897,3595.11,15341.0,-5186.0,-73.0902,-100.992,-186.206,-17841.0,-9089.01,1274.65,14.8291,10.2812,181.013,6405.9,12105.9,1181.57,-41.684,-127.602,-20.6138,-1552.8,10262.8,-1456.82,19.1903,127.549,-20.9246,13552.0,1525.45,-951.468,-11.396,-52.0792,-29.9998
3.2365,4327.81,-3204.69,12772.0,-46.2655,-403.222,-28.9041,23910.3,-3298.29,-1353.06,2.02865,-91.5516,-13.3812,3605.76,15283.0,-5380.5,-72.5467,-101.802,-186.232,-17636.6,-8967.96,1121.62,13.8315,10.5841,182.73,6418.54,12057.9,1173.27,-41.4035,-126.185,-20.3498,-1686.62,10199.3,-963.454,15.0511,125.291,-19.2785,13508.4,1553.31,-965.208,-12.3414,-52.7798,-29.8065
3.237,4180.05,-3082.92,12669.0,-49.2652,-406.497,-29.5868,23686.3,-3279.22,-1169.13,4.39533,-91.8278,-13.3728,3616.41,15225.0,-5575.0,-72.0033,-102.611,-186.258,-17432.3,-8846.91,968.591,12.834,10.887,184.448,6431.18,12009.9,1164.97,-41.1229,-124.767,-20.0858,-1820.44,10135.8,-470.089,10.9118,123.032,-17.6324,13464.7,1581.16,-978.948,-13.2867,-53.4805,-29.6131
3.2375,4032.28,-2961.15,12565.9,-52.2648,-409.772,-30.2695,23462.3,-3260.15,-985.201,6.762,-92.1039,-13.3644,3627.06,15167.1,-5769.5,-71.4598,-103.42,-186.285,-17227.9,-8725.85,815.559,11.8364,11.1899,186.165,6443.81,11961.9,1156.66,-40.8424,-123.35,-19.8218,-1954.26,10072.3,23.2756,6.77258,120.774,-15.9863,13421.1,1609.01,-992.688,-14.232,-54.1811,-29.4197
3.238,3884.52,-2839.38,12462.8,-55.2645,-413.048,-30.9522,23238.2,-3241.08,-801.269,9.12868,-92.3801,-13.3559,3637.71,15109.1,-5963.99,-70.9164,-104.23,-186.311,-17023.5,-8604.8,662.528,10.8388,11.4929,187.882,6456.45,11913.9,1148.36,-40.5618,-121.933,-19.5578,-2088.08,10008.8,516.64,2.63332,118.515,-14.3402,13377.4,1636.87,-1006.43,-15.1774,-54.8818,-29.2263
3.2385,3736.75,-2717.6,12359.7,-58.2641,-416.323,-31.6349,23014.2,-3222.02,-617.337,11.4954,-92.6562,-13.3475,3648.35,15051.1,-6158.49,-70.3729,-105.039,-186.337,-16819.1,-8483.75,509.497,9.84129,11.7958,189.6,6469.09,11865.9,1140.06,-40.2813,-120.515,-19.2938,-2221.9,9945.31,1010.01,-1.50593,116.257,-12.6941,13333.8,1664.72,-1020.17,-16.1227,-55.5824,-29.0329
3.239,3588.99,-2595.83,12256.6,-61.2638,-419.598,-32.3176,22790.1,-3202.95,-433.405,13.862,-92.9324,-13.339,3659.0,14993.2,-6352.99,-69.8294,-105.848,-186.363,-16614.7,-8362.7,356.465,8.84374,12.0987,191.317,6481.73,11817.9,1131.76,-40.0008,-119.098,-19.0298,-2355.72,9881.83,1503.37,-5.64518,113.998,-11.0481,13290.1,1692.57,-1033.91,-17.068,-56.283,-28.8395
3.2395,3441.22,-2474.06,12153.6,-64.2635,-422.873,-33.0004,22566.1,-3183.88,-249.473,16.2287,-93.2086,-13.3306,3669.65,14935.2,-6547.49,-69.286,-106.658,-186.389,-16410.3,-8241.64,203.434,7.84619,12.4016,193.034,6494.37,11769.9,1123.45,-39.7202,-117.681,-18.7658,-2489.54,9818.34,1996.73,-9.78444,111.739,-9.40196,13246.5,1720.43,-1047.65,-18.0134,-56.9837,-28.6461
3.24,3293.46,-2352.29,12050.5,-67.2631,-426.149,-33.6831,22342.0,-3164.81,-65.5413,18.5954,-93.4847,-13.3222,3680.3,14877.2,-6741.99,-68.7425,-107.467,-186.415,-16205.9,-8120.59,50.4027,6.84863,12.7045,194.752,6507.01,11721.9,1115.15,-39.4397,-116.263,-18.5018,-2623.36,9754.85,2490.1,-13.9237,109.481,-7.75587,13202.9,1748.28,-1061.39,-18.9587,-57.6843,-28.4527
3.2405,3308.26,-2278.13,12072.5,-68.8469,-429.528,-35.1305,22130.9,-3351.33,-307.045,26.0594,-91.6933,-14.1769,3691.53,14860.6,-6744.18,-68.3847,-109.352,-186.543,-15976.9,-8043.1,-43.156,5.68775,13.2631,196.554,6516.74,11688.3,1158.54,-39.4788,-114.87,-18.2749,-2614.84,9682.96,2848.07,-17.1592,106.923,-7.79605,13152.5,1802.95,-1086.89,-19.4826,-58.1828,-28.1378
3.241,3323.07,-2203.96,12094.6,-70.4306,-432.908,-36.5779,21919.7,-3537.85,-548.548,33.5235,-89.9019,-15.0316,3702.76,14844.0,-6746.37,-68.0269,-111.238,-186.671,-15747.9,-7965.61,-136.715,4.52686,13.8217,198.357,6526.47,11654.7,1201.93,-39.518,-113.476,-18.0479,-2606.31,9611.06,3206.05,-20.3947,104.364,-7.83624,13102.2,1857.62,-1112.39,-20.0065,-58.6812,-27.8229
3.2415,3337.88,-2129.8,12116.6,-72.0143,-436.287,-38.0253,21708.5,-3724.37,-790.052,40.9875,-88.1105,-15.8864,3714.0,14827.4,-6748.57,-67.6692,-113.123,-186.799,-15518.9,-7888.11,-230.274,3.36598,14.3803,200.159,6536.21,11621.2,1245.32,-39.5572,-112.082,-17.821,-2597.79,9539.17,3564.02,-23.6303,101.806,-7.87642,13051.9,1912.29,-1137.89,-20.5304,-59.1797,-27.508
3.242,3352.69,-2055.64,12138.7,-73.5981,-439.667,-39.4728,21497.4,-3910.9,-1031.55,48.4515,-86.3191,-16.7411,3725.23,14810.8,-6750.76,-67.3114,-115.008,-186.927,-15289.9,-7810.62,-323.832,2.2051,14.9389,201.961,6545.94,11587.6,1288.71,-39.5963,-110.689,-17.594,-2589.26,9467.28,3922.0,-26.8658,99.2479,-7.9166,13001.5,1966.96,-1163.39,-21.0542,-59.6781,-27.1931
3.2425,3367.5,-1981.47,12160.8,-75.1818,-443.047,-40.9202,21286.2,-4097.42,-1273.06,55.9155,-84.5276,-17.5958,3736.46,14794.2,-6752.95,-66.9536,-116.893,-187.056,-15060.9,-7733.13,-417.391,1.04422,15.4975,203.764,6555.67,11554.0,1332.1,-39.6355,-109.295,-17.3671,-2580.73,9395.38,4279.97,-30.1013,96.6897,-7.95679,12951.2,2021.63,-1188.89,-21.5781,-60.1766,-26.8782
3.243,3382.31,-1907.31,12182.8,-76.7656,-446.426,-42.3676,21075.1,-4283.94,-1514.56,63.3796,-82.7362,-18.4506,3747.69,14777.6,-6755.15,-66.5958,-118.779,-187.184,-14831.9,-7655.63,-510.95,-0.116667,16.0561,205.566,6565.4,11520.5,1375.49,-39.6746,-107.901,-17.1401,-2572.21,9323.49,4637.95,-33.3369,94.1314,-7.99697,12900.9,2076.3,-1214.39,-22.102,-60.675,-26.5633
3.2435,3397.12,-1833.15,12204.9,-78.3493,-449.806,-43.815,20863.9,-4470.46,-1756.07,70.8436,-80.9448,-19.3053,3758.93,14761.0,-6757.34,-66.238,-120.664,-187.312,-14602.9,-7578.14,-604.509,-1.27755,16.6147,207.368,6575.13,11486.9,1418.88,-39.7138,-106.508,-16.9132,-2563.68,9251.6,4995.92,-36.5724,91.5732,-8.03716,12850.6,2130.97,-1239.89,-22.6259,-61.1735,-26.2484
3.244,3411.93,-1758.98,12226.9,-79.9331,-453.185,-45.2625,20652.7,-4656.98,-1997.57,78.3076,-79.1534,-20.16,3770.16,14744.4,-6759.53,-65.8802,-122.549,-187.44,-14373.9,-7500.65,-698.067,-2.43843,17.1733,209.171,6584.87,11453.3,1462.27,-39.753,-105.114,-16.6862,-2555.16,9179.7,5353.89,-39.8079,89.0149,-8.07734,12800.2,2185.64,-1265.39,-23.1498,-61.6719,-25.9335
3.2445,3430.73,-1690.81,12252.2,-81.5003,-456.631,-46.668,20457.5,-4776.78,-2283.63,83.3199,-77.9182,-20.3173,3784.17,14727.7,-6754.07,-65.6054,-124.558,-187.555,-14119.7,-7434.7,-801.63,-3.76671,17.6531,211.142,6593.03,11423.1,1521.35,-39.977,-103.886,-16.4538,-2538.77,9107.49,5687.01,-42.9238,86.275,-8.17896,12749.3,2238.78,-1286.37,-23.61,-62.1925,-25.611
3.245,3481.43,-1670.52,12303.2,-82.9359,-460.607,-47.7384,20390.1,-4362.77,-2926.16,68.7184,-81.1328,-14.8948,3820.43,14710.8,-6687.39,-65.9945,-127.552,-187.564,-13664.1,-7461.09,-985.225,-6.43416,17.5021,214.459,6588.6,11419.1,1706.0,-41.6804,-103.984,-16.1782,-2459.46,9032.71,5821.26,-45.0826,82.0819,-8.77209,12693.3,2279.67,-1271.26,-23.5608,-62.89,-25.2279
3.2455,3532.12,-1650.24,12354.2,-84.3714,-464.584,-48.8087,20322.7,-3948.77,-3568.68,54.1168,-84.3473,-9.47227,3856.68,14693.8,-6620.7,-66.3836,-130.546,-187.573,-13208.6,-7487.48,-1168.82,-9.1016,17.351,217.776,6584.17,11415.1,1890.64,-43.3838,-104.082,-15.9026,-2380.15,8957.92,5955.51,-47.2415,77.8887,-9.36523,12637.3,2320.56,-1256.15,-23.5117,-63.5875,-24.8448
3.246,3582.82,-1629.95,12405.2,-85.807,-468.56,-49.8791,20255.3,-3534.76,-4211.21,39.5153,-87.5619,-4.04976,3892.94,14676.8,-6554.02,-66.7727,-133.54,-187.582,-12753.0,-7513.88,-1352.41,-11.7691,17.2,221.093,6579.74,11411.1,2075.29,-45.0872,-104.18,-15.627,-2300.85,8883.14,6089.76,-49.4003,73.6956,-9.95836,12581.2,2361.46,-1241.03,-23.4626,-64.2851,-24.4617
3.2465,3633.52,-1609.67,12456.2,-87.2425,-472.536,-50.9494,20187.9,-3120.75,-4853.74,24.9138,-90.7765,1.37274,3929.19,14659.9,-6487.33,-67.1618,-136.534,-187.591,-12297.4,-7540.27,-1536.01,-14.4365,17.0489,224.41,6575.31,11407.1,2259.93,-46.7907,-104.278,-15.3513,-2221.54,8808.36,6224.01,-51.5591,69.5025,-10.5515,12525.2,2402.35,-1225.92,-23.4134,-64.9826,-24.0786
3.247,3684.22,-1589.38,12507.2,-88.678,-476.513,-52.0198,20120.5,-2706.75,-5496.27,10.3122,-93.9911,6.79525,3965.44,14642.9,-6420.65,-67.5508,-139.528,-187.6,-11841.8,-7566.66,-1719.6,-17.1039,16.8979,227.727,6570.88,11403.0,2444.58,-48.4941,-104.376,-15.0757,-2142.23,8733.58,6358.26,-53.718,65.3093,-11.1446,12469.2,2443.24,-1210.81,-23.3643,-65.6801,-23.6955
3.2475,3734.92,-1569.1,12558.2,-90.1136,-480.489,-53.0901,20053.1,-2292.74,-6138.79,-4.28932,-97.2057,12.2178,4001.7,14626.0,-6353.97,-67.9399,-142.522,-187.609,-11386.3,-7593.06,-1903.2,-19.7714,16.7469,231.044,6566.44,11399.0,2629.22,-50.1975,-104.474,-14.8001,-2062.92,8658.79,6492.5,-55.8768,61.1162,-11.7378,12413.2,2484.13,-1195.7,-23.3151,-66.3776,-23.3124
3.248,3785.61,-1548.81,12609.2,-91.5491,-484.465,-54.1605,19985.8,-1878.74,-6781.32,-18.8909,-100.42,17.6403,4037.95,14609.0,-6287.28,-68.329,-145.516,-187.618,-10930.7,-7619.45,-2086.79,-22.4388,16.5958,234.361,6562.02,11395.0,2813.87,-51.9009,-104.571,-14.5244,-1983.62,8584.01,6626.75,-58.0356,56.9231,-12.3309,12357.2,2525.03,-1180.58,-23.266,-67.0751,-22.9293
3.2485,3836.31,-1528.52,12660.2,-92.9847,-488.442,-55.2308,19918.4,-1464.73,-7423.85,-33.4924,-103.635,23.0628,4074.21,14592.0,-6220.6,-68.7181,-148.51,-187.627,-10475.1,-7645.84,-2270.39,-25.1063,16.4448,237.678,6557.58,11391.0,2998.51,-53.6043,-104.669,-14.2488,-1904.31,8509.23,6761.0,-60.1945,52.7299,-12.924,12301.2,2565.92,-1165.47,-23.2168,-67.7727,-22.5461
3.249,3872.58,-1535.02,12693.9,-94.6771,-492.406,-56.3708,19285.4,-115.038,-7000.6,-50.6778,-117.468,33.8336,4117.1,14570.8,-6163.01,-69.0478,-151.569,-187.578,-9838.56,-7717.09,-2506.63,-27.736,15.1318,241.788,6572.08,11374.4,3132.47,-55.2047,-104.693,-13.9603,-1804.04,8446.21,6890.93,-62.4308,48.0225,-13.2824,12228.1,2625.79,-1102.07,-22.6788,-68.7433,-22.0974
3.2495,3858.32,-1635.25,12666.7,-97.2686,-496.327,-57.7543,16673.2,4509.55,-2847.15,-76.9066,-168.467,63.3236,4183.19,14534.5,-6137.28,-69.1693,-154.856,-187.327,-8568.55,-7945.29,-2927.15,-30.2336,9.75218,248.673,6652.82,11313.4,3089.05,-56.4447,-104.456,-13.6269,-1630.39,8424.35,7005.71,-64.9383,41.5151,-12.8191,12095.2,2752.08,-869.656,-20.4293,-70.6701,-21.4192
3.25,3844.07,-1735.48,12639.5,-99.8601,-500.248,-59.1378,14061.0,9134.14,1306.31,-103.135,-219.466,92.8136,4249.28,14498.2,-6111.55,-69.2908,-158.142,-187.075,-7298.54,-8173.5,-3347.67,-32.7311,4.37253,255.558,6733.56,11252.5,3045.63,-57.6847,-104.22,-13.2934,-1456.74,8402.49,7120.5,-67.4458,35.0078,-12.3558,11962.4,2878.37,-637.245,-18.1799,-72.5968,-20.7409
3.2505,3829.82,-1835.71,12612.3,-102.452,-504.169,-60.5214,11448.8,13758.7,5459.76,-129.364,-270.465,122.304,4315.37,14461.9,-6085.81,-69.4123,-161.429,-186.823,-6028.53,-8401.71,-3768.2,-35.2287,-1.00711,262.443,6814.3,11191.5,3002.21,-58.9247,-103.983,-12.9599,-1283.09,8380.63,7235.29,-69.9533,28.5004,-11.8924,11829.5,3004.66,-404.834,-15.9305,-74.5235,-20.0626
3.251,3815.57,-1935.94,12585.1,-105.043,-508.09,-61.9049,8836.59,18383.3,9613.22,-155.593,-321.465,151.794,4381.47,14425.6,-6060.08,-69.5339,-164.716,-186.572,-4758.52,-8629.92,-4188.72,-37.7263,-6.38676,269.328,6895.04,11130.6,2958.79,-60.1647,-103.746,-12.6264,-1109.45,8358.77,7350.07,-72.4607,21.993,-11.4291,11696.7,3130.95,-172.423,-13.6811,-76.4502,-19.3844
3.2515,3801.31,-2036.18,12557.9,-107.635,-512.012,-63.2885,6224.38,23007.9,13766.7,-181.822,-372.464,181.284,4447.56,14389.3,-6034.35,-69.6554,-168.002,-186.32,-3488.52,-8858.12,-4609.24,-40.2239,-11.7664,276.212,6975.79,11069.6,2915.37,-61.4047,-103.51,-12.293,-935.798,8336.91,7464.86,-74.9682,15.4856,-10.9658,11563.8,3257.24,59.9881,-11.4317,-78.377,-18.7061
3.252,3787.06,-2136.41,12530.8,-110.226,-515.933,-64.672,3612.17,27632.5,17920.1,-208.051,-423.463,210.774,4513.65,14353.0,-6008.62,-69.7769,-171.289,-186.069,-2218.51,-9086.33,-5029.76,-42.7215,-17.1461,283.097,7056.53,11008.7,2871.95,-62.6447,-103.273,-11.9595,-762.15,8315.05,7579.65,-77.4757,8.97819,-10.5025,11431.0,3383.54,292.399,-9.18223,-80.3037,-18.0278
3.2525,3772.81,-2236.64,12503.6,-112.818,-519.854,-66.0555,999.959,32257.1,22073.6,-234.28,-474.462,240.264,4579.75,14316.7,-5982.88,-69.8984,-174.576,-185.817,-948.497,-9314.54,-5450.28,-45.219,-22.5257,289.982,7137.27,10947.7,2828.53,-63.8847,-103.037,-11.626,-588.501,8293.19,7694.43,-79.9832,2.4708,-10.0392,11298.1,3509.83,524.81,-6.93281,-82.2304,-17.3496
3.253,3758.56,-2336.87,12476.4,-115.409,-523.775,-67.4391,-1612.25,36881.7,26227.0,-260.508,-525.461,269.754,4645.84,14280.4,-5957.15,-70.02,-177.862,-185.566,321.512,-9542.75,-5870.8,-47.7166,-27.9053,296.867,7218.01,10886.8,2785.11,-65.1247,-102.8,-11.2926,-414.853,8271.33,7809.22,-82.4907,-4.03659,-9.57584,11165.2,3636.12,757.221,-4.68339,-84.1572,-16.6713
3.2535,3720.93,-2432.18,12455.8,-118.248,-527.861,-69.0327,-5854.78,40204.8,29741.5,-280.698,-571.108,289.848,4717.25,14241.1,-5946.61,-69.9974,-181.148,-185.301,1869.19,-10121.5,-6522.62,-50.372,-32.6765,301.617,7275.9,10849.2,2645.36,-66.3172,-102.363,-10.8254,-245.39,8322.47,7512.83,-82.0813,-9.50521,-7.61842,10984.3,3788.77,1285.1,-0.503826,-87.0315,-16.0917
3.254,3636.57,-2517.66,12448.3,-121.584,-532.277,-71.0463,-13357.9,40924.8,31977.9,-288.808,-606.051,291.151,4799.29,14195.6,-5966.45,-69.6866,-184.43,-185.011,3972.21,-11401.5,-7637.04,-53.3428,-36.2308,302.096,7288.09,10858.3,2312.94,-67.4147,-101.525,-10.0907,-84.2966,8519.62,6394.07,-75.838,-12.8963,-2.67278,10707.2,3994.15,2403.93,7.53602,-91.8012,-15.7093
