Time,RFoot_accel.x,RFoot_accel.y,RFoot_accel.z,RFoot_gyro.x,RFoot_gyro.y,RFoot_gyro.z,LFoot_accel.x,LFoot_accel.y,LFoot_accel.z,LFoot_gyro.x,LFoot_gyro.y,LFoot_gyro.z,RShank_accel.x,RShank_accel.y,RShank_accel.z,RShank_gyro.x,RShank_gyro.y,RShank_gyro.z,LShank_accel.x,LShank_accel.y,LShank_accel.z,LShank_gyro.x,LShank_gyro.y,LShank_gyro.z,RThigh_accel.x,RThigh_accel.y,RThigh_accel.z,RThigh_gyro.x,RThigh_gyro.y,RThigh_gyro.z,LThigh_accel.x,LThigh_accel.y,LThigh_accel.z,LThigh_gyro.x,LThigh_gyro.y,LThigh_gyro.z,Pelvis_accel.x,Pelvis_accel.y,Pelvis_accel.z,Pelvis_gyro.x,Pelvis_gyro.y,Pelvis_gyro.z
3.88,4301.4,2540.45,8597.64,-11.4772,-79.6092,-2.37345,2535.4,3237.27,5097.69,17.2306,334.028,-109.169,-499.799,11172.9,-102.58,-13.0777,-64.8729,-28.6162,3474.43,-5167.66,-1721.27,-73.4348,82.5336,-220.362,1249.52,10449.2,-3485.62,-14.072,-157.984,-64.5098,5693.27,7480.71,3275.85,62.018,-106.733,-102.993,7565.54,1967.41,2922.3,-18.3586,-3.75285,-40.2273
3.8805,4294.38,2511.39,8603.51,-11.5879,-79.6785,-2.45476,2553.09,3201.11,5160.56,17.428,333.56,-110.189,-474.876,11130.9,-154.44,-13.1412,-64.9016,-28.6112,3413.76,-5202.62,-1708.64,-73.7516,83.1566,-221.016,1279.14,10419.8,-3493.92,-13.8304,-156.13,-64.2856,5694.1,7426.57,3337.19,62.1545,-107.111,-102.691,7539.09,1973.24,2911.4,-19.2258,-3.46998,-39.6686
3.881,4287.35,2482.32,8609.38,-11.6987,-79.7478,-2.53606,2570.77,3164.96,5223.42,17.6255,333.092,-111.21,-449.953,11089.0,-206.299,-13.2046,-64.9304,-28.6062,3353.08,-5237.59,-1696.0,-74.0685,83.7796,-221.67,1308.76,10390.5,-3502.22,-13.5888,-154.276,-64.0614,5694.93,7372.43,3398.54,62.2911,-107.489,-102.39,7512.64,1979.08,2900.5,-20.0931,-3.18711,-39.1099
3.8815,4280.33,2453.26,8615.25,-11.8094,-79.8172,-2.61736,2588.45,3128.8,5286.29,17.8229,332.623,-112.23,-425.03,11047.1,-258.158,-13.2681,-64.9592,-28.6012,3292.4,-5272.55,-1683.37,-74.3854,84.4026,-222.324,1338.38,10361.1,-3510.52,-13.3472,-152.422,-63.8371,5695.76,7318.3,3459.88,62.4276,-107.868,-102.088,7486.2,1984.92,2889.6,-20.9604,-2.90424,-38.5513
3.882,4273.31,2424.2,8621.12,-11.9202,-79.8865,-2.69866,2606.13,3092.64,5349.16,18.0203,332.155,-113.251,-400.107,11005.1,-310.018,-13.3316,-64.9879,-28.5962,3231.72,-5307.51,-1670.74,-74.7022,85.0256,-222.978,1368.0,10331.7,-3518.82,-13.1056,-150.568,-63.6129,5696.59,7264.16,3521.23,62.5641,-108.246,-101.787,7459.75,1990.75,2878.7,-21.8276,-2.62137,-37.9926
3.8825,4266.28,2395.13,8626.99,-12.0309,-79.9559,-2.77996,2623.81,3056.48,5412.02,18.2177,331.687,-114.271,-375.184,10963.2,-361.877,-13.3951,-65.0167,-28.5912,3171.05,-5342.47,-1658.11,-75.0191,85.6486,-223.632,1397.62,10302.3,-3527.12,-12.864,-148.714,-63.3886,5697.42,7210.02,3582.57,62.7006,-108.625,-101.485,7433.3,1996.59,2867.8,-22.6949,-2.3385,-37.434
3.883,4259.26,2366.07,8632.86,-12.1417,-80.0252,-2.86127,2641.49,3020.33,5474.89,18.4151,331.218,-115.292,-350.261,10921.2,-413.737,-13.4586,-65.0454,-28.5862,3110.37,-5377.44,-1645.47,-75.336,86.2716,-224.286,1427.24,10272.9,-3535.42,-12.6224,-146.86,-63.1644,5698.25,7155.88,3643.91,62.8372,-109.003,-101.184,7406.85,2002.43,2856.9,-23.5621,-2.05563,-36.8753
3.8835,4252.24,2337.0,8638.73,-12.2524,-80.0945,-2.94257,2659.17,2984.17,5537.76,18.6125,330.75,-116.312,-325.338,10879.3,-465.596,-13.5221,-65.0742,-28.5812,3049.69,-5412.4,-1632.84,-75.6529,86.8946,-224.94,1456.86,10243.5,-3543.72,-12.3808,-145.006,-62.9402,5699.08,7101.75,3705.26,62.9737,-109.382,-100.882,7380.4,2008.26,2846.0,-24.4294,-1.77276,-36.3166
3.884,4245.21,2307.94,8644.6,-12.3632,-80.1639,-3.02387,2676.86,2948.01,5600.62,18.8099,330.282,-117.333,-300.415,10837.4,-517.456,-13.5856,-65.1029,-28.5762,2989.02,-5447.36,-1620.21,-75.9697,87.5176,-225.594,1486.48,10214.1,-3552.01,-12.1392,-143.152,-62.7159,5699.91,7047.61,3766.6,63.1102,-109.76,-100.58,7353.96,2014.1,2835.1,-25.2966,-1.48989,-35.758
3.8845,4236.87,2279.04,8652.26,-12.4642,-80.233,-3.08503,2688.16,2913.1,5667.5,19.0554,329.763,-118.329,-275.736,10794.3,-567.221,-13.6512,-65.1323,-28.5763,2930.34,-5484.09,-1607.57,-76.2948,88.1355,-226.246,1516.44,10186.1,-3556.65,-11.9166,-141.301,-62.5013,5703.66,7001.05,3829.14,63.1016,-110.273,-100.277,7329.88,2018.74,2826.92,-26.1538,-1.21207,-35.1967
3.885,4217.96,2251.47,8674.25,-12.4873,-80.3,-2.98508,2648.46,2888.15,5766.47,19.6849,328.836,-119.134,-253.007,10741.9,-600.237,-13.7338,-65.1663,-28.6167,2887.66,-5534.91,-1594.89,-76.685,88.7125,-226.884,1549.1,10169.8,-3532.01,-11.8455,-139.472,-62.3632,5730.72,7015.04,3901.18,61.932,-111.865,-99.9617,7324.75,2013.8,2840.48,-26.9306,-0.974641,-34.615
3.8855,4199.05,2223.9,8696.24,-12.5105,-80.367,-2.88513,2608.75,2863.2,5865.43,20.3143,327.91,-119.939,-230.278,10689.6,-633.252,-13.8163,-65.2003,-28.6571,2844.98,-5585.73,-1582.21,-77.0751,89.2894,-227.521,1581.75,10153.5,-3507.37,-11.7745,-137.642,-62.2251,5757.78,7029.04,3973.21,60.7624,-113.456,-99.646,7319.62,2008.86,2854.05,-27.7073,-0.737213,-34.0333
3.886,4180.14,2196.33,8718.23,-12.5336,-80.4341,-2.78517,2569.05,2838.25,5964.4,20.9438,326.983,-120.744,-207.549,10637.3,-666.267,-13.8988,-65.2343,-28.6975,2802.3,-5636.55,-1569.52,-77.4653,89.8664,-228.158,1614.41,10137.2,-3482.73,-11.7034,-135.813,-62.0871,5784.84,7043.04,4045.25,59.5928,-115.047,-99.3303,7314.49,2003.92,2867.61,-28.484,-0.499785,-33.4516
3.8865,4161.24,2168.75,8740.22,-12.5567,-80.5011,-2.68522,2529.34,2813.3,6063.37,21.5733,326.057,-121.549,-184.82,10584.9,-699.283,-13.9814,-65.2683,-28.7379,2759.62,-5687.38,-1556.84,-77.8555,90.4433,-228.795,1647.07,10120.8,-3458.08,-11.6323,-133.983,-61.949,5811.9,7057.04,4117.29,58.4231,-116.639,-99.0145,7309.36,1998.98,2881.17,-29.2607,-0.262357,-32.8699
3.887,4142.33,2141.18,8762.21,-12.5798,-80.5681,-2.58527,2489.64,2788.35,6162.34,22.2028,325.131,-122.354,-162.092,10532.6,-732.298,-14.0639,-65.3023,-28.7783,2716.94,-5738.2,-1544.16,-78.2457,91.0203,-229.432,1679.73,10104.5,-3433.44,-11.5613,-132.154,-61.8109,5838.96,7071.04,4189.33,57.2535,-118.23,-98.6988,7304.23,1994.04,2894.74,-30.0374,-0.0249282,-32.2881
3.8875,4123.42,2113.61,8784.2,-12.6029,-80.6351,-2.48531,2449.93,2763.4,6261.3,22.8323,324.204,-123.159,-139.363,10480.3,-765.313,-14.1465,-65.3363,-28.8188,2674.26,-5789.02,-1531.47,-78.6359,91.5972,-230.069,1712.38,10088.2,-3408.8,-11.4902,-130.324,-61.6729,5866.02,7085.04,4261.37,56.0839,-119.822,-98.3831,7299.1,1989.1,2908.3,-30.8141,0.2125,-31.7064
3.888,4104.51,2086.04,8806.19,-12.626,-80.7022,-2.38536,2410.23,2738.44,6360.27,23.4618,323.278,-123.964,-116.634,10428.0,-798.329,-14.229,-65.3704,-28.8592,2631.58,-5839.85,-1518.79,-79.026,92.1742,-230.706,1745.04,10071.9,-3384.16,-11.4191,-128.495,-61.5348,5893.08,7099.04,4333.41,54.9143,-121.413,-98.0674,7293.97,1984.15,2921.86,-31.5908,0.449928,-31.1247
3.8885,4085.6,2058.47,8828.18,-12.6491,-80.7692,-2.28541,2370.52,2713.49,6459.24,24.0913,322.352,-124.769,-93.9053,10375.6,-831.344,-14.3116,-65.4044,-28.8996,2588.9,-5890.67,-1506.11,-79.4162,92.7511,-231.344,1777.7,10055.6,-3359.51,-11.3481,-126.666,-61.3968,5920.14,7113.03,4405.45,53.7447,-123.004,-97.7517,7288.84,1979.21,2935.43,-32.3675,0.687357,-30.543
3.889,4069.47,2025.26,8843.0,-12.6776,-80.8319,-2.22996,2327.76,2685.34,6553.61,24.718,321.446,-125.586,-68.1496,10323.2,-870.832,-14.3884,-65.3857,-28.9614,2547.2,-5946.91,-1492.57,-79.7994,93.3351,-231.958,1805.56,10035.1,-3332.85,-11.2742,-124.89,-61.2502,5955.04,7125.93,4472.61,52.3631,-124.829,-97.5123,7282.42,1967.74,2941.12,-33.0521,0.960103,-29.9575
3.8895,4063.07,1972.35,8832.69,-12.7249,-80.8793,-2.33028,2274.31,2645.98,6631.9,25.3346,320.612,-126.445,-31.7997,10270.7,-932.974,-14.4452,-65.1828,-29.0983,2508.93,-6022.1,-1476.03,-80.1582,93.9437,-232.495,1816.66,10000.1,-3299.1,-11.1905,-123.304,-61.0741,6017.4,7134.97,4522.68,50.2397,-127.472,-97.5398,7271.49,1933.41,2919.27,-33.4141,1.35646,-29.3588
3.89,4056.66,1919.44,8822.38,-12.7721,-80.9267,-2.43059,2220.86,2606.62,6710.19,25.9513,319.777,-127.305,4.55027,10218.2,-995.116,-14.502,-64.9799,-29.2352,2470.65,-6097.29,-1459.48,-80.5169,94.5523,-233.031,1827.75,9965.16,-3265.35,-11.1068,-121.718,-60.8979,6079.77,7144.02,4572.75,48.1164,-130.114,-97.5673,7260.56,1899.08,2897.42,-33.7761,1.75282,-28.7602
3.8905,4050.25,1866.53,8812.07,-12.8194,-80.9742,-2.53091,2167.41,2567.26,6788.48,26.5679,318.943,-128.164,40.9002,10165.7,-1057.26,-14.5588,-64.777,-29.372,2432.38,-6172.48,-1442.94,-80.8756,95.1609,-233.568,1838.85,9930.19,-3231.6,-11.0231,-120.131,-60.7217,6142.13,7153.06,4622.82,45.993,-132.756,-97.5948,7249.63,1864.75,2875.57,-34.138,2.14918,-28.1615
3.891,4043.84,1813.62,8801.76,-12.8666,-81.0216,-2.63122,2113.96,2527.9,6866.78,27.1846,318.109,-129.023,77.2502,10113.2,-1119.4,-14.6155,-64.5741,-29.5089,2394.11,-6247.67,-1426.4,-81.2344,95.7694,-234.105,1849.94,9895.21,-3197.86,-10.9394,-118.545,-60.5456,6204.49,7162.1,4672.89,43.8697,-135.399,-97.6223,7238.69,1830.42,2853.72,-34.5,2.54554,-27.5628
3.8915,4037.44,1760.71,8791.45,-12.9138,-81.069,-2.73154,2060.51,2488.54,6945.07,27.8013,317.275,-129.882,113.6,10060.6,-1181.54,-14.6723,-64.3712,-29.6458,2355.84,-6322.86,-1409.86,-81.5931,96.378,-234.641,1861.04,9860.24,-3164.11,-10.8558,-116.959,-60.3694,6266.85,7171.15,4722.96,41.7463,-138.041,-97.6498,7227.76,1796.09,2831.87,-34.862,2.9419,-26.9642
3.892,4031.03,1707.8,8781.14,-12.9611,-81.1165,-2.83186,2007.06,2449.18,7023.36,28.4179,316.44,-130.742,149.95,10008.1,-1243.68,-14.7291,-64.1682,-29.7826,2317.56,-6398.05,-1393.31,-81.9519,96.9866,-235.178,1872.13,9825.26,-3130.36,-10.7721,-115.372,-60.1933,6329.21,7180.19,4773.02,39.623,-140.683,-97.6773,7216.83,1761.76,2810.02,-35.224,3.33826,-26.3655
3.8925,4024.62,1654.89,8770.83,-13.0083,-81.1639,-2.93217,1953.6,2409.82,7101.65,29.0346,315.606,-131.601,186.3,9955.58,-1305.83,-14.7859,-63.9653,-29.9195,2279.29,-6473.24,-1376.77,-82.3106,97.5952,-235.714,1883.23,9790.29,-3096.61,-10.6884,-113.786,-60.0171,6391.57,7189.24,4823.09,37.4996,-143.326,-97.7049,7205.9,1727.42,2788.17,-35.5859,3.73462,-25.7668
3.893,4018.22,1601.98,8760.53,-13.0556,-81.2113,-3.03249,1900.15,2370.46,7179.94,29.6513,314.772,-132.46,222.65,9903.06,-1367.97,-14.8427,-63.7624,-30.0564,2241.02,-6548.43,-1360.23,-82.6694,98.2037,-236.251,1894.32,9755.31,-3062.86,-10.6047,-112.2,-59.8409,6453.93,7198.28,4873.16,35.3763,-145.968,-97.7324,7194.97,1693.09,2766.32,-35.9479,4.13098,-25.1682
3.8935,4009.23,1558.23,8754.02,-13.0977,-81.2745,-3.14066,1867.17,2329.58,7225.5,30.4319,314.135,-133.477,253.201,9850.48,-1420.21,-14.845,-63.5525,-30.2153,2209.24,-6621.21,-1345.68,-83.0405,98.7519,-236.775,1902.48,9720.44,-3030.98,-10.5148,-110.673,-59.6424,6493.39,7218.09,4913.88,33.2085,-148.688,-97.8227,7186.06,1657.27,2749.21,-36.264,4.57022,-24.6387
3.894,3995.08,1532.78,8755.13,-13.1295,-81.3692,-3.26452,1875.11,2285.67,7205.58,31.5406,313.894,-134.809,272.155,9797.8,-1452.66,-14.7384,-63.3285,-30.4185,2190.47,-6689.15,-1335.13,-83.4363,99.1794,-237.276,1904.78,9685.76,-3002.82,-10.4124,-109.265,-59.3991,6487.04,7259.43,4935.91,30.9516,-151.564,-98.0388,7181.18,1618.47,2741.61,-36.4883,5.09522,-24.2478
3.8945,3980.93,1507.34,8756.24,-13.1613,-81.4639,-3.38838,1883.05,2241.77,7185.66,32.6493,313.653,-136.142,291.109,9745.11,-1485.11,-14.6318,-63.1045,-30.6217,2171.69,-6757.09,-1324.57,-83.8322,99.6069,-237.776,1907.07,9651.09,-2974.67,-10.31,-107.857,-59.1557,6480.69,7300.77,4957.93,28.6948,-154.44,-98.2548,7176.3,1579.67,2734.0,-36.7127,5.62021,-23.8569
3.895,3966.78,1481.9,8757.34,-13.1931,-81.5586,-3.51224,1891.0,2197.86,7165.73,33.758,313.411,-137.474,310.062,9692.42,-1517.56,-14.5252,-62.8805,-30.8248,2152.91,-6825.03,-1314.02,-84.228,100.034,-238.277,1909.36,9616.42,-2946.51,-10.2076,-106.449,-58.9124,6474.33,7342.11,4979.95,26.438,-157.316,-98.4709,7171.41,1540.87,2726.4,-36.937,6.14521,-23.466
3.8955,3952.64,1456.45,8758.45,-13.2249,-81.6533,-3.6361,1898.94,2153.95,7145.81,34.8667,313.17,-138.806,329.016,9639.73,-1550.0,-14.4186,-62.6564,-31.028,2134.13,-6892.97,-1303.46,-84.6239,100.462,-238.777,1911.66,9581.75,-2918.36,-10.1053,-105.041,-58.6691,6467.98,7383.45,5001.97,24.1812,-160.192,-98.6869,7166.53,1502.06,2718.79,-37.1613,6.6702,-23.0751
3.896,3938.49,1431.01,8759.56,-13.2567,-81.748,-3.75996,1906.89,2110.04,7125.89,35.9753,312.929,-140.139,347.97,9587.05,-1582.45,-14.312,-62.4325,-31.2311,2115.36,-6960.91,-1292.91,-85.0197,100.889,-239.278,1913.95,9547.08,-2890.2,-10.0029,-103.633,-58.4258,6461.63,7424.79,5024.0,21.9244,-163.068,-98.903,7161.65,1463.26,2711.19,-37.3856,7.1952,-22.6842
3.8965,3924.34,1405.56,8760.66,-13.2885,-81.8427,-3.88382,1914.83,2066.13,7105.97,37.084,312.688,-141.471,366.923,9534.36,-1614.9,-14.2055,-62.2085,-31.4343,2096.58,-7028.85,-1282.35,-85.4156,101.317,-239.778,1916.24,9512.41,-2862.05,-9.9005,-102.225,-58.1824,6455.28,7466.14,5046.02,19.6676,-165.944,-99.119,7156.77,1424.46,2703.58,-37.61,7.7202,-22.2932
3.897,3910.19,1380.12,8761.77,-13.3203,-81.9374,-4.00768,1922.78,2022.22,7086.05,38.1927,312.447,-142.803,385.877,9481.67,-1647.35,-14.0989,-61.9844,-31.6375,2077.8,-7096.79,-1271.8,-85.8114,101.744,-240.279,1918.53,9477.74,-2833.89,-9.79812,-100.817,-57.9391,6448.93,7507.48,5068.04,17.4108,-168.819,-99.3351,7151.89,1385.66,2695.98,-37.8343,8.24519,-21.9023
3.8975,3896.04,1354.68,8762.88,-13.3521,-82.032,-4.13154,1930.72,1978.31,7066.13,39.3014,312.205,-144.136,404.831,9428.98,-1679.79,-13.9923,-61.7604,-31.8406,2059.02,-7164.73,-1261.25,-86.2072,102.172,-240.779,1920.83,9443.07,-2805.74,-9.69574,-99.4089,-57.6958,6442.58,7548.82,5090.06,15.154,-171.695,-99.5511,7147.01,1346.86,2688.37,-38.0586,8.77019,-21.5114
3.898,3889.77,1337.0,8765.63,-13.3732,-82.0919,-4.2278,1965.01,1936.76,7058.65,40.5797,312.145,-145.476,419.312,9388.74,-1708.35,-13.9098,-61.5314,-32.0566,2038.42,-7239.48,-1250.67,-86.551,102.591,-241.307,1931.95,9411.99,-2781.96,-9.54328,-98.0147,-57.5037,6420.06,7576.9,5065.35,13.2153,-174.492,-99.8645,7147.84,1317.62,2686.5,-38.3039,9.26722,-21.2149
3.8985,3893.35,1329.02,8770.44,-13.3809,-82.1081,-4.28957,2032.22,1898.14,7066.72,42.0701,312.31,-146.826,428.203,9364.06,-1732.05,-13.8575,-61.2961,-32.2887,2015.53,-7322.74,-1240.07,-86.8296,102.999,-241.867,1954.09,9385.42,-2763.64,-9.32822,-96.6378,-57.3756,6377.36,7588.42,4982.21,11.6741,-177.189,-100.299,7155.8,1300.34,2691.8,-38.5754,9.7293,-21.0363
3.899,3896.93,1321.05,8775.26,-13.3886,-82.1243,-4.35133,2099.44,1859.53,7074.8,43.5604,312.475,-148.176,437.093,9339.38,-1755.74,-13.8052,-61.0608,-32.5208,1992.65,-7406.01,-1229.48,-87.1081,103.408,-242.428,1976.24,9358.85,-2745.33,-9.11316,-95.2608,-57.2476,6334.65,7599.93,4899.07,10.1329,-179.886,-100.734,7163.76,1283.06,2697.1,-38.8469,10.1914,-20.8577
3.8995,3900.51,1313.08,8780.07,-13.3963,-82.1405,-4.4131,2166.65,1820.91,7082.88,45.0508,312.64,-149.526,445.984,9314.69,-1779.44,-13.7529,-60.8255,-32.7528,1969.76,-7489.28,-1218.88,-87.3867,103.817,-242.989,1998.39,9332.27,-2727.02,-8.8981,-93.8839,-57.1195,6291.94,7611.44,4815.93,8.59169,-182.584,-101.169,7171.72,1265.79,2702.4,-39.1184,10.6535,-20.6792
3.9,3904.09,1305.11,8784.88,-13.4041,-82.1568,-4.47486,2233.87,1782.29,7090.95,46.5411,312.805,-150.876,454.875,9290.01,-1803.13,-13.7006,-60.5902,-32.9849,1946.87,-7572.54,-1208.28,-87.6653,104.225,-243.55,2020.54,9305.7,-2708.71,-8.68303,-92.5069,-56.9915,6249.23,7622.96,4732.79,7.0505,-185.281,-101.604,7179.68,1248.51,2707.7,-39.3899,11.1155,-20.5006
3.9005,3907.67,1297.14,8789.7,-13.4118,-82.173,-4.53663,2301.08,1743.68,7099.03,48.0315,312.97,-152.226,463.765,9265.33,-1826.83,-13.6482,-60.3549,-33.217,1923.99,-7655.81,-1197.68,-87.9439,104.634,-244.111,2042.69,9279.13,-2690.4,-8.46797,-91.13,-56.8634,6206.52,7634.47,4649.66,5.5093,-187.978,-102.039,7187.65,1231.23,2713.0,-39.6614,11.5776,-20.322
3.901,3911.25,1289.17,8794.51,-13.4195,-82.1892,-4.59839,2368.3,1705.06,7107.11,49.5219,313.135,-153.576,472.656,9240.65,-1850.53,-13.5959,-60.1195,-33.449,1901.1,-7739.07,-1187.09,-88.2225,105.042,-244.672,2064.84,9252.56,-2672.09,-8.25291,-89.753,-56.7354,6163.81,7645.99,4566.52,3.96811,-190.676,-102.474,7195.61,1213.95,2718.3,-39.9329,12.0397,-20.1435
3.9015,3914.83,1281.19,8799.32,-13.4272,-82.2055,-4.66016,2435.51,1666.45,7115.18,51.0122,313.3,-154.926,481.546,9215.96,-1874.22,-13.5436,-59.8842,-33.6811,1878.21,-7822.34,-1176.49,-88.501,105.451,-245.233,2086.99,9225.98,-2653.78,-8.03784,-88.3761,-56.6073,6121.1,7657.5,4483.38,2.42692,-193.373,-102.909,7203.57,1196.67,2723.6,-40.2044,12.5018,-19.9649
3.902,3918.41,1273.22,8804.13,-13.435,-82.2217,-4.72192,2502.73,1627.83,7123.26,52.5026,313.465,-156.276,490.437,9191.28,-1897.92,-13.4913,-59.6489,-33.9132,1855.33,-7905.6,-1165.89,-88.7796,105.86,-245.793,2109.14,9199.41,-2635.47,-7.82278,-86.9991,-56.4793,6078.4,7669.02,4400.24,0.885722,-196.07,-103.344,7211.53,1179.39,2728.9,-40.4759,12.9638,-19.7863
3.9025,3934.85,1252.77,8803.67,-13.4599,-82.2505,-4.82861,2596.29,1612.63,7168.51,53.996,313.614,-157.48,485.958,9175.71,-1923.56,-13.4581,-59.4572,-34.192,1819.6,-7978.21,-1162.82,-89.075,106.322,-246.427,2109.08,9176.91,-2618.28,-7.65508,-85.6783,-56.4091,6026.22,7668.15,4369.42,-0.580746,-198.683,-103.748,7218.65,1171.2,2732.94,-40.6545,13.3682,-19.6766
3.903,3961.57,1222.33,8798.98,-13.4986,-82.2895,-4.97122,2710.95,1616.16,7243.49,55.4918,313.75,-158.567,470.782,9167.42,-1950.76,-13.4402,-59.3004,-34.5082,1773.61,-8042.28,-1165.77,-89.3839,106.829,-247.12,2091.26,9157.66,-2601.99,-7.52527,-84.4025,-56.3853,5966.47,7657.38,4380.44,-1.98743,-201.229,-104.128,7225.1,1170.29,2735.96,-40.7589,13.7265,-19.622
3.9035,3988.3,1191.89,8794.29,-13.5373,-82.3284,-5.11383,2825.6,1619.69,7318.48,56.9876,313.887,-159.655,455.607,9159.14,-1977.97,-13.4223,-59.1435,-34.8244,1727.61,-8106.35,-1168.71,-89.6928,107.335,-247.812,2073.44,9138.42,-2585.7,-7.39545,-83.1267,-56.3615,5906.72,7646.61,4391.46,-3.39412,-203.774,-104.508,7231.55,1169.38,2738.98,-40.8632,14.0847,-19.5673
3.904,4015.02,1161.46,8789.6,-13.5759,-82.3674,-5.25645,2940.25,1623.22,7393.46,58.4834,314.023,-160.742,440.432,9150.85,-2005.17,-13.4044,-58.9867,-35.1407,1681.62,-8170.42,-1171.66,-90.0016,107.841,-248.504,2055.62,9119.17,-2569.41,-7.26564,-81.8509,-56.3376,5846.97,7635.84,4402.49,-4.80081,-206.32,-104.888,7238.0,1168.46,2742.0,-40.9676,14.443,-19.5127
3.9045,4041.75,1131.02,8784.91,-13.6146,-82.4063,-5.39906,3054.91,1626.75,7468.45,59.9793,314.159,-161.83,425.257,9142.57,-2032.37,-13.3865,-58.8298,-35.4569,1635.63,-8234.49,-1174.61,-90.3105,108.347,-249.197,2037.8,9099.92,-2553.12,-7.13583,-80.575,-56.3138,5787.21,7625.07,4413.51,-6.20749,-208.866,-105.268,7244.45,1167.55,2745.03,-41.0719,14.8012,-19.458
3.905,4068.47,1100.58,8780.22,-13.6533,-82.4453,-5.54168,3169.56,1630.28,7543.44,61.4751,314.296,-162.917,410.081,9134.28,-2059.57,-13.3686,-58.673,-35.7731,1589.63,-8298.56,-1177.56,-90.6194,108.854,-249.889,2019.98,9080.68,-2536.83,-7.00601,-79.2992,-56.29,5727.46,7614.3,4424.53,-7.61418,-211.411,-105.648,7250.9,1166.63,2748.05,-41.1763,15.1594,-19.4034
3.9055,4095.2,1070.14,8775.53,-13.692,-82.4842,-5.68429,3284.21,1633.81,7618.42,62.9709,314.432,-164.005,394.906,9126.0,-2086.77,-13.3507,-58.5162,-36.0893,1543.64,-8362.63,-1180.51,-90.9283,109.36,-250.581,2002.16,9061.43,-2520.54,-6.8762,-78.0234,-56.2661,5667.71,7603.53,4435.55,-9.02087,-213.957,-106.028,7257.34,1165.72,2751.07,-41.2806,15.5177,-19.3488
3.906,4121.92,1039.7,8770.85,-13.7307,-82.5232,-5.8269,3398.87,1637.34,7693.41,64.4667,314.568,-165.092,379.731,9117.71,-2113.98,-13.3328,-58.3593,-36.4055,1497.64,-8426.7,-1183.45,-91.2371,109.866,-251.274,1984.34,9042.19,-2504.25,-6.74639,-76.7476,-56.2423,5607.96,7592.77,4446.58,-10.4276,-216.502,-106.408,7263.79,1164.8,2754.09,-41.385,15.8759,-19.2941
3.9065,4148.64,1009.27,8766.16,-13.7694,-82.5621,-5.96952,3513.52,1640.87,7768.39,65.9626,314.704,-166.18,364.555,9109.43,-2141.18,-13.3148,-58.2025,-36.7218,1451.65,-8490.77,-1186.4,-91.546,110.372,-251.966,1966.52,9022.94,-2487.97,-6.61657,-75.4717,-56.2184,5548.21,7582.0,4457.6,-11.8342,-219.048,-106.788,7270.24,1163.89,2757.11,-41.4894,16.2342,-19.2395
3.907,4154.65,968.821,8760.46,-13.9182,-82.6183,-6.24664,3631.02,1646.33,7852.61,67.4309,314.756,-167.012,351.973,9110.33,-2172.87,-13.3086,-58.0704,-36.9855,1406.14,-8543.24,-1194.72,-91.9223,110.88,-252.774,1951.25,9001.02,-2478.21,-6.4852,-74.2909,-56.1567,5525.42,7572.92,4379.36,-12.983,-220.737,-107.239,7280.31,1164.49,2757.39,-41.7365,16.513,-19.2585
3.9075,4150.3,923.37,8754.26,-14.122,-82.683,-6.59102,3749.95,1652.75,7941.45,68.8856,314.765,-167.717,340.688,9115.82,-2206.8,-13.3082,-57.9506,-37.2229,1360.88,-8589.92,-1205.73,-92.3323,111.389,-253.64,1937.26,8977.76,-2471.71,-6.35305,-73.1577,-56.0761,5521.1,7564.69,4256.48,-14.0027,-221.997,-107.725,7292.18,1165.85,2756.29,-42.0551,16.7521,-19.3143
3.908,4145.95,877.919,8748.05,-14.3259,-82.7477,-6.9354,3868.87,1659.17,8030.29,70.3402,314.774,-168.422,329.403,9121.31,-2240.73,-13.3078,-57.8309,-37.4603,1315.61,-8636.59,-1216.73,-92.7424,111.898,-254.506,1923.27,8954.5,-2465.21,-6.22089,-72.0244,-55.9954,5516.79,7556.46,4133.6,-15.0224,-223.258,-108.21,7304.05,1167.21,2755.18,-42.3737,16.9912,-19.3702
3.9085,4141.6,832.469,8741.85,-14.5298,-82.8124,-7.27977,3987.8,1665.59,8119.13,71.7949,314.783,-169.127,318.118,9126.8,-2274.66,-13.3074,-57.7111,-37.6977,1270.35,-8683.27,-1227.73,-93.1524,112.407,-255.371,1909.28,8931.24,-2458.72,-6.08874,-70.8911,-55.9147,5512.47,7548.23,4010.73,-16.0422,-224.518,-108.696,7315.92,1168.56,2754.08,-42.6922,17.2303,-19.426
3.909,4137.25,787.018,8735.65,-14.7336,-82.8771,-7.62415,4106.73,1672.01,8207.97,73.2495,314.792,-169.832,306.833,9132.29,-2308.59,-13.307,-57.5914,-37.9351,1225.09,-8729.95,-1238.74,-93.5624,112.916,-256.237,1895.29,8907.98,-2452.22,-5.95658,-69.7578,-55.8341,5508.15,7540.01,3887.85,-17.0619,-225.779,-109.182,7327.79,1169.92,2752.98,-43.0108,17.4694,-19.4819
3.9095,4132.9,741.567,8729.45,-14.9375,-82.9418,-7.96853,4225.65,1678.43,8296.81,74.7041,314.8,-170.538,295.548,9137.78,-2342.52,-13.3066,-57.4716,-38.1725,1179.82,-8776.62,-1249.74,-93.9725,113.424,-257.103,1881.3,8884.72,-2445.73,-5.82443,-68.6246,-55.7534,5503.84,7531.78,3764.97,-18.0817,-227.039,-109.667,7339.67,1171.28,2751.88,-43.3294,17.7085,-19.5377
3.91,4128.55,696.116,8723.24,-15.1413,-83.0066,-8.31291,4344.58,1684.85,8385.65,76.1588,314.809,-171.243,284.263,9143.27,-2376.45,-13.3062,-57.3518,-38.4099,1134.56,-8823.3,-1260.74,-94.3825,113.933,-257.969,1867.31,8861.46,-2439.23,-5.69227,-67.4913,-55.6727,5499.52,7523.55,3642.09,-19.1014,-228.3,-110.153,7351.54,1172.64,2750.78,-43.648,17.9476,-19.5935
3.9105,4124.2,650.666,8717.04,-15.3452,-83.0713,-8.65729,4463.51,1691.27,8474.48,77.6134,314.818,-171.948,272.978,9148.76,-2410.39,-13.3059,-57.2321,-38.6473,1089.3,-8869.97,-1271.75,-94.7925,114.442,-258.834,1853.32,8838.2,-2432.73,-5.56012,-66.358,-55.5921,5495.21,7515.32,3519.22,-20.1211,-229.56,-110.639,7363.41,1174.0,2749.68,-43.9665,18.1867,-19.6494
3.911,4119.85,605.215,8710.84,-15.549,-83.136,-9.00166,4582.43,1697.69,8563.32,79.0681,314.827,-172.653,261.693,9154.25,-2444.32,-13.3055,-57.1123,-38.8847,1044.03,-8916.65,-1282.75,-95.2025,114.951,-259.7,1839.33,8814.94,-2426.24,-5.42796,-65.2247,-55.5114,5490.89,7507.09,3396.34,-21.1409,-230.821,-111.125,7375.28,1175.36,2748.57,-44.2851,18.4258,-19.7052
3.9115,4130.36,580.302,8709.22,-15.6891,-83.1851,-9.24777,4682.38,1697.64,8653.35,80.2596,314.794,-173.29,243.773,9141.89,-2467.71,-13.2698,-57.0795,-39.158,1007.81,-8949.96,-1283.15,-95.6304,115.39,-260.629,1826.38,8810.34,-2423.86,-5.34887,-64.143,-55.4983,5484.4,7467.57,3494.53,-22.0411,-232.652,-111.841,7396.38,1173.92,2750.19,-44.6002,18.5296,-19.7412
3.912,4145.12,561.257,8708.91,-15.8109,-83.2297,-9.4658,4776.9,1695.75,8743.71,81.3759,314.748,-173.907,223.958,9124.42,-2488.09,-13.2241,-57.0715,-39.4415,974.162,-8979.46,-1280.52,-96.0633,115.808,-261.576,1813.72,8811.07,-2422.67,-5.28494,-63.076,-55.5045,5477.29,7419.1,3655.88,-22.9071,-234.647,-112.623,7420.11,1171.68,2752.59,-44.9143,18.5947,-19.7715
3.9125,4159.88,542.212,8708.6,-15.9327,-83.2743,-9.68383,4871.42,1693.85,8834.08,82.4921,314.703,-174.524,204.143,9106.96,-2508.47,-13.1785,-57.0635,-39.725,940.518,-9008.95,-1277.89,-96.4962,116.226,-262.524,1801.06,8811.81,-2421.47,-5.22101,-62.009,-55.5108,5470.17,7370.64,3817.24,-23.7731,-236.642,-113.406,7443.84,1169.44,2754.99,-45.2284,18.6598,-19.8017
3.913,4174.64,523.167,8708.29,-16.0545,-83.3189,-9.90185,4965.94,1691.95,8924.44,83.6085,314.658,-175.142,184.328,9089.5,-2528.84,-13.1328,-57.0555,-40.0086,906.874,-9038.45,-1275.26,-96.9291,116.645,-263.471,1788.4,8812.54,-2420.27,-5.15708,-60.942,-55.517,5463.06,7322.17,3978.59,-24.6391,-238.637,-114.188,7467.57,1167.2,2757.39,-45.5425,18.7249,-19.832
3.9135,4189.41,504.122,8707.98,-16.1763,-83.3635,-10.1199,5060.46,1690.05,9014.8,84.7247,314.612,-175.759,164.513,9072.04,-2549.22,-13.0871,-57.0476,-40.2921,873.23,-9067.94,-1272.63,-97.362,117.063,-264.418,1775.75,8813.28,-2419.07,-5.09315,-59.875,-55.5232,5455.95,7273.71,4139.94,-25.5052,-240.631,-114.97,7491.29,1164.96,2759.78,-45.8565,18.79,-19.8623
3.914,4204.17,485.077,8707.67,-16.2981,-83.4082,-10.3379,5154.98,1688.16,9105.17,85.841,314.567,-176.376,144.698,9054.57,-2569.6,-13.0414,-57.0396,-40.5756,839.586,-9097.44,-1270.0,-97.7949,117.482,-265.366,1763.09,8814.01,-2417.87,-5.02922,-58.808,-55.5294,5448.84,7225.25,4301.3,-26.3712,-242.626,-115.753,7515.02,1162.73,2762.18,-46.1706,18.855,-19.8926
3.9145,4218.93,466.032,8707.36,-16.4199,-83.4528,-10.5559,5249.5,1686.26,9195.53,86.9573,314.521,-176.994,124.882,9037.11,-2589.98,-12.9957,-57.0316,-40.8591,805.942,-9126.93,-1267.37,-98.2278,117.9,-266.313,1750.43,8814.75,-2416.68,-4.96529,-57.741,-55.5356,5441.72,7176.78,4462.65,-27.2372,-244.621,-116.535,7538.75,1160.49,2764.58,-46.4847,18.9201,-19.9228
3.915,4233.69,446.987,8707.05,-16.5417,-83.4974,-10.774,5344.02,1684.36,9285.89,88.0736,314.476,-177.611,105.067,9019.65,-2610.36,-12.95,-57.0236,-41.1426,772.298,-9156.43,-1264.73,-98.6607,118.319,-267.26,1737.77,8815.49,-2415.48,-4.90136,-56.674,-55.5419,5434.61,7128.32,4624.01,-28.1032,-246.616,-117.317,7562.48,1158.25,2766.98,-46.7988,18.9852,-19.9531
3.9155,4248.45,427.942,8706.74,-16.6635,-83.542,-10.992,5438.54,1682.46,9376.26,89.1899,314.43,-178.228,85.252,9002.18,-2630.74,-12.9043,-57.0156,-41.4262,738.654,-9185.93,-1262.1,-99.0936,118.737,-268.207,1725.12,8816.22,-2414.28,-4.83743,-55.607,-55.5481,5427.5,7079.85,4785.36,-28.9692,-248.611,-118.1,7586.21,1156.01,2769.37,-47.1129,19.0503,-19.9834
3.916,4252.99,409.788,8704.93,-16.7514,-83.6319,-11.3481,5491.07,1673.26,9449.04,90.114,314.428,-178.913,80.3516,9017.48,-2659.0,-12.9195,-57.1242,-41.6183,704.145,-9214.38,-1262.91,-99.6072,119.054,-269.127,1706.48,8808.7,-2405.6,-4.91576,-54.5474,-55.522,5482.79,7012.84,4795.93,-29.8476,-250.358,-118.903,7597.57,1160.73,2765.9,-47.4629,19.1286,-20.066
3.9165,4256.25,391.745,8702.92,-16.8351,-83.7274,-11.7214,5538.35,1663.15,9519.64,91.0141,314.432,-179.607,77.3155,9036.88,-2688.24,-12.9423,-57.2473,-41.799,669.527,-9242.69,-1264.15,-100.131,119.359,-270.044,1687.1,8800.16,-2395.98,-5.01188,-53.4887,-55.4918,5545.89,6943.52,4787.65,-30.7275,-252.074,-119.71,7607.38,1166.33,2761.7,-47.8173,19.2086,-20.1552
3.917,4259.51,373.702,8700.92,-16.9188,-83.8229,-12.0948,5585.64,1653.03,9590.23,91.9142,314.435,-180.3,74.2795,9056.28,-2717.48,-12.9652,-57.3704,-41.9796,634.91,-9271.01,-1265.39,-100.655,119.664,-270.96,1667.71,8791.61,-2386.36,-5.10799,-52.43,-55.4617,5608.98,6874.19,4779.37,-31.6074,-253.791,-120.516,7617.19,1171.92,2757.49,-48.1718,19.2886,-20.2443
3.9175,4262.77,355.659,8698.92,-17.0025,-83.9184,-12.4681,5632.92,1642.92,9660.82,92.8143,314.439,-180.993,71.2434,9075.67,-2746.72,-12.988,-57.4935,-42.1603,600.292,-9299.33,-1266.62,-101.178,119.969,-271.877,1648.33,8783.06,-2376.75,-5.20411,-51.3714,-55.4316,5672.08,6804.86,4771.09,-32.4873,-255.507,-121.323,7627.0,1177.51,2753.29,-48.5263,19.3686,-20.3335
3.918,4266.04,337.616,8696.92,-17.0862,-84.0139,-12.8415,5680.21,1632.8,9731.41,93.7144,314.442,-181.687,68.2074,9095.07,-2775.96,-13.0108,-57.6167,-42.341,565.675,-9327.65,-1267.86,-101.702,120.274,-272.793,1628.95,8774.52,-2367.13,-5.30023,-50.3127,-55.4014,5735.17,6735.53,4762.81,-33.3672,-257.223,-122.129,7636.81,1183.11,2749.08,-48.8808,19.4485,-20.4227
3.9185,4269.3,319.573,8694.92,-17.1698,-84.1094,-13.2148,5727.49,1622.68,9802.0,94.6145,314.446,-182.38,65.1713,9114.47,-2805.21,-13.0336,-57.7398,-42.5217,531.057,-9355.97,-1269.1,-102.226,120.579,-273.71,1609.56,8765.97,-2357.51,-5.39634,-49.2541,-55.3713,5798.27,6666.2,4754.53,-34.2471,-258.94,-122.936,7646.62,1188.7,2744.88,-49.2352,19.5285,-20.5118
3.919,4272.56,301.531,8692.92,-17.2535,-84.2049,-13.5881,5774.78,1612.57,9872.59,95.5146,314.45,-183.074,62.1353,9133.86,-2834.45,-13.0564,-57.8629,-42.7024,496.439,-9384.28,-1270.33,-102.749,120.884,-274.626,1590.18,8757.42,-2347.89,-5.49246,-48.1954,-55.3411,5861.36,6596.88,4746.25,-35.127,-260.656,-123.742,7656.43,1194.29,2740.67,-49.5897,19.6085,-20.601
3.9195,4275.82,283.488,8690.92,-17.3372,-84.3004,-13.9615,5822.06,1602.45,9943.18,96.4147,314.453,-183.767,59.0992,9153.26,-2863.69,-13.0793,-57.986,-42.8831,461.822,-9412.6,-1271.57,-103.273,121.188,-275.543,1570.79,8748.88,-2338.28,-5.58858,-47.1367,-55.311,5924.46,6527.55,4737.97,-36.0069,-262.372,-124.549,7666.24,1199.88,2736.47,-49.9442,19.6884,-20.6901
3.92,4279.08,265.445,8688.92,-17.4209,-84.3959,-14.3348,5869.35,1592.34,10013.8,97.3148,314.457,-184.461,56.0632,9172.66,-2892.93,-13.1021,-58.1091,-43.0638,427.204,-9440.92,-1272.81,-103.797,121.493,-276.459,1551.41,8740.33,-2328.66,-5.68469,-46.0781,-55.2808,5987.56,6458.22,4729.69,-36.8868,-264.089,-125.355,7676.05,1205.48,2732.27,-50.2987,19.7684,-20.7793
3.9205,4285.76,252.218,8672.18,-17.6084,-84.4331,-14.7684,5905.64,1585.16,10045.9,98.0828,314.633,-185.095,49.9793,9191.32,-2899.51,-13.1315,-58.2268,-43.2145,403.418,-9459.87,-1276.84,-104.382,121.648,-277.31,1535.81,8741.75,-2318.17,-5.73336,-45.1828,-55.251,5960.4,6413.1,4696.88,-37.2608,-264.895,-125.897,7665.54,1214.5,2724.02,-50.5808,19.7783,-20.8849
3.921,4292.43,238.991,8655.45,-17.7959,-84.4703,-15.202,5941.93,1577.98,10078.0,98.8508,314.809,-185.729,43.8954,9209.99,-2906.1,-13.1609,-58.3444,-43.3652,379.631,-9478.83,-1280.88,-104.967,121.802,-278.161,1520.22,8743.17,-2307.68,-5.78204,-44.2876,-55.2212,5933.24,6367.98,4664.07,-37.6348,-265.701,-126.439,7655.04,1223.53,2715.77,-50.8629,19.7883,-20.9905
3.9215,4299.1,225.764,8638.72,-17.9834,-84.5075,-15.6356,5978.23,1570.8,10110.0,99.6188,314.986,-186.363,37.8115,9228.65,-2912.68,-13.1903,-58.462,-43.5159,355.844,-9497.78,-1284.91,-105.553,121.956,-279.012,1504.62,8744.6,-2297.2,-5.83071,-43.3924,-55.1913,5906.09,6322.85,4631.26,-38.0088,-266.507,-126.981,7644.54,1232.56,2707.52,-51.145,19.7982,-21.0961
3.922,4305.77,212.537,8621.99,-18.1709,-84.5447,-16.0692,6014.52,1563.62,10142.1,100.387,315.162,-186.997,31.7276,9247.32,-2919.27,-13.2197,-58.5796,-43.6667,332.057,-9516.74,-1288.95,-106.138,122.111,-279.862,1489.03,8746.02,-2286.71,-5.87938,-42.4971,-55.1615,5878.93,6277.73,4598.45,-38.3829,-267.314,-127.523,7634.04,1241.58,2699.27,-51.427,19.8081,-21.2017
3.9225,4312.44,199.311,8605.25,-18.3584,-84.5819,-16.5028,6050.81,1556.44,10174.2,101.155,315.339,-187.632,25.6438,9265.98,-2925.85,-13.2491,-58.6972,-43.8174,308.271,-9535.69,-1292.98,-106.724,122.265,-280.713,1473.43,8747.44,-2276.23,-5.92805,-41.6019,-55.1316,5851.78,6232.61,4565.63,-38.7569,-268.12,-128.065,7623.53,1250.61,2691.03,-51.7091,19.818,-21.3073
3.923,4319.11,186.084,8588.52,-18.5458,-84.6191,-16.9363,6087.11,1549.26,10206.3,101.923,315.515,-188.266,19.5599,9284.65,-2932.44,-13.2785,-58.8148,-43.9681,284.484,-9554.65,-1297.02,-107.309,122.419,-281.564,1457.84,8748.86,-2265.74,-5.97672,-40.7066,-55.1018,5824.62,6187.49,4532.82,-39.1309,-268.926,-128.607,7613.03,1259.63,2682.78,-51.9912,19.8279,-21.4129
3.9235,4325.78,172.857,8571.79,-18.7333,-84.6563,-17.3699,6123.4,1542.08,10238.4,102.691,315.691,-188.9,13.476,9303.31,-2939.02,-13.3079,-58.9324,-44.1188,260.697,-9573.6,-1301.05,-107.894,122.573,-282.415,1442.24,8750.28,-2255.25,-6.02539,-39.8114,-55.0719,5797.46,6142.37,4500.01,-39.5049,-269.732,-129.15,7602.53,1268.66,2674.53,-52.2733,19.8379,-21.5185
3.924,4332.45,159.63,8555.06,-18.9208,-84.6935,-17.8035,6159.7,1534.9,10270.5,103.459,315.868,-189.534,7.39211,9321.98,-2945.61,-13.3372,-59.0501,-44.2696,236.91,-9592.56,-1305.09,-108.48,122.728,-283.266,1426.65,8751.71,-2244.77,-6.07406,-38.9162,-55.0421,5770.31,6097.24,4467.2,-39.8789,-270.538,-129.692,7592.02,1277.68,2666.28,-52.5554,19.8478,-21.6241
3.9245,4337.82,146.072,8539.27,-19.102,-84.7218,-18.2309,6199.44,1528.25,10305.6,104.226,316.052,-190.162,0.389133,9338.8,-2951.33,-13.365,-59.1731,-44.404,214.225,-9612.56,-1307.89,-109.061,122.87,-284.1,1409.77,8752.47,-2235.17,-6.12706,-38.0341,-55.0066,5745.76,6050.48,4419.11,-40.1738,-271.127,-130.236,7582.55,1287.12,2656.64,-52.8581,19.863,-21.7185
3.925,4332.81,129.865,8531.07,-19.2332,-84.6794,-18.6087,6266.83,1525.8,10365.0,104.985,316.3,-190.738,-13.9666,9340.9,-2950.14,-13.3801,-59.3399,-44.4086,200.352,-9640.94,-1300.77,-109.612,122.918,-284.807,1382.63,8747.95,-2232.71,-6.21468,-37.2576,-54.9259,5742.06,5990.53,4248.82,-39.8361,-269.974,-130.803,7581.29,1299.85,2635.77,-53.325,19.921,-21.7231
3.9255,4327.79,113.657,8522.87,-19.3643,-84.6369,-18.9864,6334.22,1523.36,10424.4,105.744,316.549,-191.315,-28.3224,9343.0,-2948.96,-13.3951,-59.5066,-44.4132,186.48,-9669.32,-1293.66,-110.162,122.966,-285.513,1355.49,8743.43,-2230.26,-6.3023,-36.481,-54.8452,5738.36,5930.59,4078.53,-39.4984,-268.82,-131.37,7580.04,1312.58,2614.91,-53.7919,19.979,-21.7276
3.926,4322.77,97.4493,8514.67,-19.4954,-84.5945,-19.3642,6401.6,1520.92,10483.8,106.504,316.797,-191.891,-42.6781,9345.09,-2947.77,-13.4101,-59.6734,-44.4178,172.607,-9697.71,-1286.55,-110.713,123.014,-286.219,1328.34,8738.91,-2227.8,-6.38992,-35.7045,-54.7645,5734.66,5870.65,3908.23,-39.1607,-267.667,-131.936,7578.78,1325.31,2594.04,-54.2588,20.037,-21.7322
3.9265,4317.75,81.2417,8506.47,-19.6265,-84.552,-19.742,6468.99,1518.48,10543.2,107.263,317.045,-192.467,-57.0339,9347.19,-2946.59,-13.4251,-59.8401,-44.4224,158.735,-9726.09,-1279.44,-111.263,123.062,-286.926,1301.2,8734.39,-2225.34,-6.47754,-34.9279,-54.6838,5730.97,5810.71,3737.94,-38.823,-266.514,-132.503,7577.52,1338.04,2573.18,-54.7257,20.095,-21.7368
3.927,4312.73,65.0341,8498.27,-19.7576,-84.5096,-20.1197,6536.38,1516.03,10602.6,108.023,317.293,-193.043,-71.3897,9349.29,-2945.41,-13.4401,-60.0069,-44.4269,144.862,-9754.47,-1272.32,-111.813,123.111,-287.632,1274.06,8729.86,-2222.88,-6.56516,-34.1514,-54.6031,5727.27,5750.77,3567.64,-38.4853,-265.36,-133.07,7576.27,1350.77,2552.32,-55.1927,20.153,-21.7414
3.9275,4307.71,48.8264,8490.07,-19.8887,-84.4671,-20.4975,6603.76,1513.59,10662.0,108.782,317.541,-193.62,-85.7454,9351.38,-2944.22,-13.4551,-60.1736,-44.4315,130.989,-9782.85,-1265.21,-112.364,123.159,-288.339,1246.92,8725.34,-2220.43,-6.65278,-33.3748,-54.5224,5723.57,5690.83,3397.35,-38.1476,-264.207,-133.636,7575.01,1363.5,2531.45,-55.6596,20.211,-21.746
3.928,4302.69,32.6188,8481.87,-20.0198,-84.4247,-20.8753,6671.15,1511.15,10721.4,109.542,317.789,-194.196,-100.101,9353.48,-2943.04,-13.4702,-60.3404,-44.4361,117.117,-9811.23,-1258.1,-112.914,123.207,-289.045,1219.77,8720.82,-2217.97,-6.74039,-32.5983,-54.4417,5719.87,5630.88,3227.06,-37.8099,-263.054,-134.203,7573.76,1376.23,2510.59,-56.1265,20.269,-21.7506
3.9285,4297.67,16.4112,8473.67,-20.1509,-84.3822,-21.253,6738.53,1508.71,10780.8,110.301,318.038,-194.772,-114.457,9355.58,-2941.85,-13.4852,-60.5071,-44.4407,103.244,-9839.62,-1250.99,-113.465,123.255,-289.751,1192.63,8716.3,-2215.51,-6.82801,-31.8217,-54.361,5716.17,5570.94,3056.76,-37.4722,-261.901,-134.77,7572.5,1388.96,2489.73,-56.5934,20.327,-21.7552
3.929,4294.76,1.4356,8461.92,-20.2935,-84.3174,-21.6295,6797.62,1500.22,10846.1,111.054,318.258,-195.288,-129.861,9354.46,-2940.96,-13.5147,-60.691,-44.4662,87.4412,-9873.48,-1243.81,-114.0,123.295,-290.445,1166.25,8714.78,-2209.21,-6.88862,-31.1041,-54.2532,5715.12,5517.08,2872.49,-37.0176,-260.309,-135.275,7577.49,1399.94,2472.28,-57.0324,20.333,-21.7715
3.9295,4299.23,-9.2277,8437.78,-20.4762,-84.1743,-22.0016,6827.63,1470.6,10932.3,111.787,318.379,-195.59,-148.933,9342.07,-2941.08,-13.5951,-60.9347,-44.5647,64.8821,-9926.52,-1236.37,-114.484,123.31,-291.096,1142.53,8723.74,-2189.46,-6.85468,-30.5927,-54.0502,5723.32,5484.5,2639.28,-36.1538,-257.183,-135.568,7604.3,1404.76,2466.79,-57.3736,20.1572,-21.8292
3.93,4303.71,-19.891,8413.64,-20.6589,-84.0313,-22.3736,6857.64,1440.98,11018.5,112.519,318.5,-195.893,-168.005,9329.69,-2941.2,-13.6756,-61.1784,-44.6632,42.3231,-9979.56,-1228.94,-114.968,123.324,-291.747,1118.8,8732.69,-2169.71,-6.82074,-30.0813,-53.8473,5731.52,5451.92,2406.07,-35.2901,-254.057,-135.86,7631.11,1409.57,2461.3,-57.7148,19.9813,-21.8868
3.9305,4308.18,-30.5543,8389.5,-20.8416,-83.8882,-22.7456,6887.65,1411.36,11104.8,113.252,318.622,-196.195,-187.077,9317.3,-2941.32,-13.756,-61.4222,-44.7617,19.764,-10032.6,-1221.51,-115.452,123.339,-292.398,1095.08,8741.65,-2149.96,-6.7868,-29.5699,-53.6444,5739.73,5419.35,2172.86,-34.4263,-250.931,-136.153,7657.92,1414.39,2455.81,-58.056,19.8054,-21.9445
3.931,4312.65,-41.2176,8365.35,-21.0243,-83.7451,-23.1176,6917.67,1381.73,11191.0,113.984,318.743,-196.497,-206.149,9304.92,-2941.44,-13.8364,-61.6659,-44.8603,-2.79509,-10085.6,-1214.08,-115.936,123.353,-293.048,1071.36,8750.61,-2130.21,-6.75286,-29.0585,-53.4415,5747.93,5386.77,1939.66,-33.5625,-247.806,-136.445,7684.73,1419.21,2450.32,-58.3971,19.6295,-22.0021
3.9315,4317.12,-51.8809,8341.21,-21.207,-83.602,-23.4897,6947.68,1352.11,11277.2,114.717,318.864,-196.8,-225.221,9292.54,-2941.56,-13.9168,-61.9096,-44.9588,-25.3542,-10138.7,-1206.65,-116.419,123.368,-293.699,1047.64,8759.57,-2110.46,-6.71892,-28.5471,-53.2385,5756.13,5354.19,1706.45,-32.6987,-244.68,-136.738,7711.54,1424.03,2444.82,-58.7383,19.4536,-22.0598
3.932,4321.6,-62.5442,8317.07,-21.3898,-83.459,-23.8617,6977.69,1322.49,11363.4,115.449,318.986,-197.102,-244.293,9280.15,-2941.68,-13.9973,-62.1533,-45.0574,-47.9132,-10191.7,-1199.22,-116.903,123.382,-294.35,1023.92,8768.53,-2090.71,-6.68498,-28.0357,-53.0356,5764.33,5321.61,1473.24,-31.8349,-241.554,-137.03,7738.35,1428.85,2439.33,-59.0795,19.2777,-22.1174
3.9325,4326.07,-73.2075,8292.93,-21.5725,-83.3159,-24.2337,7007.7,1292.87,11449.6,116.182,319.107,-197.405,-263.365,9267.77,-2941.8,-14.0777,-62.397,-45.1559,-70.4723,-10244.8,-1191.79,-117.387,123.396,-295.0,1000.19,8777.49,-2070.96,-6.65104,-27.5243,-52.8327,5772.54,5289.03,1240.03,-30.9712,-238.428,-137.323,7765.16,1433.67,2433.84,-59.4207,19.1019,-22.1751
3.933,4330.54,-83.8708,8268.79,-21.7552,-83.1728,-24.6057,7037.72,1263.24,11535.8,116.914,319.229,-197.707,-282.437,9255.38,-2941.92,-14.1581,-62.6408,-45.2544,-93.0314,-10297.8,-1184.36,-117.871,123.411,-295.651,976.472,8786.44,-2051.21,-6.61711,-27.0129,-52.6298,5780.74,5256.45,1006.82,-30.1074,-235.302,-137.616,7791.97,1438.49,2428.35,-59.7619,18.926,-22.2327
3.9335,4337.33,-89.7514,8246.03,-21.9209,-83.0384,-24.9939,7069.51,1233.18,11612.0,117.636,319.327,-197.962,-296.174,9239.43,-2937.23,-14.2242,-62.8919,-45.3531,-113.371,-10356.2,-1173.1,-118.315,123.406,-296.316,949.132,8793.23,-2021.03,-6.62403,-26.6831,-52.3767,5810.26,5236.43,821.247,-29.1282,-231.874,-137.79,7814.94,1441.72,2424.47,-60.0415,18.7547,-22.3042
3.934,4348.76,-86.0665,8226.06,-22.0526,-82.9214,-25.4142,7104.86,1202.26,11668.3,118.337,319.38,-198.122,-299.241,9216.35,-2922.93,-14.2616,-63.158,-45.452,-129.271,-10425.4,-1154.19,-118.68,123.362,-297.008,914.554,8795.69,-1969.97,-6.71269,-26.7167,-52.0232,5882.42,5241.53,730.939,-27.9183,-227.842,-137.727,7830.23,1441.77,2423.83,-60.1979,18.5925,-22.4033
3.9345,4360.19,-82.3816,8206.08,-22.1844,-82.8045,-25.8345,7140.21,1171.33,11724.5,119.038,319.433,-198.281,-302.308,9193.26,-2908.62,-14.299,-63.4241,-45.551,-145.171,-10494.5,-1135.29,-119.044,123.318,-297.7,879.977,8798.15,-1918.91,-6.80135,-26.7502,-51.6698,5954.58,5246.63,640.631,-26.7084,-223.811,-137.664,7845.52,1441.82,2423.19,-60.3544,18.4304,-22.5023
3.935,4371.62,-78.6967,8186.1,-22.3161,-82.6875,-26.2548,7175.56,1140.4,11780.8,119.739,319.486,-198.441,-305.375,9170.18,-2894.31,-14.3364,-63.6901,-45.6499,-161.071,-10563.6,-1116.38,-119.409,123.275,-298.392,845.4,8800.6,-1867.86,-6.89001,-26.7837,-51.3164,6026.74,5251.73,550.323,-25.4985,-219.779,-137.601,7860.82,1441.87,2422.54,-60.5108,18.2683,-22.6014
3.9355,4383.05,-75.0118,8166.13,-22.4479,-82.5705,-26.6751,7210.91,1109.47,11837.0,120.44,319.539,-198.601,-308.442,9147.1,-2880.0,-14.3738,-63.9562,-45.7489,-176.971,-10632.8,-1097.47,-119.774,123.231,-299.084,810.823,8803.06,-1816.8,-6.97866,-26.8172,-50.9629,6098.9,5256.84,460.015,-24.2886,-215.747,-137.538,7876.11,1441.91,2421.9,-60.6672,18.1062,-22.7005
3.936,4394.47,-71.3269,8146.15,-22.5796,-82.4535,-27.0954,7246.27,1078.54,11893.3,121.141,319.592,-198.76,-311.509,9124.01,-2865.7,-14.4112,-64.2222,-45.8478,-192.871,-10701.9,-1078.56,-120.138,123.187,-299.777,776.246,8805.51,-1765.74,-7.06732,-26.8508,-50.6095,6171.05,5261.94,369.707,-23.0787,-211.715,-137.475,7891.4,1441.96,2421.26,-60.8236,17.944,-22.7996
3.9365,4405.9,-67.6421,8126.17,-22.7114,-82.3365,-27.5157,7281.62,1047.61,11949.5,121.842,319.645,-198.92,-314.576,9100.93,-2851.39,-14.4486,-64.4883,-45.9468,-208.771,-10771.0,-1059.65,-120.503,123.143,-300.469,741.669,8807.97,-1714.68,-7.15598,-26.8843,-50.2561,6243.21,5267.04,279.399,-21.8687,-207.683,-137.413,7906.7,1442.01,2420.61,-60.9801,17.7819,-22.8986
3.937,4417.33,-63.9572,8106.2,-22.8431,-82.2195,-27.936,7316.97,1016.68,12005.8,122.542,319.698,-199.08,-317.643,9077.84,-2837.08,-14.486,-64.7544,-46.0457,-224.671,-10840.2,-1040.74,-120.868,123.1,-301.161,707.092,8810.42,-1663.62,-7.24464,-26.9178,-49.9026,6315.37,5272.14,189.091,-20.6588,-203.651,-137.35,7921.99,1442.06,2419.97,-61.1365,17.6198,-22.9977
3.9375,4428.76,-60.2723,8086.22,-22.9749,-82.1025,-28.3563,7352.32,985.753,12062.0,123.243,319.751,-199.239,-320.71,9054.76,-2822.77,-14.5234,-65.0204,-46.1446,-240.572,-10909.3,-1021.84,-121.232,123.056,-301.853,672.514,8812.88,-1612.57,-7.33329,-26.9513,-49.5492,6387.53,5277.24,98.7835,-19.4489,-199.62,-137.287,7937.28,1442.11,2419.33,-61.2929,17.4576,-23.0968
3.938,4435.57,-51.2371,8072.4,-23.0972,-81.9884,-28.7603,7389.92,943.522,12114.2,124.028,319.818,-199.316,-330.101,9037.21,-2810.57,-14.5689,-65.2609,-46.233,-251.31,-10984.0,-998.796,-121.545,122.886,-302.523,648.539,8808.18,-1568.03,-7.386,-27.1834,-49.1921,6433.21,5296.89,79.462,-18.4017,-195.847,-137.008,7932.59,1444.9,2411.3,-61.5275,17.4205,-23.2058
3.9385,4436.6,-35.514,8066.3,-23.2078,-81.8779,-29.144,7430.35,887.163,12161.5,124.916,319.901,-199.29,-347.396,9026.59,-2800.99,-14.6246,-65.4692,-46.308,-255.595,-11065.5,-970.592,-121.791,122.557,-303.165,637.815,8794.53,-1531.64,-7.39377,-27.6637,-48.8304,6445.81,5334.75,148.874,-17.5577,-192.398,-136.458,7902.91,1451.14,2394.04,-61.8596,17.5396,-23.3272
3.939,4437.64,-19.7909,8060.19,-23.3184,-81.7674,-29.5277,7470.77,830.804,12208.7,125.805,319.984,-199.263,-364.69,9015.97,-2791.42,-14.6803,-65.6776,-46.383,-259.88,-11147.1,-942.387,-122.038,122.229,-303.808,627.091,8780.88,-1495.24,-7.40154,-28.144,-48.4688,6458.4,5372.6,218.285,-16.7138,-188.95,-135.908,7873.24,1457.37,2376.78,-62.1918,17.6586,-23.4485
3.9395,4438.67,-4.06781,8054.08,-23.429,-81.6569,-29.9114,7511.19,774.445,12255.9,126.693,320.067,-199.236,-381.985,9005.35,-2781.84,-14.736,-65.886,-46.4581,-264.165,-11228.6,-914.182,-122.285,121.9,-304.45,616.368,8767.23,-1458.85,-7.40931,-28.6243,-48.1071,6470.99,5410.46,287.697,-15.8698,-185.501,-135.358,7843.57,1463.6,2359.52,-62.524,17.7777,-23.5699
3.94,4439.71,11.6553,8047.97,-23.5396,-81.5464,-30.2952,7551.61,718.086,12303.1,127.582,320.15,-199.21,-399.28,8994.73,-2772.26,-14.7917,-66.0944,-46.5331,-268.451,-11310.2,-885.978,-122.531,121.572,-305.092,605.644,8753.58,-1422.46,-7.41708,-29.1046,-47.7454,6483.58,5448.31,357.108,-15.0259,-182.052,-134.808,7813.89,1469.83,2342.26,-62.8562,17.8968,-23.6913
3.9405,4440.74,27.3784,8041.86,-23.6501,-81.4359,-30.6789,7592.04,661.728,12350.3,128.47,320.233,-199.183,-416.575,8984.11,-2762.69,-14.8474,-66.3028,-46.6081,-272.736,-11391.7,-857.773,-122.778,121.243,-305.734,594.92,8739.93,-1386.07,-7.42485,-29.5849,-47.3837,6496.17,5486.17,426.52,-14.1819,-178.604,-134.258,7784.22,1476.07,2325.0,-63.1884,18.0159,-23.8127
3.941,4441.77,43.1015,8035.75,-23.7607,-81.3254,-31.0626,7632.46,605.369,12397.5,129.359,320.316,-199.157,-433.869,8973.49,-2753.11,-14.9031,-66.5112,-46.6832,-277.021,-11473.3,-829.568,-123.024,120.915,-306.377,584.197,8726.28,-1349.68,-7.43262,-30.0651,-47.0221,6508.76,5524.02,495.931,-13.338,-175.155,-133.709,7754.54,1482.3,2307.73,-63.5206,18.1349,-23.9341
3.9415,4442.81,58.8246,8029.64,-23.8713,-81.2149,-31.4463,7672.88,549.01,12444.7,130.247,320.4,-199.13,-451.164,8962.87,-2743.54,-14.9588,-66.7196,-46.7582,-281.307,-11554.8,-801.364,-123.271,120.586,-307.019,573.473,8712.63,-1313.29,-7.44039,-30.5454,-46.6604,6521.35,5561.88,565.343,-12.494,-171.707,-133.159,7724.87,1488.53,2290.47,-63.8528,18.254,-24.0555
3.942,4443.84,74.5477,8023.53,-23.9819,-81.1044,-31.83,7713.3,492.651,12491.9,131.136,320.483,-199.103,-468.459,8952.25,-2733.96,-15.0145,-66.928,-46.8333,-285.592,-11636.4,-773.159,-123.518,120.258,-307.661,562.749,8698.98,-1276.9,-7.44816,-31.0257,-46.2987,6533.95,5599.73,634.754,-11.6501,-168.258,-132.609,7695.19,1494.76,2273.21,-64.185,18.3731,-24.1768
3.9425,4451.02,85.3061,8004.1,-24.0366,-80.8783,-32.1659,7757.96,423.991,12537.4,132.012,320.557,-199.038,-477.224,8935.82,-2710.03,-15.0914,-67.1102,-46.9036,-296.469,-11719.6,-752.973,-123.643,119.771,-308.282,548.727,8682.29,-1247.61,-7.45796,-31.7222,-45.9312,6567.09,5613.29,664.112,-10.9373,-164.8,-132.086,7697.44,1504.31,2270.32,-64.4793,18.2988,-24.2872
3.943,4463.11,92.0929,7974.0,-24.0465,-80.5598,-32.4635,7806.0,345.491,12581.7,132.877,320.625,-198.942,-479.165,8914.75,-2674.62,-15.1852,-67.2714,-46.9701,-312.619,-11804.1,-739.202,-123.671,119.158,-308.887,532.067,8663.18,-1224.01,-7.46938,-32.5916,-45.559,6616.67,5607.41,661.428,-10.3296,-161.334,-131.585,7725.23,1516.51,2278.92,-64.7433,18.0698,-24.3888
3.9435,4475.21,98.8797,7943.9,-24.0565,-80.2413,-32.7612,7854.05,266.991,12625.9,133.743,320.692,-198.845,-481.107,8893.68,-2639.21,-15.2791,-67.4327,-47.0366,-328.768,-11888.7,-725.43,-123.699,118.544,-309.491,515.407,8644.06,-1200.41,-7.48081,-33.461,-45.1868,6666.25,5601.53,658.743,-9.72183,-157.868,-131.084,7753.02,1528.72,2287.52,-65.0072,17.8408,-24.4904
3.944,4487.3,105.666,7913.8,-24.0665,-79.9228,-33.0588,7902.09,188.491,12670.1,134.609,320.76,-198.749,-483.048,8872.61,-2603.79,-15.3729,-67.594,-47.1031,-344.918,-11973.2,-711.659,-123.727,117.931,-310.096,498.747,8624.95,-1176.81,-7.49223,-34.3303,-44.8146,6715.83,5595.65,656.058,-9.11408,-154.401,-130.583,7780.81,1540.92,2296.11,-65.2712,17.6119,-24.592
3.9445,4499.39,112.453,7883.7,-24.0765,-79.6043,-33.3564,7950.13,109.991,12714.3,135.475,320.828,-198.653,-484.989,8851.54,-2568.38,-15.4668,-67.7552,-47.1696,-361.068,-12057.8,-697.888,-123.755,117.317,-310.7,482.087,8605.84,-1153.21,-7.50366,-35.1997,-44.4424,6765.41,5589.77,653.373,-8.50633,-150.935,-130.082,7808.6,1553.12,2304.71,-65.5352,17.3829,-24.6936
3.945,4511.49,119.24,7853.6,-24.0864,-79.2858,-33.654,7998.17,31.4914,12758.6,136.341,320.895,-198.556,-486.931,8830.47,-2532.97,-15.5606,-67.9165,-47.2361,-377.218,-12142.3,-684.117,-123.783,116.704,-311.305,465.426,8586.73,-1129.6,-7.51508,-36.0691,-44.0702,6814.99,5583.89,650.689,-7.89858,-147.469,-129.581,7836.39,1565.32,2313.31,-65.7991,17.1539,-24.7952
3.9455,4523.58,126.027,7823.5,-24.0964,-78.9673,-33.9517,8046.22,-47.0086,12802.8,137.207,320.963,-198.46,-488.872,8809.4,-2497.56,-15.6545,-68.0778,-47.3026,-393.367,-12226.8,-670.345,-123.811,116.09,-311.909,448.766,8567.61,-1106.0,-7.52651,-36.9385,-43.698,6864.57,5578.01,648.004,-7.29083,-144.003,-129.079,7864.18,1577.53,2321.91,-66.0631,16.925,-24.8968
3.946,4535.67,132.814,7793.41,-24.1064,-78.6488,-34.2493,8094.26,-125.509,12847.0,138.073,321.031,-198.364,-490.814,8788.33,-2462.14,-15.7483,-68.239,-47.3691,-409.517,-12311.4,-656.574,-123.839,115.477,-312.514,432.106,8548.5,-1082.4,-7.53793,-37.8079,-43.3258,6914.15,5572.13,645.319,-6.68308,-140.537,-128.578,7891.97,1589.73,2330.51,-66.3271,16.696,-24.9984
3.9465,4547.77,139.6,7763.31,-24.1163,-78.3303,-34.5469,8142.3,-204.009,12891.2,138.939,321.098,-198.267,-492.755,8767.26,-2426.73,-15.8422,-68.4003,-47.4356,-425.667,-12395.9,-642.803,-123.868,114.863,-313.118,415.446,8529.39,-1058.8,-7.54936,-38.6773,-42.9536,6963.73,5566.25,642.635,-6.07533,-137.071,-128.077,7919.76,1601.93,2339.11,-66.591,16.467,-25.1
3.947,4559.64,154.103,7743.89,-24.1147,-78.0465,-34.8442,8188.6,-262.945,12925.3,139.826,321.1,-198.01,-492.608,8748.67,-2392.3,-15.9426,-68.5069,-47.5075,-457.372,-12486.4,-632.626,-123.796,113.996,-313.689,392.774,8501.9,-1032.21,-7.42246,-39.6463,-42.6214,6981.6,5584.78,666.56,-5.48649,-133.541,-127.504,7924.05,1593.69,2334.1,-66.6755,16.2265,-25.2223
3.9475,4571.4,172.463,7729.8,-24.1073,-77.7801,-35.1413,8234.02,-312.101,12954.2,140.723,321.07,-197.672,-491.417,8731.32,-2358.37,-16.0462,-68.5862,-47.582,-496.856,-12579.8,-624.247,-123.676,113.003,-314.243,367.096,8470.24,-1004.12,-7.22641,-40.665,-42.3094,6983.6,5615.53,703.791,-4.90711,-129.979,-126.893,7916.59,1575.23,2322.3,-66.6703,15.9802,-25.355
3.948,4583.16,190.823,7715.72,-24.0999,-77.5136,-35.4384,8279.44,-361.256,12983.2,141.621,321.039,-197.334,-490.226,8713.97,-2324.43,-16.1498,-68.6655,-47.6566,-536.339,-12673.3,-615.868,-123.555,112.009,-314.797,341.419,8438.57,-976.035,-7.03036,-41.6837,-41.9973,6985.6,5646.28,741.021,-4.32773,-126.417,-126.283,7909.14,1556.77,2310.49,-66.665,15.7339,-25.4876
3.9485,4594.92,209.184,7701.63,-24.0924,-77.2472,-35.7355,8324.86,-410.411,13012.1,142.518,321.009,-196.997,-489.035,8696.62,-2290.49,-16.2534,-68.7448,-47.7311,-575.822,-12766.7,-607.489,-123.434,111.016,-315.351,315.741,8406.9,-947.95,-6.83431,-42.7024,-41.6852,6987.6,5677.02,778.252,-3.74835,-122.854,-125.673,7901.68,1538.31,2298.68,-66.6598,15.4876,-25.6202
3.949,4606.68,227.544,7687.55,-24.085,-76.9808,-36.0326,8370.28,-459.566,13041.1,143.416,320.978,-196.659,-487.845,8679.27,-2256.55,-16.357,-68.8241,-47.8057,-615.306,-12860.1,-599.109,-123.313,110.022,-315.905,290.064,8375.23,-919.864,-6.63826,-43.7211,-41.3731,6989.61,5707.77,815.482,-3.16897,-119.292,-125.063,7894.22,1519.85,2286.88,-66.6545,15.2413,-25.7528
3.9495,4618.43,245.904,7673.47,-24.0776,-76.7143,-36.3298,8415.71,-508.722,13070.0,144.313,320.947,-196.321,-486.654,8661.91,-2222.62,-16.4607,-68.9034,-47.8802,-654.789,-12953.5,-590.73,-123.192,109.029,-316.459,264.386,8343.57,-891.778,-6.44221,-44.7398,-41.061,6991.61,5738.52,852.713,-2.58959,-115.73,-124.453,7886.76,1501.39,2275.07,-66.6492,14.995,-25.8855
3.95,4630.19,264.265,7659.38,-24.0701,-76.4479,-36.6269,8461.13,-557.877,13099.0,145.21,320.917,-195.983,-485.463,8644.56,-2188.68,-16.5643,-68.9827,-47.9547,-694.272,-13047.0,-582.351,-123.071,108.035,-317.013,238.708,8311.9,-863.693,-6.24616,-45.7586,-40.749,6993.61,5769.27,889.944,-2.01021,-112.168,-123.843,7879.31,1482.93,2263.26,-66.644,14.7487,-26.0181
3.9505,4641.95,282.625,7645.3,-24.0627,-76.1814,-36.924,8506.55,-607.032,13127.9,146.108,320.886,-195.645,-484.272,8627.21,-2154.74,-16.6679,-69.062,-48.0293,-733.756,-13140.4,-573.972,-122.951,107.042,-317.567,213.031,8280.23,-835.607,-6.05011,-46.7773,-40.4369,6995.61,5800.01,927.174,-1.43083,-108.606,-123.233,7871.85,1464.47,2251.46,-66.6387,14.5024,-26.1507
3.951,4653.71,300.985,7631.22,-24.0553,-75.915,-37.2211,8551.97,-656.187,13156.9,147.005,320.856,-195.308,-483.081,8609.86,-2120.81,-16.7715,-69.1412,-48.1038,-773.239,-13233.8,-565.593,-122.83,106.048,-318.121,187.353,8248.57,-807.521,-5.85406,-47.796,-40.1248,6997.62,5830.76,964.405,-0.851444,-105.044,-122.623,7864.39,1446.01,2239.65,-66.6334,14.2561,-26.2833
3.9515,4675.45,314.097,7623.72,-24.1575,-75.6803,-37.4031,8596.02,-671.823,13182.8,147.856,320.772,-194.79,-491.013,8591.41,-2101.17,-16.8025,-69.1952,-48.2363,-828.145,-13325.3,-562.362,-122.587,104.852,-318.652,176.157,8229.07,-781.93,-5.65274,-48.9119,-39.9106,7018.52,5842.95,1026.19,-0.63876,-101.619,-122.097,7872.0,1446.65,2242.22,-66.5433,13.8921,-26.4254
3.952,4700.04,325.709,7618.1,-24.2911,-75.4547,-37.5522,8639.67,-677.881,13207.9,148.694,320.672,-194.221,-501.551,8572.64,-2085.61,-16.8128,-69.2419,-48.3852,-887.456,-13416.2,-560.603,-122.31,103.599,-319.177,169.098,8213.04,-757.05,-5.44991,-50.0555,-39.7244,7044.81,5849.83,1094.99,-0.530847,-98.2348,-121.596,7883.92,1452.74,2248.89,-66.4289,13.4945,-26.5702
3.9525,4724.63,337.322,7612.48,-24.4247,-75.2291,-37.7013,8683.32,-683.94,13233.0,149.532,320.573,-193.652,-512.09,8553.88,-2070.06,-16.8231,-69.2886,-48.5342,-946.768,-13507.1,-558.844,-122.033,102.345,-319.701,162.038,8197.02,-732.171,-5.24708,-51.1991,-39.5382,7071.11,5856.72,1163.79,-0.422934,-94.85,-121.094,7895.83,1458.83,2255.57,-66.3144,13.0969,-26.715
3.953,4749.23,348.934,7606.86,-24.5583,-75.0034,-37.8504,8726.97,-689.998,13258.1,150.37,320.474,-193.083,-522.628,8535.11,-2054.5,-16.8334,-69.3352,-48.6832,-1006.08,-13598.0,-557.085,-121.756,101.092,-320.226,154.979,8181.0,-707.292,-5.04426,-52.3427,-39.352,7097.41,5863.6,1232.6,-0.315021,-91.4653,-120.592,7907.75,1464.93,2262.24,-66.2,12.6993,-26.8598
3.9535,4773.82,360.546,7601.24,-24.6918,-74.7778,-37.9995,8770.62,-696.057,13283.2,151.208,320.375,-192.514,-533.166,8516.35,-2038.95,-16.8436,-69.3819,-48.8322,-1065.39,-13688.9,-555.326,-121.479,99.8379,-320.75,147.92,8164.98,-682.413,-4.84143,-53.4863,-39.1658,7123.71,5870.49,1301.4,-0.207108,-88.0806,-120.09,7919.67,1471.02,2268.92,-66.0856,12.3018,-27.0046
3.954,4798.41,372.159,7595.63,-24.8254,-74.5522,-38.1486,8814.27,-702.115,13308.2,152.046,320.275,-191.945,-543.705,8497.58,-2023.4,-16.8539,-69.4286,-48.9811,-1124.7,-13779.8,-553.567,-121.201,98.5844,-321.275,140.861,8148.95,-657.533,-4.6386,-54.6299,-38.9796,7150.01,5877.37,1370.2,-0.0991955,-84.6959,-119.588,7931.58,1477.12,2275.59,-65.9712,11.9042,-27.1494
3.9545,4823.0,383.771,7590.01,-24.959,-74.3266,-38.2977,8857.93,-708.174,13333.3,152.884,320.176,-191.376,-554.243,8478.82,-2007.84,-16.8642,-69.4753,-49.1301,-1184.02,-13870.7,-551.807,-120.924,97.3308,-321.799,133.802,8132.93,-632.654,-4.43578,-55.7735,-38.7934,7176.31,5884.25,1439.0,0.0087174,-81.3111,-119.087,7943.5,1483.21,2282.26,-65.8567,11.5066,-27.2942
3.955,4847.59,395.383,7584.39,-25.0926,-74.1009,-38.4468,8901.58,-714.233,13358.4,153.722,320.077,-190.807,-564.782,8460.05,-1992.29,-16.8745,-69.522,-49.2791,-1243.33,-13961.7,-550.048,-120.647,96.0772,-322.324,126.743,8116.91,-607.775,-4.23295,-56.9172,-38.6072,7202.61,5891.14,1507.8,0.11663,-77.9264,-118.585,7955.41,1489.31,2288.94,-65.7423,11.109,-27.439
3.9555,4872.18,406.995,7578.77,-25.2262,-73.8753,-38.5959,8945.23,-720.291,13383.5,154.56,319.978,-190.238,-575.32,8441.29,-1976.73,-16.8847,-69.5687,-49.4281,-1302.64,-14052.6,-548.289,-120.37,94.8236,-322.848,119.684,8100.88,-582.896,-4.03012,-58.0608,-38.421,7228.9,5898.02,1576.61,0.224543,-74.5417,-118.083,7967.33,1495.4,2295.61,-65.6279,10.7114,-27.5838
3.956,4879.43,429.315,7585.57,-25.2676,-73.5594,-38.7859,9003.92,-737.589,13409.8,155.321,319.815,-189.714,-582.668,8430.86,-1959.11,-16.9153,-69.5999,-49.6083,-1361.62,-14132.6,-532.838,-120.127,93.3692,-323.23,97.0065,8090.06,-562.35,-3.89063,-59.3943,-38.2856,7215.18,5919.01,1716.22,-0.119721,-71.9787,-117.505,7961.19,1469.4,2277.23,-65.5472,10.5495,-27.7564
3.9565,4884.52,452.972,7593.91,-25.2976,-73.2323,-38.9809,9064.49,-756.292,13436.2,156.072,319.645,-189.195,-589.617,8421.47,-1941.23,-16.9484,-69.6293,-49.7925,-1420.56,-14211.4,-515.675,-119.89,91.8897,-323.594,72.3772,8079.88,-542.347,-3.75906,-60.7516,-38.1566,7196.44,5941.77,1864.68,-0.520508,-69.5184,-116.917,7952.8,1439.39,2255.71,-65.4708,10.4171,-27.9325
3.957,4889.61,476.629,7602.26,-25.3276,-72.9051,-39.176,9125.06,-774.996,13462.6,156.823,319.475,-188.677,-596.565,8412.09,-1923.35,-16.9815,-69.6586,-49.9767,-1479.49,-14290.1,-498.512,-119.652,90.4101,-323.957,47.7478,8069.71,-522.343,-3.62748,-62.1089,-38.0276,7177.71,5964.52,2013.14,-0.921294,-67.0581,-116.329,7944.4,1409.38,2234.19,-65.3943,10.2846,-28.1085
3.9575,4894.69,500.287,7610.6,-25.3575,-72.5779,-39.371,9185.62,-793.699,13489.0,157.574,319.304,-188.159,-603.514,8402.7,-1905.47,-17.0146,-69.6879,-50.1609,-1538.43,-14368.8,-481.35,-119.414,88.9306,-324.321,23.1185,8059.53,-502.339,-3.49591,-63.4662,-37.8985,7158.98,5987.27,2161.6,-1.32208,-64.5978,-115.741,7936.01,1379.36,2212.67,-65.3179,10.1522,-28.2846
3.958,4899.78,523.944,7618.95,-25.3875,-72.2508,-39.5661,9246.19,-812.402,13515.4,158.326,319.134,-187.641,-610.463,8393.31,-1887.59,-17.0477,-69.7172,-50.3451,-1597.37,-14447.6,-464.187,-119.176,87.451,-324.685,-1.51086,8049.36,-482.336,-3.36433,-64.8235,-37.7695,7140.25,6010.03,2310.06,-1.72287,-62.1375,-115.153,7927.62,1349.35,2191.15,-65.2415,10.0197,-28.4607
3.9585,4904.86,547.602,7627.29,-25.4174,-71.9236,-39.7611,9306.76,-831.105,13541.8,159.077,318.964,-187.123,-617.412,8383.93,-1869.71,-17.0807,-69.7465,-50.5293,-1656.31,-14526.3,-447.024,-118.938,85.9715,-325.048,-26.1402,8039.18,-462.332,-3.23276,-66.1809,-37.6404,7121.51,6032.78,2458.52,-2.12365,-59.6772,-114.565,7919.22,1319.34,2169.63,-65.165,9.88727,-28.6367
3.959,4909.95,571.259,7635.64,-25.4474,-71.5965,-39.9562,9367.33,-849.808,13568.2,159.828,318.793,-186.604,-624.361,8374.54,-1851.83,-17.1138,-69.7759,-50.7134,-1715.25,-14605.0,-429.861,-118.7,84.492,-325.412,-50.7696,8029.0,-442.328,-3.10118,-67.5382,-37.5114,7102.78,6055.54,2606.98,-2.52444,-57.2169,-113.977,7910.83,1289.33,2148.11,-65.0886,9.75482,-28.8128
3.9595,4915.04,594.917,7643.98,-25.4774,-71.2693,-40.1512,9427.9,-868.511,13594.6,160.579,318.623,-186.086,-631.309,8365.15,-1833.95,-17.1469,-69.8052,-50.8976,-1774.18,-14683.7,-412.699,-118.462,83.0124,-325.776,-75.3989,8018.83,-422.324,-2.96961,-68.8955,-37.3824,7084.05,6078.29,2755.44,-2.92523,-54.7567,-113.389,7902.44,1259.32,2126.59,-65.0121,9.62238,-28.9889
3.96,4920.12,618.574,7652.33,-25.5073,-70.9421,-40.3463,9488.47,-887.215,13621.0,161.33,318.452,-185.568,-638.258,8355.76,-1816.07,-17.18,-69.8345,-51.0818,-1833.12,-14762.5,-395.536,-118.224,81.5329,-326.14,-100.028,8008.65,-402.321,-2.83803,-70.2528,-37.2533,7065.32,6101.04,2903.9,-3.32601,-52.2964,-112.801,7894.04,1229.3,2105.07,-64.9357,9.48993,-29.1649
3.9605,4924.83,632.791,7638.72,-25.4726,-70.746,-40.4575,9572.84,-847.388,13623.1,161.798,318.313,-184.803,-640.145,8359.07,-1790.53,-17.222,-69.7412,-51.2581,-1889.02,-14839.0,-350.976,-117.912,79.9043,-326.357,-96.266,8009.33,-380.772,-2.62458,-71.5288,-37.2112,7041.39,6117.58,2991.55,-4.69975,-50.4442,-111.889,7862.31,1216.95,2077.96,-64.897,9.42425,-29.3699
3.961,4929.54,647.008,7625.11,-25.4378,-70.5499,-40.5688,9657.22,-807.561,13625.2,162.265,318.173,-184.038,-642.032,8362.38,-1764.99,-17.264,-69.6479,-51.4343,-1944.93,-14915.5,-306.415,-117.6,78.2757,-326.575,-92.5037,8010.01,-359.224,-2.41112,-72.8048,-37.1691,7017.47,6134.12,3079.21,-6.07348,-48.5921,-110.977,7830.59,1204.61,2050.86,-64.8582,9.35857,-29.5749
3.9615,4934.24,661.225,7611.5,-25.403,-70.3538,-40.68,9741.6,-767.734,13627.3,162.732,318.033,-183.273,-643.919,8365.69,-1739.45,-17.306,-69.5545,-51.6106,-2000.83,-14991.9,-261.855,-117.287,76.647,-326.793,-88.7414,8010.69,-337.676,-2.19766,-74.0809,-37.127,6993.55,6150.66,3166.86,-7.44721,-46.7399,-110.065,7798.86,1192.26,2023.75,-64.8195,9.29289,-29.7799
3.962,4938.95,675.442,7597.89,-25.3683,-70.1577,-40.7913,9825.98,-727.907,13629.4,163.2,317.893,-182.507,-645.806,8369.0,-1713.9,-17.348,-69.4612,-51.7868,-2056.73,-15068.4,-217.295,-116.975,75.0184,-327.01,-84.9792,8011.37,-316.127,-1.9842,-75.3569,-37.0849,6969.62,6167.2,3254.51,-8.82095,-44.8878,-109.153,7767.13,1179.91,1996.64,-64.7808,9.22721,-29.985
3.9625,4943.65,689.658,7584.27,-25.3335,-69.9616,-40.9025,9910.35,-688.08,13631.5,163.667,317.753,-181.742,-647.692,8372.31,-1688.36,-17.39,-69.3679,-51.9631,-2112.64,-15144.9,-172.735,-116.663,73.3898,-327.228,-81.2169,8012.06,-294.579,-1.77074,-76.6329,-37.0428,6945.7,6183.74,3342.17,-10.1947,-43.0357,-108.241,7735.4,1167.56,1969.54,-64.7421,9.16153,-30.19
3.963,4948.36,703.875,7570.66,-25.2987,-69.7655,-41.0137,9994.73,-648.253,13633.6,164.134,317.613,-180.977,-649.579,8375.62,-1662.82,-17.432,-69.2745,-52.1393,-2168.54,-15221.4,-128.174,-116.351,71.7612,-327.446,-77.4546,8012.74,-273.031,-1.55728,-77.909,-37.0007,6921.78,6200.28,3429.82,-11.5684,-41.1835,-107.329,7703.67,1155.21,1942.43,-64.7034,9.09584,-30.395
3.9635,4953.06,718.092,7557.05,-25.264,-69.5694,-41.125,10079.1,-608.426,13635.7,164.602,317.473,-180.212,-651.466,8378.93,-1637.28,-17.474,-69.1812,-52.3156,-2224.44,-15297.9,-83.614,-116.039,70.1326,-327.663,-73.6924,8013.42,-251.482,-1.34383,-79.185,-36.9586,6897.85,6216.81,3517.47,-12.9421,-39.3314,-106.418,7671.94,1142.86,1915.32,-64.6646,9.03016,-30.6
3.964,4957.77,732.309,7543.44,-25.2292,-69.3732,-41.2362,10163.5,-568.599,13637.8,165.069,317.333,-179.447,-653.353,8382.24,-1611.74,-17.516,-69.0879,-52.4918,-2280.34,-15374.4,-39.0537,-115.727,68.504,-327.881,-69.9301,8014.1,-229.934,-1.13037,-80.461,-36.9165,6873.93,6233.35,3605.13,-14.3159,-37.4792,-105.506,7640.21,1130.51,1888.21,-64.6259,8.96448,-30.805
3.9645,4963.88,747.433,7530.25,-25.1903,-69.1726,-41.3493,10247.5,-528.206,13639.3,165.508,317.188,-178.667,-655.189,8386.72,-1587.6,-17.5505,-68.9855,-52.6624,-2334.31,-15448.9,5.14651,-115.415,66.8609,-328.097,-67.6485,8016.56,-211.437,-0.937362,-81.7154,-36.8753,6851.51,6245.11,3688.12,-15.7147,-35.6864,-104.625,7611.34,1117.69,1863.1,-64.6008,8.88328,-31.0014
3.965,4981.2,769.82,7520.47,-25.1184,-68.9354,-41.4769,10328.5,-483.286,13636.2,165.719,316.997,-177.775,-656.623,8400.62,-1574.71,-17.5253,-68.8103,-52.7875,-2372.78,-15507.4,46.4661,-115.108,65.1019,-328.296,-77.212,8033.27,-217.349,-0.907974,-82.7965,-36.8407,6841.06,6218.64,3733.8,-17.3139,-34.3677,-103.995,7605.31,1101.12,1853.91,-64.6841,8.67791,-31.1288
3.9655,4998.52,792.206,7510.68,-25.0465,-68.6981,-41.6046,10409.6,-438.366,13633.1,165.93,316.807,-176.882,-658.057,8414.52,-1561.81,-17.5002,-68.6351,-52.9126,-2411.25,-15565.9,87.7857,-114.802,63.3429,-328.496,-86.7756,8049.97,-223.262,-0.878587,-83.8776,-36.806,6830.62,6192.16,3779.49,-18.9131,-33.049,-103.365,7599.27,1084.55,1844.71,-64.7675,8.47254,-31.2563
3.966,5015.84,814.592,7500.89,-24.9745,-68.4609,-41.7323,10490.6,-393.446,13630.0,166.141,316.616,-175.99,-659.491,8428.42,-1548.92,-17.475,-68.4599,-53.0377,-2449.72,-15624.4,129.105,-114.495,61.5839,-328.695,-96.3392,8066.68,-229.174,-0.849199,-84.9587,-36.7714,6820.18,6165.69,3825.18,-20.5123,-31.7303,-102.736,7593.24,1067.98,1835.52,-64.8508,8.26716,-31.3837
3.9665,5033.16,836.979,7491.11,-24.9026,-68.2237,-41.86,10571.6,-348.526,13626.9,166.353,316.426,-175.097,-660.924,8442.31,-1536.02,-17.4499,-68.2847,-53.1628,-2488.2,-15682.9,170.425,-114.189,59.8249,-328.895,-105.903,8083.39,-235.086,-0.819812,-86.0397,-36.7368,6809.74,6139.21,3870.86,-22.1115,-30.4116,-102.106,7587.2,1051.4,1826.33,-64.9342,8.06179,-31.5112
3.967,5050.48,859.365,7481.32,-24.8307,-67.9865,-41.9876,10652.7,-303.606,13623.8,166.564,316.235,-174.204,-662.358,8456.21,-1523.12,-17.4247,-68.1095,-53.2879,-2526.67,-15741.4,211.745,-113.882,58.066,-329.094,-115.466,8100.09,-240.999,-0.790424,-87.1208,-36.7022,6799.3,6112.74,3916.55,-23.7107,-29.0929,-101.476,7581.17,1034.83,1817.13,-65.0175,7.85642,-31.6386
3.9675,5067.8,881.752,7471.53,-24.7588,-67.7493,-42.1153,10733.7,-258.687,13620.7,166.775,316.045,-173.312,-663.792,8470.11,-1510.23,-17.3996,-67.9343,-53.413,-2565.14,-15799.9,253.064,-113.576,56.307,-329.294,-125.03,8116.8,-246.911,-0.761036,-88.2019,-36.6676,6788.86,6086.26,3962.24,-25.3099,-27.7743,-100.846,7575.13,1018.26,1807.94,-65.1009,7.65105,-31.7661
3.968,5085.12,904.138,7461.75,-24.6869,-67.5121,-42.243,10814.7,-213.767,13617.6,166.986,315.855,-172.419,-665.226,8484.01,-1497.33,-17.3744,-67.7592,-53.538,-2603.61,-15858.4,294.384,-113.269,54.548,-329.493,-134.593,8133.51,-252.823,-0.731649,-89.283,-36.633,6778.42,6059.78,4007.93,-26.9091,-26.4556,-100.216,7569.1,1001.69,1798.75,-65.1842,7.44568,-31.8935
3.9685,5102.44,926.524,7451.96,-24.6149,-67.2749,-42.3706,10895.8,-168.847,13614.5,167.197,315.664,-171.527,-666.659,8497.9,-1484.44,-17.3492,-67.584,-53.6631,-2642.08,-15916.9,335.703,-112.963,52.789,-329.693,-144.157,8150.21,-258.736,-0.702261,-90.3641,-36.5984,6767.98,6033.31,4053.61,-28.5083,-25.1369,-99.5863,7563.07,985.112,1789.56,-65.2675,7.2403,-32.021
3.969,5118.06,945.73,7446.25,-24.5383,-67.0427,-42.4784,10975.3,-121.977,13619.4,167.313,315.474,-170.618,-673.162,8512.0,-1472.86,-17.3346,-67.415,-53.7891,-2681.56,-15977.9,375.229,-112.685,51.0027,-329.877,-150.629,8165.28,-265.37,-0.669147,-91.4361,-36.5623,6758.78,6005.36,4082.38,-29.9841,-23.9317,-99.0398,7558.64,961.44,1782.48,-65.2771,6.97531,-32.1352
3.9695,5127.72,953.805,7454.82,-24.4451,-66.8284,-42.5163,11049.8,-68.2822,13652.3,167.098,315.284,-169.653,-697.408,8526.78,-1465.87,-17.3566,-67.2676,-53.9182,-2724.54,-16047.4,408.474,-112.506,49.1207,-330.005,-146.28,8174.58,-274.533,-0.622991,-92.4763,-36.5212,6753.93,5972.25,4051.92,-31.028,-23.1237,-98.7853,7559.87,912.918,1782.8,-65.0284,6.50163,-32.2028
3.97,5137.38,961.879,7463.39,-24.3518,-66.6141,-42.5542,11124.2,-14.5875,13685.3,166.883,315.093,-168.687,-721.653,8541.56,-1458.89,-17.3786,-67.1203,-54.0473,-2767.51,-16117.0,441.719,-112.328,47.2387,-330.133,-141.932,8183.89,-283.695,-0.576835,-93.5166,-36.4802,6749.08,5939.14,4021.46,-32.072,-22.3157,-98.5307,7561.09,864.396,1783.12,-64.7796,6.02796,-32.2705
3.9705,5147.04,969.953,7471.95,-24.2586,-66.3998,-42.5922,11198.7,39.1073,13718.3,166.668,314.903,-167.722,-745.899,8556.34,-1451.91,-17.4007,-66.973,-54.1764,-2810.49,-16186.5,474.964,-112.149,45.3567,-330.262,-137.583,8193.19,-292.858,-0.530679,-94.5568,-36.4391,6744.23,5906.03,3991.0,-33.116,-21.5077,-98.2762,7562.32,815.874,1783.44,-64.5309,5.55428,-32.3382
3.971,5156.7,978.028,7480.52,-24.1654,-66.1855,-42.6301,11273.1,92.8021,13751.3,166.453,314.713,-166.757,-770.144,8571.11,-1444.92,-17.4227,-66.8256,-54.3055,-2853.47,-16256.1,508.209,-111.971,43.4747,-330.39,-133.235,8202.5,-302.021,-0.484523,-95.597,-36.398,6739.38,5872.92,3960.54,-34.1599,-20.6997,-98.0216,7563.54,767.352,1783.77,-64.2821,5.0806,-32.4059
3.9715,5166.36,986.102,7489.09,-24.0722,-65.9712,-42.668,11347.6,146.497,13784.2,166.238,314.523,-165.791,-794.39,8585.89,-1437.94,-17.4447,-66.6783,-54.4346,-2896.45,-16325.6,541.454,-111.792,41.5927,-330.518,-128.886,8211.8,-311.183,-0.438368,-96.6372,-36.3569,6734.53,5839.81,3930.08,-35.2039,-19.8917,-97.7671,7564.77,718.83,1784.09,-64.0334,4.60693,-32.4736
3.972,5176.02,994.176,7497.66,-23.979,-65.7569,-42.706,11422.0,200.192,13817.2,166.023,314.332,-164.826,-818.635,8600.67,-1430.96,-17.4668,-66.531,-54.5637,-2939.43,-16395.2,574.699,-111.614,39.7107,-330.647,-124.538,8221.11,-320.346,-0.392212,-97.6774,-36.3159,6729.68,5806.7,3899.63,-36.2479,-19.0837,-97.5125,7565.99,670.308,1784.41,-63.7847,4.13325,-32.5412
3.9725,5185.68,1002.25,7506.22,-23.8857,-65.5426,-42.7439,11496.5,253.886,13850.2,165.808,314.142,-163.861,-842.881,8615.45,-1423.97,-17.4888,-66.3836,-54.6928,-2982.41,-16464.7,607.944,-111.435,37.8286,-330.775,-120.189,8230.42,-329.509,-0.346056,-98.7176,-36.2748,6724.83,5773.59,3869.17,-37.2918,-18.2757,-97.258,7567.22,621.786,1784.73,-63.5359,3.65958,-32.6089
3.973,5195.34,1010.32,7514.79,-23.7925,-65.3283,-42.7818,11570.9,307.581,13883.1,165.593,313.952,-162.895,-867.126,8630.23,-1416.99,-17.5108,-66.2363,-54.8219,-3025.39,-16534.3,641.189,-111.257,35.9466,-330.903,-115.84,8239.72,-338.671,-0.2999,-99.7579,-36.2337,6719.98,5740.48,3838.71,-38.3358,-17.4677,-97.0034,7568.44,573.264,1785.06,-63.2872,3.1859,-32.6766
3.9735,5207.98,1019.58,7523.35,-23.7152,-65.124,-42.8481,11643.9,362.539,13924.5,165.263,313.661,-161.951,-891.778,8645.98,-1399.5,-17.5524,-66.161,-54.9522,-3054.4,-16599.3,664.77,-111.12,34.1465,-331.003,-118.635,8252.06,-350.246,-0.250804,-100.695,-36.212,6704.98,5700.29,3800.28,-39.3613,-16.7542,-96.7036,7574.63,527.664,1784.64,-63.052,2.68444,-32.7277
3.974,5226.59,1031.22,7531.88,-23.6698,-64.9397,-42.9711,11714.1,420.025,13982.8,164.703,313.169,-161.049,-917.241,8663.66,-1361.01,-17.633,-66.2299,-55.0849,-3055.48,-16655.3,669.022,-111.068,32.5101,-331.044,-135.714,8270.48,-366.643,-0.195826,-101.427,-36.2292,6669.69,5645.95,3745.91,-40.3498,-16.23,-96.3132,7590.75,487.91,1782.73,-62.8438,2.12742,-32.7456
3.9745,5245.2,1042.85,7540.42,-23.6244,-64.7553,-43.094,11784.2,477.51,14041.0,164.143,312.676,-160.147,-942.704,8681.34,-1322.51,-17.7136,-66.2988,-55.2177,-3056.55,-16711.3,673.275,-111.016,30.8737,-331.085,-152.794,8288.89,-383.041,-0.140849,-102.159,-36.2463,6634.41,5591.6,3691.54,-41.3382,-15.7057,-95.9229,7606.87,448.155,1780.82,-62.6356,1.5704,-32.7635
3.975,5263.8,1054.48,7548.96,-23.5789,-64.571,-43.217,11854.3,534.995,14099.3,163.583,312.184,-159.245,-968.167,8699.03,-1284.02,-17.7943,-66.3676,-55.3504,-3057.63,-16767.3,677.527,-110.964,29.2373,-331.126,-169.874,8307.3,-399.439,-0.0858713,-102.891,-36.2635,6599.12,5537.26,3637.17,-42.3267,-15.1814,-95.5325,7622.99,408.4,1778.91,-62.4274,1.01337,-32.7814
3.9755,5282.41,1066.11,7557.49,-23.5335,-64.3867,-43.3399,11924.4,592.48,14157.6,163.023,311.692,-158.343,-993.63,8716.71,-1245.52,-17.8749,-66.4365,-55.4831,-3058.7,-16823.4,681.78,-110.912,27.6009,-331.167,-186.953,8325.71,-415.837,-0.0308938,-103.623,-36.2806,6563.83,5482.91,3582.8,-43.3152,-14.6571,-95.1421,7639.11,368.646,1777.01,-62.2192,0.456352,-32.7993
3.976,5301.02,1077.74,7566.03,-23.4881,-64.2024,-43.4629,11994.5,649.966,14215.8,162.463,311.199,-157.44,-1019.09,8734.39,-1207.03,-17.9555,-66.5054,-55.6159,-3059.78,-16879.4,686.032,-110.859,25.9645,-331.209,-204.033,8344.13,-432.234,0.0240837,-104.355,-36.2978,6528.55,5428.57,3528.43,-44.3037,-14.1329,-94.7517,7655.23,328.891,1775.1,-62.011,-0.100671,-32.8172
3.9765,5319.62,1089.37,7574.57,-23.4426,-64.018,-43.5858,12064.6,707.451,14274.1,161.903,310.707,-156.538,-1044.56,8752.07,-1168.53,-18.0361,-66.5742,-55.7486,-3060.85,-16935.4,690.285,-110.807,24.3281,-331.25,-221.113,8362.54,-448.632,0.0790611,-105.087,-36.3149,6493.26,5374.23,3474.06,-45.2922,-13.6086,-94.3614,7671.35,289.136,1773.19,-61.8028,-0.657694,-32.8351
3.977,5338.23,1101.0,7583.1,-23.3972,-63.8337,-43.7088,12134.8,764.936,14332.3,161.343,310.214,-155.636,-1070.02,8769.76,-1130.04,-18.1167,-66.6431,-55.8813,-3061.93,-16991.4,694.538,-110.755,22.6916,-331.291,-238.193,8380.95,-465.03,0.134039,-105.819,-36.3321,6457.97,5319.88,3419.69,-46.2807,-13.0843,-93.971,7687.47,249.382,1771.28,-61.5946,-1.21472,-32.853
3.9775,5356.84,1112.63,7591.64,-23.3518,-63.6494,-43.8317,12204.9,822.421,14390.6,160.783,309.722,-154.734,-1095.48,8787.44,-1091.54,-18.1974,-66.712,-56.014,-3063.0,-17047.4,698.79,-110.703,21.0552,-331.332,-255.272,8399.37,-481.428,0.189016,-106.551,-36.3492,6422.69,5265.54,3365.31,-47.2691,-12.56,-93.5806,7703.59,209.627,1769.37,-61.3865,-1.77174,-32.871
3.978,5368.66,1120.78,7596.07,-23.2756,-63.4906,-43.9216,12269.1,882.39,14451.8,160.021,309.192,-153.89,-1113.44,8814.2,-1058.02,-18.2871,-66.8025,-56.1258,-3049.26,-17093.4,691.032,-110.676,19.5931,-331.312,-269.299,8412.77,-506.051,0.261713,-107.181,-36.3767,6378.46,5208.17,3298.4,-47.8507,-11.7029,-93.284,7703.67,162.491,1756.34,-61.3187,-2.23087,-32.8756
3.9785,5372.0,1124.57,7595.38,-23.161,-63.3637,-43.9703,12326.0,945.464,14516.6,159.006,308.615,-153.118,-1122.03,8852.3,-1030.72,-18.3883,-66.9202,-56.2113,-3016.98,-17126.7,668.262,-110.682,18.3486,-331.215,-279.51,8419.91,-540.957,0.356559,-107.683,-36.4172,6323.06,5147.01,3215.8,-47.9235,-10.4298,-93.1044,7683.69,106.129,1729.39,-61.4267,-2.56762,-32.8637
3.979,5375.34,1128.36,7594.68,-23.0465,-63.2367,-44.0189,12382.9,1008.54,14581.4,157.991,308.037,-152.346,-1130.62,8890.41,-1003.42,-18.4896,-67.0379,-56.2969,-2984.7,-17160.1,645.491,-110.688,17.1042,-331.118,-289.721,8427.05,-575.863,0.451405,-108.186,-36.4577,6267.67,5085.85,3133.2,-47.9964,-9.15662,-92.9249,7663.72,49.7666,1702.45,-61.5345,-2.90438,-32.8519
3.9795,5378.68,1132.16,7593.99,-22.9319,-63.1098,-44.0675,12439.8,1071.61,14646.2,156.976,307.46,-151.574,-1139.2,8928.52,-976.118,-18.5908,-67.1556,-56.3825,-2952.42,-17193.5,622.721,-110.693,15.8598,-331.021,-299.932,8434.19,-610.769,0.546251,-108.688,-36.4982,6212.27,5024.69,3050.6,-48.0692,-7.88347,-92.7454,7643.74,-6.59568,1675.5,-61.6425,-3.24113,-32.84
3.98,5382.02,1135.95,7593.29,-22.8173,-62.9829,-44.1161,12496.7,1134.68,14711.0,155.961,306.882,-150.802,-1147.79,8966.62,-948.817,-18.692,-67.2733,-56.468,-2920.14,-17226.9,599.95,-110.699,14.6154,-330.925,-310.143,8441.33,-645.675,0.641097,-109.191,-36.5387,6156.87,4963.53,2968.0,-48.1421,-6.61032,-92.5659,7623.77,-62.9579,1648.55,-61.7503,-3.57789,-32.8281
3.9805,5385.36,1139.74,7592.6,-22.7027,-62.856,-44.1647,12553.6,1197.76,14775.9,154.946,306.305,-150.03,-1156.37,9004.73,-921.515,-18.7932,-67.391,-56.5536,-2887.86,-17260.3,577.18,-110.705,13.3709,-330.828,-320.355,8448.47,-680.581,0.735943,-109.693,-36.5792,6101.47,4902.37,2885.4,-48.2149,-5.33717,-92.3863,7603.79,-119.32,1621.61,-61.8582,-3.91465,-32.8162
3.981,5388.7,1143.54,7591.91,-22.5882,-62.7291,-44.2133,12610.5,1260.83,14840.7,153.931,305.728,-149.258,-1164.96,9042.83,-894.214,-18.8944,-67.5086,-56.6391,-2855.59,-17293.7,554.409,-110.711,12.1265,-330.731,-330.566,8455.62,-715.487,0.83079,-110.196,-36.6197,6046.08,4841.21,2802.8,-48.2878,-4.06402,-92.2068,7583.82,-175.682,1594.66,-61.9662,-4.2514,-32.8043
3.9815,5392.04,1147.33,7591.21,-22.4736,-62.6022,-44.2619,12667.3,1323.9,14905.5,152.916,305.15,-148.486,-1173.54,9080.94,-866.912,-18.9956,-67.6263,-56.7247,-2823.31,-17327.1,531.639,-110.716,10.8821,-330.634,-340.777,8462.76,-750.393,0.925636,-110.699,-36.6602,5990.68,4780.05,2720.21,-48.3606,-2.79087,-92.0273,7563.84,-232.045,1567.71,-62.0741,-4.58816,-32.7924
3.982,5395.38,1151.13,7590.52,-22.359,-62.4753,-44.3105,12724.2,1386.98,14970.3,151.901,304.573,-147.714,-1182.13,9119.04,-839.611,-19.0968,-67.744,-56.8102,-2791.03,-17360.5,508.868,-110.722,9.63766,-330.537,-350.988,8469.9,-785.299,1.02048,-111.201,-36.7007,5935.28,4718.89,2637.61,-48.4335,-1.51772,-91.8478,7543.86,-288.407,1540.77,-62.182,-4.92491,-32.7806
3.9825,5391.18,1165.99,7598.19,-22.227,-62.3767,-44.3058,12782.6,1442.3,15027.0,150.684,303.957,-147.098,-1175.95,9150.25,-815.985,-19.2,-67.7647,-56.8622,-2771.27,-17405.0,482.878,-110.751,8.64068,-330.438,-352.858,8481.03,-816.392,0.991141,-111.576,-36.7529,5862.32,4677.51,2562.97,-48.6049,-0.251342,-91.6026,7520.86,-316.834,1515.88,-61.9845,-5.27368,-32.7965
3.983,5380.96,1189.72,7612.56,-22.081,-62.3008,-44.2585,12842.1,1491.43,15077.2,149.305,303.311,-146.606,-1157.96,9175.92,-795.3,-19.3048,-67.7077,-56.8874,-2761.52,-17458.4,454.313,-110.798,7.84164,-330.338,-348.057,8495.36,-844.434,0.862452,-111.848,-36.8143,5775.32,4651.96,2494.69,-48.8553,1.00962,-91.3048,7495.42,-322.914,1492.64,-61.5429,-5.63206,-32.8348
3.9835,5370.74,1213.45,7626.93,-21.935,-62.2249,-44.2112,12901.6,1540.56,15127.4,147.926,302.665,-146.115,-1139.96,9201.6,-774.615,-19.4095,-67.6507,-56.9126,-2751.77,-17511.8,425.748,-110.845,7.04261,-330.237,-343.255,8509.69,-872.477,0.733762,-112.121,-36.8757,5688.31,4626.41,2426.42,-49.1057,2.27058,-91.0071,7469.99,-328.993,1469.4,-61.1012,-5.99044,-32.873
3.984,5360.52,1237.18,7641.31,-21.789,-62.149,-44.1639,12961.2,1589.68,15177.6,146.548,302.019,-145.623,-1121.97,9227.28,-753.929,-19.5143,-67.5938,-56.9378,-2742.02,-17565.2,397.183,-110.893,6.24358,-330.137,-338.454,8524.02,-900.519,0.605072,-112.393,-36.9372,5601.31,4600.86,2358.15,-49.356,3.53154,-90.7094,7444.56,-335.072,1446.15,-60.6596,-6.34882,-32.9113
3.9845,5350.3,1260.91,7655.68,-21.643,-62.0731,-44.1166,13020.7,1638.81,15227.8,145.169,301.372,-145.131,-1103.98,9252.95,-733.244,-19.6191,-67.5368,-56.963,-2732.27,-17618.6,368.618,-110.94,5.44455,-330.037,-333.652,8538.35,-928.562,0.476383,-112.666,-36.9986,5514.3,4575.31,2289.88,-49.6064,4.7925,-90.4117,7419.13,-341.152,1422.91,-60.2179,-6.7072,-32.9496
3.985,5340.07,1284.64,7670.05,-21.4971,-61.9972,-44.0693,13080.2,1687.93,15278.0,143.79,300.726,-144.64,-1085.98,9278.63,-712.559,-19.7239,-67.4798,-56.9882,-2722.52,-17672.0,340.052,-110.987,4.64552,-329.936,-328.851,8552.68,-956.604,0.347693,-112.938,-37.0601,5427.29,4549.75,2221.61,-49.8568,6.05346,-90.1139,7393.69,-347.231,1399.67,-59.7763,-7.06558,-32.9878
3.9855,5329.85,1308.36,7684.42,-21.3511,-61.9213,-44.022,13139.7,1737.06,15328.2,142.411,300.08,-144.148,-1067.99,9304.31,-691.874,-19.8286,-67.4229,-57.0134,-2712.77,-17725.4,311.487,-111.034,3.84649,-329.836,-324.049,8567.01,-984.647,0.219003,-113.211,-37.1215,5340.29,4524.2,2153.34,-50.1072,7.31442,-89.8162,7368.26,-353.31,1376.43,-59.3346,-7.42396,-33.0261
3.986,5319.63,1332.09,7698.79,-21.2051,-61.8453,-43.9747,13199.3,1786.19,15378.3,141.032,299.434,-143.656,-1050.0,9329.98,-671.188,-19.9334,-67.3659,-57.0385,-2703.02,-17778.8,282.922,-111.081,3.04745,-329.735,-319.248,8581.34,-1012.69,0.0903138,-113.484,-37.183,5253.28,4498.65,2085.06,-50.3575,8.57538,-89.5185,7342.83,-359.39,1353.19,-58.893,-7.78234,-33.0643
3.9865,5309.41,1355.82,7713.16,-21.0591,-61.7694,-43.9274,13258.8,1835.31,15428.5,139.654,298.787,-143.165,-1032.01,9355.66,-650.503,-20.0382,-67.3089,-57.0637,-2693.28,-17832.2,254.357,-111.129,2.24842,-329.635,-314.446,8595.67,-1040.73,-0.0383759,-113.756,-37.2444,5166.27,4473.1,2016.79,-50.6079,9.83634,-89.2207,7317.39,-365.469,1329.95,-58.4513,-8.14071,-33.1026
3.987,5295.53,1381.99,7715.03,-20.9332,-61.6604,-43.8477,13304.5,1868.8,15463.3,138.245,298.239,-142.813,-1008.24,9369.31,-625.787,-20.1273,-67.1629,-57.1061,-2668.31,-17879.4,227.202,-111.14,1.63869,-329.427,-325.682,8601.82,-1074.5,-0.120027,-113.902,-37.2886,5072.43,4441.47,1954.18,-50.8719,11.351,-88.9729,7299.78,-382.073,1312.81,-58.275,-8.50518,-33.0991
3.9875,5279.83,1409.38,7710.65,-20.8174,-61.5348,-43.7519,13343.3,1894.46,15490.3,136.82,297.74,-142.53,-981.583,9376.95,-599.055,-20.2086,-66.9723,-57.1571,-2635.73,-17923.4,200.752,-111.134,1.1236,-329.165,-344.935,8603.88,-1111.14,-0.178159,-113.984,-37.3241,4975.17,4406.81,1894.4,-51.1427,12.9926,-88.7501,7286.08,-403.94,1298.73,-58.2312,-8.8727,-33.0748
3.988,5264.13,1436.76,7706.27,-20.7016,-61.4091,-43.6561,13382.1,1920.12,15517.4,135.396,297.24,-142.248,-954.927,9384.58,-572.323,-20.2899,-66.7817,-57.2081,-2603.15,-17967.5,174.302,-111.127,0.608509,-328.903,-364.189,8605.94,-1147.77,-0.236291,-114.066,-37.3596,4877.91,4372.15,1834.63,-51.4135,14.6342,-88.5273,7272.39,-425.807,1284.65,-58.1875,-9.24021,-33.0506
3.9885,5248.43,1464.15,7701.89,-20.5857,-61.2835,-43.5602,13420.9,1945.78,15544.5,133.971,296.741,-141.965,-928.272,9392.21,-545.591,-20.3712,-66.5911,-57.2591,-2570.57,-18011.5,147.853,-111.121,0.0934208,-328.64,-383.443,8608.0,-1184.4,-0.294423,-114.149,-37.3952,4780.64,4337.49,1774.85,-51.6842,16.2757,-88.3045,7258.69,-447.674,1270.57,-58.1437,-9.60772,-33.0263
3.989,5232.72,1491.54,7697.51,-20.4699,-61.1578,-43.4644,13459.7,1971.45,15571.5,132.547,296.242,-141.683,-901.616,9399.85,-518.859,-20.4524,-66.4005,-57.3101,-2537.99,-18055.6,121.403,-111.115,-0.421667,-328.378,-402.696,8610.06,-1221.04,-0.352554,-114.231,-37.4307,4683.38,4302.83,1715.07,-51.955,17.9173,-88.0817,7244.99,-469.541,1256.49,-58.1,-9.97524,-33.002
3.9895,5217.02,1518.92,7693.13,-20.3541,-61.0322,-43.3685,13498.5,1997.11,15598.6,131.123,295.742,-141.401,-874.961,9407.49,-492.127,-20.5337,-66.2099,-57.3611,-2505.42,-18099.6,94.953,-111.108,-0.936755,-328.116,-421.95,8612.12,-1257.67,-0.410686,-114.313,-37.4662,4586.12,4268.17,1655.29,-52.2258,19.5589,-87.8588,7231.29,-491.408,1242.41,-58.0562,-10.3427,-32.9777
3.99,5201.32,1546.31,7688.75,-20.2383,-60.9066,-43.2727,13537.3,2022.77,15625.6,129.698,295.243,-141.118,-848.305,9415.12,-465.395,-20.615,-66.0193,-57.4121,-2472.84,-18143.7,68.5032,-111.102,-1.45184,-327.854,-441.203,8614.19,-1294.3,-0.468818,-114.396,-37.5017,4488.86,4233.51,1595.51,-52.4966,21.2004,-87.636,7217.59,-513.275,1228.33,-58.0125,-10.7103,-32.9534
3.9905,5185.62,1573.7,7684.37,-20.1224,-60.7809,-43.1768,13576.1,2048.43,15652.7,128.274,294.743,-140.836,-821.649,9422.75,-438.663,-20.6963,-65.8287,-57.463,-2440.26,-18187.7,42.0534,-111.095,-1.96693,-327.592,-460.457,8616.25,-1330.94,-0.52695,-114.478,-37.5373,4391.6,4198.85,1535.74,-52.7674,22.842,-87.4132,7203.89,-535.142,1214.25,-57.9687,-11.0778,-32.9291
3.991,5169.92,1601.09,7679.99,-20.0066,-60.6553,-43.081,13614.9,2074.09,15679.7,126.85,294.244,-140.553,-794.994,9430.39,-411.931,-20.7776,-65.6381,-57.514,-2407.68,-18231.8,15.6036,-111.089,-2.48202,-327.33,-479.711,8618.31,-1367.57,-0.585082,-114.56,-37.5728,4294.33,4164.19,1475.96,-53.0382,24.4836,-87.1904,7190.19,-557.009,1200.17,-57.9249,-11.4453,-32.9048
3.9915,5150.11,1625.33,7684.17,-19.8282,-60.5257,-42.9256,13663.7,2093.14,15715.2,125.59,293.776,-140.243,-779.247,9437.14,-378.038,-20.9045,-65.3126,-57.5629,-2382.78,-18283.2,-14.7271,-111.021,-2.74415,-327.027,-507.039,8618.39,-1394.96,-0.551811,-114.565,-37.6654,4211.73,4132.9,1419.31,-53.0647,26.4482,-86.992,7177.39,-558.901,1174.65,-57.899,-11.6834,-32.7637
3.992,5129.13,1648.68,7690.79,-19.632,-60.3949,-42.7532,13715.3,2110.3,15753.2,124.377,293.318,-139.926,-766.618,9443.63,-342.099,-21.0445,-64.9486,-57.6113,-2360.06,-18336.8,-46.1667,-110.936,-2.93401,-326.713,-536.674,8617.9,-1419.72,-0.492425,-114.546,-37.7742,4133.3,4102.58,1363.55,-53.0214,28.5051,-86.8006,7164.84,-555.085,1145.86,-57.8782,-11.8845,-32.5892
3.9925,5108.15,1672.03,7697.4,-19.4358,-60.2641,-42.5808,13766.9,2127.45,15791.1,123.164,292.859,-139.608,-753.988,9450.12,-306.16,-21.1845,-64.5845,-57.6596,-2337.35,-18390.4,-77.6063,-110.85,-3.12387,-326.399,-566.309,8617.41,-1444.47,-0.433039,-114.528,-37.8831,4054.88,4072.26,1307.79,-52.9781,30.5621,-86.6092,7152.29,-551.269,1117.06,-57.8574,-12.0856,-32.4147
3.993,5087.17,1695.38,7704.02,-19.2395,-60.1334,-42.4085,13818.6,2144.61,15829.1,121.951,292.4,-139.29,-741.359,9456.61,-270.22,-21.3245,-64.2205,-57.7079,-2314.64,-18444.0,-109.046,-110.765,-3.31373,-326.085,-595.944,8616.92,-1469.23,-0.373653,-114.509,-37.992,3976.46,4041.94,1252.04,-52.9348,32.619,-86.4178,7139.74,-547.454,1088.27,-57.8366,-12.2868,-32.2403
3.9935,5066.19,1718.73,7710.64,-19.0433,-60.0026,-42.2361,13870.2,2161.77,15867.1,120.738,291.941,-138.972,-728.729,9463.1,-234.281,-21.4645,-63.8565,-57.7562,-2291.93,-18497.6,-140.485,-110.679,-3.50359,-325.771,-625.58,8616.43,-1493.98,-0.314267,-114.491,-38.1009,3898.04,4011.62,1196.28,-52.8914,34.6759,-86.2263,7127.19,-543.638,1059.47,-57.8157,-12.4879,-32.0658
3.994,5045.21,1742.07,7717.26,-18.8471,-59.8718,-42.0637,13921.8,2178.92,15905.0,119.525,291.482,-138.654,-716.1,9469.6,-198.342,-21.6044,-63.4925,-57.8045,-2269.22,-18551.2,-171.925,-110.594,-3.69345,-325.457,-655.215,8615.94,-1518.74,-0.254881,-114.473,-38.2097,3819.62,3981.3,1140.52,-52.8481,36.7328,-86.0349,7114.65,-539.822,1030.68,-57.7949,-12.689,-31.8913
3.9945,5024.23,1765.42,7723.88,-18.6508,-59.7411,-41.8913,13973.4,2196.08,15943.0,118.312,291.024,-138.336,-703.471,9476.09,-162.403,-21.7444,-63.1284,-57.8528,-2246.51,-18604.8,-203.365,-110.508,-3.8833,-325.144,-684.85,8615.45,-1543.49,-0.195495,-114.454,-38.3186,3741.19,3950.98,1084.76,-52.8048,38.7898,-85.8435,7102.1,-536.006,1001.89,-57.7741,-12.8901,-31.7168
3.995,5003.25,1788.77,7730.5,-18.4546,-59.6103,-41.7189,14025.0,2213.24,15980.9,117.099,290.565,-138.019,-690.841,9482.58,-126.463,-21.8844,-62.7644,-57.9011,-2223.79,-18658.4,-234.804,-110.423,-4.07316,-324.83,-714.485,8614.96,-1568.25,-0.136109,-114.436,-38.4275,3662.77,3920.66,1029.01,-52.7615,40.8467,-85.6521,7089.55,-532.191,973.092,-57.7533,-13.0913,-31.5423
3.9955,4982.27,1812.12,7737.12,-18.2584,-59.4795,-41.5466,14076.6,2230.39,16018.9,115.887,290.106,-137.701,-678.212,9489.07,-90.5243,-22.0244,-62.4004,-57.9495,-2201.08,-18712.0,-266.244,-110.337,-4.26302,-324.516,-744.12,8614.47,-1593.0,-0.0767232,-114.418,-38.5364,3584.35,3890.34,973.25,-52.7182,42.9036,-85.4607,7077.0,-528.375,944.298,-57.7324,-13.2924,-31.3678
3.996,4985.44,1822.8,7721.74,-18.0681,-59.3253,-41.3239,14096.8,2230.31,16068.9,114.838,289.624,-137.572,-681.142,9495.42,-82.5599,-22.147,-61.9734,-57.9857,-2192.32,-18778.0,-274.308,-110.32,-4.22623,-324.307,-760.198,8614.88,-1596.59,-0.0752664,-114.234,-38.6469,3531.22,3904.54,927.928,-52.6831,45.1467,-85.1245,7069.18,-530.651,953.066,-57.6397,-13.6314,-31.218
3.9965,4991.62,1831.89,7703.6,-17.8785,-59.1681,-41.095,14113.0,2228.08,16120.4,113.81,289.139,-137.468,-686.017,9501.76,-78.0924,-22.2674,-61.5385,-58.0205,-2185.3,-18845.6,-279.45,-110.312,-4.16111,-324.111,-774.581,8615.41,-1597.52,-0.0810509,-114.029,-38.7577,3481.26,3924.3,883.911,-52.649,47.4131,-84.7702,7061.94,-533.689,966.53,-57.5379,-13.9876,-31.0713
3.997,4997.81,1840.98,7685.47,-17.6889,-59.011,-40.8661,14129.2,2225.84,16171.9,112.782,288.654,-137.363,-690.892,9508.09,-73.6249,-22.3878,-61.1036,-58.0552,-2178.27,-18913.2,-284.592,-110.304,-4.09598,-323.915,-788.964,8615.94,-1598.46,-0.0868353,-113.824,-38.8684,3431.29,3944.06,839.894,-52.6149,49.6795,-84.4159,7054.71,-536.727,979.994,-57.4361,-14.3439,-30.9245
3.9975,5003.99,1850.07,7667.34,-17.4993,-58.8538,-40.6372,14145.4,2223.61,16223.3,111.755,288.169,-137.258,-695.766,9514.42,-69.1574,-22.5082,-60.6687,-58.09,-2171.25,-18980.8,-289.735,-110.296,-4.03086,-323.719,-803.347,8616.46,-1599.4,-0.0926197,-113.62,-38.9792,3381.33,3963.83,795.877,-52.5809,51.9459,-84.0616,7047.47,-539.765,993.458,-57.3344,-14.7001,-30.7778
3.998,5010.18,1859.16,7649.21,-17.3098,-58.6967,-40.4083,14161.6,2221.37,16274.8,110.727,287.684,-137.153,-700.641,9520.76,-64.6899,-22.6286,-60.2338,-58.1247,-2164.23,-19048.4,-294.877,-110.288,-3.96573,-323.523,-817.73,8616.99,-1600.33,-0.0984041,-113.415,-39.09,3331.36,3983.59,751.861,-52.5468,54.2122,-83.7073,7040.24,-542.803,1006.92,-57.2326,-15.0563,-30.6311
3.9985,5016.36,1868.25,7631.08,-17.1202,-58.5395,-40.1793,14177.8,2219.14,16326.3,109.699,287.199,-137.049,-705.516,9527.09,-60.2224,-22.749,-59.7989,-58.1595,-2157.21,-19116.0,-300.019,-110.28,-3.90061,-323.327,-832.112,8617.51,-1601.27,-0.104189,-113.211,-39.2007,3281.4,4003.36,707.844,-52.5127,56.4786,-83.353,7033.01,-545.841,1020.39,-57.1308,-15.4126,-30.4843
3.999,5022.54,1877.34,7612.95,-16.9306,-58.3824,-39.9504,14194.1,2216.9,16377.8,108.671,286.714,-136.944,-710.391,9533.43,-55.7548,-22.8694,-59.364,-58.1942,-2150.18,-19183.6,-305.161,-110.272,-3.83549,-323.131,-846.495,8618.04,-1602.2,-0.109973,-113.006,-39.3115,3231.43,4023.12,663.827,-52.4786,58.745,-82.9987,7025.77,-548.879,1033.85,-57.0291,-15.7688,-30.3376
3.9995,5028.73,1886.43,7594.82,-16.741,-58.2252,-39.7215,14210.3,2214.67,16429.3,107.643,286.229,-136.839,-715.266,9539.76,-51.2873,-22.9898,-58.9291,-58.229,-2143.16,-19251.2,-310.304,-110.264,-3.77036,-322.935,-860.878,8618.56,-1603.14,-0.115757,-112.801,-39.4222,3181.47,4042.89,619.81,-52.4445,61.0113,-82.6444,7018.54,-551.917,1047.31,-56.9273,-16.125,-30.1909
4.0,5034.91,1895.53,7576.68,-16.5515,-58.0681,-39.4926,14226.5,2212.43,16480.8,106.615,285.743,-136.735,-720.141,9546.09,-46.8198,-23.1102,-58.4942,-58.2637,-2136.14,-19318.8,-315.446,-110.256,-3.70524,-322.739,-875.261,8619.09,-1604.08,-0.121542,-112.597,-39.533,3131.5,4062.65,575.793,-52.4104,63.2777,-82.2902,7011.3,-554.955,1060.78,-56.8255,-16.4812,-30.0441
4.0005,5051.36,1921.36,7575.89,-16.3864,-57.9939,-39.2866,14254.3,2174.18,16531.3,105.763,285.202,-136.882,-739.875,9549.59,-12.1331,-23.1812,-58.0973,-58.2829,-2102.05,-19384.0,-326.675,-110.108,-3.2481,-322.458,-901.241,8611.55,-1615.39,-0.210855,-112.286,-39.7399,3094.12,4110.85,499.863,-52.2353,65.6839,-81.6147,7025.1,-535.741,1048.72,-56.7146,-16.7194,-29.7347
4.001,5067.81,1947.19,7575.1,-16.2213,-57.9197,-39.0806,14282.1,2135.93,16581.7,104.911,284.66,-137.029,-759.609,9553.09,22.5537,-23.2523,-57.7004,-58.302,-2067.97,-19449.1,-337.904,-109.96,-2.79097,-322.178,-927.22,8604.02,-1626.71,-0.300168,-111.975,-39.9468,3056.73,4159.05,423.933,-52.0601,68.0901,-80.9392,7038.9,-516.527,1036.66,-56.6037,-16.9575,-29.4252
4.0015,5084.25,1973.02,7574.31,-16.0563,-57.8456,-38.8747,14309.9,2097.67,16632.1,104.058,284.119,-137.176,-779.344,9556.59,57.2404,-23.3233,-57.3036,-58.3212,-2033.88,-19514.2,-349.134,-109.813,-2.33383,-321.897,-953.2,8596.48,-1638.03,-0.389481,-111.665,-40.1537,3019.35,4207.25,348.003,-51.8849,70.4962,-80.2637,7052.69,-497.312,1024.6,-56.4927,-17.1956,-29.1157
4.002,5100.7,1998.85,7573.52,-15.8912,-57.7714,-38.6687,14337.8,2059.42,16682.6,103.206,283.577,-137.323,-799.078,9560.09,91.9272,-23.3943,-56.9067,-58.3404,-1999.8,-19579.4,-360.363,-109.665,-1.8767,-321.616,-979.18,8588.95,-1649.35,-0.478794,-111.354,-40.3606,2981.96,4255.45,272.072,-51.7097,72.9024,-79.5882,7066.49,-478.098,1012.54,-56.3818,-17.4338,-28.8062
4.0025,5117.15,2024.68,7572.73,-15.7262,-57.6973,-38.4627,14365.6,2021.17,16733.0,102.354,283.035,-137.47,-818.812,9563.59,126.614,-23.4653,-56.5098,-58.3595,-1965.71,-19644.5,-371.592,-109.518,-1.41956,-321.335,-1005.16,8581.41,-1660.66,-0.568107,-111.043,-40.5675,2944.57,4303.65,196.142,-51.5345,75.3086,-78.9127,7080.28,-458.884,1000.48,-56.2709,-17.6719,-28.4968
4.003,5133.59,2050.51,7571.94,-15.5611,-57.6231,-38.2567,14393.4,1982.91,16783.4,101.501,282.494,-137.617,-838.546,9567.09,161.301,-23.5364,-56.1129,-58.3787,-1931.63,-19709.6,-382.821,-109.37,-0.962429,-321.054,-1031.14,8573.87,-1671.98,-0.65742,-110.733,-40.7744,2907.19,4351.86,120.212,-51.3594,77.7148,-78.2372,7094.08,-439.669,988.424,-56.1599,-17.9101,-28.1873
4.0035,5150.04,2076.34,7571.15,-15.3961,-57.5489,-38.0508,14421.2,1944.66,16833.9,100.649,281.952,-137.764,-858.28,9570.59,195.987,-23.6074,-55.716,-58.3979,-1897.54,-19774.8,-394.051,-109.222,-0.505294,-320.773,-1057.12,8566.34,-1683.3,-0.746733,-110.422,-40.9813,2869.8,4400.06,44.2821,-51.1842,80.121,-77.5618,7107.88,-420.455,976.366,-56.049,-18.1482,-27.8778
4.004,5166.49,2102.18,7570.36,-15.231,-57.4748,-37.8448,14449.1,1906.41,16884.3,99.7966,281.41,-137.911,-878.015,9574.09,230.674,-23.6784,-55.3191,-58.417,-1863.46,-19839.9,-405.28,-109.075,-0.048159,-320.492,-1083.1,8558.8,-1694.62,-0.836047,-110.111,-41.1882,2832.42,4448.26,-31.648,-51.009,82.5271,-76.8863,7121.67,-401.241,964.307,-55.9381,-18.3863,-27.5684
4.0045,5182.65,2127.61,7569.57,-15.0637,-57.3958,-37.6378,14478.0,1869.86,16933.5,98.9763,280.872,-138.088,-896.766,9576.95,265.229,-23.7565,-54.9217,-58.4408,-1833.47,-19906.6,-416.56,-108.931,0.432759,-320.23,-1109.72,8552.94,-1705.0,-0.92251,-109.786,-41.3997,2796.19,4498.7,-104.917,-50.8438,84.9596,-76.1691,7135.14,-384.614,954.416,-55.8371,-18.628,-27.2647
4.005,5196.52,2149.85,7568.79,-14.8782,-57.278,-37.4227,14515.8,1846.91,16972.5,98.4122,280.365,-138.508,-907.651,9574.7,298.727,-23.8911,-54.5198,-58.5008,-1836.27,-19986.1,-428.251,-108.82,1.10394,-320.119,-1141.52,8560.42,-1707.87,-0.98618,-109.343,-41.6485,2769.23,4567.08,-156.896,-50.7582,87.602,-75.1181,7146.01,-388.688,961.864,-55.8155,-18.8978,-27.007
4.0055,5210.4,2172.1,7568.01,-14.6927,-57.1603,-37.2076,14553.5,1823.97,17011.5,97.8481,279.857,-138.927,-918.537,9572.45,332.225,-24.0257,-54.1179,-58.5609,-1839.06,-20065.6,-439.941,-108.708,1.77512,-320.008,-1173.32,8567.89,-1710.75,-1.04985,-108.899,-41.8972,2742.27,4635.46,-208.875,-50.6726,90.2445,-74.0671,7156.87,-392.762,969.312,-55.7939,-19.1675,-26.7493
4.006,5224.27,2194.34,7567.23,-14.5072,-57.0425,-36.9926,14591.3,1801.02,17050.5,97.2839,279.35,-139.347,-929.423,9570.2,365.723,-24.1603,-53.7161,-58.621,-1841.86,-20145.1,-451.631,-108.597,2.4463,-319.897,-1205.12,8575.37,-1713.62,-1.11352,-108.456,-42.1459,2715.31,4703.84,-260.855,-50.5869,92.8869,-73.0161,7167.74,-396.837,976.76,-55.7723,-19.4373,-26.4916
4.0065,5238.15,2216.59,7566.46,-14.3217,-56.9248,-36.7775,14629.1,1778.08,17089.5,96.7198,278.842,-139.766,-940.309,9567.95,399.221,-24.295,-53.3142,-58.6811,-1844.65,-20224.6,-463.321,-108.485,3.11749,-319.786,-1236.92,8582.85,-1716.5,-1.17719,-108.013,-42.3947,2688.35,4772.22,-312.834,-50.5013,95.5294,-71.9651,7178.6,-400.911,984.208,-55.7507,-19.7071,-26.2339
4.007,5252.02,2238.83,7565.68,-14.1362,-56.807,-36.5624,14666.9,1755.13,17128.5,96.1557,278.335,-140.186,-951.194,9565.7,432.719,-24.4296,-52.9123,-58.7412,-1847.45,-20304.1,-475.012,-108.374,3.78867,-319.675,-1268.72,8590.33,-1719.37,-1.24086,-107.57,-42.6434,2661.4,4840.6,-364.813,-50.4157,98.1719,-70.9141,7189.47,-404.985,991.656,-55.7292,-19.9769,-25.9763
4.0075,5265.9,2261.07,7564.9,-13.9507,-56.6893,-36.3474,14704.6,1732.19,17167.5,95.5915,277.827,-140.605,-962.08,9563.45,466.217,-24.5642,-52.5105,-58.8013,-1850.25,-20383.5,-486.702,-108.262,4.45985,-319.564,-1300.52,8597.81,-1722.25,-1.30453,-107.126,-42.8922,2634.44,4908.98,-416.793,-50.3301,100.814,-69.8631,7200.33,-409.06,999.104,-55.7076,-20.2467,-25.7186
4.008,5279.78,2283.32,7564.12,-13.7652,-56.5715,-36.1323,14742.4,1709.24,17206.5,95.0274,277.32,-141.025,-972.966,9561.2,499.715,-24.6988,-52.1086,-58.8614,-1853.04,-20463.0,-498.392,-108.15,5.13103,-319.453,-1332.31,8605.29,-1725.12,-1.3682,-106.683,-43.1409,2607.48,4977.35,-468.772,-50.2445,103.457,-68.8121,7211.2,-413.134,1006.55,-55.686,-20.5165,-25.4609
4.0085,5293.65,2305.56,7563.34,-13.5797,-56.4538,-35.9172,14780.2,1686.3,17245.5,94.4632,276.812,-141.444,-983.852,9558.95,533.213,-24.8334,-51.7067,-58.9214,-1855.84,-20542.5,-510.082,-108.039,5.80222,-319.342,-1364.11,8612.77,-1727.99,-1.43187,-106.24,-43.3896,2580.52,5045.73,-520.751,-50.1589,106.099,-67.7611,7222.06,-417.208,1014.0,-55.6644,-20.7863,-25.2032
4.009,5307.9,2326.07,7561.42,-13.3892,-56.3288,-35.6988,14822.4,1661.6,17279.2,94.0188,276.303,-141.928,-998.299,9556.39,563.947,-24.9591,-51.3329,-58.9905,-1857.56,-20622.6,-526.519,-107.936,6.5468,-319.239,-1389.45,8617.08,-1734.93,-1.53057,-105.792,-43.626,2557.37,5111.89,-570.416,-50.0193,108.71,-66.6826,7230.65,-415.037,1019.15,-55.6337,-21.0234,-24.9212
4.0095,5323.43,2340.5,7555.52,-13.1812,-56.1789,-35.4685,14880.0,1630.76,17294.1,93.9932,275.79,-142.64,-1025.21,9552.73,585.01,-25.0536,-51.0574,-59.0909,-1855.53,-20704.7,-559.571,-107.863,7.54832,-319.167,-1392.2,8610.29,-1756.06,-1.75185,-105.325,-43.819,2547.54,5170.26,-611.981,-49.6907,111.212,-65.5076,7231.26,-391.003,1016.25,-55.5709,-21.1463,-24.554
4.01,5338.97,2354.94,7549.62,-12.9733,-56.029,-35.2382,14937.6,1599.92,17309.0,93.9676,275.277,-143.351,-1052.12,9549.06,606.072,-25.148,-50.782,-59.1913,-1853.5,-20786.8,-592.623,-107.79,8.54984,-319.096,-1394.94,8603.51,-1777.19,-1.97314,-104.858,-44.012,2537.72,5228.64,-653.546,-49.3621,113.714,-64.3327,7231.87,-366.97,1013.35,-55.5081,-21.2691,-24.1868
4.0105,5354.51,2369.37,7543.73,-12.7654,-55.879,-35.0079,14995.2,1569.08,17323.9,93.942,274.764,-144.062,-1079.04,9545.4,627.134,-25.2425,-50.5065,-59.2917,-1851.47,-20868.9,-625.675,-107.717,9.55136,-319.024,-1397.69,8596.72,-1798.32,-2.19442,-104.391,-44.205,2527.89,5287.01,-695.112,-49.0335,116.215,-63.1577,7232.49,-342.937,1010.44,-55.4453,-21.392,-23.8196
4.011,5370.04,2383.8,7537.83,-12.5574,-55.7291,-34.7776,15052.8,1538.25,17338.8,93.9164,274.25,-144.774,-1105.95,9541.74,648.196,-25.3369,-50.231,-59.3921,-1849.44,-20951.0,-658.727,-107.644,10.5529,-318.952,-1400.43,8589.94,-1819.45,-2.41571,-103.924,-44.398,2518.07,5345.39,-736.677,-48.7049,118.717,-61.9828,7233.1,-318.904,1007.54,-55.3825,-21.5149,-23.4524
4.0115,5385.58,2398.23,7531.93,-12.3495,-55.5792,-34.5473,15110.5,1507.41,17353.7,93.8908,273.737,-145.485,-1132.86,9538.07,669.259,-25.4314,-49.9555,-59.4925,-1847.41,-21033.1,-691.779,-107.572,11.5544,-318.88,-1403.17,8583.15,-1840.58,-2.63699,-103.457,-44.591,2508.24,5403.76,-778.242,-48.3764,121.218,-60.8078,7233.71,-294.87,1004.64,-55.3197,-21.6378,-23.0852
4.012,5401.11,2412.66,7526.03,-12.1416,-55.4292,-34.317,15168.1,1476.57,17368.5,93.8652,273.224,-146.196,-1159.77,9534.41,690.321,-25.5258,-49.68,-59.5929,-1845.38,-21115.2,-724.831,-107.499,12.5559,-318.808,-1405.92,8576.36,-1861.71,-2.85828,-102.99,-44.784,2498.41,5462.13,-819.807,-48.0478,123.72,-59.6329,7234.33,-270.837,1001.74,-55.2569,-21.7606,-22.718
4.0125,5416.65,2427.1,7520.13,-11.9336,-55.2793,-34.0867,15225.7,1445.74,17383.4,93.8396,272.71,-146.908,-1186.69,9530.74,711.383,-25.6203,-49.4045,-59.6933,-1843.35,-21197.3,-757.883,-107.426,13.5574,-318.736,-1408.66,8569.58,-1882.84,-3.07957,-102.524,-44.977,2488.59,5520.51,-861.372,-47.7192,126.222,-58.458,7234.94,-246.804,998.84,-55.1941,-21.8835,-22.3508
4.013,5432.19,2441.53,7514.23,-11.7257,-55.1294,-33.8564,15283.3,1414.9,17398.3,93.814,272.197,-147.619,-1213.6,9527.08,732.445,-25.7148,-49.129,-59.7937,-1841.32,-21279.4,-790.935,-107.353,14.5589,-318.665,-1411.4,8562.79,-1903.97,-3.30085,-102.057,-45.17,2478.76,5578.88,-902.937,-47.3906,128.723,-57.283,7235.55,-222.77,995.938,-55.1313,-22.0064,-21.9835
4.0135,5447.06,2455.47,7512.07,-11.4903,-55.0049,-33.6077,15346.9,1345.53,17409.8,94.1335,271.658,-148.484,-1237.61,9523.45,753.348,-25.8272,-48.8657,-59.8682,-1859.66,-21361.7,-809.879,-107.156,15.6911,-318.569,-1414.58,8561.43,-1924.25,-3.51748,-101.53,-45.3475,2471.11,5641.36,-935.052,-47.0898,131.092,-56.055,7237.81,-197.462,1000.7,-55.0612,-22.0867,-21.6294
4.014,5460.6,2468.43,7517.37,-11.1999,-54.9312,-33.3223,15422.3,1199.12,17414.2,95.1431,271.068,-149.655,-1255.84,9519.87,773.931,-25.9754,-48.6268,-59.891,-1918.74,-21444.4,-800.609,-106.712,17.0847,-318.425,-1418.61,8570.93,-1942.84,-3.72481,-100.885,-45.4937,2467.81,5712.07,-948.269,-46.8446,133.193,-54.7211,7243.35,-169.603,1020.8,-54.9764,-22.082,-21.3013
4.0145,5474.14,2481.4,7522.68,-10.9096,-54.8576,-33.0369,15497.8,1052.7,17418.6,96.1526,270.478,-150.827,-1274.06,9516.29,794.515,-26.1237,-48.3878,-59.9138,-1977.82,-21527.2,-791.34,-106.268,18.4782,-318.281,-1422.64,8580.42,-1961.43,-3.93213,-100.239,-45.64,2464.51,5782.77,-961.486,-46.5994,135.295,-53.3871,7248.89,-141.745,1040.89,-54.8917,-22.0773,-20.9733
4.015,5487.68,2494.36,7527.98,-10.6192,-54.7839,-32.7515,15573.3,906.279,17423.1,97.1622,269.889,-151.998,-1292.28,9512.71,815.098,-26.2719,-48.1488,-59.9367,-2036.91,-21609.9,-782.07,-105.823,19.8718,-318.137,-1426.67,8589.92,-1980.01,-4.13946,-99.5931,-45.7862,2461.21,5853.47,-974.702,-46.3541,137.396,-52.0531,7254.42,-113.886,1060.99,-54.8069,-22.0725,-20.6452
4.0155,5501.22,2507.33,7533.29,-10.3288,-54.7103,-32.4661,15648.7,759.861,17427.5,98.1718,269.299,-153.17,-1310.5,9509.13,835.682,-26.4202,-47.9099,-59.9595,-2095.99,-21692.6,-772.8,-105.379,21.2654,-317.994,-1430.7,8599.42,-1998.6,-4.34678,-98.9474,-45.9325,2457.9,5924.17,-987.919,-46.1089,139.498,-50.7192,7259.96,-86.0277,1081.08,-54.7221,-22.0678,-20.3171
4.016,5514.76,2520.29,7538.59,-10.0385,-54.6367,-32.1807,15724.2,613.443,17431.9,99.1813,268.709,-154.341,-1328.72,9505.55,856.265,-26.5684,-47.6709,-59.9823,-2155.07,-21775.3,-763.53,-104.935,22.6589,-317.85,-1434.73,8608.91,-2017.18,-4.55411,-98.3017,-46.0787,2454.6,5994.88,-1001.14,-45.8637,141.599,-49.3852,7265.5,-58.1691,1101.17,-54.6374,-22.0631,-19.9891
4.0165,5528.3,2533.25,7543.89,-9.74813,-54.563,-31.8952,15799.6,467.025,17436.4,100.191,268.119,-155.513,-1346.94,9501.97,876.848,-26.7167,-47.432,-60.0051,-2214.15,-21858.0,-754.26,-104.491,24.0525,-317.706,-1438.76,8618.41,-2035.77,-4.76144,-97.656,-46.225,2451.3,6065.58,-1014.35,-45.6185,143.701,-48.0512,7271.04,-30.3105,1121.27,-54.5526,-22.0584,-19.661
4.017,5541.84,2546.22,7549.2,-9.45777,-54.4894,-31.6098,15875.1,320.607,17440.8,101.2,267.529,-156.684,-1365.16,9498.39,897.432,-26.865,-47.193,-60.0279,-2273.23,-21940.7,-744.99,-104.046,25.446,-317.562,-1442.79,8627.9,-2054.35,-4.96876,-97.0102,-46.3712,2448.0,6136.28,-1027.57,-45.3732,145.802,-46.7172,7276.58,-2.45192,1141.36,-54.4678,-22.0536,-19.3329
4.0175,5555.38,2559.18,7554.5,-9.16741,-54.4158,-31.3244,15950.5,174.189,17445.3,102.21,266.939,-157.856,-1383.38,9494.81,918.015,-27.0132,-46.9541,-60.0507,-2332.31,-22023.4,-735.721,-103.602,26.8396,-317.419,-1446.82,8637.4,-2072.94,-5.17609,-96.3645,-46.5174,2444.7,6206.98,-1040.79,-45.128,147.904,-45.3833,7282.12,25.4067,1161.46,-54.3831,-22.0489,-19.0049
4.018,5563.7,2569.69,7556.65,-8.9136,-54.3451,-31.0167,16020.4,-76.9862,17461.5,103.587,266.485,-159.28,-1393.05,9498.86,938.654,-27.1773,-46.681,-60.092,-2408.58,-22091.8,-771.004,-103.268,28.2752,-317.258,-1445.26,8651.31,-2102.6,-5.37845,-95.6818,-46.6781,2434.7,6271.01,-1074.94,-44.5945,149.934,-44.1149,7297.82,46.1979,1180.15,-54.2676,-22.0771,-18.6495
4.0185,5565.48,2577.12,7554.87,-8.70547,-54.2782,-30.681,16083.4,-459.107,17492.5,105.424,266.2,-161.018,-1392.04,9512.45,959.363,-27.3612,-46.3653,-60.1564,-2506.35,-22142.4,-861.978,-103.071,29.7633,-317.076,-1436.73,8670.74,-2146.11,-5.5746,-94.9528,-46.8567,2416.34,6326.69,-1135.27,-43.7005,151.874,-42.9285,7326.22,58.1549,1197.08,-54.1136,-22.1464,-18.2598
4.019,5567.26,2584.56,7553.08,-8.49733,-54.2113,-30.3453,16146.4,-841.228,17523.5,107.261,265.916,-162.757,-1391.02,9526.05,980.072,-27.5452,-46.0497,-60.2208,-2604.12,-22192.9,-952.953,-102.874,31.2514,-316.894,-1428.2,8690.17,-2189.62,-5.77076,-94.2237,-47.0352,2397.98,6382.37,-1195.6,-42.8066,153.814,-41.7422,7354.61,70.1119,1214.01,-53.9597,-22.2157,-17.8702
4.0195,5569.05,2592.0,7551.29,-8.2892,-54.1445,-30.0096,16209.5,-1223.35,17554.5,109.098,265.631,-164.495,-1390.01,9539.65,1000.78,-27.7291,-45.734,-60.2852,-2701.89,-22243.4,-1043.93,-102.677,32.7395,-316.713,-1419.67,8709.59,-2233.13,-5.96692,-93.4947,-47.2138,2379.61,6438.05,-1255.93,-41.9127,155.755,-40.5558,7383.01,82.0689,1230.94,-53.8058,-22.285,-17.4806
4.02,5570.83,2599.43,7549.51,-8.08106,-54.0776,-29.6739,16272.5,-1605.47,17585.5,110.935,265.347,-166.234,-1388.99,9553.24,1021.49,-27.913,-45.4184,-60.3496,-2799.66,-22293.9,-1134.9,-102.479,34.2277,-316.531,-1411.14,8729.02,-2276.63,-6.16308,-92.7657,-47.3924,2361.25,6493.73,-1316.26,-41.0188,157.695,-39.3694,7411.41,94.0259,1247.87,-53.6518,-22.3543,-17.091
4.0205,5572.61,2606.87,7547.72,-7.87293,-54.0107,-29.3382,16335.5,-1987.59,17616.5,112.771,265.062,-167.973,-1387.98,9566.84,1042.2,-28.0969,-45.1027,-60.414,-2897.43,-22344.4,-1225.88,-102.282,35.7158,-316.349,-1402.6,8748.45,-2320.14,-6.35923,-92.0367,-47.571,2342.88,6549.41,-1376.59,-40.1248,159.636,-38.1831,7439.8,105.983,1264.8,-53.4979,-22.4236,-16.7013
4.021,5574.4,2614.31,7545.93,-7.66479,-53.9438,-29.0025,16398.5,-2369.71,17647.5,114.608,264.778,-169.711,-1386.96,9580.43,1062.91,-28.2808,-44.787,-60.4784,-2995.2,-22395.0,-1316.85,-102.085,37.2039,-316.167,-1394.07,8767.88,-2363.65,-6.55539,-91.3077,-47.7496,2324.52,6605.09,-1436.92,-39.2309,161.576,-36.9967,7468.2,117.94,1281.73,-53.344,-22.4929,-16.3117
4.0215,5576.18,2621.74,7544.14,-7.45666,-53.8769,-28.6668,16461.5,-2751.83,17678.5,116.445,264.493,-171.45,-1385.95,9594.03,1083.62,-28.4648,-44.4714,-60.5428,-3092.97,-22445.5,-1407.83,-101.888,38.6921,-315.985,-1385.54,8787.31,-2407.16,-6.75155,-90.5787,-47.9282,2306.16,6660.77,-1497.25,-38.337,163.516,-35.8104,7496.6,129.897,1298.66,-53.19,-22.5623,-15.9221
4.022,5577.96,2629.18,7542.36,-7.24852,-53.81,-28.3311,16524.5,-3133.95,17709.5,118.282,264.209,-173.188,-1384.93,9607.63,1104.32,-28.6487,-44.1557,-60.6072,-3190.74,-22496.0,-1498.8,-101.691,40.1802,-315.803,-1377.01,8806.74,-2450.67,-6.94771,-89.8496,-48.1068,2287.79,6716.45,-1557.57,-37.4431,165.457,-34.624,7524.99,141.854,1315.59,-53.0361,-22.6316,-15.5324
4.0225,5574.37,2645.08,7541.17,-7.0358,-53.7546,-27.9746,16618.1,-3512.8,17686.9,119.568,264.158,-174.588,-1379.43,9622.15,1124.21,-28.7857,-43.8143,-60.6448,-3329.12,-22541.2,-1470.92,-101.243,41.0966,-315.655,-1362.23,8824.0,-2486.29,-7.17796,-88.9723,-48.2623,2243.05,6748.94,-1604.9,-36.8311,167.126,-33.4195,7546.72,168.411,1317.71,-52.6626,-22.6035,-15.2267
4.023,5566.48,2667.75,7540.45,-6.81939,-53.7083,-27.6016,16736.1,-3889.02,17621.3,120.414,264.295,-175.716,-1370.32,9637.42,1143.44,-28.8851,-43.4523,-60.6608,-3499.99,-22582.2,-1347.96,-100.593,41.5556,-315.533,-1342.44,8839.52,-2515.6,-7.4355,-87.9763,-48.3993,2177.19,6762.89,-1641.83,-36.4447,168.578,-32.2005,7563.11,206.649,1307.99,-52.1135,-22.4975,-14.988
4.0235,5558.59,2690.42,7539.74,-6.60299,-53.662,-27.2286,16854.2,-4265.24,17555.7,121.26,264.432,-176.844,-1361.22,9652.69,1162.67,-28.9845,-43.0904,-60.6768,-3670.87,-22623.2,-1225.01,-99.9429,42.0147,-315.411,-1322.66,8855.05,-2544.91,-7.69303,-86.9803,-48.5363,2111.34,6776.84,-1678.76,-36.0583,170.03,-30.9815,7579.51,244.887,1298.26,-51.5644,-22.3915,-14.7493
4.024,5550.7,2713.1,7539.02,-6.38658,-53.6157,-26.8555,16972.2,-4641.46,17490.1,122.106,264.569,-177.973,-1352.12,9667.96,1181.9,-29.084,-42.7284,-60.6928,-3841.74,-22664.2,-1102.05,-99.293,42.4737,-315.289,-1302.87,8870.57,-2574.22,-7.95057,-85.9842,-48.6733,2045.49,6790.78,-1715.68,-35.6719,171.483,-29.7626,7595.9,283.125,1288.54,-51.0152,-22.2855,-14.5106
4.0245,5542.81,2735.77,7538.31,-6.17018,-53.5695,-26.4825,17090.3,-5017.69,17424.5,122.951,264.706,-179.101,-1343.02,9683.22,1201.12,-29.1834,-42.3664,-60.7089,-4012.61,-22705.2,-979.089,-98.6432,42.9327,-315.168,-1283.09,8886.1,-2603.54,-8.20811,-84.9882,-48.8103,1979.64,6804.73,-1752.61,-35.2855,172.935,-28.5436,7612.29,321.363,1278.81,-50.4661,-22.1795,-14.272
4.025,5534.92,2758.44,7537.59,-5.95378,-53.5232,-26.1095,17208.3,-5393.91,17358.9,123.797,264.843,-180.229,-1333.92,9698.49,1220.35,-29.2828,-42.0045,-60.7249,-4183.49,-22746.2,-856.131,-97.9933,43.3918,-315.046,-1263.3,8901.62,-2632.85,-8.46564,-83.9922,-48.9473,1913.78,6818.68,-1789.54,-34.8991,174.387,-27.3246,7628.68,359.601,1269.09,-49.917,-22.0735,-14.0333
4.0255,5527.03,2781.11,7536.88,-5.73737,-53.4769,-25.7365,17326.4,-5770.13,17293.3,124.643,264.98,-181.357,-1324.82,9713.76,1239.58,-29.3822,-41.6425,-60.7409,-4354.36,-22787.2,-733.172,-97.3435,43.8508,-314.924,-1243.52,8917.15,-2662.16,-8.72318,-82.9962,-49.0843,1847.93,6832.63,-1826.46,-34.5127,175.84,-26.1056,7645.08,397.839,1259.36,-49.3679,-21.9675,-13.7946
4.026,5519.14,2803.78,7536.16,-5.52097,-53.4306,-25.3634,17444.4,-6146.35,17227.7,125.489,265.117,-182.486,-1315.72,9729.03,1258.81,-29.4817,-41.2805,-60.757,-4525.23,-22828.2,-610.214,-96.6936,44.3098,-314.802,-1223.74,8932.67,-2691.47,-8.98072,-82.0002,-49.2212,1782.08,6846.57,-1863.39,-34.1263,177.292,-24.8866,7661.47,436.077,1249.64,-48.8187,-21.8615,-13.5559
4.0265,5511.25,2826.45,7535.45,-5.30457,-53.3844,-24.9904,17562.4,-6522.57,17162.1,126.335,265.254,-183.614,-1306.62,9744.29,1278.04,-29.5811,-40.9186,-60.773,-4696.11,-22869.2,-487.255,-96.0438,44.7689,-314.68,-1203.95,8948.2,-2720.78,-9.23825,-81.0042,-49.3582,1716.23,6860.52,-1900.32,-33.7399,178.744,-23.6676,7677.86,474.315,1239.92,-48.2696,-21.7555,-13.3172
4.027,5508.58,2843.55,7547.62,-4.98737,-53.3898,-24.5575,17723.4,-6557.43,17031.5,126.67,265.369,-183.385,-1289.97,9766.24,1287.52,-29.6737,-40.4661,-60.7863,-4835.29,-22913.5,-223.598,-94.8146,44.2666,-314.484,-1180.21,8960.47,-2749.91,-9.41271,-79.9125,-49.4729,1624.93,6882.57,-1947.49,-33.309,180.071,-22.7679,7693.78,499.618,1233.23,-47.6236,-21.7191,-13.0425
4.0275,5508.52,2857.87,7566.24,-4.61978,-53.4211,-24.0947,17905.7,-6421.61,16868.5,126.751,265.474,-182.477,-1269.54,9791.52,1292.14,-29.7628,-39.9684,-60.7983,-4958.63,-22959.5,110.407,-93.2958,43.2836,-314.251,-1154.48,8971.13,-2778.95,-9.54563,-78.773,-49.5764,1520.91,6908.66,-1999.79,-32.8559,181.335,-22.0277,7709.46,518.455,1228.08,-46.9292,-21.7175,-12.7498
4.028,5508.45,2872.18,7584.85,-4.25218,-53.4524,-23.6319,18088.0,-6285.79,16705.4,126.832,265.579,-181.57,-1249.1,9816.81,1296.76,-29.852,-39.4707,-60.8103,-5081.98,-23005.5,444.412,-91.777,42.3007,-314.018,-1128.75,8981.77,-2807.98,-9.67855,-77.6336,-49.6799,1416.89,6934.75,-2052.08,-32.4027,182.6,-21.2876,7725.14,537.291,1222.92,-46.2348,-21.7159,-12.457
4.0285,5508.39,2886.49,7603.47,-3.88459,-53.4838,-23.169,18270.4,-6149.96,16542.4,126.912,265.683,-180.662,-1228.67,9842.09,1301.37,-29.9412,-38.9729,-60.8223,-5205.32,-23051.5,778.418,-90.2582,41.3177,-313.785,-1103.03,8992.42,-2837.02,-9.81147,-76.4941,-49.7834,1312.87,6960.85,-2104.38,-31.9496,183.864,-20.5475,7740.82,556.128,1217.76,-45.5404,-21.7144,-12.1643
4.029,5508.32,2900.81,7622.09,-3.517,-53.5151,-22.7062,18452.7,-6014.14,16379.3,126.993,265.788,-179.755,-1208.24,9867.37,1305.99,-30.0304,-38.4752,-60.8343,-5328.66,-23097.5,1112.42,-88.7394,40.3348,-313.551,-1077.3,9003.07,-2866.06,-9.94439,-75.3546,-49.8869,1208.85,6986.94,-2156.67,-31.4965,185.128,-19.8073,7756.5,574.964,1212.6,-44.846,-21.7128,-11.8715
4.0295,5508.26,2915.12,7640.71,-3.14941,-53.5464,-22.2434,18635.1,-5878.32,16216.3,127.074,265.893,-178.847,-1187.81,9892.66,1310.6,-30.1195,-37.9775,-60.8463,-5452.01,-23143.5,1446.43,-87.2206,39.3518,-313.318,-1051.58,9013.72,-2895.09,-10.0773,-74.2151,-49.9904,1104.82,7013.03,-2208.97,-31.0433,186.392,-19.0672,7772.18,593.8,1207.45,-44.1516,-21.7112,-11.5788
4.03,5508.2,2929.43,7659.32,-2.78181,-53.5777,-21.7806,18817.4,-5742.49,16053.2,127.154,265.997,-177.939,-1167.37,9917.94,1315.22,-30.2087,-37.4798,-60.8582,-5575.35,-23189.4,1780.43,-85.7018,38.3689,-313.085,-1025.85,9024.37,-2924.13,-10.2102,-73.0757,-50.0938,1000.8,7039.13,-2261.27,-30.5902,187.657,-18.3271,7787.86,612.637,1202.29,-43.4571,-21.7096,-11.286
4.0305,5508.13,2943.75,7677.94,-2.41422,-53.609,-21.3178,18999.8,-5606.67,15890.2,127.235,266.102,-177.032,-1146.94,9943.23,1319.84,-30.2979,-36.9821,-60.8702,-5698.69,-23235.4,2114.44,-84.183,37.3859,-312.852,-1000.12,9035.02,-2953.17,-10.3432,-71.9362,-50.1973,896.783,7065.22,-2313.56,-30.1371,188.921,-17.5869,7803.54,631.473,1197.13,-42.7627,-21.708,-10.9933
4.031,5508.07,2958.06,7696.56,-2.04663,-53.6403,-20.8549,19182.1,-5470.85,15727.1,127.316,266.207,-176.124,-1126.51,9968.51,1324.45,-30.387,-36.4844,-60.8822,-5822.03,-23281.4,2448.44,-82.6643,36.403,-312.619,-974.396,9045.67,-2982.21,-10.4761,-70.7967,-50.3008,792.762,7091.31,-2365.86,-29.6839,190.185,-16.8468,7819.22,650.31,1191.97,-42.0683,-21.7065,-10.7005
4.0315,5504.6,2964.26,7719.85,-1.61502,-53.6568,-20.4287,19310.4,-5087.98,15643.8,127.453,265.763,-174.758,-1117.29,9991.35,1317.15,-30.5345,-35.9412,-60.9213,-5947.82,-23289.7,2651.36,-81.7748,35.0131,-312.237,-938.357,9060.81,-3012.87,-10.6313,-69.5956,-50.4065,641.854,7069.79,-2461.88,-27.0707,190.839,-16.4418,7813.63,665.88,1222.05,-41.4684,-21.7808,-10.391
4.032,5500.15,2968.13,7744.48,-1.16513,-53.6691,-20.0128,19423.1,-4634.52,15583.2,127.606,265.163,-173.261,-1111.27,10013.5,1306.44,-30.6987,-35.385,-60.9681,-6074.29,-23287.3,2816.82,-81.0651,33.5068,-311.813,-899.37,9077.24,-3044.0,-10.793,-68.3768,-50.5127,477.55,7034.67,-2570.39,-23.8404,191.319,-16.1325,7801.95,680.516,1262.19,-40.8956,-21.8768,-10.0767
4.0325,5495.71,2972.01,7769.1,-0.71523,-53.6813,-19.597,19535.9,-4181.07,15522.6,127.759,264.564,-171.764,-1105.26,10035.6,1295.73,-30.8629,-34.8288,-61.0149,-6200.77,-23284.8,2982.29,-80.3554,32.0006,-311.389,-860.383,9093.66,-3075.13,-10.9546,-67.1581,-50.619,313.246,6999.54,-2678.9,-20.61,191.799,-15.8233,7790.27,695.153,1302.34,-40.3227,-21.9728,-9.76242
4.033,5491.26,2975.89,7793.73,-0.265333,-53.6936,-19.1811,19648.7,-3727.62,15462.0,127.912,263.964,-170.267,-1099.24,10057.8,1285.02,-31.027,-34.2726,-61.0618,-6327.25,-23282.4,3147.75,-79.6457,30.4944,-310.964,-821.397,9110.09,-3106.27,-11.1163,-65.9393,-50.7252,148.942,6964.42,-2787.42,-17.3797,192.278,-15.514,7778.6,709.79,1342.48,-39.7499,-22.0688,-9.44814
4.0335,5486.82,2979.77,7818.36,0.184563,-53.7058,-18.7653,19761.5,-3274.16,15401.4,128.065,263.364,-168.77,-1093.22,10079.9,1274.31,-31.1912,-33.7164,-61.1086,-6453.73,-23279.9,3313.21,-78.936,28.9881,-310.54,-782.41,9126.51,-3137.4,-11.278,-64.7205,-50.8315,-15.3617,6929.29,-2895.93,-14.1494,192.758,-15.2047,7766.92,724.427,1382.63,-39.177,-22.1648,-9.13385
4.034,5482.38,2983.64,7842.98,0.63446,-53.7181,-18.3494,19874.2,-2820.71,15340.8,128.218,262.764,-167.273,-1087.21,10102.1,1263.6,-31.3554,-33.1602,-61.1554,-6580.2,-23277.5,3478.67,-78.2263,27.4819,-310.116,-743.424,9142.94,-3168.53,-11.4396,-63.5018,-50.9377,-179.666,6894.16,-3004.44,-10.919,193.238,-14.8955,7755.25,739.064,1422.77,-38.6042,-22.2608,-8.81956
4.0345,5477.93,2987.52,7867.61,1.08436,-53.7303,-17.9336,19987.0,-2367.26,15280.2,128.372,262.164,-165.776,-1081.19,10124.2,1252.89,-31.5195,-32.6041,-61.2022,-6706.68,-23275.0,3644.14,-77.5166,25.9757,-309.692,-704.437,9159.37,-3199.66,-11.6013,-62.283,-51.044,-343.97,6859.04,-3112.96,-7.68866,193.718,-14.5862,7743.57,753.701,1462.91,-38.0313,-22.3568,-8.50527
4.035,5473.49,2991.4,7892.24,1.53425,-53.7426,-17.5178,20099.8,-1913.8,15219.6,128.525,261.564,-164.279,-1075.17,10146.4,1242.18,-31.6837,-32.0479,-61.249,-6833.16,-23272.6,3809.6,-76.8069,24.4694,-309.268,-665.451,9175.79,-3230.79,-11.7629,-61.0642,-51.1502,-508.274,6823.91,-3221.47,-4.45832,194.197,-14.2769,7731.9,768.338,1503.06,-37.4584,-22.4528,-8.19098
4.0355,5469.04,2995.28,7916.86,1.98415,-53.7548,-17.1019,20212.6,-1460.35,15159.0,128.678,260.965,-162.782,-1069.16,10168.5,1231.47,-31.8479,-31.4917,-61.2958,-6959.64,-23270.1,3975.06,-76.0972,22.9632,-308.844,-626.464,9192.22,-3261.92,-11.9246,-59.8455,-51.2565,-672.578,6788.79,-3329.98,-1.22797,194.677,-13.9677,7720.22,782.974,1543.2,-36.8856,-22.5488,-7.87669
4.036,5468.27,2995.78,7920.69,2.24466,-53.7755,-16.7702,20215.9,-1176.9,15113.7,128.243,260.034,-162.501,-1067.24,10178.3,1230.57,-32.0107,-31.008,-61.3349,-7029.08,-23210.7,3919.16,-75.968,22.4163,-308.291,-595.47,9204.03,-3256.69,-12.1226,-58.6283,-51.4852,-870.235,6735.29,-3400.48,2.77644,193.872,-13.7989,7711.04,792.38,1556.84,-36.5104,-22.7969,-7.54197
4.0365,5467.97,2995.86,7921.92,2.4815,-53.7973,-16.4491,20205.4,-914.697,15070.3,127.734,259.062,-162.373,-1065.83,10186.6,1230.89,-32.1735,-30.5335,-61.373,-7091.38,-23144.1,3835.58,-75.9113,21.9894,-307.722,-565.476,9215.26,-3246.91,-12.3252,-57.4114,-51.7293,-1072.06,6679.49,-3466.24,6.87761,192.907,-13.6476,7702.18,801.132,1567.16,-36.16,-23.064,-7.2047
4.037,5467.66,2995.94,7923.15,2.71834,-53.8191,-16.1279,20195.0,-652.496,15026.8,127.225,258.091,-162.244,-1064.42,10194.9,1231.21,-32.3362,-30.0589,-61.4111,-7153.69,-23077.5,3752.01,-75.8547,21.5624,-307.154,-535.481,9226.5,-3237.13,-12.5278,-56.1945,-51.9734,-1273.89,6623.69,-3531.99,10.9788,191.942,-13.4964,7693.31,809.884,1577.48,-35.8096,-23.3312,-6.86742
4.0375,5467.35,2996.02,7924.38,2.95518,-53.8409,-15.8067,20184.6,-390.295,14983.4,126.717,257.119,-162.116,-1063.0,10203.1,1231.53,-32.4989,-29.5843,-61.4492,-7216.0,-23010.9,3668.43,-75.798,21.1355,-306.585,-505.487,9237.73,-3227.36,-12.7305,-54.9775,-52.2175,-1475.71,6567.89,-3597.74,15.0799,190.977,-13.3451,7684.44,818.636,1587.81,-35.4592,-23.5983,-6.53015
4.038,5467.04,2996.11,7925.61,3.19202,-53.8627,-15.4856,20174.2,-128.094,14940.0,126.208,256.147,-161.987,-1061.59,10211.4,1231.84,-32.6616,-29.1098,-61.4873,-7278.31,-22944.3,3584.86,-75.7413,20.7085,-306.017,-475.492,9248.96,-3217.58,-12.9331,-53.7606,-52.4615,-1677.54,6512.09,-3663.49,19.1811,190.012,-13.1939,7675.58,827.387,1598.13,-35.1087,-23.8654,-6.19287
4.0385,5466.73,2996.19,7926.84,3.42887,-53.8845,-15.1644,20163.8,134.108,14896.5,125.699,255.175,-161.858,-1060.18,10219.7,1232.16,-32.8243,-28.6352,-61.5254,-7340.62,-22877.7,3501.28,-75.6846,20.2816,-305.448,-445.497,9260.2,-3207.8,-13.1357,-52.5436,-52.7056,-1879.37,6456.29,-3729.24,23.2823,189.047,-13.0426,7666.71,836.139,1608.45,-34.7583,-24.1326,-5.8556
4.039,5466.42,2996.27,7928.07,3.66571,-53.9062,-14.8433,20153.4,396.309,14853.1,125.19,254.204,-161.73,-1058.77,10227.9,1232.48,-32.987,-28.1606,-61.5635,-7402.93,-22811.1,3417.71,-75.628,19.8546,-304.879,-415.503,9271.43,-3198.02,-13.3383,-51.3267,-52.9497,-2081.19,6400.49,-3794.99,27.3834,188.082,-12.8914,7657.84,844.891,1618.77,-34.4079,-24.3997,-5.51833
4.0395,5466.12,2996.35,7929.29,3.90255,-53.928,-14.5221,20142.9,658.51,14809.7,124.682,253.232,-161.601,-1057.36,10236.2,1232.8,-33.1498,-27.6861,-61.6016,-7465.24,-22744.5,3334.13,-75.5713,19.4277,-304.311,-385.508,9282.67,-3188.24,-13.5409,-50.1098,-53.1938,-2283.02,6344.69,-3860.74,31.4846,187.117,-12.7401,7648.98,853.643,1629.1,-34.0574,-24.6668,-5.18105
4.04,5465.81,2996.43,7930.52,4.13939,-53.9498,-14.2009,20132.5,920.711,14766.3,124.173,252.26,-161.473,-1055.95,10244.5,1233.12,-33.3125,-27.2115,-61.6397,-7527.54,-22677.9,3250.56,-75.5146,19.0007,-303.742,-355.514,9293.9,-3178.47,-13.7435,-48.8928,-53.4378,-2484.84,6288.89,-3926.49,35.5858,186.152,-12.5889,7640.11,862.395,1639.42,-33.707,-24.934,-4.84378
4.0405,5469.21,3001.46,7917.55,4.30978,-53.9756,-13.8338,20071.6,809.329,14683.4,122.505,251.219,-162.351,-1065.16,10250.0,1238.64,-33.466,-26.8006,-61.707,-7537.48,-22620.1,3152.51,-75.0695,19.9221,-302.982,-301.559,9323.77,-3169.75,-13.9756,-47.7984,-53.5276,-2698.53,6379.95,-3912.42,38.1284,184.497,-12.3045,7617.29,894.806,1660.54,-33.3517,-25.2291,-4.54607
4.041,5472.6,3006.49,7904.57,4.48018,-54.0013,-13.4666,20010.7,697.947,14600.6,120.837,250.178,-163.228,-1074.37,10255.6,1244.16,-33.6196,-26.3896,-61.7743,-7547.42,-22562.3,3054.46,-74.6244,20.8435,-302.223,-247.605,9353.64,-3161.04,-14.2077,-46.704,-53.6173,-2912.21,6471.01,-3898.35,40.6711,182.842,-12.0201,7594.46,927.217,1681.67,-32.9963,-25.5243,-4.24837
4.0415,5476.0,3011.53,7891.6,4.65058,-54.0271,-13.0994,19949.8,586.565,14517.7,119.169,249.136,-164.106,-1083.58,10261.2,1249.68,-33.7732,-25.9787,-61.8416,-7557.36,-22504.4,2956.41,-74.1793,21.7648,-301.463,-193.65,9383.51,-3152.32,-14.4398,-45.6096,-53.707,-3125.9,6562.07,-3884.29,43.2137,181.187,-11.7357,7571.64,959.629,1702.79,-32.6409,-25.8194,-3.95067
4.042,5479.4,3016.56,7878.63,4.82097,-54.0528,-12.7322,19888.9,475.184,14434.8,117.501,248.095,-164.984,-1092.79,10266.8,1255.2,-33.9268,-25.5677,-61.9089,-7567.3,-22446.6,2858.36,-73.7342,22.6862,-300.703,-139.696,9413.38,-3143.61,-14.6719,-44.5152,-53.7967,-3339.58,6653.13,-3870.22,45.7564,179.531,-11.4513,7548.81,992.04,1723.92,-32.2856,-26.1145,-3.65296
4.0425,5482.8,3021.59,7865.65,4.99137,-54.0786,-12.3651,19828.0,363.802,14352.0,115.833,247.054,-165.862,-1102.0,10272.4,1260.72,-34.0804,-25.1568,-61.9762,-7577.24,-22388.8,2760.31,-73.2891,23.6076,-299.943,-85.7415,9443.25,-3134.9,-14.904,-43.4207,-53.8864,-3553.26,6744.19,-3856.15,48.299,177.876,-11.1669,7525.98,1024.45,1745.04,-31.9302,-26.4097,-3.35526
4.043,5486.2,3026.62,7852.68,5.16177,-54.1043,-11.9979,19767.1,252.42,14269.1,114.165,246.012,-166.74,-1111.21,10278.0,1266.24,-34.2339,-24.7458,-62.0434,-7587.17,-22331.0,2662.26,-72.8439,24.529,-299.184,-31.787,9473.12,-3126.18,-15.136,-42.3263,-53.9761,-3766.95,6835.25,-3842.08,50.8416,176.221,-10.8825,7503.16,1056.86,1766.17,-31.5748,-26.7048,-3.05755
4.0435,5489.6,3031.65,7839.7,5.33216,-54.1301,-11.6307,19706.2,141.038,14186.3,112.497,244.971,-167.617,-1120.42,10283.6,1271.75,-34.3875,-24.3349,-62.1107,-7597.11,-22273.2,2564.21,-72.3988,25.4503,-298.424,22.1674,9502.99,-3117.47,-15.3681,-41.2319,-54.0658,-3980.63,6926.31,-3828.02,53.3843,174.566,-10.5981,7480.33,1089.27,1787.29,-31.2195,-27.0,-2.75985
4.044,5493.0,3036.68,7826.73,5.50256,-54.1559,-11.2635,19645.3,29.656,14103.4,110.829,243.93,-168.495,-1129.63,10289.2,1277.27,-34.5411,-23.924,-62.178,-7607.05,-22215.4,2466.16,-71.9537,26.3717,-297.664,76.1219,9532.86,-3108.75,-15.6002,-40.1375,-54.1555,-4194.32,7017.36,-3813.95,55.9269,172.911,-10.3137,7457.51,1121.69,1808.41,-30.8641,-27.2951,-2.46214
4.0445,5496.07,3040.68,7815.29,5.67565,-54.182,-10.8942,19587.6,-101.456,14017.3,109.113,242.879,-169.356,-1138.8,10295.3,1282.88,-34.695,-23.5193,-62.244,-7614.79,-22159.3,2383.12,-71.4813,27.3418,-296.852,129.498,9560.62,-3101.35,-15.8381,-39.0514,-54.2631,-4407.88,7108.69,-3799.24,58.452,171.193,-10.0807,7434.89,1152.59,1827.81,-30.5392,-27.578,-2.17308
