Time,RFoot_accel.x,RFoot_accel.y,RFoot_accel.z,RFoot_gyro.x,RFoot_gyro.y,RFoot_gyro.z,LFoot_accel.x,LFoot_accel.y,LFoot_accel.z,LFoot_gyro.x,LFoot_gyro.y,LFoot_gyro.z,RShank_accel.x,RShank_accel.y,RShank_accel.z,RShank_gyro.x,RShank_gyro.y,RShank_gyro.z,LShank_accel.x,LShank_accel.y,LShank_accel.z,LShank_gyro.x,LShank_gyro.y,LShank_gyro.z,RThigh_accel.x,RThigh_accel.y,RThigh_accel.z,RThigh_gyro.x,RThigh_gyro.y,RThigh_gyro.z,LThigh_accel.x,LThigh_accel.y,LThigh_accel.z,LThigh_gyro.x,LThigh_gyro.y,LThigh_gyro.z,Pelvis_accel.x,Pelvis_accel.y,Pelvis_accel.z,Pelvis_gyro.x,Pelvis_gyro.y,Pelvis_gyro.z
2.23,10537.6,15913.6,8768.35,-1.19071,-624.976,280.718,248.01,11713.9,-186.889,84.1269,-64.7316,-104.812,228.47,13449.2,580.118,-30.9231,-15.6552,-113.417,4368.89,-98.6593,10227.6,16.4764,5.2255,4.71148,8297.78,-15507.9,-4068.47,58.9951,-252.253,165.546,12300.6,-270.757,4419.49,-5.84043,19.4397,34.7144,-4527.86,-15434.5,3058.75,39.9885,-57.2411,-74.9762
2.231,12011.4,18190.5,8016.57,-7.16541,-616.047,280.64,-145.353,12524.1,-504.93,86.4074,-58.7053,-104.686,61.0268,13723.6,729.199,-30.0783,-14.1208,-110.898,4080.04,-87.164,10250.4,14.627,4.70284,4.31784,8587.0,-15071.9,-4442.39,55.1554,-246.231,165.224,12177.5,-64.066,4391.56,-6.24517,20.3895,33.7483,-5115.63,-15464.1,3005.82,40.7033,-54.8218,-75.2904
2.232,13671.8,19700.1,7614.38,-12.0985,-601.493,281.606,-623.981,13345.4,-642.143,87.8666,-51.7533,-102.676,50.3009,13799.4,698.198,-28.6076,-13.7379,-108.017,3918.86,-224.569,10199.2,12.655,4.45702,3.48299,8902.3,-14661.7,-5090.89,49.9107,-232.108,165.675,12059.0,139.363,4376.92,-6.79015,20.9661,32.5948,-5550.64,-15514.1,2861.79,40.6082,-52.4012,-76.9309
2.233,15355.6,21113.8,7255.88,-16.9014,-586.236,282.702,-1113.27,14168.1,-756.753,89.223,-44.6855,-100.43,59.1647,13850.3,644.687,-27.0587,-13.4989,-105.092,3773.63,-380.586,10138.7,10.6678,4.24581,2.593,9220.85,-14254.7,-5773.72,44.4904,-216.971,166.223,11941.1,342.385,4363.95,-7.35266,21.496,31.4179,-5966.55,-15566.7,2706.36,40.412,-49.9805,-78.7371
2.234,17039.3,22527.5,6897.38,-21.7044,-570.979,283.798,-1602.55,14990.8,-871.363,90.5795,-37.6178,-98.1842,68.0284,13901.3,591.176,-25.5097,-13.26,-102.167,3628.41,-536.603,10078.3,8.68048,4.03459,1.70301,9539.41,-13847.7,-6456.54,39.07,-201.835,166.771,11823.1,545.406,4350.97,-7.91517,22.0259,30.241,-6382.46,-15619.3,2550.94,40.2157,-47.5597,-80.5433
2.235,18723.1,23941.2,6538.87,-26.5073,-555.721,284.894,-2091.84,15813.5,-985.973,91.936,-30.55,-95.9383,76.8922,13952.2,537.664,-23.9608,-13.021,-99.2412,3483.19,-692.62,10017.8,6.6932,3.82338,0.813021,9857.97,-13440.6,-7139.37,33.6497,-186.699,167.318,11705.2,748.427,4338.0,-8.47768,22.5559,29.0641,-6798.37,-15671.9,2395.51,40.0195,-45.139,-82.3495
2.236,19904.1,24489.2,6267.75,-34.0246,-540.933,286.319,-2559.37,16513.2,-1136.83,91.9335,-24.0283,-93.4116,4.44435,13918.2,504.823,-21.9967,-12.5045,-96.537,3466.39,-801.088,9956.51,4.82556,3.58184,-0.0816553,10128.5,-13064.2,-7762.69,29.2913,-170.58,167.842,11598.9,916.535,4300.89,-9.10104,23.1444,27.8006,-7133.85,-15757.4,2266.78,39.2132,-43.5745,-84.8148
2.237,20456.7,23955.1,6105.83,-44.9349,-526.732,288.154,-2999.72,17059.2,-1332.99,90.2324,-18.1891,-90.5338,-169.643,13778.1,497.82,-19.5137,-11.6409,-94.1093,3610.13,-850.12,9894.17,3.10748,3.30239,-0.982189,10339.0,-12725.9,-8311.63,26.2603,-153.234,168.336,11507.3,1041.0,4233.63,-9.80048,23.806,26.4288,-7368.77,-15883.9,2171.4,37.6445,-43.0803,-88.1039
2.238,21009.3,23421.0,5943.92,-55.8453,-512.53,289.989,-3440.06,17605.3,-1529.15,88.5313,-12.3499,-87.656,-343.73,13637.9,490.817,-17.0307,-10.7773,-91.6816,3753.87,-899.152,9831.82,1.3894,3.02294,-1.88272,10549.5,-12387.7,-8860.58,23.2293,-135.887,168.83,11415.7,1165.47,4166.37,-10.4999,24.4677,25.057,-7603.7,-16010.4,2076.02,36.0758,-42.5861,-91.3929
2.239,21561.9,22886.9,5782.0,-66.7556,-498.329,291.824,-3880.41,18151.3,-1725.32,86.8301,-6.51072,-84.7782,-517.818,13497.8,483.813,-14.5476,-9.91371,-89.2539,3897.61,-948.184,9769.47,-0.328683,2.74349,-2.78326,10759.9,-12049.4,-9409.52,20.1983,-118.541,169.324,11324.0,1289.93,4099.11,-11.1993,25.1293,23.6851,-7838.62,-16136.9,1980.65,34.507,-42.0919,-94.682
2.24,22114.6,22352.8,5620.08,-77.6659,-484.128,293.659,-4320.75,18697.3,-1921.48,85.129,-0.671516,-81.9005,-691.905,13357.6,476.81,-12.0646,-9.05012,-86.8262,4041.35,-997.216,9707.13,-2.04676,2.46404,-3.68379,10970.4,-11711.1,-9958.47,17.1674,-101.194,169.818,11232.4,1414.4,4031.85,-11.8988,25.791,22.3133,-8073.55,-16263.4,1885.27,32.9383,-41.5977,-97.9711
2.241,21287.2,21405.9,6044.32,-87.2272,-475.983,297.359,-4651.8,18925.9,-2070.23,80.8032,1.78943,-80.3712,-959.823,13114.5,700.657,-9.54653,-9.39919,-85.6813,4170.21,-1025.58,9744.72,-3.49077,2.08096,-3.79473,10953.3,-11562.8,-10057.8,16.9727,-88.104,169.499,11114.3,1499.07,3988.13,-12.4405,26.446,20.8265,-8221.97,-16406.2,1840.73,30.7074,-44.3062,-101.786
2.242,20459.9,20458.9,6468.55,-96.7884,-467.838,301.059,-4982.84,19154.5,-2218.97,76.4773,4.25037,-78.8419,-1227.74,12871.4,924.503,-7.02843,-9.74825,-84.5364,4299.07,-1053.95,9782.31,-4.93477,1.69788,-3.90567,10936.3,-11414.4,-10157.2,16.7781,-75.0139,169.18,10996.2,1583.75,3944.41,-12.9822,27.1011,19.3396,-8370.39,-16549.0,1796.2,28.4765,-47.0147,-105.6
2.243,19632.5,19512.0,6892.78,-106.35,-459.693,304.759,-5313.88,19383.1,-2367.72,72.1515,6.71132,-77.3126,-1495.66,12628.3,1148.35,-4.51033,-10.0973,-83.3915,4427.93,-1082.31,9819.9,-6.37878,1.3148,-4.01662,10919.2,-11266.0,-10256.6,16.5835,-61.9238,168.861,10878.1,1668.43,3900.7,-13.524,27.7562,17.8527,-8518.81,-16691.8,1751.66,26.2457,-49.7232,-109.414
2.244,18805.2,18565.0,7317.02,-115.911,-451.548,308.459,-5644.92,19611.7,-2516.46,67.8257,9.17226,-75.7833,-1763.58,12385.2,1372.2,-1.99223,-10.4464,-82.2466,4556.79,-1110.68,9857.49,-7.82279,0.931725,-4.12756,10902.1,-11117.6,-10355.9,16.3889,-48.8337,168.542,10760.0,1753.1,3856.98,-14.0657,28.4113,16.3659,-8667.23,-16834.5,1707.12,24.0148,-52.4316,-113.229
2.245,17657.6,17783.4,7646.52,-123.854,-445.283,312.692,-5866.84,19686.3,-2556.06,63.9472,9.16962,-75.5651,-1842.62,12152.2,1593.65,-0.0221298,-12.2629,-81.4552,4527.52,-1156.03,9884.98,-9.357,0.505463,-4.07516,10745.9,-11011.5,-10364.8,16.0975,-38.3919,167.631,10673.3,1822.53,3808.73,-14.6444,28.8232,14.7501,-8748.78,-16965.8,1636.16,21.8133,-56.4952,-116.764
2.246,16253.8,17134.2,7900.23,-130.503,-440.522,317.353,-6001.47,19637.7,-2508.33,60.4267,7.19609,-76.3958,-1770.57,11927.4,1813.19,1.50957,-15.2534,-80.9466,4371.75,-1214.96,9904.41,-10.9634,0.0446535,-3.89208,10478.5,-10939.3,-10301.3,15.7288,-30.0689,166.247,10611.9,1879.76,3756.84,-15.2528,29.0406,13.0311,-8776.82,-17088.0,1544.05,19.6354,-61.6429,-120.074
2.247,14849.9,16484.9,8153.94,-137.152,-435.761,322.013,-6136.09,19589.1,-2460.61,56.9062,5.22257,-77.2265,-1698.52,11702.6,2032.72,3.04126,-18.2439,-80.438,4215.98,-1273.89,9923.83,-12.5698,-0.416156,-3.70901,10211.0,-10867.0,-10237.8,15.36,-21.7459,164.862,10550.4,1936.99,3704.96,-15.8611,29.2581,11.3121,-8804.87,-17210.1,1451.94,17.4575,-66.7905,-123.385
2.248,13446.1,15835.7,8407.65,-143.801,-431.0,326.673,-6270.72,19540.5,-2412.88,53.3857,3.24905,-78.0571,-1626.47,11477.8,2252.26,4.57296,-21.2344,-79.9295,4060.21,-1332.83,9943.25,-14.1762,-0.876965,-3.52593,9943.58,-10794.7,-10174.3,14.9912,-13.4228,163.477,10488.9,1994.22,3653.07,-16.4694,29.4755,9.59313,-8832.92,-17332.2,1359.83,15.2796,-71.9382,-126.696
2.249,12063.6,15236.4,8658.39,-150.383,-426.141,331.633,-6393.93,19471.2,-2348.02,50.186,1.03171,-79.0805,-1548.61,11264.4,2435.57,6.04381,-24.3639,-79.3876,3897.98,-1392.59,9956.59,-15.8001,-1.33202,-3.39438,9652.3,-10713.5,-10125.2,14.5661,-5.37749,162.022,10419.3,2047.99,3600.68,-17.1252,29.6811,7.89657,-8848.71,-17445.1,1264.44,13.0462,-77.0966,-129.831
2.25,10851.9,15037.5,8885.33,-156.429,-420.504,338.994,-6425.83,19235.5,-2146.11,49.5533,-3.13612,-81.6459,-1424.26,11142.6,2329.04,7.02793,-28.605,-78.579,3684.09,-1458.98,9921.26,-17.5646,-1.74107,-3.67505,9170.42,-10560.4,-10190.9,13.6905,0.446387,160.009,10283.8,2074.08,3544.21,-18.1608,29.7922,6.37939,-8766.45,-17484.0,1142.81,10.369,-82.3419,-131.562
2.251,9640.23,14838.6,9112.26,-162.474,-414.867,346.355,-6457.73,18999.8,-1944.21,48.9206,-7.30396,-84.2113,-1299.91,11020.8,2222.51,8.01205,-32.8462,-77.7704,3470.2,-1525.38,9885.93,-19.329,-2.15012,-3.95572,8688.54,-10407.3,-10256.7,12.8148,6.27026,157.995,10148.3,2100.17,3487.74,-19.1963,29.9033,4.86222,-8684.2,-17522.9,1021.17,7.69181,-87.5871,-133.294
2.252,8428.56,14639.6,9339.2,-168.519,-409.23,353.715,-6489.64,18764.2,-1742.3,48.2879,-11.4718,-86.7766,-1175.56,10899.0,2115.99,8.99617,-37.0873,-76.9618,3256.3,-1591.77,9850.61,-21.0935,-2.55917,-4.23639,8206.66,-10254.3,-10322.4,11.9392,12.0941,155.982,10012.9,2126.26,3431.26,-20.2319,30.0144,3.34504,-8601.94,-17561.7,899.529,5.01462,-92.8324,-135.025
2.253,7216.88,14440.7,9566.14,-174.565,-403.593,361.076,-6521.54,18528.5,-1540.39,47.6552,-15.6396,-89.342,-1051.21,10777.2,2009.46,9.98029,-41.3285,-76.1533,3042.41,-1658.16,9815.28,-22.8579,-2.96822,-4.51705,7724.78,-10101.2,-10388.1,11.0636,17.918,153.968,9877.39,2152.34,3374.79,-21.2675,30.1256,1.82786,-8519.69,-17600.6,777.891,2.33742,-98.0776,-136.757
2.254,6166.57,13986.7,10181.2,-180.78,-401.658,366.157,-6556.46,18200.4,-1422.01,48.2242,-19.1003,-91.8949,-1009.63,10630.6,1818.44,10.608,-44.7837,-75.0025,2912.58,-1728.22,9739.99,-24.4953,-3.20434,-5.16516,7203.5,-9929.83,-10413.7,10.53,21.7331,151.025,9800.89,2157.92,3317.41,-22.3969,30.1806,0.44257,-8418.57,-17649.5,718.643,1.02248,-102.1,-137.214
2.255,5196.94,13405.2,10990.3,-187.081,-401.574,370.097,-6592.89,17826.1,-1345.4,49.3941,-22.2074,-94.4416,-1009.43,10471.5,1585.17,11.0574,-47.8458,-73.6806,2824.79,-1800.11,9644.72,-26.0691,-3.35401,-5.99699,6662.53,-9749.31,-10419.1,10.1674,24.5437,147.616,9753.87,2153.25,3259.58,-23.5734,30.2076,-0.87678,-8308.01,-17703.5,690.592,0.388651,-105.51,-137.033
2.256,4227.31,12823.6,11799.4,-193.381,-401.491,374.037,-6629.33,17451.7,-1268.79,50.564,-25.3146,-96.9883,-1009.22,10312.5,1351.9,11.5068,-50.908,-72.3587,2736.99,-1872.0,9549.45,-27.6428,-3.50367,-6.82882,6121.56,-9568.79,-10424.5,9.80481,27.3544,144.207,9706.85,2148.58,3201.74,-24.7498,30.2346,-2.19613,-8197.46,-17757.5,662.54,-0.245174,-108.921,-136.853
2.257,3257.68,12242.1,12608.6,-199.681,-401.407,377.977,-6665.76,17077.4,-1192.17,51.7339,-28.4217,-99.535,-1009.02,10153.4,1118.63,11.9562,-53.9702,-71.0368,2649.2,-1943.89,9454.17,-29.2166,-3.65333,-7.66065,5580.58,-9388.26,-10430.0,9.44223,30.165,140.798,9659.83,2143.91,3143.91,-25.9263,30.2616,-3.51548,-8086.91,-17811.5,634.488,-0.878999,-112.331,-136.672
2.258,2395.39,11310.4,13482.8,-206.411,-402.571,377.969,-6679.08,16690.4,-1135.16,53.3727,-31.0186,-101.669,-1016.61,10007.2,899.072,12.2832,-56.6949,-69.7081,2610.76,-2012.07,9358.7,-30.6529,-3.76637,-8.48914,5068.2,-9209.89,-10331.4,9.18009,31.8599,137.093,9622.44,2126.63,3088.27,-26.966,30.2044,-4.76536,-7948.42,-17826.4,588.852,-1.4672,-115.229,-136.064
2.259,1908.78,9153.48,14584.7,-214.641,-408.102,364.139,-6611.5,16259.0,-1146.77,56.6523,-31.8297,-102.36,-1051.47,9905.92,727.49,12.1815,-58.2385,-68.3559,2745.09,-2067.29,9262.53,-31.6078,-3.7512,-9.30595,4655.9,-9039.03,-9868.59,9.26953,29.6498,132.348,9618.75,2065.2,3040.33,-27.5269,29.8524,-5.7721,-7712.16,-17704.4,481.672,-1.89571,-116.33,-133.957
2.26,1422.16,6996.51,15686.7,-222.872,-413.632,350.309,-6543.92,15827.6,-1158.38,59.9319,-32.6409,-103.051,-1086.33,9804.69,555.907,12.0798,-59.7821,-67.0036,2879.42,-2122.51,9166.36,-32.5627,-3.73604,-10.1228,4243.6,-8868.18,-9405.82,9.35896,27.4396,127.603,9615.06,2003.78,2992.38,-28.0879,29.5005,-6.77884,-7475.89,-17582.4,374.491,-2.32423,-117.431,-131.851
2.261,935.544,4839.54,16788.7,-231.103,-419.162,336.479,-6476.35,15396.2,-1169.99,63.2115,-33.4521,-103.742,-1121.18,9703.46,384.324,11.9781,-61.3256,-65.6513,3013.74,-2177.73,9070.2,-33.5176,-3.72088,-10.9396,3831.3,-8697.32,-8943.05,9.44839,25.2294,122.858,9611.37,1942.35,2944.44,-28.6489,29.1485,-7.78558,-7239.63,-17460.4,267.311,-2.75274,-118.532,-129.744
2.262,448.928,2682.57,17890.7,-239.334,-424.692,322.65,-6408.77,14964.8,-1181.6,66.4911,-34.2633,-104.433,-1156.04,9602.22,212.742,11.8764,-62.8692,-64.2991,3148.07,-2232.95,8974.03,-34.4725,-3.70571,-11.7564,3419.0,-8526.46,-8480.28,9.53783,23.0192,118.114,9607.68,1880.92,2896.49,-29.2098,28.7965,-8.79232,-7003.37,-17338.4,160.131,-3.18125,-119.633,-127.638
2.263,751.952,2254.1,16971.2,-258.22,-420.373,308.485,-6304.68,14482.6,-1228.13,70.0536,-33.4304,-103.764,-1107.56,9499.84,160.951,11.2928,-64.2246,-63.5683,3252.17,-2277.0,8929.7,-35.2349,-3.87337,-12.3754,3074.24,-8280.83,-7727.02,9.47226,18.1436,113.34,9582.99,1851.37,2834.71,-29.682,28.5853,-9.86953,-6666.65,-17201.3,83.6887,-3.41246,-119.156,-125.55
2.264,1280.59,2319.49,15474.2,-280.152,-413.24,294.224,-6190.17,13985.8,-1284.65,73.6968,-32.1278,-102.705,-1035.26,9397.13,143.387,10.5714,-65.5263,-63.015,3347.63,-2317.87,8900.18,-35.9424,-4.09326,-12.938,2748.77,-8013.84,-6890.77,9.36241,12.5065,108.558,9552.31,1830.92,2768.97,-30.1288,28.4143,-10.9669,-6301.24,-17059.9,16.0294,-3.5873,-118.228,-123.467
2.265,1809.22,2384.88,13977.1,-302.083,-406.106,279.963,-6075.66,13489.0,-1341.17,77.3401,-30.8252,-101.647,-962.96,9294.42,125.823,9.85005,-66.828,-62.4618,3443.1,-2358.74,8870.67,-36.6499,-4.31316,-13.5005,2423.31,-7746.85,-6054.52,9.25257,6.86928,103.776,9521.62,1810.47,2703.23,-30.5755,28.2434,-12.0642,-5935.82,-16918.5,-51.63,-3.76214,-117.301,-121.385
2.266,2337.86,2450.27,12480.1,-324.014,-398.973,265.702,-5961.15,12992.3,-1397.69,80.9834,-29.5226,-100.588,-890.662,9191.71,108.259,9.1287,-68.1297,-61.9085,3538.56,-2399.6,8841.15,-37.3573,-4.53305,-14.063,2097.84,-7479.86,-5218.26,9.14272,1.2321,98.9943,9490.93,1790.02,2637.49,-31.0223,28.0724,-13.1616,-5570.41,-16777.1,-119.289,-3.93697,-116.374,-119.303
2.267,3033.96,2973.21,11665.7,-334.059,-389.688,251.751,-5816.03,12538.4,-1450.36,84.4514,-28.029,-99.2023,-799.611,9111.27,89.9571,8.33765,-69.5022,-61.716,3552.67,-2444.92,8818.03,-38.0092,-4.76645,-14.5203,1714.86,-7194.06,-4478.04,8.61953,-3.69132,94.4144,9472.91,1779.95,2581.28,-31.7797,27.9477,-14.2089,-5168.66,-16623.7,-189.647,-4.03912,-115.018,-117.629
2.268,4064.98,4411.25,12216.5,-320.331,-376.098,238.421,-5609.69,12170.3,-1495.33,87.5689,-26.1534,-97.1613,-671.054,9075.34,70.1805,7.40721,-71.0162,-62.2451,3404.08,-2499.16,8807.7,-38.5497,-5.02685,-14.7671,1216.86,-6870.65,-3929.9,7.26969,-7.18725,90.2386,9480.21,1790.64,2544.12,-33.1583,27.9158,-15.1562,-4694.23,-16446.3,-265.399,-3.99588,-112.805,-116.773
2.269,5096.0,5849.29,12767.3,-306.603,-362.509,225.091,-5403.35,11802.1,-1540.3,90.6865,-24.2778,-95.1202,-542.497,9039.41,50.4038,6.47677,-72.5302,-62.7741,3255.48,-2553.4,8797.37,-39.0902,-5.28726,-15.0139,718.853,-6547.23,-3381.75,5.91985,-10.6832,86.0629,9487.52,1801.33,2506.96,-34.5369,27.8839,-16.1034,-4219.81,-16268.9,-341.152,-3.95264,-110.592,-115.917
2.27,6127.01,7287.33,13318.1,-292.875,-348.92,211.761,-5197.01,11434.0,-1585.27,93.804,-22.4022,-93.0792,-413.941,9003.49,30.6271,5.54633,-74.0442,-63.3031,3106.89,-2607.63,8787.05,-39.6308,-5.54767,-15.2606,220.849,-6223.82,-2833.6,4.57,-14.1791,81.8871,9494.82,1812.02,2469.8,-35.9155,27.8519,-17.0507,-3745.38,-16091.6,-416.905,-3.9094,-108.38,-115.061
2.271,7158.03,8725.37,13868.9,-279.147,-335.33,198.431,-4990.67,11065.8,-1630.24,96.9215,-20.5266,-91.0381,-285.384,8967.56,10.8504,4.61589,-75.5582,-63.8321,2958.29,-2661.87,8776.72,-40.1713,-5.80808,-15.5074,-277.156,-5900.4,-2285.46,3.22016,-17.675,77.7113,9502.13,1822.7,2432.64,-37.294,27.82,-17.9979,-3270.95,-15914.2,-492.658,-3.86616,-106.167,-114.205
2.272,8637.94,9083.27,14120.1,-254.376,-318.953,181.462,-4695.7,10643.0,-1649.41,99.4862,-19.0208,-89.0722,-64.3349,8929.87,-96.1054,4.18255,-75.7728,-64.2116,2769.93,-2775.54,8801.92,-40.2112,-6.16273,-15.7983,-1003.61,-5613.34,-2006.62,1.28705,-16.0224,74.0172,9507.72,1793.8,2401.12,-38.9969,27.2298,-18.404,-2866.22,-15682.1,-574.769,-4.32411,-103.271,-114.071
2.273,10174.0,9306.14,14333.9,-228.225,-302.228,164.038,-4389.66,10213.2,-1665.36,101.982,-17.5613,-87.1156,168.276,8891.95,-213.959,3.81134,-75.825,-64.5725,2576.61,-2896.64,8831.56,-40.1885,-6.52917,-16.0948,-1758.63,-5330.83,-1761.45,-0.718967,-13.7262,70.3833,9513.1,1759.94,2370.31,-40.7403,26.5698,-18.7425,-2470.2,-15443.2,-657.676,-4.84471,-100.29,-114.028
2.274,11710.0,9529.01,14547.6,-202.073,-285.503,146.615,-4083.62,9783.53,-1681.3,104.477,-16.1018,-85.159,400.886,8854.03,-331.812,3.44013,-75.8773,-64.9333,2383.28,-3017.74,8861.2,-40.1658,-6.8956,-16.3912,-2513.65,-5048.31,-1516.28,-2.72498,-11.43,66.7494,9518.48,1726.08,2339.5,-42.4837,25.9097,-19.081,-2074.18,-15204.3,-740.582,-5.36531,-97.309,-113.985
2.275,13246.0,9751.89,14761.4,-175.922,-268.777,129.192,-3777.57,9353.81,-1697.25,106.973,-14.6423,-83.2024,633.497,8816.11,-449.665,3.06892,-75.9295,-65.2941,2189.96,-3138.84,8890.84,-40.1431,-7.26203,-16.6877,-3268.66,-4765.79,-1271.11,-4.731,-9.13384,63.1155,9523.86,1692.23,2308.69,-44.2272,25.2497,-19.4195,-1678.16,-14965.3,-823.489,-5.8859,-94.3279,-113.942
2.276,14721.3,9310.74,15031.1,-153.102,-250.303,110.778,-3431.41,8961.13,-1739.37,109.202,-13.8664,-81.5006,853.656,8843.02,-587.509,2.82694,-75.529,-65.2489,2090.36,-3272.3,8908.87,-39.9954,-7.62938,-17.0423,-4060.86,-4545.13,-921.391,-6.16944,-5.81005,59.7077,9508.1,1613.67,2268.36,-45.0775,24.7073,-19.78,-1309.19,-14727.5,-918.1,-6.436,-91.213,-114.468
2.277,16120.6,8039.57,15370.9,-134.446,-229.643,91.1263,-3035.11,8614.78,-1814.22,111.097,-13.9451,-80.1175,1058.25,8950.99,-750.342,2.74649,-74.5626,-64.6963,2107.94,-3421.19,8912.38,-39.6914,-7.99788,-17.4697,-4899.54,-4401.78,-440.988,-6.8984,-1.20174,56.5827,9465.92,1479.25,2216.12,-44.8114,24.312,-20.168,-974.025,-14491.2,-1027.34,-7.02296,-87.9307,-115.705
2.278,17520.0,6768.4,15710.6,-115.791,-208.983,71.4747,-2638.81,8268.42,-1889.06,112.992,-14.0238,-78.7343,1262.85,9058.95,-913.175,2.66604,-73.5962,-64.1436,2125.51,-3570.09,8915.89,-39.3874,-8.36638,-17.8971,-5738.21,-4258.43,39.4143,-7.62736,3.40656,53.4577,9423.75,1344.82,2163.88,-44.5452,23.9166,-20.556,-638.865,-14254.8,-1136.58,-7.60993,-84.6484,-116.941
2.279,18919.4,5497.23,16050.4,-97.1348,-188.323,51.8232,-2242.51,7922.06,-1963.91,114.888,-14.1024,-77.3511,1467.44,9166.91,-1076.01,2.58559,-72.6298,-63.591,2143.08,-3718.99,8919.39,-39.0834,-8.73488,-18.3245,-6576.89,-4115.08,519.817,-8.35633,8.01487,50.3327,9381.57,1210.4,2111.65,-44.2791,23.5213,-20.944,-303.704,-14018.4,-1245.83,-8.1969,-81.3662,-118.178
2.28,20318.8,4226.06,16390.2,-78.4791,-167.663,32.1716,-1846.21,7575.7,-2038.76,116.783,-14.1811,-75.968,1672.04,9274.88,-1238.84,2.50514,-71.6634,-63.0383,2160.66,-3867.88,8922.9,-38.7794,-9.10338,-18.7519,-7415.57,-3971.73,1000.22,-9.08529,12.6232,47.2077,9339.39,1075.97,2059.41,-44.013,23.1259,-21.3321,31.4557,-13782.0,-1355.07,-8.78387,-78.0839,-119.415
2.281,20933.1,3401.92,16363.9,-61.0171,-142.383,16.1771,-1398.18,7367.07,-2130.8,116.923,-15.2833,-75.1753,1736.51,9305.98,-1364.41,2.09894,-70.5366,-62.2133,2317.62,-3999.72,8872.59,-37.9042,-9.33549,-19.1758,-8023.79,-3953.79,1338.56,-9.18445,15.5359,44.6965,9314.27,927.329,2019.94,-43.5951,22.6621,-22.3183,295.294,-13563.1,-1433.92,-9.59504,-74.5051,-121.513
2.282,21547.5,2577.77,16337.5,-43.5552,-117.102,0.1826,-950.147,7158.45,-2222.85,117.064,-16.3856,-74.3827,1800.97,9337.08,-1489.99,1.69275,-69.4098,-61.3883,2474.57,-4131.55,8822.27,-37.029,-9.5676,-19.5998,-8632.02,-3935.84,1676.89,-9.2836,18.4487,42.1854,9289.14,778.683,1980.48,-43.1771,22.1982,-23.3045,559.132,-13344.2,-1512.77,-10.4062,-70.9262,-123.611
2.283,22161.9,1753.63,16311.2,-26.0933,-91.8215,-15.8119,-502.116,6949.82,-2314.89,117.204,-17.4878,-73.59,1865.44,9368.18,-1615.56,1.28655,-68.283,-60.5632,2631.53,-4263.38,8771.96,-36.1538,-9.79971,-20.0237,-9240.24,-3917.89,2015.23,-9.38275,21.3615,39.6742,9264.02,630.038,1941.02,-42.7592,21.7343,-24.2907,822.971,-13125.4,-1591.62,-11.2174,-67.3474,-125.708
2.284,22776.3,929.482,16284.9,-8.63132,-66.5409,-31.8064,-54.0843,6741.19,-2406.93,117.344,-18.5901,-72.7974,1929.91,9399.29,-1741.13,0.880346,-67.1562,-59.7382,2788.49,-4395.22,8721.64,-35.2786,-10.0318,-20.4477,-9848.47,-3899.95,2353.56,-9.48191,24.2742,37.163,9238.89,481.393,1901.56,-42.3412,21.2704,-25.277,1086.81,-12906.5,-1670.47,-12.0286,-63.7686,-127.806
2.285,22680.7,534.156,16239.9,6.79611,-42.531,-45.7713,365.775,6576.9,-2503.0,116.739,-19.8988,-72.059,1895.01,9424.92,-1871.53,0.453652,-65.7479,-58.9012,2954.14,-4538.03,8665.33,-34.2849,-10.4014,-20.8354,-10211.2,-3897.48,2333.02,-10.4254,26.801,34.7401,9238.01,417.452,1885.46,-42.013,20.758,-26.1788,1303.07,-12699.2,-1732.54,-12.7521,-60.0578,-129.919
2.286,22017.3,481.886,16179.9,20.5959,-19.5376,-58.1124,763.096,6448.08,-2602.28,115.536,-21.3726,-71.364,1780.62,9446.18,-2005.78,0.0105641,-64.1146,-58.0545,3126.72,-4689.62,8604.23,-33.1966,-10.8809,-21.194,-10377.7,-3907.41,2025.38,-12.0443,29.019,32.3878,9256.53,421.277,1888.04,-41.7566,20.2069,-27.0133,1481.26,-12501.2,-1781.2,-13.4055,-56.2413,-132.043
2.287,21353.8,429.616,16120.0,34.3957,3.45575,-70.4536,1160.42,6319.25,-2701.56,114.333,-22.8465,-70.669,1666.22,9467.44,-2140.03,-0.432524,-62.4812,-57.2078,3299.31,-4841.21,8543.13,-32.1083,-11.3604,-21.5527,-10544.1,-3917.34,1717.74,-13.6633,31.2371,30.0356,9275.05,425.101,1890.63,-41.5002,19.6557,-27.8477,1659.46,-12303.2,-1829.86,-14.0589,-52.4248,-134.167
2.288,20690.3,377.345,16060.0,48.1956,26.4491,-82.7947,1557.74,6190.43,-2800.84,113.13,-24.3203,-69.974,1551.82,9488.71,-2274.29,-0.875612,-60.8478,-56.3611,3471.9,-4992.8,8482.03,-31.0199,-11.8399,-21.9113,-10710.5,-3927.27,1410.1,-15.2822,33.4551,27.6834,9293.57,428.925,1893.22,-41.2438,19.1045,-28.6821,1837.66,-12105.1,-1878.52,-14.7122,-48.6084,-136.291
2.289,19967.2,411.741,16001.9,61.2491,48.9302,-94.8748,1951.44,6073.53,-2900.21,111.875,-25.8083,-69.3359,1436.47,9514.95,-2393.02,-1.31513,-59.2316,-55.5654,3621.55,-5129.91,8426.56,-29.9101,-12.3195,-22.2454,-10825.3,-3940.39,1076.64,-17.0999,35.7081,25.2763,9306.84,430.806,1894.87,-41.0067,18.5779,-29.465,2007.17,-11907.4,-1920.39,-15.3214,-44.8028,-138.38
2.29,18766.8,1139.47,15958.3,68.3327,67.313,-104.866,2316.18,6052.01,-3000.32,110.202,-27.409,-69.1526,1313.48,9581.01,-2387.56,-1.72611,-57.7525,-55.1772,3587.69,-5151.17,8416.14,-28.6291,-12.7998,-22.3825,-10527.5,-3979.08,536.6,-20.5069,38.2411,22.4305,9278.2,417.138,1889.0,-40.9241,18.2471,-29.8355,2107.18,-11711.8,-1907.93,-15.5764,-41.0846,-140.185
2.291,17566.5,1867.2,15914.8,75.4163,85.6959,-114.858,2680.93,6030.49,-3100.43,108.53,-29.0098,-68.9694,1190.48,9647.07,-2382.1,-2.13709,-56.2734,-54.7891,3553.82,-5172.43,8405.71,-27.348,-13.2802,-22.5196,-10229.7,-4017.78,-3.44207,-23.914,40.7742,19.5847,9249.55,403.47,1883.13,-40.8414,17.9164,-30.2059,2207.2,-11516.3,-1895.47,-15.8315,-37.3664,-141.991
2.292,16366.1,2594.93,15871.2,82.4998,104.079,-124.849,3045.67,6008.97,-3200.53,106.857,-30.6106,-68.7862,1067.48,9713.14,-2376.64,-2.54807,-54.7944,-54.4009,3519.95,-5193.69,8395.29,-26.0669,-13.7605,-22.6567,-9931.85,-4056.47,-543.484,-27.321,43.3072,16.739,9220.91,389.803,1877.27,-40.7587,17.5856,-30.5764,2307.22,-11320.7,-1883.0,-16.0865,-33.6482,-143.796
2.293,15165.7,3322.65,15827.6,89.5834,122.462,-134.841,3410.41,5987.45,-3300.64,105.185,-32.2113,-68.6029,944.487,9779.2,-2371.19,-2.95904,-53.3153,-54.0128,3486.09,-5214.95,8384.87,-24.7858,-14.2409,-22.7938,-9634.02,-4095.17,-1083.53,-30.728,45.8402,13.8932,9192.26,376.135,1871.4,-40.6761,17.2549,-30.9469,2407.23,-11125.2,-1870.54,-16.3416,-29.93,-145.602
2.294,14158.1,4388.24,15641.7,93.2693,137.706,-143.319,3700.12,6004.21,-3375.78,104.041,-33.8644,-69.0419,882.412,9862.73,-2339.32,-3.30833,-52.2594,-53.634,3462.08,-5206.97,8369.1,-23.4654,-14.616,-22.7948,-9091.28,-4133.98,-1488.03,-35.2916,47.3426,10.6872,9165.44,338.336,1894.07,-40.6481,17.0186,-31.3219,2440.26,-10977.9,-1843.89,-16.2939,-26.4545,-147.146
2.295,13246.8,5622.75,15384.7,95.2564,151.381,-151.04,3952.31,6040.11,-3438.44,103.16,-35.5435,-69.7918,850.797,9954.99,-2294.26,-3.62676,-51.415,-53.2599,3443.0,-5184.36,8350.66,-22.1252,-14.9384,-22.7277,-8426.08,-4172.85,-1824.77,-40.4335,48.3296,7.30107,9139.54,288.471,1931.01,-40.6475,16.8295,-31.6992,2439.8,-10854.7,-1810.13,-16.0947,-23.1003,-148.559
2.296,12335.5,6857.26,15127.6,97.2435,165.057,-158.761,4204.5,6076.01,-3501.09,102.28,-37.2227,-70.5418,819.182,10047.3,-2249.19,-3.9452,-50.5707,-52.8858,3423.92,-5161.76,8332.21,-20.7851,-15.2609,-22.6607,-7760.87,-4211.73,-2161.51,-45.5754,49.3166,3.91496,9113.63,238.605,1967.95,-40.647,16.6404,-32.0764,2439.33,-10731.6,-1776.38,-15.8956,-19.7462,-149.973
2.297,11424.2,8091.78,14870.5,99.2305,178.732,-166.483,4456.7,6111.92,-3563.75,101.4,-38.9019,-71.2918,787.568,10139.5,-2204.12,-4.26364,-49.7263,-52.5117,3404.84,-5139.15,8313.77,-19.445,-15.5833,-22.5936,-7095.67,-4250.6,-2498.25,-50.7172,50.3036,0.528837,9087.73,188.74,2004.89,-40.6464,16.4513,-32.4537,2438.87,-10608.4,-1742.63,-15.6965,-16.392,-151.386
2.298,10583.2,9230.2,14599.4,100.77,191.623,-174.192,4682.12,6160.97,-3620.18,100.552,-40.4977,-72.1318,763.669,10239.0,-2166.21,-4.54469,-48.8455,-52.1431,3392.96,-5117.78,8301.41,-18.1447,-15.9113,-22.5228,-6401.02,-4268.71,-2786.22,-56.0802,50.3254,-2.93086,9061.89,144.654,2041.06,-40.5704,16.2475,-32.8689,2410.58,-10491.6,-1712.88,-15.5131,-13.1875,-152.71
2.299,9988.24,10032.3,14278.7,100.744,201.768,-181.86,4813.82,6256.05,-3654.86,99.8197,-41.8016,-73.287,766.778,10363.5,-2153.33,-4.69491,-47.8373,-51.7938,3406.27,-5100.71,8310.32,-16.9837,-16.2584,-22.4388,-5603.32,-4214.16,-2903.48,-62.2169,46.9692,-6.6481,9036.29,120.793,2074.54,-40.2305,15.9922,-33.4168,2284.91,-10397.3,-1697.15,-15.385,-10.5067,-153.722
2.3,9393.24,10834.4,13958.1,100.718,211.912,-189.528,4945.53,6351.14,-3689.53,99.087,-43.1054,-74.4423,769.887,10488.1,-2140.45,-4.84513,-46.8291,-51.4444,3419.57,-5083.64,8319.24,-15.8227,-16.6055,-22.3549,-4805.61,-4159.61,-3020.74,-68.3536,43.613,-10.3653,9010.69,96.9314,2108.02,-39.8907,15.7369,-33.9647,2159.24,-10302.9,-1681.41,-15.2569,-7.8259,-154.734
2.301,8798.24,11636.5,13637.4,100.692,222.057,-197.195,5077.24,6446.22,-3724.2,98.3542,-44.4093,-75.5975,772.995,10612.7,-2127.57,-4.99534,-45.8208,-51.095,3432.88,-5066.57,8328.15,-14.6617,-16.9526,-22.2709,-4007.9,-4105.06,-3138.0,-74.4903,40.2568,-14.0826,8985.09,73.0703,2141.49,-39.5508,15.4816,-34.5126,2033.57,-10208.5,-1665.68,-15.1287,-5.1451,-155.746
2.302,8203.24,12438.6,13316.8,100.666,232.202,-204.863,5208.95,6541.31,-3758.87,97.6215,-45.7131,-76.7527,776.104,10737.3,-2114.69,-5.14556,-44.8126,-50.7457,3446.19,-5049.51,8337.07,-13.5008,-17.2997,-22.1869,-3210.2,-4050.51,-3255.26,-80.627,36.9005,-17.7998,8959.49,49.2092,2174.97,-39.2109,15.2263,-35.0605,1907.9,-10114.2,-1649.95,-15.0006,-2.46429,-156.759
2.303,7665.18,12618.7,12914.3,100.031,240.742,-212.062,5278.6,6679.76,-3767.73,96.5977,-46.5945,-77.9231,776.326,10787.2,-2102.07,-5.27273,-43.5116,-50.5099,3479.0,-5002.81,8406.14,-12.2775,-17.7941,-22.3102,-2479.01,-4060.83,-3328.77,-84.0103,31.7362,-22.1417,8974.91,17.668,2202.24,-38.8114,14.8391,-35.6403,1675.01,-10041.4,-1671.72,-15.063,-0.0266282,-157.113
2.304,7143.38,12621.0,12488.4,99.2215,248.824,-219.126,5330.51,6830.61,-3769.2,95.4907,-47.3552,-79.0978,775.724,10815.8,-2089.51,-5.39331,-42.1269,-50.3067,3517.38,-4947.65,8492.41,-11.0364,-18.3306,-22.4927,-1766.83,-4089.69,-3389.78,-86.6069,26.0554,-26.662,9002.04,-16.0675,2227.73,-38.3947,14.4143,-36.2293,1411.48,-9974.76,-1704.21,-15.1798,2.34157,-157.279
2.305,6621.59,12623.4,12062.5,98.4119,256.906,-226.191,5382.43,6981.46,-3770.68,94.3838,-48.1159,-80.2725,775.121,10844.4,-2076.96,-5.51389,-40.7422,-50.1034,3555.76,-4892.49,8578.67,-9.79536,-18.8671,-22.6751,-1054.65,-4118.55,-3450.78,-89.2036,20.3745,-31.1823,9029.18,-49.8029,2253.22,-37.9781,13.9894,-36.8182,1147.96,-9908.13,-1736.71,-15.2967,4.70977,-157.445
2.306,6099.79,12625.7,11636.7,97.6024,264.988,-233.256,5434.34,7132.31,-3772.15,93.2768,-48.8766,-81.4471,774.518,10873.0,-2064.4,-5.63447,-39.3575,-49.9002,3594.14,-4837.32,8664.94,-8.5543,-19.4035,-22.8576,-342.468,-4147.4,-3511.79,-91.8002,14.6936,-35.7026,9056.32,-83.5384,2278.72,-37.5614,13.5646,-37.4071,884.434,-9841.49,-1769.2,-15.4135,7.07797,-157.611
2.307,5597.16,12460.6,11223.0,96.9222,272.327,-239.347,5438.32,7300.71,-3748.74,92.0802,-49.5455,-82.4769,792.19,10912.3,-2044.43,-5.75156,-38.2327,-49.7961,3615.49,-4772.27,8742.87,-7.34338,-19.8435,-23.0265,323.022,-4255.65,-3580.07,-92.4624,10.1394,-40.6144,9087.35,-90.1575,2299.08,-37.1497,13.19,-37.9939,600.216,-9804.55,-1795.7,-15.6327,9.44293,-157.567
2.308,5132.86,11960.4,10833.7,96.5007,278.179,-243.49,5346.41,7504.22,-3675.55,90.7044,-50.0307,-83.217,846.409,10973.2,-2009.61,-5.86165,-37.6279,-49.8907,3602.77,-4687.42,8804.14,-6.19275,-20.0904,-23.1681,895.132,-4522.66,-3662.88,-89.2561,7.83851,-46.3092,9126.16,-42.5437,2309.16,-36.7479,12.9158,-38.5765,274.611,-9826.97,-1810.21,-16.0564,11.8014,-157.103
2.309,4668.56,11460.2,10444.4,96.0793,284.031,-247.634,5254.5,7707.73,-3602.36,89.3285,-50.516,-83.957,900.627,11034.1,-1974.79,-5.97173,-37.0231,-49.9852,3590.05,-4602.57,8865.42,-5.04212,-20.3372,-23.3097,1467.24,-4789.68,-3745.7,-86.0497,5.5376,-52.004,9164.97,5.07012,2319.24,-36.346,12.6416,-39.159,-50.9951,-9849.39,-1824.73,-16.4802,14.1599,-156.639
2.31,4204.26,10960.0,10055.1,95.6578,289.883,-251.778,5162.59,7911.24,-3529.17,87.9527,-51.0013,-84.6971,954.846,11095.0,-1939.98,-6.08182,-36.4183,-50.0797,3577.33,-4517.72,8926.69,-3.89148,-20.5841,-23.4513,2039.35,-5056.7,-3828.51,-82.8433,3.2367,-57.6988,9203.78,52.6839,2329.32,-35.9442,12.3674,-39.7415,-376.601,-9871.82,-1839.24,-16.904,16.5184,-156.174
2.311,3739.95,10459.9,9665.8,95.2364,295.735,-255.921,5070.68,8114.75,-3455.98,86.5769,-51.4866,-85.4371,1009.07,11155.9,-1905.16,-6.19191,-35.8135,-50.1742,3564.61,-4432.87,8987.96,-2.74085,-20.831,-23.5929,2611.46,-5323.72,-3911.32,-79.6369,0.935793,-63.3936,9242.59,100.298,2339.4,-35.5423,12.0932,-40.324,-702.206,-9894.24,-1853.76,-17.3278,18.8768,-155.71
2.312,3283.71,9813.39,9411.5,94.5946,299.295,-258.23,4887.45,8353.44,-3354.59,85.0703,-51.5774,-86.0476,982.842,11183.8,-1824.04,-6.45633,-35.452,-50.4253,3550.04,-4374.37,9013.69,-1.82867,-21.1081,-23.6587,3101.7,-5589.55,-3989.52,-75.1785,4.10283,-69.2873,9284.93,141.915,2345.25,-35.067,11.6012,-40.9,-994.13,-9950.46,-1883.06,-18.0487,21.0684,-154.993
2.313,2828.47,9148.64,9174.07,93.9252,302.568,-260.309,4692.8,8596.53,-3249.68,83.5473,-51.6189,-86.642,946.563,11207.6,-1737.13,-6.74004,-35.121,-50.6959,3535.23,-4319.17,9034.98,-0.946297,-21.3889,-23.715,3581.71,-5855.25,-4067.14,-70.5635,7.95337,-75.2058,9327.71,182.782,2350.56,-34.5825,11.082,-41.4752,-1281.84,-10010.9,-1914.21,-18.8068,23.2391,-154.244
2.314,2373.23,8483.89,8936.64,93.2558,305.842,-262.389,4498.15,8839.62,-3144.77,82.0244,-51.6605,-87.2364,910.284,11231.5,-1650.22,-7.02375,-34.79,-50.9665,3520.43,-4263.97,9056.27,-0.0639257,-21.6698,-23.7713,4061.72,-6120.94,-4144.76,-65.9486,11.8039,-81.1244,9370.5,223.649,2355.88,-34.098,10.5627,-42.0505,-1569.56,-10071.4,-1945.37,-19.5648,25.4098,-153.495
2.315,1918.0,7819.14,8699.22,92.5865,309.115,-264.468,4303.5,9082.71,-3039.86,80.5014,-51.702,-87.8307,874.005,11255.3,-1563.31,-7.30746,-34.459,-51.2371,3505.62,-4208.76,9077.56,0.818446,-21.9506,-23.8275,4541.73,-6386.63,-4222.38,-61.3337,15.6544,-87.043,9413.28,264.516,2361.2,-33.6136,10.0435,-42.6257,-1857.27,-10131.8,-1976.52,-20.3229,27.5806,-152.747
2.316,1518.06,7214.4,8486.49,92.1119,311.481,-266.289,4100.76,9302.23,-2921.91,78.8762,-51.5087,-88.4756,832.827,11287.2,-1508.09,-7.50723,-33.8939,-51.4774,3517.84,-4154.58,9099.96,1.60104,-22.2915,-23.8599,4995.77,-6522.08,-4310.39,-57.76,22.1082,-92.5471,9422.83,287.861,2353.95,-33.1899,9.49336,-43.1633,-2127.83,-10198.1,-2014.78,-21.0914,29.4954,-152.061
2.317,1187.27,6684.67,8304.64,91.8808,312.712,-267.788,3887.93,9492.3,-2787.67,77.123,-51.0218,-89.1837,785.526,11329.1,-1492.48,-7.60209,-33.0363,-51.6797,3563.85,-4101.67,9123.75,2.25893,-22.7074,-23.8623,5417.35,-6494.72,-4411.4,-55.4879,31.816,-97.5334,9390.82,289.304,2330.99,-32.8422,8.90465,-43.6541,-2376.94,-10271.6,-2061.92,-21.8729,31.0905,-151.455
2.318,856.469,6154.95,8122.78,91.6496,313.943,-269.287,3675.1,9682.37,-2653.43,75.3699,-50.5349,-89.8918,738.224,11371.1,-1476.87,-7.69694,-32.1786,-51.882,3609.85,-4048.75,9147.54,2.91681,-23.1234,-23.8647,5838.94,-6467.36,-4512.41,-53.2159,41.5239,-102.52,9358.82,290.747,2308.03,-32.4946,8.31595,-44.1448,-2626.04,-10345.1,-2109.06,-22.6544,32.6855,-150.848
2.319,525.672,5625.22,7940.93,91.4185,315.174,-270.785,3462.27,9872.44,-2519.19,73.6168,-50.048,-90.5999,690.923,11413.1,-1461.27,-7.79179,-31.3209,-52.0843,3655.86,-3995.84,9171.33,3.57469,-23.5393,-23.8671,6260.52,-6440.0,-4613.42,-50.9438,51.2317,-107.506,9326.82,292.19,2285.07,-32.1469,7.72724,-44.6356,-2875.15,-10418.7,-2156.2,-23.4359,34.2805,-150.242
2.32,194.874,5095.49,7759.08,91.1874,316.404,-272.284,3249.44,10062.5,-2384.95,71.8637,-49.5612,-91.3079,643.621,11455.0,-1445.66,-7.88664,-30.4633,-52.2866,3701.86,-3942.93,9195.12,4.23257,-23.9553,-23.8694,6682.1,-6412.64,-4714.43,-48.6717,60.9395,-112.492,9294.82,293.633,2262.11,-31.7992,7.13854,-45.1263,-3124.26,-10492.2,-2203.35,-24.2174,35.8756,-149.635
2.321,-55.462,4813.41,7523.49,91.991,316.639,-273.625,2969.18,10155.6,-2264.76,69.8194,-48.7817,-92.152,553.285,11434.4,-1405.74,-7.71551,-29.7316,-52.3417,3775.25,-3884.14,9206.37,4.8658,-24.2452,-23.9528,7009.8,-6115.32,-4737.34,-49.4654,72.5313,-116.323,9257.18,293.721,2236.41,-31.4431,6.44427,-45.5215,-3294.68,-10578.1,-2203.07,-24.6439,37.2016,-149.342
2.322,-305.798,4531.34,7287.9,92.7947,316.874,-274.966,2688.92,10248.7,-2144.58,67.7752,-48.0023,-92.996,462.949,11413.9,-1365.82,-7.54439,-28.9999,-52.3969,3848.64,-3825.35,9217.62,5.49903,-24.5351,-24.0361,7337.5,-5817.99,-4760.24,-50.2591,84.123,-120.154,9219.54,293.81,2210.71,-31.0871,5.75,-45.9167,-3465.11,-10664.0,-2202.79,-25.0704,38.5276,-149.049
2.323,-556.134,4249.27,7052.3,93.5983,317.108,-276.307,2408.66,10341.9,-2024.39,65.7309,-47.2229,-93.84,372.613,11393.3,-1325.89,-7.37326,-28.2682,-52.452,3922.02,-3766.55,9228.86,6.13226,-24.8251,-24.1194,7665.2,-5520.67,-4783.14,-51.0528,95.7147,-123.986,9181.9,293.898,2185.02,-30.731,5.05573,-46.3119,-3635.53,-10749.9,-2202.51,-25.4968,39.8537,-148.756
2.324,-806.47,3967.2,6816.71,94.4019,317.343,-277.649,2128.4,10435.0,-1904.21,63.6867,-46.4434,-94.6841,282.276,11372.7,-1285.97,-7.20213,-27.5365,-52.5071,3995.41,-3707.76,9240.11,6.76548,-25.115,-24.2027,7992.9,-5223.34,-4806.05,-51.8465,107.306,-127.817,9144.26,293.986,2159.32,-30.3749,4.36147,-46.7071,-3805.95,-10835.7,-2202.23,-25.9233,41.1797,-148.464
2.325,-1000.3,3704.99,6623.92,95.5581,317.151,-279.037,1865.23,10548.1,-1762.45,62.1185,-45.5874,-95.3351,226.796,11327.6,-1223.66,-7.0349,-27.1122,-52.4932,4004.51,-3654.86,9254.66,7.11689,-25.5124,-24.2895,8203.66,-4875.06,-4722.99,-53.6177,117.301,-131.299,9109.71,302.96,2149.26,-30.0636,3.79271,-47.0105,-3938.17,-10932.1,-2187.13,-26.1285,42.3884,-148.176
2.326,-1148.94,3458.66,6465.36,96.9964,316.617,-280.465,1615.74,10677.3,-1603.44,60.9312,-44.67,-95.8318,199.201,11263.1,-1143.43,-6.87079,-26.9339,-52.424,3962.18,-3606.68,9271.87,7.24285,-25.9958,-24.3791,8320.87,-4486.02,-4555.17,-56.171,126.018,-134.501,9077.62,319.042,2151.71,-29.7882,3.32437,-47.2406,-4039.82,-11036.9,-2160.17,-26.1569,43.5032,-147.893
2.327,-1297.57,3212.34,6306.8,98.4347,316.083,-281.892,1366.25,10806.4,-1444.43,59.7439,-43.7527,-96.3285,171.605,11198.5,-1063.21,-6.70668,-26.7556,-52.3548,3919.85,-3558.5,9289.08,7.36881,-26.4792,-24.4688,8438.09,-4096.98,-4387.34,-58.7243,134.736,-137.703,9045.54,335.124,2154.15,-29.5128,2.85602,-47.4708,-4141.48,-11141.7,-2133.2,-26.1852,44.618,-147.61
2.328,-1446.2,2966.02,6148.24,99.873,315.549,-283.319,1116.76,10935.6,-1285.41,58.5566,-42.8353,-96.8252,144.01,11133.9,-982.985,-6.54256,-26.5773,-52.2857,3877.53,-3510.31,9306.29,7.49477,-26.9626,-24.5584,8555.3,-3707.94,-4219.52,-61.2775,143.453,-140.906,9013.45,351.205,2156.6,-29.2373,2.38768,-47.7009,-4243.14,-11246.5,-2106.24,-26.2135,45.7328,-147.327
2.329,-1589.43,2715.21,6003.42,101.413,314.955,-284.772,881.973,11066.2,-1128.48,57.5535,-41.9037,-97.3039,117.939,11068.1,-907.636,-6.39626,-26.4072,-52.2319,3833.2,-3462.63,9324.3,7.59963,-27.4372,-24.6786,8641.77,-3335.56,-4040.69,-63.822,151.718,-144.085,8980.97,370.335,2157.75,-28.9395,1.91507,-47.9304,-4335.8,-11348.5,-2076.56,-26.1882,46.8559,-147.036
2.33,-1689.36,2428.47,5968.49,103.767,313.882,-286.439,764.758,11208.8,-988.208,58.0236,-40.8574,-97.6385,104.063,10991.8,-871.29,-6.39241,-26.3032,-52.3014,3772.86,-3418.95,9348.64,7.53565,-27.8424,-25.0437,8482.3,-3096.42,-3773.78,-66.2959,156.362,-147.074,8945.28,413.85,2148.5,-28.4625,1.40834,-48.1558,-4356.5,-11428.7,-2025.11,-25.7339,48.0456,-146.677
2.331,-1789.3,2141.74,5933.57,106.121,312.809,-288.105,647.544,11351.4,-847.934,58.4938,-39.8112,-97.9731,90.1869,10915.5,-834.945,-6.38856,-26.1992,-52.3709,3712.52,-3375.27,9372.99,7.47168,-28.2475,-25.4089,8322.83,-2857.28,-3506.87,-68.7698,161.006,-150.063,8909.6,457.364,2139.24,-27.9855,0.901617,-48.3811,-4377.21,-11508.9,-1973.66,-25.2797,49.2353,-146.318
2.332,-1889.24,1855.0,5898.65,108.475,311.735,-289.772,530.329,11494.0,-707.661,58.964,-38.7649,-98.3077,76.311,10839.2,-798.6,-6.38471,-26.0952,-52.4404,3652.18,-3331.59,9397.34,7.4077,-28.6527,-25.774,8163.36,-2618.14,-3239.97,-71.2437,165.651,-153.052,8873.91,500.879,2129.99,-27.5085,0.39489,-48.6064,-4397.91,-11589.1,-1922.21,-24.8255,50.425,-145.959
2.333,-1989.18,1568.27,5863.73,110.829,310.662,-291.438,413.114,11636.6,-567.387,59.4341,-37.7187,-98.6423,62.4352,10763.0,-762.254,-6.38085,-25.9912,-52.5099,3591.84,-3287.91,9421.68,7.34373,-29.0579,-26.1391,8003.89,-2379.0,-2973.06,-73.7176,170.295,-156.041,8838.22,544.393,2120.74,-27.0315,-0.111837,-48.8317,-4418.61,-11669.3,-1870.76,-24.3712,51.6147,-145.6
2.334,-2004.81,1340.23,5821.92,113.863,309.605,-292.646,339.435,11786.0,-449.717,60.1222,-36.4909,-98.7891,46.0364,10707.8,-717.54,-6.3752,-26.0663,-52.574,3569.61,-3265.71,9428.86,7.31456,-29.5451,-26.5001,7710.02,-2292.8,-2728.78,-75.6641,172.979,-158.97,8782.21,592.182,2107.59,-26.709,-0.560616,-49.0814,-4406.79,-11738.1,-1803.94,-23.7675,53.028,-145.383
2.335,-1978.29,1141.53,5776.67,117.238,308.555,-293.625,287.522,11938.9,-343.35,60.9191,-35.1724,-98.8419,28.3761,10663.3,-668.641,-6.36865,-26.2309,-52.6354,3566.44,-3254.25,9427.46,7.3028,-30.0733,-26.8589,7348.96,-2283.07,-2495.82,-77.3468,174.683,-161.868,8716.03,642.107,2092.5,-26.4638,-0.980421,-49.3433,-4378.71,-11801.0,-1729.44,-23.0891,54.5531,-145.237
2.336,-1951.77,942.843,5731.42,120.613,307.505,-294.603,235.609,12091.8,-236.982,61.716,-33.8539,-98.8947,10.7158,10618.8,-619.742,-6.3621,-26.3955,-52.6969,3563.26,-3242.79,9426.06,7.29103,-30.6016,-27.2177,6987.9,-2273.34,-2262.86,-79.0295,176.387,-164.767,8649.84,692.032,2077.41,-26.2185,-1.40023,-49.6052,-4350.63,-11864.0,-1654.93,-22.4107,56.0782,-145.091
2.337,-1925.25,744.152,5686.17,123.987,306.455,-295.582,183.697,12244.7,-130.614,62.5129,-32.5355,-98.9475,-6.94448,10574.3,-570.843,-6.35555,-26.5601,-52.7583,3560.09,-3231.33,9424.66,7.27927,-31.1299,-27.5765,6626.84,-2263.61,-2029.89,-80.7123,178.091,-167.665,8583.67,741.958,2062.32,-25.9732,-1.82003,-49.8671,-4322.55,-11927.0,-1580.43,-21.7322,57.6032,-144.945
2.338,-1874.88,571.276,5648.4,127.371,305.493,-296.29,127.886,12376.7,-43.6252,63.0231,-31.2855,-98.7984,-24.4526,10537.4,-538.361,-6.31046,-26.7173,-52.8161,3554.65,-3229.11,9435.51,7.24099,-31.6278,-27.9049,6249.66,-2295.67,-1809.92,-82.1995,179.373,-170.559,8515.0,788.33,2044.58,-25.8372,-2.19715,-50.1051,-4290.96,-11973.3,-1509.74,-21.0588,59.1583,-144.842
2.339,-1741.02,488.755,5636.85,130.787,304.84,-296.053,58.4315,12435.7,-24.4607,62.5298,-30.2752,-97.9427,-41.4282,10527.5,-563.336,-6.13047,-26.8488,-52.861,3541.28,-3259.25,9489.24,7.10989,-32.0196,-28.127,5816.06,-2473.96,-1635.41,-83.0022,179.178,-173.436,8437.64,822.269,2017.59,-26.0836,-2.42486,-50.2593,-4247.08,-11961.2,-1452.41,-20.4029,60.8184,-144.892
2.34,-1607.17,406.233,5625.31,134.203,304.186,-295.815,-11.0231,12494.7,-5.29617,62.0364,-29.265,-97.087,-58.4039,10517.7,-588.312,-5.95049,-26.9803,-52.9059,3527.91,-3289.39,9542.98,6.97878,-32.4115,-28.349,5382.46,-2652.25,-1460.9,-83.8049,178.984,-176.312,8360.29,856.207,1990.59,-26.33,-2.65257,-50.4135,-4203.21,-11949.1,-1395.09,-19.7471,62.4785,-144.943
2.341,-1473.31,323.712,5613.76,137.618,303.533,-295.577,-80.4776,12553.7,13.8684,61.543,-28.2548,-96.2313,-75.3795,10507.8,-613.287,-5.77051,-27.1117,-52.9508,3514.54,-3319.53,9596.71,6.84768,-32.8033,-28.5711,4948.86,-2830.55,-1286.4,-84.6077,178.789,-179.188,8282.93,890.146,1963.6,-26.5764,-2.88028,-50.5677,-4159.33,-11937.0,-1337.76,-19.0912,64.1386,-144.993
2.342,-1339.45,241.191,5602.21,141.034,302.879,-295.34,-149.932,12612.7,33.0329,61.0496,-27.2445,-95.3756,-92.3551,10497.9,-638.263,-5.59053,-27.2432,-52.9957,3501.18,-3349.66,9650.45,6.71658,-33.1952,-28.7931,4515.27,-3008.84,-1111.89,-85.4104,178.594,-182.065,8205.57,924.084,1936.6,-26.8229,-3.10799,-50.7219,-4115.46,-11925.0,-1280.43,-18.4353,65.7987,-145.043
2.343,-1145.15,211.18,5579.63,143.838,302.794,-294.83,-222.658,12660.2,66.4577,60.4056,-26.6668,-94.1993,-104.794,10511.3,-640.174,-5.48709,-27.5482,-53.0968,3522.84,-3325.86,9661.42,6.4806,-33.6617,-29.1441,4122.6,-3209.92,-975.726,-85.9312,177.626,-184.913,8161.47,936.065,1935.67,-27.3751,-3.34225,-50.7734,-4072.11,-11866.4,-1237.19,-18.0865,67.4714,-145.001
2.344,-933.574,196.172,5553.89,146.467,302.871,-294.242,-296.32,12704.3,103.957,59.7184,-26.2126,-92.9312,-115.937,10531.3,-635.495,-5.40553,-27.9028,-53.214,3554.51,-3286.65,9660.16,6.21464,-34.1496,-29.532,3741.62,-3417.5,-850.522,-86.3714,176.437,-187.753,8126.87,941.773,1942.18,-28.0147,-3.57839,-50.7956,-4028.91,-11794.5,-1197.97,-17.8254,69.1477,-144.932
2.345,-722.0,181.165,5528.16,149.096,302.948,-293.655,-369.981,12748.5,141.456,59.0313,-25.7585,-91.6632,-127.08,10551.3,-630.816,-5.32397,-28.2574,-53.3313,3586.18,-3247.44,9658.9,5.94869,-34.6375,-29.9199,3360.64,-3625.08,-725.318,-86.8115,175.247,-190.593,8092.27,947.481,1948.7,-28.6543,-3.81453,-50.8177,-3985.7,-11722.6,-1158.76,-17.5643,70.8239,-144.864
2.346,-510.426,166.157,5502.42,151.725,303.025,-293.067,-443.642,12792.7,178.955,58.3442,-25.3043,-90.3952,-138.223,10571.3,-626.137,-5.24241,-28.612,-53.4485,3617.85,-3208.22,9657.65,5.68274,-35.1254,-30.3077,2979.67,-3832.67,-600.115,-87.2517,174.058,-193.434,8057.68,953.189,1955.21,-29.2939,-4.05066,-50.8399,-3942.5,-11650.8,-1119.54,-17.3032,72.5002,-144.796
2.347,-303.621,159.109,5489.67,154.113,303.2,-292.66,-494.63,12825.9,217.111,57.9496,-24.9063,-89.1221,-149.984,10597.2,-611.825,-5.14953,-29.0807,-53.5591,3635.45,-3180.5,9657.27,5.42664,-35.62,-30.6649,2624.88,-4012.51,-494.116,-87.7442,172.831,-196.176,8022.86,948.367,1956.86,-29.8723,-4.25017,-50.7378,-3905.08,-11570.6,-1092.51,-17.1997,74.1913,-144.744
2.348,-106.353,167.981,5502.88,156.02,303.572,-292.612,-500.271,12837.1,256.582,58.14,-24.6206,-87.8389,-162.981,10634.7,-578.249,-5.03401,-29.7776,-53.6567,3624.89,-3175.76,9658.64,5.19025,-36.1277,-30.9608,2322.45,-4136.87,-426.528,-88.3411,171.528,-198.723,7987.61,922.485,1948.78,-30.3283,-4.37641,-50.3873,-3879.22,-11474.0,-1089.83,-17.4113,75.912,-144.727
2.349,90.9151,176.853,5516.09,157.926,303.943,-292.564,-505.913,12848.4,296.053,58.3305,-24.3348,-86.5556,-175.978,10672.3,-544.673,-4.91848,-30.4746,-53.7543,3614.33,-3171.02,9660.01,4.95387,-36.6355,-31.2567,2020.03,-4261.22,-358.94,-88.938,170.226,-201.269,7952.35,896.603,1940.71,-30.7843,-4.50266,-50.0368,-3853.35,-11377.3,-1087.15,-17.6228,77.6327,-144.71
2.35,288.183,185.726,5529.3,159.833,304.315,-292.516,-511.555,12859.6,335.523,58.521,-24.0491,-85.2723,-188.975,10709.9,-511.096,-4.80296,-31.1715,-53.8518,3603.77,-3166.29,9661.39,4.71748,-37.1432,-31.5525,1717.61,-4385.58,-291.353,-89.5349,168.923,-203.816,7917.09,870.721,1932.63,-31.2404,-4.6289,-49.6863,-3827.49,-11280.6,-1084.47,-17.8344,79.3534,-144.693
2.351,485.451,194.598,5542.52,161.739,304.687,-292.468,-517.196,12870.9,374.994,58.7114,-23.7634,-83.989,-201.972,10747.5,-477.52,-4.68743,-31.8685,-53.9494,3593.21,-3161.55,9662.76,4.4811,-37.651,-31.8484,1415.18,-4509.94,-223.765,-90.1318,167.62,-206.362,7881.84,844.839,1924.55,-31.6964,-4.75514,-49.3358,-3801.62,-11183.9,-1081.79,-18.046,81.0741,-144.676
2.352,640.258,207.625,5556.14,163.272,305.303,-292.573,-444.887,12805.2,423.036,59.2081,-23.5668,-82.7898,-219.128,10786.3,-491.206,-4.6124,-32.6398,-53.9261,3608.99,-3180.82,9672.51,4.33724,-38.282,-32.2308,1192.55,-4587.28,-175.637,-90.8407,166.509,-208.5,7825.25,781.372,1913.12,-32.2797,-4.7022,-48.5313,-3801.15,-11065.9,-1087.82,-18.3105,83.0233,-144.561
2.353,789.757,221.171,5569.82,164.758,305.949,-292.697,-362.834,12730.0,472.15,59.7431,-23.3813,-81.601,-236.803,10825.3,-510.799,-4.54243,-33.4205,-53.8878,3628.05,-3203.1,9683.3,4.20495,-38.9285,-32.624,979.895,-4658.75,-129.941,-91.5636,165.422,-210.586,7765.98,713.207,1901.27,-32.8789,-4.62686,-47.6701,-3803.85,-10945.2,-1094.94,-18.5816,85.0012,-144.434
2.354,939.256,234.717,5583.49,166.244,306.595,-292.821,-280.781,12654.7,521.263,60.2781,-23.1958,-80.4123,-254.479,10864.3,-530.393,-4.47246,-34.2012,-53.8495,3647.12,-3225.37,9694.09,4.07266,-39.5749,-33.0172,767.238,-4730.21,-84.2459,-92.2864,164.335,-212.672,7706.72,645.042,1889.42,-33.4782,-4.55152,-46.8089,-3806.54,-10824.4,-1102.06,-18.8527,86.979,-144.307
2.355,1088.75,248.263,5597.17,167.73,307.241,-292.945,-198.728,12579.5,570.376,60.8131,-23.0104,-79.2235,-272.155,10903.3,-549.987,-4.40249,-34.9819,-53.8111,3666.19,-3247.64,9704.89,3.94037,-40.2214,-33.4103,554.58,-4801.68,-38.5504,-93.0093,163.247,-214.758,7647.46,576.877,1877.57,-34.0774,-4.47617,-45.9477,-3809.24,-10703.7,-1109.18,-19.1238,88.9568,-144.179
2.356,1233.9,264.344,5608.62,168.538,307.91,-293.034,-125.718,12453.1,597.225,61.1731,-22.9289,-78.1358,-293.021,10945.3,-567.365,-4.36223,-35.7829,-53.7602,3696.81,-3261.0,9700.35,3.75881,-40.8357,-33.8053,389.911,-4866.13,18.8921,-93.6144,161.794,-216.537,7583.1,507.503,1867.6,-34.3361,-4.43229,-45.1625,-3819.22,-10586.6,-1110.25,-19.3394,91.1499,-144.071
2.357,1373.61,283.594,5617.29,168.497,308.608,-293.079,-64.013,12263.0,596.243,61.3144,-22.9773,-77.1746,-317.874,10990.9,-581.973,-4.3591,-36.6091,-53.6937,3741.86,-3263.21,9676.65,3.51567,-41.4097,-34.2026,285.227,-4921.81,91.0183,-94.0724,159.885,-217.93,7512.37,436.617,1859.98,-34.169,-4.42771,-44.4723,-3838.31,-10473.8,-1103.76,-19.4854,93.6123,-143.987
2.358,1513.31,302.844,5625.95,168.457,309.306,-293.124,-2.30776,12072.9,595.262,61.4558,-23.0258,-76.2133,-342.728,11036.5,-596.581,-4.35596,-37.4354,-53.6271,3786.91,-3265.42,9652.94,3.27252,-41.9838,-34.5999,180.543,-4977.49,163.144,-94.5303,157.975,-219.323,7441.64,365.731,1852.36,-34.002,-4.42314,-43.782,-3857.39,-10361.0,-1097.27,-19.6315,96.0746,-143.903
2.359,1653.02,322.094,5634.62,168.417,310.005,-293.169,59.3974,11882.8,594.28,61.5971,-23.0742,-75.252,-367.582,11082.2,-611.19,-4.35283,-38.2616,-53.5606,3831.96,-3267.63,9629.24,3.02938,-42.5578,-34.9972,75.8595,-5033.17,235.271,-94.9882,156.065,-220.716,7370.92,294.845,1844.74,-33.835,-4.41857,-43.0918,-3876.47,-10248.3,-1090.78,-19.7776,98.5369,-143.819
2.36,1792.72,341.344,5643.29,168.376,310.703,-293.215,121.103,11692.6,593.298,61.7385,-23.1227,-74.2907,-392.436,11127.8,-625.798,-4.3497,-39.0879,-53.494,3877.01,-3269.84,9605.54,2.78624,-43.1319,-35.3945,-28.8243,-5088.85,307.397,-95.4461,154.156,-222.109,7300.19,223.959,1837.12,-33.668,-4.41399,-42.4015,-3895.55,-10135.5,-1084.29,-19.9237,100.999,-143.735
2.361,1906.7,407.592,5667.32,166.509,311.389,-292.723,149.085,11519.9,595.75,62.1895,-23.3859,-73.4702,-412.049,11172.3,-618.011,-4.34535,-39.6434,-53.3872,3949.05,-3284.25,9596.6,3.00206,-43.8461,-35.556,-51.8211,-5104.41,436.742,-95.2393,150.741,-222.84,7273.52,195.938,1794.56,-33.1251,-4.4428,-41.8854,-3937.45,-10036.4,-1094.58,-19.0545,103.734,-143.655
2.362,2020.68,473.84,5691.36,164.642,312.075,-292.231,177.068,11347.3,598.202,62.6404,-23.649,-72.6496,-431.662,11216.7,-610.223,-4.341,-40.1988,-53.2804,4021.08,-3298.66,9587.66,3.21789,-44.5602,-35.7175,-74.8178,-5119.97,566.087,-95.0326,147.326,-223.57,7246.86,167.917,1752.0,-32.5823,-4.47162,-41.3692,-3979.35,-9937.3,-1104.88,-18.1854,106.469,-143.574
2.363,2134.66,540.088,5715.39,162.775,312.761,-291.739,205.051,11174.6,600.654,63.0914,-23.9122,-71.829,-451.275,11261.1,-602.435,-4.33665,-40.7543,-53.1735,4093.11,-3313.07,9578.72,3.43372,-45.2744,-35.879,-97.8145,-5135.53,695.432,-94.8259,143.911,-224.301,7220.2,139.895,1709.44,-32.0395,-4.50043,-40.8531,-4021.24,-9838.19,-1115.18,-17.3162,109.203,-143.494
2.364,2248.63,606.337,5739.43,160.908,313.447,-291.248,233.034,11001.9,603.106,63.5424,-24.1754,-71.0085,-470.888,11305.6,-594.648,-4.3323,-41.3098,-53.0667,4165.14,-3327.48,9569.79,3.64955,-45.9886,-36.0406,-120.811,-5151.09,824.777,-94.6192,140.496,-225.031,7193.53,111.874,1666.87,-31.4967,-4.52924,-40.3369,-4063.14,-9739.08,-1125.48,-16.447,111.938,-143.414
2.365,2332.04,724.955,5757.7,158.462,314.017,-290.425,287.502,10853.6,604.56,64.2775,-24.7116,-70.3622,-474.421,11321.0,-585.431,-4.27889,-41.6854,-53.0968,4242.17,-3338.82,9549.95,3.95628,-46.6742,-36.2092,-119.256,-5182.51,914.395,-94.1965,136.634,-225.84,7172.29,107.64,1628.39,-31.2194,-4.55416,-39.7769,-4112.91,-9608.58,-1140.86,-15.2495,114.711,-143.076
2.366,2391.0,885.469,5771.35,155.551,314.494,-289.339,363.159,10724.8,605.215,65.2401,-25.4661,-69.8552,-465.09,11313.2,-575.07,-4.18624,-41.917,-53.2366,4323.19,-3347.71,9521.38,4.33572,-47.3369,-36.3836,-98.0582,-5226.62,972.23,-93.601,132.415,-226.71,7155.37,122.436,1593.18,-31.1544,-4.57595,-39.1816,-4168.99,-9452.97,-1160.31,-13.7894,117.514,-142.533
2.367,2449.95,1045.98,5785.0,152.641,314.971,-288.252,438.815,10596.0,605.87,66.2026,-26.2205,-69.3483,-455.759,11305.4,-564.709,-4.09359,-42.1486,-53.3764,4404.22,-3356.59,9492.82,4.71516,-47.9996,-36.558,-76.8608,-5270.72,1030.07,-93.0055,128.195,-227.581,7138.46,137.231,1557.96,-31.0895,-4.59774,-38.5864,-4225.06,-9297.36,-1179.76,-12.3292,120.318,-141.99
2.368,2508.9,1206.5,5798.65,149.731,315.449,-287.166,514.472,10467.3,606.525,67.1651,-26.975,-68.8414,-446.428,11297.5,-554.348,-4.00093,-42.3803,-53.5161,4485.25,-3365.47,9464.26,5.0946,-48.6624,-36.7324,-55.6634,-5314.83,1087.9,-92.41,123.975,-228.452,7121.55,152.027,1522.74,-31.0245,-4.61954,-37.9912,-4281.14,-9141.75,-1199.21,-10.8691,123.122,-141.447
2.369,2557.29,1363.31,5813.35,146.752,315.916,-286.047,593.268,10342.4,604.919,68.1012,-27.7774,-68.3747,-439.862,11292.8,-541.554,-3.93413,-42.6137,-53.6726,4557.1,-3370.34,9439.5,5.49626,-49.332,-36.8899,-30.938,-5353.7,1139.59,-91.8054,119.709,-229.361,7109.27,166.892,1492.88,-30.968,-4.68768,-37.3883,-4338.14,-8984.61,-1227.06,-9.58321,125.876,-140.869
2.37,2521.19,1490.47,5836.49,143.225,316.306,-284.672,697.182,10248.7,585.23,68.8256,-28.9629,-68.2304,-455.415,11312.5,-509.293,-4.0741,-42.8612,-53.9631,4555.58,-3343.04,9445.13,6.07561,-50.0571,-36.9125,22.0107,-5350.63,1142.15,-91.1281,115.072,-230.579,7134.11,182.307,1505.86,-30.9789,-5.12665,-36.7237,-4402.54,-8815.22,-1322.16,-9.69159,128.237,-140.01
2.371,2485.08,1617.64,5859.63,139.699,316.695,-283.297,801.096,10154.9,565.541,69.5499,-30.1484,-68.0861,-470.968,11332.3,-477.033,-4.21408,-43.1087,-54.2535,4554.05,-3315.74,9450.76,6.65496,-50.7823,-36.9351,74.9595,-5347.56,1144.71,-90.4507,110.434,-231.797,7158.94,197.722,1518.84,-30.9897,-5.56562,-36.0591,-4466.94,-8645.84,-1417.25,-9.79997,130.598,-139.151
2.372,2448.97,1744.81,5882.77,136.172,317.084,-281.923,905.01,10061.2,545.852,70.2743,-31.334,-67.9417,-486.521,11352.0,-444.773,-4.35405,-43.3563,-54.544,4552.52,-3288.44,9456.39,7.23431,-51.5074,-36.9577,127.908,-5344.49,1147.26,-89.7733,105.797,-233.014,7183.77,213.138,1531.82,-31.0006,-6.00459,-35.3945,-4531.34,-8476.46,-1512.35,-9.90835,132.959,-138.292
2.373,2412.86,1871.97,5905.91,132.646,317.474,-280.548,1008.92,9967.49,526.163,70.9987,-32.5195,-67.7974,-502.074,11371.8,-412.512,-4.49403,-43.6038,-54.8344,4551.0,-3261.14,9462.02,7.81366,-52.2325,-36.9803,180.857,-5341.42,1149.82,-89.096,101.16,-234.232,7208.6,228.553,1544.81,-31.0114,-6.44356,-34.7299,-4595.74,-8307.07,-1607.45,-10.0167,135.32,-137.433
2.374,2344.66,1961.59,5949.14,129.103,317.63,-279.036,1073.53,9892.83,501.87,71.4103,-33.7891,-67.877,-505.964,11384.1,-381.854,-4.53335,-43.7174,-55.1263,4544.91,-3193.59,9456.86,8.47186,-52.8458,-37.0403,241.702,-5340.09,1121.31,-88.4752,96.5602,-235.844,7235.59,217.69,1561.63,-31.1954,-7.0664,-34.0855,-4678.6,-8191.65,-1655.05,-10.2095,137.036,-137.013
2.375,2260.41,2032.43,6002.4,125.552,317.669,-277.455,1118.48,9827.7,475.274,71.6657,-35.1008,-68.0687,-504.023,11392.8,-351.998,-4.52234,-43.7641,-55.4189,4536.54,-3105.93,9446.31,9.16949,-53.4033,-37.119,306.494,-5339.64,1077.27,-87.8829,91.9797,-237.652,7263.66,193.687,1580.38,-31.466,-7.78117,-33.4514,-4770.69,-8103.22,-1678.9,-10.4446,138.43,-136.812
2.376,2176.16,2103.28,6055.67,122.0,317.708,-275.874,1163.44,9762.57,448.678,71.921,-36.4125,-68.2603,-502.082,11401.5,-322.142,-4.51134,-43.8107,-55.7115,4528.17,-3018.26,9435.76,9.86713,-53.9607,-37.1976,371.287,-5339.19,1033.23,-87.2905,87.3991,-239.461,7291.72,169.684,1599.12,-31.7365,-8.49595,-32.8172,-4862.78,-8014.79,-1702.75,-10.6796,139.824,-136.611
2.377,2091.92,2174.12,6108.94,118.449,317.747,-274.294,1208.39,9697.44,422.083,72.1764,-37.7242,-68.4519,-500.142,11410.3,-292.285,-4.50033,-43.8573,-56.0041,4519.8,-2930.59,9425.21,10.5648,-54.5181,-37.2763,436.08,-5338.74,989.186,-86.6981,82.8185,-241.269,7319.79,145.682,1617.87,-32.0071,-9.21072,-32.183,-4954.87,-7926.35,-1726.6,-10.9146,141.218,-136.41
2.378,2003.52,2230.38,6171.69,115.018,317.75,-272.624,1254.33,9640.14,393.371,72.4195,-38.9925,-68.6868,-491.68,11416.3,-266.286,-4.50474,-43.873,-56.2452,4511.36,-2860.0,9408.97,11.2158,-55.1016,-37.3273,502.555,-5343.94,933.969,-86.1663,78.4866,-243.239,7352.26,125.443,1625.23,-32.1423,-9.85654,-31.5418,-5050.51,-7833.45,-1741.31,-11.0202,142.45,-136.321
2.379,1900.64,2235.6,6267.65,112.004,317.623,-270.646,1303.74,9610.25,357.254,72.62,-40.109,-69.0731,-460.394,11413.3,-253.788,-4.5631,-43.7805,-56.306,4502.68,-2849.19,9372.79,11.7036,-55.776,-37.2812,574.921,-5368.91,839.633,-85.8466,75.0249,-245.774,7400.17,118.376,1592.74,-31.8038,-10.261,-30.8756,-5158.61,-7724.92,-1724.03,-10.6725,143.113,-136.621
2.38,1797.75,2240.81,6363.6,108.991,317.497,-268.667,1353.15,9580.36,321.136,72.8204,-41.2255,-69.4594,-429.109,11410.3,-241.29,-4.62147,-43.6879,-56.3667,4494.0,-2838.38,9336.61,12.1914,-56.4504,-37.2351,647.286,-5393.87,745.296,-85.527,71.5631,-248.308,7448.09,111.31,1560.26,-31.4653,-10.6655,-30.2094,-5266.71,-7616.38,-1706.74,-10.3249,143.777,-136.921
2.381,1694.87,2246.03,6459.56,105.978,317.371,-266.688,1402.56,9550.48,285.019,73.0209,-42.3419,-69.8456,-397.823,11407.3,-228.791,-4.67983,-43.5954,-56.4275,4485.32,-2827.57,9300.43,12.6791,-57.1248,-37.1891,719.651,-5418.84,650.96,-85.2073,68.1014,-250.843,7496.0,104.244,1527.77,-31.1268,-11.07,-29.5432,-5374.8,-7507.84,-1689.46,-9.97719,144.44,-137.221
2.382,1591.98,2251.25,6555.52,102.965,317.244,-264.71,1451.97,9520.59,248.901,73.2213,-43.4584,-70.2319,-366.538,11404.3,-216.293,-4.73819,-43.5028,-56.4882,4476.64,-2816.76,9264.26,13.1669,-57.7992,-37.143,792.016,-5443.81,556.624,-84.8876,64.6397,-253.378,7543.91,97.1775,1495.29,-30.7883,-11.4744,-28.877,-5482.9,-7399.31,-1672.18,-9.62952,145.104,-137.521
2.383,1549.32,2202.48,6651.45,100.633,317.115,-262.444,1516.01,9513.93,174.727,73.5282,-44.2139,-70.7478,-347.183,11376.3,-229.382,-4.80964,-43.4375,-56.5659,4457.71,-2822.23,9206.03,13.5028,-58.2562,-37.2136,837.769,-5466.8,458.827,-84.6623,62.1622,-256.202,7512.74,106.552,1439.51,-31.1962,-11.4533,-27.8489,-5581.0,-7279.03,-1682.03,-9.46592,145.601,-137.612
2.384,1523.86,2138.29,6747.38,98.4946,316.986,-260.097,1584.23,9513.91,89.6808,73.8656,-44.8662,-71.3007,-331.236,11341.1,-249.782,-4.88484,-43.3801,-56.6484,4435.84,-2832.35,9141.51,13.7953,-58.6511,-37.3175,875.918,-5489.23,360.042,-84.464,59.966,-259.11,7458.96,120.625,1377.08,-31.8173,-11.3106,-26.7175,-5676.23,-7155.39,-1699.64,-9.35491,146.051,-137.642
2.385,1498.41,2074.1,6843.31,96.3565,316.856,-257.75,1652.45,9513.89,4.6342,74.2029,-45.5185,-71.8537,-315.29,11306.0,-270.182,-4.96004,-43.3226,-56.7309,4413.97,-2842.47,9076.99,14.0878,-59.046,-37.4214,914.068,-5511.65,261.256,-84.2656,57.7699,-262.017,7405.19,134.697,1314.66,-32.4384,-11.1679,-25.586,-5771.47,-7031.76,-1717.25,-9.24389,146.501,-137.673
2.386,1472.95,2009.91,6939.23,94.2184,316.727,-255.404,1720.66,9513.86,-80.4125,74.5402,-46.1708,-72.4066,-299.343,11270.9,-290.582,-5.03524,-43.2651,-56.8134,4392.11,-2852.59,9012.47,14.3803,-59.4409,-37.5254,952.217,-5534.07,162.471,-84.0673,55.5737,-264.925,7351.42,148.77,1252.23,-33.0595,-11.0252,-24.4545,-5866.71,-6908.12,-1734.85,-9.13288,146.952,-137.703
2.387,1455.5,1944.37,7040.58,92.436,316.661,-252.954,1771.06,9525.83,-182.36,74.8256,-46.6731,-72.9328,-289.747,11219.5,-319.546,-5.09021,-43.0967,-56.9428,4396.22,-2850.78,8957.76,14.6001,-59.8084,-37.5605,998.911,-5561.8,64.3786,-83.9551,53.7135,-267.886,7315.9,147.408,1202.02,-33.8523,-10.8167,-23.33,-5976.23,-6796.71,-1745.71,-9.06158,147.413,-137.564
2.388,1454.04,1876.15,7152.78,91.3647,316.722,-250.301,1785.8,9561.78,-318.111,75.0069,-46.8751,-73.4058,-292.852,11135.5,-365.637,-5.10475,-42.7065,-57.1661,4452.29,-2825.09,8922.66,14.6743,-60.1212,-37.4579,1062.69,-5600.13,-32.3265,-84.0149,52.5253,-270.956,7316.91,115.179,1176.24,-34.9886,-10.4767,-22.2192,-6114.32,-6709.77,-1743.08,-9.06971,147.897,-137.086
2.389,1452.58,1807.93,7264.97,90.2935,316.784,-247.648,1800.55,9597.74,-453.862,75.1883,-47.0772,-73.8788,-295.957,11051.5,-411.729,-5.11929,-42.3163,-57.3893,4508.36,-2799.41,8887.56,14.7486,-60.4339,-37.3554,1126.48,-5638.46,-129.032,-84.0748,51.3371,-274.026,7317.91,82.9499,1150.46,-36.1249,-10.1367,-21.1085,-6252.4,-6622.83,-1740.46,-9.07785,148.38,-136.607
2.39,1451.13,1739.7,7377.16,89.2223,316.846,-244.995,1815.29,9633.69,-589.613,75.3697,-47.2793,-74.3518,-299.062,10967.5,-457.821,-5.13382,-41.926,-57.6125,4564.42,-2773.72,8852.47,14.8228,-60.7467,-37.2528,1190.26,-5676.79,-225.737,-84.1347,50.1489,-277.095,7318.92,50.7208,1124.68,-37.2613,-9.79665,-19.9977,-6390.48,-6535.89,-1737.83,-9.08598,148.864,-136.129
2.391,1449.67,1671.48,7489.35,88.151,316.907,-242.342,1830.04,9669.64,-725.363,75.5511,-47.4813,-74.8248,-302.167,10883.5,-503.913,-5.14836,-41.5358,-57.8357,4620.49,-2748.04,8817.37,14.8971,-61.0594,-37.1503,1254.04,-5715.12,-322.442,-84.1946,48.9607,-280.165,7319.92,18.4916,1098.9,-38.3976,-9.45662,-18.887,-6528.57,-6448.94,-1735.2,-9.09411,149.348,-135.651
2.392,1493.76,1654.22,7603.73,87.6032,317.252,-239.745,1835.54,9704.85,-821.862,75.327,-47.258,-75.0551,-298.606,10813.5,-550.541,-5.25378,-40.9711,-58.131,4692.59,-2707.18,8786.08,14.6825,-61.3773,-37.0671,1307.92,-5787.41,-412.784,-84.378,48.5145,-283.215,7390.3,-27.484,1064.3,-38.5911,-9.30653,-18.0261,-6670.57,-6372.01,-1739.91,-9.44025,149.391,-134.782
2.393,1543.55,1643.34,7718.37,87.1208,317.633,-237.156,1839.87,9739.98,-913.454,75.0523,-46.9814,-75.2549,-294.212,10745.4,-597.237,-5.37055,-40.3845,-58.4353,4766.69,-2664.43,8755.27,14.4318,-61.6958,-36.9863,1360.56,-5863.96,-502.33,-84.577,48.161,-286.263,7469.36,-75.178,1028.61,-38.6668,-9.18019,-17.1965,-6813.06,-6296.33,-1745.53,-9.82863,149.378,-133.865
2.394,1593.33,1632.46,7833.02,86.6384,318.013,-234.566,1844.21,9775.1,-1005.05,74.7776,-46.7049,-75.4548,-289.818,10677.2,-643.933,-5.48733,-39.7979,-58.7397,4840.79,-2621.68,8724.46,14.1811,-62.0143,-36.9056,1413.21,-5940.5,-591.877,-84.7759,47.8075,-289.311,7548.42,-122.872,992.922,-38.7425,-9.05384,-16.3669,-6955.55,-6220.64,-1751.16,-10.217,149.366,-132.949
2.395,1643.12,1621.58,7947.67,86.156,318.393,-231.977,1848.55,9810.23,-1096.64,74.5028,-46.4284,-75.6546,-285.424,10609.0,-690.629,-5.6041,-39.2113,-59.044,4914.89,-2578.93,8693.65,13.9304,-62.3327,-36.8248,1465.85,-6017.04,-681.423,-84.9749,47.454,-292.358,7627.48,-170.566,957.23,-38.8182,-8.9275,-15.5373,-7098.04,-6144.96,-1756.78,-10.6054,149.353,-132.032
2.396,1726.74,1634.79,8062.87,85.83,318.881,-229.499,1854.19,9841.99,-1163.91,74.1493,-45.9335,-75.8245,-297.072,10554.2,-743.326,-5.73468,-38.6034,-59.3242,4980.19,-2545.95,8660.23,13.6321,-62.6285,-36.7332,1516.35,-6113.71,-769.642,-85.2332,47.2982,-295.281,7686.83,-190.569,917.735,-38.6378,-8.88536,-14.7613,-7235.2,-6074.51,-1771.43,-10.7422,149.101,-131.095
2.397,1852.67,1678.12,8178.76,85.6996,319.503,-227.16,1861.45,9869.56,-1200.79,73.6973,-45.1656,-75.9568,-328.774,10516.1,-803.525,-5.88252,-37.969,-59.5744,5034.49,-2525.17,8623.55,13.2744,-62.8959,-36.6282,1564.18,-6235.56,-856.201,-85.5659,47.3894,-298.049,7721.56,-175.958,873.484,-38.1373,-8.94847,-14.0524,-7365.7,-6010.6,-1797.36,-10.5646,148.547,-130.134
2.398,1978.6,1721.46,8294.65,85.5691,320.125,-224.82,1868.72,9897.12,-1237.67,73.2454,-44.3978,-76.0892,-360.475,10478.0,-863.724,-6.03036,-37.3346,-59.8246,5088.79,-2504.4,8586.87,12.9167,-63.1633,-36.5231,1612.0,-6357.41,-942.76,-85.8985,47.4806,-300.816,7756.29,-161.347,829.234,-37.6367,-9.01159,-13.3435,-7496.2,-5946.69,-1823.28,-10.387,147.994,-129.173
2.399,2104.53,1764.79,8410.54,85.4386,320.747,-222.481,1875.98,9924.68,-1274.55,72.7934,-43.6299,-76.2215,-392.177,10440.0,-923.923,-6.1782,-36.7002,-60.0747,5143.09,-2483.63,8550.19,12.5591,-63.4307,-36.418,1659.83,-6479.25,-1029.32,-86.2311,47.5719,-303.583,7791.02,-146.736,784.984,-37.1361,-9.07471,-12.6346,-7626.7,-5882.78,-1849.21,-10.2094,147.441,-128.212
2.4,2230.46,1808.13,8526.43,85.3082,321.369,-220.142,1883.24,9952.24,-1311.43,72.3414,-42.8621,-76.3538,-423.879,10401.9,-984.122,-6.32604,-36.0658,-60.3249,5197.39,-2462.85,8513.52,12.2014,-63.6982,-36.3129,1707.65,-6601.1,-1115.88,-86.5638,47.6631,-306.35,7825.75,-132.125,740.734,-36.6356,-9.13783,-11.9257,-7757.19,-5818.88,-1875.13,-10.0318,146.887,-127.251
2.401,2363.8,1903.02,8621.69,85.5029,322.241,-218.118,1884.81,9910.8,-1329.56,72.0761,-41.8308,-76.3293,-477.045,10368.9,-1039.74,-6.50669,-35.621,-60.5855,5204.49,-2517.21,8488.16,11.9467,-64.0566,-36.4021,1716.27,-6728.46,-1140.93,-86.8346,47.8138,-308.706,7873.46,-141.566,708.155,-36.2759,-9.36159,-11.5877,-7851.38,-5759.19,-1927.49,-10.9171,145.718,-126.126
2.402,2497.15,1997.92,8716.96,85.6976,323.112,-216.094,1886.39,9869.36,-1347.7,71.8108,-40.7995,-76.3047,-530.211,10335.9,-1095.36,-6.68735,-35.1762,-60.8461,5211.59,-2571.56,8462.8,11.6919,-64.415,-36.4914,1724.89,-6855.83,-1165.99,-87.1054,47.9646,-311.062,7921.18,-151.007,675.576,-35.9163,-9.58536,-11.2496,-7945.57,-5699.5,-1979.85,-11.8024,144.549,-125.0
2.403,2630.49,2092.81,8812.23,85.8923,323.984,-214.07,1887.96,9827.92,-1365.83,71.5454,-39.7682,-76.2802,-583.377,10302.9,-1150.98,-6.86801,-34.7314,-61.1067,5218.69,-2625.91,8437.44,11.4372,-64.7735,-36.5806,1733.51,-6983.2,-1191.04,-87.3762,48.1153,-313.418,7968.9,-160.448,642.997,-35.5566,-9.80913,-10.9116,-8039.76,-5639.81,-2032.22,-12.6878,143.38,-123.875
2.404,2763.84,2187.71,8907.5,86.087,324.855,-212.046,1889.53,9786.48,-1383.96,71.2801,-38.7369,-76.2556,-636.543,10269.9,-1206.6,-7.04866,-34.2867,-61.3673,5225.8,-2680.26,8412.09,11.1825,-65.1319,-36.6698,1742.13,-7110.57,-1216.09,-87.647,48.2661,-315.774,8016.62,-169.889,610.418,-35.1969,-10.0329,-10.5736,-8133.95,-5580.13,-2084.58,-13.5731,142.211,-122.749
2.405,2892.37,2276.95,9000.83,86.3181,325.912,-210.382,1883.61,9725.92,-1387.43,71.1672,-37.8277,-76.1647,-689.745,10249.1,-1254.68,-7.28885,-33.9311,-61.6763,5226.46,-2741.08,8375.95,10.856,-65.4441,-36.8769,1722.08,-7257.42,-1218.9,-87.956,48.3116,-318.037,8083.87,-209.458,580.075,-34.8453,-10.2202,-10.3166,-8185.98,-5544.27,-2075.89,-14.0523,140.57,-121.766
2.406,3017.06,2361.67,9092.61,86.5782,327.117,-209.005,1871.7,9650.07,-1379.16,71.1764,-37.016,-76.0207,-742.977,10238.1,-1296.73,-7.57666,-33.6468,-62.0242,5221.98,-2807.06,8331.2,10.4723,-65.7191,-37.1783,1679.11,-7419.84,-1203.92,-88.2955,48.2729,-320.226,8166.74,-273.131,551.522,-34.5002,-10.3785,-10.1244,-8204.29,-5527.47,-2018.37,-14.2066,138.55,-120.895
2.407,3141.74,2446.38,9184.39,86.8384,328.322,-207.628,1859.79,9574.21,-1370.9,71.1855,-36.2044,-75.8768,-796.208,10227.0,-1338.78,-7.86448,-33.3626,-62.3721,5217.49,-2873.04,8286.45,10.0885,-65.9942,-37.4797,1636.13,-7582.27,-1188.93,-88.635,48.2342,-322.415,8249.6,-336.804,522.968,-34.1551,-10.5367,-9.9322,-8222.59,-5510.68,-1960.85,-14.3609,136.531,-120.025
2.408,3266.43,2531.1,9276.17,87.0986,329.527,-206.251,1847.88,9498.35,-1362.63,71.1946,-35.3927,-75.7328,-849.44,10216.0,-1380.83,-8.15229,-33.0783,-62.72,5213.01,-2939.03,8241.7,9.7047,-66.2693,-37.7811,1593.15,-7744.7,-1173.95,-88.9746,48.1954,-324.604,8332.47,-400.477,494.415,-33.8099,-10.6949,-9.74002,-8240.89,-5493.89,-1903.33,-14.5152,134.512,-119.155
2.409,3394.5,2611.15,9366.72,87.3898,330.769,-204.928,1835.95,9423.12,-1352.22,71.2524,-34.6057,-75.6039,-898.727,10205.1,-1418.18,-8.44611,-32.7991,-63.074,5208.95,-2994.26,8203.84,9.33154,-66.5372,-38.0776,1547.89,-7905.4,-1155.82,-89.3283,48.1222,-326.743,8414.98,-458.749,464.739,-33.4566,-10.8112,-9.55879,-8258.57,-5479.03,-1848.08,-14.6781,132.438,-118.28
2.41,3549.65,2653.85,9447.36,87.929,332.308,-204.034,1823.86,9352.83,-1324.67,71.6992,-34.0159,-75.5954,-916.451,10196.0,-1417.97,-8.78802,-32.56,-63.4772,5208.31,-2963.46,8221.11,9.04343,-66.7473,-38.3356,1484.38,-8052.29,-1112.53,-89.7954,47.7726,-328.478,8494.63,-473.813,426.079,-33.0376,-10.592,-9.46515,-8271.24,-5479.71,-1810.99,-14.9095,129.919,-117.369
2.411,3704.79,2696.55,9527.99,88.4683,333.848,-203.14,1811.77,9282.55,-1297.12,72.1461,-33.4261,-75.5868,-934.175,10186.8,-1417.76,-9.12992,-32.3209,-63.8803,5207.67,-2932.65,8238.38,8.75532,-66.9575,-38.5936,1420.88,-8199.18,-1069.25,-90.2626,47.4231,-330.213,8574.27,-488.878,387.42,-32.6186,-10.3728,-9.3715,-8283.91,-5480.38,-1773.89,-15.141,127.4,-116.458
2.412,3859.94,2739.25,9608.63,89.0075,335.387,-202.246,1799.67,9212.27,-1269.56,72.5929,-32.8363,-75.5783,-951.9,10177.7,-1417.55,-9.47183,-32.0819,-64.2835,5207.03,-2901.85,8255.65,8.46721,-67.1676,-38.8516,1357.37,-8346.07,-1025.97,-90.7298,47.0735,-331.948,8653.92,-503.942,348.761,-32.1996,-10.1536,-9.27786,-8296.59,-5481.05,-1736.79,-15.3725,124.881,-115.547
2.413,4015.08,2781.95,9689.27,89.5467,336.926,-201.352,1787.58,9141.99,-1242.01,73.0398,-32.2465,-75.5697,-969.624,10168.5,-1417.34,-9.81374,-31.8428,-64.6867,5206.4,-2871.05,8272.92,8.17909,-67.3778,-39.1096,1293.86,-8492.96,-982.686,-91.1969,46.724,-333.683,8733.56,-519.007,310.102,-31.7807,-9.93438,-9.18422,-8309.26,-5481.73,-1699.69,-15.604,122.363,-114.636
2.414,4162.76,2867.62,9757.17,90.0161,338.47,-200.714,1770.68,9074.0,-1208.62,73.6176,-31.9306,-75.596,-966.332,10144.4,-1411.24,-10.1082,-31.6415,-65.0342,5180.47,-2867.44,8284.61,7.88847,-67.6167,-39.3897,1216.94,-8642.24,-962.982,-91.7049,46.1042,-335.526,8784.17,-512.951,288.666,-31.4499,-9.72773,-9.12567,-8305.05,-5502.33,-1694.85,-15.9984,119.569,-113.67
2.415,4306.7,2974.78,9818.7,90.4506,340.015,-200.204,1751.37,9007.15,-1172.33,74.2609,-31.7517,-75.6397,-952.531,10112.8,-1402.2,-10.3788,-31.4592,-65.3538,5141.91,-2877.43,8293.52,7.59659,-67.8701,-39.6808,1133.32,-8792.71,-955.068,-92.2334,45.3494,-337.422,8820.26,-496.334,275.84,-31.1632,-9.52737,-9.08468,-8292.4,-5532.9,-1706.14,-16.4742,116.637,-112.676
2.416,4450.64,3081.93,9880.23,90.885,341.561,-199.694,1732.06,8940.3,-1136.03,74.9042,-31.5727,-75.6834,-938.73,10081.2,-1393.16,-10.6495,-31.2768,-65.6735,5103.35,-2887.42,8302.42,7.30471,-68.1235,-39.9719,1049.69,-8943.18,-947.154,-92.7619,44.5945,-339.318,8856.36,-479.718,263.015,-30.8765,-9.32701,-9.04368,-8279.75,-5563.47,-1717.43,-16.9501,113.706,-111.682
2.417,4594.58,3189.09,9941.76,91.3194,343.106,-199.184,1712.75,8873.46,-1099.73,75.5475,-31.3938,-75.7271,-924.929,10049.6,-1384.12,-10.9202,-31.0944,-65.9931,5064.79,-2897.41,8311.33,7.01283,-68.3768,-40.263,966.063,-9093.66,-939.24,-93.2903,43.8397,-341.214,8892.45,-463.102,250.19,-30.5898,-9.12664,-9.00269,-8267.1,-5594.04,-1728.72,-17.4259,110.774,-110.688
2.418,4740.22,3293.18,10009.9,91.6839,344.609,-198.73,1693.65,8812.23,-1066.13,76.1325,-31.3022,-75.7678,-909.598,10019.6,-1376.81,-11.1944,-30.9418,-66.3115,5029.87,-2908.33,8316.02,6.73439,-68.6064,-40.5596,887.904,-9245.46,-928.982,-93.8168,43.0655,-343.124,8929.74,-450.425,236.853,-30.4122,-8.92193,-8.95537,-8256.88,-5620.27,-1736.92,-17.8702,107.815,-109.639
2.419,4891.81,3386.53,10101.1,91.8036,345.963,-198.472,1675.29,8770.7,-1041.95,76.5136,-31.5164,-75.7979,-888.908,9995.25,-1375.56,-11.481,-30.8932,-66.6253,5007.69,-2922.5,8305.96,6.503,-68.7524,-40.8749,828.881,-9401.9,-910.519,-94.3364,42.2239,-345.085,8971.22,-451.535,221.725,-30.6165,-8.70201,-8.88592,-8255.12,-5631.32,-1734.3,-18.204,104.761,-108.399
2.42,5043.4,3479.88,10192.3,91.9232,347.317,-198.214,1656.93,8729.16,-1017.77,76.8947,-31.7306,-75.828,-868.218,9970.9,-1374.31,-11.7676,-30.8446,-66.939,4985.52,-2936.68,8295.9,6.2716,-68.8985,-41.1903,769.858,-9558.34,-892.056,-94.8559,41.3822,-347.045,9012.7,-452.644,206.597,-30.8207,-8.48208,-8.81647,-8253.37,-5642.36,-1731.68,-18.5377,101.706,-107.16
2.421,5194.99,3573.23,10283.5,92.0428,348.671,-197.956,1638.56,8687.63,-993.589,77.2757,-31.9448,-75.8581,-847.528,9946.55,-1373.06,-12.0542,-30.796,-67.2528,4963.34,-2950.85,8285.84,6.04021,-69.0446,-41.5057,710.835,-9714.78,-873.593,-95.3755,40.5406,-349.005,9054.18,-453.754,191.469,-31.0249,-8.26215,-8.74701,-8251.62,-5653.41,-1729.06,-18.8715,98.6516,-105.92
2.422,5346.57,3666.58,10374.6,92.1624,350.024,-197.698,1620.2,8646.09,-969.409,77.6568,-32.159,-75.8882,-826.838,9922.19,-1371.81,-12.3408,-30.7474,-67.5666,4941.17,-2965.03,8275.78,5.80881,-69.1907,-41.8211,651.811,-9871.22,-855.13,-95.8951,39.6989,-350.965,9095.66,-454.864,176.341,-31.2291,-8.04222,-8.67756,-8249.87,-5664.45,-1726.44,-19.2053,95.5971,-104.68
2.423,5454.99,3775.44,10445.3,92.2102,351.402,-197.612,1589.12,8611.58,-949.476,77.8545,-32.5386,-75.8887,-810.693,9923.86,-1364.31,-12.6266,-30.7469,-67.8882,4927.97,-2977.47,8264.07,5.66288,-69.3408,-42.1466,610.937,-10042.7,-824.658,-96.401,38.8978,-352.788,9109.83,-512.396,132.656,-31.5881,-7.77137,-8.54184,-8250.49,-5698.51,-1697.11,-19.0746,92.7427,-103.506
2.424,5551.07,3888.73,10510.0,92.2375,352.786,-197.576,1554.41,8579.07,-930.756,77.9998,-32.9654,-75.8808,-795.847,9932.95,-1355.02,-12.9122,-30.7602,-68.2122,4917.34,-2989.42,8251.88,5.54138,-69.4921,-42.4751,575.247,-10218.6,-790.756,-96.903,38.1082,-354.572,9116.19,-586.047,80.8115,-31.9913,-7.48598,-8.38718,-8251.8,-5739.15,-1660.15,-18.8113,89.9456,-102.351
2.425,5647.15,4002.02,10574.7,92.2648,354.171,-197.539,1519.7,8546.56,-912.036,78.1451,-33.3922,-75.8728,-781.0,9942.04,-1345.73,-13.1978,-30.7734,-68.5361,4906.71,-3001.37,8239.69,5.41987,-69.6434,-42.8035,539.558,-10394.4,-756.853,-97.405,37.3187,-356.356,9122.55,-659.699,28.9674,-32.3945,-7.20058,-8.23252,-8253.1,-5779.79,-1623.18,-18.548,87.1485,-101.196
2.426,5743.23,4115.32,10639.4,92.292,355.556,-197.503,1484.99,8514.05,-893.316,78.2903,-33.819,-75.8649,-766.154,9951.14,-1336.45,-13.4833,-30.7866,-68.86,4896.07,-3013.32,8227.5,5.29837,-69.7946,-43.1319,503.869,-10570.3,-722.95,-97.9069,36.5291,-358.14,9128.91,-733.35,-22.8766,-32.7976,-6.91518,-8.07786,-8254.41,-5820.43,-1586.22,-18.2846,84.3514,-100.04
2.427,5833.49,4235.17,10702.3,92.2787,356.812,-197.507,1450.64,8491.55,-876.655,78.4262,-34.2712,-75.8823,-764.265,9960.98,-1321.45,-13.729,-30.7629,-69.1752,4898.46,-3021.76,8220.16,5.1985,-69.9605,-43.4746,478.559,-10742.1,-703.644,-98.5084,35.8449,-359.934,9127.88,-788.174,-66.2502,-33.0676,-6.62537,-7.94003,-8251.4,-5859.85,-1553.12,-17.8746,81.6496,-98.8691
2.428,5912.12,4368.13,10761.5,92.1843,357.814,-197.595,1417.03,8489.06,-864.115,78.5434,-34.7739,-75.9503,-788.29,9972.32,-1295.02,-13.8947,-30.6652,-69.4728,4926.9,-3023.19,8222.5,5.14191,-70.1555,-43.8459,474.006,-10905.8,-713.533,-99.3087,35.3715,-361.748,9112.07,-805.34,-92.6827,-33.071,-6.32672,-7.83585,-8239.78,-5896.82,-1527.76,-17.1714,79.1382,-97.6661
2.429,5990.75,4501.09,10820.7,92.0899,358.815,-197.682,1383.42,8486.57,-851.575,78.6605,-35.2767,-76.0183,-812.315,9983.67,-1268.6,-14.0604,-30.5675,-69.7705,4955.34,-3024.61,8224.83,5.08533,-70.3504,-44.2171,469.454,-11069.6,-723.422,-100.109,34.898,-363.562,9096.27,-822.506,-119.115,-33.0745,-6.02807,-7.73167,-8228.15,-5933.79,-1502.39,-16.4682,76.6268,-96.4632
2.43,6069.38,4634.06,10879.9,91.9954,359.817,-197.769,1349.81,8484.08,-839.035,78.7776,-35.7795,-76.0863,-836.34,9995.01,-1242.17,-14.2261,-30.4698,-70.0682,4983.78,-3026.03,8227.17,5.02874,-70.5454,-44.5883,464.901,-11233.3,-733.311,-100.909,34.4245,-365.376,9080.46,-839.673,-145.548,-33.078,-5.72943,-7.6275,-8216.53,-5970.76,-1477.03,-15.7649,74.1154,-95.2603
2.431,6148.01,4767.02,10939.0,91.901,360.818,-197.857,1316.2,8481.59,-826.494,78.8948,-36.2822,-76.1543,-860.365,10006.4,-1215.75,-14.3918,-30.3721,-70.3659,5012.22,-3027.45,8229.51,4.97215,-70.7404,-44.9596,460.349,-11397.0,-743.2,-101.71,33.951,-367.19,9064.65,-856.839,-171.98,-33.0814,-5.43078,-7.52332,-8204.9,-6007.73,-1451.67,-15.0617,71.6041,-94.0573
2.432,6224.81,4906.2,11014.4,91.7766,361.469,-198.206,1302.32,8501.85,-807.879,79.039,-36.8011,-76.186,-864.25,10020.5,-1189.17,-14.5645,-30.3834,-70.6885,5015.75,-3022.11,8252.33,4.91806,-70.9591,-45.3492,434.34,-11546.5,-768.714,-102.524,33.669,-369.038,9052.59,-856.734,-199.764,-33.0347,-5.23152,-7.30964,-8210.73,-6029.88,-1435.58,-13.8907,69.2501,-92.8937
2.433,6301.39,5046.15,11091.8,91.6485,362.076,-198.588,1290.9,8524.97,-788.505,79.1865,-37.3219,-76.2131,-865.617,10034.9,-1162.57,-14.738,-30.4083,-71.0142,5016.16,-3015.92,8277.7,4.86427,-71.1809,-45.7411,405.648,-11694.1,-796.181,-103.339,33.411,-370.89,9041.0,-854.47,-227.717,-32.9817,-5.04468,-7.08227,-8218.74,-6050.18,-1420.65,-12.6612,66.9159,-91.735
2.434,6377.97,5186.11,11169.1,91.5204,362.682,-198.97,1279.48,8548.08,-769.131,79.3341,-37.8427,-76.2402,-866.984,10049.4,-1135.97,-14.9114,-30.4332,-71.34,5016.57,-3009.73,8303.08,4.81049,-71.4026,-46.133,376.957,-11841.7,-823.648,-104.155,33.1529,-372.742,9029.4,-852.205,-255.67,-32.9288,-4.85784,-6.85491,-8226.74,-6070.49,-1405.71,-11.4318,64.5816,-90.5762
2.435,6454.55,5326.06,11246.5,91.3923,363.289,-199.352,1268.05,8571.19,-749.756,79.4817,-38.3635,-76.2672,-868.352,10063.9,-1109.37,-15.0849,-30.4582,-71.6657,5016.98,-3003.55,8328.46,4.7567,-71.6244,-46.525,348.266,-11989.3,-851.115,-104.971,32.8949,-374.594,9017.81,-849.941,-283.623,-32.8758,-4.671,-6.62754,-8234.75,-6090.79,-1390.78,-10.2023,62.2473,-89.4175
2.436,6535.8,5442.5,11320.8,91.2928,363.737,-199.876,1255.18,8600.43,-724.122,79.616,-38.8625,-76.334,-867.635,10072.9,-1073.89,-15.2738,-30.5832,-72.0002,5013.43,-2985.69,8347.17,4.6697,-71.8742,-46.8932,326.818,-12144.9,-869.28,-105.893,32.7902,-376.3,9003.53,-835.907,-320.388,-32.8867,-4.4978,-6.37707,-8255.43,-6094.1,-1406.57,-8.9057,59.9371,-88.2738
2.437,6622.88,5529.55,11391.4,91.2292,363.986,-200.576,1240.49,8637.33,-690.662,79.7338,-39.3343,-76.4502,-864.313,10075.1,-1027.33,-15.4818,-30.8333,-72.3458,5004.94,-2953.24,8357.56,4.54119,-72.1593,-47.2316,314.425,-12310.2,-875.818,-106.948,32.8773,-377.826,8985.89,-807.159,-368.168,-32.9775,-4.34166,-6.09772,-8291.95,-6076.19,-1460.76,-7.52514,57.6571,-87.1489
2.438,6709.96,5616.6,11461.9,91.1656,364.234,-201.276,1225.8,8674.23,-657.202,79.8516,-39.8061,-76.5664,-860.99,10077.4,-980.761,-15.6897,-31.0835,-72.6914,4996.45,-2920.79,8367.95,4.41268,-72.4443,-47.5701,302.033,-12475.6,-882.356,-108.003,32.9644,-379.351,8968.24,-778.412,-415.948,-33.0683,-4.18551,-5.81837,-8328.47,-6058.28,-1514.96,-6.14459,55.377,-86.0239
2.439,6797.04,5703.65,11532.5,91.102,364.483,-201.976,1211.11,8711.14,-623.743,79.9693,-40.2779,-76.6826,-857.668,10079.6,-934.195,-15.8977,-31.3337,-73.037,4987.96,-2888.34,8378.34,4.28417,-72.7293,-47.9086,289.64,-12641.0,-888.894,-109.059,33.0514,-380.877,8950.6,-749.665,-463.727,-33.1591,-4.02937,-5.53902,-8364.99,-6040.36,-1569.15,-4.76404,53.0969,-84.899
2.44,6884.12,5790.7,11603.0,91.0384,364.731,-202.677,1196.42,8748.04,-590.283,80.0871,-40.7497,-76.7989,-854.345,10081.9,-887.629,-16.1057,-31.5838,-73.3825,4979.47,-2855.89,8388.73,4.15566,-73.0144,-48.2471,277.248,-12806.4,-895.431,-110.114,33.1385,-382.402,8932.96,-720.917,-511.507,-33.2499,-3.87323,-5.25967,-8401.51,-6022.45,-1623.35,-3.38348,50.8168,-83.774
2.441,6979.43,5848.48,11698.2,91.2335,364.556,-203.713,1180.62,8789.87,-572.85,80.1486,-40.8855,-77.0699,-869.505,10096.7,-842.983,-16.3792,-31.9349,-73.6327,4985.22,-2799.81,8406.41,3.95541,-73.3436,-48.5174,260.24,-12963.7,-933.417,-111.325,33.781,-383.903,8902.9,-678.99,-501.608,-33.3658,-3.84845,-4.7622,-8425.58,-5976.17,-1731.46,-2.9015,48.4731,-82.8109
2.442,7074.75,5906.27,11793.3,91.4286,364.38,-204.75,1164.81,8831.7,-555.417,80.2101,-41.0213,-77.341,-884.664,10111.5,-798.337,-16.6527,-32.286,-73.8829,4990.98,-2743.74,8424.09,3.75515,-73.6727,-48.7876,243.232,-13121.0,-971.403,-112.535,34.4235,-385.405,8872.84,-637.063,-491.71,-33.4816,-3.82367,-4.26472,-8449.66,-5929.9,-1839.58,-2.41951,46.1294,-81.8478
2.443,7170.07,5964.06,11888.4,91.6238,364.204,-205.786,1149.0,8873.53,-537.984,80.2717,-41.157,-77.612,-899.823,10126.3,-753.691,-16.9261,-32.6371,-74.133,4996.74,-2687.67,8441.77,3.5549,-74.0019,-49.0578,226.224,-13278.3,-1009.39,-113.746,35.0661,-386.906,8842.78,-595.136,-481.811,-33.5975,-3.7989,-3.76725,-8473.73,-5883.63,-1947.7,-1.93753,43.7857,-80.8847
2.444,7265.39,6021.85,11983.5,91.8189,364.028,-206.823,1133.19,8915.35,-520.551,80.3332,-41.2928,-77.883,-914.982,10141.1,-709.046,-17.1996,-32.9881,-74.3832,5002.49,-2631.6,8459.46,3.35465,-74.3311,-49.3281,209.216,-13435.6,-1047.37,-114.956,35.7086,-388.407,8812.72,-553.21,-471.913,-33.7133,-3.77412,-3.26978,-8497.81,-5837.35,-2055.82,-1.45555,41.4419,-79.9215
2.445,7369.93,6075.7,12068.6,91.8778,363.672,-207.894,1129.22,8970.87,-489.314,80.3736,-41.2263,-78.2037,-922.927,10155.7,-665.554,-17.4445,-33.4104,-74.641,5010.35,-2590.56,8475.29,3.13732,-74.7146,-49.6199,164.118,-13594.0,-1068.67,-116.113,36.4249,-389.776,8777.13,-508.286,-471.335,-33.7903,-3.73698,-2.90865,-8520.85,-5780.19,-2149.45,-1.65053,39.1258,-78.8632
2.446,7481.84,6126.4,12145.6,91.8277,363.171,-208.993,1134.71,9037.32,-447.032,80.397,-40.9982,-78.5641,-925.1,10170.0,-622.986,-17.6667,-33.8898,-74.905,5019.88,-2561.56,8489.64,2.90633,-75.1415,-49.9291,96.5482,-13753.2,-1076.6,-117.225,37.2003,-391.038,8737.13,-460.964,-478.213,-33.8361,-3.68997,-2.6566,-8543.05,-5714.32,-2231.48,-2.38709,36.8317,-77.7287
2.447,7593.75,6177.09,12222.6,91.7776,362.67,-210.093,1140.21,9103.78,-404.751,80.4205,-40.77,-78.9245,-927.272,10184.3,-580.419,-17.8888,-34.3691,-75.169,5029.41,-2532.56,8504.0,2.67534,-75.5685,-50.2382,28.9779,-13912.3,-1084.54,-118.338,37.9756,-392.3,8697.13,-413.643,-485.091,-33.882,-3.64295,-2.40455,-8565.26,-5648.44,-2313.51,-3.12366,34.5377,-76.5942
2.448,7705.66,6227.79,12299.6,91.7275,362.169,-211.192,1145.71,9170.24,-362.47,80.444,-40.5418,-79.2849,-929.445,10198.6,-537.851,-18.111,-34.8484,-75.4329,5038.94,-2503.56,8518.35,2.44435,-75.9954,-50.5474,-38.5924,-14071.5,-1092.48,-119.45,38.751,-393.562,8657.13,-366.321,-491.969,-33.9278,-3.59593,-2.15251,-8587.47,-5582.57,-2395.53,-3.86022,32.2436,-75.4597
2.449,7817.55,6280.54,12373.7,91.6438,361.613,-212.26,1151.64,9234.03,-322.226,80.4355,-40.2926,-79.6464,-932.664,10214.6,-497.434,-18.341,-35.3387,-75.7039,5047.45,-2475.04,8531.88,2.21416,-76.4235,-50.847,-103.66,-14231.2,-1104.82,-120.558,39.5349,-394.826,8618.17,-317.744,-502.219,-33.9817,-3.52752,-1.88069,-8609.38,-5512.89,-2464.61,-4.67744,29.922,-74.3229
2.45,7929.34,6349.64,12424.8,91.2912,360.621,-213.086,1161.09,9276.52,-298.279,80.1711,-39.8756,-80.017,-944.251,10244.5,-474.23,-18.6335,-35.9167,-76.0313,5047.78,-2450.37,8538.74,1.9904,-76.8601,-51.0704,-148.705,-14395.5,-1152.44,-121.627,40.3871,-396.105,8587.57,-259.122,-539.44,-34.1,-3.28798,-1.45075,-8628.93,-5412.76,-2430.09,-6.13991,27.3801,-73.1679
2.451,8041.13,6418.75,12475.9,90.9386,359.628,-213.912,1170.53,9319.0,-274.332,79.9067,-39.4586,-80.3875,-955.838,10274.5,-451.025,-18.9261,-36.4948,-76.3587,5048.11,-2425.71,8545.6,1.76664,-77.2967,-51.2937,-193.75,-14559.7,-1200.06,-122.696,41.2394,-397.383,8556.97,-200.5,-576.66,-34.2182,-3.04845,-1.02081,-8648.48,-5312.63,-2395.56,-7.60239,24.8381,-72.013
2.452,8152.91,6487.85,12527.1,90.586,358.636,-214.738,1179.98,9361.49,-250.385,79.6423,-39.0416,-80.7581,-967.425,10304.4,-427.821,-19.2186,-37.0728,-76.6862,5048.43,-2401.05,8552.47,1.54288,-77.7333,-51.5171,-238.795,-14724.0,-1247.68,-123.765,42.0916,-398.662,8526.37,-141.878,-613.881,-34.3364,-2.80892,-0.590865,-8668.03,-5212.5,-2361.03,-9.06486,22.2961,-70.858
2.453,8264.7,6556.96,12578.2,90.2334,357.643,-215.563,1189.42,9403.97,-226.438,79.378,-38.6246,-81.1286,-979.012,10334.4,-404.616,-19.5112,-37.6509,-77.0136,5048.76,-2376.38,8559.33,1.31912,-78.1699,-51.7404,-283.84,-14888.2,-1295.29,-124.834,42.9439,-399.94,8495.77,-83.2554,-651.101,-34.4547,-2.56939,-0.160922,-8687.58,-5112.38,-2326.5,-10.5273,19.7542,-69.703
2.454,8347.1,6653.17,12624.2,89.6488,356.223,-216.074,1221.63,9451.92,-199.506,79.1219,-38.1799,-81.4301,-980.826,10361.3,-363.443,-19.8311,-38.226,-77.4163,5045.45,-2334.35,8569.77,1.18354,-78.5896,-51.9024,-332.634,-15043.2,-1336.62,-125.812,43.8169,-401.264,8455.23,-48.7608,-679.292,-34.5409,-2.36943,0.303405,-8687.13,-5034.69,-2199.79,-11.6481,16.646,-68.616
2.455,8414.81,6762.93,12667.6,88.9483,354.587,-216.426,1265.23,9502.59,-171.081,78.87,-37.7213,-81.697,-977.755,10386.7,-313.285,-20.1646,-38.7996,-77.8566,5040.32,-2283.63,8582.0,1.09205,-79.0008,-52.0337,-383.302,-15193.5,-1374.81,-126.745,44.7003,-402.61,8409.71,-26.3301,-702.967,-34.6111,-2.18926,0.784925,-8676.67,-4968.22,-2026.98,-12.5981,13.2546,-67.563
2.456,8482.51,6872.69,12711.0,88.2477,352.952,-216.778,1308.83,9553.26,-142.655,78.618,-37.2627,-81.9639,-974.683,10412.0,-263.127,-20.4982,-39.3733,-78.2969,5035.19,-2232.92,8594.23,1.00056,-79.412,-52.1649,-433.97,-15343.8,-1413.0,-127.678,45.5836,-403.956,8364.2,-3.89942,-726.642,-34.6813,-2.00908,1.26645,-8666.22,-4901.75,-1854.17,-13.548,9.86323,-66.5101
2.457,8550.22,6982.45,12754.4,87.5471,351.317,-217.131,1352.42,9603.93,-114.23,78.3661,-36.8041,-82.2308,-971.612,10437.4,-212.97,-20.8317,-39.9469,-78.7373,5030.06,-2182.2,8606.46,0.90907,-79.8232,-52.2962,-484.638,-15494.2,-1451.18,-128.611,46.467,-405.301,8318.69,18.5313,-750.318,-34.7515,-1.82891,1.74797,-8655.77,-4835.28,-1681.36,-14.498,6.47186,-65.4571
2.458,8619.36,7099.48,12797.3,86.7575,349.579,-217.378,1399.73,9657.22,-90.1012,78.1621,-36.3497,-82.4258,-966.214,10456.4,-159.748,-21.1554,-40.4928,-79.191,5024.44,-2134.72,8613.09,0.805756,-80.2373,-52.4363,-513.812,-15639.2,-1480.3,-129.556,47.3884,-406.54,8271.18,38.899,-771.168,-34.8189,-1.68061,2.25087,-8639.45,-4775.15,-1497.61,-15.2317,2.82555,-64.4374
2.459,8693.51,7241.92,12838.2,85.6561,347.484,-217.259,1460.05,9719.72,-81.0098,78.1256,-35.9103,-82.3694,-952.674,10453.4,-95.8011,-21.4446,-40.9413,-79.6913,5017.08,-2098.56,8600.13,0.66106,-80.6612,-52.6072,-467.759,-15765.6,-1477.67,-130.546,48.4428,-407.403,8216.68,52.0461,-782.13,-34.8761,-1.64388,2.8286,-8602.6,-4737.18,-1275.61,-15.2083,-1.71311,-63.5341
2.46,8767.65,7384.36,12879.2,84.5547,345.388,-217.14,1520.36,9782.22,-71.9183,78.0891,-35.471,-82.3131,-939.135,10450.3,-31.8544,-21.7337,-41.3898,-80.1916,5009.73,-2062.4,8587.16,0.516364,-81.0852,-52.778,-421.706,-15892.0,-1475.05,-131.536,49.4972,-408.266,8162.18,65.1933,-793.093,-34.9333,-1.60714,3.40633,-8565.75,-4699.21,-1053.61,-15.1849,-6.25177,-62.6308
2.461,8841.8,7526.81,12920.1,83.4534,343.292,-217.021,1580.68,9844.71,-62.8269,78.0526,-35.0316,-82.2567,-925.596,10447.2,32.0923,-22.0228,-41.8383,-80.692,5002.37,-2026.23,8574.2,0.371668,-81.5091,-52.9489,-375.653,-16018.5,-1472.42,-132.525,50.5516,-409.13,8107.68,78.3404,-804.055,-34.9905,-1.5704,3.98407,-8528.9,-4661.24,-831.601,-15.1615,-10.7904,-61.7275
2.462,8915.95,7669.25,12961.1,82.352,341.196,-216.903,1641.0,9907.21,-53.7355,78.0161,-34.5922,-82.2003,-912.057,10444.2,96.0389,-22.312,-42.2869,-81.1923,4995.02,-1990.07,8561.23,0.226972,-81.9331,-53.1198,-329.6,-16144.9,-1469.8,-133.515,51.606,-409.993,8053.18,91.4876,-815.018,-35.0477,-1.53366,4.5618,-8492.05,-4623.26,-609.598,-15.1382,-15.3291,-60.8242
2.463,9012.77,7823.78,13016.4,80.8838,338.783,-216.493,1723.13,9923.49,-11.5399,77.6569,-34.3116,-82.1842,-891.794,10439.8,120.23,-22.6003,-42.5646,-81.7162,4999.79,-1960.43,8572.28,0.0818223,-82.2929,-53.1088,-297.802,-16263.5,-1484.29,-134.495,52.7528,-410.74,8039.44,130.249,-818.76,-34.8973,-1.69609,5.12512,-8458.48,-4581.56,-419.795,-14.3079,-20.3319,-59.8731
2.464,9116.07,7981.76,13075.9,79.3107,336.279,-216.001,1811.5,9926.57,40.114,77.2056,-34.0764,-82.1796,-869.611,10435.1,133.063,-22.8883,-42.7935,-82.2468,5008.03,-1932.65,8590.18,-0.0634574,-82.6345,-53.0459,-270.079,-16379.8,-1503.67,-135.471,53.9259,-411.453,8037.36,176.328,-820.439,-34.6876,-1.91542,5.68433,-8425.84,-4538.79,-239.192,-13.2471,-25.4672,-58.9083
2.465,9219.38,8139.74,13135.3,77.7377,333.776,-215.509,1899.87,9929.64,91.7679,76.7542,-33.8411,-82.1749,-847.427,10430.3,145.895,-23.1763,-43.0225,-82.7774,5016.26,-1904.87,8608.08,-0.208737,-82.976,-52.983,-242.355,-16496.2,-1523.05,-136.448,55.0991,-412.167,8035.28,222.407,-822.118,-34.4779,-2.13475,6.24353,-8393.21,-4496.02,-58.5889,-12.1862,-30.6026,-57.9435
2.466,9322.68,8297.72,13194.7,76.1647,331.272,-215.017,1988.25,9932.72,143.422,76.3029,-33.6059,-82.1703,-825.244,10425.6,158.728,-23.4643,-43.2514,-83.308,5024.5,-1877.09,8625.98,-0.354017,-83.3176,-52.92,-214.631,-16612.5,-1542.43,-137.425,56.2722,-412.88,8033.19,268.486,-823.797,-34.2682,-2.35408,6.80274,-8360.58,-4453.24,122.014,-11.1254,-35.738,-56.9787
2.467,9442.43,8443.65,13245.9,74.5333,328.744,-214.519,2083.73,9922.03,189.932,75.8207,-33.4246,-82.1439,-797.69,10420.3,167.535,-23.7526,-43.4138,-83.86,5027.0,-1861.01,8628.55,-0.47234,-83.6528,-52.781,-184.0,-16722.2,-1572.13,-138.353,57.6726,-413.328,8019.69,319.525,-833.034,-34.1638,-2.53125,7.43932,-8323.2,-4403.66,282.359,-9.9928,-40.7962,-55.9777
2.468,9595.07,8565.49,13280.7,72.7853,326.168,-214.008,2193.42,9883.83,226.155,75.277,-33.3513,-82.0742,-759.394,10414.0,168.291,-24.0413,-43.443,-84.4546,5018.03,-1868.35,8600.48,-0.536749,-83.9754,-52.4898,-147.556,-16818.5,-1622.47,-139.185,59.5276,-413.244,7983.36,380.482,-857.387,-34.2698,-2.6241,8.23064,-8276.33,-4340.46,402.187,-8.71663,-45.7004,-54.9042
2.469,9747.72,8687.32,13315.5,71.0373,323.591,-213.498,2303.12,9845.63,262.377,74.7332,-33.278,-82.0044,-721.098,10407.7,169.046,-24.33,-43.4722,-85.0492,5009.07,-1875.68,8572.4,-0.601159,-84.298,-52.1986,-111.112,-16914.8,-1672.81,-140.017,61.3825,-413.16,7947.03,441.44,-881.739,-34.3758,-2.71695,9.02197,-8229.47,-4277.26,522.016,-7.44046,-50.6045,-53.8307
2.47,9900.36,8809.15,13350.2,69.2893,321.015,-212.988,2412.81,9807.43,298.6,74.1895,-33.2047,-81.9346,-682.802,10401.4,169.802,-24.6187,-43.5014,-85.6438,5000.11,-1883.02,8544.32,-0.665568,-84.6206,-51.9073,-74.6675,-17011.1,-1723.16,-140.848,63.2374,-413.076,7910.71,502.398,-906.092,-34.4818,-2.8098,9.8133,-8182.6,-4214.05,641.844,-6.16428,-55.5087,-52.7572
2.471,10053.0,8930.98,13385.0,67.5413,318.438,-212.478,2522.51,9769.23,334.822,73.6457,-33.1314,-81.8649,-644.507,10395.1,170.558,-24.9074,-43.5306,-86.2384,4991.14,-1890.36,8516.25,-0.729977,-84.9432,-51.6161,-38.2234,-17107.4,-1773.5,-141.68,65.0924,-412.992,7874.38,563.355,-930.445,-34.5879,-2.90265,10.6046,-8135.74,-4150.85,761.673,-4.88811,-60.4128,-51.6838
2.472,10236.3,8968.88,13426.7,65.6855,315.505,-212.196,2597.41,9709.01,367.847,73.0147,-33.1851,-81.701,-600.388,10370.1,184.748,-25.1179,-43.2263,-86.9166,4978.81,-1892.46,8485.37,-0.600395,-85.2516,-51.2416,-43.6284,-17247.8,-1850.13,-142.353,67.2969,-412.648,7809.9,570.07,-918.668,-35.0082,-3.14495,11.2907,-8060.07,-4085.83,888.389,-3.37523,-64.1283,-50.3988
2.473,10423.4,8996.29,13469.3,63.8161,312.527,-211.942,2667.97,9646.05,400.471,72.3728,-33.2547,-81.5254,-555.541,10342.8,200.619,-25.3187,-42.8803,-87.6053,4966.06,-1893.91,8454.13,-0.446564,-85.5582,-50.8566,-54.2647,-17393.7,-1930.05,-143.005,69.5452,-412.271,7741.9,570.004,-902.375,-35.4677,-3.40592,11.9636,-7980.81,-4020.58,1015.97,-1.83276,-67.6953,-49.0873
2.474,10610.6,9023.69,13511.8,61.9468,309.548,-211.688,2738.53,9583.08,433.096,71.731,-33.3242,-81.3497,-510.694,10315.5,216.489,-25.5195,-42.5343,-88.294,4953.3,-1895.36,8422.9,-0.292732,-85.8649,-50.4716,-64.9009,-17539.6,-2009.97,-143.658,71.7934,-411.895,7673.9,569.938,-886.083,-35.9273,-3.66689,12.6366,-7901.54,-3955.33,1143.54,-0.290287,-71.2622,-47.7759
2.475,10797.7,9051.1,13554.4,60.0774,306.57,-211.435,2809.09,9520.12,465.721,71.0891,-33.3938,-81.1741,-465.847,10288.2,232.359,-25.7204,-42.1883,-88.9827,4940.55,-1896.81,8391.67,-0.138901,-86.1715,-50.0866,-75.5372,-17685.5,-2089.89,-144.311,74.0416,-411.518,7605.9,569.872,-869.79,-36.3868,-3.92786,13.3095,-7822.28,-3890.08,1271.12,1.25218,-74.8292,-46.4644
2.476,10991.9,9052.85,13588.8,58.2037,303.394,-211.324,2892.25,9451.97,498.532,70.4831,-33.5687,-80.9855,-401.939,10264.4,232.438,-25.8317,-41.6013,-89.6388,4929.21,-1911.61,8374.09,0.199945,-86.4949,-49.7638,-108.959,-17838.1,-2179.7,-144.82,76.4056,-410.98,7558.03,567.074,-868.332,-36.6444,-4.1389,13.9209,-7745.6,-3830.59,1382.92,2.75825,-77.4514,-45.1203
2.477,11195.0,9022.55,13613.2,56.3246,299.972,-211.391,2991.15,9377.33,531.576,69.9219,-33.8752,-80.7806,-314.204,10245.0,212.778,-25.8311,-40.713,-90.2543,4919.63,-1943.1,8373.58,0.77006,-86.8393,-49.5188,-170.862,-17999.2,-2281.87,-145.151,78.9143,-410.24,7535.31,560.864,-885.418,-36.6494,-4.28751,14.4556,-7672.14,-3778.3,1475.0,4.21882,-78.8927,-43.7352
2.478,11398.0,8992.24,13637.5,54.4454,296.55,-211.459,3090.05,9302.7,564.621,69.3607,-34.1817,-80.5758,-226.468,10225.6,193.118,-25.8305,-39.8246,-90.8697,4910.05,-1974.58,8373.07,1.34017,-87.1836,-49.2738,-232.765,-18160.2,-2384.03,-145.482,81.4229,-409.5,7512.6,554.653,-902.504,-36.6544,-4.43612,14.9902,-7598.68,-3726.0,1567.08,5.67938,-80.3339,-42.3502
2.479,11601.1,8961.93,13661.8,52.5662,293.127,-211.527,3188.95,9228.06,597.665,68.7995,-34.4882,-80.3709,-138.733,10206.3,173.458,-25.83,-38.9363,-91.4852,4900.47,-2006.07,8372.55,1.91029,-87.528,-49.0288,-294.668,-18321.3,-2486.2,-145.813,83.9316,-408.759,7489.89,548.442,-919.589,-36.6594,-4.58473,15.5248,-7525.22,-3673.71,1659.16,7.13995,-81.7752,-40.9651
2.48,11804.1,8931.62,13686.1,50.6871,289.705,-211.595,3287.85,9153.43,630.709,68.2383,-34.7947,-80.1661,-50.9977,10186.9,153.799,-25.8294,-38.0479,-92.1006,4890.89,-2037.55,8372.04,2.4804,-87.8723,-48.7837,-356.571,-18482.3,-2588.37,-146.144,86.4402,-408.019,7467.18,542.231,-936.675,-36.6644,-4.73334,16.0595,-7451.76,-3621.42,1751.24,8.60051,-83.2165,-39.5801
2.481,12037.9,8871.83,13731.3,49.0049,285.899,-211.894,3394.15,9090.21,629.538,67.8495,-35.2013,-80.0099,54.2569,10164.5,118.103,-25.7924,-36.5213,-92.8184,4892.36,-2135.89,8389.98,3.26315,-88.2673,-48.457,-499.258,-18699.7,-2635.42,-146.043,88.917,-406.909,7424.8,491.133,-891.292,-36.7845,-5.36899,16.5629,-7323.11,-3599.27,1846.58,10.0163,-82.462,-38.2694
2.482,12271.7,8812.04,13776.5,47.3228,282.093,-212.194,3500.46,9026.99,628.366,67.4607,-35.6079,-79.8537,159.512,10142.0,82.4083,-25.7555,-34.9946,-93.5361,4893.82,-2234.23,8407.93,4.04589,-88.6624,-48.1303,-641.946,-18917.2,-2682.47,-145.943,91.3937,-405.799,7382.42,440.035,-845.909,-36.9046,-6.00463,17.0663,-7194.45,-3577.13,1941.92,11.4321,-81.7076,-36.9587
2.483,12505.6,8752.25,13821.7,45.6406,278.287,-212.494,3606.77,8963.77,627.195,67.0718,-36.0144,-79.6975,264.766,10119.6,46.7131,-25.7185,-33.4679,-94.2539,4895.29,-2332.57,8425.88,4.82863,-89.0574,-47.8036,-784.633,-19134.6,-2729.53,-145.842,93.8705,-404.689,7340.04,388.938,-800.526,-37.0246,-6.64028,17.5697,-7065.8,-3554.99,2037.26,12.8479,-80.9531,-35.648
2.484,12739.4,8692.45,13866.8,43.9585,274.481,-212.794,3713.08,8900.55,626.023,66.683,-36.421,-79.5413,370.021,10097.1,11.0179,-25.6815,-31.9413,-94.9716,4896.75,-2430.91,8443.82,5.61137,-89.4525,-47.4769,-927.321,-19352.1,-2776.58,-145.741,96.3472,-403.579,7297.66,337.84,-755.143,-37.1447,-7.27593,18.0731,-6937.14,-3532.84,2132.6,14.2637,-80.1987,-34.3373
2.485,12982.0,8613.14,13936.3,42.529,270.497,-213.171,3806.31,8837.42,607.268,66.5236,-36.8569,-79.2413,459.962,10084.5,-6.05677,-25.6634,-30.1251,-95.7757,4865.78,-2499.09,8449.21,6.56361,-89.8949,-47.1099,-1114.98,-19591.0,-2826.84,-145.34,98.7907,-402.347,7232.22,313.915,-720.188,-37.2838,-7.89824,18.6286,-6794.72,-3515.51,2197.33,15.6857,-78.4538,-33.218
2.486,13231.7,8518.2,14025.1,41.3017,266.371,-213.611,3889.08,8774.37,574.445,66.5478,-37.3163,-78.8263,537.652,10079.8,-8.23513,-25.6605,-28.0773,-96.6487,4808.84,-2543.14,8444.55,7.65146,-90.3751,-46.7107,-1338.6,-19847.0,-2879.68,-144.697,101.208,-401.018,7148.34,311.729,-693.575,-37.4383,-8.5099,19.2258,-6641.27,-3502.01,2237.58,17.1127,-75.9164,-32.2518
2.487,13481.4,8423.27,14113.9,40.0744,262.245,-214.051,3971.86,8711.32,541.622,66.5719,-37.7756,-78.4113,615.342,10075.1,-10.4135,-25.6576,-26.0295,-97.5217,4751.91,-2587.19,8439.89,8.73931,-90.8554,-46.3114,-1562.23,-20103.1,-2932.52,-144.054,103.624,-399.688,7064.45,309.543,-666.963,-37.5928,-9.12155,19.8229,-6487.83,-3488.52,2277.83,18.5397,-73.379,-31.2857
2.488,13731.1,8328.33,14202.8,38.8471,258.119,-214.491,4054.63,8648.26,508.8,66.5961,-38.235,-77.9963,693.032,10070.3,-12.5919,-25.6546,-23.9817,-98.3947,4694.98,-2631.24,8435.23,9.82716,-91.3357,-45.9122,-1785.86,-20359.2,-2985.35,-143.411,106.041,-398.358,6980.57,307.357,-640.35,-37.7472,-9.7332,20.4201,-6334.39,-3475.03,2318.08,19.9667,-70.8416,-30.3195
2.489,13978.5,8221.86,14291.6,37.7166,253.982,-214.962,4134.15,8586.47,473.664,66.5395,-38.7306,-77.6114,766.77,10069.1,-15.0479,-25.6591,-21.9041,-99.2639,4643.22,-2673.37,8435.21,10.897,-91.8368,-45.5085,-2017.95,-20614.6,-3036.38,-142.737,108.446,-397.034,6898.1,299.499,-622.373,-37.8757,-10.3277,21.001,-6170.49,-3464.55,2353.29,21.2426,-68.1966,-29.4125
2.49,14208.0,8023.14,14380.2,37.3611,249.758,-215.687,4187.64,8534.83,420.019,65.8373,-39.5158,-77.4669,808.894,10095.5,-19.7256,-25.7224,-19.588,-100.102,4632.9,-2700.22,8472.4,11.8229,-92.504,-45.0699,-2317.78,-20865.0,-3072.91,-141.813,110.759,-395.762,6826.91,246.27,-673.488,-37.7956,-10.7849,21.451,-5923.01,-3478.2,2348.27,21.3106,-64.6905,-28.978
2.491,14437.5,7824.4,14468.8,37.0055,245.535,-216.411,4241.13,8483.18,366.373,65.1352,-40.301,-77.3225,851.018,10122.0,-24.4033,-25.7857,-17.272,-100.94,4622.58,-2727.08,8509.58,12.7488,-93.1712,-44.6312,-2617.61,-21115.3,-3109.43,-140.888,113.072,-394.489,6755.72,193.04,-724.603,-37.7156,-11.242,21.901,-5675.53,-3491.84,2343.24,21.3785,-61.1843,-28.5436
2.492,14666.9,7625.67,14557.4,36.6499,241.311,-217.135,4294.62,8431.53,312.728,64.433,-41.0863,-77.1781,893.142,10148.5,-29.081,-25.8491,-14.956,-101.778,4612.25,-2753.93,8546.76,13.6747,-93.8384,-44.1925,-2917.44,-21365.7,-3145.96,-139.964,115.385,-393.217,6684.53,139.81,-775.717,-37.6356,-11.6992,22.351,-5428.05,-3505.49,2338.21,21.4464,-57.6781,-28.1092
2.493,14896.4,7426.94,14645.9,36.2943,237.088,-217.86,4348.11,8379.88,259.083,63.7309,-41.8715,-77.0337,935.266,10174.9,-33.7586,-25.9124,-12.6399,-102.616,4601.93,-2780.78,8583.94,14.6006,-94.5056,-43.7538,-3217.27,-21616.1,-3182.49,-139.039,117.698,-391.944,6613.34,86.5808,-826.832,-37.5556,-12.1564,22.801,-5180.57,-3519.13,2333.19,21.5143,-54.1719,-27.6748
2.494,15128.6,7212.04,14692.8,36.1137,232.907,-218.624,4380.59,8371.92,156.837,62.7865,-42.2716,-76.8482,932.505,10206.9,-12.8071,-26.0135,-10.3734,-103.45,4630.6,-2728.86,8606.26,15.5827,-95.1298,-43.3089,-3551.61,-21867.3,-3164.37,-137.973,119.272,-390.842,6546.58,31.9128,-864.084,-37.3252,-12.6478,23.0789,-4873.72,-3539.76,2328.94,20.3754,-49.9179,-27.7448
2.495,15362.1,6989.04,14718.9,36.0206,228.747,-219.409,4402.56,8385.81,30.2892,61.7211,-42.4791,-76.6422,907.302,10241.7,20.9591,-26.1334,-8.13169,-104.282,4678.76,-2637.55,8621.15,16.5928,-95.7323,-42.8609,-3903.2,-22119.0,-3118.93,-136.835,120.477,-389.825,6482.04,-23.4744,-894.405,-37.0196,-13.1562,23.2707,-4537.19,-3563.88,2325.08,18.6331,-45.29,-28.0671
2.496,15595.7,6766.04,14744.9,35.9275,224.587,-220.193,4424.53,8399.71,-96.2583,60.6556,-42.6865,-76.4363,882.1,10276.5,54.7253,-26.2534,-5.88997,-105.115,4726.93,-2546.24,8636.04,17.603,-96.3349,-42.4129,-4254.79,-22370.6,-3073.49,-135.697,121.682,-388.808,6417.5,-78.8616,-924.726,-36.7141,-13.6646,23.4625,-4200.67,-3587.99,2321.22,16.8908,-40.662,-28.3894
2.497,15829.3,6543.04,14770.9,35.8344,220.427,-220.977,4446.5,8413.6,-222.806,59.5902,-42.894,-76.2303,856.897,10311.3,88.4915,-26.3733,-3.64825,-105.947,4775.09,-2454.94,8650.93,18.6132,-96.9374,-41.9648,-4606.38,-22622.3,-3028.05,-134.56,122.887,-387.791,6352.97,-134.249,-955.047,-36.4085,-14.1731,23.6542,-3864.14,-3612.11,2317.36,15.1485,-36.0341,-28.7118
2.498,16067.0,6354.24,14784.0,35.7022,216.313,-221.556,4460.39,8429.44,-350.555,58.5718,-42.8837,-76.0393,812.561,10349.1,128.344,-26.54,-1.44183,-106.777,4827.69,-2376.34,8663.93,19.5993,-97.62,-41.5015,-4947.52,-22865.1,-2980.37,-133.417,123.829,-386.727,6291.82,-182.817,-983.822,-36.1362,-14.6733,23.8443,-3522.83,-3639.48,2313.67,12.9537,-31.004,-29.2066
2.499,16319.5,6285.14,14751.9,35.4329,212.359,-221.412,4445.99,8452.12,-482.508,57.7186,-42.111,-75.9003,701.258,10397.7,189.501,-26.8702,0.641023,-107.598,4895.78,-2342.22,8670.32,20.5009,-98.5824,-40.985,-5252.04,-23076.7,-2924.83,-132.254,123.852,-385.499,6242.53,-207.516,-1007.19,-35.9806,-15.1449,24.0283,-3164.79,-3678.25,2310.57,9.17525,-24.566,-30.3054
2.5,16571.9,6216.05,14719.7,35.1637,208.404,-221.269,4431.6,8474.81,-614.462,56.8653,-41.3382,-75.7613,589.955,10446.3,250.657,-27.2004,2.72388,-108.419,4963.87,-2308.1,8676.71,21.4025,-99.5447,-40.4684,-5556.56,-23288.4,-2869.3,-131.091,123.874,-384.27,6193.25,-232.216,-1030.56,-35.8249,-15.6164,24.2123,-2806.74,-3717.01,2307.48,5.39682,-18.128,-31.4042
2.501,16824.4,6146.96,14687.6,34.8944,204.45,-221.125,4417.2,8497.49,-746.416,56.0121,-40.5655,-75.6224,478.652,10494.9,311.814,-27.5306,4.80674,-109.24,5031.96,-2273.98,8683.1,22.3041,-100.507,-39.9518,-5861.09,-23500.0,-2813.76,-129.928,123.896,-383.042,6143.97,-256.916,-1053.92,-35.6692,-16.088,24.3964,-2448.7,-3755.78,2304.39,1.61838,-11.69,-32.5029
2.502,17076.9,6077.86,14655.4,34.6252,200.496,-220.982,4402.8,8520.17,-878.37,55.1588,-39.7927,-75.4834,367.349,10543.5,372.97,-27.8608,6.88959,-110.061,5100.05,-2239.86,8689.49,23.2057,-101.47,-39.4353,-6165.61,-23711.7,-2758.23,-128.765,123.918,-381.814,6094.69,-281.616,-1077.29,-35.5135,-16.5595,24.5804,-2090.65,-3794.54,2301.3,-2.16005,-5.25196,-33.6017
2.503,17385.4,6119.39,14622.3,34.8517,197.088,-220.407,4386.77,8561.3,-1052.55,54.555,-38.1007,-75.4802,271.166,10596.4,419.903,-28.2306,8.59513,-110.863,5147.75,-2194.76,8696.75,24.0357,-102.382,-39.0249,-6429.31,-23897.3,-2683.14,-127.428,123.374,-380.205,6033.47,-286.862,-1095.55,-35.1435,-17.2699,24.7281,-1743.76,-3847.59,2371.53,-6.37882,2.71959,-35.2273
2.504,17709.9,6192.52,14588.8,35.2199,193.837,-219.709,4370.27,8607.71,-1238.81,54.0225,-36.146,-75.5157,179.303,10650.6,462.773,-28.6118,10.1929,-111.66,5189.62,-2146.53,8704.26,24.8453,-103.28,-38.6449,-6681.35,-24075.6,-2602.48,-126.042,122.669,-378.487,5968.83,-286.549,-1112.36,-34.7121,-18.0486,24.8654,-1400.06,-3904.73,2462.72,-10.7234,11.1293,-37.0034
2.505,18034.4,6265.65,14555.3,35.5881,190.586,-219.011,4353.78,8654.11,-1425.06,53.4899,-34.1913,-75.5513,87.4398,10704.8,505.642,-28.9929,11.7906,-112.457,5231.49,-2098.29,8711.77,25.6549,-104.178,-38.2648,-6933.39,-24253.9,-2521.81,-124.657,121.964,-376.769,5904.2,-286.236,-1129.16,-34.2808,-18.8272,25.0027,-1056.36,-3961.86,2553.9,-15.068,19.539,-38.7795
2.506,18358.9,6338.78,14521.9,35.9562,187.335,-218.312,4337.28,8700.52,-1611.31,52.9574,-32.2366,-75.5868,-4.42308,10759.0,548.512,-29.374,13.3884,-113.254,5273.36,-2050.06,8719.28,26.4645,-105.076,-37.8848,-7185.43,-24432.1,-2441.14,-123.271,121.259,-375.051,5839.57,-285.924,-1145.97,-33.8494,-19.6059,25.14,-712.657,-4018.99,2645.09,-19.4126,27.9487,-40.5556
2.507,18728.2,6408.68,14482.7,36.7431,184.505,-217.8,4291.23,8753.09,-1790.01,52.3608,-29.9313,-75.6337,-103.457,10805.9,591.509,-29.7563,14.8612,-114.01,5322.75,-1993.02,8720.91,27.1666,-105.972,-37.4948,-7474.23,-24572.3,-2359.15,-121.922,120.498,-373.073,5777.83,-299.129,-1166.81,-33.3642,-20.334,25.3196,-352.373,-4101.75,2750.58,-23.3089,36.6354,-42.4041
2.508,19187.2,6472.12,14432.0,38.3675,182.518,-217.659,4186.08,8818.02,-1953.63,51.6364,-26.9248,-75.7032,-216.833,10838.3,634.76,-30.1407,16.0844,-114.682,5387.18,-1918.36,8710.76,27.6536,-106.864,-37.085,-7836.57,-24636.5,-2274.51,-120.647,119.622,-370.576,5721.89,-339.368,-1195.73,-32.7713,-20.9611,25.5839,41.0745,-4235.74,2884.67,-26.3087,45.8762,-44.3974
2.509,19646.2,6535.56,14381.3,39.9918,180.532,-217.519,4080.94,8882.95,-2117.25,50.9119,-23.9183,-75.7726,-330.209,10870.7,678.012,-30.5252,17.3076,-115.353,5451.6,-1843.71,8700.61,28.1405,-107.756,-36.6751,-8198.91,-24700.6,-2189.87,-119.372,118.747,-368.079,5665.95,-379.607,-1224.64,-32.1784,-21.5882,25.8481,434.522,-4369.74,3018.76,-29.3086,55.1169,-46.3908
2.51,20105.1,6599.0,14330.6,41.6161,178.545,-217.378,3975.79,8947.88,-2280.86,50.1874,-20.9118,-75.8421,-443.585,10903.1,721.264,-30.9097,18.5308,-116.025,5516.03,-1769.05,8690.46,28.6275,-108.648,-36.2653,-8561.25,-24764.7,-2105.23,-118.098,117.872,-365.582,5610.02,-419.847,-1253.56,-31.5854,-22.2152,26.1123,827.969,-4503.74,3152.86,-32.3084,64.3577,-48.3842
2.511,20564.1,6662.44,14280.0,43.2405,176.558,-217.237,3870.64,9012.81,-2444.48,49.4629,-17.9053,-75.9116,-556.961,10935.4,764.516,-31.2942,19.7539,-116.697,5580.45,-1694.4,8680.31,29.1145,-109.54,-35.8554,-8923.58,-24828.8,-2020.59,-116.823,116.996,-363.085,5554.08,-460.086,-1282.47,-30.9925,-22.8423,26.3765,1221.42,-4637.74,3286.95,-35.3082,73.5985,-50.3775
2.512,21168.7,6585.69,14142.0,45.2232,176.076,-218.142,3736.29,9093.91,-2512.92,48.3808,-14.5049,-76.1464,-637.801,10953.8,824.468,-31.5862,20.6639,-117.24,5611.58,-1641.52,8645.27,29.7067,-110.436,-35.393,-9381.48,-24872.6,-1939.37,-115.707,116.369,-359.902,5489.71,-464.681,-1308.05,-30.3519,-22.9497,26.6757,1579.35,-4808.53,3475.46,-37.0334,81.0769,-52.1621
2.513,21791.6,6491.43,13993.2,47.2507,175.782,-219.177,3598.29,9177.02,-2569.46,47.2539,-11.0552,-76.4018,-714.574,10970.5,886.507,-31.8668,21.5347,-117.767,5638.55,-1591.36,8607.12,30.312,-111.332,-34.924,-9851.33,-24913.9,-1858.58,-114.611,115.773,-356.633,5424.29,-464.82,-1333.2,-29.7054,-22.9921,26.9792,1932.84,-4983.93,3670.77,-38.5993,88.335,-53.9206
2.514,22414.4,6397.16,13844.4,49.2783,175.488,-220.213,3460.29,9260.14,-2626.01,46.127,-7.60546,-76.6572,-791.348,10987.1,948.546,-32.1473,22.4055,-118.293,5665.52,-1541.2,8568.97,30.9174,-112.228,-34.455,-10321.2,-24955.2,-1777.8,-113.515,115.177,-353.364,5358.88,-464.96,-1358.35,-29.0588,-23.0345,27.2827,2286.33,-5159.33,3866.09,-40.1651,95.5931,-55.6791
2.515,23037.2,6302.89,13695.6,51.3058,175.194,-221.248,3322.29,9343.25,-2682.55,45.0002,-4.15576,-76.9126,-868.121,11003.7,1010.59,-32.4278,23.2763,-118.82,5692.48,-1491.04,8530.81,31.5228,-113.124,-33.986,-10791.0,-24996.4,-1697.01,-112.419,114.581,-350.095,5293.46,-465.099,-1383.51,-28.4122,-23.077,27.5862,2639.82,-5334.72,4061.4,-41.731,102.851,-57.4376
2.516,23727.9,6131.33,13472.7,52.898,175.652,-222.909,3181.87,9408.4,-2691.39,43.712,-0.908084,-77.1895,-926.412,11000.9,1073.58,-32.7422,24.0619,-119.346,5706.71,-1436.99,8529.02,31.9278,-114.015,-33.4917,-11277.9,-24991.0,-1594.2,-111.556,114.388,-346.485,5289.04,-472.53,-1402.74,-27.8052,-23.1818,28.1503,3004.25,-5520.59,4216.84,-42.6623,108.586,-59.2013
2.517,24503.3,5863.14,13157.2,53.9461,177.051,-225.352,3038.41,9451.07,-2640.58,42.2221,2.08705,-77.4931,-961.602,10973.6,1137.77,-33.0989,24.7409,-119.871,5705.01,-1378.08,8572.67,32.0825,-114.898,-32.9656,-11786.0,-24927.4,-1463.86,-110.986,114.699,-342.449,5360.89,-489.074,-1414.55,-27.2477,-23.3648,29.0403,3382.35,-5719.54,4322.45,-42.8006,112.415,-60.9715
2.518,25278.7,5594.94,12841.8,54.9942,178.449,-227.794,2894.96,9493.74,-2589.78,40.7322,5.08218,-77.7968,-996.792,10946.4,1201.97,-33.4555,25.42,-120.395,5703.31,-1319.18,8616.31,32.2373,-115.782,-32.4395,-12294.1,-24863.7,-1333.53,-110.415,115.009,-338.412,5432.73,-505.619,-1426.37,-26.6902,-23.5477,29.9302,3760.46,-5918.49,4428.06,-42.9388,116.245,-62.7416
2.519,26054.1,5326.75,12526.3,56.0422,179.848,-230.237,2751.5,9536.42,-2538.97,39.2424,8.07732,-78.1004,-1031.98,10919.2,1266.16,-33.8122,26.099,-120.92,5701.6,-1260.27,8659.96,32.392,-116.665,-31.9135,-12802.2,-24800.0,-1203.19,-109.844,115.32,-334.375,5504.57,-522.164,-1438.19,-26.1326,-23.7306,30.8202,4138.56,-6117.45,4533.67,-43.077,120.074,-64.5118
2.52,26829.6,5058.56,12210.8,57.0903,181.247,-232.679,2608.05,9579.09,-2488.16,37.7525,11.0725,-78.404,-1067.17,10892.0,1330.35,-34.1689,26.778,-121.445,5699.9,-1201.36,8703.61,32.5467,-117.549,-31.3874,-13310.3,-24736.4,-1072.85,-109.273,115.63,-330.338,5576.41,-538.709,-1450.01,-25.5751,-23.9136,31.7102,4516.66,-6316.4,4639.29,-43.2153,123.904,-66.282
2.521,27528.2,4784.95,11748.5,56.101,183.412,-236.023,2464.1,9559.57,-2334.39,36.7958,13.0802,-78.7695,-1025.38,10863.0,1351.15,-34.6151,27.441,-121.929,5663.41,-1173.03,8699.28,32.9131,-118.29,-30.7275,-13751.4,-24517.4,-982.472,-109.132,115.53,-325.97,5597.27,-576.497,-1478.79,-24.7552,-24.0875,32.4306,4862.97,-6500.39,4685.15,-43.4108,123.312,-66.9423
2.522,28226.9,4511.33,11286.3,55.1116,185.578,-239.368,2320.15,9540.05,-2180.61,35.8391,15.088,-79.135,-983.582,10834.1,1371.95,-35.0613,28.104,-122.412,5626.93,-1144.69,8694.94,33.2795,-119.032,-30.0677,-14192.5,-24298.5,-892.092,-108.991,115.429,-321.603,5618.12,-614.285,-1507.58,-23.9354,-24.2614,33.151,5209.27,-6684.37,4731.01,-43.6063,122.72,-67.6027
2.523,28925.6,4237.72,10824.0,54.1223,187.744,-242.712,2176.2,9520.53,-2026.83,34.8824,17.0957,-79.5005,-941.787,10805.1,1392.75,-35.5076,28.767,-122.895,5590.44,-1116.36,8690.61,33.6459,-119.773,-29.4078,-14633.6,-24079.6,-801.713,-108.851,115.329,-317.235,5638.98,-652.073,-1536.36,-23.1156,-24.4353,33.8715,5555.58,-6868.36,4776.87,-43.8018,122.128,-68.263
2.524,29624.2,3964.11,10361.7,53.1329,189.909,-246.056,2032.25,9501.01,-1873.05,33.9257,19.1035,-79.8661,-899.992,10776.1,1413.55,-35.9538,29.4299,-123.379,5553.95,-1088.02,8686.28,34.0123,-120.515,-28.748,-15074.7,-23860.6,-711.333,-108.71,115.229,-312.867,5659.84,-689.861,-1565.14,-22.2957,-24.6093,34.5919,5901.88,-7052.35,4822.74,-43.9973,121.536,-68.9234
2.525,30148.6,3776.16,9844.64,51.0004,191.969,-249.281,1935.33,9448.04,-1751.57,33.4528,20.6128,-80.3313,-884.287,10752.0,1442.79,-36.4124,30.189,-123.843,5536.24,-1083.58,8662.93,34.3857,-121.285,-28.0886,-15435.4,-23591.3,-634.741,-108.19,115.129,-308.487,5690.58,-687.939,-1562.92,-21.3984,-24.8949,35.0657,6290.14,-7251.59,4842.52,-44.7656,119.333,-69.3983
2.526,30533.4,3656.73,9283.76,47.9535,193.944,-252.411,1876.06,9368.31,-1655.93,33.3672,21.7233,-80.8762,-889.454,10731.8,1478.79,-36.881,31.0249,-124.292,5533.56,-1098.25,8624.36,34.7647,-122.078,-27.4296,-15731.8,-23281.7,-569.177,-107.366,115.029,-304.098,5729.23,-654.25,-1535.89,-20.439,-25.2699,35.3421,6711.95,-7463.05,4841.45,-45.992,115.842,-69.7249
2.527,30918.3,3537.3,8722.88,44.9065,195.92,-255.541,1816.78,9288.58,-1560.3,33.2815,22.8338,-81.4212,-894.62,10711.5,1514.8,-37.3496,31.8608,-124.74,5530.88,-1112.93,8585.79,35.1437,-122.872,-26.7706,-16028.1,-22972.0,-503.614,-106.543,114.93,-299.709,5767.89,-620.561,-1508.86,-19.4797,-25.6449,35.6186,7133.77,-7674.51,4840.37,-47.2185,112.35,-70.0515
2.528,31303.1,3417.88,8162.0,41.8595,197.895,-258.672,1757.5,9208.85,-1464.66,33.1958,23.9444,-81.9661,-899.787,10691.3,1550.8,-37.8181,32.6968,-125.189,5528.2,-1127.6,8547.23,35.5226,-123.665,-26.1116,-16324.5,-22662.3,-438.051,-105.719,114.83,-295.32,5806.54,-586.872,-1481.84,-18.5204,-26.0198,35.895,7555.59,-7885.96,4839.29,-48.4449,108.858,-70.378
2.529,31638.8,3306.79,7591.81,38.6726,199.732,-261.641,1697.14,9128.82,-1369.55,33.2033,25.0017,-82.5125,-901.774,10669.8,1587.81,-38.2984,33.5424,-125.637,5527.79,-1138.3,8516.33,35.8897,-124.481,-25.4334,-16592.4,-22345.8,-371.738,-104.953,114.84,-290.941,5839.77,-552.406,-1451.01,-17.5678,-26.4269,36.222,7983.33,-8093.44,4839.61,-49.7848,105.175,-70.6698
2.53,31580.5,3262.4,6947.23,34.3663,200.464,-263.327,1628.06,9046.4,-1278.7,33.9562,25.6336,-83.07,-878.327,10639.1,1632.93,-38.8719,34.466,-126.082,5545.57,-1117.2,8546.77,36.1611,-125.479,-24.6022,-16633.0,-21974.3,-299.427,-104.643,115.723,-286.644,5829.69,-511.721,-1389.82,-16.6698,-27.0905,36.9533,8458.44,-8269.14,4851.12,-52.0321,99.9666,-70.6829
2.531,31522.2,3218.01,6302.64,30.06,201.196,-265.013,1558.98,8963.98,-1187.85,34.7092,26.2654,-83.6274,-854.88,10608.4,1678.04,-39.4454,35.3896,-126.527,5563.34,-1096.09,8577.22,36.4326,-126.477,-23.7709,-16673.6,-21602.8,-227.116,-104.333,116.607,-282.346,5819.6,-471.037,-1328.63,-15.7718,-27.754,37.6845,8933.55,-8444.83,4862.62,-54.2794,94.7578,-70.6961
2.532,31464.0,3173.63,5658.05,25.7537,201.928,-266.7,1489.9,8881.56,-1097.01,35.4622,26.8973,-84.1849,-831.433,10577.7,1723.16,-40.0189,36.3132,-126.972,5581.12,-1074.98,8607.67,36.704,-127.475,-22.9396,-16714.2,-21231.3,-154.805,-104.023,117.491,-278.049,5809.51,-430.352,-1267.45,-14.8739,-28.4176,38.4158,9408.66,-8620.53,4874.12,-56.5267,89.549,-70.7092
2.533,31405.7,3129.24,5013.46,21.4473,202.66,-268.386,1420.83,8799.14,-1006.16,36.2152,27.5291,-84.7424,-807.986,10546.9,1768.27,-40.5925,37.2367,-127.416,5598.89,-1053.88,8638.11,36.9754,-128.473,-22.1084,-16754.8,-20859.8,-82.4943,-103.712,118.375,-273.751,5799.42,-389.667,-1206.26,-13.9759,-29.0812,39.147,9883.77,-8796.22,4885.63,-58.774,84.3402,-70.7224
2.534,31059.5,3016.63,4355.89,17.0109,202.173,-268.735,1353.73,8653.92,-942.83,37.3885,28.0209,-85.4816,-798.102,10544.6,1811.32,-41.2529,38.316,-127.889,5609.44,-1005.14,8677.37,37.3339,-129.396,-21.3347,-16658.0,-20440.5,-55.4063,-103.803,119.341,-269.519,5854.9,-371.585,-1172.59,-13.0083,-29.6397,39.6923,10383.8,-8924.45,4790.56,-62.2519,77.85,-70.5461
2.535,30569.4,2869.91,3691.83,12.5093,201.076,-268.417,1287.62,8477.29,-893.265,38.7719,28.4426,-86.3115,-795.0,10556.4,1853.33,-41.9569,39.473,-128.374,5616.39,-942.596,8721.03,37.7359,-130.282,-20.5898,-16492.6,-19997.3,-50.9298,-104.093,120.348,-265.319,5943.17,-364.805,-1152.68,-12.006,-30.1457,40.1446,10896.4,-9028.96,4642.22,-66.3451,70.719,-70.2751
2.536,30079.2,2723.19,3027.77,8.00775,199.979,-268.098,1221.51,8300.67,-843.7,40.1554,28.8643,-87.1415,-791.898,10568.3,1895.35,-42.6608,40.6301,-128.86,5623.33,-880.049,8764.69,38.1379,-131.167,-19.8449,-16327.2,-19554.2,-46.4533,-104.383,121.356,-261.119,6031.43,-358.025,-1132.77,-11.0037,-30.6516,40.5969,11408.9,-9133.46,4493.87,-70.4383,63.5881,-70.0041
2.537,29589.1,2576.47,2363.71,3.50619,198.882,-267.779,1155.4,8124.04,-794.135,41.5388,29.286,-87.9715,-788.795,10580.1,1937.36,-43.3647,41.7872,-129.346,5630.27,-817.501,8808.35,38.5398,-132.053,-19.1,-16161.8,-19111.0,-41.9768,-104.674,122.363,-256.92,6119.7,-351.244,-1112.87,-10.0014,-31.1576,41.0492,11921.5,-9237.97,4345.52,-74.5314,56.4571,-69.7331
2.538,29033.5,2352.31,1818.19,-0.454159,197.033,-267.175,1087.68,7965.68,-743.226,42.9051,29.5857,-88.7467,-780.313,10595.4,1980.34,-44.0573,42.9689,-129.856,5641.62,-748.367,8835.61,38.9892,-132.966,-18.2881,-16013.0,-18669.7,39.9466,-104.878,123.711,-252.694,6203.73,-345.022,-1064.0,-8.71616,-31.8121,41.4313,12448.2,-9346.26,4162.34,-78.8495,49.5316,-69.3708
2.539,28249.0,1857.08,1687.55,-2.52027,192.552,-265.572,1014.32,7871.25,-687.615,44.2115,29.4584,-89.3306,-752.999,10622.9,2026.7,-44.7104,44.2372,-130.45,5668.4,-656.179,8805.45,39.6042,-133.974,-17.2419,-15922.7,-18234.6,392.934,-104.784,126.252,-248.38,6272.94,-340.752,-913.771,-6.44074,-32.9863,41.5678,13024.7,-9467.84,3857.21,-83.9544,43.3249,-68.6891
2.54,27464.6,1361.86,1556.92,-4.58639,188.07,-263.969,940.962,7776.81,-632.004,45.5179,29.3311,-89.9144,-725.686,10650.5,2073.05,-45.3636,45.5054,-131.044,5695.18,-563.992,8775.28,40.2192,-134.981,-16.1958,-15832.3,-17799.6,745.922,-104.69,128.793,-244.065,6342.16,-336.481,-763.542,-4.16532,-34.1605,41.7043,13601.1,-9589.41,3552.09,-89.0594,37.1182,-68.0074
2.541,26680.1,866.64,1426.28,-6.6525,183.589,-262.366,867.603,7682.38,-576.393,46.8243,29.2038,-90.4983,-698.373,10678.0,2119.41,-46.0167,46.7736,-131.639,5721.97,-471.804,8745.12,40.8342,-135.989,-15.1496,-15742.0,-17364.5,1098.91,-104.596,131.334,-239.75,6411.37,-332.211,-613.314,-1.8899,-35.3347,41.8408,14177.6,-9710.99,3246.97,-94.1644,30.9115,-67.3257
2.542,25895.6,371.418,1295.65,-8.71861,179.108,-260.763,794.244,7587.94,-520.782,48.1307,29.0765,-91.0821,-671.059,10705.6,2165.77,-46.6698,48.0419,-132.233,5748.75,-379.616,8714.95,41.4492,-136.996,-14.1034,-15651.6,-16929.4,1451.9,-104.502,133.875,-235.435,6480.59,-327.941,-463.086,0.385514,-36.5089,41.9773,14754.0,-9832.56,2941.84,-99.2693,24.7047,-66.644
2.543,25010.8,-629.398,1199.75,-7.26199,172.596,-258.849,799.132,7533.59,-497.114,49.2372,28.9674,-91.8432,-656.258,10719.3,2223.75,-47.2766,49.3594,-132.975,5738.81,-358.505,8759.73,42.1428,-138.065,-13.1294,-15982.6,-16502.9,1072.91,-101.639,135.097,-231.116,6583.92,-333.05,-380.54,2.3081,-37.3601,42.3048,15262.2,-9971.37,2531.23,-102.701,23.0669,-65.4507
2.544,24097.3,-1774.67,1113.77,-4.79886,165.505,-256.846,826.377,7490.7,-482.573,50.2865,28.8635,-92.655,-645.032,10729.1,2285.05,-47.8702,50.6911,-133.76,5718.38,-357.702,8825.91,42.8589,-139.151,-12.1761,-16433.9,-16078.9,484.789,-97.9847,135.941,-226.796,6696.99,-340.84,-317.331,4.12988,-38.1192,42.6869,15750.9,-10115.1,2090.47,-105.653,22.7344,-64.1112
2.545,23183.8,-2919.94,1027.79,-2.33574,158.413,-254.843,853.621,7447.8,-468.032,51.3359,28.7596,-93.4667,-633.806,10738.9,2346.35,-48.4638,52.0227,-134.544,5697.95,-356.899,8892.1,43.5751,-140.236,-11.2228,-16885.2,-15654.8,-103.333,-94.3303,136.786,-222.477,6810.07,-348.63,-254.123,5.95165,-38.8782,43.069,16239.5,-10258.8,1649.72,-108.606,22.4019,-62.7718
2.546,22270.3,-4065.21,941.815,0.127387,151.321,-252.84,880.865,7404.91,-453.491,52.3852,28.6557,-94.2785,-622.579,10748.7,2407.66,-49.0574,53.3544,-135.329,5677.51,-356.095,8958.29,44.2912,-141.322,-10.2695,-17336.6,-15230.7,-691.456,-90.676,137.631,-218.157,6923.15,-356.42,-190.914,7.77343,-39.6372,43.4511,16728.2,-10402.6,1208.96,-111.559,22.0694,-61.4323
2.547,21535.6,-5191.79,664.344,2.37118,144.043,-249.878,936.452,7371.7,-456.096,53.2159,28.6923,-95.0587,-618.032,10776.6,2456.81,-49.7052,54.6843,-136.097,5673.79,-347.116,9015.12,45.0326,-142.497,-9.30511,-17808.8,-14862.0,-956.011,-87.9502,137.825,-213.693,7026.48,-423.647,-138.787,9.11903,-40.1401,43.5309,17243.0,-10572.4,793.753,-112.396,23.1961,-59.8018
2.548,21158.5,-6280.99,3.88689,4.17632,136.391,-245.0,1048.72,7357.87,-492.995,53.6091,29.0098,-95.7759,-626.841,10841.0,2481.67,-50.4613,56.0109,-136.834,5703.49,-321.787,9053.25,45.8249,-143.848,-8.31852,-18322.7,-14604.0,-573.434,-87.0815,136.719,-208.94,7110.32,-609.751,-108.821,9.51226,-40.1308,43.0061,17810.2,-10794.6,429.631,-108.999,27.2414,-57.5892
2.549,20781.5,-7370.19,-656.57,5.98147,128.739,-240.121,1160.99,7344.04,-529.894,54.0024,29.3273,-96.4931,-635.65,10905.4,2506.53,-51.2174,57.3375,-137.571,5733.18,-296.457,9091.39,46.6171,-145.2,-7.33192,-18836.7,-14346.0,-190.856,-86.2128,135.612,-204.187,7194.16,-795.854,-78.8545,9.9055,-40.1215,42.4813,18377.3,-11016.7,65.5081,-105.602,31.2866,-55.3766
2.55,20404.4,-8459.38,-1317.03,7.78661,121.087,-235.243,1273.27,7330.21,-566.793,54.3957,29.6447,-97.2102,-644.459,10969.8,2531.38,-51.9735,58.6641,-138.308,5762.87,-271.128,9129.52,47.4094,-146.552,-6.34533,-19350.6,-14088.1,191.721,-85.3441,134.506,-199.434,7278.0,-981.957,-48.8885,10.2987,-40.1123,41.9565,18944.5,-11238.9,-298.615,-102.205,35.3319,-53.164
2.551,20027.3,-9548.58,-1977.48,9.59175,113.436,-230.364,1385.54,7316.38,-603.692,54.789,29.9622,-97.9274,-653.269,11034.2,2556.24,-52.7296,59.9906,-139.045,5792.57,-245.798,9167.66,48.2016,-147.903,-5.35874,-19864.6,-13830.1,574.299,-84.4754,133.4,-194.681,7361.84,-1168.06,-18.9224,10.692,-40.103,41.4317,19511.7,-11461.0,-662.737,-98.8083,39.3772,-50.9514
2.552,20554.0,-9938.33,-2503.77,9.78318,106.829,-222.163,1623.59,7335.31,-595.122,54.733,30.1663,-98.4504,-632.855,11063.7,2532.47,-53.4328,61.3311,-139.854,5802.22,-257.102,9199.55,49.1444,-149.386,-4.50323,-20520.4,-13301.1,270.322,-83.6893,132.413,-187.625,7523.19,-1236.79,-42.0728,10.3136,-39.1353,40.6901,19997.5,-11729.3,-761.732,-87.3014,44.044,-47.7018
2.553,21193.7,-10240.6,-3013.28,9.7729,100.353,-213.546,1877.36,7358.35,-580.868,54.6209,30.3562,-98.949,-608.788,11088.8,2502.63,-54.1295,62.6733,-140.672,5809.36,-272.984,9230.67,50.106,-150.885,-3.66412,-21194.0,-12738.3,-119.474,-82.9136,131.442,-180.281,7694.23,-1290.86,-71.8628,9.83868,-38.0479,39.9214,20473.2,-12003.4,-827.586,-74.7806,48.7885,-44.3226
2.554,21833.3,-10543.0,-3522.79,9.76262,93.8766,-204.929,2131.13,7381.38,-566.614,54.5089,30.5461,-99.4477,-584.722,11113.9,2472.78,-54.8262,64.0155,-141.491,5816.51,-288.867,9261.78,51.0676,-152.384,-2.825,-21867.6,-12175.4,-509.269,-82.1379,130.47,-172.938,7865.27,-1344.92,-101.653,9.3638,-36.9604,39.1527,20948.9,-12277.4,-893.44,-62.2599,53.5331,-40.9434
2.555,22472.9,-10845.3,-4032.29,9.75234,87.4005,-196.313,2384.9,7404.41,-552.36,54.3968,30.7359,-99.9464,-560.655,11139.1,2442.94,-55.5228,65.3577,-142.309,5823.65,-304.749,9292.9,52.0292,-153.883,-1.98588,-22541.2,-11612.6,-899.065,-81.3622,129.498,-165.594,8036.32,-1398.98,-131.443,8.88892,-35.873,38.384,21424.6,-12551.5,-959.294,-49.7392,58.2776,-37.5642
2.556,23358.8,-10961.8,-4541.11,11.0328,82.7154,-187.283,2631.08,7428.82,-540.86,53.8945,31.0931,-100.469,-522.186,11178.7,2403.68,-56.1372,66.7025,-143.199,5818.61,-318.785,9320.19,53.0254,-155.394,-1.15256,-23245.2,-11154.9,-1058.89,-80.0421,128.163,-158.156,8176.65,-1483.01,-134.037,8.4145,-34.8757,37.6409,21864.3,-12800.6,-844.47,-35.0871,62.7209,-34.1814
2.557,24552.5,-10846.0,-5049.06,13.9267,80.2689,-177.738,2867.77,7454.94,-532.802,52.9046,31.6593,-101.022,-465.713,11236.5,2352.65,-56.6487,68.0505,-144.18,5798.32,-330.512,9342.7,54.0649,-156.92,-0.326485,-23987.4,-10828.5,-931.24,-78.0417,126.371,-150.597,8278.61,-1604.51,-102.637,7.94065,-33.9909,36.9299,22259.1,-13018.5,-503.801,-17.7708,66.7878,-30.794
2.558,25746.1,-10730.2,-5557.01,16.8205,77.8225,-168.193,3104.46,7481.07,-524.744,51.9146,32.2256,-101.575,-409.24,11294.2,2301.62,-57.1602,69.3985,-145.161,5778.04,-342.239,9365.21,55.1043,-158.445,0.499586,-24729.5,-10502.1,-803.593,-76.0413,124.58,-143.039,8380.56,-1726.0,-71.2369,7.4668,-33.1062,36.2189,22653.9,-13236.4,-163.131,-0.454537,70.8546,-27.4067
2.559,26939.8,-10614.5,-6064.96,19.7144,75.376,-158.648,3341.14,7507.2,-516.686,50.9247,32.7919,-102.128,-352.767,11352.0,2250.59,-57.6718,70.7465,-146.142,5757.76,-353.966,9387.71,56.1437,-159.971,1.32566,-25471.7,-10175.7,-675.946,-74.0409,122.789,-135.481,8482.52,-1847.49,-39.8368,6.99296,-32.2215,35.5079,23048.6,-13454.3,177.538,16.8617,74.9214,-24.0193
