Time,RFoot_accel.x,RFoot_accel.y,RFoot_accel.z,RFoot_gyro.x,RFoot_gyro.y,RFoot_gyro.z,LFoot_accel.x,LFoot_accel.y,LFoot_accel.z,LFoot_gyro.x,LFoot_gyro.y,LFoot_gyro.z,RShank_accel.x,RShank_accel.y,RShank_accel.z,RShank_gyro.x,RShank_gyro.y,RShank_gyro.z,LShank_accel.x,LShank_accel.y,LShank_accel.z,LShank_gyro.x,LShank_gyro.y,LShank_gyro.z,RThigh_accel.x,RThigh_accel.y,RThigh_accel.z,RThigh_gyro.x,RThigh_gyro.y,RThigh_gyro.z,LThigh_accel.x,LThigh_accel.y,LThigh_accel.z,LThigh_gyro.x,LThigh_gyro.y,LThigh_gyro.z,Pelvis_accel.x,Pelvis_accel.y,Pelvis_accel.z,Pelvis_gyro.x,Pelvis_gyro.y,Pelvis_gyro.z
0.83,2607.08,4372.34,9537.08,32.1148,74.6943,-68.6881,-973.91,9577.37,-1677.79,-33.4611,-7.23739,23.7208,1152.86,9789.79,-1753.09,6.24145,-24.1454,-86.1259,3574.6,-5788.87,7598.22,9.40707,-13.5892,-22.1643,-159.692,-10324.5,-1798.6,-44.9315,16.0598,-134.83,8793.07,1181.35,97.5086,-10.7029,-55.0062,7.76166,1028.6,-7822.83,1733.01,14.0161,-34.3121,-71.1193
0.831,2600.22,4305.11,9510.91,32.807,75.1871,-67.5208,-967.792,9555.23,-1695.58,-34.7076,-8.25887,24.5207,1189.34,9782.19,-1739.04,6.65607,-22.6205,-86.7936,3590.07,-5717.31,7634.42,9.27802,-13.6407,-22.6418,-154.342,-10360.8,-1767.35,-45.001,14.6204,-135.191,8784.52,1174.73,49.9347,-11.0698,-54.8906,7.99963,1036.22,-7831.82,1668.49,14.0645,-35.5265,-70.7931
0.832,2600.92,4273.82,9490.39,33.5689,75.3459,-66.2908,-941.596,9535.76,-1712.91,-35.3546,-9.12977,25.1151,1147.22,9817.32,-1698.86,7.00303,-20.6788,-87.2494,3623.87,-5595.59,7675.85,8.99286,-13.9117,-22.7665,-152.054,-10416.0,-1735.13,-45.0502,13.081,-135.424,8806.83,1156.61,20.7697,-11.3778,-54.7696,8.13129,1062.21,-7842.08,1636.99,13.8462,-36.5693,-70.2761
0.833,2602.57,4247.02,9470.58,34.3396,75.463,-65.0529,-912.89,9516.62,-1730.17,-35.9267,-9.98185,25.6839,1095.28,9857.8,-1655.42,7.34153,-18.685,-87.6787,3659.96,-5467.6,7717.92,8.68818,-14.2102,-22.8469,-150.149,-10473.6,-1702.79,-45.0968,11.529,-135.642,8833.0,1137.05,-6.09428,-11.6785,-54.6479,8.24966,1090.49,-7852.49,1609.62,13.5944,-37.5907,-69.7352
0.834,2604.21,4220.22,9450.78,35.1103,75.58,-63.8151,-884.184,9497.48,-1747.44,-36.4988,-10.8339,26.2526,1043.34,9898.28,-1611.98,7.68004,-16.6912,-88.1079,3696.06,-5339.61,7759.99,8.38351,-14.5087,-22.9274,-148.244,-10531.2,-1670.45,-45.1433,9.97702,-135.859,8859.18,1117.49,-32.9582,-11.9791,-54.5262,8.36803,1118.78,-7862.91,1582.25,13.3427,-38.612,-69.1944
0.835,2605.85,4193.42,9430.97,35.8809,75.6971,-62.5773,-855.478,9478.35,-1764.7,-37.0709,-11.686,26.8214,991.398,9938.75,-1568.53,8.01855,-14.6974,-88.5372,3732.15,-5211.63,7802.07,8.07883,-14.8071,-23.0079,-146.339,-10588.8,-1638.11,-45.1899,8.42504,-136.077,8885.35,1097.93,-59.8222,-12.2798,-54.4045,8.48641,1147.06,-7873.32,1554.89,13.0909,-39.6334,-68.6535
0.836,2615.21,4163.68,9403.65,36.5207,75.7448,-61.2338,-820.896,9452.53,-1792.86,-37.3492,-12.3995,27.3449,911.959,9986.12,-1514.03,8.35486,-12.8094,-88.9054,3783.35,-5093.71,7850.4,7.73168,-15.2088,-23.0308,-152.247,-10643.3,-1624.1,-45.2264,6.84416,-136.31,8922.3,1079.88,-86.848,-12.5283,-54.2018,8.62444,1180.02,-7902.73,1530.62,12.8511,-40.5089,-68.1577
0.837,2634.22,4130.26,9366.95,36.9967,75.7058,-59.7584,-778.967,9418.38,-1834.63,-37.2603,-12.9397,27.8119,798.147,10042.1,-1445.69,8.68843,-11.0539,-89.1974,3853.44,-4988.37,7906.55,7.33142,-15.7393,-22.9815,-167.921,-10693.9,-1633.0,-45.2502,5.22715,-136.564,8972.73,1063.7,-114.076,-12.7116,-53.8979,8.78707,1218.82,-7955.86,1510.24,12.6263,-41.2021,-67.7183
0.838,2653.22,4096.83,9330.25,37.4727,75.6668,-58.283,-737.039,9384.22,-1876.4,-37.1713,-13.4798,28.2789,684.334,10098.1,-1377.36,9.022,-9.2983,-89.4893,3923.53,-4883.03,7962.7,6.93116,-16.2699,-22.9323,-183.596,-10744.5,-1641.9,-45.2739,3.61014,-136.818,9023.15,1047.52,-141.304,-12.8949,-53.594,8.94969,1257.63,-8009.0,1489.86,12.4014,-41.8953,-67.279
0.839,2672.23,4063.41,9293.55,37.9488,75.6279,-56.8076,-695.11,9350.07,-1918.17,-37.0823,-14.02,28.7459,570.522,10154.1,-1309.02,9.35558,-7.54274,-89.7812,3993.62,-4777.69,8018.85,6.53091,-16.8005,-22.8831,-199.271,-10795.2,-1650.8,-45.2977,1.99313,-137.072,9073.57,1031.34,-168.532,-13.0782,-53.29,9.11231,1296.43,-8062.14,1469.48,12.1765,-42.5885,-66.8396
0.84,2691.23,4029.99,9256.85,38.4248,75.5889,-55.3322,-653.182,9315.91,-1959.94,-36.9934,-14.5602,29.2129,456.709,10210.1,-1240.69,9.68915,-5.78717,-90.0731,4063.71,-4672.35,8075.0,6.13065,-17.3311,-22.8338,-214.946,-10845.8,-1659.7,-45.3215,0.376117,-137.326,9124.0,1015.16,-195.76,-13.2615,-52.9861,9.27493,1335.23,-8115.28,1449.1,11.9517,-43.2817,-66.4002
0.841,2722.17,4001.54,9240.23,38.5654,75.1369,-53.9597,-632.136,9270.42,-1984.94,-36.465,-15.0983,29.508,318.91,10279.5,-1197.1,9.94472,-4.62224,-90.5013,4153.98,-4678.7,8065.3,5.64474,-17.6244,-22.7645,-224.983,-10908.9,-1633.16,-45.3812,-1.2226,-137.477,9158.52,1007.15,-228.546,-13.5633,-52.5849,9.29094,1353.38,-8160.19,1400.68,11.641,-43.7079,-66.2069
0.842,2753.1,3973.08,9223.61,38.706,74.6848,-52.5871,-611.09,9224.93,-2009.94,-35.9366,-15.6364,29.8031,181.11,10349.0,-1153.51,10.2003,-3.4573,-90.9294,4244.25,-4685.06,8055.61,5.15884,-17.9177,-22.6952,-235.021,-10971.9,-1606.62,-45.4408,-2.82132,-137.628,9193.04,999.135,-261.332,-13.8651,-52.1837,9.30695,1371.53,-8205.09,1352.26,11.3304,-44.134,-66.0137
0.843,2784.04,3944.63,9206.98,38.8466,74.2328,-51.2146,-590.044,9179.44,-2034.94,-35.4082,-16.1745,30.0982,43.311,10418.4,-1109.92,10.4558,-2.29237,-91.3575,4334.52,-4691.41,8045.92,4.67293,-18.2109,-22.6259,-245.058,-11035.0,-1580.08,-45.5005,-4.42004,-137.779,9227.56,991.123,-294.118,-14.1669,-51.7826,9.32296,1389.69,-8250.0,1303.84,11.0197,-44.5602,-65.8204
0.844,2814.97,3916.17,9190.36,38.9872,73.7808,-49.842,-568.998,9133.95,-2059.94,-34.8798,-16.7125,30.3933,-94.4885,10487.9,-1066.34,10.7114,-1.12744,-91.7857,4424.79,-4697.77,8036.23,4.18702,-18.5042,-22.5566,-255.095,-11098.0,-1553.54,-45.5601,-6.01876,-137.93,9262.08,983.111,-326.904,-14.4687,-51.3814,9.33897,1407.84,-8294.9,1255.42,10.709,-44.9863,-65.6272
0.845,2841.41,3900.51,9182.42,38.8786,73.2463,-48.3745,-546.727,9119.59,-2082.13,-34.1306,-17.2392,30.4699,-217.174,10560.2,-1047.26,10.8144,-0.403146,-92.2279,4480.65,-4716.78,8045.32,3.78932,-18.8278,-22.4793,-265.643,-11135.2,-1537.71,-45.6098,-7.56931,-138.06,9289.01,971.839,-346.045,-14.7053,-51.0444,9.3075,1426.88,-8338.56,1218.87,10.4149,-45.3778,-65.452
0.846,2864.23,3895.08,9181.44,38.5706,72.6459,-46.8311,-523.474,9130.15,-2102.08,-33.2048,-17.7566,30.3718,-327.768,10634.8,-1047.79,10.7954,-0.0313637,-92.6813,4508.98,-4745.91,8069.43,3.4622,-19.1758,-22.3957,-276.6,-11151.7,-1530.44,-45.6515,-9.08132,-138.173,9309.88,957.959,-354.27,-14.8896,-50.7588,9.23804,1446.63,-8381.22,1191.82,10.1339,-45.7415,-65.2912
0.847,2887.06,3889.64,9180.46,38.2627,72.0455,-45.2876,-500.222,9140.71,-2122.03,-32.2791,-18.2741,30.2737,-438.363,10709.4,-1048.32,10.7763,0.340419,-93.1348,4537.31,-4775.05,8093.54,3.13507,-19.5237,-22.3122,-287.556,-11168.2,-1523.17,-45.6932,-10.5933,-138.285,9330.74,944.079,-362.496,-15.0739,-50.4732,9.16858,1466.38,-8423.88,1164.76,9.85297,-46.1053,-65.1304
0.848,2909.89,3884.21,9179.47,37.9547,71.4451,-43.7441,-476.97,9151.27,-2141.98,-31.3533,-18.7915,30.1756,-548.957,10784.0,-1048.84,10.7572,0.712202,-93.5883,4565.64,-4804.19,8117.65,2.80794,-19.8717,-22.2286,-298.513,-11184.7,-1515.9,-45.7349,-12.1053,-138.398,9351.6,930.2,-370.721,-15.2582,-50.1875,9.09912,1486.13,-8466.54,1137.71,9.57202,-46.469,-64.9696
0.849,2937.49,3883.54,9174.84,37.5909,70.8616,-42.1867,-457.165,9158.38,-2158.71,-30.4319,-19.3072,30.0623,-657.101,10854.4,-1052.92,10.721,1.03302,-94.0246,4585.11,-4835.87,8138.66,2.4674,-20.2474,-22.1299,-312.845,-11200.9,-1507.69,-45.776,-13.5966,-138.51,9376.73,918.753,-380.932,-15.4456,-49.8889,9.03237,1506.11,-8509.01,1110.22,9.27935,-46.8051,-64.8156
0.85,3003.25,3921.02,9141.03,36.7798,70.413,-40.5181,-464.942,9137.89,-2149.61,-29.5458,-19.8086,29.827,-745.645,10891.9,-1085.36,10.5476,0.946083,-94.3237,4533.67,-4887.92,8134.89,2.01957,-20.8452,-21.9104,-354.187,-11214.6,-1491.89,-45.8125,-14.9221,-138.617,9436.0,926.777,-407.033,-15.6576,-49.4858,8.98725,1527.89,-8549.95,1079.24,8.89299,-46.9206,-64.716
0.851,3069.0,3958.5,9107.23,35.9688,69.9644,-38.8494,-472.719,9117.41,-2140.52,-28.6597,-20.3099,29.5917,-834.188,10929.4,-1117.8,10.3741,0.85915,-94.6227,4482.22,-4939.97,8131.13,1.57174,-21.443,-21.6909,-395.529,-11228.4,-1476.09,-45.8489,-16.2476,-138.725,9495.26,934.8,-433.135,-15.8695,-49.0828,8.94212,1549.67,-8590.89,1048.26,8.50663,-47.0362,-64.6163
0.852,3134.75,3995.98,9073.42,35.1577,69.5158,-37.1807,-480.496,9096.93,-2131.43,-27.7737,-20.8113,29.3564,-922.732,10966.9,-1150.24,10.2007,0.772217,-94.9218,4430.78,-4992.03,8127.36,1.12391,-22.0408,-21.4715,-436.871,-11242.1,-1460.29,-45.8853,-17.573,-138.832,9554.53,942.823,-459.236,-16.0815,-48.6798,8.89699,1571.45,-8631.83,1017.28,8.12027,-47.1517,-64.5167
0.853,3200.51,4033.46,9039.61,34.3467,69.0672,-35.512,-488.273,9076.44,-2122.33,-26.8876,-21.3126,29.1212,-1011.28,11004.4,-1182.68,10.0272,0.685284,-95.2209,4379.34,-5044.08,8123.59,0.676081,-22.6386,-21.252,-478.214,-11255.8,-1444.49,-45.9218,-18.8985,-138.939,9613.79,950.846,-485.337,-16.2935,-48.2768,8.85187,1593.24,-8672.77,986.304,7.73391,-47.2672,-64.417
0.854,3281.9,4043.46,9002.03,33.3239,68.5124,-33.8409,-493.04,9059.9,-2107.77,-26.1215,-21.9137,28.9155,-1080.8,11019.1,-1188.38,9.83394,0.395792,-95.5285,4360.28,-5062.19,8142.72,0.140118,-23.1213,-21.2594,-508.708,-11267.8,-1414.57,-45.9125,-20.2128,-138.994,9672.94,942.571,-506.261,-16.5809,-47.8971,8.80728,1610.88,-8707.96,944.011,7.52343,-47.2598,-64.3434
0.855,3371.1,4039.71,8962.54,32.1952,67.9046,-32.1686,-496.3,9045.34,-2090.48,-25.4154,-22.5647,28.7247,-1140.82,11022.5,-1180.72,9.63078,0.00502136,-95.8404,4357.41,-5063.33,8173.3,-0.439912,-23.5465,-21.3803,-533.779,-11278.8,-1377.59,-45.8804,-21.5214,-139.023,9732.02,926.146,-524.597,-16.9061,-47.529,8.76295,1626.45,-8740.27,896.06,7.40089,-47.191,-64.2827
0.856,3460.31,4035.97,8923.07,31.0666,67.2967,-30.4963,-499.561,9030.77,-2073.18,-24.7093,-23.2157,28.5339,-1200.84,11025.9,-1173.05,9.42763,-0.38575,-96.1523,4354.54,-5064.47,8203.88,-1.01994,-23.9718,-21.5012,-558.849,-11289.8,-1340.61,-45.8483,-22.83,-139.051,9791.11,909.722,-542.933,-17.2312,-47.161,8.71862,1642.03,-8772.59,848.11,7.27834,-47.1222,-64.222
0.857,3549.51,4032.22,8883.58,29.9379,66.6889,-28.824,-502.822,9016.2,-2055.89,-24.0032,-23.8667,28.3431,-1260.85,11029.3,-1165.39,9.22447,-0.776521,-96.4641,4351.68,-5065.62,8234.46,-1.59997,-24.397,-21.6221,-583.92,-11300.9,-1303.63,-45.8162,-24.1387,-139.079,9850.19,893.297,-561.269,-17.5563,-46.7929,8.67429,1657.6,-8804.9,800.159,7.1558,-47.0535,-64.1614
0.858,3629.59,4030.85,8843.3,28.7411,66.0792,-27.1414,-505.902,9010.06,-2042.17,-23.3373,-24.5131,28.1309,-1309.72,11029.3,-1154.27,8.98424,-1.20147,-96.8005,4336.02,-5059.04,8263.35,-2.22358,-24.8631,-21.7054,-604.265,-11307.3,-1271.37,-45.7759,-25.4524,-139.09,9902.22,869.474,-582.451,-17.8539,-46.3968,8.64621,1673.86,-8837.21,761.872,7.03033,-46.9631,-64.0993
0.859,3677.73,4037.8,8800.18,27.3061,65.4631,-25.4228,-508.352,9033.42,-2040.97,-22.8119,-25.1434,27.8443,-1319.58,11017.5,-1131.07,8.61425,-1.74604,-97.2225,4275.59,-5025.45,8286.31,-2.99969,-25.4726,-21.6574,-608.068,-11297.5,-1255.63,-45.707,-26.7837,-139.036,9929.55,819.758,-613.598,-18.0554,-45.9021,8.67499,1692.51,-8869.51,757.406,6.89467,-46.7972,-64.0323
0.86,3725.86,4044.74,8757.07,25.8711,64.847,-23.7042,-510.802,9056.78,-2039.77,-22.2865,-25.7737,27.5577,-1329.44,11005.8,-1107.86,8.24425,-2.2906,-97.6446,4215.17,-4991.86,8309.28,-3.7758,-26.082,-21.6094,-611.871,-11287.7,-1239.9,-45.6381,-28.1151,-138.983,9956.88,770.042,-644.744,-18.2568,-45.4075,8.70376,1711.16,-8901.8,752.94,6.75901,-46.6314,-63.9654
0.861,3774.0,4051.69,8713.96,24.4361,64.2309,-21.9856,-513.252,9080.13,-2038.57,-21.7611,-26.4041,27.271,-1339.3,10994.1,-1084.65,7.87426,-2.83517,-98.0666,4154.74,-4958.28,8332.25,-4.55191,-26.6915,-21.5615,-615.675,-11278.0,-1224.16,-45.5691,-29.4464,-138.93,9984.21,720.326,-675.89,-18.4582,-44.9128,8.73254,1729.81,-8934.09,748.474,6.62335,-46.4655,-63.8984
0.862,3822.14,4058.64,8670.84,23.0011,63.6148,-20.267,-515.702,9103.49,-2037.38,-21.2357,-27.0344,26.9844,-1349.16,10982.4,-1061.45,7.50426,-3.37974,-98.4886,4094.31,-4924.69,8355.22,-5.32801,-27.3009,-21.5135,-619.478,-11268.2,-1208.42,-45.5002,-30.7777,-138.877,10011.5,670.61,-707.037,-18.6596,-44.4182,8.76132,1748.46,-8966.38,744.008,6.48768,-46.2997,-63.8315
0.863,3845.64,4018.4,8647.5,21.5156,62.887,-18.3995,-519.363,9097.22,-2027.98,-20.7043,-27.5736,26.7675,-1354.17,10976.4,-1059.79,7.0127,-4.08458,-98.8752,4085.33,-4914.65,8357.74,-5.9826,-28.0135,-21.5841,-627.891,-11259.2,-1202.02,-45.4687,-32.017,-138.742,10042.3,645.219,-730.319,-18.7481,-43.9141,8.69882,1760.78,-8974.19,733.8,6.32978,-46.2127,-63.916
0.864,3862.11,3964.67,8629.81,20.0157,62.1273,-16.4895,-523.369,9082.48,-2016.24,-20.1713,-28.0867,26.5706,-1357.8,10972.1,-1064.28,6.4864,-4.83521,-99.2517,4091.05,-4911.35,8354.43,-6.60247,-28.7555,-21.6886,-637.622,-11250.5,-1198.29,-45.4478,-33.23,-138.585,10074.1,626.779,-751.355,-18.8044,-43.4074,8.61025,1771.28,-8975.01,721.952,6.16551,-46.1483,-64.0437
0.865,3878.58,3910.94,8612.12,18.5157,61.3676,-14.5794,-527.375,9067.75,-2004.5,-19.6382,-28.5999,26.3736,-1361.43,10967.8,-1068.78,5.96011,-5.58583,-99.6282,4096.76,-4908.04,8351.11,-7.22234,-29.4975,-21.7931,-647.352,-11241.8,-1194.56,-45.427,-34.4429,-138.427,10105.8,608.34,-772.39,-18.8607,-42.9006,8.52167,1781.78,-8975.82,710.104,6.00125,-46.0839,-64.1715
0.866,3895.05,3857.21,8594.43,17.0158,60.6079,-12.6694,-531.381,9053.01,-1992.76,-19.1052,-29.113,26.1767,-1365.06,10963.5,-1073.27,5.43381,-6.33646,-100.005,4102.48,-4904.74,8347.8,-7.84221,-30.2395,-21.8975,-657.082,-11233.1,-1190.83,-45.4061,-35.6559,-138.27,10137.6,589.9,-793.426,-18.9169,-42.3939,8.4331,1792.28,-8976.64,698.256,5.83698,-46.0194,-64.2993
0.867,3914.96,3796.41,8583.12,15.6019,59.8291,-10.7387,-542.089,9049.9,-1993.12,-18.6889,-29.572,26.0162,-1377.95,10951.1,-1073.35,4.92952,-7.19058,-100.348,4108.77,-4897.04,8336.01,-8.47949,-30.9211,-21.9684,-665.701,-11221.5,-1191.87,-45.3691,-36.8087,-138.057,10172.3,576.595,-808.271,-18.997,-41.9171,8.35301,1808.95,-8964.61,683.123,5.64455,-45.9156,-64.3813
0.868,3941.75,3721.44,8584.57,14.3604,59.0123,-8.76657,-566.202,9070.01,-2017.68,-18.5062,-29.9228,25.9289,-1409.38,10922.6,-1064.6,4.46926,-8.25168,-100.625,4116.23,-4880.55,8307.28,-9.1516,-31.4817,-21.9721,-672.096,-11204.2,-1202.46,-45.2996,-37.8414,-137.733,10212.9,573.562,-810.736,-19.1247,-41.5004,8.2899,1837.94,-8926.9,661.423,5.39577,-45.733,-64.3716
0.869,3968.55,3646.47,8586.02,13.1188,58.1955,-6.79445,-590.314,9090.13,-2042.23,-18.3236,-30.2737,25.8415,-1440.8,10894.0,-1055.85,4.00899,-9.31278,-100.902,4123.69,-4864.06,8278.56,-9.82371,-32.0424,-21.9757,-678.492,-11186.9,-1213.05,-45.2301,-38.874,-137.409,10253.6,570.528,-813.201,-19.2525,-41.0836,8.2268,1866.94,-8889.19,639.722,5.14699,-45.5504,-64.3619
0.87,3995.35,3571.49,8587.46,11.8772,57.3786,-4.82233,-614.426,9110.25,-2066.79,-18.1409,-30.6245,25.7541,-1472.22,10865.4,-1047.1,3.54872,-10.3739,-101.179,4131.14,-4847.57,8249.83,-10.4958,-32.6031,-21.9793,-684.888,-11169.6,-1223.64,-45.1605,-39.9066,-137.085,10294.2,567.495,-815.665,-19.3802,-40.6669,8.16369,1895.93,-8851.48,618.021,4.89821,-45.3678,-64.3523
0.871,4022.14,3496.52,8588.91,10.6357,56.5618,-2.85021,-638.538,9130.36,-2091.35,-17.9583,-30.9753,25.6668,-1503.65,10836.8,-1038.34,3.08845,-11.435,-101.456,4138.6,-4831.08,8221.1,-11.1679,-33.1637,-21.983,-691.283,-11152.3,-1234.23,-45.091,-40.9393,-136.762,10334.8,564.461,-818.13,-19.508,-40.2501,8.10058,1924.93,-8813.77,596.321,4.64943,-45.1852,-64.3426
0.872,4065.37,3454.64,8532.86,9.25265,55.7973,-0.750511,-650.94,9173.3,-2116.42,-18.2845,-31.113,25.831,-1529.02,10809.2,-1011.97,2.55932,-12.7026,-101.815,4132.32,-4838.53,8242.12,-11.8361,-33.8714,-22.03,-705.684,-11131.7,-1232.84,-45.0379,-41.774,-136.4,10369.9,571.101,-820.066,-19.5365,-39.8334,8.11384,1945.57,-8799.9,595.156,4.31337,-45.2442,-64.1882
0.873,4110.64,3416.9,8469.62,7.85194,55.0393,1.36514,-661.878,9219.09,-2141.56,-18.6744,-31.2241,26.0267,-1553.63,10781.7,-983.398,2.02158,-13.9959,-102.185,4124.33,-4848.98,8269.36,-12.5037,-34.5974,-22.0824,-721.085,-11110.8,-1229.95,-44.9868,-42.5839,-136.033,10404.3,578.95,-821.937,-19.5525,-39.4166,8.13665,1965.17,-8789.01,596.559,3.96639,-45.3334,-64.0157
0.874,4155.92,3379.16,8406.39,6.45123,54.2813,3.48079,-672.817,9264.88,-2166.69,-19.0643,-31.3352,26.2224,-1578.25,10754.2,-954.823,1.48385,-15.2893,-102.554,4116.34,-4859.42,8296.59,-13.1714,-35.3234,-22.1348,-736.486,-11089.8,-1227.06,-44.9357,-43.3939,-135.666,10438.8,586.799,-823.807,-19.5686,-38.9999,8.15946,1984.78,-8778.12,597.962,3.61942,-45.4227,-63.8432
0.875,4201.19,3341.42,8343.15,5.05052,53.5234,5.59644,-683.755,9310.67,-2191.83,-19.4542,-31.4463,26.418,-1602.86,10726.7,-926.248,0.946107,-16.5827,-102.924,4108.34,-4869.86,8323.83,-13.839,-36.0494,-22.1872,-751.886,-11068.9,-1224.17,-44.8846,-44.2038,-135.299,10473.2,594.648,-825.677,-19.5847,-38.5832,8.18228,2004.38,-8767.23,599.364,3.27244,-45.5119,-63.6706
0.876,4262.89,3313.46,8305.61,3.81826,52.8938,7.74682,-678.187,9355.01,-2233.08,-19.8315,-31.4159,26.6922,-1623.98,10712.3,-889.211,0.451735,-17.9225,-103.257,4092.96,-4890.97,8349.27,-14.4986,-36.816,-22.2911,-771.365,-11052.3,-1219.66,-44.785,-44.997,-134.945,10496.1,598.823,-823.4,-19.5929,-38.1462,8.17501,2039.82,-8752.04,589.539,2.94607,-45.5536,-63.5045
0.877,4345.13,3297.74,8300.19,2.79657,52.4246,9.94063,-651.984,9397.56,-2294.46,-20.1931,-31.2087,27.0644,-1640.73,10714.3,-841.598,0.0115698,-19.3204,-103.544,4068.35,-4925.4,8372.47,-15.1481,-37.6333,-22.4593,-795.942,-11041.2,-1213.11,-44.6247,-45.769,-134.607,10504.5,598.405,-815.938,-19.5913,-37.6841,8.13013,2095.06,-8731.47,565.68,2.64546,-45.5358,-63.3464
0.878,4427.36,3282.02,8294.77,1.77488,51.9555,12.1344,-625.781,9440.11,-2355.85,-20.5547,-31.0014,27.4366,-1657.47,10716.4,-793.985,-0.428595,-20.7184,-103.832,4043.74,-4959.83,8395.68,-15.7975,-38.4507,-22.6275,-820.518,-11030.0,-1206.57,-44.4644,-46.5411,-134.268,10512.9,597.988,-808.476,-19.5897,-37.2219,8.08526,2150.29,-8710.9,541.821,2.34485,-45.518,-63.1882
0.879,4509.59,3266.29,8289.36,0.753183,51.4863,14.3282,-599.578,9482.66,-2417.23,-20.9163,-30.7942,27.8089,-1674.22,10718.4,-746.371,-0.86876,-22.1163,-104.12,4019.13,-4994.26,8418.88,-16.447,-39.268,-22.7956,-845.095,-11018.9,-1200.02,-44.3042,-47.3132,-133.93,10521.3,597.57,-801.014,-19.5881,-36.7598,8.04039,2205.53,-8690.33,517.963,2.04423,-45.5002,-63.03
0.88,4591.82,3250.57,8283.94,-0.26851,51.0172,16.522,-573.375,9525.21,-2478.62,-21.278,-30.587,28.1811,-1690.97,10720.4,-698.758,-1.30893,-23.5142,-104.407,3994.52,-5028.69,8442.08,-17.0965,-40.0854,-22.9638,-869.671,-11007.8,-1193.48,-44.1439,-48.0853,-133.591,10529.8,597.153,-793.552,-19.5865,-36.2976,7.99552,2260.77,-8669.76,494.104,1.74362,-45.4823,-62.8719
0.881,4674.98,3242.51,8280.87,-0.996166,50.4415,18.3564,-539.687,9527.54,-2646.32,-21.5978,-29.6539,28.8415,-1675.28,10724.7,-673.802,-1.75116,-24.803,-104.602,3943.62,-5016.63,8446.72,-17.8582,-40.8354,-23.3015,-910.322,-10997.4,-1185.41,-44.0121,-48.7259,-133.14,10549.7,605.841,-790.991,-19.4618,-35.756,7.98612,2318.89,-8646.89,477.271,1.48875,-45.5871,-62.4997
0.882,4758.13,3234.44,8277.8,-1.72382,49.8658,20.1908,-506.0,9529.88,-2814.02,-21.9176,-28.7209,29.502,-1659.59,10728.9,-648.846,-2.1934,-26.0917,-104.797,3892.72,-5004.58,8451.36,-18.62,-41.5854,-23.6391,-950.973,-10987.0,-1177.34,-43.8803,-49.3666,-132.688,10569.7,614.53,-788.43,-19.337,-35.2143,7.97672,2377.01,-8624.02,460.439,1.23389,-45.6918,-62.1275
0.883,4841.28,3226.38,8274.74,-2.45148,49.2901,22.0251,-472.312,9532.22,-2981.72,-22.2375,-27.7879,30.1625,-1643.9,10733.2,-623.89,-2.63563,-27.3805,-104.991,3841.82,-4992.53,8456.01,-19.3818,-42.3354,-23.9767,-991.624,-10976.6,-1169.27,-43.7484,-50.0072,-132.237,10589.6,623.218,-785.869,-19.2123,-34.6726,7.96732,2435.13,-8601.15,443.606,0.979023,-45.7965,-61.7553
0.884,4924.43,3218.31,8271.67,-3.17913,48.7144,23.8595,-438.625,9534.56,-3149.42,-22.5573,-26.8548,30.823,-1628.21,10737.4,-598.934,-3.07787,-28.6692,-105.186,3790.92,-4980.48,8460.65,-20.1435,-43.0855,-24.3144,-1032.27,-10966.2,-1161.19,-43.6166,-50.6479,-131.786,10609.5,631.906,-783.307,-19.0876,-34.131,7.95792,2493.24,-8578.28,426.774,0.724157,-45.9012,-61.3831
0.885,5002.89,3212.79,8291.54,-3.58847,48.4422,25.7535,-392.544,9533.16,-3317.54,-22.7693,-25.6093,31.5598,-1604.07,10747.0,-573.362,-3.60186,-29.9219,-105.481,3769.55,-5001.56,8451.22,-20.8335,-43.8156,-24.5822,-1074.9,-10945.9,-1156.21,-43.4935,-51.1751,-131.326,10621.6,642.177,-794.862,-19.0053,-33.6104,7.90648,2522.62,-8547.87,408.67,0.472097,-45.9965,-60.9598
0.886,5077.61,3209.29,8329.75,-3.74314,48.4128,27.6951,-336.548,9528.77,-3486.0,-22.8952,-24.1137,32.3577,-1573.19,10760.7,-547.298,-4.19126,-31.1458,-105.856,3771.81,-5049.13,8430.54,-21.4659,-44.5297,-24.7942,-1119.11,-10917.6,-1153.7,-43.3773,-51.6115,-130.861,10627.4,653.714,-817.708,-18.9568,-33.1067,7.82139,2529.0,-8511.44,389.547,0.222281,-46.0844,-60.4956
0.887,5152.32,3205.79,8367.97,-3.89781,48.3834,29.6368,-280.552,9524.38,-3654.45,-23.021,-22.6181,33.1557,-1542.3,10774.5,-521.234,-4.78065,-32.3696,-106.232,3774.07,-5096.71,8409.86,-22.0983,-45.2438,-25.0062,-1163.31,-10889.3,-1151.19,-43.2612,-52.0479,-130.396,10633.2,665.251,-840.555,-18.9083,-32.603,7.73631,2535.38,-8475.01,370.425,-0.0275343,-46.1723,-60.0314
0.888,5227.03,3202.3,8406.19,-4.05247,48.354,31.5785,-224.556,9519.98,-3822.91,-23.1468,-21.1226,33.9536,-1511.41,10788.3,-495.171,-5.37005,-33.5934,-106.607,3776.33,-5144.28,8389.17,-22.7307,-45.9579,-25.2182,-1207.52,-10860.9,-1148.68,-43.145,-52.4843,-129.93,10639.0,676.788,-863.401,-18.8598,-32.0993,7.65122,2541.76,-8438.57,351.303,-0.27735,-46.2602,-59.5672
0.889,5307.19,3199.41,8444.41,-4.12641,48.4038,33.4628,-166.821,9510.36,-3971.08,-23.3572,-19.6515,34.7055,-1482.55,10800.7,-466.659,-5.97722,-34.7936,-106.996,3783.73,-5185.16,8368.75,-23.3627,-46.6789,-25.4411,-1253.33,-10834.6,-1146.4,-43.0047,-52.8884,-129.462,10644.1,687.094,-883.172,-18.806,-31.598,7.56973,2550.48,-8401.84,329.622,-0.517448,-46.3434,-59.098
0.89,5430.92,3201.39,8482.72,-3.55444,49.0877,34.8885,-95.1734,9458.84,-3956.92,-24.2439,-18.3764,35.0892,-1469.85,10802.2,-418.562,-6.72656,-35.805,-107.496,3832.22,-5172.47,8350.35,-23.9913,-47.4549,-25.751,-1311.96,-10823.9,-1145.97,-42.671,-53.0335,-128.969,10644.3,687.556,-878.335,-18.7094,-31.1161,7.51692,2577.93,-8362.75,287.469,-0.679808,-46.3891,-58.5886
0.891,5554.65,3203.38,8521.03,-2.98247,49.7715,36.3142,-23.5257,9407.32,-3942.76,-25.1306,-17.1013,35.4728,-1457.15,10803.8,-370.465,-7.47589,-36.8163,-107.996,3880.71,-5159.77,8331.96,-24.62,-48.2309,-26.0609,-1370.59,-10813.2,-1145.53,-42.3374,-53.1785,-128.475,10644.5,688.018,-873.499,-18.6128,-30.6343,7.46411,2605.38,-8323.65,245.315,-0.842167,-46.4349,-58.0793
0.892,5678.37,3205.36,8559.34,-2.4105,50.4553,37.74,48.122,9355.8,-3928.61,-26.0174,-15.8263,35.8564,-1444.45,10805.4,-322.369,-8.22523,-37.8277,-108.495,3929.21,-5147.08,8313.57,-25.2486,-49.0069,-26.3708,-1429.22,-10802.4,-1145.09,-42.0037,-53.3236,-127.982,10644.8,688.48,-868.662,-18.5162,-30.1524,7.41131,2632.84,-8284.55,203.162,-1.00453,-46.4807,-57.5699
0.893,5802.1,3207.34,8597.65,-1.83853,51.1391,39.1657,119.77,9304.28,-3914.45,-26.9041,-14.5512,36.24,-1431.75,10807.0,-274.272,-8.97457,-38.839,-108.995,3977.7,-5134.39,8295.17,-25.8772,-49.7829,-26.6808,-1487.86,-10791.7,-1144.66,-41.6701,-53.4687,-127.489,10645.0,688.942,-863.826,-18.4196,-29.6705,7.3585,2660.29,-8245.45,161.008,-1.16689,-46.5265,-57.0606
0.894,5950.56,3230.09,8651.55,-0.514578,52.3117,40.3606,140.339,9213.75,-3706.12,-28.6978,-14.6226,35.8422,-1418.12,10795.3,-242.514,-9.6567,-39.4006,-109.473,4015.43,-5112.44,8297.84,-26.4279,-50.7721,-26.8288,-1566.23,-10775.7,-1142.71,-41.4298,-53.3179,-126.969,10638.6,680.299,-860.404,-18.318,-29.283,7.21488,2697.04,-8217.52,129.094,-1.4155,-46.5948,-56.4052
0.895,6111.38,3263.22,8713.26,1.18537,53.7287,41.44,135.37,9103.7,-3400.72,-30.945,-15.3674,35.0536,-1404.04,10776.9,-218.925,-10.3052,-39.7374,-109.939,4047.79,-5085.87,8311.05,-26.9395,-51.8679,-26.896,-1654.47,-10757.1,-1140.01,-41.2362,-53.0191,-126.434,10628.9,667.104,-857.689,-18.2138,-28.9428,7.02586,2738.45,-8195.18,102.3,-1.70723,-46.6744,-55.6767
0.896,6272.2,3296.35,8774.96,2.88532,55.1456,42.5195,130.4,8993.66,-3095.31,-33.1922,-16.1121,34.265,-1389.95,10758.6,-195.336,-10.9537,-40.0741,-110.406,4080.14,-5059.3,8324.25,-27.4511,-52.9637,-26.9632,-1742.71,-10738.5,-1137.3,-41.0427,-52.7204,-125.9,10619.2,653.908,-854.975,-18.1097,-28.6025,6.83684,2779.86,-8172.84,75.5049,-1.99897,-46.754,-54.9483
0.897,6433.02,3329.48,8836.67,4.58526,56.5626,43.599,125.431,8883.62,-2789.9,-35.4394,-16.8569,33.4764,-1375.87,10740.3,-171.748,-11.6023,-40.4109,-110.872,4112.49,-5032.73,8337.46,-27.9627,-54.0595,-27.0303,-1830.96,-10719.8,-1134.6,-40.8491,-52.4217,-125.366,10609.5,640.712,-852.26,-18.0055,-28.2623,6.64782,2821.27,-8150.5,48.7102,-2.29071,-46.8335,-54.2199
0.898,6612.52,3349.07,8892.68,6.23525,58.0297,44.4061,117.687,8762.1,-2474.02,-37.895,-18.0616,32.4707,-1371.29,10723.8,-155.377,-12.2132,-40.5535,-111.285,4147.18,-4999.05,8350.28,-28.4322,-55.1921,-27.0971,-1921.91,-10701.0,-1134.83,-40.6831,-52.0891,-124.826,10600.1,624.158,-855.327,-17.8972,-27.9557,6.47512,2863.14,-8133.88,24.7572,-2.61674,-46.9253,-53.4839
0.899,6857.38,3321.29,8928.8,7.71036,59.6722,44.2599,100.233,8600.39,-2121.51,-41.0799,-20.8765,30.7048,-1399.99,10713.9,-164.271,-12.6924,-40.0165,-111.513,4190.03,-4940.5,8361.73,-28.7543,-56.4539,-27.1625,-2022.36,-10681.5,-1145.37,-40.6135,-51.6381,-124.265,10591.8,595.85,-878.63,-17.7743,-27.7669,6.35956,2906.61,-8137.27,10.7501,-3.06278,-47.0597,-52.7217
0.9,7102.23,3293.51,8964.91,9.18548,61.3147,44.1138,82.7784,8438.69,-1769.0,-44.2647,-23.6914,28.9389,-1428.68,10704.0,-173.165,-13.1716,-39.4795,-111.741,4232.88,-4881.94,8373.18,-29.0763,-57.7156,-27.2278,-2122.81,-10662.0,-1155.9,-40.544,-51.187,-123.704,10583.5,567.542,-901.933,-17.6514,-27.5781,6.24399,2950.09,-8140.67,-3.25698,-3.50882,-47.1942,-51.9594
0.901,7347.08,3265.73,9001.02,10.6606,62.9572,43.9676,65.3242,8276.98,-1416.48,-47.4496,-26.5063,27.1731,-1457.38,10694.1,-182.059,-13.6509,-38.9425,-111.969,4275.74,-4823.39,8384.63,-29.3984,-58.9773,-27.2932,-2223.26,-10642.5,-1166.44,-40.4744,-50.736,-123.144,10575.2,539.233,-925.236,-17.5285,-27.3892,6.12842,2993.57,-8144.07,-17.2641,-3.95487,-47.3286,-51.1972
0.902,7591.94,3237.94,9037.13,12.1357,64.5996,43.8214,47.8699,8115.28,-1063.97,-50.6345,-29.3212,25.4072,-1486.07,10684.2,-190.953,-14.1301,-38.4056,-112.197,4318.59,-4764.83,8396.09,-29.7204,-60.239,-27.3586,-2323.7,-10623.0,-1176.97,-40.4049,-50.285,-122.583,10567.0,510.925,-948.539,-17.4055,-27.2004,6.01286,3037.05,-8147.47,-31.2712,-4.40091,-47.463,-50.4349
0.903,7814.92,3215.67,9038.45,13.111,66.6179,42.8013,79.5276,7965.87,-758.942,-53.7739,-33.4198,22.956,-1552.7,10672.5,-203.506,-14.6382,-37.5478,-112.381,4362.48,-4747.47,8392.6,-29.9553,-61.4458,-27.3992,-2416.33,-10622.9,-1171.24,-40.2801,-49.9426,-122.045,10552.9,494.538,-941.869,-17.1998,-26.8676,5.94396,3055.32,-8138.25,-59.556,-4.9569,-47.9129,-49.6417
0.904,8031.65,3194.97,9029.83,13.9434,68.7436,41.5315,125.217,7819.98,-467.482,-56.9004,-37.8853,20.3089,-1630.17,10660.2,-217.104,-15.1546,-36.5984,-112.552,4406.67,-4741.89,8384.84,-30.1653,-62.6368,-27.4326,-2506.71,-10628.3,-1160.87,-40.1394,-49.6313,-121.513,10537.2,481.558,-926.636,-16.9704,-26.4936,5.88839,3066.39,-8125.41,-91.9203,-5.54431,-48.4529,-48.8395
0.905,8248.38,3174.27,9021.22,14.7758,70.8692,40.2616,170.907,7674.09,-176.022,-60.0268,-42.3507,17.6618,-1707.63,10648.0,-230.702,-15.671,-35.649,-112.722,4450.85,-4736.3,8377.08,-30.3752,-63.8278,-27.4661,-2597.1,-10633.8,-1150.49,-39.9988,-49.3201,-120.981,10521.5,468.578,-911.402,-16.741,-26.1197,5.83283,3077.45,-8112.58,-124.285,-6.13172,-48.9928,-48.0374
0.906,8465.11,3153.57,9012.6,15.6082,72.9949,38.9918,216.597,7528.21,115.437,-63.1533,-46.8161,15.0148,-1785.1,10635.7,-244.299,-16.1874,-34.6996,-112.893,4495.04,-4730.72,8369.33,-30.5852,-65.0188,-27.4996,-2687.49,-10639.2,-1140.12,-39.8582,-49.0088,-120.45,10505.8,455.598,-896.168,-16.5116,-25.7457,5.77726,3088.52,-8099.74,-156.649,-6.71912,-49.5328,-47.2352
0.907,8628.85,3153.45,8985.74,16.3895,75.0402,37.664,240.596,7386.83,347.841,-65.5066,-51.4062,12.3514,-1859.85,10629.9,-248.073,-16.7092,-33.8373,-113.075,4532.93,-4738.29,8361.2,-30.6344,-66.1914,-27.4684,-2762.84,-10637.7,-1125.69,-39.7023,-48.76,-119.883,10490.6,447.799,-889.006,-16.3014,-25.4015,5.67743,3108.39,-8078.93,-180.576,-7.37075,-50.0955,-46.4758
0.908,8686.62,3194.51,8922.38,17.0684,76.9248,36.2204,221.215,7254.47,462.131,-66.3136,-56.2454,9.65541,-1929.16,10637.0,-232.199,-17.2415,-33.1493,-113.278,4558.24,-4772.17,8352.32,-30.3623,-67.3269,-27.3077,-2808.11,-10622.5,-1103.16,-39.5158,-48.6362,-119.246,10476.6,450.365,-897.987,-16.1294,-25.1167,5.48907,3145.86,-8042.18,-187.63,-8.15079,-50.7038,-45.8017
0.909,8744.4,3235.56,8859.03,17.7474,78.8094,34.7767,201.834,7122.11,576.422,-67.1206,-61.0846,6.9594,-1998.48,10644.1,-216.325,-17.7739,-32.4614,-113.482,4583.55,-4806.05,8343.45,-30.0902,-68.4625,-27.147,-2853.39,-10607.3,-1080.62,-39.3293,-48.5124,-118.608,10462.6,452.93,-906.968,-15.9574,-24.8319,5.30071,3183.34,-8005.42,-194.684,-8.93084,-51.3121,-45.1276
0.91,8802.17,3276.62,8795.67,18.4264,80.694,33.3331,182.452,6989.75,690.712,-67.9277,-65.9238,4.26339,-2067.79,10651.2,-200.451,-18.3063,-31.7734,-113.686,4608.86,-4839.93,8334.58,-29.818,-69.598,-26.9863,-2898.66,-10592.1,-1058.09,-39.1428,-48.3886,-117.971,10448.6,455.496,-915.948,-15.7854,-24.5472,5.11234,3220.82,-7968.66,-201.738,-9.71089,-51.9204,-44.4536
0.911,8859.94,3317.68,8732.32,19.1054,82.5787,31.8894,163.071,6857.4,805.003,-68.7347,-70.763,1.56738,-2137.11,10658.3,-184.577,-18.8386,-31.0855,-113.89,4634.17,-4873.81,8325.7,-29.5459,-70.7335,-26.8256,-2943.94,-10576.9,-1035.56,-38.9563,-48.2648,-117.334,10434.6,458.062,-924.929,-15.6134,-24.2624,4.92398,3258.29,-7931.91,-208.791,-10.4909,-52.5287,-43.7795
0.912,8820.68,3320.74,8638.25,19.681,83.8237,30.5447,34.6401,6827.75,622.871,-66.9546,-73.7062,-0.626199,-2151.47,10641.7,-174.725,-19.2968,-30.8793,-114.097,4614.2,-4952.06,8284.99,-28.8275,-71.911,-26.8059,-2948.72,-10579.9,-1040.86,-38.7492,-48.0998,-116.626,10395.6,485.63,-957.378,-15.3878,-23.9963,4.84072,3310.23,-7976.13,-174.705,-11.3161,-53.1979,-42.9713
0.913,8769.29,3319.05,8540.36,20.2436,84.9888,29.2124,-107.422,6810.94,403.687,-64.8511,-76.4125,-2.75697,-2158.96,10622.1,-165.625,-19.7457,-30.7333,-114.305,4588.56,-5035.86,8240.3,-28.0533,-73.0937,-26.8039,-2948.43,-10585.3,-1049.65,-38.5395,-47.9296,-115.909,10353.5,516.324,-992.76,-15.1555,-23.7325,4.7706,3363.99,-8030.48,-135.476,-12.1469,-53.8748,-42.1462
0.914,8717.9,3317.36,8442.46,20.8063,86.1539,27.8801,-249.485,6794.14,184.502,-62.7476,-79.1187,-4.88775,-2166.46,10602.6,-156.526,-20.1947,-30.5874,-114.512,4562.93,-5119.66,8195.62,-27.2791,-74.2765,-26.8019,-2948.15,-10590.6,-1058.44,-38.3299,-47.7595,-115.192,10311.4,547.018,-1028.14,-14.9231,-23.4688,4.70048,3417.74,-8084.82,-96.2471,-12.9777,-54.5517,-41.3212
0.915,8666.51,3315.67,8344.56,21.369,87.319,26.5478,-391.547,6777.33,-34.6822,-60.644,-81.825,-7.01852,-2173.95,10583.0,-147.427,-20.6436,-30.4414,-114.72,4537.29,-5203.46,8150.93,-26.5049,-75.4592,-26.7998,-2947.86,-10596.0,-1067.22,-38.1202,-47.5893,-114.475,10269.2,577.713,-1063.53,-14.6908,-23.205,4.63036,3471.49,-8139.17,-57.0182,-13.8085,-55.2285,-40.4961
0.916,8573.49,3358.4,8240.77,21.7104,88.1552,25.1344,-578.539,6795.21,-313.929,-57.9931,-83.3385,-8.70508,-2166.23,10564.3,-169.679,-20.9726,-30.3937,-114.949,4523.92,-5329.05,8100.89,-25.5794,-76.5998,-26.9768,-2928.68,-10607.9,-1079.57,-37.869,-47.3461,-113.766,10237.7,581.699,-1082.61,-14.4257,-22.949,4.51028,3509.21,-8162.82,-47.1826,-14.7711,-56.0437,-39.7093
0.917,8428.45,3456.64,8129.63,21.7753,88.5805,23.6198,-821.694,6856.44,-668.255,-54.6577,-83.3612,-9.83637,-2139.5,10546.6,-231.12,-21.1517,-30.469,-115.204,4525.87,-5506.88,8044.16,-24.4647,-77.6878,-27.3774,-2885.88,-10628.1,-1096.37,-37.5658,-47.0116,-113.065,10219.2,552.3,-1081.33,-14.1196,-22.7028,4.32777,3526.9,-8148.08,-74.0889,-15.8983,-57.0317,-38.9703
0.918,8283.4,3554.88,8018.5,21.8402,89.0058,22.1052,-1064.85,6917.66,-1022.58,-51.3224,-83.3838,-10.9677,-2112.76,10529.0,-292.561,-21.3308,-30.5443,-115.459,4527.82,-5684.71,7987.44,-23.3501,-78.7757,-27.778,-2843.07,-10648.3,-1113.17,-37.2626,-46.677,-112.364,10200.8,522.901,-1080.05,-13.8136,-22.4566,4.14526,3544.58,-8133.35,-100.995,-17.0256,-58.0196,-38.2313
0.919,8138.35,3653.12,7907.36,21.9051,89.4311,20.5906,-1308.0,6978.89,-1376.91,-47.9871,-83.4065,-12.099,-2086.03,10511.3,-354.002,-21.5099,-30.6196,-115.714,4529.77,-5862.54,7930.71,-22.2355,-79.8637,-28.1787,-2800.26,-10668.5,-1129.98,-36.9594,-46.3424,-111.663,10182.4,493.502,-1078.77,-13.5075,-22.2104,3.96274,3562.26,-8118.61,-127.901,-18.1529,-59.0076,-37.4923
0.92,7993.3,3751.37,7796.22,21.97,89.8564,19.076,-1551.16,7040.12,-1731.23,-44.6518,-83.4291,-13.2303,-2059.3,10493.6,-415.443,-21.689,-30.6948,-115.968,4531.72,-6040.37,7873.98,-21.1209,-80.9517,-28.5793,-2757.46,-10688.7,-1146.78,-36.6562,-46.0079,-110.962,10164.0,464.103,-1077.49,-13.2014,-21.9642,3.78023,3579.94,-8103.88,-154.808,-19.2801,-59.9956,-36.7533
0.921,7852.71,3795.09,7702.63,21.459,89.2649,18.0459,-1806.96,7168.65,-2063.29,-41.3611,-81.1139,-13.6163,-2028.31,10478.4,-566.005,-21.8163,-30.2868,-116.111,4538.13,-6152.59,7866.85,-20.0047,-82.0029,-29.277,-2683.73,-10715.8,-1175.65,-36.258,-45.3797,-110.296,10154.7,482.566,-1115.38,-12.7749,-21.5996,3.54407,3636.65,-8126.82,-177.839,-20.2151,-60.9001,-35.923
0.922,7712.12,3838.82,7609.05,20.948,88.6734,17.0157,-2062.75,7297.18,-2395.35,-38.0704,-78.7987,-14.0023,-1997.33,10463.1,-716.567,-21.9435,-29.8787,-116.253,4544.54,-6264.8,7859.73,-18.8884,-83.0542,-29.9746,-2610.0,-10743.0,-1204.53,-35.8599,-44.7516,-109.629,10145.4,501.028,-1153.27,-12.3484,-21.2351,3.30792,3693.35,-8149.77,-200.871,-21.1501,-61.8046,-35.0926
0.923,7571.53,3882.54,7515.47,20.4369,88.0819,15.9856,-2318.55,7425.72,-2727.41,-34.7797,-76.4835,-14.3884,-1966.34,10447.8,-867.128,-22.0707,-29.4707,-116.395,4550.95,-6377.02,7852.6,-17.7722,-84.1054,-30.6722,-2536.27,-10770.1,-1233.41,-35.4617,-44.1235,-108.963,10136.1,519.49,-1191.17,-11.9218,-20.8705,3.07177,3750.06,-8172.71,-223.902,-22.0851,-62.7091,-34.2623
0.924,7430.94,3926.27,7421.89,19.9259,87.4904,14.9554,-2574.35,7554.25,-3059.47,-31.489,-74.1682,-14.7744,-1935.36,10432.6,-1017.69,-22.1979,-29.0626,-116.537,4557.36,-6489.24,7845.47,-16.6559,-85.1567,-31.3698,-2462.54,-10797.3,-1262.29,-35.0635,-43.4954,-108.297,10126.8,537.952,-1229.06,-11.4953,-20.5059,2.83561,3806.77,-8195.66,-246.934,-23.0201,-63.6136,-33.432
0.925,7301.39,3961.71,7295.12,19.0124,86.7181,13.9008,-2818.09,7696.79,-3388.53,-28.5216,-70.7974,-14.9421,-1927.19,10423.8,-1187.35,-22.2078,-28.0831,-116.586,4595.72,-6564.95,7821.33,-15.4445,-86.2079,-32.2894,-2391.66,-10823.2,-1298.59,-34.6826,-42.6226,-107.585,10120.5,547.123,-1274.15,-10.9847,-20.1805,2.56325,3835.99,-8217.37,-263.909,-24.0511,-64.5472,-32.5243
0.926,7180.68,3990.53,7141.81,17.7769,85.8013,12.8267,-3052.17,7850.52,-3715.19,-25.8128,-66.582,-14.9353,-1937.28,10420.1,-1372.29,-22.1237,-26.6465,-116.559,4659.62,-6611.45,7783.57,-14.1568,-87.2592,-33.3866,-2323.06,-10848.1,-1340.82,-34.3156,-41.5539,-106.838,10116.6,548.859,-1325.01,-10.4068,-19.8862,2.26192,3843.23,-8238.11,-276.039,-25.1589,-65.5041,-31.5547
0.927,7059.97,4019.35,6988.49,16.5415,84.8845,11.7525,-3286.25,8004.26,-4041.85,-23.104,-62.3667,-14.9284,-1947.37,10416.5,-1557.23,-22.0396,-25.2099,-116.532,4723.53,-6657.95,7745.81,-12.8691,-88.3105,-34.4839,-2254.47,-10873.0,-1383.06,-33.9486,-40.4853,-106.091,10112.8,550.596,-1375.87,-9.8289,-19.592,1.96059,3850.47,-8258.85,-288.17,-26.2667,-66.4609,-30.5851
0.928,6939.26,4048.17,6835.18,15.306,83.9677,10.6784,-3520.33,8158.0,-4368.51,-20.3953,-58.1513,-14.9215,-1957.46,10412.8,-1742.18,-21.9555,-23.7732,-116.506,4787.44,-6704.45,7708.06,-11.5815,-89.3618,-35.5811,-2185.87,-10897.9,-1425.29,-33.5815,-39.4166,-105.344,10108.9,552.333,-1426.72,-9.251,-19.2978,1.65926,3857.72,-8279.59,-300.3,-27.3745,-67.4178,-29.6155
0.929,6829.47,4074.12,6681.01,14.0665,83.0238,9.61975,-3750.07,8311.86,-4694.48,-17.7931,-53.8472,-14.8895,-1978.82,10410.7,-1916.47,-21.8798,-22.3062,-116.469,4856.0,-6746.27,7664.94,-10.2374,-90.4143,-36.6746,-2120.76,-10918.2,-1466.39,-33.2147,-38.3298,-104.589,10106.9,550.505,-1480.77,-8.67062,-18.9959,1.36816,3873.27,-8300.07,-313.491,-28.487,-68.3282,-28.644
0.93,6807.02,4077.14,6519.95,12.7948,81.8628,8.68556,-3945.03,8466.73,-5014.98,-16.0437,-48.8329,-14.6565,-2090.34,10420.9,-2005.63,-21.8709,-20.5959,-116.347,4961.8,-6750.72,7578.94,-8.44248,-91.4758,-37.7383,-2083.57,-10900.9,-1498.39,-32.849,-37.0975,-103.776,10119.4,520.156,-1560.33,-8.07042,-18.6327,1.15891,3955.32,-8318.51,-335.159,-29.6375,-68.8675,-27.6573
0.931,6784.57,4080.17,6358.9,11.5232,80.7018,7.75136,-4140.0,8621.59,-5335.47,-14.2944,-43.8186,-14.4236,-2201.85,10431.1,-2094.78,-21.8619,-18.8857,-116.225,5067.6,-6755.16,7492.94,-6.64751,-92.5373,-38.802,-2046.39,-10883.6,-1530.4,-32.4833,-35.8652,-102.963,10132.0,489.807,-1639.89,-7.47022,-18.2696,0.949649,4037.37,-8336.94,-356.827,-30.7881,-69.4067,-26.6706
0.932,6762.12,4083.19,6197.84,10.2515,79.5408,6.81716,-4334.96,8776.45,-5655.96,-12.545,-38.8043,-14.1906,-2313.36,10441.3,-2183.93,-21.853,-17.1755,-116.103,5173.41,-6759.61,7406.94,-4.85255,-93.5988,-39.8657,-2009.2,-10866.3,-1562.4,-32.1176,-34.6329,-102.15,10144.5,459.458,-1719.45,-6.87002,-17.9064,0.740393,4119.43,-8355.38,-378.495,-31.9386,-69.946,-25.6838
0.933,6739.67,4086.21,6036.79,8.97988,78.3798,5.88297,-4529.92,8931.32,-5976.46,-10.7956,-33.79,-13.9576,-2424.88,10451.5,-2273.08,-21.8441,-15.4653,-115.981,5279.21,-6764.05,7320.94,-3.05759,-94.6603,-40.9294,-1972.02,-10849.0,-1594.41,-31.7519,-33.4006,-101.337,10157.0,429.109,-1799.01,-6.26983,-17.5433,0.531137,4201.48,-8373.82,-400.163,-33.0891,-70.4852,-24.6971
0.934,6773.1,4128.25,5905.82,7.53444,76.7366,5.25942,-4659.07,9038.41,-6210.53,-9.58312,-29.0793,-13.6435,-2538.08,10453.5,-2291.14,-22.0469,-14.3174,-115.932,5388.84,-6771.94,7243.58,-1.30226,-95.4218,-41.8635,-1952.33,-10821.6,-1643.48,-31.3731,-31.9617,-100.455,10159.8,395.01,-1867.28,-5.55222,-17.23,0.333535,4242.8,-8385.18,-414.847,-34.1324,-70.7351,-23.5941
0.935,6834.47,4189.81,5789.89,6.0021,74.8524,4.7912,-4755.31,9121.62,-6401.38,-8.63905,-24.5205,-13.2888,-2652.12,10451.3,-2273.66,-22.3555,-13.4508,-115.918,5500.38,-6781.56,7170.54,0.433272,-96.0333,-42.7326,-1941.39,-10789.0,-1701.09,-30.9876,-30.4194,-99.5382,10157.7,359.037,-1929.91,-4.77591,-16.9417,0.14176,4263.74,-8393.01,-426.039,-35.1222,-70.8402,-22.4329
0.936,6895.84,4251.36,5673.97,4.46976,72.9681,4.32297,-4851.55,9204.84,-6592.23,-7.69498,-19.9616,-12.9341,-2766.16,10449.1,-2256.18,-22.6641,-12.5841,-115.904,5611.92,-6791.17,7097.5,2.1688,-96.6449,-43.6018,-1930.45,-10756.5,-1758.69,-30.6021,-28.8771,-98.6212,10155.7,323.064,-1992.53,-3.99959,-16.6535,-0.0500144,4284.69,-8400.83,-437.232,-36.1119,-70.9453,-21.2717
0.937,6957.21,4312.92,5558.04,2.93742,71.0838,3.85475,-4947.79,9288.05,-6783.09,-6.75091,-15.4027,-12.5794,-2880.21,10446.9,-2238.7,-22.9727,-11.7175,-115.89,5723.46,-6800.78,7024.46,3.90433,-97.2564,-44.471,-1919.51,-10723.9,-1816.3,-30.2166,-27.3348,-97.7042,10153.6,287.091,-2055.16,-3.22328,-16.3652,-0.241789,4305.64,-8408.66,-448.424,-37.1016,-71.0505,-20.1105
0.938,7021.28,4361.17,5461.98,1.35771,69.0913,3.2857,-5043.79,9360.0,-6936.49,-5.93,-11.0882,-12.3064,-2973.8,10438.4,-2206.06,-23.2772,-11.0269,-115.844,5798.63,-6803.23,6968.26,5.51818,-97.747,-45.3076,-1918.13,-10690.4,-1874.83,-29.8212,-25.7335,-96.7016,10151.3,252.503,-2121.22,-2.40961,-16.0899,-0.431643,4342.28,-8418.81,-463.384,-38.1417,-71.083,-19.0068
0.939,7094.84,4362.86,5435.41,-0.387796,66.7196,2.36375,-5138.91,9392.56,-6958.8,-5.54018,-7.62879,-12.3191,-2995.82,10407.8,-2120.34,-23.5673,-10.9528,-115.683,5746.5,-6780.58,6971.01,6.70618,-97.8146,-46.0302,-1950.24,-10653.4,-1936.58,-29.3906,-23.9258,-95.3991,10148.3,222.764,-2199.28,-1.46518,-15.86,-0.614774,4433.84,-8437.14,-491.533,-39.3577,-70.8615,-18.1046
0.94,7168.39,4364.54,5408.84,-2.1333,64.348,1.44181,-5234.03,9425.12,-6981.12,-5.15036,-4.16943,-12.3317,-3017.84,10377.2,-2034.62,-23.8574,-10.8787,-115.523,5694.36,-6757.93,6973.76,7.89417,-97.8822,-46.7529,-1982.35,-10616.5,-1998.33,-28.9601,-22.118,-94.0966,10145.3,193.024,-2277.33,-0.520758,-15.6301,-0.797905,4525.39,-8455.46,-519.681,-40.5738,-70.64,-17.2024
0.941,7241.95,4366.23,5382.28,-3.8788,61.9763,0.519859,-5329.16,9457.67,-7003.43,-4.76054,-0.710066,-12.3444,-3039.86,10346.6,-1948.91,-24.1475,-10.8046,-115.363,5642.23,-6735.28,6976.51,9.08217,-97.9498,-47.4755,-2014.46,-10579.5,-2060.08,-28.5296,-20.3102,-92.7941,10142.4,163.285,-2355.39,0.423666,-15.4002,-0.981036,4616.95,-8473.79,-547.83,-41.7898,-70.4184,-16.3001
0.942,7315.5,4367.92,5355.71,-5.6243,59.6046,-0.402087,-5424.28,9490.23,-7025.75,-4.37072,2.7493,-12.3571,-3061.88,10316.0,-1863.19,-24.4376,-10.7304,-115.202,5590.1,-6712.63,6979.26,10.2702,-98.0174,-48.1982,-2046.57,-10542.5,-2121.83,-28.099,-18.5024,-91.4917,10139.4,133.546,-2433.45,1.36809,-15.1703,-1.16417,4708.51,-8492.11,-575.979,-43.0059,-70.1969,-15.3979
0.943,7377.33,4335.52,5238.9,-7.52934,57.2407,-1.19719,-5580.13,9498.91,-7057.16,-3.54076,5.67832,-12.5779,-3016.32,10249.2,-1800.23,-24.7196,-10.298,-114.524,5420.84,-6596.54,7002.05,10.9607,-98.0217,-48.7541,-2099.83,-10506.4,-2164.7,-27.7716,-16.8565,-90.246,10173.5,99.2726,-2516.64,2.31637,-14.8389,-1.34532,4773.24,-8506.28,-625.508,-44.0767,-69.6127,-14.8572
0.944,7435.82,4293.39,5096.3,-9.47996,54.879,-1.95604,-5753.33,9500.76,-7091.18,-2.58505,8.45582,-12.8582,-2951.44,10172.1,-1743.77,-24.9993,-9.76324,-113.697,5218.12,-6453.75,7030.57,11.509,-98.0079,-49.2623,-2159.14,-10470.5,-2202.18,-27.4735,-15.2568,-89.0166,10218.3,63.7042,-2601.29,3.26574,-14.4785,-1.52591,4830.31,-8519.26,-681.145,-45.1059,-68.9249,-14.4197
0.945,7494.31,4251.25,4953.7,-11.4306,52.5172,-2.7149,-5926.54,9502.62,-7125.19,-1.62934,11.2333,-13.1385,-2886.57,10094.9,-1687.3,-25.279,-9.22845,-112.87,5015.4,-6310.97,7059.09,12.0573,-97.9941,-49.7706,-2218.44,-10434.6,-2239.65,-27.1755,-13.657,-87.7872,10263.1,28.1358,-2685.95,4.21512,-14.1182,-1.7065,4887.38,-8532.24,-736.782,-46.1352,-68.2371,-13.9822
0.946,7552.79,4209.12,4811.1,-13.3812,50.1555,-3.47375,-6099.74,9504.47,-7159.21,-0.673629,14.0108,-13.4188,-2821.7,10017.8,-1630.84,-25.5587,-8.69367,-112.043,4812.68,-6168.19,7087.61,12.6057,-97.9803,-50.2788,-2277.75,-10398.7,-2277.13,-26.8775,-12.0573,-86.5579,10307.9,-7.43262,-2770.6,5.1645,-13.7578,-1.88709,4944.45,-8545.22,-792.419,-47.1644,-67.5493,-13.5448
0.947,7611.02,4177.88,4679.63,-15.3202,47.8235,-4.24211,-6274.75,9495.08,-7234.83,0.433755,16.6658,-13.8151,-2772.56,9947.78,-1581.86,-25.7821,-7.82024,-111.024,4643.28,-5999.22,7103.16,12.9666,-98.0461,-50.6497,-2352.47,-10356.8,-2312.47,-26.5994,-10.6063,-85.2838,10361.7,-55.4066,-2848.36,6.13952,-13.384,-2.06378,4995.55,-8565.73,-822.631,-48.0974,-66.6874,-13.1688
0.948,7668.72,4168.44,4570.42,-17.236,45.5512,-5.02948,-6453.37,9463.19,-7393.69,1.84448,19.0759,-14.4434,-2754.87,9892.09,-1547.84,-25.8932,-6.26952,-109.619,4540.53,-5777.88,7092.8,12.9526,-98.271,-50.746,-2458.01,-10303.1,-2343.54,-26.3611,-9.45288,-83.9204,10433.6,-128.192,-2912.32,7.16584,-12.9833,-2.2327,5034.73,-8601.33,-801.994,-48.8377,-65.4771,-12.9158
0.949,7726.42,4158.99,4461.2,-19.1517,43.2789,-5.81685,-6632.0,9431.29,-7552.54,3.25521,21.4859,-15.0717,-2737.18,9836.4,-1513.83,-26.0042,-4.7188,-108.214,4437.78,-5556.55,7082.43,12.9386,-98.4959,-50.8423,-2563.55,-10249.3,-2374.61,-26.1228,-8.29941,-82.5571,10505.6,-200.977,-2976.28,8.19216,-12.5827,-2.40161,5073.91,-8636.92,-781.356,-49.578,-64.2669,-12.6629
0.95,7784.13,4149.54,4351.99,-21.0675,41.0066,-6.60421,-6810.62,9399.4,-7711.39,4.66593,23.896,-15.7,-2719.49,9780.71,-1479.81,-26.1152,-3.16808,-106.808,4335.03,-5335.21,7072.06,12.9246,-98.7208,-50.9386,-2669.09,-10195.6,-2405.69,-25.8844,-7.14595,-81.1937,10577.5,-273.762,-3040.24,9.21848,-12.1821,-2.57053,5113.09,-8672.52,-760.719,-50.3183,-63.0566,-12.4099
0.951,7841.83,4140.1,4242.78,-22.9832,38.7343,-7.39158,-6989.24,9367.51,-7870.24,6.07666,26.306,-16.3283,-2701.8,9725.02,-1445.8,-26.2263,-1.61736,-105.403,4232.28,-5113.87,7061.69,12.9106,-98.9457,-51.0349,-2774.63,-10141.8,-2436.76,-25.6461,-5.99248,-79.8303,10649.4,-346.547,-3104.2,10.2448,-11.7814,-2.73945,5152.27,-8708.11,-740.081,-51.0586,-61.8464,-12.1569
0.952,7998.61,4115.52,4189.88,-24.8754,36.6049,-7.88995,-7138.04,9310.69,-8021.68,7.8691,28.602,-17.4661,-2830.34,9663.33,-1356.45,-26.4871,0.111115,-103.952,4344.3,-4910.24,7047.03,13.0387,-99.2747,-50.6197,-2912.37,-10061.5,-2459.96,-25.4036,-5.10538,-78.1633,10726.7,-392.351,-3161.3,11.2429,-11.3052,-2.69601,5153.67,-8719.4,-720.006,-51.6171,-60.5938,-12.326
0.953,8167.77,4089.06,4144.02,-26.7646,34.4935,-8.3522,-7283.11,9250.75,-8172.19,9.70926,30.8838,-18.6675,-2977.16,9600.88,-1260.18,-26.7667,1.86181,-102.494,4483.17,-4708.82,7031.83,13.1847,-99.6168,-50.1406,-3054.13,-9977.76,-2482.18,-25.1605,-4.25158,-76.4584,10804.7,-434.782,-3217.54,12.2374,-10.8195,-2.62602,5150.36,-8727.64,-700.001,-52.1529,-59.336,-12.5478
0.954,8336.94,4062.59,4098.15,-28.6538,32.382,-8.81445,-7428.19,9190.82,-8322.7,11.5494,33.1656,-19.869,-3123.98,9538.44,-1163.91,-27.0463,3.6125,-101.037,4622.03,-4507.41,7016.62,13.3306,-99.9589,-49.6615,-3195.89,-9894.07,-2504.4,-24.9174,-3.39778,-74.7535,10882.7,-477.213,-3273.78,13.2319,-10.3338,-2.55604,5147.04,-8735.89,-679.995,-52.6887,-58.0781,-12.7696
0.955,8506.1,4036.12,4052.29,-30.543,30.2705,-9.2767,-7573.26,9130.88,-8473.21,13.3896,35.4473,-21.0705,-3270.8,9475.99,-1067.65,-27.3259,5.36319,-99.5797,4760.89,-4305.99,7001.42,13.4766,-100.301,-49.1823,-3337.65,-9810.38,-2526.62,-24.6744,-2.54398,-73.0486,10960.7,-519.643,-3330.02,14.2264,-9.84814,-2.48605,5143.73,-8744.13,-659.99,-53.2245,-56.8203,-12.9915
0.956,8663.52,4002.53,4005.58,-32.2552,28.3658,-9.64122,-7666.0,9078.66,-8592.03,15.2837,37.4571,-22.445,-3442.4,9432.04,-961.784,-27.636,6.79118,-98.2319,4938.82,-4162.27,6987.93,13.6359,-100.577,-48.533,-3475.13,-9725.05,-2542.62,-24.4523,-1.77604,-71.2887,11050.2,-555.439,-3372.58,15.068,-9.37204,-2.40311,5132.58,-8748.99,-634.081,-53.5211,-55.599,-13.3157
0.957,8806.27,3960.03,3957.8,-33.7462,26.7196,-9.88357,-7693.33,9036.08,-8671.24,17.2453,39.127,-24.0359,-3644.97,9411.19,-843.926,-27.9841,7.81579,-97.0212,5165.57,-4090.67,6976.56,13.8118,-100.769,-47.6709,-3607.26,-9637.67,-2550.85,-24.2565,-1.11542,-69.46,11154.1,-582.94,-3398.06,15.7184,-8.90794,-2.30398,5111.66,-8749.6,-600.791,-53.5188,-54.4233,-13.768
0.958,8949.01,3917.53,3910.03,-35.2371,25.0734,-10.1259,-7720.67,8993.5,-8750.44,19.2069,40.7968,-25.6268,-3847.55,9390.35,-726.067,-28.3323,8.8404,-95.8104,5392.31,-4019.07,6965.2,13.9878,-100.962,-46.8087,-3739.38,-9550.29,-2559.08,-24.0607,-0.454806,-67.6314,11258.0,-610.441,-3423.53,16.3688,-8.44384,-2.20484,5090.73,-8750.22,-567.501,-53.5165,-53.2476,-14.2203
0.959,9091.76,3875.02,3862.25,-36.7281,23.4272,-10.3683,-7748.0,8950.93,-8829.64,21.1685,42.4666,-27.2178,-4050.12,9369.5,-608.208,-28.6804,9.86501,-94.5997,5619.06,-3947.47,6953.84,14.1637,-101.155,-45.9466,-3871.51,-9462.92,-2567.31,-23.8649,0.205811,-65.8028,11361.9,-637.942,-3449.0,17.0192,-7.97974,-2.10571,5069.8,-8750.84,-534.21,-53.5142,-52.0719,-14.6725
0.96,9234.5,3832.52,3814.48,-38.2191,21.781,-10.6106,-7775.33,8908.35,-8908.84,23.1301,44.1364,-28.8087,-4252.7,9348.66,-490.349,-29.0286,10.8896,-93.3889,5845.81,-3875.87,6942.48,14.3397,-101.347,-45.0845,-4003.64,-9375.54,-2575.55,-23.6691,0.866428,-63.9741,11465.8,-665.443,-3474.47,17.6696,-7.51564,-2.00657,5048.87,-8751.46,-500.92,-53.512,-50.8963,-15.1248
0.961,9433.09,3848.12,3763.58,-38.6136,21.0815,-10.3877,-7703.65,8857.51,-8891.05,24.6887,44.6939,-30.8757,-4373.74,9338.29,-327.0,-29.3718,10.8454,-92.2022,5910.95,-3851.4,6961.33,14.2494,-101.432,-44.3346,-4146.55,-9294.62,-2620.35,-23.6019,1.63878,-61.9455,11533.7,-690.651,-3512.35,18.1332,-6.85054,-1.67833,5022.92,-8745.92,-371.25,-53.0532,-49.8043,-15.865
0.962,9631.68,3863.72,3712.68,-39.0082,20.382,-10.1648,-7631.96,8806.67,-8873.26,26.2472,45.2513,-32.9427,-4494.78,9327.93,-163.651,-29.7149,10.8011,-91.0156,5976.09,-3826.92,6980.17,14.1592,-101.516,-43.5847,-4289.46,-9213.69,-2665.15,-23.5348,2.41113,-59.9169,11601.5,-715.859,-3550.24,18.5968,-6.18544,-1.3501,4996.98,-8740.38,-241.579,-52.5944,-48.7123,-16.6051
0.963,9830.26,3879.32,3661.78,-39.4027,19.6825,-9.94189,-7560.28,8755.83,-8855.47,27.8058,45.8087,-35.0098,-4615.83,9317.56,-0.301358,-30.0581,10.7569,-89.8289,6041.23,-3802.45,6999.02,14.0689,-101.6,-42.8348,-4432.37,-9132.77,-2709.95,-23.4677,3.18348,-57.8883,11669.4,-741.067,-3588.12,19.0604,-5.52034,-1.02186,4971.03,-8734.85,-111.909,-52.1356,-47.6204,-17.3453
0.964,10028.9,3894.91,3610.88,-39.7973,18.983,-9.71897,-7488.6,8704.99,-8837.68,29.3643,46.3661,-37.0768,-4736.87,9307.2,163.048,-30.4013,10.7127,-88.6422,6106.37,-3777.97,7017.87,13.9786,-101.684,-42.085,-4575.28,-9051.85,-2754.75,-23.4005,3.95583,-55.8597,11737.2,-766.276,-3626.01,19.524,-4.85524,-0.693618,4945.08,-8729.31,17.7618,-51.6768,-46.5284,-18.0855
0.965,10205.4,3856.79,3571.19,-39.6348,18.6787,-9.44843,-7385.94,8663.23,-8753.37,30.6095,46.3062,-39.4415,-4803.69,9293.76,287.542,-30.744,10.5167,-87.3559,6088.82,-3754.51,7042.73,13.9136,-101.909,-41.3259,-4747.88,-8982.17,-2810.6,-23.2974,4.74247,-53.7689,11806.7,-740.922,-3641.09,19.9017,-4.17377,-0.306015,4906.99,-8723.79,172.072,-50.8004,-45.6439,-18.8467
0.966,10364.2,3775.67,3540.48,-39.0267,18.6904,-9.13979,-7258.5,8628.74,-8615.85,31.604,45.7525,-42.0444,-4827.12,9277.87,380.951,-31.0863,10.1994,-85.9901,6005.13,-3731.85,7072.42,13.8686,-102.247,-40.5596,-4944.23,-8921.5,-2875.3,-23.1655,5.54053,-51.6282,11877.6,-675.118,-3637.91,20.2107,-3.4792,0.12908,4859.17,-8718.27,346.093,-49.5899,-44.9252,-19.6248
0.967,10523.1,3694.56,3509.76,-38.4185,18.7022,-8.83114,-7131.05,8594.25,-8478.32,32.5984,45.1988,-44.6472,-4850.56,9261.97,474.361,-31.4286,9.88207,-84.6242,5921.43,-3709.19,7102.1,13.8237,-102.584,-39.7932,-5140.58,-8860.82,-2939.99,-23.0336,6.33859,-49.4875,11948.4,-609.315,-3634.74,20.5197,-2.78463,0.564174,4811.35,-8712.76,520.115,-48.3794,-44.2065,-20.4029
0.968,10682.0,3613.45,3479.05,-37.8104,18.7139,-8.5225,-7003.61,8559.75,-8340.8,33.5929,44.645,-47.25,-4873.99,9246.08,567.77,-31.7709,9.56475,-83.2583,5837.74,-3686.52,7131.79,13.7788,-102.922,-39.0269,-5336.93,-8800.15,-3004.69,-22.9017,7.13666,-47.3468,12019.2,-543.511,-3631.57,20.8287,-2.09006,0.999269,4763.53,-8707.24,694.136,-47.1689,-43.4879,-21.181
0.969,10838.8,3525.35,3452.03,-37.1884,18.7393,-8.24748,-6873.26,8528.59,-8193.1,34.4914,44.0169,-49.8723,-4890.88,9230.72,650.628,-32.1165,9.26149,-81.8927,5751.96,-3662.67,7158.99,13.7008,-103.293,-38.2509,-5529.75,-8742.76,-3063.02,-22.7713,7.90536,-45.1926,12087.8,-481.099,-3630.94,21.1219,-1.3622,1.43819,4715.78,-8702.5,863.058,-45.9839,-42.792,-21.9419
0.97,10979.6,3381.41,3454.54,-36.4554,18.8734,-8.24142,-6719.63,8524.07,-7964.02,34.6223,42.7939,-52.6504,-4855.33,9219.58,649.072,-32.4888,9.07077,-80.529,5649.54,-3629.22,7166.35,13.3579,-103.932,-37.3977,-5694.36,-8711.66,-3070.43,-22.6527,8.43915,-42.9311,12138.2,-445.82,-3650.63,21.2888,-0.368074,1.90767,4668.61,-8703.9,991.182,-45.0037,-42.2789,-22.5652
0.971,11120.4,3237.47,3457.05,-35.7224,19.0075,-8.23536,-6565.99,8519.55,-7734.95,34.7533,41.5709,-55.4284,-4819.78,9208.44,647.516,-32.8612,8.88005,-79.1654,5547.12,-3595.77,7173.71,13.015,-104.572,-36.5445,-5858.98,-8680.56,-3077.83,-22.5341,8.97295,-40.6696,12188.6,-410.54,-3670.31,21.4557,0.626055,2.37716,4621.44,-8705.3,1119.31,-44.0235,-41.7658,-23.1885
0.972,11261.2,3093.52,3459.56,-34.9894,19.1416,-8.2293,-6412.35,8515.02,-7505.88,34.8842,40.3478,-58.2064,-4784.23,9197.31,645.961,-33.2335,8.68933,-77.8017,5444.71,-3562.32,7181.07,12.6721,-105.211,-35.6914,-6023.59,-8649.46,-3085.24,-22.4156,9.50675,-38.4081,12239.0,-375.26,-3689.99,21.6226,1.62018,2.84665,4574.27,-8706.7,1247.43,-43.0433,-41.2526,-23.8118
0.973,11402.0,2949.58,3462.07,-34.2565,19.2757,-8.22325,-6258.72,8510.5,-7276.8,35.0151,39.1248,-60.9844,-4748.68,9186.17,644.405,-33.6058,8.49861,-76.4381,5342.29,-3528.87,7188.43,12.3293,-105.851,-34.8382,-6188.2,-8618.36,-3092.65,-22.297,10.0405,-36.1465,12289.4,-339.981,-3709.68,21.7895,2.61431,3.31614,4527.1,-8708.1,1375.55,-42.0631,-40.7395,-24.4351
0.974,11502.0,2801.74,3452.07,-33.2573,19.5755,-8.08986,-6124.27,8523.7,-7067.69,34.7428,37.8718,-63.6262,-4718.56,9201.71,597.968,-33.963,8.34627,-75.0481,5312.98,-3547.92,7224.53,12.0908,-106.6,-33.9627,-6329.8,-8575.83,-3051.12,-22.3135,10.0323,-33.8723,12364.0,-303.904,-3735.47,21.8796,3.58885,3.89708,4480.31,-8692.67,1492.88,-41.0801,-40.4816,-24.8629
0.975,11581.7,2651.96,3435.82,-32.125,19.9581,-7.89281,-5999.41,8545.77,-6868.55,34.2689,36.6039,-66.1999,-4691.15,9230.59,529.091,-34.3127,8.21311,-73.6448,5320.23,-3593.21,7275.0,11.9045,-107.404,-33.0759,-6459.88,-8527.58,-2985.13,-22.3977,9.75304,-31.5917,12450.6,-267.428,-3764.31,21.9313,4.5536,4.53375,4433.73,-8668.84,1604.82,-40.0956,-40.3513,-25.1929
0.976,11661.3,2502.18,3419.57,-30.9927,20.3407,-7.69576,-5874.56,8567.83,-6669.41,33.795,35.3359,-68.7736,-4663.74,9259.47,460.214,-34.6624,8.07996,-72.2416,5327.48,-3638.5,7325.48,11.7182,-108.208,-32.1892,-6589.96,-8479.33,-2919.14,-22.4818,9.47377,-29.3111,12537.3,-230.952,-3793.16,21.9829,5.51834,5.17043,4387.14,-8645.01,1716.75,-39.1112,-40.221,-25.5228
0.977,11741.0,2352.4,3403.32,-29.8605,20.7233,-7.4987,-5749.7,8589.89,-6470.27,33.3211,34.068,-71.3473,-4636.33,9288.35,391.337,-35.0121,7.9468,-70.8384,5334.73,-3683.79,7375.95,11.5319,-109.012,-31.3025,-6720.04,-8431.09,-2853.14,-22.5659,9.1945,-27.0304,12624.0,-194.477,-3822.0,22.0346,6.48309,5.8071,4340.55,-8621.17,1828.68,-38.1267,-40.0907,-25.8528
0.978,11790.5,2203.88,3381.54,-28.6094,21.0504,-7.1815,-5634.62,8617.97,-6283.31,32.8397,32.8833,-73.8372,-4624.36,9321.62,326.248,-35.3872,7.7352,-69.4979,5350.35,-3744.91,7412.12,11.3292,-109.788,-30.4968,-6841.89,-8382.59,-2793.01,-22.7048,8.77993,-24.7572,12692.7,-138.666,-3837.58,22.0527,7.39523,6.38478,4301.3,-8598.19,1932.36,-37.2736,-40.0076,-26.0928
0.979,11734.4,2059.78,3340.4,-26.9424,21.1836,-6.44379,-5553.72,8667.09,-6138.95,32.332,31.9899,-76.0336,-4666.42,9370.27,274.417,-35.8512,7.24904,-68.3774,5395.25,-3861.46,7398.24,11.0691,-110.465,-29.9744,-6934.96,-8333.2,-2753.39,-23.0353,7.89179,-22.5099,12698.8,-15.1834,-3806.72,21.9535,8.12324,6.75595,4287.73,-8578.2,2007.17,-36.8802,-40.0894,-26.0178
0.98,11678.2,1915.67,3299.26,-25.2755,21.3168,-5.70608,-5472.83,8716.21,-5994.6,31.8243,31.0965,-78.23,-4708.49,9418.92,222.587,-36.3151,6.76288,-67.2568,5440.16,-3978.0,7384.36,10.8089,-111.142,-29.452,-7028.02,-8283.81,-2713.77,-23.3659,7.00365,-20.2625,12704.8,108.299,-3775.86,21.8543,8.85124,7.12713,4274.16,-8558.21,2081.97,-36.4867,-40.1712,-25.9427
0.981,11622.1,1771.57,3258.12,-23.6086,21.45,-4.96837,-5391.94,8765.33,-5850.25,31.3166,30.2031,-80.4265,-4750.55,9467.57,170.757,-36.779,6.27672,-66.1363,5485.06,-4094.54,7370.48,10.5488,-111.82,-28.9296,-7121.08,-8234.42,-2674.15,-23.6964,6.11551,-18.0151,12710.9,231.782,-3745.0,21.7552,9.57925,7.4983,4260.59,-8538.22,2156.77,-36.0933,-40.2531,-25.8677
0.982,11565.9,1627.46,3216.99,-21.9417,21.5832,-4.23066,-5311.05,8814.45,-5705.9,30.809,29.3097,-82.6229,-4792.62,9516.22,118.927,-37.243,5.79056,-65.0157,5529.96,-4211.08,7356.6,10.2887,-112.497,-28.4072,-7214.15,-8185.03,-2634.53,-24.027,5.22736,-15.7678,12717.0,355.264,-3714.14,21.656,10.3073,7.86948,4247.02,-8518.22,2231.58,-35.6998,-40.3349,-25.7927
0.983,11462.7,1490.22,3172.06,-19.8685,21.495,-3.01904,-5249.28,8878.89,-5574.85,30.6271,28.7703,-84.3213,-4766.96,9561.07,128.139,-37.627,4.83122,-64.1391,5541.79,-4302.93,7356.19,9.77309,-113.097,-28.3042,-7257.0,-8161.43,-2597.24,-24.3084,3.94188,-13.5816,12768.9,465.452,-3714.13,21.6282,10.9999,8.2725,4265.8,-8512.16,2244.29,-35.6715,-40.647,-25.3593
0.984,11345.9,1354.94,3126.05,-17.6791,21.3435,-1.67203,-5192.98,8947.71,-5447.61,30.5383,28.3321,-85.8773,-4721.96,9604.84,154.792,-37.9883,3.73669,-63.3322,5544.17,-4387.72,7359.63,9.18452,-113.676,-28.3211,-7285.51,-8145.19,-2560.62,-24.5757,2.54286,-11.413,12834.0,571.842,-3722.93,21.6208,11.6824,8.68463,4293.82,-8510.08,2239.28,-35.7474,-41.0249,-24.8237
0.985,11229.2,1219.67,3080.05,-15.4898,21.192,-0.325017,-5136.69,9016.54,-5320.37,30.4495,27.8939,-87.4333,-4676.95,9648.6,181.444,-38.3495,2.64215,-62.5254,5546.55,-4472.51,7363.07,8.59596,-114.255,-28.338,-7314.02,-8128.95,-2524.0,-24.843,1.14385,-9.24429,12899.0,678.231,-3731.73,21.6134,12.3649,9.09675,4321.83,-8507.99,2234.26,-35.8233,-41.4028,-24.288
0.986,11112.4,1084.39,3034.04,-13.3005,21.0404,1.022,-5080.39,9085.35,-5193.13,30.3607,27.4557,-88.9894,-4631.95,9692.37,208.097,-38.7108,1.54762,-61.7185,5548.93,-4557.3,7366.51,8.00739,-114.834,-28.3549,-7342.53,-8112.71,-2487.38,-25.1103,-0.255164,-7.07563,12964.1,784.621,-3740.53,21.606,13.0475,9.50887,4349.85,-8505.91,2229.24,-35.8993,-41.7807,-23.7524
0.987,10996.4,946.892,2990.08,-11.1914,20.7338,2.58905,-5028.64,9169.6,-5074.65,30.4377,27.1395,-90.3347,-4598.27,9746.21,201.912,-39.1572,0.410181,-60.9696,5539.96,-4612.56,7386.85,7.41115,-115.487,-28.4183,-7368.49,-8101.53,-2446.79,-25.3657,-1.79965,-4.96915,13019.7,883.561,-3728.07,21.5048,13.7206,9.88314,4377.99,-8498.69,2203.83,-36.2624,-42.1912,-23.1135
0.988,10881.7,804.963,2950.23,-9.24277,20.1169,4.5962,-4985.99,9284.7,-4973.7,30.8461,27.0671,-91.2588,-4587.23,9820.19,130.053,-39.774,-0.813065,-60.3367,5508.27,-4608.74,7440.98,6.79957,-116.289,-28.5745,-7389.35,-8100.47,-2398.25,-25.5969,-3.63508,-2.98705,13056.5,967.605,-3673.09,21.216,14.3751,10.1817,4406.38,-8481.2,2137.65,-37.1999,-42.6667,-22.2684
0.989,10767.0,663.034,2910.37,-7.2941,19.5001,6.60334,-4943.35,9399.8,-4872.75,31.2546,26.9948,-92.1828,-4576.19,9894.17,58.1939,-40.3907,-2.03631,-59.7037,5476.59,-4604.93,7495.1,6.188,-117.09,-28.7308,-7410.21,-8099.42,-2349.72,-25.8282,-5.47051,-1.00494,13093.3,1051.65,-3618.12,20.9271,15.0295,10.4803,4434.77,-8463.7,2071.46,-38.1374,-43.1422,-21.4232
0.99,10652.4,521.104,2870.52,-5.34543,18.8832,8.61048,-4900.7,9514.9,-4771.81,31.663,26.9224,-93.1068,-4565.16,9968.16,-13.6653,-41.0075,-3.25956,-59.0708,5444.91,-4601.11,7549.23,5.57642,-117.892,-28.8871,-7431.07,-8098.36,-2301.19,-26.0594,-7.30595,0.977161,13130.1,1135.69,-3563.14,20.6383,15.6839,10.7789,4463.15,-8446.21,2005.28,-39.0749,-43.6178,-20.5781
0.991,10537.7,379.175,2830.66,-3.39676,18.2663,10.6176,-4858.05,9630.0,-4670.86,32.0715,26.8501,-94.0309,-4554.12,10042.1,-85.5245,-41.6242,-4.4828,-58.4379,5413.22,-4597.29,7603.36,4.96484,-118.694,-29.0434,-7451.93,-8097.31,-2252.65,-26.2907,-9.14138,2.95927,13166.9,1219.74,-3508.16,20.3494,16.3383,11.0775,4491.54,-8428.71,1939.1,-40.0123,-44.0933,-19.7329
0.992,10412.8,309.413,2784.53,-1.71971,17.2969,12.9655,-4815.39,9756.22,-4595.14,32.4256,27.0604,-94.5293,-4537.57,10146.6,-109.819,-42.176,-5.74968,-58.1079,5402.03,-4600.01,7632.32,4.48174,-119.726,-29.1695,-7465.48,-8098.51,-2211.08,-26.5126,-10.9456,4.75971,13171.4,1346.29,-3455.29,19.9039,17.0505,11.2164,4536.22,-8394.46,1849.69,-41.6048,-44.5591,-18.4027
0.993,10286.7,248.672,2737.61,-0.0766135,16.2835,15.3561,-4772.74,9883.83,-4522.56,32.7728,27.3061,-94.9745,-4520.33,10254.8,-128.168,-42.7196,-7.02201,-57.8158,5393.4,-4603.54,7658.15,4.01471,-120.786,-29.2918,-7478.1,-8100.0,-2170.37,-26.7334,-12.7459,6.53744,13171.9,1478.16,-3402.68,19.4388,17.7698,11.3353,4582.95,-8358.11,1757.38,-43.279,-45.0238,-17.0118
0.994,10160.5,187.931,2690.69,1.56649,15.2701,17.7466,-4730.08,10011.4,-4449.99,33.1201,27.5519,-95.4197,-4503.09,10363.0,-146.517,-43.2632,-8.29435,-57.5238,5384.76,-4607.08,7683.97,3.54767,-121.847,-29.4141,-7490.73,-8101.49,-2129.67,-26.9541,-14.5462,8.31518,13172.3,1610.02,-3350.08,18.9737,18.4892,11.4542,4629.67,-8321.76,1665.07,-44.9533,-45.4884,-15.6209
0.995,10034.4,127.19,2643.77,3.20958,14.2566,20.1371,-4687.42,10139.0,-4377.42,33.4673,27.7976,-95.8649,-4485.85,10471.2,-164.866,-43.8068,-9.56668,-57.2317,5376.13,-4610.61,7709.8,3.08064,-122.908,-29.5364,-7503.36,-8102.97,-2088.96,-27.1749,-16.3465,10.0929,13172.8,1741.89,-3297.47,18.5086,19.2085,11.5732,4676.4,-8285.41,1572.76,-46.6276,-45.9531,-14.23
0.996,9946.44,80.4981,2610.08,4.74128,13.1813,22.6884,-4636.79,10260.3,-4296.46,33.639,28.0603,-96.0745,-4460.8,10593.2,-168.235,-44.2774,-10.8575,-57.021,5377.83,-4623.6,7729.83,2.65126,-124.003,-29.6826,-7518.81,-8109.45,-2040.9,-27.2918,-18.1584,11.8392,13189.5,1844.72,-3246.86,17.9027,20.0069,11.7305,4733.14,-8236.83,1447.86,-48.4307,-46.5382,-12.6479
0.997,9906.3,51.3687,2592.93,6.13371,12.0284,25.4406,-4576.21,10373.7,-4205.02,33.5912,28.3443,-95.9897,-4425.97,10732.3,-152.878,-44.6568,-12.1714,-56.912,5392.45,-4648.4,7742.64,2.26894,-125.142,-29.8585,-7537.79,-8122.16,-1983.65,-27.2788,-19.9848,13.5462,13226.4,1911.24,-3198.76,17.121,20.9043,11.9358,4802.4,-8172.99,1282.22,-50.3948,-47.274,-10.8269
0.998,9866.17,22.2393,2575.77,7.52614,10.8756,28.1929,-4515.62,10487.0,-4113.58,33.5434,28.6283,-95.9049,-4391.15,10871.4,-137.522,-45.0361,-13.4853,-56.8031,5407.07,-4673.2,7755.44,1.88663,-126.281,-30.0344,-7556.77,-8134.87,-1926.39,-27.2659,-21.8111,15.2532,13263.3,1977.76,-3150.65,16.3392,21.8016,12.1411,4871.66,-8109.14,1116.58,-52.3589,-48.0097,-9.00592
0.999,9826.04,-6.89005,2558.62,8.91857,9.72274,30.9451,-4455.03,10600.4,-4022.14,33.4955,28.9122,-95.8201,-4356.33,11010.5,-122.165,-45.4155,-14.7992,-56.6941,5421.69,-4698.0,7768.24,1.50432,-127.421,-30.2103,-7575.75,-8147.58,-1869.14,-27.253,-23.6375,16.9602,13300.2,2044.29,-3102.54,15.5574,22.6989,12.3464,4940.92,-8045.3,950.945,-54.323,-48.7455,-7.18492
1.0,9785.91,-36.0194,2541.46,10.311,8.56991,33.6974,-4394.45,10713.8,-3930.7,33.4477,29.1962,-95.7353,-4321.5,11149.6,-106.809,-45.7949,-16.1132,-56.5852,5436.3,-4722.8,7781.04,1.122,-128.56,-30.3862,-7594.73,-8160.29,-1811.88,-27.24,-25.4638,18.6672,13337.1,2110.81,-3054.44,14.7756,23.5962,12.5518,5010.19,-7981.45,785.306,-56.2871,-49.4812,-5.36392
1.001,9798.42,-113.571,2520.25,11.2957,7.2419,36.4677,-4292.34,10789.6,-3802.42,33.2381,29.2867,-95.5247,-4236.64,11221.6,-125.43,-45.7727,-17.4987,-56.7954,5419.23,-4793.85,7792.02,0.579549,-129.572,-30.9064,-7612.1,-8227.17,-1722.01,-26.8187,-27.5268,20.3215,13346.4,2179.4,-3007.54,13.9565,24.5401,12.3925,5048.53,-7941.58,648.412,-58.3326,-50.164,-3.32625
1.002,9810.94,-191.122,2499.04,12.2805,5.91388,39.2381,-4190.23,10865.3,-3674.15,33.0285,29.3771,-95.3142,-4151.78,11293.5,-144.051,-45.7505,-18.8842,-57.0055,5402.16,-4864.9,7802.99,0.0370943,-130.584,-31.4266,-7629.47,-8294.05,-1632.13,-26.3975,-29.5897,21.9757,13355.7,2248.0,-2960.64,13.1374,25.4839,12.2332,5086.87,-7901.71,511.519,-60.3781,-50.8468,-1.28858
1.003,9823.46,-268.674,2477.83,13.2652,4.58586,42.0085,-4088.13,10941.1,-3545.88,32.8189,29.4676,-95.1036,-4066.93,11365.4,-162.671,-45.7283,-20.2698,-57.2157,5385.09,-4935.95,7813.96,-0.50536,-131.596,-31.9468,-7646.84,-8360.93,-1542.26,-25.9762,-31.6527,23.6299,13365.0,2316.59,-2913.74,12.3183,26.4278,12.0739,5125.21,-7861.83,374.626,-62.4236,-51.5296,0.749086
1.004,9835.97,-346.225,2456.61,14.2499,3.25785,44.7788,-3986.02,11016.9,-3417.6,32.6093,29.558,-94.8931,-3982.07,11437.3,-181.292,-45.7061,-21.6553,-57.4259,5368.02,-5007.0,7824.94,-1.04781,-132.608,-32.467,-7664.21,-8427.81,-1452.38,-25.5549,-33.7157,25.2842,13374.4,2385.19,-2866.84,11.4991,27.3717,11.9147,5163.55,-7821.96,237.733,-64.469,-52.2124,2.78676
1.005,9863.09,-438.655,2459.97,15.2237,1.90839,47.428,-3850.11,11078.0,-3264.95,32.4601,29.3779,-94.5285,-3864.31,11519.9,-216.392,-45.7372,-22.7749,-57.4238,5337.9,-5079.64,7837.41,-1.60969,-133.774,-33.0179,-7691.76,-8473.04,-1344.93,-25.0436,-35.8028,26.8342,13344.3,2443.01,-2855.89,10.3897,28.109,11.7897,5195.08,-7798.59,96.3889,-66.4033,-52.5647,4.79461
1.006,9901.88,-542.989,2482.97,16.1887,0.541782,49.9801,-3687.17,11127.2,-3092.79,32.3591,28.9813,-94.0407,-3720.24,11611.0,-264.675,-45.8108,-23.6818,-57.2519,5297.35,-5153.57,7851.1,-2.18711,-135.065,-33.5933,-7727.45,-8500.93,-1223.41,-24.4604,-37.9093,28.3008,13282.9,2492.21,-2873.71,9.04795,28.6811,11.6922,5221.17,-7788.43,-48.5154,-68.2485,-52.6527,6.77862
1.007,9940.67,-647.323,2505.98,17.1536,-0.824829,52.5323,-3524.23,11176.5,-2920.64,32.258,28.5847,-93.5528,-3576.17,11702.1,-312.957,-45.8845,-24.5886,-57.0801,5256.8,-5227.49,7864.78,-2.76452,-136.356,-34.1687,-7763.15,-8528.83,-1101.89,-23.8772,-40.0158,29.7674,13221.4,2541.41,-2891.52,7.70622,29.2531,11.5947,5247.26,-7778.26,-193.42,-70.0938,-52.7406,8.76263
1.008,9979.46,-751.656,2528.98,18.1186,-2.19144,55.0844,-3361.28,11225.8,-2748.48,32.157,28.1881,-93.065,-3432.09,11793.2,-361.24,-45.9581,-25.4955,-56.9082,5216.24,-5301.42,7878.47,-3.34193,-137.646,-34.7441,-7798.85,-8556.72,-980.377,-23.294,-42.1222,31.234,13159.9,2590.61,-2909.33,6.36448,29.8252,11.4972,5273.34,-7768.09,-338.324,-71.939,-52.8285,10.7466
1.009,10027.8,-857.039,2550.94,19.0563,-3.52869,57.5999,-3196.27,11274.4,-2578.16,32.0605,27.721,-92.5588,-3288.56,11878.5,-410.78,-46.0113,-26.352,-56.7567,5174.01,-5365.89,7890.69,-3.89311,-138.954,-35.3169,-7845.05,-8587.16,-859.263,-22.6896,-44.2203,32.7085,13101.5,2639.13,-2921.47,5.07035,30.3797,11.4082,5297.84,-7759.88,-480.657,-73.7204,-52.8803,12.7085
1.01,10152.2,-970.817,2564.5,19.7756,-4.63111,59.8224,-3014.7,11318.2,-2422.49,31.9997,26.6895,-91.9057,-3149.31,11917.5,-470.377,-45.901,-26.8052,-56.7675,5118.35,-5354.7,7891.25,-4.23442,-140.396,-35.8689,-7975.33,-8637.96,-741.373,-21.9156,-46.2511,34.2458,13067.1,2682.22,-2888.21,4.15708,30.7935,11.3877,5309.6,-7767.32,-602.416,-74.9908,-52.6435,14.4932
1.011,10276.6,-1084.6,2578.06,20.4949,-5.73352,62.0448,-2833.14,11362.0,-2266.82,31.9389,25.6581,-91.2525,-3010.07,11956.5,-529.974,-45.7907,-27.2584,-56.7783,5062.69,-5343.51,7891.8,-4.57572,-141.838,-36.4208,-8105.61,-8688.77,-623.484,-21.1415,-48.2819,35.783,13032.7,2725.31,-2854.95,3.2438,31.2072,11.3672,5321.36,-7774.75,-724.176,-76.2612,-52.4066,16.2779
1.012,10401.1,-1198.37,2591.62,21.2142,-6.83593,64.2673,-2651.57,11405.8,-2111.16,31.878,24.6266,-90.5994,-2870.82,11995.5,-589.571,-45.6804,-27.7116,-56.789,5007.04,-5332.32,7892.36,-4.91703,-143.281,-36.9728,-8235.89,-8739.58,-505.594,-20.3674,-50.3126,37.3203,12998.3,2768.4,-2821.69,2.33053,31.621,11.3467,5333.12,-7782.19,-845.935,-77.5316,-52.1697,18.0626
1.013,10525.5,-1312.15,2605.18,21.9335,-7.93835,66.4897,-2470.01,11449.6,-1955.49,31.8172,23.5952,-89.9462,-2731.58,12034.4,-649.169,-45.5701,-28.1649,-56.7998,4951.38,-5321.13,7892.91,-5.25833,-144.723,-37.5248,-8366.17,-8790.38,-387.704,-19.5934,-52.3434,38.8575,12964.0,2811.48,-2788.43,1.41725,32.0348,11.3262,5344.88,-7789.62,-967.695,-78.802,-51.9328,19.8472
1.014,10670.0,-1410.31,2609.95,22.4002,-8.92194,68.4035,-2287.94,11462.3,-1834.0,31.6229,22.3472,-89.3817,-2649.17,12050.3,-684.751,-45.3463,-28.2172,-56.9273,4955.08,-5328.05,7913.49,-5.6423,-146.213,-38.2048,-8491.62,-8820.03,-278.344,-18.8394,-54.2581,40.3777,12904.3,2787.82,-2777.7,0.659509,32.3159,11.0277,5341.91,-7810.67,-1082.41,-79.4982,-51.1544,21.5057
1.015,10824.7,-1500.65,2610.32,22.7405,-9.84612,70.1629,-2105.62,11459.6,-1729.59,31.3618,20.9909,-88.8614,-2595.18,12054.7,-708.327,-45.0657,-28.0691,-57.1131,4988.46,-5344.03,7944.08,-6.04761,-147.727,-38.9488,-8614.66,-8839.1,-173.249,-18.0954,-56.1147,41.8893,12832.1,2730.79,-2778.23,-0.0204718,32.5307,10.5903,5331.58,-7838.53,-1193.61,-79.9072,-50.1053,23.101
1.016,10979.3,-1590.99,2610.7,23.0809,-10.7703,71.9223,-1923.3,11456.8,-1625.19,31.1008,19.6347,-88.3411,-2541.19,12059.0,-731.902,-44.7852,-27.9209,-57.2989,5021.84,-5360.0,7974.67,-6.45292,-149.24,-39.6928,-8737.7,-8858.17,-68.1537,-17.3514,-57.9713,43.401,12759.8,2673.76,-2778.76,-0.700453,32.7454,10.1529,5321.24,-7866.38,-1304.81,-80.3163,-49.0562,24.6964
1.017,11133.9,-1681.33,2611.07,23.4212,-11.6945,73.6818,-1740.99,11454.1,-1520.78,30.8397,18.2785,-87.8209,-2487.2,12063.4,-755.478,-44.5046,-27.7728,-57.4846,5055.21,-5375.98,8005.26,-6.85823,-150.754,-40.4368,-8860.74,-8877.23,36.9417,-16.6074,-59.8279,44.9126,12687.6,2616.73,-2779.29,-1.38043,32.9601,9.71551,5310.9,-7894.24,-1416.01,-80.7253,-48.007,26.2917
1.018,11281.8,-1759.15,2605.4,23.6587,-12.5965,75.3196,-1565.05,11449.4,-1429.44,30.552,16.8973,-87.3224,-2446.48,12075.8,-767.14,-44.2749,-27.6733,-57.678,5089.0,-5388.66,8023.45,-7.27383,-152.297,-41.182,-8979.99,-8895.79,143.147,-15.8402,-61.7215,46.4446,12613.2,2582.58,-2775.52,-2.05849,33.1143,9.3329,5283.77,-7923.27,-1515.26,-80.9105,-46.789,27.7837
1.019,11406.2,-1793.18,2578.54,23.5361,-13.4211,76.5321,-1411.44,11438.1,-1383.85,30.1713,15.429,-86.9,-2452.17,12116.6,-737.106,-44.2232,-27.7441,-57.8981,5124.19,-5389.8,7998.25,-7.72541,-153.942,-41.9312,-9085.94,-8912.53,253.236,-14.992,-63.7447,48.0478,12531.2,2628.56,-2756.75,-2.72979,33.0566,9.14204,5197.86,-7956.44,-1572.71,-80.3119,-44.9798,28.9139
1.02,11530.6,-1827.2,2551.68,23.4136,-14.2457,77.7445,-1257.83,11426.8,-1338.25,29.7905,13.9607,-86.4777,-2457.85,12157.4,-707.073,-44.1714,-27.8149,-58.1181,5159.39,-5390.94,7973.05,-8.177,-155.587,-42.6804,-9191.89,-8929.27,363.325,-14.1437,-65.7679,49.6509,12449.2,2674.54,-2737.97,-3.4011,32.9989,8.95118,5111.94,-7989.61,-1630.16,-79.7133,-43.1705,30.0442
1.021,11655.0,-1861.23,2524.83,23.291,-15.0702,78.957,-1104.21,11415.5,-1292.65,29.4097,12.4924,-86.0554,-2463.54,12198.2,-677.039,-44.1197,-27.8857,-58.3381,5194.59,-5392.07,7947.85,-8.62858,-157.233,-43.4296,-9297.84,-8946.02,473.415,-13.2954,-67.7911,51.2541,12367.2,2720.51,-2719.2,-4.0724,32.9412,8.76032,5026.03,-8022.78,-1687.61,-79.1147,-41.3613,31.1744
1.022,11779.4,-1895.25,2497.97,23.1684,-15.8948,80.1694,-950.602,11404.2,-1247.06,29.029,11.0241,-85.6331,-2469.23,12238.9,-647.005,-44.0679,-27.9564,-58.5581,5229.78,-5393.21,7922.65,-9.08017,-158.878,-44.1788,-9403.8,-8962.76,583.504,-12.4472,-69.8143,52.8573,12285.1,2766.49,-2700.42,-4.7437,32.8834,8.56946,4940.12,-8055.95,-1745.06,-78.5161,-39.5521,32.3047
1.023,11883.2,-1940.22,2485.33,23.1024,-16.7738,81.3731,-849.988,11413.0,-1225.79,28.653,9.61689,-85.1661,-2433.62,12258.3,-649.833,-43.9562,-28.2716,-58.8984,5234.07,-5392.8,7891.93,-9.57926,-160.483,-44.8781,-9491.74,-8983.6,680.79,-11.5748,-71.8526,54.3191,12216.0,2774.12,-2696.79,-5.77467,32.788,8.17307,4852.95,-8102.88,-1760.56,-77.3392,-37.1437,33.2856
1.024,11981.2,-1988.32,2476.76,23.0525,-17.6685,82.5742,-764.515,11427.7,-1211.48,28.2785,8.22709,-84.6863,-2386.2,12271.5,-662.05,-43.8274,-28.6566,-59.273,5229.53,-5391.95,7859.63,-10.0919,-162.077,-45.5631,-9574.54,-9005.61,774.419,-10.6955,-73.8951,55.7404,12150.6,2770.8,-2697.48,-6.9084,32.6818,7.71797,4765.42,-8153.74,-1764.08,-75.9971,-34.5641,34.2238
1.025,12079.2,-2036.41,2468.18,23.0027,-18.5631,83.7752,-679.043,11442.3,-1197.16,27.9039,6.8373,-84.2065,-2338.79,12284.7,-674.267,-43.6985,-29.0416,-59.6477,5224.98,-5391.09,7827.33,-10.6046,-163.672,-46.2482,-9657.34,-9027.61,868.047,-9.81622,-75.9377,57.1617,12085.2,2767.47,-2698.17,-8.04214,32.5755,7.26286,4677.89,-8204.6,-1767.61,-74.655,-31.9845,35.1619
1.026,12177.3,-2084.51,2459.61,22.9528,-19.4577,84.9763,-593.57,11456.9,-1182.85,27.5293,5.4475,-83.7268,-2291.38,12298.0,-686.483,-43.5696,-29.4265,-60.0224,5220.44,-5390.24,7795.03,-11.1172,-165.266,-46.9333,-9740.14,-9049.62,961.675,-8.93694,-77.9803,58.5831,12019.8,2764.15,-2698.86,-9.17587,32.4693,6.80776,4590.37,-8255.46,-1771.13,-73.3129,-29.4049,36.1001
1.027,12256.0,-2127.75,2460.99,22.9518,-20.3713,86.1638,-510.738,11469.5,-1175.91,27.1745,4.13476,-83.28,-2253.82,12308.0,-692.574,-43.3575,-29.7595,-60.458,5230.62,-5390.69,7776.75,-11.6032,-166.851,-47.6471,-9798.31,-9055.23,1056.87,-8.04272,-79.9742,60.0336,11928.1,2759.84,-2691.48,-10.3476,32.3939,6.29046,4488.18,-8303.06,-1779.82,-71.7011,-26.7507,37.0024
1.028,12296.2,-2161.3,2482.27,23.0485,-21.3231,87.324,-433.187,11478.1,-1183.73,26.8592,2.97612,-82.8991,-2235.95,12311.8,-686.411,-42.9789,-29.9883,-61.0155,5270.27,-5393.76,7786.52,-12.036,-168.42,-48.4186,-9807.24,-9028.04,1155.19,-7.11863,-81.8707,61.5427,11783.7,2753.58,-2667.96,-11.5955,32.38,5.64877,4356.66,-8344.14,-1798.86,-69.5498,-23.9471,37.8327
1.029,12336.5,-2194.85,2503.55,23.1451,-22.2748,88.4842,-355.637,11486.6,-1191.55,26.5438,1.81749,-82.5183,-2218.09,12315.5,-680.249,-42.6002,-30.2171,-61.573,5309.91,-5396.82,7796.29,-12.4688,-169.988,-49.19,-9816.16,-9000.85,1253.51,-6.19455,-83.7671,63.0517,11639.3,2747.31,-2644.45,-12.8433,32.3661,5.00707,4225.15,-8385.21,-1817.9,-67.3985,-21.1435,38.663
1.03,12376.7,-2228.4,2524.83,23.2418,-23.2265,89.6443,-278.086,11495.2,-1199.37,26.2285,0.658859,-82.1375,-2200.22,12319.3,-674.087,-42.2216,-30.4459,-62.1305,5349.55,-5399.89,7806.06,-12.9015,-171.556,-49.9615,-9825.08,-8973.67,1351.83,-5.27046,-85.6636,64.5608,11494.9,2741.05,-2620.93,-14.0912,32.3522,4.36538,4093.63,-8426.29,-1836.93,-65.2472,-18.3399,39.4933
1.031,12417.0,-2261.95,2546.11,23.3385,-24.1783,90.8045,-200.536,11503.8,-1207.19,25.9131,-0.499774,-81.7566,-2182.36,12323.0,-667.925,-41.8429,-30.6748,-62.688,5389.2,-5402.95,7815.83,-13.3343,-173.124,-50.7329,-9834.0,-8946.48,1450.15,-4.34637,-87.5601,66.0698,11350.5,2734.79,-2597.41,-15.339,32.3383,3.72369,3962.12,-8467.37,-1855.97,-63.0959,-15.5362,40.3236
1.032,12467.6,-2289.59,2562.66,23.6937,-25.0402,91.7746,-141.673,11503.4,-1239.55,25.7143,-1.40884,-81.5362,-2156.39,12307.8,-672.677,-41.7623,-30.8624,-63.2367,5408.33,-5380.98,7799.79,-13.9243,-174.683,-51.4979,-9851.25,-8926.81,1474.19,-3.42561,-88.9623,67.7027,11244.8,2703.22,-2623.44,-15.9972,32.3326,3.23344,3829.85,-8533.95,-1855.1,-60.4239,-12.4604,41.0076
1.033,12519.4,-2316.49,2578.61,24.0813,-25.891,92.7208,-85.1456,11502.0,-1274.98,25.5301,-2.28671,-81.3357,-2129.41,12290.3,-678.794,-41.719,-31.045,-63.7843,5424.9,-5355.87,7780.52,-14.5339,-176.24,-52.2621,-9869.53,-8908.08,1488.94,-2.50525,-90.3027,69.351,11143.8,2668.5,-2655.66,-16.5817,32.328,2.76212,3697.5,-8603.72,-1851.75,-57.6868,-9.35043,41.6732
1.034,12571.3,-2343.39,2594.57,24.4688,-26.7417,93.6671,-28.6185,11500.5,-1310.42,25.3458,-3.16458,-81.1353,-2102.42,12272.8,-684.91,-41.6756,-31.2275,-64.3318,5441.46,-5330.77,7761.25,-15.1435,-177.797,-53.0263,-9887.81,-8889.36,1503.69,-1.5849,-91.6431,70.9994,11042.9,2633.78,-2687.88,-17.1663,32.3234,2.2908,3565.14,-8673.48,-1848.4,-54.9498,-6.2405,42.3388
1.035,12623.2,-2370.29,2610.53,24.8564,-27.5925,94.6133,27.9085,11499.1,-1345.85,25.1615,-4.04245,-80.9348,-2075.44,12255.2,-691.026,-41.6323,-31.41,-64.8794,5458.03,-5305.67,7741.98,-15.7532,-179.353,-53.7905,-9906.1,-8870.63,1518.44,-0.664542,-92.9835,72.6477,10941.9,2599.05,-2720.1,-17.7508,32.3187,1.81949,3432.78,-8743.25,-1845.04,-52.2127,-3.13057,43.0045
1.036,12684.6,-2392.68,2620.5,25.2351,-28.2934,95.4026,73.9102,11491.2,-1376.42,25.0009,-4.81013,-80.7472,-2058.87,12249.9,-686.369,-41.5112,-31.5483,-65.3213,5471.46,-5310.68,7707.27,-16.3226,-180.945,-54.546,-9927.7,-8855.02,1547.14,0.215094,-94.1284,74.2843,10849.2,2565.64,-2749.13,-18.35,32.373,1.34859,3296.98,-8799.34,-1856.5,-49.2652,-0.225747,43.6579
1.037,12757.7,-2409.42,2623.0,25.6027,-28.8072,95.9958,106.755,11475.5,-1400.92,24.8699,-5.44006,-80.5756,-2055.32,12259.9,-668.244,-41.2929,-31.6312,-65.6311,5480.97,-5353.34,7653.26,-16.8416,-182.58,-55.2904,-9953.44,-8843.33,1593.25,1.04383,-95.0291,75.9063,10766.7,2533.87,-2774.17,-18.9677,32.5008,0.878214,3156.86,-8838.33,-1886.46,-46.0547,2.4227,44.2961
1.038,12830.8,-2426.17,2625.49,25.9702,-29.321,96.5889,139.601,11459.7,-1425.43,24.7388,-6.06999,-80.404,-2051.76,12269.8,-650.119,-41.0746,-31.7141,-65.941,5490.48,-5395.99,7599.25,-17.3607,-184.215,-56.0349,-9979.19,-8831.63,1639.37,1.87257,-95.9298,77.5283,10684.2,2502.1,-2799.22,-19.5853,32.6286,0.407839,3016.74,-8877.31,-1916.43,-42.8442,5.07114,44.9343
1.039,12903.9,-2442.91,2627.99,26.3378,-29.8348,97.1821,172.446,11443.9,-1449.93,24.6078,-6.69992,-80.2324,-2048.2,12279.8,-631.995,-40.8563,-31.797,-66.2508,5499.99,-5438.65,7545.24,-17.8798,-185.851,-56.7793,-10004.9,-8819.94,1685.48,2.70131,-96.8304,79.1503,10601.6,2470.33,-2824.26,-20.203,32.7565,-0.0625348,2876.62,-8916.3,-1946.4,-39.6336,7.71959,45.5725
1.04,12977.0,-2459.65,2630.48,26.7054,-30.3486,97.7752,205.291,11428.1,-1474.43,24.4767,-7.32985,-80.0608,-2044.65,12289.8,-613.87,-40.6381,-31.8799,-66.5607,5509.49,-5481.3,7491.23,-18.3988,-187.486,-57.5238,-10030.7,-8808.24,1731.6,3.53005,-97.7311,80.7723,10519.1,2438.56,-2849.3,-20.8206,32.8843,-0.532909,2736.5,-8955.29,-1976.36,-36.4231,10.368,46.2107
1.041,13094.2,-2441.42,2643.89,26.3142,-30.667,97.8931,232.854,11401.2,-1452.1,24.2312,-7.86239,-79.9387,-2066.03,12238.8,-636.776,-40.4127,-32.2467,-66.9006,5572.39,-5532.09,7467.24,-18.7466,-189.339,-58.5265,-10023.7,-8805.55,1751.91,4.53686,-98.2152,82.6357,10431.5,2413.35,-2870.78,-21.6555,33.2238,-1.13164,2590.49,-8984.63,-2031.67,-33.2268,12.6454,47.0746
1.042,13211.4,-2423.19,2657.3,25.9231,-30.9853,98.011,260.416,11374.2,-1429.77,23.9857,-8.39494,-79.8166,-2087.42,12187.9,-659.682,-40.1873,-32.6135,-67.2405,5635.29,-5582.88,7443.26,-19.0944,-191.193,-59.5293,-10016.7,-8802.87,1772.21,5.54367,-98.6993,84.499,10343.9,2388.15,-2892.27,-22.4904,33.5633,-1.73038,2444.48,-9013.98,-2086.97,-30.0306,14.9228,47.9386
1.043,13328.5,-2404.96,2670.7,25.5319,-31.3037,98.1289,287.978,11347.2,-1407.44,23.7401,-8.92748,-79.6945,-2108.81,12136.9,-682.588,-39.9619,-32.9803,-67.5804,5698.19,-5633.67,7419.27,-19.4422,-193.046,-60.532,-10009.6,-8800.18,1792.52,6.55048,-99.1834,86.3624,10256.3,2362.94,-2913.75,-23.3253,33.9028,-2.32911,2298.47,-9043.32,-2142.27,-26.8343,17.2001,48.8026
1.044,13445.7,-2386.73,2684.11,25.1407,-31.6221,98.2468,315.541,11320.2,-1385.11,23.4946,-9.46002,-79.5724,-2130.2,12086.0,-705.494,-39.7365,-33.3471,-67.9203,5761.09,-5684.46,7395.28,-19.79,-194.9,-61.5348,-10002.6,-8797.49,1812.82,7.55729,-99.6675,88.2258,10168.7,2337.73,-2935.23,-24.1602,34.2423,-2.92785,2152.46,-9072.67,-2197.57,-23.638,19.4775,49.6665
1.045,13548.9,-2330.88,2697.14,24.4501,-31.9289,98.1448,344.95,11285.7,-1352.11,23.2486,-10.0914,-79.5111,-2135.51,12037.7,-724.311,-39.5965,-33.7829,-68.3481,5803.43,-5662.62,7372.74,-20.3457,-196.464,-62.3483,-9962.56,-8807.17,1820.87,8.60901,-99.7366,90.1669,10094.7,2293.65,-2994.8,-24.981,34.7223,-3.51584,2015.07,-9081.9,-2268.91,-20.634,21.5423,50.6166
1.046,13640.9,-2244.92,2709.88,23.5201,-32.2265,97.8668,375.835,11245.0,-1310.58,23.0021,-10.8018,-79.4986,-2127.98,11991.6,-739.857,-39.5248,-34.2738,-68.8462,5829.33,-5582.69,7351.36,-21.0678,-197.796,-63.0104,-9896.05,-8826.75,1819.12,9.69665,-99.4735,92.17,10031.6,2234.46,-3084.83,-25.7905,35.3145,-4.09523,1884.59,-9075.03,-2353.07,-17.7837,23.4371,51.6355
1.047,13732.9,-2158.97,2722.62,22.59,-32.5241,97.5889,406.721,11204.3,-1269.05,22.7557,-11.5122,-79.4861,-2120.44,11945.5,-755.404,-39.4531,-34.7648,-69.3443,5855.23,-5502.76,7329.98,-21.7898,-199.129,-63.6725,-9829.55,-8846.32,1817.36,10.7843,-99.2104,94.1732,9968.54,2175.26,-3174.87,-26.6,35.9067,-4.67462,1754.1,-9068.16,-2437.23,-14.9335,25.3319,52.6544
1.048,13824.9,-2073.02,2735.35,21.6599,-32.8217,97.311,437.606,11163.7,-1227.52,22.5092,-12.2227,-79.4736,-2112.9,11899.5,-770.95,-39.3815,-35.2557,-69.8425,5881.13,-5422.83,7308.59,-22.5119,-200.461,-64.3347,-9763.04,-8865.89,1815.6,11.8719,-98.9473,96.1764,9905.47,2116.07,-3264.9,-27.4095,36.4989,-5.25401,1623.61,-9061.29,-2521.39,-12.0833,27.2267,53.6733
1.049,13908.8,-1985.1,2747.94,20.6648,-33.143,96.978,467.437,11121.1,-1184.34,22.2526,-12.9582,-79.4798,-2107.76,11856.3,-782.128,-39.3398,-35.7802,-70.3212,5900.93,-5342.5,7293.41,-23.238,-201.823,-64.9749,-9690.03,-8883.01,1815.56,12.9517,-98.5863,98.1742,9840.31,2054.67,-3346.46,-28.1775,37.0306,-5.81069,1496.35,-9050.32,-2603.42,-9.28373,29.0944,54.6787
1.05,13928.1,-1881.46,2759.34,19.1496,-33.6538,96.2048,488.824,11063.7,-1128.03,21.915,-13.8948,-79.6366,-2121.82,11836.5,-758.36,-39.5387,-36.5732,-70.6445,5871.95,-5259.06,7327.84,-23.9973,-203.416,-65.4406,-9564.92,-8880.48,1829.28,13.9686,-97.442,100.13,9758.48,1975.62,-3360.28,-28.6138,37.0774,-6.1857,1394.93,-9006.5,-2668.32,-6.88951,30.7454,55.5755
1.051,13947.4,-1777.82,2770.74,17.6344,-34.1646,95.4316,510.212,11006.2,-1071.72,21.5774,-14.8313,-79.7933,-2135.88,11816.8,-734.592,-39.7377,-37.3662,-70.9679,5842.98,-5175.62,7362.28,-24.7565,-205.009,-65.9063,-9439.81,-8877.94,1842.99,14.9856,-96.2976,102.085,9676.66,1896.56,-3374.09,-29.05,37.1242,-6.56071,1293.5,-8962.69,-2733.23,-4.4953,32.3963,56.4723
1.052,13966.7,-1674.18,2782.13,16.1192,-34.6755,94.6584,531.599,10948.7,-1015.4,21.2397,-15.7679,-79.95,-2149.94,11797.0,-710.825,-39.9366,-38.1592,-71.2912,5814.0,-5092.17,7396.71,-25.5157,-206.602,-66.372,-9314.7,-8875.41,1856.71,16.0025,-95.1532,104.04,9594.83,1817.51,-3387.9,-29.4863,37.171,-6.93571,1192.08,-8918.87,-2798.14,-2.10108,34.0473,57.3691
1.053,13986.0,-1570.54,2793.53,14.6039,-35.1863,93.8852,552.987,10891.3,-959.092,20.9021,-16.7044,-80.1067,-2163.99,11777.3,-687.057,-40.1355,-38.9522,-71.6146,5785.02,-5008.73,7431.14,-26.275,-208.195,-66.8377,-9189.59,-8872.88,1870.42,17.0194,-94.0089,105.996,9513.0,1738.45,-3401.71,-29.9225,37.2178,-7.31072,1090.65,-8875.05,-2863.04,0.293139,35.6982,58.2659
1.054,13938.1,-1475.38,2822.15,12.0266,-35.9224,92.7294,567.671,10840.5,-908.545,20.5337,-17.713,-80.2895,-2167.45,11775.9,-656.91,-40.4961,-39.7976,-71.9777,5755.9,-4990.98,7411.49,-26.5677,-209.919,-67.5365,-9015.51,-8899.11,1894.83,18.0155,-92.365,107.925,9425.24,1663.2,-3410.04,-29.9928,36.9946,-7.92856,1009.77,-8785.98,-2908.78,2.74104,37.5885,59.1498
1.055,13856.6,-1384.46,2859.38,8.91818,-36.7712,91.3823,579.004,10793.2,-860.881,20.1499,-18.7576,-80.4854,-2165.59,11783.8,-623.574,-40.9377,-40.6691,-72.3609,5726.71,-5006.07,7364.79,-26.6272,-211.709,-68.3517,-8816.94,-8939.73,1924.6,19.0012,-90.4712,109.841,9334.5,1589.86,-3415.62,-29.8802,36.6363,-8.66781,939.151,-8674.28,-2944.92,5.21578,39.5983,60.0273
1.056,13775.1,-1293.54,2896.61,5.80977,-37.6199,90.0353,590.336,10745.8,-813.217,19.766,-19.8021,-80.6812,-2163.74,11791.6,-590.238,-41.3793,-41.5407,-72.744,5697.51,-5021.17,7318.09,-26.6867,-213.499,-69.167,-8618.37,-8980.35,1954.36,19.9868,-88.5775,111.757,9243.77,1516.52,-3421.21,-29.7676,36.2781,-9.40707,868.534,-8562.58,-2981.07,7.69053,41.6082,60.9048
1.057,13693.6,-1202.62,2933.84,2.70136,-38.4687,88.6882,601.669,10698.5,-765.553,19.3822,-20.8467,-80.8771,-2161.89,11799.5,-556.902,-41.8208,-42.4123,-73.1271,5668.32,-5036.27,7271.4,-26.7462,-215.289,-69.9823,-8419.79,-9020.97,1984.13,20.9725,-86.6838,113.673,9153.03,1443.18,-3426.8,-29.655,35.9198,-10.1463,797.918,-8450.88,-3017.21,10.1653,43.6181,61.7824
1.058,13581.1,-1074.36,2979.22,-1.48917,-39.3117,86.9026,612.922,10653.8,-717.493,19.0129,-21.9403,-81.0574,-2151.29,11804.6,-524.6,-42.2284,-43.2412,-73.5116,5655.73,-5056.33,7226.91,-26.8958,-217.12,-70.8263,-8218.38,-9051.33,1994.23,21.9675,-84.5101,115.568,9072.17,1374.04,-3434.59,-29.4116,35.4942,-10.8294,730.929,-8332.8,-3052.22,12.7402,45.7706,62.7327
1.059,13359.8,-815.422,3053.12,-9.46711,-40.1345,83.5821,623.899,10618.4,-668.048,18.6944,-23.2052,-81.1834,-2110.09,11800.0,-495.916,-42.5173,-43.9208,-73.9007,5701.26,-5093.78,7190.17,-27.3603,-219.094,-71.7708,-8007.0,-9045.74,1935.52,22.9951,-81.3564,117.389,9025.87,1319.61,-3450.1,-28.7107,34.8327,-11.3156,676.635,-8192.39,-3083.25,15.6658,48.4224,63.9377
1.06,13138.6,-556.481,3127.01,-17.4451,-40.9573,80.2617,634.875,10583.0,-618.602,18.3759,-24.4701,-81.3095,-2068.9,11795.5,-467.233,-42.8061,-44.6004,-74.2898,5746.8,-5131.23,7153.42,-27.8249,-221.068,-72.7154,-7795.62,-9040.15,1876.81,24.0228,-78.2027,119.209,8979.58,1265.17,-3465.62,-28.0097,34.1713,-11.8018,622.34,-8051.97,-3114.28,18.5913,51.0743,65.1428
1.061,12917.4,-297.54,3200.9,-25.423,-41.7801,76.9412,645.851,10547.6,-569.157,18.0574,-25.735,-81.4355,-2027.7,11791.0,-438.549,-43.0949,-45.2801,-74.679,5792.33,-5168.68,7116.68,-28.2895,-223.043,-73.66,-7584.25,-9034.57,1818.1,25.0504,-75.049,121.03,8933.28,1210.74,-3481.14,-27.3087,33.5098,-12.2881,568.046,-7911.56,-3145.3,21.5169,53.7261,66.3479
1.062,12696.1,-38.5999,3274.8,-33.4009,-42.6029,73.6207,656.828,10512.2,-519.711,17.7388,-27.0,-81.5615,-1986.5,11786.4,-409.865,-43.3837,-45.9597,-75.0681,5837.86,-5206.13,7079.93,-28.7541,-225.017,-74.6045,-7372.87,-9028.98,1759.39,26.078,-71.8953,122.851,8886.98,1156.3,-3496.65,-26.6078,32.8484,-12.7743,513.752,-7771.15,-3176.33,24.4424,56.378,67.5529
1.063,12378.8,344.995,3435.97,-43.086,-42.5338,67.1571,670.506,10498.8,-463.877,17.4647,-28.2929,-81.6903,-1973.29,11788.5,-362.866,-43.7567,-46.5267,-75.5087,5893.78,-5174.23,7066.18,-29.5883,-226.848,-75.2981,-7071.63,-9055.29,1710.03,27.738,-67.7967,123.926,8823.14,1127.56,-3483.19,-25.7564,31.9524,-13.2454,416.195,-7624.0,-3169.72,27.5884,59.6701,69.1619
1.064,12034.0,764.206,3622.09,-53.2588,-42.21,59.7954,684.957,10491.7,-406.218,17.2032,-29.5938,-81.8198,-1968.08,11792.3,-310.634,-44.1537,-47.0614,-75.964,5952.67,-5122.53,7059.0,-30.5281,-228.638,-75.92,-6744.71,-9090.72,1663.34,29.5786,-63.4281,124.788,8754.29,1106.17,-3461.46,-24.8621,30.9895,-13.7121,306.277,-7474.92,-3152.35,30.7974,63.1451,70.8863
1.065,11689.2,1183.42,3808.21,-63.4315,-41.8861,52.4337,699.407,10484.6,-348.558,16.9418,-30.8947,-81.9494,-1962.87,11796.2,-258.403,-44.5507,-47.5962,-76.4192,6011.56,-5070.82,7051.83,-31.4679,-230.428,-76.5419,-6417.78,-9126.15,1616.65,31.4193,-59.0594,125.649,8685.44,1084.78,-3439.73,-23.9677,30.0266,-14.1788,196.359,-7325.84,-3134.98,34.0064,66.6201,72.6107
1.066,11344.5,1602.63,3994.33,-73.6043,-41.5622,45.072,713.857,10477.6,-290.899,16.6803,-32.1956,-82.0789,-1957.66,11800.1,-206.171,-44.9477,-48.131,-76.8745,6070.45,-5019.12,7044.65,-32.4077,-232.218,-77.1638,-6090.86,-9161.58,1569.96,33.2599,-54.6908,126.511,8616.58,1063.38,-3417.99,-23.0734,29.0636,-14.6455,86.4406,-7176.77,-3117.61,37.2154,70.0951,74.3351
1.067,10965.0,2004.99,4381.01,-81.3773,-40.6218,37.9844,718.184,10475.7,-224.683,16.3742,-33.5095,-82.1692,-1948.2,11803.5,-151.435,-45.3378,-48.8198,-77.3085,6115.74,-4968.43,7056.72,-33.2035,-234.08,-77.8195,-5594.88,-9217.55,1338.29,34.6204,-49.1893,126.382,8552.25,1035.04,-3373.07,-22.0632,28.0143,-15.0529,-18.2613,-7024.66,-3079.83,40.3261,73.5009,76.2099
1.068,10516.0,2373.65,5168.82,-84.3507,-38.4483,31.445,702.264,10484.2,-141.353,15.979,-34.8496,-82.1809,-1930.21,11805.7,-91.6913,-45.714,-49.8168,-77.7001,6133.82,-4919.76,7107.28,-33.7114,-236.087,-78.5428,-4760.79,-9314.62,736.635,35.0206,-41.4223,124.27,8496.94,992.799,-3281.77,-20.8215,26.7923,-15.3418,-112.531,-6866.49,-3001.24,43.2401,76.7681,78.3854
1.069,10067.0,2742.32,5956.64,-87.3242,-36.2749,24.9056,686.344,10492.7,-58.0243,15.5838,-36.1896,-82.1927,-1912.22,11808.0,-31.9472,-46.0902,-50.8138,-78.0918,6151.91,-4871.09,7157.83,-34.2192,-238.094,-79.2661,-3926.7,-9411.69,134.983,35.4209,-33.6553,122.158,8441.63,950.558,-3190.48,-19.5797,25.5703,-15.6306,-206.801,-6708.32,-2922.65,46.154,80.0353,80.561
1.07,9617.99,3110.98,6744.45,-90.2976,-34.1014,18.3662,670.423,10501.2,25.3049,15.1885,-37.5296,-82.2044,-1894.23,11810.2,27.7969,-46.4665,-51.8108,-78.4834,6169.99,-4822.42,7208.39,-34.727,-240.101,-79.9894,-3092.61,-9508.75,-466.669,35.8211,-25.8883,120.046,8386.33,908.317,-3099.18,-18.3379,24.3482,-15.9195,-301.071,-6550.15,-2844.06,49.068,83.3025,82.7365
1.071,9169.01,3479.65,7532.26,-93.271,-31.9279,11.8268,654.503,10509.7,108.634,14.7933,-38.8697,-82.2162,-1876.24,11812.5,87.5409,-46.8427,-52.8077,-78.875,6188.07,-4773.75,7258.94,-35.2348,-242.109,-80.7127,-2258.52,-9605.82,-1068.32,36.2213,-18.1213,117.934,8331.02,866.075,-3007.88,-17.0961,23.1262,-16.2084,-395.34,-6391.97,-2765.47,51.982,86.5696,84.9121
1.072,7914.42,4196.48,9831.71,-101.198,-37.9882,16.8769,671.793,10523.0,184.119,14.3386,-40.483,-82.0691,-1833.16,11817.5,168.31,-47.4351,-54.1338,-79.2765,6195.03,-4731.23,7274.29,-35.6171,-244.222,-81.4035,74.675,-9639.82,-5605.93,26.7945,4.07263,111.303,8361.0,880.468,-2622.63,-12.893,20.5136,-16.3208,-392.656,-6202.04,-2424.64,54.0595,85.3619,87.7432
1.073,6559.14,4956.84,12320.1,-109.745,-45.0778,23.3756,693.236,10537.0,258.624,13.8765,-42.1304,-81.9021,-1786.94,11822.9,251.707,-48.0544,-55.5009,-79.6791,6200.6,-4689.48,7285.24,-35.9836,-246.35,-82.0902,2595.26,-9665.95,-10635.5,16.1394,28.0699,104.108,8401.65,901.939,-2200.63,-8.3197,17.7271,-16.4111,-377.851,-6008.13,-2051.03,56.0324,83.5949,90.6562
1.074,5203.86,5717.2,14808.5,-118.291,-52.1674,29.8743,714.678,10551.0,333.128,13.4145,-43.7779,-81.7351,-1740.73,11828.3,335.105,-48.6738,-56.8681,-80.0818,6206.17,-4647.73,7296.18,-36.3501,-248.477,-82.7769,5115.85,-9692.07,-15665.1,5.4842,52.0672,96.9118,8442.29,923.411,-1778.63,-3.74641,14.9407,-16.5014,-363.047,-5814.22,-1677.42,58.0053,81.8278,93.5692
1.075,3848.58,6477.56,17296.9,-126.837,-59.257,36.373,736.12,10565.0,407.633,12.9524,-45.4254,-81.5681,-1694.51,11833.7,418.502,-49.2932,-58.2353,-80.4845,6211.74,-4605.98,7307.13,-36.7167,-250.604,-83.4637,7636.44,-9718.19,-20694.7,-5.17095,76.0645,89.716,8482.94,944.883,-1356.63,0.826884,12.1542,-16.5917,-348.243,-5620.31,-1303.81,59.9782,80.0607,96.4822
1.076,912.896,8911.05,20392.7,-141.272,-71.929,57.7764,771.222,10577.9,427.849,12.5465,-47.4319,-81.3126,-1621.17,11858.2,556.277,-50.2692,-59.6001,-80.93,6175.09,-4604.36,7416.61,-37.1615,-253.132,-84.1311,11956.4,-10207.3,-24540.9,-13.1646,89.9047,81.2341,8585.29,974.079,-712.964,7.53886,9.57069,-17.0132,-221.486,-5490.46,-918.931,60.8012,75.6846,99.4884
1.077,-3998.29,13436.0,24247.8,-163.065,-91.5791,97.8106,823.4,10589.5,380.204,12.2108,-49.8874,-80.9464,-1513.91,11906.8,762.023,-51.6911,-60.9621,-81.4292,6085.64,-4652.91,7649.25,-37.7042,-256.161,-84.7746,18525.5,-11275.1,-26907.7,-17.8313,91.0483,71.1447,8764.79,1012.93,207.781,16.9242,7.24075,-17.8489,45.212,-5440.68,-519.961,60.1868,68.0471,102.611
1.078,-8909.48,17960.9,28102.8,-184.859,-111.229,137.845,875.578,10601.0,332.559,11.8751,-52.3428,-80.5801,-1406.66,11955.4,967.77,-53.113,-62.3241,-81.9283,5996.2,-4701.45,7881.89,-38.2469,-259.19,-85.418,25094.6,-12342.9,-29274.5,-22.498,92.192,61.0552,8944.3,1051.78,1128.53,26.3095,4.91082,-18.6845,311.91,-5390.9,-120.992,59.5724,60.4096,105.734
1.079,-13820.7,22485.8,31957.8,-206.652,-130.879,177.879,927.756,10612.6,284.914,11.5394,-54.7983,-80.2139,-1299.41,12004.0,1173.52,-54.5349,-63.6862,-82.4274,5906.75,-4749.99,8114.53,-38.7895,-262.219,-86.0615,31663.7,-13410.7,-31641.3,-27.1647,93.3357,50.9658,9123.8,1090.63,2049.27,35.6948,2.58089,-19.5201,578.608,-5341.11,277.977,58.958,52.7721,108.857
1.08,-18731.8,27010.7,35812.9,-228.446,-150.529,217.913,979.934,10624.1,237.269,11.2036,-57.2538,-79.8477,-1192.15,12052.6,1379.26,-55.9568,-65.0482,-82.9265,5817.31,-4798.54,8347.18,-39.3322,-265.249,-86.7049,38232.8,-14478.5,-34008.1,-31.8315,94.4793,40.8763,9303.3,1129.48,2970.02,45.0802,0.250951,-20.3557,845.307,-5291.33,676.946,58.3436,45.1346,111.979
1.081,-25727.5,31797.0,35754.6,-214.608,-153.713,265.215,1103.17,10663.8,63.3169,11.6859,-59.7581,-79.2009,-994.787,12272.4,1623.26,-57.7369,-66.0646,-83.3244,5708.59,-4758.59,8657.44,-38.9632,-269.205,-87.3136,47930.6,-18943.1,-25681.2,5.77843,47.9884,20.758,9608.67,1181.76,2958.08,46.422,6.90449,-21.095,1102.21,-5469.64,328.622,52.4918,44.0756,114.54
1.082,-32723.1,36583.4,35696.3,-200.771,-156.896,312.518,1226.4,10703.5,-110.635,12.1681,-62.2624,-78.5541,-797.423,12492.2,1867.27,-59.5171,-67.0811,-83.7223,5599.86,-4718.64,8967.71,-38.5942,-273.16,-87.9224,57628.5,-23407.7,-17354.4,43.3883,1.49746,0.639662,9914.04,1234.04,2946.15,47.7637,13.558,-21.8343,1359.1,-5647.95,-19.7021,46.6399,43.0167,117.1
1.083,-39718.8,41369.7,35638.0,-186.933,-160.08,359.82,1349.63,10743.2,-284.588,12.6503,-64.7667,-77.9073,-600.059,12711.9,2111.27,-61.2972,-68.0976,-84.1202,5491.14,-4678.69,9277.97,-38.2252,-277.116,-88.5311,67326.3,-27872.4,-9027.5,80.9982,-44.9935,-19.4787,10219.4,1286.31,2934.21,49.1055,20.2116,-22.5736,1616.0,-5826.26,-368.026,40.7881,41.9577,119.66
1.084,-46714.4,46156.1,35579.8,-173.096,-163.263,407.123,1472.86,10782.9,-458.54,13.1326,-67.271,-77.2605,-402.695,12931.7,2355.27,-63.0773,-69.1141,-84.5182,5382.42,-4638.74,9588.24,-37.8562,-281.072,-89.1399,77024.1,-32337.0,-700.634,118.608,-91.4844,-39.597,10524.8,1338.59,2922.28,50.4473,26.8651,-23.3129,1872.9,-6004.57,-716.35,34.9362,40.8988,122.221
1.085,-50206.4,45281.4,33338.0,-152.648,-154.229,410.217,1623.72,10846.3,-632.388,14.0499,-69.1239,-76.7394,-158.515,13177.5,2437.08,-64.2798,-69.6037,-84.6869,5307.74,-4686.88,9703.89,-36.3364,-285.303,-89.6764,77415.5,-33442.8,4212.08,131.058,-113.73,-42.9195,10829.6,1296.03,3006.82,48.6113,31.2678,-23.888,2120.27,-6428.65,-863.372,26.873,45.5341,124.455
1.086,-50895.4,39878.0,29349.5,-126.913,-135.42,377.945,1796.69,10928.7,-806.152,15.3152,-70.4556,-76.3188,123.117,13444.2,2389.15,-65.0202,-69.6717,-84.6723,5260.31,-4805.49,9663.86,-33.8959,-289.753,-90.1553,70361.7,-31861.5,6393.48,123.379,-116.578,-32.8054,11134.0,1177.61,3168.54,44.233,33.8697,-24.3315,2360.01,-7049.34,-849.352,17.0408,54.7248,126.43
1.087,-51584.4,34474.7,25361.0,-101.178,-116.612,345.673,1969.65,11011.2,-979.916,16.5805,-71.7872,-75.8982,404.749,13710.8,2341.21,-65.7606,-69.7398,-84.6578,5212.87,-4924.09,9623.84,-31.4555,-294.203,-90.6342,63307.9,-30280.3,8574.88,115.7,-119.427,-22.6913,11438.4,1059.18,3330.26,39.8547,36.4717,-24.7751,2599.76,-7670.03,-835.332,7.20848,63.9155,128.404
1.088,-52273.4,29071.3,21372.5,-75.4435,-97.8032,313.4,2142.61,11093.6,-1153.68,17.8459,-73.1189,-75.4777,686.381,13977.4,2293.28,-66.5009,-69.8079,-84.6432,5165.43,-5042.7,9583.81,-29.015,-298.654,-91.113,56254.0,-28699.0,10756.3,108.021,-122.276,-12.5772,11742.8,940.758,3491.99,35.4764,39.0736,-25.2187,2839.5,-8290.73,-821.312,-2.6238,73.1062,130.378
1.089,-52085.5,23531.0,17745.7,-54.0136,-79.1744,276.495,2317.42,11198.3,-1313.52,19.009,-74.2853,-75.1196,959.056,14240.9,2221.04,-67.1349,-69.9291,-84.6284,5131.21,-5178.03,9512.47,-26.7025,-303.039,-91.6752,49099.2,-26925.0,12402.5,98.6572,-120.128,-1.35267,12028.6,759.62,3662.3,31.7065,40.9801,-25.7874,3107.94,-8978.74,-706.925,-11.9063,82.7864,132.068
1.09,-44881.7,16895.8,17013.0,-67.0234,-61.9835,202.522,2507.0,11481.8,-1362.01,19.3549,-74.1299,-75.2615,1160.07,14478.9,1954.37,-66.9176,-70.4757,-84.6114,5202.71,-5447.07,9190.67,-25.4138,-306.911,-92.9038,41136.7,-23608.2,9767.61,75.8166,-78.0067,18.7552,12165.9,76.7848,3901.34,32.8036,37.3227,-27.3577,3605.86,-10205.3,210.392,-16.7903,96.3821,131.48
1.091,-37677.9,10260.6,16280.3,-80.0333,-44.7926,128.549,2696.57,11765.3,-1410.49,19.7008,-73.9746,-75.4034,1361.09,14716.9,1687.71,-66.7003,-71.0222,-84.5945,5274.21,-5716.11,8868.86,-24.125,-310.782,-94.1324,33174.1,-20291.5,7132.69,52.976,-35.8856,38.8632,12303.2,-606.051,4140.38,33.9006,33.6652,-28.9279,4103.78,-11431.9,1127.71,-21.6743,109.978,130.893
1.092,-30474.1,3625.43,15547.6,-93.0431,-27.6017,54.5763,2886.15,12048.8,-1458.97,20.0467,-73.8192,-75.5454,1562.11,14954.9,1421.04,-66.483,-71.5688,-84.5775,5345.71,-5985.16,8547.06,-22.8362,-314.654,-95.361,25211.5,-16974.8,4497.77,30.1353,6.2354,58.9711,12440.5,-1288.89,4379.42,34.9977,30.0078,-30.4982,4601.7,-12658.5,2045.03,-26.5584,123.574,130.305
1.093,-23270.3,-3009.76,14814.9,-106.053,-10.4108,-19.3965,3075.73,12332.3,-1507.45,20.3926,-73.6638,-75.6873,1763.13,15192.9,1154.38,-66.2657,-72.1153,-84.5606,5417.21,-6254.2,8225.25,-21.5474,-318.525,-96.5896,17248.9,-13658.1,1862.85,7.29466,48.3564,79.079,12577.8,-1971.72,4618.46,36.0948,26.3503,-32.0684,5099.62,-13885.1,2962.34,-31.4424,137.169,129.717
1.094,-15456.4,-4864.26,14735.6,-109.259,-1.78103,-58.5209,3261.37,12699.3,-1475.73,19.3829,-72.4289,-75.7498,1892.43,15312.8,863.216,-66.1341,-72.2095,-84.9986,5484.71,-6462.29,7957.28,-21.2305,-321.585,-98.1081,11621.9,-11356.0,-214.103,-3.49092,86.4058,93.0167,12562.0,-2570.45,4583.05,38.1222,22.9856,-33.2418,5887.17,-15286.5,4167.19,-30.8925,147.846,125.214
1.095,-7337.46,-4328.41,14983.0,-107.562,2.56824,-80.2211,3445.06,13108.1,-1403.9,17.6953,-70.6541,-75.7725,1985.88,15373.6,559.802,-66.0453,-72.0774,-85.6641,5550.22,-6639.91,7716.22,-21.3996,-324.24,-99.7717,7162.59,-9561.28,-2012.08,-8.24897,122.419,103.869,12469.7,-3127.12,4410.42,40.6147,19.7671,-34.2168,6819.54,-16775.3,5515.79,-27.6257,157.062,118.753
1.096,781.472,-3792.56,15230.5,-105.866,6.91751,-101.921,3628.75,13516.9,-1332.08,16.0077,-68.8794,-75.7953,2079.34,15434.4,256.389,-65.9565,-71.9454,-86.3296,5615.73,-6817.53,7475.16,-21.5687,-326.894,-101.435,2703.31,-7766.56,-3810.05,-13.007,158.433,114.722,12377.3,-3683.79,4237.79,43.1073,16.5486,-35.1918,7751.9,-18264.2,6864.39,-24.3589,166.279,112.292
1.097,8900.41,-3256.72,15477.9,-104.17,11.2668,-123.622,3812.43,13925.7,-1260.25,14.3201,-67.1047,-75.818,2172.79,15495.1,-47.0241,-65.8678,-71.8133,-86.9951,5681.25,-6995.15,7234.1,-21.7378,-329.548,-103.099,-1755.98,-5971.84,-5608.03,-17.7651,194.446,125.575,12284.9,-4240.46,4065.16,45.5999,13.3302,-36.1668,8684.27,-19753.0,8213.0,-21.0921,175.496,105.831
1.098,16154.9,-2749.23,15276.9,-99.0912,12.8856,-136.51,4005.53,14324.0,-1137.46,12.1613,-65.3619,-75.6239,2261.74,15506.6,-315.969,-65.7531,-71.4179,-87.7773,5728.83,-7113.28,7050.75,-22.2032,-332.227,-104.713,-5498.03,-4627.31,-6757.37,-21.1519,225.003,134.332,12177.7,-4731.94,3862.28,47.4868,10.5306,-37.0702,9619.93,-21156.2,9456.18,-17.3438,182.778,98.6105
1.099,20384.0,-2340.98,13506.3,-82.1752,4.94774,-118.555,4231.6,14685.6,-836.296,8.35362,-63.7312,-74.6704,2334.95,15345.2,-464.273,-65.5476,-70.1005,-88.9678,5713.68,-7023.2,7069.36,-23.7055,-334.99,-106.152,-6729.79,-4858.47,-5636.5,-19.7395,236.457,135.759,12018.3,-4995.21,3553.51,47.2539,9.19694,-37.7232,10567.1,-22260.0,10330.4,-11.9099,183.289,88.732
1.1,24613.0,-1932.73,11735.8,-65.2591,-2.99011,-100.6,4457.66,15047.2,-535.132,4.54591,-62.1005,-73.7169,2408.16,15183.8,-612.578,-65.3421,-68.7831,-90.1582,5698.53,-6933.12,7087.97,-25.2079,-337.753,-107.592,-7961.55,-5089.62,-4515.63,-18.3271,247.912,137.185,11858.9,-5258.48,3244.74,47.0209,7.86331,-38.3761,11514.3,-23363.8,11204.6,-6.47611,183.8,78.8535
1.101,28842.1,-1524.49,9965.21,-48.3431,-10.928,-82.6452,4683.72,15408.8,-233.968,0.738203,-60.4698,-72.7634,2481.38,15022.4,-760.882,-65.1366,-67.4657,-91.3487,5683.38,-6843.04,7106.58,-26.7103,-340.516,-109.032,-9193.31,-5320.78,-3394.75,-16.9147,259.367,138.611,11699.5,-5521.75,2935.97,46.788,6.52969,-39.0291,12461.5,-24467.6,12078.9,-1.04229,184.311,68.975
1.102,33071.1,-1116.24,8194.64,-31.427,-18.8658,-64.6905,4909.78,15770.4,67.1961,-3.06951,-58.8391,-71.8099,2554.59,14861.0,-909.187,-64.9312,-66.1484,-92.5392,5668.23,-6752.96,7125.19,-28.2127,-343.279,-110.472,-10425.1,-5551.93,-2273.88,-15.5023,270.822,140.037,11540.1,-5785.03,2627.19,46.5551,5.19607,-39.6821,13408.6,-25571.4,12953.1,4.39153,184.822,59.0965
1.103,33358.2,-2807.15,6696.85,-28.2336,-33.5162,-55.919,5163.99,15865.4,516.384,-7.11861,-58.5834,-70.2376,2722.02,14678.9,-930.51,-64.5741,-65.475,-93.8391,5569.27,-6508.48,7146.09,-29.0541,-346.266,-111.584,-10356.2,-6997.67,-888.682,-14.4443,262.818,136.597,11613.4,-5957.37,2453.74,45.4042,4.20353,-40.4915,14177.6,-26301.7,13016.0,5.23647,183.804,49.8473
1.104,32519.0,-5097.82,5277.01,-28.961,-50.0844,-49.7713,5426.25,15884.2,1007.86,-11.2367,-58.7205,-68.4884,2916.37,14490.9,-915.552,-64.1737,-64.9857,-95.1701,5446.36,-6219.9,7167.65,-29.7066,-349.319,-112.602,-9915.73,-8790.43,572.041,-13.4877,249.253,131.767,11753.2,-6103.73,2318.94,43.991,3.30845,-41.3455,14895.6,-26925.3,12847.0,4.77029,182.35,40.7779
1.105,31679.9,-7388.49,3857.17,-29.6884,-66.6527,-43.6237,5688.51,15903.0,1499.35,-15.3547,-58.8576,-66.7392,3110.72,14302.9,-900.594,-63.7732,-64.4964,-96.5012,5323.45,-5931.31,7189.21,-30.3591,-352.371,-113.621,-9475.25,-10583.2,2032.76,-12.531,235.689,126.938,11893.1,-6250.08,2184.14,42.5779,2.41337,-42.1996,15613.6,-27548.9,12678.1,4.30412,180.896,31.7085
1.106,30840.7,-9679.16,2437.33,-30.4157,-83.2209,-37.476,5950.76,15921.8,1990.83,-19.4728,-58.9947,-64.9901,3305.08,14114.9,-885.636,-63.3728,-64.007,-97.8323,5200.54,-5642.72,7210.77,-31.0117,-355.423,-114.639,-9034.77,-12376.0,3493.49,-11.5744,222.125,122.108,12032.9,-6396.44,2049.35,41.1647,1.51829,-43.0537,16331.6,-28172.5,12509.2,3.83795,179.442,22.6391
1.107,29211.7,-11379.6,1313.4,-32.6125,-99.9716,-36.4516,6201.52,15827.7,2489.98,-23.1976,-59.8426,-63.2524,3497.58,13959.5,-832.969,-62.865,-64.0969,-99.1415,5110.2,-5455.13,7216.1,-31.3238,-358.576,-115.916,-8852.32,-13907.9,4463.8,-10.4436,207.225,119.881,12174.6,-6461.38,1946.22,40.3196,0.631044,-43.9072,16967.0,-28670.3,12118.9,1.99688,180.044,13.8818
1.108,26003.2,-11899.6,781.279,-37.7482,-117.087,-45.6739,6429.27,15507.9,3004.48,-26.1358,-62.1123,-61.5378,3686.39,13869.4,-704.884,-62.1424,-65.3453,-100.407,5085.03,-5469.54,7188.97,-30.9551,-361.931,-117.711,-9185.9,-14918.3,4453.31,-8.96466,189.652,122.86,12320.1,-6363.48,1906.45,40.6107,-0.240517,-44.7598,17437.2,-28916.3,11285.9,-2.594,184.76,5.74893
1.109,22794.7,-12419.5,249.162,-42.8838,-134.203,-54.8961,6657.02,15188.0,3518.99,-29.074,-64.3819,-59.8232,3875.2,13779.4,-576.799,-61.4197,-66.5937,-101.672,5059.86,-5483.94,7161.83,-30.5864,-365.287,-119.505,-9519.47,-15928.6,4442.81,-7.48569,172.08,125.84,12465.6,-6265.58,1866.68,40.9018,-1.11208,-45.6123,17907.4,-29162.4,10453.0,-7.18488,189.475,-2.38397
1.11,19586.1,-12939.5,-282.955,-48.0194,-151.318,-64.1183,6884.77,14868.2,4033.49,-32.0123,-66.6515,-58.1086,4064.01,13689.3,-448.714,-60.6971,-67.8421,-102.938,5034.68,-5498.35,7134.69,-30.2177,-368.642,-121.299,-9853.05,-16939.0,4432.31,-6.00673,154.507,128.819,12611.1,-6167.68,1826.91,41.1929,-1.98364,-46.4649,18377.6,-29408.4,9620.04,-11.7758,194.19,-10.5169
1.111,16377.6,-13459.5,-815.072,-53.1551,-168.433,-73.3405,7112.52,14548.4,4547.99,-34.9505,-68.9212,-56.394,4252.83,13599.2,-320.629,-59.9744,-69.0905,-104.203,5009.51,-5512.75,7107.56,-29.849,-371.997,-123.093,-10186.6,-17949.3,4421.82,-4.52777,136.935,131.799,12756.6,-6069.78,1787.14,41.484,-2.8552,-47.3175,18847.8,-29654.5,8787.09,-16.3666,198.905,-18.6498
1.112,14842.6,-10932.0,-633.787,-51.1519,-178.926,-73.8978,7221.66,14121.5,4887.73,-37.1065,-72.06,-55.3306,4358.08,13568.8,-424.196,-59.2589,-70.1682,-105.207,5011.0,-5747.87,7003.2,-28.9648,-375.509,-124.874,-11953.8,-17986.6,3524.18,-4.55884,134.365,141.06,12779.6,-5840.72,1889.71,43.1693,-3.89045,-48.0175,18691.5,-29095.1,8094.82,-19.5597,204.998,-22.6353
1.113,13516.8,-8023.59,-363.327,-48.2564,-188.591,-73.3719,7315.97,13681.3,5205.62,-39.1647,-75.3074,-54.3486,4452.89,13545.8,-556.719,-58.5444,-71.2247,-106.179,5015.82,-6010.58,6889.19,-28.0162,-379.041,-126.653,-13900.1,-17902.2,2515.66,-4.77868,133.67,151.106,12787.4,-5595.27,2010.07,45.029,-4.94617,-48.6986,18456.8,-28435.1,7420.13,-22.578,211.264,-26.1023
1.114,12190.9,-5115.19,-92.8668,-45.3609,-198.256,-72.846,7410.29,13241.2,5523.51,-41.2229,-78.5549,-53.3667,4547.69,13522.8,-689.242,-57.8298,-72.2811,-107.15,5020.64,-6273.29,6775.18,-27.0677,-382.572,-128.432,-15846.4,-17817.8,1507.13,-4.99851,132.975,161.152,12795.1,-5349.81,2130.44,46.8886,-6.00189,-49.3796,18222.2,-27775.0,6745.45,-25.5963,217.529,-29.5694
1.115,10865.1,-2206.78,177.593,-42.4654,-207.921,-72.3201,7504.6,12801.0,5841.39,-43.2811,-81.8024,-52.3847,4642.5,13499.7,-821.766,-57.1152,-73.3376,-108.122,5025.46,-6536.0,6661.17,-26.1191,-386.104,-130.211,-17792.7,-17733.4,498.606,-5.21834,132.281,171.198,12802.8,-5104.36,2250.8,48.7482,-7.05761,-50.0607,17987.6,-27115.0,6070.77,-28.6146,223.794,-33.0364
1.116,10532.8,35.1344,787.127,-38.4663,-213.278,-71.5891,7582.03,12416.2,6045.69,-45.3322,-84.8486,-51.5569,4735.23,13487.9,-1019.68,-56.4602,-73.6652,-109.086,5010.26,-6803.01,6572.64,-25.2622,-389.568,-131.917,-19556.8,-17409.6,-565.559,-5.18104,137.07,180.104,12734.7,-4838.59,2382.24,50.3811,-8.16014,-50.4304,17561.2,-26273.3,5365.34,-29.4609,229.086,-34.7164
1.117,11442.5,1443.94,1820.5,-33.0877,-213.251,-70.6015,7638.37,12100.7,6108.01,-47.3742,-87.6432,-50.922,4825.37,13489.9,-1299.34,-55.8799,-73.0819,-110.042,4970.04,-7075.38,6515.97,-24.5199,-392.949,-133.531,-21093.1,-16786.4,-1699.27,-4.82234,148.713,187.584,12571.9,-4547.45,2527.51,51.7306,-9.32119,-50.411,16895.2,-25204.4,4621.5,-27.592,233.163,-34.1627
1.118,12352.2,2852.75,2853.88,-27.7091,-213.224,-69.614,7694.7,11785.2,6170.33,-49.4162,-90.4379,-50.287,4915.5,13491.9,-1578.99,-55.2995,-72.4985,-110.998,4929.82,-7347.75,6459.3,-23.7777,-396.33,-135.145,-22629.3,-16163.2,-2832.98,-4.46364,160.357,195.065,12409.1,-4256.3,2672.78,53.0801,-10.4822,-50.3916,16229.3,-24135.6,3877.65,-25.7232,237.239,-33.6089
1.119,13261.9,4261.55,3887.25,-22.3305,-213.198,-68.6265,7751.03,11469.7,6232.64,-51.4582,-93.2325,-49.6521,5005.63,13494.0,-1858.65,-54.7191,-71.9152,-111.954,4889.6,-7620.12,6402.62,-23.0354,-399.71,-136.758,-24165.6,-15539.9,-3966.69,-4.10494,172.001,202.546,12246.3,-3965.15,2818.06,54.4295,-11.6433,-50.3722,15563.3,-23066.8,3133.8,-23.8544,241.316,-33.0551
1.12,14171.6,5670.36,4920.63,-16.9519,-213.171,-67.6389,7807.36,11154.2,6294.96,-53.5002,-96.0272,-49.0171,5095.77,13496.0,-2138.31,-54.1388,-71.3318,-112.91,4849.38,-7892.49,6345.95,-22.2932,-403.091,-138.372,-25701.9,-14916.7,-5100.4,-3.74624,183.645,210.026,12083.5,-3674.0,2963.33,55.779,-12.8043,-50.3528,14897.3,-21998.0,2389.95,-21.9855,245.392,-32.5013
1.121,14730.3,5268.63,6316.22,-16.5651,-206.839,-69.8851,7824.72,11035.7,6127.4,-55.8907,-97.2617,-48.4272,5244.35,13453.5,-2233.65,-54.0532,-70.1242,-113.876,4760.46,-7946.3,6295.56,-23.1,-406.394,-139.807,-24485.3,-14498.7,-5076.15,-2.28163,188.536,210.819,11880.6,-3230.92,3058.56,55.5261,-13.5668,-49.9573,14259.0,-20700.9,1488.09,-18.4022,245.517,-30.3068
1.122,15289.1,4866.91,7711.81,-16.1782,-200.508,-72.1313,7842.09,10917.2,5959.84,-58.2811,-98.4962,-47.8372,5392.92,13411.0,-2329.0,-53.9677,-68.9166,-114.842,4671.53,-8000.1,6245.17,-23.9069,-409.697,-141.242,-23268.8,-14080.8,-5051.9,-0.817024,193.427,211.613,11677.6,-2787.84,3153.8,55.2732,-14.3293,-49.5617,13620.6,-19403.9,586.233,-14.8188,245.641,-28.1122
1.123,15847.8,4465.18,9107.4,-15.7913,-194.176,-74.3775,7859.45,10798.7,5792.29,-60.6716,-99.7308,-47.2473,5541.5,13368.4,-2424.34,-53.8822,-67.709,-115.809,4582.6,-8053.91,6194.79,-24.7137,-413.0,-142.678,-22052.3,-13662.8,-5027.65,0.647584,198.319,212.406,11474.7,-2344.76,3249.03,55.0204,-15.0918,-49.1662,12982.3,-18106.8,-315.627,-11.2355,245.765,-25.9177
1.124,16406.6,4063.46,10503.0,-15.4045,-187.844,-76.6237,7876.81,10680.2,5624.73,-63.062,-100.965,-46.6574,5690.08,13325.9,-2519.68,-53.7966,-66.5015,-116.775,4493.68,-8107.71,6144.4,-25.5206,-416.303,-144.113,-20835.7,-13244.8,-5003.4,2.11219,203.21,213.199,11271.8,-1901.68,3344.26,54.7675,-15.8542,-48.7707,12343.9,-16809.8,-1217.49,-7.65211,245.889,-23.7232
1.125,15972.4,3520.08,11629.1,-15.5206,-180.424,-77.6724,7888.02,10582.2,5416.17,-65.4897,-101.236,-45.892,5865.07,13244.7,-2584.36,-53.735,-65.5544,-117.921,4438.73,-8032.67,6122.07,-26.6883,-419.796,-145.534,-18615.4,-12967.5,-4656.86,3.03695,201.912,210.867,11068.0,-1475.53,3429.9,53.7753,-16.3504,-48.2533,11749.8,-15470.4,-2079.2,-4.90471,243.368,-20.6639
1.126,14743.8,2863.37,12539.6,-16.0392,-172.133,-77.7629,7894.33,10500.5,5174.82,-67.9472,-100.737,-44.9864,6061.19,13132.7,-2624.52,-53.6926,-64.8158,-119.21,4410.97,-7854.54,6122.19,-28.1447,-423.44,-146.944,-15592.0,-12802.6,-4052.5,3.52984,195.664,206.036,10863.7,-1062.93,3507.88,52.1917,-16.6336,-47.6385,11191.0,-14097.3,-2908.78,-2.82609,238.732,-16.9129
1.127,13515.2,2206.66,13450.2,-16.5577,-163.842,-77.8535,7900.63,10418.9,4933.46,-70.4047,-100.237,-44.0807,6257.31,13020.6,-2664.67,-53.6502,-64.0772,-120.499,4383.21,-7676.41,6122.31,-29.6011,-427.084,-148.355,-12568.5,-12637.8,-3448.13,4.02272,189.415,201.204,10659.3,-650.324,3585.86,50.6082,-16.9168,-47.0236,10632.3,-12724.2,-3738.37,-0.747467,234.095,-13.1619
1.128,12286.6,1549.96,14360.7,-17.0763,-155.552,-77.9441,7906.93,10337.2,4692.11,-72.8622,-99.7373,-43.175,6453.43,12908.6,-2704.82,-53.6077,-63.3386,-121.789,4355.45,-7498.29,6122.43,-31.0575,-430.729,-149.765,-9545.14,-12473.0,-2843.76,4.5156,183.167,196.373,10455.0,-237.72,3663.83,49.0246,-17.2,-46.4088,10073.5,-11351.1,-4567.95,1.33116,229.459,-9.41093
1.129,10963.6,930.255,15186.7,-17.4181,-147.312,-77.5153,7917.78,10256.9,4456.55,-75.2601,-99.1486,-42.2479,6641.79,12788.0,-2754.42,-53.5376,-62.6379,-123.13,4326.69,-7330.72,6127.68,-32.463,-434.417,-151.213,-6565.67,-12285.9,-2303.41,4.96372,176.564,191.203,10246.5,159.329,3740.06,47.389,-17.4476,-45.7609,9488.83,-9995.63,-5365.8,3.32979,224.681,-5.57559
1.13,8885.45,606.598,15336.6,-16.3462,-139.483,-72.9314,7964.99,10187.8,4267.41,-77.1807,-97.8473,-41.1497,6768.08,12598.9,-2879.69,-53.2462,-62.2407,-124.89,4289.91,-7247.66,6173.97,-33.4611,-438.461,-152.961,-3937.69,-11920.7,-2275.16,5.05374,167.125,183.331,10005.3,431.927,3802.28,45.3374,-17.4107,-44.8486,8697.04,-8781.28,-5909.76,4.68857,218.775,-1.06548
1.131,6807.3,282.941,15486.5,-15.2742,-131.653,-68.3475,8012.21,10118.6,4078.26,-79.1013,-96.546,-40.0514,6894.36,12409.8,-3004.96,-52.9547,-61.8435,-126.649,4253.14,-7164.6,6220.25,-34.4591,-442.505,-154.71,-1309.72,-11555.5,-2246.92,5.14376,157.686,175.458,9764.08,704.526,3864.49,43.2859,-17.3738,-43.9363,7905.25,-7566.92,-6453.71,6.04734,212.869,3.44463
1.132,4729.15,-40.7164,15636.3,-14.2023,-123.824,-63.7637,8059.42,10049.5,3889.12,-81.0218,-95.2447,-38.9531,7020.65,12220.7,-3130.23,-52.6633,-61.4464,-128.409,4216.37,-7081.54,6266.54,-35.4571,-446.549,-156.458,1318.26,-11190.3,-2218.67,5.23378,148.247,167.586,9522.87,977.125,3926.71,41.2343,-17.3368,-43.024,7113.46,-6352.57,-6997.67,7.40611,206.963,7.95475
1.133,2651.0,-364.373,15786.2,-13.1304,-115.995,-59.1798,8106.64,9980.36,3699.97,-82.9424,-93.9435,-37.8548,7146.93,12031.6,-3255.5,-52.3718,-61.0492,-130.168,4179.59,-6998.47,6312.82,-36.4552,-450.593,-158.206,3946.23,-10825.0,-2190.42,5.3238,138.808,159.713,9281.65,1249.72,3988.93,39.1827,-17.2999,-42.1117,6321.67,-5138.21,-7541.62,8.76489,201.056,12.4649
1.134,1096.42,-482.13,15539.0,-11.5594,-109.044,-51.3608,8120.53,9919.9,3576.39,-84.419,-92.5789,-36.875,7250.05,11892.7,-3386.89,-52.1651,-60.5622,-132.115,4160.85,-7134.29,6311.65,-37.3915,-454.69,-160.453,5652.87,-10381.9,-2213.66,5.79372,131.367,151.149,9025.92,1469.48,4017.37,37.2414,-17.2231,-41.1961,5234.25,-4009.01,-7904.72,9.91154,197.034,16.8853
1.135,-196.368,-496.936,15093.2,-9.73884,-102.532,-41.9241,8117.75,9863.78,3485.58,-85.6736,-91.1826,-35.9544,7341.59,11778.9,-3521.35,-52.0008,-60.0303,-134.156,4151.12,-7379.55,6286.76,-38.2969,-458.814,-162.948,6898.84,-9899.73,-2262.63,6.45358,124.923,142.24,8762.93,1662.82,4028.91,35.3551,-17.1263,-40.2787,3999.01,-2922.37,-8177.4,10.9521,193.954,21.2609
1.136,-1489.16,-511.743,14647.4,-7.9183,-96.0195,-32.4874,8114.98,9807.65,3394.78,-86.9282,-89.7864,-35.0338,7433.13,11665.1,-3655.81,-51.8365,-59.4984,-136.197,4141.39,-7624.81,6261.86,-39.2023,-462.939,-165.444,8144.81,-9417.6,-2311.6,7.11345,118.48,133.331,8499.94,1856.16,4040.46,33.4688,-17.0295,-39.3614,2763.77,-1835.73,-8450.08,11.9927,190.874,25.6365
1.137,-2781.95,-526.549,14201.7,-6.09776,-89.5075,-23.0508,8112.21,9751.53,3303.97,-88.1828,-88.3902,-34.1132,7524.67,11551.4,-3790.26,-51.6722,-58.9665,-138.238,4131.67,-7870.07,6236.97,-40.1077,-467.063,-167.939,9390.78,-8935.47,-2360.58,7.77331,112.036,124.421,8236.96,2049.5,4052.01,31.5825,-16.9326,-38.444,1528.54,-749.094,-8722.76,13.0333,187.794,30.012
1.138,-3747.06,-599.888,13765.4,-4.22679,-83.2187,-13.5274,8101.53,9719.59,3256.5,-88.9622,-87.6093,-33.37,7607.34,11435.2,-3928.48,-51.4698,-58.3137,-140.356,4136.12,-8144.06,6202.35,-40.8736,-471.017,-170.586,10329.9,-8437.08,-2372.84,8.3521,106.523,115.999,7983.17,2218.13,4061.41,29.7355,-16.8881,-37.536,271.119,300.659,-8885.9,14.0002,185.093,34.7013
1.139,-3565.31,-878.088,13362.7,-2.1793,-77.711,-3.70067,8063.18,9772.26,3360.65,-88.0783,-88.9822,-33.2478,7658.98,11310.8,-4079.85,-51.1345,-57.238,-142.741,4190.23,-8518.64,6133.7,-41.1513,-474.375,-173.764,10195.1,-7881.78,-2256.63,8.64709,104.263,109.279,7761.59,2300.29,4063.3,28.0258,-17.0262,-36.6604,-1063.92,1221.32,-8665.7,14.7092,183.718,40.4881
1.14,-3383.56,-1156.29,12960.0,-0.131807,-72.2032,6.12608,8024.84,9824.93,3464.81,-87.1945,-90.3552,-33.1256,7710.62,11186.4,-4231.22,-50.7992,-56.1623,-145.127,4244.33,-8893.21,6065.05,-41.429,-477.733,-176.942,10060.2,-7326.48,-2140.42,8.94208,102.004,102.56,7540.01,2382.46,4065.18,26.3161,-17.1643,-35.7849,-2398.97,2141.97,-8445.5,15.4182,182.344,46.275
1.141,-3201.81,-1434.49,12557.2,1.91568,-66.6955,15.9528,7986.49,9877.6,3568.97,-86.3106,-91.7281,-33.0033,7762.26,11062.0,-4382.59,-50.4639,-55.0866,-147.512,4298.43,-9267.79,5996.41,-41.7067,-481.09,-180.12,9925.42,-6771.19,-2024.21,9.23707,99.744,95.8407,7318.43,2464.62,4067.07,24.6063,-17.3024,-34.9094,-3734.01,3062.63,-8225.3,16.1272,180.97,52.0619
1.142,-3020.06,-1712.69,12154.5,3.96318,-61.1878,25.7796,7948.14,9930.27,3673.13,-85.4268,-93.1011,-32.8811,7813.9,10937.6,-4533.96,-50.1286,-54.0108,-149.897,4352.53,-9642.36,5927.76,-41.9843,-484.448,-183.298,9790.59,-6215.89,-1907.99,9.53206,97.4844,89.1214,7096.85,2546.79,4068.96,22.8966,-17.4405,-34.0339,-5069.05,3983.29,-8005.1,16.8362,179.595,57.8487
1.143,-2077.28,-2264.73,11959.9,4.66756,-55.9094,32.8283,7829.36,10104.7,3615.91,-86.7703,-93.142,-29.4943,7878.08,10891.1,-4672.49,-49.8873,-52.5792,-152.185,4446.14,-9860.98,5996.31,-42.0856,-487.834,-186.612,8879.12,-5798.38,-1788.29,9.8545,96.4266,85.1715,6884.75,2593.53,4067.41,21.0906,-17.9742,-33.2837,-6232.95,4451.02,-7558.74,16.2996,178.374,64.0347
1.144,-917.07,-2895.0,11824.9,4.98819,-50.6966,39.0832,7687.6,10314.0,3512.59,-88.7503,-92.8024,-25.1748,7945.85,10866.8,-4807.34,-49.6729,-51.0459,-154.446,4551.03,-10035.0,6104.06,-42.1365,-491.227,-189.964,7745.75,-5420.24,-1667.59,10.1848,95.7122,82.0129,6675.36,2630.15,4064.87,19.257,-18.6209,-32.5692,-7347.94,4789.34,-7047.76,15.4071,177.198,70.3347
1.145,243.143,-3525.28,11689.9,5.30883,-45.4837,45.3382,7545.85,10523.2,3409.26,-90.7303,-92.4628,-20.8553,8013.62,10842.5,-4942.19,-49.4585,-49.5126,-156.706,4655.93,-10209.1,6211.81,-42.1873,-494.621,-193.316,6612.38,-5042.1,-1546.89,10.5151,94.9977,78.8543,6465.96,2666.77,4062.34,17.4234,-19.2677,-31.8548,-8462.93,5127.67,-6536.77,14.5147,176.021,76.6346
1.146,1403.36,-4155.56,11554.8,5.62947,-40.2709,51.5932,7404.09,10732.5,3305.94,-92.7103,-92.1232,-16.5358,8081.4,10818.2,-5077.04,-49.244,-47.9792,-158.966,4760.82,-10383.2,6319.56,-42.2382,-498.014,-196.668,5479.02,-4663.96,-1426.2,10.8454,94.2832,75.6957,6256.57,2703.39,4059.8,15.5899,-19.9145,-31.1403,-9577.93,5465.99,-6025.79,13.6222,174.844,82.9346
1.147,2540.88,-4651.54,11420.4,4.89672,-35.4177,56.4399,7166.72,10830.2,3158.78,-94.9207,-91.3957,-12.5748,8158.49,10797.9,-5203.41,-48.9748,-46.2881,-161.13,4880.78,-10500.2,6414.32,-42.1693,-501.844,-200.485,4196.08,-4410.97,-1290.74,11.311,93.2487,73.7151,6069.74,2739.31,4064.39,13.6796,-20.6426,-30.4323,-10546.0,5565.6,-5454.29,12.1464,172.842,88.56
1.148,3633.02,-4878.92,11287.2,2.05721,-31.2838,58.4701,6738.13,10705.0,2923.93,-97.592,-89.8925,-9.33092,8254.25,10785.7,-5312.83,-48.596,-44.2813,-163.1,5030.88,-10503.1,6483.11,-41.8607,-506.547,-205.231,2613.98,-4408.27,-1125.77,12.0472,91.5742,74.0907,5928.05,2773.86,4083.22,11.6158,-21.5337,-29.7372,-11220.3,5187.77,-4761.74,9.50397,169.189,92.8361
1.149,4725.16,-5106.31,11154.0,-0.782301,-27.1499,60.5003,6309.54,10579.9,2689.09,-100.263,-88.3893,-6.08704,8350.0,10773.5,-5422.24,-48.2172,-42.2745,-165.07,5180.98,-10506.0,6551.9,-41.5522,-511.25,-209.977,1031.89,-4405.58,-960.797,12.7835,89.8996,74.4662,5786.36,2808.41,4102.05,9.5521,-22.4247,-29.0421,-11894.5,4809.95,-4069.19,6.86154,165.536,97.1122
1.15,5817.3,-5333.69,11020.8,-3.62181,-23.0161,62.5304,5880.95,10454.7,2454.25,-102.935,-86.8861,-2.84317,8445.75,10761.3,-5531.66,-47.8384,-40.2677,-167.04,5331.08,-10509.0,6620.7,-41.2437,-515.953,-214.723,-550.21,-4402.89,-795.826,13.5198,88.2251,74.8418,5644.67,2842.95,4120.88,7.48835,-23.3158,-28.347,-12568.8,4432.12,-3376.64,4.21911,161.883,101.388
1.151,6909.44,-5561.08,10887.7,-6.46132,-18.8822,64.5606,5452.36,10329.5,2219.41,-105.606,-85.3829,0.400713,8541.5,10749.1,-5641.08,-47.4595,-38.2609,-169.011,5481.19,-10511.9,6689.49,-40.9351,-520.656,-219.469,-2132.31,-4400.2,-630.855,14.2561,86.5505,75.2174,5502.98,2877.5,4139.71,5.42461,-24.2068,-27.6519,-13243.1,4054.3,-2684.09,1.57668,158.231,105.664
1.152,7407.15,-4718.86,10628.7,-10.3972,-15.9754,64.8897,5154.03,10035.6,2114.14,-104.954,-84.571,2.26046,8564.25,10836.9,-5651.13,-48.8534,-34.8931,-170.43,5729.54,-10277.8,6398.27,-41.1051,-525.563,-225.471,-3574.05,-4576.24,-704.467,13.7106,83.209,77.6695,5377.87,2911.22,4164.44,3.17714,-24.9084,-26.9631,-13596.3,3365.51,-2065.08,-3.35892,151.241,107.308
1.153,7830.56,-3742.93,10354.0,-14.4701,-13.2219,65.0062,4871.97,9720.61,2025.08,-103.886,-83.8455,3.94719,8577.87,10937.3,-5648.77,-50.4689,-31.3553,-171.78,5990.18,-10014.2,6062.04,-41.3349,-530.495,-231.63,-4998.25,-4774.62,-807.901,13.0049,79.6591,80.3811,5254.82,2944.83,4189.91,0.906713,-25.5863,-26.275,-13909.5,2637.85,-1455.26,-8.58116,143.834,108.623
1.154,8253.98,-2767.01,10079.3,-18.543,-10.4685,65.1226,4589.92,9405.62,1936.01,-102.818,-83.12,5.63392,8591.5,11037.6,-5646.4,-52.0843,-27.8174,-173.13,6250.82,-9750.5,5725.82,-41.5646,-535.427,-237.788,-6422.45,-4973.0,-911.336,12.2992,76.1093,83.0928,5131.78,2978.45,4215.38,-1.36372,-26.2643,-25.587,-14222.7,1910.19,-845.437,-13.8034,136.427,109.937
1.155,8677.39,-1791.09,9804.63,-22.6159,-7.71505,65.2391,4307.87,9090.62,1846.95,-101.751,-82.3945,7.32065,8605.12,11138.0,-5644.04,-53.6998,-24.2795,-174.48,6511.45,-9486.83,5389.6,-41.7944,-540.359,-243.947,-7846.65,-5171.38,-1014.77,11.5935,72.5594,85.8044,5008.74,3012.07,4240.85,-3.63415,-26.9422,-24.8989,-14535.8,1182.53,-235.616,-19.0257,129.02,111.252
1.156,8924.5,-459.195,9459.29,-25.8224,-5.30591,65.0362,4050.15,9041.32,1713.57,-100.734,-81.5705,9.95179,8529.4,11289.2,-5484.14,-57.1267,-18.2817,-175.872,6926.14,-9022.02,5002.35,-42.6999,-543.492,-248.85,-8921.66,-5496.55,-1113.83,10.705,67.2955,88.2188,4895.12,3036.84,4259.98,-5.84674,-27.4124,-24.2635,-14738.1,450.309,233.454,-25.2603,120.581,111.407
1.157,8951.25,1317.66,9025.64,-27.9459,-3.32715,64.4342,3822.85,9324.14,1524.81,-99.7818,-80.6235,13.7634,8342.01,11504.0,-5127.33,-62.8181,-9.20908,-177.316,7533.38,-8305.76,4551.32,-44.4502,-544.377,-252.181,-9560.18,-5980.19,-1207.42,9.58778,59.8889,90.2614,4793.29,3050.56,4271.18,-7.98703,-27.6229,-23.6939,-14801.7,-287.612,526.585,-32.7604,110.854,110.113
1.158,8977.99,3094.52,8591.98,-30.0694,-1.34838,63.8322,3595.56,9606.96,1336.05,-98.8295,-79.6764,17.5751,8154.62,11718.8,-4770.52,-68.5095,-0.136435,-178.76,8140.62,-7589.5,4100.28,-46.2005,-545.261,-255.512,-10198.7,-6463.83,-1301.0,8.47059,52.4823,92.3041,4691.45,3064.28,4282.38,-10.1273,-27.8335,-23.1243,-14865.3,-1025.53,819.716,-40.2606,101.126,108.82
