Time,RFoot_accel.x,RFoot_accel.y,RFoot_accel.z,RFoot_gyro.x,RFoot_gyro.y,RFoot_gyro.z,LFoot_accel.x,LFoot_accel.y,LFoot_accel.z,LFoot_gyro.x,LFoot_gyro.y,LFoot_gyro.z,RShank_accel.x,RShank_accel.y,RShank_accel.z,RShank_gyro.x,RShank_gyro.y,RShank_gyro.z,LShank_accel.x,LShank_accel.y,LShank_accel.z,LShank_gyro.x,LShank_gyro.y,LShank_gyro.z,RThigh_accel.x,RThigh_accel.y,RThigh_accel.z,RThigh_gyro.x,RThigh_gyro.y,RThigh_gyro.z,LThigh_accel.x,LThigh_accel.y,LThigh_accel.z,LThigh_gyro.x,LThigh_gyro.y,LThigh_gyro.z,Pelvis_accel.x,Pelvis_accel.y,Pelvis_accel.z,Pelvis_gyro.x,Pelvis_gyro.y,Pelvis_gyro.z
3.33,7521.43,-1824.54,10032.4,-147.51,324.776,158.694,3871.17,3880.9,8064.49,-2.93692,-1.17187,14.6912,174.363,10338.6,-891.852,64.7489,-15.5063,343.939,686.683,-9752.46,-2517.7,-4.08157,-11.8491,58.2403,-7528.46,4387.4,-4347.94,5.95718,81.6464,85.7019,966.772,-9766.99,-1846.88,-20.3491,-37.1163,75.9989,8010.82,1245.7,2478.63,55.8754,30.4027,15.0764
3.3305,7538.5,-1847.49,10029.7,-147.947,324.703,158.136,3869.2,3876.97,8079.17,-2.89036,-1.24243,14.7372,170.308,10384.3,-900.129,64.6016,-16.7598,344.186,693.561,-9748.34,-2512.75,-4.13402,-11.6427,58.3419,-7552.62,4391.91,-4336.2,5.63185,82.7676,85.2523,982.875,-9751.75,-1834.47,-20.0841,-36.9115,75.9885,8032.73,1265.75,2487.45,55.66,30.2768,15.123
3.331,7555.57,-1870.44,10026.9,-148.384,324.63,157.578,3867.22,3873.03,8093.85,-2.84379,-1.313,14.7832,166.254,10430.0,-908.407,64.4544,-18.0133,344.432,700.439,-9744.22,-2507.81,-4.18647,-11.4363,58.4435,-7576.77,4396.43,-4324.45,5.30652,83.8889,84.8028,998.978,-9736.5,-1822.06,-19.8191,-36.7067,75.9781,8054.63,1285.81,2496.26,55.4446,30.1509,15.1696
3.3315,7572.64,-1893.39,10024.1,-148.822,324.558,157.02,3865.24,3869.09,8108.53,-2.79722,-1.38357,14.8291,162.2,10475.6,-916.685,64.3072,-19.2668,344.679,707.318,-9740.09,-2502.87,-4.23892,-11.2299,58.5451,-7600.92,4400.94,-4312.71,4.98119,85.0102,84.3532,1015.08,-9721.25,-1809.65,-19.5541,-36.502,75.9678,8076.54,1305.86,2505.08,55.2292,30.025,15.2162
3.332,7589.71,-1916.35,10021.4,-149.259,324.485,156.461,3863.27,3865.16,8123.22,-2.75065,-1.45414,14.8751,158.146,10521.3,-924.962,64.1599,-20.5203,344.925,714.196,-9735.97,-2497.92,-4.29138,-11.0234,58.6467,-7625.07,4405.46,-4300.97,4.65587,86.1315,83.9037,1031.18,-9706.0,-1797.24,-19.2891,-36.2972,75.9574,8098.44,1325.91,2513.89,55.0138,29.8991,15.2628
3.3325,7606.78,-1939.3,10018.6,-149.697,324.412,155.903,3861.29,3861.22,8137.9,-2.70409,-1.5247,14.9211,154.092,10567.0,-933.24,64.0127,-21.7738,345.171,721.074,-9731.85,-2492.98,-4.34383,-10.817,58.7483,-7649.22,4409.98,-4289.22,4.33054,87.2528,83.4542,1047.29,-9690.75,-1784.83,-19.024,-36.0924,75.947,8120.35,1345.97,2522.7,54.7984,29.7732,15.3094
3.333,7623.85,-1962.25,10015.9,-150.134,324.339,155.345,3859.31,3857.29,8152.58,-2.65752,-1.59527,14.9671,150.038,10612.7,-941.517,63.8655,-23.0273,345.418,727.952,-9727.73,-2488.04,-4.39628,-10.6106,58.8499,-7673.37,4414.49,-4277.48,4.00521,88.3741,83.0046,1063.39,-9675.5,-1772.42,-18.759,-35.8877,75.9366,8142.25,1366.02,2531.52,54.583,29.6473,15.3561
3.3335,7659.75,-2006.33,10014.5,-150.487,324.225,154.678,3860.72,3851.07,8161.69,-2.61453,-1.67766,14.9642,149.578,10665.5,-952.885,63.721,-24.1855,345.589,728.752,-9727.68,-2479.49,-4.47006,-10.3857,58.945,-7690.92,4412.98,-4260.72,3.6452,89.5903,82.5764,1072.17,-9663.59,-1756.92,-18.5145,-35.7199,75.9372,8161.69,1382.4,2537.72,54.3658,29.5297,15.395
3.334,7733.31,-2092.65,10015.9,-150.672,324.03,153.791,3868.89,3840.27,8159.64,-2.57871,-1.78369,14.8636,156.306,10732.6,-970.435,63.5822,-25.153,345.611,717.393,-9735.79,-2463.74,-4.58649,-10.1238,59.0272,-7695.26,4399.43,-4233.92,3.21585,90.9966,82.191,1066.29,-9658.33,-1735.23,-18.3111,-35.6263,75.9596,8176.17,1391.43,2538.69,54.145,29.4285,15.4185
3.3345,7806.87,-2178.98,10017.3,-150.857,323.834,152.905,3877.06,3829.47,8157.6,-2.54289,-1.88973,14.7631,163.034,10799.6,-987.985,63.4433,-26.1206,345.634,706.035,-9743.89,-2447.98,-4.70293,-9.86193,59.1095,-7699.61,4385.88,-4207.12,2.78649,92.4029,81.8056,1060.42,-9653.08,-1713.54,-18.1077,-35.5327,75.9821,8190.66,1400.46,2539.66,53.9241,29.3274,15.4421
3.335,7880.44,-2265.31,10018.7,-151.042,323.639,152.018,3885.23,3818.68,8155.55,-2.50707,-1.99576,14.6625,169.762,10866.7,-1005.53,63.3045,-27.0881,345.656,694.677,-9751.99,-2432.23,-4.81936,-9.60006,59.1917,-7703.96,4372.33,-4180.33,2.35713,93.8092,81.4202,1054.55,-9647.82,-1691.85,-17.9043,-35.4391,76.0045,8205.14,1409.49,2540.62,53.7033,29.2263,15.4657
3.3355,7954.0,-2351.64,10020.1,-151.227,323.443,151.131,3893.41,3807.88,8153.51,-2.47125,-2.1018,14.5619,176.49,10933.7,-1023.08,63.1656,-28.0556,345.678,683.319,-9760.1,-2416.48,-4.93579,-9.33818,59.2739,-7708.31,4358.78,-4153.53,1.92777,95.2155,81.0348,1048.67,-9642.57,-1670.16,-17.7009,-35.3455,76.027,8219.63,1418.52,2541.59,53.4825,29.1251,15.4892
3.336,8027.56,-2437.96,10021.5,-151.412,323.248,150.245,3901.58,3797.09,8151.46,-2.43543,-2.20783,14.4614,183.219,11000.8,-1040.63,63.0267,-29.0232,345.7,671.961,-9768.2,-2400.72,-5.05222,-9.07631,59.3561,-7712.66,4345.22,-4126.74,1.49841,96.6218,80.6494,1042.8,-9637.32,-1648.47,-17.4975,-35.2519,76.0495,8234.11,1427.55,2542.56,53.2616,29.024,15.5128
3.3365,8101.13,-2524.29,10022.9,-151.597,323.052,149.358,3909.75,3786.29,8149.41,-2.39961,-2.31386,14.3608,189.947,11067.8,-1058.18,62.8879,-29.9907,345.722,660.603,-9776.3,-2384.97,-5.16865,-8.81444,59.4383,-7717.0,4331.67,-4099.94,1.06905,98.0281,80.264,1036.92,-9632.06,-1626.78,-17.2941,-35.1583,76.0719,8248.6,1436.58,2543.53,53.0408,28.9228,15.5363
3.337,8174.69,-2610.62,10024.2,-151.782,322.857,148.472,3917.92,3775.5,8147.37,-2.36379,-2.4199,14.2602,196.675,11134.9,-1075.73,62.749,-30.9582,345.744,649.244,-9784.41,-2369.22,-5.28509,-8.55256,59.5205,-7721.35,4318.12,-4073.14,0.639691,99.4344,79.8785,1031.05,-9626.81,-1605.09,-17.0907,-35.0646,76.0944,8263.08,1445.61,2544.5,52.82,28.8217,15.5599
3.3375,8248.25,-2696.94,10025.6,-151.967,322.661,147.585,3926.1,3764.7,8145.32,-2.32797,-2.52593,14.1597,203.403,11201.9,-1093.28,62.6102,-31.9257,345.766,637.886,-9792.51,-2353.46,-5.40152,-8.29069,59.6028,-7725.7,4304.57,-4046.35,0.210332,100.841,79.4931,1025.17,-9621.55,-1583.4,-16.8873,-34.971,76.1168,8277.57,1454.64,2545.47,52.5991,28.7206,15.5835
3.338,8326.93,-2768.21,10028.1,-152.039,322.33,146.767,3933.81,3761.19,8139.31,-2.28238,-2.61607,14.0891,217.966,11273.3,-1104.33,62.5337,-32.6679,345.766,625.583,-9803.34,-2335.58,-5.51001,-8.07314,59.7078,-7724.95,4298.09,-4008.25,-0.149548,102.222,79.0919,1012.09,-9609.2,-1566.34,-16.6818,-34.8568,76.117,8289.26,1463.9,2545.64,52.3948,28.6258,15.5736
3.3385,8411.99,-2820.66,10031.8,-151.972,321.828,146.033,3940.95,3766.78,8128.33,-2.22458,-2.68632,14.056,242.322,11350.0,-1107.26,62.5351,-33.1282,345.74,612.098,-9817.58,-2315.04,-5.60858,-7.911,59.8413,-7717.83,4300.44,-3956.02,-0.422579,103.573,78.6708,989.993,-9587.97,-1555.04,-16.4737,-34.7169,76.0892,8297.46,1473.43,2544.84,52.2112,28.5389,15.5221
3.339,8497.06,-2873.11,10035.5,-151.904,321.326,145.299,3948.1,3772.38,8117.35,-2.16679,-2.75658,14.0229,266.678,11426.7,-1110.19,62.5366,-33.5885,345.714,598.614,-9831.83,-2294.5,-5.70716,-7.74886,59.9749,-7710.71,4302.8,-3903.79,-0.695609,104.924,78.2497,967.897,-9566.74,-1543.75,-16.2657,-34.577,76.0614,8305.66,1482.97,2544.03,52.0276,28.4521,15.4705
3.3395,8582.12,-2925.56,10039.3,-151.837,320.824,144.565,3955.24,3777.97,8106.37,-2.10899,-2.82683,13.9898,291.035,11503.5,-1113.13,62.538,-34.0489,345.687,585.129,-9846.07,-2273.96,-5.80573,-7.58672,60.1084,-7703.58,4305.15,-3851.56,-0.96864,106.274,77.8286,945.8,-9545.51,-1532.46,-16.0576,-34.437,76.0336,8313.86,1492.51,2543.22,51.844,28.3652,15.4189
3.34,8667.19,-2978.0,10043.0,-151.769,320.322,143.832,3962.38,3783.57,8095.39,-2.05119,-2.89709,13.9567,315.391,11580.2,-1116.06,62.5395,-34.5092,345.661,571.644,-9860.32,-2253.42,-5.9043,-7.42458,60.242,-7696.46,4307.51,-3799.33,-1.24167,107.625,77.4075,923.703,-9524.28,-1521.17,-15.8495,-34.2971,76.0058,8322.06,1502.05,2542.41,51.6604,28.2784,15.3674
3.3405,8752.25,-3030.45,10046.7,-151.701,319.82,143.098,3969.53,3789.16,8084.41,-1.99339,-2.96734,13.9236,339.748,11656.9,-1118.99,62.5409,-34.9695,345.635,558.16,-9874.56,-2232.88,-6.00287,-7.26244,60.3755,-7689.34,4309.87,-3747.1,-1.5147,108.976,76.9864,901.607,-9503.05,-1509.88,-15.6414,-34.1572,75.9781,8330.26,1511.58,2541.6,51.4768,28.1915,15.3158
3.341,8837.32,-3082.9,10050.5,-151.634,319.318,142.364,3976.67,3794.76,8073.44,-1.93559,-3.0376,13.8905,364.104,11733.6,-1121.92,62.5424,-35.4299,345.608,544.675,-9888.8,-2212.34,-6.10144,-7.1003,60.5091,-7682.22,4312.22,-3694.87,-1.78773,110.326,76.5653,879.51,-9481.82,-1498.59,-15.4334,-34.0173,75.9503,8338.46,1521.12,2540.79,51.2931,28.1047,15.2642
3.3415,8922.38,-3135.35,10054.2,-151.566,318.816,141.63,3983.82,3800.35,8062.46,-1.87779,-3.10786,13.8574,388.46,11810.4,-1124.85,62.5438,-35.8902,345.582,531.19,-9903.05,-2191.8,-6.20001,-6.93816,60.6426,-7675.1,4314.58,-3642.64,-2.06076,111.677,76.1443,857.413,-9460.59,-1487.3,-15.2253,-33.8773,75.9225,8346.66,1530.66,2539.98,51.1095,28.0179,15.2127
3.342,9007.45,-3187.79,10057.9,-151.499,318.314,140.897,3990.96,3805.95,8051.48,-1.81999,-3.17811,13.8243,412.817,11887.1,-1127.78,62.5453,-36.3506,345.555,517.706,-9917.29,-2171.26,-6.29859,-6.77602,60.7762,-7667.98,4316.93,-3590.41,-2.33379,113.028,75.7232,835.317,-9439.36,-1476.0,-15.0172,-33.7374,75.8947,8354.86,1540.2,2539.17,50.9259,27.931,15.1611
3.3425,9104.76,-3233.62,10069.6,-151.224,317.704,140.196,3998.52,3806.17,8053.48,-1.7174,-3.26673,13.8181,451.871,11956.7,-1141.99,62.7297,-36.4317,345.491,501.618,-9928.91,-2155.19,-6.37957,-6.66208,60.9328,-7655.65,4319.96,-3525.57,-2.58145,114.212,75.3702,805.598,-9429.86,-1461.9,-14.8773,-33.5203,75.8633,8366.71,1550.85,2539.48,50.7459,27.85,15.092
3.343,9211.89,-3274.14,10087.8,-150.783,317.009,139.523,4006.42,3802.09,8065.87,-1.57897,-3.37003,13.8336,502.685,12020.7,-1165.23,63.0604,-36.2094,345.396,483.448,-9938.43,-2142.69,-6.44648,-6.58668,61.108,-7639.16,4323.51,-3450.63,-2.80881,115.264,75.0718,769.782,-9429.75,-1445.55,-14.792,-33.2415,75.8289,8381.49,1562.4,2540.68,50.5689,27.7736,15.0088
3.3435,9319.01,-3314.66,10105.9,-150.342,316.314,138.849,4014.32,3798.0,8078.26,-1.44055,-3.47334,13.849,553.499,12084.6,-1188.47,63.3912,-35.9872,345.301,465.278,-9947.95,-2130.19,-6.51339,-6.51128,61.2831,-7622.67,4327.06,-3375.69,-3.03618,116.315,74.7734,733.966,-9429.63,-1429.2,-14.7067,-32.9627,75.7945,8396.27,1573.95,2541.88,50.3918,27.6972,14.9256
3.344,9426.13,-3355.18,10124.0,-149.901,315.618,138.175,4022.22,3793.92,8090.65,-1.30212,-3.57664,13.8644,604.313,12148.6,-1211.71,63.7219,-35.7649,345.207,447.108,-9957.47,-2117.69,-6.5803,-6.43589,61.4583,-7606.18,4330.62,-3300.75,-3.26354,117.366,74.475,698.149,-9429.52,-1412.84,-14.6213,-32.6839,75.7601,8411.05,1585.49,2543.08,50.2147,27.6208,14.8424
3.3445,9533.25,-3395.7,10142.1,-149.46,314.923,137.502,4030.12,3789.84,8103.04,-1.1637,-3.67994,13.8798,655.126,12212.5,-1234.95,64.0527,-35.5427,345.112,428.938,-9966.99,-2105.19,-6.64721,-6.36049,61.6334,-7589.69,4334.17,-3225.81,-3.4909,118.418,74.1766,662.333,-9429.4,-1396.49,-14.536,-32.4052,75.7257,8425.83,1597.04,2544.28,50.0376,27.5445,14.7592
3.345,9640.37,-3436.22,10160.2,-149.019,314.228,136.828,4038.02,3785.76,8115.43,-1.02527,-3.78325,13.8952,705.94,12276.5,-1258.18,64.3834,-35.3204,345.017,410.768,-9976.5,-2092.69,-6.71412,-6.2851,61.8086,-7573.21,4337.72,-3150.87,-3.71826,119.469,73.8782,626.517,-9429.29,-1380.14,-14.4507,-32.1264,75.6913,8440.61,1608.59,2545.48,49.8606,27.4681,14.676
3.3455,9747.49,-3476.74,10178.4,-148.578,313.533,136.154,4045.92,3781.67,8127.82,-0.886846,-3.88655,13.9106,756.754,12340.4,-1281.42,64.7142,-35.0982,344.922,392.598,-9986.02,-2080.19,-6.78104,-6.2097,61.9837,-7556.72,4341.28,-3075.93,-3.94562,120.521,73.5798,590.7,-9429.17,-1363.79,-14.3654,-31.8476,75.6569,8455.4,1620.13,2546.68,49.6835,27.3917,14.5928
3.346,9854.61,-3517.26,10196.5,-148.137,312.837,135.481,4053.82,3777.59,8140.21,-0.748421,-3.98986,13.9261,807.568,12404.4,-1304.66,65.0449,-34.876,344.827,374.428,-9995.54,-2067.69,-6.84795,-6.13431,62.1589,-7540.23,4344.83,-3000.99,-4.17299,121.572,73.2814,554.884,-9429.05,-1347.44,-14.28,-31.5688,75.6225,8470.18,1631.68,2547.88,49.5064,27.3153,14.5096
3.3465,9961.73,-3557.78,10214.6,-147.696,312.142,134.807,4061.72,3773.51,8152.6,-0.609995,-4.09316,13.9415,858.381,12468.3,-1327.9,65.3757,-34.6537,344.733,356.258,-10005.1,-2055.2,-6.91486,-6.05891,62.334,-7523.74,4348.39,-2926.05,-4.40035,122.623,72.983,519.068,-9428.94,-1331.08,-14.1947,-31.29,75.5881,8484.96,1643.23,2549.07,49.3294,27.2389,14.4264
3.347,10064.6,-3581.35,10242.3,-147.166,311.321,134.316,4052.15,3768.73,8166.41,-0.560852,-4.15021,13.8816,898.23,12541.0,-1333.03,65.8831,-34.0175,344.634,345.781,-10009.0,-2052.41,-6.97037,-6.04564,62.4981,-7503.39,4354.11,-2840.04,-4.58368,123.234,72.7999,494.823,-9421.46,-1328.37,-14.1399,-30.9311,75.5272,8489.49,1649.17,2531.58,49.1686,27.2189,14.3551
3.3475,10165.3,-3596.44,10274.7,-146.593,310.437,133.917,4033.85,3763.6,8180.94,-0.55635,-4.18413,13.7841,932.595,12617.9,-1329.12,66.4789,-33.1743,344.535,339.151,-10010.2,-2054.48,-7.02018,-6.06343,62.6567,-7481.1,4360.91,-2748.48,-4.74501,123.625,72.6744,476.364,-9410.3,-1332.47,-14.1003,-30.5322,75.4529,8488.91,1652.31,2504.75,49.0161,27.227,14.2896
3.348,10266.0,-3611.52,10307.1,-146.02,309.553,133.517,4015.55,3758.47,8195.47,-0.551848,-4.21805,13.6866,966.961,12694.9,-1325.2,67.0747,-32.3311,344.435,332.521,-10011.4,-2056.56,-7.06999,-6.08122,62.8153,-7458.81,4367.72,-2656.92,-4.90633,124.015,72.549,457.905,-9399.14,-1336.57,-14.0608,-30.1333,75.3786,8488.32,1655.46,2477.91,48.8635,27.2351,14.2242
3.3485,10366.8,-3626.61,10339.5,-145.447,308.669,133.118,3997.24,3753.34,8209.99,-0.547345,-4.25197,13.5891,1001.33,12771.9,-1321.28,67.6704,-31.4879,344.335,325.89,-10012.6,-2058.63,-7.11979,-6.09901,62.9739,-7436.53,4374.52,-2565.36,-5.06765,124.405,72.4235,439.446,-9387.98,-1340.67,-14.0212,-29.7344,75.3043,8487.73,1658.6,2451.07,48.7109,27.2433,14.1587
3.349,10467.5,-3641.7,10371.9,-144.873,307.784,132.718,3978.94,3748.21,8224.52,-0.542843,-4.28589,13.4916,1035.69,12848.9,-1317.36,68.2662,-30.6447,344.235,319.26,-10013.8,-2060.7,-7.1696,-6.1168,63.1325,-7414.24,4381.33,-2473.81,-5.22897,124.796,72.2981,420.986,-9376.82,-1344.77,-13.9817,-29.3355,75.2301,8487.15,1661.74,2424.24,48.5584,27.2514,14.0933
3.3495,10568.2,-3656.79,10404.3,-144.3,306.9,132.319,3960.64,3743.08,8239.05,-0.538341,-4.31981,13.3941,1070.06,12925.9,-1313.44,68.862,-29.8015,344.135,312.63,-10014.9,-2062.78,-7.21941,-6.13458,63.2911,-7391.96,4388.14,-2382.25,-5.3903,125.186,72.1726,402.527,-9365.66,-1348.86,-13.9421,-28.9366,75.1558,8486.56,1664.88,2397.4,48.4058,27.2595,14.0279
3.35,10668.9,-3671.88,10436.7,-143.727,306.016,131.92,3942.34,3737.95,8253.57,-0.533839,-4.35373,13.2966,1104.42,13002.9,-1309.52,69.4577,-28.9583,344.035,306.0,-10016.1,-2064.85,-7.26922,-6.15237,63.4497,-7369.67,4394.94,-2290.69,-5.55162,125.576,72.0471,384.068,-9354.51,-1352.96,-13.9026,-28.5377,75.0815,8485.97,1668.03,2370.57,48.2532,27.2676,13.9624
3.3505,10769.7,-3686.96,10469.1,-143.154,305.132,131.52,3924.03,3732.83,8268.1,-0.529337,-4.38766,13.199,1138.79,13079.9,-1305.6,70.0535,-28.1151,343.935,299.369,-10017.3,-2066.92,-7.31903,-6.17016,63.6082,-7347.38,4401.75,-2199.14,-5.71294,125.967,71.9217,365.609,-9343.35,-1357.06,-13.863,-28.1388,75.0072,8485.39,1671.17,2343.73,48.1007,27.2757,13.897
3.351,10870.4,-3702.05,10501.5,-142.58,304.248,131.121,3905.73,3727.7,8282.63,-0.524834,-4.42158,13.1015,1173.15,13156.8,-1301.68,70.6493,-27.2719,343.836,292.739,-10018.5,-2069.0,-7.36884,-6.18795,63.7668,-7325.1,4408.55,-2107.58,-5.87426,126.357,71.7962,347.15,-9332.19,-1361.16,-13.8235,-27.7399,74.933,8484.8,1674.31,2316.89,47.9481,27.2839,13.8315
3.3515,10963.5,-3688.66,10527.4,-141.769,303.163,130.929,3899.59,3722.02,8297.21,-0.247222,-4.58004,13.1045,1187.19,13256.4,-1286.99,71.4623,-26.1651,343.823,294.107,-10024.8,-2076.81,-7.42337,-6.13812,63.8968,-7304.96,4397.16,-2028.48,-5.93315,126.194,71.7837,327.915,-9333.57,-1364.09,-13.8202,-27.2832,74.9179,8493.11,1677.5,2297.49,47.8176,27.3169,13.748
3.352,11054.4,-3667.14,10551.5,-140.89,302.02,130.796,3896.93,3716.19,8311.81,0.108423,-4.77409,13.1361,1195.42,13362.4,-1269.21,72.3375,-24.9831,343.835,297.76,-10032.5,-2086.27,-7.47926,-6.06898,64.0187,-7285.45,4380.57,-1952.95,-5.96278,125.872,71.8034,308.458,-9338.54,-1366.67,-13.8272,-26.81,74.9198,8503.96,1680.71,2280.2,47.6935,27.357,13.6593
3.3525,11145.3,-3645.62,10575.5,-140.011,300.878,130.664,3894.26,3710.36,8326.41,0.464067,-4.96814,13.1678,1203.64,13468.4,-1251.44,73.2126,-23.801,343.847,301.413,-10040.2,-2095.72,-7.53514,-5.99983,64.1405,-7265.93,4363.98,-1877.42,-5.9924,125.55,71.8231,289.001,-9343.5,-1369.26,-13.8342,-26.3368,74.9217,8514.81,1683.92,2262.92,47.5693,27.397,13.5706
3.353,11236.2,-3624.09,10599.5,-139.131,299.735,130.531,3891.6,3704.54,8341.0,0.819712,-5.16219,13.1994,1211.87,13574.3,-1233.67,74.0878,-22.6189,343.859,305.066,-10047.9,-2105.18,-7.59102,-5.93068,64.2624,-7246.41,4347.4,-1801.88,-6.02202,125.229,71.8429,269.544,-9348.47,-1371.85,-13.8412,-25.8635,74.9236,8525.67,1687.12,2245.63,47.4452,27.4371,13.482
3.3535,11327.0,-3602.57,10623.6,-138.252,298.593,130.398,3888.94,3698.71,8355.6,1.17536,-5.35624,13.231,1220.1,13680.3,-1215.9,74.9629,-21.4368,343.871,308.718,-10055.7,-2114.63,-7.64691,-5.86153,64.3842,-7226.9,4330.81,-1726.35,-6.05165,124.907,71.8626,250.087,-9353.43,-1374.43,-13.8482,-25.3903,74.9255,8536.52,1690.33,2228.35,47.321,27.4772,13.3933
3.354,11417.9,-3581.04,10647.6,-137.373,297.45,130.266,3886.27,3692.88,8370.2,1.531,-5.55029,13.2627,1228.33,13786.3,-1198.13,75.8381,-20.2547,343.883,312.371,-10063.4,-2124.09,-7.70279,-5.79239,64.506,-7207.38,4314.22,-1650.81,-6.08127,124.585,71.8823,230.63,-9358.4,-1377.02,-13.8552,-24.9171,74.9274,8547.37,1693.54,2211.06,47.1969,27.5173,13.3046
3.3545,11508.8,-3559.52,10671.7,-136.494,296.308,130.133,3883.61,3687.05,8384.8,1.88665,-5.74434,13.2943,1236.55,13892.3,-1180.36,76.7132,-19.0726,343.895,316.024,-10071.1,-2133.54,-7.75868,-5.72324,64.6279,-7187.87,4297.63,-1575.28,-6.11089,124.264,71.902,211.173,-9363.37,-1379.61,-13.8623,-24.4439,74.9294,8558.22,1696.74,2193.78,47.0728,27.5574,13.2159
3.355,11599.7,-3538.0,10695.7,-135.615,295.166,130.0,3880.95,3681.22,8399.4,2.24229,-5.93839,13.326,1244.78,13998.3,-1162.59,77.5884,-17.8906,343.907,319.677,-10078.9,-2143.0,-7.81456,-5.65409,64.7497,-7168.35,4281.04,-1499.75,-6.14052,123.942,71.9218,191.716,-9368.33,-1382.19,-13.8693,-23.9706,74.9312,8569.08,1699.95,2176.5,46.9486,27.5975,13.1273
3.3555,11690.6,-3516.47,10719.7,-134.736,294.023,129.868,3878.28,3675.39,8414.0,2.59793,-6.13243,13.3576,1253.01,14104.2,-1144.82,78.4635,-16.7085,343.919,323.33,-10086.6,-2152.45,-7.87044,-5.58495,64.8716,-7148.83,4264.45,-1424.21,-6.17014,123.62,71.9415,172.259,-9373.3,-1384.78,-13.8763,-23.4974,74.9332,8579.93,1703.16,2159.21,46.8245,27.6376,13.0386
3.356,11782.9,-3496.06,10759.0,-133.606,292.739,129.931,3865.42,3673.22,8397.09,2.60443,-6.27051,13.3084,1260.16,14184.4,-1099.41,79.3563,-15.5513,343.962,321.517,-10088.7,-2164.62,-7.90822,-5.52373,64.9755,-7133.91,4250.37,-1343.27,-6.1514,122.868,72.1174,141.108,-9394.94,-1370.05,-13.8006,-22.9904,74.997,8598.08,1699.7,2160.59,46.7933,27.678,12.9119
3.3565,11875.3,-3475.78,10800.1,-132.446,291.437,130.018,3851.28,3671.5,8376.24,2.56729,-6.40159,13.2492,1267.19,14261.2,-1050.56,80.2513,-14.3973,344.008,319.021,-10090.1,-2177.14,-7.94373,-5.46351,65.0773,-7119.57,4236.6,-1261.65,-6.12662,122.062,72.3128,108.495,-9418.67,-1353.15,-13.7146,-22.4791,75.0686,8617.14,1695.4,2164.31,46.7737,27.7184,12.7804
3.357,11967.8,-3455.5,10841.2,-131.285,290.136,130.105,3837.14,3669.79,8355.39,2.53014,-6.53267,13.1899,1274.21,14338.1,-1001.7,81.1463,-13.2432,344.054,316.525,-10091.4,-2189.65,-7.97924,-5.40329,65.1791,-7105.22,4222.83,-1180.03,-6.10184,121.255,72.5082,75.8824,-9442.4,-1336.26,-13.6286,-21.9678,75.1402,8636.2,1691.11,2168.03,46.7541,27.7588,12.649
3.3575,12060.2,-3435.23,10882.3,-130.125,288.834,130.193,3823.0,3668.07,8334.54,2.493,-6.66375,13.1306,1281.23,14415.0,-952.842,82.0413,-12.0892,344.101,314.029,-10092.8,-2202.16,-8.01476,-5.34307,65.2808,-7090.88,4209.07,-1098.41,-6.07705,120.449,72.7036,43.2696,-9466.13,-1319.36,-13.5426,-21.4565,75.2119,8655.26,1686.82,2171.74,46.7345,27.7992,12.5175
3.358,12152.7,-3414.95,10923.4,-128.964,287.532,130.28,3808.86,3666.36,8313.69,2.45585,-6.79483,13.0713,1288.26,14491.9,-903.985,82.9363,-10.9352,344.147,311.533,-10094.2,-2214.67,-8.05027,-5.28285,65.3826,-7076.53,4195.3,-1016.79,-6.05227,119.643,72.8991,10.6568,-9489.86,-1302.46,-13.4566,-20.9452,75.2835,8674.32,1682.53,2175.46,46.7149,27.8396,12.3861
3.3585,12245.1,-3394.67,10964.6,-127.804,286.23,130.368,3794.72,3664.64,8292.84,2.41871,-6.92591,13.0121,1295.28,14568.8,-855.128,83.8313,-9.78114,344.194,309.037,-10095.6,-2227.19,-8.08578,-5.22263,65.4844,-7062.18,4181.53,-935.174,-6.02749,118.837,73.0945,-21.956,-9513.59,-1285.57,-13.3706,-20.434,75.3551,8693.38,1678.23,2179.17,46.6952,27.88,12.2546
3.359,12337.6,-3374.4,11005.7,-126.643,284.929,130.455,3780.58,3662.93,8271.99,2.38156,-7.05699,12.9528,1302.3,14645.7,-806.271,84.7262,-8.6271,344.24,306.541,-10097.0,-2239.7,-8.12129,-5.16241,65.5861,-7047.84,4167.76,-853.555,-6.00271,118.03,73.2899,-54.5688,-9537.32,-1268.67,-13.2846,-19.9227,75.4267,8712.44,1673.94,2182.89,46.6756,27.9204,12.1232
3.3595,12430.0,-3354.12,11046.8,-125.482,283.627,130.542,3766.44,3661.21,8251.15,2.34442,-7.18807,12.8935,1309.33,14722.6,-757.414,85.6212,-7.47307,344.287,304.045,-10098.3,-2252.21,-8.15681,-5.10219,65.6879,-7033.49,4153.99,-771.936,-5.97793,117.224,73.4853,-87.1815,-9561.05,-1251.78,-13.1986,-19.4114,75.4983,8731.5,1669.65,2186.6,46.656,27.9609,11.9917
3.36,12522.5,-3333.84,11087.9,-124.322,282.325,130.63,3752.31,3659.5,8230.3,2.30727,-7.31914,12.8343,1316.35,14799.4,-708.557,86.5162,-6.31903,344.333,301.549,-10099.7,-2264.72,-8.19232,-5.04197,65.7897,-7019.15,4140.23,-690.317,-5.95314,116.418,73.6807,-119.794,-9584.78,-1234.88,-13.1126,-18.9001,75.5699,8750.56,1665.35,2190.32,46.6364,28.0013,11.8603
3.3605,12614.6,-3386.6,11112.1,-123.458,281.125,131.051,3747.0,3695.72,8253.01,2.56307,-7.47345,12.9105,1310.05,14875.8,-687.017,87.3583,-5.41628,344.204,293.664,-10105.7,-2269.08,-8.30862,-4.9778,65.8851,-7014.49,4131.9,-593.106,-6.06431,115.559,74.0133,-170.525,-9598.16,-1223.62,-12.9863,-18.4452,75.5073,8773.5,1676.5,2194.5,46.5608,28.0401,11.8066
3.361,12706.7,-3439.35,11136.2,-122.595,279.924,131.471,3741.7,3731.95,8275.72,2.81887,-7.62776,12.9867,1303.74,14952.2,-665.477,88.2003,-4.51353,344.075,285.779,-10111.6,-2273.44,-8.42493,-4.91363,65.9806,-7009.84,4123.57,-495.895,-6.17548,114.7,74.3459,-221.256,-9611.54,-1212.36,-12.86,-17.9902,75.4448,8796.45,1687.65,2198.68,46.4851,28.079,11.7529
3.3615,12798.9,-3492.1,11160.4,-121.731,278.723,131.892,3736.4,3768.18,8298.43,3.07467,-7.78207,13.0629,1297.44,15028.6,-643.937,89.0424,-3.61078,343.946,277.893,-10117.5,-2277.81,-8.54124,-4.84947,66.076,-7005.19,4115.24,-398.685,-6.28665,113.842,74.6785,-271.986,-9624.91,-1201.1,-12.7337,-17.5353,75.3822,8819.39,1698.8,2202.87,46.4094,28.1178,11.6992
3.362,12891.0,-3544.86,11184.5,-120.868,277.523,132.313,3731.1,3804.41,8321.14,3.33047,-7.93638,13.1392,1291.13,15105.0,-622.397,89.8845,-2.70803,343.817,270.008,-10123.4,-2282.17,-8.65754,-4.7853,66.1715,-7000.53,4106.91,-301.474,-6.39782,112.983,75.011,-322.717,-9638.29,-1189.84,-12.6075,-17.0804,75.3197,8842.33,1709.94,2207.05,46.3337,28.1567,11.6455
3.3625,12983.1,-3597.61,11208.7,-120.004,276.322,132.734,3725.8,3840.63,8343.85,3.58626,-8.09069,13.2154,1284.83,15181.3,-600.857,90.7265,-1.80528,343.688,262.122,-10129.3,-2286.53,-8.77385,-4.72113,66.267,-6995.88,4098.59,-204.263,-6.50899,112.124,75.3436,-373.448,-9651.67,-1178.58,-12.4812,-16.6254,75.2571,8865.27,1721.09,2211.23,46.258,28.1955,11.5918
3.363,13075.3,-3650.37,11232.8,-119.141,275.121,133.154,3720.5,3876.86,8366.56,3.84206,-8.245,13.2916,1278.52,15257.7,-579.316,91.5686,-0.902528,343.559,254.237,-10135.3,-2290.89,-8.89016,-4.65696,66.3624,-6991.22,4090.26,-107.053,-6.62016,111.266,75.6762,-424.178,-9665.05,-1167.32,-12.3549,-16.1705,75.1945,8888.21,1732.24,2215.41,46.1823,28.2344,11.5381
3.3635,13167.4,-3703.12,11257.0,-118.277,273.92,133.575,3715.2,3913.09,8389.27,4.09786,-8.39931,13.3678,1272.22,15334.1,-557.776,92.4107,0.000223208,343.43,246.351,-10141.2,-2295.25,-9.00646,-4.59279,66.4579,-6986.57,4081.93,-9.84205,-6.73132,110.407,76.0087,-474.909,-9678.42,-1156.06,-12.2286,-15.7155,75.132,8911.15,1743.38,2219.59,46.1066,28.2732,11.4845
3.364,13259.5,-3755.88,11281.1,-117.413,272.72,133.996,3709.9,3949.32,8411.98,4.35366,-8.55362,13.4441,1265.91,15410.5,-536.236,93.2527,0.902974,343.301,238.466,-10147.1,-2299.61,-9.12277,-4.52863,66.5533,-6981.92,4073.6,87.3686,-6.84249,109.548,76.3413,-525.64,-9691.8,-1144.8,-12.1024,-15.2606,75.0694,8934.09,1754.53,2223.77,46.0309,28.3121,11.4308
3.3645,13352.9,-3811.27,11303.6,-116.565,271.547,134.442,3705.03,3979.61,8433.6,4.6101,-8.70712,13.5117,1257.77,15486.7,-515.018,94.0672,1.80983,343.157,230.318,-10152.6,-2304.03,-9.24356,-4.46298,66.6476,-6976.23,4068.46,182.729,-7.00574,108.713,76.715,-573.552,-9703.96,-1133.52,-11.9825,-14.8105,75.0092,8955.77,1765.01,2227.57,45.9433,28.338,11.3859
3.365,13456.3,-3887.8,11313.3,-115.835,270.594,135.095,3703.65,3962.45,8446.52,4.87172,-8.85408,13.5101,1234.91,15561.8,-496.378,94.6608,2.74953,342.889,220.069,-10154.4,-2308.85,-9.40025,-4.38547,66.7318,-6962.31,4088.83,263.292,-7.58557,108.069,77.4179,-598.915,-9706.37,-1122.07,-11.9138,-14.3987,74.9679,8967.42,1770.12,2228.24,45.7597,28.2608,11.412
3.3655,13559.7,-3964.33,11322.9,-115.106,269.642,135.748,3702.26,3945.3,8459.44,5.13334,-9.00106,13.5085,1212.05,15636.9,-477.737,95.2545,3.68922,342.621,209.821,-10156.3,-2313.68,-9.55693,-4.30796,66.8161,-6948.39,4109.2,343.854,-8.16541,107.424,78.1207,-624.278,-9708.79,-1110.63,-11.8452,-13.987,74.9266,8979.07,1775.23,2228.92,45.5762,28.1837,11.4381
3.366,13663.1,-4040.86,11332.5,-114.376,268.689,136.401,3700.87,3928.14,8472.36,5.39496,-9.14803,13.507,1189.19,15711.9,-459.097,95.8481,4.62892,342.353,199.572,-10158.2,-2318.51,-9.71361,-4.23045,66.9003,-6934.46,4129.56,424.416,-8.74524,106.779,78.8236,-649.641,-9711.2,-1099.19,-11.7765,-13.5752,74.8853,8990.72,1780.35,2229.6,45.3926,28.1065,11.4641
3.3665,13766.5,-4117.39,11342.2,-113.647,267.737,137.054,3699.48,3910.98,8485.28,5.65658,-9.295,13.5054,1166.33,15787.0,-440.457,96.4418,5.56861,342.085,189.324,-10160.0,-2323.33,-9.8703,-4.15295,66.9846,-6920.54,4149.93,504.978,-9.32508,106.134,79.5264,-675.004,-9713.61,-1087.75,-11.7079,-13.1635,74.844,9002.37,1785.46,2230.28,45.2091,28.0293,11.4902
3.367,13869.9,-4193.92,11351.8,-112.917,266.784,137.707,3698.09,3893.82,8498.19,5.9182,-9.44197,13.5039,1143.47,15862.1,-421.816,97.0355,6.50831,341.817,179.075,-10161.9,-2328.16,-10.027,-4.07544,67.0689,-6906.62,4170.29,585.54,-9.90491,105.489,80.2293,-700.368,-9716.03,-1076.31,-11.6393,-12.7517,74.8027,9014.02,1790.57,2230.96,45.0255,27.9521,11.5162
3.3675,13973.3,-4270.45,11361.4,-112.188,265.832,138.36,3696.7,3876.66,8511.11,6.17982,-9.58894,13.5023,1120.6,15937.2,-403.176,97.6291,7.448,341.549,168.827,-10163.8,-2332.99,-10.1837,-3.99793,67.1531,-6892.69,4190.66,666.102,-10.4848,104.844,80.9321,-725.731,-9718.44,-1064.87,-11.5706,-12.34,74.7614,9025.66,1795.69,2231.63,44.842,27.8749,11.5423
3.368,14076.7,-4346.98,11371.1,-111.458,264.879,139.014,3695.31,3859.5,8524.03,6.44144,-9.73591,13.5008,1097.74,16012.2,-384.536,98.2228,8.3877,341.281,158.579,-10165.6,-2337.82,-10.3404,-3.92042,67.2374,-6878.77,4211.03,746.664,-11.0646,104.2,81.635,-751.094,-9720.86,-1053.43,-11.502,-11.9282,74.7201,9037.31,1800.8,2232.31,44.6584,27.7977,11.5683
3.3685,14180.1,-4423.51,11380.7,-110.729,263.927,139.667,3693.93,3842.34,8536.95,6.70306,-9.88288,13.4992,1074.88,16087.3,-365.895,98.8164,9.3274,341.013,148.33,-10167.5,-2342.64,-10.497,-3.84292,67.3216,-6864.85,4231.39,827.226,-11.6444,103.555,82.3378,-776.457,-9723.27,-1041.98,-11.4333,-11.5165,74.6788,9048.96,1805.91,2232.99,44.4749,27.7206,11.5944
3.369,14295.0,-4498.84,11389.5,-110.083,263.099,140.428,3695.75,3824.11,8551.04,6.9994,-10.0447,13.5115,1049.94,16164.8,-352.465,99.4193,10.3145,340.727,139.85,-10167.9,-2350.29,-10.6505,-3.77388,67.4127,-6853.35,4251.22,906.871,-12.3024,103.002,83.04,-802.924,-9729.12,-1031.3,-11.3615,-11.1331,74.6282,9060.08,1807.78,2230.06,44.2998,27.6377,11.6101
3.3695,14450.6,-4569.95,11395.5,-109.731,262.706,141.569,3708.81,3802.09,8569.23,7.4173,-10.2585,13.5723,1017.69,16250.4,-357.27,100.054,11.4674,340.375,137.561,-10163.1,-2367.79,-10.7928,-3.73447,67.5274,-6850.35,4269.14,983.307,-13.2338,102.774,83.74,-833.254,-9746.98,-1023.28,-11.2787,-10.8493,74.545,9069.36,1798.28,2214.53,44.1545,27.5348,11.5893
3.37,14606.2,-4641.07,11401.5,-109.378,262.313,142.71,3721.87,3780.08,8587.42,7.8352,-10.4724,13.633,985.437,16336.1,-362.074,100.689,12.6202,340.023,135.272,-10158.3,-2385.29,-10.9351,-3.69506,67.6422,-6847.35,4287.06,1059.74,-14.1652,102.546,84.44,-863.584,-9764.85,-1015.25,-11.1958,-10.5655,74.4618,9078.63,1788.79,2198.99,44.0091,27.432,11.5686
3.3705,14761.8,-4712.19,11407.4,-109.026,261.92,143.851,3734.94,3758.06,8605.61,8.2531,-10.6862,13.6938,953.187,16421.8,-366.879,101.324,13.7731,339.671,132.983,-10153.6,-2402.79,-11.0774,-3.65566,67.757,-6844.36,4304.99,1136.18,-15.0966,102.317,85.1399,-893.914,-9782.71,-1007.22,-11.113,-10.2816,74.3785,9087.91,1779.29,2183.46,43.8638,27.3291,11.5478
3.371,14917.4,-4783.31,11413.4,-108.674,261.527,144.992,3748.0,3736.04,8623.79,8.67099,-10.9,13.7545,920.938,16507.5,-371.683,101.959,14.926,339.319,130.694,-10148.8,-2420.29,-11.2197,-3.61625,67.8717,-6841.36,4322.91,1212.62,-16.028,102.089,85.8399,-924.244,-9800.58,-999.198,-11.0302,-9.99776,74.2953,9097.19,1769.79,2167.92,43.7184,27.2263,11.5271
3.3715,15073.0,-4854.42,11419.4,-108.321,261.134,146.133,3761.06,3714.03,8641.98,9.08889,-11.1138,13.8153,888.688,16593.2,-376.488,102.594,16.0789,338.967,128.404,-10144.0,-2437.79,-11.362,-3.57684,67.9865,-6838.36,4340.83,1289.05,-16.9594,101.861,86.5399,-954.573,-9818.45,-991.172,-10.9473,-9.71392,74.2121,9106.47,1760.3,2152.38,43.5731,27.1234,11.5064
3.372,15228.5,-4925.54,11425.4,-107.969,260.741,147.274,3774.12,3692.01,8660.17,9.50679,-11.3277,13.8761,856.438,16678.9,-381.293,103.23,17.2318,338.616,126.115,-10139.3,-2455.29,-11.5043,-3.53744,68.1013,-6835.36,4358.76,1365.49,-17.8909,101.632,87.2399,-984.903,-9836.31,-983.146,-10.8645,-9.43007,74.1288,9115.74,1750.8,2136.85,43.4277,27.0206,11.4856
3.3725,15384.1,-4996.66,11431.3,-107.616,260.348,148.415,3787.19,3670.0,8678.36,9.92468,-11.5415,13.9368,824.189,16764.6,-386.097,103.865,18.3847,338.264,123.826,-10134.5,-2472.79,-11.6466,-3.49803,68.2161,-6832.36,4376.68,1441.92,-18.8223,101.404,87.9398,-1015.23,-9854.18,-975.12,-10.7817,-9.14623,74.0456,9125.02,1741.3,2121.31,43.2824,26.9177,11.4649
3.373,15539.7,-5067.77,11437.3,-107.264,259.955,149.556,3800.25,3647.98,8696.55,10.3426,-11.7553,13.9976,791.939,16850.3,-390.902,104.5,19.5376,337.912,121.537,-10129.7,-2490.29,-11.7889,-3.45862,68.3308,-6829.36,4394.6,1518.36,-19.7537,101.176,88.6398,-1045.56,-9872.04,-967.093,-10.6988,-8.86238,73.9623,9134.29,1731.81,2105.77,43.137,26.8149,11.4441
3.3735,15699.6,-5133.06,11451.8,-106.971,259.687,150.848,3811.06,3639.03,8702.04,10.6578,-11.9529,14.013,749.987,16936.2,-407.326,105.097,20.8584,337.579,112.938,-10130.9,-2502.42,-11.9385,-3.48129,68.3999,-6821.29,4408.84,1598.88,-20.738,101.078,89.3118,-1070.69,-9885.37,-951.278,-10.6357,-8.61297,73.9082,9142.57,1718.65,2093.72,43.022,26.7113,11.431
3.374,15867.9,-5186.69,11483.5,-106.796,259.669,152.441,3817.35,3656.21,8682.14,10.7676,-12.118,13.9379,688.631,17022.5,-446.99,105.62,22.5149,337.286,91.7217,-10143.9,-2503.82,-12.1028,-3.62811,68.3775,-6803.06,4415.71,1687.57,-21.8282,101.241,89.9278,-1085.4,-9889.62,-919.885,-10.6121,-8.4324,73.9124,9148.85,1698.16,2088.63,42.9676,26.6061,11.4331
3.3745,16036.2,-5240.31,11515.1,-106.621,259.651,154.034,3823.65,3673.4,8662.24,10.8775,-12.2831,13.8628,627.275,17108.7,-486.653,106.143,24.1715,336.993,70.5049,-10156.8,-2505.22,-12.2671,-3.77494,68.3551,-6784.84,4422.58,1776.26,-22.9183,101.404,90.5438,-1100.12,-9893.87,-888.492,-10.5885,-8.25184,73.9166,9155.12,1677.68,2083.54,42.9132,26.5009,11.4353
3.375,16204.6,-5293.94,11546.7,-106.447,259.632,155.627,3829.95,3690.58,8642.34,10.9873,-12.4482,13.7876,565.92,17195.0,-526.317,106.666,25.8281,336.699,49.2881,-10169.8,-2506.61,-12.4314,-3.92176,68.3327,-6766.62,4429.45,1864.94,-24.0084,101.567,91.1598,-1114.83,-9898.13,-857.099,-10.5649,-8.07128,73.9207,9161.4,1657.2,2078.46,42.8588,26.3958,11.4374
3.3755,16372.9,-5347.56,11578.4,-106.272,259.614,157.22,3836.25,3707.76,8622.44,11.0971,-12.6133,13.7125,504.564,17281.3,-565.98,107.188,27.4846,336.406,28.0713,-10182.8,-2508.01,-12.5957,-4.06858,68.3103,-6748.39,4436.32,1953.63,-25.0986,101.73,91.7759,-1129.55,-9902.38,-825.705,-10.5413,-7.89071,73.9249,9167.67,1636.71,2073.37,42.8044,26.2906,11.4395
3.376,16541.3,-5401.19,11610.0,-106.097,259.596,158.813,3842.55,3724.94,8602.54,11.207,-12.7785,13.6373,443.208,17367.6,-605.644,107.711,29.1412,336.112,6.85453,-10195.7,-2509.41,-12.76,-4.2154,68.288,-6730.17,4443.19,2042.32,-26.1887,101.894,92.3919,-1144.27,-9906.63,-794.312,-10.5177,-7.71015,73.9291,9173.95,1616.23,2068.28,42.75,26.1854,11.4417
3.3765,16709.6,-5454.82,11641.6,-105.922,259.577,160.406,3848.84,3742.13,8582.64,11.3168,-12.9436,13.5622,381.852,17453.8,-645.307,108.234,30.7977,335.819,-14.3623,-10208.7,-2510.8,-12.9243,-4.36222,68.2656,-6711.94,4450.06,2131.01,-27.2789,102.057,93.0079,-1158.98,-9910.88,-762.919,-10.494,-7.52959,73.9333,9180.22,1595.74,2063.19,42.6956,26.0803,11.4438
3.377,16877.9,-5508.44,11673.3,-105.748,259.559,161.999,3855.14,3759.31,8562.74,11.4266,-13.1087,13.487,320.496,17540.1,-684.971,108.757,32.4543,335.525,-35.579,-10221.7,-2512.2,-13.0886,-4.50904,68.2432,-6693.72,4456.92,2219.7,-28.369,102.22,93.6239,-1173.7,-9915.13,-731.526,-10.4704,-7.34902,73.9374,9186.5,1575.26,2058.1,42.6413,25.9751,11.4459
3.3775,17046.3,-5562.07,11704.9,-105.573,259.541,163.592,3861.44,3776.49,8542.84,11.5365,-13.2738,13.4119,259.141,17626.4,-724.634,109.279,34.1108,335.232,-56.7958,-10234.6,-2513.6,-13.2529,-4.65586,68.2208,-6675.49,4463.79,2308.39,-29.4592,102.383,94.2399,-1188.41,-9919.38,-700.132,-10.4468,-7.16846,73.9416,9192.77,1554.77,2053.01,42.5869,25.87,11.4481
3.378,17207.0,-5600.15,11741.5,-105.322,259.534,165.416,3866.03,3803.42,8532.21,11.7553,-13.4053,13.471,199.488,17696.9,-756.893,109.826,35.8718,334.909,-79.7145,-10249.2,-2513.22,-13.3532,-4.80815,68.2434,-6648.12,4478.95,2391.38,-30.5452,102.606,94.7818,-1207.16,-9926.55,-663.231,-10.4215,-7.11332,73.9441,9195.23,1536.07,2051.17,42.5734,25.7871,11.4451
3.3785,17358.2,-5618.79,11784.3,-104.978,259.54,167.529,3868.48,3842.52,8533.17,12.1104,-13.4949,13.6979,141.964,17747.7,-779.895,110.402,37.7633,334.549,-104.761,-10265.8,-2510.62,-13.3734,-4.96728,68.3221,-6609.3,4504.48,2467.26,-31.6262,102.902,95.231,-1230.95,-9937.38,-619.445,-10.3942,-7.21496,73.9445,9192.91,1519.6,2053.4,42.6109,25.7322,11.4359
3.379,17509.3,-5637.43,11827.1,-104.633,259.547,169.642,3870.93,3881.62,8534.13,12.4655,-13.5844,13.9248,84.4398,17798.5,-802.897,110.978,39.6548,334.189,-129.807,-10282.3,-2508.02,-13.3937,-5.1264,68.4008,-6570.48,4530.01,2543.15,-32.7071,103.199,95.6802,-1254.75,-9948.21,-575.659,-10.3668,-7.3166,73.9449,9190.6,1503.13,2055.62,42.6485,25.6773,11.4266
3.3795,17660.5,-5656.07,11870.0,-104.288,259.554,171.754,3873.38,3920.72,8535.09,12.8206,-13.674,14.1517,26.9158,17849.3,-825.899,111.554,41.5463,333.829,-154.853,-10298.9,-2505.42,-13.414,-5.28553,68.4796,-6531.66,4555.54,2619.03,-33.788,103.495,96.1294,-1278.54,-9959.04,-531.872,-10.3394,-7.41825,73.9453,9188.29,1486.66,2057.84,42.6861,25.6223,11.4173
3.38,17811.7,-5674.71,11912.8,-103.943,259.561,173.867,3875.83,3959.82,8536.05,13.1757,-13.7635,14.3786,-30.6082,17900.1,-848.901,112.13,43.4378,333.469,-179.899,-10315.5,-2502.82,-13.4342,-5.44466,68.5583,-6492.84,4581.07,2694.91,-34.8689,103.792,96.5786,-1302.33,-9969.87,-488.086,-10.312,-7.51989,73.9457,9185.97,1470.19,2060.06,42.7237,25.5674,11.4081
3.3805,17962.9,-5693.36,11955.6,-103.599,259.568,175.979,3878.28,3998.93,8537.01,13.5307,-13.8531,14.6056,-88.1322,17950.9,-871.904,112.706,45.3293,333.109,-204.945,-10332.0,-2500.23,-13.4545,-5.60378,68.637,-6454.02,4606.6,2770.79,-35.9499,104.089,97.0278,-1326.12,-9980.69,-444.3,-10.2846,-7.62153,73.9461,9183.66,1453.72,2062.28,42.7613,25.5125,11.3988
3.381,18114.0,-5712.0,11998.4,-103.254,259.575,178.092,3880.73,4038.03,8537.97,13.8858,-13.9427,14.8325,-145.656,18001.7,-894.906,113.282,47.2208,332.749,-229.991,-10348.6,-2497.63,-13.4747,-5.76291,68.7157,-6415.2,4632.12,2846.67,-37.0308,104.385,97.477,-1349.92,-9991.52,-400.514,-10.2573,-7.72317,73.9465,9181.34,1437.24,2064.51,42.7989,25.4576,11.3895
3.3815,18265.2,-5730.64,12041.3,-102.909,259.582,180.205,3883.18,4077.13,8538.92,14.2409,-14.0322,15.0594,-203.18,18052.5,-917.908,113.858,49.1123,332.389,-255.037,-10365.2,-2495.03,-13.495,-5.92204,68.7945,-6376.38,4657.65,2922.55,-38.1117,104.682,97.9262,-1373.71,-10002.3,-356.728,-10.2299,-7.82481,73.9469,9179.03,1420.77,2066.73,42.8365,25.4026,11.3803
3.382,18416.4,-5749.28,12084.1,-102.564,259.588,182.317,3885.63,4116.23,8539.88,14.596,-14.1218,15.2863,-260.704,18103.3,-940.91,114.435,51.0038,332.029,-280.083,-10381.7,-2492.43,-13.5153,-6.08116,68.8732,-6337.56,4683.18,2998.43,-39.1926,104.978,98.3754,-1397.5,-10013.2,-312.942,-10.2025,-7.92645,73.9473,9176.71,1404.3,2068.95,42.8741,25.3477,11.371
3.3825,18547.4,-5766.48,12118.4,-102.102,259.418,184.609,3893.22,4120.54,8541.84,14.873,-14.2504,15.4691,-301.467,18165.2,-961.816,114.944,52.9871,331.756,-307.529,-10400.0,-2484.26,-13.5009,-6.25427,68.9585,-6296.67,4720.47,3072.51,-40.2542,105.106,98.6902,-1424.99,-10026.2,-289.658,-10.2093,-8.07339,73.9465,9177.29,1390.59,2071.29,42.9179,25.2844,11.3154
3.383,18662.2,-5782.51,12145.8,-101.547,259.105,187.043,3904.94,4097.02,8544.6,15.0875,-14.4103,15.6165,-328.821,18236.0,-981.044,115.401,55.0438,331.553,-336.895,-10419.7,-2471.64,-13.4589,-6.43857,69.0491,-6254.12,4767.17,3145.13,-41.3002,105.099,98.8973,-1455.44,-10040.9,-282.777,-10.2434,-8.25656,73.9449,9180.19,1379.08,2073.73,42.9667,25.2142,11.2228
3.3835,18777.1,-5798.55,12173.3,-100.992,258.792,189.477,3916.66,4073.5,8547.36,15.302,-14.5702,15.764,-356.175,18306.8,-1000.27,115.858,57.1005,331.349,-366.261,-10439.3,-2459.02,-13.4169,-6.62287,69.1397,-6211.57,4813.87,3217.76,-42.3463,105.091,99.1045,-1485.89,-10055.7,-275.896,-10.2775,-8.43974,73.9432,9183.09,1367.57,2076.17,43.0155,25.1441,11.1302
3.384,18891.9,-5814.58,12200.7,-100.436,258.479,191.911,3928.37,4049.98,8550.12,15.5165,-14.7301,15.9114,-383.529,18377.6,-1019.5,116.315,59.1572,331.146,-395.626,-10459.0,-2446.4,-13.3749,-6.80717,69.2303,-6169.02,4860.57,3290.38,-43.3923,105.083,99.3117,-1516.33,-10070.4,-269.015,-10.3116,-8.62291,73.9415,9185.98,1356.07,2078.61,43.0643,25.074,11.0375
3.3845,19006.8,-5830.62,12228.2,-99.8808,258.166,194.346,3940.09,4026.46,8552.88,15.731,-14.89,16.0589,-410.883,18448.3,-1038.73,116.772,61.214,330.943,-424.992,-10478.7,-2433.77,-13.3329,-6.99147,69.3209,-6126.47,4907.28,3363.01,-44.4383,105.076,99.5188,-1546.78,-10085.2,-262.133,-10.3457,-8.80608,73.9399,9188.88,1344.56,2081.05,43.1131,25.0039,10.9449
3.385,19121.6,-5846.65,12255.7,-99.3254,257.853,196.78,3951.8,4002.94,8555.64,15.9455,-15.0499,16.2063,-438.237,18519.1,-1057.96,117.229,63.2707,330.739,-454.358,-10498.3,-2421.15,-13.2909,-7.17577,69.4115,-6083.92,4953.98,3435.64,-45.4844,105.068,99.726,-1577.23,-10099.9,-255.252,-10.3798,-8.98926,73.9382,9191.78,1333.05,2083.49,43.1618,24.9338,10.8523
3.3855,19236.5,-5862.69,12283.1,-98.77,257.54,199.214,3963.52,3979.42,8558.4,16.1601,-15.2098,16.3538,-465.591,18589.9,-1077.18,117.686,65.3274,330.536,-483.724,-10518.0,-2408.53,-13.2489,-7.36007,69.5022,-6041.37,5000.68,3508.26,-46.5304,105.061,99.9332,-1607.68,-10114.7,-248.371,-10.4139,-9.17243,73.9365,9194.68,1321.54,2085.93,43.2106,24.8637,10.7596
3.386,19351.3,-5878.72,12310.6,-98.2146,257.227,201.648,3975.23,3955.9,8561.15,16.3746,-15.3697,16.5012,-492.946,18660.7,-1096.41,118.143,67.3841,330.332,-513.089,-10537.6,-2395.91,-13.2069,-7.54437,69.5928,-5998.82,5047.38,3580.89,-47.5764,105.053,100.14,-1638.13,-10129.4,-241.49,-10.448,-9.3556,73.9349,9197.57,1310.04,2088.37,43.2594,24.7936,10.667
3.3865,19466.1,-5894.76,12338.1,-97.6592,256.914,204.083,3986.95,3932.38,8563.91,16.5891,-15.5296,16.6486,-520.3,18731.5,-1115.64,118.599,69.4408,330.129,-542.455,-10557.3,-2383.28,-13.1649,-7.72867,69.6833,-5956.27,5094.08,3653.51,-48.6225,105.046,100.348,-1668.57,-10144.2,-234.609,-10.4821,-9.53878,73.9332,9200.47,1298.53,2090.81,43.3082,24.7235,10.5744
3.387,19559.6,-5944.32,12325.2,-96.9181,256.636,206.657,4000.2,3891.81,8572.73,16.7902,-15.698,16.7385,-519.225,18810.5,-1149.9,119.164,71.6096,329.936,-554.207,-10584.8,-2360.29,-13.0527,-7.91843,69.7883,-5902.59,5133.82,3717.87,-49.5371,104.729,100.455,-1691.68,-10150.0,-237.961,-10.5943,-9.87953,73.8871,9203.23,1282.18,2089.75,43.3588,24.5991,10.4984
3.3875,19642.3,-6010.64,12292.1,-96.0841,256.375,209.301,4014.22,3842.73,8584.57,16.9845,-15.8707,16.7994,-503.937,18893.6,-1191.67,119.782,73.8345,329.748,-557.153,-10616.1,-2332.1,-12.9054,-8.11092,69.9004,-5843.35,5170.07,3778.1,-50.386,104.258,100.512,-1711.11,-10151.3,-246.43,-10.7454,-10.2991,73.8188,9205.93,1263.4,2086.94,43.4103,24.4475,10.4308
3.388,19725.0,-6076.96,12259.1,-95.2501,256.115,211.944,4028.24,3793.65,8596.41,17.1789,-16.0434,16.8604,-488.648,18976.8,-1233.44,120.4,76.0594,329.561,-560.099,-10647.4,-2303.92,-12.7581,-8.30342,70.0126,-5784.11,5206.33,3838.33,-51.235,103.788,100.57,-1730.54,-10152.6,-254.899,-10.8966,-10.7186,73.7505,9208.62,1244.63,2084.14,43.4618,24.2959,10.3632
3.3885,19807.7,-6143.28,12226.0,-94.4161,255.855,214.588,4042.26,3744.57,8608.25,17.3733,-16.216,16.9214,-473.359,19059.9,-1275.21,121.018,78.2843,329.373,-563.044,-10678.8,-2275.73,-12.6108,-8.49591,70.1247,-5724.87,5242.59,3898.56,-52.0839,103.317,100.627,-1749.97,-10153.9,-263.368,-11.0477,-11.1382,73.6822,9211.32,1225.86,2081.33,43.5132,24.1444,10.2957
3.389,19890.4,-6209.6,12192.9,-93.5821,255.594,217.232,4056.28,3695.49,8620.1,17.5677,-16.3887,16.9824,-458.071,19143.1,-1316.98,121.636,80.5092,329.185,-565.99,-10710.1,-2247.55,-12.4635,-8.68841,70.2368,-5665.63,5278.84,3958.79,-52.9329,102.846,100.685,-1769.4,-10155.2,-271.837,-11.1989,-11.5577,73.6139,9214.01,1207.09,2078.53,43.5647,23.9928,10.2281
3.3895,19973.1,-6275.92,12159.9,-92.7481,255.334,219.876,4070.3,3646.41,8631.94,17.762,-16.5614,17.0434,-442.782,19226.2,-1358.75,122.255,82.7341,328.998,-568.935,-10741.5,-2219.36,-12.3162,-8.8809,70.3489,-5606.39,5315.1,4019.02,-53.7818,102.375,100.742,-1788.83,-10156.5,-280.306,-11.3501,-11.9773,73.5456,9216.71,1188.32,2075.72,43.6162,23.8412,10.1605
3.39,20055.8,-6342.23,12126.8,-91.9141,255.074,222.52,4084.32,3597.33,8643.78,17.9564,-16.734,17.1044,-427.493,19309.4,-1400.52,122.873,84.9589,328.81,-571.881,-10772.8,-2191.18,-12.1689,-9.0734,70.4611,-5547.15,5351.36,4079.25,-54.6308,101.904,100.799,-1808.26,-10157.8,-288.775,-11.5012,-12.3968,73.4772,9219.4,1169.54,2072.92,43.6677,23.6897,10.0929
3.3905,20138.5,-6408.55,12093.8,-91.0801,254.813,225.164,4098.34,3548.25,8655.62,18.1508,-16.9067,17.1654,-412.205,19392.5,-1442.29,123.491,87.1838,328.623,-574.827,-10804.1,-2162.99,-12.0216,-9.26589,70.5732,-5487.91,5387.61,4139.48,-55.4797,101.433,100.857,-1827.69,-10159.1,-297.244,-11.6524,-12.8164,73.409,9222.1,1150.77,2070.11,43.7192,23.5381,10.0253
3.391,20221.2,-6474.87,12060.7,-90.2461,254.553,227.808,4112.36,3499.17,8667.46,18.3452,-17.0794,17.2263,-396.916,19475.7,-1484.06,124.109,89.4087,328.435,-577.772,-10835.5,-2134.81,-11.8743,-9.45839,70.6853,-5428.67,5423.87,4199.7,-56.3286,100.962,100.914,-1847.12,-10160.3,-305.713,-11.8036,-13.2359,73.3406,9224.79,1132.0,2067.31,43.7707,23.3865,9.95772
3.3915,20261.6,-6568.49,12038.1,-89.5082,254.053,230.473,4116.92,3478.0,8673.05,18.4783,-17.3234,17.2069,-375.127,19555.1,-1558.26,124.84,91.8357,328.171,-586.814,-10857.2,-2104.09,-11.6916,-9.61038,70.7326,-5378.64,5454.07,4236.24,-56.9243,100.037,100.885,-1863.52,-10176.0,-308.124,-11.9373,-13.7016,73.358,9217.47,1119.75,2068.09,43.8706,23.2146,9.89909
3.392,20289.9,-6669.91,12018.5,-88.7977,253.484,233.145,4118.76,3464.82,8676.85,18.594,-17.5878,17.1645,-351.48,19633.5,-1641.71,125.602,94.3205,327.886,-597.597,-10876.1,-2072.65,-11.4988,-9.7508,70.7614,-5331.23,5482.54,4266.0,-57.4477,98.9828,100.83,-1879.05,-10195.7,-308.803,-12.066,-14.1804,73.3997,9207.28,1109.37,2069.9,43.9844,23.0368,9.84302
3.3925,20318.2,-6771.33,11998.9,-88.0873,252.916,235.816,4120.61,3451.63,8680.65,18.7097,-17.8523,17.1221,-327.834,19711.8,-1725.17,126.365,96.8053,327.601,-608.38,-10895.0,-2041.21,-11.306,-9.89121,70.7902,-5283.83,5511.01,4295.76,-57.971,97.9284,100.775,-1894.57,-10215.4,-309.482,-12.1948,-14.6592,73.4415,9197.09,1098.99,2071.71,44.0981,22.859,9.78695
3.393,20346.5,-6872.74,11979.3,-87.3768,252.348,238.488,4122.46,3438.44,8684.45,18.8253,-18.1167,17.0797,-304.187,19790.2,-1808.63,127.127,99.2901,327.316,-619.163,-10914.0,-2009.77,-11.1132,-10.0316,70.819,-5236.43,5539.47,4325.53,-58.4944,96.8739,100.721,-1910.1,-10235.1,-310.161,-12.3235,-15.138,73.4833,9186.91,1088.61,2073.52,44.2119,22.6813,9.73088
3.3935,20374.8,-6974.16,11959.7,-86.6664,251.779,241.16,4124.31,3425.26,8688.25,18.941,-18.3811,17.0373,-280.54,19868.5,-1892.09,127.89,101.775,327.031,-629.946,-10932.9,-1978.33,-10.9203,-10.172,70.8478,-5189.03,5567.94,4355.29,-59.0177,95.8194,100.666,-1925.63,-10254.8,-310.841,-12.4522,-15.6168,73.525,9176.72,1078.23,2075.33,44.3256,22.5035,9.67481
3.394,20403.1,-7075.58,11940.0,-85.956,251.211,243.831,4126.16,3412.07,8692.05,19.0566,-18.6455,16.9949,-256.893,19946.9,-1975.55,128.652,104.26,326.745,-640.729,-10951.8,-1946.89,-10.7275,-10.3125,70.8766,-5141.62,5596.41,4385.05,-59.5411,94.7649,100.611,-1941.16,-10274.5,-311.52,-12.581,-16.0956,73.5668,9166.53,1067.85,2077.14,44.4394,22.3257,9.61874
3.3945,20431.4,-7176.99,11920.4,-85.2455,250.642,246.503,4128.01,3398.88,8695.86,19.1723,-18.91,16.9524,-233.247,20025.2,-2059.0,129.415,106.744,326.46,-651.512,-10970.8,-1915.45,-10.5347,-10.4529,70.9055,-5094.22,5624.88,4414.81,-60.0644,93.7104,100.557,-1956.69,-10294.2,-312.199,-12.7097,-16.5744,73.6086,9156.34,1057.47,2078.95,44.5531,22.148,9.56267
3.395,20459.6,-7278.41,11900.8,-84.5351,250.074,249.175,4129.86,3385.7,8699.66,19.288,-19.1744,16.91,-209.6,20103.6,-2142.46,130.177,109.229,326.175,-662.295,-10989.7,-1884.01,-10.3419,-10.5933,70.9343,-5046.82,5653.35,4444.58,-60.5878,92.656,100.502,-1972.22,-10313.9,-312.878,-12.8385,-17.0533,73.6504,9146.15,1047.09,2080.76,44.6669,21.9702,9.5066
3.3955,20487.9,-7379.83,11881.2,-83.8246,249.506,251.846,4131.71,3372.51,8703.46,19.4036,-19.4388,16.8676,-185.953,20181.9,-2225.92,130.94,111.714,325.89,-673.078,-11008.6,-1852.57,-10.1491,-10.7337,70.9631,-4999.42,5681.81,4474.34,-61.1111,91.6015,100.447,-1987.75,-10333.6,-313.558,-12.9672,-17.5321,73.6921,9135.96,1036.71,2082.57,44.7806,21.7924,9.45053
3.396,20477.9,-7452.98,11853.5,-83.0127,248.735,254.425,4144.81,3368.73,8702.19,19.6671,-19.6498,16.7789,-179.933,20258.6,-2325.11,131.651,114.237,325.634,-663.721,-11005.3,-1818.16,-9.95339,-10.9302,70.9466,-4960.7,5716.4,4490.21,-61.322,90.1023,100.202,-2004.13,-10340.8,-313.852,-13.0319,-18.0821,73.693,9139.85,1026.89,2078.99,44.8687,21.6355,9.35942
3.3965,20463.0,-7522.61,11824.9,-82.1881,247.94,256.992,4159.33,3366.12,8700.28,19.949,-19.8541,16.6843,-176.115,20335.0,-2426.27,132.357,116.765,325.381,-651.847,-10999.1,-1783.37,-9.75737,-11.1338,70.9244,-4923.07,5751.75,4504.33,-61.4939,88.5475,99.9326,-2020.62,-10346.4,-314.099,-13.0886,-18.6411,73.6888,9145.49,1017.14,2074.73,44.9535,21.4811,9.26393
3.397,20448.1,-7592.23,11796.2,-81.3635,247.144,259.559,4173.84,3363.52,8698.38,20.2309,-20.0583,16.5898,-172.297,20411.4,-2527.42,133.062,119.293,325.129,-639.972,-10993.0,-1748.58,-9.56135,-11.3373,70.9023,-4885.45,5787.11,4518.46,-61.6658,86.9928,99.6635,-2037.11,-10352.1,-314.345,-13.1453,-19.2001,73.6845,9151.13,1007.39,2070.48,45.0384,21.3268,9.16844
3.3975,20433.2,-7661.85,11767.6,-80.5388,246.349,262.126,4188.36,3360.91,8696.47,20.5129,-20.2626,16.4952,-168.48,20487.9,-2628.58,133.767,121.821,324.877,-628.098,-10986.9,-1713.79,-9.36532,-11.5408,70.8801,-4847.82,5822.46,4532.59,-61.8377,85.438,99.3943,-2053.6,-10357.8,-314.592,-13.202,-19.7591,73.6803,9156.78,997.637,2066.22,45.1232,21.1725,9.07294
3.398,20418.4,-7731.48,11738.9,-79.7142,245.554,264.693,4202.88,3358.31,8694.57,20.7948,-20.4669,16.4007,-164.662,20564.3,-2729.74,134.473,124.349,324.624,-616.224,-10980.7,-1679.0,-9.1693,-11.7443,70.858,-4810.19,5857.81,4546.72,-62.0096,83.8832,99.1251,-2070.09,-10363.4,-314.839,-13.2587,-20.318,73.676,9162.42,987.885,2061.97,45.2081,21.0181,8.97745
3.3985,20403.5,-7801.1,11710.2,-78.8896,244.758,267.26,4217.39,3355.7,8692.67,21.0767,-20.6712,16.3061,-160.844,20640.7,-2830.89,135.178,126.877,324.372,-604.35,-10974.6,-1644.21,-8.97328,-11.9479,70.8358,-4772.56,5893.16,4560.85,-62.1814,82.3285,98.8559,-2086.59,-10369.1,-315.085,-13.3153,-20.877,73.6718,9168.06,978.133,2057.71,45.2929,20.8638,8.88196
3.399,20388.6,-7870.72,11681.6,-78.065,243.963,269.827,4231.91,3353.1,8690.76,21.3586,-20.8754,16.2116,-157.027,20717.1,-2932.05,135.884,129.404,324.12,-592.475,-10968.4,-1609.42,-8.77726,-12.1514,70.8137,-4734.94,5928.51,4574.98,-62.3533,80.7737,98.5868,-2103.08,-10374.7,-315.332,-13.372,-21.436,73.6675,9173.7,968.381,2053.46,45.3778,20.7094,8.78647
3.3995,20373.7,-7940.35,11652.9,-77.2404,243.167,272.394,4246.42,3350.49,8688.86,21.6406,-21.0797,16.117,-153.209,20793.5,-3033.2,136.589,131.932,323.868,-580.601,-10962.3,-1574.63,-8.58123,-12.3549,70.7915,-4697.31,5963.87,4589.11,-62.5252,79.219,98.3176,-2119.57,-10380.4,-315.578,-13.4287,-21.995,73.6633,9179.35,958.629,2049.2,45.4626,20.5551,8.69098
3.4,20358.9,-8009.97,11624.3,-76.4157,242.372,274.962,4260.94,3347.88,8686.95,21.9225,-21.284,16.0225,-149.391,20870.0,-3134.36,137.294,134.46,323.615,-568.727,-10956.2,-1539.84,-8.38521,-12.5584,70.7694,-4659.68,5999.22,4603.24,-62.6971,77.6642,98.0484,-2136.06,-10386.1,-315.825,-13.4854,-22.554,73.659,9184.99,948.877,2044.95,45.5475,20.4008,8.59548
3.4005,20359.4,-8013.37,11565.0,-75.5458,241.429,277.533,4244.36,3358.74,8699.9,21.9942,-21.5977,16.0318,-188.052,20943.2,-3203.32,137.803,136.956,323.258,-578.434,-10958.4,-1512.58,-8.2913,-12.6974,70.8095,-4608.16,6048.98,4606.47,-62.5186,75.9255,97.4231,-2140.32,-10398.0,-313.792,-13.4592,-23.0951,73.592,9171.42,923.806,2036.44,45.6801,20.2929,8.44905
3.401,20359.9,-8016.78,11505.7,-74.6759,240.486,280.105,4227.78,3369.6,8712.84,22.0658,-21.9115,16.0411,-226.712,21016.4,-3272.28,138.311,139.452,322.901,-588.14,-10960.7,-1485.33,-8.19738,-12.8363,70.8495,-4556.64,6098.73,4609.71,-62.3402,74.1868,96.7978,-2144.58,-10410.0,-311.758,-13.433,-23.6363,73.525,9157.84,898.734,2027.93,45.8127,20.1851,8.30262
3.4015,20360.5,-8020.18,11446.4,-73.8059,239.543,282.677,4211.2,3380.46,8725.78,22.1375,-22.2253,16.0504,-265.373,21089.6,-3341.25,138.819,141.948,322.544,-597.846,-10963.0,-1458.08,-8.10346,-12.9753,70.8896,-4505.13,6148.49,4612.95,-62.1618,72.448,96.1725,-2148.85,-10421.9,-309.725,-13.4068,-24.1775,73.4579,9144.27,873.663,2019.42,45.9454,20.0773,8.15619
3.402,20361.0,-8023.58,11387.2,-72.936,238.6,285.249,4194.62,3391.31,8738.72,22.2092,-22.539,16.0598,-304.034,21162.8,-3410.21,139.327,144.444,322.187,-607.553,-10965.2,-1430.83,-8.00955,-13.1142,70.9297,-4453.61,6198.25,4616.18,-61.9834,70.7093,95.5472,-2153.11,-10433.8,-307.692,-13.3806,-24.7187,73.3909,9130.69,848.592,2010.91,46.078,19.9695,8.00976
3.4025,20361.5,-8026.99,11327.9,-72.066,237.657,287.821,4178.04,3402.17,8751.66,22.2809,-22.8528,16.0691,-342.694,21235.9,-3479.17,139.835,146.94,321.83,-617.26,-10967.5,-1403.58,-7.91563,-13.2531,70.9697,-4402.09,6248.01,4619.42,-61.8049,68.9706,94.922,-2157.37,-10445.8,-305.659,-13.3544,-25.2599,73.3239,9117.12,823.521,2002.4,46.2106,19.8616,7.86333
3.403,20362.1,-8030.39,11268.6,-71.1961,236.714,290.393,4161.47,3413.03,8764.61,22.3525,-23.1665,16.0784,-381.355,21309.1,-3548.14,140.344,149.436,321.474,-626.966,-10969.7,-1376.33,-7.82172,-13.3921,71.0098,-4350.57,6297.77,4622.66,-61.6265,67.2319,94.2967,-2161.63,-10457.7,-303.626,-13.3282,-25.801,73.2568,9103.55,798.449,1993.89,46.3433,19.7538,7.7169
3.4035,20362.6,-8033.79,11209.4,-70.3261,235.771,292.965,4144.89,3423.88,8777.55,22.4242,-23.4803,16.0877,-420.015,21382.3,-3617.1,140.852,151.932,321.117,-636.673,-10972.0,-1349.08,-7.7278,-13.531,71.0499,-4299.05,6347.52,4625.89,-61.4481,65.4932,93.6714,-2165.9,-10469.7,-301.593,-13.302,-26.3422,73.1898,9089.97,773.378,1985.38,46.4759,19.646,7.57047
3.404,20363.2,-8037.2,11150.1,-69.4562,234.828,295.537,4128.31,3434.74,8790.49,22.4959,-23.794,16.097,-458.676,21455.5,-3686.06,141.36,154.428,320.76,-646.379,-10974.3,-1321.82,-7.63389,-13.6699,71.09,-4247.53,6397.28,4629.13,-61.2697,63.7544,93.0461,-2170.16,-10481.6,-299.56,-13.2758,-26.8834,73.1227,9076.4,748.306,1976.87,46.6085,19.5382,7.42404
3.4045,20366.2,-8035.1,11088.9,-68.5984,233.852,298.084,4111.81,3445.83,8804.09,22.5799,-24.1053,16.1151,-497.701,21525.7,-3750.63,141.851,156.917,320.371,-654.914,-10977.6,-1298.95,-7.52907,-13.808,71.135,-4197.56,6448.46,4630.33,-61.0664,62.0249,92.3895,-2171.5,-10493.1,-297.945,-13.2415,-27.4234,73.0587,9062.17,725.336,1968.35,46.7435,19.4303,7.28038
3.405,20389.1,-7988.98,11012.3,-67.8382,232.613,300.439,4095.98,3458.82,8822.93,22.7629,-24.3971,16.2026,-539.643,21571.1,-3780.05,142.202,159.358,319.725,-654.074,-10989.5,-1311.05,-7.33708,-13.9386,71.2201,-4159.98,6510.98,4615.21,-60.6647,60.3683,91.4831,-2149.49,-10500.9,-299.681,-13.1423,-27.9541,73.019,9042.75,719.17,1959.69,46.8969,19.3221,7.15881
3.4055,20412.1,-7942.87,10935.7,-67.078,231.373,302.793,4080.15,3471.81,8841.78,22.9459,-24.6888,16.2902,-581.585,21616.6,-3809.47,142.554,161.798,319.08,-653.233,-11001.4,-1323.16,-7.14509,-14.0692,71.3051,-4122.4,6573.51,4600.1,-60.2629,58.7118,90.5766,-2127.49,-10508.6,-301.416,-13.0431,-28.4847,72.9793,9023.33,713.005,1951.04,47.0504,19.2139,7.03725
3.406,20435.0,-7896.76,10859.1,-66.3178,230.134,305.148,4064.32,3484.81,8860.63,23.1289,-24.9806,16.3778,-623.527,21662.1,-3838.89,142.906,164.239,318.435,-652.393,-11013.2,-1335.27,-6.9531,-14.1998,71.3902,-4084.82,6636.03,4584.98,-59.8611,57.0553,89.6702,-2105.48,-10516.4,-303.151,-12.9439,-29.0154,72.9396,9003.92,706.84,1942.39,47.2038,19.1056,6.91569
3.4065,20458.0,-7850.65,10782.5,-65.5576,228.895,307.503,4048.49,3497.8,8879.47,23.3118,-25.2724,16.4654,-665.47,21707.6,-3868.31,143.257,166.679,317.79,-651.553,-11025.1,-1347.37,-6.76111,-14.3305,71.4752,-4047.24,6698.56,4569.87,-59.4593,55.3987,88.7637,-2083.47,-10524.1,-304.887,-12.8447,-29.546,72.8999,8984.49,700.674,1933.73,47.3573,18.9974,6.79412
3.407,20481.0,-7804.54,10705.9,-64.7974,227.655,309.857,4032.66,3510.79,8898.32,23.4948,-25.5641,16.553,-707.412,21753.1,-3897.73,143.609,169.12,317.144,-650.713,-11037.0,-1359.48,-6.56912,-14.4611,71.5603,-4009.66,6761.08,4554.76,-59.0575,53.7422,87.8573,-2061.46,-10531.9,-306.622,-12.7455,-30.0767,72.8601,8965.07,694.509,1925.08,47.5107,18.8892,6.67256
3.4075,20503.9,-7758.42,10629.3,-64.0372,226.416,312.212,4016.83,3523.78,8917.16,23.6778,-25.8559,16.6405,-749.354,21798.5,-3927.16,143.96,171.56,316.499,-649.873,-11048.9,-1371.58,-6.37713,-14.5917,71.6453,-3972.08,6823.61,4539.64,-58.6558,52.0857,86.9508,-2039.45,-10539.6,-308.358,-12.6464,-30.6073,72.8204,8945.65,688.344,1916.43,47.6641,18.781,6.551
3.408,20526.9,-7712.31,10552.7,-63.277,225.177,314.566,4001.0,3536.77,8936.01,23.8608,-26.1476,16.7281,-791.296,21844.0,-3956.58,144.312,174.001,315.854,-649.033,-11060.7,-1383.69,-6.18514,-14.7224,71.7304,-3934.5,6886.13,4524.53,-58.254,50.4292,86.0444,-2017.44,-10547.4,-310.093,-12.5472,-31.138,72.7807,8926.23,682.178,1907.77,47.8176,18.6728,6.42943
3.4085,20549.8,-7666.2,10476.2,-62.5168,223.937,316.921,3985.17,3549.76,8954.86,24.0438,-26.4394,16.8157,-833.238,21889.5,-3986.0,144.663,176.441,315.209,-648.193,-11072.6,-1395.8,-5.99315,-14.853,71.8154,-3896.91,6948.66,4509.41,-57.8522,48.7726,85.1379,-1995.43,-10555.1,-311.828,-12.448,-31.6686,72.741,8906.81,676.013,1899.12,47.971,18.5646,6.30787
3.409,20580.3,-7626.86,10400.9,-61.702,222.685,319.189,3969.71,3560.17,8969.26,24.2021,-26.776,16.8708,-879.725,21929.8,-4012.32,144.991,178.802,314.58,-641.897,-11090.3,-1407.64,-5.77842,-14.9643,71.9005,-3858.27,7014.78,4496.63,-57.439,47.133,84.1966,-1976.32,-10562.1,-314.239,-12.3432,-32.2003,72.7028,8890.52,668.684,1888.62,48.11,18.4826,6.1836
3.4095,20637.4,-7611.22,10330.5,-60.6961,221.386,321.158,3955.55,3561.53,8968.11,24.2741,-27.2698,16.812,-942.12,21952.0,-4027.78,145.236,180.886,314.009,-616.51,-11128.2,-1418.55,-5.48411,-15.0082,71.9855,-3815.91,7093.52,4492.02,-56.9856,45.5524,83.1334,-1967.35,-10566.4,-319.011,-12.2187,-32.7356,72.6701,8885.17,657.284,1871.64,48.1985,18.4928,6.04985
3.41,20694.4,-7595.59,10260.1,-59.6903,220.087,323.126,3941.38,3562.9,8966.96,24.3461,-27.7636,16.7532,-1004.51,21974.1,-4043.25,145.481,182.969,313.438,-591.122,-11166.1,-1429.47,-5.1898,-15.052,72.0706,-3773.54,7172.25,4487.42,-56.5322,43.9718,82.0701,-1958.37,-10570.7,-323.783,-12.0942,-33.2709,72.6374,8879.83,645.884,1854.65,48.287,18.5029,5.9161
3.4105,20751.5,-7579.95,10189.7,-58.6845,218.788,325.094,3927.21,3564.26,8965.82,24.4181,-28.2574,16.6945,-1066.91,21996.3,-4058.71,145.726,185.052,312.867,-565.735,-11204.0,-1440.38,-4.8955,-15.0959,72.1557,-3731.18,7250.99,4482.81,-56.0788,42.3913,81.0068,-1949.4,-10574.9,-328.555,-11.9697,-33.8062,72.6048,8874.48,634.483,1837.67,48.3755,18.513,5.78235
3.411,20808.5,-7564.32,10119.3,-57.6787,217.489,327.062,3913.04,3565.63,8964.67,24.4901,-28.7511,16.6357,-1129.3,22018.4,-4074.18,145.97,187.135,312.296,-540.347,-11241.9,-1451.29,-4.60119,-15.1397,72.2407,-3688.81,7329.73,4478.21,-55.6254,40.8107,79.9436,-1940.43,-10579.2,-333.327,-11.8451,-34.3414,72.5721,8869.14,623.083,1820.69,48.4639,18.5231,5.6486
3.4115,20865.6,-7548.68,10048.9,-56.6729,216.191,329.03,3898.87,3567.0,8963.52,24.5621,-29.2449,16.5769,-1191.7,22040.6,-4089.64,146.215,189.218,311.725,-514.96,-11279.8,-1462.21,-4.30688,-15.1836,72.3258,-3646.45,7408.46,4473.6,-55.172,39.2301,78.8803,-1931.46,-10583.5,-338.1,-11.7206,-34.8767,72.5394,8863.79,611.683,1803.71,48.5524,18.5332,5.51485
3.412,20922.6,-7533.05,9978.47,-55.6671,214.892,330.999,3884.71,3568.36,8962.38,24.6341,-29.7387,16.5182,-1254.09,22062.8,-4105.11,146.46,191.301,311.154,-489.572,-11317.7,-1473.12,-4.01257,-15.2274,72.4109,-3604.09,7487.2,4469.0,-54.7186,37.6495,77.817,-1922.48,-10587.8,-342.872,-11.5961,-35.412,72.5067,8858.44,600.283,1786.73,48.6409,18.5433,5.38109
3.4125,20979.7,-7517.41,9908.06,-54.6613,213.593,332.967,3870.54,3569.73,8961.23,24.7061,-30.2324,16.4594,-1316.49,22084.9,-4120.57,146.705,193.384,310.582,-464.184,-11355.6,-1484.04,-3.71827,-15.2713,72.4959,-3561.72,7565.93,4464.39,-54.2652,36.069,76.7537,-1913.51,-10592.1,-347.644,-11.4716,-35.9473,72.474,8853.1,588.882,1769.75,48.7294,18.5534,5.24734
3.413,21036.7,-7501.78,9837.65,-53.6554,212.294,334.935,3856.37,3571.1,8960.08,24.7781,-30.7262,16.4006,-1378.88,22107.1,-4136.04,146.95,195.467,310.011,-438.797,-11393.5,-1494.95,-3.42396,-15.3151,72.581,-3519.36,7644.67,4459.78,-53.8118,34.4884,75.6905,-1904.54,-10596.3,-352.416,-11.3471,-36.4826,72.4413,8847.75,577.482,1752.76,48.8179,18.5635,5.11359
3.4135,21096.0,-7498.31,9770.18,-52.6454,210.955,336.868,3847.93,3577.55,8961.63,24.8447,-31.208,16.3953,-1436.18,22115.6,-4153.52,147.232,197.511,309.429,-419.165,-11418.3,-1499.61,-3.14534,-15.3577,72.6657,-3475.14,7726.74,4456.68,-53.3813,32.9151,74.5958,-1892.25,-10603.6,-352.967,-11.2147,-36.9895,72.4123,8843.52,572.045,1738.19,48.8884,18.5631,4.95029
3.414,21160.0,-7519.2,9708.6,-51.6269,209.534,338.731,3850.93,3594.16,8968.57,24.9003,-31.6656,16.4967,-1483.27,22096.9,-4175.02,147.589,199.478,308.824,-411.044,-11416.7,-1491.77,-2.89812,-15.3979,72.7497,-3427.2,7815.49,4456.59,-52.9962,31.3566,73.4385,-1873.34,-10617.0,-345.076,-11.0664,-37.4398,72.3909,8841.52,578.534,1728.44,48.9229,18.5418,4.72787
3.4145,21223.9,-7540.09,9647.02,-50.6085,208.114,340.594,3853.94,3610.78,8975.5,24.9559,-32.1233,16.5982,-1530.37,22078.3,-4196.53,147.946,201.444,308.219,-402.923,-11415.1,-1483.94,-2.65089,-15.438,72.8337,-3379.26,7904.25,4456.5,-52.6112,29.7981,72.2812,-1854.43,-10630.3,-337.185,-10.9182,-37.89,72.3695,8839.52,585.023,1718.7,48.9575,18.5205,4.50546
3.415,21287.8,-7560.98,9585.44,-49.59,206.693,342.458,3856.95,3627.4,8982.44,25.0115,-32.581,16.6996,-1577.46,22059.6,-4218.03,148.303,203.411,307.614,-394.802,-11413.5,-1476.1,-2.40366,-15.4782,72.9177,-3331.32,7993.0,4456.41,-52.2262,28.2395,71.1238,-1835.52,-10643.6,-329.294,-10.7699,-38.3403,72.348,8837.52,591.512,1708.95,48.9921,18.4992,4.28304
3.4155,21351.7,-7581.86,9523.86,-48.5715,205.273,344.321,3859.95,3644.01,8989.38,25.0671,-33.0387,16.8011,-1624.56,22040.9,-4239.54,148.66,205.377,307.009,-386.681,-11411.9,-1468.26,-2.15643,-15.5184,73.0018,-3283.38,8081.75,4456.32,-51.8412,26.681,69.9664,-1816.61,-10656.9,-321.403,-10.6216,-38.7905,72.3266,8835.53,598.001,1699.2,49.0266,18.4779,4.06063
3.416,21415.7,-7602.75,9462.28,-47.553,203.852,346.184,3862.96,3660.63,8996.32,25.1227,-33.4964,16.9025,-1671.65,22022.2,-4261.04,149.017,207.343,306.404,-378.56,-11410.3,-1460.42,-1.90921,-15.5585,73.0858,-3235.44,8170.5,4456.23,-51.4562,25.1224,68.8091,-1797.7,-10670.2,-313.512,-10.4733,-39.2407,72.3051,8833.53,604.49,1689.45,49.0612,18.4566,3.83822
3.4165,21479.6,-7623.64,9400.7,-46.5345,202.432,348.047,3865.97,3677.25,9003.25,25.1783,-33.9541,17.004,-1718.75,22003.5,-4282.55,149.375,209.31,305.799,-370.44,-11408.7,-1452.58,-1.66198,-15.5987,73.1698,-3187.5,8259.25,4456.13,-51.0712,23.5639,67.6517,-1778.78,-10683.5,-305.621,-10.3251,-39.691,72.2837,8831.53,610.979,1679.7,49.0957,18.4353,3.6158
3.417,21543.5,-7644.53,9339.12,-45.5161,201.012,349.91,3868.97,3693.86,9010.19,25.2339,-34.4118,17.1054,-1765.84,21984.9,-4304.05,149.732,211.276,305.194,-362.319,-11407.1,-1444.74,-1.41475,-15.6389,73.2538,-3139.56,8348.01,4456.04,-50.6862,22.0053,66.4944,-1759.87,-10696.9,-297.73,-10.1768,-40.1412,72.2623,8829.53,617.469,1669.95,49.1303,18.414,3.39339
3.4175,21607.4,-7665.41,9277.54,-44.4976,199.591,351.773,3871.98,3710.48,9017.13,25.2895,-34.8694,17.2069,-1812.94,21966.2,-4325.56,150.089,213.242,304.589,-354.198,-11405.5,-1436.9,-1.16752,-15.679,73.3378,-3091.62,8436.76,4455.95,-50.3012,20.4468,65.337,-1740.96,-10710.2,-289.839,-10.0285,-40.5915,72.2408,8827.53,623.958,1660.2,49.1649,18.3927,3.17097
3.418,21679.8,-7688.35,9215.32,-43.4511,198.159,353.463,3874.35,3736.03,9030.79,25.3206,-35.3482,17.294,-1867.73,21934.7,-4359.81,150.597,215.187,303.955,-344.453,-11407.4,-1448.07,-0.924385,-15.6012,73.4798,-3037.35,8526.94,4452.16,-49.9841,18.9118,64.204,-1724.77,-10724.6,-282.485,-9.90993,-40.9759,72.217,8823.48,630.586,1654.83,49.1681,18.371,2.92909
3.4185,21762.6,-7713.85,9152.29,-42.3695,196.713,354.937,3875.94,3772.74,9052.87,25.3211,-35.8533,17.3632,-1932.14,21887.4,-4410.01,151.295,217.105,303.284,-332.679,-11413.8,-1483.0,-0.686357,-15.3759,73.6944,-2975.15,8618.9,4443.74,-49.7519,17.4062,63.1012,-1711.97,-10740.4,-275.801,-9.82841,-41.2782,72.1904,8816.85,637.39,1654.92,49.1322,18.3489,2.66287
3.419,21845.4,-7739.35,9089.25,-41.2879,195.267,356.41,3877.53,3809.45,9074.94,25.3217,-36.3585,17.4324,-1996.55,21840.0,-4460.21,151.993,219.022,302.614,-320.905,-11420.2,-1517.94,-0.44833,-15.1506,73.909,-2912.96,8710.86,4435.33,-49.5196,15.9007,61.9985,-1699.18,-10756.3,-269.118,-9.7469,-41.5805,72.1637,8810.22,644.193,1655.01,49.0964,18.3267,2.39665
3.4195,21928.3,-7764.85,9026.22,-40.2063,193.821,357.884,3879.11,3846.16,9097.02,25.3222,-36.8636,17.5016,-2060.96,21792.6,-4510.41,152.691,220.94,301.943,-309.13,-11426.6,-1552.87,-0.210302,-14.9252,74.1235,-2850.76,8802.82,4426.91,-49.2873,14.3951,60.8958,-1686.38,-10772.1,-262.434,-9.66539,-41.8828,72.137,8803.59,650.997,1655.1,49.0605,18.3046,2.13042
3.42,22011.1,-7790.35,8963.19,-39.1247,192.374,359.358,3880.7,3882.87,9119.09,25.3227,-37.3687,17.5708,-2125.36,21745.3,-4560.6,153.389,222.857,301.273,-297.356,-11433.0,-1587.8,0.027726,-14.6999,74.3381,-2788.57,8894.78,4418.5,-49.0551,12.8896,59.793,-1673.59,-10787.9,-255.751,-9.58388,-42.1851,72.1103,8796.97,657.8,1655.19,49.0246,18.2824,1.8642
3.4205,22093.9,-7815.84,8900.15,-38.0431,190.928,360.831,3882.29,3919.58,9141.17,25.3232,-37.8739,17.64,-2189.77,21697.9,-4610.8,154.087,224.775,300.602,-285.581,-11439.4,-1622.73,0.265754,-14.4746,74.5527,-2726.38,8986.74,4410.08,-48.8228,11.384,58.6903,-1660.79,-10803.8,-249.067,-9.50236,-42.4874,72.0836,8790.34,664.603,1655.29,48.9888,18.2603,1.59798
3.421,22176.7,-7841.34,8837.12,-36.9615,189.482,362.305,3883.87,3956.29,9163.24,25.3237,-38.379,17.7092,-2254.18,21650.5,-4661.0,154.785,226.692,299.931,-273.807,-11445.8,-1657.67,0.503782,-14.2493,74.7672,-2664.18,9078.71,4401.66,-48.5906,9.8785,57.5876,-1648.0,-10819.6,-242.383,-9.42085,-42.7897,72.0569,8783.71,671.407,1655.38,48.9529,18.2381,1.33176
3.4215,22259.6,-7866.84,8774.08,-35.8799,188.036,363.779,3885.46,3993.01,9185.32,25.3242,-38.8841,17.7784,-2318.59,21603.1,-4711.19,155.483,228.61,299.261,-262.033,-11452.2,-1692.6,0.741809,-14.024,74.9818,-2601.99,9170.67,4393.25,-48.3583,8.37295,56.4848,-1635.2,-10835.4,-235.7,-9.33934,-43.0919,72.0302,8777.08,678.21,1655.47,48.917,18.216,1.06554
3.422,22342.4,-7892.34,8711.05,-34.7983,186.59,365.252,3887.04,4029.72,9207.39,25.3247,-39.3893,17.8476,-2383.0,21555.8,-4761.39,156.181,230.527,298.59,-250.258,-11458.6,-1727.53,0.979837,-13.7986,75.1964,-2539.79,9262.63,4384.83,-48.126,6.8674,55.3821,-1622.41,-10851.3,-229.016,-9.25782,-43.3942,72.0035,8770.46,685.013,1655.56,48.8811,18.1938,0.799319
3.4225,22412.2,-7888.79,8653.07,-33.7218,185.185,366.604,3878.74,4042.5,9207.15,25.3584,-39.8687,17.8666,-2463.33,21510.3,-4826.8,156.957,232.437,297.822,-239.39,-11453.3,-1742.1,1.09786,-13.5052,75.3565,-2480.16,9358.42,4381.91,-48.014,5.51692,54.2967,-1599.79,-10864.7,-219.224,-9.18561,-43.6186,71.9556,8762.67,695.872,1664.76,48.8545,18.1306,0.554634
3.423,22471.5,-7862.01,8599.12,-32.6493,183.813,367.858,3862.51,4036.14,9189.07,25.4186,-40.3275,17.8455,-2556.39,21466.3,-4904.37,157.794,234.341,296.976,-229.247,-11438.6,-1740.38,1.11989,-13.1572,75.4732,-2422.58,9457.28,4383.4,-47.9981,4.29051,53.225,-1569.31,-10876.2,-206.944,-9.12082,-43.7806,71.8907,8753.96,709.975,1681.25,48.8352,18.0346,0.327176
3.4235,22530.9,-7835.22,8545.17,-31.5767,182.441,369.112,3846.28,4029.79,9170.98,25.4788,-40.7864,17.8244,-2649.45,21422.3,-4981.94,158.632,236.244,296.13,-219.105,-11423.9,-1738.66,1.14192,-12.8092,75.5899,-2365.0,9556.14,4384.88,-47.9822,3.0641,52.1534,-1538.83,-10887.7,-194.665,-9.05604,-43.9426,71.8258,8745.25,724.078,1697.74,48.816,17.9387,0.099718
3.424,22590.2,-7808.44,8491.22,-30.5042,181.069,370.366,3830.06,4023.43,9152.9,25.5391,-41.2452,17.8033,-2742.51,21378.3,-5059.52,159.469,238.147,295.284,-208.962,-11409.2,-1736.94,1.16394,-12.4613,75.7066,-2307.42,9655.0,4386.36,-47.9663,1.83769,51.0817,-1508.36,-10899.2,-182.386,-8.99126,-44.1046,71.7609,8736.53,738.18,1714.23,48.7967,17.8427,-0.12774
3.4245,22649.6,-7781.65,8437.27,-29.4317,179.697,371.62,3813.83,4017.07,9134.81,25.5993,-41.7041,17.7822,-2835.57,21334.3,-5137.09,160.307,240.051,294.438,-198.819,-11394.5,-1735.21,1.18597,-12.1133,75.8232,-2249.84,9753.85,4387.84,-47.9504,0.61128,50.0101,-1477.88,-10910.7,-170.106,-8.92648,-44.2666,71.696,8727.82,752.283,1730.72,48.7774,17.7467,-0.355197
3.425,22708.9,-7754.87,8383.32,-28.3592,178.325,372.874,3797.6,4010.72,9116.73,25.6595,-42.1629,17.7611,-2928.63,21290.4,-5214.66,161.144,241.954,293.592,-188.676,-11379.8,-1733.49,1.208,-11.7653,75.9399,-2192.26,9852.71,4389.32,-47.9346,-0.615131,48.9384,-1447.4,-10922.2,-157.827,-8.8617,-44.4287,71.6311,8719.11,766.386,1747.21,48.7582,17.6507,-0.582655
3.4255,22768.3,-7728.08,8329.38,-27.2867,176.953,374.128,3781.38,4004.36,9098.65,25.7197,-42.6218,17.74,-3021.69,21246.4,-5292.24,161.982,243.858,292.746,-178.533,-11365.1,-1731.77,1.23002,-11.4173,76.0566,-2134.68,9951.57,4390.8,-47.9187,-1.84154,47.8668,-1416.92,-10933.7,-145.547,-8.79692,-44.5907,71.5662,8710.39,780.489,1763.7,48.7389,17.5547,-0.810113
3.426,22827.6,-7701.3,8275.43,-26.2141,175.581,375.382,3765.15,3998.0,9080.56,25.78,-43.0806,17.7189,-3114.75,21202.4,-5369.81,162.82,245.761,291.9,-168.39,-11350.4,-1730.05,1.25205,-11.0694,76.1732,-2077.1,10050.4,4392.28,-47.9028,-3.06795,46.7952,-1386.45,-10945.2,-133.268,-8.73214,-44.7527,71.5013,8701.68,794.592,1780.19,48.7196,17.4587,-1.03757
3.4265,22886.9,-7674.52,8221.48,-25.1416,174.209,376.636,3748.92,3991.65,9062.48,25.8402,-43.5395,17.6978,-3207.81,21158.4,-5447.38,163.657,247.665,291.053,-158.247,-11335.8,-1728.33,1.27408,-10.7214,76.2899,-2019.52,10149.3,4393.76,-47.8869,-4.29436,45.7235,-1355.97,-10956.7,-120.989,-8.66736,-44.9147,71.4364,8692.97,808.695,1796.68,48.7004,17.3627,-1.26503
3.427,22929.6,-7581.98,8163.95,-24.6087,172.702,377.712,3766.94,3995.09,9066.41,25.7807,-44.0983,17.6591,-3311.19,21120.0,-5539.28,164.426,249.54,289.97,-129.263,-11339.5,-1732.55,1.34631,-10.4928,76.4507,-1951.18,10232.1,4371.96,-48.0589,-4.99867,44.6942,-1332.3,-10966.8,-109.001,-8.58534,-45.0531,71.3981,8680.94,837.029,1820.23,48.6062,17.1635,-1.47964
3.4275,22963.9,-7456.56,8104.64,-24.3455,171.128,378.697,3802.07,4003.43,9081.35,25.6612,-44.707,17.6116,-3419.73,21084.4,-5638.34,165.16,251.402,288.768,-90.8585,-11352.5,-1739.75,1.44365,-10.324,76.6336,-1877.45,10306.9,4338.51,-48.3249,-5.44192,43.6859,-1312.05,-10976.1,-97.1591,-8.4947,-45.1798,71.3732,8667.25,872.479,1847.31,48.4746,16.9126,-1.68784
3.428,22998.3,-7331.15,8045.33,-24.0823,169.554,379.683,3837.21,4011.77,9096.29,25.5418,-45.3157,17.5641,-3528.28,21048.8,-5737.41,165.895,253.264,287.567,-52.4539,-11365.6,-1746.94,1.54098,-10.1551,76.8165,-1803.72,10381.8,4305.07,-48.5909,-5.88518,42.6777,-1291.79,-10985.5,-85.3173,-8.40406,-45.3065,71.3482,8653.57,907.929,1874.39,48.343,16.6617,-1.89603
3.4285,23032.6,-7205.73,7986.01,-23.8191,167.979,380.669,3872.35,4020.11,9111.23,25.4224,-45.9244,17.5167,-3636.82,21013.2,-5836.47,166.629,255.126,286.365,-14.0493,-11378.6,-1754.14,1.63832,-9.98625,76.9994,-1729.99,10456.6,4271.62,-48.8568,-6.32843,41.6695,-1271.53,-10994.8,-73.4754,-8.31341,-45.4331,71.3233,8639.88,943.379,1901.47,48.2114,16.4108,-2.10423
3.429,23066.9,-7080.32,7926.7,-23.5559,166.405,381.655,3907.48,4028.45,9126.16,25.303,-46.5332,17.4692,-3745.36,20977.6,-5935.53,167.363,256.987,285.163,24.3553,-11391.6,-1761.34,1.73565,-9.81739,77.1823,-1656.26,10531.4,4238.18,-49.1228,-6.77168,40.6613,-1251.27,-11004.1,-61.6335,-8.22277,-45.5598,71.2983,8626.19,978.828,1928.55,48.0798,16.1598,-2.31242
3.4295,23101.3,-6954.9,7867.38,-23.2927,164.83,382.641,3942.62,4036.79,9141.1,25.1835,-47.1419,17.4217,-3853.91,20942.0,-6034.59,168.098,258.849,283.961,62.7599,-11404.6,-1768.53,1.83299,-9.64854,77.3651,-1582.53,10606.2,4204.73,-49.3887,-7.21493,39.653,-1231.01,-11013.5,-49.7917,-8.13213,-45.6864,71.2734,8612.51,1014.28,1955.63,47.9482,15.9089,-2.52061
3.43,23135.6,-6829.49,7808.07,-23.0296,163.256,383.626,3977.75,4045.13,9156.04,25.0641,-47.7506,17.3742,-3962.45,20906.4,-6133.66,168.832,260.711,282.759,101.165,-11417.6,-1775.73,1.93032,-9.47968,77.548,-1508.8,10681.0,4171.28,-49.6547,-7.65819,38.6448,-1210.76,-11022.8,-37.9498,-8.04149,-45.8131,71.2484,8598.82,1049.73,1982.71,47.8166,15.658,-2.72881
3.4305,23169.9,-6704.07,7748.76,-22.7664,161.681,384.612,4012.89,4053.47,9170.98,24.9447,-48.3594,17.3267,-4070.99,20870.8,-6232.72,169.566,262.572,281.558,139.569,-11430.6,-1782.92,2.02766,-9.31082,77.7309,-1435.08,10755.8,4137.84,-49.9207,-8.10144,37.6366,-1190.5,-11032.2,-26.108,-7.95085,-45.9398,71.2234,8585.14,1085.18,2009.79,47.685,15.4071,-2.937
3.431,23204.3,-6578.66,7689.44,-22.5032,160.107,385.598,4048.02,4061.81,9185.92,24.8252,-48.9681,17.2792,-4179.54,20835.2,-6331.78,170.301,264.434,280.356,177.974,-11443.6,-1790.12,2.125,-9.14196,77.9138,-1361.35,10830.7,4104.39,-50.1866,-8.54469,36.6284,-1170.24,-11041.5,-14.2661,-7.86021,-46.0664,71.1985,8571.45,1120.63,2036.87,47.5534,15.1562,-3.14519
3.4315,23179.8,-6269.93,7729.44,-22.5283,158.203,386.387,4035.91,4096.83,9190.67,24.6431,-49.5506,17.2748,-4367.28,20851.2,-6440.55,170.798,265.756,279.157,193.057,-11452.0,-1812.69,2.18193,-9.06709,78.0705,-1259.7,10889.4,4058.61,-50.6707,-8.36288,35.7377,-1146.33,-11050.7,-8.59162,-7.76773,-46.1437,71.2067,8572.14,1157.19,2059.9,47.363,14.7529,-3.29949
3.432,23138.5,-5908.83,7797.82,-22.6358,156.205,387.121,4010.3,4139.46,9192.51,24.4431,-50.1256,17.2827,-4577.66,20881.9,-6552.08,171.227,266.923,277.96,201.478,-11459.1,-1839.64,2.22731,-9.01907,78.2198,-1150.07,10943.6,4009.3,-51.217,-8.00247,34.8806,-1121.38,-11059.9,-4.67926,-7.67473,-46.207,71.2244,8576.93,1194.08,2081.78,47.1558,14.306,-3.4384
3.4325,23097.2,-5547.73,7866.2,-22.7432,154.207,387.855,3984.69,4182.1,9194.34,24.2431,-50.7006,17.2905,-4788.03,20912.7,-6663.62,171.656,268.089,276.762,209.898,-11466.1,-1866.6,2.2727,-8.97105,78.3691,-1040.44,10997.7,3959.98,-51.7634,-7.64206,34.0235,-1096.43,-11069.1,-0.7669,-7.58173,-46.2702,71.2421,8581.72,1230.96,2103.65,46.9486,13.8591,-3.5773
3.433,23056.0,-5186.63,7934.57,-22.8507,152.21,388.588,3959.08,4224.74,9196.18,24.043,-51.2756,17.2984,-4998.41,20943.4,-6775.16,172.085,269.256,275.565,218.319,-11473.2,-1893.56,2.31808,-8.92304,78.5183,-930.808,11051.9,3910.67,-52.3098,-7.28165,33.1664,-1071.48,-11078.3,3.14546,-7.48873,-46.3334,71.2598,8586.51,1267.84,2125.52,46.7415,13.4122,-3.7162
3.4335,23014.7,-4825.54,8002.95,-22.9582,150.212,389.322,3933.47,4267.37,9198.02,23.843,-51.8506,17.3063,-5208.79,20974.1,-6886.69,172.515,270.423,274.367,226.739,-11480.3,-1920.51,2.36347,-8.87502,78.6676,-821.179,11106.0,3861.36,-52.8561,-6.92124,32.3093,-1046.53,-11087.5,7.05782,-7.39573,-46.3966,71.2774,8591.3,1304.73,2147.39,46.5343,12.9653,-3.8551
3.434,22973.4,-4464.44,8071.32,-23.0657,148.214,390.056,3907.86,4310.01,9199.85,23.643,-52.4257,17.3142,-5419.16,21004.9,-6998.23,172.944,271.59,273.169,235.159,-11487.3,-1947.47,2.40886,-8.82701,78.8169,-711.55,11160.2,3812.05,-53.4025,-6.56084,31.4523,-1021.58,-11096.7,10.9702,-7.30273,-46.4599,71.2951,8596.1,1341.61,2169.26,46.3271,12.5184,-3.994
3.4345,22932.1,-4103.34,8139.7,-23.1732,146.216,390.789,3882.25,4352.65,9201.69,23.4429,-53.0007,17.3221,-5629.54,21035.6,-7109.77,173.373,272.757,271.972,243.58,-11494.4,-1974.43,2.45424,-8.77899,78.9661,-601.921,11214.3,3762.74,-53.9488,-6.20043,30.5952,-996.626,-11105.9,14.8825,-7.20973,-46.5231,71.3128,8600.89,1378.5,2191.13,46.1199,12.0715,-4.1329
3.435,22890.9,-3742.24,8208.08,-23.2806,144.219,391.523,3856.64,4395.28,9203.52,23.2429,-53.5757,17.3299,-5839.91,21066.4,-7221.3,173.802,273.924,270.774,252.0,-11501.5,-2001.38,2.49963,-8.73097,79.1154,-492.292,11268.5,3713.43,-54.4952,-5.84002,29.7381,-971.675,-11115.1,18.7949,-7.11672,-46.5863,71.3305,8605.68,1415.38,2213.01,45.9128,11.6246,-4.27181
3.4355,22849.6,-3381.14,8276.45,-23.3881,142.221,392.257,3831.03,4437.92,9205.36,23.0429,-54.1507,17.3378,-6050.29,21097.1,-7332.84,174.231,275.091,269.577,260.421,-11508.5,-2028.34,2.54502,-8.68296,79.2647,-382.662,11322.7,3664.11,-55.0415,-5.47961,28.881,-946.723,-11124.3,22.7073,-7.02372,-46.6495,71.3482,8610.47,1452.26,2234.88,45.7056,11.1777,-4.41071
3.436,22801.2,-2985.97,8128.37,-23.2825,140.543,392.585,3819.99,4453.88,9211.87,22.8644,-54.734,17.5722,-6218.59,21133.3,-7168.79,172.967,274.759,268.319,244.579,-11513.3,-2023.7,2.5874,-8.56816,79.5261,-234.171,11348.0,3666.28,-55.5854,-4.79338,28.3716,-927.805,-11124.6,28.175,-7.02617,-46.701,71.3176,8598.09,1481.03,2224.46,45.5047,10.7313,-4.60077
3.4365,22751.8,-2586.55,7953.24,-23.1503,138.904,392.862,3810.76,4466.52,9218.95,22.6887,-55.3184,17.835,-6381.64,21170.2,-6970.29,171.492,274.239,267.054,225.704,-11517.8,-2015.11,2.6294,-8.44503,79.8016,-80.8208,11369.8,3674.87,-56.1289,-4.06643,27.9057,-909.64,-11123.9,33.8371,-7.04055,-46.7511,71.2811,8583.56,1508.79,2210.01,45.3047,10.285,-4.79722
3.437,22702.5,-2187.12,7778.1,-23.018,137.266,393.14,3801.53,4479.15,9226.04,22.5129,-55.9027,18.0977,-6544.68,21207.1,-6771.79,170.016,273.719,265.788,206.829,-11522.2,-2006.52,2.67141,-8.32189,80.0771,72.529,11391.6,3683.47,-56.6725,-3.33947,27.4398,-891.475,-11123.1,39.4992,-7.05493,-46.8011,71.2446,8569.03,1536.55,2195.55,45.1046,9.83872,-4.99367
3.4375,22653.2,-1787.7,7602.96,-22.8858,135.628,393.417,3792.31,4491.78,9233.13,22.3371,-56.4871,18.3604,-6707.73,21244.0,-6573.29,168.54,273.2,264.523,187.954,-11526.7,-1997.92,2.71341,-8.19875,80.3526,225.879,11413.4,3692.06,-57.216,-2.61252,26.9738,-873.31,-11122.3,45.1613,-7.06931,-46.8512,71.2081,8554.5,1564.3,2181.1,44.9046,9.39241,-5.19012
3.438,22603.8,-1388.28,7427.83,-22.7535,133.99,393.695,3783.08,4504.41,9240.21,22.1614,-57.0715,18.6232,-6870.77,21280.9,-6374.8,167.065,272.68,263.258,169.08,-11531.2,-1989.33,2.75542,-8.07561,80.6281,379.228,11435.2,3700.66,-57.7596,-1.88556,26.5079,-855.145,-11121.6,50.8235,-7.08369,-46.9012,71.1715,8539.97,1592.06,2166.65,44.7045,8.9461,-5.38658
3.4385,22554.5,-988.851,7252.69,-22.6213,132.351,393.972,3773.86,4517.05,9247.3,21.9856,-57.6558,18.8859,-7033.82,21317.8,-6176.3,165.589,272.16,261.992,150.205,-11535.6,-1980.74,2.79742,-7.95247,80.9035,532.578,11456.9,3709.26,-58.3031,-1.15861,26.042,-836.98,-11120.8,56.4856,-7.09806,-46.9513,71.135,8525.44,1619.82,2152.19,44.5044,8.49979,-5.58303
3.439,22505.2,-589.427,7077.55,-22.489,130.713,394.249,3764.63,4529.68,9254.39,21.8099,-58.2402,19.1487,-7196.86,21354.8,-5977.8,164.113,271.64,260.727,131.33,-11540.1,-1972.15,2.83943,-7.82933,81.179,685.928,11478.7,3717.85,-58.8467,-0.43165,25.5761,-818.815,-11120.0,62.1477,-7.11244,-47.0013,71.0985,8510.91,1647.57,2137.74,44.3044,8.05348,-5.77948
3.4395,22455.9,-190.002,6902.42,-22.3568,129.075,394.527,3755.41,4542.31,9261.48,21.6341,-58.8245,19.4114,-7359.91,21391.7,-5779.3,162.638,271.12,259.462,112.455,-11544.6,-1963.56,2.88143,-7.70619,81.4545,839.278,11500.5,3726.45,-59.3902,0.295306,25.1102,-800.65,-11119.3,67.8099,-7.12682,-47.0513,71.062,8496.38,1675.33,2123.28,44.1043,7.60716,-5.97594
3.44,22406.5,209.422,6727.28,-22.2246,127.437,394.804,3746.18,4554.94,9268.56,21.4583,-59.4089,19.6741,-7522.95,21428.6,-5580.8,161.162,270.601,258.196,93.5806,-11549.1,-1954.97,2.92344,-7.58305,81.73,992.627,11522.3,3735.04,-59.9338,1.02226,24.6442,-782.485,-11118.5,73.472,-7.1412,-47.1014,71.0254,8481.85,1703.08,2108.83,43.9043,7.16085,-6.17239
3.4405,22466.9,201.506,6465.66,-22.1474,126.337,393.864,3752.34,4519.09,9236.06,21.2224,-60.0521,19.7464,-7550.0,21379.6,-5273.15,159.087,268.974,256.564,102.436,-11573.4,-1979.55,2.92432,-7.30637,81.8998,1165.54,11507.8,3739.51,-60.2445,2.17848,24.7327,-751.843,-11132.5,51.6717,-7.25653,-47.0754,70.9802,8478.41,1738.54,2103.21,43.6488,6.74263,-6.36061
3.441,22527.2,193.59,6204.05,-22.0702,125.237,392.924,3758.5,4483.23,9203.56,20.9865,-60.6954,19.8187,-7577.05,21330.5,-4965.49,157.011,267.348,254.931,111.291,-11597.7,-2004.13,2.9252,-7.02969,82.0695,1338.45,11493.3,3743.97,-60.5552,3.33469,24.8212,-721.202,-11146.5,29.8714,-7.37187,-47.0493,70.9349,8474.97,1774.0,2097.59,43.3932,6.3244,-6.54882
3.4415,22587.5,185.674,5942.43,-21.993,124.137,391.984,3764.66,4447.38,9171.06,20.7506,-61.3386,19.891,-7604.09,21281.5,-4657.84,154.936,265.721,253.298,120.146,-11622.1,-2028.71,2.92608,-6.75301,82.2393,1511.36,11478.9,3748.44,-60.866,4.49091,24.9097,-690.56,-11160.6,8.07115,-7.4872,-47.0233,70.8897,8471.53,1809.45,2091.97,43.1377,5.90617,-6.73704
3.442,22647.9,177.758,5680.81,-21.9159,123.037,391.044,3770.82,4411.52,9138.56,20.5146,-61.9818,19.9633,-7631.14,21232.5,-4350.19,152.86,264.095,251.666,129.001,-11646.4,-2053.29,2.92696,-6.47633,82.4091,1684.27,11464.4,3752.9,-61.1767,5.64712,24.9981,-659.919,-11174.6,-13.7291,-7.60253,-46.9973,70.8444,8468.08,1844.91,2086.35,42.8822,5.48794,-6.92526
3.4425,22708.2,169.842,5419.2,-21.8387,121.938,390.105,3776.98,4375.67,9106.06,20.2787,-62.625,20.0356,-7658.19,21183.5,-4042.53,150.785,262.469,250.033,137.856,-11670.7,-2077.87,2.92784,-6.19964,82.5788,1857.18,11449.9,3757.37,-61.4874,6.80334,25.0866,-629.277,-11188.6,-35.5294,-7.71786,-46.9713,70.7992,8464.64,1880.36,2080.73,42.6267,5.06971,-7.11347
3.443,22768.6,161.926,5157.58,-21.7615,120.838,389.165,3783.14,4339.81,9073.55,20.0428,-63.2683,20.1079,-7685.24,21134.5,-3734.88,148.709,260.842,248.4,146.711,-11695.1,-2102.45,2.92872,-5.92296,82.7486,2030.09,11435.5,3761.83,-61.7981,7.95955,25.1751,-598.635,-11202.6,-57.3297,-7.8332,-46.9452,70.7539,8461.2,1915.82,2075.11,42.3712,4.65149,-7.30169
3.4435,22828.9,154.009,4895.96,-21.6843,119.738,388.225,3789.3,4303.96,9041.05,19.8069,-63.9115,20.1802,-7712.28,21085.5,-3427.23,146.634,259.216,246.768,155.566,-11719.4,-2127.03,2.92961,-5.64628,82.9184,2203.01,11421.0,3766.29,-62.1089,9.11577,25.2636,-567.994,-11216.6,-79.13,-7.94853,-46.9192,70.7087,8457.76,1951.27,2069.49,42.1157,4.23326,-7.48991
3.444,22889.2,146.093,4634.35,-21.6072,118.638,387.285,3795.46,4268.1,9008.55,19.571,-64.5547,20.2525,-7739.33,21036.5,-3119.57,144.558,257.589,245.135,164.421,-11743.7,-2151.61,2.93049,-5.3696,83.0882,2375.92,11406.5,3770.76,-62.4196,10.272,25.3521,-537.352,-11230.7,-100.93,-8.06386,-46.8932,70.6634,8454.32,1986.73,2063.87,41.8602,3.81503,-7.67813
3.4445,22945.5,114.794,4407.64,-21.5363,117.442,386.226,3804.32,4239.52,8978.82,19.3493,-65.1803,20.3165,-7760.88,20983.4,-2850.73,142.591,255.96,243.52,172.049,-11766.0,-2172.27,2.93712,-5.11806,83.2605,2550.12,11389.4,3773.66,-62.7132,11.5051,25.4958,-506.646,-11244.0,-122.217,-8.17425,-46.8632,70.6151,8450.03,2021.65,2058.04,41.6034,3.38321,-7.85263
3.445,22969.4,-103.573,4460.25,-21.5162,115.477,384.222,3834.75,4269.17,8971.21,19.242,-65.6651,20.3142,-7738.49,20897.4,-2892.39,141.492,254.313,242.052,169.865,-11771.4,-2161.58,2.98975,-5.06771,83.4529,2734.64,11350.7,3764.03,-62.8697,13.3536,26.0819,-475.426,-11252.2,-139.397,-8.2451,-46.8017,70.5417,8438.95,2052.34,2050.47,41.3361,2.84263,-7.91746
3.4455,22993.3,-321.939,4512.86,-21.496,113.513,382.218,3865.19,4298.83,8963.6,19.1346,-66.1499,20.3119,-7716.1,20811.3,-2934.05,140.394,252.665,240.583,167.681,-11776.8,-2150.89,3.04239,-5.01736,83.6452,2919.17,11312.1,3754.41,-63.0263,15.2022,26.668,-444.206,-11260.4,-156.578,-8.31596,-46.7402,70.4684,8427.88,2083.02,2042.9,41.0689,2.30205,-7.98229
3.446,23017.2,-540.306,4565.46,-21.4759,111.548,380.214,3895.63,4328.48,8955.99,19.0273,-66.6347,20.3096,-7693.7,20725.3,-2975.71,139.295,251.018,239.115,165.496,-11782.2,-2140.2,3.09503,-4.967,83.8376,3103.69,11273.5,3744.78,-63.1828,17.0507,27.2541,-412.985,-11268.6,-173.758,-8.38681,-46.6787,70.3951,8416.81,2113.7,2035.33,40.8017,1.76148,-8.04712
3.4465,23041.1,-758.673,4618.07,-21.4557,109.583,378.21,3926.06,4358.13,8948.38,18.92,-67.1195,20.3073,-7671.31,20639.3,-3017.37,138.196,249.37,237.646,163.312,-11787.6,-2129.51,3.14766,-4.91665,84.03,3288.22,11234.9,3735.16,-63.3393,18.8992,27.8402,-381.765,-11276.8,-190.938,-8.45766,-46.6173,70.3217,8405.73,2144.38,2027.77,40.5344,1.2209,-8.11195
3.447,23065.0,-977.039,4670.67,-21.4356,107.618,376.206,3956.5,4387.78,8940.77,18.8126,-67.6042,20.3049,-7648.92,20553.2,-3059.03,137.097,247.723,236.178,161.128,-11793.1,-2118.82,3.2003,-4.86629,84.2224,3472.74,11196.2,3725.53,-63.4959,20.7477,28.4263,-350.545,-11285.0,-208.118,-8.52852,-46.5558,70.2484,8394.66,2175.07,2020.2,40.2672,0.680321,-8.17678
3.4475,23088.8,-1195.41,4723.28,-21.4155,105.653,374.201,3986.94,4417.43,8933.16,18.7053,-68.089,20.3026,-7626.52,20467.2,-3100.69,135.999,246.075,234.709,158.944,-11798.5,-2108.13,3.25293,-4.81594,84.4148,3657.27,11157.6,3715.91,-63.6524,22.5963,29.0123,-319.324,-11293.2,-225.298,-8.59937,-46.4943,70.175,8383.59,2205.75,2012.63,39.9999,0.139744,-8.2416
3.448,23112.7,-1413.77,4775.89,-21.3953,103.689,372.197,4017.37,4447.08,8925.55,18.598,-68.5738,20.3003,-7604.13,20381.2,-3142.35,134.9,244.427,233.24,156.759,-11803.9,-2097.44,3.30557,-4.76558,84.6072,3841.79,11119.0,3706.28,-63.809,24.4448,29.5984,-288.104,-11301.4,-242.478,-8.67022,-46.4328,70.1017,8372.51,2236.43,2005.07,39.7327,-0.400834,-8.30643
3.4485,23136.6,-1632.14,4828.49,-21.3752,101.724,370.193,4047.81,4476.73,8917.94,18.4906,-69.0586,20.298,-7581.73,20295.1,-3184.01,133.801,242.78,231.772,154.575,-11809.3,-2086.75,3.3582,-4.71523,84.7996,4026.32,11080.3,3696.66,-63.9655,26.2933,30.1845,-256.884,-11309.6,-259.659,-8.74107,-46.3713,70.0284,8361.44,2267.12,1997.5,39.4654,-0.941411,-8.37126
3.449,23137.7,-1793.35,4836.63,-21.2924,99.82,368.105,4072.16,4500.42,8912.46,18.3717,-69.544,20.3123,-7565.25,20207.2,-3249.94,132.726,241.268,230.302,152.637,-11804.6,-2083.17,3.38054,-4.65341,85.0215,4220.81,11039.2,3692.51,-64.0378,28.3204,30.8535,-226.63,-11311.9,-275.874,-8.78589,-46.2979,69.9376,8349.56,2298.16,1983.61,39.2071,-1.43774,-8.41735
3.4495,23059.1,-1754.51,4689.11,-20.9906,98.1302,365.724,4075.19,4503.27,8914.4,18.2121,-70.0319,20.3849,-7569.43,20112.4,-3400.81,131.732,240.232,228.829,151.563,-11764.3,-2104.47,3.29683,-4.55144,85.3466,4450.23,10989.4,3707.52,-63.8151,30.9724,31.8126,-199.759,-11293.4,-288.713,-8.7396,-46.1827,69.7858,8334.87,2330.46,1947.59,38.9802,-1.7792,-8.39787
3.45,22980.6,-1715.67,4541.59,-20.6888,96.4405,363.343,4078.22,4506.11,8916.34,18.0526,-70.5198,20.4576,-7573.62,20017.7,-3551.69,130.739,239.196,227.357,150.489,-11724.1,-2125.78,3.21313,-4.44947,85.6716,4679.64,10939.7,3722.52,-63.5925,33.6245,32.7717,-172.888,-11274.9,-301.551,-8.69331,-46.0675,69.634,8320.18,2362.77,1911.57,38.7532,-2.12066,-8.37838
3.4505,22902.0,-1676.82,4394.07,-20.3869,94.7507,360.962,4081.25,4508.95,8918.29,17.8931,-71.0077,20.5302,-7577.8,19923.0,-3702.56,129.746,238.16,225.884,149.414,-11683.8,-2147.08,3.12942,-4.34751,85.9967,4909.05,10889.9,3737.53,-63.3698,36.2765,33.7308,-146.017,-11256.5,-314.39,-8.64703,-45.9523,69.4822,8305.49,2395.07,1875.55,38.5263,-2.46212,-8.35889
3.451,22823.4,-1637.98,4246.56,-20.0851,93.0609,358.581,4084.28,4511.8,8920.23,17.7335,-71.4956,20.6028,-7581.98,19828.2,-3853.43,128.752,237.124,224.411,148.34,-11643.6,-2168.39,3.04572,-4.24554,86.3218,5138.46,10840.1,3752.54,-63.1472,38.9286,34.6898,-119.146,-11238.0,-327.228,-8.60074,-45.8371,69.3304,8290.8,2427.38,1839.53,38.2993,-2.80358,-8.33941
3.4515,22744.8,-1599.14,4099.04,-19.7833,91.3712,356.2,4087.31,4514.64,8922.18,17.574,-71.9835,20.6754,-7586.17,19733.5,-4004.3,127.759,236.088,222.938,147.265,-11603.3,-2189.69,2.96201,-4.14358,86.6469,5367.87,10790.4,3767.55,-62.9245,41.5806,35.6489,-92.2745,-11219.5,-340.067,-8.55445,-45.7219,69.1786,8276.11,2459.68,1803.5,38.0723,-3.14504,-8.31992
3.452,22666.2,-1560.3,3951.52,-19.4814,89.6814,353.819,4090.34,4517.48,8924.12,17.4144,-72.4714,20.7481,-7590.35,19638.8,-4155.17,126.765,235.052,221.465,146.191,-11563.1,-2210.99,2.87831,-4.04161,86.972,5597.29,10740.6,3782.56,-62.7018,44.2327,36.608,-65.4034,-11201.0,-352.905,-8.50816,-45.6067,69.0268,8261.42,2491.99,1767.48,37.8454,-3.4865,-8.30043
3.4525,22587.6,-1521.46,3804.0,-19.1796,87.9916,351.438,4093.38,4520.32,8926.07,17.2549,-72.9593,20.8207,-7594.54,19544.0,-4306.04,125.772,234.016,219.992,145.117,-11522.8,-2232.3,2.7946,-3.93964,87.297,5826.7,10690.8,3797.57,-62.4792,46.8847,37.5671,-38.5324,-11182.6,-365.744,-8.46187,-45.4915,68.875,8246.73,2524.3,1731.46,37.6184,-3.82796,-8.28094
3.453,22509.0,-1482.62,3656.49,-18.8778,86.3019,349.057,4096.41,4523.17,8928.01,17.0954,-73.4472,20.8933,-7598.72,19449.3,-4456.91,124.779,232.98,218.519,144.042,-11482.6,-2253.6,2.7109,-3.83768,87.6221,6056.11,10641.1,3812.58,-62.2565,49.5368,38.5262,-11.6613,-11164.1,-378.582,-8.41558,-45.3763,68.7232,8232.04,2556.6,1695.44,37.3914,-4.16942,-8.26146
3.4535,22438.0,-1382.13,3514.12,-18.5227,84.7051,346.623,4100.41,4507.07,8931.57,16.9724,-73.9495,20.9486,-7622.19,19358.6,-4566.43,123.742,231.974,216.899,146.595,-11457.1,-2258.22,2.63001,-3.75803,87.9191,6300.22,10583.1,3820.95,-61.6418,52.3755,39.5371,19.5721,-11144.3,-395.924,-8.39388,-45.2479,68.5928,8225.05,2586.05,1659.51,37.124,-4.45834,-8.2085
3.454,22382.0,-1158.33,3382.06,-18.0613,83.2943,344.083,4106.35,4453.1,8938.37,16.9227,-74.4808,20.9694,-7684.23,19276.0,-4593.24,122.618,231.03,214.984,156.403,-11460.9,-2229.45,2.55477,-3.72303,88.1597,6573.74,10508.6,3816.04,-60.2431,55.5875,40.6515,59.5303,-11121.9,-422.273,-8.42137,-45.0932,68.5051,8233.46,2609.79,1623.76,36.7758,-4.64219,-8.08861
3.4545,22326.1,-934.537,3250.0,-17.5998,81.8835,341.543,4112.29,4399.12,8945.17,16.8731,-75.012,20.9902,-7746.28,19193.4,-4620.05,121.494,230.085,213.069,166.211,-11464.8,-2200.68,2.47952,-3.68802,88.4004,6847.26,10434.2,3811.14,-58.8443,58.7995,41.766,99.4884,-11099.5,-448.621,-8.44885,-44.9385,68.4173,8241.86,2633.52,1588.0,36.4275,-4.82603,-7.96871
3.455,22270.2,-710.742,3117.94,-17.1383,80.4727,339.002,4118.24,4345.15,8951.97,16.8234,-75.5432,21.011,-7808.32,19110.9,-4646.87,120.37,229.141,211.154,176.018,-11468.7,-2171.92,2.40427,-3.65302,88.6411,7120.78,10359.8,3806.23,-57.4456,62.0116,42.8805,139.447,-11077.1,-474.97,-8.47634,-44.7839,68.3295,8250.26,2657.26,1552.25,36.0793,-5.00987,-7.84882
3.4555,22214.3,-486.947,2985.88,-16.6769,79.0619,336.462,4124.18,4291.17,8958.77,16.7737,-76.0745,21.0317,-7870.36,19028.3,-4673.68,119.246,228.196,209.239,185.826,-11472.6,-2143.15,2.32903,-3.61802,88.8817,7394.3,10285.3,3801.32,-56.0468,65.2236,43.9949,179.405,-11054.7,-501.318,-8.50383,-44.6292,68.2418,8258.67,2680.99,1516.49,35.731,-5.19371,-7.72893
3.456,22158.4,-263.152,2853.82,-16.2154,77.6511,333.922,4130.12,4237.2,8965.57,16.724,-76.6057,21.0525,-7932.4,18945.7,-4700.49,118.122,227.251,207.324,195.634,-11476.4,-2114.38,2.25378,-3.58301,89.1224,7667.81,10210.9,3796.41,-54.648,68.4357,45.1094,219.363,-11032.3,-527.667,-8.53131,-44.4745,68.154,8267.07,2704.73,1480.74,35.3828,-5.37756,-7.60903
3.4565,22102.5,-39.3576,2721.76,-15.754,76.2403,331.382,4136.07,4183.22,8972.37,16.6743,-77.1369,21.0733,-7994.44,18863.1,-4727.3,116.998,226.307,205.409,205.441,-11480.3,-2085.61,2.17853,-3.54801,89.3631,7941.33,10136.5,3791.51,-53.2493,71.6477,46.2238,259.321,-11009.9,-554.015,-8.5588,-44.3199,68.0663,8275.48,2728.47,1444.98,35.0345,-5.5614,-7.48914
3.457,22046.6,184.437,2589.71,-15.2925,74.8295,328.841,4142.01,4129.25,8979.17,16.6246,-77.6682,21.0941,-8056.49,18780.5,-4754.12,115.874,225.362,203.494,215.249,-11484.2,-2056.85,2.10329,-3.513,89.6038,8214.85,10062.0,3786.6,-51.8505,74.8597,47.3383,299.279,-10987.5,-580.364,-8.58629,-44.1652,67.9785,8283.88,2752.2,1409.23,34.6863,-5.74524,-7.36925
3.4575,21990.7,408.232,2457.65,-14.8311,73.4187,326.301,4147.95,4075.28,8985.96,16.5749,-78.1994,21.1149,-8118.53,18697.9,-4780.93,114.75,224.417,201.579,225.057,-11488.0,-2028.08,2.02804,-3.478,89.8444,8488.37,9987.58,3781.69,-50.4517,78.0718,48.4528,339.237,-10965.1,-606.712,-8.61377,-44.0105,67.8908,8292.28,2775.94,1373.47,34.338,-5.92908,-7.24935
3.458,21939.5,612.717,2332.24,-14.511,72.0556,323.529,4145.42,4046.76,8994.05,16.59,-78.7202,21.1334,-8215.2,18638.7,-4795.92,113.799,223.382,199.598,223.103,-11485.0,-2005.4,1.96702,-3.44505,90.1021,8786.77,9901.83,3717.49,-47.9688,81.2167,49.4033,377.599,-10943.1,-634.925,-8.6464,-43.8283,67.8126,8308.25,2794.18,1352.78,33.8014,-6.00136,-7.10357
3.4585,21894.1,793.065,2215.14,-14.3676,70.7522,320.465,4132.29,4050.07,9003.76,16.6861,-79.228,21.149,-8355.16,18608.6,-4796.14,113.064,222.232,197.536,206.447,-11473.3,-1990.34,1.92378,-3.41466,90.381,9116.28,9801.94,3579.17,-44.1305,84.2778,50.1488,413.964,-10921.8,-665.467,-8.68546,-43.6115,67.7463,8333.67,2805.55,1350.92,33.0294,-5.93419,-6.92544
3.459,21848.7,973.414,2098.04,-14.2242,69.4489,317.402,4119.16,4053.39,9013.46,16.7822,-79.7359,21.1647,-8495.11,18578.6,-4796.36,112.328,221.083,195.474,189.791,-11461.6,-1975.27,1.88055,-3.38427,90.6598,9445.78,9702.04,3440.85,-40.2922,87.3389,50.8943,450.329,-10900.5,-696.01,-8.72452,-43.3948,67.6801,8359.09,2816.92,1349.06,32.2574,-5.86702,-6.7473
3.4595,21803.4,1153.76,1980.95,-14.0808,68.1455,314.339,4106.03,4056.7,9023.17,16.8783,-80.2437,21.1804,-8635.07,18548.5,-4796.59,111.593,219.934,193.412,173.135,-11450.0,-1960.21,1.83731,-3.35388,90.9387,9775.29,9602.15,3302.52,-36.454,90.4,51.6399,486.694,-10879.2,-726.553,-8.76358,-43.178,67.6138,8384.5,2828.3,1347.19,31.4854,-5.79984,-6.56917
3.46,21758.0,1334.11,1863.85,-13.9375,66.8421,311.276,4092.9,4060.01,9032.87,16.9743,-80.7515,21.1961,-8775.03,18518.4,-4796.81,110.858,218.784,191.35,156.479,-11438.3,-1945.14,1.79407,-3.32349,91.2176,10104.8,9502.25,3164.2,-32.6157,93.4611,52.3854,523.059,-10858.0,-757.096,-8.80264,-42.9613,67.5476,8409.92,2839.67,1345.33,30.7134,-5.73267,-6.39103
3.4605,21712.6,1514.46,1746.76,-13.7941,65.5387,308.213,4079.77,4063.33,9042.57,17.0704,-81.2593,21.2118,-8914.98,18488.4,-4797.03,110.123,217.635,189.288,139.823,-11426.6,-1930.08,1.75083,-3.2931,91.4965,10434.3,9402.36,3025.88,-28.7774,96.5222,53.1309,559.424,-10836.7,-787.638,-8.8417,-42.7445,67.4813,8435.34,2851.04,1343.46,29.9414,-5.6655,-6.2129
3.461,21667.3,1694.81,1629.66,-13.6507,64.2353,305.149,4066.64,4066.64,9052.28,17.1665,-81.7671,21.2275,-9054.94,18458.3,-4797.25,109.388,216.486,187.226,123.167,-11414.9,-1915.01,1.70759,-3.26271,91.7754,10763.8,9302.46,2887.56,-24.9391,99.5833,53.8765,595.789,-10815.4,-818.181,-8.88076,-42.5278,67.4151,8460.76,2862.41,1341.6,29.1694,-5.59833,-6.03476
3.4615,21621.9,1875.16,1512.56,-13.5073,62.9319,302.086,4053.51,4069.95,9061.98,17.2626,-82.275,21.2431,-9194.89,18428.2,-4797.47,108.653,215.337,185.164,106.511,-11403.3,-1899.94,1.66436,-3.23232,92.0542,11093.3,9202.57,2749.24,-21.1009,102.644,54.622,632.155,-10794.1,-848.724,-8.91982,-42.311,67.3489,8486.18,2873.78,1339.74,28.3974,-5.53115,-5.85663
3.462,21576.5,2055.5,1395.47,-13.3639,61.6285,299.023,4040.38,4073.27,9071.69,17.3587,-82.7828,21.2588,-9334.85,18398.2,-4797.69,107.918,214.187,183.102,89.8551,-11391.6,-1884.88,1.62112,-3.20193,92.3331,11422.8,9102.67,2610.91,-17.2626,105.706,55.3675,668.52,-10772.8,-879.267,-8.95888,-42.0943,67.2826,8511.59,2885.16,1337.87,27.6254,-5.46398,-5.67849
3.4625,21486.6,2247.3,1351.45,-14.2012,60.1906,295.477,4040.07,4061.04,9076.69,17.3657,-83.3068,21.2438,-9548.11,18391.4,-4775.53,107.474,212.8,181.447,69.8369,-11383.6,-1870.47,1.61674,-3.19573,92.6072,11795.8,9002.22,2447.79,-11.4859,108.094,55.7286,705.457,-10748.8,-909.68,-9.02922,-41.8335,67.2588,8524.07,2885.74,1359.36,26.5432,-5.38216,-5.41006
3.463,21361.0,2448.24,1365.89,-15.823,58.6449,291.543,4050.0,4036.38,9077.93,17.3015,-83.8438,21.2041,-9820.0,18403.3,-4735.45,107.263,211.222,180.119,47.1289,-11378.6,-1856.58,1.64344,-3.20889,92.8775,12203.6,8901.32,2264.83,-4.1583,109.944,55.7821,742.853,-10722.6,-939.989,-9.12458,-41.5374,67.2689,8526.18,2877.7,1399.52,25.2129,-5.28863,-5.06939
3.4635,21235.4,2649.19,1380.34,-17.4447,57.0992,287.61,4059.93,4011.71,9079.17,17.2372,-84.3808,21.1644,-10091.9,18415.2,-4695.37,107.052,209.644,178.792,24.4208,-11373.6,-1842.7,1.67015,-3.22205,93.1479,12611.4,8800.41,2081.86,3.16926,111.794,55.8355,780.249,-10696.4,-970.298,-9.21994,-41.2414,67.279,8528.29,2869.66,1439.68,23.8826,-5.1951,-4.72872
3.464,21109.8,2850.14,1394.78,-19.0665,55.5536,283.677,4069.86,3987.05,9080.42,17.173,-84.9179,21.1247,-10363.8,18427.1,-4655.29,106.841,208.067,177.464,1.7128,-11368.5,-1828.81,1.69685,-3.23522,93.4182,13019.1,8699.51,1898.9,10.4968,113.644,55.889,817.645,-10670.2,-1000.61,-9.31531,-40.9454,67.2891,8530.4,2861.62,1479.84,22.5523,-5.10156,-4.38805
3.4645,20984.2,3051.09,1409.22,-20.6883,54.0079,279.744,4079.8,3962.39,9081.66,17.1088,-85.4549,21.0851,-10635.7,18438.9,-4615.22,106.63,206.489,176.136,-20.9952,-11363.5,-1814.92,1.72356,-3.24838,93.6885,13426.9,8598.61,1715.93,17.8244,115.494,55.9425,855.04,-10644.1,-1030.92,-9.41067,-40.6493,67.2992,8532.51,2853.57,1520.0,21.222,-5.00803,-4.04738
3.465,20858.6,3252.03,1423.67,-22.31,52.4623,275.811,4089.73,3937.73,9082.9,17.0445,-85.9919,21.0454,-10907.6,18450.8,-4575.14,106.419,204.911,174.808,-43.7033,-11358.5,-1801.04,1.75026,-3.26154,93.9588,13834.7,8497.7,1532.97,25.1519,117.344,55.996,892.436,-10617.9,-1061.23,-9.50603,-40.3533,67.3094,8534.62,2845.53,1560.16,19.8917,-4.9145,-3.70671
3.4655,20733.0,3452.98,1438.11,-23.9318,50.9166,271.878,4099.66,3913.06,9084.14,16.9803,-86.5289,21.0057,-11179.5,18462.7,-4535.06,106.208,203.333,173.48,-66.4113,-11353.5,-1787.15,1.77697,-3.2747,94.2291,14242.4,8396.8,1350.0,32.4795,119.194,56.0494,929.832,-10591.7,-1091.54,-9.60139,-40.0573,67.3195,8536.73,2837.49,1600.32,18.5614,-4.82096,-3.36604
3.466,20607.4,3653.93,1452.55,-25.5536,49.371,267.945,4109.59,3888.4,9085.38,16.916,-87.0659,20.966,-11451.4,18474.6,-4494.98,105.997,201.755,172.152,-89.1193,-11348.5,-1773.26,1.80367,-3.28786,94.4994,14650.2,8295.9,1167.04,39.807,121.044,56.1029,967.227,-10565.5,-1121.84,-9.69676,-39.7612,67.3296,8538.85,2829.45,1640.48,17.2311,-4.72743,-3.02537
3.4665,20481.8,3854.87,1467.0,-27.1754,47.8253,264.012,4119.52,3863.74,9086.63,16.8518,-87.6029,20.9264,-11723.3,18486.4,-4454.91,105.786,200.178,170.824,-111.827,-11343.5,-1759.38,1.83038,-3.30102,94.7697,15058.0,8194.99,984.073,47.1346,122.894,56.1564,1004.62,-10539.4,-1152.15,-9.79212,-39.4652,67.3397,8540.96,2821.41,1680.64,15.9008,-4.6339,-2.6847
3.467,20207.5,4247.21,1768.45,-32.7248,45.2585,259.551,4126.68,3852.76,9079.85,16.817,-88.1679,20.8929,-12156.2,18533.3,-4416.25,105.684,197.82,170.075,-121.938,-11349.9,-1730.97,1.89458,-3.2743,95.0657,15483.1,8115.81,815.738,55.8924,123.13,55.6607,1051.21,-10521.6,-1181.82,-9.84662,-39.1144,67.3791,8556.98,2783.08,1733.67,14.6199,-4.6434,-2.26488
3.4675,19858.8,4735.25,2213.42,-40.238,42.181,254.826,4132.44,3848.63,9069.07,16.797,-88.7468,20.8625,-12669.7,18597.6,-4378.3,105.636,195.072,169.616,-125.75,-11362.0,-1695.29,1.97753,-3.22763,95.3746,15917.0,8047.49,654.719,65.3653,122.559,54.8904,1102.39,-10508.1,-1211.15,-9.8807,-38.7362,67.4331,8579.95,2729.62,1793.14,13.3638,-4.70442,-1.80549
3.468,19510.2,5223.29,2658.39,-47.7513,39.1036,250.101,4138.2,3844.49,9058.29,16.7769,-89.3258,20.8321,-13183.2,18661.9,-4340.35,105.589,192.324,169.157,-129.562,-11374.2,-1659.61,2.06048,-3.18096,95.6835,16350.8,7979.17,493.701,74.8383,121.988,54.1201,1153.57,-10494.6,-1240.49,-9.91477,-38.3581,67.4871,8602.92,2676.16,1852.6,12.1076,-4.76544,-1.3461
3.4685,19161.5,5711.32,3103.35,-55.2645,36.0262,245.376,4143.96,3840.35,9047.51,16.7569,-89.9047,20.8017,-13696.6,18726.2,-4302.4,105.541,189.576,168.698,-133.374,-11386.3,-1623.94,2.14343,-3.13429,95.9924,16784.6,7910.85,332.682,84.3112,121.417,53.3498,1204.76,-10481.1,-1269.83,-9.94884,-37.9799,67.5411,8625.89,2622.69,1912.07,10.8514,-4.82646,-0.886711
3.469,18812.8,6199.36,3548.32,-62.7778,32.9487,240.651,4149.73,3836.22,9036.72,16.7369,-90.4836,20.7713,-14210.1,18790.6,-4264.46,105.494,186.828,168.239,-137.186,-11398.4,-1588.26,2.22638,-3.08762,96.3013,17218.5,7842.53,171.663,93.7842,120.847,52.5795,1255.94,-10467.6,-1299.17,-9.98291,-37.6018,67.5951,8648.86,2569.23,1971.53,9.59523,-4.88748,-0.427322
3.4695,18464.1,6687.4,3993.28,-70.291,29.8713,235.926,4155.49,3832.08,9025.94,16.7168,-91.0626,20.7409,-14723.6,18854.9,-4226.51,105.447,184.08,167.78,-140.997,-11410.6,-1552.58,2.30934,-3.04095,96.6101,17652.3,7774.21,10.6437,103.257,120.276,51.8092,1307.12,-10454.1,-1328.51,-10.017,-37.2236,67.6492,8671.83,2515.76,2031.0,8.33905,-4.9485,0.0320681
3.47,18115.5,7175.43,4438.25,-77.8043,26.7938,231.201,4161.25,3827.95,9015.16,16.6968,-91.6415,20.7105,-15237.1,18919.2,-4188.56,105.399,181.332,167.321,-144.809,-11422.7,-1516.91,2.39229,-2.99429,96.919,18086.1,7705.89,-150.375,112.73,119.705,51.0389,1358.31,-10440.6,-1357.85,-10.0511,-36.8455,67.7032,8694.81,2462.3,2090.46,7.08287,-5.00952,0.491458
3.4705,17766.8,7663.47,4883.22,-85.3175,23.7164,226.476,4167.01,3823.81,9004.38,16.6768,-92.2204,20.6801,-15750.6,18983.5,-4150.61,105.352,178.584,166.862,-148.621,-11434.8,-1481.23,2.47524,-2.94762,97.2279,18519.9,7637.57,-311.394,122.203,119.134,50.2686,1409.49,-10427.1,-1387.19,-10.0851,-36.4673,67.7572,8717.78,2408.84,2149.93,5.82669,-5.07054,0.950848
3.471,17418.1,8151.5,5328.18,-92.8307,20.6389,221.75,4172.78,3819.67,8993.6,16.6567,-92.7994,20.6497,-16264.0,19047.8,-4112.66,105.304,175.836,166.403,-152.433,-11447.0,-1445.55,2.55819,-2.90095,97.5368,18953.8,7569.25,-472.413,131.676,118.563,49.4983,1460.67,-10413.6,-1416.52,-10.1192,-36.0891,67.8112,8740.75,2355.37,2209.39,4.57051,-5.13156,1.41024
3.4715,17087.9,9059.22,5185.17,-100.339,17.7887,217.162,4177.43,3818.27,9000.79,16.5878,-93.4051,20.5566,-16692.3,19155.0,-3882.68,103.424,170.061,166.299,-150.884,-11452.2,-1409.04,2.68306,-2.89006,97.8497,19312.5,7528.63,-657.423,139.438,115.794,47.7465,1509.24,-10393.7,-1445.47,-10.1151,-35.5874,67.8797,8769.49,2323.8,2245.83,4.06967,-5.16818,1.56976
3.472,16763.0,10086.8,4874.16,-107.847,15.0033,212.612,4181.76,3817.64,9013.11,16.5049,-94.0184,20.4456,-17096.3,19274.3,-3597.84,101.02,163.421,166.295,-147.803,-11455.5,-1372.29,2.81991,-2.88939,98.1637,19649.8,7495.93,-849.287,146.71,112.398,45.7142,1557.05,-10372.0,-1474.31,-10.1,-35.0504,67.9523,8799.89,2298.49,2275.69,3.78464,-5.19784,1.64361
3.4725,16438.0,11114.5,4563.15,-115.354,12.2179,208.062,4186.09,3817.01,9025.44,16.422,-94.6318,20.3346,-17500.2,19393.7,-3312.99,98.6165,156.781,166.292,-144.722,-11458.7,-1335.53,2.95676,-2.88873,98.4778,19987.1,7463.23,-1041.15,153.983,109.001,43.682,1604.87,-10350.3,-1503.15,-10.085,-34.5133,68.0249,8830.28,2273.17,2305.55,3.49961,-5.2275,1.71746
3.473,16113.1,12142.1,4252.15,-122.862,9.43258,203.512,4190.42,3816.38,9037.76,16.3391,-95.2452,20.2236,-17904.2,19513.1,-3028.15,96.2126,150.141,166.289,-141.641,-11462.0,-1298.78,3.09361,-2.88806,98.7919,20324.4,7430.53,-1233.02,161.255,105.605,41.6498,1652.69,-10328.7,-1531.99,-10.0699,-33.9763,68.0976,8860.67,2247.86,2335.41,3.21457,-5.25716,1.79131
3.4735,15788.2,13169.7,3941.14,-130.369,6.64721,198.963,4194.75,3815.75,9050.09,16.2561,-95.8586,20.1126,-18308.1,19632.4,-2743.31,93.8088,143.502,166.286,-138.56,-11465.2,-1262.03,3.23046,-2.88739,99.1059,20661.7,7397.83,-1424.88,168.528,102.208,39.6175,1700.51,-10307.0,-1560.82,-10.0549,-33.4392,68.1702,8891.07,2222.54,2365.27,2.92954,-5.28681,1.86516
3.474,15463.2,14197.3,3630.13,-137.877,3.86185,194.413,4199.09,3815.12,9062.41,16.1732,-96.4719,20.0016,-18712.1,19751.8,-2458.46,91.4049,136.862,166.283,-135.479,-11468.5,-1225.27,3.36731,-2.88672,99.42,20999.0,7365.13,-1616.74,175.8,98.8114,37.5853,1748.33,-10285.3,-1589.66,-10.0398,-32.9022,68.2428,8921.46,2197.23,2395.13,2.64451,-5.31647,1.93901
3.4745,15138.3,15225.0,3319.12,-145.384,1.07648,189.863,4203.42,3814.5,9074.74,16.0903,-97.0853,19.8906,-19116.1,19871.2,-2173.62,89.0011,130.222,166.28,-132.398,-11471.7,-1188.52,3.50416,-2.88606,99.734,21336.3,7332.43,-1808.61,183.073,95.4148,35.5531,1796.15,-10263.6,-1618.5,-10.0248,-32.3651,68.3155,8951.86,2171.92,2424.99,2.35948,-5.34613,2.01286
3.475,14813.4,16252.6,3008.12,-152.892,-1.70888,185.313,4207.75,3813.87,9087.07,16.0074,-97.6987,19.7796,-19520.0,19990.6,-1888.77,86.5973,123.583,166.277,-129.317,-11475.0,-1151.77,3.64101,-2.88539,100.048,21673.6,7299.73,-2000.47,190.345,92.0182,33.5208,1843.97,-10242.0,-1647.34,-10.0097,-31.8281,68.3881,8982.25,2146.6,2454.85,2.07444,-5.37579,2.08671
3.4755,14488.5,17280.2,2697.11,-160.399,-4.49425,180.763,4212.08,3813.24,9099.39,15.9245,-98.312,19.6686,-19924.0,20109.9,-1603.93,84.1934,116.943,166.274,-126.236,-11478.2,-1115.01,3.77786,-2.88472,100.362,22010.9,7267.03,-2192.34,197.618,88.6216,31.4886,1891.78,-10220.3,-1676.17,-9.99468,-31.291,68.4607,9012.64,2121.29,2484.72,1.78941,-5.40545,2.16055
3.476,14818.0,17833.2,2165.88,-163.571,-4.8855,177.432,4218.66,3792.51,9097.36,15.7879,-98.9142,19.6128,-20100.4,20056.8,-1124.61,81.3655,109.29,164.276,-127.161,-11493.0,-1115.91,3.94961,-2.7714,100.672,22261.8,7363.25,-2368.26,199.846,83.9734,28.701,1924.7,-10201.4,-1720.49,-10.0474,-30.6204,68.5454,9029.21,2136.95,2489.19,1.66565,-5.55281,2.05399
3.4765,15229.4,18326.8,1607.11,-166.201,-4.97748,174.253,4225.51,3769.26,9093.53,15.6445,-99.515,19.5638,-20248.4,19982.2,-620.977,78.4846,101.51,162.028,-128.586,-11509.1,-1121.52,4.12573,-2.64399,100.981,22501.9,7475.58,-2542.19,201.444,79.1687,25.819,1955.75,-10183.0,-1766.74,-10.1085,-29.9332,68.6315,9044.05,2157.74,2490.5,1.56205,-5.71489,1.92486
3.477,15640.8,18820.4,1048.35,-168.831,-5.06946,171.074,4232.37,3746.01,9089.7,15.5011,-100.116,19.5149,-20396.4,19907.5,-117.345,75.6037,93.7309,159.781,-130.012,-11525.3,-1127.12,4.30185,-2.51658,101.29,22742.0,7587.91,-2716.13,203.041,74.364,22.937,1986.79,-10164.5,-1813.0,-10.1697,-29.2459,68.7177,9058.9,2178.53,2491.8,1.45845,-5.87698,1.79574
3.4775,16052.1,19314.0,489.587,-171.461,-5.16145,167.895,4239.23,3722.77,9085.87,15.3578,-100.717,19.466,-20544.5,19832.9,386.287,72.7228,85.9514,157.534,-131.437,-11541.5,-1132.73,4.47797,-2.38917,101.599,22982.0,7700.24,-2890.06,204.639,69.5593,20.055,2017.84,-10146.0,-1859.25,-10.2308,-28.5587,68.8038,9073.74,2199.32,2493.11,1.35486,-6.03906,1.66662
3.478,16463.5,19807.6,-69.1751,-174.092,-5.25343,164.716,4246.08,3699.52,9082.04,15.2144,-101.317,19.417,-20692.5,19758.2,889.919,69.8419,78.1719,155.286,-132.863,-11557.7,-1138.33,4.65409,-2.26176,101.908,23222.1,7812.57,-3063.99,206.237,64.7546,17.173,2048.89,-10127.5,-1905.5,-10.292,-27.8714,68.89,9088.58,2220.11,2494.41,1.25126,-6.20114,1.5375
3.4785,16874.9,20301.3,-627.938,-176.722,-5.34542,161.537,4252.94,3676.27,9078.21,15.0711,-101.918,19.3681,-20840.5,19683.6,1393.55,66.961,70.3924,153.039,-134.288,-11573.8,-1143.94,4.83021,-2.13435,102.218,23462.2,7924.91,-3237.93,207.834,59.9499,14.2909,2079.94,-10109.1,-1951.75,-10.3532,-27.1842,68.9761,9103.42,2240.9,2495.72,1.14766,-6.36322,1.40838
3.479,17286.3,20794.9,-1186.7,-179.352,-5.4374,158.358,4259.79,3653.03,9074.38,14.9277,-102.519,19.3192,-20988.5,19608.9,1897.18,64.0801,62.6129,150.792,-135.714,-11590.0,-1149.54,5.00633,-2.00693,102.527,23702.2,8037.24,-3411.86,209.432,55.1452,11.4089,2110.99,-10090.6,-1998.01,-10.4143,-26.4969,69.0623,9118.26,2261.68,2497.02,1.04406,-6.5253,1.27926
3.4795,17697.7,21288.5,-1745.46,-181.982,-5.52939,155.179,4266.65,3629.78,9070.56,14.7843,-103.12,19.2702,-21136.5,19534.3,2400.81,61.1992,54.8333,148.544,-137.139,-11606.2,-1155.15,5.18245,-1.87952,102.836,23942.3,8149.57,-3585.79,211.029,50.3405,8.5269,2142.04,-10072.1,-2044.26,-10.4755,-25.8097,69.1484,9133.1,2282.47,2498.33,0.940461,-6.68739,1.15014
3.48,18109.0,21782.1,-2304.23,-184.612,-5.62137,152.0,4273.5,3606.53,9066.73,14.641,-103.721,19.2213,-21284.5,19459.6,2904.45,58.3183,47.0538,146.297,-138.565,-11622.3,-1160.75,5.35856,-1.75211,103.145,24182.4,8261.9,-3759.72,212.627,45.5358,5.64488,2173.09,-10053.6,-2090.51,-10.5366,-25.1224,69.2346,9147.94,2303.26,2499.63,0.836862,-6.84947,1.02102
3.4805,18863.7,21044.4,-2256.89,-185.078,-6.37968,148.889,4267.87,3618.2,9086.7,14.4444,-104.426,19.2048,-21376.9,19340.3,2738.96,56.0104,40.3502,143.69,-117.491,-11620.9,-1176.47,5.41745,-1.63525,103.473,24290.4,8579.52,-3905.93,209.044,41.7835,3.8153,2205.52,-10052.3,-2120.33,-10.6034,-24.4045,69.3851,9169.8,2309.46,2472.35,0.529469,-7.15929,0.851015
3.481,19618.4,20306.6,-2209.56,-185.544,-7.13799,145.779,4262.24,3629.88,9106.67,14.2478,-105.132,19.1883,-21469.2,19221.1,2573.48,53.7025,33.6465,141.084,-96.4169,-11619.4,-1192.19,5.47633,-1.51839,103.8,24398.4,8897.13,-4052.13,205.461,38.0313,1.98571,2237.95,-10050.9,-2150.16,-10.6701,-23.6865,69.5356,9191.66,2315.67,2445.06,0.222075,-7.4691,0.681014
3.4815,20373.1,19568.8,-2162.23,-186.01,-7.8963,142.668,4256.6,3641.55,9126.64,14.0512,-105.837,19.1718,-21561.5,19101.8,2408.0,51.3946,26.9429,138.477,-75.3428,-11617.9,-1207.91,5.53522,-1.40153,104.128,24506.5,9214.74,-4198.33,201.878,34.2791,0.156131,2270.39,-10049.5,-2179.98,-10.7368,-22.9685,69.6861,9213.52,2321.87,2417.77,-0.0853176,-7.77892,0.511012
3.482,21127.8,18831.1,-2114.89,-186.476,-8.6546,139.558,4250.97,3653.22,9146.6,13.8547,-106.543,19.1552,-21653.9,18982.6,2242.52,49.0867,20.2393,135.87,-54.2687,-11616.5,-1223.63,5.5941,-1.28466,104.455,24614.5,9532.35,-4344.54,198.295,30.5268,-1.67345,2302.82,-10048.1,-2209.8,-10.8035,-22.2506,69.8366,9235.38,2328.07,2390.49,-0.392711,-8.08874,0.34101
3.4825,21882.5,18093.3,-2067.56,-186.942,-9.41291,136.447,4245.34,3664.89,9166.57,13.6581,-107.248,19.1387,-21746.2,18863.3,2077.03,46.7788,13.5356,133.263,-33.1946,-11615.0,-1239.35,5.65299,-1.1678,104.783,24722.6,9849.96,-4490.74,194.713,26.7746,-3.50304,2335.25,-10046.8,-2239.62,-10.8702,-21.5326,69.9871,9257.24,2334.28,2363.2,-0.700104,-8.39856,0.171008
3.483,22637.1,17355.6,-2020.23,-187.409,-10.1712,133.337,4239.71,3676.56,9186.54,13.4615,-107.954,19.1222,-21838.5,18744.1,1911.55,44.4709,6.83197,130.657,-12.1206,-11613.5,-1255.08,5.71187,-1.05094,105.111,24830.6,10167.6,-4636.94,191.13,23.0224,-5.33262,2367.68,-10045.4,-2269.45,-10.9369,-20.8147,70.1376,9279.1,2340.48,2335.91,-1.0075,-8.70838,0.00100589
3.4835,23391.8,16617.8,-1972.9,-187.875,-10.9295,130.226,4234.07,3688.23,9206.51,13.2649,-108.66,19.1057,-21930.9,18624.8,1746.07,42.163,0.128331,128.05,8.95351,-11612.1,-1270.8,5.77076,-0.934076,105.438,24938.6,10485.2,-4783.14,187.547,19.2701,-7.1622,2400.12,-10044.0,-2299.27,-11.0037,-20.0967,70.2881,9300.96,2346.69,2308.63,-1.31489,-9.0182,-0.168996
3.484,24146.5,15880.1,-1925.56,-188.341,-11.6878,127.116,4228.44,3699.91,9226.48,13.0684,-109.365,19.0892,-22023.2,18505.6,1580.58,39.8551,-6.57531,125.443,30.0276,-11610.6,-1286.52,5.82964,-0.817214,105.766,25046.7,10802.8,-4929.35,183.964,15.5179,-8.99179,2432.55,-10042.6,-2329.09,-11.0704,-19.3788,70.4386,9322.82,2352.89,2281.34,-1.62228,-9.32802,-0.338998
3.4845,24893.3,15111.7,-1913.34,-188.638,-12.2848,123.844,4223.7,3709.95,9245.9,12.8638,-110.081,19.0632,-22116.2,18368.5,1383.51,37.6688,-12.9715,122.944,52.3413,-11610.4,-1303.23,5.90003,-0.693101,106.098,25125.2,11120.1,-5062.58,180.051,12.0389,-10.6031,2466.01,-10042.5,-2357.46,-11.1332,-18.6603,70.5906,9346.55,2360.68,2252.49,-1.91393,-9.63132,-0.490537
3.485,25577.3,14098.3,-2182.05,-187.585,-11.5908,119.283,4226.08,3706.99,9260.9,12.5949,-110.877,18.9614,-22213.9,18088.6,933.688,36.4551,-16.9082,121.307,84.5719,-11620.5,-1327.92,6.06246,-0.510987,106.465,24967.5,11435.0,-5092.06,173.502,10.7459,-10.4686,2507.64,-10052.1,-2374.15,-11.1648,-17.9375,70.7547,9385.2,2381.13,2211.18,-2.07956,-9.88253,-0.494376
3.4855,26261.2,13085.0,-2450.75,-186.532,-10.8969,114.722,4228.45,3704.03,9275.89,12.326,-111.674,18.8595,-22311.6,17808.8,483.868,35.2415,-20.845,119.669,116.803,-11630.6,-1352.61,6.22488,-0.328872,106.832,24809.9,11749.8,-5121.55,166.953,9.45298,-10.3341,2549.28,-10061.7,-2390.84,-11.1963,-17.2147,70.9187,9423.85,2401.59,2169.87,-2.24519,-10.1337,-0.498214
3.486,26945.1,12071.6,-2719.45,-185.479,-10.203,110.161,4230.83,3701.06,9290.89,12.0572,-112.47,18.7577,-22409.4,17529.0,34.0467,34.0279,-24.7817,118.032,149.033,-11640.7,-1377.3,6.38731,-0.146757,107.199,24652.2,12064.7,-5151.03,160.404,8.16001,-10.1995,2590.92,-10071.3,-2407.53,-11.2279,-16.4918,71.0828,9462.51,2422.04,2128.56,-2.41083,-10.3849,-0.502053
3.4865,27629.0,11058.3,-2988.15,-184.426,-9.50905,105.601,4233.21,3698.1,9305.89,11.7883,-113.267,18.6559,-22507.1,17249.2,-415.774,32.8143,-28.7184,116.394,181.264,-11650.7,-1401.99,6.54974,0.0353571,107.565,24494.6,12379.6,-5180.52,153.855,6.86705,-10.065,2632.55,-10081.0,-2424.22,-11.2595,-15.769,71.2469,9501.16,2442.5,2087.24,-2.57646,-10.6362,-0.505891
3.487,28312.9,10044.9,-3256.85,-183.373,-8.81511,101.04,4235.59,3695.14,9320.89,11.5194,-114.063,18.5541,-22604.8,16969.3,-865.595,31.6006,-32.6552,114.757,213.494,-11660.8,-1426.68,6.71216,0.217472,107.932,24336.9,12694.4,-5210.0,147.306,5.57408,-9.93047,2674.19,-10090.6,-2440.91,-11.2911,-15.0462,71.4109,9539.81,2462.96,2045.93,-2.7421,-10.8874,-0.50973
3.4875,28996.8,9031.54,-3525.56,-182.32,-8.12118,96.4788,4237.96,3692.17,9335.88,11.2506,-114.859,18.4522,-22702.6,16689.5,-1315.42,30.387,-36.5919,113.119,245.725,-11670.9,-1451.37,6.87459,0.399586,108.299,24179.3,13009.3,-5239.48,140.757,4.28111,-9.79593,2715.83,-10100.2,-2457.6,-11.3226,-14.3234,71.575,9578.46,2483.41,2004.62,-2.90773,-11.1386,-0.513568
3.488,29680.8,8018.18,-3794.26,-181.267,-7.42724,91.918,4240.34,3689.21,9350.88,10.9817,-115.656,18.3504,-22800.3,16409.7,-1765.24,29.1734,-40.5286,111.482,277.956,-11681.0,-1476.06,7.03702,0.581701,108.666,24021.6,13324.2,-5268.97,134.209,2.98815,-9.6614,2757.46,-10109.8,-2474.29,-11.3542,-13.6006,71.7391,9617.12,2503.87,1963.31,-3.07336,-11.3898,-0.517407
3.4885,30364.7,7004.82,-4062.96,-180.214,-6.73331,87.3571,4242.72,3686.25,9365.88,10.7128,-116.452,18.2486,-22898.0,16129.9,-2215.06,27.9598,-44.4654,109.845,310.186,-11691.0,-1500.75,7.19945,0.763815,109.033,23863.9,13639.1,-5298.45,127.66,1.69518,-9.52687,2799.1,-10119.4,-2490.98,-11.3858,-12.8777,71.9031,9655.77,2524.33,1921.99,-3.239,-11.641,-0.521245
3.489,30974.0,6149.29,-4311.03,-178.793,-5.77042,82.6256,4241.65,3692.57,9379.41,10.5055,-117.249,18.1925,-23000.2,15797.9,-2551.21,26.9385,-48.2482,107.977,334.959,-11705.5,-1529.71,7.34637,0.93606,109.386,23657.7,13915.5,-5279.85,120.921,0.765808,-9.13107,2838.27,-10129.0,-2504.07,-11.4041,-12.1627,72.0601,9685.01,2542.56,1881.44,-3.36289,-11.8638,-0.511478
3.4895,31322.5,5846.17,-4486.86,-176.088,-3.86618,77.2965,4228.53,3731.39,9387.79,10.5134,-118.046,18.2964,-23117.8,15283.6,-2489.54,26.5906,-51.4922,105.306,333.632,-11735.2,-1573.6,7.43903,1.07376,109.689,23281.6,14057.4,-5092.96,113.519,1.10901,-7.82084,2868.8,-10138.8,-2504.55,-11.3761,-11.4751,72.1921,9681.29,2553.04,1843.53,-3.34069,-11.9872,-0.454092
3.49,31671.0,5543.04,-4662.7,-173.383,-1.96194,71.9673,4215.4,3770.21,9396.16,10.5213,-118.844,18.4003,-23235.3,14769.3,-2427.86,26.2427,-54.7362,102.634,332.304,-11764.9,-1617.5,7.53169,1.21146,109.992,22905.5,14199.4,-4906.07,106.117,1.45222,-6.51061,2899.33,-10148.6,-2505.02,-11.3481,-10.7875,72.3242,9677.58,2563.52,1805.62,-3.31849,-12.1105,-0.396706
3.4905,32019.4,5239.92,-4838.53,-170.678,-0.057704,66.6382,4202.28,3809.03,9404.54,10.5292,-119.641,18.5042,-23352.9,14255.0,-2366.19,25.8948,-57.9802,99.963,330.977,-11794.6,-1661.39,7.62435,1.34916,110.295,22529.4,14341.4,-4719.18,98.7143,1.79543,-5.20038,2929.86,-10158.3,-2505.5,-11.3201,-10.0998,72.4563,9673.86,2574.0,1767.72,-3.29628,-12.2339,-0.33932
3.491,32367.9,4936.79,-5014.37,-167.973,1.84653,61.3091,4189.15,3847.85,9412.92,10.5371,-120.439,18.6081,-23470.5,13740.7,-2304.52,25.5469,-61.2242,97.2915,329.649,-11824.4,-1705.28,7.71701,1.48685,110.598,22153.3,14483.3,-4532.3,91.3121,2.13864,-3.89015,2960.39,-10168.1,-2505.98,-11.2921,-9.41222,72.5883,9670.15,2584.47,1729.81,-3.27408,-12.3573,-0.281934
3.4915,32716.4,4633.67,-5190.21,-165.268,3.75077,55.9799,4176.03,3886.67,9421.3,10.545,-121.236,18.712,-23588.1,13226.4,-2242.84,25.199,-64.4682,94.6201,328.321,-11854.1,-1749.18,7.80966,1.62455,110.901,21777.2,14625.3,-4345.41,83.9098,2.48184,-2.57992,2990.92,-10177.8,-2506.46,-11.2641,-8.72458,72.7204,9666.44,2594.95,1691.9,-3.25188,-12.4807,-0.224548
3.492,33064.8,4330.54,-5366.04,-162.563,5.65501,50.6508,4162.9,3925.49,9429.68,10.553,-122.033,18.8159,-23705.6,12712.1,-2181.17,24.851,-67.7122,91.9486,326.994,-11883.8,-1793.07,7.90232,1.76225,111.205,21401.1,14767.2,-4158.52,76.5076,2.82505,-1.26969,3021.44,-10187.6,-2506.94,-11.2361,-8.03695,72.8524,9662.72,2605.43,1653.99,-3.22968,-12.604,-0.167162
3.4925,33413.3,4027.42,-5541.88,-159.858,7.55925,45.3217,4149.78,3964.31,9438.05,10.5609,-122.831,18.9198,-23823.2,12197.8,-2119.49,24.5031,-70.9562,89.2772,325.666,-11913.5,-1836.96,7.99498,1.89995,111.508,21025.0,14909.2,-3971.63,69.1054,3.16826,0.0405386,3051.97,-10197.3,-2507.41,-11.2081,-7.34932,72.9845,9659.01,2615.91,1616.08,-3.20748,-12.7274,-0.109776
3.493,33761.7,3724.29,-5717.71,-157.153,9.46349,39.9926,4136.66,4003.13,9446.43,10.5688,-123.628,19.0237,-23940.8,11683.5,-2057.82,24.1552,-74.2002,86.6057,324.338,-11943.2,-1880.86,8.08764,2.03765,111.811,20649.0,15051.1,-3784.74,61.7032,3.51146,1.35077,3082.5,-10207.1,-2507.89,-11.18,-6.66168,73.1166,9655.29,2626.38,1578.18,-3.18527,-12.8508,-0.0523901
3.4935,33975.4,3661.48,-5860.38,-154.085,11.3592,34.9572,4119.81,4042.91,9445.78,10.5836,-124.427,19.1584,-24001.1,11237.2,-1952.2,23.7857,-77.2677,83.3694,320.1,-11968.7,-1924.69,8.1304,2.2056,112.123,20252.8,15139.1,-3563.13,54.6692,3.86151,2.72577,3106.86,-10215.0,-2501.32,-11.1299,-6.00129,73.2508,9658.26,2641.74,1537.42,-3.21428,-12.8857,0.0726915
3.494,33919.4,4079.3,-5936.69,-150.289,13.2379,30.5093,4095.53,4084.62,9427.08,10.6122,-125.228,19.3549,-23947.0,10927.1,-1758.68,23.3729,-79.9824,79.0034,310.039,-11985.5,-1968.39,8.07334,2.43407,112.452,19816.4,15119.3,-3272.09,48.3718,4.22522,4.23031,3118.86,-10219.2,-2480.63,-11.0354,-5.39538,73.3896,9674.61,2666.86,1490.97,-3.34572,-12.7438,0.333164
3.4945,33863.4,4497.12,-6013.01,-146.494,15.1165,26.0614,4071.25,4126.32,9408.38,10.6407,-126.029,19.5513,-23892.8,10617.0,-1565.16,22.9602,-82.6971,74.6374,299.979,-12002.3,-2012.09,8.01629,2.66254,112.781,19380.1,15099.4,-2981.05,42.0745,4.58893,5.73486,3130.86,-10223.5,-2459.94,-10.9409,-4.78946,73.5283,9690.96,2691.98,1444.52,-3.47715,-12.6019,0.593637
3.495,33807.4,4914.93,-6089.33,-142.698,16.9952,21.6136,4046.97,4168.03,9389.68,10.6693,-126.831,19.7478,-23838.7,10306.9,-1371.64,22.5474,-85.4117,70.2714,289.919,-12019.1,-2055.79,7.95924,2.89101,113.111,18943.7,15079.5,-2690.01,35.7771,4.95265,7.23941,3142.86,-10227.7,-2439.26,-10.8464,-4.18355,73.667,9707.3,2717.1,1398.07,-3.60859,-12.46,0.85411
3.4955,33751.4,5332.75,-6165.64,-138.903,18.8739,17.1657,4022.69,4209.73,9370.98,10.6979,-127.632,19.9442,-23784.5,9996.78,-1178.13,22.1347,-88.1264,65.9054,279.858,-12036.0,-2099.5,7.90218,3.11948,113.44,18507.4,15059.7,-2398.97,29.4797,5.31636,8.74395,3154.86,-10231.9,-2418.57,-10.752,-3.57763,73.8058,9723.65,2742.22,1351.62,-3.74002,-12.318,1.11458
3.496,33695.4,5750.57,-6241.96,-135.107,20.7526,12.7178,3998.41,4251.44,9352.28,10.7264,-128.433,20.1406,-23730.4,9686.67,-984.607,21.7219,-90.841,61.5394,269.798,-12052.8,-2143.2,7.84513,3.34795,113.77,18071.0,15039.8,-2107.93,23.1823,5.68007,10.2485,3166.87,-10236.2,-2397.89,-10.6575,-2.97172,73.9445,9739.99,2767.34,1305.18,-3.87145,-12.1761,1.37505
3.4965,33639.4,6168.38,-6318.28,-131.312,22.6312,8.26994,3974.13,4293.14,9333.58,10.755,-129.234,20.3371,-23676.2,9376.55,-791.089,21.3092,-93.5557,57.1734,259.737,-12069.6,-2186.9,7.78808,3.57642,114.099,17634.7,15020.0,-1816.9,16.8849,6.04379,11.753,3178.87,-10240.4,-2377.2,-10.563,-2.3658,74.0832,9756.33,2792.46,1258.73,-4.00289,-12.0342,1.63553
3.497,33583.3,6586.2,-6394.59,-127.516,24.5099,3.82207,3949.85,4334.85,9314.88,10.7836,-130.036,20.5335,-23622.1,9066.44,-597.571,20.8964,-96.2704,52.8074,249.677,-12086.4,-2230.6,7.73102,3.80489,114.428,17198.3,15000.1,-1525.86,10.5875,6.4075,13.2576,3190.87,-10244.7,-2356.51,-10.4685,-1.75989,74.222,9772.68,2817.58,1212.28,-4.13432,-11.8923,1.896
3.4975,33527.3,7004.02,-6470.91,-123.721,26.3886,-0.625803,3925.57,4376.55,9296.18,10.8121,-130.837,20.73,-23567.9,8756.33,-404.053,20.4836,-98.985,48.4414,239.616,-12103.2,-2274.31,7.67397,4.03335,114.758,16762.0,14980.2,-1234.82,4.29015,6.77121,14.7621,3202.87,-10248.9,-2335.83,-10.374,-1.15397,74.3607,9789.02,2842.7,1165.83,-4.26576,-11.7504,2.15647
