Time,RFoot_accel.x,RFoot_accel.y,RFoot_accel.z,RFoot_gyro.x,RFoot_gyro.y,RFoot_gyro.z,LFoot_accel.x,LFoot_accel.y,LFoot_accel.z,LFoot_gyro.x,LFoot_gyro.y,LFoot_gyro.z,RShank_accel.x,RShank_accel.y,RShank_accel.z,RShank_gyro.x,RShank_gyro.y,RShank_gyro.z,LShank_accel.x,LShank_accel.y,LShank_accel.z,LShank_gyro.x,LShank_gyro.y,LShank_gyro.z,RThigh_accel.x,RThigh_accel.y,RThigh_accel.z,RThigh_gyro.x,RThigh_gyro.y,RThigh_gyro.z,LThigh_accel.x,LThigh_accel.y,LThigh_accel.z,LThigh_gyro.x,LThigh_gyro.y,LThigh_gyro.z,Pelvis_accel.x,Pelvis_accel.y,Pelvis_accel.z,Pelvis_gyro.x,Pelvis_gyro.y,Pelvis_gyro.z
3.25,6029.97,-1375.73,11232.1,-111.954,339.988,142.453,4101.69,3673.95,8154.31,11.0468,20.6502,15.0562,2119.74,10576.2,1900.38,32.6827,-40.1589,353.552,1257.11,-9470.0,-2686.87,-11.5449,-24.2162,49.3086,-6998.4,2996.43,-2135.82,-22.4453,118.302,97.8814,569.181,-9576.87,-503.089,-27.409,-36.0201,81.6082,6064.25,-544.76,1829.12,28.4879,21.7852,19.1547
3.2505,6111.98,-1402.24,11270.7,-112.114,340.025,143.14,4107.08,3685.47,8152.02,11.0903,20.8215,15.3662,2081.62,10625.8,1876.43,32.6537,-40.436,354.302,1217.61,-9498.52,-2661.54,-11.1839,-24.4031,49.5106,-6980.71,3003.9,-2164.98,-22.0908,118.316,97.4849,569.804,-9608.24,-469.702,-27.2602,-36.032,81.6161,6073.9,-538.239,1826.12,28.8022,21.6948,18.7849
3.251,6194.0,-1428.75,11309.3,-112.274,340.062,143.827,4112.46,3696.99,8149.73,11.1337,20.9927,15.6761,2043.5,10675.5,1852.49,32.6248,-40.7132,355.052,1178.12,-9527.04,-2636.21,-10.823,-24.59,49.7125,-6963.01,3011.37,-2194.14,-21.7364,118.331,97.0884,570.427,-9639.61,-436.314,-27.1114,-36.0439,81.6241,6083.54,-531.718,1823.13,29.1165,21.6043,18.4151
3.2515,6276.02,-1455.27,11348.0,-112.433,340.099,144.514,4117.85,3708.52,8147.44,11.1771,21.164,15.9861,2005.38,10725.1,1828.54,32.5958,-40.9903,355.802,1138.63,-9555.55,-2610.88,-10.462,-24.7769,49.9145,-6945.32,3018.84,-2223.3,-21.3819,118.345,96.6919,571.05,-9670.99,-402.927,-26.9626,-36.0558,81.632,6093.19,-525.197,1820.13,29.4308,21.5139,18.0453
3.252,6358.03,-1481.78,11386.6,-112.593,340.136,145.2,4123.23,3720.04,8145.15,11.2206,21.3353,16.2961,1967.26,10774.8,1804.6,32.5669,-41.2675,356.552,1099.13,-9584.07,-2585.55,-10.101,-24.9638,50.1165,-6927.63,3026.31,-2252.46,-21.0275,118.36,96.2954,571.673,-9702.36,-369.539,-26.8139,-36.0677,81.6399,6102.84,-518.676,1817.14,29.745,21.4235,17.6755
3.2525,6440.05,-1508.29,11425.3,-112.753,340.173,145.887,4128.62,3731.57,8142.86,11.264,21.5066,16.606,1929.14,10824.4,1780.65,32.5379,-41.5447,357.303,1059.64,-9612.59,-2560.22,-9.74007,-25.1507,50.3184,-6909.93,3033.78,-2281.62,-20.673,118.374,95.8989,572.296,-9733.73,-336.152,-26.6651,-36.0796,81.6478,6112.49,-512.155,1814.14,30.0593,21.3331,17.3057
3.253,6522.06,-1534.81,11463.9,-112.913,340.21,146.574,4134.0,3743.09,8140.57,11.3075,21.6779,16.916,1891.02,10874.1,1756.71,32.5089,-41.8218,358.053,1020.15,-9641.11,-2534.89,-9.3791,-25.3376,50.5204,-6892.24,3041.25,-2310.78,-20.3186,118.388,95.5024,572.919,-9765.1,-302.764,-26.5163,-36.0916,81.6557,6122.14,-505.634,1811.14,30.3736,21.2427,16.9359
3.2535,6599.87,-1566.23,11496.1,-113.115,340.253,147.199,4138.84,3743.23,8135.73,11.3831,21.8452,17.2415,1854.22,10919.8,1730.01,32.5083,-42.0662,358.778,983.02,-9669.65,-2514.5,-9.06579,-25.5452,50.6967,-6881.36,3047.18,-2342.89,-19.9414,118.333,95.1082,583.948,-9792.42,-265.267,-26.4305,-36.1426,81.6463,6132.73,-498.096,1805.75,30.6848,21.1748,16.5692
3.254,6669.25,-1607.48,11515.4,-113.404,340.308,147.704,4142.56,3720.59,8125.8,11.5232,22.0046,17.598,1820.05,10957.8,1697.81,32.5643,-42.2451,359.452,950.631,-9698.22,-2503.98,-8.84778,-25.7943,50.8218,-6884.1,3050.04,-2380.88,-19.519,118.136,94.7188,615.789,-9811.63,-219.551,-26.4707,-36.272,81.6023,6145.19,-488.521,1795.54,30.9897,21.1519,16.2087
3.2545,6738.63,-1648.73,11534.6,-113.693,340.363,148.208,4146.29,3697.95,8115.88,11.6633,22.164,17.9546,1785.89,10995.7,1665.6,32.6203,-42.424,360.126,918.243,-9726.79,-2493.47,-8.62977,-26.0433,50.9469,-6886.84,3052.91,-2418.88,-19.0965,117.939,94.3293,647.63,-9830.83,-173.835,-26.5109,-36.4013,81.5583,6157.66,-478.947,1785.33,31.2946,21.1291,15.8483
3.255,6808.01,-1689.98,11553.9,-113.982,340.418,148.712,4150.02,3675.32,8105.95,11.8034,22.3235,18.3111,1751.73,11033.6,1633.4,32.6763,-42.6028,360.8,885.855,-9755.36,-2482.95,-8.41176,-26.2923,51.072,-6889.58,3055.77,-2456.87,-18.674,117.742,93.9398,679.471,-9850.04,-128.12,-26.5511,-36.5306,81.5142,6170.13,-469.373,1775.13,31.5996,21.1062,15.4878
3.2555,6877.39,-1731.23,11573.2,-114.271,340.473,149.216,4153.75,3652.68,8096.03,11.9434,22.4829,18.6677,1717.57,11071.6,1601.2,32.7322,-42.7817,361.474,853.466,-9783.94,-2472.44,-8.19375,-26.5414,51.1971,-6892.33,3058.63,-2494.87,-18.2515,117.546,93.5504,711.311,-9869.25,-82.4036,-26.5913,-36.66,81.4702,6182.6,-459.798,1764.92,31.9045,21.0834,15.1274
3.256,6946.78,-1772.48,11592.5,-114.56,340.528,149.721,4157.47,3630.04,8086.1,12.0835,22.6423,19.0243,1683.41,11109.5,1568.99,32.7882,-42.9606,362.148,821.078,-9812.51,-2461.92,-7.97574,-26.7904,51.3222,-6895.07,3061.49,-2532.86,-17.829,117.349,93.1609,743.152,-9888.46,-36.6877,-26.6315,-36.7893,81.4262,6195.07,-450.224,1754.72,32.2094,21.0605,14.7669
3.2565,7016.16,-1813.73,11611.8,-114.849,340.583,150.225,4161.2,3607.41,8076.18,12.2236,22.8017,19.3808,1649.25,11147.5,1536.79,32.8442,-43.1395,362.822,788.69,-9841.08,-2451.41,-7.75773,-27.0394,51.4473,-6897.81,3064.35,-2570.86,-17.4065,117.152,92.7714,774.993,-9907.66,9.02825,-26.6718,-36.9187,81.3821,6207.54,-440.65,1744.51,32.5144,21.0376,14.4065
3.257,7085.54,-1854.98,11631.1,-115.138,340.637,150.729,4164.93,3584.77,8066.25,12.3637,22.9612,19.7374,1615.08,11185.4,1504.59,32.9002,-43.3184,363.496,756.302,-9869.65,-2440.9,-7.53972,-27.2885,51.5723,-6900.56,3067.21,-2608.85,-16.984,116.955,92.382,806.833,-9926.87,54.7442,-26.712,-37.048,81.3381,6220.0,-431.075,1734.3,32.8193,21.0148,14.046
3.2575,7154.92,-1896.23,11650.3,-115.427,340.692,151.233,4168.66,3562.13,8056.33,12.5038,23.1206,20.0939,1580.92,11223.3,1472.39,32.9562,-43.4972,364.17,723.913,-9898.22,-2430.38,-7.32171,-27.5375,51.6974,-6903.3,3070.08,-2646.85,-16.5615,116.759,91.9925,838.674,-9946.08,100.46,-26.7522,-37.1774,81.2941,6232.47,-421.501,1724.1,33.1243,20.9919,13.6855
3.258,7226.16,-1945.41,11673.7,-115.625,340.741,151.686,4181.45,3547.94,8057.48,12.6497,23.2948,20.3898,1557.62,11264.2,1450.54,33.0104,-43.7232,364.837,692.639,-9926.59,-2418.29,-7.09395,-27.7349,51.8084,-6908.6,3067.0,-2684.52,-16.1366,116.54,91.5873,867.474,-9954.0,130.979,-26.7918,-37.3004,81.2725,6250.43,-413.008,1720.32,33.4064,20.9659,13.3497
3.2585,7299.72,-2004.5,11702.3,-115.711,340.783,152.075,4205.59,3544.3,8072.49,12.8031,23.4876,20.6097,1547.88,11308.6,1441.65,33.0625,-44.0081,365.496,662.758,-9954.7,-2404.23,-6.85398,-27.8677,51.9017,-6917.09,3056.5,-2721.78,-15.7086,116.296,91.1623,892.472,-9947.83,142.501,-26.8307,-37.4157,81.2788,6275.24,-405.868,1724.57,33.6601,20.936,13.0448
3.259,7373.28,-2063.59,11730.8,-115.796,340.825,152.463,4229.72,3540.66,8087.49,12.9565,23.6803,20.8297,1538.15,11353.0,1432.75,33.1145,-44.293,366.155,632.876,-9982.81,-2390.17,-6.61401,-28.0006,51.995,-6925.58,3045.99,-2759.05,-15.2807,116.051,90.7374,917.47,-9941.65,154.024,-26.8696,-37.5309,81.2852,6300.05,-398.727,1728.82,33.9138,20.9061,12.7398
3.2595,7446.84,-2122.69,11759.4,-115.882,340.867,152.852,4253.85,3537.02,8102.5,13.1099,23.8731,21.0496,1528.41,11397.5,1423.86,33.1665,-44.5779,366.814,602.994,-10010.9,-2376.11,-6.37405,-28.1334,52.0883,-6934.07,3035.49,-2796.31,-14.8527,115.807,90.3125,942.468,-9935.47,165.546,-26.9084,-37.6462,81.2915,6324.86,-391.587,1733.07,34.1675,20.8763,12.4348
3.26,7520.4,-2181.78,11787.9,-115.967,340.908,153.241,4277.99,3533.39,8117.51,13.2633,24.0658,21.2696,1518.67,11441.9,1414.96,33.2185,-44.8628,367.473,573.112,-10039.0,-2362.05,-6.13408,-28.2662,52.1816,-6942.55,3024.99,-2833.58,-14.4247,115.562,89.8876,967.466,-9929.3,177.068,-26.9473,-37.7614,81.2979,6349.67,-384.446,1737.32,34.4212,20.8464,12.1298
3.2605,7593.97,-2240.87,11816.5,-116.053,340.95,153.629,4302.12,3529.75,8132.51,13.4167,24.2585,21.4895,1508.94,11486.3,1406.07,33.2706,-45.1477,368.131,543.231,-10067.1,-2347.99,-5.89412,-28.3991,52.275,-6951.04,3014.49,-2870.84,-13.9968,115.317,89.4627,992.464,-9923.12,188.591,-26.9862,-37.8767,81.3043,6374.48,-377.305,1741.57,34.6749,20.8165,11.8248
3.261,7667.53,-2299.96,11845.0,-116.138,340.992,154.018,4326.26,3526.11,8147.52,13.5701,24.4513,21.7095,1499.2,11530.8,1397.17,33.3226,-45.4325,368.79,513.349,-10095.2,-2333.93,-5.65415,-28.5319,52.3683,-6959.53,3003.99,-2908.11,-13.5688,115.073,89.0377,1017.46,-9916.94,200.113,-27.0251,-37.9919,81.3106,6399.29,-370.165,1745.82,34.9286,20.7866,11.5198
3.2615,7741.09,-2359.05,11873.6,-116.224,341.033,154.406,4350.39,3522.47,8162.52,13.7235,24.644,21.9295,1489.47,11575.2,1388.27,33.3746,-45.7174,369.449,483.467,-10123.4,-2319.87,-5.41419,-28.6648,52.4616,-6968.02,2993.49,-2945.38,-13.1409,114.828,88.6128,1042.46,-9910.76,211.635,-27.064,-38.1072,81.317,6424.1,-363.024,1750.08,35.1824,20.7567,11.2148
3.262,7814.65,-2418.15,11902.2,-116.309,341.075,154.795,4374.53,3518.83,8177.53,13.8769,24.8368,22.1494,1479.73,11619.6,1379.38,33.4267,-46.0023,370.108,453.586,-10151.5,-2305.81,-5.17422,-28.7976,52.5549,-6976.51,2982.98,-2982.64,-12.7129,114.584,88.1879,1067.46,-9904.59,223.158,-27.1029,-38.2224,81.3233,6448.91,-355.884,1754.33,35.4361,20.7269,10.9099
3.2625,7886.37,-2478.66,11921.1,-116.282,341.103,155.133,4384.65,3518.12,8197.4,13.9746,24.9042,22.3192,1485.31,11657.9,1365.22,33.5497,-46.2675,370.727,440.627,-10173.5,-2282.41,-5.07378,-28.8576,52.67,-6994.29,2972.83,-3013.87,-12.3478,114.293,87.8017,1081.88,-9902.09,218.703,-27.2459,-38.356,81.3408,6480.18,-343.583,1758.26,35.6744,20.6931,10.617
3.263,7956.6,-2540.3,11932.3,-116.165,341.12,155.43,4383.56,3519.75,8221.16,14.0276,24.8713,22.4487,1503.13,11691.2,1346.84,33.7295,-46.5168,371.315,441.207,-10190.6,-2251.52,-5.08496,-28.8594,52.8027,-7019.49,2962.96,-3040.27,-12.0329,113.967,87.4465,1087.84,-9902.53,201.466,-27.4723,-38.5041,81.367,6516.61,-327.155,1761.94,35.9006,20.6562,10.3339
3.2635,8026.84,-2601.95,11943.6,-116.047,341.138,155.727,4382.48,3521.38,8244.92,14.0805,24.8385,22.5783,1520.95,11724.5,1328.47,33.9093,-46.7662,371.902,441.787,-10207.7,-2220.64,-5.09614,-28.8612,52.9353,-7044.7,2953.08,-3066.67,-11.718,113.64,87.0912,1093.79,-9902.97,184.229,-27.6987,-38.6523,81.3933,6553.05,-310.727,1765.62,36.1267,20.6193,10.0507
3.264,8097.08,-2663.59,11954.8,-115.93,341.155,156.024,4381.39,3523.01,8268.68,14.1335,24.8056,22.7078,1538.77,11757.8,1310.09,34.0891,-47.0156,372.489,442.367,-10224.8,-2189.75,-5.10732,-28.863,53.0679,-7069.9,2943.21,-3093.08,-11.4031,113.313,86.736,1099.75,-9903.42,166.992,-27.9251,-38.8004,81.4195,6589.48,-294.299,1769.3,36.3528,20.5824,9.76757
3.2645,8167.32,-2725.24,11966.1,-115.813,341.172,156.321,4380.31,3524.64,8292.44,14.1865,24.7727,22.8374,1556.59,11791.1,1291.72,34.2689,-47.2649,373.077,442.947,-10241.9,-2158.87,-5.1185,-28.8648,53.2005,-7095.11,2933.34,-3119.48,-11.0882,112.986,86.3808,1105.71,-9903.86,149.755,-28.1514,-38.9486,81.4458,6625.92,-277.871,1772.98,36.579,20.5455,9.48443
3.265,8237.55,-2786.88,11977.3,-115.695,341.19,156.619,4379.22,3526.26,8316.2,14.2395,24.7399,22.9669,1574.41,11824.4,1273.34,34.4487,-47.5143,373.664,443.527,-10259.0,-2127.98,-5.12968,-28.8665,53.3331,-7120.31,2923.46,-3145.88,-10.7733,112.66,86.0256,1111.66,-9904.3,132.519,-28.3778,-39.0968,81.472,6662.35,-261.443,1776.67,36.8051,20.5086,9.20129
3.2655,8307.79,-2848.53,11988.5,-115.578,341.207,156.916,4378.14,3527.89,8339.96,14.2925,24.707,23.0965,1592.24,11857.7,1254.97,34.6286,-47.7637,374.252,444.107,-10276.2,-2097.1,-5.14086,-28.8683,53.4657,-7145.52,2913.59,-3172.28,-10.4584,112.333,85.6704,1117.62,-9904.75,115.282,-28.6042,-39.2449,81.4982,6698.78,-245.015,1780.35,37.0312,20.4717,8.91815
3.266,8378.03,-2910.17,11999.8,-115.461,341.224,157.213,4377.05,3529.52,8363.72,14.3455,24.6741,23.226,1610.06,11891.0,1236.59,34.8084,-48.013,374.839,444.687,-10293.3,-2066.21,-5.15204,-28.8701,53.5983,-7170.72,2903.72,-3198.68,-10.1435,112.006,85.3151,1123.58,-9905.19,98.0448,-28.8305,-39.3931,81.5245,6735.22,-228.587,1784.03,37.2573,20.4348,8.635
3.2665,8448.26,-2971.82,12011.0,-115.343,341.241,157.51,4375.97,3531.15,8387.48,14.3985,24.6413,23.3556,1627.88,11924.3,1218.22,34.9882,-48.2624,375.426,445.267,-10310.4,-2035.33,-5.16322,-28.8719,53.7309,-7195.93,2893.84,-3225.08,-9.82858,111.679,84.9599,1129.54,-9905.63,80.8079,-29.0569,-39.5413,81.5507,6771.65,-212.158,1787.71,37.4835,20.3979,8.35186
3.267,8514.57,-3048.6,12040.4,-115.079,341.165,157.792,4346.59,3542.34,8392.88,14.451,24.6621,23.4615,1661.77,11959.8,1184.09,35.2598,-48.3176,375.986,455.82,-10314.2,-2015.25,-5.21283,-29.0142,53.8002,-7217.6,2884.47,-3231.85,-9.45701,111.239,84.6349,1141.92,-9912.76,71.4499,-29.3032,-39.7425,81.6406,6804.59,-196.338,1799.47,37.6906,20.3624,8.05802
3.2675,8578.9,-3132.94,12078.8,-114.741,341.041,158.066,4303.06,3558.31,8389.1,14.5033,24.7098,23.5556,1703.7,11996.4,1142.07,35.5774,-48.2756,376.531,471.36,-10311.5,-2000.58,-5.28164,-29.2269,53.8378,-7237.5,2875.36,-3228.79,-9.0571,110.742,84.3251,1157.53,-9923.24,66.0312,-29.5593,-39.9704,81.7623,6835.77,-180.822,1815.28,37.8882,20.3275,7.75884
3.268,8643.24,-3217.29,12117.3,-114.403,340.917,158.34,4259.53,3574.29,8385.32,14.5556,24.7574,23.6496,1745.63,12032.9,1100.06,35.895,-48.2337,377.076,486.9,-10308.7,-1985.9,-5.35046,-29.4395,53.8755,-7257.4,2866.24,-3225.73,-8.65719,110.245,84.0152,1173.13,-9933.72,60.6125,-29.8155,-40.1982,81.8839,6866.95,-165.306,1831.08,38.0858,20.2927,7.45966
3.2685,8707.57,-3301.63,12155.7,-114.066,340.793,158.614,4216.0,3590.26,8381.54,14.6079,24.8051,23.7437,1787.56,12069.5,1058.04,36.2126,-48.1918,377.622,502.44,-10305.9,-1971.23,-5.41928,-29.6521,53.9131,-7277.31,2857.12,-3222.67,-8.25728,109.747,83.7053,1188.73,-9944.19,55.1938,-30.0716,-40.426,82.0056,6898.13,-149.79,1846.88,38.2834,20.2579,7.16047
3.269,8771.91,-3385.98,12194.1,-113.728,340.67,158.888,4172.47,3606.23,8377.76,14.6602,24.8528,23.8378,1829.48,12106.1,1016.03,36.5302,-48.1499,378.167,517.979,-10303.1,-1956.56,-5.48809,-29.8648,53.9507,-7297.21,2848.01,-3219.62,-7.85737,109.25,83.3955,1204.33,-9954.67,49.7751,-30.3278,-40.6539,82.1273,6929.31,-134.274,1862.69,38.481,20.2231,6.86129
3.2695,8836.24,-3470.33,12232.6,-113.39,340.546,159.163,4128.94,3622.2,8373.98,14.7125,24.9005,23.9319,1871.41,12142.7,974.012,36.8478,-48.1079,378.712,533.519,-10300.4,-1941.88,-5.55691,-30.0774,53.9884,-7317.11,2838.89,-3216.56,-7.45746,108.753,83.0856,1219.94,-9965.14,44.3564,-30.584,-40.8817,82.2489,6960.49,-118.758,1878.49,38.6786,20.1882,6.56211
3.27,8900.58,-3554.67,12271.0,-113.052,340.422,159.437,4085.41,3638.17,8370.2,14.7648,24.9481,24.0259,1913.34,12179.3,931.997,37.1654,-48.066,379.258,549.059,-10297.6,-1927.21,-5.62573,-30.29,54.026,-7337.01,2829.77,-3213.5,-7.05756,108.256,82.7757,1235.54,-9975.62,38.9377,-30.8401,-41.1096,82.3706,6991.67,-103.241,1894.29,38.8762,20.1534,6.26293
3.2705,8964.91,-3639.02,12309.4,-112.714,340.298,159.711,4041.89,3654.14,8366.41,14.8171,24.9958,24.12,1955.27,12215.9,889.982,37.483,-48.0241,379.803,564.599,-10294.8,-1912.54,-5.69454,-30.5027,54.0636,-7356.92,2820.66,-3210.44,-6.65765,107.758,82.4659,1251.14,-9986.1,33.519,-31.0963,-41.3374,82.4922,7022.85,-87.7253,1910.1,39.0738,20.1186,5.96374
3.271,9029.25,-3723.36,12347.9,-112.376,340.174,159.985,3998.36,3670.11,8362.63,14.8694,25.0435,24.2141,1997.2,12252.5,847.968,37.8006,-47.9822,380.348,580.139,-10292.1,-1897.86,-5.76336,-30.7153,54.1013,-7376.82,2811.54,-3207.38,-6.25774,107.261,82.156,1266.74,-9996.57,28.1003,-31.3525,-41.5652,82.6139,7054.03,-72.2092,1925.9,39.2714,20.0838,5.66456
3.2715,9075.57,-3788.97,12391.1,-111.983,339.862,160.319,3990.51,3687.66,8361.21,14.9657,25.057,24.2865,2054.81,12285.6,809.607,38.3053,-47.7121,380.82,587.1,-10306.0,-1903.89,-5.83197,-30.8259,54.2168,-7389.62,2810.91,-3193.75,-5.86055,106.579,81.912,1255.11,-9997.36,52.9371,-31.5401,-41.8536,82.7238,7072.24,-59.5174,1939.85,39.3928,20.0343,5.46177
3.272,9116.74,-3849.21,12435.8,-111.573,339.496,160.669,3992.85,3705.66,8360.46,15.0746,25.0607,24.3526,2116.9,12317.7,772.29,38.8634,-47.3769,381.271,591.609,-10324.7,-1915.84,-5.90053,-30.9073,54.3546,-7400.4,2812.72,-3177.1,-5.46414,105.843,81.6867,1235.7,-9995.37,86.4184,-31.7083,-42.1594,82.8304,7086.75,-47.6326,1953.26,39.4924,19.9806,5.28653
3.2725,9157.92,-3909.46,12480.5,-111.163,339.13,161.02,3995.2,3723.66,8359.71,15.1836,25.0645,24.4188,2179.0,12349.8,734.973,39.4216,-47.0416,381.723,596.119,-10343.4,-1927.78,-5.96909,-30.9887,54.4924,-7411.17,2814.52,-3160.45,-5.06773,105.107,81.4615,1216.28,-9993.38,119.9,-31.8764,-42.4651,82.9369,7101.25,-35.7478,1966.68,39.592,19.9269,5.11128
3.273,9199.09,-3969.71,12525.1,-110.754,338.764,161.37,3997.54,3741.66,8358.96,15.2925,25.0682,24.4849,2241.09,12381.9,697.656,39.9797,-46.7064,382.174,600.628,-10362.1,-1939.73,-6.03765,-31.0702,54.6303,-7421.94,2816.32,-3143.8,-4.67132,104.371,81.2363,1196.87,-9991.4,153.381,-32.0445,-42.7708,83.0434,7115.76,-23.863,1980.09,39.6916,19.8732,4.93603
3.2735,9240.27,-4029.95,12569.8,-110.344,338.398,161.721,3999.89,3759.66,8358.21,15.4014,25.072,24.5511,2303.19,12414.0,660.34,40.5378,-46.3712,382.625,605.138,-10380.8,-1951.67,-6.1062,-31.1516,54.7681,-7432.72,2818.12,-3127.14,-4.2749,103.636,81.0111,1177.46,-9989.41,186.862,-32.2127,-43.0765,83.15,7130.26,-11.9782,1993.51,39.7912,19.8195,4.76079
3.274,9281.44,-4090.2,12614.5,-109.934,338.032,162.072,4002.23,3777.65,8357.46,15.5104,25.0757,24.6173,2365.28,12446.1,623.023,41.096,-46.0359,383.076,609.647,-10399.5,-1963.62,-6.17476,-31.233,54.9059,-7443.49,2819.92,-3110.49,-3.87849,102.9,80.7858,1158.05,-9987.42,220.343,-32.3808,-43.3822,83.2565,7144.77,-0.0933552,2006.93,39.8908,19.7659,4.58554
3.2745,9322.62,-4150.44,12659.2,-109.525,337.666,162.422,4004.57,3795.65,8356.71,15.6193,25.0794,24.6834,2427.38,12478.2,585.706,41.6541,-45.7007,383.527,614.157,-10418.2,-1975.56,-6.24332,-31.3144,55.0437,-7454.26,2821.72,-3093.84,-3.48208,102.164,80.5606,1138.63,-9985.44,253.825,-32.5489,-43.688,83.3631,7159.27,11.7915,2020.34,39.9905,19.7122,4.4103
3.275,9363.79,-4210.69,12703.8,-109.115,337.3,162.773,4006.92,3813.65,8355.96,15.7283,25.0832,24.7496,2489.47,12510.3,548.389,42.2122,-45.3654,383.978,618.666,-10436.9,-1987.51,-6.31188,-31.3959,55.1815,-7465.04,2823.52,-3077.19,-3.08567,101.429,80.3354,1119.22,-9983.45,287.306,-32.7171,-43.9937,83.4696,7173.78,23.6763,2033.76,40.0901,19.6585,4.23505
3.2755,9404.97,-4270.94,12748.5,-108.705,336.934,163.123,4009.26,3831.65,8355.21,15.8372,25.0869,24.8158,2551.57,12542.4,511.072,42.7704,-45.0302,384.429,623.176,-10455.6,-1999.45,-6.38044,-31.4773,55.3193,-7475.81,2825.33,-3060.54,-2.68926,100.693,80.1102,1099.81,-9981.46,320.787,-32.8852,-44.2994,83.5762,7188.28,35.5611,2047.17,40.1897,19.6048,4.0598
3.276,9427.81,-4299.9,12790.2,-108.197,336.321,163.631,3990.68,3831.56,8356.45,15.8791,25.0438,25.0013,2606.01,12572.0,472.807,43.5986,-44.3613,384.706,617.894,-10460.2,-2021.65,-6.53812,-31.4917,55.4272,-7490.62,2827.28,-3035.53,-2.30697,99.6621,79.944,1090.29,-9994.0,247.379,-32.8805,-44.4229,83.7547,7208.49,61.7539,2064.09,40.2324,19.4595,3.94104
3.2765,9448.37,-4324.95,12831.6,-107.676,335.676,164.159,3969.48,3829.21,8357.93,15.9126,24.9948,25.2018,2659.5,12601.3,434.424,44.4607,-43.6506,384.961,611.388,-10462.9,-2045.13,-6.70695,-31.4978,55.5314,-7505.93,2829.26,-3009.48,-1.92646,98.5942,79.7853,1082.0,-10008.3,160.609,-32.8541,-44.5236,83.9422,7229.4,89.7353,2081.45,40.268,19.3028,3.82934
3.277,9468.93,-4350.0,12872.9,-107.156,335.032,164.686,3948.29,3826.86,8359.42,15.9462,24.9458,25.4023,2712.98,12630.6,396.04,45.3227,-42.94,385.216,604.882,-10465.7,-2068.6,-6.87578,-31.5039,55.6355,-7521.23,2831.24,-2983.43,-1.54594,97.5263,79.6265,1073.72,-10022.7,73.8397,-32.8278,-44.6244,84.1297,7250.32,117.717,2098.8,40.3036,19.146,3.71764
3.2775,9489.48,-4375.06,12914.2,-106.635,334.388,165.214,3927.09,3824.51,8360.91,15.9797,24.8969,25.6028,2766.47,12659.9,357.656,46.1847,-42.2293,385.471,598.376,-10468.4,-2092.08,-7.04461,-31.51,55.7397,-7536.54,2833.21,-2957.38,-1.16542,96.4584,79.4678,1065.44,-10037.0,-12.9299,-32.8014,-44.7251,84.3172,7271.24,145.698,2116.16,40.3392,18.9893,3.60594
3.278,9510.04,-4400.11,12955.6,-106.115,333.744,165.742,3905.89,3822.16,8362.39,16.0133,24.8479,25.8032,2819.96,12689.2,319.273,47.0467,-41.5187,385.727,591.87,-10471.2,-2115.56,-7.21343,-31.5161,55.8438,-7551.85,2835.19,-2931.33,-0.784908,95.3906,79.309,1057.15,-10051.4,-99.6993,-32.7751,-44.8258,84.5047,7292.15,173.679,2133.51,40.3749,18.8325,3.49424
3.2785,9530.59,-4425.16,12996.9,-105.594,333.099,166.269,3884.69,3819.81,8363.88,16.0468,24.7989,26.0037,2873.44,12718.6,280.889,47.9088,-40.808,385.982,585.364,-10474.0,-2139.04,-7.38226,-31.5222,55.948,-7567.16,2837.17,-2905.28,-0.404392,94.3227,79.1502,1048.87,-10065.7,-186.469,-32.7488,-44.9266,84.6922,7313.07,201.661,2150.87,40.4105,18.6758,3.38254
3.279,9551.15,-4450.21,13038.3,-105.073,332.455,166.797,3863.49,3817.46,8365.37,16.0804,24.7499,26.2042,2926.93,12747.9,242.506,48.7708,-40.0973,386.237,578.858,-10476.7,-2162.52,-7.55109,-31.5283,56.0521,-7582.47,2839.15,-2879.24,-0.0238751,93.2548,78.9915,1040.59,-10080.1,-273.238,-32.7224,-45.0273,84.8797,7333.99,229.642,2168.23,40.4461,18.519,3.27085
3.2795,9571.7,-4475.26,13079.6,-104.553,331.811,167.324,3842.3,3815.11,8366.85,16.1139,24.701,26.4046,2980.42,12777.2,204.122,49.6328,-39.3867,386.492,572.352,-10479.5,-2186.0,-7.71992,-31.5344,56.1563,-7597.78,2841.12,-2853.19,0.356641,92.1869,78.8327,1032.3,-10094.4,-360.008,-32.6961,-45.128,85.0672,7354.9,257.624,2185.58,40.4817,18.3623,3.15915
3.28,9592.26,-4500.32,13121.0,-104.032,331.167,167.852,3821.1,3812.76,8368.34,16.1475,24.652,26.6051,3033.91,12806.5,165.739,50.4948,-38.676,386.747,565.846,-10482.2,-2209.47,-7.88874,-31.5405,56.2604,-7613.09,2843.1,-2827.14,0.737158,91.119,78.674,1024.02,-10108.8,-446.777,-32.6698,-45.2287,85.2547,7375.82,285.605,2202.94,40.5173,18.2056,3.04745
3.2805,9618.44,-4509.01,13149.7,-103.504,330.288,168.374,3833.58,3781.15,8376.63,16.1258,24.6451,26.7114,3081.78,12873.7,116.37,51.4939,-37.5071,386.925,546.958,-10469.4,-2222.65,-7.98763,-31.5954,56.2685,-7650.6,2839.55,-2783.49,1.11428,89.5096,78.5071,988.925,-10116.9,-483.638,-32.6021,-45.4418,85.3907,7405.75,309.94,2225.1,40.4068,17.9765,2.91364
3.281,9644.62,-4517.71,13178.5,-102.975,329.408,168.895,3846.05,3749.55,8384.92,16.1041,24.6383,26.8176,3129.65,12940.9,67.0012,52.493,-36.3382,387.103,528.071,-10456.7,-2235.82,-8.08652,-31.6504,56.2765,-7688.1,2836.01,-2739.85,1.49141,87.9003,78.3403,953.83,-10125.1,-520.499,-32.5345,-45.655,85.5266,7435.69,334.275,2247.25,40.2963,17.7475,2.77983
3.2815,9670.79,-4526.41,13207.3,-102.446,328.529,169.417,3858.53,3717.94,8393.21,16.0824,24.6314,26.9239,3177.52,13008.1,17.6325,53.492,-35.1693,387.281,509.184,-10443.9,-2248.99,-8.18541,-31.7054,56.2845,-7725.61,2832.46,-2696.21,1.86854,86.2909,78.1735,918.734,-10133.2,-557.36,-32.4669,-45.8681,85.6626,7465.62,358.611,2269.41,40.1858,17.5185,2.64602
3.282,9696.97,-4535.11,13236.0,-101.918,327.65,169.939,3871.01,3686.34,8401.5,16.0607,24.6246,27.0301,3225.39,13075.3,-31.7362,54.4911,-34.0004,387.46,490.296,-10431.1,-2262.17,-8.28429,-31.7604,56.2925,-7763.11,2828.91,-2652.57,2.24566,84.6816,78.0066,883.639,-10141.4,-594.221,-32.3993,-46.0812,85.7985,7495.55,382.946,2291.56,40.0754,17.2894,2.51221
3.2825,9723.15,-4543.8,13264.8,-101.389,326.77,170.461,3883.48,3654.73,8409.79,16.039,24.6177,27.1364,3273.26,13142.5,-81.1049,55.4902,-32.8315,387.638,471.409,-10418.3,-2275.34,-8.38318,-31.8154,56.3005,-7800.62,2825.37,-2608.92,2.62279,83.0722,77.8398,848.544,-10149.6,-631.082,-32.3317,-46.2943,85.9345,7525.49,407.281,2313.72,39.9649,17.0604,2.3784
3.283,9749.33,-4552.5,13293.6,-100.861,325.891,170.983,3895.96,3623.13,8418.09,16.0173,24.6109,27.2426,3321.13,13209.7,-130.474,56.4892,-31.6626,387.816,452.521,-10405.5,-2288.51,-8.48207,-31.8704,56.3085,-7838.13,2821.82,-2565.28,2.99992,81.4629,77.6729,813.449,-10157.7,-667.943,-32.2641,-46.5074,86.0704,7555.42,431.616,2335.88,39.8544,16.8314,2.24459
3.2835,9775.51,-4561.2,13322.3,-100.332,325.012,171.505,3908.44,3591.52,8426.38,15.9956,24.604,27.3489,3369.0,13276.9,-179.842,57.4883,-30.4937,387.994,433.634,-10392.7,-2301.69,-8.58096,-31.9254,56.3166,-7875.63,2818.28,-2521.64,3.37704,79.8535,77.5061,778.354,-10165.9,-704.804,-32.1965,-46.7205,86.2064,7585.35,455.952,2358.03,39.7439,16.6024,2.11079
3.284,9801.69,-4569.89,13351.1,-99.8035,324.132,172.027,3920.92,3559.92,8434.67,15.974,24.5972,27.4551,3416.87,13344.1,-229.211,58.4874,-29.3248,388.172,414.746,-10379.9,-2314.86,-8.67984,-31.9804,56.3246,-7913.14,2814.73,-2477.99,3.75417,78.2441,77.3392,743.258,-10174.0,-741.665,-32.1289,-46.9336,86.3423,7615.29,480.287,2380.19,39.6334,16.3733,1.97698
3.2845,9830.39,-4584.41,13376.3,-99.2897,323.253,172.537,3932.34,3534.84,8440.34,15.9842,24.6067,27.5738,3465.73,13411.3,-275.645,59.4793,-28.1228,388.349,400.192,-10367.4,-2326.45,-8.76301,-32.0372,56.3388,-7949.08,2811.31,-2434.96,4.12286,76.5999,77.1758,708.176,-10181.7,-775.256,-32.0567,-47.1492,86.4793,7643.24,502.804,2400.78,39.5298,16.1426,1.84187
3.285,9879.24,-4645.46,13373.6,-98.8942,322.371,172.951,3935.38,3561.98,8425.08,16.2503,24.7475,27.7923,3522.51,13478.1,-298.603,60.4137,-26.6565,388.511,420.298,-10357.3,-2325.38,-8.72045,-32.1089,56.4027,-7972.46,2808.9,-2396.81,4.42403,74.6768,77.0391,673.195,-10185.7,-782.686,-31.9478,-47.3845,86.6243,7655.34,510.778,2408.82,39.4816,15.8981,1.69635
3.2855,9928.1,-4706.52,13370.9,-98.4986,321.49,173.365,3938.41,3589.11,8409.82,16.5165,24.8882,28.0109,3579.29,13544.8,-321.561,61.3481,-25.1902,388.673,440.405,-10347.1,-2324.32,-8.67789,-32.1806,56.4666,-7995.85,2806.48,-2358.66,4.7252,72.7537,76.9024,638.215,-10189.8,-790.117,-31.839,-47.6198,86.7694,7667.43,518.753,2416.87,39.4333,15.6536,1.55084
3.286,9976.95,-4767.57,13368.1,-98.1031,320.608,173.779,3941.44,3616.25,8394.56,16.7826,25.029,28.2294,3636.07,13611.6,-344.519,62.2826,-23.7239,388.836,460.511,-10336.9,-2323.25,-8.63533,-32.2523,56.5305,-8019.24,2804.07,-2320.51,5.02637,70.8306,76.7657,603.234,-10193.8,-797.547,-31.7302,-47.855,86.9144,7679.53,526.727,2424.92,39.385,15.4092,1.40533
3.2865,10025.8,-4828.63,13365.4,-97.7075,319.727,174.193,3944.48,3643.39,8379.29,17.0487,25.1698,28.4479,3692.84,13678.4,-367.477,63.217,-22.2576,388.998,480.618,-10326.8,-2322.19,-8.59278,-32.3239,56.5944,-8042.62,2801.65,-2282.36,5.32754,68.9075,76.629,568.254,-10197.8,-804.978,-31.6214,-48.0903,87.0594,7691.63,534.701,2432.96,39.3368,15.1647,1.25981
3.287,10074.7,-4889.68,13362.6,-97.312,318.845,174.607,3947.51,3670.52,8364.03,17.3148,25.3106,28.6664,3749.62,13745.2,-390.435,64.1514,-20.7913,389.16,500.725,-10316.6,-2321.12,-8.55022,-32.3956,56.6584,-8066.01,2799.24,-2244.21,5.62872,66.9844,76.4923,533.273,-10201.8,-812.408,-31.5125,-48.3256,87.2044,7703.73,542.675,2441.01,39.2885,14.9202,1.1143
3.2875,10123.5,-4950.74,13359.9,-96.9164,317.964,175.021,3950.55,3697.66,8348.77,17.5809,25.4513,28.8849,3806.4,13812.0,-413.393,65.0859,-19.325,389.323,520.831,-10306.4,-2320.06,-8.50766,-32.4673,56.7223,-8089.4,2796.83,-2206.06,5.92989,65.0613,76.3557,498.293,-10205.8,-819.839,-31.4037,-48.5608,87.3495,7715.82,550.649,2449.06,39.2402,14.6758,0.968784
3.288,10172.4,-5011.79,13357.1,-96.5209,317.083,175.435,3953.58,3724.8,8333.51,17.847,25.5921,29.1034,3863.18,13878.7,-436.35,66.0203,-17.8587,389.485,540.938,-10296.3,-2318.99,-8.4651,-32.539,56.7862,-8112.78,2794.41,-2167.91,6.23106,63.1382,76.219,463.312,-10209.9,-827.269,-31.2949,-48.7961,87.4945,7727.92,558.623,2457.1,39.192,14.4313,0.82327
3.2885,10221.2,-5072.84,13354.4,-96.1253,316.201,175.849,3956.61,3751.93,8318.25,18.1131,25.7329,29.3219,3919.96,13945.5,-459.308,66.9548,-16.3924,389.647,561.044,-10286.1,-2317.92,-8.42254,-32.6107,56.8501,-8136.17,2792.0,-2129.76,6.53223,61.2151,76.0823,428.332,-10213.9,-834.7,-31.1861,-49.0314,87.6395,7740.02,566.597,2465.15,39.1437,14.1868,0.677756
3.289,10274.4,-5146.95,13349.7,-95.7155,315.355,176.257,3953.74,3769.48,8313.02,18.2548,25.7983,29.5043,3979.27,14014.0,-481.253,67.9236,-14.856,389.807,580.959,-10279.5,-2313.28,-8.40259,-32.6585,56.9195,-8160.47,2790.79,-2092.51,6.83186,59.2638,75.9206,391.407,-10214.5,-840.305,-31.0797,-49.2373,87.7729,7749.32,575.673,2472.69,39.1121,13.9354,0.522713
3.2895,10342.9,-5266.75,13338.1,-95.2554,314.63,176.644,3930.18,3753.47,8342.92,17.9612,25.5999,29.5604,4047.44,14088.2,-499.652,69.0128,-13.0742,389.955,600.203,-10285.1,-2296.13,-8.46176,-32.6229,57.008,-8187.95,2793.81,-2058.44,7.12609,57.2141,75.6716,347.68,-10203.2,-839.518,-30.9819,-49.3404,87.8655,7748.81,588.607,2478.48,39.1389,13.6594,0.334319
3.29,10411.3,-5386.54,13326.5,-94.7954,313.906,177.03,3906.62,3737.45,8372.83,17.6676,25.4015,29.6165,4115.62,14162.4,-518.051,70.1019,-11.2924,390.103,619.447,-10290.8,-2278.98,-8.52093,-32.5873,57.0964,-8215.43,2796.82,-2024.38,7.42032,55.1644,75.4225,303.953,-10191.9,-838.732,-30.8842,-49.4435,87.9581,7748.31,601.54,2484.26,39.1656,13.3834,0.145925
3.2905,10479.8,-5506.33,13315.0,-94.3354,313.181,177.416,3883.06,3721.44,8402.73,17.3741,25.2031,29.6726,4183.79,14236.6,-536.45,71.1911,-9.51068,390.251,638.69,-10296.4,-2261.83,-8.5801,-32.5518,57.1849,-8242.91,2799.84,-1990.31,7.71455,53.1147,75.1735,260.226,-10180.6,-837.945,-30.7864,-49.5467,88.0508,7747.81,614.474,2490.04,39.1924,13.1074,-0.0424689
3.291,10548.2,-5626.13,13303.4,-93.8754,312.457,177.803,3859.5,3705.43,8432.63,17.0805,25.0048,29.7286,4251.97,14310.8,-554.849,72.2803,-7.72891,390.399,657.934,-10302.1,-2244.67,-8.63928,-32.5162,57.2734,-8270.39,2802.85,-1956.24,8.00878,51.065,74.9244,216.498,-10169.3,-837.159,-30.6886,-49.6498,88.1434,7747.3,627.407,2495.83,39.2191,12.8315,-0.230863
3.2915,10616.7,-5745.92,13291.8,-93.4153,311.733,178.189,3835.95,3689.41,8462.54,16.7869,24.8064,29.7847,4320.15,14385.0,-573.249,73.3695,-5.94715,390.548,677.178,-10307.7,-2227.52,-8.69845,-32.4806,57.3619,-8297.88,2805.86,-1922.18,8.30301,49.0153,74.6754,172.771,-10157.9,-836.373,-30.5908,-49.7529,88.236,7746.8,640.34,2501.61,39.2459,12.5555,-0.419257
3.292,10685.1,-5865.71,13280.2,-92.9553,311.008,178.576,3812.39,3673.4,8492.44,16.4933,24.608,29.8408,4388.32,14459.2,-591.648,74.4587,-4.16539,390.696,696.421,-10313.4,-2210.37,-8.75762,-32.445,57.4504,-8325.36,2808.88,-1888.11,8.59724,46.9656,74.4263,129.044,-10146.6,-835.586,-30.493,-49.856,88.3286,7746.3,653.274,2507.39,39.2726,12.2795,-0.607651
3.2925,10753.6,-5985.5,13268.7,-92.4953,310.284,178.962,3788.83,3657.39,8522.34,16.1998,24.4096,29.8969,4456.5,14533.4,-610.047,75.5478,-2.38363,390.844,715.665,-10319.0,-2193.22,-8.81679,-32.4094,57.5389,-8352.84,2811.89,-1854.04,8.89148,44.9159,74.1772,85.3166,-10135.3,-834.8,-30.3953,-49.9592,88.4212,7745.79,666.207,2513.18,39.2994,12.0036,-0.796045
3.293,10822.0,-6105.3,13257.1,-92.0353,309.559,179.349,3765.27,3641.37,8552.24,15.9062,24.2113,29.953,4524.67,14607.6,-628.446,76.637,-0.601867,390.992,734.909,-10324.7,-2176.07,-8.87597,-32.3738,57.6274,-8380.32,2814.91,-1819.97,9.18571,42.8662,73.9282,41.5894,-10124.0,-834.014,-30.2975,-50.0623,88.5139,7745.29,679.14,2518.96,39.3261,11.7276,-0.984439
3.2935,10901.9,-6245.84,13270.2,-91.5781,308.795,179.76,3754.33,3627.02,8574.05,15.7021,24.046,29.9936,4586.43,14684.2,-648.46,77.7702,1.30408,391.111,746.09,-10325.6,-2166.87,-8.93081,-32.3147,57.7069,-8398.23,2814.36,-1786.42,9.3793,40.9023,73.6489,4.93863,-10121.1,-824.511,-30.1887,-50.1097,88.6527,7746.43,692.151,2523.85,39.3377,11.4243,-1.18348
3.294,11004.7,-6427.88,13332.7,-91.1267,307.952,180.22,3768.61,3616.0,8579.66,15.677,23.9469,30.0034,4635.37,14765.6,-671.704,78.9912,3.4584,391.172,741.148,-10317.0,-2173.57,-8.97698,-32.2084,57.7684,-8396.98,2806.7,-1753.88,9.37162,39.1099,73.3091,-17.5591,-10135.0,-797.576,-30.0579,-50.0455,88.8841,7750.85,705.314,2526.94,39.3189,11.0661,-1.40382
3.2945,11107.5,-6609.92,13395.2,-90.6752,307.109,180.681,3782.89,3604.98,8585.27,15.6518,23.8479,30.0131,4684.31,14847.0,-694.948,80.2123,5.61273,391.233,736.206,-10308.5,-2180.27,-9.02315,-32.1021,57.83,-8395.74,2799.03,-1721.35,9.36394,37.3176,72.9694,-40.0568,-10148.8,-770.641,-29.9271,-49.9814,89.1155,7755.28,718.478,2530.03,39.3001,10.708,-1.62416
3.295,11210.4,-6791.96,13457.6,-90.2238,306.265,181.141,3797.18,3593.96,8590.88,15.6267,23.7488,30.0228,4733.24,14928.4,-718.192,81.4334,7.76705,391.293,731.264,-10299.9,-2186.98,-9.06933,-31.9957,57.8915,-8394.49,2791.37,-1688.82,9.35626,35.5252,72.6296,-62.5545,-10162.7,-743.706,-29.7963,-49.9173,89.3469,7759.7,731.641,2533.13,39.2813,10.3499,-1.8445
3.2955,11313.2,-6974.0,13520.1,-89.7723,305.422,181.602,3811.46,3582.93,8596.48,15.6016,23.6497,30.0326,4782.18,15009.8,-741.436,82.6545,9.92137,391.354,726.322,-10291.3,-2193.68,-9.1155,-31.8894,57.953,-8393.25,2783.7,-1656.29,9.34858,33.7328,72.2898,-85.0522,-10176.6,-716.771,-29.6655,-49.8531,89.5783,7764.13,744.805,2536.22,39.2624,9.99179,-2.06484
3.296,11416.0,-7156.03,13582.6,-89.3209,304.579,182.062,3825.74,3571.91,8602.09,15.5764,23.5507,30.0423,4831.11,15091.1,-764.681,83.8756,12.0757,391.415,721.38,-10282.8,-2200.39,-9.16168,-31.7831,58.0145,-8392.0,2776.03,-1623.75,9.3409,31.9405,71.9501,-107.55,-10190.4,-689.836,-29.5347,-49.789,89.8097,7768.56,757.969,2539.32,39.2436,9.63367,-2.28518
3.2965,11518.8,-7338.07,13645.1,-88.8695,303.735,182.523,3840.03,3560.89,8607.7,15.5513,23.4516,30.052,4880.05,15172.5,-787.925,85.0966,14.23,391.475,716.438,-10274.2,-2207.09,-9.20785,-31.6768,58.076,-8390.76,2768.37,-1591.22,9.33322,30.1481,71.6103,-130.048,-10204.3,-662.901,-29.4039,-49.7249,90.0411,7772.98,771.132,2542.41,39.2248,9.27556,-2.50552
3.297,11621.6,-7520.11,13707.5,-88.418,302.892,182.983,3854.31,3549.87,8613.31,15.5262,23.3525,30.0617,4928.99,15253.9,-811.169,86.3177,16.3843,391.536,711.496,-10265.7,-2213.79,-9.25402,-31.5705,58.1376,-8389.51,2760.7,-1558.69,9.32554,28.3557,71.2705,-152.545,-10218.1,-635.965,-29.2732,-49.6607,90.2725,7777.41,784.296,2545.51,39.206,8.91744,-2.72586
3.2975,11724.4,-7702.15,13770.0,-87.9666,302.049,183.443,3868.59,3538.85,8618.92,15.5011,23.2535,30.0715,4977.92,15335.3,-834.413,87.5388,18.5387,391.597,706.554,-10257.1,-2220.5,-9.3002,-31.4642,58.1991,-8388.27,2753.04,-1526.15,9.31786,26.5634,70.9307,-175.043,-10232.0,-609.03,-29.1424,-49.5966,90.5039,7781.83,797.459,2548.6,39.1872,8.55933,-2.9462
3.298,11827.3,-7844.33,13843.5,-87.8084,301.146,184.035,3887.34,3527.09,8624.73,15.4683,23.145,30.0689,5022.07,15428.6,-871.273,88.9102,20.9656,391.642,700.828,-10247.2,-2218.97,-9.36811,-31.2945,58.3268,-8376.62,2757.9,-1482.33,9.12758,25.064,70.577,-184.185,-10235.1,-586.224,-29.1319,-49.509,90.6739,7792.35,815.571,2546.37,39.1658,8.18298,-3.13983
3.2985,11930.4,-7936.68,13930.8,-88.0168,300.17,184.79,3911.66,3514.41,8630.81,15.4261,23.0249,30.0509,5060.23,15536.9,-925.151,90.4693,23.7332,391.668,694.121,-10235.6,-2207.15,-9.46321,-31.0457,58.5374,-8351.96,2778.41,-1424.39,8.70906,23.931,70.2058,-176.632,-10224.7,-568.579,-29.272,-49.392,90.7672,7810.47,839.869,2537.47,39.1412,7.78385,-3.30008
3.299,12033.4,-8029.02,14018.1,-88.2252,299.193,185.545,3935.98,3501.74,8636.88,15.3839,22.9048,30.0329,5098.39,15645.1,-979.03,92.0285,26.5008,391.693,687.414,-10224.0,-2195.32,-9.55831,-30.7969,58.748,-8327.3,2798.92,-1366.46,8.29053,22.7979,69.8346,-169.078,-10214.4,-550.934,-29.412,-49.2749,90.8604,7828.6,864.167,2528.58,39.1166,7.38471,-3.46032
3.2995,12136.5,-8121.37,14105.5,-88.4336,298.216,186.301,3960.3,3489.06,8642.96,15.3416,22.7846,30.0149,5136.55,15753.4,-1032.91,93.5877,29.2684,391.719,680.707,-10212.4,-2183.5,-9.6534,-30.5481,58.9586,-8302.64,2819.44,-1308.52,7.87201,21.6649,69.4633,-161.525,-10204.0,-533.289,-29.5521,-49.1579,90.9537,7846.72,888.464,2519.68,39.092,6.98558,-3.62056
3.3,12239.5,-8213.72,14192.8,-88.6419,297.24,187.056,3984.62,3476.39,8649.03,15.2994,22.6645,29.9969,5174.71,15861.7,-1086.79,95.1468,32.036,391.745,674.0,-10200.8,-2171.68,-9.7485,-30.2993,59.1692,-8277.98,2839.95,-1250.58,7.45348,20.5318,69.0921,-153.972,-10193.6,-515.644,-29.6921,-49.0409,91.0469,7864.85,912.762,2510.79,39.0674,6.58645,-3.78081
3.3005,12342.6,-8306.07,14280.1,-88.8503,296.263,187.811,4008.94,3463.71,8655.1,15.2572,22.5444,29.9789,5212.88,15969.9,-1140.66,96.706,34.8037,391.77,667.293,-10189.3,-2159.85,-9.8436,-30.0504,59.3797,-8253.32,2860.47,-1192.65,7.03496,19.3988,68.7209,-146.419,-10183.3,-497.999,-29.8322,-48.9239,91.1401,7882.98,937.06,2501.89,39.0428,6.18731,-3.94105
3.301,12445.6,-8398.42,14367.4,-89.0587,295.287,188.566,4033.27,3451.03,8661.18,15.215,22.4242,29.9609,5251.04,16078.2,-1194.54,98.2652,37.5713,391.796,660.586,-10177.7,-2148.03,-9.93869,-29.8016,59.5903,-8228.67,2880.98,-1134.71,6.61643,18.2657,68.3497,-138.866,-10172.9,-480.354,-29.9722,-48.8069,91.2334,7901.1,961.357,2493.0,39.0182,5.78818,-4.10129
3.3015,12548.7,-8490.77,14454.7,-89.2671,294.31,189.322,4057.59,3438.36,8667.25,15.1727,22.3041,29.9429,5289.2,16186.5,-1248.42,99.8244,40.3389,391.822,653.88,-10166.1,-2136.21,-10.0338,-29.5528,59.8009,-8204.01,2901.5,-1076.78,6.19791,17.1326,67.9785,-131.313,-10162.5,-462.709,-30.1123,-48.6899,91.3266,7919.23,985.655,2484.1,38.9936,5.38905,-4.26154
3.302,12651.7,-8583.12,14542.0,-89.4755,293.334,190.077,4081.91,3425.68,8673.32,15.1305,22.1839,29.9249,5327.36,16294.7,-1302.3,101.384,43.1065,391.847,647.173,-10154.5,-2124.38,-10.1289,-29.304,60.0115,-8179.35,2922.01,-1018.84,5.77938,15.9996,67.6072,-123.76,-10152.2,-445.064,-30.2523,-48.5729,91.4199,7937.35,1009.95,2475.21,38.969,4.98992,-4.42178
3.3025,12766.1,-8570.86,14612.1,-89.8506,292.363,191.152,4087.72,3408.47,8674.72,15.1753,22.0476,29.9227,5340.11,16433.3,-1358.89,103.082,46.1186,391.937,636.803,-10154.5,-2118.95,-10.2647,-29.0788,60.1548,-8140.07,2937.78,-958.067,5.21802,15.2049,67.1113,-116.461,-10148.1,-431.759,-30.407,-48.482,91.5306,7951.48,1029.46,2453.69,38.9764,4.68573,-4.53718
3.303,12889.5,-8474.92,14668.5,-90.3591,291.398,192.484,4078.74,3387.61,8672.38,15.2898,21.8984,29.9333,5332.54,16596.0,-1417.65,104.892,49.3262,392.077,623.502,-10163.6,-2118.64,-10.433,-28.8724,60.2444,-8089.1,2949.74,-895.026,4.54239,14.681,66.5156,-109.365,-10149.1,-421.925,-30.5735,-48.4119,91.6552,7962.39,1045.12,2422.07,39.0094,4.45751,-4.6167
3.3035,13013.0,-8378.98,14724.9,-90.8677,290.434,193.815,4069.75,3366.76,8670.03,15.4042,21.7492,29.9439,5324.98,16758.8,-1476.41,106.701,52.5338,392.217,610.202,-10172.8,-2118.32,-10.6014,-28.6661,60.3339,-8038.12,2961.71,-831.985,3.86676,14.1571,65.9199,-102.27,-10150.0,-412.091,-30.7399,-48.3418,91.7798,7973.31,1060.79,2390.45,39.0424,4.22928,-4.69623
3.304,13136.4,-8283.03,14781.3,-91.3762,289.469,195.147,4060.76,3345.91,8667.69,15.5187,21.6,29.9545,5317.41,16921.5,-1535.17,108.511,55.7415,392.358,596.901,-10181.9,-2118.01,-10.7698,-28.4598,60.4235,-7987.15,2973.67,-768.944,3.19112,13.6331,65.3242,-95.1747,-10151.0,-402.257,-30.9063,-48.2717,91.9044,7984.22,1076.46,2358.83,39.0754,4.00105,-4.77575
3.3045,13259.9,-8187.09,14837.6,-91.8848,288.504,196.479,4051.77,3325.06,8665.34,15.6331,21.4508,29.9651,5309.84,17084.3,-1593.93,110.321,58.9491,392.498,583.601,-10191.1,-2117.69,-10.9381,-28.2535,60.513,-7936.17,2985.64,-705.903,2.51549,13.1092,64.7285,-88.0794,-10151.9,-392.423,-31.0727,-48.2016,92.029,7995.14,1092.13,2327.21,39.1085,3.77283,-4.85527
3.305,13383.3,-8091.15,14894.0,-92.3933,287.539,197.81,4042.78,3304.21,8663.0,15.7476,21.3016,29.9757,5302.27,17247.0,-1652.7,112.131,62.1567,392.639,570.3,-10200.3,-2117.38,-11.1065,-28.0472,60.6026,-7885.2,2997.61,-642.862,1.83986,12.5853,64.1329,-80.984,-10152.9,-382.589,-31.2392,-48.1315,92.1536,8006.06,1107.8,2295.58,39.1415,3.5446,-4.9348
3.3055,13506.8,-7995.21,14950.4,-92.9018,286.574,199.142,4033.79,3283.35,8660.65,15.862,21.1523,29.9863,5294.7,17409.8,-1711.46,113.941,65.3643,392.779,557.0,-10209.4,-2117.06,-11.2748,-27.8409,60.6922,-7834.23,3009.57,-579.821,1.16423,12.0613,63.5372,-73.8887,-10153.9,-372.755,-31.4056,-48.0615,92.2782,8016.97,1123.46,2263.96,39.1745,3.31638,-5.01432
3.306,13630.2,-7899.27,15006.8,-93.4104,285.609,200.473,4024.8,3262.5,8658.3,15.9765,21.0031,29.9969,5287.13,17572.5,-1770.22,115.75,68.5719,392.92,543.699,-10218.6,-2116.74,-11.4432,-27.6346,60.7817,-7783.25,3021.54,-516.781,0.488596,11.5374,62.9415,-66.7933,-10154.8,-362.921,-31.572,-47.9914,92.4028,8027.89,1139.13,2232.34,39.2075,3.08815,-5.09384
3.3065,13753.7,-7803.33,15063.1,-93.9189,284.644,201.805,4015.81,3241.65,8655.96,16.0909,20.8539,30.0075,5279.56,17735.3,-1828.98,117.56,71.7796,393.06,530.399,-10227.7,-2116.43,-11.6115,-27.4282,60.8713,-7732.28,3033.5,-453.74,-0.187036,11.0135,62.3458,-59.698,-10155.8,-353.087,-31.7384,-47.9213,92.5274,8038.81,1154.8,2200.72,39.2405,2.85992,-5.17337
3.307,13899.1,-7629.72,15089.5,-94.7061,283.732,203.459,4016.37,3225.2,8657.95,16.2081,20.724,29.9364,5214.16,17915.0,-1865.73,119.161,74.8993,393.185,525.028,-10232.9,-2118.07,-11.6683,-27.2907,60.9986,-7681.13,3048.35,-349.194,-1.11137,10.8629,61.7009,-50.824,-10152.4,-361.987,-31.913,-47.7635,92.6427,8048.55,1164.82,2170.75,39.3107,2.75034,-5.28592
3.3075,14055.5,-7417.27,15100.9,-95.6327,282.846,205.275,4021.7,3210.95,8662.11,16.3266,20.6037,29.8243,5119.85,18103.3,-1891.49,120.657,77.9751,393.303,523.622,-10236.0,-2120.69,-11.6692,-27.1875,61.1448,-7629.89,3064.63,-223.897,-2.16007,10.8989,61.0315,-41.0607,-10146.9,-380.253,-32.0917,-47.562,92.7534,8057.71,1172.01,2141.59,39.3994,2.70007,-5.415
3.308,14211.9,-7204.83,15112.3,-96.5592,281.96,207.091,4027.02,3196.71,8666.27,16.445,20.4834,29.7122,5025.54,18291.6,-1917.24,122.154,81.0509,393.421,522.217,-10239.1,-2123.31,-11.6701,-27.0844,61.291,-7578.65,3080.92,-98.5989,-3.20876,10.9349,60.362,-31.2975,-10141.3,-398.519,-32.2703,-47.3604,92.8641,8066.87,1179.2,2112.44,39.4881,2.6498,-5.54408
3.3085,14368.3,-6992.39,15123.7,-97.4858,281.074,208.907,4032.35,3182.46,8670.43,16.5635,20.363,29.6002,4931.22,18479.8,-1943.0,123.65,84.1267,393.539,520.811,-10242.2,-2125.92,-11.671,-26.9812,61.4373,-7527.42,3097.2,26.6988,-4.25745,10.9709,59.6926,-21.5342,-10135.8,-416.785,-32.4489,-47.1588,92.9748,8076.03,1186.39,2083.28,39.5768,2.59953,-5.67315
3.309,14524.7,-6779.94,15135.1,-98.4123,280.189,210.723,4037.68,3168.21,8674.59,16.682,20.2427,29.4881,4836.91,18668.1,-1968.75,125.146,87.2025,393.657,519.405,-10245.3,-2128.54,-11.6719,-26.8781,61.5835,-7476.18,3113.48,151.997,-5.30614,11.0069,59.0231,-11.7709,-10130.2,-435.052,-32.6276,-46.9572,93.0856,8085.19,1193.59,2054.12,39.6655,2.54926,-5.80223
3.3095,14681.1,-6567.5,15146.4,-99.3389,279.303,212.538,4043.01,3153.97,8678.75,16.8005,20.1224,29.376,4742.6,18856.3,-1994.51,126.643,90.2783,393.775,517.999,-10248.3,-2131.16,-11.6728,-26.7749,61.7297,-7424.94,3129.77,277.294,-6.35483,11.043,58.3537,-2.0076,-10124.6,-453.318,-32.8062,-46.7557,93.1963,8094.35,1200.78,2024.97,39.7541,2.49899,-5.93131
3.31,14837.5,-6355.05,15157.8,-100.265,278.417,214.354,4048.33,3139.72,8682.91,16.919,20.0021,29.2639,4648.28,19044.6,-2020.26,128.139,93.3541,393.893,516.593,-10251.4,-2133.78,-11.6737,-26.6718,61.8759,-7373.71,3146.05,402.592,-7.40352,11.079,57.6842,7.75569,-10119.1,-471.584,-32.9849,-46.5541,93.307,8103.51,1207.97,1995.81,39.8428,2.44872,-6.06038
3.3105,14994.0,-6142.61,15169.2,-101.192,277.532,216.17,4053.66,3125.47,8687.07,17.0375,19.8818,29.1519,4553.97,19232.9,-2046.02,129.635,96.4299,394.01,515.188,-10254.5,-2136.4,-11.6746,-26.5686,62.0221,-7322.47,3162.34,527.89,-8.45222,11.115,57.0148,17.519,-10113.5,-489.85,-33.1635,-46.3525,93.4177,8112.67,1215.16,1966.66,39.9315,2.39845,-6.18946
3.311,15150.4,-5930.17,15180.6,-102.119,276.646,217.986,4058.99,3111.23,8691.23,17.156,19.7615,29.0398,4459.66,19421.1,-2071.77,131.132,99.5057,394.128,513.782,-10257.6,-2139.02,-11.6755,-26.4654,62.1684,-7271.23,3178.62,653.187,-9.50091,11.151,56.3453,27.2823,-10108.0,-508.116,-33.3421,-46.151,93.5284,8121.83,1222.35,1937.5,40.0202,2.34818,-6.31853
3.3115,15298.3,-5757.09,15158.9,-103.293,275.768,219.894,4062.94,3123.79,8687.06,17.18,19.5894,28.9232,4331.29,19608.1,-2063.8,132.018,102.343,394.099,489.485,-10283.6,-2137.53,-11.595,-26.3708,62.2903,-7220.46,3221.12,796.264,-10.9577,11.6648,55.6948,67.2918,-10096.1,-511.568,-33.4083,-45.9344,93.6183,8127.13,1226.52,1928.95,40.1214,2.34391,-6.38042
3.312,15443.7,-5595.26,15127.7,-104.539,274.892,221.829,4066.51,3144.03,8680.51,17.1771,19.4025,28.8054,4193.18,19794.7,-2046.2,132.73,105.113,394.027,458.647,-10316.2,-2134.88,-11.4913,-26.2787,62.4052,-7169.81,3271.11,944.42,-12.5311,12.3151,55.0496,115.943,-10082.5,-510.787,-33.4424,-45.7136,93.7023,8131.34,1229.83,1926.29,40.2262,2.35278,-6.4231
3.3125,15589.2,-5433.44,15096.5,-105.784,274.016,223.763,4070.07,3164.26,8673.97,17.1742,19.2157,28.6875,4055.08,19981.2,-2028.6,133.442,107.882,393.955,427.81,-10348.7,-2132.22,-11.3875,-26.1865,62.5202,-7119.17,3321.09,1092.58,-14.1045,12.9654,54.4044,164.594,-10068.9,-510.006,-33.4764,-45.4928,93.7862,8135.54,1233.13,1923.62,40.331,2.36166,-6.46579
3.313,15734.7,-5271.61,15065.3,-107.03,273.14,225.698,4073.63,3184.49,8667.42,17.1712,19.0288,28.5697,3916.97,20167.8,-2010.99,134.153,110.652,393.884,396.972,-10381.2,-2129.57,-11.2838,-26.0943,62.6352,-7068.52,3371.08,1240.73,-15.6778,13.6157,53.7592,213.246,-10055.3,-509.225,-33.5105,-45.272,93.8702,8139.75,1236.44,1920.95,40.4358,2.37053,-6.50847
3.3135,15880.1,-5109.78,15034.1,-108.276,272.264,227.632,4077.19,3204.72,8660.87,17.1683,18.8419,28.4518,3778.87,20354.4,-1993.39,134.865,113.422,393.812,366.135,-10413.8,-2126.92,-11.1801,-26.0021,62.7501,-7017.88,3421.06,1388.89,-17.2512,14.266,53.114,261.897,-10041.7,-508.444,-33.5445,-45.0511,93.9542,8143.95,1239.74,1918.29,40.5406,2.37941,-6.55116
3.314,16025.6,-4947.95,15003.0,-109.521,271.388,229.567,4080.75,3224.95,8654.32,17.1653,18.655,28.334,3640.76,20541.0,-1975.79,135.577,116.191,393.74,335.297,-10446.3,-2124.26,-11.0763,-25.9099,62.8651,-6967.24,3471.05,1537.04,-18.8246,14.9163,52.4688,310.548,-10028.0,-507.663,-33.5786,-44.8303,94.0381,8148.16,1243.05,1915.62,40.6453,2.38828,-6.59384
3.3145,16171.1,-4786.12,14971.8,-110.767,270.512,231.502,4084.32,3245.18,8647.77,17.1624,18.4681,28.2161,3502.66,20727.6,-1958.19,136.289,118.961,393.669,304.46,-10478.8,-2121.61,-10.9726,-25.8178,62.98,-6916.59,3521.04,1685.2,-20.398,15.5666,51.8236,359.2,-10014.4,-506.882,-33.6126,-44.6095,94.1221,8152.36,1246.35,1912.96,40.7501,2.39715,-6.63653
3.315,16316.6,-4624.29,14940.6,-112.012,269.636,233.436,4087.88,3265.41,8641.22,17.1594,18.2812,28.0983,3364.55,20914.2,-1940.58,137.001,121.73,393.597,273.622,-10511.4,-2118.95,-10.8689,-25.7256,63.095,-6865.95,3571.02,1833.36,-21.9713,16.2169,51.1784,407.851,-10000.8,-506.101,-33.6467,-44.3887,94.206,8156.57,1249.66,1910.29,40.8549,2.40603,-6.67921
3.3155,16462.0,-4462.47,14909.4,-113.258,268.76,235.371,4091.44,3285.64,8634.68,17.1565,18.0944,27.9804,3226.45,21100.8,-1922.98,137.713,124.5,393.525,242.784,-10543.9,-2116.3,-10.7652,-25.6334,63.21,-6815.3,3621.01,1981.51,-23.5447,16.8672,50.5332,456.502,-9987.17,-505.32,-33.6807,-44.1679,94.29,8160.77,1252.96,1907.63,40.9597,2.4149,-6.7219
3.316,16622.1,-4458.42,14830.5,-114.244,268.035,237.22,4085.41,3300.59,8653.84,17.0308,17.8623,27.8857,3076.94,21298.7,-1897.37,137.869,126.942,393.066,232.037,-10574.1,-2097.57,-10.657,-25.5237,63.3936,-6753.04,3675.27,2104.94,-25.8267,17.8642,50.0401,491.007,-9993.22,-534.896,-33.6817,-43.9978,94.3983,8168.7,1257.01,1907.92,40.961,2.32665,-6.74607
3.3165,16783.9,-4474.11,14745.6,-115.198,267.329,239.059,4078.17,3314.88,8676.21,16.8898,17.6246,27.7939,2926.02,21498.0,-1870.76,137.955,129.342,392.559,223.801,-10604.1,-2076.84,-10.5484,-25.4117,63.5858,-6689.32,3730.07,2225.28,-28.1973,18.9045,49.566,523.742,-10001.7,-568.266,-33.6784,-43.8341,94.5096,8177.1,1261.14,1908.58,40.9493,2.22625,-6.76792
3.317,16945.8,-4489.79,14660.7,-116.152,266.624,240.897,4070.93,3329.18,8698.58,16.7488,17.3869,27.702,2775.09,21697.4,-1844.14,138.042,131.742,392.051,215.564,-10634.0,-2056.1,-10.4397,-25.2998,63.778,-6625.6,3784.86,2345.61,-30.5679,19.9449,49.0919,556.478,-10010.2,-601.636,-33.6752,-43.6704,94.6209,8185.5,1265.28,1909.24,40.9376,2.12586,-6.78977
3.3175,17107.6,-4505.47,14575.8,-117.105,265.918,242.735,4063.7,3343.47,8720.96,16.6077,17.1492,27.6102,2624.17,21896.7,-1817.53,138.128,134.143,391.544,207.328,-10664.0,-2035.37,-10.3311,-25.1878,63.9702,-6561.89,3839.66,2465.95,-32.9385,20.9852,48.6178,589.214,-10018.7,-635.006,-33.672,-43.5067,94.7322,8193.9,1269.41,1909.9,40.926,2.02546,-6.81162
3.318,17269.5,-4521.15,14490.9,-118.059,265.212,244.574,4056.46,3357.76,8743.33,16.4667,16.9115,27.5184,2473.24,22096.0,-1790.92,138.215,136.543,391.036,199.092,-10693.9,-2014.63,-10.2224,-25.0759,64.1624,-6498.17,3894.46,2586.29,-35.3091,22.0256,48.1437,621.949,-10027.3,-668.375,-33.6688,-43.343,94.8435,8202.3,1273.55,1910.56,40.9143,1.92507,-6.83347
3.3185,17431.3,-4536.83,14406.0,-119.013,264.506,246.412,4049.23,3372.06,8765.71,16.3257,16.6738,27.4265,2322.32,22295.4,-1764.3,138.302,138.944,390.529,190.855,-10723.8,-1993.9,-10.1138,-24.9639,64.3546,-6434.45,3949.25,2706.63,-37.6797,23.0659,47.6697,654.685,-10035.8,-701.745,-33.6656,-43.1793,94.9548,8210.7,1277.69,1911.22,40.9026,1.82467,-6.85532
3.319,17593.2,-4552.51,14321.1,-119.966,263.8,248.251,4041.99,3386.35,8788.08,16.1846,16.4361,27.3347,2171.39,22494.7,-1737.69,138.388,141.344,390.021,182.619,-10753.8,-1973.16,-10.0051,-24.852,64.5469,-6370.73,4004.05,2826.96,-40.0503,24.1063,47.1956,687.421,-10044.3,-735.115,-33.6624,-43.0156,95.0661,8219.1,1281.82,1911.88,40.891,1.72428,-6.87717
3.3195,17755.0,-4568.2,14236.2,-120.92,263.094,250.089,4034.76,3400.64,8810.45,16.0436,16.1984,27.2429,2020.47,22694.1,-1711.08,138.475,143.745,389.514,174.383,-10783.7,-1952.43,-9.89645,-24.7401,64.7391,-6307.02,4058.85,2947.3,-42.4208,25.1466,46.7215,720.156,-10052.8,-768.485,-33.6592,-42.8519,95.1774,8227.5,1285.96,1912.54,40.8793,1.62388,-6.89902
3.32,17916.9,-4583.88,14151.3,-121.874,262.388,251.927,4027.52,3414.93,8832.83,15.9026,15.9607,27.151,1869.54,22893.4,-1684.47,138.561,146.145,389.006,166.146,-10813.7,-1931.69,-9.7878,-24.6281,64.9313,-6243.3,4113.65,3067.64,-44.7914,26.1869,46.2474,752.892,-10061.3,-801.855,-33.656,-42.6882,95.2888,8235.9,1290.1,1913.2,40.8676,1.52349,-6.92088
3.3205,18074.5,-4765.74,14204.2,-122.471,261.192,253.69,4037.97,3410.4,8821.59,16.1154,15.86,27.0613,1735.63,23048.6,-1718.31,138.586,148.262,388.168,172.291,-10809.1,-1917.57,-9.73887,-24.4957,65.0372,-6202.23,4145.14,3101.34,-47.2991,27.4882,45.9224,772.408,-10063.6,-808.112,-33.3736,-42.6081,95.408,8242.64,1309.28,1901.69,40.8615,1.37518,-6.9851
3.321,18232.1,-4947.61,14257.1,-123.068,259.997,255.453,4048.42,3405.87,8810.36,16.3281,15.7592,26.9716,1601.71,23203.8,-1752.16,138.611,150.378,387.331,178.435,-10804.5,-1903.44,-9.68994,-24.3633,65.1431,-6161.16,4176.63,3135.03,-49.8067,28.7895,45.5975,791.924,-10065.8,-814.368,-33.0912,-42.528,95.5273,8249.38,1328.45,1890.19,40.8554,1.22688,-7.04932
3.3215,18389.7,-5129.47,14310.0,-123.665,258.801,257.215,4058.87,3401.33,8799.13,16.5409,15.6584,26.882,1467.8,23359.1,-1786.01,138.635,152.495,386.493,184.579,-10799.9,-1889.32,-9.64102,-24.2309,65.249,-6120.1,4208.13,3168.73,-52.3143,30.0908,45.2725,811.44,-10068.1,-820.624,-32.8088,-42.4479,95.6466,8256.11,1347.63,1878.68,40.8493,1.07857,-7.11354
3.322,18547.3,-5311.34,14362.9,-124.262,257.605,258.978,4069.32,3396.8,8787.89,16.7537,15.5577,26.7923,1333.89,23514.3,-1819.86,138.66,154.611,385.655,190.723,-10795.3,-1875.19,-9.59209,-24.0985,65.3549,-6079.03,4239.62,3202.43,-54.822,31.3921,44.9475,830.956,-10070.4,-826.88,-32.5265,-42.3678,95.7659,8262.85,1366.81,1867.17,40.8432,0.930264,-7.17776
3.3225,18704.9,-5493.2,14415.8,-124.859,256.409,260.741,4079.77,3392.27,8776.66,16.9665,15.4569,26.7026,1199.98,23669.5,-1853.7,138.684,156.728,384.817,196.868,-10790.7,-1861.07,-9.54316,-23.9661,65.4608,-6037.96,4271.12,3236.13,-57.3296,32.6934,44.6225,850.472,-10072.6,-833.137,-32.2441,-42.2876,95.8852,8269.59,1385.99,1855.67,40.837,0.781959,-7.24198
3.323,18862.5,-5675.07,14468.7,-125.456,255.214,262.504,4090.22,3387.73,8765.43,17.1793,15.3562,26.6129,1066.06,23824.7,-1887.55,138.709,158.845,383.98,203.012,-10786.1,-1846.94,-9.49424,-23.8337,65.5667,-5996.89,4302.61,3269.82,-59.8372,33.9946,44.2975,869.988,-10074.9,-839.393,-31.9617,-42.2075,96.0045,8276.32,1405.17,1844.16,40.8309,0.633653,-7.3062
3.3235,19020.1,-5856.93,14521.6,-126.053,254.018,264.266,4100.67,3383.2,8754.2,17.392,15.2554,26.5232,932.151,23979.9,-1921.4,138.733,160.961,383.142,209.156,-10781.5,-1832.82,-9.44531,-23.7013,65.6726,-5955.82,4334.1,3303.52,-62.3449,35.2959,43.9726,889.504,-10077.2,-845.649,-31.6793,-42.1274,96.1237,8283.06,1424.35,1832.65,40.8248,0.485348,-7.37042
3.324,19177.7,-6038.8,14574.5,-126.651,252.822,266.029,4111.12,3378.66,8742.96,17.6048,15.1547,26.4335,798.238,24135.1,-1955.25,138.758,163.078,382.304,215.3,-10776.9,-1818.69,-9.39638,-23.5688,65.7785,-5914.76,4365.6,3337.22,-64.8525,36.5972,43.6476,909.02,-10079.5,-851.905,-31.3969,-42.0473,96.243,8289.8,1443.53,1821.15,40.8187,0.337042,-7.43464
3.3245,19331.1,-6213.38,14633.3,-127.246,251.528,267.77,4119.66,3369.71,8735.9,17.7979,15.0423,26.3431,663.873,24287.4,-1991.5,138.767,165.12,381.475,222.062,-10771.8,-1805.55,-9.3542,-23.4493,65.8983,-5875.3,4397.75,3369.05,-67.3198,37.9022,43.3531,929.63,-10080.6,-856.394,-31.1193,-41.974,96.3649,8297.71,1461.78,1808.25,40.8192,0.193258,-7.4949
3.325,19450.9,-6329.7,14739.4,-127.831,249.446,269.333,4112.9,3325.41,8762.19,17.8336,14.8369,26.247,525.891,24416.5,-2047.01,138.657,166.571,380.709,233.761,-10763.3,-1800.29,-9.36593,-23.4331,66.1292,-5848.7,4435.11,3385.96,-69.4643,39.2369,43.3027,958.998,-10072.6,-846.741,-30.8793,-41.955,96.5079,8315.02,1472.63,1784.26,40.8729,0.0856453,-7.52354
3.3255,19570.7,-6446.03,14845.6,-128.415,247.365,270.896,4106.14,3281.11,8788.48,17.8693,14.6314,26.1509,387.909,24545.5,-2102.52,138.546,168.023,379.944,245.461,-10754.7,-1795.04,-9.37767,-23.4169,66.3601,-5822.11,4472.48,3402.87,-71.6089,40.5716,43.2524,988.366,-10064.6,-837.089,-30.6393,-41.9359,96.651,8332.33,1483.47,1760.27,40.9267,-0.0219678,-7.55218
3.326,19690.5,-6562.35,14951.7,-128.999,245.284,272.459,4099.38,3236.81,8814.77,17.905,14.426,26.0548,249.927,24674.5,-2158.03,138.435,169.474,379.179,257.161,-10746.1,-1789.78,-9.38941,-23.4007,66.591,-5795.52,4509.85,3419.78,-73.7534,41.9064,43.202,1017.73,-10056.7,-827.436,-30.3993,-41.9169,96.794,8349.65,1494.31,1736.27,40.9804,-0.129581,-7.58082
3.3265,19810.3,-6678.67,15057.9,-129.584,243.202,274.022,4092.62,3192.5,8841.06,17.9408,14.2206,25.9587,111.946,24803.5,-2213.53,138.325,170.925,378.414,268.86,-10737.5,-1784.52,-9.40114,-23.3845,66.8219,-5768.93,4547.22,3436.69,-75.898,43.2411,43.1516,1047.1,-10048.7,-817.783,-30.1594,-41.8979,96.937,8366.96,1505.16,1712.28,41.0342,-0.237194,-7.60946
3.327,19930.1,-6794.99,15164.1,-130.168,241.121,275.585,4085.86,3148.2,8867.35,17.9765,14.0152,25.8626,-26.0361,24932.5,-2269.04,138.214,172.376,377.649,280.56,-10728.9,-1779.26,-9.41288,-23.3682,67.0528,-5742.33,4584.59,3453.61,-78.0425,44.5758,43.1013,1076.47,-10040.7,-808.13,-29.9194,-41.8788,97.08,8384.27,1516.0,1688.29,41.0879,-0.344807,-7.63809
3.3275,20049.9,-6911.31,15270.2,-130.752,239.039,277.148,4079.1,3103.9,8893.64,18.0122,13.8098,25.7665,-164.018,25061.5,-2324.55,138.103,173.827,376.884,292.26,-10720.4,-1774.0,-9.42461,-23.352,67.2837,-5715.74,4621.96,3470.52,-80.1871,45.9105,43.0509,1105.84,-10032.7,-798.478,-29.6794,-41.8598,97.223,8401.58,1526.84,1664.29,41.1417,-0.45242,-7.66673
3.328,20169.7,-7027.63,15376.4,-131.337,236.958,278.711,4072.34,3059.6,8919.93,18.0479,13.6043,25.6703,-302.0,25190.6,-2380.06,137.993,175.278,376.119,303.96,-10711.8,-1768.75,-9.43635,-23.3358,67.5146,-5689.15,4659.33,3487.43,-82.3316,47.2452,43.0005,1135.2,-10024.7,-788.825,-29.4394,-41.8408,97.366,8418.89,1537.69,1640.3,41.1954,-0.560033,-7.69537
3.3285,20289.5,-7143.95,15482.5,-131.921,234.876,280.274,4065.58,3015.3,8946.21,18.0836,13.3989,25.5742,-439.981,25319.6,-2435.57,137.882,176.729,375.354,315.659,-10703.2,-1763.49,-9.44808,-23.3196,67.7455,-5662.55,4696.7,3504.34,-84.4762,48.5799,42.9501,1164.57,-10016.7,-779.172,-29.1995,-41.8218,97.509,8436.21,1548.53,1616.3,41.2492,-0.667646,-7.72401
3.329,20411.3,-7216.35,15561.9,-132.239,232.772,281.854,4060.55,2981.64,8965.27,18.1389,13.1729,25.4521,-579.618,25443.8,-2473.26,137.642,177.966,374.626,328.193,-10693.4,-1754.57,-9.46345,-23.287,67.9758,-5637.58,4731.14,3520.48,-86.4446,49.9366,42.9243,1195.22,-10006.2,-773.492,-28.9445,-41.7846,97.641,8452.66,1558.65,1592.09,41.3346,-0.759924,-7.74715
3.3295,20540.3,-7135.0,15547.8,-131.624,230.588,283.495,4061.56,2985.27,8959.0,18.263,12.8751,25.2392,-725.044,25551.1,-2448.61,136.949,178.455,374.027,343.644,-10679.3,-1732.87,-9.49153,-23.197,68.2042,-5618.3,4755.35,3533.94,-87.7966,51.37,42.9845,1230.36,-9986.88,-781.716,-28.6372,-41.6837,97.7344,8466.11,1566.25,1567.11,41.5309,-0.798527,-7.75106
3.33,20669.2,-7053.65,15533.6,-131.009,228.404,285.136,4062.57,2988.89,8952.72,18.3872,12.5772,25.0263,-870.47,25658.4,-2423.96,136.255,178.943,373.429,359.096,-10665.2,-1711.16,-9.51961,-23.1071,68.4327,-5599.02,4779.55,3547.4,-89.1487,52.8035,43.0446,1265.5,-9967.52,-789.941,-28.3299,-41.5829,97.8278,8479.56,1573.85,1542.13,41.7271,-0.83713,-7.75497
3.3305,20798.2,-6972.31,15519.5,-130.394,226.22,286.777,4063.58,2992.52,8946.45,18.5113,12.2793,24.8133,-1015.9,25765.7,-2399.3,135.562,179.431,372.83,374.548,-10651.2,-1689.46,-9.54769,-23.0171,68.6611,-5579.74,4803.76,3560.86,-90.5007,54.2369,43.1047,1300.64,-9948.17,-798.165,-28.0225,-41.4821,97.9212,8493.01,1581.45,1517.15,41.9234,-0.875733,-7.75887
3.331,20927.1,-6890.96,15505.3,-129.779,224.035,288.418,4064.59,2996.14,8940.18,18.6354,11.9814,24.6004,-1161.32,25873.0,-2374.65,134.868,179.919,372.232,390.0,-10637.1,-1667.75,-9.57577,-22.9271,68.8896,-5560.45,4827.96,3574.32,-91.8527,55.6704,43.1649,1335.78,-9928.81,-806.389,-27.7152,-41.3813,98.0146,8506.46,1589.05,1492.17,42.1197,-0.914337,-7.76278
3.3315,21056.1,-6809.61,15491.1,-129.164,221.851,290.059,4065.6,2999.77,8933.9,18.7595,11.6835,24.3875,-1306.75,25980.4,-2349.99,134.174,180.407,371.633,405.451,-10623.0,-1646.05,-9.60385,-22.8372,69.118,-5541.17,4852.17,3587.78,-93.2047,57.1038,43.225,1370.92,-9909.46,-814.613,-27.4079,-41.2805,98.108,8519.91,1596.65,1467.19,42.3159,-0.95294,-7.76669
3.332,21185.0,-6728.26,15477.0,-128.549,219.667,291.7,4066.61,3003.39,8927.63,18.8836,11.3856,24.1745,-1452.18,26087.7,-2325.34,133.481,180.895,371.035,420.903,-10608.9,-1624.34,-9.63193,-22.7472,69.3464,-5521.89,4876.37,3601.24,-94.5567,58.5372,43.2852,1406.06,-9890.1,-822.837,-27.1006,-41.1797,98.2014,8533.36,1604.25,1442.21,42.5122,-0.991543,-7.7706
3.3325,21314.0,-6646.92,15462.8,-127.934,217.483,293.341,4067.62,3007.02,8921.36,19.0078,11.0877,23.9616,-1597.6,26195.0,-2300.69,132.787,181.383,370.436,436.355,-10594.9,-1602.64,-9.66001,-22.6573,69.5749,-5502.6,4900.58,3614.7,-95.9088,59.9707,43.3453,1441.19,-9870.75,-831.062,-26.7932,-41.0788,98.2948,8546.81,1611.86,1417.23,42.7085,-1.03015,-7.77451
3.333,21442.9,-6565.57,15448.7,-127.319,215.299,294.982,4068.63,3010.64,8915.09,19.1319,10.7898,23.7487,-1743.03,26302.3,-2276.03,132.094,181.871,369.838,451.807,-10580.8,-1580.93,-9.6881,-22.5673,69.8033,-5483.32,4924.79,3628.16,-97.2608,61.4041,43.4054,1476.33,-9851.39,-839.286,-26.4859,-40.978,98.3882,8560.26,1619.46,1392.26,42.9047,-1.06875,-7.77841
3.3335,21616.5,-6488.19,15415.6,-126.373,213.351,296.738,4069.68,3016.26,8910.74,19.2042,10.4987,23.5331,-1893.87,26389.8,-2261.5,131.413,182.173,369.277,462.367,-10571.3,-1564.87,-9.76111,-22.4831,70.0363,-5452.5,4963.27,3628.24,-98.4022,62.6811,43.5,1500.79,-9846.9,-835.341,-26.1703,-40.8918,98.4625,8571.88,1627.42,1365.82,43.1748,-1.07542,-7.76058
3.334,21879.3,-6418.76,15344.7,-124.763,211.878,298.724,4070.79,3025.84,8910.23,19.1728,10.2211,23.3124,-2055.55,26437.6,-2267.22,130.757,182.103,368.791,463.144,-10571.0,-1560.1,-9.92401,-22.4104,70.2783,-5398.6,5030.32,3601.56,-99.1223,63.6453,43.6634,1503.89,-9872.15,-807.058,-25.8382,-40.8346,98.4987,8579.82,1636.12,1336.47,43.5925,-1.01824,-7.69928
3.3345,22142.2,-6349.33,15273.8,-123.153,210.404,300.71,4071.9,3035.43,8909.73,19.1414,9.94355,23.0916,-2217.23,26485.4,-2272.94,130.101,182.033,368.305,463.921,-10570.7,-1555.32,-10.0869,-22.3377,70.5202,-5344.7,5097.37,3574.88,-99.8424,64.6094,43.8267,1506.99,-9897.4,-778.775,-25.5061,-40.7774,98.5348,8587.76,1644.83,1307.12,44.0103,-0.961051,-7.63798
3.335,22405.1,-6279.9,15202.9,-121.542,208.931,302.696,4073.02,3045.02,8909.23,19.1101,9.66599,22.8708,-2378.91,26533.3,-2278.65,129.445,181.963,367.818,464.697,-10570.4,-1550.55,-10.2498,-22.265,70.7622,-5290.8,5164.42,3548.2,-100.563,65.5736,43.9901,1510.09,-9922.65,-750.492,-25.174,-40.7202,98.571,8595.7,1653.53,1277.78,44.428,-0.903864,-7.57668
3.3355,22667.9,-6210.46,15132.0,-119.932,207.457,304.682,4074.13,3054.6,8908.72,19.0787,9.38844,22.6501,-2540.6,26581.1,-2284.37,128.789,181.893,367.332,465.474,-10570.1,-1545.77,-10.4127,-22.1923,71.0042,-5236.89,5231.47,3521.52,-101.283,66.5377,44.1535,1513.2,-9947.9,-722.208,-24.8419,-40.663,98.6071,8603.65,1662.23,1248.43,44.8457,-0.846678,-7.51538
3.336,22930.8,-6141.03,15061.1,-118.322,205.984,306.668,4075.25,3064.19,8908.22,19.0473,9.11088,22.4293,-2702.28,26628.9,-2290.09,128.133,181.823,366.846,466.251,-10569.8,-1541.0,-10.5756,-22.1195,71.2462,-5182.99,5298.51,3494.84,-102.003,67.5019,44.3168,1516.3,-9973.14,-693.925,-24.5098,-40.6058,98.6433,8611.59,1670.93,1219.08,45.2635,-0.789492,-7.45407
3.3365,23193.6,-6071.6,14990.1,-116.712,204.51,308.654,4076.36,3073.78,8907.72,19.0159,8.83332,22.2085,-2863.96,26676.7,-2295.8,127.477,181.753,366.36,467.028,-10569.5,-1536.22,-10.7385,-22.0468,71.4882,-5129.09,5365.56,3468.17,-102.723,68.466,44.4802,1519.4,-9998.39,-665.642,-24.1777,-40.5487,98.6795,8619.53,1679.63,1189.73,45.6812,-0.732306,-7.39277
3.337,23456.5,-6002.17,14919.2,-115.102,203.037,310.64,4077.47,3083.37,8907.21,18.9846,8.55577,21.9878,-3025.64,26724.6,-2301.52,126.821,181.684,365.874,467.805,-10569.2,-1531.45,-10.9014,-21.9741,71.7302,-5075.19,5432.61,3441.49,-103.443,69.4302,44.6436,1522.5,-10023.6,-637.359,-23.8456,-40.4915,98.7156,8627.47,1688.33,1160.38,46.0989,-0.67512,-7.33147
3.3375,23719.3,-5932.74,14848.3,-113.492,201.563,312.626,4078.59,3092.95,8906.71,18.9532,8.27821,21.767,-3187.32,26772.4,-2307.24,126.165,181.614,365.388,468.582,-10568.9,-1526.67,-11.0643,-21.9014,71.9722,-5021.29,5499.66,3414.81,-104.163,70.3943,44.807,1525.6,-10048.9,-609.076,-23.5135,-40.4343,98.7518,8635.42,1697.03,1131.04,46.5166,-0.617933,-7.27017
3.338,24022.3,-5981.06,14721.2,-111.565,200.592,314.431,4077.18,3110.81,8909.16,18.9493,7.98104,21.6624,-3336.46,26803.5,-2354.84,125.599,181.546,364.795,467.27,-10570.1,-1528.38,-11.2352,-21.864,72.2364,-4947.73,5567.58,3399.66,-104.442,71.1006,44.9242,1535.82,-10056.1,-580.448,-23.1873,-40.3658,98.7581,8644.54,1705.01,1096.09,46.96,-0.504424,-7.18523
3.3385,24375.4,-6176.59,14523.9,-109.244,200.249,316.012,4072.63,3139.01,8915.32,18.9798,7.65936,21.7029,-3469.92,26813.6,-2454.79,125.144,181.48,364.068,463.349,-10573.0,-1538.2,-11.416,-21.8706,72.5283,-4849.58,5636.6,3398.93,-104.17,71.4848,44.9838,1554.94,-10040.7,-551.388,-22.8687,-40.2832,98.7272,8655.16,1712.09,1054.16,47.4352,-0.320512,-7.07073
3.339,24728.5,-6372.12,14326.6,-106.922,199.907,317.592,4068.07,3167.21,8921.47,19.0102,7.33768,21.7434,-3603.39,26823.8,-2554.75,124.69,181.415,363.342,459.427,-10576.0,-1548.02,-11.5968,-21.8773,72.8202,-4751.43,5705.63,3398.21,-103.898,71.8689,45.0434,1574.06,-10025.4,-522.328,-22.55,-40.2006,98.6963,8665.77,1719.17,1012.22,47.9105,-0.1366,-6.95624
3.3395,25081.6,-6567.65,14129.2,-104.6,199.564,319.173,4063.52,3195.41,8927.62,19.0407,7.016,21.7839,-3736.85,26833.9,-2654.71,124.236,181.35,362.615,455.505,-10579.0,-1557.84,-11.7776,-21.8839,73.1121,-4653.28,5774.65,3397.48,-103.626,72.253,45.103,1593.19,-10010.0,-493.268,-22.2313,-40.1179,98.6654,8676.38,1726.24,970.286,48.3858,0.0473125,-6.84175
3.34,25434.7,-6763.17,13931.9,-102.279,199.221,320.753,4058.96,3223.61,8933.77,19.0711,6.69432,21.8245,-3870.32,26844.1,-2754.66,123.781,181.284,361.889,451.583,-10581.9,-1567.66,-11.9584,-21.8906,73.4039,-4555.13,5843.67,3396.75,-103.354,72.6371,45.1626,1612.31,-9994.64,-464.208,-21.9126,-40.0353,98.6345,8686.99,1733.32,928.351,48.8611,0.231225,-6.72726
3.3405,25787.7,-6958.7,13734.6,-99.9568,198.878,322.334,4054.4,3251.8,8939.92,19.1016,6.37264,21.865,-4003.78,26854.2,-2854.62,123.327,181.219,361.162,447.661,-10584.9,-1577.48,-12.1393,-21.8972,73.6958,-4456.98,5912.69,3396.03,-103.082,73.0212,45.2222,1631.43,-9979.28,-435.148,-21.5939,-39.9527,98.6036,8697.61,1740.4,886.415,49.3364,0.415137,-6.61277
3.341,26140.8,-7154.23,13537.2,-97.6352,198.536,323.914,4049.85,3280.0,8946.07,19.1321,6.05097,21.9055,-4137.25,26864.4,-2954.57,122.872,181.154,360.436,443.739,-10587.9,-1587.3,-12.3201,-21.9039,73.9877,-4358.83,5981.71,3395.3,-102.809,73.4053,45.2818,1650.56,-9963.91,-406.088,-21.2752,-39.87,98.5727,8708.22,1747.48,844.48,49.8117,0.599049,-6.49827
3.3415,26493.9,-7349.76,13339.9,-95.3135,198.193,325.494,4045.29,3308.2,8952.22,19.1625,5.72929,21.946,-4270.71,26874.5,-3054.53,122.418,181.088,359.709,439.817,-10590.9,-1597.12,-12.5009,-21.9105,74.2796,-4260.68,6050.73,3394.57,-102.537,73.7894,45.3414,1669.68,-9948.55,-377.028,-20.9565,-39.7874,98.5418,8718.83,1754.55,802.544,50.287,0.782962,-6.38378
3.342,26847.0,-7545.28,13142.6,-92.9918,197.85,327.075,4040.74,3336.4,8958.37,19.193,5.40761,21.9866,-4404.18,26884.6,-3154.49,121.964,181.023,358.982,435.895,-10593.8,-1606.94,-12.6817,-21.9172,74.5715,-4162.53,6119.75,3393.85,-102.265,74.1736,45.401,1688.8,-9933.19,-347.968,-20.6378,-39.7048,98.5109,8729.44,1761.63,760.609,50.7623,0.966874,-6.26929
3.3425,27203.2,-7822.91,12949.9,-90.0639,197.983,328.034,4025.13,3357.44,8972.73,19.3205,5.11733,21.9732,-4516.19,26898.7,-3286.19,121.546,181.175,358.038,443.416,-10593.1,-1614.27,-12.8205,-21.8613,74.8911,-4079.9,6223.38,3402.31,-101.557,74.0438,45.4974,1701.93,-9925.9,-311.964,-20.332,-39.5871,98.4668,8737.53,1771.52,724.363,51.1239,1.18774,-6.16066
3.343,27562.0,-8166.22,12761.1,-86.6512,198.498,328.497,4000.67,3372.76,8993.66,19.5257,4.85218,21.9168,-4611.05,26915.9,-3443.29,121.157,181.499,356.919,460.091,-10589.5,-1619.62,-12.9257,-21.7553,75.2329,-4009.69,6354.69,3418.11,-100.501,73.5028,45.6232,1710.26,-9925.07,-270.406,-20.0365,-39.4413,98.412,8743.61,1783.65,692.67,51.3945,1.43816,-6.05673
3.3435,27920.7,-8509.54,12572.2,-83.2385,199.012,328.959,3976.22,3388.09,9014.58,19.731,4.58703,21.8603,-4705.91,26933.1,-3600.39,120.769,181.824,355.8,476.766,-10585.8,-1624.98,-13.031,-21.6494,75.5747,-3939.47,6486.0,3433.92,-99.4454,72.9619,45.7491,1718.59,-9924.24,-228.848,-19.741,-39.2955,98.3573,8749.68,1795.79,660.977,51.6652,1.68858,-5.9528
3.344,28279.4,-8852.85,12383.4,-79.8258,199.526,329.422,3951.77,3403.41,9035.5,19.9362,4.32188,21.8039,-4800.77,26950.3,-3757.49,120.38,182.149,354.681,493.441,-10582.2,-1630.33,-13.1362,-21.5434,75.9165,-3869.25,6617.31,3449.73,-98.3893,72.421,45.8749,1726.91,-9923.42,-187.29,-19.4455,-39.1498,98.3026,8755.76,1807.93,629.284,51.9358,1.939,-5.84887
3.3445,28638.1,-9196.16,12194.5,-76.4131,200.04,329.885,3927.32,3418.73,9056.43,20.1414,4.05673,21.7475,-4895.62,26967.5,-3914.59,119.991,182.474,353.562,510.117,-10578.5,-1635.68,-13.2414,-21.4374,76.2583,-3799.03,6748.63,3465.54,-97.3333,71.88,46.0007,1735.24,-9922.59,-145.732,-19.15,-39.004,98.2478,8761.83,1820.06,597.59,52.2064,2.18942,-5.74493
3.345,28996.9,-9539.47,12005.7,-73.0004,200.555,330.347,3902.86,3434.05,9077.35,20.3466,3.79158,21.691,-4990.48,26984.7,-4071.69,119.603,182.799,352.443,526.792,-10574.9,-1641.03,-13.3466,-21.3315,76.6001,-3728.81,6879.94,3481.35,-96.2773,71.3391,46.1266,1743.57,-9921.76,-104.173,-18.8545,-38.8582,98.1931,8767.9,1832.2,565.897,52.4771,2.43984,-5.641
3.3455,29355.6,-9882.78,11816.8,-69.5876,201.069,330.81,3878.41,3449.37,9098.28,20.5518,3.52643,21.6346,-5085.34,27001.9,-4228.79,119.214,183.123,351.324,543.467,-10571.3,-1646.38,-13.4518,-21.2255,76.9419,-3658.59,7011.25,3497.15,-95.2213,70.7982,46.2524,1751.9,-9920.93,-62.6152,-18.559,-38.7124,98.1384,8773.98,1844.34,534.204,52.7477,2.69026,-5.53707
3.346,29714.3,-10226.1,11628.0,-66.1749,201.583,331.272,3853.96,3464.7,9119.2,20.757,3.26128,21.5782,-5180.2,27019.1,-4385.89,118.825,183.448,350.205,560.142,-10567.6,-1651.73,-13.557,-21.1195,77.2837,-3588.38,7142.56,3512.96,-94.1652,70.2573,46.3782,1760.23,-9920.1,-21.057,-18.2636,-38.5667,98.0836,8780.05,1856.47,502.511,53.0184,2.94068,-5.43314
3.3465,30073.1,-10569.4,11439.1,-62.7622,202.097,331.735,3829.51,3480.02,9140.12,20.9623,2.99613,21.5217,-5275.05,27036.2,-4542.99,118.437,183.773,349.086,576.818,-10564.0,-1657.08,-13.6622,-21.0136,77.6255,-3518.16,7273.87,3528.77,-93.1092,69.7163,46.5041,1768.56,-9919.27,20.5012,-17.9681,-38.4209,98.0289,8786.13,1868.61,470.817,53.289,3.1911,-5.32921
3.347,30356.5,-10836.9,11287.3,-58.4517,202.704,331.753,3814.41,3465.86,9181.22,21.2348,2.57457,21.5671,-5363.69,27055.1,-4690.58,117.991,184.204,347.737,593.561,-10570.3,-1660.77,-13.7713,-20.906,77.9847,-3495.35,7416.4,3552.47,-91.5594,68.4981,46.3082,1773.79,-9913.96,59.244,-17.7844,-38.2782,98.0142,8791.28,1884.98,466.299,53.3299,3.36548,-5.25152
3.3475,30602.4,-11066.5,11154.1,-53.6922,203.358,331.549,3803.98,3436.97,9232.4,21.5411,2.0748,21.6635,-5449.21,27074.8,-4833.41,117.518,184.688,346.273,610.338,-10581.6,-1663.62,-13.8823,-20.7976,78.3525,-3496.24,7564.55,3580.12,-89.7628,66.9413,45.9514,1777.47,-9906.4,96.5793,-17.6565,-38.1371,98.0195,8795.96,1903.47,475.368,53.256,3.50184,-5.18696
3.348,30848.3,-11296.1,11020.8,-48.9328,204.012,331.345,3793.56,3408.08,9283.57,21.8474,1.57503,21.7598,-5534.74,27094.6,-4976.25,117.044,185.173,344.81,627.115,-10593.0,-1666.47,-13.9933,-20.6891,78.7204,-3497.13,7712.69,3607.78,-87.9662,65.3845,45.5947,1781.14,-9898.84,133.915,-17.5287,-37.996,98.0248,8800.65,1921.96,484.437,53.1821,3.63819,-5.1224
3.3485,31094.2,-11525.8,10887.6,-44.1733,204.666,331.141,3783.13,3379.19,9334.75,22.1537,1.07527,21.8561,-5620.27,27114.3,-5119.08,116.571,185.657,343.346,643.892,-10604.3,-1669.32,-14.1044,-20.5807,79.0882,-3498.03,7860.83,3635.43,-86.1695,63.8277,45.2379,1784.82,-9891.28,171.25,-17.4009,-37.8549,98.0301,8805.34,1940.45,493.506,53.1081,3.77455,-5.05784
3.349,31340.1,-11755.4,10754.3,-39.4139,205.319,330.937,3772.71,3350.3,9385.93,22.4599,0.575497,21.9524,-5705.79,27134.0,-5261.91,116.097,186.141,341.882,660.669,-10615.6,-1672.17,-14.2154,-20.4723,79.456,-3498.92,8008.97,3663.08,-84.3729,62.2708,44.8812,1788.5,-9883.73,208.585,-17.2731,-37.7139,98.0354,8810.03,1958.94,502.575,53.0342,3.91091,-4.99328
3.3495,31585.9,-11985.0,10621.1,-34.6544,205.973,330.733,3762.29,3321.41,9437.11,22.7662,0.0757287,22.0487,-5791.32,27153.7,-5404.75,115.623,186.625,340.418,677.446,-10627.0,-1675.02,-14.3264,-20.3639,79.8239,-3499.81,8157.12,3690.73,-82.5763,60.714,44.5244,1792.18,-9876.17,245.92,-17.1452,-37.5728,98.0406,8814.71,1977.43,511.644,52.9603,4.04727,-4.92871
3.35,31831.8,-12214.6,10487.9,-29.895,206.627,330.529,3751.86,3292.52,9488.28,23.0725,-0.42404,22.145,-5876.84,27173.5,-5547.58,115.15,187.11,338.954,694.224,-10638.3,-1677.87,-14.4375,-20.2555,80.1917,-3500.71,8305.26,3718.38,-80.7796,59.1572,44.1676,1795.86,-9868.61,283.255,-17.0174,-37.4317,98.0459,8819.4,1995.92,520.713,52.8863,4.18363,-4.86415
3.3505,32077.7,-12444.2,10354.6,-25.1355,207.28,330.326,3741.44,3263.63,9539.46,23.3787,-0.923809,22.2414,-5962.37,27193.2,-5690.41,114.676,187.594,337.491,711.001,-10649.6,-1680.72,-14.5485,-20.1471,80.5596,-3501.6,8453.4,3746.03,-78.983,57.6004,43.8109,1799.53,-9861.05,320.591,-16.8896,-37.2906,98.0512,8824.09,2014.41,529.782,52.8124,4.31998,-4.79959
3.351,32323.6,-12673.8,10221.4,-20.3761,207.934,330.122,3731.01,3234.74,9590.64,23.685,-1.42358,22.3377,-6047.9,27212.9,-5833.25,114.203,188.078,336.027,727.778,-10661.0,-1683.57,-14.6595,-20.0387,80.9274,-3502.49,8601.54,3773.69,-77.1864,56.0435,43.4541,1803.21,-9853.49,357.926,-16.7618,-37.1495,98.0565,8828.77,2032.9,538.851,52.7385,4.45634,-4.73503
3.3515,32410.0,-12654.9,10064.7,-16.2165,208.398,330.028,3716.66,3204.72,9606.41,23.9326,-1.86978,22.3106,-6129.15,27226.9,-5937.2,113.641,188.277,334.396,740.135,-10678.6,-1685.86,-14.755,-20.0025,81.2921,-3496.86,8835.75,3787.79,-75.4314,54.859,42.3221,1801.09,-9855.24,389.221,-16.7382,-37.0451,98.0038,8823.73,2053.02,575.04,52.4559,4.45755,-4.66496
3.352,32450.9,-12564.9,9901.24,-12.2283,208.808,329.966,3701.19,3174.39,9612.07,24.1634,-2.30068,22.2482,-6209.19,27239.2,-6030.04,113.055,188.394,332.718,751.229,-10698.1,-1687.98,-14.8459,-19.9869,81.656,-3489.35,9094.56,3798.01,-73.6882,53.7809,40.9685,1797.32,-9859.65,418.791,-16.7443,-36.9513,97.9345,8815.9,2073.6,618.977,52.1137,4.42016,-4.59332
3.3525,32491.8,-12474.9,9737.82,-8.24004,209.218,329.905,3685.72,3144.05,9617.73,24.3943,-2.73159,22.1858,-6289.22,27251.6,-6122.88,112.469,188.511,331.04,762.323,-10717.5,-1690.1,-14.9369,-19.9713,82.0198,-3481.85,9353.36,3808.24,-71.9451,52.7027,39.6149,1793.55,-9864.06,448.36,-16.7505,-36.8575,97.8651,8808.07,2094.17,662.915,51.7716,4.38275,-4.52167
3.353,32532.7,-12384.9,9574.4,-4.25182,209.628,329.843,3670.25,3113.71,9623.38,24.6251,-3.16249,22.1234,-6369.26,27263.9,-6215.73,111.883,188.628,329.362,773.417,-10737.0,-1692.22,-15.0278,-19.9558,82.3836,-3474.35,9612.16,3818.47,-70.202,51.6246,38.2613,1789.78,-9868.47,477.93,-16.7567,-36.7636,97.7958,8800.24,2114.75,706.852,51.4294,4.34535,-4.45003
3.3535,32573.6,-12294.9,9410.98,-0.263595,210.038,329.781,3654.78,3083.37,9629.04,24.8559,-3.59339,22.0611,-6449.29,27276.2,-6308.57,111.297,188.746,327.684,784.511,-10756.4,-1694.34,-15.1188,-19.9402,82.7475,-3466.85,9870.97,3828.69,-68.4589,50.5464,36.9077,1786.01,-9872.88,507.499,-16.7628,-36.6698,97.7264,8792.41,2135.33,750.789,51.0872,4.30795,-4.37838
3.354,32614.5,-12204.9,9247.56,3.72463,210.448,329.719,3639.31,3053.04,9634.7,25.0868,-4.02429,21.9987,-6529.33,27288.6,-6401.41,110.711,188.863,326.006,795.605,-10775.9,-1696.46,-15.2097,-19.9246,83.1113,-3459.35,10129.8,3838.92,-66.7158,49.4683,35.5542,1782.24,-9877.29,537.069,-16.769,-36.576,97.6571,8784.58,2155.91,794.727,50.745,4.27055,-4.30674
3.3545,32655.4,-12115.0,9084.14,7.71285,210.858,329.658,3623.84,3022.7,9640.35,25.3176,-4.45519,21.9363,-6609.36,27300.9,-6494.26,110.125,188.98,324.328,806.699,-10795.4,-1698.58,-15.3007,-19.9091,83.4751,-3451.84,10388.6,3849.15,-64.9727,48.3901,34.2006,1778.47,-9881.7,566.638,-16.7751,-36.4821,97.5878,8776.75,2176.49,838.664,50.4028,4.23315,-4.23509
3.355,32696.4,-12025.0,8920.72,11.7011,211.268,329.596,3608.36,2992.36,9646.01,25.5484,-4.8861,21.8739,-6689.4,27313.3,-6587.1,109.539,189.097,322.65,817.794,-10814.8,-1700.7,-15.3917,-19.8935,83.8389,-3444.34,10647.4,3859.37,-63.2295,47.312,32.847,1774.69,-9886.11,596.208,-16.7813,-36.3883,97.5184,8768.93,2197.07,882.601,50.0607,4.19575,-4.16345
3.3555,32737.3,-11935.0,8757.31,15.6893,211.678,329.534,3592.89,2962.02,9651.67,25.7793,-5.317,21.8115,-6769.44,27325.6,-6679.94,108.953,189.214,320.972,828.888,-10834.3,-1702.82,-15.4826,-19.8779,84.2028,-3436.84,10906.2,3869.6,-61.4864,46.2338,31.4934,1770.92,-9890.52,625.777,-16.7875,-36.2945,97.4491,8761.1,2217.65,926.539,49.7185,4.15835,-4.0918
3.356,32696.7,-11627.1,8553.18,18.5329,211.628,328.896,3584.19,2963.8,9651.01,26.357,-5.73915,21.8974,-6897.85,27317.8,-6778.84,108.099,188.663,319.418,838.602,-10852.0,-1691.08,-15.5649,-19.8538,84.5724,-3258.36,11312.9,3992.4,-60.7829,46.1148,29.9461,1782.0,-9938.28,647.574,-16.7549,-36.2896,97.334,8757.94,2220.81,978.036,49.2908,3.97579,-4.09519
3.3565,32646.0,-11292.1,8343.97,21.2335,211.521,328.186,3576.34,2969.59,9649.57,26.9781,-6.16021,22.0018,-7032.32,27307.4,-6878.5,107.212,188.028,317.88,848.144,-10869.6,-1677.61,-15.6461,-19.8285,84.9427,-3058.52,11738.2,4129.28,-60.2093,46.1157,28.3746,1794.94,-9991.47,668.4,-16.7176,-36.2959,97.2132,8755.36,2221.79,1030.48,48.8525,3.77507,-4.10795
3.357,32595.3,-10957.0,8134.75,23.9341,211.414,327.476,3568.49,2975.38,9648.13,27.5992,-6.58127,22.1062,-7166.79,27297.1,-6978.16,106.325,187.393,316.341,857.685,-10887.1,-1664.14,-15.7274,-19.8033,85.313,-2858.67,12163.5,4266.15,-59.6358,46.1166,26.8031,1807.88,-10044.7,689.226,-16.6802,-36.3022,97.0924,8752.79,2222.77,1082.92,48.4141,3.57436,-4.12071
3.3575,32544.5,-10621.9,7925.54,26.6347,211.307,326.766,3560.64,2981.17,9646.68,28.2203,-7.00233,22.2106,-7301.26,27286.8,-7077.81,105.439,186.757,314.803,867.227,-10904.6,-1650.66,-15.8086,-19.778,85.6833,-2658.82,12588.7,4403.03,-59.0622,46.1175,25.2315,1820.82,-10097.8,710.052,-16.6428,-36.3084,96.9716,8750.21,2223.75,1135.36,47.9757,3.37364,-4.13347
3.358,32493.8,-10286.9,7716.32,29.3352,211.2,326.056,3552.79,2986.96,9645.24,28.8414,-7.42339,22.315,-7435.73,27276.4,-7177.47,104.552,186.122,313.265,876.769,-10922.1,-1637.19,-15.8898,-19.7528,86.0536,-2458.97,13014.0,4539.9,-58.4886,46.1184,23.66,1833.75,-10151.0,730.878,-16.6054,-36.3147,96.8508,8747.64,2224.74,1187.81,47.5374,3.17293,-4.14623
3.3585,32443.1,-9951.8,7507.11,32.0358,211.093,325.346,3544.94,2992.75,9643.8,29.4626,-7.84445,22.4194,-7570.19,27266.1,-7277.13,103.665,185.487,311.726,886.311,-10939.7,-1623.72,-15.971,-19.7275,86.424,-2259.13,13439.2,4676.78,-57.9151,46.1192,22.0885,1846.69,-10204.2,751.703,-16.568,-36.321,96.7299,8745.06,2225.72,1240.25,47.099,2.97221,-4.15899
3.359,32392.3,-9616.73,7297.9,34.7364,210.986,324.636,3537.09,2998.54,9642.35,30.0837,-8.26551,22.5238,-7704.66,27255.7,-7376.78,102.778,184.852,310.188,895.853,-10957.2,-1610.25,-16.0522,-19.7023,86.7943,-2059.28,13864.5,4813.65,-57.3415,46.1201,20.517,1859.63,-10257.4,772.529,-16.5307,-36.3273,96.6091,8742.49,2226.7,1292.69,46.6607,2.7715,-4.17175
3.3595,32341.6,-9281.66,7088.68,37.4369,210.879,323.926,3529.24,3004.34,9640.91,30.7048,-8.68657,22.6282,-7839.13,27245.4,-7476.44,101.891,184.217,308.65,905.394,-10974.7,-1596.78,-16.1335,-19.677,87.1646,-1859.43,14289.7,4950.53,-56.7679,46.121,18.9454,1872.57,-10310.6,793.355,-16.4933,-36.3335,96.4883,8739.91,2227.68,1345.14,46.2223,2.57078,-4.18451
3.36,32290.9,-8946.58,6879.47,40.1375,210.772,323.216,3521.39,3010.13,9639.47,31.3259,-9.10763,22.7326,-7973.6,27235.0,-7576.1,101.004,183.582,307.111,914.936,-10992.3,-1583.31,-16.2147,-19.6518,87.5349,-1659.58,14715.0,5087.4,-56.1943,46.1219,17.3739,1885.5,-10363.8,814.181,-16.4559,-36.3398,96.3675,8737.34,2228.67,1397.58,45.7839,2.37007,-4.19727
3.3605,32235.9,-8500.02,6592.09,41.7888,210.192,321.813,3500.14,2952.47,9735.67,32.6174,-10.2792,22.7156,-8142.88,27149.7,-7639.72,99.9111,182.168,305.878,916.112,-11017.5,-1613.86,-16.6663,-19.7357,87.9127,-1268.24,15066.2,5344.67,-57.5776,46.672,17.0431,1906.79,-10401.1,842.907,-16.4785,-36.5324,96.2115,8749.18,2239.59,1427.94,45.3406,2.14546,-4.25833
3.361,32181.0,-8053.46,6304.7,43.4401,209.613,320.411,3478.88,2894.81,9831.88,33.909,-11.4507,22.6986,-8312.17,27064.3,-7703.34,98.8181,180.755,304.645,917.289,-11042.8,-1644.41,-17.1179,-19.8197,88.2906,-876.897,15417.4,5601.93,-58.9608,47.2221,16.7124,1928.08,-10438.5,871.633,-16.5011,-36.7251,96.0555,8761.03,2250.52,1458.31,44.8972,1.92086,-4.31939
3.3615,32126.0,-7606.9,6017.32,45.0914,209.033,319.008,3457.63,2837.16,9928.09,35.2005,-12.6222,22.6817,-8481.46,26979.0,-7766.96,97.7251,179.341,303.412,918.465,-11068.1,-1674.96,-17.5695,-19.9036,88.6684,-485.555,15768.5,5859.19,-60.344,47.7722,16.3816,1949.37,-10475.8,900.36,-16.5236,-36.9177,95.8994,8772.88,2261.45,1488.68,44.4539,1.69626,-4.38045
3.362,32071.0,-7160.34,5729.93,46.7427,208.453,317.605,3436.37,2779.5,10024.3,36.4921,-13.7937,22.6647,-8650.74,26893.6,-7830.58,96.632,177.927,302.179,919.642,-11093.4,-1705.51,-18.0211,-19.9876,89.0462,-94.2117,16119.7,6116.45,-61.7272,48.3223,16.0508,1970.66,-10513.2,929.086,-16.5462,-37.1103,95.7434,8784.72,2272.37,1519.04,44.0105,1.47165,-4.4415
3.3625,32016.1,-6713.78,5442.55,48.3941,207.874,316.202,3415.12,2721.84,10120.5,37.7836,-14.9653,22.6477,-8820.03,26808.3,-7894.2,95.539,176.514,300.946,920.818,-11118.6,-1736.06,-18.4727,-20.0715,89.424,297.131,16470.9,6373.72,-63.1104,48.8724,15.72,1991.94,-10550.5,957.812,-16.5688,-37.3029,95.5874,8796.57,2283.3,1549.41,43.5672,1.24705,-4.50256
3.363,31961.1,-6267.21,5155.17,50.0454,207.294,314.799,3393.87,2664.18,10216.7,39.0752,-16.1368,22.6307,-8989.32,26722.9,-7957.82,94.446,175.1,299.713,921.994,-11143.9,-1766.61,-18.9243,-20.1554,89.8018,688.474,16822.1,6630.98,-64.4936,49.4225,15.3893,2013.23,-10587.9,986.539,-16.5913,-37.4956,95.4313,8808.41,2294.23,1579.78,43.1238,1.02244,-4.56362
3.3635,31906.2,-5820.65,4867.78,51.6967,206.715,313.396,3372.61,2606.53,10312.9,40.3667,-17.3083,22.6138,-9158.6,26637.6,-8021.44,93.353,173.686,298.48,923.171,-11169.2,-1797.16,-19.3759,-20.2394,90.1797,1079.82,17173.3,6888.24,-65.8769,49.9726,15.0585,2034.52,-10625.2,1015.27,-16.6139,-37.6882,95.2753,8820.26,2305.15,1610.14,42.6805,0.79784,-4.62468
3.364,31851.2,-5374.09,4580.4,53.348,206.135,311.994,3351.36,2548.87,10409.1,41.6583,-18.4798,22.5968,-9327.89,26552.2,-8085.06,92.26,172.273,297.247,924.347,-11194.5,-1827.71,-19.8274,-20.3233,90.5575,1471.16,17524.5,7145.5,-67.2601,50.5227,14.7277,2055.81,-10662.6,1043.99,-16.6365,-37.8808,95.1193,8832.11,2316.08,1640.51,42.2371,0.573236,-4.68574
3.3645,31793.0,-4933.76,4295.43,54.8318,205.481,310.511,3335.17,2505.75,10477.6,42.7274,-19.5475,22.4866,-9503.06,26453.9,-8147.77,91.2098,170.78,295.97,921.819,-11219.9,-1861.79,-20.2824,-20.4689,90.901,1873.08,17846.7,7400.58,-68.8432,51.1467,14.5874,2078.34,-10697.5,1069.8,-16.6515,-38.0817,94.9523,8844.81,2328.18,1671.03,41.7914,0.359338,-4.73362
3.365,31709.0,-4543.3,4029.77,54.9755,204.229,308.394,3359.51,2578.89,10324.5,42.0172,-19.7844,21.6306,-9725.32,26251.9,-8203.11,90.5028,168.66,294.341,889.654,-11247.1,-1924.06,-20.764,-21.1069,90.97,2359.63,17937.8,7638.14,-72.0258,52.3622,15.9706,2110.78,-10713.5,1072.28,-16.6062,-38.3487,94.6976,8864.36,2349.64,1702.81,41.3268,0.231082,-4.67608
3.3655,31624.9,-4152.83,3764.11,55.1192,202.978,306.276,3383.84,2652.03,10171.4,41.3069,-20.0213,20.7745,-9947.58,26050.0,-8258.45,89.7957,166.54,292.711,857.49,-11274.3,-1986.33,-21.2456,-21.745,91.039,2846.18,18028.8,7875.7,-75.2084,53.5776,17.3538,2143.22,-10729.4,1074.76,-16.5609,-38.6158,94.443,8883.91,2371.1,1734.59,40.8622,0.102827,-4.61854
3.366,31540.8,-3762.37,3498.46,55.2628,201.726,304.159,3408.18,2725.17,10018.3,40.5967,-20.2582,19.9184,-10169.8,25848.0,-8313.79,89.0886,164.419,291.081,825.325,-11301.4,-2048.6,-21.7272,-22.3831,91.108,3332.73,18119.8,8113.26,-78.391,54.7931,18.7369,2175.65,-10745.3,1077.24,-16.5155,-38.8828,94.1883,8903.46,2392.57,1766.37,40.3977,-0.0254288,-4.561
3.3665,31456.8,-3371.9,3232.8,55.4065,200.474,302.042,3432.52,2798.31,9865.25,39.8865,-20.4951,19.0624,-10392.1,25646.1,-8369.13,88.3815,162.299,289.452,793.161,-11328.6,-2110.87,-22.2088,-23.0212,91.1771,3819.28,18210.9,8350.82,-81.5736,56.0085,20.1201,2208.09,-10761.2,1079.72,-16.4702,-39.1499,93.9336,8923.01,2414.03,1798.14,39.9331,-0.153684,-4.50346
3.367,31372.7,-2981.44,2967.14,55.5502,199.222,299.924,3456.86,2871.45,9712.15,39.1762,-20.7319,18.2063,-10614.4,25444.1,-8424.48,87.6744,160.179,287.822,760.996,-11355.7,-2173.14,-22.6904,-23.6593,91.2461,4305.83,18301.9,8588.38,-84.7562,57.224,21.5033,2240.53,-10777.2,1082.2,-16.4249,-39.4169,93.6789,8942.56,2435.49,1829.92,39.4685,-0.28194,-4.44592
3.3675,31288.6,-2590.97,2701.49,55.6939,197.971,297.807,3481.19,2944.59,9559.06,38.466,-20.9688,17.3503,-10836.6,25242.1,-8479.82,86.9673,158.058,286.193,728.832,-11382.9,-2235.41,-23.172,-24.2974,91.3151,4792.37,18393.0,8825.94,-87.9388,58.4394,22.8865,2272.97,-10793.1,1084.68,-16.3795,-39.684,93.4243,8962.11,2456.95,1861.7,39.0039,-0.410195,-4.38838
3.368,31204.6,-2200.51,2435.83,55.8376,196.719,295.689,3505.53,3017.73,9405.96,37.7557,-21.2057,16.4942,-11058.9,25040.2,-8535.16,86.2602,155.938,284.563,696.667,-11410.1,-2297.68,-23.6536,-24.9355,91.3841,5278.92,18484.0,9063.5,-91.1214,59.6549,24.2697,2305.41,-10809.0,1087.17,-16.3342,-39.951,93.1696,8981.66,2478.42,1893.48,38.5393,-0.538451,-4.33084
3.3685,31120.5,-1810.04,2170.17,55.9813,195.467,293.572,3529.87,3090.87,9252.87,37.0455,-21.4426,15.6382,-11281.1,24838.2,-8590.51,85.5532,153.817,282.933,664.503,-11437.2,-2359.95,-24.1352,-25.5736,91.4531,5765.47,18575.0,9301.06,-94.304,60.8703,25.6529,2337.85,-10824.9,1089.65,-16.2889,-40.2181,92.9149,9001.21,2499.88,1925.26,38.0747,-0.666706,-4.2733
3.369,31021.9,-1447.11,1913.33,55.7561,194.039,291.198,3554.45,3228.95,9147.31,36.5607,-21.7315,15.3058,-11514.0,24627.6,-8645.79,84.9959,151.617,281.158,630.829,-11457.6,-2410.37,-24.3939,-26.1911,91.5842,6242.21,18593.5,9486.34,-97.1972,62.4541,27.2348,2367.5,-10842.6,1083.27,-16.2529,-40.487,92.6603,9016.7,2519.72,1958.94,37.5274,-0.789591,-4.19967
3.3695,30872.6,-1180.51,1687.32,54.2401,191.994,287.926,3579.9,3594.33,9208.11,36.8648,-22.2027,16.8062,-11783.9,24386.5,-8700.85,84.9631,149.138,278.875,591.875,-11454.5,-2419.3,-23.8726,-26.7367,91.9325,6684.59,18358.1,9488.64,-99.0773,65.3269,29.5124,2387.36,-10866.4,1045.91,-16.2496,-40.7623,92.4057,9017.95,2533.9,1999.29,36.6903,-0.893677,-4.06973
3.37,30723.2,-913.923,1461.31,52.724,189.948,284.654,3605.34,3959.7,9268.92,37.169,-22.6738,18.3066,-12053.9,24145.4,-8755.91,84.9302,146.659,276.591,552.92,-11451.3,-2428.23,-23.3513,-27.2823,92.2809,7126.98,18122.8,9490.93,-100.957,68.1996,31.79,2407.23,-10890.1,1008.55,-16.2463,-41.0376,92.1511,9019.21,2548.07,2039.63,35.8533,-0.997763,-3.93979
3.3705,30573.8,-647.331,1235.3,51.208,187.903,281.382,3630.79,4325.08,9329.72,37.4731,-23.145,19.807,-12323.8,23904.3,-8810.97,84.8974,144.18,274.307,513.966,-11448.2,-2437.16,-22.8299,-27.8279,92.6292,7569.36,17887.4,9493.23,-102.837,71.0724,34.0676,2427.09,-10913.9,971.192,-16.243,-41.3128,91.8964,9020.46,2562.24,2079.98,35.0162,-1.10185,-3.80985
3.371,30424.5,-380.74,1009.29,49.692,185.857,278.111,3656.23,4690.45,9390.53,37.7773,-23.6162,21.3074,-12593.7,23663.2,-8866.03,84.8645,141.701,272.023,475.011,-11445.0,-2446.09,-22.3086,-28.3735,92.9775,8011.75,17652.0,9495.52,-104.718,73.9452,36.3452,2446.96,-10937.6,933.831,-16.2397,-41.5881,91.6418,9021.72,2576.41,2120.33,34.1792,-1.20593,-3.67991
3.3715,30275.1,-114.148,783.275,48.1759,183.811,274.839,3681.68,5055.83,9451.34,38.0814,-24.0873,22.8079,-12863.7,23422.1,-8921.09,84.8317,139.222,269.739,436.056,-11441.8,-2455.02,-21.7873,-28.9191,93.3259,8454.13,17416.6,9497.82,-106.598,76.8179,38.6229,2466.82,-10961.4,896.471,-16.2364,-41.8634,91.3872,9022.97,2590.59,2160.68,33.3422,-1.31002,-3.54997
3.372,30125.8,152.443,557.265,46.6599,181.766,271.567,3707.12,5421.2,9512.14,38.3856,-24.5585,24.3083,-13133.6,23181.0,-8976.15,84.7988,136.743,267.456,397.102,-11438.7,-2463.95,-21.266,-29.4647,93.6742,8896.52,17181.2,9500.12,-108.478,79.6907,40.9005,2486.69,-10985.1,859.111,-16.2332,-42.1387,91.1326,9024.22,2604.76,2201.02,32.5051,-1.41411,-3.42003
3.3725,29976.4,419.035,331.254,45.1438,179.72,268.295,3732.56,5786.58,9572.95,38.6897,-25.0296,25.8087,-13403.5,22939.9,-9031.21,84.766,134.264,265.172,358.147,-11435.5,-2472.88,-20.7446,-30.0103,94.0226,9338.9,16945.8,9502.41,-110.358,82.5635,43.1781,2506.55,-11008.9,821.75,-16.2299,-42.414,90.878,9025.48,2618.93,2241.37,31.6681,-1.51819,-3.29009
3.373,29827.0,685.626,105.244,43.6278,177.675,265.024,3758.01,6151.95,9633.75,38.9939,-25.5008,27.3091,-13673.5,22698.8,-9086.27,84.7331,131.785,262.888,319.193,-11432.4,-2481.81,-20.2233,-30.5559,94.3709,9781.29,16710.4,9504.71,-112.238,85.4362,45.4557,2526.41,-11032.6,784.39,-16.2266,-42.6893,90.6234,9026.73,2633.1,2281.72,30.831,-1.62228,-3.16015
3.3735,29656.5,949.929,-124.776,41.6002,175.572,261.3,3759.07,6308.75,9687.22,39.4522,-26.0031,28.5909,-13974.9,22482.0,-9119.88,84.9739,129.245,260.46,298.498,-11444.5,-2466.15,-19.5448,-30.7397,94.8628,10225.0,16453.1,9382.02,-112.338,88.9016,47.6626,2542.95,-11046.9,733.452,-16.2898,-42.9367,90.347,9028.2,2648.56,2336.14,29.7422,-1.7101,-2.99337
3.374,29443.5,1209.65,-362.816,38.5495,173.353,256.672,3711.35,6048.4,9726.02,40.2187,-26.5675,29.4353,-14339.5,22313.9,-9110.56,85.7621,126.581,257.744,314.323,-11487.0,-2401.31,-18.552,-30.2001,95.642,10671.4,16152.1,9009.37,-108.88,93.5521,49.7282,2552.82,-11042.0,655.358,-16.4861,-43.1285,90.0272,9030.09,2666.58,2418.71,28.1497,-1.76539,-2.75293
3.3745,29230.4,1469.38,-600.857,35.4988,171.134,252.043,3663.64,5788.05,9764.82,40.9853,-27.132,30.2797,-14704.0,22145.7,-9101.25,86.5503,123.917,255.028,330.148,-11529.6,-2336.46,-17.5591,-29.6605,96.4212,11117.8,15851.0,8636.72,-105.421,98.2026,51.7939,2562.69,-11037.1,577.264,-16.6824,-43.3204,89.7074,9031.98,2684.61,2501.27,26.5572,-1.82067,-2.51249
3.375,29017.4,1729.1,-838.897,32.4481,168.916,247.415,3615.93,5527.7,9803.62,41.7519,-27.6965,31.1242,-15068.6,21977.5,-9091.94,87.3385,121.253,252.311,345.973,-11572.2,-2271.62,-16.5663,-29.1209,97.2003,11564.2,15550.0,8264.07,-101.963,102.853,53.8595,2572.55,-11032.3,499.171,-16.8786,-43.5121,89.3875,9033.87,2702.63,2583.84,24.9647,-1.87596,-2.27205
3.3755,28804.4,1988.83,-1076.94,29.3973,166.697,242.787,3568.21,5267.34,9842.42,42.5184,-28.261,31.9686,-15433.1,21809.4,-9082.62,88.1266,118.589,249.595,361.798,-11614.8,-2206.77,-15.5735,-28.5812,97.9795,12010.6,15248.9,7891.42,-98.5039,107.504,55.9251,2582.42,-11027.4,421.077,-17.0749,-43.704,89.0677,9035.76,2720.66,2666.4,23.3722,-1.93125,-2.0316
3.376,28591.4,2248.55,-1314.98,26.3466,164.479,238.159,3520.5,5006.99,9881.22,43.285,-28.8255,32.813,-15797.7,21641.2,-9073.31,88.9148,115.925,246.879,377.623,-11657.4,-2141.92,-14.5806,-28.0416,98.7587,12457.0,14947.8,7518.77,-95.0453,112.154,57.9908,2592.29,-11022.6,342.983,-17.2712,-43.8958,88.7479,9037.66,2738.68,2748.97,21.7798,-1.98654,-1.79116
3.3765,28378.4,2508.28,-1553.02,23.2959,162.26,233.531,3472.78,4746.64,9920.02,44.0516,-29.39,33.6575,-16162.2,21473.1,-9064.0,89.703,113.261,244.163,393.447,-11700.0,-2077.08,-13.5878,-27.502,99.5378,12903.4,14646.8,7146.11,-91.5866,116.805,60.0564,2602.16,-11017.7,264.889,-17.4675,-44.0876,88.428,9039.55,2756.71,2831.54,20.1873,-2.04183,-1.55072
3.377,28165.4,2768.0,-1791.06,20.2452,160.042,228.903,3425.07,4486.29,9958.81,44.8181,-29.9544,34.5019,-16526.8,21304.9,-9054.68,90.4912,110.597,241.446,409.272,-11742.6,-2012.23,-12.595,-26.9624,100.317,13349.8,14345.7,6773.46,-88.128,121.455,62.122,2612.03,-11012.8,186.796,-17.6638,-44.2794,88.1082,9041.44,2774.73,2914.1,18.5948,-2.09712,-1.31027
3.3775,27952.4,3027.73,-2029.1,17.1945,157.823,224.275,3377.36,4225.94,9997.61,45.5847,-30.5189,35.3463,-16891.3,21136.8,-9045.37,91.2793,107.933,238.73,425.097,-11785.2,-1947.39,-11.6021,-26.4227,101.096,13796.3,14044.6,6400.81,-84.6694,126.106,64.1877,2621.9,-11008.0,108.702,-17.86,-44.4712,87.7884,9043.33,2792.76,2996.67,17.0023,-2.1524,-1.06983
3.378,27681.0,3391.63,-2030.8,11.1358,154.977,219.055,3375.71,3908.05,10016.7,45.9284,-31.2025,35.3658,-17372.1,21008.4,-8910.8,92.1958,105.118,236.183,459.023,-11839.3,-1853.63,-10.757,-25.7308,101.711,14350.6,13715.2,6050.25,-78.8587,130.809,65.9909,2636.75,-10992.6,8.612,-18.1925,-44.5682,87.444,9048.84,2800.08,3091.49,15.1731,-2.21998,-0.749622
3.3785,27336.8,3885.75,-1737.09,1.31697,151.347,213.095,3431.63,3518.23,10011.1,45.7436,-32.0349,34.354,-17998.2,20929.8,-8619.65,93.2726,102.115,233.847,515.575,-11907.8,-1723.72,-10.0965,-24.8484,102.119,15039.8,13350.3,5727.29,-70.1078,135.58,67.4662,2657.84,-10964.0,-118.973,-18.695,-44.5468,87.0688,9058.88,2794.01,3201.61,13.048,-2.30291,-0.329704
3.379,26992.6,4379.87,-1443.37,-8.50182,147.717,207.135,3487.56,3128.42,10005.6,45.5588,-32.8674,33.3422,-18624.3,20851.1,-8328.5,94.3495,99.1127,231.511,572.128,-11976.4,-1593.81,-9.43608,-23.9659,102.527,15728.9,12985.4,5404.33,-61.3569,140.35,68.9414,2678.93,-10935.3,-246.557,-19.1976,-44.5254,86.6937,9068.92,2787.94,3311.74,10.9228,-2.38583,0.0902143
3.3795,26648.3,4873.98,-1149.66,-18.3206,144.087,201.175,3543.49,2738.6,9999.98,45.3741,-33.6998,32.3304,-19250.4,20772.5,-8037.35,95.4263,96.11,229.175,628.68,-12044.9,-1463.9,-8.77562,-23.0835,102.936,16418.1,12620.6,5081.37,-52.606,145.12,70.4167,2700.01,-10906.7,-374.142,-19.7001,-44.504,86.3185,9078.96,2781.88,3421.86,8.79771,-2.46876,0.510132
3.38,26304.1,5368.1,-855.943,-28.1394,140.457,195.215,3599.42,2348.79,9994.41,45.1893,-34.5322,31.3186,-19876.5,20693.9,-7746.2,96.5032,93.1073,226.838,685.232,-12113.5,-1334.0,-8.11516,-22.2011,103.344,17107.3,12255.7,4758.41,-43.8552,149.891,71.8919,2721.1,-10878.1,-501.727,-20.2027,-44.4826,85.9434,9089.0,2775.81,3531.99,6.67258,-2.55169,0.93005
3.3805,25959.9,5862.22,-562.229,-37.9582,136.827,189.255,3655.35,1958.97,9988.84,45.0045,-35.3646,30.3068,-20502.6,20615.2,-7455.05,97.58,90.1045,224.502,741.784,-12182.0,-1204.09,-7.4547,-21.3187,103.753,17796.5,11890.8,4435.45,-35.1043,154.661,73.3672,2742.19,-10849.5,-629.312,-20.7053,-44.4612,85.5683,9099.04,2769.74,3642.12,4.54745,-2.63462,1.34997
3.381,25615.6,6356.34,-268.514,-47.777,133.198,183.295,3711.28,1569.16,9983.27,44.8197,-36.1971,29.2951,-21128.7,20536.6,-7163.9,98.6568,87.1018,222.166,798.336,-12250.6,-1074.18,-6.79424,-20.4363,104.161,18485.7,11525.9,4112.49,-26.3534,159.431,74.8424,2763.27,-10820.9,-756.896,-21.2078,-44.4398,85.1931,9109.08,2763.67,3752.24,2.42232,-2.71755,1.76989
3.3815,25271.4,6850.46,25.2004,-57.5958,129.568,177.335,3767.21,1179.35,9977.7,44.6349,-37.0295,28.2833,-21754.8,20457.9,-6872.75,99.7337,84.0991,219.83,854.889,-12319.1,-944.275,-6.13378,-19.5539,104.569,19174.9,11161.0,3789.53,-17.6025,164.201,76.3177,2784.36,-10792.2,-884.481,-21.7104,-44.4185,84.818,9119.11,2757.61,3862.37,0.29719,-2.80048,2.1898
3.382,24927.2,7344.58,318.915,-67.4146,125.938,171.376,3823.14,789.531,9972.13,44.4501,-37.8619,27.2715,-22380.9,20379.3,-6581.61,100.811,81.0964,217.494,911.441,-12387.6,-814.368,-5.47331,-18.6715,104.978,19864.1,10796.1,3466.57,-8.85165,168.972,77.793,2805.45,-10763.6,-1012.07,-22.213,-44.3971,84.4428,9129.15,2751.54,3972.5,-1.82794,-2.88341,2.60972
3.3825,24517.3,8260.12,427.035,-81.3373,121.203,165.141,3884.01,653.315,9987.61,44.0851,-38.7606,26.1636,-22996.6,20350.3,-6240.8,100.708,76.3705,215.622,945.641,-12409.9,-697.588,-5.07634,-17.8954,105.379,20590.1,10403.1,3282.78,0.0348069,171.579,77.9552,2829.96,-10743.6,-1148.39,-22.5363,-44.24,84.0395,9144.47,2726.46,4060.46,-3.76154,-2.95921,2.90146
3.383,24055.0,9512.79,386.679,-98.543,115.584,158.688,3948.85,719.977,10019.9,43.5759,-39.7122,24.9789,-23604.1,20361.1,-5860.26,99.6623,70.2662,214.12,961.96,-12395.0,-591.31,-4.89015,-17.2044,105.774,21345.7,9987.72,3210.34,9.02974,172.456,77.0669,2857.21,-10730.6,-1291.71,-22.7162,-43.9745,83.6135,9164.0,2686.18,4130.68,-5.54192,-3.02932,3.09064
3.3835,23592.7,10765.5,346.322,-115.749,109.966,152.234,4013.68,786.64,10052.3,43.0668,-40.6638,23.7941,-24211.5,20371.9,-5479.73,98.6164,64.1618,212.619,978.279,-12380.2,-485.032,-4.70396,-16.5133,106.168,22101.2,9572.29,3137.89,18.0247,173.334,76.1787,2884.46,-10717.5,-1435.02,-22.8961,-43.7089,83.1875,9183.53,2645.9,4200.91,-7.3223,-3.09943,3.27983
3.384,23130.3,12018.1,305.966,-132.954,104.347,145.781,4078.51,853.302,10084.6,42.5577,-41.6154,22.6094,-24819.0,20382.6,-5099.19,97.5706,58.0575,211.117,994.598,-12365.4,-378.754,-4.51778,-15.8223,106.563,22856.8,9156.86,3065.45,27.0196,174.211,75.2904,2911.71,-10704.4,-1578.34,-23.076,-43.4434,82.7615,9203.06,2605.61,4271.13,-9.10268,-3.16953,3.46902
3.3845,22668.0,13270.8,265.61,-150.16,98.7281,139.327,4143.34,919.965,10116.9,42.0485,-42.567,21.4247,-25426.4,20393.4,-4718.65,96.5248,51.9531,209.616,1010.92,-12350.5,-272.476,-4.33159,-15.1312,106.958,23612.3,8741.43,2993.0,36.0145,175.088,74.4022,2938.96,-10691.4,-1721.65,-23.256,-43.1779,82.3355,9222.59,2565.33,4341.36,-10.8831,-3.23964,3.6582
3.385,22205.7,14523.5,225.254,-167.366,93.1095,132.873,4208.18,986.627,10149.2,41.5394,-43.5186,20.2399,-26033.9,20404.2,-4338.12,95.479,45.8488,208.114,1027.24,-12335.7,-166.198,-4.1454,-14.4402,107.353,24367.9,8326.0,2920.56,45.0095,175.965,73.5139,2966.21,-10678.3,-1864.97,-23.4359,-42.9123,81.9095,9242.12,2525.04,4411.58,-12.6634,-3.30975,3.84739
3.3855,21743.4,15776.2,184.898,-184.572,87.4908,126.42,4273.01,1053.29,10181.6,41.0302,-44.4702,19.0552,-26641.3,20415.0,-3957.58,94.4332,39.7444,206.613,1043.56,-12320.9,-59.9206,-3.95921,-13.7491,107.748,25123.4,7910.57,2848.11,54.0044,176.843,72.6257,2993.45,-10665.2,-2008.28,-23.6158,-42.6468,81.4835,9261.65,2484.76,4481.81,-14.4438,-3.37985,4.03658
3.386,21281.0,17028.8,144.541,-201.777,81.8721,119.966,4337.84,1119.95,10213.9,40.5211,-45.4218,17.8704,-27248.8,20425.7,-3577.05,93.3873,33.6401,205.111,1059.87,-12306.0,46.3573,-3.77302,-13.0581,108.142,25879.0,7495.14,2775.66,62.9993,177.72,71.7374,3020.7,-10652.1,-2151.6,-23.7957,-42.3812,81.0575,9281.18,2444.48,4552.03,-16.2242,-3.44996,4.22576
3.3865,20818.7,18281.5,104.185,-218.983,76.2534,113.513,4402.67,1186.61,10246.2,40.012,-46.3734,16.6857,-27856.2,20436.5,-3196.51,92.3415,27.5357,203.61,1076.19,-12291.2,152.635,-3.58684,-12.367,108.537,26634.5,7079.71,2703.22,71.9942,178.597,70.8492,3047.95,-10639.1,-2294.91,-23.9757,-42.1157,80.6315,9300.71,2404.19,4622.26,-18.0046,-3.52007,4.41495
3.387,20909.4,19783.3,-637.837,-231.302,73.8057,109.465,4411.91,1340.56,10272.2,39.6087,-47.3257,16.1943,-28306.2,20352.4,-2640.29,90.139,20.1853,200.777,1060.64,-12261.3,226.189,-3.44427,-11.6381,109.06,27275.3,6908.38,2626.57,77.5914,176.96,68.8549,3081.01,-10627.6,-2398.55,-23.8467,-41.6398,80.3198,9315.95,2381.32,4654.53,-19.4604,-3.4865,4.43621
3.3875,21276.6,21409.6,-1730.69,-241.177,72.9434,106.62,4393.34,1538.14,10294.9,39.2585,-48.2783,16.0495,-28677.5,20220.8,-1996.22,87.358,12.2118,197.278,1029.14,-12223.8,283.382,-3.32352,-10.8901,109.648,27858.7,6859.09,2547.81,81.4896,174.065,66.3076,3116.96,-10616.9,-2482.34,-23.5633,-41.0588,80.0653,9329.04,2367.17,4667.83,-20.754,-3.40109,4.37351
3.388,21643.8,23035.9,-2823.55,-251.052,72.0812,103.775,4374.77,1735.72,10317.6,38.9082,-49.2309,15.9048,-29048.7,20089.2,-1352.15,84.5771,4.23835,193.779,997.64,-12186.3,340.574,-3.20276,-10.1422,110.235,28442.1,6809.8,2469.06,85.3879,171.169,63.7603,3152.91,-10606.3,-2566.14,-23.2799,-40.4777,79.8107,9342.13,2353.01,4681.13,-22.0476,-3.31568,4.31081
3.3885,22011.0,24662.2,-3916.4,-260.927,71.219,100.929,4356.21,1933.3,10340.3,38.5579,-50.1835,15.76,-29420.0,19957.6,-708.081,81.7962,-3.73512,190.28,966.142,-12148.9,397.767,-3.082,-9.39429,110.823,29025.4,6760.52,2390.3,89.2861,168.274,61.213,3188.86,-10595.6,-2649.94,-22.9965,-39.8967,79.5562,9355.22,2338.85,4694.43,-23.3412,-3.23028,4.24811
3.389,22378.3,26288.5,-5009.26,-270.802,70.3568,98.0843,4337.64,2130.88,10363.1,38.2077,-51.1361,15.6153,-29791.2,19826.0,-64.0131,79.0153,-11.7086,186.781,934.644,-12111.4,454.959,-2.96125,-8.64637,111.41,29608.8,6711.23,2311.55,93.1843,165.379,58.6657,3224.82,-10585.0,-2733.73,-22.7131,-39.3157,79.3017,9368.31,2324.69,4707.73,-24.6347,-3.14487,4.18541
3.3895,22745.5,27914.8,-6102.12,-280.677,69.4946,95.2392,4319.07,2328.46,10385.8,37.8574,-52.0886,15.4705,-30162.5,19694.4,580.055,76.2343,-19.6821,183.282,903.147,-12073.9,512.151,-2.84049,-7.89845,111.998,30192.2,6661.94,2232.79,97.0826,162.484,56.1184,3260.77,-10574.3,-2817.53,-22.4297,-38.7346,79.0472,9381.4,2310.53,4721.02,-25.9283,-3.05946,4.12271
3.39,23112.7,29541.1,-7194.97,-290.552,68.6324,92.3941,4300.51,2526.04,10408.5,37.5071,-53.0412,15.3258,-30533.7,19562.8,1224.12,73.4534,-27.6555,179.783,871.649,-12036.5,569.344,-2.71974,-7.15053,112.585,30775.6,6612.66,2154.03,100.981,159.589,53.5711,3296.72,-10563.6,-2901.32,-22.1464,-38.1536,78.7927,9394.49,2296.37,4734.32,-27.2219,-2.97405,4.06
3.3905,23479.9,31167.4,-8287.83,-300.427,67.7701,89.549,4281.94,2723.62,10431.3,37.1569,-53.9938,15.181,-30905.0,19431.2,1868.19,70.6725,-35.629,176.285,840.151,-11999.0,626.536,-2.59898,-6.4026,113.172,31359.0,6563.37,2075.28,104.879,156.694,51.0237,3332.67,-10553.0,-2985.12,-21.863,-37.5726,78.5381,9407.57,2282.21,4747.62,-28.5155,-2.88864,3.9973
3.391,23847.1,32793.7,-9380.68,-310.302,66.9079,86.7039,4263.37,2921.2,10454.0,36.8066,-54.9464,15.0363,-31276.3,19299.6,2512.26,67.8915,-43.6025,172.786,808.654,-11961.5,683.729,-2.47823,-5.65468,113.76,31942.4,6514.08,1996.52,108.777,153.799,48.4764,3368.63,-10542.3,-3068.92,-21.5796,-36.9915,78.2836,9420.66,2268.05,4760.92,-29.809,-2.80324,3.9346
3.3915,24720.8,33239.2,-9602.96,-313.74,65.1106,86.1161,4225.08,2911.86,10475.4,36.6518,-55.9693,14.9004,-31434.6,19194.8,2827.91,64.5674,-51.1195,167.721,777.466,-11978.0,737.693,-2.13216,-4.82502,114.296,32426.3,6823.7,1947.4,110.127,149.522,46.2911,3407.89,-10529.6,-3095.76,-21.0998,-36.2036,78.1097,9426.43,2266.35,4733.86,-30.9224,-2.64315,3.71614
3.392,25739.3,33347.4,-9576.51,-315.34,63.0461,86.1733,4181.16,2843.41,10496.4,36.553,-57.0123,14.7671,-31532.2,19097.7,3049.74,61.088,-58.5061,162.208,746.367,-12009.8,790.734,-1.72172,-3.97199,114.817,32881.8,7235.86,1906.74,110.748,144.851,44.2092,3448.1,-10516.2,-3106.33,-20.5638,-35.3564,77.9587,9430.1,2268.22,4695.28,-31.9842,-2.46174,3.45317
3.3925,26757.7,33455.5,-9550.05,-316.939,60.9817,86.2304,4137.24,2774.96,10517.4,36.4541,-58.0552,14.6339,-31629.7,19000.6,3271.56,57.6087,-65.8927,156.695,715.269,-12041.7,843.776,-1.31128,-3.11897,115.338,33337.3,7648.02,1866.09,111.369,140.18,42.1273,3488.31,-10502.9,-3116.9,-20.0279,-34.5094,77.8077,9433.77,2270.08,4656.7,-33.046,-2.28032,3.1902
3.393,27776.2,33563.6,-9523.59,-318.538,58.9172,86.2876,4093.31,2706.5,10538.5,36.3552,-59.0982,14.5006,-31727.3,18903.4,3493.38,54.1293,-73.2794,151.183,684.17,-12073.6,896.817,-0.900841,-2.26595,115.859,33792.9,8060.18,1825.43,111.991,135.509,40.0454,3528.52,-10489.6,-3127.47,-19.492,-33.6623,77.6568,9437.44,2271.94,4618.12,-34.1078,-2.0989,2.92724
3.3935,28794.7,33671.7,-9497.13,-320.138,56.8527,86.3447,4049.39,2638.05,10559.5,36.2563,-60.1411,14.3673,-31824.9,18806.3,3715.2,50.65,-80.666,145.67,653.071,-12105.4,949.859,-0.490401,-1.41293,116.38,34248.4,8472.33,1784.77,112.612,130.837,37.9635,3568.73,-10476.2,-3138.05,-18.9561,-32.8152,77.5058,9441.11,2273.81,4579.53,-35.1696,-1.91749,2.66427
3.394,29813.1,33779.9,-9470.68,-321.737,54.7882,86.4018,4005.47,2569.6,10580.5,36.1574,-61.1841,14.234,-31922.4,18709.2,3937.02,47.1706,-88.0526,140.157,621.972,-12137.3,1002.9,-0.0799606,-0.559904,116.901,34703.9,8884.49,1744.12,113.233,126.166,35.8816,3608.94,-10462.9,-3148.62,-18.4201,-31.9681,77.3549,9444.78,2275.67,4540.95,-36.2315,-1.73607,2.4013
3.3945,30831.6,33888.0,-9444.22,-323.337,52.7237,86.459,3961.54,2501.14,10601.5,36.0585,-62.227,14.1007,-32020.0,18612.1,4158.85,43.6912,-95.4392,134.645,590.873,-12169.2,1055.94,0.33048,0.293119,117.422,35159.4,9296.65,1703.46,113.855,121.495,33.7998,3649.15,-10449.6,-3159.19,-17.8842,-31.121,77.2039,9448.46,2277.54,4502.37,-37.2933,-1.55465,2.13833
3.395,31850.0,33996.1,-9417.76,-324.936,50.6592,86.5161,3917.62,2432.69,10622.5,35.9597,-63.27,13.9674,-32117.5,18514.9,4380.67,40.2119,-102.826,129.132,559.775,-12201.0,1108.98,0.74092,1.14614,117.943,35615.0,9708.81,1662.8,114.476,116.824,31.7179,3689.36,-10436.2,-3169.76,-17.3483,-30.2739,77.0529,9452.13,2279.4,4463.79,-38.3551,-1.37324,1.87537
3.3955,32868.5,34104.3,-9391.31,-326.535,48.5948,86.5733,3873.7,2364.24,10643.6,35.8608,-64.3129,13.8341,-32215.1,18417.8,4602.49,36.7325,-110.212,123.619,528.676,-12232.9,1162.03,1.15136,1.99916,118.464,36070.5,10121.0,1622.14,115.097,112.153,29.636,3729.57,-10422.9,-3180.33,-16.8124,-29.4268,76.902,9455.8,2281.26,4425.2,-39.4169,-1.19182,1.6124
3.396,33565.6,32845.4,-9281.57,-325.814,44.6153,82.5611,3867.07,2236.55,10657.0,35.5764,-65.453,12.9785,-32070.7,18331.0,4270.9,32.8738,-114.468,119.159,518.019,-12279.6,1196.36,1.74844,2.86348,118.897,36224.1,10596.6,1695.79,114.114,105.358,28.7111,3781.02,-10407.3,-3180.5,-16.384,-28.3939,76.878,9452.3,2283.25,4376.6,-40.1802,-1.03052,1.30189
3.3965,34222.6,31415.7,-9161.42,-324.803,40.3965,78.0402,3865.1,2101.45,10669.5,35.2689,-66.6052,12.0325,-31896.2,18245.6,3870.13,28.9676,-118.332,114.831,509.917,-12328.2,1228.36,2.36885,3.7292,119.319,36340.0,11080.2,1783.73,112.931,98.2976,27.9308,3833.87,-10391.4,-3179.37,-15.969,-27.3377,76.8698,9447.91,2285.25,4326.73,-40.9062,-0.871727,0.985439
3.397,34879.5,29986.0,-9041.27,-323.791,36.1776,73.5194,3863.14,1966.36,10682.0,34.9614,-67.7574,11.0866,-31721.6,18160.1,3469.36,25.0614,-122.196,110.502,501.814,-12376.7,1260.36,2.98925,4.59492,119.741,36455.9,11563.7,1871.67,111.748,91.2374,27.1506,3886.71,-10375.5,-3178.24,-15.554,-26.2816,76.8617,9443.51,2287.25,4276.87,-41.6322,-0.712937,0.668988
3.3975,35536.4,28556.4,-8921.12,-322.78,31.9588,68.9986,3861.17,1831.26,10694.5,34.6538,-68.9097,10.1407,-31547.0,18074.6,3068.6,21.1552,-126.061,106.174,493.712,-12425.3,1292.37,3.60966,5.46064,120.163,36571.7,12047.3,1959.61,110.564,84.1772,26.3704,3939.56,-10359.6,-3177.11,-15.139,-25.2255,76.8536,9439.12,2289.25,4227.01,-42.3582,-0.554148,0.352537
3.398,36193.4,27126.7,-8800.97,-321.769,27.7399,64.4777,3859.21,1696.16,10707.0,34.3463,-70.0619,9.19478,-31372.4,17989.2,2667.83,17.249,-129.925,101.846,485.61,-12473.8,1324.37,4.23007,6.32637,120.585,36687.6,12530.9,2047.55,109.381,77.117,25.5901,3992.41,-10343.7,-3175.98,-14.724,-24.1693,76.8454,9434.72,2291.25,4177.15,-43.0843,-0.395358,0.036086
3.3985,36850.3,25697.0,-8680.82,-320.757,23.5211,59.9569,3857.24,1561.07,10719.5,34.0388,-71.2141,8.24886,-31197.8,17903.7,2267.06,13.3428,-133.789,97.5173,477.508,-12522.4,1356.37,4.85048,7.19209,121.007,36803.5,13014.4,2135.48,108.198,70.0567,24.8099,4045.26,-10327.8,-3174.84,-14.3091,-23.1132,76.8373,9430.33,2293.25,4127.29,-43.8103,-0.236569,-0.280365
3.399,37507.2,24267.3,-8560.67,-319.746,19.3023,55.436,3855.27,1425.97,10732.0,33.7312,-72.3663,7.30295,-31023.2,17818.2,1866.29,9.43663,-137.653,93.189,469.406,-12570.9,1388.37,5.47089,8.05781,121.429,36919.4,13498.0,2223.42,107.014,62.9965,24.0296,4098.1,-10311.9,-3173.71,-13.8941,-22.0571,76.8292,9425.93,2295.25,4077.42,-44.5363,-0.0777792,-0.596816
3.3995,38164.2,22837.6,-8440.52,-318.735,15.0834,50.9152,3853.31,1290.88,10744.5,33.4237,-73.5185,6.35703,-30848.7,17732.7,1465.52,5.53044,-141.518,88.8606,461.304,-12619.4,1420.37,6.09129,8.92353,121.85,37035.2,13981.5,2311.36,105.831,55.9363,23.2494,4150.95,-10296.0,-3172.58,-13.4791,-21.0009,76.821,9421.54,2297.26,4027.56,-45.2623,0.0810103,-0.913267
3.4,38821.1,21407.9,-8320.37,-317.723,10.8646,46.3943,3851.34,1155.78,10757.0,33.1162,-74.6708,5.41111,-30674.1,17647.3,1064.76,1.62425,-145.382,84.5322,453.202,-12668.0,1452.37,6.7117,9.78926,122.272,37151.1,14465.1,2399.3,104.648,48.8761,22.4691,4203.8,-10280.1,-3171.45,-13.0641,-19.9448,76.8129,9417.14,2299.26,3977.7,-45.9883,0.2398,-1.22972
3.4005,38790.9,20531.2,-8357.2,-312.05,6.95592,38.6551,3861.02,1204.95,10739.4,32.5638,-75.8286,4.43216,-30415.5,17270.6,1086.34,-0.731017,-147.662,79.9044,468.08,-12698.0,1414.96,7.22362,10.2984,122.594,36903.2,14798.7,2736.31,101.244,38.1934,23.3786,4249.69,-10290.3,-3166.64,-12.7891,-18.678,76.7458,9411.97,2314.59,3944.35,-46.2844,0.41468,-1.57982
3.401,38760.7,19654.4,-8394.03,-306.376,3.04726,30.9159,3870.69,1254.11,10721.9,32.0115,-76.9865,3.4532,-30156.9,16893.9,1107.93,-3.08628,-149.942,75.2766,482.957,-12728.0,1377.56,7.73553,10.8075,122.915,36655.3,15132.3,3073.32,97.8393,27.5107,24.2881,4295.58,-10300.5,-3161.83,-12.5141,-17.4112,76.6787,9406.8,2329.92,3911.01,-46.5806,0.589559,-1.92992
3.4015,38730.6,18777.7,-8430.85,-300.702,-0.861392,23.1767,3880.36,1303.27,10704.4,31.4591,-78.1443,2.47425,-29898.3,16517.2,1129.51,-5.44155,-152.223,70.6488,497.835,-12758.0,1340.15,8.24744,11.3166,123.236,36407.3,15466.0,3410.33,94.4351,16.828,25.1975,4341.47,-10310.6,-3157.02,-12.2391,-16.1444,76.6116,9401.63,2345.26,3877.66,-46.8768,0.764439,-2.28002
3.402,38700.4,17900.9,-8467.68,-295.029,-4.77005,15.4375,3890.03,1352.44,10686.8,30.9068,-79.3022,1.4953,-29639.7,16140.5,1151.1,-7.79681,-154.503,66.0211,512.713,-12788.0,1302.75,8.75936,11.8257,123.557,36159.4,15799.6,3747.34,91.0308,6.14526,26.107,4387.36,-10320.8,-3152.2,-11.9641,-14.8776,76.5445,9396.46,2360.59,3844.31,-47.173,0.939319,-2.63012
3.4025,38670.2,17024.2,-8504.51,-289.355,-8.6787,7.69824,3899.71,1401.6,10669.3,30.3544,-80.46,0.516342,-29381.1,15763.8,1172.69,-10.1521,-156.783,61.3933,527.591,-12818.0,1265.34,9.27127,12.3348,123.878,35911.5,16133.2,4084.35,87.6266,-4.53744,27.0165,4433.26,-10331.0,-3147.39,-11.6891,-13.6108,76.4774,9391.29,2375.92,3810.97,-47.4692,1.1142,-2.98022
3.403,38640.0,16147.4,-8541.34,-283.681,-12.5874,-0.040976,3909.38,1450.77,10651.7,29.8021,-81.6179,-0.462611,-29122.6,15387.1,1194.27,-12.5073,-159.064,56.7655,542.468,-12848.0,1227.94,9.78319,12.8439,124.2,35663.6,16466.8,4421.36,84.2223,-15.2201,27.9259,4479.15,-10341.2,-3142.58,-11.4141,-12.344,76.4103,9386.11,2391.26,3777.62,-47.7653,1.28908,-3.33032
3.4035,38609.8,15270.7,-8578.17,-278.007,-16.496,-7.78019,3919.05,1499.93,10634.2,29.2498,-82.7757,-1.44156,-28864.0,15010.4,1215.86,-14.8626,-161.344,52.1377,557.346,-12878.0,1190.53,10.2951,13.353,124.521,35415.6,16800.5,4758.38,80.818,-25.9029,28.8354,4525.04,-10351.4,-3137.77,-11.1391,-11.0772,76.3433,9380.94,2406.59,3744.27,-48.0615,1.46396,-3.68042
3.404,38579.6,14393.9,-8614.99,-272.334,-20.4047,-15.5194,3928.72,1549.1,10616.6,28.6974,-83.9335,-2.42052,-28605.4,14633.7,1237.44,-17.2179,-163.624,47.5099,572.224,-12908.0,1153.13,10.807,13.8621,124.842,35167.7,17134.1,5095.39,77.4138,-36.5856,29.7449,4570.93,-10361.5,-3132.96,-10.8641,-9.81038,76.2762,9375.77,2421.92,3710.93,-48.3577,1.63884,-4.03052
3.4045,38498.4,13618.1,-8664.76,-266.404,-24.1043,-23.092,3935.17,1614.36,10600.8,28.144,-85.0853,-3.32337,-28331.5,14272.0,1281.36,-19.49,-165.873,42.8512,587.213,-12933.4,1105.23,11.2975,14.3373,125.181,34874.4,17449.7,5420.11,73.9832,-47.3189,30.8362,4615.47,-10370.2,-3123.48,-10.6058,-8.55132,76.2002,9371.49,2439.83,3674.92,-48.6091,1.81435,-4.3775
3.405,38009.1,13649.7,-8818.06,-258.432,-26.1321,-29.3318,3915.81,1808.44,10598.6,27.5815,-86.1878,-3.61744,-27935.0,14030.4,1503.89,-21.0968,-167.873,37.9457,603.089,-12922.0,973.378,11.6162,14.5417,125.663,34218.5,17621.0,5646.57,70.3421,-58.457,33.3831,4649.19,-10366.8,-3076.67,-10.4812,-7.3542,76.0532,9374.34,2478.34,3617.64,-48.5026,1.99488,-4.69953
3.4055,37519.8,13681.3,-8971.35,-250.459,-28.1599,-35.5715,3896.46,2002.52,10596.3,27.0191,-87.2904,-3.91151,-27538.5,13788.8,1726.43,-22.7036,-169.872,33.0402,618.966,-12910.6,841.525,11.935,14.7462,126.145,33562.5,17792.3,5873.02,66.7009,-69.5951,35.93,4682.91,-10363.3,-3029.86,-10.3566,-6.15708,75.9062,9377.19,2516.86,3560.37,-48.396,2.17541,-5.02155
3.406,37030.5,13713.0,-9124.65,-242.486,-30.1877,-41.8112,3877.1,2196.61,10594.1,26.4567,-88.3929,-4.20557,-27142.0,13547.3,1948.97,-24.3104,-171.871,28.1347,634.843,-12899.2,709.672,12.2538,14.9506,126.627,32906.6,17963.5,6099.48,63.0598,-80.7332,38.4769,4716.64,-10359.9,-2983.06,-10.232,-4.95996,75.7592,9380.05,2555.37,3503.09,-48.2895,2.35595,-5.34357
3.4065,36541.2,13744.6,-9277.94,-234.513,-32.2154,-48.051,3857.75,2390.69,10591.9,25.8943,-89.4955,-4.49964,-26745.5,13305.7,2171.5,-25.9172,-173.87,23.2292,650.72,-12887.7,577.819,12.5726,15.155,127.108,32250.6,18134.8,6325.93,59.4187,-91.8714,41.0238,4750.36,-10356.4,-2936.25,-10.1074,-3.76283,75.6122,9382.9,2593.88,3445.82,-48.1829,2.53648,-5.66559
3.407,36051.9,13776.2,-9431.23,-226.54,-34.2432,-54.2907,3838.39,2584.77,10589.7,25.3319,-90.5981,-4.79371,-26349.0,13064.1,2394.04,-27.524,-175.869,18.3237,666.596,-12876.3,445.967,12.8913,15.3595,127.59,31594.6,18306.1,6552.38,55.7775,-103.009,43.5706,4784.08,-10353.0,-2889.44,-9.98283,-2.56571,75.4652,9385.75,2632.4,3388.54,-48.0764,2.71701,-5.98761
3.4075,35562.6,13807.8,-9584.53,-218.567,-36.271,-60.5304,3819.04,2778.85,10587.5,24.7695,-91.7006,-5.08777,-25952.5,12822.5,2616.58,-29.1308,-177.868,13.4182,682.473,-12864.9,314.114,13.2101,15.5639,128.072,30938.7,18477.4,6778.84,52.1364,-114.148,46.1175,4817.8,-10349.5,-2842.63,-9.85825,-1.36859,75.3182,9388.6,2670.91,3331.27,-47.9699,2.89755,-6.30964
3.408,35073.2,13839.4,-9737.82,-210.594,-38.2987,-66.7702,3799.68,2972.93,10585.3,24.2071,-92.8032,-5.38184,-25556.0,12581.0,2839.12,-30.7376,-179.867,8.51266,698.35,-12853.5,182.261,13.5289,15.7683,128.554,30282.7,18648.7,7005.29,48.4953,-125.286,48.6644,4851.53,-10346.1,-2795.82,-9.73366,-0.171469,75.1711,9391.45,2709.42,3273.99,-47.8633,3.07808,-6.63166
3.4085,34583.9,13871.0,-9891.12,-202.621,-40.3265,-73.0099,3780.33,3167.01,10583.1,23.6447,-93.9058,-5.67591,-25159.6,12339.4,3061.65,-32.3444,-181.866,3.60715,714.227,-12842.1,50.4082,13.8476,15.9727,129.036,29626.8,18820.0,7231.75,44.8541,-136.424,51.2113,4885.25,-10342.6,-2749.02,-9.60908,1.02565,75.0241,9394.3,2747.93,3216.72,-47.7568,3.25862,-6.95368
3.409,34100.3,13890.1,-10005.3,-194.575,-41.9734,-78.636,3757.67,3344.23,10584.9,23.1674,-94.9974,-5.89083,-24716.8,12162.7,3230.92,-34.0543,-183.48,-1.15901,734.181,-12826.3,-86.4824,14.1418,16.2084,129.578,28920.1,18955.4,7379.81,41.3911,-146.566,53.6645,4909.77,-10341.8,-2700.62,-9.49945,2.1497,74.8823,9397.12,2793.78,3151.08,-47.5759,3.45105,-7.22437
3.4095,33636.8,13865.2,-9982.82,-186.274,-42.2871,-82.1147,3723.44,3462.44,10601.2,22.988,-96.0511,-5.82874,-24112.3,12213.2,3213.74,-36.1252,-183.747,-5.43744,768.408,-12795.1,-241.005,14.3497,16.5533,130.333,28035.9,18965.0,7253.5,38.5517,-153.224,55.7898,4902.09,-10350.0,-2646.67,-9.44217,3.01797,74.7586,9399.82,2865.29,3056.17,-47.1349,3.68511,-7.31539
3.41,33173.3,13840.3,-9960.3,-177.972,-42.6009,-85.5934,3689.21,3580.65,10617.5,22.8087,-97.1047,-5.76665,-23507.8,12263.6,3196.55,-38.1962,-184.013,-9.71587,802.635,-12763.9,-395.528,14.5576,16.8982,131.087,27151.7,18974.6,7127.18,35.7122,-159.881,57.9152,4894.41,-10358.3,-2592.72,-9.38488,3.88624,74.6349,9402.52,2936.81,2961.25,-46.6939,3.91918,-7.40641
3.4105,32709.8,13815.4,-9937.78,-169.67,-42.9147,-89.0721,3654.98,3698.86,10633.7,22.6293,-98.1583,-5.70456,-22903.2,12314.1,3179.37,-40.2671,-184.279,-13.9943,836.862,-12732.8,-550.051,14.7656,17.2431,131.842,26267.4,18984.2,7000.87,32.8728,-166.538,60.0406,4886.73,-10366.5,-2538.77,-9.32759,4.75451,74.5112,9405.21,3008.32,2866.34,-46.2529,4.15325,-7.49743
3.411,32246.3,13790.5,-9915.26,-161.368,-43.2284,-92.5508,3620.75,3817.08,10650.0,22.4499,-99.2119,-5.64247,-22298.7,12364.5,3162.19,-42.338,-184.545,-18.2727,871.089,-12701.6,-704.574,14.9735,17.588,132.596,25383.2,18993.8,6874.56,30.0333,-173.195,62.166,4879.04,-10374.8,-2484.82,-9.27031,5.62279,74.3875,9407.91,3079.84,2771.43,-45.8119,4.38732,-7.58845
3.4115,31782.7,13765.7,-9892.75,-153.067,-43.5422,-96.0295,3586.52,3935.29,10666.2,22.2706,-100.265,-5.58038,-21694.1,12415.0,3145.0,-44.409,-184.812,-22.5511,905.316,-12670.4,-859.096,15.1814,17.9329,133.351,24499.0,19003.4,6748.25,27.1938,-179.853,64.2913,4871.36,-10383.0,-2430.87,-9.21302,6.49106,74.2638,9410.61,3151.35,2676.52,-45.3709,4.62139,-7.67947
3.412,31319.2,13740.8,-9870.23,-144.765,-43.8559,-99.5082,3552.29,4053.5,10682.5,22.0912,-101.319,-5.51829,-21089.6,12465.4,3127.82,-46.4799,-185.078,-26.8296,939.543,-12639.3,-1013.62,15.3894,18.2779,134.106,23614.8,19013.0,6621.94,24.3544,-186.51,66.4167,4863.68,-10391.3,-2376.92,-9.15574,7.35933,74.1402,9413.31,3222.86,2581.61,-44.9298,4.85546,-7.77049
3.4125,30855.7,13715.9,-9847.71,-136.463,-44.1697,-102.987,3518.06,4171.71,10698.7,21.9118,-102.373,-5.4562,-20485.1,12515.9,3110.64,-48.5508,-185.344,-31.108,973.77,-12608.1,-1168.14,15.5973,18.6228,134.86,22730.6,19022.6,6495.63,21.5149,-193.167,68.5421,4856.0,-10399.5,-2322.96,-9.09845,8.2276,74.0165,9416.01,3294.38,2486.69,-44.4888,5.08953,-7.86151
3.413,30392.2,13691.0,-9825.19,-128.162,-44.4835,-106.466,3483.83,4289.92,10715.0,21.7325,-103.426,-5.39411,-19880.5,12566.4,3093.46,-50.6218,-185.61,-35.3864,1008.0,-12576.9,-1322.66,15.8052,18.9677,135.615,21846.4,19032.2,6369.31,18.6754,-199.824,70.6675,4848.32,-10407.8,-2269.01,-9.04117,9.09588,73.8928,9418.71,3365.89,2391.78,-44.0478,5.3236,-7.95253
3.4135,29980.2,13508.1,-9747.42,-120.172,-44.4067,-109.727,3453.85,4359.87,10731.1,21.5505,-104.462,-5.33318,-19283.2,12650.7,3029.9,-52.4019,-185.244,-39.4436,1047.92,-12557.9,-1458.18,16.0078,19.3554,136.359,20951.8,18992.0,6175.22,16.7663,-204.415,72.5226,4833.38,-10419.1,-2217.76,-9.0205,9.83669,73.7399,9424.71,3428.33,2293.05,-43.646,5.60226,-7.99354
3.414,29671.2,13009.0,-9559.17,-112.808,-43.5488,-112.554,3432.39,4333.29,10746.9,21.3635,-105.46,-5.27455,-18700.4,12802.8,2873.59,-53.6006,-183.613,-43.0582,1099.24,-12563.0,-1555.68,16.1996,19.8289,137.082,20036.6,18852.2,5845.57,16.7178,-204.873,73.8372,4803.94,-10436.4,-2171.9,-9.07309,10.3226,73.5285,9437.32,3472.63,2186.67,-43.3226,5.97012,-7.93451
3.4145,29362.3,12510.0,-9370.91,-105.444,-42.6909,-115.38,3410.93,4306.71,10762.7,21.1765,-106.458,-5.21592,-18117.5,12954.8,2717.28,-54.7993,-181.981,-46.6728,1150.56,-12568.1,-1653.17,16.3915,20.3024,137.806,19121.4,18712.4,5515.92,16.6693,-205.331,75.1518,4774.49,-10453.8,-2126.05,-9.12568,10.8085,73.3172,9449.92,3516.92,2080.28,-42.9992,6.33798,-7.87548
3.415,29053.4,12011.0,-9182.66,-98.0793,-41.833,-118.207,3389.47,4280.13,10778.5,20.9894,-107.457,-5.15729,-17534.7,13106.9,2560.97,-55.9979,-180.35,-50.2874,1201.88,-12573.3,-1750.67,16.5833,20.7759,138.529,18206.2,18572.6,5186.27,16.6208,-205.789,76.4665,4745.05,-10471.1,-2080.19,-9.17827,11.2943,73.1059,9462.53,3561.22,1973.9,-42.6757,6.70584,-7.81645
3.4155,28744.5,11512.0,-8994.4,-90.7149,-40.9752,-121.033,3368.0,4253.55,10794.3,20.8024,-108.455,-5.09866,-16951.8,13259.0,2404.67,-57.1966,-178.718,-53.902,1253.2,-12578.4,-1848.17,16.7751,21.2494,139.253,17291.0,18432.8,4856.61,16.5723,-206.247,77.7811,4715.6,-10488.5,-2034.33,-9.23085,11.7802,72.8946,9475.14,3605.51,1867.52,-42.3523,7.0737,-7.75743
3.416,28435.6,11012.9,-8806.14,-83.3505,-40.1173,-123.86,3346.54,4226.97,10810.1,20.6154,-109.453,-5.04003,-16368.9,13411.1,2248.36,-58.3953,-177.087,-57.5166,1304.52,-12583.6,-1945.67,16.967,21.7228,139.976,16375.8,18293.0,4526.96,16.5238,-206.705,79.0957,4686.16,-10505.9,-1988.48,-9.28344,12.2661,72.6833,9487.75,3649.81,1761.14,-42.0289,7.44156,-7.6984
3.4165,28126.7,10513.9,-8617.89,-75.9862,-39.2594,-126.687,3325.08,4200.39,10825.9,20.4283,-110.452,-4.9814,-15786.1,13563.1,2092.05,-59.5939,-175.456,-61.1313,1355.84,-12588.7,-2043.16,17.1588,22.1963,140.7,15460.5,18153.2,4197.31,16.4753,-207.163,80.4104,4656.71,-10523.2,-1942.62,-9.33603,12.752,72.4719,9500.36,3694.11,1654.76,-41.7055,7.80942,-7.63937
3.417,27817.7,10014.9,-8429.63,-68.6218,-38.4015,-129.513,3303.62,4173.81,10841.7,20.2413,-111.45,-4.92277,-15203.2,13715.2,1935.74,-60.7926,-173.824,-64.7459,1407.16,-12593.8,-2140.66,17.3506,22.6698,141.423,14545.3,18013.4,3867.66,16.4268,-207.621,81.725,4627.27,-10540.6,-1896.76,-9.38862,13.2379,72.2606,9512.96,3738.4,1548.38,-41.382,8.17728,-7.58035
3.4175,27508.8,9515.84,-8241.38,-61.2574,-37.5436,-132.34,3282.15,4147.23,10857.5,20.0543,-112.449,-4.86414,-14620.4,13867.3,1779.44,-61.9912,-172.193,-68.3605,1458.49,-12599.0,-2238.16,17.5425,23.1433,142.147,13630.1,17873.6,3538.0,16.3783,-208.079,83.0396,4597.82,-10558.0,-1850.91,-9.4412,13.7238,72.0493,9525.57,3782.7,1442.0,-41.0586,8.54514,-7.52132
3.418,27233.9,8961.76,-8007.17,-54.5108,-36.3192,-135.186,3256.82,4148.51,10861.4,19.777,-113.508,-4.83777,-14128.4,13981.6,1610.3,-63.0816,-170.135,-71.806,1510.98,-12615.3,-2337.72,17.6909,23.5403,142.814,12774.8,17705.2,3245.44,17.2597,-207.301,84.2784,4555.44,-10583.8,-1805.66,-9.51683,14.0435,71.8505,9539.56,3808.02,1336.64,-40.8315,8.92386,-7.43869
