Time,RFoot_accel.x,RFoot_accel.y,RFoot_accel.z,RFoot_gyro.x,RFoot_gyro.y,RFoot_gyro.z,LFoot_accel.x,LFoot_accel.y,LFoot_accel.z,LFoot_gyro.x,LFoot_gyro.y,LFoot_gyro.z,RShank_accel.x,RShank_accel.y,RShank_accel.z,RShank_gyro.x,RShank_gyro.y,RShank_gyro.z,LShank_accel.x,LShank_accel.y,LShank_accel.z,LShank_gyro.x,LShank_gyro.y,LShank_gyro.z,RThigh_accel.x,RThigh_accel.y,RThigh_accel.z,RThigh_gyro.x,RThigh_gyro.y,RThigh_gyro.z,LThigh_accel.x,LThigh_accel.y,LThigh_accel.z,LThigh_gyro.x,LThigh_gyro.y,LThigh_gyro.z,Pelvis_accel.x,Pelvis_accel.y,Pelvis_accel.z,Pelvis_gyro.x,Pelvis_gyro.y,Pelvis_gyro.z
3.94,5016.82,-1741.65,8059.47,25.3786,-44.6105,-40.9682,11643.2,5131.71,16018.6,59.4285,358.701,-196.047,1592.05,9129.5,-1025.27,-26.4687,-26.6108,-54.8062,2376.34,-16240.4,2715.13,-34.9361,6.12835,-429.711,4033.67,9943.88,-61.9438,8.45955,-32.5056,-112.638,-11623.4,-2245.81,-1994.31,41.661,-77.1099,-97.1804,6809.56,1022.67,2534.76,-48.7333,-1.47688,-4.86294
3.9405,5021.62,-1741.39,8079.71,25.5521,-44.5653,-40.9189,11764.4,5070.05,16007.4,57.3384,358.162,-196.94,1599.56,9145.56,-1035.8,-26.5844,-25.8373,-55.3297,2342.67,-16302.4,2778.63,-34.7364,7.55236,-429.725,4044.16,9999.94,-71.8319,8.55197,-32.2302,-111.803,-11693.9,-2218.08,-2026.52,42.1514,-78.8403,-97.4336,6836.58,1003.32,2538.05,-48.3746,-1.61772,-5.02366
3.941,5026.42,-1741.12,8099.96,25.7257,-44.5201,-40.8695,11885.6,5008.38,15996.1,55.2484,357.622,-197.832,1607.08,9161.63,-1046.33,-26.7001,-25.0638,-55.8532,2308.99,-16364.4,2842.13,-34.5368,8.97638,-429.739,4054.64,10056.0,-81.7201,8.64439,-31.9548,-110.968,-11764.3,-2190.35,-2058.73,42.6417,-80.5708,-97.6868,6863.6,983.96,2541.34,-48.016,-1.75856,-5.18439
3.9415,5031.21,-1740.86,8120.2,25.8992,-44.4749,-40.8202,12006.8,4946.71,15984.9,53.1584,357.083,-198.725,1614.59,9177.69,-1056.86,-26.8159,-24.2902,-56.3766,2275.31,-16426.4,2905.63,-34.3371,10.4004,-429.753,4065.12,10112.1,-91.6083,8.73681,-31.6794,-110.133,-11834.8,-2162.63,-2090.94,43.1321,-82.3012,-97.94,6890.61,964.603,2544.63,-47.6573,-1.8994,-5.34511
3.942,5036.01,-1740.59,8140.45,26.0727,-44.4296,-40.7708,12128.0,4885.04,15973.6,51.0684,356.543,-199.617,1622.11,9193.76,-1067.39,-26.9316,-23.5167,-56.9001,2241.64,-16488.4,2969.14,-34.1374,11.8244,-429.767,4075.61,10168.1,-101.497,8.82923,-31.404,-109.298,-11905.2,-2134.9,-2123.15,43.6225,-84.0317,-98.1933,6917.63,945.246,2547.92,-47.2987,-2.04024,-5.50583
3.9425,5031.89,-1751.46,8154.26,26.292,-44.4048,-40.6894,12229.6,4868.16,15970.1,48.9393,355.891,-200.486,1633.09,9225.44,-1086.09,-27.084,-22.8426,-57.3789,2214.04,-16554.2,3035.39,-33.8765,13.4173,-429.678,4067.81,10226.4,-114.828,8.9906,-31.1022,-108.403,-11939.5,-2097.64,-2163.07,43.8927,-85.0195,-98.5691,6957.23,918.591,2546.33,-46.962,-2.06922,-5.67947
3.943,5020.64,-1771.24,8162.92,26.548,-44.3963,-40.5822,12315.5,4887.09,15972.6,46.7788,355.148,-201.337,1646.84,9269.62,-1111.31,-27.2658,-22.2481,-57.8219,2191.32,-16623.0,3103.86,-33.5665,15.1453,-429.507,4045.4,10286.5,-130.915,9.20711,-30.7793,-107.46,-11944.7,-2052.73,-2209.17,43.9867,-85.4133,-99.043,7006.89,886.097,2540.82,-46.6427,-2.00872,-5.86346
3.9435,5009.4,-1791.02,8171.57,26.8039,-44.3879,-40.4751,12401.4,4906.03,15975.2,44.6184,354.404,-202.187,1660.59,9313.8,-1136.54,-27.4476,-21.6536,-58.2648,2168.6,-16691.8,3172.32,-33.2565,16.8734,-429.336,4022.98,10346.6,-147.001,9.42363,-30.4564,-106.516,-11950.0,-2007.83,-2255.27,44.0808,-85.8071,-99.517,7056.55,853.604,2535.32,-46.3235,-1.94821,-6.04745
3.944,4998.15,-1810.79,8180.23,27.0598,-44.3794,-40.368,12487.2,4924.97,15977.8,42.4579,353.661,-203.037,1674.34,9357.98,-1161.77,-27.6294,-21.0591,-58.7078,2145.88,-16760.6,3240.79,-32.9464,18.6014,-429.165,4000.56,10406.6,-163.088,9.64015,-30.1334,-105.573,-11955.3,-1962.93,-2301.37,44.1748,-86.2008,-99.9909,7106.21,821.11,2529.82,-46.0043,-1.88771,-6.23144
3.9445,4986.9,-1830.57,8188.88,27.3158,-44.3709,-40.2609,12573.1,4943.9,15980.4,40.2975,352.918,-203.888,1688.09,9402.16,-1187.0,-27.8111,-20.4646,-59.1508,2123.16,-16829.4,3309.25,-32.6364,20.3294,-428.994,3978.15,10466.7,-179.174,9.85667,-29.8105,-104.629,-11960.6,-1918.02,-2347.47,44.2689,-86.5946,-100.465,7155.88,788.617,2524.32,-45.6851,-1.82721,-6.41543
3.945,4975.66,-1850.35,8197.54,27.5717,-44.3624,-40.1537,12659.0,4962.84,15982.9,38.137,352.175,-204.738,1701.84,9446.34,-1212.22,-27.9929,-19.87,-59.5938,2100.43,-16898.2,3377.71,-32.3264,22.0574,-428.823,3955.73,10526.8,-195.261,10.0732,-29.4876,-103.686,-11965.9,-1873.12,-2393.57,44.3629,-86.9884,-100.939,7205.54,756.123,2518.82,-45.3658,-1.7667,-6.59941
3.9455,4964.41,-1870.12,8206.2,27.8276,-44.354,-40.0466,12744.9,4981.78,15985.5,35.9766,351.432,-205.589,1715.59,9490.52,-1237.45,-28.1747,-19.2755,-60.0367,2077.71,-16967.0,3446.18,-32.0164,23.7854,-428.652,3933.31,10586.9,-211.347,10.2897,-29.1647,-102.743,-11971.1,-1828.22,-2439.67,44.457,-87.3821,-101.413,7255.2,723.629,2513.31,-45.0466,-1.7062,-6.7834
3.946,4953.16,-1889.9,8214.85,28.0835,-44.3455,-39.9395,12830.8,5000.71,15988.1,33.8161,350.689,-206.439,1729.34,9534.7,-1262.68,-28.3565,-18.681,-60.4797,2054.99,-17035.8,3514.64,-31.7064,25.5135,-428.482,3910.9,10646.9,-227.433,10.5062,-28.8417,-101.799,-11976.4,-1783.32,-2485.77,44.551,-87.7759,-101.887,7304.86,691.136,2507.81,-44.7274,-1.6457,-6.96739
3.9465,4941.92,-1909.67,8223.51,28.3395,-44.337,-39.8323,12916.6,5019.65,15990.7,31.6557,349.946,-207.29,1743.09,9578.88,-1287.91,-28.5383,-18.0865,-60.9227,2032.27,-17104.6,3583.1,-31.3964,27.2415,-428.311,3888.48,10707.0,-243.52,10.7227,-28.5188,-100.856,-11981.7,-1738.41,-2531.87,44.6451,-88.1696,-102.36,7354.52,658.642,2502.31,-44.4082,-1.58519,-7.15138
3.947,4929.81,-1930.13,8227.68,28.5364,-44.3443,-39.762,12971.4,5081.92,15992.2,29.5071,349.09,-208.162,1741.43,9609.55,-1312.43,-28.6749,-17.5058,-61.3826,2019.53,-17170.7,3628.01,-31.2353,29.2685,-428.067,3868.58,10736.4,-259.743,10.6929,-28.2211,-99.9805,-11940.8,-1689.37,-2573.02,44.3656,-87.4766,-102.778,7378.65,643.845,2500.59,-44.1007,-1.60194,-7.35996
3.9475,4917.27,-1950.94,8229.6,28.7039,-44.3594,-39.7101,13010.7,5165.85,15993.2,27.3644,348.177,-209.046,1732.06,9633.46,-1336.6,-28.7889,-16.9321,-61.8509,2011.77,-17235.5,3661.14,-31.1488,31.445,-427.788,3849.93,10750.5,-276.034,10.54,-27.936,-99.1394,-11876.7,-1638.25,-2611.69,43.8993,-86.2401,-103.168,7390.0,637.895,2500.75,-43.7992,-1.65731,-7.58084
3.948,4904.73,-1971.74,8231.53,28.8714,-44.3745,-39.6582,13049.9,5249.78,15994.2,25.2218,347.264,-209.929,1722.69,9657.37,-1360.78,-28.903,-16.3584,-62.3192,2004.02,-17300.2,3694.27,-31.0622,33.6214,-427.509,3831.28,10764.7,-292.325,10.387,-27.6508,-98.2984,-11812.7,-1587.13,-2650.36,43.4331,-85.0037,-103.557,7401.36,631.946,2500.92,-43.4976,-1.71268,-7.80172
3.9485,4892.19,-1992.54,8233.46,29.0388,-44.3896,-39.6064,13089.2,5333.71,15995.2,23.0791,346.352,-210.813,1713.33,9681.28,-1384.95,-29.017,-15.7848,-62.7875,1996.27,-17365.0,3727.4,-30.9756,35.7979,-427.229,3812.64,10778.8,-308.616,10.2341,-27.3657,-97.4573,-11748.7,-1536.01,-2689.03,42.9668,-83.7672,-103.947,7412.71,625.996,2501.09,-43.196,-1.76804,-8.0226
3.949,4879.65,-2013.34,8235.38,29.2063,-44.4047,-39.5545,13128.4,5417.64,15996.1,20.9365,345.439,-211.696,1703.96,9705.19,-1409.12,-29.131,-15.2111,-63.2558,1988.52,-17429.8,3760.54,-30.8891,37.9744,-426.95,3793.99,10792.9,-324.907,10.0811,-27.0806,-96.6162,-11684.6,-1484.9,-2727.71,42.5005,-82.5307,-104.337,7424.07,620.047,2501.25,-42.8945,-1.82341,-8.24348
3.9495,4867.11,-2034.14,8237.31,29.3738,-44.4198,-39.5026,13167.6,5501.57,15997.1,18.7938,344.526,-212.58,1694.6,9729.1,-1433.3,-29.2451,-14.6374,-63.7241,1980.77,-17494.6,3793.67,-30.8025,40.1509,-426.671,3775.34,10807.0,-341.198,9.92814,-26.7955,-95.7751,-11620.6,-1433.78,-2766.38,42.0343,-81.2943,-104.726,7435.42,614.097,2501.42,-42.5929,-1.87878,-8.46437
3.95,4854.57,-2054.94,8239.23,29.5412,-44.435,-39.4507,13206.9,5585.5,15998.1,16.6512,343.613,-213.463,1685.23,9753.01,-1457.47,-29.3591,-14.0637,-64.1924,1973.02,-17559.3,3826.8,-30.7159,42.3274,-426.391,3756.7,10821.1,-357.489,9.77518,-26.5103,-94.9341,-11556.6,-1382.66,-2805.05,41.568,-80.0578,-105.116,7446.77,608.148,2501.58,-42.2914,-1.93415,-8.68525
3.9505,4842.04,-2075.74,8241.16,29.7087,-44.4501,-39.3988,13246.1,5669.43,15999.1,14.5085,342.701,-214.347,1675.86,9776.92,-1481.64,-29.4732,-13.49,-64.6607,1965.27,-17624.1,3859.93,-30.6294,44.5038,-426.112,3738.05,10835.2,-373.78,9.62223,-26.2252,-94.093,-11492.5,-1331.54,-2843.72,41.1017,-78.8213,-105.506,7458.13,602.198,2501.75,-41.9898,-1.98952,-8.90613
3.951,4829.5,-2096.55,8243.08,29.8762,-44.4652,-39.3469,13285.4,5753.36,16000.1,12.3659,341.788,-215.23,1666.5,9800.83,-1505.81,-29.5872,-12.9163,-65.1291,1957.52,-17688.9,3893.06,-30.5428,46.6803,-425.833,3719.4,10849.3,-390.071,9.46927,-25.9401,-93.2519,-11428.5,-1280.43,-2882.4,40.6355,-77.5849,-105.895,7469.48,596.249,2501.92,-41.6883,-2.04489,-9.12701
3.9515,4827.74,-2111.7,8259.58,30.0393,-44.564,-39.4413,13325.3,5813.63,15988.8,10.1582,340.816,-216.347,1662.03,9838.09,-1509.43,-29.7369,-12.481,-65.5876,1956.77,-17766.3,3890.15,-30.6177,49.0555,-425.58,3707.47,10850.2,-387.842,9.42144,-25.6139,-92.4552,-11312.9,-1234.26,-2875.73,39.9387,-75.2113,-106.2,7480.09,591.779,2489.54,-41.556,-1.97699,-9.20169
3.952,4829.06,-2125.24,8280.25,30.2012,-44.6868,-39.5775,13365.3,5867.13,15973.9,7.93189,339.827,-217.53,1658.97,9879.16,-1507.18,-29.8968,-12.0853,-66.0433,1958.01,-17847.5,3876.94,-30.7387,51.4874,-425.336,3697.47,10847.4,-380.321,9.40365,-25.2759,-91.6711,-11182.6,-1189.52,-2856.1,39.1761,-72.5129,-106.481,7490.48,587.733,2473.57,-41.4721,-1.87388,-9.23461
3.9525,4830.38,-2138.78,8300.92,30.3631,-44.8096,-39.7137,13405.4,5920.63,15959.0,5.70561,338.838,-218.713,1655.9,9920.23,-1504.93,-30.0568,-11.6896,-66.499,1959.26,-17928.6,3863.74,-30.8597,53.9194,-425.092,3687.46,10844.5,-372.801,9.38586,-24.938,-90.887,-11052.2,-1144.77,-2836.48,38.4134,-69.8145,-106.761,7500.88,583.687,2457.61,-41.3883,-1.77077,-9.26752
3.953,4831.7,-2152.32,8321.58,30.5249,-44.9323,-39.8499,13445.5,5974.14,15944.2,3.47932,337.85,-219.897,1652.83,9961.3,-1502.68,-30.2167,-11.2939,-66.9547,1960.51,-18009.7,3850.53,-30.9808,56.3513,-424.848,3677.45,10841.7,-365.28,9.36806,-24.6,-90.1029,-10921.9,-1100.02,-2816.86,37.6508,-67.1161,-107.042,7511.27,579.64,2441.64,-41.3044,-1.66765,-9.30044
3.9535,4833.02,-2165.87,8342.25,30.6868,-45.0551,-39.9861,13485.5,6027.64,15929.3,1.25304,336.861,-221.08,1649.77,10002.4,-1500.43,-30.3766,-10.8982,-67.4105,1961.76,-18090.8,3837.32,-31.1018,58.7832,-424.604,3667.44,10838.8,-357.76,9.35027,-24.2621,-89.3188,-10791.6,-1055.28,-2797.24,36.8881,-64.4176,-107.323,7521.66,575.594,2425.67,-41.2205,-1.56454,-9.33335
3.954,4834.34,-2179.41,8362.92,30.8487,-45.1779,-40.1223,13525.6,6081.15,15914.5,-0.973245,335.872,-222.263,1646.7,10043.4,-1498.17,-30.5365,-10.5025,-67.8662,1963.0,-18171.9,3824.12,-31.2228,61.2152,-424.359,3657.44,10836.0,-350.24,9.33248,-23.9241,-88.5348,-10661.3,-1010.53,-2777.61,36.1255,-61.7192,-107.603,7532.06,571.548,2409.71,-41.1367,-1.46143,-9.36627
3.9545,4835.66,-2192.95,8383.58,31.0106,-45.3006,-40.2585,13565.6,6134.65,15899.6,-3.19953,334.883,-223.447,1643.64,10084.5,-1495.92,-30.6964,-10.1068,-68.3219,1964.25,-18253.0,3810.91,-31.3439,63.6471,-424.115,3647.43,10833.1,-342.719,9.31469,-23.5862,-87.7507,-10531.0,-965.784,-2757.99,35.3629,-59.0208,-107.884,7542.45,567.501,2393.74,-41.0528,-1.35831,-9.39918
3.955,4836.98,-2206.49,8404.25,31.1724,-45.4234,-40.3947,13605.7,6188.15,15884.8,-5.42581,333.894,-224.63,1640.57,10125.6,-1493.67,-30.8564,-9.71115,-68.7776,1965.5,-18334.1,3797.7,-31.4649,66.079,-423.871,3637.42,10830.2,-335.199,9.2969,-23.2482,-86.9666,-10400.6,-921.037,-2738.37,34.6002,-56.3224,-108.164,7552.84,563.455,2377.78,-40.9689,-1.2552,-9.4321
3.9555,4838.3,-2220.03,8424.92,31.3343,-45.5462,-40.5309,13645.8,6241.66,15869.9,-7.6521,332.906,-225.813,1637.51,10166.7,-1491.42,-31.0163,-9.31545,-69.2333,1966.75,-18415.2,3784.5,-31.5859,68.511,-423.627,3627.41,10827.4,-327.678,9.27911,-22.9103,-86.1825,-10270.3,-876.291,-2718.75,33.8376,-53.6239,-108.445,7563.24,559.409,2361.81,-40.8851,-1.15209,-9.46501
3.956,4843.53,-2227.47,8433.37,31.5397,-45.6969,-40.6033,13724.2,6314.86,15858.0,-9.96977,331.849,-227.182,1626.54,10189.3,-1486.77,-31.1068,-9.03711,-69.6475,1946.26,-18515.0,3735.6,-31.6121,71.0909,-423.477,3611.43,10806.1,-309.622,9.31324,-22.6982,-85.6599,-10097.4,-863.001,-2679.99,32.9395,-50.0134,-108.654,7573.89,566.259,2363.76,-40.7979,-1.18819,-9.47268
3.9565,4849.25,-2234.14,8440.29,31.7505,-45.8512,-40.6677,13807.5,6390.53,15846.3,-12.2989,330.783,-228.575,1614.58,10209.7,-1481.82,-31.1886,-8.77345,-70.0564,1923.05,-18617.0,3682.24,-31.6265,73.6893,-423.339,3594.7,10782.6,-290.25,9.35385,-22.5017,-85.17,-9919.23,-853.643,-2638.83,32.0245,-46.2888,-108.855,7584.57,574.472,2367.95,-40.7104,-1.2417,-9.47718
3.957,4854.97,-2240.81,8447.21,31.9613,-46.0055,-40.7321,13890.7,6466.2,15834.7,-14.628,329.717,-229.967,1602.63,10230.0,-1476.87,-31.2704,-8.50978,-70.4653,1899.85,-18719.1,3628.88,-31.6409,76.2877,-423.202,3577.97,10759.0,-270.877,9.39447,-22.3053,-84.6801,-9741.03,-844.286,-2597.68,31.1095,-42.5642,-109.056,7595.25,582.685,2372.13,-40.6228,-1.29521,-9.48169
3.9575,4860.69,-2247.47,8454.12,32.1721,-46.1598,-40.7965,13974.0,6541.87,15823.1,-16.957,328.652,-231.359,1590.68,10250.4,-1471.93,-31.3522,-8.24611,-70.8742,1876.64,-18821.2,3575.51,-31.6553,78.8862,-423.064,3561.24,10735.4,-251.504,9.43508,-22.1089,-84.1902,-9562.83,-834.928,-2556.52,30.1944,-38.8396,-109.256,7605.93,590.898,2376.32,-40.5353,-1.34872,-9.4862
3.958,4866.4,-2254.14,8461.04,32.3829,-46.3141,-40.861,14057.2,6617.54,15811.4,-19.2861,327.586,-232.752,1578.72,10270.7,-1466.98,-31.434,-7.98244,-71.2831,1853.44,-18923.2,3522.15,-31.6697,81.4846,-422.926,3544.51,10711.9,-232.131,9.4757,-21.9125,-83.7003,-9384.63,-825.57,-2515.37,29.2794,-35.1151,-109.457,7616.61,599.11,2380.5,-40.4478,-1.40223,-9.49071
3.9585,4872.12,-2260.81,8467.96,32.5937,-46.4683,-40.9254,14140.4,6693.21,15799.8,-21.6152,326.52,-234.144,1566.77,10291.1,-1462.03,-31.5158,-7.71878,-71.692,1830.23,-19025.3,3468.79,-31.6841,84.083,-422.788,3527.78,10688.3,-212.758,9.51632,-21.7161,-83.2104,-9206.43,-816.213,-2474.21,28.3644,-31.3905,-109.658,7627.29,607.323,2384.69,-40.3602,-1.45574,-9.49522
3.959,4877.84,-2267.48,8474.88,32.8045,-46.6226,-40.9898,14223.7,6768.88,15788.2,-23.9443,325.455,-235.536,1554.81,10311.4,-1457.08,-31.5976,-7.45511,-72.1009,1807.03,-19127.4,3415.43,-31.6985,86.6814,-422.651,3511.05,10664.7,-193.385,9.55693,-21.5197,-82.7205,-9028.23,-806.855,-2433.06,27.4494,-27.6659,-109.858,7637.98,615.536,2388.87,-40.2727,-1.50925,-9.49973
3.9595,4883.56,-2274.15,8481.8,33.0153,-46.7769,-41.0543,14306.9,6844.55,15776.5,-26.2734,324.389,-236.929,1542.86,10331.8,-1452.14,-31.6795,-7.19144,-72.5098,1783.82,-19229.4,3362.07,-31.7129,89.2798,-422.513,3494.32,10641.2,-174.012,9.59755,-21.3233,-82.2306,-8850.03,-797.498,-2391.9,26.5343,-23.9413,-110.059,7648.66,623.749,2393.06,-40.1852,-1.56276,-9.50424
3.96,4889.28,-2280.82,8488.72,33.2261,-46.9312,-41.1187,14390.2,6920.22,15764.9,-28.6025,323.323,-238.321,1530.9,10352.1,-1447.19,-31.7613,-6.92778,-72.9187,1760.62,-19331.5,3308.71,-31.7273,91.8783,-422.375,3477.6,10617.6,-154.639,9.63817,-21.1269,-81.7407,-8671.82,-788.14,-2350.75,25.6193,-20.2167,-110.259,7659.34,631.961,2397.24,-40.0976,-1.61627,-9.50875
3.9605,4899.11,-2280.3,8491.36,33.2345,-47.0443,-41.2687,14519.7,7046.58,15787.8,-30.7537,322.306,-239.686,1515.01,10353.6,-1444.11,-31.8377,-6.79396,-73.4527,1714.95,-19445.1,3242.24,-31.7268,94.7601,-422.154,3483.36,10574.3,-137.189,9.69356,-21.1874,-81.4072,-8479.66,-783.723,-2322.82,24.6671,-16.1072,-110.358,7668.17,618.467,2386.35,-40.0352,-1.65766,-9.41654
3.961,4908.94,-2279.78,8494.0,33.2429,-47.1575,-41.4188,14649.3,7172.93,15810.8,-32.9048,321.288,-241.05,1499.11,10355.2,-1441.04,-31.9141,-6.66015,-73.9868,1669.27,-19558.8,3175.76,-31.7264,97.6419,-421.933,3489.13,10531.0,-119.738,9.74895,-21.2479,-81.0737,-8287.49,-779.306,-2294.89,23.715,-11.9976,-110.457,7677.0,604.972,2375.45,-39.9727,-1.69906,-9.32433
3.9615,4918.77,-2279.26,8496.63,33.2513,-47.2707,-41.5689,14778.9,7299.29,15833.7,-35.056,320.27,-242.415,1483.21,10356.7,-1437.97,-31.9905,-6.52634,-74.5209,1623.6,-19672.4,3109.29,-31.7259,100.524,-421.712,3494.9,10487.7,-102.287,9.80435,-21.3084,-80.7402,-8095.32,-774.889,-2266.95,22.7628,-7.88799,-110.556,7685.83,591.478,2364.56,-39.9102,-1.74046,-9.23213
3.962,4928.59,-2278.75,8499.27,33.2597,-47.3838,-41.7189,14908.5,7425.64,15856.6,-37.2071,319.252,-243.779,1467.32,10358.2,-1434.89,-32.067,-6.39253,-75.0549,1577.93,-19786.0,3042.82,-31.7254,103.406,-421.491,3500.66,10444.4,-84.8364,9.85974,-21.369,-80.4066,-7903.16,-770.472,-2239.02,21.8106,-3.7784,-110.655,7694.66,577.983,2353.66,-39.8478,-1.78185,-9.13992
3.9625,4938.42,-2278.23,8501.9,33.268,-47.497,-41.869,15038.1,7552.0,15879.6,-39.3583,318.235,-245.144,1451.42,10359.8,-1431.82,-32.1434,-6.25872,-75.589,1532.25,-19899.7,2976.35,-31.7249,106.287,-421.271,3506.43,10401.1,-67.3857,9.91514,-21.4295,-80.0731,-7710.99,-766.055,-2211.09,20.8584,0.331182,-110.754,7703.49,564.489,2342.77,-39.7853,-1.82325,-9.04772
3.963,4948.25,-2277.71,8504.54,33.2764,-47.6102,-42.0191,15167.7,7678.35,15902.5,-41.5094,317.217,-246.509,1435.52,10361.3,-1428.75,-32.2198,-6.12491,-76.1231,1486.58,-20013.3,2909.88,-31.7244,109.169,-421.05,3512.2,10357.7,-49.935,9.97053,-21.49,-79.7396,-7518.83,-761.638,-2183.16,19.9062,4.44077,-110.853,7712.32,550.994,2331.88,-39.7229,-1.86464,-8.95551
3.9635,4958.08,-2277.19,8507.18,33.2848,-47.7233,-42.1691,15297.2,7804.71,15925.4,-43.6606,316.199,-247.873,1419.63,10362.8,-1425.67,-32.2963,-5.9911,-76.6571,1440.91,-20126.9,2843.4,-31.724,112.051,-420.829,3517.96,10314.4,-32.4842,10.0259,-21.5505,-79.4061,-7326.66,-757.221,-2155.23,18.9541,8.55035,-110.952,7721.15,537.5,2320.98,-39.6604,-1.90604,-8.8633
3.964,4967.91,-2276.67,8509.81,33.2932,-47.8365,-42.3192,15426.8,7931.06,15948.4,-45.8117,315.182,-249.238,1403.73,10364.4,-1422.6,-32.3727,-5.85728,-77.1912,1395.23,-20240.6,2776.93,-31.7235,114.933,-420.608,3523.73,10271.1,-15.0335,10.0813,-21.611,-79.0725,-7134.49,-752.804,-2127.29,18.0019,12.6599,-111.051,7729.98,524.005,2310.09,-39.598,-1.94744,-8.7711
3.9645,4977.7,-2273.44,8513.08,33.3018,-47.9455,-42.473,15559.7,8052.91,15970.6,-47.9085,314.169,-250.611,1388.04,10365.8,-1418.25,-32.4516,-5.73794,-77.7167,1347.33,-20356.6,2706.61,-31.7387,117.803,-420.362,3525.66,10229.3,8.20484,10.1505,-21.7091,-78.7639,-6947.38,-752.09,-2101.84,17.0671,16.7395,-111.131,7738.83,513.665,2296.72,-39.5378,-1.99594,-8.66917
3.965,4987.22,-2248.54,8521.35,33.312,-48.0213,-42.6571,15719.2,8138.73,15987.1,-49.5702,313.195,-252.054,1374.02,10366.8,-1403.66,-32.5505,-5.73438,-78.1736,1281.62,-20491.5,2605.47,-31.8799,120.582,-419.916,3496.87,10199.2,77.7443,10.3299,-22.1076,-78.6542,-6800.7,-781.0,-2096.21,16.2712,20.5791,-111.058,7747.86,528.561,2263.62,-39.4958,-2.10128,-8.48952
3.9655,4996.74,-2223.63,8529.62,33.3221,-48.0971,-42.8412,15878.7,8224.54,16003.6,-51.2319,312.221,-253.497,1359.99,10367.7,-1389.08,-32.6495,-5.73081,-78.6306,1215.9,-20626.4,2504.34,-32.021,123.361,-419.471,3468.09,10169.1,147.284,10.5093,-22.506,-78.5445,-6654.03,-809.911,-2090.58,15.4753,24.4187,-110.986,7756.89,543.458,2230.51,-39.4538,-2.20663,-8.30986
3.966,5006.26,-2198.73,8537.9,33.3323,-48.1729,-43.0253,16038.1,8310.35,16020.1,-52.8936,311.247,-254.94,1345.96,10368.7,-1374.49,-32.7484,-5.72724,-79.0875,1150.18,-20761.3,2403.2,-32.1622,126.14,-419.025,3439.3,10139.1,216.823,10.6887,-22.9045,-78.4348,-6507.35,-838.822,-2084.96,14.6795,28.2583,-110.914,7765.92,558.354,2197.41,-39.4118,-2.31198,-8.1302
3.9665,5015.77,-2173.83,8546.17,33.3424,-48.2487,-43.2093,16197.6,8396.16,16036.6,-54.5554,310.273,-256.384,1331.93,10369.6,-1359.91,-32.8473,-5.72367,-79.5445,1084.47,-20896.2,2302.06,-32.3033,128.919,-418.579,3410.51,10109.0,286.363,10.8681,-23.303,-78.3251,-6360.67,-867.733,-2079.33,13.8836,32.0979,-110.842,7774.95,573.25,2164.3,-39.3699,-2.41732,-7.95055
3.967,5025.29,-2148.93,8554.44,33.3526,-48.3245,-43.3934,16357.1,8481.98,16053.1,-56.2171,309.299,-257.827,1317.91,10370.6,-1345.32,-32.9462,-5.7201,-80.0014,1018.75,-21031.1,2200.93,-32.4444,131.699,-418.133,3381.73,10079.0,355.902,11.0476,-23.7015,-78.2155,-6213.99,-896.643,-2073.7,13.0877,35.9375,-110.77,7783.99,588.146,2131.19,-39.3279,-2.52267,-7.77089
3.9675,5034.81,-2124.03,8562.72,33.3627,-48.4003,-43.5775,16516.6,8567.79,16069.6,-57.8788,308.325,-259.27,1303.88,10371.5,-1330.73,-33.0451,-5.71653,-80.4584,953.035,-21166.0,2099.79,-32.5856,134.478,-417.688,3352.94,10048.9,425.442,11.227,-24.0999,-78.1058,-6067.32,-925.554,-2068.07,12.2919,39.7771,-110.698,7793.02,603.043,2098.09,-39.2859,-2.62801,-7.59123
3.968,5044.33,-2099.12,8570.99,33.3729,-48.476,-43.7616,16676.0,8653.6,16086.1,-59.5405,307.351,-260.713,1289.85,10372.5,-1316.15,-33.1441,-5.71296,-80.9153,887.319,-21300.9,1998.66,-32.7267,137.257,-417.242,3324.16,10018.8,494.981,11.4064,-24.4984,-77.9961,-5920.64,-954.465,-2062.45,11.496,43.6166,-110.626,7802.05,617.939,2064.98,-39.2439,-2.73336,-7.41157
3.9685,5053.85,-2074.22,8579.27,33.383,-48.5518,-43.9457,16835.5,8739.42,16102.6,-61.2022,306.377,-262.156,1275.82,10373.4,-1301.56,-33.243,-5.7094,-81.3723,821.602,-21435.8,1897.52,-32.8679,140.036,-416.796,3295.37,9988.78,564.521,11.5858,-24.8969,-77.8864,-5773.96,-983.376,-2056.82,10.7001,47.4562,-110.554,7811.08,632.835,2031.87,-39.202,-2.83871,-7.23192
3.969,5057.84,-2049.71,8588.11,33.4028,-48.65,-44.1078,17006.0,8814.06,16119.2,-62.8158,305.436,-263.661,1260.62,10375.0,-1286.28,-33.3622,-5.73012,-81.8131,746.122,-21578.5,1800.04,-32.9627,142.634,-416.3,3266.96,9954.97,633.262,11.75,-25.3801,-77.8029,-5638.67,-1016.98,-2048.82,9.98826,51.0595,-110.44,7818.64,648.145,2007.29,-39.1942,-2.96759,-7.0305
3.9695,5042.52,-2026.55,8598.95,33.4563,-48.8263,-44.1934,17215.0,8849.6,16136.4,-64.261,304.607,-265.383,1241.3,10378.9,-1268.55,-33.5525,-5.83587,-82.1977,636.469,-21748.4,1715.37,-32.8953,144.598,-415.628,3239.84,9908.05,699.209,11.8611,-26.1598,-77.8108,-5543.21,-1067.01,-2032.54,9.57038,53.8356,-110.181,7821.07,664.903,2012.56,-39.3061,-3.17884,-6.75291
3.97,5027.2,-2003.4,8609.79,33.5098,-49.0026,-44.2789,17424.0,8885.14,16153.7,-65.7063,303.778,-267.104,1221.99,10382.8,-1250.81,-33.7429,-5.94162,-82.5822,526.816,-21918.4,1630.71,-32.828,146.563,-414.955,3212.72,9861.12,765.156,11.9722,-26.9395,-77.8188,-5447.75,-1117.04,-2016.26,9.15251,56.6118,-109.921,7823.49,681.662,2017.83,-39.418,-3.39009,-6.47533
3.9705,5011.88,-1980.24,8620.63,33.5634,-49.179,-44.3644,17633.0,8920.68,16170.9,-67.1515,302.95,-268.826,1202.67,10386.7,-1233.08,-33.9332,-6.04737,-82.9668,417.162,-22088.3,1546.04,-32.7606,148.527,-414.283,3185.61,9814.2,831.103,12.0833,-27.7193,-77.8267,-5352.29,-1167.07,-1999.98,8.73464,59.3879,-109.661,7825.92,698.42,2023.1,-39.53,-3.60134,-6.19774
3.971,4996.56,-1957.09,8631.46,33.6169,-49.3553,-44.45,17842.0,8956.23,16188.1,-68.5967,302.121,-270.548,1183.35,10390.6,-1215.34,-34.1235,-6.15312,-83.3514,307.509,-22258.2,1461.37,-32.6933,150.492,-413.611,3158.49,9767.27,897.05,12.1943,-28.499,-77.8347,-5256.84,-1217.1,-1983.7,8.31677,62.164,-109.401,7828.34,715.178,2028.37,-39.6419,-3.81259,-5.92016
3.9715,4981.23,-1933.93,8642.3,33.6704,-49.5316,-44.5355,18051.0,8991.77,16205.3,-70.0419,301.292,-272.269,1164.03,10394.5,-1197.61,-34.3139,-6.25887,-83.7359,197.855,-22428.2,1376.7,-32.6259,152.456,-412.938,3131.37,9720.35,962.997,12.3054,-29.2787,-77.8426,-5161.38,-1267.12,-1967.42,7.8989,64.9401,-109.142,7830.77,731.936,2033.64,-39.7538,-4.02384,-5.64257
3.972,4965.91,-1910.78,8653.14,33.7239,-49.708,-44.621,18260.0,9027.31,16222.5,-71.4871,300.464,-273.991,1144.71,10398.4,-1179.88,-34.5042,-6.36462,-84.1205,88.2021,-22598.1,1292.03,-32.5586,154.42,-412.266,3104.26,9673.43,1028.94,12.4165,-30.0584,-77.8506,-5065.92,-1317.15,-1951.14,7.48103,67.7163,-108.882,7833.19,748.694,2038.91,-39.8657,-4.23509,-5.36499
3.9725,4950.59,-1887.62,8663.98,33.7775,-49.8843,-44.7066,18469.0,9062.85,16239.7,-72.9323,299.635,-275.713,1125.4,10402.2,-1162.14,-34.6945,-6.47037,-84.5051,-21.4512,-22768.1,1207.36,-32.4912,156.385,-411.594,3077.14,9626.5,1094.89,12.5276,-30.8382,-77.8585,-4970.46,-1367.18,-1934.85,7.06316,70.4924,-108.622,7835.62,765.452,2044.17,-39.9777,-4.44634,-5.0874
3.973,4935.27,-1864.47,8674.82,33.831,-50.0606,-44.7921,18678.0,9098.4,16256.9,-74.3775,298.806,-277.434,1106.08,10406.1,-1144.41,-34.8848,-6.57611,-84.8896,-131.105,-22938.0,1122.69,-32.4239,158.349,-410.922,3050.03,9579.58,1160.84,12.6387,-31.6179,-77.8665,-4875.0,-1417.21,-1918.57,6.64529,73.2685,-108.362,7838.05,782.21,2049.44,-40.0896,-4.65759,-4.80981
3.9735,4922.58,-1851.41,8682.83,33.8917,-50.2527,-44.8486,18891.6,9129.39,16259.4,-75.7649,297.993,-279.162,1091.1,10408.5,-1123.37,-35.0829,-6.71356,-85.2909,-253.743,-23118.8,1035.08,-32.2599,159.937,-410.145,3014.37,9539.27,1220.18,12.7545,-32.4697,-77.8917,-4775.42,-1474.49,-1887.89,6.34677,75.515,-107.997,7838.09,799.131,2057.48,-40.2061,-4.97348,-4.53255
3.974,4915.16,-1858.56,8685.21,33.9668,-50.4764,-44.847,19114.4,9151.29,16232.3,-77.0364,297.21,-280.901,1084.81,10407.8,-1095.71,-35.2963,-6.91442,-85.7254,-402.351,-23321.4,941.597,-31.9026,160.773,-409.16,2961.63,9512.17,1266.31,12.8797,-33.4656,-77.9514,-4667.57,-1546.28,-1828.38,6.28694,76.702,-107.419,7833.38,816.379,2071.04,-40.3318,-5.49864,-4.25594
3.9745,4907.73,-1865.71,8687.58,34.0419,-50.7,-44.8454,19337.1,9173.19,16205.2,-78.308,296.428,-282.641,1078.51,10407.1,-1068.05,-35.5098,-7.11527,-86.16,-550.96,-23524.0,848.109,-31.5453,161.608,-408.175,2908.9,9485.08,1312.44,13.0049,-34.4616,-78.011,-4559.73,-1618.07,-1768.88,6.22712,77.889,-106.842,7828.67,833.627,2084.61,-40.4576,-6.0238,-3.97932
3.975,4900.31,-1872.85,8689.95,34.117,-50.9236,-44.8439,19559.9,9195.09,16178.2,-79.5795,295.645,-284.38,1072.22,10406.4,-1040.4,-35.7232,-7.31612,-86.5946,-699.568,-23726.6,754.622,-31.1879,162.443,-407.19,2856.16,9457.99,1358.58,13.1302,-35.4576,-78.0707,-4451.88,-1689.85,-1709.38,6.1673,79.076,-106.264,7823.96,850.874,2098.17,-40.5833,-6.54896,-3.7027
3.9755,4892.89,-1880.0,8692.33,34.1921,-51.1473,-44.8423,19782.7,9216.99,16151.1,-80.8511,294.862,-286.12,1065.93,10405.7,-1012.74,-35.9367,-7.51698,-87.0291,-848.177,-23929.2,661.135,-30.8306,163.278,-406.205,2803.42,9430.89,1404.71,13.2554,-36.4535,-78.1304,-4344.04,-1761.64,-1649.88,6.10748,80.2629,-105.687,7819.24,868.122,2111.74,-40.709,-7.07412,-3.42609
3.976,4885.47,-1887.14,8694.7,34.2672,-51.3709,-44.8407,20005.5,9238.89,16124.0,-82.1226,294.08,-287.859,1059.63,10405.0,-985.08,-36.1501,-7.71783,-87.4637,-996.785,-24131.8,567.647,-30.4733,164.113,-405.22,2750.69,9403.8,1450.84,13.3807,-37.4495,-78.1901,-4236.19,-1833.43,-1590.38,6.04765,81.4499,-105.109,7814.53,885.37,2125.3,-40.8347,-7.59928,-3.14947
3.9765,4878.05,-1894.29,8697.07,34.3423,-51.5945,-44.8391,20228.2,9260.79,16096.9,-83.3941,293.297,-289.598,1053.34,10404.3,-957.422,-36.3636,-7.91868,-87.8983,-1145.39,-24334.4,474.16,-30.116,164.948,-404.236,2697.95,9376.7,1496.97,13.5059,-38.4455,-78.2498,-4128.35,-1905.22,-1530.88,5.98783,82.6369,-104.532,7809.82,902.617,2138.87,-40.9605,-8.12444,-2.87285
3.977,4870.63,-1901.43,8699.45,34.4174,-51.8181,-44.8375,20451.0,9282.69,16069.9,-84.6657,292.514,-291.338,1047.05,10403.6,-929.764,-36.577,-8.11953,-88.3328,-1294.0,-24537.0,380.673,-29.7586,165.784,-403.251,2645.21,9349.61,1543.1,13.6312,-39.4414,-78.3094,-4020.5,-1977.0,-1471.38,5.92801,83.8239,-103.955,7805.11,919.865,2152.43,-41.0862,-8.6496,-2.59624
3.9775,4863.2,-1908.58,8701.82,34.4925,-52.0418,-44.8359,20673.8,9304.59,16042.8,-85.9372,291.732,-293.077,1040.75,10402.9,-902.107,-36.7905,-8.32039,-88.7674,-1442.61,-24739.5,287.185,-29.4013,166.619,-402.266,2592.48,9322.52,1589.24,13.7564,-40.4374,-78.3691,-3912.66,-2048.79,-1411.87,5.86819,85.0109,-103.377,7800.4,937.112,2166.0,-41.2119,-9.17476,-2.31962
3.978,4866.64,-1915.85,8708.02,34.5894,-52.2856,-44.8834,20883.7,9353.19,15978.2,-87.0503,290.991,-294.586,1034.39,10402.8,-879.321,-36.9593,-8.4929,-89.2065,-1601.86,-24948.1,164.913,-29.0722,167.099,-401.161,2539.84,9305.85,1625.59,13.8885,-41.5209,-78.3872,-3777.09,-2126.35,-1318.85,5.95256,85.6025,-102.535,7792.31,949.142,2183.35,-41.3658,-9.73547,-2.04612
3.9785,4883.64,-1923.29,8719.0,34.7133,-52.5546,-44.9923,21077.4,9435.16,15866.8,-87.9652,290.302,-295.806,1027.93,10403.2,-862.625,-37.0724,-8.62999,-89.6511,-1774.43,-25164.3,6.65994,-28.7784,167.136,-399.906,2487.32,9302.22,1649.71,14.0292,-42.7137,-78.3533,-3606.88,-2211.13,-1183.91,6.21718,85.4497,-101.363,7780.01,954.65,2205.45,-41.555,-10.3406,-1.77652
3.979,4900.65,-1930.73,8729.98,34.8372,-52.8236,-45.1012,21271.2,9517.13,15755.3,-88.8802,289.613,-297.026,1021.48,10403.7,-845.929,-37.1856,-8.76708,-90.0958,-1946.99,-25380.4,-151.593,-28.4846,167.173,-398.651,2434.81,9298.59,1673.83,14.1698,-43.9065,-78.3195,-3436.66,-2295.91,-1048.98,6.48181,85.2969,-100.19,7767.7,960.158,2227.55,-41.7441,-10.9458,-1.50692
3.9795,4917.65,-1938.17,8740.96,34.9612,-53.0926,-45.2101,21465.0,9599.1,15643.9,-89.7951,288.924,-298.247,1015.02,10404.2,-829.233,-37.2987,-8.90417,-90.5405,-2119.55,-25596.5,-309.846,-28.1908,167.209,-397.395,2382.29,9294.96,1697.96,14.3105,-45.0993,-78.2856,-3266.45,-2380.69,-914.043,6.74643,85.1441,-99.0176,7755.4,965.666,2249.64,-41.9333,-11.5509,-1.23731
3.98,4934.66,-1945.61,8751.94,35.0851,-53.3616,-45.3189,21658.8,9681.07,15532.4,-90.71,288.235,-299.467,1008.57,10404.6,-812.536,-37.4118,-9.04125,-90.9852,-2292.11,-25812.6,-468.1,-27.897,167.246,-396.14,2329.78,9291.33,1722.08,14.4512,-46.2922,-78.2517,-3096.24,-2465.47,-779.108,7.01105,84.9913,-97.845,7743.1,971.173,2271.74,-42.1224,-12.1561,-0.967711
3.9805,4951.66,-1953.05,8762.92,35.209,-53.6306,-45.4278,21852.6,9763.04,15421.0,-91.625,287.546,-300.687,1002.11,10405.1,-795.84,-37.5249,-9.17834,-91.4298,-2464.67,-26028.8,-626.353,-27.6032,167.283,-394.885,2277.26,9287.71,1746.2,14.5919,-47.485,-78.2178,-2926.02,-2550.25,-644.174,7.27567,84.8385,-96.6725,7730.79,976.681,2293.84,-42.3116,-12.7613,-0.698109
3.981,4968.67,-1960.48,8773.9,35.333,-53.8996,-45.5367,22046.4,9845.01,15309.5,-92.5399,286.857,-301.907,995.658,10405.5,-779.144,-37.638,-9.31543,-91.8745,-2637.23,-26244.9,-784.606,-27.3095,167.32,-393.63,2224.75,9284.08,1770.32,14.7325,-48.6778,-78.1839,-2755.81,-2635.03,-509.239,7.5403,84.6857,-95.5,7718.49,982.189,2315.94,-42.5007,-13.3664,-0.428507
3.9815,4985.67,-1967.92,8784.88,35.4569,-54.1687,-45.6456,22240.2,9926.98,15198.1,-93.4548,286.168,-303.128,989.203,10406.0,-762.448,-37.7511,-9.45252,-92.3192,-2809.8,-26461.0,-942.859,-27.0157,167.357,-392.375,2172.23,9280.45,1794.45,14.8732,-49.8706,-78.1501,-2585.59,-2719.81,-374.304,7.80492,84.5329,-94.3275,7706.18,987.696,2338.03,-42.6899,-13.9716,-0.158905
3.982,5002.68,-1975.36,8795.86,35.5808,-54.4377,-45.7544,22434.0,10008.9,15086.6,-94.3698,285.479,-304.348,982.747,10406.5,-745.752,-37.8642,-9.58961,-92.7638,-2982.36,-26677.1,-1101.11,-26.7219,167.394,-391.12,2119.71,9276.82,1818.57,15.0139,-51.0635,-78.1162,-2415.38,-2804.59,-239.369,8.06954,84.3801,-93.1549,7693.88,993.204,2360.13,-42.879,-14.5767,0.110697
3.9825,5022.86,-1971.32,8808.25,35.7079,-54.6899,-45.8461,22601.6,10129.8,14959.2,-95.2054,284.715,-305.112,973.253,10409.4,-740.816,-37.9914,-9.6889,-93.1867,-3162.53,-26891.4,-1295.77,-26.5009,167.183,-389.906,2078.58,9291.15,1837.0,15.0817,-52.2766,-78.0882,-2207.85,-2909.21,-57.5687,8.58961,84.1277,-91.6447,7685.98,1007.5,2363.93,-43.1334,-15.2044,0.368323
3.983,5045.57,-1958.1,8821.76,35.8374,-54.9287,-45.9239,22748.3,10281.8,14819.0,-95.9774,283.891,-305.512,961.327,10414.2,-745.287,-38.1298,-9.75796,-93.5922,-3348.8,-27104.1,-1519.54,-26.3382,166.775,-388.726,2046.56,9319.84,1850.86,15.0911,-53.5061,-78.065,-1970.47,-3029.69,161.725,9.31403,83.7957,-89.8642,7681.61,1028.83,2353.1,-43.4401,-15.85,0.616368
3.9835,5068.29,-1944.88,8835.27,35.9669,-55.1675,-46.0017,22895.0,10433.8,14678.7,-96.7495,283.067,-305.911,949.401,10419.1,-749.758,-38.2682,-9.82701,-93.9977,-3535.07,-27316.9,-1743.31,-26.1755,166.367,-387.545,2014.54,9348.53,1864.73,15.1006,-54.7355,-78.0417,-1733.09,-3150.18,381.018,10.0385,83.4636,-88.0838,7677.23,1050.15,2342.26,-43.7468,-16.4956,0.864413
3.984,5091.01,-1931.67,8848.79,36.0965,-55.4063,-46.0795,23041.7,10585.8,14538.5,-97.5216,282.243,-306.311,937.475,10423.9,-754.229,-38.4066,-9.89607,-94.4031,-3721.33,-27529.7,-1967.09,-26.0128,165.959,-386.364,1982.52,9377.22,1878.6,15.1101,-55.9649,-78.0185,-1495.71,-3270.67,600.312,10.7629,83.1316,-86.3033,7672.86,1071.48,2331.43,-44.0535,-17.1412,1.11246
3.9845,5113.72,-1918.45,8862.3,36.226,-55.6451,-46.1573,23188.4,10737.7,14398.3,-98.2937,281.419,-306.71,925.549,10428.8,-758.701,-38.545,-9.96512,-94.8086,-3907.6,-27742.5,-2190.86,-25.8501,165.551,-385.184,1950.5,9405.91,1892.47,15.1196,-57.1944,-77.9953,-1258.33,-3391.16,819.606,11.4873,82.7996,-84.5229,7668.48,1092.8,2320.59,-44.3601,-17.7868,1.3605
3.985,5136.44,-1905.23,8875.81,36.3555,-55.8838,-46.2351,23335.1,10889.7,14258.1,-99.0658,280.595,-307.11,913.624,10433.6,-763.172,-38.6835,-10.0342,-95.2141,-4093.86,-27955.2,-2414.64,-25.6875,165.143,-384.003,1918.47,9434.6,1906.34,15.129,-58.4238,-77.972,-1020.95,-3511.65,1038.9,12.2117,82.4676,-82.7424,7664.11,1114.13,2309.76,-44.6668,-18.4324,1.60855
3.9855,5159.16,-1892.01,8889.33,36.4851,-56.1226,-46.313,23481.8,11041.7,14117.8,-99.8378,279.77,-307.509,901.698,10438.5,-767.643,-38.8219,-10.1032,-95.6196,-4280.13,-28168.0,-2638.41,-25.5248,164.735,-382.823,1886.45,9463.29,1920.2,15.1385,-59.6532,-77.9488,-783.566,-3632.14,1258.19,12.9361,82.1355,-80.9619,7659.74,1135.46,2298.92,-44.9735,-19.0781,1.85659
3.986,5181.87,-1878.79,8902.84,36.6146,-56.3614,-46.3908,23628.5,11193.7,13977.6,-100.61,278.946,-307.909,889.772,10443.3,-772.115,-38.9603,-10.1723,-96.025,-4466.4,-28380.8,-2862.18,-25.3621,164.327,-381.642,1854.43,9491.98,1934.07,15.148,-60.8827,-77.9255,-546.186,-3752.63,1477.49,13.6606,81.8035,-79.1815,7655.36,1156.78,2288.09,-45.2801,-19.7237,2.10464
3.9865,5204.59,-1865.57,8916.35,36.7441,-56.6002,-46.4686,23775.3,11345.7,13837.4,-101.382,278.122,-308.309,877.846,10448.1,-776.586,-39.0987,-10.2413,-96.4305,-4652.66,-28593.6,-3085.96,-25.1994,163.919,-380.461,1822.41,9520.67,1947.94,15.1574,-62.1121,-77.9023,-308.805,-3873.12,1696.78,14.385,81.4715,-77.401,7650.99,1178.11,2277.25,-45.5868,-20.3693,2.35268
3.987,5210.65,-1859.15,8929.26,36.881,-56.8533,-46.546,23897.6,11522.7,13683.0,-102.044,277.098,-308.222,870.256,10452.3,-768.919,-39.2114,-10.3383,-96.7855,-4812.57,-28761.5,-3333.57,-25.2317,163.585,-379.46,1799.75,9533.41,1942.66,15.0977,-63.2803,-77.7448,-52.6518,-4031.98,1938.38,15.4489,82.2476,-75.502,7649.75,1198.3,2236.75,-46.0071,-20.9487,2.5456
3.9875,5208.38,-1856.12,8941.87,37.0215,-57.1135,-46.6233,24007.8,11712.3,13521.6,-102.651,275.974,-307.892,864.835,10456.1,-755.182,-39.3114,-10.4493,-97.1154,-4959.29,-28907.2,-3593.09,-25.3615,163.288,-378.549,1781.77,9538.17,1927.81,15.0033,-64.4179,-77.5201,212.888,-4210.03,2191.13,16.6824,83.5779,-73.5437,7650.08,1217.93,2181.41,-46.4842,-21.4949,2.71096
3.988,5206.12,-1853.1,8954.48,37.162,-57.3737,-46.7006,24118.0,11901.8,13360.1,-103.258,274.851,-307.563,859.414,10459.9,-741.445,-39.4113,-10.5602,-97.4452,-5106.01,-29052.8,-3852.61,-25.4913,162.99,-377.637,1763.79,9542.92,1912.96,14.909,-65.5555,-77.2955,478.427,-4388.08,2443.88,17.916,84.9081,-71.5854,7650.42,1237.56,2126.07,-46.9613,-22.0411,2.87632
3.9885,5203.85,-1850.07,8967.09,37.3025,-57.6339,-46.7778,24228.1,12091.4,13198.7,-103.865,273.727,-307.233,853.993,10463.7,-727.708,-39.5112,-10.6712,-97.775,-5252.74,-29198.4,-4112.14,-25.6211,162.693,-376.726,1745.81,9547.69,1898.11,14.8146,-66.6931,-77.0709,743.967,-4566.14,2696.63,19.1496,86.2383,-69.6271,7650.75,1257.19,2070.73,-47.4384,-22.5874,3.04168
3.989,5201.59,-1847.05,8979.7,37.443,-57.8941,-46.8551,24338.3,12280.9,13037.2,-104.472,272.603,-306.904,848.572,10467.5,-713.972,-39.6112,-10.7821,-98.1049,-5399.46,-29344.0,-4371.66,-25.7509,162.396,-375.814,1727.83,9552.45,1883.26,14.7203,-67.8307,-76.8462,1009.51,-4744.19,2949.38,20.3832,87.5686,-67.6688,7651.08,1276.82,2015.4,-47.9156,-23.1336,3.20704
3.9895,5199.32,-1844.02,8992.31,37.5836,-58.1543,-46.9324,24448.5,12470.5,12875.8,-105.079,271.479,-306.574,843.151,10471.3,-700.235,-39.7111,-10.8931,-98.4347,-5546.19,-29489.6,-4631.18,-25.8806,162.098,-374.903,1709.85,9557.21,1868.4,14.626,-68.9683,-76.6216,1275.05,-4922.24,3202.14,21.6168,88.8988,-65.7105,7651.42,1296.45,1960.06,-48.3927,-23.6798,3.37239
3.99,5197.05,-1841.0,9004.92,37.7241,-58.4145,-47.0096,24558.6,12660.0,12714.3,-105.686,270.356,-306.245,837.73,10475.1,-686.498,-39.811,-11.004,-98.7645,-5692.91,-29635.2,-4890.71,-26.0104,161.801,-373.992,1691.87,9561.96,1853.55,14.5316,-70.1058,-76.397,1540.59,-5100.29,3454.89,22.8504,90.2291,-63.7522,7651.75,1316.08,1904.72,-48.8698,-24.2261,3.53775
3.9905,5194.79,-1837.97,9017.53,37.8646,-58.6747,-47.0869,24668.8,12849.6,12552.9,-106.293,269.232,-305.915,832.309,10479.0,-672.761,-39.9109,-11.1149,-99.0944,-5839.63,-29780.8,-5150.23,-26.1402,161.503,-373.08,1673.89,9566.72,1838.7,14.4373,-71.2434,-76.1723,1806.12,-5278.34,3707.64,24.084,91.5593,-61.7939,7652.08,1335.7,1849.38,-49.3469,-24.7723,3.70311
3.991,5192.52,-1834.95,9030.14,38.0051,-58.9349,-47.1641,24779.0,13039.1,12391.5,-106.9,268.108,-305.585,826.888,10482.8,-659.025,-40.0109,-11.2259,-99.4242,-5986.36,-29926.4,-5409.75,-26.27,161.206,-372.169,1655.91,9571.48,1823.85,14.3429,-72.381,-75.9477,2071.66,-5456.39,3960.39,25.3176,92.8895,-59.8356,7652.42,1355.33,1794.04,-49.824,-25.3186,3.86847
3.9915,5190.56,-1821.52,9031.59,38.0437,-59.2461,-47.269,24908.0,13197.5,12167.6,-107.503,266.856,-304.787,821.541,10486.6,-642.013,-40.1068,-11.2623,-99.8082,-6089.68,-29981.9,-5649.32,-26.7784,161.246,-371.582,1659.02,9595.12,1804.55,14.1031,-73.2469,-75.6786,2319.37,-5696.62,4216.66,27.0353,96.6219,-58.2477,7656.4,1367.36,1714.46,-50.3855,-25.6057,3.99483
3.992,5188.69,-1805.13,9029.84,38.0531,-59.5719,-47.3816,25042.5,13346.9,11925.9,-108.105,265.567,-303.855,816.215,10490.4,-624.065,-40.2016,-11.2774,-100.208,-6180.6,-30011.7,-5883.19,-27.395,161.382,-371.089,1668.15,9624.15,1783.98,13.8218,-74.035,-75.3967,2561.99,-5954.62,4473.94,28.8915,101.041,-56.7657,7661.42,1377.21,1627.96,-50.971,-25.8188,4.11004
3.9925,5186.82,-1788.74,9028.1,38.0625,-59.8977,-47.4943,25176.9,13496.3,11684.2,-108.708,264.278,-302.923,810.889,10494.2,-606.118,-40.2964,-11.2925,-100.607,-6271.53,-30041.5,-6117.05,-28.0116,161.519,-370.595,1677.28,9653.18,1763.41,13.5405,-74.8232,-75.1149,2804.6,-6212.61,4731.21,30.7476,105.459,-55.2836,7666.45,1387.07,1541.46,-51.5565,-26.0319,4.22526
3.993,5184.95,-1772.34,9026.35,38.072,-60.2236,-47.607,25311.3,13645.8,11442.5,-109.31,262.989,-301.992,805.563,10498.0,-588.17,-40.3911,-11.3075,-101.007,-6362.45,-30071.2,-6350.92,-28.6282,161.655,-370.101,1686.42,9682.21,1742.84,13.2592,-75.6114,-74.833,3047.22,-6470.61,4988.49,32.6037,109.878,-53.8016,7671.47,1396.92,1454.97,-52.1421,-26.245,4.34048
3.9935,5183.08,-1755.95,9024.61,38.0814,-60.5494,-47.7196,25445.7,13795.2,11200.8,-109.912,261.7,-301.06,800.237,10501.8,-570.223,-40.4859,-11.3226,-101.406,-6453.38,-30101.0,-6584.78,-29.2448,161.792,-369.608,1695.55,9711.24,1722.27,12.9779,-76.3996,-74.5512,3289.83,-6728.6,5245.77,34.4598,114.297,-52.3195,7676.5,1406.78,1368.47,-52.7276,-26.4582,4.45569
3.994,5181.21,-1739.56,9022.87,38.0908,-60.8752,-47.8323,25580.2,13944.6,10959.1,-110.515,260.411,-300.128,794.911,10505.6,-552.275,-40.5807,-11.3377,-101.805,-6544.3,-30130.7,-6818.65,-29.8614,161.928,-369.114,1704.68,9740.27,1701.7,12.6966,-77.1878,-74.2693,3532.44,-6986.6,5503.04,36.3159,118.715,-50.8375,7681.52,1416.63,1281.97,-53.3132,-26.6713,4.57091
3.9945,5179.34,-1723.16,9021.12,38.1002,-61.201,-47.945,25714.6,14094.0,10717.5,-111.117,259.122,-299.196,789.585,10509.4,-534.328,-40.6755,-11.3528,-102.205,-6635.22,-30160.5,-7052.51,-30.478,162.064,-368.62,1713.82,9769.31,1681.13,12.4153,-77.976,-73.9875,3775.06,-7244.6,5760.32,38.172,123.134,-49.3555,7686.54,1426.49,1195.47,-53.8987,-26.8844,4.68613
3.995,5177.47,-1706.77,9019.38,38.1097,-61.5268,-48.0577,25849.0,14243.5,10475.8,-111.719,257.834,-298.264,784.259,10513.2,-516.38,-40.7703,-11.3679,-102.604,-6726.15,-30190.3,-7286.38,-31.0946,162.201,-368.127,1722.95,9798.34,1660.56,12.134,-78.7642,-73.7056,4017.67,-7502.59,6017.6,40.0282,127.553,-47.8734,7691.57,1436.34,1108.97,-54.4842,-27.0975,4.80134
3.9955,5175.6,-1690.37,9017.63,38.1191,-61.8526,-48.1703,25983.4,14392.9,10234.1,-112.322,256.545,-297.332,778.933,10517.0,-498.433,-40.8651,-11.383,-103.004,-6817.07,-30220.0,-7520.24,-31.7112,162.337,-367.633,1732.08,9827.37,1639.98,11.8526,-79.5523,-73.4238,4260.29,-7760.59,6274.87,41.8843,131.972,-46.3914,7696.59,1446.2,1022.47,-55.0698,-27.3106,4.91656
3.996,5169.92,-1667.56,9026.59,38.2122,-62.1549,-48.161,26167.9,14473.1,9967.54,-112.811,255.052,-296.204,785.772,10525.2,-488.694,-40.9826,-11.4094,-103.431,-6883.48,-30083.1,-7742.61,-32.926,163.126,-367.103,1733.45,9830.77,1585.39,11.6987,-80.1236,-73.0887,4427.58,-8031.84,6505.18,44.0248,139.027,-45.8372,7681.13,1454.21,970.352,-55.7077,-27.4223,4.85295
3.9965,5163.77,-1643.95,9036.89,38.3157,-62.4543,-48.1365,26358.6,14544.6,9697.9,-113.287,253.534,-295.052,794.131,10534.0,-479.982,-41.103,-11.4373,-103.862,-6946.81,-29925.4,-7963.54,-34.2155,163.996,-366.567,1733.84,9830.96,1526.54,11.5607,-80.6677,-72.7469,4585.45,-8304.74,6732.11,46.2008,146.411,-45.399,7663.11,1461.99,922.536,-56.3522,-27.5212,4.76699
3.997,5157.62,-1620.34,9047.19,38.4192,-62.7536,-48.112,26549.3,14616.1,9428.26,-113.763,252.016,-293.9,802.49,10542.7,-471.269,-41.2234,-11.4651,-104.293,-7010.15,-29767.7,-8184.47,-35.505,164.866,-366.032,1734.23,9831.16,1467.69,11.4226,-81.2118,-72.4051,4743.33,-8577.65,6959.04,48.3769,153.796,-44.9608,7645.08,1469.77,874.72,-56.9967,-27.6201,4.68103
3.9975,5151.47,-1596.73,9057.49,38.5228,-63.053,-48.0874,26740.0,14687.6,9158.62,-114.239,250.498,-292.748,810.849,10551.4,-462.556,-41.3438,-11.493,-104.724,-7073.49,-29609.9,-8405.4,-36.7945,165.736,-365.497,1734.63,9831.35,1408.84,11.2846,-81.7559,-72.0633,4901.21,-8850.55,7185.98,50.553,161.18,-44.5227,7627.06,1477.56,826.904,-57.6412,-27.7191,4.59506
3.998,5145.31,-1573.11,9067.79,38.6263,-63.3523,-48.0629,26930.7,14759.1,8888.98,-114.715,248.98,-291.595,819.208,10560.1,-453.844,-41.4643,-11.5209,-105.154,-7136.83,-29452.2,-8626.33,-38.084,166.607,-364.962,1735.02,9831.55,1349.99,11.1466,-82.3,-71.7215,5059.09,-9123.45,7412.91,52.729,168.564,-44.0845,7609.04,1485.34,779.088,-58.2857,-27.818,4.5091
3.9985,5139.16,-1549.5,9078.08,38.7299,-63.6517,-48.0384,27121.3,14830.6,8619.35,-115.191,247.462,-290.443,827.567,10568.9,-445.131,-41.5847,-11.5487,-105.585,-7200.17,-29294.5,-8847.26,-39.3735,167.477,-364.426,1735.42,9831.74,1291.13,11.0086,-82.8441,-71.3797,5216.96,-9396.36,7639.84,54.9051,175.949,-43.6463,7591.01,1493.12,731.272,-58.9302,-27.917,4.42314
3.999,5133.01,-1525.89,9088.38,38.8334,-63.951,-48.0138,27312.0,14902.2,8349.71,-115.667,245.945,-289.291,835.927,10577.6,-436.419,-41.7051,-11.5766,-106.016,-7263.51,-29136.7,-9068.18,-40.6631,168.347,-363.891,1735.81,9831.94,1232.28,10.8705,-83.3883,-71.0379,5374.84,-9669.26,7866.78,57.0812,183.333,-43.2081,7572.99,1500.9,683.455,-59.5747,-28.0159,4.33718
3.9995,5126.86,-1502.28,9098.68,38.9369,-64.2504,-47.9893,27502.7,14973.7,8080.07,-116.143,244.427,-288.139,844.286,10586.3,-427.706,-41.8255,-11.6044,-106.447,-7326.85,-28979.0,-9289.12,-41.9526,169.217,-363.356,1736.2,9832.13,1173.43,10.7325,-83.9324,-70.6961,5532.72,-9942.17,8093.71,59.2572,190.718,-42.7699,7554.96,1508.68,635.639,-60.2191,-28.1149,4.25121
4.0,5120.71,-1478.66,9108.98,39.0405,-64.5498,-47.9648,27693.4,15045.2,7810.43,-116.618,242.909,-286.987,852.645,10595.1,-418.993,-41.9459,-11.6323,-106.878,-7390.18,-28821.3,-9510.04,-43.2421,170.087,-362.821,1736.6,9832.33,1114.58,10.5945,-84.4765,-70.3543,5690.59,-10215.1,8320.65,61.4333,198.102,-42.3317,7536.94,1516.46,587.823,-60.8636,-28.2138,4.16525
4.0005,5128.92,-1470.77,9115.27,39.2248,-64.911,-47.9806,27924.5,14984.9,7512.89,-116.893,241.331,-285.804,860.767,10606.1,-397.861,-42.0676,-11.5365,-107.299,-7512.3,-28541.4,-9739.58,-45.0226,171.848,-361.404,1750.76,9834.25,1068.15,10.4623,-84.7774,-70.1548,5760.42,-10478.1,8555.01,64.3897,205.655,-42.9669,7516.79,1506.6,574.908,-61.3728,-28.2255,4.04115
4.001,5137.13,-1462.88,9121.56,39.4091,-65.2721,-47.9965,28155.5,14924.6,7215.35,-117.168,239.753,-284.621,868.889,10617.0,-376.73,-42.1893,-11.4406,-107.72,-7634.41,-28261.5,-9969.11,-46.803,173.608,-359.988,1764.93,9836.18,1021.71,10.3302,-85.0784,-69.9552,5830.25,-10741.1,8789.37,67.346,213.208,-43.6021,7496.63,1496.73,561.992,-61.882,-28.2372,3.91705
4.0015,5145.34,-1454.99,9127.85,39.5935,-65.6333,-48.0123,28386.6,14864.3,6917.81,-117.442,238.174,-283.438,877.01,10628.0,-355.598,-42.311,-11.3448,-108.141,-7756.52,-27981.6,-10198.6,-48.5835,175.369,-358.572,1779.1,9838.11,975.275,10.198,-85.3793,-69.7557,5900.08,-11004.2,9023.73,70.3024,220.761,-44.2373,7476.48,1486.86,549.077,-62.3912,-28.2489,3.79295
4.002,5153.55,-1447.1,9134.14,39.7778,-65.9945,-48.0282,28617.6,14804.0,6620.27,-117.717,236.596,-282.255,885.132,10639.0,-334.466,-42.4327,-11.2489,-108.563,-7878.64,-27701.8,-10428.2,-50.364,177.129,-357.156,1793.27,9840.04,928.84,10.0658,-85.6802,-69.5562,5969.92,-11267.2,9258.1,73.2588,228.314,-44.8725,7456.33,1477.0,536.162,-62.9004,-28.2606,3.66885
4.0025,5161.76,-1439.21,9140.42,39.9621,-66.3557,-48.0441,28848.7,14743.8,6322.72,-117.992,235.018,-281.072,893.254,10650.0,-313.334,-42.5544,-11.1531,-108.984,-8000.75,-27421.9,-10657.7,-52.1445,178.89,-355.74,1807.44,9841.97,882.404,9.93368,-85.9812,-69.3566,6039.75,-11530.2,9492.46,76.2152,235.866,-45.5077,7436.17,1467.13,523.247,-63.4095,-28.2723,3.54475
4.003,5169.97,-1431.32,9146.71,40.1465,-66.7169,-48.0599,29079.7,14683.5,6025.18,-118.266,233.44,-279.889,901.376,10661.0,-292.202,-42.6761,-11.0573,-109.405,-8122.86,-27142.0,-10887.3,-53.9249,180.65,-354.324,1821.6,9843.89,835.968,9.80153,-86.2821,-69.1571,6109.58,-11793.3,9726.82,79.1716,243.419,-46.1429,7416.02,1457.27,510.331,-63.9187,-28.284,3.42065
4.0035,5178.18,-1423.43,9153.0,40.3308,-67.0781,-48.0758,29310.8,14623.2,5727.64,-118.541,231.862,-278.706,909.498,10671.9,-271.07,-42.7978,-10.9614,-109.826,-8244.98,-26862.2,-11116.8,-55.7054,182.411,-352.908,1835.77,9845.82,789.532,9.66937,-86.583,-68.9576,6179.41,-12056.3,9961.18,82.128,250.972,-46.7781,7395.87,1447.4,497.416,-64.4279,-28.2957,3.29655
4.004,5186.39,-1415.53,9159.29,40.5151,-67.4393,-48.0917,29541.8,14562.9,5430.1,-118.816,230.284,-277.523,917.62,10682.9,-249.939,-42.9196,-10.8656,-110.247,-8367.09,-26582.3,-11346.3,-57.4859,184.171,-351.492,1849.94,9847.75,743.096,9.53721,-86.884,-68.7581,6249.24,-12319.3,10195.5,85.0844,258.525,-47.4133,7375.71,1437.53,484.501,-64.9371,-28.3074,3.17245
4.0045,5193.74,-1408.37,9167.79,40.7006,-67.8091,-48.1068,29771.3,14490.4,5137.03,-119.032,228.664,-276.33,925.6,10696.9,-229.986,-43.0358,-10.7647,-110.677,-8499.71,-26302.9,-11568.7,-59.2582,185.993,-349.946,1866.06,9848.91,697.125,9.40483,-87.1512,-68.5518,6310.91,-12583.6,10435.4,88.1727,265.645,-48.1407,7357.66,1428.56,474.311,-65.4081,-28.3042,3.03453
4.005,5194.2,-1407.02,9193.98,40.8951,-68.2473,-48.1163,29988.5,14320.1,4879.73,-118.788,226.707,-275.05,932.453,10735.0,-219.468,-43.1082,-10.6238,-111.178,-8716.43,-26027.5,-11733.7,-60.9653,188.3,-347.358,1897.75,9843.89,654.868,9.27065,-87.149,-68.2917,6307.36,-12858.2,10719.6,92.3169,269.307,-49.6057,7356.46,1426.69,485.927,-65.5734,-28.1813,2.78611
4.0055,5194.65,-1405.67,9220.17,41.0896,-68.6855,-48.1258,30205.7,14149.9,4622.44,-118.543,224.749,-273.77,939.306,10773.2,-208.951,-43.1807,-10.4828,-111.678,-8933.14,-25752.1,-11898.7,-62.6723,190.607,-344.77,1929.44,9838.87,612.611,9.13646,-87.1469,-68.0316,6303.81,-13132.7,11003.8,96.4611,272.97,-51.0707,7355.25,1424.82,497.543,-65.7387,-28.0584,2.5377
4.006,5195.11,-1404.31,9246.36,41.284,-69.1238,-48.1353,30422.9,13979.7,4365.14,-118.298,222.792,-272.49,946.158,10811.3,-198.433,-43.2531,-10.3419,-112.178,-9149.86,-25476.6,-12063.7,-64.3794,192.915,-342.182,1961.14,9833.84,570.355,9.00228,-87.1447,-67.7715,6300.25,-13407.3,11287.9,100.605,276.632,-52.5356,7354.04,1422.95,509.159,-65.9041,-27.9355,2.28928
4.0065,5195.56,-1402.96,9272.55,41.4785,-69.562,-48.1447,30640.1,13809.4,4107.84,-118.053,220.835,-271.21,953.011,10849.4,-187.915,-43.3256,-10.2009,-112.678,-9366.57,-25201.2,-12228.8,-66.0864,195.222,-339.594,1992.83,9828.83,528.098,8.8681,-87.1425,-67.5114,6296.7,-13681.8,11572.1,104.749,280.294,-54.0006,7352.84,1421.09,520.774,-66.0694,-27.8126,2.04086
4.007,5196.02,-1401.61,9298.74,41.673,-70.0002,-48.1542,30857.3,13639.2,3850.55,-117.808,218.878,-269.931,959.864,10887.5,-177.398,-43.398,-10.06,-113.179,-9583.29,-24925.8,-12393.8,-67.7935,197.53,-337.006,2024.53,9823.8,485.842,8.73392,-87.1403,-67.2513,6293.14,-13956.4,11856.3,108.894,283.956,-55.4656,7351.63,1419.22,532.39,-66.2347,-27.6897,1.79244
4.0075,5196.47,-1400.26,9324.93,41.8675,-70.4385,-48.1637,31074.5,13468.9,3593.25,-117.564,216.921,-268.651,966.716,10925.7,-166.88,-43.4705,-9.91905,-113.679,-9800.0,-24650.4,-12558.8,-69.5005,199.837,-334.418,2056.22,9818.78,443.585,8.59974,-87.1381,-66.9912,6289.59,-14230.9,12140.4,113.038,287.618,-56.9305,7350.43,1417.35,544.006,-66.4001,-27.5668,1.54402
4.008,5196.93,-1398.91,9351.12,42.062,-70.8767,-48.1732,31291.6,13298.7,3335.96,-117.319,214.964,-267.371,973.569,10963.8,-156.362,-43.5429,-9.7781,-114.179,-10016.7,-24374.9,-12723.8,-71.2076,202.145,-331.83,2087.91,9813.76,401.329,8.46556,-87.136,-66.7311,6286.04,-14505.5,12424.6,117.182,291.281,-58.3955,7349.22,1415.48,555.622,-66.5654,-27.4439,1.2956
4.0085,5197.38,-1397.56,9377.31,42.2565,-71.3149,-48.1827,31508.8,13128.5,3078.66,-117.074,213.006,-266.091,980.422,11001.9,-145.845,-43.6154,-9.63715,-114.68,-10233.4,-24099.5,-12888.8,-72.9146,204.452,-329.242,2119.61,9808.74,359.072,8.33138,-87.1338,-66.471,6282.48,-14780.0,12708.8,121.326,294.943,-59.8605,7348.01,1413.61,567.238,-66.7307,-27.321,1.04719
4.009,5196.94,-1396.41,9405.2,42.4646,-71.7787,-48.196,31702.2,12935.1,2833.05,-116.598,210.919,-264.786,988.009,11038.7,-136.797,-43.6918,-9.49534,-115.168,-10472.8,-23839.9,-13018.3,-74.4849,206.69,-326.488,2148.31,9808.34,318.331,8.20427,-87.0796,-66.224,6306.24,-15050.1,12986.9,125.656,297.473,-61.5818,7347.78,1411.5,577.194,-66.8358,-27.197,0.783381
4.0095,5193.36,-1395.97,9439.06,42.7205,-72.332,-48.223,31812.2,12661.1,2628.32,-115.312,208.377,-263.392,998.167,11070.6,-132.895,-43.7821,-9.35052,-115.616,-10791.7,-23635.8,-13023.6,-75.5763,208.685,-323.152,2166.55,9824.1,282.895,8.10196,-86.8434,-66.0227,6425.55,-15304.5,13243.9,130.637,296.041,-64.2003,7350.94,1408.53,581.344,-66.7298,-27.0692,0.465726
4.01,5189.79,-1395.54,9472.92,42.9764,-72.8852,-48.25,31922.3,12387.0,2423.59,-114.026,205.835,-261.998,1008.33,11102.5,-128.994,-43.8724,-9.2057,-116.064,-11110.5,-23431.7,-13028.8,-76.6677,210.681,-319.816,2184.79,9839.86,247.459,7.99964,-86.6072,-65.8215,6544.87,-15558.9,13500.9,135.619,294.609,-66.8188,7354.11,1405.56,585.493,-66.6239,-26.9413,0.14807
4.0105,5186.21,-1395.11,9506.79,43.2322,-73.4384,-48.2769,32032.3,12113.0,2218.87,-112.739,203.293,-260.603,1018.48,11134.5,-125.092,-43.9628,-9.06087,-116.512,-11429.4,-23227.6,-13034.0,-77.7591,212.676,-316.48,2203.03,9855.63,212.023,7.89732,-86.3711,-65.6202,6664.19,-15813.3,13757.9,140.6,293.177,-69.4373,7357.27,1402.59,589.642,-66.518,-26.8135,-0.169585
4.011,5182.64,-1394.67,9540.65,43.4881,-73.9917,-48.3039,32142.3,11838.9,2014.14,-111.453,200.75,-259.209,1028.64,11166.4,-121.191,-44.0531,-8.91605,-116.96,-11748.3,-23023.5,-13039.2,-78.8505,214.672,-313.145,2221.28,9871.39,176.587,7.795,-86.1349,-65.4189,6783.51,-16067.6,14014.9,145.581,291.745,-72.0558,7360.44,1399.62,593.792,-66.4121,-26.6856,-0.48724
4.0115,5179.06,-1394.24,9574.51,43.744,-74.5449,-48.3309,32252.3,11564.9,1809.41,-110.167,198.208,-257.815,1038.8,11198.3,-117.289,-44.1434,-8.77122,-117.408,-12067.1,-22819.3,-13044.4,-79.9419,216.667,-309.809,2239.52,9887.15,141.151,7.69268,-85.8987,-65.2176,6902.83,-16322.0,14271.9,150.563,290.312,-74.6743,7363.6,1396.66,597.941,-66.3061,-26.5578,-0.804896
4.012,5175.49,-1393.81,9608.37,43.9999,-75.0982,-48.3578,32362.4,11290.9,1604.68,-108.881,195.666,-256.421,1048.96,11230.2,-113.388,-44.2337,-8.6264,-117.856,-12386.0,-22615.2,-13049.7,-81.0333,218.662,-306.473,2257.76,9902.91,105.715,7.59036,-85.6625,-65.0163,7022.15,-16576.4,14528.9,155.544,288.88,-77.2928,7366.77,1393.69,602.09,-66.2002,-26.43,-1.12255
4.0125,5171.91,-1393.37,9642.23,44.2557,-75.6514,-48.3848,32472.4,11016.8,1399.96,-107.595,193.124,-255.027,1059.12,11262.2,-109.486,-44.3241,-8.48157,-118.304,-12704.8,-22411.1,-13054.9,-82.1247,220.658,-303.137,2276.0,9918.68,70.2788,7.48804,-85.4264,-64.815,7141.47,-16830.8,14785.9,160.525,287.448,-79.9113,7369.93,1390.72,606.24,-66.0943,-26.3021,-1.44021
4.013,5168.34,-1392.94,9676.1,44.5116,-76.2046,-48.4117,32582.4,10742.8,1195.23,-106.309,190.582,-253.633,1069.27,11294.1,-105.584,-44.4144,-8.33675,-118.752,-13023.7,-22207.0,-13060.1,-83.2161,222.653,-299.801,2294.24,9934.44,34.8427,7.38572,-85.1902,-64.6138,7260.79,-17085.2,15042.9,165.507,286.016,-82.5298,7373.1,1387.75,610.389,-65.9884,-26.1743,-1.75786
4.0135,5164.91,-1389.69,9702.79,44.7603,-76.7751,-48.4396,32646.6,10425.8,998.579,-104.628,187.873,-252.273,1079.32,11323.7,-102.741,-44.5118,-8.17579,-119.205,-13358.7,-22031.3,-12994.0,-84.06,224.186,-296.412,2316.94,9950.51,0.811134,7.24395,-84.9519,-64.4903,7377.7,-17240.4,15210.5,169.444,284.04,-84.846,7381.01,1384.67,620.326,-65.803,-25.9974,-2.08577
4.014,5161.76,-1380.82,9715.14,44.9948,-77.38,-48.4694,32618.9,10023.1,818.079,-102.157,184.833,-250.981,1089.13,11348.8,-102.013,-44.6233,-7.98259,-119.668,-13726.1,-21912.3,-12785.4,-84.4087,224.795,-292.917,2348.56,9967.21,-30.4115,7.02329,-84.7095,-64.5224,7489.82,-17197.2,15199.6,171.293,280.976,-86.5577,7398.43,1381.37,641.838,-65.4588,-25.7226,-2.4342
4.0145,5158.62,-1371.94,9727.49,45.2292,-77.9849,-48.4991,32591.3,9620.42,637.579,-99.6867,181.792,-249.689,1098.95,11373.9,-101.286,-44.7347,-7.78938,-120.131,-14093.4,-21793.4,-12576.8,-84.7575,225.403,-289.422,2380.19,9983.9,-61.6342,6.80263,-84.4671,-64.5545,7601.93,-17154.1,15188.6,173.142,277.912,-88.2694,7415.84,1378.08,663.349,-65.1145,-25.4477,-2.78263
4.015,5155.48,-1363.07,9739.84,45.4636,-78.5898,-48.5288,32563.6,9217.72,457.08,-97.216,178.751,-248.398,1108.76,11399.0,-100.558,-44.8462,-7.59617,-120.594,-14460.8,-21674.5,-12368.2,-85.1062,226.012,-285.927,2411.81,10000.6,-92.8569,6.58196,-84.2247,-64.5867,7714.04,-17110.9,15177.7,174.991,274.847,-89.9811,7433.25,1374.78,684.861,-64.7703,-25.1729,-3.13106
4.0155,5152.34,-1354.19,9752.2,45.698,-79.1947,-48.5585,32536.0,8815.02,276.58,-94.7453,175.711,-247.106,1118.57,11424.2,-99.8307,-44.9577,-7.40296,-121.056,-14828.2,-21555.6,-12159.6,-85.455,226.621,-282.432,2443.43,10017.3,-124.08,6.3613,-83.9823,-64.6188,7826.15,-17067.8,15166.7,176.84,271.783,-91.6928,7450.66,1371.49,706.373,-64.4261,-24.8981,-3.47948
4.016,5149.19,-1345.32,9764.55,45.9325,-79.7997,-48.5883,32508.3,8412.32,96.0804,-92.2746,172.67,-245.814,1128.39,11449.3,-99.1031,-45.0692,-7.20975,-121.519,-15195.6,-21436.7,-11951.0,-85.8037,227.229,-278.937,2475.05,10034.0,-155.302,6.14064,-83.7398,-64.6509,7938.27,-17024.6,15155.8,178.689,268.719,-93.4045,7468.08,1368.19,727.884,-64.0818,-24.6232,-3.82791
4.0165,5146.05,-1336.44,9776.9,46.1669,-80.4046,-48.618,32480.7,8009.62,-84.4192,-89.8039,169.63,-244.523,1138.2,11474.4,-98.3756,-45.1807,-7.01654,-121.982,-15562.9,-21317.8,-11742.4,-86.1525,227.838,-275.442,2506.68,10050.7,-186.525,5.91998,-83.4974,-64.683,8050.38,-16981.4,15144.8,180.538,265.655,-95.1162,7485.49,1364.89,749.396,-63.7376,-24.3484,-4.17634
4.017,5142.91,-1327.57,9789.25,46.4013,-81.0095,-48.6477,32453.0,7606.92,-264.919,-87.3332,166.589,-243.231,1148.02,11499.5,-97.648,-45.2922,-6.82333,-122.445,-15930.3,-21198.8,-11533.8,-86.5013,228.446,-271.947,2538.3,10067.4,-217.748,5.69931,-83.255,-64.7151,8162.49,-16938.3,15133.8,182.387,262.591,-96.8279,7502.9,1361.6,770.908,-63.3934,-24.0735,-4.52476
4.0175,5139.76,-1318.69,9801.6,46.6358,-81.6144,-48.6774,32425.4,7204.21,-445.419,-84.8625,163.549,-241.939,1157.83,11524.6,-96.9205,-45.4037,-6.63012,-122.908,-16297.7,-21079.9,-11325.2,-86.85,229.055,-268.452,2569.92,10084.1,-248.97,5.47865,-83.0126,-64.7473,8274.6,-16895.1,15122.9,184.236,259.526,-98.5396,7520.32,1358.3,792.419,-63.0491,-23.7987,-4.87319
4.018,5139.15,-1315.39,9809.4,46.8535,-82.2397,-48.6878,32350.7,6796.24,-616.165,-81.9658,160.28,-240.672,1167.93,11554.6,-96.6722,-45.5135,-6.42749,-123.366,-16638.1,-20989.3,-11023.4,-86.8906,228.906,-265.115,2604.14,10102.3,-261.62,5.24495,-82.7626,-64.7218,8342.97,-16730.8,15014.3,184.349,257.365,-99.7398,7538.12,1356.28,809.882,-62.6721,-23.5186,-5.27417
4.0185,5141.7,-1319.03,9811.52,47.0504,-82.8904,-48.674,32217.3,6381.66,-774.719,-78.5366,156.726,-239.433,1178.39,11590.8,-97.0229,-45.6212,-6.21309,-123.82,-16944.9,-20934.2,-10605.1,-86.5458,227.809,-261.975,2641.61,10122.6,-251.052,4.99495,-82.5033,-64.6244,8356.65,-16415.0,14783.8,182.291,256.333,-100.301,7556.42,1355.86,822.283,-62.2542,-23.2319,-5.74084
4.019,5144.25,-1322.68,9813.63,47.2472,-83.5412,-48.6602,32083.9,5967.09,-933.273,-75.1074,153.173,-238.195,1188.84,11627.0,-97.3737,-45.7289,-5.99869,-124.273,-17251.6,-20879.1,-10186.7,-86.2011,226.712,-258.835,2679.07,10142.8,-240.484,4.74496,-82.244,-64.5269,8370.33,-16099.2,14553.3,180.234,255.301,-100.861,7574.72,1355.44,834.684,-61.8362,-22.9451,-6.20752
4.0195,5146.8,-1326.33,9815.74,47.4441,-84.192,-48.6464,31950.5,5552.51,-1091.83,-71.6782,149.619,-236.957,1199.3,11663.2,-97.7244,-45.8366,-5.78429,-124.726,-17558.4,-20824.0,-9768.35,-85.8563,225.616,-255.695,2716.54,10163.0,-229.917,4.49496,-81.9847,-64.4295,8384.01,-15783.4,14322.9,178.177,254.269,-101.422,7593.02,1355.02,847.085,-61.4183,-22.6584,-6.67419
4.02,5149.35,-1329.98,9817.85,47.6409,-84.8427,-48.6326,31817.1,5137.94,-1250.38,-68.249,146.066,-235.719,1209.76,11699.4,-98.0752,-45.9443,-5.56989,-125.179,-17865.1,-20768.9,-9350.0,-85.5116,224.519,-252.555,2754.0,10183.2,-219.349,4.24496,-81.7253,-64.332,8397.69,-15467.6,14092.4,176.119,253.237,-101.983,7611.32,1354.6,859.486,-61.0003,-22.3717,-7.14086
4.0205,5151.9,-1333.63,9819.97,47.8378,-85.4935,-48.6188,31683.7,4723.36,-1408.94,-64.8198,142.512,-234.481,1220.21,11735.6,-98.4259,-46.052,-5.35549,-125.632,-18171.9,-20713.8,-8931.64,-85.1668,223.422,-249.416,2791.47,10203.5,-208.782,3.99497,-81.466,-64.2345,8411.37,-15151.8,13861.9,174.062,252.204,-102.544,7629.62,1354.18,871.888,-60.5823,-22.085,-7.60754
4.021,5154.45,-1337.28,9822.08,48.0347,-86.1443,-48.605,31550.3,4308.79,-1567.49,-61.3905,138.958,-233.243,1230.67,11771.8,-98.7767,-46.1597,-5.1411,-126.085,-18478.6,-20658.6,-8513.29,-84.8221,222.326,-246.276,2828.93,10223.7,-198.214,3.74497,-81.2067,-64.1371,8425.05,-14836.0,13631.4,172.005,251.172,-103.105,7647.92,1353.76,884.289,-60.1644,-21.7983,-8.07421
4.0215,5157.0,-1340.93,9824.19,48.2315,-86.795,-48.5912,31416.9,3894.21,-1726.05,-57.9613,135.405,-232.005,1241.13,11808.0,-99.1274,-46.2674,-4.9267,-126.538,-18785.4,-20603.5,-8094.94,-84.4773,221.229,-243.136,2866.4,10243.9,-187.647,3.49497,-80.9473,-64.0396,8438.74,-14520.2,13400.9,169.947,250.14,-103.666,7666.22,1353.34,896.69,-59.7464,-21.5115,-8.54088
4.022,5159.55,-1344.58,9826.3,48.4284,-87.4458,-48.5773,31283.5,3479.64,-1884.6,-54.5321,131.851,-230.766,1251.58,11844.2,-99.4782,-46.3751,-4.7123,-126.991,-19092.1,-20548.4,-7676.58,-84.1326,220.132,-239.996,2903.86,10264.1,-177.079,3.24498,-80.688,-63.9422,8452.42,-14204.4,13170.4,167.89,249.108,-104.226,7684.52,1352.92,909.091,-59.3285,-21.2248,-9.00756
4.0225,5155.71,-1341.99,9848.03,48.6697,-88.1048,-48.5582,31137.7,3119.94,-2026.65,-50.9165,128.11,-229.458,1262.84,11877.0,-96.2733,-46.4656,-4.46822,-127.433,-19332.0,-20495.3,-7250.98,-83.6995,218.225,-237.077,2944.14,10267.7,-172.496,3.08,-80.3558,-63.869,8510.04,-13937.2,12967.3,166.001,249.03,-105.475,7716.02,1353.69,919.443,-58.8953,-21.0065,-9.47215
4.023,5146.74,-1334.4,9885.45,48.9465,-88.7703,-48.5349,30982.0,2804.15,-2155.5,-47.1517,124.219,-228.092,1274.73,11907.2,-90.2239,-46.5424,-4.20039,-127.867,-19518.4,-20443.8,-6819.58,-83.1959,215.669,-234.335,2986.67,10257.8,-172.7,2.98303,-79.9654,-63.8154,8602.83,-13708.9,12786.2,164.246,249.716,-107.273,7758.07,1355.41,928.156,-58.4501,-20.8428,-9.93509
4.0235,5137.78,-1326.82,9922.86,49.2232,-89.4359,-48.5115,30826.3,2488.36,-2284.35,-43.387,120.328,-226.727,1286.62,11937.3,-84.1745,-46.6191,-3.93256,-128.3,-19704.9,-20392.3,-6388.18,-82.6922,213.113,-231.593,3029.2,10248.0,-172.904,2.88606,-79.5749,-63.7617,8695.61,-13480.6,12605.2,162.491,250.402,-109.071,7800.13,1357.13,936.87,-58.0049,-20.6791,-10.398
4.024,5128.82,-1319.24,9960.28,49.5,-90.1014,-48.4882,30670.6,2172.57,-2413.2,-39.6222,116.436,-225.361,1298.51,11967.4,-78.1251,-46.6959,-3.66473,-128.734,-19891.3,-20340.8,-5956.78,-82.1886,210.557,-228.851,3071.74,10238.1,-173.108,2.78909,-79.1844,-63.708,8788.39,-13252.3,12424.1,160.736,251.088,-110.869,7842.18,1358.85,945.583,-57.5596,-20.5155,-10.8609
4.0245,5119.86,-1311.66,9997.7,49.7768,-90.767,-48.4648,30514.9,1856.78,-2542.05,-35.8575,112.545,-223.996,1310.4,11997.5,-72.0757,-46.7726,-3.3969,-129.167,-20077.7,-20289.2,-5525.38,-81.6849,208.001,-226.109,3114.27,10228.3,-173.312,2.69213,-78.794,-63.6543,8881.17,-13024.0,12243.0,158.982,251.774,-112.667,7884.24,1360.57,954.296,-57.1144,-20.3518,-11.3239
4.025,5110.9,-1304.08,10035.1,50.0536,-91.4325,-48.4415,30359.2,1540.99,-2670.9,-32.0927,108.654,-222.63,1322.29,12027.7,-66.0262,-46.8494,-3.12908,-129.601,-20264.1,-20237.7,-5093.99,-81.1813,205.446,-223.367,3156.8,10218.4,-173.516,2.59516,-78.4035,-63.6006,8973.95,-12795.7,12062.0,157.227,252.46,-114.465,7926.29,1362.29,963.009,-56.6692,-20.1882,-11.7868
4.0255,5101.93,-1296.5,10072.5,50.3304,-92.098,-48.4181,30203.5,1225.2,-2799.76,-28.328,104.763,-221.265,1334.18,12057.8,-59.9768,-46.9262,-2.86125,-130.034,-20450.5,-20186.2,-4662.59,-80.6776,202.89,-220.625,3199.33,10208.6,-173.72,2.49819,-78.013,-63.5469,9066.74,-12567.4,11880.9,155.472,253.146,-116.263,7968.35,1364.01,971.722,-56.2239,-20.0245,-12.2497
4.026,5092.97,-1288.92,10109.9,50.6072,-92.7636,-48.3948,30047.8,909.415,-2928.61,-24.5632,100.872,-219.899,1346.07,12087.9,-53.9274,-47.0029,-2.59342,-130.467,-20636.9,-20134.7,-4231.19,-80.1739,200.334,-217.883,3241.86,10198.7,-173.924,2.40122,-77.6225,-63.4933,9159.52,-12339.1,11699.8,153.717,253.832,-118.061,8010.4,1365.73,980.435,-55.7787,-19.8608,-12.7127
4.0265,5084.01,-1281.34,10147.4,50.884,-93.4291,-48.3715,29892.1,593.625,-3057.46,-20.7985,96.9805,-218.534,1357.97,12118.1,-47.878,-47.0797,-2.32559,-130.901,-20823.3,-20083.2,-3799.79,-79.6703,197.778,-215.14,3284.4,10188.9,-174.128,2.30425,-77.2321,-63.4396,9252.3,-12110.8,11518.8,151.962,254.518,-119.859,8052.46,1367.45,989.148,-55.3335,-19.6972,-13.1756
4.027,5078.94,-1280.47,10188.7,51.1994,-94.2012,-48.3823,29755.6,364.134,-3164.88,-17.4397,92.9532,-217.14,1369.08,12149.0,-37.5014,-47.184,-1.99739,-131.343,-20933.6,-20025.7,-3467.13,-79.1975,194.758,-212.482,3331.47,10190.1,-174.409,2.21471,-76.8227,-63.3604,9232.71,-11874.8,11320.6,149.637,255.297,-121.623,8092.63,1363.66,996.885,-54.9011,-19.5054,-13.6077
4.0275,5075.81,-1282.97,10232.1,51.5342,-95.0266,-48.4102,29628.7,177.791,-3261.6,-14.2839,88.858,-215.733,1379.8,12180.4,-24.9612,-47.3021,-1.63899,-131.788,-21005.8,-19965.2,-3183.85,-78.7402,191.507,-209.866,3380.81,10196.9,-174.729,2.12888,-76.4038,-63.2685,9156.93,-11635.0,11113.9,147.026,256.123,-123.371,8131.86,1357.13,1004.13,-54.4751,-19.2996,-14.0243
4.028,5072.69,-1285.46,10275.4,51.8689,-95.852,-48.4382,29501.8,-8.55233,-3358.31,-11.1281,84.7627,-214.325,1390.52,12211.8,-12.421,-47.4202,-1.2806,-132.234,-21078.0,-19904.7,-2900.57,-78.2829,188.255,-207.25,3430.15,10203.7,-175.048,2.04305,-75.985,-63.1766,9081.15,-11395.2,10907.2,144.416,256.949,-125.119,8171.09,1350.6,1011.38,-54.0491,-19.0939,-14.441
4.0285,5069.56,-1287.95,10318.7,52.2037,-96.6773,-48.4661,29374.9,-194.895,-3455.02,-7.97227,80.6675,-212.917,1401.24,12243.2,0.119263,-47.5384,-0.922206,-132.68,-21150.2,-19844.2,-2617.28,-77.8256,185.004,-204.634,3479.5,10210.5,-175.368,1.95722,-75.5661,-63.0847,9005.37,-11155.4,10700.4,141.805,257.775,-126.867,8210.32,1344.06,1018.63,-53.6232,-18.8881,-14.8577
4.029,5066.43,-1290.45,10362.1,52.5384,-97.5027,-48.494,29248.0,-381.238,-3551.73,-4.81647,76.5723,-211.51,1411.97,12274.6,12.6595,-47.6565,-0.563813,-133.126,-21222.4,-19783.7,-2334.0,-77.3683,181.752,-202.018,3528.84,10217.3,-175.687,1.87139,-75.1472,-62.9928,8929.6,-10915.6,10493.7,139.194,258.601,-128.615,8249.55,1337.53,1025.88,-53.1972,-18.6823,-15.2743
4.0295,5063.31,-1292.94,10405.4,52.8731,-98.3281,-48.522,29121.1,-567.581,-3648.45,-1.66066,72.477,-210.102,1422.69,12306.0,25.1997,-47.7746,-0.205419,-133.572,-21294.7,-19723.2,-2050.72,-76.911,178.5,-199.402,3578.18,10224.0,-176.007,1.78556,-74.7284,-62.9009,8853.82,-10675.8,10287.0,136.584,259.427,-130.363,8288.78,1331.0,1033.12,-52.7712,-18.4765,-15.691
4.03,5060.18,-1295.44,10448.7,53.2079,-99.1535,-48.5499,28994.2,-753.924,-3745.16,1.49515,68.3818,-208.695,1433.41,12337.4,37.7399,-47.8927,0.152974,-134.018,-21366.9,-19662.7,-1767.43,-76.4537,175.249,-196.786,3627.53,10230.8,-176.326,1.69973,-74.3095,-62.809,8778.04,-10436.0,10080.3,133.973,260.253,-132.11,8328.01,1324.47,1040.37,-52.3452,-18.2707,-16.1076
4.0305,5057.06,-1297.93,10492.1,53.5426,-99.9788,-48.5778,28867.3,-940.267,-3841.87,4.65095,64.2865,-207.287,1444.13,12368.8,50.2801,-48.0108,0.511367,-134.463,-21439.1,-19602.2,-1484.15,-75.9964,171.997,-194.17,3676.87,10237.6,-176.646,1.6139,-73.8907,-62.7171,8702.26,-10196.2,9873.55,131.362,261.079,-133.858,8367.24,1317.93,1047.62,-51.9193,-18.0649,-16.5243
4.031,5053.93,-1300.42,10535.4,53.8774,-100.804,-48.6058,28740.4,-1126.61,-3938.59,7.80676,60.1913,-205.879,1454.86,12400.2,62.8204,-48.1289,0.869761,-134.909,-21511.3,-19541.7,-1200.87,-75.5391,168.746,-191.554,3726.21,10244.4,-176.965,1.52807,-73.4718,-62.6252,8626.48,-9956.37,9666.83,128.752,261.905,-135.606,8406.47,1311.4,1054.87,-51.4933,-17.8591,-16.9409
4.0315,5051.0,-1297.76,10555.1,54.2539,-101.671,-48.6366,28672.2,-1229.51,-4045.93,9.79984,56.3251,-204.615,1470.33,12421.1,78.2695,-48.261,1.23352,-135.394,-21556.9,-19501.0,-1042.45,-74.9805,165.492,-188.96,3766.65,10258.2,-173.232,1.50977,-73.0047,-62.5194,8447.43,-9721.09,9463.32,123.095,260.331,-136.891,8447.99,1304.64,1072.89,-51.0081,-17.6625,-17.2855
4.032,5048.12,-1293.63,10567.9,54.6425,-102.55,-48.6682,28620.7,-1308.57,-4156.3,11.4607,52.5243,-203.391,1487.15,12439.0,94.5497,-48.3969,1.5988,-135.889,-21594.8,-19465.9,-919.704,-74.393,162.238,-186.373,3804.54,10273.9,-168.341,1.51076,-72.5238,-62.4095,8238.88,-9487.09,9260.73,116.567,258.071,-138.045,8490.16,1297.82,1093.99,-50.5059,-17.4684,-17.6094
4.0325,5045.24,-1289.5,10580.8,55.031,-103.429,-48.6999,28569.2,-1387.64,-4266.68,13.1216,48.7235,-202.167,1503.98,12456.9,110.83,-48.5329,1.96409,-136.384,-21632.8,-19430.8,-796.959,-73.8054,158.983,-183.785,3842.43,10289.7,-163.45,1.51176,-72.0429,-62.2997,8030.32,-9253.1,9058.15,110.039,255.811,-139.198,8532.33,1291.0,1115.09,-50.0037,-17.2744,-17.9334
4.033,5042.36,-1285.37,10593.7,55.4195,-104.308,-48.7315,28517.8,-1466.7,-4377.05,14.7824,44.9227,-200.943,1520.81,12474.8,127.11,-48.6689,2.32937,-136.879,-21670.7,-19395.7,-674.215,-73.2179,155.729,-181.198,3880.32,10305.4,-158.559,1.51275,-71.5621,-62.1899,7821.77,-9019.11,8855.56,103.512,253.552,-140.351,8574.5,1284.18,1136.19,-49.5016,-17.0804,-18.2573
4.0335,5039.48,-1281.24,10606.6,55.808,-105.187,-48.7631,28466.3,-1545.76,-4487.43,16.4433,41.1219,-199.719,1537.64,12492.8,143.39,-48.8049,2.69466,-137.375,-21708.7,-19360.6,-551.47,-72.6304,152.475,-178.61,3918.22,10321.2,-153.668,1.51374,-71.0812,-62.08,7613.21,-8785.12,8652.97,96.984,251.292,-141.504,8616.67,1277.36,1157.29,-48.9994,-16.8864,-18.5813
4.034,5036.6,-1277.1,10619.5,56.1966,-106.065,-48.7948,28414.9,-1624.82,-4597.81,18.1042,37.3211,-198.495,1554.46,12510.7,159.671,-48.9409,3.05995,-137.87,-21746.6,-19325.5,-428.725,-72.0429,149.22,-176.023,3956.11,10337.0,-148.777,1.51473,-70.6003,-61.9702,7404.66,-8551.13,8450.38,90.4564,249.032,-142.657,8658.84,1270.53,1178.4,-48.4973,-16.6923,-18.9053
4.0345,5033.73,-1272.97,10632.4,56.5851,-106.944,-48.8264,28363.4,-1703.88,-4708.18,19.765,33.5203,-197.271,1571.29,12528.6,175.951,-49.0769,3.42523,-138.365,-21784.6,-19290.4,-305.981,-71.4553,145.966,-173.435,3994.0,10352.7,-143.886,1.51573,-70.1194,-61.8604,7196.1,-8317.14,8247.8,83.9287,246.772,-143.81,8701.01,1263.71,1199.5,-47.9951,-16.4983,-19.2292
4.035,5030.85,-1268.84,10645.3,56.9736,-107.823,-48.858,28312.0,-1782.94,-4818.56,21.4259,29.7196,-196.048,1588.12,12546.5,192.231,-49.2129,3.79052,-138.861,-21822.5,-19255.3,-183.236,-70.8678,142.711,-170.848,4031.89,10368.5,-138.995,1.51672,-69.6385,-61.7506,6987.55,-8083.15,8045.21,77.4011,244.513,-144.963,8743.17,1256.89,1220.6,-47.4929,-16.3043,-19.5532
4.0355,5027.97,-1264.71,10658.2,57.3621,-108.702,-48.8897,28260.5,-1862.01,-4928.93,23.0868,25.9188,-194.824,1604.94,12564.4,208.511,-49.3489,4.1558,-139.356,-21860.5,-19220.2,-60.4915,-70.2803,139.457,-168.26,4069.78,10384.3,-134.104,1.51771,-69.1577,-61.6407,6778.99,-7849.15,7842.62,70.8734,242.253,-146.116,8785.34,1250.07,1241.7,-46.9908,-16.1102,-19.8771
4.036,5028.52,-1255.46,10666.9,57.8108,-109.556,-48.836,28199.0,-1952.64,-5040.07,23.2923,22.5951,-193.642,1634.79,12577.9,225.163,-49.5278,4.55083,-139.881,-21942.3,-19182.9,-121.877,-70.0962,136.764,-165.824,4104.06,10381.7,-147.485,1.61281,-68.7259,-61.4917,6745.26,-7704.65,7411.34,59.4877,236.811,-146.64,8829.33,1263.3,1333.7,-46.4962,-15.9282,-20.1382
4.0365,5029.49,-1245.57,10675.2,58.2669,-110.407,-48.7716,28136.3,-2044.71,-5151.29,23.3158,19.331,-192.465,1666.27,12590.8,241.862,-49.7121,4.94957,-140.409,-22029.7,-19145.3,-206.28,-69.9625,134.141,-163.406,4137.88,10376.8,-163.15,1.71967,-68.3003,-61.3379,6733.39,-7571.34,6951.47,47.4947,230.97,-147.085,8873.54,1279.03,1434.56,-46.0025,-15.7476,-20.3914
4.037,5030.47,-1235.69,10683.4,58.7231,-111.258,-48.7073,28073.6,-2136.79,-5262.52,23.3394,16.0669,-191.288,1697.74,12603.7,258.56,-49.8964,5.34831,-140.938,-22117.0,-19107.7,-290.682,-69.8288,131.518,-160.988,4171.71,10371.9,-178.815,1.82653,-67.8747,-61.184,6721.51,-7438.03,6491.61,35.5017,225.13,-147.531,8917.75,1294.77,1535.42,-45.5088,-15.567,-20.6446
4.0375,5031.44,-1225.8,10691.7,59.1792,-112.109,-48.643,28010.8,-2228.86,-5373.75,23.363,12.8028,-190.111,1729.22,12616.6,275.259,-50.0807,5.74705,-141.467,-22204.4,-19070.1,-375.084,-69.6951,128.895,-158.571,4205.53,10367.0,-194.48,1.93339,-67.4491,-61.0302,6709.64,-7304.71,6031.74,23.5087,219.29,-147.976,8961.96,1310.51,1636.27,-45.0151,-15.3864,-20.8978
4.038,5032.42,-1215.91,10699.9,59.6354,-112.96,-48.5786,27948.1,-2320.94,-5484.97,23.3866,9.53874,-188.935,1760.69,12629.5,291.957,-50.265,6.14579,-141.995,-22291.8,-19032.5,-459.486,-69.5614,126.272,-156.153,4239.36,10362.2,-210.145,2.04025,-67.0235,-60.8763,6697.76,-7171.4,5571.87,11.5157,213.449,-148.421,9006.18,1326.24,1737.13,-44.5214,-15.2058,-21.1511
4.0385,5033.4,-1206.02,10708.2,60.0915,-113.811,-48.5143,27885.4,-2413.02,-5596.2,23.4101,6.27466,-187.758,1792.17,12642.4,308.656,-50.4493,6.54453,-142.524,-22379.1,-18994.9,-543.888,-69.4278,123.65,-153.735,4273.18,10357.3,-225.81,2.14711,-66.5979,-60.7225,6685.89,-7038.08,5112.01,-0.47726,207.609,-148.867,9050.39,1341.98,1837.99,-44.0277,-15.0252,-21.4043
4.039,5034.37,-1196.14,10716.4,60.5477,-114.662,-48.4499,27822.6,-2505.09,-5707.43,23.4337,3.01058,-186.581,1823.65,12655.3,325.354,-50.6336,6.94328,-143.053,-22466.5,-18957.3,-628.291,-69.2941,121.027,-151.317,4307.01,10352.4,-241.475,2.25398,-66.1723,-60.5686,6674.01,-6904.77,4652.14,-12.4703,201.769,-149.312,9094.6,1357.71,1938.85,-43.5341,-14.8446,-21.6575
4.0395,5035.35,-1186.25,10724.7,61.0038,-115.513,-48.3856,27759.9,-2597.17,-5818.65,23.4573,-0.253496,-185.405,1855.12,12668.2,342.053,-50.8179,7.34202,-143.581,-22553.8,-18919.7,-712.693,-69.1604,118.404,-148.899,4340.83,10347.5,-257.14,2.36084,-65.7467,-60.4147,6662.14,-6771.46,4192.27,-24.4632,195.929,-149.757,9138.81,1373.45,2039.71,-43.0404,-14.664,-21.9107
4.04,5036.33,-1176.36,10732.9,61.46,-116.364,-48.3212,27697.2,-2689.24,-5929.88,23.4809,-3.51757,-184.228,1886.6,12681.1,358.751,-51.0022,7.74076,-144.11,-22641.2,-18882.1,-797.095,-69.0267,115.781,-146.482,4374.66,10342.7,-272.805,2.4677,-65.3211,-60.2609,6650.26,-6638.14,3732.41,-36.4562,190.088,-150.203,9183.02,1389.18,2140.57,-42.5467,-14.4834,-22.1639
4.0405,5039.97,-1173.75,10749.1,61.9722,-117.331,-48.1572,27465.6,-2975.41,-5646.77,25.0746,-6.93458,-182.216,1913.89,12709.1,371.383,-51.1893,8.20702,-144.656,-22904.5,-18821.6,-797.009,-68.0362,114.374,-144.27,4392.97,10330.9,-298.98,2.69081,-65.0707,-60.0589,7016.62,-6732.09,2883.34,-46.1822,185.068,-149.141,9186.62,1399.76,2325.41,-41.4968,-14.559,-22.4616
4.041,5043.62,-1171.14,10765.4,62.4845,-118.299,-47.9931,27233.9,-3261.58,-5363.66,26.6684,-10.3516,-180.204,1941.19,12737.1,384.016,-51.3763,8.67328,-145.203,-23167.8,-18761.1,-796.924,-67.0457,112.967,-142.058,4411.28,10319.2,-325.154,2.91393,-64.8202,-59.8569,7382.98,-6826.04,2034.26,-55.9081,180.048,-148.079,9190.21,1410.34,2510.24,-40.4468,-14.6347,-22.7592
4.0415,5047.27,-1168.52,10781.6,62.9968,-119.267,-47.8291,27002.3,-3547.75,-5080.55,28.2622,-13.7686,-178.192,1968.48,12765.2,396.648,-51.5634,9.13954,-145.749,-23431.1,-18700.6,-796.838,-66.0552,111.561,-139.846,4429.6,10307.4,-351.329,3.13705,-64.5698,-59.6549,7749.34,-6920.0,1185.19,-65.634,175.027,-147.017,9193.81,1420.92,2695.07,-39.3969,-14.7103,-23.0568
4.042,5050.91,-1165.91,10797.8,63.5091,-120.234,-47.665,26770.7,-3833.91,-4797.44,29.856,-17.1856,-176.18,1995.78,12793.2,409.28,-51.7505,9.6058,-146.296,-23694.4,-18640.1,-796.752,-65.0647,110.154,-137.634,4447.91,10295.7,-377.504,3.36016,-64.3193,-59.453,8115.7,-7013.95,336.123,-75.36,170.007,-145.954,9197.41,1431.5,2879.91,-38.3469,-14.7859,-23.3545
4.0425,5054.56,-1163.3,10814.0,64.0214,-121.202,-47.5009,26539.1,-4120.08,-4514.33,31.4498,-20.6026,-174.168,2023.07,12821.2,421.912,-51.9376,10.0721,-146.842,-23957.6,-18579.7,-796.667,-64.0742,108.747,-135.422,4466.23,10283.9,-403.678,3.58328,-64.0688,-59.251,8482.06,-7107.9,-512.948,-85.0859,164.986,-144.892,9201.0,1442.08,3064.74,-37.297,-14.8616,-23.6521
4.043,5058.21,-1160.69,10830.2,64.5336,-122.17,-47.3369,26307.4,-4406.25,-4231.22,33.0435,-24.0196,-172.156,2050.37,12849.3,434.545,-52.1247,10.5383,-147.388,-24220.9,-18519.2,-796.581,-63.0837,107.341,-133.21,4484.54,10272.2,-429.853,3.80639,-63.8184,-59.049,8848.42,-7201.85,-1362.02,-94.8119,159.966,-143.83,9204.6,1452.66,3249.58,-36.247,-14.9372,-23.9498
4.0435,5061.85,-1158.07,10846.5,65.0459,-123.137,-47.1728,26075.8,-4692.42,-3948.11,34.6373,-27.4366,-170.144,2077.66,12877.3,447.177,-52.3117,11.0046,-147.935,-24484.2,-18458.7,-796.495,-62.0932,105.934,-130.998,4502.85,10260.4,-456.027,4.02951,-63.5679,-58.847,9214.78,-7295.8,-2211.09,-104.538,154.946,-142.768,9208.19,1463.24,3434.41,-35.1971,-15.0128,-24.2474
4.044,5065.5,-1155.46,10862.7,65.5582,-124.105,-47.0088,25844.2,-4978.58,-3665.0,36.2311,-30.8536,-168.132,2104.96,12905.3,459.809,-52.4988,11.4708,-148.481,-24747.5,-18398.2,-796.409,-61.1027,104.527,-128.786,4521.17,10248.7,-482.202,4.25263,-63.3175,-58.6451,9581.14,-7389.75,-3060.16,-114.264,149.925,-141.706,9211.79,1473.82,3619.25,-34.1471,-15.0884,-24.545
4.0445,5066.43,-1152.04,10878.5,66.0746,-125.072,-46.8475,25603.6,-5337.62,-3383.15,38.3652,-34.4232,-166.129,2130.9,12933.0,474.278,-52.6889,11.9561,-149.019,-25004.0,-18341.5,-738.087,-59.721,102.86,-126.566,4540.25,10237.0,-510.979,4.4837,-63.0683,-58.4435,9956.59,-7497.01,-3889.59,-123.089,145.17,-140.299,9217.17,1485.84,3796.07,-32.995,-15.1842,-24.8131
4.045,5045.58,-1142.19,10891.5,66.6237,-126.037,-46.708,25290.7,-6279.57,-3111.35,44.8214,-39.2137,-164.2,2146.07,12958.0,503.44,-52.9031,12.5939,-149.49,-25206.5,-18314.8,-213.874,-55.2094,99.1136,-124.274,4565.46,10225.5,-560.577,4.77847,-62.8297,-58.2451,10404.7,-7710.71,-4561.92,-124.713,142.531,-136.126,9236.83,1509.39,3908.78,-31.0254,-15.4411,-24.845
4.0455,5024.74,-1132.34,10904.4,67.1728,-127.001,-46.5685,24977.8,-7221.53,-2839.56,51.2777,-44.0042,-162.272,2161.24,12983.0,532.601,-53.1173,13.2316,-149.96,-25409.0,-18288.1,310.339,-50.6977,95.3669,-121.982,4590.67,10214.0,-610.175,5.07324,-62.591,-58.0467,10852.8,-7924.42,-5234.25,-126.336,139.893,-131.954,9256.49,1532.93,4021.49,-29.0558,-15.6979,-24.8768
4.046,5003.89,-1122.49,10917.3,67.7219,-127.965,-46.429,24664.9,-8163.49,-2567.76,57.734,-48.7947,-160.343,2176.4,13008.1,561.763,-53.3315,13.8694,-150.43,-25611.6,-18261.4,834.552,-46.1861,91.6202,-119.69,4615.89,10202.4,-659.773,5.368,-62.3523,-57.8483,11300.9,-8138.12,-5906.58,-127.959,137.254,-127.782,9276.16,1556.48,4134.2,-27.0862,-15.9548,-24.9086
4.0465,4983.05,-1112.63,10930.3,68.271,-128.93,-46.2895,24352.1,-9105.45,-2295.96,64.1902,-53.5852,-158.415,2191.57,13033.1,590.925,-53.5457,14.5071,-150.901,-25814.1,-18234.8,1358.76,-41.6745,87.8735,-117.398,4641.1,10190.9,-709.371,5.66277,-62.1137,-57.6499,11749.0,-8351.82,-6578.91,-129.582,134.615,-123.609,9295.82,1580.03,4246.92,-25.1166,-16.2117,-24.9404
4.047,4962.2,-1102.78,10943.2,68.8201,-129.894,-46.15,24039.2,-10047.4,-2024.17,70.6465,-58.3757,-156.486,2206.74,13058.1,620.087,-53.7599,15.1449,-151.371,-26016.6,-18208.1,1882.98,-37.1629,84.1268,-115.106,4666.31,10179.4,-758.97,5.95753,-61.875,-57.4515,12197.1,-8565.53,-7251.24,-131.205,131.977,-119.437,9315.48,1603.58,4359.63,-23.147,-16.4685,-24.9723
4.0475,4941.36,-1092.93,10956.1,69.3692,-130.858,-46.0105,23726.3,-10989.4,-1752.37,77.1028,-63.1662,-154.558,2221.91,13083.1,649.248,-53.9741,15.7826,-151.842,-26219.1,-18181.4,2407.19,-32.6512,80.3802,-112.815,4691.53,10167.9,-808.568,6.2523,-61.6364,-57.2531,12645.3,-8779.23,-7923.57,-132.829,129.338,-115.265,9335.14,1627.13,4472.34,-21.1775,-16.7254,-25.0041
4.048,4920.51,-1083.08,10969.1,69.9183,-131.823,-45.871,23413.5,-11931.3,-1480.57,83.559,-67.9567,-152.629,2237.07,13108.1,678.41,-54.1883,16.4203,-152.312,-26421.6,-18154.8,2931.4,-28.1396,76.6335,-110.523,4716.74,10156.4,-858.166,6.54707,-61.3977,-57.0547,13093.4,-8992.93,-8595.9,-134.452,126.7,-111.093,9354.8,1650.68,4585.05,-19.2079,-16.9823,-25.0359
4.0485,4899.67,-1073.23,10982.0,70.4674,-132.787,-45.7316,23100.6,-12873.3,-1208.78,90.0153,-72.7472,-150.701,2252.24,13133.1,707.572,-54.4025,17.0581,-152.783,-26624.1,-18128.1,3455.62,-23.628,72.8868,-108.231,4741.95,10144.9,-907.764,6.84183,-61.1591,-56.8563,13541.5,-9206.64,-9268.23,-136.075,124.061,-106.92,9374.46,1674.22,4697.76,-17.2383,-17.2391,-25.0678
4.049,4878.15,-1055.63,10994.9,71.0327,-133.732,-45.5929,22889.7,-13869.4,-1084.74,95.9207,-77.2498,-149.255,2267.63,13154.1,736.273,-54.6324,17.7361,-153.254,-26733.4,-18119.1,4013.13,-19.2249,68.5632,-105.95,4763.43,10137.4,-954.187,7.0872,-60.9357,-56.6693,13971.2,-9453.4,-9826.51,-136.211,121.643,-102.265,9402.83,1693.03,4766.57,-15.3738,-17.4037,-24.9901
4.0495,4854.27,-1010.92,11007.8,71.655,-134.612,-45.4569,23035.8,-15055.2,-1477.87,99.8979,-80.7449,-149.499,2283.81,13160.7,763.361,-54.9173,18.5551,-153.73,-26516.4,-18172.2,4687.22,-15.2019,62.2203,-103.705,4771.81,10144.1,-989.498,7.15968,-60.766,-56.5218,14336.3,-9815.87,-9985.63,-131.144,119.995,-95.9216,9461.65,1695.22,4681.73,-13.8772,-17.2453,-24.5292
4.05,4830.39,-966.21,11020.7,72.2773,-135.492,-45.321,23181.8,-16241.0,-1871.01,103.875,-84.2399,-149.742,2299.99,13167.3,790.449,-55.2021,19.3741,-154.205,-26299.5,-18225.3,5361.3,-11.1788,55.8774,-101.46,4780.2,10150.9,-1024.81,7.23217,-60.5964,-56.3744,14701.5,-10178.3,-10144.7,-126.077,118.347,-89.5777,9520.47,1697.42,4596.89,-12.3805,-17.0868,-24.0683
4.0505,4806.52,-921.501,11033.7,72.8996,-136.371,-45.1851,23327.9,-17426.8,-2264.14,107.852,-87.735,-149.986,2316.17,13173.9,817.537,-55.487,20.1932,-154.681,-26082.5,-18278.4,6035.39,-7.15573,49.5345,-99.2149,4788.58,10157.6,-1060.12,7.30465,-60.4267,-56.227,15066.7,-10540.8,-10303.9,-121.009,116.7,-83.2339,9579.29,1699.62,4512.04,-10.8839,-16.9284,-23.6074
4.051,4782.64,-876.793,11046.6,73.5219,-137.251,-45.0492,23473.9,-18612.6,-2657.27,111.83,-91.2301,-150.23,2332.35,13180.5,844.625,-55.7719,21.0122,-155.156,-25865.6,-18331.5,6709.47,-3.13265,43.1917,-96.97,4796.97,10164.3,-1095.43,7.37713,-60.257,-56.0795,15431.9,-10903.3,-10463.0,-115.942,115.052,-76.89,9638.12,1701.81,4427.2,-9.38729,-16.77,-23.1465
4.0515,4758.76,-832.084,11059.5,74.1442,-138.131,-44.9133,23620.0,-19798.4,-3050.41,115.807,-94.7251,-150.474,2348.52,13187.1,871.713,-56.0567,21.8312,-155.632,-25648.6,-18384.6,7383.56,0.890417,36.8488,-94.7251,4805.35,10171.0,-1130.74,7.44961,-60.0873,-55.9321,15797.1,-11265.7,-10622.1,-110.874,113.404,-70.5462,9696.94,1704.01,4342.36,-7.89066,-16.6115,-22.6856
4.052,4734.88,-787.375,11072.4,74.7665,-139.011,-44.7773,23766.0,-20984.2,-3443.54,119.784,-98.2202,-150.717,2364.7,13193.7,898.801,-56.3416,22.6502,-156.107,-25431.6,-18437.6,8057.64,4.91349,30.5059,-92.4802,4813.74,10177.7,-1166.05,7.52209,-59.9177,-55.7847,16162.2,-11628.2,-10781.2,-105.807,111.756,-64.2023,9755.76,1706.2,4257.51,-6.39404,-16.4531,-22.2247
4.0525,4711.0,-742.667,11085.3,75.3888,-139.89,-44.6414,23912.1,-22170.0,-3836.67,123.761,-101.715,-150.961,2380.88,13200.3,925.889,-56.6265,23.4692,-156.583,-25214.7,-18490.7,8731.73,8.93656,24.163,-90.2353,4822.12,10184.5,-1201.36,7.59457,-59.748,-55.6372,16527.4,-11990.7,-10940.3,-100.74,110.109,-57.8584,9814.58,1708.4,4172.67,-4.89742,-16.2947,-21.7638
4.053,4687.12,-697.958,11098.2,76.0111,-140.77,-44.5055,24058.1,-23355.8,-4229.8,127.738,-105.21,-151.205,2397.06,13207.0,952.977,-56.9113,24.2882,-157.058,-24997.7,-18543.8,9405.81,12.9596,17.8202,-87.9904,4830.51,10191.2,-1236.68,7.66706,-59.5783,-55.4898,16892.6,-12353.1,-11099.5,-95.6721,108.461,-51.5146,9873.4,1710.6,4087.83,-3.40079,-16.1362,-21.3029
4.0535,4671.11,-651.059,11112.7,76.6809,-141.663,-44.2949,24399.1,-24011.6,-4604.5,129.835,-107.708,-151.086,2408.98,13209.2,975.88,-57.1905,25.1406,-157.558,-24784.4,-18555.1,9783.79,16.4092,11.2684,-85.5549,4838.15,10189.6,-1270.75,7.73558,-59.3829,-55.3517,17269.4,-12757.0,-11114.2,-89.4195,106.251,-45.8124,9936.22,1685.25,3980.07,-2.30612,-15.8918,-20.8584
4.054,4670.83,-599.779,11130.4,77.4457,-142.583,-43.9351,25129.8,-23607.5,-4942.34,128.17,-108.21,-150.242,2412.37,13202.8,990.415,-57.4584,26.0594,-158.107,-24578.3,-18482.7,9569.55,18.7119,4.29902,-82.7379,4844.3,10171.4,-1302.33,7.79618,-59.1362,-55.2322,17669.6,-13243.5,-10840.3,-80.7965,102.916,-41.3935,10007.0,1604.82,3826.5,-2.01536,-15.4754,-20.4467
4.0545,4670.54,-548.498,11148.1,78.2105,-143.502,-43.5752,25860.5,-23203.3,-5280.18,126.505,-108.713,-149.398,2415.76,13196.4,1004.95,-57.7263,26.9783,-158.657,-24372.2,-18410.2,9355.31,21.0146,-2.6704,-79.9209,4850.46,10153.2,-1333.92,7.85678,-58.8894,-55.1127,18069.8,-13730.0,-10566.4,-72.1734,99.5817,-36.9747,10077.8,1524.39,3672.93,-1.72459,-15.059,-20.0349
4.055,4670.26,-497.218,11165.8,78.9754,-144.421,-43.2153,26591.2,-22799.2,-5618.01,124.84,-109.216,-148.555,2419.14,13190.0,1019.49,-57.9942,27.8972,-159.206,-24166.0,-18337.8,9141.07,23.3173,-9.63982,-77.104,4856.61,10135.0,-1365.51,7.91737,-58.6427,-54.9932,18470.0,-14216.5,-10292.4,-63.5504,96.2472,-32.5558,10148.6,1443.96,3519.36,-1.43383,-14.6425,-19.6232
4.0555,4669.98,-445.937,11183.5,79.7402,-145.341,-42.8555,27321.9,-22395.0,-5955.85,123.175,-109.718,-147.711,2422.53,13183.6,1034.02,-58.2621,28.816,-159.755,-23959.9,-18265.4,8926.83,25.62,-16.6092,-74.287,4862.77,10116.8,-1397.1,7.97797,-58.3959,-54.8737,18870.2,-14703.0,-10018.5,-54.9273,92.9127,-28.137,10219.4,1363.53,3365.79,-1.14306,-14.2261,-19.2115
4.056,4669.7,-394.657,11201.2,80.505,-146.26,-42.4956,28052.6,-21990.9,-6293.69,121.51,-110.221,-146.867,2425.92,13177.1,1048.56,-58.53,29.7349,-160.304,-23753.8,-18193.0,8712.59,27.9226,-23.5787,-71.47,4868.92,10098.6,-1428.69,8.03857,-58.1492,-54.7543,19270.3,-15189.5,-9744.57,-46.3043,89.5782,-23.7181,10290.2,1283.1,3212.21,-0.8523,-13.8097,-18.7997
4.0565,4669.42,-343.377,11218.8,81.2698,-147.18,-42.1357,28783.3,-21586.7,-6631.52,119.845,-110.723,-146.024,2429.31,13170.7,1063.09,-58.7979,30.6538,-160.854,-23547.7,-18120.6,8498.35,30.2253,-30.5481,-68.6531,4875.08,10080.3,-1460.27,8.09917,-57.9024,-54.6348,19670.5,-15676.1,-9470.64,-37.6812,86.2436,-19.2992,10361.0,1202.67,3058.64,-0.561536,-13.3933,-18.388
4.057,4669.13,-292.096,11236.5,82.0346,-148.099,-41.7759,29514.0,-21182.6,-6969.36,118.18,-111.226,-145.18,2432.7,13164.3,1077.63,-59.0658,31.5727,-161.403,-23341.6,-18048.2,8284.12,32.528,-37.5175,-65.8361,4881.23,10062.1,-1491.86,8.15977,-57.6557,-54.5153,20070.7,-16162.6,-9196.71,-29.0582,82.9091,-14.8804,10431.8,1122.24,2905.07,-0.270771,-12.9769,-17.9763
4.0575,4668.85,-240.816,11254.2,82.7994,-149.019,-41.416,30244.7,-20778.4,-7307.2,116.516,-111.728,-144.336,2436.09,13157.9,1092.16,-59.3337,32.4915,-161.952,-23135.5,-17975.8,8069.88,34.8307,-44.4869,-63.0192,4887.39,10043.9,-1523.45,8.22037,-57.4089,-54.3958,20470.9,-16649.1,-8922.78,-20.4351,79.5746,-10.4615,10502.6,1041.81,2751.5,0.0199932,-12.5604,-17.5645
4.058,4674.04,-207.677,11271.8,83.6199,-149.973,-40.9852,30955.9,-19730.2,-7558.23,113.913,-111.404,-141.337,2436.53,13158.2,1100.71,-59.5921,33.2922,-162.49,-23018.4,-17826.1,7568.73,36.8995,-49.6018,-60.2286,4883.4,10024.2,-1560.65,8.2795,-57.1642,-54.2809,20835.1,-16917.0,-8398.2,-12.0839,73.8588,-7.37345,10573.8,958.254,2620.17,-0.0688373,-12.1927,-17.162
4.0585,4686.08,-197.215,11289.0,84.5099,-150.972,-40.4656,31642.8,-17876.8,-7700.75,110.138,-110.044,-135.644,2433.27,13167.0,1101.77,-59.8388,33.9451,-163.015,-23012.5,-17580.0,6708.94,38.6759,-52.3986,-57.471,4866.72,10002.6,-1604.87,8.3368,-56.9219,-54.1717,21154.3,-16911.5,-7560.3,-4.07261,65.1665,-5.9489,10645.5,870.797,2516.63,-0.632162,-11.8858,-16.771
4.059,4698.13,-186.752,11306.3,85.3999,-151.971,-39.9461,32329.7,-16023.3,-7843.28,106.364,-108.685,-129.95,2430.01,13175.7,1102.84,-60.0854,34.598,-163.539,-23006.7,-17333.9,5849.15,40.4523,-55.1954,-54.7134,4850.04,9980.93,-1649.08,8.3941,-56.6796,-54.0625,21473.4,-16906.1,-6722.41,3.93871,56.4742,-4.52434,10717.2,783.34,2413.1,-1.19549,-11.579,-16.38
4.0595,4710.17,-176.29,11323.6,86.2899,-152.97,-39.4265,33016.6,-14169.9,-7985.81,102.589,-107.326,-124.257,2426.75,13184.5,1103.9,-60.3321,35.2509,-164.064,-23000.8,-17087.8,4989.36,42.2287,-57.9922,-51.9557,4833.36,9959.3,-1693.3,8.4514,-56.4373,-53.9533,21792.6,-16900.7,-5884.51,11.95,47.7819,-3.09978,10788.9,695.883,2309.57,-1.75881,-11.2721,-15.989
4.06,4722.21,-165.828,11340.9,87.1799,-153.969,-38.907,33703.4,-12316.5,-8128.33,98.8146,-105.967,-118.563,2423.5,13193.2,1104.97,-60.5787,35.9037,-164.588,-22994.9,-16841.7,4129.57,44.0051,-60.789,-49.1981,4816.69,9937.66,-1737.51,8.50869,-56.195,-53.8441,22111.8,-16895.2,-5046.62,19.9614,39.0896,-1.67523,10860.6,608.426,2206.03,-2.32213,-10.9652,-15.598
4.0605,4734.25,-155.365,11358.2,88.0699,-154.968,-38.3875,34390.3,-10463.1,-8270.86,95.04,-104.607,-112.87,2420.24,13201.9,1106.03,-60.8254,36.5566,-165.113,-22989.1,-16595.5,3269.78,45.7815,-63.5858,-46.4405,4800.01,9916.03,-1781.73,8.56599,-55.9527,-53.7349,22431.0,-16889.8,-4208.72,27.9727,30.3972,-0.250672,10932.3,520.969,2102.5,-2.88546,-10.6584,-15.2069
4.061,4746.29,-144.903,11375.4,88.9599,-155.967,-37.8679,35077.2,-8609.67,-8413.38,91.2654,-103.248,-107.176,2416.98,13210.7,1107.09,-61.072,37.2095,-165.638,-22983.2,-16349.4,2409.99,47.5579,-66.3826,-43.6829,4783.33,9894.4,-1825.94,8.62329,-55.7104,-53.6257,22750.1,-16884.4,-3370.82,35.984,21.7049,1.17388,11003.9,433.512,1998.96,-3.44878,-10.3515,-14.8159
4.0615,4758.33,-134.441,11392.7,89.85,-156.966,-37.3484,35764.0,-6756.25,-8555.91,87.4907,-101.889,-101.483,2413.72,13219.4,1108.16,-61.3187,37.8624,-166.162,-22977.4,-16103.3,1550.2,49.3343,-69.1794,-40.9253,4766.65,9872.76,-1870.16,8.68059,-55.4681,-53.5165,23069.3,-16879.0,-2532.93,43.9953,13.0126,2.59844,11075.6,346.055,1895.43,-4.01211,-10.0447,-14.4249
4.062,4770.37,-123.979,11410.0,90.74,-157.965,-36.8288,36450.9,-4902.83,-8698.44,83.7161,-100.53,-95.789,2410.46,13228.2,1109.22,-61.5653,38.5153,-166.687,-22971.5,-15857.2,690.411,51.1108,-71.9762,-38.1677,4749.98,9851.13,-1914.37,8.73789,-55.2259,-53.4073,23388.5,-16873.5,-1695.03,52.0067,4.32027,4.02299,11147.3,258.598,1791.9,-4.57543,-9.73778,-14.0339
4.0625,4784.62,-155.729,11420.8,91.617,-159.026,-36.4134,36896.5,-3354.83,-8843.43,78.7282,-98.3097,-88.8444,2407.67,13241.0,1079.55,-61.8219,39.0146,-167.178,-23008.4,-15480.9,-26.9968,51.4975,-72.0544,-35.3254,4738.39,9830.17,-1944.23,8.71985,-54.9752,-53.2774,23518.7,-16695.6,-859.096,57.8427,-5.94242,4.06519,11200.0,179.727,1753.71,-4.96361,-9.63814,-13.6801
4.063,4800.65,-221.249,11426.5,92.4837,-160.137,-36.0813,37149.1,-2051.17,-8990.4,72.7696,-95.4011,-80.899,2405.24,13257.0,1025.3,-62.0865,39.3911,-167.642,-23079.4,-15000.5,-630.5,50.7725,-69.9577,-32.4153,4730.88,9809.75,-1962.6,8.64154,-54.7179,-53.1309,23497.7,-16379.8,-24.7295,61.9386,-17.4614,3.00149,11237.5,107.725,1767.79,-5.21167,-9.70428,-13.3561
4.0635,4816.67,-286.769,11432.3,93.3504,-161.247,-35.7492,37401.6,-747.51,-9137.36,66.811,-92.4924,-72.9536,2402.81,13273.0,971.045,-62.351,39.7676,-168.106,-23150.5,-14520.0,-1234.0,50.0475,-67.8611,-29.5053,4723.37,9789.33,-1980.97,8.56322,-54.4605,-52.9843,23476.7,-16063.9,809.637,66.0344,-28.9804,1.93779,11275.0,35.7231,1781.87,-5.45972,-9.77042,-13.0321
4.064,4832.7,-352.289,11438.0,94.2171,-162.357,-35.4171,37654.2,556.152,-9284.33,60.8524,-89.5838,-65.0081,2400.38,13289.1,916.79,-62.6156,40.1441,-168.571,-23221.5,-14039.6,-1837.5,49.3224,-65.7644,-26.5952,4715.85,9768.92,-1999.34,8.48491,-54.2032,-52.8378,23455.8,-15748.1,1644.0,70.1302,-40.4994,0.874097,11312.4,-36.2789,1795.95,-5.70778,-9.83656,-12.708
4.0645,4848.72,-417.809,11443.7,95.0838,-163.468,-35.085,37906.8,1859.81,-9431.3,54.8938,-86.6752,-57.0627,2397.95,13305.1,862.535,-62.8801,40.5205,-169.035,-23292.5,-13559.2,-2441.01,48.5974,-63.6677,-23.6851,4708.34,9748.5,-2017.71,8.4066,-53.9458,-52.6913,23434.8,-15432.2,2478.37,74.2261,-52.0184,-0.1896,11349.9,-108.281,1810.03,-5.95584,-9.9027,-12.384
4.065,4864.75,-483.329,11449.4,95.9505,-164.578,-34.7529,38159.4,3163.47,-9578.27,48.9352,-83.7666,-49.1173,2395.53,13321.1,808.28,-63.1447,40.897,-169.499,-23363.6,-13078.8,-3044.51,47.8724,-61.571,-20.7751,4700.83,9728.08,-2036.08,8.32829,-53.6885,-52.5448,23413.8,-15116.3,3312.74,78.3219,-63.5374,-1.2533,11387.3,-180.283,1824.11,-6.20389,-9.96884,-12.06
4.0655,4880.78,-548.849,11455.1,96.8172,-165.688,-34.4209,38411.9,4467.14,-9725.23,42.9766,-80.8579,-41.1719,2393.1,13337.2,754.025,-63.4092,41.2735,-169.964,-23434.6,-12598.4,-3648.01,47.1474,-59.4744,-17.865,4693.32,9707.67,-2054.45,8.24998,-53.4311,-52.3983,23392.8,-14800.5,4147.1,82.4178,-75.0564,-2.31699,11424.8,-252.285,1838.19,-6.45195,-10.035,-11.7359
4.066,4896.8,-614.369,11460.8,97.6839,-166.799,-34.0888,38664.5,5770.8,-9872.2,37.018,-77.9493,-33.2264,2390.67,13353.2,699.77,-63.6737,41.65,-170.428,-23505.7,-12118.0,-4251.52,46.4224,-57.3777,-14.955,4685.81,9687.25,-2072.83,8.17167,-53.1738,-52.2517,23371.9,-14484.6,4981.47,86.5136,-86.5754,-3.38069,11462.3,-324.287,1852.27,-6.70001,-10.1011,-11.4119
4.0665,4912.83,-679.889,11466.5,98.5506,-167.909,-33.7567,38917.1,7074.46,-10019.2,31.0594,-75.0407,-25.281,2388.24,13369.2,645.515,-63.9383,42.0265,-170.892,-23576.7,-11637.6,-4855.02,45.6974,-55.281,-12.0449,4678.3,9666.83,-2091.2,8.09336,-52.9165,-52.1052,23350.9,-14168.7,5815.84,90.6095,-98.0944,-4.44439,11499.7,-396.289,1866.35,-6.94806,-10.1673,-11.0879
4.067,4920.09,-773.422,11463.5,99.1942,-169.074,-33.6761,38888.1,7486.5,-10036.8,24.9002,-72.1598,-18.5543,2366.84,13377.7,578.756,-64.1216,42.3368,-171.342,-23534.4,-11217.3,-5137.22,44.272,-52.8512,-8.6673,4669.32,9651.3,-2087.9,7.91129,-52.6605,-51.9809,23040.7,-13888.9,6214.88,91.0909,-106.945,-6.58992,11512.9,-471.934,1885.6,-6.70389,-10.2745,-10.8673
4.0675,4922.97,-880.961,11456.2,99.7262,-170.266,-33.7213,38718.4,7452.72,-9989.79,18.6407,-69.2927,-12.437,2335.95,13382.4,505.745,-64.2644,42.6142,-171.784,-23435.4,-10827.0,-5258.78,42.4965,-50.2547,-5.05593,4659.62,9638.21,-2073.76,7.67735,-52.4053,-51.8676,22585.9,-13627.0,6396.26,89.765,-114.462,-9.27636,11513.8,-549.401,1907.43,-6.21359,-10.4022,-10.6984
4.068,4925.85,-988.5,11448.9,100.258,-171.458,-33.7665,38548.7,7418.95,-9942.77,12.3813,-66.4257,-6.31961,2305.07,13387.1,432.734,-64.4071,42.8915,-172.227,-23336.3,-10436.8,-5380.34,40.7209,-47.6583,-1.44456,4649.91,9625.12,-2059.63,7.4434,-52.1501,-51.7543,22131.1,-13365.1,6577.64,88.4391,-121.978,-11.9628,11514.8,-626.867,1929.25,-5.72329,-10.53,-10.5295
4.0685,4928.73,-1096.04,11441.6,100.79,-172.651,-33.8117,38379.0,7385.17,-9895.74,6.12181,-63.5587,-0.202268,2274.18,13391.8,359.723,-64.5498,43.1688,-172.67,-23237.3,-10046.6,-5501.9,38.9454,-45.0618,2.16681,4640.21,9612.03,-2045.49,7.20946,-51.8949,-51.6411,21676.3,-13103.2,6759.03,87.1133,-129.495,-14.6492,11515.8,-704.333,1951.08,-5.23299,-10.6577,-10.3606
4.069,4931.61,-1203.58,11434.3,101.322,-173.843,-33.8569,38209.3,7351.4,-9848.72,-0.137644,-60.6916,5.91508,2243.29,13396.5,286.712,-64.6926,43.4462,-173.112,-23138.3,-9656.33,-5623.46,37.1699,-42.4653,5.77819,4630.5,9598.94,-2031.36,6.97551,-51.6397,-51.5278,21221.5,-12841.3,6940.41,85.7874,-137.011,-17.3357,11516.8,-781.8,1972.91,-4.74269,-10.7854,-10.1917
4.0695,4934.49,-1311.12,11427.0,101.854,-175.035,-33.9021,38039.6,7317.62,-9801.7,-6.3971,-57.8246,12.0324,2212.4,13401.2,213.701,-64.8353,43.7235,-173.555,-23039.2,-9266.09,-5745.01,35.3943,-39.8689,9.38955,4620.8,9585.85,-2017.23,6.74157,-51.3845,-51.4145,20766.7,-12579.5,7121.79,84.4616,-144.528,-20.0221,11517.7,-859.266,1994.73,-4.25239,-10.9132,-10.0228
4.07,4937.37,-1418.66,11419.7,102.387,-176.227,-33.9473,37869.9,7283.85,-9754.68,-12.6566,-54.9575,18.1498,2181.52,13405.9,140.69,-64.978,44.0008,-173.997,-22940.2,-8875.85,-5866.57,33.6188,-37.2724,13.0009,4611.09,9572.76,-2003.09,6.50762,-51.1293,-51.3013,20311.9,-12317.6,7303.17,83.1357,-152.044,-22.7086,11518.7,-936.733,2016.56,-3.76209,-11.0409,-9.85392
4.0705,4940.25,-1526.2,11412.4,102.919,-177.42,-33.9925,37700.2,7250.08,-9707.66,-18.916,-52.0905,24.2671,2150.63,13410.6,67.6795,-65.1208,44.2781,-174.44,-22841.2,-8485.62,-5988.13,31.8433,-34.676,16.6123,4601.39,9559.67,-1988.96,6.27368,-50.8741,-51.188,19857.1,-12055.7,7484.55,81.8099,-159.561,-25.395,11519.7,-1014.2,2038.39,-3.2718,-11.1687,-9.68502
4.071,4943.13,-1633.74,11405.1,103.451,-178.612,-34.0377,37530.4,7216.3,-9660.64,-25.1755,-49.2234,30.3845,2119.74,13415.3,-5.3314,-65.2635,44.5555,-174.882,-22742.2,-8095.38,-6109.69,30.0677,-32.0795,20.2237,4591.68,9546.58,-1974.82,6.03973,-50.6189,-51.0747,19402.3,-11793.8,7665.94,80.484,-167.078,-28.0815,11520.6,-1091.67,2060.21,-2.7815,-11.2964,-9.51613
4.0715,4958.21,-1721.23,11393.8,103.769,-179.741,-34.2498,37167.6,6636.06,-9529.71,-29.7441,-47.0845,34.6809,2102.2,13419.4,-82.9877,-65.2799,44.7471,-175.337,-22549.4,-7956.05,-6059.99,28.8182,-30.624,24.409,4579.33,9548.14,-1960.26,5.67225,-50.2198,-50.9197,18797.5,-11534.6,7499.76,76.9524,-168.632,-30.1778,11540.9,-1136.35,2036.65,-1.85452,-11.2608,-9.38958
4.072,4976.78,-1802.99,11381.5,104.027,-180.853,-34.5096,36749.6,5899.69,-9374.8,-33.8297,-45.1537,38.4571,2088.48,13423.4,-161.971,-65.2602,44.9142,-175.795,-22329.8,-7888.41,-5961.36,27.719,-29.4944,28.7584,4566.22,9553.88,-1945.56,5.26661,-49.7795,-50.7527,18150.0,-11276.2,7234.29,72.7905,-168.482,-32.1056,11566.8,-1171.67,2000.12,-0.802768,-11.1786,-9.27513
4.0725,4995.35,-1884.76,11369.1,104.285,-181.964,-34.7694,36331.5,5163.32,-9219.9,-37.9152,-43.2228,42.2333,2074.76,13427.3,-240.955,-65.2405,45.0812,-176.254,-22110.2,-7820.77,-5862.73,26.6198,-28.3648,33.1078,4553.11,9559.63,-1930.87,4.86097,-49.3393,-50.5857,17502.4,-11017.8,6968.81,68.6287,-168.333,-34.0334,11592.6,-1206.99,1963.59,0.248981,-11.0963,-9.16069
4.073,5013.91,-1966.52,11356.8,104.543,-183.075,-35.0292,35913.5,4426.95,-9064.99,-42.0008,-41.292,46.0095,2061.04,13431.3,-319.939,-65.2208,45.2483,-176.712,-21890.6,-7753.13,-5764.09,25.5206,-27.2352,37.4571,4540.0,9565.37,-1916.18,4.45533,-48.8991,-50.4187,16854.8,-10759.3,6703.34,64.4669,-168.184,-35.9612,11618.5,-1242.31,1927.06,1.30073,-11.0141,-9.04624
4.0735,5032.48,-2048.29,11344.5,104.8,-184.186,-35.289,35495.4,3690.58,-8910.09,-46.0863,-39.3611,49.7857,2047.32,13435.2,-398.922,-65.2011,45.4154,-177.171,-21671.0,-7685.49,-5665.46,24.4214,-26.1056,41.8065,4526.89,9571.12,-1901.48,4.04969,-48.4588,-50.2517,16207.3,-10500.9,6437.86,60.305,-168.034,-37.889,11644.3,-1277.63,1890.53,2.35248,-10.9319,-8.93179
4.074,5051.05,-2130.05,11332.1,105.058,-185.298,-35.5488,35077.4,2954.21,-8755.19,-50.1719,-37.4303,53.5619,2033.6,13439.2,-477.906,-65.1814,45.5825,-177.629,-21451.4,-7617.85,-5566.83,23.3222,-24.976,46.1559,4513.78,9576.86,-1886.79,3.64405,-48.0186,-50.0848,15559.7,-10242.5,6172.38,56.1432,-167.885,-39.8168,11670.1,-1312.94,1854.0,3.40423,-10.8496,-8.81734
4.0745,5069.61,-2211.82,11319.8,105.316,-186.409,-35.8086,34659.3,2217.84,-8600.28,-54.2574,-35.4994,57.3381,2019.88,13443.1,-556.889,-65.1616,45.7496,-178.087,-21231.8,-7550.21,-5468.2,22.223,-23.8464,50.5052,4500.67,9582.61,-1872.1,3.23841,-47.5784,-49.9178,14912.1,-9984.05,5906.91,51.9813,-167.736,-41.7446,11696.0,-1348.26,1817.47,4.45598,-10.7674,-8.7029
4.075,5088.18,-2293.58,11307.4,105.574,-187.52,-36.0684,34241.3,1481.47,-8445.38,-58.343,-33.5686,61.1143,2006.16,13447.1,-635.873,-65.1419,45.9167,-178.546,-21012.3,-7482.57,-5369.57,21.1238,-22.7168,54.8546,4487.56,9588.35,-1857.4,2.83277,-47.1382,-49.7508,14264.5,-9725.62,5641.43,47.8195,-167.586,-43.6724,11721.8,-1383.58,1780.94,5.50772,-10.6851,-8.58845
4.0755,5106.75,-2375.35,11295.1,105.832,-188.632,-36.3282,33823.3,745.103,-8290.47,-62.4285,-31.6377,64.8905,1992.44,13451.0,-714.857,-65.1222,46.0838,-179.004,-20792.7,-7414.93,-5270.94,20.0246,-21.5872,59.204,4474.45,9594.1,-1842.71,2.42714,-46.6979,-49.5838,13617.0,-9467.19,5375.96,43.6577,-167.437,-45.6002,11747.6,-1418.9,1744.41,6.55947,-10.6029,-8.474
4.076,5133.97,-2440.85,11294.2,106.042,-189.793,-36.7027,33354.4,130.159,-8139.89,-63.5279,-30.4707,68.2298,1968.98,13459.8,-799.532,-65.0666,46.2785,-179.508,-20531.5,-7586.05,-5126.92,19.6184,-21.403,63.1814,4453.4,9610.35,-1810.43,1.93353,-46.18,-49.4245,13002.5,-9252.55,5053.36,40.1243,-161.894,-45.4375,11739.1,-1390.64,1671.42,7.52505,-10.2232,-8.42277
4.0765,5162.29,-2504.33,11294.8,106.246,-190.962,-37.0916,32879.2,-469.606,-7989.86,-64.254,-29.3991,71.5145,1944.3,13469.2,-884.92,-65.0064,46.4766,-180.017,-20265.2,-7787.02,-4977.24,19.2989,-21.337,67.1123,4431.35,9627.92,-1775.95,1.42892,-45.6523,-49.2663,12392.2,-9043.38,4723.61,36.6696,-155.676,-45.0135,11726.3,-1354.44,1593.87,8.47985,-9.80642,-8.37944
4.077,5190.6,-2567.8,11295.4,106.451,-192.13,-37.4805,32403.9,-1069.37,-7839.82,-64.9801,-28.3276,74.7992,1919.63,13478.6,-970.307,-64.9463,46.6747,-180.526,-19998.8,-7987.98,-4827.56,18.9793,-21.2709,71.0432,4409.31,9645.48,-1741.47,0.924319,-45.1246,-49.108,11781.9,-8834.22,4393.87,33.2148,-149.458,-44.5895,11713.5,-1318.24,1516.31,9.43466,-9.3896,-8.33611
4.0775,5218.91,-2631.27,11295.9,106.655,-193.298,-37.8694,31928.7,-1669.14,-7689.79,-65.7062,-27.256,78.0839,1894.96,13488.0,-1055.69,-64.8862,46.8728,-181.035,-19732.5,-8188.95,-4677.87,18.6598,-21.2049,74.9741,4387.26,9663.05,-1706.99,0.419714,-44.597,-48.9497,11171.6,-8625.05,4064.13,29.76,-143.241,-44.1656,11700.7,-1282.04,1438.76,10.3895,-8.97278,-8.29278
4.078,5247.22,-2694.74,11296.5,106.859,-194.466,-38.2583,31453.5,-2268.9,-7539.75,-66.4322,-26.1845,81.3686,1870.28,13497.3,-1141.08,-64.826,47.0709,-181.545,-19466.2,-8389.92,-4528.19,18.3402,-21.1389,78.905,4365.22,9680.61,-1672.51,-0.0848899,-44.0693,-48.7914,10561.3,-8415.88,3734.38,26.3053,-137.023,-43.7416,11687.9,-1245.84,1361.21,11.3443,-8.55595,-8.24945
4.0785,5275.53,-2758.22,11297.1,107.064,-195.634,-38.6472,30978.3,-2868.67,-7389.71,-67.1583,-25.1129,84.6533,1845.61,13506.7,-1226.47,-64.7659,47.269,-182.054,-19199.8,-8590.88,-4378.5,18.0207,-21.0728,82.836,4343.17,9698.18,-1638.03,-0.589494,-43.5416,-48.6331,9951.04,-8206.71,3404.64,22.8505,-130.805,-43.3176,11675.1,-1209.64,1283.66,12.2991,-8.13913,-8.20612
4.079,5303.84,-2821.69,11297.7,107.268,-196.802,-39.036,30503.0,-3468.43,-7239.68,-67.8844,-24.0414,87.938,1820.93,13516.1,-1311.86,-64.7058,47.4671,-182.563,-18933.5,-8791.85,-4228.82,17.7011,-21.0068,86.7669,4321.13,9715.74,-1603.55,-1.0941,-43.014,-48.4748,9340.74,-7997.55,3074.9,19.3957,-124.588,-42.8937,11662.3,-1173.44,1206.1,13.2539,-7.72231,-8.1628
4.0795,5332.15,-2885.16,11298.2,107.473,-197.97,-39.4249,30027.8,-4068.2,-7089.64,-68.6105,-22.9699,91.2227,1796.26,13525.5,-1397.24,-64.6456,47.6652,-183.072,-18667.1,-8992.82,-4079.13,17.3816,-20.9408,90.6978,4299.08,9733.31,-1569.07,-1.5987,-42.4863,-48.3165,8730.45,-7788.38,2745.15,15.941,-118.37,-42.4697,11649.5,-1137.23,1128.55,14.2087,-7.30549,-8.11947
4.08,5360.46,-2948.63,11298.8,107.677,-199.138,-39.8138,29552.6,-4667.96,-6939.61,-69.3366,-21.8983,94.5074,1771.58,13534.9,-1482.63,-64.5855,47.8633,-183.582,-18400.8,-9193.78,-3929.45,17.062,-20.8747,94.6287,4277.03,9750.87,-1534.59,-2.10331,-41.9587,-48.1582,8120.15,-7579.21,2415.41,12.4862,-112.152,-42.0457,11636.7,-1101.03,1051.0,15.1635,-6.88867,-8.07614
4.0805,5379.67,-2994.56,11325.3,107.946,-200.435,-40.3595,29083.7,-4877.22,-6752.71,-67.3469,-21.5026,97.8862,1743.83,13554.1,-1538.25,-64.5355,47.9755,-184.095,-18135.1,-9436.28,-3909.0,17.1864,-20.539,97.2694,4249.54,9779.67,-1517.19,-2.70547,-41.2927,-47.9157,7651.74,-7560.63,2185.86,11.0858,-104.244,-40.1162,11624.0,-1017.08,976.02,15.5473,-6.33194,-8.09841
4.081,5398.87,-3040.49,11351.7,108.215,-201.732,-40.9053,28614.9,-5086.48,-6565.81,-65.3571,-21.107,101.265,1716.07,13573.4,-1593.87,-64.4855,48.0876,-184.608,-17869.3,-9678.78,-3888.55,17.3109,-20.2032,99.9101,4222.05,9808.48,-1499.79,-3.30764,-40.6267,-47.6732,7183.33,-7542.06,1956.31,9.68545,-96.3349,-38.1866,11611.3,-933.129,901.041,15.9312,-5.77522,-8.12069
4.0815,5418.08,-3086.42,11378.2,108.484,-203.029,-41.451,28146.1,-5295.73,-6378.92,-63.3674,-20.7113,104.644,1688.31,13592.7,-1649.48,-64.4356,48.1997,-185.121,-17603.6,-9921.27,-3868.1,17.4353,-19.8674,102.551,4194.56,9837.28,-1482.39,-3.90981,-39.9608,-47.4307,6714.92,-7523.48,1726.77,8.28507,-88.4262,-36.2571,11598.6,-849.178,826.061,16.3151,-5.2185,-8.14296
4.082,5437.29,-3132.34,11404.6,108.753,-204.326,-41.9967,27677.3,-5504.99,-6192.02,-61.3777,-20.3157,108.023,1660.55,13611.9,-1705.1,-64.3856,48.3118,-185.634,-17337.9,-10163.8,-3847.66,17.5597,-19.5316,105.192,4167.07,9866.08,-1465.0,-4.51197,-39.2948,-47.1881,6246.51,-7504.91,1497.22,6.88469,-80.5174,-34.3276,11586.0,-765.226,751.082,16.6989,-4.66177,-8.16524
4.0825,5456.49,-3178.27,11431.1,109.022,-205.623,-42.5424,27208.4,-5714.25,-6005.13,-59.3879,-19.92,111.401,1632.79,13631.2,-1760.72,-64.3356,48.424,-186.148,-17072.2,-10406.3,-3827.21,17.6841,-19.1958,107.832,4139.58,9894.88,-1447.6,-5.11414,-38.6288,-46.9456,5778.1,-7486.33,1267.67,5.48431,-72.6086,-32.398,11573.3,-681.274,676.102,17.0828,-4.10505,-8.18751
4.083,5475.7,-3224.2,11457.5,109.291,-206.92,-43.0881,26739.6,-5923.5,-5818.23,-57.3982,-19.5243,114.78,1605.03,13650.5,-1816.34,-64.2857,48.5361,-186.661,-16806.4,-10648.8,-3806.76,17.8086,-18.86,110.473,4112.09,9923.69,-1430.2,-5.71631,-37.9629,-46.7031,5309.69,-7467.76,1038.13,4.08394,-64.6999,-30.4685,11560.6,-597.322,601.123,17.4666,-3.54833,-8.20978
4.0835,5494.9,-3270.13,11484.0,109.56,-208.217,-43.6339,26270.8,-6132.76,-5631.33,-55.4085,-19.1287,118.159,1577.27,13669.7,-1871.96,-64.2357,48.6482,-187.174,-16540.7,-10891.3,-3786.31,17.933,-18.5242,113.114,4084.6,9952.49,-1412.81,-6.31847,-37.2969,-46.4606,4841.27,-7449.18,808.578,2.68356,-56.7911,-28.539,11547.9,-513.37,526.144,17.8505,-2.9916,-8.23206
4.084,5514.11,-3316.06,11510.5,109.829,-209.514,-44.1796,25801.9,-6342.01,-5444.44,-53.4187,-18.733,121.538,1549.51,13689.0,-1927.57,-64.1857,48.7604,-187.687,-16275.0,-11133.8,-3765.86,18.0574,-18.1884,115.754,4057.11,9981.29,-1395.41,-6.92064,-36.6309,-46.218,4372.86,-7430.61,579.03,1.28318,-48.8824,-26.6094,11535.2,-429.419,451.164,18.2344,-2.43488,-8.25433
4.0845,5532.81,-3361.07,11534.8,110.095,-210.83,-44.7348,25344.0,-6519.56,-5259.4,-51.3024,-18.3706,124.827,1525.57,13709.8,-1981.67,-64.1334,48.8441,-188.201,-16011.2,-11359.7,-3757.89,18.1606,-17.7894,118.29,4031.9,10012.3,-1380.94,-7.53806,-35.9751,-45.9619,3922.98,-7433.49,374.007,-0.00796536,-41.3598,-24.7544,11522.5,-345.414,379.396,18.5518,-1.89962,-8.2661
4.085,5547.46,-3398.73,11542.1,110.337,-212.296,-45.3661,24973.5,-6443.46,-5089.23,-48.1736,-18.2746,127.396,1532.18,13742.8,-2023.63,-64.0627,48.7003,-188.716,-15762.5,-11453.5,-3849.66,18.0936,-16.8844,119.986,4024.95,10060.9,-1389.9,-8.27752,-35.4002,-45.5965,3621.35,-7608.0,365.18,-0.425244,-36.9266,-23.495,11509.2,-260.987,333.312,18.3377,-1.53601,-8.19382
4.0855,5562.1,-3436.4,11549.4,110.578,-213.763,-45.9973,24602.9,-6367.37,-4919.05,-45.0447,-18.1786,129.966,1538.8,13775.9,-2065.59,-63.9919,48.5565,-189.232,-15513.9,-11547.2,-3941.44,18.0266,-15.9794,121.683,4018.01,10109.6,-1398.86,-9.01698,-34.8253,-45.2311,3319.72,-7782.52,356.353,-0.842523,-32.4935,-22.2355,11495.8,-176.56,287.228,18.1237,-1.1724,-8.12153
4.086,5576.75,-3474.07,11556.7,110.82,-215.229,-46.6285,24232.3,-6291.27,-4748.88,-41.9158,-18.0825,132.535,1545.42,13808.9,-2107.54,-63.9212,48.4128,-189.748,-15265.3,-11641.0,-4033.22,17.9596,-15.0743,123.379,4011.07,10158.3,-1407.82,-9.75643,-34.2504,-44.8657,3018.09,-7957.04,347.525,-1.2598,-28.0603,-20.9761,11482.5,-92.1335,241.144,17.9096,-0.80879,-8.04925
4.0865,5591.4,-3511.74,11564.0,111.061,-216.695,-47.2598,23861.8,-6215.17,-4578.7,-38.7869,-17.9865,135.105,1552.03,13841.9,-2149.5,-63.8504,48.269,-190.263,-15016.7,-11734.7,-4125.0,17.8927,-14.1693,125.075,4004.13,10206.9,-1416.78,-10.4959,-33.6755,-44.5004,2716.46,-8131.56,338.698,-1.67708,-23.6271,-19.7167,11469.2,-7.70659,195.06,17.6956,-0.445182,-7.97696
4.087,5606.05,-3549.41,11571.3,111.303,-218.161,-47.891,23491.2,-6139.07,-4408.53,-35.6581,-17.8905,137.675,1558.65,13875.0,-2191.45,-63.7797,48.1253,-190.779,-14768.1,-11828.5,-4216.77,17.8257,-13.2643,126.771,3997.18,10255.6,-1425.74,-11.2353,-33.1006,-44.135,2414.82,-8306.08,329.87,-2.09436,-19.194,-18.4573,11455.8,76.7203,148.976,17.4815,-0.0815732,-7.90468
4.0875,5620.69,-3587.07,11578.6,111.544,-219.628,-48.5223,23120.6,-6062.97,-4238.35,-32.5292,-17.7945,140.244,1565.27,13908.0,-2233.41,-63.7089,47.9815,-191.295,-14519.4,-11922.2,-4308.55,17.7587,-12.3593,128.468,3990.24,10304.2,-1434.7,-11.9748,-32.5257,-43.7696,2113.19,-8480.59,321.043,-2.51164,-14.7608,-17.1979,11442.5,161.147,102.892,17.2674,0.282035,-7.83239
4.088,5635.34,-3624.74,11585.9,111.786,-221.094,-49.1535,22750.1,-5986.87,-4068.18,-29.4003,-17.6984,142.814,1571.89,13941.0,-2275.37,-63.6382,47.8377,-191.811,-14270.8,-12016.0,-4400.33,17.6917,-11.4543,130.164,3983.3,10352.9,-1443.66,-12.7143,-31.9508,-43.4042,1811.56,-8655.11,312.216,-2.92892,-10.3277,-15.9385,11429.2,245.574,56.8082,17.0534,0.645644,-7.76011
4.0885,5649.99,-3662.41,11593.2,112.027,-222.56,-49.7847,22379.5,-5910.77,-3898.0,-26.2715,-17.6024,145.383,1578.5,13974.1,-2317.32,-63.5675,47.694,-192.326,-14022.2,-12109.7,-4492.11,17.6247,-10.5492,131.86,3976.36,10401.5,-1452.62,-13.4537,-31.3759,-43.0388,1509.93,-8829.63,303.388,-3.34619,-5.8945,-14.6791,11415.8,330.001,10.7243,16.8393,1.00925,-7.68783
4.089,5661.99,-3701.94,11596.2,112.249,-224.053,-50.4264,22042.1,-5796.26,-3736.49,-23.2388,-17.5043,147.693,1584.36,14009.8,-2363.17,-63.4999,47.4867,-192.824,-13784.3,-12161.6,-4571.03,17.5194,-9.61516,133.505,3974.52,10447.6,-1463.14,-14.1749,-30.8084,-42.6836,1239.23,-9009.25,327.999,-3.53204,-2.57937,-13.7314,11397.0,409.25,-26.653,16.5491,1.29546,-7.59395
4.0895,5664.76,-3747.99,11584.1,112.403,-225.64,-51.1047,21820.6,-5547.3,-3605.29,-20.5429,-17.399,149.093,1587.54,14054.9,-2422.66,-63.4434,47.057,-193.26,-13584.1,-12066.8,-4604.98,17.2795,-8.5794,134.972,3990.57,10484.5,-1479.14,-14.832,-30.2669,-42.3639,1076.83,-9206.72,469.644,-2.90786,-3.17737,-13.8747,11359.2,470.379,-33.5572,15.9924,1.31079,-7.42448
4.09,5667.52,-3794.04,11571.9,112.557,-227.226,-51.783,21599.1,-5298.35,-3474.1,-17.847,-17.2936,150.493,1590.73,14100.0,-2482.15,-63.3869,46.6274,-193.696,-13383.9,-11972.0,-4638.93,17.0397,-7.54365,136.438,4006.62,10521.5,-1495.14,-15.4891,-29.7253,-42.0442,914.428,-9404.19,611.289,-2.28369,-3.77536,-14.0181,11321.4,531.508,-40.4613,15.4357,1.32612,-7.25501
4.0905,5670.28,-3840.09,11559.8,112.711,-228.813,-52.4612,21377.7,-5049.39,-3342.9,-15.1511,-17.1883,151.892,1593.92,14145.1,-2541.64,-63.3305,46.1977,-194.132,-13183.7,-11877.2,-4672.87,16.7999,-6.50789,137.905,4022.67,10558.4,-1511.15,-16.1463,-29.1837,-41.7245,752.025,-9601.66,752.934,-1.65951,-4.37336,-14.1614,11283.5,592.637,-47.3655,14.8791,1.34145,-7.08554
4.091,5673.04,-3886.15,11547.6,112.865,-230.399,-53.1395,21156.2,-4800.43,-3211.7,-12.4552,-17.0829,153.292,1597.11,14190.1,-2601.13,-63.274,45.7681,-194.569,-12983.5,-11782.5,-4706.82,16.56,-5.47214,139.371,4038.71,10595.4,-1527.15,-16.8034,-28.6421,-41.4048,589.621,-9799.12,894.579,-1.03533,-4.97135,-14.3047,11245.7,653.766,-54.2697,14.3224,1.35678,-6.91608
4.0915,5675.81,-3932.2,11535.4,113.019,-231.986,-53.8178,20934.7,-4551.47,-3080.5,-9.75934,-16.9776,154.692,1600.29,14235.2,-2660.61,-63.2175,45.3384,-195.005,-12783.3,-11687.7,-4740.77,16.3202,-4.43638,140.838,4054.76,10632.3,-1543.15,-17.4605,-28.1006,-41.0851,427.218,-9996.59,1036.22,-0.411156,-5.56935,-14.448,11207.8,714.895,-61.1739,13.7657,1.37211,-6.74661
4.092,5678.57,-3978.25,11523.3,113.173,-233.572,-54.496,20713.3,-4302.51,-2949.31,-7.06344,-16.8722,156.092,1603.48,14280.3,-2720.1,-63.161,44.9088,-195.441,-12583.1,-11592.9,-4774.71,16.0804,-3.40063,142.304,4070.81,10669.3,-1559.15,-18.1177,-27.559,-40.7654,264.815,-10194.1,1177.87,0.21302,-6.16734,-14.5914,11170.0,776.023,-68.0781,13.209,1.38743,-6.57714
4.0925,5681.33,-4024.3,11511.1,113.326,-235.159,-55.1743,20491.8,-4053.56,-2818.11,-4.36754,-16.7668,157.492,1606.67,14325.4,-2779.59,-63.1045,44.4791,-195.877,-12382.9,-11498.1,-4808.66,15.8405,-2.36487,143.771,4086.86,10706.2,-1575.15,-18.7748,-27.0174,-40.4457,102.411,-10391.5,1319.51,0.837196,-6.76534,-14.7347,11132.1,837.152,-74.9823,12.6523,1.40276,-6.40767
4.093,5684.09,-4070.35,11499.0,113.48,-236.746,-55.8526,20270.3,-3804.6,-2686.91,-1.67164,-16.6615,158.891,1609.86,14370.5,-2839.08,-63.0481,44.0495,-196.313,-12182.7,-11403.3,-4842.6,15.6007,-1.32912,145.237,4102.9,10743.2,-1591.16,-19.4319,-26.4758,-40.126,-59.9922,-10589.0,1461.16,1.46137,-7.36334,-14.878,11094.3,898.281,-81.8864,12.0956,1.41809,-6.23821
4.0935,5687.72,-4121.08,11494.8,113.62,-238.355,-56.5562,20088.0,-3520.84,-2572.26,0.583263,-16.504,160.065,1611.22,14405.3,-2902.89,-62.9719,43.5132,-196.727,-11988.6,-11303.9,-4850.74,15.3129,-0.471775,146.709,4122.9,10776.3,-1603.73,-20.1104,-25.9537,-39.8171,-186.953,-10757.1,1583.31,2.40173,-8.81124,-15.2333,11061.2,951.647,-80.3639,11.5879,1.32837,-6.07637
4.094,5693.06,-4181.18,11506.7,113.731,-240.011,-57.3107,19983.8,-3167.46,-2490.68,1.95618,-16.2421,160.788,1608.93,14419.6,-2975.34,-62.8565,42.7636,-197.097,-11806.7,-11195.3,-4807.25,14.9291,0.0287469,148.19,4150.8,10801.8,-1609.47,-20.8317,-25.4702,-39.5298,-243.029,-10866.6,1666.48,3.97445,-11.959,-16.0124,11037.6,989.486,-61.9879,11.1781,1.02854,-5.9298
4.0945,5698.4,-4241.28,11518.5,113.841,-241.666,-58.0652,19879.6,-2814.09,-2409.11,3.3291,-15.9802,161.51,1606.64,14433.9,-3047.8,-62.741,42.014,-197.467,-11624.7,-11086.6,-4763.76,14.5453,0.529269,149.671,4178.7,10827.3,-1615.2,-21.5529,-24.9868,-39.2426,-299.105,-10976.0,1749.64,5.54717,-15.1067,-16.7914,11014.0,1027.33,-43.6119,10.7683,0.728705,-5.78322
4.095,5703.75,-4301.38,11530.4,113.952,-243.322,-58.8196,19775.4,-2460.71,-2327.54,4.70202,-15.7184,162.232,1604.35,14448.1,-3120.25,-62.6255,41.2644,-197.836,-11442.8,-10977.9,-4720.27,14.1614,1.02979,151.152,4206.6,10852.7,-1620.94,-22.2741,-24.5034,-38.9553,-355.181,-11085.4,1832.81,7.11989,-18.2544,-17.5705,10990.3,1065.16,-25.236,10.3585,0.428875,-5.63665
4.0955,5709.09,-4361.48,11542.2,114.063,-244.977,-59.5741,19671.2,-2107.34,-2245.96,6.07495,-15.4565,162.955,1602.06,14462.4,-3192.71,-62.5101,40.5148,-198.206,-11260.8,-10869.3,-4676.79,13.7776,1.53031,152.633,4234.49,10878.2,-1626.68,-22.9953,-24.02,-38.6681,-411.258,-11194.9,1915.97,8.69261,-21.4021,-18.3496,10966.7,1103.0,-6.85998,9.94866,0.129044,-5.49008
4.096,5714.44,-4421.58,11554.0,114.174,-246.633,-60.3286,19567.0,-1753.96,-2164.39,7.44787,-15.1946,163.677,1599.77,14476.7,-3265.16,-62.3946,39.7652,-198.576,-11078.8,-10760.6,-4633.3,13.3938,2.03084,154.114,4262.39,10903.7,-1632.41,-23.7166,-23.5366,-38.3808,-467.334,-11304.3,1999.14,10.2653,-24.5498,-19.1287,10943.1,1140.84,11.516,9.53884,-0.170786,-5.3435
4.0965,5719.78,-4481.68,11565.9,114.285,-248.288,-61.0831,19462.9,-1400.59,-2082.82,8.82079,-14.9328,164.4,1597.48,14491.0,-3337.62,-62.2792,39.0156,-198.946,-10896.9,-10652.0,-4589.81,13.01,2.53136,155.595,4290.29,10929.2,-1638.15,-24.4378,-23.0532,-38.0935,-523.41,-11413.7,2082.3,11.838,-27.6976,-19.9078,10919.5,1178.68,29.892,9.12903,-0.470617,-5.19693
4.097,5725.12,-4541.78,11577.7,114.396,-249.944,-61.8375,19358.7,-1047.22,-2001.24,10.1937,-14.6709,165.122,1595.19,14505.2,-3410.07,-62.1637,38.2661,-199.316,-10714.9,-10543.3,-4546.32,12.6262,3.03188,157.076,4318.19,10954.6,-1643.88,-25.159,-22.5698,-37.8063,-579.486,-11523.2,2165.47,13.4108,-30.8453,-20.6869,10895.9,1216.52,48.268,8.71922,-0.770448,-5.05036
4.0975,5730.47,-4601.88,11589.6,114.507,-251.599,-62.592,19254.5,-693.841,-1919.67,11.5666,-14.409,165.844,1592.9,14519.5,-3482.53,-62.0482,37.5165,-199.686,-10533.0,-10434.7,-4502.83,12.2424,3.5324,158.557,4346.08,10980.1,-1649.62,-25.8802,-22.0864,-37.519,-635.562,-11632.6,2248.63,14.9835,-33.993,-21.466,10872.3,1254.36,66.6439,8.30941,-1.07028,-4.90378
4.098,5736.03,-4667.54,11594.3,114.536,-253.296,-63.4841,19152.5,-316.523,-1847.37,12.5002,-14.2057,166.494,1591.68,14536.6,-3552.49,-61.9087,36.6664,-200.087,-10360.8,-10340.3,-4454.16,11.8431,4.18026,159.949,4377.48,11000.4,-1657.55,-26.5933,-21.6539,-37.2058,-654.374,-11648.5,2245.45,16.2963,-36.6642,-21.9474,10862.2,1280.19,79.4024,8.01495,-1.47297,-4.73213
4.0985,5741.86,-4740.15,11590.0,114.464,-255.045,-64.5482,19053.1,90.724,-1786.68,12.8845,-14.0757,167.052,1591.8,14557.2,-3619.33,-61.7392,35.6908,-200.526,-10200.9,-10263.9,-4399.03,11.4246,5.0123,161.229,4413.25,11014.3,-1668.22,-27.2963,-21.2849,-36.8602,-626.605,-11547.6,2134.33,17.2843,-38.7397,-22.0569,10869.1,1290.99,85.139,7.86467,-2.00423,-4.52912
4.099,5747.69,-4812.75,11585.7,114.392,-256.793,-65.6123,18953.8,497.971,-1725.98,13.2688,-13.9456,167.61,1591.93,14577.7,-3686.17,-61.5696,34.7152,-200.965,-10040.9,-10187.5,-4343.89,11.006,5.84434,162.51,4449.02,11028.1,-1678.9,-27.9992,-20.916,-36.5146,-598.836,-11446.6,2023.21,18.2722,-40.8152,-22.1663,10876.0,1301.8,90.8757,7.7144,-2.53549,-4.32612
4.0995,5753.52,-4885.36,11581.5,114.319,-258.541,-66.6765,18854.4,905.219,-1665.28,13.6531,-13.8156,168.168,1592.05,14598.3,-3753.02,-61.4001,33.7396,-201.405,-9880.92,-10111.0,-4288.75,10.5875,6.67638,163.79,4484.8,11042.0,-1689.57,-28.7021,-20.547,-36.1691,-571.067,-11345.6,1912.1,19.2602,-42.8907,-22.2758,10882.9,1312.6,96.6123,7.56413,-3.06675,-4.12311
4.1,5759.35,-4957.97,11577.2,114.247,-260.29,-67.7406,18755.1,1312.47,-1604.58,14.0374,-13.6855,168.726,1592.17,14618.9,-3819.86,-61.2305,32.764,-201.844,-9720.96,-10034.6,-4233.61,10.169,7.50842,165.071,4520.57,11055.9,-1700.25,-29.405,-20.1781,-35.8235,-543.298,-11244.7,1800.98,20.2481,-44.9662,-22.3853,10889.7,1323.41,102.349,7.41385,-3.59801,-3.9201
4.1005,5765.18,-5030.57,11572.9,114.175,-262.038,-68.8047,18655.7,1719.71,-1543.89,14.4217,-13.5554,169.285,1592.3,14639.5,-3886.7,-61.061,31.7884,-202.283,-9560.99,-9958.16,-4178.47,9.75042,8.34046,166.351,4556.34,11069.7,-1710.92,-30.1079,-19.8091,-35.4779,-515.529,-11143.7,1689.86,21.2361,-47.0417,-22.4947,10896.6,1334.22,108.086,7.26358,-4.12927,-3.7171
4.101,5771.01,-5103.18,11568.7,114.103,-263.787,-69.8689,18556.4,2126.96,-1483.19,14.8061,-13.4254,169.843,1592.42,14660.0,-3953.54,-60.8914,30.8127,-202.723,-9401.03,-9881.73,-4123.34,9.33188,9.1725,167.632,4592.11,11083.6,-1721.6,-30.8108,-19.4401,-35.1323,-487.76,-11042.7,1578.74,22.2241,-49.1172,-22.6042,10903.5,1345.02,113.822,7.11331,-4.66053,-3.51409
4.1015,5776.84,-5175.79,11564.4,114.031,-265.535,-70.933,18457.0,2534.21,-1422.49,15.1904,-13.2953,170.401,1592.54,14680.6,-4020.39,-60.7219,29.8371,-203.162,-9241.07,-9805.29,-4068.2,8.91334,10.0045,168.913,4627.88,11097.4,-1732.28,-31.5137,-19.0712,-34.7867,-459.992,-10941.8,1467.63,23.212,-51.1927,-22.7136,10910.4,1355.83,119.559,6.96303,-5.19179,-3.31108
4.102,5782.68,-5248.4,11560.1,113.958,-267.284,-71.9971,18357.7,2941.45,-1361.79,15.5747,-13.1653,170.959,1592.67,14701.2,-4087.23,-60.5523,28.8615,-203.602,-9081.1,-9728.86,-4013.06,8.4948,10.8366,170.193,4663.65,11111.3,-1742.95,-32.2166,-18.7022,-34.4411,-432.223,-10840.8,1356.51,24.2,-53.2682,-22.8231,10917.3,1366.63,125.295,6.81276,-5.72305,-3.10808
4.1025,5788.4,-5306.61,11562.3,113.785,-269.079,-73.1118,18191.8,3286.19,-1316.45,15.9249,-13.1004,171.472,1600.99,14722.0,-4156.61,-60.3746,27.7978,-204.061,-8889.59,-9662.39,-3990.66,7.76699,11.8137,171.348,4718.15,11107.1,-1742.69,-32.904,-18.4573,-34.1154,-388.711,-10611.4,1212.81,24.7455,-54.0908,-21.9571,10926.8,1372.87,130.329,6.78399,-6.29061,-2.87191
4.103,5794.02,-5353.32,11569.7,113.532,-270.912,-74.2671,17972.7,3580.91,-1283.4,16.2479,-13.0876,171.949,1615.87,14743.0,-4228.02,-60.1903,26.6636,-204.536,-8672.85,-9603.9,-3994.45,6.79175,12.9068,172.401,4787.64,11088.4,-1733.68,-33.579,-18.3117,-33.8057,-332.606,-10279.4,1043.06,24.9372,-53.911,-20.3106,10938.5,1375.44,134.801,6.85242,-6.88721,-2.60922
4.1035,5799.65,-5400.02,11577.1,113.279,-272.744,-75.4223,17753.6,3875.63,-1250.34,16.5709,-13.0748,172.426,1630.75,14764.0,-4299.43,-60.0061,25.5293,-205.012,-8456.11,-9545.4,-3998.23,5.81652,13.9999,173.454,4857.13,11069.8,-1724.67,-34.254,-18.166,-33.4959,-276.5,-9947.32,873.297,25.1288,-53.7312,-18.6642,10950.2,1378.01,139.273,6.92086,-7.48382,-2.34653
4.104,5805.28,-5446.73,11584.5,113.025,-274.577,-76.5775,17534.6,4170.35,-1217.28,16.8939,-13.0621,172.904,1645.63,14785.0,-4370.85,-59.8218,24.3951,-205.487,-8239.37,-9486.91,-4002.02,4.84128,15.093,174.507,4926.61,11051.1,-1715.67,-34.929,-18.0204,-33.1862,-220.394,-9615.26,703.539,25.3204,-53.5514,-17.0178,10961.9,1380.58,143.745,6.9893,-8.08042,-2.08384
4.1045,5810.91,-5493.43,11591.9,112.772,-276.41,-77.7327,17315.5,4465.07,-1184.23,17.2168,-13.0493,173.381,1660.51,14806.0,-4442.26,-59.6376,23.2609,-205.962,-8022.62,-9428.42,-4005.81,3.86605,16.1861,175.56,4996.1,11032.5,-1706.66,-35.604,-17.8747,-32.8765,-164.289,-9283.2,533.781,25.5121,-53.3716,-15.3714,10973.6,1383.15,148.216,7.05773,-8.67703,-1.82114
4.105,5816.54,-5540.14,11599.3,112.518,-278.242,-78.8879,17096.4,4759.79,-1151.17,17.5398,-13.0365,173.858,1675.39,14826.9,-4513.67,-59.4533,22.1267,-206.438,-7805.88,-9369.92,-4009.6,2.89081,17.2793,176.614,5065.59,11013.8,-1697.65,-36.279,-17.729,-32.5667,-108.183,-8951.14,364.022,25.7037,-53.1919,-13.725,10985.3,1385.73,152.688,7.12617,-9.27363,-1.55845
