Time,RFoot_accel.x,RFoot_accel.y,RFoot_accel.z,RFoot_gyro.x,RFoot_gyro.y,RFoot_gyro.z,LFoot_accel.x,LFoot_accel.y,LFoot_accel.z,LFoot_gyro.x,LFoot_gyro.y,LFoot_gyro.z,RShank_accel.x,RShank_accel.y,RShank_accel.z,RShank_gyro.x,RShank_gyro.y,RShank_gyro.z,LShank_accel.x,LShank_accel.y,LShank_accel.z,LShank_gyro.x,LShank_gyro.y,LShank_gyro.z,RThigh_accel.x,RThigh_accel.y,RThigh_accel.z,RThigh_gyro.x,RThigh_gyro.y,RThigh_gyro.z,LThigh_accel.x,LThigh_accel.y,LThigh_accel.z,LThigh_gyro.x,LThigh_gyro.y,LThigh_gyro.z,Pelvis_accel.x,Pelvis_accel.y,Pelvis_accel.z,Pelvis_gyro.x,Pelvis_gyro.y,Pelvis_gyro.z
0.0,4422.79,-3203.33,8144.23,-0.522081,0.764797,0.611565,4462.5,2998.4,8148.97,-1.06681,-0.624934,-0.506675,-159.538,9583.56,-1513.54,-0.344444,0.791553,0.658675,471.527,-9857.06,-861.315,-0.548705,-0.274828,-1.00517,-1922.0,9319.76,-2224.32,0.715601,0.67954,0.120649,-3261.66,-9312.9,-1291.26,-4.96689,-2.39434,-0.296436,8760.59,1456.26,4169.65,2.1264,1.36625,1.38896
0.001,4422.33,-3194.98,8137.03,-0.534157,0.842213,0.596346,4462.72,3001.28,8145.02,-1.05234,-0.623582,-0.490743,-191.382,9596.16,-1518.04,-0.355082,0.672787,0.73901,477.55,-9849.92,-862.571,-0.576706,-0.260827,-0.961523,-1925.42,9323.98,-2206.13,0.734719,0.567257,0.0539585,-3260.86,-9313.93,-1299.92,-4.79557,-2.20082,-0.268622,8751.83,1458.74,4175.59,2.16385,1.23318,1.42564
0.002,4421.87,-3186.62,8129.83,-0.546232,0.919629,0.581127,4462.94,3004.17,8141.06,-1.03787,-0.62223,-0.47481,-223.226,9608.75,-1522.53,-0.36572,0.554022,0.819346,483.574,-9842.79,-863.826,-0.604707,-0.246827,-0.91788,-1928.84,9328.21,-2187.94,0.753836,0.454975,-0.0127316,-3260.06,-9314.95,-1308.57,-4.62425,-2.0073,-0.240809,8743.08,1461.22,4181.52,2.2013,1.10012,1.46232
0.003,4421.41,-3178.26,8122.62,-0.558308,0.997045,0.565909,4463.16,3007.05,8137.11,-1.0234,-0.620878,-0.458878,-255.07,9621.34,-1527.03,-0.376358,0.435256,0.899681,489.597,-9835.65,-865.081,-0.632708,-0.232826,-0.874237,-1932.27,9332.43,-2169.75,0.772954,0.342692,-0.0794217,-3259.26,-9315.98,-1317.22,-4.45293,-1.81377,-0.212996,8734.32,1463.7,4187.46,2.23875,0.967053,1.499
0.004,4420.95,-3169.9,8115.42,-0.570383,1.07446,0.55069,4463.38,3009.94,8133.16,-1.00893,-0.619526,-0.442946,-286.915,9633.93,-1531.53,-0.386996,0.31649,0.980017,495.62,-9828.52,-866.336,-0.660709,-0.218825,-0.830594,-1935.69,9336.66,-2151.56,0.792072,0.230409,-0.146112,-3258.46,-9317.01,-1325.87,-4.28161,-1.62025,-0.185183,8725.56,1466.18,4193.4,2.27621,0.833988,1.53568
0.005,4414.8,-3173.93,8107.77,-0.532346,1.10561,0.496873,4451.47,3007.16,8118.28,-0.966208,-0.604628,-0.454585,-288.781,9640.28,-1528.69,-0.389906,0.233509,0.976097,500.098,-9829.38,-857.208,-0.647858,-0.176228,-0.767275,-1943.37,9338.8,-2136.83,0.822809,0.0950769,-0.170612,-3254.13,-9318.99,-1317.08,-4.1303,-1.42316,-0.17484,8719.78,1463.91,4194.9,2.23641,0.795052,1.63587
0.006,4404.09,-3187.85,8099.76,-0.45422,1.09975,0.412178,4429.87,2999.85,8094.66,-0.900888,-0.578893,-0.488279,-266.665,9641.65,-1519.98,-0.386635,0.179155,0.904773,503.338,-9836.64,-839.773,-0.602324,-0.110753,-0.688216,-1954.47,9339.29,-2124.89,0.862842,-0.0586957,-0.161361,-3246.98,-9321.73,-1294.33,-3.995,-1.22323,-0.178475,8716.38,1457.83,4192.86,2.13481,0.831419,1.78688
0.007,4393.37,-3201.78,8091.74,-0.376094,1.09388,0.327483,4408.26,2992.55,8071.04,-0.835569,-0.553158,-0.521974,-244.549,9643.01,-1511.27,-0.383364,0.1248,0.833448,506.579,-9843.89,-822.338,-0.556791,-0.045278,-0.609156,-1965.56,9339.78,-2112.95,0.902875,-0.212468,-0.152109,-3239.82,-9324.48,-1271.58,-3.85969,-1.02329,-0.182109,8712.99,1451.75,4190.81,2.03321,0.867786,1.9379
0.008,4382.66,-3215.71,8083.73,-0.297968,1.08802,0.242788,4386.65,2985.24,8047.42,-0.770249,-0.527423,-0.555669,-222.433,9644.37,-1502.57,-0.380093,0.070446,0.762124,509.82,-9851.15,-804.903,-0.511257,0.0201969,-0.530097,-1976.66,9340.26,-2101.0,0.942909,-0.366241,-0.142857,-3232.67,-9327.22,-1248.84,-3.72439,-0.823358,-0.185743,8709.59,1445.68,4188.76,1.93161,0.904153,2.08891
0.009,4374.11,-3228.22,8077.51,-0.219502,1.08123,0.165926,4368.86,2980.81,8025.21,-0.717833,-0.504137,-0.587568,-200.225,9644.15,-1497.25,-0.384513,0.0127062,0.701581,512.878,-9858.47,-788.784,-0.464268,0.0849116,-0.457989,-1986.5,9338.9,-2090.05,0.988854,-0.514102,-0.125695,-3225.67,-9330.11,-1228.11,-3.604,-0.628091,-0.187274,8707.38,1441.34,4186.37,1.83144,0.936132,2.20942
0.01,4382.85,-3229.44,8085.69,-0.138307,1.06703,0.15173,4381.55,2999.44,8014.2,-0.768644,-0.50045,-0.605104,-177.275,9631.22,-1519.07,-0.450461,-0.072117,0.727288,514.477,-9866.28,-783.192,-0.405636,0.143544,-0.441491,-1986.27,9322.79,-2086.99,1.08209,-0.614669,-0.0452411,-3219.95,-9334.15,-1223.58,-3.60287,-0.470165,-0.171975,8714.69,1450.93,4181.2,1.74279,0.933009,2.08589
0.011,4391.58,-3230.66,8093.86,-0.0571117,1.05283,0.137533,4394.23,3018.07,8003.19,-0.819454,-0.496763,-0.622641,-154.325,9618.3,-1540.9,-0.516409,-0.15694,0.752995,516.076,-9874.09,-777.601,-0.347003,0.202177,-0.424994,-1986.05,9306.67,-2083.94,1.17533,-0.715236,0.0352125,-3214.24,-9338.19,-1219.05,-3.60175,-0.312238,-0.156677,8721.99,1460.52,4176.04,1.65413,0.929887,1.96236
0.012,4400.32,-3231.87,8102.04,0.0240832,1.03864,0.123337,4406.92,3036.69,7992.18,-0.870265,-0.493076,-0.640177,-131.376,9605.38,-1562.72,-0.582356,-0.241763,0.778702,517.675,-9881.9,-772.01,-0.28837,0.26081,-0.408496,-1985.83,9290.56,-2080.88,1.26857,-0.815803,0.115666,-3208.52,-9342.24,-1214.51,-3.60062,-0.154312,-0.141379,8729.3,1470.11,4170.87,1.56547,0.926764,1.83883
0.013,4409.06,-3233.09,8110.21,0.105278,1.02444,0.109141,4419.61,3055.32,7981.17,-0.921076,-0.489389,-0.657713,-108.426,9592.46,-1584.54,-0.648304,-0.326587,0.804409,519.274,-9889.71,-766.418,-0.229737,0.319443,-0.391998,-1985.6,9274.44,-2077.83,1.36181,-0.91637,0.19612,-3202.81,-9346.28,-1209.98,-3.5995,0.00361357,-0.126081,8736.61,1479.69,4165.71,1.47682,0.923642,1.71531
0.014,4414.51,-3226.74,8111.69,0.118758,0.959739,0.12536,4431.72,3062.15,7983.12,-0.935675,-0.471993,-0.656624,-118.568,9591.9,-1596.31,-0.71044,-0.373418,0.850034,515.169,-9886.3,-777.096,-0.253497,0.348321,-0.416399,-1988.32,9256.13,-2070.18,1.40427,-1.05495,0.220162,-3198.33,-9341.5,-1229.91,-3.57114,0.218311,-0.134801,8732.69,1489.6,4150.75,1.41622,0.831768,1.68546
0.015,4418.32,-3216.6,8109.82,0.0983813,0.869784,0.156786,4443.53,3063.09,7991.56,-0.932169,-0.447742,-0.646223,-145.255,9597.52,-1603.05,-0.770671,-0.401254,0.905618,508.213,-9877.29,-795.907,-0.318454,0.362321,-0.46125,-1992.5,9236.72,-2060.24,1.42134,-1.21253,0.215998,-3194.48,-9332.32,-1262.07,-3.52916,0.461394,-0.155531,8723.16,1499.66,4130.9,1.36965,0.695518,1.70246
0.016,4422.13,-3206.46,8107.95,0.0780042,0.779829,0.188212,4455.35,3064.03,7999.99,-0.928663,-0.423492,-0.635821,-171.942,9603.14,-1609.78,-0.830901,-0.429089,0.961202,501.257,-9868.28,-814.718,-0.38341,0.376322,-0.506101,-1996.68,9217.32,-2050.3,1.43841,-1.37012,0.211834,-3190.63,-9323.13,-1294.23,-3.48718,0.704477,-0.176261,8713.62,1509.72,4111.05,1.32309,0.559269,1.71946
0.017,4425.94,-3196.33,8106.08,0.0576271,0.689874,0.219638,4467.16,3064.97,8008.42,-0.925157,-0.399241,-0.62542,-198.629,9608.76,-1616.52,-0.891132,-0.456925,1.01679,494.301,-9859.26,-833.53,-0.448366,0.390323,-0.550952,-2000.86,9197.91,-2040.36,1.45548,-1.5277,0.20767,-3186.78,-9313.94,-1326.39,-3.44521,0.94756,-0.196991,8704.09,1519.78,4091.2,1.27652,0.42302,1.73646
0.018,4430.82,-3185.96,8105.54,0.0335874,0.61524,0.256102,4472.15,3061.37,8013.98,-0.927515,-0.401435,-0.606089,-219.808,9618.79,-1620.0,-0.913808,-0.497315,1.04628,488.525,-9850.79,-847.307,-0.508741,0.415212,-0.581688,-1999.91,9183.61,-2032.65,1.46549,-1.66716,0.196772,-3186.36,-9308.69,-1354.44,-3.40228,1.159,-0.216364,8699.42,1524.6,4081.08,1.24481,0.329916,1.73691
0.019,4439.47,-3174.78,8109.66,-0.00327174,0.594233,0.3102,4453.23,3041.9,8009.47,-0.950401,-0.496187,-0.555504,-221.708,9644.27,-1612.04,-0.805042,-0.581646,0.984474,486.876,-9844.2,-843.463,-0.553078,0.478214,-0.563024,-1980.97,9187.21,-2032.74,1.4508,-1.74316,0.162301,-3197.96,-9317.21,-1368.13,-3.35605,1.2597,-0.230991,8711.74,1511.07,4104.98,1.26511,0.387821,1.67945
0.02,4448.11,-3163.6,8113.78,-0.0401309,0.573225,0.364298,4434.31,3022.43,8004.97,-0.973287,-0.590939,-0.50492,-223.609,9669.74,-1604.09,-0.696277,-0.665977,0.922666,485.228,-9837.6,-839.618,-0.597416,0.541215,-0.54436,-1962.04,9190.8,-2032.83,1.43611,-1.81916,0.127831,-3209.55,-9325.73,-1381.81,-3.30982,1.3604,-0.245617,8724.06,1497.54,4128.88,1.2854,0.445726,1.622
0.021,4456.76,-3152.42,8117.9,-0.07699,0.552217,0.418397,4415.39,3002.96,8000.46,-0.996173,-0.685691,-0.454336,-225.509,9695.22,-1596.14,-0.587512,-0.750309,0.860857,483.58,-9831.01,-835.774,-0.641753,0.604217,-0.525696,-1943.11,9194.39,-2032.92,1.42142,-1.89516,0.0933611,-3221.14,-9334.25,-1395.49,-3.26359,1.46109,-0.260244,8736.38,1484.02,4152.79,1.3057,0.503631,1.56454
0.022,4465.4,-3141.24,8122.02,-0.113849,0.53121,0.472495,4396.47,2983.49,7995.95,-1.01906,-0.780443,-0.403752,-227.409,9720.69,-1588.19,-0.478747,-0.83464,0.799049,481.931,-9824.42,-831.93,-0.68609,0.667218,-0.507032,-1924.18,9197.98,-2033.0,1.40672,-1.97116,0.058891,-3232.74,-9342.77,-1409.17,-3.21736,1.56179,-0.274871,8748.7,1470.49,4176.69,1.326,0.561536,1.50708
0.023,4463.74,-3139.09,8131.38,-0.146526,0.560974,0.498826,4397.91,2976.6,8021.58,-0.997603,-0.753033,-0.407126,-210.633,9718.61,-1572.25,-0.494657,-0.762356,0.776026,484.117,-9837.55,-819.006,-0.685054,0.718067,-0.435458,-1914.98,9205.56,-2046.54,1.38289,-2.00202,0.115833,-3229.87,-9337.5,-1383.01,-3.21681,1.63628,-0.282178,8756.41,1460.9,4176.56,1.27409,0.619673,1.43058
0.024,4459.13,-3139.52,8142.24,-0.178007,0.605245,0.517223,4405.16,2973.3,8055.81,-0.963478,-0.690721,-0.425918,-188.519,9708.66,-1554.02,-0.546188,-0.645325,0.764084,487.398,-9856.32,-803.487,-0.671053,0.765444,-0.348767,-1908.55,9214.29,-2063.92,1.35645,-2.02,0.198893,-3222.88,-9328.29,-1345.46,-3.22932,1.70329,-0.287394,8762.8,1452.43,4169.57,1.20155,0.677876,1.34865
0.025,4454.52,-3139.95,8153.09,-0.209488,0.649516,0.53562,4412.42,2970.0,8090.04,-0.929353,-0.628409,-0.444709,-166.406,9698.71,-1535.8,-0.59772,-0.528294,0.752143,490.68,-9875.08,-787.969,-0.657052,0.812821,-0.262076,-1902.13,9223.01,-2081.3,1.33,-2.03797,0.281952,-3215.88,-9319.08,-1307.91,-3.24183,1.7703,-0.292611,8769.2,1443.97,4162.57,1.12901,0.73608,1.26671
0.026,4449.91,-3140.39,8163.94,-0.24097,0.693787,0.554017,4419.68,2966.7,8124.27,-0.895227,-0.566096,-0.463501,-144.293,9688.75,-1517.58,-0.649251,-0.411263,0.740201,493.961,-9893.85,-772.45,-0.643052,0.860197,-0.175385,-1895.71,9231.73,-2098.68,1.30355,-2.05594,0.365012,-3208.88,-9309.87,-1270.36,-3.25433,1.83731,-0.297827,8775.59,1435.5,4155.58,1.05647,0.794283,1.18478
0.027,4443.22,-3144.0,8170.24,-0.245732,0.719395,0.565765,4430.1,2970.99,8139.23,-0.871112,-0.538471,-0.485261,-122.77,9682.98,-1513.1,-0.683229,-0.374844,0.736264,491.275,-9906.5,-760.778,-0.623245,0.881934,-0.158123,-1893.11,9240.03,-2113.08,1.30109,-2.06871,0.418929,-3201.27,-9301.26,-1239.96,-3.23816,1.93044,-0.277135,8777.69,1430.96,4153.59,0.938061,0.847363,1.08548
0.028,4432.35,-3154.0,8167.41,-0.197058,0.707677,0.564212,4446.84,2990.48,8115.66,-0.867018,-0.58022,-0.51296,-102.426,9685.57,-1536.1,-0.6821,-0.499649,0.748336,476.655,-9906.92,-756.798,-0.591827,0.852389,-0.279718,-1898.17,9247.47,-2121.48,1.3466,-2.07107,0.414561,-3192.41,-9293.84,-1223.84,-3.16464,2.07579,-0.204628,8771.18,1434.29,4161.62,0.727908,0.890194,0.951448
0.029,4421.49,-3163.99,8164.59,-0.148383,0.695959,0.562659,4463.59,3009.97,8092.08,-0.862924,-0.621968,-0.540658,-82.0826,9688.16,-1559.1,-0.68097,-0.624454,0.760409,462.035,-9907.35,-752.819,-0.560408,0.822845,-0.401314,-1903.22,9254.92,-2129.89,1.3921,-2.07343,0.410193,-3183.56,-9286.42,-1207.73,-3.09112,2.22115,-0.132121,8764.68,1437.62,4169.64,0.517755,0.933025,0.81742
0.03,4410.62,-3173.99,8161.76,-0.0997086,0.68424,0.561106,4480.33,3029.45,8068.51,-0.858829,-0.663717,-0.568356,-61.7388,9690.75,-1582.1,-0.679841,-0.749259,0.772481,447.415,-9907.77,-748.84,-0.528989,0.7933,-0.52291,-1908.28,9262.37,-2138.3,1.43761,-2.07578,0.405825,-3174.71,-9279.0,-1191.62,-3.01759,2.3665,-0.0596133,8758.18,1440.95,4177.67,0.307603,0.975856,0.683392
0.031,4399.76,-3183.98,8158.94,-0.0510341,0.672522,0.559554,4497.08,3048.94,8044.93,-0.854735,-0.705466,-0.596055,-41.395,9693.34,-1605.11,-0.678711,-0.874064,0.784553,432.795,-9908.2,-744.86,-0.497571,0.763755,-0.644505,-1913.33,9269.81,-2146.71,1.48311,-2.07814,0.401457,-3165.85,-9271.58,-1175.5,-2.94407,2.51186,0.0128939,8751.68,1444.27,4185.69,0.0974499,1.01869,0.549364
0.032,4385.87,-3194.99,8140.53,-0.0361303,0.62773,0.518807,4480.11,3059.0,8069.77,-0.966316,-0.703328,-0.522921,-63.5182,9676.28,-1589.44,-0.687991,-0.764184,0.743852,436.621,-9893.52,-761.809,-0.480692,0.750605,-0.654057,-1894.59,9267.71,-2156.22,1.53234,-2.02281,0.314835,-3183.0,-9266.32,-1193.06,-2.90601,2.68534,0.0181867,8753.13,1422.55,4172.91,0.00222348,0.969169,0.52521
0.033,4371.6,-3206.12,8120.17,-0.0254478,0.578804,0.47316,4458.92,3067.87,8100.66,-1.09236,-0.695705,-0.437182,-90.9498,9656.76,-1568.94,-0.698573,-0.624968,0.696555,442.752,-9876.96,-781.374,-0.46563,0.739503,-0.649604,-1872.88,9264.41,-2165.87,1.58203,-1.96027,0.217933,-3203.39,-9261.33,-1214.83,-2.87238,2.86234,0.0150777,8755.58,1397.69,4157.53,-0.0786371,0.908107,0.51479
0.034,4357.33,-3217.26,8099.81,-0.0147654,0.529878,0.427514,4437.74,3076.75,8131.56,-1.2184,-0.688081,-0.351444,-118.381,9637.24,-1548.44,-0.709154,-0.485753,0.649257,448.883,-9860.39,-800.939,-0.450569,0.728401,-0.64515,-1851.16,9261.11,-2175.52,1.63172,-1.89772,0.12103,-3223.79,-9256.34,-1236.6,-2.83874,3.03934,0.0119687,8758.04,1372.83,4142.14,-0.159498,0.847045,0.504369
0.035,4343.06,-3228.39,8079.45,-0.00408291,0.480951,0.381868,4416.55,3085.63,8162.45,-1.34444,-0.680457,-0.265706,-145.813,9617.72,-1527.95,-0.719736,-0.346537,0.60196,455.014,-9843.83,-820.504,-0.435507,0.717299,-0.640697,-1829.45,9257.82,-2185.16,1.68141,-1.83518,0.0241267,-3244.19,-9251.35,-1258.37,-2.80511,3.21633,0.00885964,8760.48,1347.97,4126.76,-0.240358,0.785983,0.493949
0.036,4332.4,-3235.09,8063.28,-0.0142247,0.461027,0.353913,4413.64,3086.4,8173.85,-1.38553,-0.675722,-0.237192,-164.395,9607.52,-1515.69,-0.720764,-0.238528,0.573033,468.03,-9838.44,-823.437,-0.423028,0.750248,-0.600667,-1811.37,9259.86,-2199.94,1.66587,-1.78198,-0.0202443,-3254.86,-9247.26,-1264.44,-2.76347,3.3969,-0.0326292,8756.5,1334.29,4130.85,-0.327669,0.802028,0.517022
0.037,4326.24,-3236.23,8052.36,-0.0503967,0.477354,0.348072,4433.58,3077.03,8160.87,-1.32044,-0.674596,-0.280209,-171.916,9608.96,-1513.74,-0.709849,-0.169528,0.56707,489.65,-9847.02,-805.579,-0.413777,0.838258,-0.516169,-1797.83,9268.59,-2221.13,1.56878,-1.74045,0.00104958,-3253.38,-9244.29,-1250.88,-2.7118,3.58195,-0.122093,8744.48,1334.58,4159.29,-0.423043,0.914459,0.581961
0.038,4320.08,-3237.37,8041.43,-0.0865688,0.493682,0.342232,4453.51,3067.67,8147.9,-1.25536,-0.673471,-0.323226,-179.436,9610.39,-1511.79,-0.698935,-0.100527,0.561106,511.27,-9855.59,-787.721,-0.404526,0.926269,-0.43167,-1784.3,9277.32,-2242.31,1.47169,-1.69892,0.0223434,-3251.9,-9241.32,-1237.32,-2.66014,3.76699,-0.211556,8732.46,1334.87,4187.73,-0.518417,1.02689,0.6469
0.039,4313.93,-3238.51,8030.5,-0.122741,0.510009,0.336392,4473.45,3058.3,8134.93,-1.19027,-0.672345,-0.366243,-186.956,9611.83,-1509.84,-0.688021,-0.031527,0.555143,532.89,-9864.17,-769.863,-0.395275,1.01428,-0.347172,-1770.76,9286.05,-2263.5,1.3746,-1.65739,0.0436373,-3250.42,-9238.36,-1223.77,-2.60847,3.95203,-0.30102,8720.44,1335.16,4216.16,-0.613791,1.13932,0.711839
0.04,4307.77,-3239.65,8019.58,-0.158913,0.526337,0.330551,4493.38,3048.93,8121.96,-1.12518,-0.67122,-0.40926,-194.477,9613.27,-1507.89,-0.677107,0.0374734,0.54918,554.51,-9872.74,-752.005,-0.386023,1.10229,-0.262673,-1757.22,9294.78,-2284.68,1.27751,-1.61586,0.0649311,-3248.94,-9235.39,-1210.21,-2.55681,4.13707,-0.390483,8708.42,1335.45,4244.6,-0.709165,1.25175,0.776778
0.041,4315.63,-3231.18,8029.32,-0.189661,0.567374,0.326969,4477.98,3039.07,8136.82,-1.15768,-0.696907,-0.413283,-208.704,9593.95,-1539.56,-0.713496,0.13077,0.612036,551.473,-9875.68,-753.64,-0.381545,1.20925,-0.120969,-1757.31,9297.75,-2291.99,1.25921,-1.55313,0.132699,-3243.18,-9257.98,-1196.2,-2.4953,4.09731,-0.450012,8712.88,1320.1,4246.29,-0.832599,1.32412,0.8199
0.042,4323.48,-3222.7,8039.06,-0.220409,0.608411,0.323386,4462.59,3029.21,8151.68,-1.19017,-0.722594,-0.417306,-222.93,9574.64,-1571.23,-0.749885,0.224067,0.674893,548.435,-9878.62,-755.275,-0.377067,1.31621,0.0207344,-1757.4,9300.71,-2299.3,1.24091,-1.4904,0.200466,-3237.42,-9280.57,-1182.19,-2.4338,4.05756,-0.50954,8717.33,1304.75,4247.98,-0.956032,1.39648,0.863023
0.043,4331.34,-3214.23,8048.8,-0.251158,0.649448,0.319803,4447.19,3019.35,8166.54,-1.22267,-0.748281,-0.421329,-237.157,9555.32,-1602.9,-0.786275,0.317364,0.737749,545.398,-9881.57,-756.911,-0.372589,1.42317,0.162438,-1757.49,9303.67,-2306.61,1.2226,-1.42767,0.268234,-3231.66,-9303.15,-1168.18,-2.3723,4.0178,-0.569069,8721.79,1289.4,4249.66,-1.07947,1.46885,0.906145
0.044,4339.19,-3205.76,8058.55,-0.281906,0.690485,0.31622,4431.79,3009.49,8181.41,-1.25516,-0.773968,-0.425352,-251.384,9536.01,-1634.57,-0.822664,0.410661,0.800606,542.361,-9884.51,-758.546,-0.36811,1.53013,0.304142,-1757.59,9306.64,-2313.92,1.2043,-1.36494,0.336001,-3225.91,-9325.74,-1154.17,-2.3108,3.97805,-0.628597,8726.25,1274.05,4251.35,-1.2029,1.54121,0.949268
0.045,4344.53,-3211.6,8073.3,-0.275789,0.683062,0.32011,4421.47,2997.98,8173.94,-1.21347,-0.707149,-0.434342,-252.305,9523.08,-1640.27,-0.840768,0.421248,0.782224,549.727,-9880.2,-759.282,-0.36612,1.55595,0.370302,-1764.11,9308.8,-2312.92,1.24601,-1.29889,0.382076,-3225.62,-9341.89,-1156.83,-2.28475,3.99638,-0.642195,8736.47,1272.64,4255.0,-1.21642,1.60455,0.925125
0.046,4347.85,-3228.9,8092.06,-0.24018,0.636871,0.329978,4415.2,2985.15,8148.6,-1.11242,-0.566327,-0.447305,-242.583,9515.27,-1625.19,-0.844242,0.365668,0.698852,565.417,-9870.09,-759.299,-0.36612,1.51684,0.376027,-1775.78,9310.34,-2305.27,1.33574,-1.23019,0.410797,-3229.7,-9352.88,-1172.82,-2.28707,4.06119,-0.619048,8751.3,1282.37,4260.21,-1.14202,1.66066,0.847171
0.047,4351.17,-3246.19,8110.83,-0.204571,0.590679,0.339846,4408.93,2972.32,8123.27,-1.01138,-0.425505,-0.460268,-232.86,9507.45,-1610.1,-0.847717,0.310088,0.615481,581.107,-9859.99,-759.315,-0.36612,1.47774,0.381753,-1787.45,9311.87,-2297.63,1.42546,-1.1615,0.439519,-3233.79,-9363.88,-1188.8,-2.28938,4.12599,-0.595901,8766.13,1292.1,4265.43,-1.06761,1.71677,0.769217
0.048,4354.49,-3263.48,8129.59,-0.168962,0.544488,0.349714,4402.66,2959.48,8097.93,-0.910328,-0.284683,-0.473231,-223.138,9499.64,-1595.02,-0.851191,0.254508,0.532109,596.797,-9849.89,-759.331,-0.36612,1.43863,0.387478,-1799.12,9313.4,-2289.98,1.51518,-1.0928,0.46824,-3237.88,-9374.87,-1204.79,-2.2917,4.1908,-0.572754,8780.96,1301.83,4270.64,-0.993208,1.77288,0.691262
0.049,4359.12,-3279.21,8145.02,-0.139691,0.50678,0.351479,4397.17,2947.54,8073.18,-0.827096,-0.170199,-0.481932,-214.063,9495.34,-1579.21,-0.851413,0.197383,0.470133,607.072,-9843.33,-759.388,-0.360529,1.40417,0.398208,-1809.57,9315.45,-2283.56,1.59201,-1.0199,0.499112,-3241.9,-9381.99,-1219.91,-2.28611,4.27343,-0.548134,8791.03,1307.48,4274.83,-0.952152,1.80354,0.638095
0.05,4374.18,-3282.44,8133.81,-0.161131,0.536943,0.288425,4397.9,2942.71,8053.14,-0.886377,-0.266428,-0.456534,-210.169,9519.18,-1557.55,-0.825605,0.127905,0.579324,574.033,-9865.21,-759.767,-0.310206,1.40681,0.448981,-1810.3,9321.62,-2286.89,1.56566,-0.913473,0.547191,-3245.41,-9358.15,-1228.12,-2.21735,4.49869,-0.511736,8763.05,1280.41,4270.78,-1.17789,1.63066,0.783228
0.051,4389.24,-3285.66,8122.61,-0.182571,0.567105,0.22537,4398.62,2937.88,8033.1,-0.945657,-0.362657,-0.431135,-206.275,9543.01,-1535.9,-0.799797,0.0584256,0.688515,540.994,-9887.09,-760.147,-0.259883,1.40945,0.499753,-1811.02,9327.78,-2290.22,1.5393,-0.807041,0.59527,-3248.91,-9334.3,-1236.33,-2.1486,4.72394,-0.475337,8735.07,1253.35,4266.74,-1.40363,1.45777,0.928361
0.052,4404.3,-3288.88,8111.4,-0.204011,0.597268,0.162316,4399.35,2933.05,8013.05,-1.00494,-0.458886,-0.405737,-202.38,9566.85,-1514.25,-0.77399,-0.0110533,0.797705,507.956,-9908.96,-760.526,-0.20956,1.41209,0.550525,-1811.74,9333.95,-2293.55,1.51295,-0.70061,0.643349,-3252.42,-9310.46,-1244.54,-2.07984,4.9492,-0.438938,8707.09,1226.28,4262.69,-1.62937,1.28489,1.07349
0.053,4419.35,-3292.11,8100.19,-0.225451,0.62743,0.0992612,4400.08,2928.23,7993.01,-1.06422,-0.555115,-0.380338,-198.486,9590.68,-1492.59,-0.748182,-0.0805321,0.906896,474.917,-9930.84,-760.905,-0.159237,1.41473,0.601297,-1812.47,9340.12,-2296.88,1.4866,-0.594178,0.691428,-3255.92,-9286.61,-1252.75,-2.01108,5.17445,-0.40254,8679.11,1199.22,4258.65,-1.85511,1.11201,1.21863
0.054,4427.35,-3280.5,8096.34,-0.211259,0.67267,0.0895679,4394.83,2929.94,8009.2,-1.09494,-0.599443,-0.406214,-200.478,9598.98,-1511.86,-0.808186,-0.0715904,0.82626,484.755,-9944.81,-752.066,-0.130246,1.43673,0.683557,-1811.87,9336.36,-2308.18,1.44414,-0.427552,0.725264,-3250.61,-9282.3,-1244.49,-2.00594,5.31542,-0.409236,8687.84,1206.85,4268.61,-1.88843,1.02466,1.16957
0.055,4431.82,-3261.48,8096.17,-0.17925,0.725448,0.106555,4386.59,2934.91,8043.51,-1.11137,-0.617822,-0.457726,-205.412,9599.51,-1551.59,-0.911095,-0.0234383,0.650709,516.031,-9954.82,-738.617,-0.111921,1.46839,0.781561,-1810.61,9327.64,-2323.46,1.39363,-0.230829,0.751978,-3240.89,-9287.76,-1228.0,-2.0326,5.41424,-0.43748,8714.93,1231.82,4285.57,-1.82554,0.980083,1.02343
0.056,4436.29,-3242.46,8095.99,-0.147242,0.778227,0.123543,4378.35,2939.89,8077.82,-1.12781,-0.636201,-0.509238,-210.345,9600.04,-1591.32,-1.014,0.0247138,0.475159,547.307,-9964.83,-725.168,-0.0935969,1.50006,0.879566,-1809.36,9318.92,-2338.75,1.34312,-0.0341063,0.778692,-3231.16,-9293.21,-1211.5,-2.05926,5.51306,-0.465724,8742.01,1256.8,4302.53,-1.76265,0.935507,0.877278
0.057,4440.77,-3223.44,8095.82,-0.115233,0.831005,0.14053,4370.11,2944.87,8112.13,-1.14425,-0.654579,-0.56075,-215.279,9600.57,-1631.05,-1.11691,0.0728658,0.299608,578.583,-9974.85,-711.719,-0.0752724,1.53172,0.97757,-1808.1,9310.2,-2354.03,1.29261,0.162617,0.805406,-3221.44,-9298.67,-1195.0,-2.08593,5.61189,-0.493968,8769.1,1281.78,4319.49,-1.69976,0.890931,0.731131
0.058,4442.01,-3206.64,8097.42,-0.0827696,0.874217,0.143298,4367.12,2952.5,8130.3,-1.16899,-0.663071,-0.607204,-218.02,9602.12,-1660.11,-1.1746,0.110904,0.181607,598.329,-9977.7,-701.673,-0.0704483,1.5555,1.05672,-1807.31,9303.73,-2367.83,1.23801,0.354549,0.847646,-3216.89,-9303.35,-1178.1,-2.09627,5.68538,-0.513014,8790.95,1296.48,4331.76,-1.66593,0.84701,0.607946
0.059,4431.94,-3197.59,8105.27,-0.0487142,0.883947,0.0962949,4382.47,2969.43,8091.99,-1.2228,-0.636957,-0.635958,-213.085,9607.26,-1651.79,-1.07398,0.113541,0.265031,577.718,-9955.5,-703.538,-0.112876,1.55169,1.06987,-1808.14,9305.15,-2376.46,1.16912,0.529711,0.944227,-3230.45,-9305.3,-1159.77,-2.04951,5.67022,-0.499866,8794.48,1275.21,4327.64,-1.73382,0.805382,0.56513
0.06,4421.88,-3188.54,8113.12,-0.0146587,0.893678,0.0492922,4397.82,2986.36,8053.67,-1.27661,-0.610843,-0.664711,-208.151,9612.41,-1643.47,-0.973364,0.116179,0.348454,557.107,-9933.29,-705.403,-0.155303,1.54787,1.08302,-1808.96,9306.56,-2385.08,1.10022,0.704874,1.04081,-3244.02,-9307.26,-1141.43,-2.00275,5.65505,-0.486718,8798.02,1253.95,4323.52,-1.80172,0.763755,0.522315
0.061,4411.81,-3179.49,8120.96,0.0193967,0.903408,0.00228957,4413.16,3003.3,8015.36,-1.33043,-0.58473,-0.693464,-203.216,9617.55,-1635.15,-0.872748,0.118816,0.431877,536.497,-9911.08,-707.268,-0.19773,1.54405,1.09617,-1809.79,9307.97,-2393.7,1.03133,0.880037,1.13739,-3257.58,-9309.21,-1123.1,-1.95599,5.63989,-0.47357,8801.55,1232.68,4319.39,-1.86961,0.722127,0.479499
0.062,4401.75,-3170.44,8128.81,0.0534521,0.913138,-0.0447131,4428.51,3020.23,7977.05,-1.38424,-0.558616,-0.722217,-198.281,9622.69,-1626.84,-0.772132,0.121454,0.5153,515.886,-9888.88,-709.133,-0.240157,1.54023,1.10932,-1810.62,9309.38,-2402.32,0.962436,1.0552,1.23397,-3271.14,-9311.17,-1104.77,-1.90923,5.62473,-0.460422,8805.09,1211.42,4315.27,-1.9375,0.680499,0.436683
0.063,4395.78,-3176.23,8128.63,-0.0243657,0.908185,-0.0384111,4407.69,3021.93,7977.43,-1.40792,-0.531271,-0.75015,-185.582,9618.26,-1615.69,-0.819675,0.0803429,0.57822,521.701,-9877.47,-716.384,-0.208537,1.52849,1.03366,-1806.29,9312.12,-2385.89,0.857272,1.22666,1.30743,-3270.75,-9316.51,-1104.63,-1.86167,5.62978,-0.441509,8794.07,1204.2,4311.05,-2.05972,0.639208,0.342633
0.064,4390.98,-3186.26,8126.15,-0.134147,0.899036,-0.0168793,4376.53,3019.28,7988.86,-1.42299,-0.503573,-0.777847,-170.664,9611.09,-1603.73,-0.909549,0.0267322,0.635283,535.065,-9869.14,-725.173,-0.15576,1.51449,0.93264,-1800.48,9315.23,-2362.3,0.741746,1.39706,1.37429,-3266.37,-9322.82,-1109.69,-1.81388,5.64062,-0.420948,8778.9,1201.0,4306.79,-2.19746,0.598013,0.233944
0.065,4386.19,-3196.28,8123.67,-0.243929,0.889888,0.00465256,4345.37,3016.63,8000.3,-1.43807,-0.475876,-0.805544,-155.746,9603.92,-1591.78,-0.999422,-0.0268784,0.692345,548.429,-9860.82,-733.963,-0.102983,1.50049,0.831616,-1794.68,9318.35,-2338.7,0.626219,1.56746,1.44115,-3261.99,-9329.14,-1114.75,-1.76609,5.65145,-0.400388,8763.72,1197.8,4302.54,-2.3352,0.556818,0.125255
0.066,4381.4,-3206.31,8121.2,-0.353711,0.880739,0.0261844,4314.21,3013.98,8011.74,-1.45314,-0.448178,-0.833242,-140.828,9596.75,-1579.82,-1.0893,-0.0804891,0.749408,561.794,-9852.5,-742.752,-0.0502064,1.48649,0.730592,-1788.87,9321.46,-2315.11,0.510692,1.73786,1.50801,-3257.61,-9335.45,-1119.8,-1.7183,5.66228,-0.379827,8748.55,1194.6,4298.29,-2.47294,0.515623,0.0165665
0.067,4371.52,-3217.22,8118.22,-0.414254,0.894791,0.0326471,4306.69,3012.54,8018.75,-1.44521,-0.43856,-0.84738,-135.377,9591.91,-1572.47,-1.14997,-0.121188,0.760747,567.251,-9849.13,-746.0,-0.00931868,1.49478,0.706717,-1783.96,9327.28,-2299.34,0.409123,1.90777,1.53247,-3255.06,-9334.54,-1123.03,-1.69701,5.66557,-0.38989,8735.58,1193.58,4297.23,-2.57777,0.487773,-0.0203432
0.068,4351.47,-3229.91,8114.23,-0.376322,0.955243,0.00897143,4346.44,3013.54,8016.89,-1.39126,-0.465099,-0.8344,-148.86,9591.73,-1574.31,-1.15226,-0.136065,0.680641,556.894,-9855.68,-738.167,0.00779073,1.54768,0.837139,-1780.83,9338.53,-2299.19,0.335467,2.07667,1.47213,-3256.18,-9319.19,-1122.59,-1.72873,5.65376,-0.4612,8727.0,1196.91,4302.59,-2.61678,0.48661,0.0863052
0.069,4331.43,-3242.59,8110.25,-0.338389,1.0157,-0.0147042,4386.19,3014.53,8015.03,-1.33732,-0.491639,-0.82142,-162.344,9591.55,-1576.16,-1.15455,-0.150941,0.600535,546.536,-9862.23,-730.333,0.0249001,1.60057,0.967562,-1777.7,9349.78,-2299.04,0.261812,2.24557,1.4118,-3257.29,-9303.83,-1122.16,-1.76045,5.64196,-0.53251,8718.43,1200.25,4307.94,-2.65579,0.485448,0.192954
0.07,4311.39,-3255.27,8106.26,-0.300457,1.07615,-0.0383799,4425.94,3015.53,8013.18,-1.28337,-0.518178,-0.808439,-175.827,9591.37,-1578.01,-1.15684,-0.165817,0.520429,536.179,-9868.79,-722.499,0.0420095,1.65347,1.09798,-1774.57,9361.02,-2298.89,0.188157,2.41448,1.35146,-3258.41,-9288.48,-1121.72,-1.79217,5.63015,-0.60382,8709.85,1203.58,4313.29,-2.6948,0.484286,0.299602
0.071,4291.34,-3267.95,8102.28,-0.262524,1.1366,-0.0620555,4465.69,3016.52,8011.32,-1.22942,-0.544718,-0.795459,-189.31,9591.19,-1579.86,-1.15913,-0.180693,0.440322,525.821,-9875.34,-714.665,0.059119,1.70636,1.22841,-1771.44,9372.27,-2298.74,0.114501,2.58338,1.29112,-3259.53,-9273.13,-1121.29,-1.82389,5.61834,-0.67513,8701.28,1206.92,4318.65,-2.73382,0.483124,0.40625
0.072,4305.1,-3268.51,8108.14,-0.202083,1.07871,-0.0464387,4452.44,2990.89,8039.72,-1.30793,-0.426383,-0.745231,-175.639,9597.88,-1573.38,-1.15936,-0.23132,0.345163,527.623,-9892.64,-726.95,-0.0100388,1.6831,1.2141,-1760.93,9379.69,-2313.17,0.0640859,2.71122,1.25419,-3245.7,-9272.07,-1125.18,-1.88866,5.57192,-0.636623,8698.91,1212.57,4319.6,-2.66997,0.43793,0.332538
0.073,4323.08,-3267.55,8115.24,-0.138828,1.00602,-0.0259104,4432.55,2961.92,8071.89,-1.403,-0.289939,-0.690347,-158.573,9605.43,-1565.86,-1.15935,-0.286416,0.248121,530.945,-9911.29,-741.75,-0.0899798,1.65032,1.18171,-1749.51,9386.64,-2329.42,0.0165758,2.83393,1.22019,-3230.0,-9272.8,-1129.61,-1.95756,5.52117,-0.58439,8697.31,1218.53,4320.0,-2.59327,0.387233,0.236281
0.074,4341.06,-3266.6,8122.34,-0.0755726,0.93334,-0.00538201,4412.66,2932.95,8104.07,-1.49807,-0.153496,-0.635463,-141.508,9612.98,-1558.34,-1.15933,-0.341512,0.15108,534.267,-9929.93,-756.55,-0.169921,1.61754,1.14931,-1738.08,9393.58,-2345.68,-0.0309344,2.95663,1.18619,-3214.3,-9273.52,-1134.04,-2.02646,5.47042,-0.532157,8695.72,1224.48,4320.41,-2.51657,0.336536,0.140024
0.075,4359.04,-3265.64,8129.43,-0.0123174,0.860656,0.0151463,4392.78,2903.98,8136.24,-1.59314,-0.0170518,-0.580579,-124.442,9620.53,-1550.83,-1.15931,-0.396607,0.0540387,537.589,-9948.58,-771.35,-0.249862,1.58477,1.11692,-1726.65,9400.52,-2361.93,-0.0784445,3.07934,1.15219,-3198.6,-9274.25,-1138.48,-2.09537,5.41967,-0.479924,8694.12,1230.43,4320.81,-2.43987,0.285838,0.0437667
0.076,4371.57,-3248.18,8133.69,0.0138779,0.8248,0.0360999,4372.17,2884.57,8141.72,-1.56675,0.0221836,-0.592499,-124.528,9631.79,-1545.71,-1.14162,-0.445667,0.0310064,533.963,-9956.39,-783.549,-0.301458,1.58843,1.08237,-1728.79,9402.12,-2364.97,-0.158749,3.19673,1.16428,-3197.26,-9276.29,-1143.05,-2.11321,5.39551,-0.430223,8699.64,1228.9,4312.59,-2.45069,0.299546,-0.0389893
0.077,4377.29,-3210.09,8134.39,-0.00625157,0.83498,0.0575849,4350.66,2877.11,8113.84,-1.38856,-0.0600916,-0.687924,-146.054,9647.7,-1543.6,-1.10182,-0.487183,0.100485,521.651,-9950.66,-792.497,-0.317624,1.63765,1.04513,-1747.88,9397.01,-2351.49,-0.280046,3.30748,1.23396,-3213.85,-9279.96,-1147.79,-2.06722,5.40462,-0.383687,8714.05,1218.02,4293.6,-2.5709,0.393761,-0.104869
0.078,4383.0,-3172.0,8135.1,-0.0263811,0.84516,0.0790699,4329.16,2869.65,8085.96,-1.21037,-0.142367,-0.78335,-167.579,9663.62,-1541.48,-1.06203,-0.528698,0.169964,509.339,-9944.93,-801.444,-0.333789,1.68687,1.00789,-1766.97,9391.91,-2338.01,-0.401343,3.41822,1.30364,-3230.44,-9283.63,-1152.53,-2.02124,5.41372,-0.337151,8728.46,1207.14,4274.6,-2.69112,0.487976,-0.170748
0.079,4388.72,-3133.92,8135.8,-0.0465106,0.85534,0.100555,4307.65,2862.18,8058.08,-1.03217,-0.224642,-0.878775,-189.104,9679.53,-1539.37,-1.02223,-0.570213,0.239443,497.027,-9939.2,-810.392,-0.349955,1.73609,0.970656,-1786.05,9386.81,-2324.54,-0.522639,3.52897,1.37332,-3247.03,-9287.31,-1157.27,-1.97526,5.42282,-0.290616,8742.88,1196.26,4255.61,-2.81134,0.58219,-0.236628
0.08,4394.43,-3095.83,8136.5,-0.0666401,0.86552,0.12204,4286.14,2854.72,8030.2,-0.853977,-0.306917,-0.9742,-210.63,9695.44,-1537.26,-0.982435,-0.611729,0.308922,484.715,-9933.47,-819.34,-0.36612,1.78531,0.933418,-1805.14,9381.71,-2311.06,-0.643936,3.63972,1.443,-3263.63,-9290.98,-1162.02,-1.92927,5.43192,-0.24408,8757.29,1185.38,4236.61,-2.93155,0.676405,-0.302508
0.081,4385.4,-3102.29,8138.25,-0.137404,0.871017,0.0831739,4309.85,2891.99,8032.48,-0.84144,-0.387761,-0.87857,-209.247,9676.77,-1540.69,-1.08785,-0.639859,0.374342,469.174,-9912.16,-825.932,-0.294346,1.74765,1.01308,-1828.37,9380.36,-2306.39,-0.783446,3.74237,1.56183,-3262.27,-9278.5,-1180.81,-1.95914,5.34199,-0.356884,8729.95,1198.33,4253.86,-2.95345,0.700508,-0.29228
0.082,4376.36,-3108.75,8140.0,-0.208168,0.876514,0.0443078,4333.55,2929.26,8034.75,-0.828903,-0.468605,-0.782941,-207.865,9658.09,-1544.12,-1.19327,-0.667988,0.439761,453.632,-9890.84,-832.524,-0.222571,1.70999,1.09274,-1851.59,9379.01,-2301.72,-0.922957,3.84503,1.68067,-3260.91,-9266.03,-1199.6,-1.98902,5.25206,-0.469688,8702.61,1211.29,4271.11,-2.97536,0.724612,-0.282052
0.083,4367.33,-3115.21,8141.74,-0.278932,0.882011,0.00544173,4357.25,2966.54,8037.03,-0.816366,-0.549449,-0.687311,-206.482,9639.42,-1547.55,-1.29868,-0.696118,0.505181,438.091,-9869.53,-839.116,-0.150797,1.67233,1.1724,-1874.81,9377.65,-2297.05,-1.06247,3.94768,1.79951,-3259.55,-9253.56,-1218.4,-2.01889,5.16213,-0.582492,8675.27,1224.24,4288.37,-2.99726,0.748715,-0.271825
0.084,4358.29,-3121.67,8143.49,-0.349697,0.887508,-0.0334244,4380.95,3003.81,8039.31,-0.803828,-0.630293,-0.591682,-205.1,9620.75,-1550.98,-1.4041,-0.724248,0.570601,422.55,-9848.22,-845.708,-0.0790229,1.63467,1.25206,-1898.03,9376.3,-2292.39,-1.20198,4.05034,1.91834,-3258.19,-9241.08,-1237.19,-2.04876,5.0722,-0.695296,8647.93,1237.19,4305.62,-3.01916,0.772819,-0.261597
0.085,4365.34,-3121.45,8129.49,-0.3288,0.896446,-0.0212772,4396.51,3010.28,8045.66,-0.8451,-0.620913,-0.548839,-198.184,9622.72,-1557.67,-1.38371,-0.760751,0.54788,431.631,-9844.59,-840.034,-0.0956039,1.65479,1.30113,-1907.68,9370.33,-2289.66,-1.30272,4.06776,2.00391,-3270.9,-9236.87,-1232.34,-2.09481,5.01109,-0.753042,8640.27,1238.45,4300.82,-3.11799,0.760892,-0.2874
0.086,4385.26,-3115.89,8102.9,-0.234576,0.908137,0.0316807,4405.54,2992.12,8055.27,-0.929419,-0.539354,-0.548226,-186.841,9641.2,-1566.97,-1.26269,-0.803952,0.454645,460.409,-9855.12,-824.546,-0.182869,1.72112,1.32573,-1906.47,9360.67,-2288.49,-1.37244,4.01698,2.06287,-3294.87,-9239.28,-1208.56,-2.1538,4.97303,-0.766742,8648.35,1230.36,4278.39,-3.27837,0.72014,-0.342028
0.087,4405.17,-3110.32,8076.31,-0.140351,0.919828,0.0846385,4414.57,2973.96,8064.88,-1.01374,-0.457794,-0.547613,-175.497,9659.68,-1576.27,-1.14166,-0.847153,0.361411,489.188,-9865.65,-809.058,-0.270134,1.78745,1.35034,-1905.26,9351.01,-2287.33,-1.44217,3.96621,2.12182,-3318.84,-9241.69,-1184.79,-2.21279,4.93497,-0.780442,8656.43,1222.27,4255.96,-3.43875,0.679388,-0.396655
0.088,4425.09,-3104.75,8049.72,-0.0461266,0.931519,0.137596,4423.6,2955.8,8074.49,-1.09806,-0.376235,-0.547,-164.154,9678.16,-1585.57,-1.02064,-0.890354,0.268177,517.966,-9876.18,-793.57,-0.3574,1.85378,1.37494,-1904.06,9341.36,-2286.16,-1.51189,3.91544,2.18078,-3342.81,-9244.1,-1161.02,-2.27178,4.89691,-0.794142,8664.52,1214.18,4233.53,-3.59913,0.638637,-0.451282
0.089,4442.73,-3103.09,8028.53,0.0405675,0.952772,0.175458,4434.17,2939.38,8083.25,-1.18778,-0.302341,-0.543567,-157.586,9693.32,-1593.41,-0.911514,-0.93772,0.186474,542.22,-9884.52,-782.198,-0.430741,1.91235,1.40948,-1902.55,9331.91,-2284.15,-1.57017,3.86725,2.23102,-3365.1,-9244.65,-1139.76,-2.33533,4.85814,-0.805548,8670.18,1207.18,4215.08,-3.74826,0.599443,-0.50367
0.09,4442.12,-3132.63,8050.55,0.067018,1.05052,0.0925486,4457.11,2936.98,8085.12,-1.32073,-0.289769,-0.517572,-189.216,9682.01,-1589.57,-0.897618,-1.01841,0.197015,530.276,-9875.37,-803.753,-0.39269,1.90883,1.52352,-1898.64,9324.1,-2275.46,-1.53683,3.83974,2.2116,-3373.93,-9230.37,-1138.67,-2.43536,4.81368,-0.798605,8656.53,1209.0,4228.53,-3.80742,0.572714,-0.538141
0.091,4441.51,-3162.18,8072.58,0.0934685,1.14827,0.00963926,4480.05,2934.57,8086.99,-1.45368,-0.277198,-0.491578,-220.847,9670.7,-1585.74,-0.883722,-1.0991,0.207557,518.333,-9866.22,-825.307,-0.35464,1.9053,1.63756,-1894.73,9316.29,-2266.77,-1.5035,3.81224,2.19217,-3382.76,-9216.09,-1137.59,-2.53538,4.76923,-0.791662,8642.88,1210.81,4241.97,-3.86657,0.545985,-0.572612
0.092,4440.9,-3191.72,8094.6,0.119919,1.24601,-0.0732701,4502.99,2932.16,8088.87,-1.58663,-0.264627,-0.465584,-252.477,9659.39,-1581.9,-0.869826,-1.17979,0.218099,506.389,-9857.07,-846.862,-0.31659,1.90177,1.75159,-1890.83,9308.48,-2258.08,-1.47017,3.78473,2.17274,-3391.59,-9201.81,-1136.5,-2.6354,4.72477,-0.784719,8629.23,1212.62,4255.42,-3.92573,0.519255,-0.607083
0.093,4440.29,-3221.26,8116.63,0.146369,1.34376,-0.156179,4525.93,2929.75,8090.74,-1.71959,-0.252055,-0.43959,-284.107,9648.08,-1578.07,-0.855931,-1.26049,0.228641,494.445,-9847.92,-868.417,-0.278539,1.89824,1.86563,-1886.92,9300.67,-2249.39,-1.43684,3.75722,2.15331,-3400.42,-9187.52,-1135.41,-2.73543,4.68031,-0.777775,8615.58,1214.43,4268.86,-3.98488,0.492526,-0.641554
0.094,4433.5,-3234.05,8130.57,0.0893589,1.34462,-0.2044,4527.71,2965.33,8086.63,-1.73366,-0.264876,-0.448663,-274.988,9646.86,-1580.71,-0.848732,-1.29921,0.201796,489.439,-9858.2,-849.068,-0.271107,1.93032,1.80879,-1883.73,9301.47,-2243.35,-1.43781,3.75687,2.13601,-3405.2,-9184.15,-1138.61,-2.79939,4.72465,-0.77154,8631.21,1222.72,4257.55,-3.96458,0.476703,-0.624613
0.095,4423.63,-3238.46,8140.47,-0.00938207,1.29704,-0.235276,4518.9,3019.91,8079.54,-1.6883,-0.290394,-0.475271,-245.493,9650.68,-1586.6,-0.844881,-1.31696,0.156258,487.901,-9878.19,-809.268,-0.278983,1.98019,1.6665,-1880.89,9306.58,-2238.63,-1.45593,3.77008,2.11978,-3407.97,-9186.23,-1143.95,-2.84532,4.81338,-0.765657,8661.48,1234.25,4233.86,-3.90455,0.466333,-0.581966
0.096,4413.75,-3242.88,8150.38,-0.108123,1.24946,-0.266151,4510.1,3074.49,8072.44,-1.64294,-0.315911,-0.501878,-215.999,9654.51,-1592.48,-0.84103,-1.33471,0.11072,486.363,-9898.19,-769.468,-0.286859,2.03007,1.52422,-1878.06,9311.68,-2233.91,-1.47405,3.78329,2.10354,-3410.74,-9188.32,-1149.3,-2.89125,4.90211,-0.759775,8691.75,1245.78,4210.17,-3.84452,0.455964,-0.539318
0.097,4403.87,-3247.29,8160.28,-0.206864,1.20188,-0.297027,4501.29,3129.07,8065.35,-1.59758,-0.341429,-0.528485,-186.504,9658.33,-1598.37,-0.837179,-1.35245,0.0651817,484.825,-9918.19,-729.668,-0.294735,2.07995,1.38193,-1875.22,9316.79,-2229.19,-1.49217,3.79651,2.08731,-3413.51,-9190.4,-1154.64,-2.93718,4.99085,-0.753893,8722.02,1257.31,4186.47,-3.78449,0.445594,-0.496671
0.098,4393.71,-3246.09,8160.98,-0.263411,1.16307,-0.304247,4486.56,3161.96,8061.06,-1.53374,-0.356301,-0.549475,-167.958,9667.02,-1601.86,-0.86503,-1.33582,0.0526831,480.216,-9932.27,-698.242,-0.301073,2.1051,1.29482,-1874.08,9319.06,-2222.2,-1.50004,3.80181,2.07658,-3414.14,-9192.65,-1156.87,-2.97599,5.09382,-0.735067,8744.44,1270.53,4162.74,-3.74968,0.44428,-0.484501
0.099,4382.58,-3225.24,8129.47,-0.172278,1.15494,-0.228668,4451.08,3118.98,8066.6,-1.40521,-0.333918,-0.550804,-187.732,9692.77,-1596.94,-1.00384,-1.19887,0.155822,464.859,-9925.65,-696.122,-0.302027,2.04368,1.40079,-1878.87,9311.4,-2207.29,-1.47201,3.77942,2.08512,-3407.28,-9195.48,-1148.19,-2.98988,5.24661,-0.670937,8739.4,1289.66,4138.84,-3.80315,0.474662,-0.579002
0.1,4371.45,-3204.39,8097.95,-0.0811459,1.14682,-0.153089,4415.6,3075.99,8072.14,-1.27669,-0.311534,-0.552132,-207.505,9718.51,-1592.03,-1.14264,-1.06192,0.258962,449.501,-9919.03,-694.002,-0.302981,1.98226,1.50677,-1883.66,9303.74,-2192.37,-1.44397,3.75703,2.09367,-3400.41,-9198.31,-1139.52,-3.00377,5.39941,-0.606806,8734.35,1308.79,4114.95,-3.85661,0.505044,-0.673503
0.101,4360.32,-3183.53,8066.44,0.00998664,1.13869,-0.0775097,4380.12,3033.01,8077.68,-1.14817,-0.28915,-0.553461,-227.279,9744.25,-1587.12,-1.28145,-0.924969,0.362101,434.144,-9912.41,-691.883,-0.303934,1.92084,1.61275,-1888.45,9296.08,-2177.46,-1.41594,3.73464,2.10222,-3393.55,-9201.14,-1130.85,-3.01766,5.5522,-0.542676,8729.31,1327.92,4091.05,-3.91007,0.535426,-0.768003
0.102,4349.19,-3162.68,8034.93,0.101119,1.13056,-0.00193068,4344.63,2990.02,8083.22,-1.01964,-0.266767,-0.554789,-247.052,9769.99,-1582.2,-1.42026,-0.788018,0.46524,418.787,-9905.79,-689.763,-0.304888,1.85942,1.71872,-1893.24,9288.42,-2162.54,-1.38791,3.71225,2.11076,-3386.69,-9203.97,-1122.17,-3.03155,5.705,-0.478545,8724.27,1347.05,4067.16,-3.96354,0.565808,-0.862504
0.103,4355.86,-3179.51,8037.12,0.0643182,1.15034,0.0417299,4348.06,2988.37,8089.5,-1.04555,-0.322154,-0.574799,-255.956,9758.89,-1573.42,-1.43141,-0.687497,0.485431,422.878,-9873.91,-706.404,-0.222233,1.81204,1.71598,-1911.95,9288.21,-2155.23,-1.35345,3.6184,2.01567,-3388.3,-9204.99,-1121.51,-3.0772,5.65135,-0.447114,8737.15,1366.86,4103.97,-4.08901,0.604362,-0.934056
0.104,4367.62,-3207.11,8048.94,-0.0090353,1.17808,0.076271,4362.59,2998.52,8096.0,-1.11557,-0.399763,-0.600146,-261.753,9737.26,-1563.54,-1.4061,-0.597385,0.481922,432.525,-9834.82,-728.404,-0.115689,1.76867,1.68217,-1934.63,9290.13,-2150.08,-1.31717,3.50412,1.89096,-3392.33,-9205.51,-1123.14,-3.13193,5.53872,-0.425025,8755.14,1386.85,4158.12,-4.23506,0.645251,-0.999051
0.105,4379.37,-3234.71,8060.75,-0.0823888,1.20582,0.110812,4377.13,3008.67,8102.5,-1.1856,-0.477371,-0.625493,-267.55,9715.64,-1553.66,-1.38079,-0.507272,0.478413,442.172,-9795.72,-750.405,-0.00914574,1.72531,1.64836,-1957.32,9292.05,-2144.94,-1.28088,3.38984,1.76625,-3396.36,-9206.02,-1124.77,-3.18665,5.42609,-0.402935,8773.13,1406.85,4212.28,-4.38111,0.68614,-1.06405
0.106,4391.13,-3262.31,8072.57,-0.155742,1.23357,0.145353,4391.67,3018.81,8109.0,-1.25563,-0.554979,-0.65084,-273.348,9694.01,-1543.77,-1.35548,-0.417159,0.474904,451.82,-9756.62,-772.405,0.0973978,1.68194,1.61455,-1980.01,9293.97,-2139.79,-1.24459,3.27556,1.64155,-3400.39,-9206.53,-1126.4,-3.24137,5.31346,-0.380846,8791.13,1426.85,4266.43,-4.52716,0.727029,-1.12904
0.107,4402.17,-3273.47,8080.57,-0.167435,1.25779,0.15539,4402.31,3030.24,8109.8,-1.3264,-0.601801,-0.664025,-272.278,9673.33,-1541.34,-1.3802,-0.398505,0.459114,452.672,-9749.0,-780.189,0.115168,1.63903,1.60971,-1998.16,9292.38,-2138.4,-1.19701,3.18201,1.55061,-3400.11,-9203.44,-1133.73,-3.27336,5.20002,-0.411053,8803.36,1433.36,4303.38,-4.61474,0.729752,-1.18162
0.108,4411.82,-3251.75,8080.94,-0.0558065,1.27496,0.116418,4405.14,3044.2,8099.19,-1.39866,-0.58705,-0.652884,-257.473,9654.54,-1553.79,-1.505,-0.522768,0.418763,435.933,-9804.32,-759.54,-0.0446081,1.59703,1.66284,-2007.24,9283.78,-2144.52,-1.12682,3.12994,1.52719,-3391.21,-9193.14,-1152.48,-3.25985,5.085,-0.545853,8804.05,1412.89,4305.92,-4.58538,0.656144,-1.20937
0.109,4421.46,-3230.04,8081.3,0.055822,1.29213,0.0774469,4407.98,3058.16,8088.58,-1.47092,-0.572298,-0.641743,-242.668,9635.76,-1566.25,-1.6298,-0.64703,0.378411,419.194,-9859.64,-738.891,-0.204384,1.55502,1.71596,-2016.31,9275.19,-2150.64,-1.05664,3.07787,1.50378,-3382.3,-9182.83,-1171.22,-3.24635,4.96997,-0.680653,8804.75,1392.42,4308.47,-4.55602,0.582535,-1.23712
0.11,4431.1,-3208.32,8081.66,0.16745,1.30931,0.0384754,4410.81,3072.13,8077.98,-1.54318,-0.557547,-0.630602,-227.864,9616.97,-1578.71,-1.7546,-0.771293,0.33806,402.455,-9914.97,-718.242,-0.36416,1.51302,1.76908,-2025.39,9266.59,-2156.76,-0.98645,3.02581,1.48036,-3373.4,-9172.53,-1189.97,-3.23285,4.85494,-0.815453,8805.45,1371.95,4311.01,-4.52666,0.508927,-1.26488
0.111,4440.74,-3186.6,8082.03,0.279079,1.32648,-0.000496156,4413.65,3086.09,8067.37,-1.61544,-0.542796,-0.619461,-213.059,9598.18,-1591.16,-1.8794,-0.895556,0.297709,385.716,-9970.29,-697.592,-0.523937,1.47102,1.8222,-2034.46,9257.99,-2162.88,-0.916266,2.97374,1.45695,-3364.49,-9162.23,-1208.71,-3.21934,4.73991,-0.950253,8806.14,1351.48,4313.55,-4.49731,0.435319,-1.29263
0.112,4422.96,-3195.01,8091.51,0.37842,1.3312,-0.0160651,4411.21,3072.25,8072.42,-1.55778,-0.519262,-0.63376,-192.893,9589.54,-1595.11,-1.7831,-0.89167,0.273863,393.267,-9968.33,-699.936,-0.396623,1.50213,1.84011,-2032.57,9251.36,-2157.58,-0.778428,2.86966,1.50448,-3390.33,-9144.82,-1198.83,-3.11528,4.63433,-0.9947,8789.0,1349.72,4298.98,-4.45548,0.430259,-1.3235
0.113,4401.76,-3207.19,8102.13,0.476226,1.33436,-0.0287086,4408.11,3054.93,8079.43,-1.48389,-0.49463,-0.651239,-172.057,9582.17,-1598.0,-1.65916,-0.871765,0.25208,403.854,-9959.21,-705.154,-0.233424,1.54237,1.85362,-2029.31,9244.98,-2150.85,-0.632135,2.75909,1.56088,-3420.52,-9126.52,-1185.36,-2.99991,4.52993,-1.02785,8769.62,1350.3,4282.27,-4.4121,0.433767,-1.35476
0.114,4380.55,-3219.37,8112.76,0.574032,1.33752,-0.0413522,4405.01,3037.62,8086.44,-1.40999,-0.469998,-0.668718,-151.22,9574.8,-1600.89,-1.53523,-0.851861,0.230297,414.442,-9950.08,-710.372,-0.0702249,1.58261,1.86712,-2026.05,9238.59,-2144.11,-0.485841,2.64852,1.61728,-3450.71,-9108.21,-1171.89,-2.88453,4.42553,-1.06101,8750.25,1350.87,4265.56,-4.36872,0.437275,-1.38602
0.115,4359.35,-3231.55,8123.38,0.671837,1.34068,-0.0539958,4401.91,3020.3,8093.45,-1.3361,-0.445366,-0.686197,-130.384,9567.44,-1603.78,-1.41129,-0.831956,0.208514,425.029,-9940.96,-715.59,0.0929745,1.62286,1.88063,-2022.8,9232.21,-2137.38,-0.339547,2.53795,1.67368,-3480.89,-9089.91,-1158.42,-2.76915,4.32113,-1.09416,8730.87,1351.45,4248.85,-4.32534,0.440784,-1.41728
0.116,4347.75,-3233.11,8131.24,0.646063,1.29903,-0.0369035,4399.7,3013.16,8091.58,-1.30945,-0.433272,-0.656303,-111.909,9571.76,-1594.9,-1.34318,-0.79076,0.20654,430.352,-9935.24,-720.72,0.190756,1.62086,1.85169,-2015.46,9229.94,-2129.56,-0.268448,2.41253,1.67947,-3490.31,-9088.55,-1145.39,-2.72884,4.25175,-1.08265,8731.75,1359.42,4240.23,-4.27826,0.44662,-1.4534
0.117,4348.17,-3221.38,8135.64,0.465814,1.20136,0.0173586,4398.62,3018.75,8078.62,-1.34187,-0.436851,-0.567194,-96.3848,9590.68,-1571.3,-1.34485,-0.72295,0.229326,429.096,-9933.76,-725.74,0.206766,1.56607,1.7697,-2003.01,9232.82,-2120.39,-0.291343,2.26857,1.62199,-3473.76,-9108.36,-1132.91,-2.78236,4.22615,-1.01531,8757.94,1376.63,4241.71,-4.22655,0.455366,-1.4956
0.118,4348.59,-3209.66,8140.05,0.285564,1.10369,0.0716208,4397.53,3024.33,8065.66,-1.37429,-0.44043,-0.478084,-80.8606,9609.61,-1547.71,-1.34652,-0.655139,0.252112,427.84,-9932.28,-730.76,0.222775,1.51127,1.6877,-1990.57,9235.7,-2111.21,-0.314237,2.12461,1.56451,-3457.21,-9128.17,-1120.42,-2.83589,4.20055,-0.947966,8784.14,1393.84,4243.18,-4.17485,0.464113,-1.5378
0.119,4349.0,-3197.93,8144.45,0.105315,1.00601,0.125883,4396.44,3029.92,8052.69,-1.40671,-0.44401,-0.388975,-65.3364,9628.54,-1524.11,-1.34819,-0.587329,0.274898,426.583,-9930.8,-735.781,0.238785,1.45647,1.60571,-1978.13,9238.58,-2102.03,-0.337132,1.98065,1.50703,-3440.66,-9147.98,-1107.93,-2.88942,4.17496,-0.880623,8810.33,1411.06,4244.66,-4.12315,0.472859,-1.58
0.12,4349.42,-3186.21,8148.86,-0.0749343,0.908343,0.180145,4395.36,3035.5,8039.73,-1.43912,-0.447589,-0.299866,-49.8123,9647.47,-1500.52,-1.34986,-0.519518,0.297685,425.327,-9929.33,-740.801,0.254794,1.40167,1.52371,-1965.69,9241.46,-2092.85,-0.360026,1.83669,1.44956,-3424.11,-9167.79,-1095.45,-2.94295,4.14936,-0.813281,8836.52,1428.27,4246.14,-4.07145,0.481605,-1.6222
0.121,4380.56,-3176.29,8123.2,-0.0717506,0.893443,0.227513,4396.05,2989.87,8040.03,-1.38122,-0.359484,-0.430777,-81.0644,9643.7,-1505.23,-1.35274,-0.456596,0.285624,420.002,-9916.1,-730.29,0.328704,1.38902,1.51644,-1961.9,9240.43,-2100.64,-0.293213,1.79413,1.32058,-3428.4,-9181.51,-1116.53,-2.95641,4.0517,-0.773345,8811.91,1430.61,4238.91,-4.01913,0.378786,-1.61128
0.122,4411.7,-3166.37,8097.55,-0.0685671,0.878544,0.274881,4396.74,2944.23,8040.32,-1.32332,-0.271379,-0.561688,-112.317,9639.94,-1509.94,-1.35563,-0.393674,0.273563,414.678,-9902.87,-719.778,0.402615,1.37636,1.50917,-1958.11,9239.39,-2108.42,-0.226399,1.75157,1.19161,-3432.69,-9195.24,-1137.61,-2.96987,3.95404,-0.733408,8787.29,1432.95,4231.68,-3.96682,0.275967,-1.60035
0.123,4442.84,-3156.45,8071.89,-0.0653834,0.863644,0.322249,4397.44,2898.59,8040.62,-1.26542,-0.183275,-0.692599,-143.569,9636.17,-1514.65,-1.35852,-0.330752,0.261502,409.353,-9889.65,-709.267,0.476525,1.36371,1.5019,-1954.32,9238.36,-2116.21,-0.159586,1.70902,1.06263,-3436.98,-9208.97,-1158.7,-2.98333,3.85638,-0.693472,8762.67,1435.29,4224.45,-3.9145,0.173147,-1.58943
0.124,4473.98,-3146.54,8046.23,-0.0621998,0.848745,0.369617,4398.13,2852.96,8040.92,-1.20752,-0.0951701,-0.82351,-174.821,9632.41,-1519.36,-1.3614,-0.26783,0.24944,404.028,-9876.42,-698.756,0.550435,1.35106,1.49463,-1950.52,9237.33,-2124.0,-0.0927721,1.66646,0.933657,-3441.27,-9222.7,-1179.78,-2.99679,3.75872,-0.653535,8738.06,1437.62,4217.22,-3.86219,0.0703281,-1.5785
0.125,4481.68,-3163.26,8035.14,-0.0470002,0.849829,0.358108,4406.06,2848.5,8042.5,-1.20413,-0.118388,-0.842428,-199.368,9624.0,-1527.85,-1.33298,-0.195892,0.246303,411.578,-9874.49,-693.844,0.51905,1.34744,1.54986,-1950.65,9235.06,-2127.86,-0.0118029,1.56038,0.92247,-3452.13,-9218.28,-1187.26,-2.96447,3.77434,-0.620352,8727.69,1442.01,4219.1,-3.7432,0.00598019,-1.63935
0.126,4470.62,-3201.3,8035.69,-0.0221876,0.863701,0.299499,4419.77,2876.98,8045.11,-1.24435,-0.230665,-0.771751,-218.551,9611.86,-1539.35,-1.27951,-0.116743,0.250305,429.428,-9881.58,-693.412,0.403429,1.35106,1.6551,-1953.91,9231.8,-2128.59,0.0804908,1.40351,1.00551,-3468.25,-9199.35,-1183.85,-2.89552,3.88057,-0.592572,8728.73,1448.03,4228.27,-3.57087,-0.0275906,-1.75761
0.127,4459.57,-3239.33,8036.24,0.00262491,0.877572,0.240889,4433.48,2905.46,8047.72,-1.28457,-0.342942,-0.701074,-237.733,9599.73,-1550.86,-1.22604,-0.0375927,0.254307,447.278,-9888.68,-692.98,0.287807,1.35467,1.76034,-1957.17,9228.54,-2129.31,0.172784,1.24663,1.08856,-3484.38,-9180.42,-1180.44,-2.82657,3.98681,-0.564792,8729.77,1454.05,4237.44,-3.39854,-0.0611615,-1.87586
0.128,4448.52,-3277.37,8036.79,0.0274374,0.891443,0.182279,4447.19,2933.94,8050.33,-1.32479,-0.455219,-0.630397,-256.916,9587.59,-1562.37,-1.17257,0.0415571,0.25831,465.128,-9895.78,-692.548,0.172186,1.35829,1.86557,-1960.43,9225.28,-2130.04,0.265078,1.08975,1.1716,-3500.5,-9161.49,-1177.04,-2.75762,4.09304,-0.537012,8730.8,1460.07,4246.61,-3.22621,-0.0947323,-1.99412
0.129,4436.35,-3308.95,8038.05,0.0447689,0.89529,0.129706,4456.26,2960.22,8052.13,-1.35227,-0.542837,-0.571523,-267.137,9576.73,-1572.2,-1.12967,0.102691,0.26351,480.198,-9901.75,-692.961,0.0721173,1.34797,1.94173,-1960.75,9220.56,-2130.28,0.347041,0.93453,1.23997,-3515.48,-9145.94,-1173.94,-2.70818,4.1762,-0.509231,8734.04,1467.21,4256.29,-3.06946,-0.118182,-2.08538
0.13,4415.26,-3288.9,8044.99,0.00225174,0.818939,0.125422,4428.21,2968.85,8047.46,-1.27781,-0.433185,-0.607075,-205.663,9576.05,-1568.69,-1.17136,0.0196999,0.278298,473.03,-9898.75,-700.129,0.0964732,1.22619,1.78524,-1937.62,9204.1,-2126.7,0.346363,0.792614,1.19088,-3521.31,-9157.48,-1173.35,-2.81477,4.07474,-0.481451,8754.87,1483.31,4270.04,-3.03735,-0.0606627,-1.96066
0.131,4394.17,-3268.86,8051.93,-0.0402654,0.742589,0.121138,4400.17,2977.48,8042.79,-1.20335,-0.323534,-0.642626,-144.189,9575.37,-1565.18,-1.21305,-0.0632914,0.293086,465.862,-9895.74,-707.297,0.120829,1.10441,1.62875,-1914.49,9187.65,-2123.11,0.345684,0.650698,1.14179,-3527.14,-9169.02,-1172.76,-2.92136,3.97329,-0.453671,8775.71,1499.41,4283.79,-3.00525,-0.00314335,-1.83594
0.132,4373.08,-3248.81,8058.87,-0.0827826,0.666239,0.116855,4372.12,2986.11,8038.12,-1.12889,-0.213883,-0.678177,-82.7146,9574.69,-1561.67,-1.25473,-0.146283,0.307873,458.693,-9892.74,-714.465,0.145185,0.982635,1.47226,-1891.36,9171.19,-2119.53,0.345005,0.508782,1.09271,-3532.97,-9180.56,-1172.17,-3.02794,3.87183,-0.425891,8796.54,1515.51,4297.54,-2.97314,0.054376,-1.71122
0.133,4351.99,-3228.77,8065.8,-0.1253,0.589889,0.112571,4344.07,2994.75,8033.45,-1.05443,-0.104231,-0.713729,-21.2404,9574.01,-1558.16,-1.29642,-0.229274,0.322661,451.525,-9889.73,-721.634,0.169541,0.860856,1.31577,-1868.22,9154.74,-2115.94,0.344327,0.366866,1.04362,-3538.8,-9192.1,-1171.57,-3.13453,3.77038,-0.39811,8817.37,1531.6,4311.29,-2.94103,0.111895,-1.5865
0.134,4361.64,-3217.85,8079.04,-0.0927196,0.606288,0.0747128,4325.67,2990.68,8024.15,-1.08837,-0.0725989,-0.715268,-24.5834,9572.1,-1553.44,-1.33033,-0.216841,0.301425,456.738,-9876.23,-721.863,0.160399,0.872876,1.33035,-1863.82,9168.67,-2118.74,0.432808,0.299086,1.02368,-3539.37,-9210.94,-1174.01,-3.09815,3.80677,-0.408107,8825.48,1531.05,4312.84,-2.96263,0.0881302,-1.5245
0.135,4386.66,-3211.5,8095.43,-0.0225909,0.669061,0.0200674,4312.09,2980.27,8012.55,-1.17651,-0.079976,-0.699801,-60.3351,9569.57,-1548.12,-1.36035,-0.156697,0.262177,468.143,-9857.47,-718.623,0.134509,0.951797,1.43046,-1868.78,9197.8,-2124.73,0.565869,0.268373,1.01831,-3537.3,-9233.42,-1177.97,-2.99029,3.91208,-0.436991,8827.21,1522.18,4308.29,-3.01108,0.0237228,-1.49385
0.136,4411.68,-3205.15,8111.82,0.0475379,0.731834,-0.0345779,4298.51,2969.85,8000.95,-1.26464,-0.087353,-0.684335,-96.0867,9567.04,-1542.8,-1.39037,-0.0965522,0.222929,479.547,-9838.71,-715.383,0.108618,1.03072,1.53058,-1873.75,9226.93,-2130.72,0.69893,0.23766,1.01294,-3535.23,-9255.91,-1181.93,-2.88242,4.01739,-0.465876,8828.95,1513.31,4303.74,-3.05953,-0.0406845,-1.46321
0.137,4436.7,-3198.8,8128.21,0.117667,0.794608,-0.0892233,4284.93,2959.43,7989.34,-1.35278,-0.09473,-0.668868,-131.838,9564.5,-1537.48,-1.42039,-0.0364077,0.183681,490.951,-9819.96,-712.143,0.0827279,1.10964,1.63069,-1878.71,9256.06,-2136.71,0.831991,0.206948,1.00757,-3533.17,-9278.4,-1185.89,-2.77455,4.1227,-0.49476,8830.69,1504.43,4299.19,-3.10799,-0.105092,-1.43257
0.138,4456.65,-3196.08,8140.83,0.165528,0.85987,-0.126584,4277.32,2949.56,7984.81,-1.4048,-0.0970257,-0.65107,-160.304,9564.82,-1527.38,-1.43812,0.0117928,0.161863,503.2,-9809.46,-718.767,0.0396665,1.19939,1.70778,-1883.54,9285.2,-2140.7,0.939096,0.149035,1.01452,-3535.84,-9292.76,-1192.94,-2.68682,4.21866,-0.541811,8829.8,1493.36,4294.44,-3.12978,-0.166192,-1.41846
0.139,4458.82,-3206.06,8140.29,0.135454,0.933847,-0.103451,4290.63,2941.57,8005.04,-1.33039,-0.0815366,-0.625109,-163.27,9575.09,-1500.5,-1.41283,0.0181891,0.20105,518.407,-9827.86,-759.919,-0.0634937,1.32703,1.70426,-1887.92,9314.4,-2137.71,0.955355,-0.00407725,1.06459,-3555.12,-9278.67,-1210.83,-2.66955,4.2819,-0.652443,8819.72,1474.58,4289.0,-3.05825,-0.215717,-1.46223
0.14,4460.99,-3216.04,8139.74,0.10538,1.00782,-0.080318,4303.94,2933.58,8025.27,-1.25599,-0.0660475,-0.599149,-166.235,9585.36,-1473.63,-1.38753,0.0245853,0.240238,533.614,-9846.27,-801.071,-0.166654,1.45468,1.70075,-1892.29,9343.6,-2134.72,0.971614,-0.15719,1.11467,-3574.4,-9264.58,-1228.72,-2.65229,4.34514,-0.763075,8809.64,1455.81,4283.55,-2.98673,-0.265241,-1.506
0.141,4463.16,-3226.02,8139.19,0.0753053,1.0818,-0.0571848,4317.24,2925.59,8045.5,-1.18158,-0.0505584,-0.573189,-169.201,9595.63,-1446.75,-1.36224,0.0309815,0.279425,548.821,-9864.68,-842.224,-0.269814,1.58233,1.69723,-1896.66,9372.8,-2131.73,0.987872,-0.310302,1.16475,-3593.68,-9250.49,-1246.61,-2.63502,4.40838,-0.873707,8799.56,1437.04,4278.11,-2.91521,-0.314766,-1.54977
0.142,4465.33,-3236.0,8138.64,0.045231,1.15578,-0.0340516,4330.55,2917.6,8065.72,-1.10717,-0.0350692,-0.547228,-172.166,9605.9,-1419.88,-1.33695,0.0373777,0.318613,564.028,-9883.08,-883.376,-0.372974,1.70997,1.69372,-1901.04,9402.0,-2128.75,1.00413,-0.463414,1.21483,-3612.96,-9236.4,-1264.5,-2.61776,4.47162,-0.984339,8789.48,1418.26,4272.66,-2.84369,-0.36429,-1.59354
0.143,4461.0,-3238.96,8147.28,0.00449509,1.10783,0.0307622,4336.9,2941.88,8068.37,-1.08853,-0.145,-0.540795,-180.843,9618.16,-1431.61,-1.31015,0.0130361,0.355158,536.234,-9898.67,-868.567,-0.36654,1.69636,1.67747,-1912.22,9392.12,-2146.14,0.968972,-0.549208,1.2206,-3606.02,-9232.68,-1254.0,-2.67005,4.51808,-1.02457,8786.89,1403.93,4269.08,-2.87957,-0.429244,-1.5191
0.144,4454.81,-3239.91,8158.54,-0.039287,1.02505,0.107485,4341.27,2975.37,8066.0,-1.08582,-0.290765,-0.539941,-191.152,9630.98,-1454.38,-1.28293,-0.0200877,0.390947,496.155,-9913.45,-837.77,-0.328794,1.64238,1.65758,-1925.36,9371.07,-2169.37,0.919122,-0.615767,1.21371,-3591.59,-9231.91,-1235.38,-2.74221,4.55975,-1.0447,8786.44,1390.87,4266.04,-2.94613,-0.498605,-1.41089
0.145,4448.62,-3240.87,8169.79,-0.083069,0.942266,0.184207,4345.64,3008.87,8063.62,-1.08311,-0.436529,-0.539086,-201.46,9643.81,-1477.15,-1.2557,-0.0532115,0.426737,456.075,-9928.22,-806.973,-0.291047,1.58841,1.6377,-1938.49,9350.03,-2192.59,0.869272,-0.682327,1.20682,-3577.16,-9231.15,-1216.77,-2.81437,4.60142,-1.06482,8785.99,1377.8,4262.99,-3.0127,-0.567967,-1.30268
0.146,4442.43,-3241.82,8181.05,-0.126851,0.859484,0.26093,4350.01,3042.37,8061.25,-1.0804,-0.582294,-0.538232,-211.769,9656.63,-1499.91,-1.22847,-0.0863353,0.462527,415.995,-9943.0,-776.176,-0.253301,1.53444,1.61781,-1951.62,9328.98,-2215.82,0.819423,-0.748887,1.19994,-3562.73,-9230.38,-1198.15,-2.88653,4.64309,-1.08494,8785.54,1364.74,4259.95,-3.07926,-0.637329,-1.19447
0.147,4436.44,-3241.78,8182.12,-0.142273,0.794943,0.339821,4361.01,3058.13,8063.7,-1.09377,-0.680794,-0.562726,-222.623,9653.85,-1522.79,-1.18725,-0.129778,0.501994,389.948,-9941.65,-761.339,-0.233075,1.48599,1.61772,-1958.03,9312.02,-2232.08,0.808269,-0.812854,1.19265,-3550.17,-9225.71,-1190.93,-2.90335,4.66113,-1.10624,8774.74,1352.05,4259.87,-3.10904,-0.690145,-1.1182
0.148,4430.83,-3239.77,8162.81,-0.100974,0.766886,0.423048,4385.24,3038.4,8075.82,-1.13931,-0.684765,-0.637916,-234.568,9619.88,-1545.88,-1.11804,-0.193858,0.548814,391.965,-9908.04,-778.424,-0.247888,1.44858,1.65722,-1950.99,9303.21,-2234.42,0.874507,-0.871637,1.18456,-3541.35,-9213.21,-1206.49,-2.80946,4.63191,-1.12987,8743.24,1340.12,4265.71,-3.06524,-0.709871,-1.10583
0.149,4425.23,-3237.75,8143.5,-0.0596747,0.738829,0.506276,4409.47,3018.68,8087.94,-1.18484,-0.688736,-0.713106,-246.514,9585.9,-1568.97,-1.04883,-0.257939,0.595633,393.982,-9874.43,-795.51,-0.262702,1.41118,1.69672,-1943.96,9294.4,-2236.76,0.940745,-0.930419,1.17646,-3532.53,-9200.72,-1222.05,-2.71558,4.60269,-1.1535,8711.75,1328.19,4271.55,-3.02143,-0.729597,-1.09345
0.15,4419.63,-3235.73,8124.19,-0.0183756,0.710772,0.589503,4433.7,2998.96,8100.05,-1.23038,-0.692707,-0.788296,-258.459,9551.93,-1592.07,-0.979614,-0.322019,0.642453,395.999,-9840.81,-812.595,-0.277515,1.37378,1.73621,-1936.92,9285.6,-2239.1,1.00698,-0.989201,1.16837,-3523.71,-9188.23,-1237.61,-2.6217,4.57347,-1.17713,8680.25,1316.26,4277.4,-2.97763,-0.749323,-1.08107
0.151,4414.03,-3233.71,8104.88,0.0229235,0.682714,0.672731,4457.93,2979.23,8112.17,-1.27592,-0.696678,-0.863486,-270.405,9517.95,-1615.16,-0.910402,-0.386099,0.689272,398.015,-9807.2,-829.68,-0.292329,1.33638,1.77571,-1929.88,9276.79,-2241.43,1.07322,-1.04798,1.16028,-3514.89,-9175.74,-1253.17,-2.52782,4.54426,-1.20076,8648.75,1304.33,4283.24,-2.93383,-0.769049,-1.0687
0.152,4391.85,-3210.65,8095.53,0.0981415,0.72054,0.57483,4440.36,2980.27,8102.12,-1.22646,-0.644155,-0.864806,-247.184,9533.43,-1600.82,-0.909018,-0.458358,0.66275,401.906,-9807.21,-824.604,-0.137496,1.32434,1.83066,-1930.66,9282.17,-2245.59,1.13497,-1.02263,1.16819,-3539.84,-9163.29,-1238.5,-2.61916,4.38688,-1.1855,8674.85,1280.48,4288.3,-2.95353,-0.800053,-1.10998
0.153,4367.59,-3184.96,8087.42,0.177599,0.766601,0.454288,4417.56,2983.89,8089.3,-1.16513,-0.584571,-0.856892,-219.568,9555.09,-1581.79,-0.916113,-0.531639,0.62706,406.03,-9811.43,-816.758,0.0385416,1.31549,1.88753,-1932.41,9289.31,-2249.97,1.19616,-0.98676,1.1781,-3569.01,-9150.85,-1220.04,-2.73366,4.21348,-1.16537,8708.14,1255.13,4293.25,-2.98117,-0.832466,-1.15797
0.154,4343.34,-3159.27,8079.32,0.257057,0.812662,0.333746,4394.77,2987.52,8076.48,-1.1038,-0.524986,-0.848979,-191.952,9576.75,-1562.77,-0.923208,-0.60492,0.59137,410.155,-9815.64,-808.913,0.21458,1.30663,1.9444,-1934.17,9296.46,-2254.36,1.25736,-0.950889,1.18801,-3598.18,-9138.41,-1201.58,-2.84816,4.04007,-1.14525,8741.43,1229.79,4298.2,-3.00882,-0.864879,-1.20595
0.155,4319.08,-3133.57,8071.21,0.336515,0.858723,0.213204,4371.98,2991.14,8063.66,-1.04247,-0.465402,-0.841065,-164.336,9598.41,-1543.74,-0.930303,-0.678201,0.55568,414.28,-9819.86,-801.067,0.390618,1.29777,2.00128,-1935.92,9303.61,-2258.74,1.31855,-0.915019,1.19792,-3627.35,-9125.97,-1183.12,-2.96266,3.86667,-1.12513,8774.72,1204.44,4303.16,-3.03646,-0.897293,-1.25394
0.156,4309.59,-3130.35,8073.17,0.379916,0.887411,0.148495,4358.39,2992.11,8064.71,-1.05027,-0.404225,-0.768943,-160.246,9615.62,-1536.25,-0.96286,-0.712737,0.525457,419.725,-9826.57,-784.735,0.417906,1.29275,1.97687,-1925.51,9308.64,-2249.57,1.28189,-0.889363,1.16948,-3636.62,-9115.85,-1183.31,-2.9863,3.80258,-1.06924,8799.8,1198.76,4309.18,-3.07586,-0.91673,-1.24798
0.157,4318.54,-3155.21,8087.72,0.378246,0.894383,0.153578,4356.3,2989.76,8083.1,-1.14448,-0.341059,-0.616562,-185.562,9627.29,-1543.18,-1.02725,-0.698841,0.502066,426.823,-9836.41,-757.797,0.259257,1.29254,1.85087,-1899.88,9311.04,-2223.46,1.12293,-0.876476,1.0931,-3621.03,-9108.62,-1206.81,-2.89637,3.87511,-0.968645,8814.62,1217.65,4316.53,-3.12995,-0.919948,-1.17458
0.158,4327.49,-3180.07,8102.26,0.376577,0.901356,0.158661,4354.21,2987.41,8101.49,-1.23869,-0.277893,-0.464181,-210.879,9638.96,-1550.11,-1.09163,-0.684945,0.478675,433.92,-9846.25,-730.858,0.100609,1.29234,1.72486,-1874.26,9313.44,-2197.35,0.96397,-0.863589,1.01673,-3605.43,-9101.39,-1230.31,-2.80644,3.94764,-0.868048,8829.43,1236.54,4323.89,-3.18404,-0.923166,-1.10119
0.159,4336.45,-3204.92,8116.81,0.374907,0.908328,0.163743,4352.12,2985.06,8119.89,-1.33289,-0.214726,-0.311801,-236.196,9650.63,-1557.04,-1.15602,-0.671049,0.455285,441.018,-9856.09,-703.919,-0.0580402,1.29213,1.59885,-1848.64,9315.84,-2171.24,0.805008,-0.850701,0.940348,-3589.84,-9094.16,-1253.81,-2.71651,4.02017,-0.767452,8844.25,1255.42,4331.24,-3.23813,-0.926384,-1.02779
0.16,4345.4,-3229.78,8131.35,0.373237,0.9153,0.168826,4350.03,2982.71,8138.28,-1.4271,-0.15156,-0.15942,-261.512,9662.3,-1563.97,-1.2204,-0.657154,0.431894,448.116,-9865.93,-676.98,-0.216689,1.29192,1.47285,-1823.01,9318.23,-2145.13,0.646045,-0.837814,0.86397,-3574.24,-9086.93,-1277.31,-2.62658,4.09271,-0.666855,8859.07,1274.31,4338.59,-3.29222,-0.929601,-0.954389
0.161,4350.88,-3231.63,8111.21,0.261206,0.82941,0.159759,4359.63,2993.85,8122.71,-1.33994,-0.190773,-0.262909,-263.656,9637.91,-1558.74,-1.23039,-0.663245,0.379642,431.156,-9861.65,-681.012,-0.156039,1.24526,1.39042,-1809.37,9319.03,-2147.1,0.603339,-0.811104,0.945853,-3595.74,-9110.31,-1262.48,-2.71061,4.04397,-0.654108,8863.06,1264.55,4332.92,-3.17576,-0.946841,-1.00442
0.162,4356.37,-3233.47,8091.08,0.149175,0.743521,0.150692,4369.23,3004.99,8107.14,-1.25279,-0.229986,-0.366398,-265.799,9613.51,-1553.5,-1.24039,-0.669337,0.32739,414.197,-9857.38,-685.045,-0.0953899,1.19859,1.308,-1795.72,9319.83,-2149.07,0.560632,-0.784393,1.02774,-3617.24,-9133.68,-1247.64,-2.79464,3.99523,-0.64136,8867.05,1254.78,4327.24,-3.05929,-0.964081,-1.05445
0.163,4361.85,-3235.32,8070.94,0.0371445,0.657631,0.141624,4378.82,3016.13,8091.57,-1.16563,-0.269199,-0.469887,-267.943,9589.12,-1548.27,-1.25038,-0.675428,0.275139,397.238,-9853.11,-689.077,-0.0347404,1.15193,1.22557,-1782.07,9320.62,-2151.05,0.517926,-0.757683,1.10962,-3638.74,-9157.06,-1232.81,-2.87868,3.9465,-0.628613,8871.05,1245.01,4321.57,-2.94282,-0.981321,-1.10449
0.164,4367.34,-3237.16,8050.81,-0.0748862,0.571742,0.132557,4388.42,3027.27,8076.0,-1.07847,-0.308412,-0.573376,-270.086,9564.73,-1543.03,-1.26037,-0.68152,0.222887,380.279,-9848.83,-693.109,0.0259091,1.10526,1.14315,-1768.42,9321.42,-2153.02,0.47522,-0.730973,1.1915,-3660.23,-9180.43,-1217.98,-2.96271,3.89776,-0.615866,8875.04,1235.25,4315.89,-2.82635,-0.998561,-1.15452
0.165,4375.44,-3234.06,8039.32,-0.138871,0.534788,0.162193,4399.44,3017.77,8063.73,-1.11026,-0.34259,-0.597252,-260.575,9558.9,-1537.35,-1.27437,-0.707282,0.209536,387.694,-9844.87,-705.333,0.0290139,1.08427,1.13977,-1755.47,9325.5,-2160.87,0.437447,-0.673247,1.22706,-3663.75,-9194.55,-1205.31,-3.02027,3.84444,-0.644804,8873.08,1223.34,4306.55,-2.81889,-1.02359,-1.1501
0.166,4385.64,-3227.02,8034.73,-0.164419,0.536983,0.222792,4411.6,2991.77,8054.08,-1.23721,-0.372739,-0.557437,-241.741,9567.92,-1531.32,-1.29158,-0.748781,0.227306,414.609,-9841.17,-724.109,-0.0139171,1.0838,1.19962,-1743.08,9332.22,-2173.42,0.40362,-0.590708,1.22555,-3652.87,-9201.27,-1194.37,-3.05664,3.78744,-0.70709,8866.36,1209.72,4294.27,-2.89864,-1.05485,-1.10212
0.167,4395.84,-3219.97,8030.15,-0.189966,0.539177,0.283391,4423.76,2965.77,8044.44,-1.36415,-0.402889,-0.517623,-222.907,9576.94,-1525.29,-1.30878,-0.79028,0.245077,441.524,-9837.46,-742.885,-0.056848,1.08334,1.25947,-1730.69,9338.94,-2185.98,0.369794,-0.50817,1.22404,-3642.0,-9207.99,-1183.44,-3.09302,3.73045,-0.769377,8859.65,1196.1,4281.99,-2.97838,-1.08612,-1.05413
0.168,4406.04,-3212.92,8025.57,-0.215514,0.541372,0.34399,4435.92,2939.76,8034.79,-1.4911,-0.433039,-0.477808,-204.073,9585.96,-1519.26,-1.32599,-0.831779,0.262847,468.438,-9833.75,-761.662,-0.099779,1.08287,1.31932,-1718.3,9345.66,-2198.53,0.335967,-0.425632,1.22254,-3631.12,-9214.71,-1172.51,-3.1294,3.67346,-0.831664,8852.93,1182.49,4269.71,-3.05813,-1.11738,-1.00615
0.169,4413.57,-3209.31,8021.36,-0.227211,0.544864,0.398588,4448.5,2916.47,8026.48,-1.59893,-0.463312,-0.447474,-185.274,9595.17,-1512.81,-1.33796,-0.86607,0.290081,490.436,-9831.12,-777.057,-0.138146,1.08672,1.37279,-1710.02,9352.23,-2207.92,0.31472,-0.34956,1.22196,-3621.96,-9220.62,-1162.25,-3.16482,3.61943,-0.886334,8846.87,1169.74,4257.89,-3.13347,-1.14695,-0.971038
0.17,4399.83,-3233.22,8020.17,-0.128101,0.558736,0.405177,4464.44,2914.87,8028.77,-1.55382,-0.494572,-0.492982,-166.758,9605.88,-1503.02,-1.30802,-0.842702,0.393027,473.101,-9837.04,-765.404,-0.140006,1.12507,1.3752,-1734.67,9357.67,-2191.94,0.394104,-0.325218,1.22878,-3626.5,-9220.03,-1157.39,-3.1926,3.5891,-0.880077,8846.04,1163.97,4249.77,-3.17359,-1.16298,-1.03891
0.171,4386.09,-3257.12,8018.98,-0.0289914,0.572607,0.411766,4480.39,2913.27,8031.07,-1.50871,-0.525831,-0.538491,-148.241,9616.6,-1493.23,-1.27808,-0.819333,0.495974,455.766,-9842.96,-753.752,-0.141866,1.16341,1.37762,-1759.32,9363.1,-2175.95,0.473488,-0.300877,1.2356,-3631.05,-9219.44,-1152.53,-3.22038,3.55878,-0.87382,8845.21,1158.19,4241.65,-3.21372,-1.17901,-1.10679
0.172,4372.35,-3281.03,8017.79,0.0701184,0.586478,0.418355,4496.33,2911.67,8033.37,-1.4636,-0.557091,-0.583999,-129.724,9627.31,-1483.43,-1.24815,-0.795965,0.59892,438.43,-9848.88,-742.099,-0.143725,1.20176,1.38003,-1783.97,9368.54,-2159.97,0.552872,-0.276535,1.24242,-3635.59,-9218.85,-1147.67,-3.24816,3.52845,-0.867563,8844.39,1152.42,4233.53,-3.25384,-1.19504,-1.17467
0.173,4358.6,-3304.93,8016.59,0.169228,0.600349,0.424944,4512.28,2910.07,8035.66,-1.4185,-0.588351,-0.629507,-111.208,9638.03,-1473.64,-1.21821,-0.772596,0.701866,421.095,-9854.8,-730.447,-0.145585,1.24011,1.38245,-1808.63,9373.98,-2143.99,0.632256,-0.252194,1.24925,-3640.13,-9218.26,-1142.81,-3.27594,3.49813,-0.861306,8843.56,1146.64,4225.41,-3.29397,-1.21107,-1.24254
0.174,4353.76,-3310.45,8026.1,0.200074,0.605757,0.384823,4497.3,2917.85,8042.49,-1.40884,-0.582362,-0.567708,-107.021,9636.16,-1479.98,-1.21304,-0.775675,0.667473,414.378,-9853.67,-726.446,-0.196181,1.28203,1.35753,-1818.61,9371.56,-2157.1,0.609034,-0.188188,1.29793,-3614.59,-9209.32,-1158.34,-3.24409,3.41839,-0.858479,8825.33,1155.13,4233.1,-3.2948,-1.18448,-1.2407
0.175,4353.38,-3306.78,8040.95,0.196787,0.606933,0.321347,4466.87,2930.32,8051.57,-1.41691,-0.55775,-0.452255,-109.999,9627.99,-1494.39,-1.22026,-0.791976,0.56441,412.972,-9849.0,-726.272,-0.271146,1.32573,1.31893,-1821.27,9365.21,-2184.74,0.534509,-0.104351,1.36753,-3574.0,-9196.19,-1184.06,-3.18242,3.31393,-0.857368,8798.4,1170.74,4248.7,-3.27599,-1.13658,-1.20401
0.176,4352.99,-3303.11,8055.8,0.1935,0.608109,0.257871,4436.43,2942.79,8060.66,-1.42499,-0.533138,-0.336802,-112.977,9619.83,-1508.79,-1.22748,-0.808277,0.461348,411.565,-9844.34,-726.098,-0.34611,1.36944,1.28034,-1823.93,9358.87,-2212.39,0.459984,-0.0205131,1.43714,-3533.41,-9183.07,-1209.79,-3.12075,3.20948,-0.856256,8771.47,1186.36,4264.3,-3.25719,-1.08868,-1.16731
0.177,4352.6,-3299.44,8070.65,0.190213,0.609285,0.194395,4406.0,2955.26,8069.74,-1.43306,-0.508526,-0.221349,-115.956,9611.66,-1523.2,-1.23469,-0.824579,0.358285,410.158,-9839.68,-725.923,-0.421075,1.41315,1.24175,-1826.59,9352.52,-2240.04,0.385459,0.0633245,1.50674,-3492.82,-9169.95,-1235.51,-3.05908,3.10503,-0.855145,8744.54,1201.97,4279.9,-3.23838,-1.04079,-1.13062
0.178,4355.0,-3293.57,8077.1,0.178869,0.641579,0.143875,4383.16,2964.86,8079.75,-1.4442,-0.480865,-0.160409,-115.828,9606.52,-1534.41,-1.22799,-0.830617,0.285189,410.259,-9836.25,-726.056,-0.46507,1.44809,1.20801,-1824.7,9344.12,-2257.77,0.322628,0.134309,1.56286,-3466.66,-9159.97,-1247.15,-2.98993,2.99335,-0.857155,8726.89,1213.64,4291.06,-3.23212,-0.999122,-1.08576
0.179,4367.17,-3279.98,8054.14,0.139324,0.782786,0.138704,4386.89,2964.4,8092.98,-1.46607,-0.442532,-0.290265,-104.832,9611.96,-1534.42,-1.17259,-0.800736,0.316977,415.638,-9837.12,-727.266,-0.400673,1.45234,1.19124,-1806.86,9328.53,-2240.79,0.300723,0.160307,1.57176,-3491.02,-9161.03,-1209.49,-2.8946,2.85635,-0.870095,8741.69,1211.48,4286.69,-3.2698,-0.979269,-1.01233
0.18,4379.34,-3266.4,8031.18,0.0997788,0.923992,0.133532,4390.62,2963.94,8106.21,-1.48795,-0.404199,-0.42012,-93.8349,9617.4,-1534.44,-1.11719,-0.770855,0.348765,421.016,-9837.99,-728.475,-0.336275,1.45659,1.17448,-1789.03,9312.93,-2223.81,0.278819,0.186306,1.58067,-3515.37,-9162.1,-1171.83,-2.79927,2.71935,-0.883034,8756.5,1209.32,4282.33,-3.30748,-0.959417,-0.938892
0.181,4391.51,-3252.82,8008.22,0.0602337,1.0652,0.128361,4394.36,2963.49,8119.44,-1.50983,-0.365866,-0.549975,-82.8383,9622.83,-1534.45,-1.06179,-0.740974,0.380553,426.394,-9838.86,-729.684,-0.271878,1.46085,1.15772,-1771.19,9297.33,-2206.84,0.256914,0.212304,1.58957,-3539.73,-9163.16,-1134.17,-2.70394,2.58235,-0.895973,8771.31,1207.15,4277.97,-3.34516,-0.939564,-0.865458
0.182,4403.68,-3239.24,7985.26,0.0206885,1.20641,0.123189,4398.09,2963.03,8132.67,-1.5317,-0.327533,-0.679831,-71.8416,9628.27,-1534.47,-1.00639,-0.711093,0.412341,431.773,-9839.73,-730.893,-0.207481,1.4651,1.14096,-1753.36,9281.74,-2189.86,0.23501,0.238303,1.59848,-3564.08,-9164.22,-1096.51,-2.60861,2.44535,-0.908912,8786.12,1204.99,4273.6,-3.38283,-0.919712,-0.792025
0.183,4413.38,-3230.76,7985.19,0.0199126,1.07381,0.182607,4409.37,2961.61,8135.9,-1.4912,-0.369972,-0.736445,-80.3376,9630.24,-1534.39,-1.01784,-0.669839,0.425927,440.003,-9849.05,-729.489,-0.152163,1.37314,1.08001,-1762.75,9281.09,-2191.53,0.265893,0.285719,1.63966,-3545.21,-9168.55,-1102.25,-2.6952,2.38838,-0.85127,8780.67,1197.6,4268.48,-3.35545,-0.934415,-0.7681
0.184,4422.36,-3223.74,7991.66,0.0302137,0.862993,0.260479,4422.81,2959.92,8136.28,-1.43288,-0.435489,-0.772132,-94.4028,9631.22,-1534.29,-1.04839,-0.625336,0.434314,449.049,-9860.78,-727.339,-0.0994384,1.25369,1.00644,-1779.92,9284.72,-2198.54,0.311858,0.339256,1.69006,-3513.99,-9173.81,-1120.39,-2.83377,2.35428,-0.773461,8769.45,1188.71,4263.14,-3.30947,-0.95899,-0.75832
0.185,4431.35,-3216.72,7998.13,0.0405147,0.652174,0.338352,4436.25,2958.23,8136.66,-1.37455,-0.501006,-0.80782,-108.468,9632.2,-1534.19,-1.07893,-0.580833,0.4427,458.095,-9872.52,-725.188,-0.0467139,1.13424,0.932863,-1797.09,9288.34,-2205.54,0.357823,0.392792,1.74046,-3482.77,-9179.08,-1138.53,-2.97233,2.32017,-0.695652,8758.22,1179.82,4257.8,-3.2635,-0.983566,-0.74854
0.186,4440.34,-3209.69,8004.59,0.0508157,0.441354,0.416224,4449.68,2956.53,8137.03,-1.31623,-0.566522,-0.843507,-122.533,9633.18,-1534.09,-1.10948,-0.536329,0.451087,467.141,-9884.25,-723.037,0.00601054,1.01479,0.859288,-1814.26,9291.96,-2212.54,0.403788,0.446328,1.79086,-3451.55,-9184.34,-1156.67,-3.1109,2.28607,-0.617844,8746.99,1170.94,4252.46,-3.21752,-1.00814,-0.73876
0.187,4444.09,-3202.49,8021.76,0.036066,0.327167,0.460893,4460.91,2957.81,8133.68,-1.25833,-0.605119,-0.866834,-135.664,9636.74,-1532.49,-1.14723,-0.496863,0.445062,471.173,-9887.74,-721.254,0.0491322,0.954045,0.830268,-1832.01,9300.19,-2218.07,0.416816,0.515916,1.84753,-3434.72,-9190.71,-1171.18,-3.21001,2.21872,-0.551452,8734.26,1165.15,4247.0,-3.14256,-1.04379,-0.727998
0.188,4437.35,-3194.93,8060.33,-0.0287855,0.406247,0.439157,4467.71,2965.02,8122.86,-1.20128,-0.589877,-0.865441,-146.925,9645.44,-1527.9,-1.19939,-0.46747,0.410214,465.175,-9874.72,-720.207,0.0730481,1.0107,0.890356,-1850.91,9317.61,-2220.64,0.363971,0.617606,1.91676,-3446.66,-9199.28,-1178.41,-3.23019,2.08485,-0.507892,8718.54,1165.57,4241.29,-3.00964,-1.10159,-0.715271
0.189,4430.61,-3187.37,8098.89,-0.093637,0.485326,0.417421,4474.51,2972.23,8112.04,-1.14423,-0.574634,-0.864047,-158.186,9654.15,-1523.3,-1.25156,-0.438077,0.375366,459.177,-9861.71,-719.16,0.0969641,1.06736,0.950443,-1869.82,9335.03,-2223.21,0.311125,0.719296,1.98598,-3458.61,-9207.85,-1185.64,-3.25038,1.95099,-0.464333,8702.81,1166.0,4235.58,-2.87671,-1.1594,-0.702544
0.19,4423.88,-3179.81,8137.46,-0.158488,0.564406,0.395685,4481.31,2979.44,8101.22,-1.08718,-0.559392,-0.862653,-169.447,9662.86,-1518.71,-1.30372,-0.408683,0.340518,453.18,-9848.7,-718.112,0.12088,1.12402,1.01053,-1888.72,9352.45,-2225.78,0.25828,0.820987,2.0552,-3470.56,-9216.42,-1192.87,-3.27057,1.81712,-0.420773,8687.09,1166.42,4229.88,-2.74379,-1.2172,-0.689817
0.191,4417.14,-3172.25,8176.03,-0.22334,0.643485,0.373949,4488.11,2986.65,8090.4,-1.03013,-0.54415,-0.86126,-180.708,9671.56,-1514.12,-1.35588,-0.37929,0.305671,447.182,-9835.68,-717.065,0.144796,1.18067,1.07062,-1907.63,9369.87,-2228.35,0.205435,0.922677,2.12443,-3482.5,-9224.99,-1200.1,-3.29075,1.68326,-0.377214,8671.37,1166.84,4224.17,-2.61086,-1.275,-0.67709
0.192,4416.1,-3183.14,8167.08,-0.127155,0.726793,0.287931,4477.02,2972.53,8099.05,-1.01148,-0.520326,-0.823128,-183.214,9679.97,-1523.39,-1.39001,-0.364751,0.31488,450.947,-9832.96,-722.88,0.154397,1.24461,1.04703,-1892.17,9385.38,-2250.36,0.106278,1.00326,2.03809,-3490.81,-9214.97,-1193.61,-3.34113,1.81931,-0.454632,8671.7,1166.84,4230.94,-2.60315,-1.30093,-0.650377
0.193,4415.76,-3196.33,8152.2,-0.0108403,0.81063,0.193877,4463.7,2955.73,8110.13,-0.997633,-0.495431,-0.780404,-184.625,9688.34,-1534.39,-1.42189,-0.352068,0.329596,455.931,-9831.53,-729.553,0.162209,1.30945,1.01299,-1872.42,9400.64,-2274.79,0.00133207,1.08121,1.93231,-3498.66,-9202.63,-1185.41,-3.39529,1.98909,-0.547172,8674.05,1166.79,4239.28,-2.61109,-1.32287,-0.621915
0.194,4415.43,-3209.53,8137.31,0.105474,0.894466,0.0998236,4450.38,2938.94,8121.21,-0.983784,-0.470535,-0.73768,-186.036,9696.72,-1545.39,-1.45377,-0.339385,0.344312,460.916,-9830.1,-736.226,0.170021,1.3743,0.978948,-1852.67,9415.91,-2299.23,-0.103614,1.15915,1.82653,-3506.51,-9190.29,-1177.21,-3.44944,2.15887,-0.639713,8676.39,1166.73,4247.62,-2.61903,-1.34481,-0.593454
0.195,4415.09,-3222.72,8122.43,0.221789,0.978303,0.00577008,4437.05,2922.15,8132.29,-0.969935,-0.445639,-0.694956,-187.447,9705.09,-1556.39,-1.48564,-0.326702,0.359029,465.901,-9828.66,-742.899,0.177833,1.43915,0.944905,-1832.91,9431.17,-2323.66,-0.20856,1.2371,1.72075,-3514.36,-9177.94,-1169.0,-3.50359,2.32866,-0.732253,8678.74,1166.67,4255.95,-2.62696,-1.36676,-0.564992
0.196,4406.96,-3236.34,8126.06,0.252533,0.990381,-0.0241064,4420.43,2918.45,8133.03,-0.964852,-0.455064,-0.666838,-191.957,9703.94,-1563.79,-1.51351,-0.354246,0.363179,460.884,-9824.97,-747.749,0.134853,1.44171,0.913659,-1829.72,9422.03,-2335.82,-0.237488,1.321,1.65816,-3518.33,-9181.85,-1178.57,-3.56441,2.46098,-0.730297,8683.64,1167.45,4254.9,-2.61215,-1.36947,-0.551196
0.197,4389.08,-3250.49,8152.82,0.176315,0.912761,0.0262383,4399.69,2931.13,8120.83,-0.970724,-0.50739,-0.656977,-200.343,9690.88,-1566.69,-1.53638,-0.432074,0.354122,443.365,-9818.46,-750.322,0.0283823,1.36643,0.88591,-1847.22,9382.37,-2332.63,-0.171393,1.41233,1.64956,-3517.43,-9206.07,-1210.35,-3.63355,2.54648,-0.610221,8691.74,1169.27,4242.12,-2.5689,-1.34815,-0.555731
0.198,4371.2,-3264.64,8179.58,0.100097,0.835141,0.0765831,4378.96,2943.8,8108.63,-0.976597,-0.559717,-0.647116,-208.728,9677.82,-1569.59,-1.55924,-0.509902,0.345065,425.845,-9811.95,-752.894,-0.0780882,1.29114,0.858161,-1864.73,9342.72,-2329.44,-0.105299,1.50366,1.64095,-3516.53,-9230.29,-1242.13,-3.70269,2.63198,-0.490145,8699.84,1171.1,4229.34,-2.52565,-1.32683,-0.560266
0.199,4353.32,-3278.79,8206.34,0.0238793,0.757521,0.126928,4358.22,2956.47,8096.44,-0.98247,-0.612043,-0.637255,-217.114,9664.76,-1572.49,-1.58211,-0.58773,0.336007,408.326,-9805.43,-755.466,-0.184559,1.21586,0.830413,-1882.23,9303.06,-2326.25,-0.0392042,1.59499,1.63235,-3515.64,-9254.52,-1273.91,-3.77183,2.71748,-0.370068,8707.94,1172.92,4216.56,-2.48239,-1.30551,-0.564801
0.2,4335.44,-3292.95,8233.1,-0.0523388,0.679901,0.177273,4337.48,2969.14,8084.25,-0.988342,-0.66437,-0.627395,-225.499,9651.71,-1575.38,-1.60497,-0.665557,0.32695,390.807,-9798.92,-758.038,-0.291029,1.14057,0.802664,-1899.74,9263.41,-2323.07,0.0268903,1.68632,1.62375,-3514.74,-9278.74,-1305.69,-3.84098,2.80298,-0.249992,8716.04,1174.74,4203.78,-2.43914,-1.28418,-0.569336
0.201,4317.99,-3282.65,8193.37,-0.0136549,0.691494,0.178575,4351.13,2978.8,8067.45,-1.03715,-0.566083,-0.596067,-223.671,9648.48,-1576.9,-1.5548,-0.553675,0.324601,395.809,-9818.22,-748.169,-0.335689,1.09544,0.811348,-1865.97,9261.88,-2311.99,-0.141573,1.7609,1.6291,-3520.1,-9256.39,-1289.9,-3.66314,2.94121,-0.26252,8734.37,1171.42,4227.63,-2.46571,-1.17904,-0.536398
0.202,4300.55,-3272.35,8153.64,0.0250289,0.703086,0.179877,4364.77,2988.45,8050.65,-1.08596,-0.467797,-0.564739,-221.843,9645.26,-1578.42,-1.50464,-0.441793,0.322251,400.811,-9837.53,-738.299,-0.380349,1.05031,0.820033,-1832.2,9260.36,-2300.92,-0.310036,1.83548,1.63446,-3525.46,-9234.03,-1274.11,-3.48531,3.07944,-0.275047,8752.69,1168.1,4251.48,-2.49229,-1.07389,-0.503459
0.203,4283.11,-3262.05,8113.92,0.0637128,0.714679,0.181179,4378.42,2998.11,8033.85,-1.13476,-0.369511,-0.533411,-220.016,9642.03,-1579.93,-1.45447,-0.32991,0.319902,405.813,-9856.83,-728.43,-0.425009,1.00517,0.828717,-1798.43,9258.83,-2289.84,-0.478499,1.91006,1.63981,-3530.83,-9211.68,-1258.32,-3.30747,3.21768,-0.287575,8771.02,1164.78,4275.33,-2.51886,-0.968743,-0.470521
0.204,4265.67,-3251.76,8074.19,0.102397,0.726271,0.182481,4392.07,3007.76,8017.06,-1.18357,-0.271224,-0.502083,-218.188,9638.81,-1581.45,-1.4043,-0.218028,0.317552,410.814,-9876.13,-718.56,-0.469669,0.960039,0.837401,-1764.66,9257.31,-2278.77,-0.646962,1.98463,1.64516,-3536.19,-9189.33,-1242.53,-3.12964,3.35591,-0.300102,8789.35,1161.46,4299.18,-2.54543,-0.863596,-0.437583
0.205,4270.32,-3225.02,8058.61,0.0894792,0.769546,0.198268,4399.8,3004.24,8017.48,-1.20344,-0.274961,-0.476409,-210.229,9633.28,-1579.97,-1.4048,-0.170834,0.301914,415.894,-9891.39,-712.943,-0.486346,0.9607,0.830869,-1759.87,9272.01,-2271.74,-0.702134,2.05624,1.70396,-3530.87,-9182.38,-1249.64,-2.99697,3.44783,-0.381295,8795.05,1154.6,4307.1,-2.49424,-0.822548,-0.391114
0.206,4292.64,-3185.13,8062.36,0.0352807,0.838167,0.225643,4402.8,2990.17,8031.69,-1.20017,-0.360315,-0.455257,-197.366,9625.92,-1576.1,-1.44584,-0.175391,0.275646,421.036,-9903.4,-710.728,-0.480637,0.997997,0.812163,-1778.28,9299.7,-2267.96,-0.666673,2.12546,1.80552,-3517.02,-9187.76,-1275.07,-2.90043,3.5027,-0.517422,8790.65,1144.89,4302.27,-2.38084,-0.832779,-0.33382
0.207,4314.97,-3145.25,8066.11,-0.0189177,0.906788,0.253018,4405.81,2976.1,8045.9,-1.1969,-0.44567,-0.434105,-184.503,9618.56,-1572.23,-1.48688,-0.179948,0.249378,426.178,-9915.42,-708.513,-0.474928,1.03529,0.793458,-1796.69,9327.39,-2264.18,-0.631211,2.19469,1.90708,-3503.16,-9193.14,-1300.49,-2.8039,3.55756,-0.653548,8786.24,1135.19,4297.43,-2.26743,-0.84301,-0.276526
0.208,4337.29,-3105.36,8069.86,-0.0731162,0.975409,0.280393,4408.81,2962.03,8060.1,-1.19363,-0.531024,-0.412953,-171.641,9611.2,-1568.37,-1.52792,-0.184505,0.223109,431.321,-9927.43,-706.297,-0.469219,1.07259,0.774752,-1815.1,9355.08,-2260.4,-0.59575,2.26391,2.00864,-3489.3,-9198.53,-1325.92,-2.70736,3.61243,-0.789674,8781.84,1125.48,4292.6,-2.15403,-0.853242,-0.219232
0.209,4361.08,-3071.36,8072.84,-0.122859,1.02877,0.298711,4411.86,2949.08,8072.13,-1.19136,-0.600659,-0.391398,-161.512,9604.26,-1564.08,-1.56779,-0.176204,0.205628,435.462,-9937.54,-706.324,-0.457794,1.10404,0.763744,-1832.92,9380.81,-2256.7,-0.56866,2.33567,2.09883,-3478.2,-9203.26,-1345.0,-2.61703,3.66113,-0.901675,8779.06,1116.55,4288.14,-2.05445,-0.853114,-0.173249
0.21,4396.53,-3084.38,8069.66,-0.136956,0.960032,0.244575,4415.29,2945.01,8066.76,-1.19719,-0.544538,-0.366618,-173.261,9600.71,-1556.48,-1.59839,-0.0650378,0.258447,431.598,-9932.38,-724.291,-0.400645,1.08871,0.814315,-1846.03,9390.85,-2253.64,-0.608544,2.4277,2.09804,-3489.16,-9202.82,-1313.35,-2.57636,3.66046,-0.820672,8789.25,1113.84,4286.59,-2.06544,-0.770118,-0.217758
0.211,4431.98,-3097.41,8066.48,-0.151053,0.891296,0.190439,4418.72,2940.95,8061.38,-1.20302,-0.488416,-0.341839,-185.01,9597.15,-1548.88,-1.62898,0.0461285,0.311265,427.733,-9927.23,-742.258,-0.343496,1.07338,0.864886,-1859.13,9400.88,-2250.57,-0.648429,2.51972,2.09724,-3500.11,-9202.37,-1281.7,-2.53569,3.65979,-0.73967,8799.45,1111.13,4285.05,-2.07643,-0.687121,-0.262266
0.212,4467.43,-3110.43,8063.3,-0.16515,0.822559,0.136303,4422.16,2936.89,8056.0,-1.20885,-0.432295,-0.317059,-196.759,9593.6,-1541.27,-1.65957,0.157295,0.364083,423.869,-9922.07,-760.225,-0.286348,1.05805,0.915458,-1872.24,9410.92,-2247.5,-0.688313,2.61175,2.09645,-3511.06,-9201.92,-1250.04,-2.49502,3.65912,-0.658668,8809.63,1108.42,4283.51,-2.08743,-0.604124,-0.306775
0.213,4502.88,-3123.46,8060.12,-0.179247,0.753823,0.0821674,4425.59,2932.83,8050.63,-1.21468,-0.376173,-0.29228,-208.508,9590.04,-1533.67,-1.69016,0.268461,0.416901,420.005,-9916.91,-778.192,-0.229199,1.04272,0.966029,-1885.34,9420.96,-2244.43,-0.728198,2.70377,2.09565,-3522.01,-9201.48,-1218.39,-2.45436,3.65845,-0.577666,8819.83,1105.71,4281.97,-2.09842,-0.521127,-0.351284
0.214,4498.85,-3147.6,8062.69,-0.201636,0.705261,0.127406,4423.71,2933.83,8060.58,-1.18472,-0.389474,-0.343726,-199.29,9591.7,-1528.37,-1.65172,0.312158,0.402392,420.448,-9913.66,-779.313,-0.23646,1.03849,0.993048,-1888.27,9409.85,-2240.63,-0.826028,2.81441,2.00016,-3533.55,-9189.78,-1214.59,-2.44311,3.64103,-0.560255,8824.05,1107.86,4288.87,-2.10495,-0.49049,-0.352465
0.215,4475.07,-3177.3,8068.13,-0.228172,0.666786,0.222331,4419.17,2937.37,8078.21,-1.13685,-0.437486,-0.433284,-179.59,9595.95,-1524.23,-1.57877,0.322119,0.354219,423.046,-9911.37,-772.01,-0.275926,1.03981,1.00829,-1886.12,9388.17,-2236.47,-0.95283,2.93436,1.85731,-3545.39,-9172.45,-1224.72,-2.44657,3.61523,-0.574639,8825.3,1112.45,4299.99,-2.10925,-0.486034,-0.331983
0.216,4451.29,-3207.01,8073.57,-0.254707,0.628311,0.317257,4414.63,2940.9,8095.83,-1.08898,-0.485498,-0.522842,-159.89,9600.2,-1520.08,-1.50581,0.332081,0.306047,425.643,-9909.07,-764.708,-0.315391,1.04113,1.02353,-1883.97,9366.5,-2232.31,-1.07963,3.0543,1.71447,-3557.23,-9155.13,-1234.84,-2.45003,3.58943,-0.589024,8826.54,1117.04,4311.12,-2.11355,-0.481577,-0.311502
0.217,4427.52,-3236.71,8079.01,-0.281242,0.589836,0.412183,4410.1,2944.43,8113.45,-1.04111,-0.53351,-0.6124,-140.189,9604.46,-1515.94,-1.43286,0.342043,0.257874,428.241,-9906.77,-757.405,-0.354857,1.04245,1.03878,-1881.82,9344.82,-2228.15,-1.20644,3.17425,1.57162,-3569.07,-9137.8,-1244.96,-2.4535,3.56363,-0.603409,8827.79,1121.63,4322.24,-2.11785,-0.47712,-0.29102
0.218,4405.89,-3256.82,8084.4,-0.292463,0.589033,0.480104,4405.37,2950.45,8126.44,-1.00204,-0.564468,-0.672824,-122.837,9608.08,-1512.07,-1.38236,0.332912,0.213657,429.849,-9902.08,-748.66,-0.395209,1.05705,1.04082,-1877.15,9329.63,-2226.17,-1.30223,3.29006,1.46237,-3573.91,-9127.63,-1250.36,-2.47707,3.55017,-0.620771,8826.2,1126.31,4326.97,-2.11089,-0.468027,-0.280311
0.219,4391.77,-3243.36,8089.6,-0.250083,0.720082,0.453511,4399.99,2965.18,8123.19,-0.993761,-0.535738,-0.631278,-113.705,9609.52,-1509.15,-1.41048,0.256958,0.183282,427.993,-9889.0,-734.865,-0.438662,1.11814,0.996636,-1863.68,9337.15,-2231.87,-1.28947,3.3914,1.4707,-3554.27,-9142.54,-1239.2,-2.57102,3.57991,-0.648551,8814.67,1131.3,4309.3,-2.0645,-0.442707,-0.30381
0.22,4377.65,-3229.9,8094.81,-0.207702,0.85113,0.426918,4394.61,2979.91,8119.94,-0.985479,-0.507007,-0.589732,-104.574,9610.97,-1506.23,-1.4386,0.181004,0.152908,426.137,-9875.92,-721.071,-0.482116,1.17922,0.952457,-1850.2,9344.67,-2237.56,-1.27672,3.49275,1.47902,-3534.63,-9157.43,-1228.04,-2.66498,3.60966,-0.676331,8803.15,1136.29,4291.63,-2.01811,-0.417387,-0.32731
0.221,4363.53,-3216.44,8100.01,-0.165322,0.982178,0.400326,4389.23,2994.63,8116.69,-0.977196,-0.478277,-0.548186,-95.4419,9612.41,-1503.31,-1.46672,0.10505,0.122534,424.282,-9862.85,-707.277,-0.525569,1.2403,0.908277,-1836.73,9352.2,-2243.26,-1.26397,3.59409,1.48735,-3514.99,-9172.33,-1216.89,-2.75893,3.63941,-0.704111,8791.62,1141.28,4273.96,-1.97172,-0.392068,-0.350809
0.222,4349.4,-3202.98,8105.21,-0.122942,1.11323,0.373733,4383.84,3009.36,8113.44,-0.968914,-0.449546,-0.506639,-86.3102,9613.85,-1500.39,-1.49484,0.0290963,0.0921597,422.426,-9849.77,-693.483,-0.569023,1.30139,0.864098,-1823.26,9359.72,-2248.95,-1.25121,3.69543,1.49567,-3495.35,-9187.24,-1205.73,-2.85289,3.66915,-0.731892,8780.1,1146.27,4256.3,-1.92534,-0.366748,-0.374308
0.223,4336.75,-3208.46,8103.89,-0.0591721,1.03936,0.377795,4388.43,3007.16,8116.11,-0.974484,-0.504429,-0.499334,-88.2104,9628.28,-1512.88,-1.43746,0.0446411,0.0685876,402.95,-9838.58,-704.545,-0.594942,1.26617,0.811294,-1808.43,9347.28,-2245.38,-1.22521,3.76592,1.53896,-3508.79,-9195.68,-1192.38,-2.8922,3.72343,-0.760307,8780.57,1156.11,4254.3,-1.93003,-0.314036,-0.40983
0.224,4324.51,-3219.34,8100.71,0.0107091,0.906948,0.390617,4395.87,3000.14,8120.48,-0.984013,-0.583201,-0.501812,-93.2626,9646.42,-1529.76,-1.35566,0.0863284,0.0469591,378.439,-9827.93,-722.709,-0.615851,1.20345,0.756026,-1793.22,9329.14,-2239.15,-1.19542,3.8276,1.59224,-3531.68,-9202.29,-1178.39,-2.9159,3.78472,-0.788903,8784.47,1167.34,4256.77,-1.94932,-0.253499,-0.448787
0.225,4312.27,-3230.23,8097.52,0.0805903,0.774535,0.403438,4403.31,2993.11,8124.85,-0.993541,-0.661973,-0.50429,-98.3148,9664.56,-1546.65,-1.27385,0.128016,0.0253306,353.928,-9817.29,-740.873,-0.63676,1.14072,0.700758,-1778.01,9311.01,-2232.93,-1.16563,3.88927,1.64552,-3554.57,-9208.89,-1164.41,-2.9396,3.84602,-0.817499,8788.37,1178.57,4259.25,-1.96861,-0.192961,-0.487745
0.226,4300.03,-3241.11,8094.34,0.150472,0.642122,0.416259,4410.74,2986.08,8129.21,-1.00307,-0.740745,-0.506768,-103.367,9682.71,-1563.54,-1.19205,0.169703,0.00370211,329.417,-9806.64,-759.037,-0.657669,1.07799,0.645491,-1762.8,9292.87,-2226.71,-1.13585,3.95095,1.69881,-3577.46,-9215.5,-1150.43,-2.9633,3.90731,-0.846095,8792.27,1189.8,4261.73,-1.9879,-0.132423,-0.526702
0.227,4294.92,-3251.37,8091.66,0.222135,0.561538,0.421517,4415.75,2980.05,8125.41,-0.99321,-0.787765,-0.528865,-108.492,9691.75,-1575.13,-1.11613,0.217216,-0.0150456,316.616,-9806.26,-772.518,-0.668976,1.03689,0.600029,-1762.48,9279.63,-2224.32,-1.13443,3.96703,1.7686,-3593.67,-9217.12,-1148.44,-2.96261,3.92665,-0.878073,8796.24,1203.24,4262.74,-1.99518,-0.0579268,-0.524952
0.228,4304.04,-3260.37,8090.0,0.297362,0.584614,0.411646,4415.89,2976.04,8105.26,-0.944574,-0.771279,-0.590197,-113.764,9682.6,-1576.11,-1.05199,0.276379,-0.0280317,327.235,-9826.4,-776.631,-0.66108,1.03904,0.574179,-1791.95,9276.21,-2229.59,-1.18978,3.89193,1.87143,-3596.52,-9208.76,-1170.43,-2.91312,3.86208,-0.916814,8800.36,1221.07,4260.82,-1.97846,0.0444871,-0.441789
0.229,4313.17,-3269.37,8088.34,0.372589,0.607689,0.401775,4416.04,2972.03,8085.12,-0.895937,-0.754794,-0.65153,-119.035,9673.46,-1577.09,-0.987855,0.335543,-0.0410177,337.854,-9846.54,-780.744,-0.653183,1.04119,0.548329,-1821.43,9272.79,-2234.86,-1.24512,3.81683,1.97426,-3599.36,-9200.41,-1192.42,-2.86364,3.79751,-0.955554,8804.47,1238.91,4258.91,-1.96173,0.146901,-0.358626
0.23,4322.3,-3278.37,8086.67,0.447815,0.630765,0.391904,4416.18,2968.02,8064.98,-0.847301,-0.738308,-0.712863,-124.307,9664.31,-1578.07,-0.923718,0.394706,-0.0540038,348.472,-9866.68,-784.857,-0.645286,1.04335,0.522479,-1850.9,9269.36,-2240.13,-1.30047,3.74173,2.07709,-3602.21,-9192.06,-1214.4,-2.81416,3.73294,-0.994295,8808.59,1256.75,4257.0,-1.94501,0.249315,-0.275463
0.231,4331.42,-3287.38,8085.01,0.523042,0.65384,0.382033,4416.32,2964.01,8044.83,-0.798664,-0.721822,-0.774196,-129.578,9655.16,-1579.05,-0.85958,0.45387,-0.0669899,359.091,-9886.82,-788.971,-0.63739,1.0455,0.496629,-1880.37,9265.94,-2245.4,-1.35581,3.66662,2.17992,-3605.05,-9183.7,-1236.39,-2.76468,3.66837,-1.03304,8812.7,1274.58,4255.08,-1.92828,0.351729,-0.1923
0.232,4346.28,-3267.34,8073.55,0.467482,0.599785,0.4354,4410.6,2974.84,8035.16,-0.774413,-0.67452,-0.754387,-124.589,9655.13,-1581.3,-0.938917,0.518576,-0.0982363,390.14,-9900.11,-781.489,-0.612423,1.00119,0.497177,-1865.51,9279.76,-2230.19,-1.23185,3.58278,1.95975,-3580.6,-9191.51,-1235.43,-2.64156,3.65817,-1.02925,8802.05,1277.59,4280.96,-1.89807,0.30063,-0.198276
0.233,4361.86,-3243.67,8060.87,0.395573,0.536088,0.496671,4404.15,2987.52,8026.8,-0.75321,-0.623366,-0.724436,-118.317,9656.24,-1583.7,-1.03619,0.583976,-0.131765,423.742,-9912.53,-772.559,-0.585322,0.951086,0.501025,-1845.12,9295.74,-2212.42,-1.08548,3.49784,1.6992,-3552.74,-9201.34,-1231.61,-2.50924,3.65476,-1.02016,8789.55,1278.74,4310.31,-1.86617,0.230343,-0.215394
0.234,4377.44,-3220.0,8048.19,0.323664,0.472391,0.557943,4397.69,3000.2,8018.44,-0.732007,-0.572212,-0.694485,-112.045,9657.35,-1586.1,-1.13346,0.649376,-0.165294,457.344,-9924.96,-763.628,-0.558222,0.900977,0.504872,-1824.72,9311.72,-2194.65,-0.939112,3.4129,1.43866,-3524.88,-9211.17,-1227.79,-2.37691,3.65134,-1.01106,8777.06,1279.89,4339.65,-1.83426,0.160055,-0.232511
0.235,4393.01,-3196.33,8035.51,0.251755,0.408694,0.619214,4391.24,3012.88,8010.08,-0.710804,-0.521057,-0.664534,-105.773,9658.46,-1588.5,-1.23073,0.714776,-0.198823,490.946,-9937.38,-754.697,-0.531122,0.850868,0.50872,-1804.33,9327.7,-2176.88,-0.792741,3.32797,1.17811,-3497.02,-9221.0,-1223.96,-2.24459,3.64793,-1.00196,8764.56,1281.04,4369.0,-1.80236,0.089768,-0.249629
0.236,4396.21,-3203.39,8025.62,0.254791,0.385636,0.623274,4387.38,3018.49,8003.73,-0.681813,-0.495488,-0.656329,-97.4463,9661.5,-1584.87,-1.28695,0.761426,-0.205801,501.84,-9936.78,-748.623,-0.499548,0.810134,0.50935,-1809.9,9316.1,-2171.26,-0.712051,3.31373,1.05846,-3487.79,-9226.26,-1222.67,-2.20852,3.63271,-0.957902,8758.46,1278.71,4381.06,-1.76152,0.0708565,-0.256832
0.237,4383.92,-3248.89,8019.24,0.351507,0.413379,0.555818,4386.76,3015.25,7999.88,-0.643088,-0.5019,-0.675307,-86.5516,9666.96,-1573.71,-1.29185,0.784639,-0.179589,484.347,-9919.89,-746.12,-0.462382,0.781119,0.505957,-1847.95,9270.04,-2180.85,-0.713461,3.38787,1.11491,-3501.86,-9225.81,-1224.54,-2.29278,3.60272,-0.870142,8760.37,1272.05,4371.51,-1.70951,0.116165,-0.251641
0.238,4371.63,-3294.38,8012.86,0.448224,0.441121,0.488362,4386.13,3012.01,7996.04,-0.604364,-0.508312,-0.694284,-75.657,9672.41,-1562.54,-1.29675,0.807853,-0.153378,466.854,-9902.99,-743.616,-0.425216,0.752105,0.502564,-1885.99,9223.98,-2190.44,-0.714872,3.46201,1.17136,-3515.93,-9225.36,-1226.42,-2.37703,3.57273,-0.782381,8762.27,1265.38,4361.95,-1.65751,0.161474,-0.246451
0.239,4359.35,-3339.87,8006.48,0.544941,0.468864,0.420906,4385.51,3008.77,7992.19,-0.565639,-0.514724,-0.713262,-64.7623,9677.86,-1551.38,-1.30165,0.831066,-0.127166,449.361,-9886.1,-741.113,-0.388049,0.72309,0.499171,-1924.03,9177.92,-2200.02,-0.716283,3.53615,1.22781,-3529.99,-9224.91,-1228.29,-2.46128,3.54274,-0.694621,8764.17,1258.71,4352.4,-1.6055,0.206782,-0.24126
0.24,4347.06,-3385.37,8000.1,0.641658,0.496606,0.35345,4384.88,3005.53,7988.35,-0.526914,-0.521136,-0.73224,-53.8677,9683.31,-1540.21,-1.30655,0.85428,-0.100954,431.868,-9869.21,-738.61,-0.350883,0.694075,0.495778,-1962.08,9131.86,-2209.61,-0.717694,3.61029,1.28426,-3544.06,-9224.47,-1230.17,-2.54554,3.51275,-0.606861,8766.08,1252.05,4342.84,-1.55349,0.252091,-0.236069
0.241,4359.86,-3355.6,7996.94,0.553295,0.523257,0.316205,4383.7,3010.78,7999.02,-0.590444,-0.569219,-0.727761,-88.9575,9667.92,-1543.39,-1.27128,0.85428,-0.0655912,429.478,-9857.74,-729.833,-0.358824,0.682164,0.547758,-1963.89,9145.43,-2217.99,-0.757593,3.5607,1.26072,-3553.48,-9234.41,-1229.42,-2.50678,3.58296,-0.722427,8770.99,1235.92,4323.76,-1.52307,0.327469,-0.160691
0.242,4372.67,-3325.83,7993.79,0.464932,0.549907,0.278959,4382.52,3016.03,8009.7,-0.653974,-0.617302,-0.723282,-124.047,9652.53,-1546.57,-1.236,0.85428,-0.0302281,427.088,-9846.27,-721.056,-0.366765,0.670252,0.599738,-1965.71,9159.0,-2226.36,-0.797491,3.51111,1.23719,-3562.9,-9244.35,-1228.67,-2.46803,3.65318,-0.837993,8775.91,1219.79,4304.69,-1.49265,0.402847,-0.0853132
0.243,4385.47,-3296.06,7990.63,0.376569,0.576558,0.241713,4381.33,3021.27,8020.37,-0.717504,-0.665385,-0.718803,-159.137,9637.14,-1549.75,-1.20072,0.85428,0.00513507,424.698,-9834.8,-712.279,-0.374706,0.658341,0.651718,-1967.53,9172.57,-2234.74,-0.83739,3.46153,1.21365,-3572.31,-9254.29,-1227.93,-2.42928,3.72339,-0.953559,8780.83,1203.66,4285.61,-1.46223,0.478225,-0.00993523
0.244,4398.28,-3266.3,7987.48,0.288206,0.603209,0.204467,4380.15,3026.52,8031.05,-0.781033,-0.713469,-0.714324,-194.227,9621.75,-1552.93,-1.16545,0.85428,0.0404982,422.308,-9823.33,-703.501,-0.382647,0.646429,0.703698,-1969.35,9186.14,-2243.11,-0.877288,3.41194,1.19012,-3581.73,-9264.23,-1227.18,-2.39052,3.79361,-1.06913,8785.74,1187.53,4266.53,-1.43181,0.553603,0.0654427
0.245,4409.14,-3248.44,7991.1,0.262808,0.619332,0.195619,4379.03,3014.95,8038.85,-0.847887,-0.709113,-0.714858,-209.321,9611.45,-1556.16,-1.13738,0.872309,0.0572316,428.329,-9823.74,-699.673,-0.366784,0.654153,0.710596,-1963.98,9193.56,-2240.85,-0.842782,3.42675,1.23874,-3573.24,-9249.25,-1228.41,-2.36558,3.80886,-1.07689,8786.04,1178.2,4260.49,-1.44252,0.629943,0.0803329
0.246,4418.46,-3240.12,8000.15,0.287783,0.627035,0.209491,4377.97,2989.93,8044.35,-0.9174,-0.662807,-0.719402,-208.419,9605.23,-1559.42,-1.11508,0.904762,0.0590612,441.079,-9833.67,-699.802,-0.331879,0.677586,0.681427,-1952.86,9196.07,-2230.08,-0.748752,3.49309,1.3451,-3550.43,-9214.35,-1231.23,-2.35169,3.78014,-0.998403,8782.65,1174.31,4264.88,-1.48613,0.707053,0.0468328
0.247,4427.77,-3231.8,8009.19,0.312758,0.634738,0.223362,4376.91,2964.91,8049.86,-0.986914,-0.616501,-0.723946,-207.516,9599.01,-1562.69,-1.09277,0.937214,0.0608909,453.828,-9843.6,-699.932,-0.296973,0.701018,0.652258,-1941.75,9198.58,-2219.31,-0.654722,3.55943,1.45145,-3527.61,-9179.44,-1234.04,-2.3378,3.75142,-0.919919,8779.26,1170.43,4269.26,-1.52974,0.784163,0.0133327
0.248,4437.08,-3223.48,8018.24,0.337732,0.64244,0.237233,4375.85,2939.89,8055.36,-1.05643,-0.570195,-0.728491,-206.614,9592.79,-1565.95,-1.07047,0.969666,0.0627205,466.578,-9853.52,-700.062,-0.262068,0.72445,0.623089,-1930.63,9201.08,-2208.54,-0.560692,3.62577,1.55781,-3504.79,-9144.53,-1236.86,-2.32391,3.72271,-0.841436,8775.87,1166.54,4273.65,-1.57335,0.861274,-0.0201673
0.249,4445.84,-3215.83,8025.8,0.372746,0.644192,0.251716,4374.04,2917.19,8058.98,-1.11734,-0.528966,-0.732953,-203.482,9589.27,-1569.18,-1.04939,1.00697,0.0605193,476.788,-9862.81,-701.046,-0.228687,0.748581,0.597653,-1923.98,9206.78,-2198.06,-0.464803,3.69259,1.63163,-3482.08,-9117.17,-1240.07,-2.31299,3.70588,-0.769613,8772.67,1162.94,4278.58,-1.60537,0.93333,-0.051813
0.25,4450.2,-3213.53,8021.51,0.488076,0.598335,0.271089,4366.2,2913.01,8047.45,-1.10942,-0.528359,-0.736759,-182.509,9607.35,-1572.08,-1.03808,1.08311,0.026071,466.687,-9866.99,-708.872,-0.207506,0.778299,0.602081,-1953.03,9238.02,-2189.91,-0.354043,3.76322,1.44525,-3460.22,-9150.12,-1246.44,-2.32579,3.78423,-0.751079,8770.99,1161.66,4287.85,-1.54469,0.964961,-0.0686235
0.251,4454.55,-3211.22,8017.22,0.603405,0.552479,0.290462,4358.37,2908.83,8035.93,-1.1015,-0.527751,-0.740566,-161.536,9625.44,-1574.99,-1.02676,1.15924,-0.00837736,456.585,-9871.17,-716.698,-0.186324,0.808018,0.606509,-1982.08,9269.26,-2181.75,-0.243283,3.83385,1.25886,-3438.36,-9183.08,-1252.82,-2.3386,3.86258,-0.732544,8769.3,1160.38,4297.11,-1.48402,0.996593,-0.085434
0.252,4458.91,-3208.92,8012.93,0.718735,0.506622,0.309835,4350.53,2904.65,8024.4,-1.09359,-0.527144,-0.744372,-140.564,9643.53,-1577.89,-1.01545,1.23538,-0.0428257,446.484,-9875.36,-724.524,-0.165142,0.837736,0.610937,-2011.13,9300.5,-2173.59,-0.132522,3.90448,1.07248,-3416.5,-9216.03,-1259.19,-2.3514,3.94093,-0.71401,8767.62,1159.1,4306.38,-1.42334,1.02822,-0.102244
0.253,4463.26,-3206.62,8008.64,0.834064,0.460765,0.329208,4342.7,2900.47,8012.88,-1.08567,-0.526536,-0.748178,-119.591,9661.61,-1580.8,-1.00413,1.31151,-0.077274,436.382,-9879.54,-732.349,-0.143961,0.867454,0.615365,-2040.17,9331.73,-2165.44,-0.0217623,3.97511,0.886093,-3394.64,-9248.99,-1265.56,-2.36421,4.01928,-0.695475,8765.93,1157.83,4315.64,-1.36267,1.05985,-0.119055
0.254,4464.36,-3215.23,8033.79,0.813844,0.475245,0.379881,4350.58,2905.3,8028.92,-1.09563,-0.511975,-0.712958,-114.015,9669.81,-1589.77,-1.01517,1.38793,-0.0847075,416.416,-9881.69,-723.603,-0.126207,0.90326,0.616534,-2034.21,9339.05,-2176.04,0.0638875,4.08666,0.801836,-3407.49,-9251.2,-1266.33,-2.46966,4.1186,-0.762495,8770.04,1170.61,4327.16,-1.32527,1.09119,-0.0902374
0.255,4463.83,-3229.29,8073.68,0.725849,0.519893,0.446202,4366.31,2914.65,8058.74,-1.11452,-0.490437,-0.658225,-116.137,9673.06,-1601.76,-1.03739,1.46448,-0.0786336,391.516,-9882.82,-706.569,-0.110168,0.942109,0.616073,-2010.75,9334.41,-2196.02,0.136982,4.21866,0.768643,-3437.7,-9238.04,-1264.31,-2.62143,4.22839,-0.872291,8777.03,1190.42,4339.81,-1.29952,1.12238,-0.0386059
0.256,4463.3,-3243.36,8113.56,0.637853,0.564542,0.512524,4382.04,2924.0,8088.57,-1.13341,-0.468899,-0.603491,-118.259,9676.31,-1613.76,-1.0596,1.54103,-0.0725597,366.617,-9883.96,-689.536,-0.0941281,0.980959,0.615612,-1987.29,9329.76,-2216.0,0.210077,4.35066,0.735449,-3467.91,-9224.88,-1262.28,-2.77321,4.33819,-0.982088,8784.02,1210.24,4352.46,-1.27377,1.15357,0.0130256
0.257,4462.78,-3257.42,8153.45,0.549858,0.60919,0.578846,4397.78,2933.35,8118.4,-1.15231,-0.447361,-0.548758,-120.381,9679.56,-1625.75,-1.08182,1.61758,-0.0664858,341.717,-9885.09,-672.503,-0.0780885,1.01981,0.615152,-1963.82,9325.12,-2235.98,0.283172,4.48266,0.702256,-3498.11,-9211.72,-1260.25,-2.92498,4.44798,-1.09188,8791.02,1230.05,4365.11,-1.24802,1.18476,0.0646571
0.258,4455.35,-3267.05,8182.95,0.47686,0.656379,0.635253,4412.69,2940.34,8142.67,-1.14526,-0.432132,-0.507741,-122.39,9680.87,-1632.38,-1.09296,1.68324,-0.0602821,326.137,-9886.95,-660.58,-0.072422,1.04742,0.613531,-1945.46,9315.82,-2254.83,0.296277,4.59357,0.650837,-3520.12,-9196.76,-1257.63,-3.02207,4.51795,-1.16138,8798.82,1247.05,4372.48,-1.23321,1.21288,0.109567
0.259,4423.8,-3261.13,8176.11,0.456353,0.712464,0.656959,4424.75,2939.09,8147.5,-1.04744,-0.438987,-0.514735,-124.003,9675.36,-1620.24,-1.06534,1.71079,-0.0536242,343.174,-9891.35,-666.543,-0.103061,1.0357,0.607848,-1944.96,9290.23,-2269.69,0.099418,4.63065,0.535627,-3513.4,-9175.5,-1252.91,-2.92776,4.4485,-1.08983,8809.47,1254.2,4361.35,-1.25672,1.2303,0.130949
0.26,4392.25,-3255.22,8169.27,0.435845,0.768548,0.678665,4436.81,2937.83,8152.33,-0.94962,-0.445842,-0.521729,-125.616,9669.85,-1608.11,-1.03771,1.73833,-0.0469662,360.212,-9895.74,-672.506,-0.133701,1.02399,0.602166,-1944.46,9264.63,-2284.55,-0.0974407,4.66774,0.420417,-3506.69,-9154.24,-1248.19,-2.83345,4.37905,-1.01828,8820.12,1261.35,4350.22,-1.28023,1.24771,0.152332
0.261,4360.7,-3249.3,8162.43,0.415338,0.824633,0.700371,4448.87,2936.57,8157.16,-0.851799,-0.452697,-0.528723,-127.229,9664.34,-1595.97,-1.01008,1.76587,-0.0403083,377.249,-9900.14,-678.468,-0.16434,1.01227,0.596483,-1943.96,9239.04,-2299.41,-0.294299,4.70482,0.305206,-3499.97,-9132.98,-1243.47,-2.73913,4.3096,-0.946727,8830.77,1268.5,4339.1,-1.30373,1.26513,0.173715
0.262,4329.14,-3243.38,8155.59,0.394831,0.880717,0.722078,4460.93,2935.31,8161.99,-0.753978,-0.459552,-0.535717,-128.842,9658.83,-1583.83,-0.982459,1.79342,-0.0336503,394.286,-9904.53,-684.431,-0.19498,1.00055,0.590801,-1943.46,9213.44,-2314.27,-0.491158,4.74191,0.189996,-3493.26,-9111.72,-1238.76,-2.64482,4.24015,-0.875176,8841.42,1275.65,4327.97,-1.32724,1.28254,0.195097
0.263,4342.15,-3232.59,8152.57,0.346134,0.869217,0.64801,4446.62,2925.99,8141.13,-0.748029,-0.457463,-0.563496,-137.985,9653.15,-1566.68,-0.987451,1.79429,-0.0312015,410.568,-9902.08,-678.583,-0.248965,0.954389,0.505864,-1945.82,9225.65,-2304.37,-0.498357,4.71202,0.276319,-3506.53,-9134.93,-1225.25,-2.62914,4.18829,-0.831393,8851.7,1270.58,4322.62,-1.31934,1.25894,0.250512
0.264,4367.88,-3220.4,8150.63,0.289383,0.838408,0.546578,4424.77,2914.36,8112.94,-0.76833,-0.45282,-0.597214,-149.281,9647.43,-1548.11,-1.00176,1.78755,-0.0299553,426.632,-9897.67,-669.36,-0.30962,0.898383,0.398283,-1949.0,9248.66,-2287.39,-0.451368,4.66299,0.420224,-3525.52,-9170.85,-1209.23,-2.63592,4.14145,-0.795545,8861.86,1262.01,4318.93,-1.30247,1.22363,0.315651
0.265,4393.61,-3208.21,8148.69,0.232632,0.807599,0.445146,4402.92,2902.73,8084.74,-0.78863,-0.448176,-0.630932,-160.577,9641.71,-1529.53,-1.01607,1.78081,-0.0287092,442.697,-9893.25,-660.137,-0.370275,0.842377,0.290703,-1952.18,9271.66,-2270.41,-0.404378,4.61396,0.564129,-3544.51,-9206.77,-1193.21,-2.64271,4.09461,-0.759697,8872.03,1253.44,4315.24,-1.2856,1.18832,0.38079
0.266,4419.34,-3196.03,8146.76,0.175881,0.776789,0.343714,4381.07,2891.1,8056.55,-0.808931,-0.443532,-0.664649,-171.872,9635.99,-1510.95,-1.03038,1.77407,-0.027463,458.762,-9888.84,-650.914,-0.430929,0.786371,0.183122,-1955.35,9294.67,-2253.43,-0.357389,4.56494,0.708033,-3563.49,-9242.68,-1177.19,-2.64949,4.04778,-0.723849,8882.19,1244.88,4311.55,-1.26872,1.15301,0.445928
0.267,4430.82,-3193.74,8142.98,0.140819,0.771416,0.29394,4366.37,2882.62,8037.84,-0.834004,-0.46294,-0.688284,-182.036,9633.65,-1497.84,-1.04919,1.7769,-0.0102958,467.298,-9883.47,-650.073,-0.461161,0.743198,0.158057,-1954.17,9309.27,-2236.6,-0.290086,4.54389,0.812043,-3576.23,-9257.36,-1172.25,-2.67194,4.02437,-0.756483,8888.3,1241.93,4308.41,-1.24098,1.12943,0.503026
0.268,4413.8,-3211.27,8135.51,0.149137,0.816915,0.347483,4365.96,2880.45,8038.11,-0.868621,-0.530449,-0.691753,-189.938,9638.07,-1495.66,-1.07698,1.79887,0.0387134,460.776,-9876.2,-665.998,-0.430547,0.72569,0.298021,-1944.27,9307.08,-2220.08,-0.182156,4.57883,0.836265,-3576.47,-9229.55,-1189.47,-2.72572,4.0478,-0.92608,8886.28,1250.24,4306.34,-1.1915,1.1293,0.544042
0.269,4396.77,-3228.79,8128.04,0.157455,0.862413,0.401026,4365.55,2878.28,8038.38,-0.903239,-0.597958,-0.695221,-197.84,9642.49,-1493.48,-1.10477,1.82083,0.0877226,454.254,-9868.92,-681.923,-0.399933,0.708182,0.437986,-1934.36,9304.88,-2203.56,-0.0742257,4.61376,0.860486,-3576.71,-9201.74,-1206.68,-2.7795,4.07123,-1.09568,8884.27,1258.55,4304.28,-1.14202,1.12918,0.585059
0.27,4379.75,-3246.31,8120.58,0.165772,0.907912,0.454568,4365.15,2876.1,8038.65,-0.937856,-0.665468,-0.69869,-205.742,9646.91,-1491.3,-1.13256,1.8428,0.136732,447.732,-9861.64,-697.847,-0.369319,0.690674,0.57795,-1924.46,9302.68,-2187.04,0.0337044,4.64869,0.884708,-3576.95,-9173.93,-1223.9,-2.83329,4.09465,-1.26527,8882.25,1266.85,4302.22,-1.09253,1.12906,0.626075
0.271,4362.73,-3263.84,8113.11,0.17409,0.953411,0.508111,4364.74,2873.93,8038.93,-0.972474,-0.732977,-0.702158,-213.644,9651.33,-1489.12,-1.16036,1.86476,0.185741,441.21,-9854.36,-713.772,-0.338705,0.673165,0.717915,-1914.56,9300.48,-2170.52,0.141635,4.68362,0.90893,-3577.19,-9146.13,-1241.11,-2.88707,4.11808,-1.43487,8880.24,1275.16,4300.16,-1.04305,1.12894,0.667092
0.272,4366.25,-3256.45,8104.29,0.109722,0.999737,0.552902,4372.26,2870.29,8043.15,-0.943258,-0.744346,-0.742337,-204.527,9649.88,-1480.67,-1.15487,1.8976,0.207313,438.312,-9858.73,-721.253,-0.36984,0.67122,0.648102,-1902.89,9311.81,-2177.81,0.0669466,4.63186,0.842932,-3579.61,-9138.64,-1214.58,-2.95049,3.95013,-1.40693,8870.44,1275.18,4293.24,-1.02446,1.13501,0.726622
0.273,4372.35,-3245.96,8095.31,0.0362679,1.04617,0.5966,4380.78,2866.46,8047.88,-0.906063,-0.748697,-0.787105,-193.284,9647.69,-1471.44,-1.14522,1.9318,0.225455,435.867,-9864.57,-727.678,-0.408693,0.67122,0.552068,-1891.01,9324.83,-2188.07,-0.0305686,4.56925,0.765656,-3582.3,-9133.69,-1182.58,-3.01512,3.75825,-1.3543,8859.67,1274.17,4285.71,-1.00973,1.14187,0.788467
0.274,4378.45,-3235.46,8086.32,-0.037186,1.0926,0.640298,4389.3,2862.63,8052.6,-0.868868,-0.753048,-0.831873,-182.04,9645.51,-1462.2,-1.13557,1.966,0.243598,433.422,-9870.4,-734.103,-0.447546,0.67122,0.456033,-1879.12,9337.85,-2198.33,-0.128084,4.50665,0.688381,-3584.99,-9128.75,-1150.59,-3.07975,3.56637,-1.30167,8848.91,1273.17,4278.18,-0.995006,1.14872,0.850311
0.275,4384.54,-3224.97,8077.34,-0.11064,1.13903,0.683996,4397.81,2858.8,8057.33,-0.831674,-0.7574,-0.876641,-170.797,9643.32,-1452.97,-1.12592,2.0002,0.26174,430.978,-9876.23,-740.529,-0.4864,0.67122,0.359999,-1867.24,9350.87,-2208.6,-0.225599,4.44405,0.611105,-3587.68,-9123.8,-1118.59,-3.14438,3.37449,-1.24903,8838.14,1272.16,4270.65,-0.980278,1.15557,0.912156
0.276,4388.95,-3224.6,8065.6,-0.0967229,1.12091,0.724029,4402.49,2856.54,8065.05,-0.799314,-0.740026,-0.901749,-160.702,9644.9,-1445.86,-1.10203,2.02815,0.25884,420.887,-9878.68,-738.465,-0.563399,0.689297,0.289539,-1869.06,9354.3,-2208.16,-0.270633,4.44271,0.572112,-3585.07,-9126.03,-1110.82,-3.13684,3.20837,-1.14053,8834.92,1269.27,4268.72,-0.954212,1.18487,0.965427
0.277,4391.23,-3236.92,8050.43,0.0264078,1.0221,0.75948,4402.35,2856.25,8076.53,-0.772999,-0.695497,-0.902282,-152.043,9651.2,-1441.41,-1.06034,2.04829,0.229635,401.239,-9876.9,-725.79,-0.688082,0.729971,0.251049,-1888.03,9345.75,-2194.35,-0.250066,4.51794,0.580971,-3575.85,-9137.21,-1133.35,-3.03909,3.07443,-0.962182,8841.15,1264.02,4273.78,-0.913974,1.24223,1.00798
0.278,4393.52,-3249.23,8035.26,0.149538,0.923287,0.794931,4402.22,2855.96,8088.01,-0.746684,-0.650968,-0.902816,-143.384,9657.49,-1436.95,-1.01866,2.06843,0.20043,381.592,-9875.12,-713.115,-0.812764,0.770644,0.212559,-1906.99,9337.2,-2180.53,-0.229499,4.59318,0.58983,-3566.64,-9148.39,-1155.88,-2.94134,2.9405,-0.783834,8847.37,1258.78,4278.84,-0.873736,1.29958,1.05054
0.279,4395.8,-3261.54,8020.09,0.272669,0.824477,0.830383,4402.09,2855.66,8099.49,-0.720369,-0.606438,-0.90335,-134.725,9663.78,-1432.5,-0.976969,2.08856,0.171226,361.944,-9873.34,-700.44,-0.937447,0.811318,0.174069,-1925.96,9328.66,-2166.72,-0.208932,4.66841,0.598689,-3557.42,-9159.57,-1178.41,-2.8436,2.80657,-0.605487,8853.6,1253.53,4283.91,-0.833498,1.35694,1.09309
0.28,4398.09,-3273.85,8004.91,0.3958,0.725668,0.865834,4401.95,2855.37,8110.97,-0.694054,-0.561909,-0.903883,-126.066,9670.07,-1428.05,-0.935281,2.1087,0.142021,342.296,-9871.56,-687.764,-1.06213,0.851992,0.135579,-1944.93,9320.11,-2152.91,-0.188365,4.74365,0.607548,-3548.2,-9170.76,-1200.93,-2.74585,2.67263,-0.42714,8859.82,1248.29,4288.97,-0.79326,1.4143,1.13564
0.281,4368.88,-3261.05,8024.93,0.401898,0.602167,0.808316,4391.99,2873.84,8104.48,-0.782698,-0.595283,-0.823473,-154.094,9659.77,-1446.52,-0.940518,2.13824,0.162899,362.346,-9858.42,-691.226,-1.01422,0.855796,0.0627389,-1960.37,9320.72,-2170.96,-0.173923,4.77372,0.647889,-3559.1,-9172.8,-1203.72,-2.80658,2.70206,-0.456181,8857.96,1250.26,4293.03,-0.815208,1.43751,1.1465
0.282,4339.68,-3248.25,8044.95,0.407995,0.478666,0.750799,4382.02,2892.3,8097.99,-0.871342,-0.628657,-0.743064,-182.122,9649.46,-1465.0,-0.945755,2.16777,0.183778,382.396,-9845.27,-694.687,-0.966305,0.8596,-0.0101009,-1975.81,9321.34,-2189.02,-0.159481,4.8038,0.688231,-3570.0,-9174.84,-1206.5,-2.86732,2.73148,-0.485221,8856.1,1252.24,4297.09,-0.837155,1.46073,1.15735
0.283,4310.47,-3235.46,8064.97,0.414093,0.355166,0.693281,4372.05,2910.77,8091.49,-0.959986,-0.662032,-0.662654,-210.15,9639.15,-1483.48,-0.950992,2.19731,0.204656,402.447,-9832.12,-698.148,-0.918393,0.863404,-0.0829407,-1991.26,9321.96,-2207.08,-0.145039,4.83388,0.728572,-3580.9,-9176.88,-1209.28,-2.92806,2.7609,-0.514262,8854.24,1254.22,4301.15,-0.859103,1.48395,1.1682
0.284,4281.27,-3222.66,8084.99,0.420191,0.231665,0.635763,4362.09,2929.23,8085.0,-1.04863,-0.695406,-0.582244,-238.178,9628.85,-1501.95,-0.956228,2.22685,0.225534,422.497,-9818.98,-701.61,-0.870481,0.867208,-0.15578,-2006.7,9322.58,-2225.14,-0.130598,4.86396,0.768914,-3591.8,-9178.92,-1212.07,-2.9888,2.79033,-0.543302,8852.38,1256.2,4305.21,-0.881051,1.50716,1.17905
0.285,4275.97,-3203.87,8091.58,0.359703,0.25318,0.608806,4356.77,2939.88,8087.88,-1.07887,-0.729072,-0.557787,-248.027,9623.15,-1513.29,-0.941781,2.20545,0.260101,428.668,-9816.26,-715.647,-0.786958,0.86112,-0.173015,-2009.2,9328.7,-2224.8,-0.183306,4.81104,0.750524,-3596.82,-9196.11,-1217.25,-3.04315,2.75801,-0.623161,8840.16,1259.28,4304.78,-0.893203,1.50737,1.16075
0.286,4289.8,-3180.27,8087.42,0.245947,0.390706,0.606296,4355.18,2944.26,8098.25,-1.06239,-0.762971,-0.578093,-243.333,9621.15,-1518.92,-0.911585,2.14331,0.305619,423.735,-9821.9,-738.145,-0.674946,0.847118,-0.145767,-2001.34,9339.23,-2209.75,-0.289735,4.69173,0.685149,-3597.14,-9225.42,-1224.35,-3.09238,2.6763,-0.743674,8819.64,1263.23,4300.76,-0.89752,1.48918,1.11912
0.287,4303.62,-3156.67,8083.26,0.132192,0.528233,0.603787,4353.58,2948.65,8108.62,-1.04591,-0.796871,-0.598399,-238.639,9619.15,-1524.54,-0.88139,2.08117,0.351137,418.803,-9827.53,-760.643,-0.562934,0.833117,-0.118518,-1993.48,9349.75,-2194.7,-0.396164,4.57242,0.619774,-3597.46,-9254.74,-1231.45,-3.14161,2.59459,-0.864187,8799.13,1267.18,4296.75,-0.901836,1.47099,1.07749
0.288,4317.45,-3133.08,8079.11,0.0184357,0.66576,0.601277,4351.99,2953.04,8118.99,-1.02942,-0.83077,-0.618705,-233.945,9617.15,-1530.17,-0.851195,2.01902,0.396655,413.87,-9833.16,-783.141,-0.450922,0.819115,-0.0912687,-1985.62,9360.27,-2179.65,-0.502593,4.4531,0.554399,-3597.77,-9284.05,-1238.55,-3.19084,2.51288,-0.9847,8778.62,1271.14,4292.73,-0.906152,1.4528,1.03587
0.289,4332.93,-3113.76,8075.23,-0.0699877,0.792472,0.598978,4351.08,2955.86,8128.58,-1.00249,-0.852706,-0.643864,-228.331,9615.47,-1535.47,-0.825961,1.95287,0.438391,408.777,-9837.89,-801.568,-0.354776,0.806334,-0.0629303,-1978.72,9365.55,-2170.22,-0.582544,4.3392,0.494587,-3596.08,-9307.15,-1242.91,-3.24276,2.42923,-1.09656,8760.45,1272.61,4288.83,-0.917895,1.44324,1.00776
0.29,4361.62,-3128.68,8073.63,0.0442486,0.832665,0.598363,4355.6,2946.16,8131.92,-0.89194,-0.778926,-0.707848,-215.352,9616.35,-1538.19,-0.840426,1.85468,0.449876,402.403,-9835.32,-787.425,-0.385561,0.803317,-0.0258759,-1979.55,9328.81,-2205.75,-0.450677,4.26851,0.479279,-3578.25,-9280.53,-1225.37,-3.31617,2.33002,-1.13922,8761.08,1254.24,4285.88,-0.989056,1.50277,1.08787
0.291,4390.31,-3143.6,8072.03,0.158485,0.872858,0.597748,4360.12,2936.46,8135.26,-0.781392,-0.705147,-0.771832,-202.373,9617.23,-1540.91,-0.85489,1.75649,0.461362,396.029,-9832.75,-773.282,-0.416346,0.8003,0.0111785,-1980.38,9292.08,-2241.29,-0.31881,4.19782,0.463971,-3560.43,-9253.9,-1207.84,-3.38958,2.23081,-1.18188,8761.71,1235.87,4282.93,-1.06022,1.5623,1.16799
0.292,4418.99,-3158.52,8070.43,0.272721,0.91305,0.597133,4364.64,2926.76,8138.6,-0.670843,-0.631367,-0.835817,-189.393,9618.12,-1543.63,-0.869354,1.6583,0.472847,389.655,-9830.18,-759.139,-0.44713,0.797283,0.0482328,-1981.21,9255.34,-2276.82,-0.186943,4.12713,0.448663,-3542.6,-9227.27,-1190.31,-3.46298,2.1316,-1.22454,8762.34,1217.5,4279.98,-1.13138,1.62182,1.2481
0.293,4447.68,-3173.44,8068.83,0.386958,0.953243,0.596518,4369.16,2917.06,8141.94,-0.560294,-0.557588,-0.899801,-176.414,9619.0,-1546.35,-0.883818,1.56011,0.484332,383.281,-9827.62,-744.996,-0.477915,0.794266,0.0852872,-1982.04,9218.61,-2312.35,-0.0550766,4.05644,0.433355,-3524.78,-9200.65,-1172.77,-3.53639,2.0324,-1.2672,8762.97,1199.13,4277.03,-1.20254,1.68135,1.32821
0.294,4452.6,-3182.04,8072.51,0.432172,0.935361,0.625855,4383.97,2919.25,8134.91,-0.529971,-0.513177,-0.910066,-188.062,9620.15,-1546.41,-0.877667,1.52543,0.449336,377.192,-9832.38,-747.578,-0.489823,0.785756,0.0637778,-1983.04,9206.62,-2309.0,0.0449264,4.07736,0.337453,-3538.91,-9188.65,-1179.16,-3.52087,1.97878,-1.26336,8757.01,1194.74,4269.96,-1.23495,1.69357,1.35626
0.295,4445.63,-3187.49,8078.83,0.442876,0.888443,0.670168,4403.92,2927.38,8122.69,-0.539761,-0.48345,-0.893473,-212.024,9621.43,-1545.13,-0.861207,1.52251,0.391099,371.246,-9840.8,-758.523,-0.492292,0.774499,0.0129864,-1984.12,9207.0,-2286.19,0.128997,4.14409,0.201255,-3569.01,-9183.97,-1197.5,-3.46088,1.94796,-1.23627,8747.75,1197.34,4260.83,-1.248,1.68213,1.35828
0.296,4438.66,-3192.94,8085.15,0.453579,0.841524,0.714481,4423.87,2935.51,8110.48,-0.549551,-0.453723,-0.876879,-235.985,9622.7,-1543.85,-0.844748,1.51958,0.332862,365.3,-9849.22,-769.468,-0.494762,0.763243,-0.0378049,-1985.21,9207.38,-2263.39,0.213068,4.21081,0.0650569,-3599.11,-9179.29,-1215.85,-3.4009,1.91714,-1.20919,8738.49,1199.94,4251.7,-1.26104,1.67069,1.3603
0.297,4431.69,-3198.39,8091.46,0.464283,0.794605,0.758794,4443.82,2943.64,8098.26,-0.559341,-0.423996,-0.860285,-259.947,9623.98,-1542.57,-0.828288,1.51666,0.274626,359.354,-9857.65,-780.413,-0.497231,0.751987,-0.0885962,-1986.3,9207.76,-2240.59,0.297139,4.27753,-0.0711413,-3629.22,-9174.61,-1234.19,-3.34091,1.88632,-1.1821,8729.23,1202.53,4242.57,-1.27409,1.65925,1.36232
0.298,4425.66,-3203.99,8097.79,0.438287,0.77056,0.784782,4458.69,2953.48,8086.61,-0.566809,-0.404496,-0.849728,-279.638,9624.14,-1538.42,-0.804502,1.51422,0.222801,357.083,-9862.66,-791.31,-0.501164,0.717064,-0.120601,-1986.66,9216.42,-2214.91,0.3231,4.29911,-0.119485,-3649.25,-9171.15,-1248.92,-3.31448,1.84619,-1.13949,8721.14,1207.6,4237.08,-1.25738,1.6393,1.34711
0.299,4422.94,-3210.1,8104.13,0.283846,0.826573,0.74663,4455.76,2969.28,8076.95,-0.566154,-0.420792,-0.860299,-284.383,9620.4,-1524.18,-0.75507,1.51348,0.193417,367.68,-9855.75,-802.041,-0.510219,0.599308,-0.0868538,-1984.52,9254.09,-2179.17,0.145674,4.16268,0.139664,-3634.06,-9171.96,-1250.99,-3.40551,1.77349,-1.04256,8717.15,1221.34,4244.31,-1.13655,1.58958,1.27156
0.3,4420.22,-3216.21,8110.47,0.129405,0.882585,0.708479,4452.83,2985.08,8067.28,-0.565498,-0.437087,-0.870869,-289.128,9616.65,-1509.95,-0.705638,1.51274,0.164033,378.276,-9848.84,-812.771,-0.519274,0.481551,-0.0531065,-1982.38,9291.76,-2143.44,-0.0317518,4.02625,0.398813,-3618.87,-9172.78,-1253.05,-3.49653,1.70079,-0.945621,8713.16,1235.07,4251.54,-1.01571,1.53986,1.19601
0.301,4417.5,-3222.33,8116.82,-0.0250358,0.938597,0.670327,4449.9,3000.88,8057.62,-0.564842,-0.453383,-0.88144,-293.874,9612.91,-1495.72,-0.656207,1.512,0.134649,388.872,-9841.93,-823.502,-0.52833,0.363795,-0.0193591,-1980.24,9329.42,-2107.7,-0.209178,3.88982,0.657962,-3603.68,-9173.59,-1255.11,-3.58756,1.62809,-0.848686,8709.16,1248.8,4258.77,-0.894876,1.49014,1.12046
0.302,4414.78,-3228.44,8123.16,-0.179477,0.99461,0.632176,4446.97,3016.68,8047.96,-0.564187,-0.469678,-0.89201,-298.619,9609.16,-1481.48,-0.606776,1.51126,0.105264,399.468,-9835.02,-834.233,-0.537385,0.246039,0.0143883,-1978.1,9367.09,-2071.96,-0.386604,3.75339,0.917111,-3588.49,-9174.4,-1257.18,-3.67859,1.55539,-0.751751,8705.17,1262.53,4265.99,-0.774041,1.44041,1.04491
0.303,4422.47,-3220.87,8120.99,-0.145454,0.938714,0.521729,4443.23,3002.54,8052.95,-0.554429,-0.50682,-0.837942,-284.215,9604.49,-1489.89,-0.601093,1.52312,0.129731,404.289,-9841.5,-814.645,-0.586999,0.367954,0.0838038,-1973.45,9342.94,-2086.67,-0.447508,3.78662,0.836612,-3583.37,-9173.45,-1245.26,-3.82411,1.46069,-0.692763,8708.36,1268.97,4269.89,-0.776971,1.42483,1.07539
0.304,4433.13,-3209.38,8116.39,-0.057585,0.850845,0.390626,4439.25,2979.85,8062.13,-0.54207,-0.549919,-0.765406,-264.34,9599.55,-1504.76,-0.607909,1.53859,0.169583,407.461,-9851.81,-786.395,-0.648202,0.558348,0.16341,-1968.08,9301.14,-2115.78,-0.47512,3.86832,0.659072,-3581.12,-9171.99,-1229.34,-3.98521,1.3597,-0.644617,8713.61,1273.33,4272.83,-0.815262,1.419,1.13617
0.305,4443.79,-3197.9,8111.79,0.0302843,0.762976,0.259524,4435.26,2957.16,8071.31,-0.529712,-0.593018,-0.692869,-244.466,9594.61,-1519.64,-0.614726,1.55406,0.209435,410.632,-9862.12,-758.145,-0.709404,0.748741,0.243017,-1962.71,9259.33,-2144.9,-0.502732,3.95003,0.48153,-3578.87,-9170.54,-1213.43,-4.14631,1.25872,-0.596471,8718.86,1277.68,4275.77,-0.853553,1.41317,1.19694
0.306,4454.45,-3186.42,8107.19,0.118154,0.675106,0.128421,4431.28,2934.47,8080.49,-0.517353,-0.636117,-0.620333,-224.591,9589.68,-1534.51,-0.621543,1.56953,0.249287,413.804,-9872.43,-729.895,-0.770607,0.939134,0.322623,-1957.35,9217.52,-2174.01,-0.530344,4.03173,0.303989,-3576.62,-9169.09,-1197.51,-4.3074,1.15773,-0.548325,8724.11,1282.04,4278.71,-0.891844,1.40735,1.25771
0.307,4456.26,-3174.63,8106.87,0.184501,0.611978,0.0645458,4425.93,2919.72,8087.57,-0.520873,-0.657369,-0.602301,-215.801,9589.38,-1546.93,-0.647111,1.59374,0.294384,421.969,-9868.28,-718.604,-0.826696,1.06557,0.343336,-1954.91,9197.09,-2196.9,-0.544137,4.06418,0.212966,-3576.49,-9166.6,-1183.74,-4.42635,1.0192,-0.514703,8732.59,1283.82,4276.1,-0.940098,1.40619,1.28523
0.308,4440.38,-3162.22,8115.11,0.207803,0.59833,0.135124,4417.83,2920.85,8090.44,-0.556152,-0.634928,-0.693279,-229.182,9598.38,-1554.44,-0.710182,1.63543,0.349971,440.119,-9835.19,-741.232,-0.872559,1.06408,0.246261,-1958.31,9219.41,-2207.31,-0.530292,3.99814,0.294977,-3580.6,-9162.06,-1174.26,-4.46099,0.805569,-0.510129,8747.52,1280.46,4262.39,-1.00828,1.41439,1.24623
0.309,4424.5,-3149.81,8123.35,0.231106,0.584682,0.205702,4409.73,2921.98,8093.31,-0.591431,-0.612488,-0.784256,-242.563,9607.38,-1561.95,-0.773252,1.67712,0.405557,458.27,-9802.11,-763.861,-0.918422,1.06258,0.149186,-1961.72,9241.72,-2217.73,-0.516447,3.93209,0.376988,-3584.71,-9157.52,-1164.78,-4.49563,0.591938,-0.505556,8762.46,1277.1,4248.68,-1.07646,1.42258,1.20723
0.31,4408.61,-3137.4,8131.58,0.254408,0.571034,0.27628,4401.63,2923.1,8096.19,-0.62671,-0.590047,-0.875234,-255.943,9616.37,-1569.45,-0.836323,1.71881,0.461144,476.421,-9769.03,-786.489,-0.964285,1.06109,0.0521106,-1965.13,9264.04,-2228.14,-0.502602,3.86604,0.458998,-3588.82,-9152.98,-1155.3,-4.53027,0.378307,-0.500982,8777.39,1273.74,4234.97,-1.14464,1.43077,1.16823
0.311,4392.73,-3124.99,8139.82,0.277711,0.557386,0.346858,4393.53,2924.23,8099.06,-0.661989,-0.567607,-0.966211,-269.324,9625.37,-1576.96,-0.899394,1.7605,0.516731,494.572,-9735.94,-809.118,-1.01015,1.0596,-0.0449646,-1968.54,9286.36,-2238.56,-0.488757,3.79999,0.541009,-3592.94,-9148.45,-1145.82,-4.56491,0.164676,-0.496409,8792.33,1270.38,4221.26,-1.21282,1.43897,1.12923
0.312,4392.61,-3137.08,8149.02,0.245147,0.645933,0.442926,4384.46,2945.25,8090.1,-0.650791,-0.559376,-0.925228,-262.965,9640.23,-1571.01,-0.892647,1.65041,0.604274,476.398,-9758.99,-807.235,-1.01966,1.07696,-0.0141452,-1980.3,9280.44,-2223.62,-0.474039,3.9099,0.56301,-3593.14,-9145.72,-1151.25,-4.55876,0.0489541,-0.527384,8793.55,1269.83,4205.99,-1.23523,1.556,1.13009
0.313,4394.45,-3152.23,8158.34,0.205599,0.747254,0.542182,4375.26,2968.76,8079.66,-0.633783,-0.552921,-0.86775,-254.137,9655.81,-1563.38,-0.877172,1.52135,0.695812,453.683,-9789.05,-802.288,-1.02463,1.09668,0.0326609,-1993.11,9271.0,-2205.51,-0.459212,4.04181,0.57751,-3592.86,-9143.23,-1158.54,-4.54751,-0.0545287,-0.562802,8793.07,1269.62,4190.53,-1.25191,1.68665,1.13592
0.314,4396.3,-3167.39,8167.65,0.166052,0.848576,0.641437,4366.07,2992.26,8069.22,-0.616775,-0.546466,-0.810272,-245.31,9671.4,-1555.74,-0.861698,1.39228,0.78735,430.968,-9819.11,-797.341,-1.02961,1.1164,0.0794671,-2005.92,9261.55,-2187.4,-0.444385,4.17371,0.59201,-3592.57,-9140.73,-1165.83,-4.53627,-0.158012,-0.598221,8792.58,1269.42,4175.06,-1.26859,1.81729,1.14175
0.315,4398.14,-3182.54,8176.97,0.126504,0.949897,0.740692,4356.87,3015.77,8058.78,-0.599767,-0.540012,-0.752794,-236.483,9686.99,-1548.11,-0.846224,1.26322,0.878887,408.253,-9849.17,-792.395,-1.03458,1.13611,0.126273,-2018.72,9252.11,-2169.29,-0.429557,4.30561,0.60651,-3592.29,-9138.23,-1173.12,-4.52502,-0.261494,-0.633639,8792.09,1269.22,4159.6,-1.28527,1.94793,1.14759
0.316,4399.75,-3186.56,8167.83,0.119674,1.00451,0.77764,4349.91,3026.99,8051.88,-0.574001,-0.56179,-0.717512,-225.021,9691.43,-1545.9,-0.843363,1.18221,0.950672,392.177,-9861.45,-789.651,-0.986875,1.10344,0.0992828,-2027.42,9248.72,-2158.26,-0.40025,4.31834,0.633025,-3595.09,-9133.79,-1172.7,-4.54895,-0.383169,-0.645281,8787.25,1263.83,4148.48,-1.31819,2.08284,1.14359
0.317,4401.05,-3176.68,8135.62,0.153742,1.00074,0.736705,4345.75,3022.84,8049.41,-0.537286,-0.61886,-0.709976,-210.264,9681.92,-1550.48,-0.856271,1.16126,0.997766,384.401,-9851.5,-789.663,-0.873329,1.00528,-0.0199532,-2031.0,9252.89,-2156.08,-0.352842,4.18211,0.67456,-3601.76,-9126.9,-1162.63,-4.61686,-0.527582,-0.627202,8776.98,1251.96,4142.81,-1.3714,2.22308,1.12729
0.318,4402.35,-3166.8,8103.41,0.187809,0.996963,0.69577,4341.58,3018.69,8046.95,-0.50057,-0.675929,-0.70244,-195.508,9672.42,-1555.06,-0.869179,1.14031,1.04486,376.625,-9841.56,-789.675,-0.759783,0.907122,-0.139189,-2034.57,9257.06,-2153.89,-0.305434,4.04587,0.716095,-3608.42,-9120.01,-1152.56,-4.68476,-0.671995,-0.609122,8766.7,1240.09,4137.13,-1.42461,2.36333,1.111
0.319,4403.64,-3156.93,8071.2,0.221876,0.99319,0.654835,4337.42,3014.54,8044.48,-0.463855,-0.732999,-0.694903,-180.751,9662.91,-1559.64,-0.882086,1.11936,1.09195,368.848,-9831.61,-789.687,-0.646237,0.808962,-0.258425,-2038.14,9261.23,-2151.71,-0.258025,3.90963,0.75763,-3615.08,-9113.13,-1142.49,-4.75267,-0.816408,-0.591043,8756.43,1228.22,4131.45,-1.47782,2.50357,1.0947
