Time,RFoot_accel.x,RFoot_accel.y,RFoot_accel.z,RFoot_gyro.x,RFoot_gyro.y,RFoot_gyro.z,LFoot_accel.x,LFoot_accel.y,LFoot_accel.z,LFoot_gyro.x,LFoot_gyro.y,LFoot_gyro.z,RShank_accel.x,RShank_accel.y,RShank_accel.z,RShank_gyro.x,RShank_gyro.y,RShank_gyro.z,LShank_accel.x,LShank_accel.y,LShank_accel.z,LShank_gyro.x,LShank_gyro.y,LShank_gyro.z,RThigh_accel.x,RThigh_accel.y,RThigh_accel.z,RThigh_gyro.x,RThigh_gyro.y,RThigh_gyro.z,LThigh_accel.x,LThigh_accel.y,LThigh_accel.z,LThigh_gyro.x,LThigh_gyro.y,LThigh_gyro.z,Pelvis_accel.x,Pelvis_accel.y,Pelvis_accel.z,Pelvis_gyro.x,Pelvis_gyro.y,Pelvis_gyro.z
0.0,4391.1,-3220.11,8101.77,0.456921,2.01387,-0.30635,4284.39,3101.77,8051.54,-1.50379,-0.24408,-0.577637,-324.317,9569.02,-1557.53,-1.46558,-0.54918,-0.566772,187.927,-9735.64,-824.712,-0.69468,2.87638,2.42485,-2125.3,9254.1,-2092.64,0.486111,-3.32182,0.238582,-3698.56,-8833.48,-1352.5,-3.98062,4.49161,1.96644,8928.94,1279.79,4301.32,-5.54275,-2.39551,-0.218279
0.001,4379.27,-3223.58,8090.01,0.500422,2.01349,-0.395476,4304.51,3099.87,8047.66,-1.57071,-0.180688,-0.608864,-323.969,9575.42,-1562.12,-1.52497,-0.612254,-0.558522,191.355,-9772.55,-832.005,-0.628602,2.77642,2.47748,-2109.24,9231.35,-2112.01,0.571098,-3.29016,0.141892,-3724.23,-8856.02,-1318.24,-4.14716,4.33758,2.00534,8959.03,1241.56,4265.41,-5.27918,-2.26704,-0.196625
0.002,4367.45,-3227.06,8078.26,0.543923,2.01311,-0.484601,4324.63,3097.96,8043.78,-1.63763,-0.117296,-0.64009,-323.62,9581.82,-1566.71,-1.58436,-0.675327,-0.550272,194.783,-9809.46,-839.299,-0.562523,2.67645,2.53011,-2093.19,9208.6,-2131.38,0.656084,-3.25851,0.0452012,-3749.89,-8878.56,-1283.99,-4.3137,4.18355,2.04424,8989.11,1203.33,4229.5,-5.01561,-2.13858,-0.174972
0.003,4355.63,-3230.53,8066.51,0.587424,2.01274,-0.573727,4344.76,3096.06,8039.9,-1.70455,-0.0539039,-0.671316,-323.271,9588.21,-1571.3,-1.64375,-0.738401,-0.542023,198.211,-9846.37,-846.592,-0.496444,2.57649,2.58274,-2077.14,9185.86,-2150.75,0.741071,-3.22686,-0.0514892,-3775.55,-8901.1,-1249.74,-4.48024,4.02951,2.08314,9019.2,1165.1,4193.59,-4.75205,-2.01011,-0.153318
0.004,4343.81,-3234.0,8054.76,0.630925,2.01236,-0.662853,4364.88,3094.15,8036.02,-1.77148,0.00948811,-0.702543,-322.922,9594.61,-1575.89,-1.70314,-0.801474,-0.533773,201.639,-9883.28,-853.886,-0.430365,2.47653,2.63537,-2061.08,9163.11,-2170.12,0.826057,-3.1952,-0.14818,-3801.22,-8923.64,-1215.49,-4.64677,3.87548,2.12204,9049.28,1126.87,4157.68,-4.48848,-1.88164,-0.131664
0.005,4332.44,-3239.57,8054.77,0.650832,2.02068,-0.710171,4380.07,3091.77,8032.23,-1.84738,0.0602041,-0.683536,-317.326,9605.47,-1576.2,-1.68612,-0.812169,-0.514666,208.78,-9892.69,-851.209,-0.390059,2.36864,2.59337,-2032.76,9159.13,-2183.53,0.880982,-3.14219,-0.204369,-3818.74,-8951.96,-1190.93,-4.85198,3.66292,2.1341,9042.94,1099.31,4151.08,-4.2809,-1.73264,-0.100782
0.006,4321.43,-3246.82,8064.19,0.651863,2.03597,-0.724042,4391.31,3089.0,8028.53,-1.93047,0.100779,-0.624344,-307.532,9619.89,-1573.1,-1.60799,-0.780962,-0.486874,218.891,-9880.09,-840.556,-0.370372,2.25441,2.47569,-1994.62,9170.16,-2192.18,0.911858,-3.07209,-0.228157,-3829.75,-8984.89,-1174.12,-5.08813,3.40353,2.12469,9007.47,1080.3,4167.92,-4.11811,-1.56722,-0.0625181
0.007,4310.42,-3254.07,8073.61,0.652893,2.05126,-0.737914,4402.55,3086.23,8024.83,-2.01357,0.141354,-0.565151,-297.739,9634.32,-1569.99,-1.52985,-0.749755,-0.459082,229.002,-9867.5,-829.903,-0.350686,2.14018,2.358,-1956.48,9181.18,-2200.83,0.942734,-3.00199,-0.251945,-3840.76,-9017.82,-1157.32,-5.32427,3.14415,2.11527,8971.99,1061.28,4184.76,-3.95532,-1.4018,-0.024254
0.008,4299.41,-3261.32,8083.03,0.653924,2.06655,-0.751785,4413.79,3083.46,8021.12,-2.09666,0.181929,-0.505958,-287.945,9648.74,-1566.88,-1.45171,-0.718547,-0.431289,239.112,-9854.9,-819.25,-0.330999,2.02595,2.24031,-1918.34,9192.21,-2209.48,0.973609,-2.93188,-0.275733,-3851.76,-9050.75,-1140.52,-5.56041,2.88477,2.10586,8936.52,1042.27,4201.6,-3.79254,-1.23637,0.0140102
0.009,4291.88,-3266.38,8092.53,0.651785,2.08224,-0.764031,4425.31,3080.54,8018.02,-2.17175,0.208353,-0.443443,-281.205,9660.69,-1565.23,-1.3834,-0.685191,-0.406612,249.015,-9846.14,-810.843,-0.31994,1.91152,2.1357,-1887.42,9201.89,-2220.68,1.00544,-2.85606,-0.310813,-3864.31,-9082.51,-1124.81,-5.7729,2.61804,2.08118,8905.67,1024.56,4218.99,-3.63661,-1.07513,0.0497814
0.01,4312.23,-3253.93,8102.66,0.62429,2.10116,-0.763275,4439.0,3076.37,8019.72,-2.18282,0.121569,-0.354349,-298.896,9652.81,-1575.23,-1.39371,-0.634637,-0.406851,257.257,-9868.07,-820.414,-0.37791,1.79553,2.1357,-1914.28,9200.81,-2252.31,1.04487,-2.73441,-0.436228,-3889.21,-9104.93,-1117.92,-5.79613,2.29255,1.93439,8911.88,1017.26,4240.77,-3.53556,-0.94729,0.06561
0.011,4332.57,-3241.48,8112.79,0.596794,2.12008,-0.762519,4452.69,3072.21,8021.42,-2.1939,0.0347846,-0.265255,-316.588,9644.93,-1585.23,-1.40401,-0.584083,-0.40709,265.499,-9890.0,-829.984,-0.43588,1.67953,2.1357,-1941.14,9199.72,-2283.94,1.0843,-2.61277,-0.561644,-3914.11,-9127.35,-1111.02,-5.81936,1.96705,1.7876,8918.09,1009.96,4262.56,-3.4345,-0.819455,0.0814386
0.012,4352.92,-3229.04,8122.93,0.569299,2.13899,-0.761763,4466.38,3068.04,8023.12,-2.20497,-0.0519998,-0.176161,-334.28,9637.05,-1595.24,-1.41431,-0.533529,-0.407329,273.741,-9911.93,-839.554,-0.493851,1.56354,2.1357,-1968.0,9198.64,-2315.58,1.12373,-2.49113,-0.687059,-3939.01,-9149.77,-1104.12,-5.84259,1.64156,1.6408,8924.29,1002.66,4284.34,-3.33345,-0.69162,0.0972672
0.013,4373.26,-3216.59,8133.06,0.541803,2.15791,-0.761007,4480.08,3063.87,8024.83,-2.21605,-0.138784,-0.0870666,-351.971,9629.18,-1605.24,-1.42461,-0.482975,-0.407569,281.982,-9933.86,-849.124,-0.551821,1.44755,2.1357,-1994.86,9197.55,-2347.21,1.16317,-2.36949,-0.812475,-3963.91,-9172.19,-1097.22,-5.86582,1.31606,1.49401,8930.5,995.36,4306.12,-3.2324,-0.563785,0.113096
0.014,4390.16,-3198.65,8132.6,0.572519,2.18976,-0.686892,4473.99,3066.88,8025.01,-2.19699,-0.212803,-0.0457871,-353.576,9628.93,-1598.01,-1.42364,-0.479297,-0.385211,291.974,-9941.07,-843.677,-0.503778,1.36776,2.13016,-2011.84,9208.84,-2369.75,1.25381,-2.25921,-0.848537,-3982.22,-9184.4,-1097.84,-5.72195,0.978478,1.34857,8939.79,989.936,4324.49,-3.25578,-0.533626,-0.0116145
0.015,4405.33,-3177.97,8126.84,0.63234,2.22808,-0.576099,4458.01,3073.48,8024.43,-2.16286,-0.28044,-0.0284149,-347.137,9632.49,-1582.15,-1.41704,-0.499057,-0.351554,302.84,-9940.92,-830.722,-0.40273,1.30608,2.12184,-2023.88,9226.31,-2387.76,1.37007,-2.15462,-0.839922,-3997.24,-9191.5,-1102.22,-5.49452,0.634848,1.20382,8950.61,985.45,4341.15,-3.34138,-0.552305,-0.206594
0.016,4420.5,-3157.29,8121.09,0.692162,2.26639,-0.465305,4442.04,3080.08,8023.85,-2.12874,-0.348076,-0.0110427,-340.699,9636.06,-1566.3,-1.41043,-0.518818,-0.317897,313.705,-9940.77,-817.767,-0.301682,1.24439,2.11352,-2035.92,9243.79,-2405.76,1.48633,-2.05003,-0.831307,-4012.25,-9198.61,-1106.59,-5.2671,0.291218,1.05907,8961.44,980.964,4357.81,-3.42698,-0.570985,-0.401574
0.017,4435.67,-3136.6,8115.34,0.751984,2.30471,-0.354512,4426.06,3086.68,8023.28,-2.09461,-0.415713,0.00632958,-334.26,9639.63,-1550.45,-1.40383,-0.538578,-0.284241,324.571,-9940.61,-804.812,-0.200633,1.18271,2.1052,-2047.96,9261.26,-2423.76,1.60258,-1.94544,-0.822692,-4027.26,-9205.71,-1110.97,-5.03967,-0.0524123,0.914319,8972.27,976.478,4374.47,-3.51258,-0.589664,-0.596553
0.018,4447.45,-3117.64,8109.35,0.777664,2.32769,-0.233625,4410.37,3089.23,8024.7,-2.0659,-0.472917,-0.00278368,-329.828,9644.27,-1535.75,-1.39158,-0.550309,-0.262915,327.758,-9935.88,-792.188,-0.123392,1.12581,2.08872,-2052.36,9276.2,-2435.31,1.67775,-1.83419,-0.801982,-4039.06,-9210.41,-1114.2,-4.87275,-0.423652,0.779986,8967.91,974.784,4389.22,-3.62128,-0.648503,-0.776863
0.019,4447.32,-3104.71,8102.56,0.683848,2.29695,-0.0774135,4395.67,3077.62,8033.1,-2.05616,-0.49361,-0.104596,-332.416,9652.7,-1525.06,-1.35957,-0.533934,-0.284748,304.065,-9915.1,-780.724,-0.129479,1.08564,2.04368,-2030.04,9282.23,-2424.24,1.60912,-1.6996,-0.738937,-4039.6,-9206.7,-1113.46,-4.91758,-0.891522,0.682119,8910.42,982.86,4397.27,-3.81086,-0.847902,-0.905829
0.02,4447.18,-3091.78,8095.77,0.590033,2.26622,0.0787983,4380.97,3066.01,8041.51,-2.04642,-0.514303,-0.206409,-335.005,9661.14,-1514.37,-1.32756,-0.51756,-0.306581,280.372,-9894.32,-769.259,-0.135565,1.04546,1.99864,-2007.73,9288.26,-2413.18,1.5405,-1.56502,-0.675892,-4040.15,-9202.98,-1112.72,-4.96242,-1.35939,0.584253,8852.93,990.937,4405.31,-4.00043,-1.0473,-1.03479
0.021,4447.05,-3078.85,8088.98,0.496217,2.23549,0.23501,4366.27,3054.4,8049.92,-2.03667,-0.534996,-0.308221,-337.593,9669.57,-1503.67,-1.29555,-0.501185,-0.328413,256.679,-9873.54,-757.794,-0.141651,1.00529,1.95359,-1985.41,9294.3,-2402.12,1.47187,-1.43044,-0.612847,-4040.7,-9199.26,-1111.97,-5.00725,-1.82726,0.486386,8795.44,999.013,4413.36,-4.19001,-1.2467,-1.16376
0.022,4446.92,-3065.92,8082.19,0.402401,2.20475,0.391222,4351.57,3042.79,8058.32,-2.02693,-0.555689,-0.410034,-340.182,9678.0,-1492.98,-1.26353,-0.484811,-0.350246,232.986,-9852.76,-746.33,-0.147737,0.965119,1.90855,-1963.09,9300.33,-2391.05,1.40324,-1.29585,-0.549802,-4041.24,-9195.55,-1111.23,-5.05209,-2.29513,0.38852,8737.95,1007.09,4421.41,-4.37958,-1.4461,-1.29273
0.023,4446.54,-3058.91,8084.37,0.314782,2.11286,0.37255,4357.85,3026.45,8063.27,-1.98168,-0.551825,-0.485085,-352.984,9679.91,-1484.95,-1.19652,-0.555934,-0.375361,232.686,-9849.49,-743.651,-0.152826,0.903745,1.85756,-1954.07,9301.28,-2389.65,1.31262,-1.18706,-0.491589,-4040.49,-9193.71,-1117.76,-5.21304,-2.70979,0.345301,8718.49,1021.37,4420.98,-4.41705,-1.57963,-1.35623
0.024,4446.08,-3053.59,8089.1,0.228932,2.0035,0.303911,4370.13,3008.75,8067.23,-1.92629,-0.540944,-0.552491,-368.705,9679.95,-1477.68,-1.11951,-0.652057,-0.401414,239.069,-9851.23,-743.482,-0.157631,0.836313,1.80488,-1948.85,9300.78,-2391.0,1.21573,-1.08563,-0.434757,-4039.37,-9192.41,-1126.37,-5.40715,-3.10925,0.317695,8709.89,1037.41,4418.13,-4.41107,-1.69435,-1.40102
0.025,4445.62,-3048.28,8093.83,0.143083,1.89414,0.235272,4382.4,2991.05,8071.19,-1.87089,-0.530064,-0.619897,-384.426,9680.0,-1470.41,-1.0425,-0.74818,-0.427468,245.453,-9852.96,-743.313,-0.162436,0.76888,1.75219,-1943.63,9300.28,-2392.36,1.11883,-0.984203,-0.377924,-4038.26,-9191.11,-1134.97,-5.60127,-3.50871,0.290089,8701.29,1053.46,4415.27,-4.40509,-1.80907,-1.44582
0.026,4445.16,-3042.96,8098.56,0.057233,1.78477,0.166634,4394.68,2973.35,8075.15,-1.8155,-0.519183,-0.687303,-400.147,9680.04,-1463.14,-0.965494,-0.844302,-0.453521,251.837,-9854.7,-743.144,-0.167241,0.701448,1.6995,-1938.41,9299.78,-2393.71,1.02194,-0.882775,-0.321092,-4037.14,-9189.81,-1143.58,-5.79539,-3.90817,0.262484,8692.69,1069.51,4412.42,-4.3991,-1.92378,-1.49061
0.027,4439.51,-3046.21,8103.43,0.0,1.72416,0.0915534,4406.92,2962.73,8080.68,-1.76442,-0.52146,-0.719283,-415.294,9684.06,-1464.97,-0.928444,-0.952663,-0.478858,260.226,-9855.13,-739.457,-0.168616,0.648242,1.64679,-1931.47,9297.68,-2392.13,0.925044,-0.775147,-0.278307,-4028.77,-9187.16,-1158.34,-5.94836,-4.27634,0.27536,8691.13,1085.3,4410.48,-4.39499,-2.01477,-1.47134
0.028,4423.45,-3066.59,8108.58,0.0,1.76104,0.00359022,4419.08,2966.25,8089.35,-1.72198,-0.550049,-0.680412,-429.294,9696.02,-1485.01,-0.971314,-1.0855,-0.502764,272.626,-9852.96,-728.735,-0.163131,0.623489,1.59404,-1921.1,9292.39,-2384.67,0.828149,-0.65512,-0.26362,-4005.92,-9181.8,-1185.42,-6.01902,-4.58194,0.369202,8703.67,1100.58,4410.4,-4.39461,-2.05829,-1.32395
0.029,4407.4,-3086.98,8113.73,0.0,1.79791,-0.084373,4431.25,2969.77,8098.03,-1.67955,-0.578638,-0.641541,-443.295,9707.98,-1505.05,-1.01418,-1.21833,-0.526671,285.027,-9850.79,-718.013,-0.157646,0.598737,1.54129,-1910.72,9287.1,-2377.22,0.731254,-0.535092,-0.248932,-3983.06,-9176.45,-1212.5,-6.08968,-4.88753,0.463043,8716.21,1115.85,4410.31,-4.39424,-2.10181,-1.17656
0.03,4391.34,-3107.36,8118.87,0.0,1.83479,-0.172336,4443.41,2973.29,8106.7,-1.63711,-0.607227,-0.60267,-457.295,9719.94,-1525.08,-1.05705,-1.35117,-0.550577,297.427,-9848.62,-707.291,-0.152161,0.573984,1.48854,-1900.35,9281.81,-2369.76,0.634359,-0.415064,-0.234245,-3960.21,-9171.09,-1239.58,-6.16034,-5.19313,0.556885,8728.74,1131.13,4410.22,-4.39386,-2.14533,-1.02917
0.031,4375.29,-3127.75,8124.02,0.0,1.87167,-0.260299,4455.57,2976.81,8115.38,-1.59467,-0.635817,-0.563799,-471.295,9731.89,-1545.12,-1.09992,-1.48401,-0.574483,309.827,-9846.45,-696.569,-0.146676,0.549231,1.43578,-1889.98,9276.52,-2362.3,0.537464,-0.295036,-0.219557,-3937.35,-9165.74,-1266.66,-6.231,-5.49873,0.650726,8741.28,1146.41,4410.13,-4.39348,-2.18885,-0.881775
0.032,4365.59,-3130.71,8119.66,0.0427889,1.88497,-0.24348,4455.45,2979.56,8103.46,-1.53601,-0.62198,-0.550132,-449.699,9734.53,-1563.39,-1.18211,-1.47425,-0.601843,291.827,-9856.06,-708.724,-0.266727,0.493277,1.39295,-1900.35,9289.87,-2369.11,0.474404,-0.14597,-0.0856509,-3880.52,-9188.31,-1279.1,-6.05493,-5.54935,0.711982,8733.34,1171.18,4391.07,-4.50265,-2.27924,-0.753962
0.033,4356.69,-3131.49,8114.11,0.0909264,1.89531,-0.213563,4453.79,2982.2,8088.96,-1.47532,-0.60284,-0.539614,-423.654,9736.01,-1581.43,-1.2692,-1.44666,-0.629635,270.027,-9867.14,-723.739,-0.402471,0.433422,1.35135,-1913.32,9305.55,-2377.7,0.415573,0.0067251,0.0631578,-3819.45,-9214.38,-1289.71,-5.84802,-5.5681,0.769165,8722.84,1197.14,4369.65,-4.62552,-2.37548,-0.628596
0.034,4347.79,-3132.27,8108.56,0.139064,1.90566,-0.183646,4452.13,2984.85,8074.46,-1.41464,-0.5837,-0.529097,-397.609,9737.49,-1599.48,-1.3563,-1.41907,-0.657427,248.228,-9878.22,-738.754,-0.538215,0.373567,1.30975,-1926.29,9321.24,-2386.29,0.356742,0.159421,0.211966,-3758.37,-9240.45,-1300.31,-5.64111,-5.58685,0.826348,8712.34,1223.1,4348.22,-4.74838,-2.47172,-0.50323
0.035,4338.88,-3133.05,8103.01,0.187201,1.91601,-0.153728,4450.47,2987.49,8059.97,-1.35395,-0.56456,-0.51858,-371.563,9738.96,-1617.53,-1.44339,-1.39149,-0.685219,226.428,-9889.3,-753.77,-0.673959,0.313712,1.26815,-1939.26,9336.92,-2394.88,0.297911,0.312116,0.360775,-3697.29,-9266.52,-1310.92,-5.43419,-5.6056,0.883532,8701.84,1249.06,4326.8,-4.87125,-2.56797,-0.377865
0.036,4345.3,-3136.2,8095.75,0.229162,1.92105,-0.162158,4444.22,2986.6,8046.59,-1.32492,-0.55916,-0.534556,-358.281,9729.91,-1625.07,-1.52883,-1.38508,-0.690026,226.444,-9902.27,-761.797,-0.753761,0.258515,1.25965,-1940.86,9339.91,-2393.76,0.269214,0.46177,0.442993,-3638.85,-9286.39,-1320.83,-5.19244,-5.57565,0.950715,8700.28,1272.17,4314.33,-4.90285,-2.63379,-0.216153
0.037,4370.86,-3142.31,8086.33,0.263402,1.91947,-0.218521,4432.23,2981.29,8034.61,-1.33545,-0.570935,-0.583649,-360.951,9707.69,-1619.49,-1.61221,-1.40513,-0.666103,253.731,-9917.61,-761.091,-0.763636,0.209141,1.29252,-1928.27,9327.04,-2380.51,0.278186,0.607624,0.441971,-3583.69,-9298.52,-1329.86,-4.90715,-5.48483,1.0304,8709.89,1291.69,4313.05,-4.82039,-2.66158,-0.00900806
0.038,4396.42,-3148.41,8076.93,0.297641,1.91789,-0.274884,4420.24,2975.98,8022.63,-1.34598,-0.58271,-0.632741,-363.622,9685.47,-1613.91,-1.69559,-1.42519,-0.642179,281.018,-9932.95,-760.385,-0.773511,0.159767,1.3254,-1915.68,9314.17,-2367.25,0.287157,0.753477,0.440949,-3528.52,-9310.66,-1338.89,-4.62185,-5.39401,1.11008,8719.5,1311.22,4311.77,-4.73793,-2.68937,0.198137
0.039,4421.98,-3154.51,8067.51,0.331881,1.91631,-0.331247,4408.26,2970.67,8010.65,-1.35651,-0.594485,-0.681834,-366.293,9663.25,-1608.32,-1.77896,-1.44524,-0.618255,308.306,-9948.29,-759.679,-0.783385,0.110394,1.35827,-1903.09,9301.29,-2354.0,0.296129,0.89933,0.439927,-3473.36,-9322.79,-1347.92,-4.33656,-5.30318,1.18976,8729.1,1330.75,4310.49,-4.65547,-2.71716,0.405281
0.04,4447.54,-3160.62,8058.1,0.36612,1.91473,-0.38761,4396.27,2965.36,7998.67,-1.36704,-0.60626,-0.730927,-368.964,9641.03,-1602.74,-1.86234,-1.4653,-0.594331,335.593,-9963.63,-758.973,-0.79326,0.06102,1.39114,-1890.5,9288.42,-2340.74,0.3051,1.04518,0.438906,-3418.2,-9334.93,-1356.95,-4.05126,-5.21236,1.26945,8738.71,1350.28,4309.21,-4.573,-2.74495,0.612426
0.041,4443.27,-3154.81,8057.0,0.291361,1.90376,-0.362934,4400.42,2966.61,8003.06,-1.35495,-0.600481,-0.683425,-379.814,9639.9,-1619.61,-1.86164,-1.35273,-0.615701,315.896,-9936.28,-761.017,-0.819635,0.0961872,1.33954,-1892.06,9305.58,-2349.08,0.26025,1.11827,0.498702,-3396.21,-9315.98,-1368.29,-4.00858,-5.0396,1.25023,8733.35,1348.31,4294.24,-4.41636,-2.70243,0.711126
0.042,4438.99,-3149.0,8055.9,0.216601,1.8928,-0.338257,4404.58,2967.86,8007.44,-1.34287,-0.594702,-0.635924,-390.663,9638.76,-1636.48,-1.86094,-1.24016,-0.637071,296.199,-9908.93,-763.06,-0.846011,0.131354,1.28793,-1893.62,9322.74,-2357.42,0.215401,1.19136,0.558499,-3374.21,-9297.03,-1379.64,-3.96589,-4.86684,1.231,8727.99,1346.34,4279.27,-4.25971,-2.6599,0.809826
0.043,4434.72,-3143.19,8054.8,0.141842,1.88183,-0.31358,4408.73,2969.11,8011.83,-1.33078,-0.588923,-0.588422,-401.513,9637.63,-1653.35,-1.86023,-1.12759,-0.658441,276.503,-9881.58,-765.104,-0.872386,0.166522,1.23633,-1895.19,9339.91,-2365.77,0.170551,1.26444,0.618295,-3352.21,-9278.08,-1390.98,-3.9232,-4.69409,1.21178,8722.64,1344.37,4264.3,-4.10306,-2.61738,0.908526
0.044,4430.45,-3137.38,8053.7,0.0670823,1.87086,-0.288903,4412.88,2970.36,8016.22,-1.31869,-0.583144,-0.540921,-412.362,9636.49,-1670.22,-1.85953,-1.01501,-0.679812,256.806,-9854.24,-767.147,-0.898762,0.201689,1.18472,-1896.75,9357.07,-2374.11,0.125702,1.33753,0.678092,-3330.22,-9259.13,-1402.32,-3.88051,-4.52133,1.19256,8717.28,1342.4,4249.33,-3.94641,-2.57486,1.00723
0.045,4422.2,-3137.62,8066.81,0.0395965,1.84924,-0.269596,4414.68,2976.3,8018.77,-1.26733,-0.542176,-0.554898,-411.326,9641.62,-1670.38,-1.82006,-0.919793,-0.670951,252.325,-9837.4,-770.293,-0.920856,0.266579,1.14623,-1908.19,9367.16,-2360.85,0.0620375,1.35548,0.724867,-3307.98,-9232.38,-1416.81,-3.87463,-4.21649,1.13509,8715.44,1346.85,4244.0,-3.65669,-2.49973,1.15616
0.046,4410.76,-3142.71,8091.29,0.0499295,1.8191,-0.254583,4414.59,2985.98,8019.86,-1.18455,-0.473057,-0.618059,-400.78,9651.77,-1657.18,-1.74956,-0.83845,-0.637905,260.016,-9828.98,-774.321,-0.939526,0.355247,1.11823,-1927.51,9371.58,-2330.3,-0.0166784,1.32931,0.761225,-3285.56,-9199.38,-1433.82,-3.8982,-3.806,1.04703,8716.43,1356.43,4246.38,-3.26049,-2.3985,1.34528
0.047,4399.32,-3147.79,8115.77,0.0602625,1.78896,-0.239571,4414.5,2995.66,8020.95,-1.10177,-0.403938,-0.68122,-390.235,9661.91,-1643.97,-1.67906,-0.757108,-0.60486,267.706,-9820.56,-778.349,-0.958196,0.443915,1.09023,-1946.84,9376.01,-2299.76,-0.0953944,1.30314,0.797584,-3263.14,-9166.39,-1450.83,-3.92177,-3.3955,0.958972,8717.42,1366.01,4248.77,-2.8643,-2.29727,1.5344
0.048,4387.88,-3152.88,8140.25,0.0705956,1.75882,-0.224559,4414.42,3005.34,8022.04,-1.01899,-0.334819,-0.74438,-379.689,9672.06,-1630.77,-1.60856,-0.675765,-0.571814,275.397,-9812.13,-782.377,-0.976866,0.532583,1.06223,-1966.16,9380.44,-2269.21,-0.17411,1.27698,0.833942,-3240.72,-9133.4,-1467.84,-3.94535,-2.98501,0.870912,8718.41,1375.6,4251.15,-2.46811,-2.19604,1.72351
0.049,4376.22,-3158.02,8163.62,0.0867514,1.72954,-0.20688,4414.08,3014.78,8024.05,-0.94544,-0.27741,-0.810141,-370.861,9680.12,-1617.57,-1.54868,-0.600899,-0.537469,281.608,-9804.74,-787.143,-0.986502,0.606741,1.03789,-1984.98,9381.19,-2242.1,-0.246974,1.24568,0.869273,-3222.52,-9104.92,-1482.5,-3.9746,-2.56352,0.773001,8723.16,1380.08,4254.34,-2.09743,-2.07888,1.89191
0.05,4362.9,-3163.66,8178.13,0.14949,1.70707,-0.167873,4411.73,3022.26,8033.46,-0.945741,-0.313687,-0.896698,-375.776,9671.45,-1604.4,-1.57374,-0.577843,-0.492728,275.982,-9805.57,-797.817,-0.923872,0.564811,1.04283,-1999.78,9352.48,-2242.49,-0.273017,1.17333,0.896389,-3238.15,-9112.56,-1478.29,-4.0493,-2.05411,0.596279,8757.98,1343.8,4264.02,-1.93089,-1.83426,1.89451
0.051,4349.57,-3169.31,8192.63,0.212228,1.68461,-0.128865,4409.37,3029.74,8042.88,-0.946042,-0.349963,-0.983255,-380.69,9662.79,-1591.23,-1.59879,-0.554787,-0.447987,270.356,-9806.39,-808.49,-0.861242,0.522882,1.04776,-2014.58,9323.78,-2242.88,-0.299059,1.10098,0.923504,-3253.77,-9120.19,-1474.09,-4.124,-1.54471,0.419558,8792.81,1307.52,4273.7,-1.76434,-1.58964,1.89711
0.052,4336.24,-3174.95,8207.14,0.274966,1.66215,-0.089857,4407.02,3037.21,8052.29,-0.946342,-0.38624,-1.06981,-385.605,9654.12,-1578.06,-1.62384,-0.531731,-0.403245,264.73,-9807.22,-819.164,-0.798612,0.480952,1.0527,-2029.38,9295.08,-2243.26,-0.325102,1.02862,0.95062,-3269.4,-9127.83,-1469.89,-4.19871,-1.0353,0.242836,8827.64,1271.23,4283.38,-1.59779,-1.34501,1.89971
0.053,4322.92,-3180.59,8221.64,0.337704,1.63969,-0.0508492,4404.67,3044.69,8061.7,-0.946643,-0.422516,-1.15637,-390.52,9645.46,-1564.89,-1.64889,-0.508675,-0.358504,259.104,-9808.05,-829.837,-0.735982,0.439023,1.05764,-2044.18,9266.38,-2243.65,-0.351145,0.956272,0.977736,-3285.02,-9135.47,-1465.69,-4.27341,-0.525891,0.0661138,8862.46,1234.95,4293.06,-1.43124,-1.10039,1.90231
0.054,4324.7,-3180.59,8217.8,0.304857,1.61953,-0.0953669,4408.42,3047.26,8065.52,-0.9272,-0.42214,-1.11988,-385.029,9636.0,-1581.61,-1.60622,-0.565121,-0.44057,260.329,-9815.92,-828.88,-0.737243,0.35687,1.07209,-2049.34,9253.36,-2241.16,-0.342112,0.934312,0.880976,-3306.49,-9143.72,-1466.31,-4.22674,-0.0387789,-0.0206415,8860.88,1228.65,4299.8,-1.26827,-0.945277,1.94721
0.055,4334.05,-3177.76,8204.78,0.224217,1.60052,-0.181647,4415.2,3047.37,8066.54,-0.897884,-0.403437,-1.02186,-374.335,9626.14,-1613.26,-1.52969,-0.661317,-0.586039,264.978,-9827.33,-822.108,-0.770451,0.254606,1.0913,-2049.68,9248.19,-2237.23,-0.315541,0.937546,0.722278,-3330.88,-9152.28,-1469.34,-4.11939,0.437186,-0.0624134,8841.1,1237.33,4305.08,-1.10707,-0.834914,2.01325
0.056,4343.4,-3174.94,8191.76,0.143578,1.58151,-0.267928,4421.99,3047.48,8067.55,-0.868569,-0.384734,-0.923835,-363.642,9616.28,-1644.92,-1.45317,-0.757514,-0.731508,269.627,-9838.72,-815.336,-0.803659,0.152342,1.1105,-2050.02,9243.02,-2233.3,-0.28897,0.940781,0.56358,-3355.27,-9160.84,-1472.37,-4.01204,0.91315,-0.104185,8821.31,1246.02,4310.35,-0.945882,-0.724552,2.0793
0.057,4352.75,-3172.12,8178.74,0.0629378,1.5625,-0.354208,4428.78,3047.6,8068.57,-0.839253,-0.366031,-0.825815,-352.948,9606.43,-1676.57,-1.37664,-0.85371,-0.876977,274.276,-9850.13,-808.563,-0.836867,0.0500784,1.12971,-2050.36,9237.85,-2229.37,-0.262399,0.944016,0.404882,-3379.66,-9169.4,-1475.4,-3.90469,1.38912,-0.145957,8801.52,1254.7,4315.62,-0.78469,-0.61419,2.14535
0.058,4364.76,-3168.84,8167.88,-0.0198858,1.55054,-0.421084,4429.22,3050.41,8068.26,-0.814066,-0.340211,-0.747883,-348.402,9595.46,-1696.41,-1.33464,-0.946388,-0.976231,279.941,-9858.14,-804.548,-0.869594,-0.0206678,1.14113,-2046.84,9231.61,-2228.18,-0.223479,0.9273,0.298902,-3395.67,-9176.49,-1475.7,-3.78562,1.83971,-0.184213,8790.21,1254.35,4315.7,-0.649347,-0.507855,2.19545
0.059,4386.1,-3163.96,8164.61,-0.110353,1.5633,-0.420043,4407.41,3062.65,8063.32,-0.803329,-0.289483,-0.740257,-365.371,9580.6,-1674.92,-1.41346,-1.02675,-0.913733,289.16,-9854.32,-810.185,-0.900637,0.0188979,1.12531,-2029.81,9221.62,-2236.6,-0.141341,0.840758,0.377435,-3382.36,-9178.43,-1466.46,-3.62556,2.2015,-0.210163,8808.52,1222.39,4297.57,-0.604478,-0.415615,2.18971
0.06,4407.44,-3159.09,8161.34,-0.200819,1.57605,-0.419001,4385.6,3074.9,8058.37,-0.792592,-0.238756,-0.732632,-382.339,9565.73,-1653.43,-1.49228,-1.10711,-0.851235,298.379,-9850.5,-815.821,-0.931681,0.0584636,1.10948,-2012.77,9211.63,-2245.01,-0.0592023,0.754215,0.455969,-3369.05,-9180.37,-1457.23,-3.4655,2.5633,-0.236113,8826.84,1190.43,4279.45,-0.559608,-0.323376,2.18398
0.061,4428.78,-3154.21,8158.07,-0.291286,1.5888,-0.41796,4363.79,3087.15,8053.43,-0.781854,-0.188028,-0.725006,-399.308,9550.87,-1631.94,-1.5711,-1.18747,-0.788736,307.597,-9846.68,-821.457,-0.962725,0.0980294,1.09366,-1995.74,9201.65,-2253.43,0.0229362,0.667673,0.534502,-3355.74,-9182.31,-1447.99,-3.30544,2.92509,-0.262063,8845.16,1158.47,4261.32,-0.514739,-0.231137,2.17825
0.062,4450.11,-3149.34,8154.8,-0.381753,1.60155,-0.416919,4341.98,3099.4,8048.48,-0.771117,-0.1373,-0.71738,-416.277,9536.01,-1610.44,-1.64991,-1.26783,-0.726238,316.816,-9842.86,-827.094,-0.993769,0.137595,1.07783,-1978.7,9191.66,-2261.84,0.105075,0.581131,0.613036,-3342.44,-9184.26,-1438.76,-3.14538,3.28688,-0.288013,8863.48,1126.51,4243.19,-0.469869,-0.138898,2.17252
0.063,4448.04,-3143.43,8154.75,-0.318771,1.5909,-0.36544,4326.34,3106.38,8050.82,-0.818388,-0.159132,-0.773742,-418.095,9553.91,-1588.6,-1.59709,-1.2074,-0.747404,320.941,-9847.26,-823.909,-0.993672,0.17069,1.0224,-1983.57,9201.76,-2273.85,0.078125,0.566251,0.681955,-3359.05,-9192.03,-1430.09,-2.98649,3.67689,-0.283522,8867.45,1129.18,4241.98,-0.545752,-0.107605,2.09568
0.064,4439.27,-3137.23,8155.62,-0.211946,1.57356,-0.299552,4312.46,3111.86,8055.25,-0.882232,-0.201694,-0.848386,-415.583,9581.16,-1566.65,-1.50665,-1.10675,-0.792474,323.611,-9854.01,-818.204,-0.984677,0.201937,0.955641,-1994.68,9217.6,-2286.89,0.0200073,0.571845,0.748127,-3384.2,-9201.46,-1421.57,-2.82794,4.07495,-0.270333,8867.33,1141.74,4245.6,-0.656137,-0.0937265,1.99853
0.065,4430.51,-3131.02,8156.49,-0.105121,1.55621,-0.233663,4298.57,3117.34,8059.68,-0.946076,-0.244257,-0.923029,-413.072,9608.42,-1544.71,-1.41621,-1.0061,-0.837544,326.281,-9860.76,-812.498,-0.975682,0.233183,0.888887,-2005.8,9233.45,-2299.92,-0.0381104,0.57744,0.8143,-3409.36,-9210.9,-1413.06,-2.66939,4.47301,-0.257145,8867.2,1154.31,4249.23,-0.766521,-0.0798475,1.90137
0.066,4421.74,-3124.82,8157.36,0.00170324,1.53887,-0.167774,4284.69,3122.81,8064.1,-1.00992,-0.28682,-0.997673,-410.561,9635.67,-1522.77,-1.32577,-0.905442,-0.882614,328.95,-9867.51,-806.793,-0.966687,0.264429,0.822133,-2016.91,9249.29,-2312.96,-0.0962281,0.583035,0.880472,-3434.52,-9220.34,-1404.55,-2.51084,4.87108,-0.243957,8867.07,1166.87,4252.85,-0.876906,-0.0659686,1.80422
0.067,4413.55,-3115.03,8158.17,0.0643771,1.51038,-0.137456,4283.63,3118.63,8063.93,-1.05249,-0.328625,-1.02562,-409.591,9644.23,-1510.39,-1.29972,-0.822709,-0.875236,329.899,-9869.71,-801.447,-0.942677,0.295901,0.781688,-2031.04,9260.28,-2324.81,-0.14127,0.607107,0.895628,-3453.86,-9226.97,-1404.74,-2.38618,5.18681,-0.174686,8874.17,1173.19,4249.83,-0.924973,-0.0558159,1.71191
0.068,4406.51,-3098.09,8158.87,0.0387494,1.45961,-0.178278,4308.23,3095.11,8054.55,-1.05251,-0.368917,-0.960189,-411.705,9615.37,-1517.14,-1.40244,-0.775819,-0.762963,327.404,-9862.81,-796.819,-0.888638,0.327824,0.793862,-2051.2,9261.56,-2334.29,-0.16016,0.668135,0.80875,-3461.56,-9227.99,-1422.31,-2.3293,5.33791,0.00674874,8895.69,1167.02,4233.52,-0.848407,-0.053116,1.62929
0.069,4399.46,-3081.14,8159.57,0.0131217,1.40883,-0.219101,4332.82,3071.6,8045.17,-1.05253,-0.409208,-0.894754,-413.819,9586.52,-1523.89,-1.50517,-0.728929,-0.65069,324.91,-9855.91,-792.191,-0.834599,0.359747,0.806035,-2071.36,9262.85,-2343.77,-0.17905,0.729162,0.721872,-3469.27,-9229.01,-1439.88,-2.27242,5.489,0.188183,8917.22,1160.85,4217.21,-0.77184,-0.050416,1.54667
0.07,4392.41,-3064.2,8160.27,-0.012506,1.35806,-0.259923,4357.42,3048.08,8035.78,-1.05256,-0.4495,-0.829319,-415.933,9557.67,-1530.64,-1.60789,-0.682039,-0.538416,322.415,-9849.01,-787.563,-0.78056,0.39167,0.818209,-2091.52,9264.13,-2353.25,-0.19794,0.79019,0.634994,-3476.97,-9230.04,-1457.46,-2.21555,5.64009,0.369618,8938.74,1154.68,4200.9,-0.695274,-0.047716,1.46405
0.071,4385.37,-3047.26,8160.96,-0.0381338,1.30728,-0.300745,4382.02,3024.57,8026.4,-1.05258,-0.489791,-0.763885,-418.047,9528.82,-1537.38,-1.71062,-0.63515,-0.426143,319.921,-9842.12,-782.935,-0.726521,0.423593,0.830383,-2111.68,9265.42,-2362.74,-0.216829,0.851218,0.548117,-3484.67,-9231.06,-1475.03,-2.15867,5.79118,0.551053,8960.27,1148.51,4184.6,-0.618707,-0.0450161,1.38143
0.072,4369.98,-3053.6,8155.84,-0.0485265,1.22751,-0.288309,4374.79,3029.18,8014.6,-0.991031,-0.423425,-0.724813,-389.583,9537.49,-1536.58,-1.6711,-0.542967,-0.464601,329.693,-9835.69,-798.597,-0.719797,0.455096,0.911995,-2110.95,9255.09,-2363.22,-0.201494,0.909258,0.552811,-3519.08,-9214.82,-1461.32,-2.18509,5.90813,0.64586,8928.18,1166.3,4209.61,-0.612453,-0.145609,1.43388
0.073,4353.55,-3062.86,8149.99,-0.0570149,1.14412,-0.269217,4363.58,3037.31,8002.5,-0.921787,-0.343727,-0.689037,-357.297,9550.84,-1534.83,-1.6138,-0.445123,-0.5219,340.998,-9829.32,-816.796,-0.718987,0.486547,1.00229,-2107.6,9243.32,-2362.59,-0.18188,0.966926,0.568951,-3556.82,-9196.43,-1443.7,-2.22192,6.02081,0.729839,8889.39,1187.08,4239.8,-0.614988,-0.259113,1.50321
0.074,4337.12,-3072.12,8144.13,-0.0655033,1.06072,-0.250124,4352.37,3045.44,7990.39,-0.852543,-0.264029,-0.653261,-325.011,9564.21,-1533.09,-1.5565,-0.34728,-0.579199,352.303,-9822.95,-834.995,-0.718178,0.517998,1.09258,-2104.26,9231.54,-2361.95,-0.162266,1.02459,0.585092,-3594.57,-9178.03,-1426.08,-2.25875,6.1335,0.813818,8850.6,1207.87,4269.98,-0.617523,-0.372618,1.57255
0.075,4320.69,-3081.38,8138.28,-0.0739917,0.977328,-0.231031,4341.16,3053.57,7978.29,-0.7833,-0.18433,-0.617485,-292.725,9577.57,-1531.34,-1.4992,-0.249436,-0.636499,363.608,-9816.58,-853.194,-0.717368,0.549449,1.18287,-2100.92,9219.76,-2361.31,-0.142652,1.08226,0.601233,-3632.31,-9159.64,-1408.46,-2.29558,6.24618,0.897797,8811.81,1228.65,4300.16,-0.620057,-0.486122,1.64188
0.076,4307.68,-3095.02,8132.65,-0.0414534,0.950805,-0.197993,4330.38,3065.09,7977.24,-0.765992,-0.135441,-0.604148,-274.688,9585.33,-1528.01,-1.50308,-0.161459,-0.716827,372.957,-9818.75,-860.483,-0.745504,0.603866,1.27368,-2097.18,9210.73,-2357.58,-0.103759,1.15368,0.581432,-3635.45,-9149.54,-1385.81,-2.37738,6.26059,0.878934,8794.13,1239.26,4314.31,-0.632543,-0.556107,1.64578
0.077,4298.95,-3114.13,8127.3,0.0423682,0.995371,-0.147523,4320.12,3080.85,7990.01,-0.813604,-0.125064,-0.618859,-274.46,9586.08,-1522.72,-1.58344,-0.0858164,-0.825941,379.861,-9831.58,-854.134,-0.809824,0.686992,1.36512,-2092.94,9205.11,-2349.97,-0.0407686,1.24228,0.516703,-3595.33,-9149.82,-1356.87,-2.51539,6.15216,0.731519,8802.84,1237.15,4308.42,-0.657467,-0.571692,1.56788
0.078,4290.21,-3133.23,8121.95,0.12619,1.03994,-0.0970523,4309.87,3096.6,8002.78,-0.861215,-0.114686,-0.63357,-274.232,9586.84,-1517.43,-1.66379,-0.0101737,-0.935055,386.765,-9844.42,-847.785,-0.874144,0.770118,1.45656,-2088.7,9199.5,-2342.37,0.0222222,1.33088,0.451974,-3555.22,-9150.1,-1327.93,-2.6534,6.04373,0.584105,8811.55,1235.03,4302.53,-0.682392,-0.587278,1.48998
0.079,4281.48,-3152.34,8116.6,0.210011,1.0845,-0.0465819,4299.61,3112.36,8015.55,-0.908827,-0.104309,-0.648281,-274.005,9587.6,-1512.14,-1.74415,0.065469,-1.04417,393.669,-9857.25,-841.436,-0.938464,0.853244,1.54801,-2084.46,9193.88,-2334.77,0.0852131,1.41948,0.387246,-3515.1,-9150.38,-1298.99,-2.79141,5.93531,0.43669,8820.27,1232.92,4296.64,-0.707316,-0.602863,1.41209
0.08,4272.75,-3171.45,8111.25,0.293833,1.12907,0.00388844,4289.36,3128.12,8028.32,-0.956439,-0.0939314,-0.662992,-273.777,9588.36,-1506.85,-1.8245,0.141112,-1.15328,400.572,-9870.09,-835.087,-1.00278,0.93637,1.63945,-2080.22,9188.26,-2327.16,0.148204,1.50808,0.322517,-3474.98,-9150.66,-1270.05,-2.92942,5.82688,0.289275,8828.98,1230.81,4290.75,-0.73224,-0.618449,1.33419
0.081,4293.48,-3180.25,8118.52,0.343001,1.08665,0.0934395,4310.63,3133.71,8033.3,-1.00792,-0.165173,-0.73812,-303.878,9587.91,-1534.38,-1.70751,0.126533,-0.952234,391.273,-9887.61,-831.396,-1.02429,1.04121,1.63463,-2072.61,9191.13,-2317.68,0.174982,1.50442,0.266207,-3475.05,-9174.17,-1247.73,-3.02284,5.69521,0.342588,8838.68,1214.29,4283.04,-0.762,-0.758587,1.18779
0.082,4314.21,-3189.06,8125.78,0.392169,1.04423,0.182991,4331.9,3139.3,8038.28,-1.0594,-0.236415,-0.813248,-333.979,9587.47,-1561.91,-1.59052,0.111955,-0.751185,381.974,-9905.12,-827.705,-1.04579,1.14604,1.62981,-2065.0,9193.99,-2308.19,0.20176,1.50076,0.209896,-3475.12,-9197.67,-1225.4,-3.11626,5.56354,0.3959,8848.37,1197.78,4275.33,-0.791761,-0.898725,1.04138
0.083,4334.94,-3197.86,8133.05,0.441338,1.00182,0.272542,4353.17,3144.88,8043.26,-1.11088,-0.307657,-0.888376,-364.08,9587.03,-1589.44,-1.47353,0.0973767,-0.550137,372.675,-9922.64,-824.014,-1.0673,1.25088,1.62499,-2057.4,9196.86,-2298.71,0.228539,1.4971,0.153586,-3475.19,-9221.18,-1203.08,-3.20968,5.43187,0.449213,8858.07,1181.27,4267.61,-0.821521,-1.03886,0.894981
0.084,4355.67,-3206.67,8140.32,0.490506,0.959399,0.362093,4374.44,3150.47,8048.24,-1.16237,-0.378899,-0.963504,-394.181,9586.58,-1616.97,-1.35654,0.0827985,-0.349088,363.376,-9940.16,-820.322,-1.0888,1.35572,1.62018,-2049.79,9199.72,-2289.22,0.255317,1.49344,0.097275,-3475.26,-9244.68,-1180.76,-3.3031,5.3002,0.502526,8867.77,1164.75,4259.9,-0.851282,-1.179,0.748578
0.085,4367.39,-3198.34,8136.63,0.538582,0.976189,0.328415,4383.71,3149.58,8054.56,-1.19985,-0.40688,-0.978934,-404.047,9591.69,-1625.61,-1.36167,0.108226,-0.303396,362.739,-9951.68,-825.387,-1.07073,1.44086,1.59516,-2052.44,9196.37,-2287.15,0.244838,1.42059,0.0733614,-3481.2,-9248.63,-1171.38,-3.3773,5.10909,0.47349,8879.66,1164.92,4258.55,-0.981459,-1.26251,0.634302
0.086,4371.91,-3176.29,8124.17,0.585785,1.04034,0.196153,4383.4,3143.5,8061.97,-1.22615,-0.400253,-0.946605,-397.724,9601.25,-1619.16,-1.46448,0.165658,-0.381988,369.033,-9958.42,-837.456,-1.02101,1.51024,1.55398,-2063.31,9188.04,-2291.03,0.204553,1.29238,0.0753653,-3491.84,-9236.94,-1172.35,-3.43613,4.87042,0.378575,8893.32,1178.43,4262.28,-1.19197,-1.30071,0.545728
0.087,4376.43,-3154.25,8111.71,0.632988,1.1045,0.063891,4383.08,3137.42,8069.37,-1.25245,-0.393626,-0.914277,-391.402,9610.8,-1612.7,-1.5673,0.22309,-0.460581,375.327,-9965.16,-849.525,-0.971284,1.57963,1.51281,-2074.17,9179.71,-2294.9,0.164268,1.16418,0.0773693,-3502.47,-9225.25,-1173.32,-3.49495,4.63175,0.283659,8906.97,1191.93,4266.01,-1.40248,-1.33892,0.457154
0.088,4380.95,-3132.21,8099.25,0.680191,1.16865,-0.0683708,4382.76,3131.34,8076.78,-1.27874,-0.386999,-0.881948,-385.08,9620.35,-1606.24,-1.67011,0.280522,-0.539174,381.621,-9971.9,-861.594,-0.921558,1.64901,1.47163,-2085.03,9171.38,-2298.77,0.123983,1.03597,0.0793732,-3513.11,-9213.56,-1174.3,-3.55378,4.39309,0.188744,8920.63,1205.44,4269.74,-1.61299,-1.37713,0.368581
0.089,4383.82,-3111.53,8087.1,0.719539,1.22793,-0.185814,4382.52,3125.59,8083.31,-1.30556,-0.381924,-0.849232,-380.71,9627.04,-1600.89,-1.76872,0.333807,-0.61196,386.886,-9976.7,-871.164,-0.872204,1.71216,1.43659,-2092.04,9164.19,-2302.76,0.0890209,0.920318,0.076766,-3522.63,-9202.38,-1173.0,-3.60385,4.14647,0.114627,8931.35,1216.35,4270.42,-1.78285,-1.41159,0.285728
0.09,4373.41,-3101.8,8077.41,0.696051,1.24819,-0.184711,4382.84,3122.53,8082.85,-1.33651,-0.389266,-0.813418,-391.958,9610.83,-1604.39,-1.83363,0.353922,-0.638293,383.916,-9965.98,-860.738,-0.825823,1.72541,1.45059,-2068.24,9166.1,-2307.61,0.0966407,0.905079,0.0372696,-3523.25,-9195.33,-1153.54,-3.58389,3.83629,0.206889,8918.57,1206.45,4246.74,-1.62749,-1.41614,0.248643
0.091,4363.01,-3092.07,8067.72,0.672564,1.26845,-0.183608,4383.16,3119.46,8082.4,-1.36746,-0.396609,-0.777603,-403.206,9594.62,-1607.89,-1.89854,0.374036,-0.664626,380.945,-9955.26,-850.312,-0.779442,1.73866,1.46459,-2044.43,9168.02,-2312.46,0.10426,0.889839,-0.00222681,-3523.86,-9188.29,-1134.07,-3.56392,3.5261,0.299151,8905.79,1196.55,4223.06,-1.47214,-1.4207,0.211559
0.092,4352.6,-3082.34,8058.03,0.649076,1.2887,-0.182505,4383.49,3116.39,8081.95,-1.39841,-0.403952,-0.741789,-414.454,9578.41,-1611.39,-1.96345,0.394151,-0.69096,377.975,-9944.54,-839.886,-0.733061,1.75191,1.47859,-2020.62,9169.93,-2317.32,0.11188,0.8746,-0.0417232,-3524.47,-9181.24,-1114.61,-3.54396,3.21592,0.391413,8893.02,1186.65,4199.38,-1.31678,-1.42525,0.174475
0.093,4342.2,-3072.61,8048.34,0.625589,1.30896,-0.181402,4383.81,3113.33,8081.5,-1.42936,-0.411295,-0.705975,-425.702,9562.2,-1614.89,-2.02836,0.414266,-0.717293,375.005,-9933.82,-829.46,-0.68668,1.76516,1.49259,-1996.82,9171.84,-2322.17,0.1195,0.85936,-0.0812197,-3525.09,-9174.19,-1095.15,-3.52399,2.90573,0.483675,8880.24,1176.75,4175.7,-1.16142,-1.4298,0.13739
0.094,4333.36,-3076.7,8053.73,0.607472,1.29721,-0.176384,4387.56,3102.95,8069.91,-1.41584,-0.424905,-0.719943,-421.888,9565.95,-1598.1,-2.02869,0.405219,-0.651949,368.036,-9924.81,-820.609,-0.681415,1.739,1.53208,-1979.51,9177.38,-2325.07,0.100923,0.837387,-0.0555938,-3512.53,-9162.37,-1111.17,-3.53336,2.69155,0.428438,8869.99,1158.82,4182.06,-1.06218,-1.38759,0.0844373
0.095,4325.32,-3087.7,8066.67,0.592042,1.26947,-0.16941,4393.03,3088.92,8052.74,-1.38008,-0.441649,-0.758803,-410.545,9579.7,-1571.16,-1.99672,0.381591,-0.540766,359.068,-9916.65,-812.545,-0.696707,1.69312,1.58431,-1965.45,9184.73,-2326.98,0.0692484,0.812047,0.00259332,-3493.4,-9148.16,-1144.93,-3.55739,2.52538,0.299451,8860.99,1136.88,4203.44,-0.990997,-1.322,0.0235504
0.096,4317.27,-3098.71,8079.6,0.576612,1.24173,-0.162435,4398.5,3074.89,8035.58,-1.34433,-0.458393,-0.797664,-399.201,9593.44,-1544.22,-1.96475,0.357964,-0.429583,350.1,-9908.49,-804.481,-0.711999,1.64724,1.63654,-1951.38,9192.07,-2328.9,0.0375735,0.786707,0.0607804,-3474.26,-9133.95,-1178.69,-3.58143,2.3592,0.170464,8852.0,1114.94,4224.82,-0.919812,-1.25641,-0.0373365
0.097,4309.23,-3109.71,8092.54,0.561181,1.21398,-0.155461,4403.96,3060.87,8018.42,-1.30857,-0.475137,-0.836524,-387.857,9607.18,-1517.29,-1.93277,0.334336,-0.3184,341.132,-9900.33,-796.417,-0.72729,1.60137,1.68877,-1937.32,9199.42,-2330.82,0.00589853,0.761367,0.118967,-3455.12,-9119.74,-1212.46,-3.60546,2.19303,0.0414765,8843.0,1093.0,4246.2,-0.848626,-1.19082,-0.0982235
0.098,4300.99,-3116.16,8105.36,0.515324,1.19527,-0.140402,4404.07,3050.21,8006.09,-1.27096,-0.484433,-0.867312,-380.746,9614.9,-1497.95,-1.90991,0.340765,-0.237931,331.235,-9894.13,-790.685,-0.733091,1.58221,1.73574,-1931.27,9207.53,-2336.19,-0.0283865,0.762308,0.174504,-3445.37,-9110.43,-1241.33,-3.62107,2.05822,-0.0779861,8836.57,1082.85,4260.9,-0.794703,-1.11878,-0.122234
0.099,4292.07,-3106.69,8117.78,0.362973,1.20815,-0.0970487,4385.41,3051.34,8010.65,-1.22688,-0.467659,-0.86985,-388.452,9601.51,-1505.21,-1.91892,0.452391,-0.26496,318.09,-9894.74,-793.118,-0.705673,1.65655,1.76433,-1953.26,9218.28,-2353.66,-0.0718067,0.855235,0.220765,-3468.48,-9118.27,-1253.11,-3.60718,2.03322,-0.164113,8839.09,1113.96,4252.25,-0.801196,-1.02417,-0.0171791
0.1,4283.14,-3097.22,8130.2,0.210621,1.22103,-0.0536952,4366.75,3052.47,8015.21,-1.1828,-0.450886,-0.872387,-396.157,9588.13,-1512.47,-1.92793,0.564017,-0.291988,304.945,-9895.36,-795.55,-0.678254,1.73088,1.79291,-1975.25,9229.04,-2371.12,-0.115227,0.948162,0.267026,-3491.59,-9126.12,-1264.88,-3.59329,2.00821,-0.25024,8841.61,1145.08,4243.59,-0.807688,-0.929562,0.0878761
0.101,4274.22,-3087.76,8142.62,0.0582695,1.23392,-0.0103417,4348.1,3053.6,8019.77,-1.13871,-0.434112,-0.874925,-403.862,9574.74,-1519.73,-1.93694,0.675644,-0.319017,291.8,-9895.97,-797.983,-0.650836,1.80522,1.8215,-1997.24,9239.79,-2388.59,-0.158647,1.04109,0.313287,-3514.7,-9133.97,-1276.65,-3.5794,1.9832,-0.336367,8844.12,1176.2,4234.94,-0.814181,-0.834951,0.192931
0.102,4265.3,-3078.29,8155.04,-0.094082,1.2468,0.0330118,4329.44,3054.73,8024.33,-1.09463,-0.417339,-0.877462,-411.567,9561.36,-1527.0,-1.94595,0.78727,-0.346046,278.655,-9896.58,-800.416,-0.623417,1.87956,1.85008,-2019.23,9250.55,-2406.06,-0.202067,1.13402,0.359548,-3537.8,-9141.82,-1288.43,-3.56551,1.9582,-0.422493,8846.64,1207.31,4226.29,-0.820674,-0.740339,0.297987
0.103,4289.01,-3085.05,8149.71,-0.0654835,1.24721,0.0565399,4325.7,3072.27,8028.62,-1.12945,-0.405301,-0.854023,-390.347,9548.8,-1556.68,-1.95876,0.799487,-0.414438,267.365,-9887.53,-795.894,-0.613826,1.90205,1.82644,-2020.21,9251.61,-2419.06,-0.202073,1.26228,0.343193,-3547.36,-9140.82,-1296.87,-3.61973,1.97895,-0.441007,8850.02,1224.11,4233.12,-0.850902,-0.715702,0.24398
0.104,4322.05,-3096.45,8139.3,0.0148151,1.24406,0.0744036,4326.23,3094.5,8032.82,-1.18681,-0.394615,-0.823162,-360.862,9536.47,-1592.78,-1.97265,0.783301,-0.494649,256.605,-9875.71,-789.385,-0.609329,1.90973,1.78787,-2015.18,9249.9,-2430.78,-0.189674,1.40063,0.308949,-3553.05,-9137.3,-1304.36,-3.69341,2.01277,-0.440202,8853.65,1236.82,4244.37,-0.887911,-0.711058,0.144527
0.105,4355.09,-3107.85,8128.89,0.0951137,1.2409,0.0922672,4326.75,3116.73,8037.03,-1.24417,-0.383929,-0.792302,-331.377,9524.15,-1628.88,-1.98655,0.767115,-0.57486,245.845,-9863.9,-782.876,-0.604832,1.91741,1.74931,-2010.15,9248.19,-2442.5,-0.177275,1.53899,0.274704,-3558.74,-9133.77,-1311.84,-3.76709,2.04659,-0.439397,8857.28,1249.52,4255.62,-0.924921,-0.706413,0.0450739
0.106,4388.13,-3119.24,8118.48,0.175412,1.23775,0.110131,4327.27,3138.96,8041.24,-1.30153,-0.373244,-0.761441,-301.893,9511.82,-1664.97,-2.00045,0.750929,-0.655071,235.084,-9852.08,-776.368,-0.600335,1.92509,1.71074,-2005.12,9246.48,-2454.23,-0.164876,1.67734,0.240459,-3564.43,-9130.25,-1319.33,-3.84078,2.08041,-0.438592,8860.91,1262.23,4266.88,-0.96193,-0.701769,-0.0543791
0.107,4413.83,-3128.09,8108.2,0.236848,1.21362,0.076793,4334.5,3146.64,8043.82,-1.32783,-0.386246,-0.738519,-285.282,9515.93,-1676.58,-2.01001,0.700524,-0.671299,231.154,-9842.02,-771.533,-0.594419,1.90231,1.67764,-2002.09,9247.05,-2459.79,-0.176132,1.7896,0.21046,-3572.34,-9126.86,-1318.86,-3.90325,2.09398,-0.437236,8861.34,1275.77,4271.99,-0.989587,-0.596752,-0.0725547
0.108,4424.85,-3131.83,8098.15,0.260559,1.14754,-0.0589481,4355.15,3125.2,8043.12,-1.29199,-0.446622,-0.731473,-294.418,9552.94,-1639.21,-2.0109,0.58168,-0.559564,240.882,-9835.48,-770.046,-0.585664,1.8186,1.65548,-2003.06,9252.15,-2453.04,-0.234699,1.84966,0.188953,-3584.71,-9123.71,-1302.45,-3.94331,2.06704,-0.43478,8855.34,1290.98,4264.82,-0.99854,-0.290989,0.0718241
0.109,4435.88,-3135.58,8088.11,0.28427,1.08146,-0.194689,4375.8,3103.76,8042.43,-1.25615,-0.506999,-0.724428,-303.554,9589.94,-1601.84,-2.01178,0.462836,-0.447829,250.611,-9828.93,-768.558,-0.57691,1.73489,1.63331,-2004.03,9257.25,-2446.3,-0.293267,1.90971,0.167445,-3597.08,-9120.57,-1286.05,-3.98337,2.0401,-0.432325,8849.35,1306.19,4257.66,-1.00749,0.0147737,0.216203
0.11,4446.9,-3139.32,8078.07,0.30798,1.01538,-0.33043,4396.45,3082.32,8041.73,-1.22031,-0.567375,-0.717383,-312.69,9626.93,-1564.48,-2.01267,0.343992,-0.336093,260.339,-9822.39,-767.071,-0.568155,1.65118,1.61115,-2005.0,9262.35,-2439.55,-0.351834,1.96977,0.145937,-3609.45,-9117.42,-1269.64,-4.02343,2.01316,-0.429869,8843.36,1321.4,4250.49,-1.01645,0.320536,0.360582
0.111,4457.93,-3143.07,8068.03,0.331691,0.949299,-0.466171,4417.1,3060.88,8041.03,-1.18447,-0.627752,-0.710337,-321.826,9663.93,-1527.11,-2.01356,0.225148,-0.224358,270.068,-9815.84,-765.584,-0.5594,1.56747,1.58898,-2005.97,9267.46,-2432.8,-0.410401,2.02982,0.12443,-3621.82,-9114.28,-1253.24,-4.06349,1.98623,-0.427413,8837.37,1336.61,4243.32,-1.0254,0.626299,0.504961
0.112,4453.01,-3149.67,8071.95,0.272032,0.990278,-0.519247,4423.72,3055.28,8045.94,-1.18629,-0.604037,-0.675227,-344.531,9637.75,-1536.61,-1.93169,0.159325,-0.171036,261.07,-9815.6,-770.176,-0.62974,1.53167,1.61756,-2022.72,9252.86,-2423.93,-0.462021,2.13517,0.15823,-3626.24,-9116.85,-1264.39,-4.07202,1.91527,-0.468371,8813.25,1327.12,4239.25,-1.02335,0.624712,0.57427
0.113,4446.11,-3156.63,8077.62,0.201952,1.04464,-0.561989,4428.58,3051.67,8051.54,-1.19282,-0.569811,-0.636609,-368.931,9603.66,-1551.98,-1.83947,0.100131,-0.125015,249.732,-9816.14,-775.527,-0.709966,1.50186,1.65248,-2041.44,9235.8,-2414.8,-0.512772,2.24618,0.198943,-3629.68,-9120.13,-1278.99,-4.07661,1.83881,-0.514757,8786.87,1314.54,4235.55,-1.01992,0.584706,0.634196
0.114,4439.21,-3163.59,8083.29,0.131872,1.099,-0.604732,4433.45,3048.05,8057.15,-1.19935,-0.535585,-0.597991,-393.332,9569.57,-1567.34,-1.74725,0.0409366,-0.0789947,238.394,-9816.68,-780.878,-0.790193,1.47205,1.68741,-2060.16,9218.73,-2405.66,-0.563524,2.35719,0.239656,-3633.11,-9123.41,-1293.59,-4.0812,1.76234,-0.561142,8760.49,1301.95,4231.86,-1.01649,0.5447,0.694122
0.115,4432.31,-3170.55,8088.96,0.061792,1.15336,-0.647474,4438.31,3044.44,8062.75,-1.20588,-0.501359,-0.559373,-417.732,9535.49,-1582.71,-1.65504,-0.0182578,-0.0329742,227.056,-9817.23,-786.23,-0.870419,1.44224,1.72233,-2078.88,9201.67,-2396.52,-0.614275,2.46819,0.28037,-3636.54,-9126.69,-1308.19,-4.08579,1.68588,-0.607527,8734.11,1289.37,4228.17,-1.01306,0.504694,0.754047
0.116,4433.21,-3179.14,8091.97,0.0240055,1.17905,-0.67122,4443.1,3039.28,8065.85,-1.17947,-0.46462,-0.562295,-441.97,9525.18,-1595.3,-1.64951,-0.111422,-0.0125957,225.189,-9820.39,-791.505,-0.903421,1.39545,1.75862,-2087.41,9193.11,-2389.06,-0.608644,2.56986,0.330703,-3629.09,-9125.53,-1316.55,-4.07789,1.6743,-0.610961,8721.29,1281.61,4220.49,-1.00756,0.436713,0.841658
0.117,4443.86,-3189.78,8091.67,0.0265857,1.16888,-0.67122,4447.8,3032.2,8065.8,-1.11187,-0.42474,-0.617144,-466.004,9544.59,-1604.41,-1.75234,-0.247049,-0.0242695,235.161,-9826.82,-796.684,-0.877393,1.32744,1.79662,-2083.19,9195.16,-2383.7,-0.532535,2.65986,0.393061,-3608.03,-9118.81,-1317.13,-4.05437,1.7438,-0.560706,8725.44,1279.87,4207.83,-0.999482,0.333763,0.963875
0.118,4454.51,-3200.42,8091.36,0.029166,1.15872,-0.67122,4452.49,3025.11,8065.76,-1.04428,-0.38486,-0.671993,-490.037,9564.0,-1613.53,-1.85518,-0.382676,-0.0359433,245.133,-9833.26,-801.863,-0.851366,1.25943,1.83462,-2078.97,9197.22,-2378.33,-0.456426,2.74986,0.45542,-3586.98,-9112.1,-1317.71,-4.03086,1.8133,-0.51045,8729.58,1278.13,4195.16,-0.9914,0.230814,1.08609
0.119,4465.16,-3211.06,8091.06,0.0317462,1.14856,-0.67122,4457.19,3018.02,8065.71,-0.976692,-0.34498,-0.726841,-514.071,9583.41,-1622.64,-1.95801,-0.518303,-0.0476171,255.105,-9839.7,-807.042,-0.825337,1.19142,1.87262,-2074.75,9199.27,-2372.96,-0.380317,2.83986,0.517778,-3565.92,-9105.39,-1318.29,-4.00734,1.88281,-0.460194,8733.73,1276.39,4182.49,-0.983318,0.127864,1.20831
0.12,4475.81,-3221.7,8090.76,0.0343265,1.1384,-0.67122,4461.88,3010.93,8065.67,-0.909101,-0.3051,-0.78169,-538.105,9602.82,-1631.76,-2.06085,-0.65393,-0.059291,265.078,-9846.13,-812.221,-0.799309,1.12341,1.91062,-2070.53,9201.33,-2367.6,-0.304208,2.92985,0.580136,-3544.87,-9098.68,-1318.87,-3.98383,1.95231,-0.409939,8737.87,1274.65,4169.82,-0.975236,0.0249141,1.33053
0.121,4466.55,-3207.0,8096.87,0.0077258,1.12939,-0.551662,4471.67,3027.21,8054.27,-0.999306,-0.323066,-0.825482,-540.896,9590.72,-1610.81,-2.00993,-0.684834,-0.073187,260.912,-9841.09,-826.076,-0.728941,1.1274,1.87371,-2069.43,9212.94,-2345.36,-0.340343,3.01992,0.663731,-3550.66,-9106.79,-1315.6,-4.06332,1.90652,-0.411999,8736.33,1268.01,4178.9,-0.822372,0.101685,1.37439
0.122,4457.29,-3192.3,8102.99,-0.0188749,1.12038,-0.432104,4481.45,3043.48,8042.88,-1.08951,-0.341032,-0.869274,-543.688,9578.61,-1589.85,-1.95902,-0.715738,-0.087083,256.747,-9836.06,-839.93,-0.658573,1.1314,1.8368,-2068.33,9224.55,-2323.13,-0.376478,3.10998,0.747325,-3556.46,-9114.91,-1312.33,-4.14281,1.86073,-0.414058,8734.78,1261.37,4187.98,-0.669509,0.178457,1.41826
0.123,4448.04,-3177.59,8109.1,-0.0454755,1.11137,-0.312546,4491.23,3059.75,8031.48,-1.17972,-0.358998,-0.913065,-546.479,9566.5,-1568.9,-1.9081,-0.746643,-0.100979,252.581,-9831.02,-853.785,-0.588204,1.1354,1.79989,-2067.23,9236.16,-2300.9,-0.412614,3.20005,0.83092,-3562.25,-9123.03,-1309.06,-4.2223,1.81494,-0.416118,8733.24,1254.73,4197.06,-0.516645,0.255228,1.46213
0.124,4438.78,-3162.89,8115.22,-0.0720762,1.10236,-0.192988,4501.01,3076.02,8020.09,-1.26992,-0.376964,-0.956857,-549.271,9554.39,-1547.94,-1.85719,-0.777547,-0.114875,248.416,-9825.99,-867.639,-0.517836,1.1394,1.76298,-2066.13,9247.76,-2278.67,-0.448749,3.29012,0.914514,-3568.05,-9131.14,-1305.79,-4.30178,1.76915,-0.418178,8731.69,1248.08,4206.14,-0.363782,0.331999,1.506
0.125,4442.87,-3156.26,8113.18,-0.0213749,1.12283,-0.177427,4503.25,3087.32,8005.78,-1.32692,-0.385166,-0.945979,-534.436,9562.01,-1533.67,-1.89483,-0.776337,-0.0679999,246.007,-9817.87,-863.785,-0.548063,1.16698,1.71829,-2073.39,9246.94,-2271.28,-0.482117,3.38398,0.989217,-3578.79,-9123.95,-1306.21,-4.33744,1.71021,-0.379831,8732.79,1241.73,4204.97,-0.324984,0.371222,1.5238
0.126,4457.65,-3156.09,8104.6,0.0911679,1.16688,-0.245062,4499.46,3094.64,7989.13,-1.35735,-0.385557,-0.891365,-505.5,9585.4,-1524.73,-2.00333,-0.749435,0.027492,245.004,-9807.28,-845.764,-0.658766,1.21344,1.66737,-2087.34,9236.18,-2275.76,-0.513272,3.48088,1.05681,-3593.48,-9104.52,-1309.58,-4.33804,1.64075,-0.30916,8736.01,1235.61,4195.62,-0.377439,0.380405,1.52074
0.127,4472.43,-3155.93,8096.03,0.203711,1.21092,-0.312697,4495.67,3101.97,7972.49,-1.38778,-0.385947,-0.836752,-476.564,9608.8,-1515.8,-2.11183,-0.722533,0.122984,244.002,-9796.69,-827.742,-0.76947,1.2599,1.61646,-2101.28,9225.41,-2280.25,-0.544426,3.57778,1.1244,-3608.17,-9085.08,-1312.94,-4.33863,1.5713,-0.238489,8739.23,1229.49,4186.27,-0.429894,0.389589,1.51768
0.128,4487.21,-3155.76,8087.46,0.316254,1.25497,-0.380333,4491.88,3109.29,7955.85,-1.41822,-0.386338,-0.782138,-447.628,9632.19,-1506.87,-2.22033,-0.695631,0.218476,242.999,-9786.1,-809.721,-0.880173,1.30636,1.56554,-2115.23,9214.64,-2284.74,-0.575581,3.67468,1.19199,-3622.86,-9065.65,-1316.31,-4.33922,1.50185,-0.167817,8742.45,1223.38,4176.91,-0.482349,0.398772,1.51462
0.129,4499.19,-3155.53,8079.55,0.424571,1.30152,-0.434496,4488.51,3115.15,7943.06,-1.43757,-0.388221,-0.732557,-422.481,9651.92,-1500.96,-2.3076,-0.680846,0.2988,243.426,-9779.53,-795.188,-0.978078,1.33378,1.52434,-2127.93,9204.04,-2288.78,-0.600478,3.76756,1.24636,-3635.17,-9049.22,-1320.31,-4.3355,1.43377,-0.0957648,8747.48,1220.0,4169.44,-0.528964,0.404783,1.50714
0.13,4488.79,-3154.85,8076.99,0.499086,1.36816,-0.380884,4488.49,3109.35,7961.13,-1.36833,-0.402036,-0.723237,-427.645,9642.27,-1519.31,-2.22512,-0.763001,0.257783,255.297,-9805.07,-808.555,-0.973597,1.20892,1.56086,-2130.65,9194.73,-2289.24,-0.575324,3.82827,1.19507,-3628.36,-9056.91,-1329.45,-4.29725,1.37672,-0.0126649,8767.07,1238.58,4177.07,-0.528863,0.385419,1.46437
0.131,4478.39,-3154.16,8074.43,0.573601,1.4348,-0.327271,4488.48,3103.55,7979.2,-1.29909,-0.415852,-0.713917,-432.809,9632.62,-1537.65,-2.14264,-0.845155,0.216765,267.167,-9830.62,-821.922,-0.969116,1.08407,1.59738,-2133.37,9185.42,-2289.7,-0.55017,3.88898,1.14377,-3621.56,-9064.59,-1338.58,-4.259,1.31967,0.0704351,8786.66,1257.16,4184.69,-0.528762,0.366054,1.42159
0.132,4467.99,-3153.48,8071.87,0.648116,1.50145,-0.273658,4488.47,3097.75,7997.27,-1.22984,-0.429668,-0.704596,-437.973,9622.96,-1555.99,-2.06016,-0.92731,0.175748,279.037,-9856.16,-835.289,-0.964635,0.95921,1.6339,-2136.09,9176.11,-2290.17,-0.525015,3.94969,1.09247,-3614.75,-9072.28,-1347.72,-4.22075,1.26262,0.153535,8806.25,1275.74,4192.31,-0.528661,0.34669,1.37882
0.133,4457.59,-3152.79,8069.31,0.722631,1.56809,-0.220045,4488.45,3091.95,8015.34,-1.1606,-0.443484,-0.695276,-443.138,9613.31,-1574.33,-1.97768,-1.00946,0.13473,290.907,-9881.7,-848.656,-0.960154,0.834353,1.67042,-2138.81,9166.81,-2290.63,-0.499861,4.0104,1.04117,-3607.95,-9079.96,-1356.85,-4.18249,1.20557,0.236635,8825.83,1294.32,4199.94,-0.52856,0.327325,1.33604
0.134,4453.01,-3147.57,8087.37,0.671499,1.48593,-0.1525,4489.63,3088.59,8019.86,-1.15363,-0.441645,-0.74177,-436.396,9605.63,-1585.47,-1.90756,-1.02722,0.104377,284.657,-9888.82,-853.127,-0.936279,0.756201,1.66202,-2151.05,9162.61,-2277.16,-0.539338,4.02949,0.979652,-3606.89,-9096.93,-1359.33,-4.22416,1.24816,0.311502,8836.36,1291.24,4207.56,-0.485281,0.224349,1.2651
0.135,4451.35,-3140.07,8115.74,0.557544,1.32936,-0.077989,4491.4,3086.44,8017.61,-1.17779,-0.43198,-0.816172,-423.702,9598.94,-1593.02,-1.84362,-1.01277,0.0793548,269.347,-9886.73,-853.151,-0.902707,0.701401,1.63116,-2168.06,9160.98,-2256.72,-0.61113,4.02777,0.913016,-3608.71,-9118.55,-1358.47,-4.30578,1.34058,0.382253,8842.36,1277.32,4215.19,-0.420413,0.0795675,1.18007
0.136,4449.69,-3132.58,8144.1,0.443589,1.1728,-0.00347787,4493.17,3084.29,8015.36,-1.20195,-0.422314,-0.890573,-411.008,9592.24,-1600.57,-1.77968,-0.998315,0.0543331,254.037,-9884.64,-853.175,-0.869135,0.646602,1.6003,-2185.06,9159.35,-2236.28,-0.682923,4.02605,0.84638,-3610.53,-9140.16,-1357.62,-4.38741,1.43299,0.453005,8848.35,1263.4,4222.81,-0.355545,-0.0652143,1.09504
0.137,4448.02,-3125.08,8172.47,0.329634,1.01623,0.0710333,4494.94,3082.14,8013.1,-1.22612,-0.412648,-0.964975,-398.314,9585.55,-1608.11,-1.71574,-0.983865,0.0293113,238.727,-9882.55,-853.199,-0.835563,0.591802,1.56944,-2202.07,9157.71,-2215.85,-0.754715,4.02433,0.779745,-3612.35,-9161.78,-1356.77,-4.46903,1.5254,0.523756,8854.35,1249.48,4230.43,-0.290677,-0.209996,1.01002
0.138,4445.22,-3121.11,8191.7,0.240138,0.888892,0.103729,4495.32,3083.86,8011.71,-1.2624,-0.390567,-1.02126,-389.91,9577.46,-1614.52,-1.70947,-0.963362,0.0331741,228.003,-9882.37,-849.565,-0.787927,0.537672,1.53909,-2217.43,9156.85,-2201.43,-0.81194,4.01519,0.713471,-3612.11,-9177.16,-1356.27,-4.51814,1.57493,0.583118,8864.01,1232.63,4236.53,-0.270996,-0.311153,0.954589
0.139,4438.42,-3129.45,8178.96,0.236249,0.863831,-0.00992919,4490.87,3099.11,8013.33,-1.34111,-0.325029,-1.01414,-396.522,9564.5,-1616.92,-1.90505,-0.921674,0.138133,233.334,-9888.89,-833.13,-0.691066,0.485884,1.51052,-2227.02,9158.68,-2208.06,-0.818181,3.98004,0.648463,-3604.63,-9170.71,-1357.03,-4.45345,1.47436,0.602617,8886.51,1205.52,4237.27,-0.409467,-0.259625,1.00277
0.14,4431.62,-3137.8,8166.22,0.232359,0.83877,-0.123587,4486.41,3114.35,8014.96,-1.41981,-0.259491,-1.00702,-403.135,9551.54,-1619.32,-2.10063,-0.879986,0.243091,238.665,-9895.41,-816.695,-0.594205,0.434096,1.48194,-2236.62,9160.51,-2214.7,-0.824421,3.94489,0.583455,-3597.16,-9164.26,-1357.78,-4.38877,1.37379,0.622116,8909.0,1178.4,4238.01,-0.547938,-0.208096,1.05095
0.141,4424.82,-3146.14,8153.48,0.22847,0.813709,-0.237246,4481.96,3129.6,8016.58,-1.49851,-0.193953,-0.999902,-409.747,9538.59,-1621.72,-2.2962,-0.838298,0.34805,243.995,-9901.93,-800.26,-0.497343,0.382308,1.45337,-2246.21,9162.35,-2221.33,-0.830661,3.90974,0.518447,-3589.69,-9157.81,-1358.53,-4.32408,1.27322,0.641616,8931.5,1151.29,4238.74,-0.68641,-0.156568,1.09912
0.142,4418.02,-3154.49,8140.74,0.224581,0.788647,-0.350904,4477.5,3144.84,8018.2,-1.57722,-0.128416,-0.992783,-416.359,9525.63,-1624.12,-2.49178,-0.79661,0.453008,249.326,-9908.45,-783.825,-0.400482,0.33052,1.4248,-2255.81,9164.18,-2227.97,-0.836901,3.87459,0.453439,-3582.22,-9151.36,-1359.29,-4.25939,1.17266,0.661115,8954.0,1124.17,4239.48,-0.824881,-0.105039,1.1473
0.143,4411.15,-3159.3,8127.2,0.19125,0.775853,-0.458813,4465.01,3134.99,8010.32,-1.60718,-0.12373,-0.970468,-424.13,9539.88,-1607.04,-2.39057,-0.759193,0.419076,241.92,-9927.05,-789.205,-0.413221,0.3555,1.34142,-2260.64,9177.23,-2226.05,-0.797264,3.72839,0.499184,-3590.65,-9145.38,-1354.94,-4.22919,1.19976,0.607911,8953.37,1127.21,4227.97,-0.915907,-0.132744,1.10345
0.144,4404.26,-3163.09,8113.43,0.149508,0.766562,-0.56508,4450.22,3117.97,7999.72,-1.62322,-0.136431,-0.943811,-432.231,9561.91,-1584.39,-2.20457,-0.722995,0.345461,230.876,-9949.1,-800.819,-0.457275,0.402412,1.24239,-2264.1,9193.5,-2221.69,-0.744518,3.55046,0.576573,-3603.61,-9139.55,-1349.13,-4.20886,1.26335,0.533935,8946.15,1138.86,4212.96,-0.993377,-0.183086,1.03329
0.145,4397.37,-3166.89,8099.66,0.107765,0.757272,-0.671347,4435.43,3100.95,7989.13,-1.63926,-0.149131,-0.917154,-440.332,9583.94,-1561.74,-2.01857,-0.686797,0.271846,219.832,-9971.16,-812.432,-0.501329,0.449325,1.14336,-2267.57,9209.76,-2217.33,-0.691772,3.37253,0.653962,-3616.58,-9133.71,-1343.33,-4.18852,1.32694,0.459959,8938.92,1150.52,4197.95,-1.07085,-0.233429,0.963141
0.146,4390.48,-3170.68,8085.88,0.0660231,0.747982,-0.777614,4420.64,3083.94,7978.53,-1.65529,-0.161832,-0.890497,-448.434,9605.96,-1539.09,-1.83256,-0.6506,0.198231,208.788,-9993.21,-824.046,-0.545382,0.496238,1.04433,-2271.03,9226.02,-2212.97,-0.639026,3.1946,0.731351,-3629.55,-9127.87,-1337.52,-4.16818,1.39052,0.385983,8931.69,1162.17,4182.94,-1.14832,-0.283771,0.892989
0.147,4384.01,-3170.87,8084.67,0.0236068,0.772335,-0.7675,4416.3,3073.43,7977.26,-1.66783,-0.185531,-0.868109,-452.484,9614.51,-1525.97,-1.70934,-0.65219,0.190038,204.527,-10000.6,-823.921,-0.592886,0.515548,0.976275,-2276.76,9237.5,-2208.18,-0.586943,3.02267,0.777297,-3642.6,-9122.16,-1334.46,-4.13313,1.3762,0.334299,8924.88,1176.47,4173.5,-1.23226,-0.31234,0.826983
0.148,4378.4,-3163.85,8108.57,-0.0201575,0.863974,-0.524623,4432.83,3075.94,7994.67,-1.67338,-0.231228,-0.85426,-448.434,9596.11,-1531.9,-1.71167,-0.729353,0.31269,213.833,-9978.56,-800.317,-0.647292,0.479653,0.970168,-2287.02,9239.43,-2202.51,-0.536184,2.86271,0.760359,-3655.83,-9116.73,-1336.88,-4.06864,1.20605,0.327196,8918.89,1196.06,4175.21,-1.32916,-0.297363,0.769271
0.149,4372.79,-3156.83,8132.48,-0.0639217,0.955614,-0.281746,4449.37,3078.46,8012.08,-1.67893,-0.276924,-0.840411,-444.383,9577.71,-1537.83,-1.714,-0.806516,0.435342,223.139,-9956.54,-776.714,-0.701697,0.443758,0.964061,-2297.28,9241.36,-2196.84,-0.485425,2.70276,0.74342,-3669.05,-9111.3,-1339.31,-4.00415,1.0359,0.320094,8912.91,1215.65,4176.92,-1.42605,-0.282386,0.711558
0.15,4367.18,-3149.8,8156.38,-0.107686,1.04725,-0.0388688,4465.9,3080.98,8029.48,-1.68448,-0.322621,-0.826563,-440.332,9559.31,-1543.77,-1.71633,-0.88368,0.557994,232.444,-9934.52,-753.111,-0.756102,0.407863,0.957954,-2307.54,9243.29,-2191.17,-0.434666,2.54281,0.726482,-3682.27,-9105.87,-1341.73,-3.93966,0.865753,0.312992,8906.93,1235.24,4178.63,-1.52295,-0.267408,0.653846
0.151,4361.57,-3142.78,8180.29,-0.15145,1.13889,0.204008,4482.43,3083.49,8046.89,-1.69003,-0.368317,-0.812714,-436.282,9540.9,-1549.7,-1.71866,-0.960843,0.680646,241.75,-9912.5,-729.508,-0.810507,0.371969,0.951846,-2317.8,9245.22,-2185.49,-0.383907,2.38286,0.709544,-3695.49,-9100.43,-1344.15,-3.87518,0.695605,0.305889,8900.95,1254.83,4180.33,-1.61985,-0.252431,0.596133
0.152,4371.01,-3144.19,8168.65,-0.140567,1.08951,0.175296,4467.09,3083.08,8047.95,-1.65059,-0.323055,-0.772684,-449.398,9555.1,-1545.89,-1.74759,-0.94136,0.570976,252.175,-9913.87,-718.814,-0.834027,0.414983,0.995918,-2312.44,9234.83,-2175.64,-0.295932,2.2465,0.647961,-3704.1,-9087.87,-1333.95,-3.97682,0.765606,0.384594,8906.25,1247.16,4187.03,-1.61476,-0.32826,0.635596
0.153,4382.32,-3146.66,8152.58,-0.122854,1.02249,0.112636,4447.75,3082.29,8046.97,-1.60553,-0.266423,-0.729382,-464.659,9573.38,-1540.86,-1.77984,-0.909795,0.432267,262.741,-9918.16,-709.733,-0.853687,0.467861,1.04626,-2305.13,9222.9,-2165.27,-0.203305,2.11308,0.580798,-3712.12,-9074.42,-1322.17,-4.09924,0.865625,0.474024,8912.96,1236.07,4194.35,-1.59692,-0.41544,0.687206
0.154,4393.64,-3149.12,8136.5,-0.10514,0.955481,0.0499758,4428.42,3081.5,8045.99,-1.56048,-0.20979,-0.68608,-479.921,9591.66,-1535.83,-1.8121,-0.878231,0.293557,273.307,-9922.45,-700.652,-0.873347,0.52074,1.0966,-2297.81,9210.98,-2154.89,-0.110677,1.97967,0.513635,-3720.14,-9060.97,-1310.4,-4.22165,0.965644,0.563454,8919.67,1224.99,4201.67,-1.57908,-0.50262,0.738816
0.155,4404.96,-3151.59,8120.42,-0.0874263,0.888468,-0.0126845,4409.09,3080.72,8045.01,-1.51542,-0.153158,-0.642777,-495.183,9609.93,-1530.81,-1.84436,-0.846667,0.154847,283.873,-9926.74,-691.571,-0.893007,0.573618,1.14695,-2290.5,9199.05,-2144.51,-0.0180501,1.84625,0.446471,-3728.17,-9047.51,-1298.62,-4.34406,1.06566,0.652884,8926.38,1213.91,4208.99,-1.56125,-0.5898,0.790426
0.156,4407.9,-3158.66,8111.32,-0.097277,0.877463,-0.017591,4393.65,3081.96,8042.55,-1.49494,-0.171357,-0.633849,-485.417,9614.96,-1523.53,-1.82053,-0.797006,0.103477,293.649,-9915.52,-701.512,-0.915237,0.609817,1.15912,-2276.37,9197.95,-2140.07,0.0579955,1.69304,0.417059,-3713.08,-9046.35,-1291.22,-4.43923,1.14223,0.705535,8921.81,1220.24,4212.56,-1.539,-0.673918,0.795808
0.157,4400.38,-3171.5,8110.93,-0.141583,0.936468,0.0496948,4383.07,3085.74,8038.26,-1.5052,-0.283095,-0.667888,-444.365,9603.44,-1513.45,-1.72658,-0.724726,0.16128,302.438,-9884.91,-735.231,-0.94068,0.625168,1.12359,-2253.71,9210.38,-2143.05,0.113314,1.51507,0.434834,-3669.09,-9060.55,-1289.31,-4.50033,1.18949,0.712211,8903.13,1248.32,4211.42,-1.51124,-0.754209,0.743405
0.158,4392.86,-3184.33,8110.54,-0.185889,0.995473,0.116981,4372.49,3089.53,8033.96,-1.51545,-0.394833,-0.701927,-403.313,9591.92,-1503.36,-1.63264,-0.652446,0.219083,311.228,-9854.3,-768.95,-0.966123,0.640519,1.08805,-2231.06,9222.81,-2146.03,0.168633,1.33711,0.452609,-3625.11,-9074.75,-1287.4,-4.56143,1.23674,0.718887,8884.45,1276.4,4210.29,-1.48349,-0.834499,0.691002
0.159,4385.34,-3197.17,8110.14,-0.230195,1.05448,0.184266,4361.91,3093.31,8029.66,-1.5257,-0.506571,-0.735966,-362.262,9580.4,-1493.28,-1.5387,-0.580166,0.276886,320.017,-9823.68,-802.668,-0.991566,0.655869,1.05252,-2208.4,9235.24,-2149.01,0.223951,1.15915,0.470385,-3581.12,-9088.96,-1285.49,-4.62253,1.284,0.725564,8865.77,1304.49,4209.16,-1.45573,-0.91479,0.638599
0.16,4377.82,-3210.0,8109.75,-0.274501,1.11348,0.251552,4351.34,3097.09,8025.36,-1.53596,-0.61831,-0.770005,-321.21,9568.88,-1483.2,-1.44475,-0.507886,0.33469,328.806,-9793.07,-836.387,-1.01701,0.67122,1.01698,-2185.74,9247.67,-2151.99,0.27927,0.981182,0.48816,-3537.14,-9103.16,-1283.58,-4.68363,1.33126,0.73224,8847.09,1332.57,4208.03,-1.42797,-0.995081,0.586196
0.161,4391.72,-3211.76,8103.49,-0.196331,1.11166,0.239299,4356.37,3097.11,8034.83,-1.5775,-0.641234,-0.748741,-323.602,9595.09,-1515.17,-1.40831,-0.554538,0.397648,319.212,-9825.04,-852.4,-1.11529,0.70636,0.984407,-2163.39,9249.97,-2145.75,0.301144,0.766882,0.439974,-3537.3,-9088.83,-1283.52,-4.76502,1.24273,0.615189,8841.38,1336.53,4214.56,-1.43001,-0.916997,0.543276
0.162,4405.63,-3213.52,8097.22,-0.11816,1.10983,0.227046,4361.4,3097.12,8044.3,-1.61905,-0.664158,-0.727478,-325.995,9621.31,-1547.13,-1.37187,-0.601189,0.460606,309.618,-9857.0,-868.412,-1.21357,0.7415,0.951831,-2141.03,9252.26,-2139.5,0.323018,0.552582,0.391788,-3537.47,-9074.51,-1283.45,-4.84641,1.15421,0.498137,8835.67,1340.49,4221.1,-1.43205,-0.838912,0.500355
0.163,4419.53,-3215.27,8090.95,-0.0399897,1.10801,0.214792,4366.43,3097.13,8053.77,-1.66059,-0.687082,-0.706214,-328.387,9647.52,-1579.1,-1.33543,-0.64784,0.523564,300.024,-9888.96,-884.424,-1.31185,0.77664,0.919255,-2118.68,9254.56,-2133.26,0.344891,0.338282,0.343602,-3537.63,-9060.19,-1283.39,-4.9278,1.06569,0.381086,8829.97,1344.46,4227.63,-1.43409,-0.760828,0.457435
0.164,4433.44,-3217.03,8084.68,0.0381808,1.10619,0.202539,4371.47,3097.15,8063.24,-1.70214,-0.710006,-0.68495,-330.779,9673.74,-1611.07,-1.29899,-0.694491,0.586522,290.429,-9920.93,-900.437,-1.41013,0.81178,0.886679,-2096.32,9256.86,-2127.01,0.366765,0.123983,0.295415,-3537.8,-9045.87,-1283.32,-5.00919,0.977162,0.264034,8824.26,1348.42,4234.16,-1.43613,-0.682744,0.414514
0.165,4439.11,-3229.06,8069.62,0.154188,1.09084,0.174851,4372.45,3105.54,8060.5,-1.73238,-0.70842,-0.695603,-339.38,9671.13,-1616.74,-1.35649,-0.685653,0.545318,276.751,-9918.97,-900.595,-1.3962,0.8241,0.876619,-2086.14,9261.04,-2130.42,0.319474,-0.0508698,0.295726,-3541.4,-9056.19,-1287.3,-4.9603,0.993317,0.273996,8827.32,1344.24,4238.01,-1.45846,-0.668357,0.413058
0.166,4438.2,-3249.32,8047.53,0.300464,1.06468,0.134814,4370.18,3120.65,8047.99,-1.75358,-0.687225,-0.731789,-352.949,9645.45,-1601.37,-1.48915,-0.632424,0.420784,259.805,-9889.88,-888.07,-1.29248,0.818164,0.884571,-2085.7,9266.73,-2141.55,0.21685,-0.194164,0.334834,-3547.75,-9086.23,-1294.5,-4.80719,1.09322,0.385568,8837.4,1333.54,4239.7,-1.49701,-0.704928,0.444774
0.167,4437.29,-3269.58,8025.44,0.44674,1.03851,0.0947765,4367.92,3135.75,8035.48,-1.77477,-0.66603,-0.767975,-366.517,9619.77,-1586.01,-1.62181,-0.579195,0.29625,242.859,-9860.79,-875.546,-1.18876,0.812228,0.892524,-2085.25,9272.42,-2152.67,0.114226,-0.337458,0.373943,-3554.1,-9116.26,-1301.71,-4.65409,1.19312,0.497141,8847.48,1322.84,4241.4,-1.53556,-0.741498,0.47649
0.168,4436.38,-3289.84,8003.35,0.593016,1.01235,0.0547395,4365.66,3150.86,8022.97,-1.79597,-0.644835,-0.80416,-380.085,9594.1,-1570.64,-1.75447,-0.525966,0.171717,225.913,-9831.69,-863.021,-1.08505,0.806292,0.900476,-2084.81,9278.11,-2163.8,0.0116023,-0.480753,0.413051,-3560.44,-9146.3,-1308.92,-4.50098,1.29301,0.608713,8857.56,1312.14,4243.09,-1.57411,-0.778069,0.508207
0.169,4434.55,-3303.01,7985.39,0.719268,1.0012,0.0172905,4365.02,3163.74,8013.11,-1.80491,-0.638183,-0.834868,-391.884,9570.6,-1557.73,-1.8674,-0.46417,0.0599472,215.309,-9808.57,-852.301,-1.00045,0.802183,0.9091,-2084.38,9282.25,-2175.35,-0.090142,-0.623156,0.449729,-3567.27,-9169.58,-1317.21,-4.36996,1.36471,0.699673,8867.72,1302.94,4242.2,-1.60832,-0.81067,0.523002
0.17,4425.43,-3259.51,8000.47,0.685325,1.11025,0.000545913,4377.35,3158.82,8024.5,-1.7158,-0.747873,-0.821753,-389.531,9564.54,-1564.55,-1.82249,-0.333842,0.0502923,255.434,-9833.18,-856.017,-1.06879,0.812694,0.923101,-2084.03,9273.94,-2190.27,-0.18485,-0.758431,0.466965,-3577.95,-9138.82,-1334.16,-4.4156,1.21075,0.625738,8878.54,1305.75,4220.61,-1.6079,-0.811516,0.402436
0.171,4416.31,-3216.01,8015.56,0.651383,1.2193,-0.0161987,4389.69,3153.89,8035.89,-1.6267,-0.857563,-0.808637,-387.178,9558.48,-1571.37,-1.77758,-0.203514,0.0406373,295.56,-9857.79,-859.734,-1.13713,0.823205,0.937102,-2083.69,9265.63,-2205.19,-0.279557,-0.893707,0.4842,-3588.62,-9108.05,-1351.11,-4.46123,1.05679,0.551803,8889.35,1308.56,4199.03,-1.60748,-0.812361,0.28187
0.172,4407.19,-3172.52,8030.65,0.61744,1.32835,-0.0329432,4402.03,3148.97,8047.27,-1.5376,-0.967253,-0.795522,-384.825,9552.42,-1578.19,-1.73268,-0.073186,0.0309824,335.685,-9882.4,-863.45,-1.20547,0.833715,0.951102,-2083.34,9257.31,-2220.11,-0.374265,-1.02898,0.501436,-3599.29,-9077.29,-1368.07,-4.50687,0.902834,0.477868,8900.17,1311.37,4177.45,-1.60706,-0.813205,0.161304
0.173,4398.07,-3129.02,8045.73,0.583497,1.43739,-0.0496878,4414.37,3144.04,8058.66,-1.4485,-1.07694,-0.782406,-382.472,9546.36,-1585.01,-1.68777,0.0571419,0.0213274,375.811,-9907.01,-867.166,-1.27381,0.844226,0.965103,-2083.0,9249.0,-2235.03,-0.468972,-1.16426,0.518672,-3609.96,-9046.52,-1385.02,-4.55251,0.748876,0.403933,8910.99,1314.18,4155.86,-1.60663,-0.81405,0.0407378
0.174,4399.02,-3116.6,8065.8,0.476493,1.38927,-0.0142052,4416.09,3142.79,8061.33,-1.46068,-1.04149,-0.778108,-376.477,9565.4,-1569.09,-1.64424,0.0739763,-0.0185344,372.918,-9902.53,-862.97,-1.2283,0.89882,0.970752,-2086.15,9244.33,-2241.18,-0.474353,-1.1898,0.431697,-3613.08,-9048.04,-1375.02,-4.60464,0.836013,0.377313,8901.36,1310.51,4130.26,-1.62782,-0.768543,-0.0424191
0.175,4405.02,-3119.73,8088.35,0.332959,1.26256,0.0473911,4412.5,3143.37,8059.63,-1.5235,-0.933477,-0.778219,-368.663,9596.99,-1541.81,-1.60139,0.0340639,-0.0734997,348.516,-9883.51,-854.817,-1.12588,0.975455,0.972226,-2091.06,9241.48,-2242.95,-0.435071,-1.16049,0.292616,-3612.42,-9065.69,-1351.54,-4.66002,1.0437,0.37435,8881.52,1303.6,4102.65,-1.65981,-0.69986,-0.106871
0.176,4411.02,-3122.85,8110.91,0.189426,1.13584,0.108987,4408.91,3143.95,8057.94,-1.58631,-0.825459,-0.778329,-360.848,9628.59,-1514.53,-1.55855,-0.00584846,-0.128465,324.115,-9864.48,-846.663,-1.02346,1.05209,0.9737,-2095.96,9238.63,-2244.72,-0.395789,-1.13117,0.153535,-3611.76,-9083.35,-1328.07,-4.7154,1.25138,0.371387,8861.67,1296.7,4075.04,-1.6918,-0.631177,-0.171324
0.177,4417.01,-3125.97,8133.46,0.0458916,1.00913,0.170584,4405.32,3144.54,8056.24,-1.64913,-0.717441,-0.778439,-353.033,9660.18,-1487.25,-1.5157,-0.0457608,-0.18343,299.713,-9845.46,-838.51,-0.92103,1.12872,0.975174,-2100.86,9235.78,-2246.49,-0.356507,-1.10185,0.0144537,-3611.1,-9101.01,-1304.59,-4.77077,1.45907,0.368424,8841.83,1289.79,4047.42,-1.72379,-0.562493,-0.235776
0.178,4421.37,-3130.34,8146.99,-0.0685606,0.91624,0.231078,4403.79,3136.83,8053.85,-1.6976,-0.611409,-0.77458,-350.611,9680.96,-1468.42,-1.50808,-0.0825482,-0.202207,281.444,-9830.4,-828.632,-0.861713,1.19562,0.973476,-2099.18,9235.27,-2249.86,-0.324466,-1.06287,-0.114162,-3611.76,-9116.74,-1288.29,-4.79024,1.62494,0.390059,8826.54,1277.69,4030.64,-1.74127,-0.508921,-0.298547
0.179,4420.01,-3139.05,8128.92,-0.0812268,0.941735,0.287717,4409.45,3100.11,8049.03,-1.69583,-0.512327,-0.756829,-367.062,9663.9,-1479.15,-1.62373,-0.108398,-0.0943215,284.638,-9829.24,-812.719,-0.953273,1.22843,0.960678,-2074.44,9242.98,-2258.87,-0.317767,-0.990087,-0.20615,-3617.01,-9125.73,-1297.12,-4.68403,1.64447,0.497784,8827.19,1247.4,4051.76,-1.70797,-0.508235,-0.355434
0.18,4418.64,-3147.76,8110.86,-0.0938929,0.96723,0.344357,4415.12,3063.38,8044.21,-1.69407,-0.413245,-0.739077,-383.513,9646.84,-1489.88,-1.73939,-0.134248,0.0135636,287.833,-9828.07,-796.805,-1.04483,1.26124,0.94788,-2049.7,9250.69,-2267.87,-0.311069,-0.9173,-0.298138,-3622.26,-9134.72,-1305.95,-4.57782,1.66399,0.60551,8827.84,1217.11,4072.89,-1.67467,-0.507549,-0.412322
0.181,4417.28,-3156.46,8092.79,-0.106559,0.992725,0.400996,4420.78,3026.66,8039.39,-1.69231,-0.314164,-0.721326,-399.964,9629.78,-1500.61,-1.85504,-0.160098,0.121449,291.027,-9826.9,-780.891,-1.13639,1.29406,0.935082,-2024.96,9258.4,-2276.88,-0.304371,-0.844514,-0.390126,-3627.52,-9143.7,-1314.77,-4.47161,1.68352,0.713235,8828.49,1186.82,4094.01,-1.64137,-0.506864,-0.469209
0.182,4415.92,-3165.17,8074.72,-0.119225,1.01822,0.457635,4426.44,2989.94,8034.57,-1.69055,-0.215082,-0.703574,-416.416,9612.71,-1511.34,-1.9707,-0.185948,0.229334,294.222,-9825.74,-764.977,-1.22795,1.32687,0.922284,-2000.22,9266.11,-2285.89,-0.297672,-0.771727,-0.482114,-3632.77,-9152.69,-1323.6,-4.3654,1.70305,0.82096,8829.14,1156.53,4115.13,-1.60807,-0.506178,-0.526096
0.183,4413.13,-3160.53,8087.53,-0.0920266,1.03625,0.433343,4420.55,2996.21,8034.21,-1.6827,-0.230347,-0.678087,-413.468,9615.09,-1523.22,-1.96166,-0.2025,0.19338,282.51,-9841.49,-747.825,-1.14228,1.3966,0.878056,-1990.49,9265.43,-2290.88,-0.288362,-0.724724,-0.510715,-3617.44,-9147.36,-1341.45,-4.38241,1.69703,0.740914,8831.58,1155.8,4136.04,-1.58562,-0.429944,-0.593957
0.184,4409.95,-3152.08,8109.17,-0.053438,1.05214,0.385928,4411.36,3014.77,8035.13,-1.67311,-0.278283,-0.650389,-404.978,9623.03,-1535.44,-1.917,-0.216396,0.116331,266.54,-9862.07,-730.32,-1.00597,1.47688,0.824848,-1985.05,9262.35,-2294.74,-0.278304,-0.685089,-0.521206,-3596.23,-9137.93,-1361.89,-4.43462,1.68371,0.607218,8834.53,1163.51,4156.88,-1.56627,-0.332126,-0.664955
0.185,4406.76,-3143.63,8130.8,-0.0148493,1.06803,0.338512,4402.16,3033.33,8036.05,-1.66352,-0.326219,-0.622692,-396.487,9630.96,-1547.66,-1.87234,-0.230292,0.0392805,250.569,-9882.66,-712.814,-0.869665,1.55715,0.77164,-1979.61,9259.27,-2298.59,-0.268247,-0.645453,-0.531696,-3575.02,-9128.51,-1382.32,-4.48683,1.6704,0.473522,8837.48,1171.22,4177.72,-1.54692,-0.234307,-0.735952
0.186,4403.57,-3135.18,8152.43,0.0237393,1.08392,0.291097,4392.97,3051.88,8036.97,-1.65393,-0.374155,-0.594994,-387.997,9638.9,-1559.88,-1.82767,-0.244188,-0.0377695,234.598,-9903.24,-695.309,-0.733356,1.63743,0.718431,-1974.17,9256.2,-2302.44,-0.25819,-0.605818,-0.542186,-3553.81,-9119.08,-1402.76,-4.53905,1.65708,0.339826,8840.42,1178.94,4198.56,-1.52757,-0.136488,-0.806949
0.187,4400.7,-3122.88,8162.95,0.0329913,1.05145,0.271336,4387.96,3060.39,8037.74,-1.67986,-0.405084,-0.549344,-382.687,9648.96,-1565.41,-1.76068,-0.261118,-0.091656,235.19,-9916.96,-693.481,-0.653402,1.63002,0.726547,-1972.32,9249.56,-2303.51,-0.249257,-0.560937,-0.534662,-3538.52,-9122.08,-1408.93,-4.53297,1.65728,0.218243,8839.52,1185.19,4210.67,-1.53952,-0.0230233,-0.864588
0.188,4398.46,-3102.88,8151.25,-0.0164301,0.92226,0.306886,4391.35,3048.79,8038.23,-1.7768,-0.402001,-0.467786,-383.74,9663.27,-1557.54,-1.64902,-0.284115,-0.0992157,268.907,-9916.95,-723.011,-0.68616,1.44721,0.857309,-1977.64,9235.81,-2299.01,-0.242572,-0.505565,-0.491107,-3535.06,-9149.92,-1386.58,-4.4103,1.68452,0.120885,8830.9,1188.52,4205.31,-1.61407,0.121733,-0.895511
0.189,4396.21,-3082.87,8139.55,-0.0658515,0.793073,0.342435,4394.73,3037.2,8038.71,-1.87375,-0.398918,-0.386229,-384.792,9677.58,-1549.67,-1.53737,-0.307112,-0.106775,302.624,-9916.94,-752.541,-0.718917,1.26441,0.98807,-1982.96,9222.05,-2294.5,-0.235888,-0.450194,-0.447553,-3531.6,-9177.75,-1364.24,-4.28763,1.71177,0.0235268,8822.28,1191.85,4199.96,-1.68861,0.266489,-0.926434
0.19,4393.97,-3062.87,8127.84,-0.115273,0.663887,0.377985,4398.11,3025.6,8039.19,-1.9707,-0.395835,-0.304672,-385.844,9691.89,-1541.8,-1.42571,-0.330108,-0.114335,336.341,-9916.93,-782.07,-0.751674,1.08161,1.11883,-1988.28,9208.29,-2290.0,-0.229203,-0.394823,-0.403998,-3528.14,-9205.59,-1341.89,-4.16497,1.73901,-0.0738311,8813.66,1195.18,4194.61,-1.76316,0.411246,-0.957357
0.191,4391.72,-3042.87,8116.14,-0.164694,0.5347,0.413534,4401.49,3014.01,8039.68,-2.06765,-0.392752,-0.223114,-386.896,9706.2,-1533.93,-1.31405,-0.353105,-0.121895,370.058,-9916.92,-811.6,-0.784431,0.898807,1.24959,-1993.6,9194.54,-2285.49,-0.222518,-0.339452,-0.360443,-3524.68,-9233.43,-1319.54,-4.0423,1.76625,-0.171189,8805.03,1198.51,4189.25,-1.83771,0.556002,-0.98828
0.192,4384.95,-3066.28,8103.18,-0.0675785,0.607404,0.32592,4408.08,3036.64,8036.69,-1.98591,-0.425876,-0.292461,-394.098,9688.85,-1540.18,-1.34805,-0.389205,-0.0222601,348.116,-9883.66,-804.275,-0.825406,1.13983,1.23129,-1981.71,9196.02,-2285.97,-0.163486,-0.276237,-0.317612,-3520.44,-9214.61,-1309.24,-4.04054,1.86726,-0.181857,8807.92,1195.44,4187.64,-1.90587,0.640991,-1.10345
0.193,4377.61,-3095.12,8090.06,0.0478544,0.705344,0.222911,4415.06,3063.54,8033.27,-1.88183,-0.463526,-0.38067,-402.069,9667.54,-1548.2,-1.40026,-0.426942,0.0907738,319.216,-9846.25,-792.343,-0.867408,1.43384,1.19434,-1967.67,9199.42,-2287.07,-0.0979108,-0.212041,-0.27487,-3516.1,-9189.96,-1300.44,-4.05388,1.97749,-0.181688,8812.24,1191.56,4186.49,-1.97324,0.71851,-1.22915
0.194,4370.28,-3123.96,8076.94,0.163287,0.803284,0.119902,4422.05,3090.45,8029.85,-1.77775,-0.501175,-0.46888,-410.041,9646.23,-1556.21,-1.45247,-0.46468,0.203808,290.316,-9808.83,-780.411,-0.90941,1.72784,1.1574,-1953.63,9202.81,-2288.17,-0.0323355,-0.147846,-0.232129,-3511.75,-9165.3,-1291.65,-4.06722,2.08772,-0.181519,8816.56,1187.68,4185.33,-2.0406,0.796029,-1.35485
0.195,4362.94,-3152.8,8063.82,0.27872,0.901224,0.0168923,4429.03,3117.36,8026.43,-1.67368,-0.538825,-0.557089,-418.012,9624.93,-1564.23,-1.50468,-0.502417,0.316842,261.417,-9771.42,-768.479,-0.951412,2.02184,1.12046,-1939.59,9206.2,-2289.27,0.0332398,-0.0836501,-0.189388,-3507.41,-9140.65,-1282.85,-4.08057,2.19794,-0.181351,8820.88,1183.8,4184.18,-2.10797,0.873547,-1.48055
0.196,4362.43,-3159.22,8054.43,0.327456,0.934077,-0.0128699,4428.13,3128.77,8022.99,-1.60561,-0.545212,-0.613815,-416.866,9612.03,-1571.77,-1.59852,-0.487885,0.338744,254.817,-9760.69,-774.708,-1.01192,2.10057,1.11171,-1931.83,9209.24,-2290.11,0.079167,-0.0172241,-0.165254,-3503.22,-9131.23,-1269.12,-4.08139,2.28353,-0.151276,8823.19,1185.47,4181.02,-2.12997,0.955604,-1.5907
0.197,4370.46,-3137.6,8049.71,0.292822,0.88557,0.0489268,4417.37,3120.82,8019.5,-1.58256,-0.51252,-0.631187,-404.324,9609.65,-1578.72,-1.74441,-0.408016,0.246733,276.094,-9783.33,-803.638,-1.09557,1.91018,1.1382,-1931.91,9211.82,-2290.63,0.100534,0.05199,-0.164381,-3499.21,-9140.85,-1249.22,-4.06657,2.33832,-0.0838187,8823.0,1194.06,4175.34,-2.09527,1.04333,-1.6814
0.198,4378.48,-3115.98,8044.99,0.258187,0.837064,0.110724,4406.61,3112.86,8016.02,-1.55952,-0.479828,-0.648558,-391.782,9607.28,-1585.67,-1.8903,-0.328147,0.154721,297.37,-9805.97,-832.569,-1.17922,1.7198,1.16469,-1932.0,9214.41,-2291.16,0.121901,0.121204,-0.163508,-3495.2,-9150.48,-1229.31,-4.05174,2.39311,-0.0163613,8822.8,1202.66,4169.66,-2.06056,1.13106,-1.7721
0.199,4386.5,-3094.36,8040.27,0.223552,0.788557,0.17252,4395.85,3104.91,8012.54,-1.53647,-0.447136,-0.665929,-379.24,9604.9,-1592.62,-2.03618,-0.248278,0.0627095,318.647,-9828.6,-861.499,-1.26287,1.52942,1.19119,-1932.08,9216.99,-2291.68,0.143268,0.190418,-0.162635,-3491.2,-9160.1,-1209.41,-4.03692,2.4479,0.0510961,8822.61,1211.26,4163.98,-2.02586,1.21879,-1.8628
0.2,4394.53,-3072.74,8035.55,0.188918,0.74005,0.234317,4385.08,3096.96,8009.05,-1.51342,-0.414444,-0.683301,-366.698,9602.52,-1599.57,-2.18207,-0.168409,-0.029302,339.923,-9851.24,-890.429,-1.34652,1.33904,1.21768,-1932.17,9219.57,-2292.2,0.164635,0.259632,-0.161762,-3487.19,-9169.72,-1189.51,-4.02209,2.50269,0.118554,8822.41,1219.85,4158.3,-1.99116,1.30652,-1.95351
0.201,4417.99,-3094.11,8024.87,0.201032,0.805456,0.223081,4382.1,3093.78,8015.4,-1.59406,-0.436966,-0.647188,-351.207,9620.2,-1597.6,-2.21823,-0.212894,0.0457941,338.691,-9880.8,-884.803,-1.42289,1.26946,1.16083,-1925.27,9201.73,-2303.52,0.182204,0.446508,-0.148453,-3506.09,-9168.66,-1220.62,-3.93902,2.5184,0.0665977,8821.06,1226.06,4160.1,-1.95053,1.30702,-1.86171
0.202,4441.46,-3115.49,8014.2,0.213147,0.870862,0.211845,4379.11,3090.6,8021.75,-1.6747,-0.459487,-0.611075,-335.716,9637.87,-1595.63,-2.25439,-0.257379,0.12089,337.46,-9910.37,-879.176,-1.49926,1.19988,1.10398,-1918.38,9183.89,-2314.84,0.199773,0.633383,-0.135143,-3524.98,-9167.6,-1251.74,-3.85596,2.53411,0.0146419,8819.71,1232.27,4161.9,-1.90989,1.30752,-1.76992
0.203,4464.93,-3136.87,8003.52,0.225262,0.936267,0.200609,4376.13,3087.42,8028.1,-1.75534,-0.482009,-0.574963,-320.225,9655.55,-1593.66,-2.29055,-0.301864,0.195986,336.228,-9939.93,-873.549,-1.57562,1.1303,1.04712,-1911.49,9166.05,-2326.17,0.217341,0.820258,-0.121833,-3543.88,-9166.54,-1282.85,-3.77289,2.54983,-0.0373139,8818.36,1238.47,4163.7,-1.86926,1.30802,-1.67813
0.204,4488.39,-3158.25,7992.84,0.237376,1.00167,0.189373,4373.14,3084.24,8034.45,-1.83597,-0.504531,-0.53885,-304.734,9673.23,-1591.69,-2.32671,-0.346349,0.271082,334.996,-9969.5,-867.923,-1.65199,1.06072,0.990273,-1904.59,9148.21,-2337.49,0.23491,1.00713,-0.108523,-3562.77,-9165.48,-1313.97,-3.68982,2.56554,-0.0892698,8817.0,1244.68,4165.49,-1.82862,1.30852,-1.58633
0.205,4499.7,-3164.47,8000.39,0.190134,0.948608,0.199298,4367.89,3086.86,8034.74,-1.88817,-0.500117,-0.493466,-302.814,9675.7,-1593.51,-2.32289,-0.379192,0.259322,331.002,-9977.63,-842.731,-1.60071,1.00371,0.922587,-1912.05,9143.98,-2340.39,0.240334,1.15225,-0.0668621,-3565.72,-9165.32,-1335.4,-3.61031,2.62518,-0.0620723,8828.02,1240.53,4168.58,-1.85759,1.32945,-1.54641
0.206,4501.27,-3158.57,8022.53,0.0954054,0.800768,0.226151,4360.82,3094.13,8030.19,-1.91761,-0.474156,-0.440665,-311.752,9666.01,-1598.35,-2.28709,-0.402723,0.178077,324.799,-9968.63,-801.888,-1.4473,0.956746,0.846233,-1931.0,9150.64,-2336.57,0.236041,1.26396,-0.00251976,-3555.91,-9165.89,-1349.09,-3.53363,2.71996,0.0284477,8848.93,1228.1,4172.71,-1.94224,1.36673,-1.54797
0.207,4502.85,-3152.66,8044.67,0.000677163,0.652927,0.253004,4353.76,3101.4,8025.64,-1.94704,-0.448195,-0.387864,-320.69,9656.33,-1603.19,-2.25128,-0.426253,0.0968317,318.597,-9959.62,-761.045,-1.2939,0.909784,0.769879,-1949.94,9157.3,-2332.74,0.231749,1.37567,0.0618226,-3546.1,-9166.46,-1362.78,-3.45696,2.81474,0.118968,8869.83,1215.68,4176.83,-2.02689,1.404,-1.54953
0.208,4504.43,-3146.76,8066.8,-0.0940511,0.505086,0.279857,4346.7,3108.67,8021.09,-1.97648,-0.422233,-0.335063,-329.628,9646.64,-1608.03,-2.21547,-0.449783,0.0155865,312.394,-9950.61,-720.202,-1.1405,0.862822,0.693525,-1968.89,9163.96,-2328.91,0.227456,1.48737,0.126165,-3536.29,-9167.02,-1376.47,-3.38028,2.90952,0.209488,8890.74,1203.25,4180.95,-2.11155,1.44128,-1.5511
0.209,4504.16,-3138.88,8085.67,-0.190567,0.375008,0.308334,4342.63,3114.21,8015.41,-1.98271,-0.404648,-0.295872,-339.863,9638.45,-1610.07,-2.18521,-0.482015,-0.0646572,304.936,-9941.14,-687.98,-1.01642,0.833039,0.632574,-1984.0,9171.76,-2323.74,0.22778,1.5985,0.189494,-3526.4,-9169.45,-1388.47,-3.32507,2.99702,0.278606,8909.22,1192.24,4183.65,-2.1938,1.47787,-1.55747
0.21,4489.1,-3115.12,8078.39,-0.301388,0.387026,0.349795,4362.49,3105.95,8000.66,-1.80323,-0.454075,-0.365565,-360.47,9642.24,-1589.72,-2.19929,-0.58386,-0.136889,287.435,-9927.95,-724.725,-1.12696,0.940679,0.694844,-1968.52,9188.75,-2307.81,0.265037,1.70497,0.244719,-3515.92,-9186.73,-1386.94,-3.44155,3.02634,0.176507,8908.25,1192.58,4174.97,-2.25692,1.50907,-1.60229
0.211,4474.04,-3091.37,8071.11,-0.412209,0.399044,0.391256,4382.35,3097.69,7985.92,-1.62376,-0.503502,-0.435259,-381.077,9646.02,-1569.38,-2.21336,-0.685705,-0.20912,269.935,-9914.77,-761.471,-1.2375,1.04832,0.757114,-1953.03,9205.74,-2291.87,0.302294,1.81144,0.299943,-3505.44,-9204.01,-1385.41,-3.55803,3.05565,0.0744085,8907.27,1192.93,4166.29,-2.32004,1.54026,-1.64711
0.212,4458.99,-3067.61,8063.83,-0.52303,0.411062,0.432718,4402.21,3089.43,7971.17,-1.44428,-0.552929,-0.504952,-401.683,9649.81,-1549.03,-2.22743,-0.787549,-0.281352,252.434,-9901.59,-798.216,-1.34804,1.15596,0.819385,-1937.55,9222.72,-2275.93,0.339551,1.91791,0.355167,-3494.96,-9221.29,-1383.88,-3.67452,3.08496,-0.0276901,8906.3,1193.28,4157.61,-2.38316,1.57145,-1.69193
0.213,4443.93,-3043.86,8056.55,-0.633851,0.42308,0.474179,4422.07,3081.16,7956.42,-1.26481,-0.602356,-0.574646,-422.29,9653.6,-1528.68,-2.24151,-0.889394,-0.353583,234.934,-9888.4,-834.962,-1.45858,1.2636,0.881655,-1922.07,9239.71,-2260.0,0.376808,2.02438,0.410392,-3484.47,-9238.57,-1382.35,-3.791,3.11427,-0.129789,8905.33,1193.63,4148.92,-2.44628,1.60264,-1.73675
0.214,4426.01,-3065.28,8057.01,-0.588392,0.445574,0.433192,4437.67,3074.05,7960.48,-1.20282,-0.580721,-0.639524,-413.224,9667.99,-1514.64,-2.27665,-0.965297,-0.329743,236.66,-9876.0,-845.895,-1.43669,1.21604,0.877711,-1911.98,9246.93,-2253.65,0.335201,2.12086,0.418922,-3480.87,-9236.67,-1357.25,-3.77664,3.16626,-0.0965451,8903.41,1201.34,4147.12,-2.51716,1.63469,-1.68737
0.215,4406.65,-3109.29,8061.33,-0.464792,0.473306,0.350982,4451.12,3067.5,7973.94,-1.19958,-0.523555,-0.701996,-389.322,9687.68,-1503.74,-2.32234,-1.02823,-0.257867,247.998,-9863.98,-843.922,-1.34859,1.09089,0.84066,-1904.6,9249.26,-2252.09,0.254162,2.21233,0.404106,-3480.71,-9225.19,-1320.35,-3.69685,3.22957,0.00436986,8901.01,1212.74,4148.75,-2.59192,1.66716,-1.5909
0.216,4387.3,-3153.3,8065.65,-0.341193,0.501038,0.268771,4464.58,3060.96,7987.39,-1.19634,-0.466388,-0.764467,-365.419,9707.37,-1492.84,-2.36802,-1.09116,-0.18599,259.337,-9851.96,-841.949,-1.26049,0.965737,0.803609,-1897.22,9251.59,-2250.54,0.173123,2.3038,0.389289,-3480.55,-9213.7,-1283.45,-3.61707,3.29289,0.105285,8898.62,1224.14,4150.37,-2.66668,1.69964,-1.49442
0.217,4367.94,-3197.31,8069.98,-0.217593,0.52877,0.186561,4478.04,3054.42,8000.85,-1.19309,-0.409222,-0.826939,-341.517,9727.06,-1481.94,-2.4137,-1.15409,-0.114114,270.675,-9839.94,-839.977,-1.17239,0.840584,0.766559,-1889.84,9253.92,-2248.98,0.0920839,2.39528,0.374473,-3480.39,-9202.21,-1246.55,-3.53728,3.35621,0.2062,8896.22,1235.54,4152.0,-2.74145,1.73212,-1.39795
0.218,4354.07,-3228.31,8073.96,-0.118742,0.556383,0.126005,4485.86,3050.14,8008.78,-1.22045,-0.369518,-0.877516,-327.369,9742.77,-1472.99,-2.429,-1.21154,-0.0675036,278.337,-9831.04,-836.448,-1.10664,0.750471,0.742529,-1886.53,9257.33,-2241.85,-0.00478436,2.46491,0.360057,-3483.92,-9192.83,-1219.33,-3.47249,3.39401,0.262811,8894.7,1244.25,4155.6,-2.79064,1.75571,-1.31091
0.219,4359.38,-3213.8,8076.73,-0.106507,0.583581,0.141241,4473.95,3053.82,7997.36,-1.3549,-0.390932,-0.886465,-347.361,9744.55,-1470.86,-2.33794,-1.24978,-0.109324,273.133,-9833.05,-827.474,-1.11913,0.782999,0.764075,-1897.46,9264.51,-2215.21,-0.157055,2.45809,0.347041,-3500.33,-9190.84,-1225.97,-3.46019,3.34248,0.164357,8896.22,1243.51,4166.09,-2.75033,1.7482,-1.25691
0.22,4364.7,-3199.29,8079.51,-0.0942714,0.610779,0.156477,4462.03,3057.5,7985.94,-1.48935,-0.412346,-0.895414,-367.353,9746.32,-1468.73,-2.24689,-1.28803,-0.151145,267.929,-9835.07,-818.5,-1.13162,0.815527,0.78562,-1908.39,9271.7,-2188.57,-0.309326,2.45127,0.334025,-3516.74,-9188.85,-1232.6,-3.44789,3.29096,0.0659035,8897.73,1242.78,4176.59,-2.71002,1.7407,-1.20291
0.221,4370.01,-3184.77,8082.29,-0.0820363,0.637978,0.171713,4450.12,3061.18,7974.52,-1.6238,-0.433761,-0.904362,-387.344,9748.1,-1466.61,-2.15583,-1.32628,-0.192966,262.725,-9837.08,-809.527,-1.14411,0.848055,0.807165,-1919.31,9278.88,-2161.94,-0.461597,2.44445,0.321009,-3533.15,-9186.86,-1239.24,-3.43558,3.23944,-0.03255,8899.25,1242.04,4187.08,-2.66971,1.73319,-1.1489
0.222,4375.32,-3170.26,8085.06,-0.0698012,0.665176,0.186949,4438.21,3064.86,7963.1,-1.75825,-0.455175,-0.913311,-407.336,9749.88,-1464.48,-2.06478,-1.36453,-0.234787,257.521,-9839.09,-800.553,-1.1566,0.880584,0.828711,-1930.24,9286.06,-2135.3,-0.613868,2.43763,0.307992,-3549.57,-9184.87,-1245.88,-3.42328,3.18792,-0.131004,8900.77,1241.3,4197.57,-2.6294,1.72569,-1.0949
0.223,4376.04,-3183.01,8109.03,-0.119091,0.67122,0.251195,4420.73,3066.32,7970.67,-1.66935,-0.428371,-0.906175,-403.673,9724.24,-1461.48,-2.13299,-1.39745,-0.241274,264.851,-9852.44,-802.911,-1.15523,0.920107,0.891912,-1922.01,9301.06,-2136.01,-0.661416,2.51602,0.275179,-3539.06,-9185.76,-1240.94,-3.42994,3.19068,-0.238078,8889.73,1227.7,4214.06,-2.56272,1.77306,-1.0585
0.224,4375.44,-3203.54,8139.04,-0.185959,0.67122,0.329444,4401.67,3067.15,7983.66,-1.51665,-0.387791,-0.894442,-393.251,9690.77,-1458.22,-2.24669,-1.42885,-0.237667,275.763,-9869.02,-808.506,-1.14989,0.961628,0.967016,-1908.29,9318.29,-2144.55,-0.679043,2.61876,0.236709,-3520.87,-9187.47,-1232.69,-3.44201,3.20896,-0.347616,8875.1,1210.42,4232.26,-2.48851,1.8361,-1.02712
0.225,4374.84,-3224.07,8169.06,-0.252827,0.67122,0.407693,4382.6,3067.98,7996.66,-1.36394,-0.347211,-0.882709,-382.829,9657.3,-1454.97,-2.3604,-1.46025,-0.23406,286.674,-9885.6,-814.101,-1.14455,1.00315,1.04212,-1894.58,9335.52,-2153.08,-0.696669,2.72149,0.19824,-3502.68,-9189.18,-1224.44,-3.45408,3.22723,-0.457154,8860.47,1193.14,4250.46,-2.41429,1.89915,-0.995744
0.226,4374.24,-3244.61,8199.08,-0.319696,0.67122,0.485941,4363.54,3068.81,8009.65,-1.21124,-0.306631,-0.870976,-372.407,9623.83,-1451.72,-2.47411,-1.49165,-0.230452,297.585,-9902.18,-819.697,-1.13921,1.04467,1.11722,-1880.87,9352.76,-2161.61,-0.714296,2.82422,0.15977,-3484.49,-9190.89,-1216.19,-3.46615,3.2455,-0.566691,8845.84,1175.86,4268.66,-2.34008,1.9622,-0.964369
0.227,4378.56,-3251.88,8201.46,-0.358907,0.67122,0.513895,4354.85,3067.82,8023.54,-1.1113,-0.312474,-0.838783,-362.541,9599.17,-1457.08,-2.54117,-1.5076,-0.230963,298.965,-9913.81,-821.517,-1.11959,1.03196,1.17196,-1873.33,9368.22,-2175.15,-0.770589,2.92213,0.167564,-3468.78,-9194.58,-1214.77,-3.47059,3.28237,-0.608137,8832.16,1161.76,4281.05,-2.29246,2.01625,-0.935116
0.228,4392.7,-3232.64,8148.57,-0.342804,0.67122,0.441259,4366.91,3063.17,8039.23,-1.11691,-0.411164,-0.765668,-353.79,9592.13,-1479.66,-2.51493,-1.49268,-0.23971,281.281,-9915.52,-815.786,-1.07144,0.91077,1.18596,-1878.13,9380.13,-2198.69,-0.904214,3.0104,0.267884,-3458.04,-9202.23,-1227.01,-3.45975,3.35643,-0.513397,8820.4,1154.02,4281.82,-2.29803,2.05231,-0.910107
0.229,4406.85,-3213.39,8095.68,-0.326702,0.67122,0.368623,4378.97,3058.52,8054.91,-1.12252,-0.509855,-0.692553,-345.039,9585.09,-1502.24,-2.48869,-1.47776,-0.248457,263.598,-9917.24,-810.055,-1.02328,0.789583,1.19996,-1882.92,9392.05,-2222.23,-1.03784,3.09867,0.368205,-3447.29,-9209.87,-1239.25,-3.44891,3.43049,-0.418658,8808.64,1146.27,4282.58,-2.3036,2.08837,-0.885098
0.23,4420.99,-3194.15,8042.79,-0.310599,0.67122,0.295987,4391.04,3053.86,8070.6,-1.12813,-0.608546,-0.619438,-336.288,9578.05,-1524.81,-2.46245,-1.46284,-0.257205,245.915,-9918.95,-804.324,-0.975126,0.668396,1.21396,-1887.72,9403.97,-2245.78,-1.17146,3.18694,0.468526,-3436.54,-9217.51,-1251.49,-3.43806,3.50455,-0.323918,8796.88,1138.52,4283.35,-2.30916,2.12443,-0.86009
0.231,4435.14,-3174.9,7989.9,-0.294497,0.67122,0.223351,4403.1,3049.21,8086.28,-1.13374,-0.707236,-0.546323,-327.537,9571.01,-1547.39,-2.4362,-1.44792,-0.265952,228.231,-9920.67,-798.593,-0.92697,0.547209,1.22796,-1892.51,9415.89,-2269.32,-1.30509,3.2752,0.568847,-3425.8,-9225.16,-1263.73,-3.42722,3.5786,-0.229179,8785.11,1130.77,4284.11,-2.31473,2.1605,-0.835081
0.232,4426.26,-3164.95,7993.02,-0.2379,0.665619,0.363754,4405.7,3048.88,8069.82,-1.11808,-0.679999,-0.549477,-323.599,9568.4,-1538.88,-2.32857,-1.34708,-0.360207,228.187,-9921.01,-808.375,-0.875851,0.577389,1.23577,-1890.64,9418.07,-2255.95,-1.30325,3.31673,0.640148,-3448.28,-9199.96,-1254.93,-3.45559,3.55487,-0.308174,8791.06,1140.91,4274.94,-2.24576,2.10615,-0.800086
0.233,4414.51,-3156.15,8003.15,-0.176241,0.659319,0.530788,4407.11,3049.08,8049.33,-1.09976,-0.63702,-0.562165,-320.264,9566.35,-1526.47,-2.21076,-1.23549,-0.46515,230.348,-9921.19,-820.096,-0.824361,0.626491,1.2428,-1887.94,9419.03,-2237.96,-1.28448,3.35241,0.707821,-3474.92,-9170.66,-1243.51,-3.48886,3.51892,-0.408885,8799.22,1153.27,4264.52,-2.16747,2.04049,-0.763842
0.234,4402.75,-3147.35,8013.27,-0.114582,0.653018,0.697821,4408.53,3049.28,8028.84,-1.08144,-0.594042,-0.574853,-316.928,9564.3,-1514.07,-2.09294,-1.12391,-0.570094,232.509,-9921.37,-831.816,-0.772871,0.675592,1.24984,-1885.24,9420.0,-2219.98,-1.26571,3.3881,0.775494,-3501.56,-9141.36,-1232.08,-3.52213,3.48297,-0.509597,8807.38,1165.64,4254.1,-2.08919,1.97484,-0.727599
0.235,4391.0,-3138.55,8023.4,-0.0529237,0.646717,0.864855,4409.95,3049.49,8008.35,-1.06313,-0.551064,-0.587541,-313.592,9562.25,-1501.67,-1.97513,-1.01232,-0.675038,234.67,-9921.54,-843.537,-0.721381,0.724694,1.25687,-1882.53,9420.96,-2201.99,-1.24694,3.42378,0.843167,-3528.19,-9112.06,-1220.66,-3.5554,3.44701,-0.610309,8815.53,1178.01,4243.68,-2.0109,1.90919,-0.691355
0.236,4381.88,-3145.98,8036.14,-0.0519162,0.588103,0.920285,4405.61,3053.46,8000.98,-1.08901,-0.566283,-0.601525,-308.031,9562.59,-1500.64,-1.96092,-0.962678,-0.796075,248.058,-9923.85,-851.187,-0.726417,0.728235,1.25179,-1872.03,9418.45,-2198.22,-1.24925,3.42935,0.901919,-3527.52,-9104.31,-1212.97,-3.60875,3.43771,-0.658466,8829.4,1186.57,4243.88,-1.9473,1.82294,-0.67122
0.237,4376.04,-3173.68,8052.13,-0.126723,0.464099,0.836211,4394.08,3062.14,8010.01,-1.17016,-0.654251,-0.617131,-299.687,9565.91,-1513.82,-2.07619,-0.99047,-0.937229,275.48,-9928.81,-853.748,-0.802112,0.674826,1.23157,-1851.79,9411.59,-2212.21,-1.27791,3.3973,0.949519,-3492.71,-9123.51,-1209.95,-3.68719,3.4617,-0.640928,8850.4,1190.37,4257.33,-1.90207,1.71095,-0.67122
0.238,4370.21,-3201.38,8068.13,-0.201529,0.340094,0.752137,4382.56,3070.82,8019.04,-1.2513,-0.742218,-0.632737,-291.343,9569.23,-1527.0,-2.19147,-1.01826,-1.07838,302.901,-9933.78,-856.309,-0.877808,0.621417,1.21135,-1831.55,9404.73,-2226.2,-1.30657,3.36524,0.997119,-3457.9,-9142.7,-1206.93,-3.76564,3.4857,-0.623391,8871.4,1194.17,4270.78,-1.85683,1.59895,-0.67122
0.239,4364.37,-3229.09,8084.13,-0.276336,0.216089,0.668063,4371.03,3079.49,8028.07,-1.33244,-0.830186,-0.648343,-282.998,9572.55,-1540.18,-2.30674,-1.04605,-1.21954,330.323,-9938.74,-858.87,-0.953503,0.568008,1.19113,-1811.31,9397.87,-2240.19,-1.33523,3.33318,1.04472,-3423.09,-9161.89,-1203.92,-3.84409,3.50969,-0.605853,8892.39,1197.96,4284.23,-1.81159,1.48696,-0.67122
0.24,4358.54,-3256.79,8100.13,-0.351142,0.0920841,0.583989,4359.51,3088.17,8037.1,-1.41358,-0.918153,-0.663949,-274.654,9575.87,-1553.37,-2.42202,-1.07385,-1.36069,357.745,-9943.71,-861.432,-1.0292,0.514599,1.17091,-1791.08,9391.01,-2254.18,-1.36389,3.30112,1.09232,-3388.28,-9181.09,-1200.9,-3.92253,3.53369,-0.588316,8913.39,1201.76,4297.69,-1.76635,1.37497,-0.67122
0.241,4376.13,-3242.86,8110.4,-0.307474,0.0027773,0.500674,4369.47,3084.54,8040.69,-1.31511,-0.906813,-0.738868,-301.51,9580.56,-1559.9,-2.46589,-1.02044,-1.37032,337.997,-9940.16,-840.535,-0.956653,0.486921,1.2021,-1809.06,9388.64,-2253.57,-1.39659,3.3666,1.10741,-3418.3,-9183.95,-1223.16,-3.81716,3.51446,-0.550435,8899.83,1219.15,4285.73,-1.86352,1.39555,-0.678141
0.242,4393.73,-3228.94,8120.66,-0.263805,-0.0865295,0.41736,4379.43,3080.9,8044.27,-1.21664,-0.895473,-0.813787,-328.366,9585.25,-1566.44,-2.50975,-0.96704,-1.37994,318.25,-9936.61,-819.638,-0.884108,0.459242,1.23329,-1827.05,9386.27,-2252.97,-1.4293,3.43207,1.1225,-3448.33,-9186.82,-1245.41,-3.71179,3.49523,-0.512555,8886.28,1236.54,4273.77,-1.96069,1.41614,-0.685061
0.243,4411.33,-3215.01,8130.93,-0.220137,-0.175836,0.334045,4389.39,3077.26,8047.86,-1.11817,-0.884133,-0.888706,-355.221,9589.94,-1572.98,-2.55362,-0.913637,-1.38956,298.503,-9933.07,-798.741,-0.811563,0.431564,1.26447,-1845.03,9383.9,-2252.37,-1.462,3.49755,1.13759,-3478.36,-9189.69,-1267.67,-3.60642,3.476,-0.474675,8872.72,1253.93,4261.82,-2.05786,1.43673,-0.691982
0.244,4428.93,-3201.08,8141.2,-0.176468,-0.265143,0.250731,4399.35,3073.63,8051.44,-1.01969,-0.872793,-0.963625,-382.077,9594.64,-1579.52,-2.59749,-0.860234,-1.39918,278.755,-9929.52,-777.845,-0.739018,0.403886,1.29566,-1863.02,9381.54,-2251.77,-1.4947,3.56303,1.15267,-3508.38,-9192.55,-1289.92,-3.50104,3.45678,-0.436795,8859.16,1271.32,4249.86,-2.15502,1.45732,-0.698903
0.245,4417.95,-3196.71,8146.18,-0.208066,-0.209469,0.262638,4417.47,3065.23,8048.87,-1.00946,-0.872921,-0.947156,-379.566,9606.2,-1589.22,-2.56199,-0.717593,-1.40593,278.832,-9923.47,-772.601,-0.694704,0.393203,1.33784,-1880.84,9381.37,-2254.02,-1.53956,3.59142,1.23859,-3530.46,-9187.79,-1311.85,-3.42832,3.41221,-0.482689,8850.41,1268.26,4238.91,-2.22483,1.50851,-0.678277
0.246,4384.13,-3199.98,8146.95,-0.299876,-0.0378089,0.350723,4442.13,3053.02,8041.36,-1.06983,-0.882224,-0.857578,-353.563,9623.27,-1601.46,-2.46299,-0.50356,-1.41037,294.767,-9915.42,-779.879,-0.672974,0.396117,1.38881,-1898.53,9382.97,-2258.57,-1.59414,3.59014,1.38117,-3546.19,-9176.93,-1333.51,-3.3817,3.34737,-0.595601,8845.52,1248.83,4228.76,-2.27275,1.58418,-0.635615
0.247,4350.3,-3203.24,8147.71,-0.391686,0.133851,0.438808,4466.79,3040.81,8033.86,-1.13019,-0.891526,-0.767999,-327.559,9640.34,-1613.69,-2.36399,-0.289527,-1.41481,310.703,-9907.37,-787.157,-0.651245,0.399032,1.43977,-1916.23,9384.57,-2263.12,-1.64872,3.58885,1.52374,-3561.91,-9166.06,-1355.16,-3.33509,3.28253,-0.708514,8840.62,1229.41,4218.61,-2.32067,1.65985,-0.592954
0.248,4316.48,-3206.51,8148.47,-0.483496,0.305511,0.526892,4491.44,3028.6,8026.35,-1.19055,-0.900829,-0.678421,-301.556,9657.4,-1625.92,-2.26499,-0.0754948,-1.41925,326.639,-9899.32,-794.435,-0.629515,0.401946,1.49074,-1933.92,9386.17,-2267.66,-1.7033,3.58757,1.66632,-3577.63,-9155.2,-1376.82,-3.28848,3.21769,-0.821427,8835.72,1209.99,4208.45,-2.36859,1.73553,-0.550292
0.249,4286.78,-3209.71,8147.81,-0.553068,0.45026,0.602661,4510.5,3019.45,8019.8,-1.23684,-0.907869,-0.600323,-277.829,9671.69,-1636.31,-2.17647,0.131749,-1.42371,339.946,-9891.82,-801.192,-0.609821,0.402395,1.52625,-1949.8,9386.12,-2272.37,-1.74463,3.59898,1.79399,-3592.49,-9145.02,-1393.67,-3.251,3.15768,-0.922981,8832.71,1190.06,4198.17,-2.40391,1.81062,-0.49757
0.25,4290.15,-3212.37,8135.76,-0.444728,0.379726,0.5799,4484.79,3034.75,8020.88,-1.17048,-0.89681,-0.614068,-272.317,9663.74,-1631.87,-2.17178,0.284682,-1.4284,332.226,-9888.73,-803.782,-0.606414,0.383125,1.43809,-1951.25,9372.94,-2278.39,-1.67998,3.71191,1.80244,-3600.38,-9140.34,-1372.02,-3.28657,3.13629,-0.933674,8844.78,1166.14,4186.85,-2.33844,1.88111,-0.364368
0.251,4293.53,-3215.04,8123.71,-0.336388,0.309193,0.55714,4459.08,3050.05,8021.96,-1.10413,-0.885752,-0.627813,-266.804,9655.79,-1627.44,-2.1671,0.437615,-1.43308,324.506,-9885.64,-806.372,-0.603007,0.363855,1.34993,-1952.69,9359.76,-2284.4,-1.61533,3.82484,1.81089,-3608.28,-9135.66,-1350.37,-3.32214,3.11491,-0.944367,8856.85,1142.22,4175.53,-2.27296,1.95159,-0.231166
0.252,4296.9,-3217.71,8111.65,-0.228048,0.238659,0.534379,4433.36,3065.35,8023.04,-1.03778,-0.874693,-0.641558,-261.292,9647.83,-1623.01,-2.16242,0.590548,-1.43776,316.786,-9882.56,-808.963,-0.5996,0.344586,1.26178,-1954.14,9346.58,-2290.41,-1.55067,3.93778,1.81933,-3616.18,-9130.98,-1328.72,-3.35771,3.09352,-0.955059,8868.91,1118.3,4164.21,-2.20749,2.02207,-0.0979634
0.253,4300.27,-3220.38,8099.6,-0.119707,0.168125,0.511619,4407.65,3080.65,8024.11,-0.971422,-0.863634,-0.655303,-255.78,9639.88,-1618.57,-2.15773,0.74348,-1.44245,309.066,-9879.47,-811.553,-0.596193,0.325316,1.17362,-1955.58,9333.4,-2296.43,-1.48602,4.05071,1.82778,-3624.07,-9126.3,-1307.07,-3.39327,3.07214,-0.965752,8880.98,1094.37,4152.88,-2.14201,2.09256,0.0352388
0.254,4312.15,-3216.58,8105.4,-0.113054,0.180664,0.440405,4402.4,3065.83,8024.61,-0.935821,-0.808799,-0.703501,-270.34,9630.97,-1616.65,-2.15907,0.877834,-1.43474,304.718,-9883.87,-826.444,-0.605341,0.388736,1.14226,-1962.78,9329.22,-2311.13,-1.41841,4.2338,1.86309,-3618.07,-9147.78,-1301.43,-3.45959,3.07896,-0.946559,8876.87,1092.28,4144.99,-2.10128,2.15627,0.146486
0.255,4328.28,-3209.54,8120.12,-0.157244,0.23474,0.344964,4407.4,3035.96,8024.81,-0.915595,-0.732076,-0.768924,-294.937,9621.59,-1615.99,-2.16342,1.0029,-1.42085,302.055,-9892.02,-847.486,-0.620766,0.493502,1.13929,-1972.87,9329.54,-2330.18,-1.34931,4.45196,1.91182,-3605.11,-9182.35,-1303.78,-3.54128,3.09988,-0.912423,8864.68,1101.11,4138.81,-2.07293,2.2166,0.246755
0.256,4344.4,-3202.51,8134.83,-0.201434,0.288815,0.249523,4412.39,3006.08,8025.01,-0.89537,-0.655354,-0.834347,-319.534,9612.21,-1615.32,-2.16777,1.12796,-1.40695,299.392,-9900.17,-868.528,-0.636191,0.598268,1.13633,-1982.95,9329.87,-2349.23,-1.28021,4.67013,1.96056,-3592.16,-9216.92,-1306.14,-3.62298,3.12081,-0.878287,8852.48,1109.93,4132.62,-2.04457,2.27693,0.347024
0.257,4360.53,-3195.48,8149.55,-0.245624,0.342891,0.154081,4417.38,2976.21,8025.21,-0.875144,-0.578631,-0.89977,-344.131,9602.83,-1614.66,-2.17212,1.25303,-1.39305,296.729,-9908.31,-889.569,-0.651616,0.703034,1.13336,-1993.03,9330.19,-2368.28,-1.21111,4.8883,2.00929,-3579.21,-9251.48,-1308.49,-3.70467,3.14173,-0.844151,8840.29,1118.76,4126.44,-2.01622,2.33726,0.447293
0.258,4377.39,-3182.98,8156.01,-0.270082,0.390743,0.0880611,4422.53,2953.65,8030.01,-0.887367,-0.539987,-0.937833,-365.164,9597.84,-1609.53,-2.17571,1.37041,-1.38135,294.527,-9915.77,-895.8,-0.681004,0.758751,1.1364,-2001.81,9326.57,-2380.52,-1.14973,5.05883,2.0259,-3569.35,-9273.11,-1307.42,-3.76206,3.14905,-0.785231,8830.32,1127.54,4120.58,-2.01292,2.40036,0.526189
0.259,4396.82,-3151.37,8133.56,-0.225476,0.416812,0.125013,4428.24,2956.73,8050.93,-1.01316,-0.634616,-0.880133,-373.727,9608.24,-1588.78,-2.17663,1.46089,-1.37734,293.935,-9920.81,-850.194,-0.759262,0.642796,1.16045,-2006.02,9309.14,-2368.91,-1.11541,5.06263,1.93005,-3570.34,-9249.44,-1294.33,-3.73437,3.10872,-0.639565,8828.16,1136.2,4115.83,-2.09732,2.47316,0.530282
0.26,4416.26,-3119.75,8111.12,-0.180871,0.442881,0.161965,4433.94,2959.81,8071.85,-1.13895,-0.729245,-0.822434,-382.29,9618.63,-1568.03,-2.17756,1.55138,-1.37332,293.343,-9925.85,-804.587,-0.83752,0.526842,1.1845,-2010.23,9291.7,-2357.29,-1.08109,5.06643,1.8342,-3571.33,-9225.78,-1281.25,-3.70668,3.06839,-0.4939,8826.0,1144.86,4111.08,-2.18171,2.54595,0.534375
0.261,4435.69,-3088.14,8088.67,-0.136266,0.468951,0.198917,4439.65,2962.88,8092.77,-1.26475,-0.823874,-0.764734,-390.852,9629.03,-1547.29,-2.17848,1.64187,-1.3693,292.751,-9930.89,-758.98,-0.915777,0.410887,1.20856,-2014.44,9274.27,-2345.68,-1.04676,5.07023,1.73835,-3572.33,-9202.12,-1268.16,-3.67899,3.02806,-0.348234,8823.84,1153.52,4106.33,-2.2661,2.61875,0.538468
0.262,4455.13,-3056.52,8066.22,-0.0916609,0.49502,0.235868,4445.35,2965.96,8113.69,-1.39054,-0.918503,-0.707035,-399.415,9639.43,-1526.54,-2.1794,1.73236,-1.36529,292.159,-9935.93,-713.374,-0.994035,0.294932,1.23261,-2018.65,9256.84,-2334.07,-1.01244,5.07403,1.6425,-3573.32,-9178.45,-1255.08,-3.6513,2.98773,-0.202568,8821.68,1162.18,4101.58,-2.3505,2.69154,0.542561
0.263,4447.78,-3077.35,8075.61,-0.112796,0.434528,0.24672,4462.58,2985.8,8085.25,-1.3468,-0.906101,-0.749993,-386.836,9638.97,-1529.63,-2.16548,1.77011,-1.35137,292.486,-9921.97,-705.803,-1.00038,0.223682,1.24556,-2029.52,9229.64,-2336.47,-1.06601,5.07896,1.5855,-3565.72,-9179.37,-1241.51,-3.63556,2.8938,-0.225842,8836.24,1166.23,4098.95,-2.29003,2.80001,0.569508
0.264,4432.79,-3113.16,8094.1,-0.152715,0.349304,0.250114,4483.1,3010.42,8042.71,-1.25463,-0.863118,-0.82171,-368.217,9635.41,-1539.53,-2.14732,1.7928,-1.33463,293.075,-9902.57,-709.099,-0.986174,0.165205,1.25534,-2042.3,9199.65,-2342.87,-1.1447,5.0842,1.5396,-3555.67,-9187.31,-1227.8,-3.62324,2.78457,-0.297383,8855.58,1168.98,4096.91,-2.18816,2.91867,0.602986
0.265,4417.79,-3148.97,8112.59,-0.192634,0.26408,0.253508,4503.62,3035.04,8000.17,-1.16246,-0.820135,-0.893427,-349.599,9631.85,-1549.43,-2.12916,1.81548,-1.31789,293.664,-9883.17,-712.395,-0.97197,0.106728,1.26512,-2055.07,9169.65,-2349.28,-1.22339,5.08945,1.4937,-3545.61,-9195.26,-1214.09,-3.61092,2.67534,-0.368924,8874.92,1171.72,4094.88,-2.0863,3.03734,0.636463
0.266,4402.79,-3184.79,8131.08,-0.232553,0.178856,0.256902,4524.14,3059.66,7957.63,-1.07028,-0.777152,-0.965144,-330.98,9628.29,-1559.33,-2.11099,1.83817,-1.30115,294.254,-9863.78,-715.691,-0.957766,0.0482506,1.2749,-2067.84,9139.66,-2355.68,-1.30208,5.0947,1.4478,-3535.56,-9203.2,-1200.39,-3.5986,2.5661,-0.440466,8894.25,1174.47,4092.85,-1.98444,3.156,0.669941
0.267,4391.51,-3214.32,8137.86,-0.264121,0.129398,0.2678,4521.38,3075.64,7942.08,-0.984835,-0.725718,-0.975979,-326.111,9626.43,-1567.43,-2.09458,1.85968,-1.27035,299.946,-9853.25,-719.457,-0.928928,0.0284588,1.28142,-2071.66,9125.19,-2358.55,-1.3592,5.11459,1.3875,-3532.49,-9201.98,-1199.64,-3.60857,2.48256,-0.490875,8907.26,1173.71,4096.03,-1.91185,3.23514,0.678409
0.268,4387.66,-3231.28,8121.22,-0.278988,0.151472,0.293704,4472.06,3074.31,7980.54,-0.912843,-0.657384,-0.865047,-348.744,9627.97,-1571.95,-2.08167,1.87885,-1.21141,315.845,-9860.46,-724.163,-0.870823,0.0860381,1.28142,-2057.59,9141.78,-2354.36,-1.37318,5.16378,1.29841,-3543.38,-9182.42,-1224.82,-3.66314,2.45039,-0.499018,8907.62,1165.95,4109.64,-1.89781,3.23521,0.636861
0.269,4383.8,-3248.25,8104.58,-0.293856,0.173546,0.319609,4422.74,3072.99,8019.0,-0.840851,-0.58905,-0.754115,-371.377,9629.52,-1576.46,-2.06876,1.89802,-1.15248,331.744,-9867.68,-728.869,-0.812718,0.143617,1.28142,-2043.51,9158.36,-2350.16,-1.38717,5.21296,1.20931,-3554.28,-9162.86,-1250.0,-3.7177,2.41822,-0.507162,8907.97,1158.2,4123.25,-1.88378,3.2353,0.595312
0.27,4379.95,-3265.21,8087.93,-0.308723,0.19562,0.345513,4373.42,3071.67,8057.46,-0.768859,-0.520715,-0.643184,-394.01,9631.06,-1580.98,-2.05585,1.91719,-1.09354,347.642,-9874.89,-733.574,-0.754614,0.201197,1.28142,-2029.43,9174.95,-2345.96,-1.40116,5.26215,1.12021,-3565.18,-9143.31,-1275.18,-3.77227,2.38606,-0.515306,8908.33,1150.44,4136.86,-1.86974,3.23537,0.553764
0.271,4376.09,-3282.18,8071.29,-0.32359,0.217694,0.371417,4324.1,3070.34,8095.93,-0.696867,-0.452381,-0.532252,-416.643,9632.6,-1585.5,-2.04294,1.93636,-1.03461,363.541,-9882.11,-738.28,-0.696509,0.258776,1.28142,-2015.36,9191.53,-2341.77,-1.41515,5.31134,1.03112,-3576.07,-9123.75,-1300.36,-3.82683,2.35389,-0.523449,8908.68,1142.68,4150.47,-1.85571,3.23545,0.512216
0.272,4384.23,-3247.57,8079.12,-0.27416,0.331118,0.40072,4338.62,3084.6,8097.01,-0.685338,-0.568913,-0.548388,-421.897,9637.66,-1600.54,-2.143,1.91484,-1.01518,369.486,-9888.65,-748.629,-0.722898,0.261452,1.26449,-2022.31,9197.68,-2325.79,-1.45268,5.32739,0.990376,-3568.78,-9147.31,-1304.57,-3.77459,2.25593,-0.565931,8903.62,1155.14,4146.4,-1.88028,3.22683,0.532599
0.273,4393.87,-3206.52,8090.01,-0.216691,0.455961,0.430447,4361.12,3100.81,8093.41,-0.681368,-0.708554,-0.580408,-424.979,9643.16,-1616.89,-2.25719,1.88825,-1.00068,374.187,-9895.11,-759.684,-0.759849,0.257265,1.24543,-2031.9,9202.52,-2308.34,-1.49316,5.33931,0.955681,-3559.21,-9176.25,-1306.16,-3.70901,2.14975,-0.612706,8897.89,1170.13,4140.13,-1.90967,3.21711,0.560723
0.274,4403.52,-3165.46,8100.89,-0.159223,0.580803,0.460175,4383.61,3117.01,8089.82,-0.677397,-0.848195,-0.612427,-428.06,9648.66,-1633.24,-2.37137,1.86165,-0.986192,378.887,-9901.56,-770.738,-0.7968,0.253078,1.22638,-2041.48,9207.36,-2290.89,-1.53363,5.35122,0.920986,-3549.65,-9205.19,-1307.76,-3.64342,2.04357,-0.65948,8892.16,1185.11,4133.85,-1.93907,3.20739,0.588848
0.275,4413.16,-3124.41,8111.78,-0.101755,0.705646,0.489902,4406.11,3133.22,8086.23,-0.673426,-0.987835,-0.644446,-431.141,9654.16,-1649.6,-2.48556,1.83505,-0.971699,383.588,-9908.02,-781.793,-0.833752,0.248891,1.20733,-2051.06,9212.2,-2273.44,-1.57411,5.36314,0.886291,-3540.08,-9234.13,-1309.35,-3.57783,1.93739,-0.706254,8886.43,1200.1,4127.57,-1.96847,3.19768,0.616972
0.276,4426.35,-3106.96,8123.42,-0.0731614,0.723292,0.549631,4427.47,3147.19,8071.23,-0.665364,-1.03943,-0.616286,-439.203,9655.64,-1653.89,-2.53493,1.7908,-0.961051,383.078,-9909.55,-792.762,-0.849805,0.260758,1.18976,-2065.74,9218.52,-2266.16,-1.5773,5.35512,0.855985,-3542.0,-9232.5,-1311.06,-3.61434,1.90614,-0.722169,8884.21,1204.88,4118.52,-1.9478,3.24572,0.686047
0.277,4443.99,-3119.03,8136.0,-0.0806603,0.606942,0.646861,4447.4,3158.38,8041.96,-0.652188,-0.980962,-0.512901,-453.49,9652.11,-1643.1,-2.50327,1.72447,-0.95521,376.053,-9904.94,-803.625,-0.839737,0.292692,1.17403,-2086.8,9226.68,-2271.59,-1.53387,5.32219,0.831165,-3558.28,-9192.66,-1312.92,-3.77845,1.96857,-0.699511,8886.39,1196.9,4106.0,-1.86454,3.36598,0.80631
0.278,4461.62,-3131.09,8148.58,-0.0881591,0.490592,0.744092,4467.33,3169.56,8012.69,-0.639012,-0.922496,-0.409516,-467.777,9648.57,-1632.32,-2.47161,1.65815,-0.949368,369.029,-9900.32,-814.489,-0.829669,0.324626,1.15829,-2107.85,9234.84,-2277.02,-1.49045,5.28926,0.806345,-3574.55,-9152.82,-1314.77,-3.94257,2.03099,-0.676852,8888.57,1188.91,4093.48,-1.78129,3.48623,0.926573
0.279,4479.25,-3143.15,8161.17,-0.095658,0.374242,0.841323,4487.27,3180.75,7983.42,-0.625837,-0.86403,-0.306131,-482.064,9645.03,-1621.53,-2.43996,1.59182,-0.943527,362.005,-9895.7,-825.352,-0.819601,0.35656,1.14256,-2128.9,9243.01,-2282.45,-1.44703,5.25633,0.781525,-3590.83,-9112.98,-1316.63,-4.10669,2.09342,-0.654193,8890.74,1180.93,4080.95,-1.69803,3.60648,1.04684
0.28,4496.89,-3155.21,8173.75,-0.103157,0.257892,0.938554,4507.2,3191.93,7954.16,-0.612661,-0.805564,-0.202746,-496.351,9641.49,-1610.75,-2.4083,1.5255,-0.937686,354.981,-9891.09,-836.215,-0.809533,0.388493,1.12683,-2149.95,9251.17,-2287.87,-1.4036,5.2234,0.756705,-3607.11,-9073.14,-1318.49,-4.2708,2.15584,-0.631534,8892.92,1172.95,4068.43,-1.61477,3.72674,1.1671
0.281,4462.46,-3159.43,8166.0,-0.0912805,0.218001,0.871732,4483.98,3189.24,7960.24,-0.731772,-0.869276,-0.317981,-497.996,9630.4,-1594.62,-2.34181,1.49087,-0.835925,340.733,-9883.74,-837.198,-0.818668,0.397189,1.15631,-2142.95,9233.32,-2283.29,-1.26784,5.20405,0.573751,-3626.22,-9081.54,-1309.3,-4.33006,2.1502,-0.543087,8899.63,1152.1,4068.6,-1.53152,3.71197,1.23951
0.282,4428.03,-3163.65,8158.25,-0.0794041,0.178109,0.804911,4460.77,3186.54,7966.33,-0.850883,-0.932988,-0.433217,-499.64,9619.31,-1578.5,-2.27532,1.45624,-0.734165,326.485,-9876.4,-838.181,-0.827803,0.405884,1.18579,-2135.96,9215.46,-2278.7,-1.13209,5.1847,0.390798,-3645.33,-9089.94,-1300.12,-4.38932,2.14455,-0.454641,8906.33,1131.24,4068.77,-1.44826,3.6972,1.31192
0.283,4393.6,-3167.87,8150.51,-0.0675277,0.138218,0.738089,4437.55,3183.85,7972.42,-0.969994,-0.9967,-0.548452,-501.285,9608.23,-1562.38,-2.20883,1.4216,-0.632404,312.236,-9869.06,-839.164,-0.836938,0.41458,1.21526,-2128.97,9197.6,-2274.11,-0.996329,5.16536,0.207845,-3664.45,-9098.34,-1290.94,-4.44858,2.13891,-0.366194,8913.04,1110.38,4068.94,-1.365,3.68243,1.38434
0.284,4359.17,-3172.09,8142.76,-0.0556513,0.0983262,0.671267,4414.34,3181.15,7978.5,-1.08911,-1.06041,-0.663688,-502.93,9597.14,-1546.26,-2.14234,1.38697,-0.530644,297.988,-9861.71,-840.146,-0.846073,0.423275,1.24474,-2121.97,9179.74,-2269.53,-0.860572,5.14601,0.0248914,-3683.56,-9106.74,-1281.75,-4.50784,2.13327,-0.277748,8919.74,1089.53,4069.11,-1.28175,3.66766,1.45675
0.285,4347.63,-3169.42,8145.45,-0.0715062,0.12485,0.588271,4398.32,3167.61,7981.34,-1.07713,-0.985583,-0.717071,-492.632,9588.83,-1539.18,-2.15152,1.33516,-0.438966,291.149,-9855.73,-839.864,-0.885926,0.430238,1.26246,-2121.27,9166.72,-2263.15,-0.728089,5.0737,-0.0736542,-3691.32,-9108.58,-1280.12,-4.50618,2.0662,-0.307791,8920.85,1085.05,4075.02,-1.22644,3.65389,1.46852
0.286,4354.39,-3161.23,8156.5,-0.109546,0.204506,0.492334,4388.06,3145.4,7981.58,-0.960283,-0.799921,-0.720972,-472.781,9582.74,-1539.34,-2.22124,1.2696,-0.355353,290.236,-9850.84,-838.57,-0.950353,0.435814,1.27076,-2125.62,9157.56,-2255.34,-0.598226,4.95902,-0.104674,-3690.01,-9105.18,-1284.51,-4.4558,1.94998,-0.432626,8917.49,1093.68,4085.53,-1.19351,3.64093,1.43177
0.287,4361.15,-3153.04,8167.55,-0.147586,0.284161,0.396397,4377.81,3123.19,7981.82,-0.843436,-0.61426,-0.724872,-452.929,9576.65,-1539.5,-2.29095,1.20404,-0.271741,289.323,-9845.96,-837.276,-1.01478,0.441391,1.27906,-2129.96,9148.4,-2247.53,-0.468363,4.84434,-0.135693,-3688.69,-9101.78,-1288.91,-4.40541,1.83376,-0.557461,8914.13,1102.3,4096.04,-1.16057,3.62797,1.39501
0.288,4367.91,-3144.86,8178.59,-0.185626,0.363817,0.30046,4367.55,3100.98,7982.06,-0.72659,-0.428598,-0.728773,-433.078,9570.57,-1539.65,-2.36067,1.13847,-0.188129,288.41,-9841.07,-835.982,-1.07921,0.446967,1.28737,-2134.3,9139.24,-2239.72,-0.338499,4.72967,-0.166712,-3687.37,-9098.38,-1293.31,-4.35502,1.71755,-0.682296,8910.76,1110.93,4106.54,-1.12764,3.61501,1.35826
0.289,4376.62,-3136.79,8183.65,-0.20881,0.428333,0.220374,4356.75,3078.7,7984.04,-0.626925,-0.260069,-0.735248,-418.096,9566.1,-1540.15,-2.41733,1.07557,-0.115539,287.902,-9837.85,-833.683,-1.13555,0.45153,1.29422,-2136.66,9133.95,-2232.62,-0.234372,4.62492,-0.18646,-3682.99,-9096.87,-1300.07,-4.30977,1.62133,-0.79355,8906.82,1118.67,4115.05,-1.08793,3.59982,1.32618
0.29,4400.96,-3129.71,8140.74,-0.113144,0.371732,0.267093,4341.66,3055.88,7999.97,-0.664716,-0.228612,-0.762321,-442.07,9574.59,-1543.37,-2.36953,1.03388,-0.131121,290.629,-9848.0,-823.336,-1.12723,0.447988,1.28944,-2123.14,9159.6,-2231.23,-0.33613,4.59967,-0.116031,-3654.04,-9110.55,-1325.71,-4.30558,1.68509,-0.796161,8898.19,1119.27,4107.52,-0.994063,3.5668,1.33145
0.291,4425.29,-3122.63,8097.84,-0.0174786,0.31513,0.313812,4326.57,3033.05,8015.91,-0.702508,-0.197155,-0.789395,-466.045,9583.09,-1546.6,-2.32174,0.992186,-0.146702,293.356,-9858.16,-812.989,-1.11891,0.444447,1.28466,-2109.63,9185.25,-2229.84,-0.437888,4.57441,-0.0456022,-3625.09,-9124.22,-1351.36,-4.30139,1.74885,-0.798772,8889.56,1119.87,4100.0,-0.900196,3.53378,1.33672
0.292,4449.63,-3115.55,8054.94,0.078187,0.258529,0.360531,4311.47,3010.23,8031.84,-0.7403,-0.165698,-0.816468,-490.019,9591.58,-1549.82,-2.27394,0.950495,-0.162284,296.083,-9868.31,-802.642,-1.11059,0.440905,1.27989,-2096.12,9210.91,-2228.46,-0.539647,4.54916,0.0248265,-3596.15,-9137.9,-1377.0,-4.29719,1.81261,-0.801383,8880.93,1120.47,4092.48,-0.806328,3.50076,1.34199
0.293,4473.96,-3108.47,8012.04,0.173853,0.201927,0.40725,4296.38,2987.41,8047.77,-0.778091,-0.13424,-0.843541,-513.994,9600.07,-1553.04,-2.22614,0.908804,-0.177866,298.81,-9878.46,-792.295,-1.10227,0.437363,1.27511,-2082.61,9236.56,-2227.07,-0.641405,4.5239,0.0952552,-3567.2,-9151.58,-1402.65,-4.293,1.87637,-0.803994,8872.3,1121.07,4084.95,-0.712461,3.46774,1.34725
0.294,4469.9,-3114.61,8008.56,0.211665,0.184856,0.442122,4289.07,3003.17,8048.95,-0.827492,-0.187229,-0.8073,-527.152,9604.24,-1552.05,-2.21916,0.854563,-0.191426,295.78,-9878.05,-784.723,-1.05864,0.405277,1.27172,-2072.37,9223.18,-2217.64,-0.647293,4.50786,0.0826588,-3564.45,-9152.11,-1409.02,-4.35076,1.81986,-0.80319,8883.23,1121.0,4077.01,-0.573627,3.47299,1.36054
0.295,4451.63,-3127.37,8024.79,0.22055,0.18755,0.471071,4285.64,3038.21,8042.75,-0.882698,-0.282442,-0.739401,-534.903,9606.26,-1548.96,-2.23259,0.794046,-0.203975,289.872,-9872.37,-778.537,-0.997343,0.35892,1.26902,-2063.77,9190.29,-2204.18,-0.605245,4.49643,0.0285497,-3574.8,-9146.09,-1405.75,-4.4395,1.70323,-0.80068,8903.94,1120.6,4068.85,-0.41231,3.49738,1.37785
0.296,4433.37,-3140.12,8041.03,0.229436,0.190244,0.50002,4282.21,3073.26,8036.54,-0.937905,-0.377654,-0.671503,-542.653,9608.27,-1545.87,-2.24601,0.733529,-0.216523,283.963,-9866.68,-772.352,-0.936051,0.312563,1.26632,-2055.17,9157.4,-2190.73,-0.563198,4.485,-0.0255593,-3585.15,-9140.06,-1402.48,-4.52823,1.58659,-0.798169,8924.65,1120.2,4060.7,-0.250992,3.52177,1.39515
0.297,4415.11,-3152.88,8057.26,0.238321,0.192938,0.528968,4278.79,3108.31,8030.34,-0.993111,-0.472866,-0.603604,-550.404,9610.28,-1542.78,-2.25944,0.673013,-0.229072,278.055,-9860.99,-766.167,-0.874758,0.266205,1.26362,-2046.57,9124.51,-2177.27,-0.52115,4.47357,-0.0796684,-3595.5,-9134.03,-1399.21,-4.61696,1.46995,-0.795659,8945.37,1119.81,4052.54,-0.0896751,3.54616,1.41245
0.298,4398.09,-3165.89,8074.59,0.23297,0.197486,0.530112,4285.91,3135.84,8032.19,-1.02693,-0.553082,-0.587241,-550.208,9610.27,-1536.72,-2.27146,0.608845,-0.23785,274.754,-9854.86,-762.359,-0.832494,0.218853,1.26741,-2043.67,9102.84,-2168.62,-0.503339,4.45904,-0.129949,-3608.33,-9133.84,-1387.97,-4.69955,1.36929,-0.777692,8961.24,1122.49,4050.82,0.0669125,3.55925,1.42478
0.299,4385.45,-3179.8,8095.74,0.177793,0.208521,0.433941,4329.94,3137.07,8062.25,-0.985888,-0.580812,-0.751251,-522.199,9603.2,-1520.28,-2.27854,0.5319,-0.233432,280.579,-9847.22,-766.872,-0.856833,0.16802,1.29391,-2060.7,9120.45,-2176.79,-0.570351,4.43365,-0.166831,-3629.84,-9154.08,-1348.87,-4.76061,1.32456,-0.705629,8960.16,1135.95,4071.6,0.206946,3.53281,1.41973
0.3,4372.8,-3193.71,8116.9,0.122616,0.219557,0.337769,4373.98,3138.3,8092.3,-0.944847,-0.608541,-0.915261,-494.189,9596.13,-1503.84,-2.28563,0.454956,-0.229014,286.405,-9839.57,-771.385,-0.881171,0.117186,1.3204,-2077.74,9138.05,-2184.95,-0.637364,4.40826,-0.203712,-3651.34,-9174.33,-1309.76,-4.82167,1.27982,-0.633565,8959.09,1149.41,4092.38,0.346979,3.50637,1.41468
0.301,4360.16,-3207.62,8138.05,0.0674388,0.230592,0.241597,4418.02,3139.53,8122.36,-0.903806,-0.63627,-1.07927,-466.18,9589.06,-1487.4,-2.29272,0.378011,-0.224596,292.23,-9831.93,-775.898,-0.905509,0.0663518,1.3469,-2094.77,9155.66,-2193.12,-0.704377,4.38288,-0.240594,-3672.84,-9194.58,-1270.66,-4.88273,1.23509,-0.561502,8958.02,1162.87,4113.16,0.487013,3.47993,1.40963
0.302,4347.51,-3221.52,8159.21,0.0122616,0.241628,0.145425,4462.05,3140.75,8152.41,-0.862765,-0.664,-1.24328,-438.171,9581.99,-1470.96,-2.2998,0.301066,-0.220178,298.056,-9824.28,-780.41,-0.929848,0.015518,1.37339,-2111.81,9173.27,-2201.28,-0.771389,4.35749,-0.277476,-3694.34,-9214.82,-1231.55,-4.94379,1.19035,-0.489439,8956.94,1176.33,4133.94,0.627046,3.45349,1.40458
0.303,4360.3,-3204.12,8160.54,0.0115847,0.253348,0.180316,4445.5,3132.69,8141.49,-0.821068,-0.617085,-1.19551,-428.981,9590.03,-1466.33,-2.28227,0.245346,-0.197052,290.58,-9825.63,-794.389,-0.979342,0.0342504,1.33625,-2116.84,9181.63,-2225.33,-0.725647,4.32125,-0.289072,-3693.67,-9199.42,-1238.52,-5.00127,1.11036,-0.434106,8942.21,1178.08,4154.65,0.657589,3.45582,1.40346
0.304,4380.36,-3177.77,8156.2,0.0264793,0.265263,0.252655,4411.65,3121.96,8118.87,-0.779183,-0.548844,-1.08723,-425.168,9602.38,-1465.07,-2.25771,0.19569,-0.168581,279.303,-9829.56,-811.072,-1.03602,0.0728589,1.28093,-2118.44,9187.34,-2253.92,-0.64769,4.28191,-0.293443,-3686.67,-9173.84,-1258.65,-5.05774,1.0203,-0.383553,8923.56,1176.49,4175.35,0.656849,3.46636,1.40346
0.305,4400.41,-3151.41,8151.86,0.0413738,0.277179,0.324994,4377.79,3111.24,8096.24,-0.737298,-0.480602,-0.978949,-421.355,9614.74,-1463.81,-2.23315,0.146034,-0.140109,268.027,-9833.48,-827.755,-1.0927,0.111467,1.2256,-2120.04,9193.06,-2282.5,-0.569733,4.24256,-0.297814,-3679.66,-9148.26,-1278.77,-5.1142,0.930232,-0.333,8904.92,1174.9,4196.04,0.656109,3.47691,1.40346
0.306,4420.47,-3125.06,8147.51,0.0562684,0.289095,0.397332,4343.94,3100.52,8073.62,-0.695413,-0.41236,-0.870669,-417.542,9627.1,-1462.55,-2.20859,0.0963778,-0.111638,256.75,-9837.41,-844.439,-1.14939,0.150076,1.17028,-2121.64,9198.78,-2311.09,-0.491776,4.20322,-0.302186,-3672.66,-9122.67,-1298.9,-5.17067,0.840167,-0.282447,8886.28,1173.31,4216.74,0.655368,3.48745,1.40346
0.307,4434.57,-3105.19,8146.42,0.0841158,0.30513,0.467059,4334.78,3093.62,8056.52,-0.646039,-0.371771,-0.830222,-418.883,9637.24,-1463.42,-2.20396,0.0766072,-0.106103,246.199,-9840.58,-856.002,-1.18269,0.190043,1.117,-2119.52,9204.49,-2326.18,-0.446049,4.17492,-0.332564,-3672.81,-9110.45,-1309.54,-5.20265,0.761178,-0.273866,8873.42,1171.36,4222.61,0.671267,3.46593,1.43082
0.308,4436.77,-3098.28,8151.8,0.137869,0.329404,0.531562,4375.01,3094.39,8050.5,-0.581689,-0.386485,-0.925442,-430.534,9642.96,-1468.55,-2.23922,0.116608,-0.146442,237.099,-9842.23,-857.325,-1.16923,0.232727,1.06779,-2109.96,9210.19,-2314.27,-0.464781,4.1687,-0.414957,-3687.3,-9124.96,-1301.21,-5.18569,0.704342,-0.34923,8872.11,1168.69,4198.84,0.720445,3.38028,1.5129
0.309,4438.98,-3091.37,8157.19,0.191622,0.353679,0.596066,4415.25,3095.16,8044.48,-0.517338,-0.401199,-1.02066,-442.184,9648.68,-1473.69,-2.27447,0.156608,-0.186781,228.0,-9843.88,-858.649,-1.15578,0.275411,1.01858,-2100.4,9215.9,-2302.36,-0.483513,4.16249,-0.497351,-3701.79,-9139.47,-1292.88,-5.16872,0.647507,-0.424594,8870.81,1166.01,4175.06,0.769622,3.29462,1.59498
0.31,4441.18,-3084.45,8162.58,0.245375,0.377953,0.660569,4455.49,3095.93,8038.45,-0.452987,-0.415913,-1.11588,-453.835,9654.4,-1478.82,-2.30972,0.196608,-0.22712,218.9,-9845.54,-859.972,-1.14232,0.318094,0.969375,-2090.84,9221.6,-2290.45,-0.502246,4.15627,-0.579744,-3716.27,-9153.99,-1284.55,-5.15175,0.590671,-0.499958,8869.5,1163.34,4151.29,0.8188,3.20896,1.67706
0.311,4443.39,-3077.54,8167.97,0.299127,0.402227,0.725073,4495.72,3096.71,8032.43,-0.388637,-0.430627,-1.2111,-465.486,9660.12,-1483.95,-2.34497,0.236609,-0.26746,209.8,-9847.19,-861.295,-1.12887,0.360778,0.920168,-2081.27,9227.31,-2278.54,-0.520978,4.15005,-0.662137,-3730.76,-9168.5,-1276.22,-5.13479,0.533836,-0.575322,8868.2,1160.66,4127.52,0.867977,3.12331,1.75913
0.312,4427.35,-3090.89,8140.56,0.261583,0.351249,0.726438,4490.65,3084.89,8046.59,-0.519779,-0.480417,-1.23109,-465.327,9655.42,-1487.43,-2.27478,0.210186,-0.37077,221.258,-9846.34,-863.516,-1.10997,0.308616,0.947437,-2078.84,9226.27,-2283.87,-0.51772,4.11767,-0.820805,-3740.33,-9152.4,-1265.73,-5.19443,0.348591,-0.638689,8870.63,1177.17,4115.89,0.823853,3.06462,1.731
0.313,4409.04,-3106.77,8109.06,0.212627,0.290863,0.71991,4479.9,3071.5,8063.27,-0.675358,-0.534591,-1.24167,-463.691,9649.42,-1490.7,-2.19141,0.17546,-0.481951,235.286,-9845.18,-865.849,-1.09039,0.244598,0.984266,-2077.31,9224.4,-2291.36,-0.511714,4.08202,-0.989007,-3749.28,-9132.47,-1254.97,-5.26365,0.147295,-0.700557,8873.53,1196.07,4105.78,0.768065,3.0093,1.68909
0.314,4390.72,-3122.65,8077.55,0.16367,0.230478,0.713383,4469.16,3058.1,8079.96,-0.830938,-0.588765,-1.25225,-462.056,9643.42,-1493.97,-2.10803,0.140735,-0.593133,249.314,-9844.02,-868.182,-1.07081,0.180581,1.02109,-2075.77,9222.52,-2298.85,-0.505707,4.04637,-1.15721,-3758.23,-9112.54,-1244.21,-5.33288,-0.0540006,-0.762425,8876.42,1214.97,4095.68,0.712278,2.95399,1.64718
0.315,4372.41,-3138.53,8046.05,0.114713,0.170093,0.706855,4458.42,3044.71,8096.64,-0.986517,-0.642938,-1.26284,-460.421,9637.43,-1497.24,-2.02466,0.106009,-0.704314,263.342,-9842.85,-870.515,-1.05123,0.116563,1.05792,-2074.23,9220.65,-2306.34,-0.4997,4.01072,-1.32541,-3767.18,-9092.61,-1233.45,-5.4021,-0.255296,-0.824293,8879.32,1233.88,4085.57,0.65649,2.89867,1.60527
0.316,4363.3,-3145.55,8031.34,0.0328825,0.135142,0.707551,4434.74,3041.86,8102.87,-0.990298,-0.677311,-1.22751,-459.583,9635.4,-1506.64,-1.93916,0.0475355,-0.771068,269.927,-9852.48,-872.875,-1.06276,0.0606936,1.09536,-2060.41,9218.16,-2299.92,-0.452887,3.98312,-1.38687,-3769.94,-9089.56,-1222.24,-5.46105,-0.430981,-0.831118,8885.68,1243.02,4082.53,0.630763,2.93069,1.55576
0.317,4365.71,-3141.48,8037.62,-0.0900415,0.131983,0.717275,4394.88,3052.19,8096.01,-0.804331,-0.686932,-1.13479,-459.74,9638.35,-1523.69,-1.851,-0.0406234,-0.782285,267.209,-9875.57,-875.269,-1.11319,0.0150102,1.13357,-2031.22,9214.9,-2276.09,-0.355064,3.96558,-1.31488,-3764.97,-9107.6,-1210.48,-5.50717,-0.574651,-0.769138,8896.38,1239.95,4088.33,0.642611,3.07189,1.49677
0.318,4368.12,-3137.41,8043.9,-0.212966,0.128824,0.726999,4355.02,3062.52,8089.16,-0.618364,-0.696552,-1.04207,-459.898,9641.3,-1540.74,-1.76284,-0.128782,-0.793503,264.491,-9898.67,-877.664,-1.16361,-0.0306732,1.17178,-2002.04,9211.64,-2252.27,-0.257242,3.94805,-1.2429,-3760.0,-9125.65,-1198.72,-5.55329,-0.71832,-0.707159,8907.07,1236.89,4094.12,0.654459,3.21309,1.43778
0.319,4370.52,-3133.34,8050.19,-0.335889,0.125664,0.736724,4315.17,3072.85,8082.31,-0.432397,-0.706173,-0.949349,-460.056,9644.25,-1557.79,-1.67468,-0.216941,-0.804721,261.772,-9921.77,-880.058,-1.21403,-0.0763566,1.20999,-1972.85,9208.38,-2228.44,-0.15942,3.93051,-1.17092,-3755.03,-9143.69,-1186.96,-5.5994,-0.86199,-0.645179,8917.76,1233.83,4099.92,0.666307,3.35428,1.37878
