Time,RFoot_accel.x,RFoot_accel.y,RFoot_accel.z,RFoot_gyro.x,RFoot_gyro.y,RFoot_gyro.z,LFoot_accel.x,LFoot_accel.y,LFoot_accel.z,LFoot_gyro.x,LFoot_gyro.y,LFoot_gyro.z,RShank_accel.x,RShank_accel.y,RShank_accel.z,RShank_gyro.x,RShank_gyro.y,RShank_gyro.z,LShank_accel.x,LShank_accel.y,LShank_accel.z,LShank_gyro.x,LShank_gyro.y,LShank_gyro.z,RThigh_accel.x,RThigh_accel.y,RThigh_accel.z,RThigh_gyro.x,RThigh_gyro.y,RThigh_gyro.z,LThigh_accel.x,LThigh_accel.y,LThigh_accel.z,LThigh_gyro.x,LThigh_gyro.y,LThigh_gyro.z,Pelvis_accel.x,Pelvis_accel.y,Pelvis_accel.z,Pelvis_gyro.x,Pelvis_gyro.y,Pelvis_gyro.z
0.0,4955.1,-1454.78,8278.84,0.0114172,-0.148808,-0.0153512,4796.36,322.448,8462.39,0.199406,-2.02239,0.397698,-116.748,9687.4,-1457.57,-3.25343,-2.60449,1.39764,791.456,-9880.52,-1781.76,-3.03979,9.64613,0.481916,-935.025,9634.63,-349.195,-1.73893,-0.218275,5.72405,615.353,-9782.57,-2348.25,-1.50437,2.40501,-5.00601,9219.5,-1229.37,3018.75,-0.877468,-2.51585,3.86928
0.001,4952.81,-1452.15,8289.61,0.0320265,-0.0812728,0.0856363,4799.56,318.942,8453.64,0.190469,-2.05343,0.289814,-123.459,9688.7,-1464.48,-3.26815,-2.58977,1.43826,803.312,-9862.08,-1748.33,-3.023,9.57892,0.42026,-940.142,9642.55,-346.38,-1.84193,-0.239951,5.8072,620.582,-9770.8,-2329.73,-1.42415,2.35825,-5.1152,9217.37,-1228.37,3015.07,-0.800889,-2.54021,3.8719
0.002,4950.52,-1449.53,8300.39,0.0526357,-0.0137372,0.186624,4802.77,315.435,8444.9,0.181531,-2.08447,0.18193,-130.17,9690.0,-1471.39,-3.28287,-2.57505,1.47888,815.167,-9843.63,-1714.9,-3.0062,9.51171,0.358604,-945.26,9650.48,-343.564,-1.94493,-0.261628,5.89035,625.81,-9759.03,-2311.21,-1.34394,2.31149,-5.2244,9215.24,-1227.36,3011.38,-0.72431,-2.56456,3.87452
0.003,4948.23,-1446.9,8311.16,0.073245,0.0537985,0.287611,4805.98,311.928,8436.15,0.172594,-2.11551,0.0740468,-136.882,9691.31,-1478.3,-3.29759,-2.56033,1.5195,827.023,-9825.17,-1681.47,-2.98941,9.4445,0.296948,-950.377,9658.4,-340.749,-2.04794,-0.283305,5.9735,631.039,-9747.26,-2292.69,-1.26372,2.26474,-5.33359,9213.12,-1226.36,3007.69,-0.64773,-2.58892,3.87714
0.004,4945.95,-1444.28,8321.94,0.0938543,0.121334,0.388599,4809.19,308.421,8427.4,0.163656,-2.14655,-0.0338368,-143.593,9692.61,-1485.21,-3.3123,-2.54562,1.56012,838.878,-9806.73,-1648.04,-2.97261,9.37729,0.235292,-955.494,9666.33,-337.933,-2.15094,-0.304981,6.05665,636.268,-9735.49,-2274.16,-1.1835,2.21798,-5.44279,9210.99,-1225.35,3004.0,-0.571151,-2.61327,3.87975
0.005,4944.07,-1442.08,8330.94,0.0842535,0.11892,0.439445,4816.57,297.234,8414.27,0.136449,-2.08209,-0.0704444,-135.632,9691.74,-1485.89,-3.34507,-2.60991,1.56212,854.272,-9790.79,-1640.17,-2.9513,9.31631,0.231958,-955.154,9668.61,-336.93,-2.21683,-0.339661,6.07881,651.666,-9727.07,-2274.24,-1.14968,2.15861,-5.51594,9219.88,-1233.77,2997.43,-0.532258,-2.62999,3.92128
0.006,4942.53,-1440.23,8338.52,0.0504849,0.0605462,0.450178,4827.28,279.902,8397.63,0.0946262,-1.94123,-0.0500312,-115.934,9689.13,-1481.58,-3.39228,-2.7374,1.53322,872.497,-9776.86,-1652.77,-2.92636,9.26031,0.27528,-950.447,9666.39,-337.376,-2.25304,-0.384742,6.0522,675.2,-9721.32,-2289.19,-1.15298,2.08915,-5.56027,9237.59,-1249.73,2988.56,-0.523514,-2.6406,3.99393
0.007,4940.99,-1438.38,8346.1,0.0167162,0.00217246,0.460911,4837.99,262.57,8380.99,0.0528031,-1.80036,-0.029618,-96.2351,9686.51,-1477.27,-3.43948,-2.8649,1.50432,890.722,-9762.93,-1665.36,-2.90142,9.20431,0.318602,-945.741,9664.16,-337.823,-2.28924,-0.429823,6.02558,698.734,-9715.58,-2304.14,-1.15628,2.01969,-5.60459,9255.3,-1265.69,2979.68,-0.51477,-2.65122,4.06658
0.008,4939.45,-1436.53,8353.68,-0.0170525,-0.0562013,0.471644,4848.7,245.237,8364.35,0.01098,-1.6595,-0.00920481,-76.5367,9683.9,-1472.96,-3.48668,-2.9924,1.47543,908.947,-9749.0,-1677.96,-2.87649,9.1483,0.361924,-941.034,9661.93,-338.269,-2.32544,-0.474905,5.99896,722.268,-9709.83,-2319.09,-1.15958,1.95023,-5.64892,9273.01,-1281.65,2970.81,-0.506026,-2.66183,4.13923
0.009,4939.11,-1438.26,8359.19,-0.0441767,-0.106338,0.478312,4856.21,231.028,8350.99,-0.027156,-1.53146,0.00611342,-59.4411,9679.75,-1469.45,-3.53372,-3.10431,1.44158,922.898,-9739.42,-1688.46,-2.85165,9.09119,0.406875,-935.576,9660.14,-337.968,-2.36275,-0.5131,5.97888,742.035,-9706.28,-2334.28,-1.17023,1.87982,-5.68571,9290.62,-1296.2,2962.21,-0.484135,-2.67388,4.21709
0.01,4948.4,-1468.66,8348.18,-0.0181446,-0.0905779,0.452456,4838.09,241.804,8363.86,-0.0357954,-1.50606,-0.0193282,-63.1682,9663.3,-1472.32,-3.57944,-3.09153,1.36807,902.65,-9764.62,-1682.25,-2.82765,9.02518,0.464856,-924.102,9661.82,-331.686,-2.40893,-0.496205,6.01108,731.664,-9720.28,-2351.39,-1.2397,1.80181,-5.66225,9307.45,-1299.45,2955.85,-0.357065,-2.69739,4.33665
0.011,4957.68,-1499.06,8337.18,0.00788743,-0.0748178,0.4266,4819.97,252.58,8376.73,-0.0444349,-1.48067,-0.0447698,-66.8953,9646.86,-1475.18,-3.62515,-3.07875,1.29456,882.403,-9789.83,-1676.03,-2.80364,8.95918,0.522836,-912.628,9663.5,-325.404,-2.4551,-0.47931,6.04327,721.294,-9734.28,-2368.51,-1.30916,1.72381,-5.63878,9324.29,-1302.71,2949.49,-0.229996,-2.7209,4.45621
0.012,4966.97,-1529.46,8326.17,0.0339195,-0.0590578,0.400744,4801.86,263.356,8389.59,-0.0530743,-1.45527,-0.0702115,-70.6225,9630.42,-1478.05,-3.67087,-3.06598,1.22105,862.155,-9815.03,-1669.81,-2.77964,8.89317,0.580817,-901.153,9665.19,-319.122,-2.50127,-0.462415,6.07547,710.924,-9748.28,-2385.63,-1.37862,1.64581,-5.61532,9341.12,-1305.97,2943.13,-0.102926,-2.74441,4.57577
0.013,4976.26,-1559.87,8315.17,0.0599515,-0.0432977,0.374888,4783.74,274.132,8402.46,-0.0617138,-1.42987,-0.0956531,-74.3496,9613.98,-1480.92,-3.71658,-3.0532,1.14755,841.908,-9840.24,-1663.59,-2.75563,8.82716,0.638798,-889.679,9666.87,-312.84,-2.54745,-0.44552,6.10767,700.553,-9762.29,-2402.75,-1.44808,1.5678,-5.59185,9357.96,-1309.23,2936.77,0.024143,-2.76791,4.69534
0.014,4973.89,-1568.69,8301.54,0.0902403,-0.0855207,0.305885,4783.35,280.036,8397.99,-0.107051,-1.43064,0.00662612,-61.2852,9610.24,-1481.59,-3.79308,-2.99748,1.01648,822.086,-9831.56,-1676.73,-2.7151,8.75425,0.637901,-880.286,9665.24,-311.539,-2.55032,-0.377928,6.18499,694.962,-9767.11,-2385.13,-1.50594,1.51525,-5.59921,9361.37,-1293.87,2945.02,0.0708821,-2.79537,4.72574
0.015,4965.69,-1566.73,8286.6,0.122657,-0.156735,0.215308,4791.83,283.505,8384.85,-0.170737,-1.44449,0.172766,-39.825,9612.85,-1481.16,-3.88497,-2.92028,0.856636,802.477,-9805.94,-1699.56,-2.66631,8.67788,0.607567,-871.933,9661.96,-312.729,-2.53153,-0.284986,6.28487,691.759,-9767.35,-2350.13,-1.55799,1.47542,-5.62198,9358.07,-1269.19,2960.56,0.0774558,-2.82481,4.71158
0.016,4957.5,-1564.77,8271.66,0.155075,-0.22795,0.124732,4800.31,286.973,8371.71,-0.234423,-1.45834,0.338905,-18.3649,9615.47,-1480.74,-3.97686,-2.84309,0.696792,782.867,-9780.32,-1722.38,-2.61752,8.60151,0.577232,-863.58,9658.68,-313.919,-2.51275,-0.192044,6.38476,688.557,-9767.58,-2315.14,-1.61004,1.43559,-5.64475,9354.76,-1244.52,2976.1,0.0840296,-2.85424,4.69741
0.017,4949.3,-1562.81,8256.73,0.187492,-0.299165,0.0341552,4808.79,290.441,8358.57,-0.298109,-1.47219,0.505045,3.09525,9618.08,-1480.31,-4.06875,-2.76589,0.536947,763.258,-9754.7,-1745.2,-2.56873,8.52515,0.546897,-855.227,9655.39,-315.109,-2.49396,-0.0991019,6.48464,685.355,-9767.82,-2280.14,-1.66209,1.39575,-5.66752,9351.46,-1219.85,2991.65,0.0906033,-2.88368,4.68324
0.018,4943.1,-1560.35,8246.72,0.240845,-0.366837,-0.0305954,4815.0,288.969,8351.87,-0.355021,-1.48794,0.62906,16.2137,9619.22,-1484.17,-4.1309,-2.70628,0.392073,749.032,-9736.71,-1758.09,-2.53146,8.44713,0.532493,-846.183,9652.24,-314.589,-2.47579,-0.0144682,6.55926,684.225,-9766.21,-2250.18,-1.70199,1.34592,-5.67505,9346.15,-1198.77,3001.88,0.0977009,-2.8959,4.65063
0.019,4943.86,-1556.18,8253.97,0.367476,-0.42211,-0.00495563,4813.27,270.207,8367.74,-0.388222,-1.51034,0.605639,0.135943,9615.2,-1503.03,-4.08897,-2.70825,0.299592,753.646,-9745.42,-1736.22,-2.53447,8.36335,0.573848,-834.719,9649.52,-308.086,-2.45976,0.0410866,6.54541,690.349,-9758.19,-2237.84,-1.69933,1.26109,-5.62924,9333.77,-1190.28,2993.54,0.106632,-2.8479,4.55349
0.02,4944.63,-1552.01,8261.21,0.494107,-0.477384,0.0206842,4811.54,251.445,8383.61,-0.421423,-1.53274,0.582217,-15.9418,9611.17,-1521.9,-4.04703,-2.71022,0.20711,758.26,-9754.12,-1714.35,-2.53749,8.27956,0.615203,-823.256,9646.81,-301.582,-2.44373,0.0966414,6.53157,696.472,-9750.16,-2225.5,-1.69667,1.17626,-5.58343,9321.4,-1181.79,2985.19,0.115563,-2.79991,4.45635
0.021,4945.4,-1547.84,8268.46,0.620738,-0.532658,0.046324,4809.81,232.682,8399.48,-0.454625,-1.55515,0.558796,-32.0195,9607.15,-1540.77,-4.00509,-2.71219,0.114629,762.875,-9762.83,-1692.48,-2.5405,8.19577,0.656558,-811.792,9644.09,-295.078,-2.42771,0.152196,6.51773,702.596,-9742.14,-2213.16,-1.69401,1.09143,-5.53761,9309.02,-1173.3,2976.85,0.124494,-2.75191,4.35921
0.022,4946.16,-1543.66,8275.71,0.747369,-0.587931,0.0719638,4808.09,213.92,8415.35,-0.487826,-1.57755,0.535374,-48.0972,9603.12,-1559.64,-3.96316,-2.71415,0.0221481,767.489,-9771.53,-1670.6,-2.54352,8.11198,0.697913,-800.329,9641.38,-288.575,-2.41168,0.207751,6.50388,708.72,-9734.11,-2200.82,-1.69135,1.0066,-5.4918,9296.65,-1164.81,2968.5,0.133425,-2.70391,4.26207
0.023,4939.49,-1548.38,8253.44,0.752266,-0.543853,0.0436839,4798.9,214.943,8423.19,-0.555041,-1.58749,0.492037,-36.3871,9600.29,-1561.6,-3.96694,-2.59903,0.0229152,780.32,-9764.63,-1663.85,-2.57726,7.87356,0.707503,-803.564,9638.16,-274.957,-2.41888,0.177701,6.51023,706.265,-9744.03,-2218.77,-1.6551,0.925621,-5.44434,9292.81,-1163.07,2960.03,0.140447,-2.66343,4.22084
0.024,4930.7,-1555.65,8222.73,0.722382,-0.471389,-1.57e-06,4787.59,221.619,8428.72,-0.631973,-1.59386,0.44301,-16.7377,9597.81,-1558.74,-3.98378,-2.45046,0.0503245,795.498,-9753.28,-1661.4,-2.61978,7.59096,0.708016,-810.998,9634.8,-259.307,-2.43272,0.123193,6.52234,701.359,-9759.08,-2245.37,-1.60926,0.845741,-5.39642,9291.41,-1163.26,2951.53,0.146924,-2.62511,4.1956
0.025,4921.9,-1562.91,8192.02,0.692499,-0.398925,-0.043687,4776.28,228.294,8434.26,-0.708906,-1.60023,0.393983,2.91178,9595.32,-1555.88,-4.00063,-2.30189,0.0777339,810.677,-9741.93,-1658.96,-2.66231,7.30836,0.70853,-818.433,9631.44,-243.658,-2.44657,0.0686852,6.53445,696.453,-9774.12,-2271.97,-1.56341,0.76586,-5.34849,9290.01,-1163.44,2943.02,0.1534,-2.58678,4.17036
0.026,4913.11,-1570.17,8161.32,0.662615,-0.326461,-0.0873725,4764.96,234.97,8439.8,-0.785839,-1.6066,0.344955,22.5612,9592.83,-1553.03,-4.01747,-2.15331,0.105143,825.855,-9730.57,-1656.52,-2.70483,7.02576,0.709043,-825.867,9628.07,-228.008,-2.46041,0.0141771,6.54657,691.548,-9789.16,-2298.57,-1.51757,0.68598,-5.30056,9288.61,-1163.63,2934.52,0.159877,-2.54845,4.14511
0.027,4903.48,-1566.35,8147.21,0.631863,-0.306895,-0.0826067,4765.5,239.302,8442.32,-0.829201,-1.58927,0.279757,31.0115,9594.76,-1543.17,-4.00506,-2.02695,0.106806,835.356,-9731.27,-1656.09,-2.71893,6.74328,0.743293,-830.606,9623.31,-216.617,-2.46765,-0.0298271,6.57509,687.053,-9795.05,-2316.14,-1.47768,0.635653,-5.28236,9290.08,-1169.12,2931.12,0.176258,-2.54568,4.12073
0.028,4892.18,-1540.37,8166.29,0.599376,-0.393128,0.0190616,4789.74,238.948,8438.79,-0.805423,-1.52454,0.182215,17.0633,9605.51,-1519.33,-3.93414,-1.945,0.0569752,833.502,-9756.08,-1659.67,-2.67618,6.46104,0.845014,-829.952,9615.74,-213.744,-2.46169,-0.0528234,6.63643,683.382,-9782.63,-2315.66,-1.44969,0.644434,-5.32363,9297.31,-1185.21,2937.95,0.212448,-2.61401,4.09807
0.029,4880.88,-1514.4,8185.38,0.566888,-0.47936,0.12073,4813.98,238.593,8435.27,-0.781645,-1.45981,0.0846739,3.11512,9616.27,-1495.49,-3.86323,-1.86305,0.0071445,831.648,-9780.88,-1663.26,-2.63344,6.17881,0.946736,-829.298,9608.17,-210.871,-2.45572,-0.0758198,6.69776,679.71,-9770.21,-2315.18,-1.42169,0.653214,-5.36489,9304.53,-1201.29,2944.77,0.248637,-2.68235,4.0754
0.03,4869.58,-1488.42,8204.46,0.5344,-0.565593,0.222398,4838.21,238.239,8431.75,-0.757867,-1.39508,-0.0128675,-10.8331,9627.02,-1471.65,-3.79232,-1.7811,-0.0426862,829.794,-9805.68,-1666.84,-2.5907,5.89657,1.04846,-828.644,9600.61,-207.998,-2.44976,-0.0988162,6.7591,676.038,-9757.79,-2314.7,-1.3937,0.661995,-5.40616,9311.75,-1217.38,2951.59,0.284827,-2.75069,4.05274
0.031,4858.28,-1462.44,8223.55,0.501912,-0.651826,0.324066,4862.45,237.884,8428.23,-0.734089,-1.33035,-0.110409,-24.7812,9637.77,-1447.81,-3.7214,-1.69915,-0.0925169,827.94,-9830.48,-1670.42,-2.54795,5.61433,1.15018,-827.99,9593.04,-205.125,-2.44379,-0.121813,6.82044,672.367,-9745.36,-2314.23,-1.36571,0.670775,-5.44742,9318.98,-1233.47,2958.42,0.321017,-2.81902,4.03008
0.032,4866.79,-1499.33,8229.32,0.53003,-0.539902,0.379528,4857.73,240.76,8436.3,-0.768378,-1.26567,-0.112842,-4.91837,9639.62,-1454.54,-3.75749,-1.67202,0.0372507,821.788,-9849.41,-1678.97,-2.51408,5.45459,1.10747,-824.037,9596.37,-222.952,-2.4424,-0.0400533,6.90109,673.6,-9748.85,-2304.54,-1.38352,0.675533,-5.4888,9309.39,-1248.78,2963.36,0.262946,-2.85104,3.99056
0.033,4877.78,-1544.09,8233.43,0.565723,-0.403208,0.429214,4849.39,244.039,8445.82,-0.809925,-1.201,-0.103387,19.1709,9640.35,-1465.1,-3.80695,-1.65175,0.189468,815.099,-9867.6,-1688.14,-2.48132,5.31018,1.04671,-819.672,9601.07,-243.367,-2.44158,0.0548004,6.98415,675.447,-9754.32,-2293.71,-1.40705,0.679787,-5.5302,9297.71,-1263.98,2968.06,0.193092,-2.87851,3.94892
0.034,4888.77,-1588.85,8237.54,0.601417,-0.266514,0.4789,4841.05,247.319,8455.33,-0.851472,-1.13633,-0.0939318,43.2601,9641.08,-1475.65,-3.85641,-1.63148,0.341686,808.409,-9885.79,-1697.31,-2.44856,5.16576,0.985951,-815.307,9605.77,-263.782,-2.44076,0.149654,7.06721,677.293,-9759.79,-2282.87,-1.43058,0.684042,-5.57159,9286.02,-1279.19,2972.76,0.123237,-2.90599,3.90729
0.035,4899.77,-1633.6,8241.66,0.63711,-0.129821,0.528586,4832.71,250.598,8464.85,-0.893019,-1.07167,-0.0844765,67.3493,9641.81,-1486.2,-3.90587,-1.61121,0.493903,801.72,-9903.98,-1706.48,-2.4158,5.02134,0.92519,-810.942,9610.47,-284.197,-2.43994,0.244508,7.15027,679.139,-9765.26,-2272.04,-1.45411,0.688296,-5.61298,9274.34,-1294.4,2977.46,0.0533835,-2.93346,3.86566
0.036,4909.28,-1652.82,8243.15,0.699197,-0.0801428,0.460484,4830.23,254.415,8481.52,-0.913428,-1.01783,-0.0553487,81.2161,9642.66,-1490.38,-3.92824,-1.60344,0.479101,790.298,-9908.19,-1715.5,-2.3731,4.90701,0.861106,-819.803,9614.23,-303.089,-2.46697,0.371035,7.21815,686.598,-9769.0,-2263.95,-1.43917,0.688716,-5.66525,9269.35,-1296.68,2965.58,0.0199601,-2.9719,3.81564
0.037,4916.95,-1640.12,8241.38,0.794276,-0.139234,0.245149,4835.07,258.905,8507.12,-0.907414,-0.977543,-0.00162995,82.3047,9643.66,-1486.59,-3.91676,-1.61129,0.255523,772.962,-9894.95,-1724.33,-2.31798,4.83028,0.792867,-845.196,9616.81,-320.077,-2.52881,0.537155,7.26706,701.073,-9770.58,-2259.31,-1.37614,0.684342,-5.73111,9272.73,-1282.8,2932.98,0.0320749,-3.02403,3.75515
0.038,4924.62,-1627.42,8239.6,0.889356,-0.198326,0.029813,4839.91,263.395,8532.72,-0.901399,-0.937254,0.0520888,83.3934,9644.65,-1482.79,-3.90527,-1.61915,0.0319458,755.626,-9881.71,-1733.16,-2.26286,4.75356,0.724629,-870.588,9619.39,-337.065,-2.59065,0.703275,7.31596,715.548,-9772.15,-2254.67,-1.31312,0.679968,-5.79697,9276.11,-1268.92,2900.38,0.0441898,-3.07617,3.69466
0.039,4932.29,-1614.72,8237.83,0.984435,-0.257418,-0.185522,4844.75,267.885,8558.32,-0.895385,-0.896964,0.105807,84.482,9645.65,-1479.0,-3.89379,-1.627,-0.191632,738.289,-9868.46,-1741.99,-2.20774,4.67683,0.656391,-895.981,9621.97,-354.053,-2.65249,0.869395,7.36487,730.022,-9773.73,-2250.02,-1.25009,0.675594,-5.86283,9279.49,-1255.04,2867.77,0.0563047,-3.1283,3.63417
0.04,4939.96,-1602.01,8236.05,1.07951,-0.316509,-0.400858,4849.59,272.375,8583.92,-0.889371,-0.856675,0.159526,85.5706,9646.64,-1475.2,-3.8823,-1.63486,-0.415209,720.953,-9855.22,-1750.83,-2.15262,4.6001,0.588152,-921.374,9624.55,-371.042,-2.71433,1.03551,7.41378,744.497,-9775.3,-2245.38,-1.18707,0.67122,-5.92869,9282.88,-1241.16,2835.17,0.0684196,-3.18044,3.57367
0.041,4898.72,-1602.73,8234.78,1.01764,-0.362897,-0.277424,4858.61,254.559,8556.1,-0.826557,-0.888471,0.0992542,62.7569,9658.36,-1488.56,-3.95105,-1.54936,-0.453411,737.635,-9860.76,-1746.85,-2.12462,4.47056,0.595079,-929.43,9636.49,-379.743,-2.72095,1.15997,7.42068,718.537,-9779.5,-2242.87,-1.17274,0.613133,-5.97331,9283.09,-1251.44,2844.79,0.0750571,-3.12003,3.5426
0.042,4857.47,-1603.44,8233.5,0.955756,-0.409285,-0.15399,4867.63,236.743,8528.29,-0.763744,-0.920267,0.0389822,39.9431,9670.07,-1501.92,-4.01979,-1.46387,-0.491612,754.318,-9866.3,-1742.88,-2.09662,4.34102,0.602005,-937.487,9648.44,-388.444,-2.72758,1.28442,7.42758,692.577,-9783.69,-2240.36,-1.15841,0.555045,-6.01794,9283.3,-1261.72,2854.41,0.0816947,-3.05962,3.51153
0.043,4816.23,-1604.16,8232.23,0.893878,-0.455672,-0.030556,4876.65,218.928,8500.48,-0.700931,-0.952063,-0.0212898,17.1294,9681.78,-1515.28,-4.08854,-1.37838,-0.529814,771.0,-9871.83,-1738.91,-2.06862,4.21148,0.608931,-945.544,9660.39,-397.145,-2.73421,1.40888,7.43447,666.617,-9787.89,-2237.85,-1.14409,0.496958,-6.06257,9283.52,-1272.0,2864.04,0.0883322,-2.99921,3.48045
0.044,4774.98,-1604.87,8230.95,0.831999,-0.50206,0.092878,4885.67,201.112,8472.67,-0.638117,-0.983858,-0.0815618,-5.6844,9693.5,-1528.64,-4.15728,-1.29288,-0.568016,787.682,-9877.38,-1734.94,-2.04062,4.08194,0.615858,-953.6,9672.33,-405.847,-2.74083,1.53333,7.44137,640.658,-9792.08,-2235.34,-1.12976,0.438871,-6.1072,9283.73,-1282.28,2873.66,0.0949698,-2.9388,3.44938
0.045,4765.27,-1602.6,8226.5,0.838061,-0.573743,0.106683,4875.28,188.801,8453.61,-0.590774,-1.00013,-0.138494,-21.078,9694.85,-1533.27,-4.16714,-1.22426,-0.624114,789.321,-9877.4,-1731.89,-2.00345,4.00188,0.648384,-957.395,9671.98,-411.429,-2.72508,1.65831,7.40915,631.578,-9789.09,-2240.73,-1.1443,0.355809,-6.09325,9289.52,-1284.84,2869.49,0.147341,-2.88039,3.38463
0.046,4780.8,-1597.95,8219.53,0.898476,-0.665662,0.0327848,4849.36,180.893,8441.55,-0.555807,-1.00399,-0.192753,-30.5354,9687.91,-1530.9,-4.12989,-1.16914,-0.694531,778.925,-9873.01,-1729.57,-1.95894,3.96141,0.70139,-957.781,9661.8,-414.517,-2.69143,1.78372,7.34563,636.003,-9780.37,-2252.46,-1.18193,0.252767,-6.03244,9299.78,-1281.2,2854.29,0.236299,-2.82357,3.29295
0.047,4796.32,-1593.3,8212.55,0.95889,-0.757582,-0.0411134,4823.44,172.985,8429.49,-0.52084,-1.00785,-0.247012,-39.9928,9680.98,-1528.54,-4.09264,-1.11402,-0.764948,768.529,-9868.62,-1727.26,-1.91443,3.92094,0.754396,-958.166,9651.62,-417.604,-2.65778,1.90913,7.2821,640.428,-9771.64,-2264.18,-1.21956,0.149725,-5.97163,9310.04,-1277.57,2839.09,0.325257,-2.76676,3.20126
0.048,4811.85,-1588.66,8205.57,1.01931,-0.849502,-0.115012,4797.52,165.078,8417.42,-0.485873,-1.01171,-0.301272,-49.4502,9674.04,-1526.17,-4.05539,-1.0589,-0.835364,758.132,-9864.23,-1724.95,-1.86992,3.88047,0.807402,-958.552,9641.43,-420.692,-2.62412,2.03454,7.21858,644.852,-9762.91,-2275.91,-1.25719,0.0466831,-5.91082,9320.29,-1273.94,2823.89,0.414215,-2.70995,3.10958
0.049,4828.19,-1585.59,8198.61,1.07159,-0.910451,-0.177318,4774.84,160.83,8408.05,-0.450839,-1.0119,-0.354853,-57.8674,9666.04,-1524.91,-4.02593,-1.00527,-0.893595,748.957,-9860.2,-1723.14,-1.82772,3.84201,0.853316,-960.63,9633.0,-423.833,-2.60053,2.15172,7.15226,647.296,-9754.29,-2285.13,-1.28859,-0.0472515,-5.84929,9326.61,-1270.88,2810.49,0.495543,-2.65417,3.02956
0.05,4851.12,-1595.19,8191.78,1.05882,-0.723643,-0.146888,4778.1,185.856,8420.12,-0.415274,-0.982701,-0.403011,-57.9629,9649.58,-1532.46,-4.05885,-0.963582,-0.854337,749.546,-9859.08,-1725.4,-1.8039,3.81964,0.842491,-976.244,9638.6,-427.407,-2.6574,2.20309,7.06353,633.892,-9746.58,-2274.3,-1.27023,-0.0683285,-5.78207,9301.42,-1272.37,2811.43,0.51583,-2.60667,3.0429
0.051,4874.04,-1604.79,8184.95,1.04605,-0.536835,-0.116459,4781.36,210.882,8432.19,-0.379709,-0.953508,-0.451169,-58.0583,9633.12,-1540.0,-4.09177,-0.921892,-0.815079,750.135,-9857.96,-1727.65,-1.78009,3.79727,0.831667,-991.858,9644.21,-430.98,-2.71428,2.25446,6.9748,620.488,-9738.87,-2263.47,-1.25187,-0.0894056,-5.71484,9276.23,-1273.85,2812.37,0.536117,-2.55916,3.05624
0.052,4896.96,-1614.39,8178.12,1.03328,-0.350027,-0.0860297,4784.62,235.909,8444.26,-0.344144,-0.924314,-0.499326,-58.1537,9616.67,-1547.55,-4.12468,-0.880202,-0.775821,750.724,-9856.84,-1729.91,-1.75627,3.7749,0.820842,-1007.47,9649.81,-434.553,-2.77115,2.30583,6.88607,607.084,-9731.15,-2252.65,-1.2335,-0.110483,-5.64762,9251.04,-1275.34,2813.31,0.556404,-2.51166,3.06957
0.053,4919.88,-1623.99,8171.29,1.02051,-0.163218,-0.0556003,4787.88,260.935,8456.33,-0.308579,-0.895121,-0.547484,-58.2492,9600.2,-1555.09,-4.1576,-0.838511,-0.736564,751.313,-9855.72,-1732.16,-1.73246,3.75253,0.810018,-1023.09,9655.41,-438.126,-2.82803,2.3572,6.79734,593.68,-9723.44,-2241.82,-1.21514,-0.13156,-5.58039,9225.85,-1276.83,2814.25,0.57669,-2.46416,3.08291
0.054,4935.39,-1623.21,8170.99,1.02935,-0.130784,-0.0901608,4787.03,270.886,8468.96,-0.297522,-0.890334,-0.54914,-75.0696,9604.23,-1558.84,-4.11327,-0.758337,-0.669459,755.687,-9848.5,-1727.04,-1.74043,3.69076,0.790907,-1034.35,9653.62,-435.849,-2.87273,2.3714,6.71627,593.725,-9714.23,-2241.23,-1.20835,-0.210681,-5.52094,9221.64,-1288.9,2810.77,0.558268,-2.47813,3.08017
0.055,4947.18,-1617.25,8173.94,1.04901,-0.175538,-0.157216,4784.13,273.299,8481.85,-0.29872,-0.897751,-0.527546,-100.252,9618.49,-1560.68,-4.03032,-0.658922,-0.58843,761.955,-9838.24,-1718.22,-1.7643,3.60928,0.767652,-1043.44,9648.13,-430.647,-2.91135,2.36703,6.63904,600.494,-9704.29,-2245.76,-1.20735,-0.318824,-5.46537,9227.93,-1306.26,2805.09,0.520492,-2.52284,3.06938
0.056,4958.97,-1611.29,8176.89,1.06866,-0.220291,-0.224272,4781.23,275.712,8494.75,-0.299918,-0.905168,-0.505952,-125.435,9632.75,-1562.53,-3.94736,-0.559506,-0.507401,768.222,-9827.97,-1709.41,-1.78817,3.52781,0.744398,-1052.53,9642.64,-425.444,-2.94997,2.36266,6.56181,607.263,-9694.34,-2250.29,-1.20635,-0.426967,-5.4098,9234.22,-1323.62,2799.4,0.482716,-2.56754,3.05859
0.057,4970.77,-1605.33,8179.85,1.08832,-0.265044,-0.291327,4778.33,278.125,8507.64,-0.301115,-0.912584,-0.484358,-150.618,9647.01,-1564.37,-3.86441,-0.46009,-0.426372,774.49,-9817.71,-1700.6,-1.81204,3.44633,0.721144,-1061.62,9637.16,-420.242,-2.98858,2.35828,6.48458,614.033,-9684.39,-2254.83,-1.20535,-0.53511,-5.35423,9240.5,-1340.99,2793.72,0.44494,-2.61225,3.04781
0.058,4980.45,-1601.34,8183.9,1.10512,-0.310725,-0.327172,4776.26,280.623,8518.31,-0.296463,-0.938214,-0.442323,-168.003,9663.52,-1558.05,-3.81162,-0.373678,-0.365643,780.782,-9812.07,-1693.01,-1.8292,3.37625,0.698478,-1072.72,9627.78,-421.157,-3.00732,2.3674,6.42107,618.794,-9676.69,-2257.54,-1.20078,-0.623331,-5.3354,9241.74,-1354.48,2786.86,0.417607,-2.65197,3.0053
0.059,4982.77,-1604.24,8191.82,1.11195,-0.359654,-0.253779,4777.08,283.418,8521.2,-0.271334,-1.02759,-0.328746,-158.097,9687.92,-1523.12,-3.86442,-0.332778,-0.375961,787.159,-9822.62,-1689.74,-1.82288,3.34605,0.677871,-1090.86,9604.8,-443.487,-2.95648,2.42373,6.40556,616.525,-9676.86,-2253.87,-1.18367,-0.641825,-5.44515,9225.28,-1354.42,2775.89,0.426824,-2.67421,2.85179
0.06,4985.09,-1607.15,8199.74,1.11878,-0.408583,-0.180386,4777.9,286.214,8524.08,-0.246206,-1.11697,-0.215169,-148.191,9712.31,-1488.19,-3.91722,-0.291878,-0.38628,793.535,-9833.18,-1686.47,-1.81657,3.31585,0.657264,-1108.99,9581.82,-465.816,-2.90564,2.48006,6.39005,614.256,-9677.03,-2250.21,-1.16657,-0.660319,-5.55489,9208.83,-1354.36,2764.93,0.436042,-2.69646,2.69828
0.061,4987.4,-1610.06,8207.65,1.1256,-0.457511,-0.106993,4778.73,289.009,8526.97,-0.221077,-1.20634,-0.101592,-138.285,9736.71,-1453.27,-3.97002,-0.250979,-0.396598,799.912,-9843.73,-1683.2,-1.81025,3.28564,0.636657,-1127.12,9558.84,-488.145,-2.8548,2.53639,6.37454,611.987,-9677.21,-2246.54,-1.14946,-0.678813,-5.66464,9192.38,-1354.3,2753.96,0.44526,-2.71871,2.54477
0.062,4989.72,-1612.97,8215.57,1.13243,-0.50644,-0.0336001,4779.55,291.804,8529.85,-0.195948,-1.29572,0.0119851,-128.379,9761.11,-1418.34,-4.02282,-0.210079,-0.406917,806.288,-9854.29,-1679.92,-1.80394,3.25544,0.616049,-1145.25,9535.87,-510.474,-2.80396,2.59272,6.35904,609.718,-9677.38,-2242.87,-1.13236,-0.697307,-5.77439,9175.92,-1354.24,2743.0,0.454478,-2.74096,2.39125
0.063,4990.13,-1602.73,8218.07,1.24521,-0.565509,0.020401,4786.46,299.739,8518.88,-0.216935,-1.3459,0.026453,-124.933,9742.53,-1420.4,-3.96081,-0.216332,-0.384629,815.747,-9856.54,-1685.23,-1.84799,3.21413,0.551864,-1163.91,9539.23,-516.966,-2.74559,2.60648,6.37528,612.472,-9674.4,-2251.08,-1.12327,-0.769598,-5.83865,9159.04,-1346.41,2736.72,0.534303,-2.80209,2.43076
0.064,4989.99,-1588.73,8219.03,1.38827,-0.627475,0.0688615,4795.11,309.142,8503.94,-0.251098,-1.38487,0.0126039,-123.333,9711.68,-1433.03,-3.86599,-0.236057,-0.353024,826.087,-9856.42,-1692.98,-1.90643,3.16964,0.475228,-1182.72,9550.12,-518.933,-2.68507,2.60807,6.4006,616.662,-9670.52,-2262.68,-1.11648,-0.857261,-5.88991,9142.03,-1336.36,2731.77,0.634302,-2.87433,2.52542
0.065,4989.85,-1574.73,8219.99,1.53133,-0.689442,0.117322,4803.75,318.546,8489.01,-0.285261,-1.42385,-0.00124516,-121.732,9680.83,-1445.66,-3.77118,-0.255782,-0.32142,836.426,-9856.3,-1700.74,-1.96487,3.12515,0.398592,-1201.53,9561.01,-520.9,-2.62455,2.60967,6.42592,620.851,-9666.65,-2274.29,-1.10968,-0.944924,-5.94117,9125.03,-1326.3,2726.83,0.734301,-2.94657,2.62008
0.066,4989.71,-1560.73,8220.95,1.67439,-0.751408,0.165783,4812.4,327.949,8474.07,-0.319423,-1.46282,-0.0150942,-120.132,9649.98,-1458.29,-3.67637,-0.275506,-0.289815,846.766,-9856.17,-1708.49,-2.02331,3.08066,0.321956,-1220.34,9571.9,-522.868,-2.56403,2.61126,6.45124,625.041,-9662.77,-2285.89,-1.10289,-1.03259,-5.99243,9108.02,-1316.25,2721.89,0.8343,-3.01881,2.71474
0.067,4980.01,-1553.61,8230.54,1.77384,-0.85296,0.230716,4820.26,336.259,8462.95,-0.335008,-1.47292,-0.0196214,-127.306,9626.99,-1457.91,-3.59958,-0.241702,-0.238786,854.817,-9850.41,-1719.27,-2.10665,3.04414,0.271154,-1233.71,9580.58,-520.18,-2.52255,2.64726,6.4427,639.104,-9664.42,-2293.95,-1.10902,-1.07231,-5.9815,9098.44,-1310.85,2713.94,0.925154,-3.09587,2.78677
0.068,4951.21,-1560.24,8257.38,1.78608,-1.03368,0.328594,4826.53,342.383,8459.44,-0.313438,-1.42524,-0.00550483,-152.03,9619.73,-1431.51,-3.55883,-0.10084,-0.148909,858.294,-9833.37,-1736.08,-2.23979,3.02358,0.272017,-1236.19,9584.84,-508.183,-2.51916,2.75206,6.36642,672.916,-9677.12,-2294.91,-1.14099,-1.01615,-5.84618,9103.71,-1314.74,2699.99,0.997717,-3.18255,2.81357
0.069,4922.41,-1566.87,8284.22,1.79833,-1.21441,0.426472,4832.8,348.507,8455.93,-0.291868,-1.37756,0.00861175,-176.755,9612.46,-1405.11,-3.51809,0.0400217,-0.0590314,861.771,-9816.33,-1752.9,-2.37294,3.00301,0.272881,-1238.68,9589.1,-496.186,-2.51576,2.85686,6.29015,706.729,-9689.81,-2295.88,-1.17297,-0.959999,-5.71086,9108.98,-1318.64,2686.05,1.07028,-3.26923,2.84036
0.07,4893.61,-1573.5,8311.07,1.81057,-1.39513,0.52435,4839.07,354.63,8452.42,-0.270298,-1.32989,0.0227283,-201.479,9605.2,-1378.7,-3.47735,0.180884,0.0308461,865.247,-9799.29,-1769.71,-2.50609,2.98244,0.273745,-1241.16,9593.36,-484.188,-2.51237,2.96166,6.21388,740.541,-9702.51,-2296.85,-1.20494,-0.903844,-5.57554,9114.26,-1322.54,2672.1,1.14284,-3.35592,2.86715
0.071,4864.81,-1580.13,8337.91,1.82281,-1.57585,0.622228,4845.34,360.754,8448.91,-0.248728,-1.28221,0.0368449,-226.203,9597.94,-1352.3,-3.4366,0.321746,0.120724,868.724,-9782.25,-1786.53,-2.63923,2.96187,0.274609,-1243.65,9597.62,-472.191,-2.50897,3.06646,6.13761,774.353,-9715.2,-2297.82,-1.23691,-0.847688,-5.44022,9119.53,-1326.44,2658.15,1.2154,-3.4426,2.89394
0.072,4854.28,-1567.37,8342.22,2.01243,-1.79981,0.783516,4853.44,362.497,8452.4,-0.287571,-1.22491,0.0165632,-218.37,9612.24,-1368.73,-3.35309,0.311918,0.184608,862.239,-9784.1,-1791.43,-2.65833,2.97293,0.313391,-1248.7,9599.77,-478.863,-2.54697,3.16343,6.01984,740.209,-9708.93,-2294.05,-1.22942,-0.809988,-5.37045,9138.69,-1333.13,2670.74,1.31057,-3.45074,2.97607
0.073,4846.05,-1552.2,8343.71,2.22421,-2.02918,0.952731,4861.77,363.693,8456.78,-0.333966,-1.16639,-0.0080183,-206.468,9629.22,-1390.52,-3.26422,0.283254,0.245243,854.509,-9788.32,-1794.85,-2.66318,2.98795,0.356913,-1254.07,9601.67,-487.868,-2.59014,3.25943,5.89689,697.571,-9700.29,-2289.69,-1.21699,-0.774596,-5.30888,9159.58,-1340.18,2686.65,1.40856,-3.44906,3.06513
0.074,4837.81,-1537.03,8345.2,2.436,-2.25855,1.12195,4870.09,364.888,8461.15,-0.380361,-1.10788,-0.0325998,-194.566,9646.21,-1412.3,-3.17536,0.25459,0.305878,846.778,-9792.53,-1798.27,-2.66802,3.00296,0.400435,-1259.45,9603.56,-496.874,-2.63331,3.35543,5.77394,654.933,-9691.65,-2285.33,-1.20457,-0.739203,-5.24731,9180.47,-1347.23,2702.55,1.50656,-3.44738,3.15418
0.075,4829.57,-1521.85,8346.7,2.64779,-2.48792,1.29116,4878.42,366.084,8465.53,-0.426755,-1.04937,-0.0571813,-182.663,9663.2,-1434.09,-3.0865,0.225926,0.366513,839.048,-9796.74,-1801.68,-2.67287,3.01797,0.443957,-1264.82,9605.45,-505.879,-2.67648,3.45142,5.65099,612.294,-9683.01,-2280.97,-1.19214,-0.70381,-5.18574,9201.36,-1354.27,2718.46,1.60455,-3.4457,3.24323
0.076,4835.37,-1507.61,8337.89,2.84185,-2.69894,1.42287,4874.08,358.638,8463.56,-0.443132,-1.02333,-0.0883231,-178.66,9671.43,-1440.71,-3.04892,0.300855,0.424904,832.939,-9802.6,-1798.66,-2.60934,3.03441,0.478107,-1271.13,9601.68,-513.974,-2.68667,3.47766,5.55441,588.547,-9680.52,-2275.46,-1.2217,-0.721908,-5.15871,9225.87,-1349.82,2718.26,1.73227,-3.47551,3.38651
0.077,4858.72,-1494.54,8316.23,3.01376,-2.88704,1.50769,4853.89,340.391,8453.67,-0.421988,-1.03791,-0.127665,-184.53,9668.71,-1428.38,-3.07546,0.505275,0.480491,828.856,-9810.52,-1787.6,-2.46035,3.05263,0.500542,-1278.62,9590.82,-520.931,-2.65564,3.41668,5.49079,588.414,-9685.72,-2268.52,-1.30375,-0.806868,-5.17486,9254.9,-1331.01,2697.92,1.89714,-3.54467,3.59757
0.078,4882.08,-1481.46,8294.56,3.18566,-3.07514,1.59251,4833.7,322.144,8443.77,-0.400843,-1.05248,-0.167007,-190.4,9666.0,-1416.04,-3.10199,0.709694,0.536078,824.774,-9818.43,-1776.53,-2.31136,3.07085,0.522978,-1286.11,9579.97,-527.889,-2.62461,3.35571,5.42717,588.282,-9690.92,-2261.57,-1.38581,-0.891828,-5.19101,9283.93,-1312.19,2677.58,2.06202,-3.61382,3.80863
0.079,4905.43,-1468.39,8272.89,3.35757,-3.26324,1.67734,4813.51,303.897,8433.88,-0.379699,-1.06705,-0.20635,-196.27,9663.28,-1403.71,-3.12853,0.914114,0.591665,820.691,-9826.35,-1765.46,-2.16237,3.08907,0.545413,-1293.6,9569.11,-534.846,-2.59358,3.29474,5.36356,588.149,-9696.11,-2254.62,-1.46786,-0.976788,-5.20716,9312.96,-1293.37,2657.24,2.22689,-3.68298,4.01969
0.08,4928.79,-1455.32,8251.23,3.52947,-3.45134,1.76216,4793.32,285.65,8423.99,-0.358554,-1.08162,-0.245692,-202.14,9660.56,-1391.37,-3.15506,1.11853,0.647252,816.609,-9834.27,-1754.39,-2.01338,3.10728,0.567849,-1301.09,9558.25,-541.803,-2.56255,3.23377,5.29994,588.016,-9701.31,-2247.68,-1.54991,-1.06175,-5.22331,9341.99,-1274.56,2636.9,2.39177,-3.75214,4.23075
0.081,4925.39,-1465.55,8271.73,3.67489,-3.59486,1.82644,4802.06,272.016,8426.45,-0.342875,-1.08768,-0.243978,-211.848,9648.21,-1397.56,-2.94578,1.154,0.790678,797.849,-9829.48,-1741.47,-2.03842,3.08695,0.520853,-1319.35,9557.52,-537.198,-2.52142,3.21655,5.24038,608.083,-9689.47,-2247.04,-1.63875,-1.16174,-5.26224,9318.51,-1281.83,2646.84,2.44118,-3.70736,4.35751
0.082,4921.99,-1475.77,8292.23,3.8203,-3.73838,1.89072,4810.8,258.382,8428.91,-0.327196,-1.09375,-0.242263,-221.557,9635.87,-1403.74,-2.7365,1.18947,0.934105,779.09,-9824.69,-1728.54,-2.06347,3.06662,0.473857,-1337.62,9556.79,-532.592,-2.4803,3.19933,5.18082,628.149,-9677.63,-2246.41,-1.7276,-1.26173,-5.30117,9295.03,-1289.11,2656.77,2.49059,-3.66258,4.48427
0.083,4918.59,-1486.0,8312.74,3.96572,-3.8819,1.955,4819.54,244.748,8431.37,-0.311518,-1.09982,-0.240549,-231.266,9623.52,-1409.93,-2.52722,1.22494,1.07753,760.331,-9819.91,-1715.62,-2.08851,3.04629,0.42686,-1355.89,9556.06,-527.987,-2.43918,3.18212,5.12126,648.216,-9665.79,-2245.78,-1.81644,-1.36172,-5.34011,9271.55,-1296.38,2666.7,2.54,-3.6178,4.61103
0.084,4915.19,-1496.23,8333.24,4.11114,-4.02542,2.01928,4828.28,231.114,8433.83,-0.295839,-1.10589,-0.238835,-240.975,9611.18,-1416.11,-2.31794,1.26041,1.22096,741.572,-9815.12,-1702.7,-2.11355,3.02596,0.379864,-1374.15,9555.33,-523.381,-2.39806,3.1649,5.06169,668.283,-9653.95,-2245.14,-1.90529,-1.46172,-5.37904,9248.07,-1303.66,2676.63,2.58941,-3.57301,4.7378
0.085,4914.84,-1493.98,8344.14,4.34413,-4.28677,2.21836,4843.24,228.231,8433.8,-0.302781,-1.13019,-0.280335,-239.655,9606.74,-1412.62,-2.22791,1.24151,1.29192,737.931,-9813.24,-1705.43,-2.163,3.04884,0.383117,-1386.24,9559.88,-510.066,-2.36182,3.14889,4.98908,682.792,-9663.15,-2242.51,-1.86543,-1.49735,-5.38808,9241.54,-1298.11,2678.19,2.57604,-3.54374,4.76203
0.086,4916.92,-1481.74,8347.35,4.64718,-4.64238,2.52528,4863.19,233.949,8431.78,-0.32782,-1.16908,-0.356405,-229.513,9608.62,-1401.39,-2.23326,1.17911,1.30491,746.384,-9813.68,-1720.69,-2.23198,3.10629,0.426568,-1393.37,9568.65,-489.784,-2.32949,3.13384,4.90602,692.856,-9689.19,-2238.27,-1.7226,-1.48151,-5.37321,9248.58,-1282.32,2673.05,2.51244,-3.52687,4.70423
0.087,4919.01,-1469.5,8350.56,4.95023,-4.99798,2.8322,4883.14,239.666,8429.75,-0.35286,-1.20796,-0.432476,-219.371,9610.5,-1390.15,-2.23861,1.11671,1.3179,754.838,-9814.12,-1735.95,-2.30096,3.16374,0.470019,-1400.5,9577.42,-469.502,-2.29716,3.1188,4.82296,702.919,-9715.24,-2234.04,-1.57977,-1.46566,-5.35834,9255.63,-1266.52,2667.91,2.44885,-3.51,4.64644
0.088,4921.09,-1457.27,8353.78,5.25328,-5.35359,3.13912,4903.09,245.383,8427.73,-0.377899,-1.24685,-0.508546,-209.229,9612.38,-1378.92,-2.24397,1.05431,1.33089,763.291,-9814.56,-1751.21,-2.36994,3.22119,0.51347,-1407.63,9586.19,-449.219,-2.26483,3.10375,4.7399,712.983,-9741.28,-2229.8,-1.43694,-1.44982,-5.34347,9262.67,-1250.72,2662.77,2.38525,-3.49313,4.58865
0.089,4921.98,-1443.59,8356.0,5.53608,-5.69447,3.43531,4921.38,251.428,8425.63,-0.399993,-1.27523,-0.574263,-199.218,9612.73,-1369.28,-2.24037,1.00544,1.35246,770.219,-9815.39,-1764.38,-2.43544,3.26646,0.550211,-1413.43,9592.75,-430.536,-2.23085,3.0824,4.64774,721.976,-9765.33,-2228.13,-1.31131,-1.42345,-5.31187,9268.35,-1238.81,2657.06,2.35562,-3.48063,4.54891
0.09,4913.34,-1418.41,8350.33,5.65676,-5.91758,3.64558,4926.44,260.097,8422.92,-0.398526,-1.21951,-0.557158,-190.255,9600.84,-1372.37,-2.1651,1.06479,1.44264,764.937,-9819.33,-1760.84,-2.47311,3.21426,0.533276,-1408.6,9581.62,-424.646,-2.18368,3.01064,4.48272,722.405,-9773.39,-2246.99,-1.32331,-1.31294,-5.14642,9263.1,-1257.98,2646.84,2.59764,-3.50307,4.65367
0.091,4904.71,-1393.23,8344.66,5.77745,-6.14069,3.85586,4931.51,268.766,8420.21,-0.397059,-1.16379,-0.540052,-181.292,9588.95,-1375.46,-2.08983,1.12413,1.53282,759.656,-9823.27,-1757.3,-2.51079,3.16207,0.51634,-1403.77,9570.49,-418.756,-2.1365,2.93887,4.3177,722.835,-9781.46,-2265.85,-1.33532,-1.20243,-4.98097,9257.84,-1277.15,2636.62,2.83966,-3.5255,4.75842
0.092,4896.07,-1368.05,8338.99,5.89814,-6.3638,4.06614,4936.57,277.435,8417.5,-0.395592,-1.10807,-0.522946,-172.33,9577.05,-1378.55,-2.01455,1.18348,1.623,754.374,-9827.21,-1753.76,-2.54847,3.10988,0.499405,-1398.94,9559.35,-412.865,-2.08932,2.86711,4.15269,723.264,-9789.53,-2284.7,-1.34732,-1.09193,-4.81553,9252.59,-1296.32,2626.4,3.08168,-3.54794,4.86318
0.093,4887.44,-1342.87,8333.33,6.01883,-6.58691,4.27642,4941.63,286.104,8414.79,-0.394124,-1.05235,-0.50584,-163.367,9565.16,-1381.64,-1.93928,1.24283,1.71318,749.092,-9831.16,-1750.23,-2.58615,3.05768,0.48247,-1394.11,9548.22,-406.975,-2.04215,2.79534,3.98767,723.693,-9797.6,-2303.56,-1.35933,-0.981417,-4.65008,9247.34,-1315.49,2616.18,3.3237,-3.57037,4.96793
0.094,4885.34,-1338.83,8333.66,6.18386,-6.79737,4.46664,4941.86,291.167,8422.95,-0.356591,-1.02641,-0.492657,-191.43,9583.88,-1403.33,-1.84991,1.33503,1.79939,737.669,-9820.31,-1743.07,-2.63209,2.99047,0.434105,-1387.14,9551.04,-397.185,-2.03197,2.74929,3.86256,701.197,-9776.18,-2315.48,-1.46242,-0.977574,-4.65918,9254.98,-1323.65,2603.27,3.38228,-3.55846,5.03643
0.095,4886.5,-1345.38,8337.0,6.37107,-7.00151,4.64685,4939.68,294.427,8436.56,-0.301024,-1.01536,-0.481434,-238.007,9617.9,-1434.31,-1.75348,1.44367,1.88362,723.174,-9802.08,-1734.1,-2.68217,2.91576,0.370025,-1379.09,9560.82,-385.445,-2.0403,2.71609,3.7574,667.238,-9740.01,-2323.95,-1.61107,-1.02707,-4.75556,9269.07,-1326.29,2589.01,3.34913,-3.52939,5.0868
0.096,4887.67,-1351.92,8340.35,6.55827,-7.20565,4.82705,4937.49,297.688,8450.16,-0.245457,-1.00431,-0.470212,-284.583,9651.92,-1465.3,-1.65705,1.5523,1.96785,708.679,-9783.85,-1725.13,-2.73225,2.84104,0.305946,-1371.05,9570.61,-373.705,-2.04863,2.68289,3.65224,633.28,-9703.84,-2332.41,-1.75972,-1.07656,-4.85193,9283.15,-1328.94,2574.75,3.31598,-3.50031,5.13717
0.097,4888.84,-1358.46,8343.69,6.74548,-7.40979,5.00725,4935.3,300.948,8463.77,-0.18989,-0.993258,-0.458989,-331.159,9685.94,-1496.29,-1.56062,1.66093,2.05208,694.185,-9765.62,-1716.16,-2.78233,2.76632,0.241866,-1363.01,9580.4,-361.965,-2.05696,2.64968,3.54709,599.321,-9667.68,-2340.87,-1.90837,-1.12605,-4.94831,9297.23,-1331.59,2560.48,3.28284,-3.47124,5.18754
0.098,4896.33,-1367.75,8341.33,6.89741,-7.5725,5.14632,4932.12,303.76,8478.67,-0.138759,-0.996642,-0.459493,-355.484,9713.04,-1510.84,-1.47281,1.74076,2.11555,686.055,-9753.73,-1710.98,-2.79639,2.72066,0.174914,-1358.8,9583.22,-352.958,-2.03335,2.62199,3.44792,572.175,-9637.67,-2347.64,-2.0217,-1.17258,-5.00218,9311.74,-1330.91,2549.22,3.24774,-3.43937,5.21753
0.099,4925.97,-1386.67,8319.04,6.9259,-7.5902,5.14138,4925.44,305.002,8498.16,-0.10315,-1.05055,-0.50104,-301.927,9715.89,-1467.84,-1.41518,1.71976,2.10641,700.201,-9764.03,-1719.08,-2.68437,2.77667,0.0979088,-1368.01,9561.66,-353.515,-1.898,2.61357,3.36969,568.87,-9629.25,-2348.46,-2.01145,-1.20874,-4.90724,9327.73,-1318.61,2548.43,3.2058,-3.39774,5.17619
0.1,4955.61,-1405.6,8296.75,6.95438,-7.60789,5.13645,4918.77,306.244,8517.64,-0.0675406,-1.10446,-0.542588,-248.37,9718.74,-1424.84,-1.35756,1.69876,2.09727,714.348,-9774.34,-1727.19,-2.57235,2.83267,0.0209032,-1377.21,9540.09,-354.072,-1.76265,2.60514,3.29147,565.565,-9620.82,-2349.28,-2.00119,-1.2449,-4.81231,9343.72,-1306.31,2547.64,3.16387,-3.3561,5.13485
0.101,4985.25,-1424.52,8274.46,6.98286,-7.62559,5.13152,4912.09,307.486,8537.13,-0.0319316,-1.15837,-0.584135,-194.813,9721.59,-1381.84,-1.29993,1.67776,2.08813,728.494,-9784.64,-1735.29,-2.46033,2.88868,-0.0561024,-1386.41,9518.53,-354.63,-1.62729,2.59672,3.21324,562.261,-9612.4,-2350.1,-1.99093,-1.28107,-4.71737,9359.71,-1294.0,2546.85,3.12193,-3.31446,5.09351
0.102,5014.89,-1443.44,8252.18,7.01135,-7.64328,5.12659,4905.42,308.728,8556.61,0.0036774,-1.21228,-0.625682,-141.256,9724.44,-1338.83,-1.24231,1.65676,2.07899,742.641,-9794.95,-1743.39,-2.34831,2.94469,-0.133108,-1395.61,9496.97,-355.187,-1.49194,2.5883,3.13502,558.956,-9603.97,-2350.92,-1.98068,-1.31723,-4.62244,9375.7,-1281.7,2546.06,3.07999,-3.27283,5.05218
0.103,5019.57,-1454.68,8245.48,7.04077,-7.74047,5.19079,4902.95,304.561,8553.64,0.038657,-1.22819,-0.606099,-123.582,9707.13,-1329.57,-1.22791,1.54719,2.10779,750.21,-9805.06,-1755.58,-2.36043,2.99828,-0.21241,-1388.31,9498.9,-365.38,-1.44069,2.60222,3.0647,567.336,-9600.4,-2352.57,-1.90877,-1.26316,-4.5119,9398.94,-1294.29,2524.08,3.12167,-3.22212,5.01796
0.104,5017.12,-1463.72,8243.25,7.07045,-7.86037,5.27476,4901.69,298.848,8544.25,0.0734567,-1.23324,-0.56905,-116.16,9684.06,-1329.94,-1.22586,1.41232,2.14743,755.899,-9815.12,-1768.93,-2.40802,3.05117,-0.292367,-1376.28,9507.56,-378.325,-1.41346,2.62252,2.99664,579.053,-9598.22,-2354.44,-1.81926,-1.1833,-4.39689,9424.26,-1314.01,2496.05,3.18724,-3.16881,4.98577
0.105,5014.66,-1472.76,8241.02,7.10014,-7.98027,5.35872,4900.42,293.136,8534.87,0.108256,-1.23829,-0.532001,-108.739,9660.99,-1330.31,-1.22381,1.27745,2.18707,761.588,-9825.18,-1782.29,-2.45561,3.10406,-0.372325,-1364.26,9516.21,-391.27,-1.38624,2.64282,2.92858,590.771,-9596.04,-2356.32,-1.72974,-1.10344,-4.28189,9449.58,-1333.72,2468.02,3.2528,-3.11551,4.95359
0.106,5012.21,-1481.79,8238.78,7.12982,-8.10017,5.44268,4899.16,287.423,8525.49,0.143056,-1.24334,-0.494952,-101.317,9637.93,-1330.69,-1.22177,1.14258,2.22671,767.277,-9835.24,-1795.64,-2.5032,3.15695,-0.452283,-1352.24,9524.87,-404.215,-1.35901,2.66313,2.86051,602.488,-9593.86,-2358.2,-1.64022,-1.02358,-4.16689,9474.9,-1353.43,2439.99,3.31837,-3.06221,4.9214
0.107,5004.75,-1489.76,8237.94,7.21022,-8.22239,5.55252,4897.12,279.818,8521.94,0.214983,-1.25167,-0.450937,-94.5519,9623.77,-1330.6,-1.20685,1.047,2.28963,771.916,-9843.89,-1810.28,-2.57391,3.20774,-0.510336,-1339.34,9536.61,-409.225,-1.32876,2.68474,2.79265,612.124,-9596.75,-2364.3,-1.60874,-0.986416,-4.06126,9487.25,-1366.01,2427.67,3.40953,-3.00423,4.89463
0.108,4987.27,-1495.59,8239.88,7.39206,-8.34925,5.71414,4893.54,268.427,8530.07,0.361164,-1.26654,-0.392987,-89.0993,9627.43,-1329.59,-1.16619,1.03,2.39908,774.454,-9849.7,-1827.49,-2.69087,3.25433,-0.524581,-1324.67,9554.54,-398.367,-1.29245,2.70897,2.72517,617.595,-9609.79,-2378.85,-1.69334,-1.03465,-3.97437,9473.68,-1364.34,2446.75,3.55188,-2.9369,4.87869
0.109,4969.78,-1501.41,8241.82,7.57389,-8.47611,5.87575,4889.96,257.035,8538.21,0.507345,-1.28141,-0.335038,-83.6468,9631.08,-1328.58,-1.12554,1.013,2.50852,776.992,-9855.51,-1844.7,-2.80782,3.30092,-0.538826,-1310.0,9572.47,-387.509,-1.25615,2.73319,2.65769,623.066,-9622.83,-2393.39,-1.77794,-1.08288,-3.88747,9460.12,-1362.66,2465.84,3.69423,-2.86957,4.86275
0.11,4952.29,-1507.23,8243.77,7.75572,-8.60297,6.03737,4886.37,245.644,8546.34,0.653526,-1.29628,-0.277089,-78.1942,9634.74,-1327.57,-1.08488,0.995999,2.61797,779.53,-9861.33,-1861.91,-2.92478,3.3475,-0.553071,-1295.33,9590.4,-376.65,-1.21984,2.75742,2.59021,628.538,-9635.88,-2407.94,-1.86254,-1.13111,-3.80058,9446.55,-1360.99,2484.92,3.83658,-2.80224,4.8468
0.111,4934.81,-1513.06,8245.71,7.93755,-8.72983,6.19899,4882.79,234.253,8554.47,0.799707,-1.31115,-0.21914,-72.7416,9638.4,-1326.56,-1.04423,0.978998,2.72742,782.068,-9867.14,-1879.11,-3.04173,3.39409,-0.567316,-1280.66,9608.33,-365.792,-1.18353,2.78165,2.52273,634.009,-9648.92,-2422.49,-1.94715,-1.17935,-3.71369,9432.98,-1359.31,2504.01,3.97893,-2.7349,4.83086
0.112,4905.01,-1513.59,8263.54,7.99377,-8.96437,6.33484,4898.32,236.568,8561.0,0.902604,-1.36083,-0.194839,-95.0408,9652.25,-1360.89,-0.929482,0.81842,2.69207,767.22,-9864.88,-1870.63,-2.97638,3.46604,-0.641463,-1284.08,9617.05,-351.9,-1.17781,2.74212,2.5193,649.634,-9644.22,-2415.5,-1.95705,-1.09356,-3.69547,9457.31,-1340.8,2510.43,3.98156,-2.77209,4.80612
0.113,4873.68,-1513.47,8283.35,8.03429,-9.21237,6.46747,4916.24,240.595,8567.33,1.00009,-1.41487,-0.174744,-120.809,9667.38,-1399.63,-0.805477,0.639894,2.63861,750.199,-9861.61,-1858.94,-2.88824,3.54117,-0.723096,-1289.76,9624.61,-337.629,-1.17591,2.69462,2.52388,666.528,-9637.31,-2405.82,-1.95761,-0.991013,-3.68583,9486.38,-1320.18,2515.28,3.96672,-2.82234,4.78027
0.114,4842.35,-1513.34,8303.16,8.07481,-9.46037,6.60011,4934.16,244.623,8573.66,1.09758,-1.46891,-0.154649,-146.577,9682.51,-1438.37,-0.681472,0.461368,2.58516,733.178,-9858.34,-1847.25,-2.8001,3.6163,-0.80473,-1295.44,9632.18,-323.359,-1.17402,2.64712,2.52846,683.422,-9630.4,-2396.15,-1.95818,-0.888471,-3.67619,9515.45,-1299.56,2520.12,3.95189,-2.87259,4.75443
0.115,4811.01,-1513.22,8322.98,8.11533,-9.70837,6.73274,4952.08,248.65,8579.99,1.19506,-1.52295,-0.134554,-172.345,9697.64,-1477.12,-0.557468,0.282842,2.5317,716.157,-9855.06,-1835.56,-2.71196,3.69143,-0.886364,-1301.12,9639.74,-309.088,-1.17212,2.59961,2.53303,700.316,-9623.49,-2386.47,-1.95874,-0.785929,-3.66655,9544.52,-1278.94,2524.97,3.93705,-2.92284,4.72859
0.116,4801.22,-1506.57,8336.77,8.17822,-9.95145,6.87011,4961.61,251.873,8575.06,1.23394,-1.57459,-0.120262,-180.929,9702.39,-1488.1,-0.525077,0.195038,2.56356,702.383,-9851.94,-1827.44,-2.68448,3.75739,-0.957122,-1298.58,9652.66,-299.774,-1.13476,2.55998,2.51679,697.967,-9630.05,-2382.22,-1.98055,-0.872572,-3.60587,9564.87,-1272.53,2526.03,3.91569,-2.92776,4.71266
0.117,4818.37,-1491.78,8343.03,8.26908,-10.1884,7.01341,4960.63,254.09,8556.06,1.19956,-1.62324,-0.113225,-168.032,9694.16,-1464.39,-0.607203,0.220637,2.70207,692.666,-9849.0,-1823.78,-2.73283,3.81189,-1.01428,-1285.76,9672.28,-296.657,-1.05306,2.53019,2.47451,671.563,-9653.45,-2384.77,-2.0289,-1.1957,-3.48138,9574.33,-1283.88,2522.37,3.88617,-2.87602,4.70913
0.118,4835.52,-1476.98,8349.29,8.35994,-10.4253,7.1567,4959.66,256.306,8537.05,1.16518,-1.67189,-0.106187,-155.135,9685.93,-1440.68,-0.68933,0.246235,2.84058,682.95,-9846.05,-1820.12,-2.78118,3.86638,-1.07145,-1272.94,9691.89,-293.539,-0.971364,2.50039,2.43223,645.158,-9676.85,-2387.32,-2.07725,-1.51882,-3.3569,9583.8,-1295.23,2518.7,3.85665,-2.82427,4.7056
0.119,4852.66,-1462.19,8355.55,8.4508,-10.6623,7.3,4958.68,258.523,8518.05,1.1308,-1.72054,-0.0991493,-142.238,9677.71,-1416.97,-0.771456,0.271834,2.97909,673.233,-9843.11,-1816.46,-2.82952,3.92088,-1.12861,-1260.12,9711.5,-290.422,-0.889668,2.4706,2.38996,618.754,-9700.25,-2389.87,-2.1256,-1.84195,-3.23241,9593.26,-1306.59,2515.04,3.82712,-2.77252,4.70207
0.12,4869.81,-1447.4,8361.81,8.54166,-10.8992,7.4433,4957.71,260.74,8499.05,1.09642,-1.76919,-0.0921117,-129.342,9669.48,-1393.26,-0.853583,0.297433,3.1176,663.517,-9840.17,-1812.8,-2.87787,3.97538,-1.18577,-1247.29,9731.11,-287.304,-0.807971,2.4408,2.34768,592.35,-9723.66,-2392.42,-2.17395,-2.16507,-3.10792,9602.72,-1317.94,2511.38,3.7976,-2.72078,4.69854
0.121,4868.98,-1435.67,8346.78,8.68448,-10.933,7.62305,4945.2,250.505,8495.03,1.0001,-1.74852,-0.182855,-130.28,9702.65,-1390.19,-0.838066,0.147809,3.22747,676.386,-9859.99,-1799.26,-2.82588,3.87591,-1.21377,-1243.8,9721.85,-288.01,-0.803687,2.39585,2.16087,620.115,-9683.61,-2374.01,-2.15385,-2.12398,-2.95639,9596.62,-1305.4,2510.87,3.8189,-2.55328,4.68628
0.122,4868.15,-1423.94,8331.76,8.82731,-10.9668,7.8028,4932.7,240.27,8491.01,0.903775,-1.72785,-0.273597,-131.217,9735.82,-1387.13,-0.822549,-0.00181414,3.33735,689.255,-9879.82,-1785.72,-2.77389,3.77645,-1.24178,-1240.3,9712.59,-288.715,-0.799404,2.35089,1.97406,647.88,-9643.57,-2355.61,-2.13375,-2.08289,-2.80485,9590.52,-1292.87,2510.36,3.84019,-2.38577,4.67401
0.123,4867.32,-1412.21,8316.73,8.97014,-11.0006,7.98255,4920.19,230.034,8486.98,0.807452,-1.70718,-0.36434,-132.155,9768.99,-1384.06,-0.807032,-0.151438,3.44723,702.123,-9899.64,-1772.19,-2.7219,3.67698,-1.26978,-1236.81,9703.33,-289.421,-0.79512,2.30594,1.78726,675.645,-9603.53,-2337.21,-2.11365,-2.0418,-2.65332,9584.41,-1280.34,2509.86,3.86149,-2.21827,4.66175
0.124,4866.5,-1400.48,8301.7,9.11297,-11.0344,8.1623,4907.68,219.799,8482.96,0.711129,-1.68651,-0.455083,-133.093,9802.16,-1380.99,-0.791515,-0.301061,3.55711,714.992,-9919.46,-1758.65,-2.66991,3.57751,-1.29778,-1233.32,9694.07,-290.126,-0.790836,2.26099,1.60045,703.411,-9563.49,-2318.81,-2.09355,-2.00071,-2.50178,9578.31,-1267.8,2509.35,3.88278,-2.05077,4.64949
0.125,4878.38,-1396.34,8284.58,9.14804,-11.05,8.26171,4907.02,219.379,8481.8,0.665339,-1.68949,-0.56044,-130.802,9819.58,-1382.57,-0.742936,-0.375008,3.63191,727.921,-9917.75,-1751.89,-2.62292,3.45928,-1.31425,-1219.13,9675.26,-280.724,-0.82496,2.1368,1.45243,707.237,-9558.63,-2316.39,-2.11176,-2.0284,-2.39921,9554.05,-1276.42,2507.5,3.88009,-2.05538,4.65701
0.126,4900.43,-1398.28,8265.79,9.0969,-11.0511,8.29684,4915.82,226.811,8482.92,0.659975,-1.71137,-0.677488,-125.928,9824.38,-1387.87,-0.667907,-0.388413,3.67865,740.899,-9898.81,-1750.56,-2.57992,3.32603,-1.3215,-1196.38,9648.82,-263.235,-0.88981,1.94923,1.33546,691.913,-9581.92,-2326.75,-2.16062,-2.11112,-2.33582,9515.25,-1301.97,2504.58,3.85819,-2.19769,4.68037
0.127,4922.49,-1400.22,8246.99,9.04576,-11.0522,8.33197,4924.62,234.242,8484.04,0.654612,-1.73326,-0.794536,-121.054,9829.19,-1393.17,-0.592879,-0.401819,3.7254,753.876,-9879.86,-1749.23,-2.53692,3.19277,-1.32875,-1173.64,9622.38,-245.746,-0.95466,1.76166,1.21848,676.588,-9605.22,-2337.11,-2.20949,-2.19383,-2.27243,9476.46,-1327.52,2501.66,3.8363,-2.34001,4.70373
0.128,4944.54,-1402.16,8228.2,8.99462,-11.0532,8.36711,4933.42,241.674,8485.17,0.649248,-1.75515,-0.911584,-116.179,9834.0,-1398.46,-0.517851,-0.415224,3.77214,766.854,-9860.92,-1747.89,-2.49393,3.05952,-1.336,-1150.89,9595.93,-228.257,-1.01951,1.57409,1.10151,661.264,-9628.51,-2347.47,-2.25835,-2.27654,-2.20903,9437.66,-1353.07,2498.73,3.8144,-2.48232,4.72709
0.129,4966.83,-1404.92,8209.92,8.93221,-11.0492,8.3965,4939.36,248.875,8484.97,0.646674,-1.77672,-1.01671,-113.064,9833.84,-1403.2,-0.466973,-0.426555,3.79303,775.897,-9845.1,-1745.92,-2.4577,2.93181,-1.35072,-1128.9,9571.86,-211.622,-1.07409,1.40323,1.00264,649.974,-9648.65,-2356.79,-2.31658,-2.358,-2.14794,9405.91,-1377.75,2497.09,3.79325,-2.60932,4.74396
0.13,4990.92,-1414.3,8195.77,8.77962,-11.0045,8.37999,4922.47,254.234,8474.27,0.66642,-1.79579,-1.02645,-124.021,9793.89,-1403.41,-0.6093,-0.421287,3.60703,753.465,-9854.22,-1738.89,-2.47564,2.84839,-1.42524,-1112.94,9566.77,-201.825,-1.0465,1.36606,1.04866,670.959,-9643.57,-2357.69,-2.44977,-2.42937,-2.10531,9430.47,-1395.42,2505.65,3.77806,-2.61387,4.70891
0.131,5015.01,-1423.67,8181.61,8.62703,-10.9598,8.36348,4905.57,259.593,8463.56,0.686166,-1.81485,-1.03619,-134.978,9753.94,-1403.62,-0.751628,-0.416018,3.42104,731.034,-9863.34,-1731.85,-2.49358,2.76498,-1.49977,-1096.98,9561.67,-192.028,-1.01891,1.3289,1.09469,691.945,-9638.49,-2358.58,-2.58296,-2.50074,-2.06268,9455.03,-1413.1,2514.21,3.76286,-2.61843,4.67385
0.132,5039.11,-1433.05,8167.46,8.47443,-10.9151,8.34696,4888.68,264.952,8452.85,0.705912,-1.83391,-1.04592,-145.935,9714.0,-1403.83,-0.893956,-0.41075,3.23504,708.603,-9872.46,-1724.81,-2.51152,2.68156,-1.57429,-1081.02,9556.58,-182.231,-0.991324,1.29173,1.14071,712.931,-9633.4,-2359.48,-2.71616,-2.57211,-2.02005,9479.59,-1430.78,2522.77,3.74767,-2.62298,4.6388
0.133,5063.2,-1442.42,8153.31,8.32184,-10.8704,8.33045,4871.79,270.311,8442.15,0.725658,-1.85297,-1.05566,-156.891,9674.05,-1404.05,-1.03628,-0.405482,3.04905,686.171,-9881.58,-1717.77,-2.52945,2.59814,-1.64882,-1065.06,9551.48,-172.433,-0.963736,1.25457,1.18674,733.916,-9628.32,-2360.38,-2.84935,-2.64348,-1.97742,9504.14,-1448.46,2531.34,3.73247,-2.62753,4.60374
0.134,5064.77,-1451.02,8145.13,8.19206,-10.7314,8.2968,4865.1,272.387,8442.78,0.717467,-1.81069,-1.02259,-166.597,9667.26,-1393.95,-1.04181,-0.337868,2.97834,681.28,-9869.16,-1726.95,-2.51771,2.45089,-1.62254,-1055.38,9554.87,-174.301,-0.877292,1.24478,1.14226,741.138,-9638.67,-2366.17,-2.92523,-2.75725,-1.97035,9527.4,-1443.3,2516.78,3.70968,-2.59437,4.666
0.135,5055.06,-1459.23,8139.93,8.07368,-10.5452,8.25457,4863.5,272.822,8449.09,0.695307,-1.73775,-0.968123,-175.677,9677.06,-1378.71,-0.97893,-0.23908,2.96527,685.158,-9845.97,-1744.23,-2.49113,2.27172,-1.54587,-1048.84,9562.5,-182.002,-0.76142,1.24867,1.05253,741.478,-9656.74,-2374.39,-2.97245,-2.89221,-1.98108,9550.01,-1426.72,2490.68,3.68309,-2.54236,4.77691
0.136,5045.36,-1467.45,8134.72,7.95531,-10.359,8.21235,4861.91,273.258,8455.39,0.673147,-1.66481,-0.913651,-184.756,9686.85,-1363.46,-0.916053,-0.140292,2.9522,689.037,-9822.79,-1761.52,-2.46454,2.09255,-1.4692,-1042.3,9570.13,-189.703,-0.645548,1.25257,0.962807,741.818,-9674.81,-2382.61,-3.01967,-3.02717,-1.9918,9572.62,-1410.14,2464.57,3.6565,-2.49034,4.88781
0.137,5035.66,-1475.66,8129.52,7.83693,-10.1728,8.17013,4860.32,273.693,8461.69,0.650987,-1.59187,-0.859178,-193.836,9696.64,-1348.22,-0.853175,-0.0415047,2.93913,692.915,-9799.6,-1778.8,-2.43796,1.91337,-1.39253,-1035.76,9577.76,-197.404,-0.529676,1.25646,0.873082,742.158,-9692.88,-2390.84,-3.0669,-3.16213,-2.00252,9595.22,-1393.56,2438.46,3.62991,-2.43833,4.99872
0.138,5031.41,-1482.13,8126.15,7.73594,-10.0195,8.11004,4859.46,276.396,8467.96,0.631191,-1.52412,-0.817587,-193.42,9698.93,-1340.24,-0.811769,0.0132717,2.9283,700.667,-9783.65,-1792.01,-2.41043,1.74476,-1.33971,-1027.66,9586.28,-209.178,-0.417186,1.24495,0.801084,753.513,-9704.81,-2395.47,-3.09226,-3.24492,-1.99332,9612.04,-1380.79,2419.69,3.62592,-2.37982,5.09559
0.139,5046.25,-1482.47,8129.18,7.6958,-9.98156,7.98746,4861.17,287.04,8474.06,0.619669,-1.47454,-0.821077,-159.772,9674.94,-1357.68,-0.845516,-0.0859913,2.92532,721.972,-9793.04,-1790.94,-2.37962,1.61307,-1.37033,-1014.13,9597.93,-235.21,-0.316535,1.17948,0.791132,803.42,-9695.3,-2387.54,-3.04109,-3.14511,-1.91437,9608.59,-1381.37,2426.62,3.70106,-2.29858,5.14333
0.14,5061.08,-1482.82,8132.22,7.65567,-9.9436,7.86487,4862.88,297.684,8480.17,0.608146,-1.42496,-0.824567,-126.123,9650.95,-1375.13,-0.879262,-0.185254,2.92234,743.278,-9802.44,-1789.87,-2.34881,1.48138,-1.40096,-1000.59,9609.59,-261.241,-0.215884,1.11402,0.781181,853.327,-9685.78,-2379.61,-2.98993,-3.04531,-1.83542,9605.14,-1381.95,2433.54,3.77619,-2.21734,5.19107
0.141,5075.92,-1483.17,8135.25,7.61553,-9.90565,7.74229,4864.59,308.328,8486.27,0.596624,-1.37538,-0.828057,-92.4737,9626.95,-1392.58,-0.913008,-0.284517,2.91936,764.584,-9811.84,-1788.8,-2.31799,1.34969,-1.43158,-987.06,9621.24,-287.273,-0.115234,1.04855,0.77123,903.235,-9676.26,-2371.68,-2.93877,-2.9455,-1.75648,9601.69,-1382.53,2440.47,3.85132,-2.1361,5.23882
0.142,5090.76,-1483.52,8138.28,7.5754,-9.8677,7.6197,4866.29,318.972,8492.38,0.585102,-1.3258,-0.831547,-58.8247,9602.96,-1410.03,-0.946755,-0.383781,2.91638,785.889,-9821.24,-1787.73,-2.28718,1.218,-1.46221,-973.526,9632.9,-313.304,-0.0145827,0.983084,0.761278,953.142,-9666.74,-2363.75,-2.88761,-2.84569,-1.67753,9598.24,-1383.11,2447.4,3.92646,-2.05486,5.28656
0.143,5099.85,-1490.49,8133.86,7.55717,-9.82984,7.59859,4852.05,329.999,8483.84,0.504345,-1.36707,-0.823119,-58.2003,9591.98,-1406.77,-0.903821,-0.486873,2.87969,780.594,-9817.88,-1789.9,-2.26747,1.11945,-1.45216,-960.762,9640.96,-310.016,-0.0168272,1.04519,0.820335,949.211,-9650.41,-2361.76,-2.89567,-2.87282,-1.79356,9578.94,-1379.38,2442.27,3.84601,-2.02264,5.27895
0.144,5107.3,-1499.35,8127.31,7.54519,-9.79202,7.60648,4833.24,341.135,8471.11,0.403807,-1.4343,-0.811286,-67.0114,9584.72,-1397.59,-0.838978,-0.59106,2.83335,767.698,-9810.88,-1793.0,-2.25093,1.03036,-1.4305,-948.218,9648.0,-298.35,-0.0484703,1.14374,0.899109,929.899,-9632.13,-2361.46,-2.92065,-2.93622,-1.96529,9555.12,-1374.41,2433.69,3.72111,-2.00442,5.25553
0.145,5114.74,-1508.2,8120.75,7.53321,-9.7542,7.61436,4814.44,352.27,8458.39,0.30327,-1.50153,-0.799453,-75.8225,9577.45,-1388.42,-0.774135,-0.695247,2.78702,754.803,-9803.88,-1796.1,-2.23438,0.941276,-1.40883,-935.674,9655.03,-286.685,-0.0801135,1.24229,0.977883,910.586,-9613.86,-2361.17,-2.94564,-2.99961,-2.13702,9531.3,-1369.44,2425.12,3.5962,-1.9862,5.23212
0.146,5122.19,-1517.06,8114.19,7.52124,-9.71637,7.62224,4795.63,363.406,8445.66,0.202732,-1.56876,-0.787619,-84.6337,9570.19,-1379.24,-0.709292,-0.799434,2.74069,741.907,-9796.88,-1799.2,-2.21784,0.852191,-1.38717,-923.13,9662.07,-275.019,-0.111757,1.34084,1.05666,891.273,-9595.58,-2360.88,-2.97062,-3.063,-2.30875,9507.47,-1364.47,2416.54,3.4713,-1.96798,5.2087
0.147,5123.96,-1524.54,8104.11,7.49379,-9.65986,7.62341,4785.37,370.082,8433.7,0.0891502,-1.61178,-0.79741,-86.2336,9571.48,-1376.74,-0.663201,-0.832511,2.6818,742.612,-9793.65,-1796.35,-2.1826,0.756981,-1.35481,-913.423,9662.64,-261.295,-0.0992822,1.42462,1.11107,893.167,-9591.79,-2359.97,-2.97389,-3.04689,-2.3702,9495.98,-1363.82,2411.69,3.42073,-1.96875,5.15313
0.148,5114.36,-1529.28,8086.97,7.43539,-9.56597,7.61115,4792.2,367.836,8423.25,-0.0505193,-1.6064,-0.850449,-73.4111,9589.91,-1387.6,-0.654614,-0.72337,2.5978,770.521,-9797.95,-1781.59,-2.10995,0.649522,-1.30108,-909.391,9650.29,-243.454,0.00142756,1.47884,1.11675,937.476,-9616.98,-2357.84,-2.93374,-2.87176,-2.21109,9509.14,-1371.8,2414.28,3.51883,-2.00752,5.03325
0.149,5104.76,-1534.01,8069.83,7.37699,-9.47209,7.59889,4799.03,365.589,8412.81,-0.190189,-1.60101,-0.903487,-60.5886,9608.34,-1398.46,-0.646027,-0.614229,2.5138,798.429,-9802.26,-1766.84,-2.03731,0.542062,-1.24735,-905.359,9637.93,-225.613,0.102137,1.53307,1.12243,981.784,-9642.17,-2355.71,-2.89358,-2.69663,-2.05198,9522.3,-1379.78,2416.87,3.61693,-2.04628,4.91336
0.15,5095.16,-1538.74,8052.69,7.31859,-9.3782,7.58663,4805.87,363.343,8402.36,-0.329858,-1.59562,-0.956526,-47.7661,9626.77,-1409.31,-0.63744,-0.505087,2.4298,826.337,-9806.56,-1752.08,-1.96466,0.434602,-1.19362,-901.327,9625.58,-207.772,0.202847,1.58729,1.12811,1026.09,-9667.35,-2353.57,-2.85342,-2.5215,-1.89288,9535.46,-1387.76,2419.46,3.71503,-2.08504,4.79348
0.151,5085.57,-1543.48,8035.55,7.26019,-9.28431,7.57437,4812.7,361.097,8391.92,-0.469528,-1.59023,-1.00956,-34.9435,9645.2,-1420.17,-0.628853,-0.395946,2.34579,854.245,-9810.87,-1737.32,-1.89201,0.327142,-1.13989,-897.295,9613.23,-189.931,0.303557,1.64152,1.1338,1070.4,-9692.54,-2351.44,-2.81326,-2.34637,-1.73377,9548.63,-1395.74,2422.05,3.81313,-2.12381,4.6736
0.152,5073.87,-1543.22,8033.71,7.18411,-9.14059,7.58738,4819.24,365.451,8391.15,-0.599183,-1.52443,-1.01272,-34.1444,9646.42,-1438.44,-0.655657,-0.434163,2.35492,855.394,-9798.93,-1745.03,-2.00127,0.215645,-1.11614,-899.294,9606.08,-182.788,0.300746,1.64754,1.13591,1050.88,-9690.78,-2341.67,-2.94255,-2.33739,-1.59252,9513.51,-1397.87,2403.89,3.75709,-1.99949,4.65573
0.153,5061.92,-1542.34,8033.78,7.10582,-8.99064,7.60355,4825.75,370.63,8391.59,-0.727586,-1.45109,-1.00964,-34.8481,9645.5,-1457.63,-0.686884,-0.4908,2.37568,853.198,-9784.96,-1755.55,-2.13327,0.103644,-1.09614,-902.047,9599.58,-176.982,0.284994,1.64754,1.13758,1023.39,-9685.65,-2330.94,-3.09303,-2.34918,-1.45351,9472.35,-1399.27,2383.13,3.68178,-1.85479,4.65061
0.154,5049.97,-1541.46,8033.85,7.02754,-8.84069,7.61973,4832.25,375.809,8392.04,-0.855989,-1.37774,-1.00657,-35.5518,9644.57,-1476.83,-0.718112,-0.547436,2.39645,851.001,-9770.99,-1766.06,-2.26527,-0.00835825,-1.07614,-904.8,9593.08,-171.176,0.269243,1.64754,1.13925,995.895,-9680.53,-2320.21,-3.2435,-2.36096,-1.3145,9431.2,-1400.68,2362.38,3.60647,-1.71008,4.64549
0.155,5038.02,-1540.58,8033.92,6.94925,-8.69074,7.6359,4838.76,380.988,8392.48,-0.984392,-1.30439,-1.00349,-36.2556,9643.64,-1496.02,-0.74934,-0.604073,2.41721,848.805,-9757.02,-1776.58,-2.39726,-0.12036,-1.05614,-907.553,9586.58,-165.369,0.253491,1.64754,1.14092,968.401,-9675.4,-2309.48,-3.39397,-2.37275,-1.17549,9390.04,-1402.08,2341.62,3.53117,-1.56538,4.64037
0.156,5032.71,-1541.32,8044.6,6.90106,-8.53869,7.67571,4838.94,392.15,8393.34,-1.0773,-1.26386,-0.991572,-37.9896,9649.46,-1509.36,-0.742722,-0.71066,2.36229,843.679,-9750.01,-1779.41,-2.38711,-0.177826,-1.01699,-902.383,9574.55,-164.493,0.245669,1.68714,1.08641,967.954,-9671.03,-2321.99,-3.44175,-2.34736,-1.09217,9370.35,-1408.5,2335.9,3.4583,-1.44705,4.66145
0.157,5035.72,-1544.1,8068.53,6.89049,-8.38402,7.74508,4831.2,410.792,8394.72,-1.12584,-1.26435,-0.968609,-41.0116,9663.69,-1515.38,-0.688797,-0.879684,2.21275,834.889,-9751.69,-1772.64,-2.19926,-0.167121,-0.953908,-887.308,9555.59,-169.779,0.247759,1.77623,0.961665,1001.31,-9667.6,-2363.57,-3.36116,-2.2755,-1.07846,9377.48,-1421.21,2348.97,3.38849,-1.36168,4.71529
0.158,5038.73,-1546.88,8092.47,6.87992,-8.22934,7.81444,4823.47,429.433,8396.1,-1.17438,-1.26485,-0.945646,-44.0335,9677.93,-1521.41,-0.634872,-1.04871,2.06321,826.1,-9753.37,-1765.88,-2.01142,-0.156417,-0.890825,-872.233,9536.64,-175.065,0.249849,1.86532,0.836921,1034.68,-9664.17,-2405.15,-3.28057,-2.20364,-1.06476,9384.62,-1433.92,2362.04,3.31867,-1.27631,4.76912
0.159,5041.73,-1549.66,8116.4,6.86935,-8.07467,7.8838,4815.73,448.075,8397.48,-1.22293,-1.26534,-0.922683,-47.0555,9692.16,-1527.43,-0.580947,-1.21773,1.91366,817.311,-9755.05,-1759.11,-1.82357,-0.145712,-0.827742,-857.158,9517.69,-180.351,0.251938,1.95441,0.712176,1068.04,-9660.74,-2446.72,-3.19999,-2.13178,-1.05105,9391.75,-1446.63,2375.12,3.24886,-1.19093,4.82296
0.16,5044.74,-1552.43,8140.34,6.85878,-7.91999,7.95317,4808.0,466.716,8398.86,-1.27147,-1.26584,-0.89972,-50.0774,9706.4,-1533.45,-0.527022,-1.38676,1.76412,808.522,-9756.73,-1752.35,-1.63573,-0.135008,-0.764659,-842.083,9498.74,-185.637,0.254028,2.0435,0.587432,1101.4,-9657.31,-2488.3,-3.1194,-2.05992,-1.03734,9398.88,-1459.33,2388.19,3.17904,-1.10556,4.8768
0.161,5061.67,-1565.32,8132.47,6.86104,-7.78202,7.89788,4808.29,468.472,8396.32,-1.25187,-1.25876,-0.908851,-30.6215,9687.94,-1533.76,-0.479844,-1.46282,1.65552,820.4,-9748.33,-1746.4,-1.56076,-0.219879,-0.757365,-824.771,9517.45,-195.899,0.285544,2.098,0.597713,1102.51,-9642.84,-2460.93,-3.24269,-1.81507,-1.03526,9406.53,-1449.98,2389.53,3.24574,-0.967852,4.78262
0.162,5078.6,-1578.21,8124.6,6.8633,-7.64404,7.8426,4808.58,470.227,8393.77,-1.23228,-1.25169,-0.917982,-11.1655,9669.49,-1534.08,-0.432666,-1.53888,1.54691,832.279,-9739.93,-1740.44,-1.48579,-0.304751,-0.750071,-807.458,9536.17,-206.161,0.317061,2.1525,0.607993,1103.63,-9628.37,-2433.57,-3.36599,-1.57022,-1.03317,9414.17,-1440.62,2390.88,3.31243,-0.830143,4.68844
0.163,5095.53,-1591.09,8116.74,6.86555,-7.50607,7.78731,4808.87,471.982,8391.23,-1.21268,-1.24461,-0.927113,8.29041,9651.04,-1534.39,-0.385489,-1.61495,1.4383,844.157,-9731.53,-1734.49,-1.41083,-0.389623,-0.742776,-790.146,9554.88,-216.423,0.348577,2.207,0.618274,1104.75,-9613.89,-2406.21,-3.48928,-1.32537,-1.03109,9421.82,-1431.26,2392.22,3.37912,-0.692433,4.59425
0.164,5112.46,-1603.98,8108.87,6.86781,-7.36809,7.73203,4809.16,473.738,8388.69,-1.19309,-1.23753,-0.936244,27.7463,9632.59,-1534.71,-0.338311,-1.69101,1.32969,856.035,-9723.13,-1728.54,-1.33586,-0.474495,-0.735482,-772.834,9573.59,-226.685,0.380094,2.2615,0.628555,1105.87,-9599.42,-2378.84,-3.61258,-1.08051,-1.02901,9429.46,-1421.9,2393.56,3.44582,-0.554723,4.50007
0.165,5125.64,-1607.67,8098.59,6.78983,-7.18475,7.59211,4817.08,464.895,8388.72,-1.23151,-1.22958,-0.928039,35.3592,9613.06,-1527.49,-0.285439,-1.74248,1.27255,851.375,-9719.49,-1725.64,-1.37108,-0.495482,-0.696651,-743.447,9581.96,-223.154,0.392605,2.29548,0.639888,1107.51,-9601.72,-2372.52,-3.69683,-0.947403,-0.981206,9420.33,-1411.72,2395.93,3.46818,-0.454471,4.44239
0.166,5135.83,-1604.01,8086.37,6.64765,-6.96512,7.38449,4831.11,447.574,8390.83,-1.31635,-1.22093,-0.905967,33.4976,9592.68,-1514.24,-0.228011,-1.77426,1.25658,833.484,-9719.66,-1725.17,-1.49445,-0.465363,-0.632591,-704.399,9582.05,-208.589,0.389913,2.31304,0.652063,1109.57,-9617.43,-2383.02,-3.74985,-0.903686,-0.896832,9397.79,-1400.88,2399.12,3.45509,-0.384184,4.41392
0.167,5146.01,-1600.35,8074.16,6.50548,-6.74548,7.17687,4845.13,430.253,8392.94,-1.40118,-1.21227,-0.883894,31.636,9572.3,-1500.99,-0.170583,-1.80605,1.24061,815.594,-9719.83,-1724.71,-1.61782,-0.435244,-0.56853,-665.352,9582.14,-194.023,0.387221,2.3306,0.664238,1111.63,-9633.14,-2393.52,-3.80287,-0.859969,-0.812458,9375.24,-1390.04,2402.31,3.44199,-0.313897,4.38544
0.168,5156.2,-1596.69,8061.94,6.36331,-6.52585,6.96924,4859.16,412.932,8395.04,-1.48602,-1.20362,-0.861821,29.7743,9551.91,-1487.74,-0.113156,-1.83784,1.22464,797.703,-9719.99,-1724.24,-1.74119,-0.405125,-0.50447,-626.305,9582.23,-179.458,0.384528,2.34816,0.676413,1113.69,-9648.85,-2404.02,-3.85589,-0.816251,-0.728084,9352.69,-1379.2,2405.5,3.42889,-0.24361,4.35696
0.169,5165.1,-1593.52,8050.56,6.2168,-6.3127,6.76459,4872.18,396.066,8397.42,-1.56815,-1.19561,-0.839124,28.6957,9535.08,-1474.51,-0.0707535,-1.86938,1.19929,784.158,-9723.57,-1723.71,-1.83733,-0.364964,-0.445564,-592.268,9583.81,-166.088,0.379459,2.36758,0.685697,1115.49,-9662.68,-2413.21,-3.90154,-0.766437,-0.64096,9333.27,-1370.53,2405.62,3.41853,-0.158338,4.32226
0.17,5163.79,-1594.27,8045.88,6.03556,-6.15147,6.58371,4877.11,382.842,8401.98,-1.62872,-1.19278,-0.811425,33.8805,9546.62,-1461.43,-0.148558,-1.89901,1.09893,805.377,-9754.44,-1722.68,-1.71567,-0.244466,-0.427894,-598.308,9597.29,-162.278,0.355376,2.4019,0.671854,1115.19,-9661.43,-2411.89,-3.88833,-0.667845,-0.531841,9338.89,-1379.25,2381.14,3.43009,0.0468141,4.23773
0.171,5162.48,-1595.02,8041.2,5.85432,-5.99023,6.40282,4882.05,369.618,8406.54,-1.68928,-1.18994,-0.783727,39.0653,9558.16,-1448.35,-0.226363,-1.92863,0.998576,826.595,-9785.31,-1721.66,-1.59402,-0.123969,-0.410224,-604.348,9610.77,-158.468,0.331293,2.43622,0.65801,1114.89,-9660.18,-2410.57,-3.87511,-0.569254,-0.422721,9344.5,-1387.96,2356.66,3.44165,0.251966,4.15321
0.172,5161.16,-1595.77,8036.52,5.67308,-5.82899,6.22194,4886.98,356.394,8411.09,-1.74985,-1.1871,-0.756029,44.2502,9569.69,-1435.27,-0.304168,-1.95825,0.89822,847.813,-9816.18,-1720.63,-1.47237,-0.00347137,-0.392554,-610.388,9624.25,-154.658,0.30721,2.47055,0.644167,1114.59,-9658.94,-2409.25,-3.86189,-0.470662,-0.313601,9350.11,-1396.67,2332.19,3.45321,0.457118,4.06869
0.173,5159.85,-1596.52,8031.84,5.49184,-5.66775,6.04106,4891.92,343.169,8415.65,-1.81041,-1.18426,-0.728331,49.435,9581.23,-1422.19,-0.381973,-1.98788,0.797864,869.031,-9847.05,-1719.6,-1.35071,0.117026,-0.374884,-616.428,9637.73,-150.848,0.283128,2.50487,0.630324,1114.29,-9657.69,-2407.93,-3.84867,-0.37207,-0.204481,9355.73,-1405.38,2307.71,3.46477,0.66227,3.98417
0.174,5161.89,-1589.32,8034.05,5.39938,-5.51629,5.8743,4893.48,330.591,8423.32,-1.92087,-1.20794,-0.717558,54.7086,9602.26,-1428.93,-0.414241,-1.93762,0.72885,855.192,-9847.18,-1736.69,-1.35927,0.125463,-0.359661,-636.181,9639.56,-169.082,0.31186,2.60612,0.637188,1123.93,-9654.32,-2391.02,-3.8437,-0.260866,-0.122915,9369.27,-1413.96,2312.47,3.36044,0.712586,3.83746
0.175,5165.6,-1578.14,8039.7,5.3513,-5.36972,5.71461,4893.36,318.335,8432.56,-2.05627,-1.24487,-0.715249,60.0267,9628.02,-1445.58,-0.423741,-1.84743,0.675505,823.824,-9831.94,-1762.84,-1.43292,0.077869,-0.345661,-662.791,9635.56,-198.34,0.367,2.74082,0.654405,1138.54,-9649.89,-2366.33,-3.84287,-0.143356,-0.0551248,9386.78,-1422.47,2331.84,3.19815,0.685484,3.65965
0.176,5169.31,-1566.96,8045.35,5.30323,-5.22314,5.55491,4893.24,306.079,8441.8,-2.19168,-1.28179,-0.712939,65.3447,9653.79,-1462.23,-0.43324,-1.75723,0.622161,792.456,-9816.69,-1788.99,-1.50657,0.0302752,-0.33166,-689.4,9631.57,-227.597,0.422141,2.87553,0.671622,1153.15,-9645.47,-2341.63,-3.84203,-0.0258464,0.0126651,9404.3,-1430.97,2351.21,3.03586,0.658382,3.48185
0.177,5173.03,-1555.78,8051.01,5.25516,-5.07657,5.39521,4893.12,293.822,8451.04,-2.32708,-1.31872,-0.710629,70.6628,9679.55,-1478.87,-0.442739,-1.66703,0.568817,761.088,-9801.45,-1815.13,-1.58023,-0.0173186,-0.31766,-716.01,9627.57,-256.854,0.477281,3.01024,0.688838,1167.75,-9641.04,-2316.93,-3.8412,0.0916635,0.0804549,9421.81,-1439.48,2370.59,2.87358,0.63128,3.30405
0.178,5174.48,-1545.03,8060.92,5.18915,-4.904,5.24044,4890.61,281.657,8458.27,-2.42633,-1.35711,-0.71191,81.4622,9697.96,-1484.92,-0.481704,-1.60441,0.505397,739.338,-9788.78,-1833.49,-1.64407,-0.0546701,-0.288522,-740.917,9625.21,-278.385,0.522343,3.10076,0.696752,1179.91,-9636.35,-2300.4,-3.83901,0.183503,0.144876,9430.43,-1446.3,2387.97,2.74959,0.610518,3.15076
0.179,5168.01,-1535.78,8085.74,5.06036,-4.64042,5.10289,4879.73,269.81,8458.52,-2.39903,-1.40061,-0.725759,111.447,9690.61,-1453.87,-0.6238,-1.63829,0.406714,751.253,-9785.1,-1824.61,-1.67357,-0.0561741,-0.2064,-759.86,9628.6,-272.874,0.532134,3.03661,0.672104,1183.49,-9630.75,-2312.46,-3.83209,0.185495,0.197505,9407.93,-1447.2,2398.41,2.75965,0.61195,3.08327
0.18,5161.54,-1526.54,8110.56,4.93158,-4.37684,4.96535,4868.84,257.962,8458.76,-2.37172,-1.4441,-0.739608,141.431,9683.25,-1422.82,-0.765896,-1.67217,0.30803,763.168,-9781.42,-1815.73,-1.70308,-0.057678,-0.124279,-778.804,9631.99,-267.362,0.541924,2.97245,0.647456,1187.06,-9625.14,-2324.51,-3.82518,0.187488,0.250135,9385.43,-1448.1,2408.85,2.76971,0.613383,3.01579
0.181,5155.07,-1517.29,8135.39,4.80279,-4.11326,4.8278,4857.96,246.115,8459.01,-2.34442,-1.4876,-0.753457,171.415,9675.9,-1391.77,-0.907991,-1.70605,0.209346,775.083,-9777.74,-1806.84,-1.73258,-0.0591819,-0.0421575,-797.748,9635.38,-261.851,0.551715,2.9083,0.622808,1190.64,-9619.53,-2336.57,-3.81826,0.18948,0.302764,9362.93,-1448.99,2419.29,2.77977,0.614815,2.9483
0.182,5148.6,-1508.05,8160.21,4.67401,-3.84968,4.69025,4847.08,234.267,8459.26,-2.31712,-1.5311,-0.767306,201.399,9668.55,-1360.72,-1.05009,-1.73993,0.110663,786.998,-9774.06,-1797.96,-1.76209,-0.0606858,0.039964,-816.692,9638.78,-256.339,0.561505,2.84414,0.59816,1194.22,-9613.93,-2348.62,-3.81134,0.191473,0.355394,9340.43,-1449.89,2429.73,2.78983,0.616247,2.88082
0.183,5149.99,-1509.35,8171.28,4.49131,-3.67665,4.59548,4839.0,229.338,8464.55,-2.32669,-1.48786,-0.8353,189.298,9668.02,-1366.22,-1.01015,-1.79706,0.0687451,794.983,-9777.94,-1788.46,-1.69419,0.00215012,0.0913834,-827.764,9645.0,-250.884,0.610518,2.78805,0.642674,1191.13,-9610.63,-2331.59,-3.87733,0.229721,0.50304,9348.3,-1468.43,2452.58,2.71992,0.649925,2.84917
0.184,5153.63,-1513.68,8178.42,4.29322,-3.52948,4.51292,4831.73,226.386,8471.28,-2.3468,-1.41984,-0.918765,165.173,9669.44,-1382.16,-0.918203,-1.86083,0.0430465,801.845,-9783.97,-1778.8,-1.59846,0.0833689,0.134031,-836.586,9652.03,-245.445,0.670738,2.73427,0.706948,1186.13,-9608.0,-2306.24,-3.96414,0.278327,0.677835,9364.85,-1492.02,2478.98,2.62715,0.692815,2.82777
0.185,5157.27,-1518.0,8185.56,4.09512,-3.38232,4.43036,4824.46,223.434,8478.01,-2.3669,-1.35182,-1.00223,141.047,9670.86,-1398.1,-0.826256,-1.9246,0.0173478,808.707,-9790.01,-1769.13,-1.50273,0.164588,0.176678,-845.408,9659.06,-240.006,0.730958,2.68048,0.771223,1181.14,-9605.36,-2280.9,-4.05095,0.326933,0.852629,9381.39,-1515.6,2505.38,2.53439,0.735706,2.80637
0.186,5160.91,-1522.32,8192.7,3.89702,-3.23516,4.34781,4817.19,220.481,8484.75,-2.38701,-1.28379,-1.08569,116.921,9672.28,-1414.04,-0.73431,-1.98837,-0.00835081,815.57,-9796.05,-1759.46,-1.407,0.245806,0.219325,-854.23,9666.09,-234.568,0.791177,2.62669,0.835498,1176.14,-9602.72,-2255.56,-4.13777,0.375539,1.02742,9397.94,-1539.18,2531.78,2.44162,0.778597,2.78497
0.187,5162.3,-1526.58,8196.54,3.72861,-3.11575,4.24739,4818.11,221.875,8482.54,-2.41423,-1.22924,-1.1623,97.3509,9676.85,-1428.8,-0.662125,-1.97925,-0.0295256,828.385,-9789.54,-1755.65,-1.34639,0.268594,0.270945,-855.57,9673.51,-228.342,0.848316,2.59586,0.903519,1176.15,-9616.54,-2244.2,-4.22853,0.493078,1.1327,9401.54,-1545.65,2545.23,2.37797,0.827993,2.71418
0.188,5159.22,-1530.7,8193.78,3.61956,-3.05188,4.11126,4835.42,231.961,8462.45,-2.45568,-1.20164,-1.22519,86.8903,9687.74,-1441.19,-0.629464,-1.82435,-0.0416526,853.106,-9757.95,-1763.55,-1.35603,0.174518,0.34051,-841.948,9681.7,-220.542,0.899292,2.61095,0.979032,1186.18,-9663.28,-2260.82,-4.32718,0.748481,1.09893,9379.23,-1517.89,2532.77,2.37253,0.890401,2.54462
0.189,5156.13,-1534.83,8191.02,3.51051,-2.988,3.97512,4852.73,242.047,8442.36,-2.49714,-1.17403,-1.28808,76.4297,9698.62,-1453.59,-0.596802,-1.66945,-0.0537797,877.827,-9726.36,-1771.45,-1.36566,0.0804418,0.410075,-828.325,9689.9,-212.742,0.950269,2.62604,1.05455,1196.2,-9710.02,-2277.44,-4.42584,1.00388,1.06517,9356.92,-1490.14,2520.32,2.3671,0.952808,2.37507
0.19,5153.04,-1538.95,8188.26,3.40146,-2.92413,3.83898,4870.03,252.133,8422.27,-2.53859,-1.14643,-1.35097,65.9691,9709.5,-1465.99,-0.564141,-1.51455,-0.0659067,902.547,-9694.76,-1779.35,-1.3753,-0.013634,0.47964,-814.703,9698.09,-204.942,1.00125,2.64113,1.13006,1206.23,-9756.75,-2294.06,-4.5245,1.25929,1.03141,9334.61,-1462.38,2507.87,2.36167,1.01522,2.20551
0.191,5149.96,-1543.07,8185.5,3.29241,-2.86025,3.70285,4887.34,262.219,8402.18,-2.58005,-1.11882,-1.41387,55.5085,9720.39,-1478.39,-0.53148,-1.35965,-0.0780338,927.268,-9663.17,-1787.25,-1.38494,-0.10771,0.549205,-801.08,9706.29,-197.143,1.05222,2.65622,1.20557,1216.25,-9803.49,-2310.68,-4.62316,1.51469,0.997641,9312.3,-1434.63,2495.41,2.35623,1.07762,2.03595
0.192,5155.06,-1550.67,8183.87,3.18614,-2.75228,3.5487,4884.1,263.143,8401.62,-2.62003,-1.13243,-1.38984,49.1023,9728.25,-1478.13,-0.602674,-1.34777,-0.231695,933.991,-9697.33,-1772.08,-1.28783,-0.0957869,0.60797,-796.509,9730.0,-180.801,1.05637,2.72093,1.31391,1206.62,-9802.04,-2302.39,-4.51802,1.5696,1.04276,9326.99,-1447.68,2505.84,2.25692,1.04262,2.01628
0.193,5161.18,-1558.69,8182.39,3.08022,-2.6388,3.39229,4878.29,262.922,8403.51,-2.65983,-1.15118,-1.35495,43.203,9735.74,-1476.28,-0.68685,-1.35377,-0.403047,938.464,-9739.71,-1754.02,-1.17738,-0.0706142,0.665385,-793.069,9755.66,-163.391,1.05467,2.79185,1.42636,1194.54,-9794.58,-2290.98,-4.3874,1.59944,1.09773,9346.3,-1465.83,2519.13,2.14588,0.995434,2.01535
0.194,5167.3,-1566.72,8180.9,2.9743,-2.52531,3.23589,4872.49,262.701,8405.4,-2.69962,-1.16994,-1.32006,37.3036,9743.22,-1474.44,-0.771027,-1.35977,-0.5744,942.937,-9782.09,-1735.96,-1.06693,-0.0454414,0.722799,-789.63,9781.31,-145.982,1.05297,2.86277,1.5388,1182.46,-9787.11,-2279.57,-4.25678,1.62928,1.15271,9365.61,-1483.99,2532.41,2.03484,0.948251,2.01441
0.195,5173.43,-1574.74,8179.42,2.86837,-2.41183,3.07948,4866.68,262.48,8407.29,-2.73942,-1.1887,-1.28517,31.4042,9750.71,-1472.59,-0.855203,-1.36577,-0.745752,947.41,-9824.47,-1717.91,-0.956485,-0.0202686,0.780214,-786.19,9806.96,-128.572,1.05127,2.93368,1.65125,1170.37,-9779.64,-2268.16,-4.12617,1.65913,1.20769,9384.92,-1502.14,2545.7,1.9238,0.901067,2.01348
0.196,5172.69,-1570.28,8183.97,2.82595,-2.31452,2.96792,4863.89,273.978,8408.38,-2.78022,-1.19319,-1.25515,28.2983,9756.17,-1461.73,-0.894384,-1.36316,-0.837587,927.686,-9844.46,-1713.95,-0.966455,-0.0165558,0.847273,-801.902,9814.16,-120.875,1.02961,2.9469,1.68658,1148.76,-9770.48,-2258.74,-4.07684,1.65358,1.30357,9377.72,-1516.87,2541.28,1.73788,0.905219,1.92091
0.197,5163.38,-1550.2,8196.06,2.86292,-2.23744,2.91241,4864.86,300.123,8408.49,-2.82229,-1.17986,-1.23121,28.684,9759.13,-1439.59,-0.87732,-1.34978,-0.830024,877.717,-9836.47,-1727.62,-1.12695,-0.0396681,0.926386,-841.553,9798.3,-125.318,0.983007,2.88798,1.62551,1115.25,-9759.21,-2251.82,-4.12912,1.6038,1.45058,9337.38,-1527.32,2514.75,1.45835,0.973538,1.7138
0.198,5154.08,-1530.13,8208.15,2.89988,-2.16035,2.85691,4865.84,326.268,8408.6,-2.86435,-1.16653,-1.20726,29.0698,9762.08,-1417.45,-0.860257,-1.33641,-0.822461,827.747,-9828.47,-1741.29,-1.28744,-0.0627803,1.0055,-881.205,9782.44,-129.76,0.936401,2.82907,1.56444,1081.74,-9747.93,-2244.89,-4.18141,1.55402,1.59759,9297.04,-1537.78,2488.21,1.17882,1.04186,1.50669
0.199,5144.77,-1510.05,8220.25,2.93684,-2.08327,2.8014,4866.81,352.413,8408.71,-2.90642,-1.15319,-1.18332,29.4556,9765.03,-1395.31,-0.843193,-1.32303,-0.814898,777.777,-9820.47,-1754.96,-1.44794,-0.0858926,1.08461,-920.856,9766.58,-134.203,0.889795,2.77015,1.50337,1048.22,-9736.66,-2237.97,-4.23369,1.50424,1.74461,9256.69,-1548.23,2461.67,0.899288,1.11018,1.29958
0.2,5135.46,-1489.97,8232.34,2.9738,-2.00619,2.7459,4867.79,378.559,8408.82,-2.94848,-1.13986,-1.15938,29.8413,9767.99,-1373.17,-0.826129,-1.30965,-0.807335,727.808,-9812.48,-1768.63,-1.60843,-0.109005,1.16373,-960.508,9750.71,-138.645,0.843188,2.71123,1.4423,1014.71,-9725.39,-2231.04,-4.28597,1.45446,1.89162,9216.35,-1558.68,2435.13,0.619759,1.1785,1.09247
0.201,5113.7,-1470.25,8233.17,2.9833,-2.04123,2.80084,4881.2,389.978,8408.03,-2.91192,-1.08462,-1.1043,26.6975,9742.95,-1369.98,-0.811673,-1.24681,-0.817898,756.022,-9801.86,-1774.9,-1.48618,-0.0620107,1.18646,-955.059,9748.45,-159.034,0.854024,2.82399,1.55224,1028.76,-9738.27,-2226.74,-4.30835,1.55529,1.90062,9240.41,-1537.03,2441.8,0.637718,1.22911,0.899389
0.202,5091.95,-1450.52,8234.0,2.9928,-2.07627,2.85578,4894.61,401.398,8407.23,-2.87535,-1.02938,-1.04922,23.5537,9717.91,-1366.8,-0.797216,-1.18397,-0.828461,784.237,-9791.25,-1781.18,-1.36392,-0.0150166,1.2092,-949.61,9746.18,-179.422,0.864859,2.93675,1.66219,1042.81,-9751.15,-2222.44,-4.33073,1.65612,1.90962,9264.46,-1515.37,2448.46,0.655677,1.27973,0.706308
0.203,5070.19,-1430.8,8234.84,3.0023,-2.11132,2.91072,4908.01,412.818,8406.44,-2.83879,-0.974145,-0.994137,20.4099,9692.87,-1363.62,-0.782759,-1.12113,-0.839023,812.452,-9780.63,-1787.46,-1.24166,0.0319775,1.23194,-944.162,9743.92,-199.81,0.875694,3.0495,1.77214,1056.86,-9764.03,-2218.13,-4.35311,1.75695,1.91862,9288.52,-1493.72,2455.12,0.673637,1.33035,0.513227
0.204,5048.43,-1411.07,8235.67,3.0118,-2.14636,2.96566,4921.42,424.237,8405.64,-2.80223,-0.918907,-0.939056,17.2661,9667.83,-1360.43,-0.768302,-1.05829,-0.849586,840.667,-9770.01,-1793.73,-1.11941,0.0789716,1.25468,-938.713,9741.65,-220.198,0.88653,3.16226,1.88209,1070.91,-9776.91,-2213.83,-4.37549,1.85778,1.92762,9312.58,-1472.06,2461.79,0.691596,1.38096,0.320146
0.205,5029.57,-1398.96,8227.22,2.981,-2.16822,2.99519,4923.27,425.078,8408.31,-2.81467,-0.897219,-0.925244,22.004,9644.92,-1358.14,-0.767592,-1.11109,-0.858171,853.566,-9768.47,-1802.47,-1.02515,0.142488,1.32448,-927.373,9729.45,-213.258,0.850986,3.20556,1.9613,1073.94,-9770.59,-2226.33,-4.38644,1.9568,1.97129,9334.55,-1446.57,2462.15,0.655605,1.41491,0.152419
0.206,5013.04,-1392.92,8211.36,2.91797,-2.17953,3.00439,4915.88,417.454,8413.74,-2.86632,-0.902371,-0.944446,33.0472,9623.71,-1356.57,-0.777878,-1.25641,-0.865173,854.214,-9774.17,-1813.18,-0.953306,0.219223,1.43192,-911.319,9709.3,-184.456,0.778339,3.19331,2.01594,1068.14,-9748.9,-2252.26,-4.38823,2.05436,2.0427,9354.85,-1418.01,2457.48,0.576454,1.43553,0.00497608
0.207,4996.51,-1386.89,8195.49,2.85494,-2.19084,3.01359,4908.49,409.831,8419.18,-2.91797,-0.907524,-0.963649,44.0904,9602.5,-1355.0,-0.788165,-1.40172,-0.872176,854.862,-9779.88,-1823.88,-0.881457,0.295957,1.53937,-895.264,9689.15,-155.653,0.705692,3.18106,2.07057,1062.34,-9727.22,-2278.19,-4.39003,2.15192,2.11412,9375.16,-1389.44,2452.81,0.497303,1.45614,-0.142467
0.208,4979.98,-1380.85,8179.62,2.79191,-2.20215,3.02279,4901.1,402.208,8424.61,-2.96963,-0.912676,-0.982852,55.1336,9581.29,-1353.43,-0.798451,-1.54704,-0.879179,855.509,-9785.58,-1834.59,-0.809608,0.372691,1.64681,-879.21,9669.0,-126.851,0.633045,3.1688,2.12521,1056.55,-9705.53,-2304.12,-4.39182,2.24949,2.18553,9395.46,-1360.88,2448.14,0.418152,1.47676,-0.289911
0.209,4964.27,-1376.05,8164.34,2.72557,-2.20125,3.03384,4893.33,394.466,8429.88,-3.01738,-0.92292,-1.00971,61.6821,9563.4,-1353.33,-0.807446,-1.6698,-0.888899,855.179,-9792.16,-1842.48,-0.748655,0.4318,1.7487,-868.847,9649.56,-104.42,0.575221,3.15802,2.16809,1052.08,-9686.06,-2325.73,-4.40187,2.33462,2.2585,9411.17,-1335.74,2442.43,0.343508,1.51415,-0.407056
0.21,4955.07,-1381.08,8153.75,2.63275,-2.10269,3.0597,4882.6,385.772,8433.84,-3.03398,-0.973886,-1.09779,32.2728,9572.04,-1365.0,-0.806111,-1.6121,-0.920362,847.027,-9805.69,-1827.88,-0.774866,0.349907,1.80618,-904.012,9635.87,-132.955,0.635983,3.15895,2.11695,1058.24,-9684.31,-2312.8,-4.47788,2.32033,2.34396,9390.09,-1338.0,2428.35,0.304919,1.68576,-0.281815
0.211,4945.88,-1386.11,8143.17,2.53992,-2.00413,3.08555,4871.86,377.078,8437.79,-3.05058,-1.02485,-1.18588,2.86354,9580.67,-1376.68,-0.804776,-1.5544,-0.951824,838.874,-9819.22,-1813.28,-0.801077,0.268014,1.86365,-939.176,9622.17,-161.491,0.696745,3.15989,2.0658,1064.41,-9682.55,-2299.87,-4.5539,2.30603,2.42943,9369.01,-1340.25,2414.27,0.266329,1.85738,-0.156575
0.212,4936.69,-1391.14,8132.59,2.4471,-1.90557,3.11141,4861.13,368.383,8441.75,-3.06718,-1.07582,-1.27396,-26.5458,9589.31,-1388.35,-0.803441,-1.4967,-0.983286,830.722,-9832.75,-1798.67,-0.827287,0.18612,1.92112,-974.341,9608.47,-190.026,0.757507,3.16082,2.01465,1070.57,-9680.79,-2286.94,-4.62992,2.29174,2.51489,9347.94,-1342.51,2400.2,0.22774,2.02899,-0.0313344
0.213,4927.49,-1396.18,8122.0,2.35427,-1.80701,3.13727,4850.39,359.689,8445.7,-3.08378,-1.12679,-1.36204,-55.9551,9597.95,-1400.02,-0.802105,-1.439,-1.01475,822.57,-9846.28,-1784.07,-0.853498,0.104227,1.97859,-1009.51,9594.77,-218.562,0.818269,3.16176,1.96351,1076.73,-9679.04,-2274.01,-4.70594,2.27744,2.60035,9326.86,-1344.77,2386.12,0.189151,2.2006,0.093906
0.214,4946.22,-1402.95,8121.48,2.31363,-1.74237,3.12412,4849.22,349.997,8451.19,-3.16624,-1.06624,-1.38608,-62.8237,9613.21,-1393.84,-0.860433,-1.43159,-1.03769,829.177,-9846.5,-1785.19,-0.863326,0.0846069,1.9887,-1008.93,9582.96,-211.348,0.963792,3.13338,1.83965,1067.56,-9677.68,-2272.81,-4.71567,2.44128,2.6754,9316.79,-1362.15,2388.48,0.144724,2.18569,0.0675376
0.215,4978.91,-1410.59,8125.99,2.29907,-1.6947,3.09146,4852.84,339.806,8457.45,-3.28162,-0.949935,-1.3781,-58.4221,9631.77,-1378.72,-0.948591,-1.44932,-1.05636,843.165,-9840.07,-1794.17,-0.864963,0.0961231,1.97512,-990.474,9572.1,-186.26,1.1517,3.09035,1.67943,1050.71,-9676.53,-2277.46,-4.69225,2.69417,2.74525,9312.22,-1387.1,2399.05,0.0973795,2.07751,-0.0346352
0.216,5011.6,-1418.22,8130.5,2.28451,-1.64704,3.05881,4856.47,329.614,8463.7,-3.39701,-0.833632,-1.37011,-54.0205,9650.34,-1363.61,-1.03675,-1.46705,-1.07504,857.152,-9833.64,-1803.15,-0.8666,0.107639,1.96155,-972.022,9561.23,-161.173,1.3396,3.04732,1.51922,1033.86,-9675.38,-2282.12,-4.66884,2.94707,2.8151,9307.66,-1412.04,2409.62,0.0500347,1.96933,-0.136808
0.217,5044.29,-1425.86,8135.02,2.26996,-1.59937,3.02615,4860.09,319.423,8469.96,-3.51239,-0.717328,-1.36213,-49.6189,9668.91,-1348.49,-1.12491,-1.48478,-1.09371,871.14,-9827.21,-1812.13,-0.868237,0.119155,1.94797,-953.57,9550.37,-136.085,1.5275,3.00428,1.359,1017.01,-9674.23,-2286.78,-4.64542,3.19997,2.88494,9303.09,-1436.98,2420.2,0.00268987,1.86116,-0.238981
0.218,5071.34,-1433.89,8138.54,2.24598,-1.55789,2.98545,4863.66,308.913,8474.83,-3.61424,-0.615979,-1.36722,-44.4741,9679.79,-1337.27,-1.19343,-1.50119,-1.09808,880.391,-9821.15,-1816.26,-0.855509,0.113072,1.94986,-942.193,9538.31,-122.866,1.66873,2.97638,1.20971,1009.54,-9675.76,-2295.29,-4.64048,3.40902,2.92709,9301.63,-1454.84,2427.52,-0.0839152,1.78334,-0.348076
0.219,5078.62,-1443.3,8138.62,2.18903,-1.53808,2.91657,4867.04,297.287,8474.85,-3.66872,-0.566969,-1.41807,-36.7282,9663.76,-1339.65,-1.1932,-1.51298,-1.05239,873.061,-9816.39,-1803.44,-0.792501,0.0453894,2.00587,-955.584,9522.03,-151.191,1.6466,3.00143,1.09869,1034.89,-9686.7,-2317.3,-4.70016,3.46458,2.8723,9311.0,-1447.93,2423.48,-0.307931,1.8118,-0.481397
0.22,5085.9,-1452.71,8138.7,2.13207,-1.51826,2.8477,4870.43,285.662,8474.88,-3.7232,-0.517958,-1.46891,-28.9823,9647.74,-1342.03,-1.19297,-1.52476,-1.00669,865.731,-9811.63,-1790.62,-0.729494,-0.0222932,2.06188,-968.974,9505.76,-179.516,1.62447,3.02648,0.987658,1060.23,-9697.63,-2339.32,-4.75984,3.52014,2.8175,9320.37,-1441.03,2419.43,-0.531947,1.84026,-0.614719
0.221,5093.18,-1462.12,8138.78,2.07512,-1.49845,2.77882,4873.82,274.036,8474.91,-3.77768,-0.468948,-1.51976,-21.2364,9631.71,-1344.42,-1.19274,-1.53654,-0.961001,858.402,-9806.87,-1777.8,-0.666487,-0.0899758,2.1179,-982.364,9489.49,-207.841,1.60234,3.05153,0.876631,1085.57,-9708.56,-2361.33,-4.81952,3.5757,2.76271,9329.75,-1434.12,2415.38,-0.755963,1.86873,-0.74804
0.222,5100.46,-1471.53,8138.86,2.01817,-1.47864,2.70994,4877.21,262.41,8474.94,-3.83215,-0.419938,-1.57061,-13.4904,9615.69,-1346.8,-1.19251,-1.54832,-0.915308,851.072,-9802.11,-1764.98,-0.603479,-0.157658,2.17391,-995.755,9473.22,-236.166,1.58021,3.07658,0.765604,1110.92,-9719.5,-2383.35,-4.8792,3.63126,2.70791,9339.12,-1427.21,2411.33,-0.979979,1.89719,-0.881362
0.223,5101.22,-1486.07,8157.0,2.02417,-1.54845,2.69557,4873.44,262.465,8473.6,-3.73779,-0.480659,-1.47478,-16.01,9604.49,-1361.58,-1.10274,-1.51959,-0.884625,858.911,-9798.13,-1762.45,-0.577818,-0.169905,2.18559,-1009.39,9487.95,-254.168,1.63877,3.01518,0.65654,1113.27,-9703.85,-2380.4,-4.92351,3.68075,2.75109,9343.03,-1420.37,2421.35,-0.906131,1.98226,-0.971212
0.224,5100.12,-1502.07,8180.29,2.04817,-1.64386,2.69678,4867.62,265.857,8471.88,-3.6009,-0.572732,-1.33705,-21.4626,9594.68,-1379.9,-0.987383,-1.47928,-0.85823,871.082,-9794.38,-1762.86,-0.562828,-0.166313,2.1846,-1023.1,9511.54,-269.219,1.72039,2.92908,0.548036,1109.04,-9680.62,-2370.31,-4.96344,3.7285,2.82226,9345.39,-1413.55,2435.38,-0.74718,2.0835,-1.04864
0.225,5099.02,-1518.08,8203.59,2.07216,-1.73927,2.69798,4861.8,269.248,8470.15,-3.464,-0.664805,-1.19933,-26.9152,9584.86,-1398.22,-0.872026,-1.43898,-0.831835,883.254,-9790.62,-1763.27,-0.547837,-0.16272,2.18361,-1036.81,9535.13,-284.271,1.802,2.84299,0.439533,1104.82,-9657.39,-2360.23,-5.00336,3.77625,2.89343,9347.75,-1406.72,2449.41,-0.588229,2.18474,-1.12607
0.226,5097.92,-1534.09,8226.88,2.09615,-1.83468,2.69918,4855.98,272.64,8468.43,-3.32711,-0.756878,-1.0616,-32.3677,9575.05,-1416.54,-0.756669,-1.39868,-0.805441,895.426,-9786.87,-1763.68,-0.532847,-0.159128,2.18262,-1050.51,9558.72,-299.323,1.88362,2.75689,0.331029,1100.6,-9634.15,-2350.15,-5.04329,3.824,2.9646,9350.1,-1399.9,2463.44,-0.429278,2.28599,-1.2035
0.227,5082.86,-1530.66,8258.61,2.20311,-2.0832,2.7905,4852.31,277.902,8463.81,-3.21741,-0.830115,-0.934188,-36.9126,9570.11,-1432.08,-0.641795,-1.35154,-0.797403,896.142,-9780.29,-1762.8,-0.531108,-0.162115,2.19871,-1058.43,9580.96,-309.245,1.97885,2.71335,0.342842,1092.03,-9625.14,-2338.62,-5.10517,3.86691,3.08905,9347.66,-1387.9,2467.76,-0.381065,2.33678,-1.25327
0.228,5039.9,-1488.35,8307.22,2.47599,-2.63796,3.06206,4852.94,286.907,8453.4,-3.16209,-0.865678,-0.827423,-39.6422,9574.93,-1442.05,-0.527886,-1.29073,-0.826081,873.947,-9768.07,-1759.36,-0.555872,-0.178262,2.24896,-1054.75,9600.51,-308.909,2.10131,2.75491,0.59529,1074.76,-9644.58,-2324.2,-5.21097,3.90015,3.32007,9335.61,-1365.54,2452.65,-0.554328,2.28665,-1.2477
0.229,4996.93,-1446.05,8355.82,2.74887,-3.19272,3.33361,4853.56,295.911,8442.99,-3.10677,-0.901242,-0.720657,-42.3717,9579.76,-1452.01,-0.413976,-1.22992,-0.854759,851.751,-9755.84,-1755.92,-0.580637,-0.194408,2.29922,-1051.07,9620.06,-308.573,2.22377,2.79647,0.847737,1057.48,-9664.02,-2309.78,-5.31677,3.93339,3.55108,9323.56,-1343.17,2437.55,-0.727592,2.23653,-1.24213
0.23,4953.96,-1403.74,8404.43,3.02175,-3.74749,3.60516,4854.19,304.915,8432.59,-3.05145,-0.936805,-0.613892,-45.1012,9584.58,-1461.98,-0.300067,-1.16911,-0.883436,829.556,-9743.62,-1752.49,-0.605401,-0.210554,2.34948,-1047.39,9639.62,-308.236,2.34623,2.83803,1.10018,1040.21,-9683.46,-2295.37,-5.42257,3.96663,3.7821,9311.51,-1320.81,2422.44,-0.900855,2.1864,-1.23657
0.231,4911.0,-1361.43,8453.04,3.29462,-4.30225,3.87671,4854.81,313.919,8422.18,-2.99613,-0.972369,-0.507126,-47.8308,9589.4,-1471.95,-0.186158,-1.1083,-0.912114,807.36,-9731.39,-1749.05,-0.630166,-0.226701,2.39973,-1043.71,9659.17,-307.9,2.46869,2.87959,1.35263,1022.94,-9702.91,-2280.95,-5.52837,3.99987,4.01312,9299.46,-1298.44,2407.33,-1.07412,2.13628,-1.231
0.232,4884.17,-1295.7,8480.19,3.8029,-4.9443,4.33189,4856.65,315.661,8421.04,-3.0434,-0.931799,-0.517255,-54.3385,9607.5,-1466.31,-0.204591,-1.08051,-0.907291,807.205,-9732.23,-1732.12,-0.601172,-0.170592,2.40226,-1030.08,9661.94,-285.303,2.51943,2.8511,1.59009,1028.72,-9696.04,-2289.85,-5.51284,4.10234,4.00567,9324.72,-1328.56,2415.31,-1.03931,2.0605,-1.36878
0.233,4859.36,-1227.05,8504.66,4.3406,-5.59726,4.81002,4858.64,316.494,8421.06,-3.10351,-0.881714,-0.541996,-61.3185,9627.25,-1458.73,-0.239566,-1.05683,-0.898282,809.804,-9734.7,-1713.52,-0.565458,-0.105451,2.39883,-1015.21,9662.61,-259.923,2.56122,2.81385,1.82567,1037.38,-9685.89,-2301.67,-5.48215,4.21346,3.96841,9354.64,-1365.23,2426.19,-0.978501,1.98152,-1.52447
0.234,4834.55,-1158.39,8529.14,4.8783,-6.25022,5.28815,4860.63,317.328,8421.08,-3.16361,-0.831628,-0.566737,-68.2985,9647.01,-1451.15,-0.274541,-1.03316,-0.889272,812.404,-9737.16,-1694.91,-0.529744,-0.0403101,2.3954,-1000.33,9663.28,-234.543,2.603,2.7766,2.06126,1046.04,-9675.73,-2313.49,-5.45146,4.32459,3.93115,9384.56,-1401.9,2437.06,-0.917688,1.90254,-1.68017
0.235,4809.74,-1089.73,8553.61,5.41599,-6.90318,5.76629,4862.62,318.161,8421.11,-3.22371,-0.781542,-0.591478,-75.2785,9666.76,-1443.57,-0.309516,-1.00949,-0.880263,815.003,-9739.63,-1676.3,-0.49403,0.0248307,2.39196,-985.46,9663.95,-209.163,2.64478,2.73935,2.29684,1054.7,-9665.58,-2325.3,-5.42077,4.43571,3.89389,9414.48,-1438.58,2447.93,-0.856875,1.82355,-1.83586
0.236,4796.96,-1052.07,8550.69,5.92239,-7.48492,6.21208,4869.86,318.365,8430.25,-3.2625,-0.727446,-0.638854,-84.9141,9676.01,-1441.59,-0.29423,-1.03989,-0.858752,807.705,-9745.05,-1669.46,-0.477071,0.06102,2.38125,-989.116,9677.94,-198.273,2.62722,2.67813,2.52085,1046.64,-9655.58,-2335.32,-5.45586,4.52489,3.96443,9411.7,-1455.3,2460.81,-0.886137,1.78907,-1.90923
0.237,4799.19,-1053.15,8513.52,6.38965,-7.97763,6.61744,4883.68,317.783,8450.8,-3.27464,-0.668338,-0.714523,-97.8693,9672.12,-1446.59,-0.216118,-1.13789,-0.821615,788.036,-9754.16,-1677.34,-0.483556,0.06102,2.36143,-1015.93,9708.57,-205.493,2.53547,2.58692,2.7304,1017.69,-9645.77,-2343.07,-5.57317,4.58664,4.16972,9368.04,-1447.08,2476.19,-1.02799,1.81021,-1.8797
0.238,4801.43,-1054.24,8476.36,6.85691,-8.47035,7.0228,4897.49,317.2,8471.34,-3.28677,-0.609229,-0.790193,-110.824,9668.22,-1451.59,-0.138006,-1.23588,-0.784477,768.367,-9763.27,-1685.22,-0.490041,0.06102,2.34161,-1042.75,9739.2,-212.714,2.44373,2.49572,2.93995,988.738,-9635.96,-2350.82,-5.69048,4.64839,4.37501,9324.39,-1438.86,2491.58,-1.16985,1.83135,-1.85016
0.239,4803.67,-1055.32,8439.19,7.32417,-8.96306,7.42817,4911.31,316.617,8491.89,-3.29891,-0.55012,-0.865863,-123.78,9664.33,-1456.59,-0.0598942,-1.33387,-0.74734,748.697,-9772.38,-1693.09,-0.496525,0.06102,2.32179,-1069.57,9769.82,-219.934,2.35198,2.40452,3.14949,959.788,-9626.16,-2358.58,-5.80779,4.71013,4.58031,9280.74,-1430.64,2506.97,-1.31171,1.85249,-1.82063
0.24,4805.91,-1056.4,8402.03,7.79144,-9.45577,7.83353,4925.12,316.035,8512.44,-3.31105,-0.491012,-0.941532,-136.735,9660.44,-1461.59,0.0182178,-1.43186,-0.710202,729.028,-9781.49,-1700.97,-0.50301,0.06102,2.30197,-1096.38,9800.45,-227.155,2.26024,2.31332,3.35904,930.838,-9616.35,-2366.33,-5.9251,4.77188,4.7856,9237.08,-1422.42,2522.35,-1.45356,1.87364,-1.7911
0.241,4842.84,-1098.06,8360.05,7.9193,-9.64387,8.05243,4909.79,320.864,8496.67,-3.32797,-0.558691,-0.973346,-118.527,9667.49,-1445.57,-0.0803012,-1.58944,-0.644937,730.994,-9783.34,-1721.09,-0.525108,0.0720746,2.50164,-1113.03,9775.75,-203.292,2.27006,2.09585,3.5064,949.609,-9597.66,-2352.89,-5.90525,4.69323,4.71109,9272.18,-1442.23,2530.62,-1.64478,1.93686,-1.82657
0.242,4879.78,-1139.72,8318.08,8.04717,-9.83196,8.27133,4894.46,325.693,8480.9,-3.34489,-0.62637,-1.00516,-100.319,9674.54,-1429.54,-0.17882,-1.74701,-0.579672,732.96,-9785.19,-1741.22,-0.547206,0.0831292,2.70132,-1129.67,9751.05,-179.43,2.27988,1.87839,3.65376,968.382,-9578.97,-2339.46,-5.8854,4.61457,4.63659,9307.27,-1462.03,2538.89,-1.836,2.00009,-1.86204
0.243,4916.72,-1181.38,8276.1,8.17504,-10.0201,8.49024,4879.13,330.522,8465.13,-3.36181,-0.694049,-1.03697,-82.1115,9681.58,-1413.51,-0.277339,-1.90459,-0.514406,734.926,-9787.04,-1761.34,-0.569303,0.0941839,2.901,-1146.32,9726.34,-155.567,2.2897,1.66092,3.80113,987.153,-9560.28,-2326.02,-5.86555,4.53591,4.56208,9342.36,-1481.84,2547.16,-2.02722,2.06332,-1.8975
0.244,4953.66,-1223.04,8234.12,8.30291,-10.2082,8.70914,4863.81,335.351,8449.36,-3.37873,-0.761728,-1.06878,-63.9038,9688.63,-1397.49,-0.375858,-2.06216,-0.449141,736.893,-9788.89,-1781.46,-0.591401,0.105238,3.10067,-1162.96,9701.64,-131.705,2.29952,1.44346,3.94849,1005.93,-9541.59,-2312.59,-5.84571,4.45726,4.48757,9377.46,-1501.64,2555.43,-2.21845,2.12654,-1.93297
0.245,4986.76,-1265.95,8206.83,8.39583,-10.2813,8.81387,4851.85,346.548,8434.04,-3.41893,-0.743836,-1.06756,-59.5298,9686.92,-1384.16,-0.473974,-2.1591,-0.407188,740.208,-9789.53,-1798.14,-0.560975,0.124695,3.18841,-1149.03,9679.38,-121.252,2.26518,1.31072,3.92862,1009.31,-9543.08,-2308.14,-5.87197,4.43773,4.47907,9390.07,-1507.56,2555.87,-2.32068,2.1784,-2.00995
0.246,5016.79,-1309.86,8191.28,8.46079,-10.2626,8.82727,4842.6,362.839,8419.08,-3.47775,-0.657488,-1.03991,-66.2229,9678.21,-1373.0,-0.571767,-2.20753,-0.383885,744.602,-9789.19,-1812.07,-0.488529,0.150873,3.18658,-1110.62,9659.08,-121.527,2.19551,1.24577,3.77497,1000.38,-9560.7,-2310.87,-5.93513,4.46551,4.52336,9384.69,-1502.38,2550.04,-2.35172,2.22116,-2.12014
0.247,5046.82,-1353.76,8175.73,8.52575,-10.2438,8.84067,4833.34,379.13,8404.12,-3.53658,-0.571139,-1.01225,-72.9159,9669.49,-1361.84,-0.66956,-2.25595,-0.360582,748.997,-9788.86,-1826.0,-0.416083,0.177052,3.18476,-1072.22,9638.77,-121.803,2.12583,1.18082,3.62132,991.458,-9578.33,-2313.61,-5.99829,4.49329,4.56766,9379.31,-1497.19,2544.21,-2.38275,2.26391,-2.23033
0.248,5076.85,-1397.67,8160.18,8.59071,-10.2251,8.85407,4824.08,395.422,8389.17,-3.59541,-0.484791,-0.984597,-79.609,9660.77,-1350.67,-0.767353,-2.30438,-0.337279,753.391,-9788.52,-1839.92,-0.343637,0.20323,3.18294,-1033.81,9618.47,-122.078,2.05616,1.11587,3.46767,982.532,-9595.95,-2316.34,-6.06145,4.52107,4.61195,9373.93,-1492.0,2538.38,-2.41379,2.30667,-2.34053
0.249,5103.02,-1437.01,8148.47,8.65191,-10.2263,8.87866,4815.77,408.782,8376.52,-3.64723,-0.40627,-0.951901,-89.6461,9653.99,-1341.2,-0.847382,-2.36254,-0.32468,757.896,-9788.35,-1851.55,-0.282352,0.224944,3.179,-999.749,9599.44,-123.984,2.00137,1.03441,3.32184,972.542,-9610.5,-2319.11,-6.11217,4.54885,4.66663,9367.46,-1486.54,2532.11,-2.43463,2.33165,-2.46198
0.25,5098.26,-1439.89,8167.47,8.68306,-10.3876,8.99279,4814.98,398.694,8382.39,-3.643,-0.39037,-0.878867,-126.436,9662.72,-1345.26,-0.785298,-2.49856,-0.397713,763.286,-9789.42,-1844.77,-0.310352,0.210944,3.15813,-1000.39,9590.61,-138.932,2.06572,0.820911,3.23859,954.042,-9600.47,-2322.16,-6.06336,4.57663,4.80439,9352.33,-1478.87,2522.31,-2.37384,2.21434,-2.67357
0.251,5093.49,-1442.76,8186.47,8.7142,-10.5488,9.10691,4814.19,388.606,8388.25,-3.63878,-0.374471,-0.805834,-163.225,9671.44,-1349.32,-0.723213,-2.63458,-0.470746,768.675,-9790.5,-1837.99,-0.338353,0.196944,3.13726,-1001.04,9581.78,-153.881,2.13006,0.607411,3.15534,935.542,-9590.44,-2325.21,-6.01455,4.60441,4.94214,9337.19,-1471.2,2512.5,-2.31305,2.09704,-2.88516
0.252,5088.72,-1445.64,8205.47,8.74535,-10.7101,9.22104,4813.4,378.518,8394.12,-3.63456,-0.358572,-0.7328,-200.014,9680.17,-1353.38,-0.661129,-2.7706,-0.543779,774.065,-9791.58,-1831.21,-0.366353,0.182943,3.11639,-1001.68,9572.95,-168.829,2.19441,0.393912,3.07209,917.042,-9580.42,-2328.26,-5.96575,4.63219,5.0799,9322.05,-1463.54,2502.69,-2.25227,1.97973,-3.09675
0.253,5083.96,-1448.52,8224.47,8.7765,-10.8713,9.33516,4812.61,368.431,8399.99,-3.63034,-0.342672,-0.659767,-236.804,9688.89,-1357.44,-0.599045,-2.90661,-0.616812,779.454,-9792.66,-1824.43,-0.394354,0.168943,3.09552,-1002.32,9564.13,-183.778,2.25875,0.180412,2.98884,898.542,-9570.38,-2331.31,-5.91694,4.65998,5.21766,9306.91,-1455.87,2492.88,-2.19148,1.86243,-3.30833
0.254,5071.21,-1446.09,8236.84,8.83152,-11.1135,9.54094,4816.79,362.578,8406.42,-3.62462,-0.348761,-0.657869,-244.266,9690.35,-1364.11,-0.513464,-2.90781,-0.660412,785.437,-9787.45,-1824.19,-0.422354,0.196915,3.09824,-1008.83,9560.0,-188.598,2.30252,-0.0228482,2.8323,890.004,-9570.57,-2338.73,-5.85934,4.67781,5.26289,9300.57,-1460.14,2502.62,-2.15271,1.86032,-3.36318
0.255,5054.47,-1441.03,8245.89,8.89849,-11.3962,9.79256,4823.45,358.843,8413.12,-3.61815,-0.365845,-0.69154,-237.063,9688.18,-1372.08,-0.416135,-2.84159,-0.689294,791.716,-9779.09,-1827.21,-0.450355,0.245874,3.11275,-1018.27,9558.24,-188.354,2.33599,-0.220989,2.63911,886.448,-9575.87,-2348.33,-5.79735,4.69068,5.26187,9298.63,-1470.36,2522.13,-2.12495,1.9158,-3.33966
0.256,5037.72,-1435.96,8254.94,8.96545,-11.6789,10.0442,4830.12,355.108,8419.82,-3.61168,-0.382928,-0.72521,-229.861,9686.0,-1380.05,-0.318807,-2.77538,-0.718176,797.995,-9770.73,-1830.24,-0.478355,0.294832,3.12726,-1027.7,9556.47,-188.11,2.36946,-0.419129,2.44593,882.893,-9581.16,-2357.93,-5.73536,4.70354,5.26085,9296.69,-1480.59,2541.65,-2.09719,1.97128,-3.31613
0.257,5020.98,-1430.89,8263.99,9.03241,-11.9617,10.2958,4836.78,351.372,8426.52,-3.60521,-0.400011,-0.75888,-222.659,9683.83,-1388.03,-0.221478,-2.70916,-0.747059,804.273,-9762.38,-1833.26,-0.506356,0.34379,3.14177,-1037.14,9554.7,-187.867,2.40293,-0.617269,2.25274,879.337,-9586.46,-2367.52,-5.67336,4.71641,5.25982,9294.75,-1490.82,2561.16,-2.06944,2.02676,-3.29261
0.258,5011.88,-1427.96,8266.21,9.12765,-12.1816,10.4927,4852.32,349.457,8430.51,-3.61449,-0.41399,-0.776602,-211.996,9677.49,-1393.7,-0.148866,-2.63523,-0.770107,810.555,-9756.19,-1835.62,-0.516344,0.391589,3.15206,-1044.47,9554.62,-185.231,2.42677,-0.778304,2.10916,879.003,-9594.75,-2374.87,-5.62021,4.7237,5.261,9293.0,-1499.05,2582.25,-2.0452,2.038,-3.28145
0.259,5029.51,-1432.53,8244.55,9.32185,-12.1816,10.4983,4898.92,353.914,8424.99,-3.6789,-0.417104,-0.738502,-189.222,9656.56,-1391.36,-0.162762,-2.53432,-0.772734,816.844,-9757.57,-1835.67,-0.463293,0.435326,3.1476,-1044.43,9560.4,-174.222,2.41692,-0.809467,2.13922,889.945,-9613.55,-2374.35,-5.59798,4.71148,5.26989,9291.91,-1500.29,2608.9,-2.03328,1.89438,-3.31358
0.26,5047.14,-1437.1,8222.89,9.51605,-12.1816,10.5039,4945.52,358.37,8419.48,-3.74331,-0.420219,-0.700401,-166.448,9635.64,-1389.01,-0.176659,-2.4334,-0.775362,823.133,-9758.95,-1835.72,-0.410241,0.479064,3.14313,-1044.39,9566.19,-163.214,2.40708,-0.840631,2.16928,900.888,-9632.34,-2373.82,-5.57576,4.69925,5.27878,9290.82,-1501.53,2635.55,-2.02137,1.75077,-3.34571
0.261,5064.77,-1441.67,8201.23,9.71025,-12.1817,10.5095,4992.12,362.826,8413.96,-3.80772,-0.423333,-0.662301,-143.674,9614.71,-1386.66,-0.190556,-2.33248,-0.77799,829.422,-9760.34,-1835.76,-0.35719,0.522802,3.13867,-1044.35,9571.97,-152.206,2.39723,-0.871794,2.19934,911.831,-9651.13,-2373.3,-5.55353,4.68703,5.28768,9289.73,-1502.78,2662.2,-2.00945,1.60715,-3.37785
0.262,5082.4,-1446.25,8179.57,9.90446,-12.1817,10.5151,5038.72,367.282,8408.44,-3.87212,-0.426448,-0.624201,-120.9,9593.79,-1384.31,-0.204452,-2.23157,-0.780617,835.711,-9761.72,-1835.81,-0.304138,0.566539,3.1342,-1044.31,9577.76,-141.197,2.38739,-0.902958,2.22939,922.774,-9669.92,-2372.78,-5.53131,4.67481,5.29657,9288.64,-1504.02,2688.84,-1.99753,1.46354,-3.40998
0.263,5093.68,-1455.95,8154.66,9.95479,-12.123,10.384,5012.39,357.925,8414.37,-3.89197,-0.401814,-0.604087,-111.634,9590.38,-1380.51,-0.244834,-2.25922,-0.780748,836.667,-9772.32,-1835.55,-0.191714,0.488248,3.12059,-1059.63,9571.02,-134.08,2.47262,-1.00902,2.18095,909.554,-9666.78,-2355.88,-5.56373,4.6685,5.35303,9290.18,-1507.11,2693.72,-1.9963,1.44289,-3.41196
0.264,5103.14,-1467.12,8128.81,9.96402,-12.0474,10.2139,4965.23,344.62,8423.56,-3.89908,-0.369251,-0.589113,-106.227,9591.97,-1376.28,-0.292783,-2.32362,-0.780164,836.1,-9785.55,-1835.2,-0.0623267,0.375091,3.10436,-1079.35,9560.69,-128.075,2.58502,-1.13648,2.11008,889.43,-9657.38,-2334.3,-5.61176,4.66388,5.42308,9292.48,-1510.74,2692.37,-1.99813,1.45738,-3.40532
0.265,5112.61,-1478.29,8102.97,9.97325,-11.9718,10.0439,4918.06,331.315,8432.75,-3.9062,-0.336689,-0.574138,-100.821,9593.57,-1372.06,-0.340732,-2.38801,-0.779581,835.532,-9798.79,-1834.85,0.0670608,0.261934,3.08812,-1099.07,9550.37,-122.07,2.69742,-1.26394,2.03921,869.307,-9647.98,-2312.73,-5.65979,4.65926,5.49313,9294.77,-1514.36,2691.02,-1.99995,1.47186,-3.39869
0.266,5122.07,-1489.46,8077.13,9.98248,-11.8962,9.87376,4870.89,318.011,8441.94,-3.91332,-0.304127,-0.559163,-95.4138,9595.16,-1367.83,-0.388681,-2.4524,-0.778997,834.965,-9812.02,-1834.5,0.196448,0.148778,3.07189,-1118.79,9540.05,-116.064,2.80982,-1.3914,1.96834,849.183,-9638.57,-2291.15,-5.70783,4.65464,5.56318,9297.07,-1517.98,2689.67,-2.00178,1.48635,-3.39205
0.267,5136.75,-1503.09,8057.93,9.89758,-11.7806,9.71561,4838.78,309.872,8445.32,-3.92076,-0.305148,-0.589417,-85.7325,9603.38,-1373.1,-0.43944,-2.51412,-0.772502,830.368,-9817.64,-1832.31,0.288658,0.0836428,3.05721,-1124.51,9532.18,-124.577,2.9093,-1.46732,1.89341,839.026,-9636.12,-2280.68,-5.75261,4.65185,5.60273,9300.78,-1518.77,2687.04,-1.97407,1.47867,-3.37607
0.268,5161.85,-1521.65,8052.02,9.62443,-11.5852,9.58137,4836.76,312.064,8437.06,-3.92886,-0.373338,-0.710128,-67.5021,9624.87,-1397.35,-0.495819,-2.5705,-0.754183,817.713,-9808.06,-1826.44,0.306513,0.114552,3.04561,-1102.26,9529.23,-162.127,2.98293,-1.44016,1.81035,848.802,-9647.55,-2292.4,-5.79088,4.65272,5.58129,9307.32,-1513.87,2681.87,-1.8873,1.42664,-3.34137
0.269,5186.95,-1540.2,8046.11,9.35128,-11.3898,9.44713,4834.74,314.256,8428.8,-3.93696,-0.441528,-0.830838,-49.2717,9646.36,-1421.61,-0.552198,-2.62688,-0.735864,805.057,-9798.47,-1820.56,0.324369,0.145461,3.03401,-1080.0,9526.27,-199.677,3.05657,-1.413,1.72729,858.578,-9658.98,-2304.13,-5.82916,4.6536,5.55986,9313.86,-1508.97,2676.7,-1.80052,1.37461,-3.30668
0.27,5212.05,-1558.76,8040.2,9.07812,-11.1944,9.31288,4832.73,316.448,8420.53,-3.94505,-0.509717,-0.951549,-31.0413,9667.85,-1445.86,-0.608577,-2.68326,-0.717545,792.401,-9788.89,-1814.69,0.342224,0.17637,3.02241,-1057.75,9523.32,-237.227,3.1302,-1.38584,1.64423,868.353,-9670.41,-2315.86,-5.86744,4.65448,5.53842,9320.4,-1504.07,2671.53,-1.71375,1.32258,-3.27199
0.271,5237.15,-1577.31,8034.29,8.80497,-10.9989,9.17864,4830.71,318.64,8412.27,-3.95315,-0.577907,-1.07226,-12.8109,9689.34,-1470.11,-0.664956,-2.73964,-0.699226,779.746,-9779.3,-1808.82,0.360079,0.20728,3.01081,-1035.49,9520.37,-274.777,3.20384,-1.35868,1.56117,878.129,-9681.84,-2327.59,-5.90572,4.65536,5.51699,9326.94,-1499.17,2666.36,-1.62698,1.27055,-3.2373
0.272,5222.1,-1559.57,8038.14,8.68263,-10.8454,9.19124,4839.75,317.908,8422.78,-4.06497,-0.543467,-1.12248,-12.2413,9678.73,-1477.56,-0.607085,-2.72987,-0.741613,783.414,-9772.58,-1806.02,0.379646,0.131176,3.04947,-1016.12,9519.0,-263.65,3.34209,-1.37587,1.51239,878.104,-9699.07,-2347.88,-5.85852,4.75448,5.62322,9314.53,-1488.77,2657.49,-1.59058,1.21482,-3.21946
0.273,5202.04,-1537.29,8043.21,8.57915,-10.6971,9.2222,4850.18,316.81,8435.64,-4.18975,-0.496198,-1.16389,-13.8791,9664.1,-1482.91,-0.534934,-2.71183,-0.791587,789.122,-9766.21,-1803.61,0.399428,0.0416953,3.09441,-997.108,9517.84,-246.437,3.48841,-1.39859,1.46788,876.853,-9717.02,-2369.23,-5.80063,4.86588,5.74541,9299.76,-1477.69,2648.16,-1.56047,1.15863,-3.20372
0.274,5181.98,-1515.01,8048.27,8.47566,-10.5487,9.25316,4860.6,315.712,8448.5,-4.31453,-0.448929,-1.20529,-15.517,9649.47,-1488.26,-0.462782,-2.69379,-0.841562,794.83,-9759.84,-1801.2,0.41921,-0.0477852,3.13935,-978.096,9516.67,-229.225,3.63473,-1.42132,1.42338,875.602,-9734.97,-2390.59,-5.74275,4.97728,5.8676,9284.99,-1466.61,2638.82,-1.53036,1.10243,-3.18799
0.275,5161.92,-1492.73,8053.34,8.37217,-10.4004,9.28413,4871.02,314.614,8461.36,-4.43931,-0.40166,-1.2467,-17.1549,9634.85,-1493.6,-0.390631,-2.67575,-0.891536,800.538,-9753.47,-1798.78,0.438991,-0.137266,3.18429,-959.084,9515.51,-212.012,3.78106,-1.44405,1.37887,874.352,-9752.92,-2411.95,-5.68486,5.08868,5.98979,9270.22,-1455.52,2629.49,-1.50025,1.04624,-3.17226
0.276,5156.54,-1480.63,8055.47,8.28567,-10.2184,9.21494,4879.51,315.684,8463.51,-4.54644,-0.413221,-1.25094,-28.8261,9621.18,-1482.09,-0.317632,-2.65269,-0.96254,807.535,-9752.84,-1798.76,0.461496,-0.225798,3.20564,-942.123,9515.74,-206.359,3.85512,-1.4805,1.38755,871.362,-9756.27,-2426.92,-5.6449,5.13381,6.05014,9259.6,-1447.34,2630.97,-1.42729,1.04992,-3.2
0.277,5169.51,-1481.26,8053.94,8.22038,-9.99434,9.02056,4885.56,319.463,8452.27,-4.63151,-0.498319,-1.20873,-53.0388,9608.71,-1449.51,-0.243575,-2.62336,-1.05983,816.144,-9759.38,-1801.71,0.487404,-0.313144,3.19749,-927.726,9517.7,-215.155,3.83885,-1.53412,1.46271,866.199,-9741.39,-2433.91,-5.62736,5.09608,6.03318,9254.18,-1442.78,2645.96,-1.30078,1.12845,-3.28209
0.278,5182.49,-1481.89,8052.4,8.1551,-9.77026,8.82619,4891.62,323.242,8441.04,-4.71657,-0.583417,-1.16651,-77.2515,9596.25,-1416.93,-0.169518,-2.59403,-1.15712,824.753,-9765.92,-1804.66,0.513313,-0.40049,3.18934,-913.328,9519.67,-223.951,3.82258,-1.58774,1.53786,861.036,-9726.51,-2440.89,-5.60982,5.05836,6.01623,9248.76,-1438.22,2660.96,-1.17426,1.20699,-3.36418
0.279,5195.46,-1482.51,8050.86,8.08982,-9.54618,8.63182,4897.67,327.021,8429.8,-4.80163,-0.668515,-1.1243,-101.464,9583.78,-1384.34,-0.0954614,-2.5647,-1.25441,833.361,-9772.47,-1807.61,0.539221,-0.487837,3.18119,-898.93,9521.64,-232.746,3.80631,-1.64135,1.61302,855.872,-9711.63,-2447.88,-5.59227,5.02063,5.99927,9243.35,-1433.66,2675.95,-1.04775,1.28552,-3.44627
0.28,5208.43,-1483.14,8049.33,8.02454,-9.3221,8.43744,4903.72,330.8,8418.57,-4.88669,-0.753613,-1.08208,-125.677,9571.32,-1351.76,-0.0214045,-2.53537,-1.3517,841.97,-9779.01,-1810.56,0.565129,-0.575183,3.17304,-884.533,9523.6,-241.542,3.79004,-1.69497,1.68817,850.709,-9696.75,-2454.87,-5.57473,4.98291,5.98231,9237.93,-1429.11,2690.95,-0.921234,1.36405,-3.52836
0.281,5213.0,-1472.75,8068.7,7.86833,-9.19404,8.25037,4910.05,338.012,8424.11,-4.85395,-0.674272,-0.924693,-121.777,9576.52,-1364.65,-0.0631006,-2.46431,-1.41089,830.242,-9795.29,-1814.62,0.570461,-0.552455,3.23425,-942.252,9549.38,-250.352,3.80159,-1.82881,1.52274,846.996,-9687.4,-2446.05,-5.51523,5.03415,5.92357,9253.7,-1425.08,2721.61,-0.925846,1.28861,-3.53475
0.282,5217.58,-1462.36,8088.07,7.71212,-9.06599,8.06329,4916.37,345.224,8429.64,-4.8212,-0.59493,-0.767305,-117.876,9581.73,-1377.54,-0.104797,-2.39325,-1.47007,818.513,-9811.57,-1818.67,0.575793,-0.529727,3.29547,-999.971,9575.16,-259.163,3.81313,-1.96265,1.35731,843.284,-9678.04,-2437.22,-5.45573,5.0854,5.86483,9269.48,-1421.06,2752.27,-0.930459,1.21316,-3.54115
0.283,5222.15,-1451.97,8107.44,7.55591,-8.93793,7.87622,4922.69,352.437,8435.18,-4.78846,-0.515589,-0.609917,-113.976,9586.94,-1390.44,-0.146493,-2.32219,-1.52926,806.784,-9827.85,-1822.73,0.581125,-0.506999,3.35668,-1057.69,9600.93,-267.973,3.82468,-2.0965,1.19187,839.571,-9668.69,-2428.4,-5.39624,5.13665,5.80609,9285.25,-1417.04,2782.93,-0.935072,1.13772,-3.54754
0.284,5226.73,-1441.58,8126.81,7.3997,-8.80988,7.68914,4929.02,359.649,8440.71,-4.75571,-0.436247,-0.45253,-110.075,9592.15,-1403.33,-0.188189,-2.25113,-1.58844,795.056,-9844.13,-1826.79,0.586457,-0.484271,3.4179,-1115.41,9626.71,-276.784,3.83623,-2.23034,1.02644,835.859,-9659.34,-2419.57,-5.33674,5.18789,5.74735,9301.02,-1413.02,2813.59,-0.939685,1.06228,-3.55394
0.285,5230.95,-1449.25,8117.82,7.21246,-8.67149,7.46838,4911.49,365.084,8449.21,-4.7231,-0.344463,-0.397078,-100.757,9601.38,-1419.68,-0.171927,-2.16045,-1.59349,784.869,-9849.85,-1819.3,0.566515,-0.46724,3.46961,-1133.48,9641.75,-291.854,3.79043,-2.26413,0.889584,826.578,-9662.26,-2407.2,-5.33345,5.24042,5.76028,9303.19,-1407.81,2826.71,-0.88589,1.02501,-3.52859
0.286,5234.89,-1471.38,8086.16,7.00042,-8.52485,7.22067,4874.87,369.097,8460.08,-4.69061,-0.242726,-0.423175,-87.1036,9613.84,-1438.78,-0.1093,-2.05406,-1.55523,775.916,-9847.13,-1802.58,0.526354,-0.454768,3.51373,-1119.83,9648.21,-311.931,3.69873,-2.21787,0.775584,812.841,-9675.0,-2391.98,-5.37512,5.29396,5.83056,9294.46,-1401.65,2825.81,-0.78537,1.01827,-3.47783
0.287,5238.82,-1493.51,8054.49,6.78837,-8.3782,6.97295,4838.26,373.11,8470.95,-4.65812,-0.140988,-0.449273,-73.4505,9626.29,-1457.89,-0.0466718,-1.94768,-1.51696,766.964,-9844.4,-1785.86,0.486194,-0.442296,3.55785,-1106.18,9654.66,-332.009,3.60704,-2.17161,0.661584,799.105,-9687.74,-2376.76,-5.41679,5.34751,5.90084,9285.73,-1395.49,2824.91,-0.68485,1.01154,-3.42708
0.288,5242.76,-1515.64,8022.83,6.57632,-8.23156,6.72524,4801.64,377.122,8481.81,-4.62563,-0.0392502,-0.47537,-59.7975,9638.75,-1477.0,0.015956,-1.84129,-1.4787,758.011,-9841.68,-1769.14,0.446033,-0.429824,3.60197,-1092.52,9661.11,-352.087,3.51535,-2.12535,0.547585,785.368,-9700.48,-2361.54,-5.45846,5.40106,5.97112,9277.01,-1389.33,2824.01,-0.58433,1.0048,-3.37633
0.289,5246.15,-1536.76,7995.37,6.34294,-8.08033,6.48494,4770.38,376.915,8488.34,-4.59495,0.0529547,-0.502405,-47.3142,9651.29,-1492.17,0.0857549,-1.7509,-1.43685,751.361,-9838.22,-1754.54,0.412415,-0.42644,3.64082,-1082.29,9665.94,-368.863,3.43786,-2.08991,0.459079,772.603,-9712.41,-2348.7,-5.49177,5.44334,6.02934,9271.37,-1382.89,2823.89,-0.490352,1.00975,-3.32962
0.29,5245.12,-1549.74,8001.61,5.93888,-7.89244,6.30389,4781.94,342.945,8460.16,-4.57883,0.0688975,-0.536936,-44.1894,9664.59,-1475.9,0.212922,-1.78843,-1.36632,763.142,-9828.85,-1756.88,0.431137,-0.495767,3.63745,-1099.36,9657.8,-359.223,3.47401,-2.14098,0.574529,767.605,-9717.93,-2354.91,-5.45822,5.3955,5.99113,9290.45,-1374.29,2830.04,-0.448715,1.10814,-3.31523
0.291,5244.08,-1562.72,8007.85,5.53483,-7.70454,6.12283,4793.5,308.975,8431.99,-4.5627,0.0848402,-0.571466,-41.0645,9677.89,-1459.63,0.34009,-1.82597,-1.29578,774.922,-9819.49,-1759.22,0.449859,-0.565094,3.63407,-1116.44,9649.66,-349.583,3.51017,-2.19205,0.689979,762.608,-9723.45,-2361.11,-5.42467,5.34766,5.95292,9309.52,-1365.69,2836.18,-0.407078,1.20653,-3.30084
0.292,5243.05,-1575.7,8014.09,5.13078,-7.51665,5.94178,4805.07,275.006,8403.81,-4.54657,0.100783,-0.605997,-37.9396,9691.19,-1443.35,0.467258,-1.86351,-1.22525,786.703,-9810.12,-1761.55,0.468582,-0.63442,3.6307,-1133.51,9641.52,-339.943,3.54632,-2.24313,0.805429,757.61,-9728.96,-2367.32,-5.39113,5.29982,5.91471,9328.59,-1357.1,2842.33,-0.365441,1.30491,-3.28645
0.293,5242.02,-1588.68,8020.33,4.72673,-7.32876,5.76073,4816.63,241.036,8375.63,-4.53045,0.116726,-0.640528,-34.8148,9704.48,-1427.08,0.594425,-1.90105,-1.15472,798.483,-9800.76,-1763.89,0.487304,-0.703747,3.62733,-1150.59,9633.38,-330.303,3.58248,-2.2942,0.920878,752.613,-9734.48,-2373.52,-5.35758,5.25198,5.8765,9347.67,-1348.5,2848.48,-0.323804,1.4033,-3.27206
0.294,5242.33,-1559.32,8030.84,4.48946,-7.13665,5.68548,4813.68,226.034,8365.57,-4.50804,0.0908637,-0.623739,-50.6106,9713.51,-1413.83,0.596267,-1.9469,-1.14456,801.649,-9796.49,-1768.15,0.534613,-0.718143,3.64514,-1122.26,9618.55,-337.399,3.55065,-2.3213,0.881391,751.602,-9726.06,-2377.64,-5.31463,5.19773,5.88464,9345.75,-1336.11,2855.67,-0.255983,1.43581,-3.17288
0.295,5243.33,-1508.78,8043.48,4.33558,-6.94243,5.66314,4803.47,220.517,8364.57,-4.4825,0.0440993,-0.581291,-75.8668,9720.41,-1402.08,0.535446,-1.9969,-1.16459,800.509,-9794.78,-1773.39,0.596217,-0.705075,3.67354,-1071.22,9600.38,-352.861,3.48482,-2.33641,0.764435,752.585,-9710.68,-2380.72,-5.26698,5.14026,5.91596,9333.34,-1321.84,2863.38,-0.175069,1.43538,-3.0313
0.296,5244.32,-1458.25,8056.12,4.18171,-6.74821,5.64079,4793.27,214.999,8363.57,-4.45696,-0.00266506,-0.538842,-101.123,9727.31,-1390.34,0.474625,-2.04691,-1.18463,799.369,-9793.06,-1778.62,0.65782,-0.692006,3.70194,-1020.19,9582.21,-368.324,3.419,-2.35153,0.647479,753.568,-9695.29,-2383.79,-5.21933,5.0828,5.94728,9320.92,-1307.56,2871.09,-0.094155,1.43495,-2.88972
0.297,5245.31,-1407.71,8068.76,4.02783,-6.554,5.61844,4783.06,209.482,8362.57,-4.43142,-0.0494295,-0.496394,-126.379,9734.21,-1378.6,0.413805,-2.09692,-1.20466,798.228,-9791.34,-1783.85,0.719423,-0.678938,3.73034,-969.159,9564.05,-383.787,3.35317,-2.36664,0.530522,754.55,-9679.9,-2386.87,-5.17168,5.02533,5.9786,9308.51,-1293.28,2878.81,-0.0132411,1.43452,-2.74814
0.298,5245.03,-1372.63,8078.66,3.87808,-6.35,5.59437,4780.15,208.521,8363.61,-4.42378,-0.098112,-0.466816,-145.503,9739.88,-1369.93,0.351371,-2.13439,-1.21847,797.571,-9785.45,-1787.58,0.770779,-0.663096,3.7317,-936.281,9552.66,-393.535,3.33471,-2.37546,0.414878,753.582,-9671.72,-2387.99,-5.1579,4.98704,6.00012,9299.19,-1282.66,2882.56,0.0786784,1.40427,-2.6058
0.299,5240.31,-1391.66,8078.96,3.74273,-6.1118,5.56425,4802.78,223.51,8371.83,-4.47875,-0.153508,-0.482283,-143.161,9741.29,-1372.01,0.28329,-2.12799,-1.2105,798.606,-9764.94,-1786.05,0.786267,-0.637545,3.63846,-966.946,9564.99,-383.281,3.48202,-2.36224,0.303823,745.786,-9688.74,-2382.28,-5.26267,5.01584,5.98733,9300.69,-1284.83,2872.43,0.209118,1.26966,-2.4608
0.3,5235.58,-1410.69,8079.27,3.60738,-5.87359,5.53413,4825.4,238.499,8380.04,-4.53373,-0.208905,-0.497751,-140.82,9742.7,-1374.09,0.21521,-2.12159,-1.20253,799.64,-9744.43,-1784.53,0.801754,-0.611995,3.54521,-997.61,9577.32,-373.027,3.62933,-2.34902,0.192768,737.99,-9705.76,-2376.56,-5.36743,5.04463,5.97454,9302.18,-1287.0,2862.3,0.339557,1.13504,-2.31581
0.301,5230.85,-1429.73,8079.57,3.47203,-5.63538,5.50402,4848.03,253.488,8388.25,-4.58871,-0.264301,-0.513219,-138.478,9744.11,-1376.17,0.147129,-2.11519,-1.19456,800.675,-9723.92,-1783.0,0.817242,-0.586444,3.45196,-1028.28,9589.64,-362.773,3.77663,-2.3358,0.0817133,730.193,-9722.78,-2370.85,-5.4722,5.07343,5.96175,9303.68,-1289.17,2852.17,0.469996,1.00043,-2.17082
0.302,5226.13,-1448.76,8079.87,3.33668,-5.39718,5.4739,4870.65,268.477,8396.47,-4.64368,-0.319697,-0.528686,-136.137,9745.51,-1378.26,0.0790486,-2.10879,-1.18659,801.709,-9703.4,-1781.48,0.83273,-0.560894,3.35871,-1058.94,9601.97,-352.519,3.92394,-2.32257,-0.0293415,722.397,-9739.8,-2365.13,-5.57697,5.10223,5.94896,9305.17,-1291.34,2842.04,0.600435,0.865812,-2.02582
0.303,5235.64,-1460.0,8091.85,3.17925,-5.41864,5.30486,4868.65,274.41,8415.98,-4.6448,-0.384378,-0.497988,-124.649,9738.0,-1365.72,0.101562,-2.07822,-1.18751,793.785,-9699.4,-1784.6,0.810153,-0.523192,3.25965,-1065.28,9596.53,-364.279,3.95836,-2.2558,-0.18261,715.048,-9752.95,-2379.07,-5.57911,5.1415,5.93711,9299.26,-1286.01,2846.98,0.668974,0.803856,-1.89939
0.304,5249.21,-1469.02,8107.15,3.01551,-5.51429,5.09614,4859.6,277.756,8438.72,-4.63053,-0.451711,-0.4541,-110.548,9727.93,-1349.01,0.14996,-2.04075,-1.19098,783.301,-9700.11,-1789.05,0.7767,-0.482018,3.15892,-1064.67,9586.01,-382.329,3.96053,-2.17373,-0.347939,707.826,-9764.99,-2398.62,-5.55192,5.18377,5.92552,9291.23,-1278.54,2856.23,0.719827,0.76266,-1.77826
0.305,5262.79,-1478.04,8122.46,2.85177,-5.60994,4.88741,4850.56,281.101,8461.46,-4.61626,-0.519044,-0.410211,-96.4469,9717.86,-1332.3,0.198358,-2.00328,-1.19445,772.817,-9700.82,-1793.5,0.743248,-0.440844,3.05819,-1064.07,9575.48,-400.379,3.96269,-2.09165,-0.513268,700.604,-9777.02,-2418.17,-5.52473,5.22603,5.91393,9283.19,-1271.08,2865.49,0.77068,0.721464,-1.65713
0.306,5276.36,-1487.06,8137.77,2.68803,-5.70559,4.67868,4841.52,284.447,8484.2,-4.60199,-0.586377,-0.366323,-82.346,9707.79,-1315.59,0.246756,-1.96581,-1.19792,762.333,-9701.52,-1797.95,0.709795,-0.399669,2.95747,-1063.46,9564.96,-418.429,3.96486,-2.00958,-0.678597,693.382,-9789.06,-2437.72,-5.49754,5.26829,5.90235,9275.16,-1263.61,2874.74,0.821532,0.680268,-1.536
0.307,5282.43,-1479.57,8144.47,2.57604,-5.7693,4.53528,4838.61,285.778,8496.03,-4.56316,-0.626227,-0.294491,-74.1487,9697.65,-1304.01,0.29783,-1.94059,-1.21793,755.804,-9704.61,-1797.22,0.663856,-0.345711,2.9073,-1068.05,9559.37,-423.338,3.96178,-1.90892,-0.839481,686.885,-9796.09,-2451.68,-5.42541,5.29955,5.9056,9268.43,-1262.23,2889.88,0.878939,0.635831,-1.34742
0.308,5273.49,-1439.04,8133.96,2.56754,-5.7691,4.52253,4847.99,283.082,8486.03,-4.4752,-0.611112,-0.166773,-77.7587,9687.38,-1302.69,0.354259,-1.9399,-1.27102,757.186,-9712.43,-1786.11,0.592942,-0.266183,2.95824,-1083.05,9563.63,-401.965,3.94824,-1.77109,-0.991475,681.839,-9793.1,-2454.48,-5.26337,5.3088,5.93853,9264.31,-1273.05,2916.81,0.949451,0.584912,-1.02395
0.309,5264.55,-1398.51,8123.45,2.55904,-5.7689,4.50978,4857.36,280.386,8476.03,-4.38723,-0.595996,-0.0390546,-81.3687,9677.1,-1301.37,0.410688,-1.9392,-1.32411,758.567,-9720.26,-1775.01,0.522029,-0.186655,3.00919,-1098.05,9567.9,-380.593,3.93469,-1.63327,-1.14347,676.794,-9790.12,-2457.27,-5.10133,5.31805,5.97146,9260.19,-1283.86,2943.75,1.01996,0.533993,-0.70048
0.31,5255.6,-1357.98,8112.94,2.55054,-5.76871,4.49704,4866.74,277.689,8466.04,-4.29927,-0.58088,0.0886636,-84.9787,9666.83,-1300.05,0.467116,-1.93851,-1.37721,759.949,-9728.09,-1763.91,0.451116,-0.107128,3.06014,-1113.04,9572.16,-359.22,3.92114,-1.49544,-1.29546,671.748,-9787.13,-2460.06,-4.93929,5.32729,6.00439,9256.07,-1294.67,2970.68,1.09048,0.483073,-0.37701
0.311,5246.66,-1317.46,8102.43,2.54204,-5.76851,4.48429,4876.11,274.993,8456.04,-4.2113,-0.565765,0.216382,-88.5887,9656.55,-1298.73,0.523545,-1.93781,-1.4303,761.33,-9735.91,-1752.8,0.380203,-0.0276001,3.11109,-1128.04,9576.43,-337.848,3.90759,-1.35762,-1.44746,666.702,-9784.15,-2462.85,-4.77725,5.33654,6.03732,9251.95,-1305.49,2997.61,1.16099,0.432154,-0.0535392
0.312,5233.71,-1297.13,8120.85,2.53529,-5.79244,4.54018,4848.84,269.248,8448.2,-4.22356,-0.582747,0.0615196,-97.1428,9657.77,-1310.17,0.517907,-1.93044,-1.35478,777.668,-9743.67,-1761.52,0.333488,0.0827018,3.12899,-1097.59,9585.63,-361.243,3.97966,-1.32898,-1.45281,647.589,-9765.79,-2449.86,-4.64761,5.38579,6.04615,9260.26,-1281.86,2986.5,1.25339,0.285616,0.196474
0.313,5220.27,-1279.34,8142.89,2.52876,-5.81938,4.60465,4816.98,263.121,8440.63,-4.24834,-0.60374,-0.128665,-106.315,9660.42,-1323.21,0.50451,-1.92223,-1.26318,795.875,-9751.41,-1772.71,0.289797,0.19685,3.14276,-1061.45,9595.45,-390.235,4.06243,-1.31399,-1.43983,626.719,-9745.5,-2434.89,-4.52202,5.44004,6.05197,9270.12,-1253.94,2970.64,1.34853,0.127126,0.437305
0.314,5206.82,-1261.54,8164.92,2.52222,-5.84633,4.66912,4785.12,256.994,8433.05,-4.27313,-0.624734,-0.31885,-115.487,9663.08,-1336.24,0.491113,-1.91403,-1.17158,814.083,-9759.16,-1783.9,0.246107,0.310999,3.15653,-1025.32,9605.28,-419.227,4.1452,-1.29899,-1.42685,605.848,-9725.22,-2419.92,-4.39644,5.49429,6.05779,9279.99,-1226.01,2954.77,1.44367,-0.031365,0.678136
0.315,5193.37,-1243.75,8186.96,2.51568,-5.87327,4.73359,4753.27,250.868,8425.48,-4.29791,-0.645728,-0.509034,-124.659,9665.73,-1349.28,0.477717,-1.90582,-1.07999,832.29,-9766.9,-1795.09,0.202416,0.425148,3.17031,-989.187,9615.1,-448.218,4.22797,-1.284,-1.41387,584.977,-9704.94,-2404.95,-4.27085,5.54854,6.06361,9289.85,-1198.08,2938.91,1.53881,-0.189855,0.918967
0.316,5184.13,-1246.78,8197.82,2.52132,-5.99415,4.78995,4744.82,247.139,8417.51,-4.30829,-0.686096,-0.599125,-129.918,9672.44,-1359.16,0.467454,-1.86487,-1.00358,835.676,-9781.96,-1799.55,0.205572,0.533767,3.15053,-986.725,9626.53,-463.092,4.29914,-1.22133,-1.4365,562.616,-9688.02,-2398.35,-4.24531,5.55296,6.07567,9291.51,-1171.71,2932.57,1.63061,-0.287309,1.14008
0.317,5180.15,-1275.84,8194.71,2.54215,-6.23246,4.83618,4765.63,246.406,8409.06,-4.30066,-0.750681,-0.5641,-130.286,9684.21,-1365.1,0.461109,-1.78299,-0.946174,820.535,-9806.18,-1795.6,0.267288,0.635474,3.08881,-1026.35,9639.96,-460.317,4.3558,-1.09905,-1.50366,538.389,-9675.32,-2402.2,-4.34484,5.49511,6.09554,9282.91,-1147.29,2938.13,1.71825,-0.308466,1.33656
0.318,5176.16,-1304.9,8191.6,2.56299,-6.47077,4.8824,4786.44,245.674,8400.61,-4.29303,-0.815267,-0.529074,-130.653,9695.98,-1371.04,0.454763,-1.70111,-0.888766,805.394,-9830.39,-1791.65,0.329004,0.737181,3.0271,-1065.98,9653.4,-457.543,4.41246,-0.976783,-1.57082,514.163,-9662.61,-2406.05,-4.44437,5.43725,6.11541,9274.31,-1122.87,2943.68,1.80589,-0.329623,1.53303
0.319,5172.18,-1333.97,8188.48,2.58383,-6.70908,4.92862,4807.25,244.941,8392.16,-4.2854,-0.879852,-0.494048,-131.021,9707.76,-1376.98,0.448417,-1.61923,-0.831357,790.253,-9854.61,-1787.69,0.39072,0.838888,2.96538,-1105.61,9666.83,-454.769,4.46911,-0.854512,-1.63797,489.937,-9649.91,-2409.89,-4.5439,5.37939,6.13528,9265.7,-1098.45,2949.24,1.89353,-0.350781,1.7295
0.32,5168.19,-1363.03,8185.37,2.60466,-6.94739,4.97485,4828.07,244.209,8383.71,-4.27778,-0.944438,-0.459022,-131.388,9719.53,-1382.92,0.442072,-1.53735,-0.773949,775.112,-9878.82,-1783.74,0.452435,0.940595,2.90367,-1145.24,9680.27,-451.995,4.52577,-0.73224,-1.70513,465.711,-9637.2,-2413.74,-4.64343,5.32153,6.15515,9257.1,-1074.03,2954.8,1.98118,-0.371938,1.92597
0.321,5165.1,-1375.23,8197.63,2.6207,-7.10771,5.01647,4830.02,251.029,8407.17,-4.23909,-0.92678,-0.551176,-134.005,9719.42,-1395.17,0.434676,-1.53872,-0.752654,757.479,-9881.32,-1776.85,0.465644,0.953804,2.8391,-1154.66,9659.14,-473.41,4.64517,-0.729273,-1.661,457.978,-9645.67,-2402.0,-4.71509,5.1933,6.15837,9257.03,-1078.37,2971.78,2.17403,-0.54039,2.22941
0.322,5162.0,-1387.42,8209.9,2.63673,-7.26803,5.05808,4831.97,257.849,8430.62,-4.20041,-0.909121,-0.64333,-136.621,9719.31,-1407.42,0.42728,-1.54009,-0.731359,739.846,-9883.82,-1769.96,0.478852,0.967012,2.77454,-1164.09,9638.02,-494.825,4.76456,-0.726306,-1.61688,450.246,-9654.14,-2390.27,-4.78676,5.06507,6.16159,9256.96,-1082.71,2988.75,2.36688,-0.708842,2.53284
0.323,5158.9,-1399.62,8222.16,2.65276,-7.42835,5.0997,4833.92,264.669,8454.08,-4.16173,-0.891463,-0.735483,-139.238,9719.21,-1419.67,0.419883,-1.54146,-0.710064,722.213,-9886.31,-1763.07,0.492061,0.980221,2.70998,-1173.52,9616.89,-516.241,4.88396,-0.723339,-1.57275,442.513,-9662.6,-2378.53,-4.85843,4.93683,6.16481,9256.89,-1087.05,3005.73,2.55974,-0.877294,2.83627
0.324,5155.81,-1411.81,8234.42,2.66879,-7.58867,5.14132,4835.88,271.489,8477.54,-4.12305,-0.873805,-0.827637,-141.855,9719.1,-1431.92,0.412487,-1.54283,-0.688769,704.58,-9888.81,-1756.18,0.505269,0.993429,2.64541,-1182.95,9595.77,-537.656,5.00335,-0.720372,-1.52863,434.78,-9671.07,-2366.79,-4.9301,4.8086,6.16803,9256.82,-1091.4,3022.71,2.75259,-1.04575,3.13971
0.325,5161.4,-1417.85,8252.56,2.6968,-7.62502,5.18952,4848.71,276.014,8483.38,-4.1176,-0.836637,-0.846573,-136.229,9720.13,-1439.69,0.431935,-1.55645,-0.640698,708.546,-9877.88,-1752.7,0.483738,1.01605,2.61217,-1185.16,9607.61,-532.252,5.022,-0.65726,-1.43722,421.386,-9677.04,-2353.43,-4.92615,4.68359,6.16103,9249.56,-1099.84,3032.3,2.9303,-1.16243,3.44982
