Time,RFoot_accel.x,RFoot_accel.y,RFoot_accel.z,RFoot_gyro.x,RFoot_gyro.y,RFoot_gyro.z,LFoot_accel.x,LFoot_accel.y,LFoot_accel.z,LFoot_gyro.x,LFoot_gyro.y,LFoot_gyro.z,RShank_accel.x,RShank_accel.y,RShank_accel.z,RShank_gyro.x,RShank_gyro.y,RShank_gyro.z,LShank_accel.x,LShank_accel.y,LShank_accel.z,LShank_gyro.x,LShank_gyro.y,LShank_gyro.z,RThigh_accel.x,RThigh_accel.y,RThigh_accel.z,RThigh_gyro.x,RThigh_gyro.y,RThigh_gyro.z,LThigh_accel.x,LThigh_accel.y,LThigh_accel.z,LThigh_gyro.x,LThigh_gyro.y,LThigh_gyro.z,Pelvis_accel.x,Pelvis_accel.y,Pelvis_accel.z,Pelvis_gyro.x,Pelvis_gyro.y,Pelvis_gyro.z
1.53,2902.09,7418.49,8151.58,-15.9005,-471.411,193.406,-9329.69,1448.18,-322.157,19.4055,18.1363,-66.7903,199.465,8619.25,-1848.93,20.8771,70.4197,-63.6953,5446.75,-2901.27,7969.96,-3.42885,-26.5873,-37.4674,4654.73,-15411.8,-2594.36,50.3474,-69.6313,161.286,8725.45,-3067.67,2941.77,-31.7856,15.7813,-12.7493,10501.8,-10496.4,309.215,33.8155,43.2236,-69.0654
1.531,2854.3,7678.25,8101.81,-16.6076,-476.492,195.151,-9563.61,1858.56,64.7273,21.9504,24.6577,-70.4984,-544.193,8703.55,-1723.52,21.1212,69.2687,-64.4091,5657.18,-3548.02,8017.17,-1.48186,-25.91,-36.3566,4825.33,-15404.6,-2772.73,49.9387,-70.8179,161.329,8597.91,-3056.2,2952.87,-30.5096,14.6675,-12.7355,10395.9,-10468.8,561.444,33.6308,47.7052,-72.5755
1.532,2806.5,7938.0,8052.04,-17.3147,-481.573,196.895,-9797.53,2268.95,451.611,24.4954,31.179,-74.2065,-1287.85,8787.86,-1598.11,21.3652,68.1176,-65.1229,5867.6,-4194.78,8064.39,0.465121,-25.2326,-35.2459,4995.93,-15397.4,-2951.11,49.5301,-72.0044,161.372,8470.36,-3044.74,2963.96,-29.2336,13.5536,-12.7218,10290.0,-10441.1,813.674,33.4461,52.1869,-76.0857
1.533,2758.71,8197.76,8002.28,-18.0218,-486.654,198.64,-10031.5,2679.34,838.495,27.0403,37.7003,-77.9146,-2031.51,8872.17,-1472.7,21.6093,66.9666,-65.8366,6078.02,-4841.53,8111.6,2.41211,-24.5552,-34.1352,5166.53,-15390.2,-3129.49,49.1215,-73.191,161.415,8342.82,-3033.27,2975.05,-27.9576,12.4398,-12.708,10184.0,-10413.5,1065.9,33.2614,56.6685,-79.5958
1.534,2692.03,8360.43,7880.67,-18.7088,-491.91,200.254,-10099.3,3137.18,1007.41,31.0226,40.6458,-80.3567,-2449.25,9029.26,-1430.75,22.0622,63.9994,-66.6704,6245.68,-5548.6,8152.11,4.38465,-23.3508,-32.6768,5330.44,-15348.6,-3336.42,48.7222,-73.8297,161.465,8230.91,-3031.53,2984.78,-26.8741,11.4411,-12.6757,10044.1,-10337.4,1612.1,34.8816,58.4063,-82.4891
1.535,2615.91,8474.54,7723.15,-19.3859,-497.254,201.803,-10084.1,3618.76,1067.34,35.7235,41.8033,-82.1656,-2704.02,9222.74,-1430.53,22.6195,60.124,-67.5642,6391.96,-6285.84,8189.28,6.36998,-21.8828,-31.0448,5491.0,-15289.9,-3557.64,48.3276,-74.1945,161.52,8126.83,-3034.67,2993.82,-25.8868,10.4999,-12.634,9887.22,-10237.2,2305.27,37.4042,58.7722,-85.0739
1.536,2539.8,8588.66,7565.62,-20.063,-502.599,203.351,-10068.8,4100.34,1127.28,40.4244,42.9607,-83.9746,-2958.8,9416.23,-1430.31,23.1768,56.2487,-68.458,6538.23,-7023.09,8226.45,8.3553,-20.4148,-29.4127,5651.56,-15231.2,-3778.85,47.9329,-74.5592,161.575,8022.74,-3037.8,3002.86,-24.8995,9.55865,-12.5923,9730.34,-10137.0,2998.45,39.9268,59.1381,-87.6587
1.537,2463.68,8702.78,7408.1,-20.74,-507.943,204.899,-10053.6,4581.92,1187.21,45.1252,44.1182,-85.7836,-3213.57,9609.71,-1430.09,23.7341,52.3733,-69.3517,6684.51,-7760.33,8263.62,10.3406,-18.9468,-27.7806,5812.13,-15172.5,-4000.06,47.5382,-74.9239,161.629,7918.65,-3040.93,3011.9,-23.9123,8.61745,-12.5506,9573.47,-10036.8,3691.62,42.4493,59.504,-90.2435
1.538,2408.19,8793.9,7277.22,-20.8195,-512.919,206.428,-10072.8,4980.59,1205.48,50.0792,44.5345,-87.2863,-3385.36,9795.97,-1443.54,24.175,48.0558,-70.1799,6806.31,-8416.26,8286.37,12.1926,-17.5174,-26.0657,5960.15,-15105.3,-4195.27,47.2117,-75.0421,161.707,7819.99,-3037.25,3031.34,-22.956,7.75814,-12.484,9356.63,-9941.47,4334.93,45.2815,59.3609,-92.427
1.539,2424.89,8804.52,7239.63,-18.8074,-516.606,207.887,-10212.3,5089.11,1077.95,55.9187,42.3567,-87.7174,-3266.72,9956.98,-1504.8,24.2084,42.1911,-70.7785,6842.43,-8787.61,8258.65,13.578,-16.223,-24.0613,6064.29,-15008.3,-4299.45,47.1236,-74.2974,161.867,7740.36,-3009.77,3087.16,-22.1083,7.18548,-12.3302,8929.93,-9863.52,4803.67,49.1969,57.4365,-93.2061
1.54,2441.59,8815.14,7202.03,-16.7954,-520.292,209.347,-10351.8,5197.62,950.422,61.7582,40.1789,-88.1485,-3148.07,10118.0,-1566.06,24.2417,36.3263,-71.377,6878.54,-9158.97,8230.93,14.9635,-14.9285,-22.0568,6168.42,-14911.4,-4403.64,47.0354,-73.5527,162.026,7660.72,-2982.29,3142.98,-21.2605,6.61281,-12.1763,8503.23,-9785.56,5272.42,53.1124,55.5121,-93.9852
1.541,2458.29,8825.76,7164.44,-14.7833,-523.979,210.806,-10491.3,5306.14,822.892,67.5977,38.0011,-88.5796,-3029.43,10279.0,-1627.33,24.2751,30.4615,-71.9756,6914.66,-9530.32,8203.22,16.3489,-13.6341,-20.0523,6272.56,-14814.4,-4507.83,46.9473,-72.808,162.186,7581.08,-2954.81,3198.81,-20.4128,6.04015,-12.0225,8076.54,-9707.61,5741.17,57.0278,53.5877,-94.7642
1.542,2474.99,8836.37,7126.84,-12.7713,-527.666,212.265,-10630.8,5414.65,695.362,73.4372,35.8233,-89.0107,-2910.78,10440.0,-1688.59,24.3085,24.5967,-72.5741,6950.78,-9901.67,8175.5,17.7343,-12.3396,-18.0478,6376.7,-14717.4,-4612.02,46.8592,-72.0633,162.345,7501.44,-2927.32,3254.63,-19.5651,5.46749,-11.8686,7649.84,-9629.66,6209.91,60.9433,51.6633,-95.5433
1.543,2561.2,8712.64,7119.64,-7.59431,-531.418,213.744,-10750.9,5582.69,563.412,79.1628,32.9937,-88.7451,-2626.24,10537.9,-1733.96,23.78,18.2463,-72.9619,6823.53,-9860.08,8075.87,19.1783,-11.2785,-15.6546,6409.68,-14594.2,-4580.72,47.4527,-70.3693,162.427,7455.38,-2867.92,3312.33,-18.7432,5.13522,-11.5317,7022.13,-9542.06,6357.48,64.8284,49.1948,-94.9603
1.544,2667.27,8550.51,7121.11,-1.51309,-535.189,215.228,-10865.4,5767.73,430.199,84.8558,29.9779,-88.2805,-2294.31,10617.8,-1774.79,23.0908,11.7572,-73.2893,6649.59,-9700.5,7955.7,20.6391,-10.284,-13.1503,6422.34,-14463.5,-4510.71,48.241,-68.4042,162.486,7418.91,-2799.4,3370.56,-17.9288,4.87162,-11.1424,6336.98,-9451.71,6413.28,68.705,46.5708,-93.9881
1.545,2773.35,8388.38,7122.59,4.56814,-538.961,216.712,-10980.0,5952.77,296.986,90.5489,26.9621,-87.8159,-1962.37,10697.7,-1815.62,22.4017,5.2681,-73.6168,6475.66,-9540.92,7835.52,22.0998,-9.28955,-10.646,6434.99,-14332.8,-4440.69,49.0293,-66.4391,162.545,7382.43,-2730.89,3428.79,-17.1143,4.60803,-10.7532,5651.84,-9361.36,6469.08,72.5815,43.9469,-93.0159
1.546,2879.42,8226.26,7124.07,10.6494,-542.732,218.196,-11094.6,6137.81,163.774,96.242,23.9463,-87.3513,-1630.43,10777.6,-1856.45,21.7126,-1.221,-73.9443,6301.73,-9381.35,7715.35,23.5606,-8.29508,-8.14174,6447.65,-14202.0,-4370.68,49.8177,-64.4739,162.604,7345.96,-2662.37,3487.02,-16.2999,4.34444,-10.3639,4966.69,-9271.01,6524.88,76.4581,41.3229,-92.0437
1.547,3113.18,7906.36,7099.07,18.4834,-546.706,219.3,-11109.2,6389.7,54.3865,101.832,20.8818,-86.476,-1310.11,10825.8,-1888.84,20.775,-7.45945,-74.1929,6083.03,-9157.73,7629.09,24.7372,-7.74751,-6.16218,6413.64,-14083.7,-4238.84,51.0979,-62.583,162.714,7304.38,-2580.04,3535.2,-15.4629,4.2146,-9.96025,4255.66,-9172.28,6508.5,80.0165,38.3025,-90.4112
1.548,3602.32,7270.91,7021.1,29.8229,-551.087,219.642,-10924.0,6775.31,-7.34993,107.217,17.7197,-84.7791,-1013.02,10810.5,-1904.35,19.3405,-13.1966,-74.2838,5774.78,-8806.05,7610.65,25.3455,-8.09375,-5.23212,6286.29,-13990.3,-3983.36,53.362,-60.8404,162.926,7252.6,-2470.1,3563.27,-14.5807,4.35225,-9.52779,3492.86,-9056.78,6347.76,82.9385,34.489,-87.4582
1.549,4091.45,6635.47,6943.13,41.1625,-555.468,219.984,-10738.7,7160.91,-69.0864,112.602,14.5576,-83.0823,-715.936,10795.2,-1919.86,17.9059,-18.9337,-74.3746,5466.53,-8454.36,7592.21,25.9537,-8.44,-4.30205,6158.95,-13896.9,-3727.87,55.6261,-59.0979,163.137,7200.81,-2360.15,3591.35,-13.6985,4.4899,-9.09533,2730.05,-8941.28,6187.02,85.8605,30.6754,-84.5052
1.55,4580.59,6000.02,6865.16,52.502,-559.849,220.326,-10553.5,7546.52,-130.823,117.987,11.3954,-81.3854,-418.849,10779.9,-1935.37,16.4714,-24.6709,-74.4655,5158.29,-8102.67,7573.77,26.562,-8.78624,-3.37198,6031.61,-13803.5,-3472.39,57.8902,-57.3553,163.349,7149.02,-2250.2,3619.42,-12.8163,4.62756,-8.66287,1967.25,-8825.78,6026.28,88.7825,26.8619,-81.5522
1.551,5069.73,5364.57,6787.19,63.8415,-564.23,220.668,-10368.2,7932.12,-192.559,123.372,8.23333,-79.6886,-121.762,10764.6,-1950.88,15.0368,-30.408,-74.5564,4850.04,-7750.99,7555.34,27.1703,-9.13248,-2.44192,5904.26,-13710.1,-3216.9,60.1543,-55.6127,163.56,7097.24,-2140.26,3647.5,-11.9341,4.76521,-8.23041,1204.44,-8710.27,5865.54,91.7045,23.0484,-78.5992
1.552,5846.22,4373.46,6528.06,72.4705,-569.877,220.311,-9986.19,8207.09,-238.378,126.315,5.26067,-77.5132,40.1835,10715.1,-1969.88,13.3364,-35.0409,-74.3206,4562.96,-7294.93,7617.43,27.6815,-10.2569,-2.25834,5631.78,-13624.0,-2876.27,62.8239,-54.9504,164.496,7109.53,-1990.5,3681.74,-11.4828,4.83345,-7.68659,594.448,-8638.85,5463.48,91.9994,19.0098,-75.3531
1.553,6658.63,3337.89,6246.29,80.7607,-575.681,219.867,-9579.59,8468.23,-282.207,128.953,2.3117,-75.2781,185.236,10661.2,-1989.32,11.6028,-39.5358,-74.0441,4278.53,-6825.83,7689.59,28.1805,-11.4786,-2.16807,5341.16,-13538.8,-2524.99,65.5442,-54.4231,165.523,7129.83,-1835.76,3716.75,-11.0855,4.89301,-7.12886,3.55241,-8572.93,5031.26,91.966,14.943,-72.0705
1.554,7471.04,2302.32,5964.53,89.0509,-581.486,219.422,-9172.98,8729.37,-326.037,131.591,-0.637283,-73.0429,330.288,10607.4,-2008.75,9.86911,-44.0307,-73.7676,3994.1,-6356.72,7761.75,28.6795,-12.7004,-2.0778,5050.53,-13453.6,-2173.72,68.2644,-53.8958,166.549,7150.13,-1681.02,3751.76,-10.6881,4.95257,-6.57113,-587.343,-8507.02,4599.04,91.9325,10.8763,-68.7878
1.555,8283.45,1266.75,5682.76,97.3411,-587.29,218.978,-8766.38,8990.51,-369.866,134.229,-3.58626,-70.8078,475.341,10553.6,-2028.19,8.13545,-48.5255,-73.4911,3709.67,-5887.62,7833.91,29.1785,-13.9221,-1.98753,4759.91,-13368.4,-1822.44,70.9847,-53.3684,167.575,7170.43,-1526.28,3786.77,-10.2907,5.01214,-6.0134,-1178.24,-8441.1,4166.81,91.899,6.80949,-65.5052
1.556,9065.79,677.775,5568.25,103.339,-591.21,218.518,-8311.45,9199.68,-394.756,136.088,-6.51237,-68.6289,589.144,10513.0,-1999.69,6.22149,-52.8177,-73.0387,3511.36,-5535.64,7917.98,29.6535,-14.8632,-1.93366,4419.36,-13255.5,-1590.61,73.1422,-52.7646,168.968,7183.77,-1378.96,3812.51,-9.88661,5.06794,-5.51024,-1667.71,-8371.5,3711.38,90.688,2.86463,-62.8687
1.557,9810.54,647.042,5662.83,106.473,-592.773,218.038,-7796.13,9343.89,-395.971,136.975,-9.40988,-66.5203,663.886,10489.0,-1911.29,4.08216,-56.8565,-72.3667,3420.71,-5330.07,8016.92,30.0984,-15.4535,-1.9253,4016.4,-13107.9,-1508.09,74.5961,-52.065,170.817,7188.4,-1240.94,3826.64,-9.47413,5.11904,-5.07528,-2030.39,-8297.3,3226.92,88.0049,-0.927851,-61.04
1.558,10555.3,616.308,5757.41,109.607,-594.337,217.558,-7280.81,9488.1,-397.187,137.862,-12.3074,-64.4117,738.627,10464.9,-1822.89,1.94282,-60.8954,-71.6946,3330.06,-5124.49,8115.86,30.5433,-16.0437,-1.91694,3613.44,-12960.3,-1425.57,76.05,-51.3655,172.667,7193.04,-1102.91,3840.77,-9.06164,5.17014,-4.64033,-2393.07,-8223.1,2742.47,85.3219,-4.72033,-59.2113
1.559,11300.0,585.574,5851.99,112.74,-595.9,217.078,-6765.48,9632.3,-398.402,138.748,-15.2049,-62.3031,813.369,10440.8,-1734.49,-0.19652,-64.9342,-71.0225,3239.41,-4918.92,8214.8,30.9882,-16.634,-1.90858,3210.48,-12812.7,-1343.04,77.5039,-50.666,174.517,7197.67,-964.879,3854.9,-8.64916,5.22123,-4.20538,-2755.75,-8148.9,2258.01,82.6389,-8.5128,-57.3826
1.56,12044.8,554.84,5946.57,115.874,-597.464,216.598,-6250.16,9776.51,-399.618,139.635,-18.1024,-60.1945,888.11,10416.7,-1646.09,-2.33586,-68.973,-70.3504,3148.77,-4713.35,8313.74,31.4331,-17.2243,-1.90022,2807.52,-12665.1,-1260.52,78.9578,-49.9664,176.367,7202.31,-826.85,3869.03,-8.23668,5.27233,-3.77042,-3118.43,-8074.7,1773.56,79.9558,-12.3053,-55.554
1.561,13117.0,1578.87,5889.34,119.323,-596.773,216.345,-5680.85,9789.42,-470.609,139.801,-20.5751,-58.498,860.053,10367.9,-1551.55,-4.16123,-72.3559,-69.6664,3325.43,-4701.5,8394.2,30.8533,-16.7998,-1.52967,2426.31,-12564.6,-1418.53,78.8757,-48.4552,178.529,7209.11,-724.406,3869.03,-8.05842,5.34572,-3.22006,-3280.79,-8087.14,1407.52,75.7143,-16.1201,-56.1316
1.562,14189.2,2602.9,5832.12,122.773,-596.082,216.093,-5111.54,9802.33,-541.6,139.967,-23.0477,-56.8014,831.996,10319.2,-1457.01,-5.98661,-75.7389,-68.9825,3502.09,-4689.65,8474.66,30.2735,-16.3754,-1.15912,2045.11,-12464.2,-1576.53,78.7935,-46.9439,180.691,7215.92,-621.963,3869.03,-7.88017,5.41911,-2.66971,-3443.14,-8099.58,1041.47,71.4726,-19.9349,-56.7093
1.563,15261.5,3626.94,5774.89,126.222,-595.391,215.841,-4542.23,9815.24,-612.591,140.134,-25.5204,-55.1049,803.939,10270.4,-1362.47,-7.81199,-79.1219,-68.2986,3678.76,-4677.8,8555.12,29.6938,-15.9509,-0.788571,1663.91,-12363.7,-1734.54,78.7113,-45.4326,182.854,7222.72,-519.519,3869.03,-7.70192,5.4925,-2.11935,-3605.49,-8112.02,675.433,67.2311,-23.7497,-57.287
1.564,16333.7,4650.97,5717.66,129.672,-594.7,215.588,-3972.92,9828.15,-683.582,140.3,-27.9931,-53.4083,775.882,10221.6,-1267.93,-9.63737,-82.5048,-67.6146,3855.42,-4665.96,8635.57,29.114,-15.5265,-0.41802,1282.7,-12263.3,-1892.54,78.6292,-43.9213,185.016,7229.52,-417.075,3869.03,-7.52366,5.56588,-1.56899,-3767.84,-8124.46,309.391,62.9895,-27.5645,-57.8647
1.565,17289.8,5982.21,5623.26,129.909,-589.814,215.032,-3391.87,9821.56,-758.626,140.283,-30.4579,-52.142,722.238,10171.6,-1249.73,-10.8084,-84.2997,-67.0006,4076.95,-4598.37,8682.02,28.3412,-14.9434,0.0650227,909.399,-12252.4,-2004.26,78.4344,-42.6251,186.911,7246.1,-335.13,3874.05,-7.53506,5.74664,-1.1376,-3862.12,-8187.3,-16.8528,58.6781,-30.7068,-59.6492
1.566,18153.1,7559.23,5499.12,127.575,-581.571,214.232,-2801.43,9799.37,-836.913,140.119,-32.9165,-51.22,648.125,10120.5,-1292.6,-11.456,-84.8242,-66.4425,4334.37,-4486.19,8701.25,27.414,-14.2334,0.63806,542.413,-12313.1,-2078.93,78.1495,-41.501,188.593,7270.5,-269.585,3883.09,-7.69818,6.0133,-0.801389,-3901.95,-8290.47,-311.258,54.3111,-33.3111,-62.3991
1.567,19016.3,9136.25,5374.98,125.242,-573.328,213.433,-2210.99,9777.19,-915.199,139.955,-35.3752,-50.2979,574.012,10069.4,-1335.47,-12.1036,-85.3486,-65.8844,4591.79,-4374.01,8720.48,26.4868,-13.5234,1.2111,175.428,-12373.8,-2153.6,77.8646,-40.3768,190.275,7294.9,-204.039,3892.12,-7.8613,6.27995,-0.465176,-3941.78,-8393.63,-605.664,49.944,-35.9154,-65.149
1.568,19879.6,10713.3,5250.85,122.909,-565.086,212.633,-1620.55,9755.0,-993.485,139.791,-37.8338,-49.3759,499.899,10018.4,-1378.34,-12.7512,-85.873,-65.3263,4849.21,-4261.84,8739.71,25.5595,-12.8135,1.78413,-191.558,-12434.4,-2228.28,77.5797,-39.2527,191.958,7319.29,-138.494,3901.16,-8.02442,6.54661,-0.128963,-3981.61,-8496.8,-900.07,45.5769,-38.5198,-67.899
1.569,20717.2,12258.2,5165.57,120.801,-556.141,211.64,-1039.13,9736.32,-1062.5,139.596,-40.3375,-48.5163,433.044,9970.19,-1423.22,-13.2676,-86.0929,-64.7495,5082.54,-4130.21,8763.57,24.6269,-12.1395,2.32704,-558.898,-12508.9,-2304.69,77.2782,-38.1453,193.557,7343.42,-77.784,3907.92,-8.19456,6.8216,0.203425,-4006.58,-8614.44,-1183.29,41.2694,-40.9644,-70.8359
1.57,21349.5,13546.6,5391.23,120.495,-541.581,209.095,-529.938,9745.66,-1057.35,139.151,-43.2014,-48.1563,424.254,9945.12,-1484.14,-12.7343,-83.8759,-64.0227,5123.15,-3843.0,8824.5,23.6504,-11.7542,2.62885,-929.069,-12693.3,-2395.03,76.8438,-37.1725,194.497,7365.43,-55.7621,3896.5,-8.42094,7.16324,0.505209,-3912.63,-8847.81,-1377.01,37.439,-42.1319,-75.269
1.571,21981.9,14835.1,5616.88,120.189,-527.021,206.549,-20.7418,9754.99,-1052.19,138.706,-46.0653,-47.7963,415.463,9920.06,-1545.06,-12.201,-81.6589,-63.2959,5163.75,-3555.78,8885.42,22.6739,-11.3688,2.93066,-1299.24,-12877.7,-2485.37,76.4095,-36.1997,195.436,7387.44,-33.7402,3885.08,-8.64733,7.50488,0.806994,-3818.67,-9081.19,-1570.74,33.6086,-43.2993,-79.7021
1.572,22614.2,16123.5,5842.54,119.883,-512.461,204.004,488.454,9764.33,-1047.04,138.261,-48.9293,-47.4363,406.673,9894.99,-1605.99,-11.6677,-79.4419,-62.5691,5204.36,-3268.57,8946.35,21.6974,-10.9834,3.23247,-1669.41,-13062.1,-2575.71,75.9751,-35.2268,196.376,7409.45,-11.7183,3873.66,-8.87371,7.84652,1.10878,-3724.72,-9314.57,-1764.46,29.7781,-44.4668,-84.1351
1.573,23246.6,17411.9,6068.19,119.577,-497.901,201.459,997.65,9773.67,-1041.88,137.816,-51.7932,-47.0763,397.882,9869.92,-1666.91,-11.1344,-77.2249,-61.8424,5244.98,-2981.36,9007.27,20.7209,-10.598,3.53428,-2039.58,-13246.5,-2666.05,75.5408,-34.254,197.315,7431.46,10.3036,3862.24,-9.10009,8.18816,1.41056,-3630.77,-9547.95,-1958.18,25.9477,-45.6342,-88.5682
1.574,23733.7,17696.3,6450.73,118.286,-481.354,194.951,1429.03,9811.25,-1031.7,137.312,-54.6631,-46.856,427.31,9835.5,-1600.98,-10.3698,-74.6449,-61.1916,5155.29,-2697.23,9084.43,19.4003,-10.3046,3.76034,-2430.67,-13389.4,-2816.99,74.5885,-32.4574,197.781,7475.94,14.119,3839.24,-9.44934,8.35239,1.65011,-3510.61,-9808.95,-2022.72,23.125,-46.4441,-93.7729
1.575,24148.2,17478.6,6911.7,116.502,-463.814,186.461,1821.5,9862.96,-1019.0,136.779,-57.536,-46.7055,475.846,9796.39,-1471.64,-9.4896,-71.8835,-60.5788,5000.45,-2414.65,9169.7,17.9076,-10.0573,3.94853,-2832.22,-13511.5,-2998.22,73.3772,-30.2489,198.009,7531.68,8.83113,3810.43,-9.86001,8.42791,1.85853,-3377.34,-10083.8,-2022.67,20.8061,-47.0753,-99.3636
1.576,24562.7,17260.9,7372.67,114.718,-446.274,177.97,2213.97,9914.67,-1006.3,136.247,-60.4089,-46.555,524.383,9757.28,-1342.3,-8.6094,-69.122,-59.966,4845.62,-2132.06,9254.97,16.4148,-9.81004,4.13672,-3233.77,-13633.6,-3179.46,72.1659,-28.0404,198.238,7587.41,3.54324,3781.63,-10.2707,8.50344,2.06695,-3244.08,-10358.6,-2022.61,18.4872,-47.7064,-104.954
1.577,24977.2,17043.2,7833.65,112.933,-428.734,169.48,2606.44,9966.38,-993.601,135.714,-63.2818,-46.4045,572.92,9718.17,-1212.95,-7.72921,-66.3605,-59.3532,4690.78,-1849.48,9340.23,14.9221,-9.56273,4.32491,-3635.31,-13755.7,-3360.7,70.9546,-25.8319,198.467,7643.14,-1.74465,3752.82,-10.6814,8.57897,2.27537,-3110.82,-10633.4,-2022.56,16.1684,-48.3376,-110.545
1.578,25309.2,16651.3,8287.99,110.302,-410.617,160.369,2970.58,10038.2,-979.305,135.096,-66.0127,-46.3124,627.178,9681.84,-1086.43,-6.83238,-63.6657,-58.7758,4539.91,-1601.31,9411.49,13.3281,-9.32493,4.51171,-4023.92,-13855.5,-3531.37,69.6095,-23.2787,198.583,7693.55,-1.24985,3726.03,-11.0663,8.70096,2.44008,-2966.17,-10901.1,-1970.11,14.218,-49.1239,-116.15
1.579,25352.6,15649.7,8719.14,104.703,-390.482,149.087,3235.57,10180.3,-959.42,134.18,-68.2471,-46.4251,701.464,9655.21,-969.768,-5.8773,-61.2041,-58.3224,4402.93,-1473.6,9433.69,11.3797,-9.1204,4.69362,-4367.26,-13876.8,-3665.09,67.7962,-19.5192,198.304,7725.35,19.4844,3706.28,-11.3609,8.9856,2.45178,-2781.66,-11144.2,-1734.28,13.5573,-50.4531,-121.805
1.58,25396.0,14648.2,9150.29,99.1042,-370.347,137.805,3500.56,10322.5,-939.535,133.265,-70.4814,-46.5377,775.75,9628.57,-853.111,-4.92222,-58.7425,-57.8691,4265.95,-1345.88,9455.88,9.43128,-8.91586,4.87553,-4710.59,-13898.1,-3798.8,65.983,-15.7596,198.025,7757.15,40.2186,3686.53,-11.6556,9.27025,2.46348,-2597.16,-11387.3,-1498.45,12.8966,-51.7823,-127.461
1.581,25439.3,13646.6,9581.45,93.5056,-350.212,126.523,3765.54,10464.7,-919.65,132.35,-72.7158,-46.6503,850.036,9601.94,-736.454,-3.96714,-56.2809,-57.4157,4128.97,-1218.17,9478.08,7.48284,-8.71133,5.05744,-5053.92,-13919.4,-3932.52,64.1697,-12.0,197.746,7788.95,60.9528,3666.79,-11.9503,9.55489,2.47518,-2412.66,-11630.4,-1262.62,12.2359,-53.1116,-133.116
1.582,25482.7,12645.1,10012.6,87.9069,-330.077,115.24,4030.53,10606.8,-899.765,131.434,-74.9501,-46.763,924.321,9575.3,-619.797,-3.01205,-53.8194,-56.9624,3991.99,-1090.45,9500.28,5.53441,-8.5068,5.23935,-5397.25,-13940.7,-4066.24,62.3564,-8.24043,197.467,7820.75,81.687,3647.04,-12.245,9.83953,2.48688,-2228.16,-11873.5,-1026.79,11.5751,-54.4408,-138.772
1.583,25021.4,12056.2,10108.6,79.8539,-313.043,108.308,4161.04,10771.5,-888.173,129.613,-76.3434,-47.0936,945.414,9607.53,-538.122,-2.08847,-51.5464,-56.4599,3966.6,-993.265,9535.87,3.19584,-8.25587,5.19999,-5648.53,-13890.3,-4232.99,60.5032,-3.93718,197.163,7854.51,70.4824,3659.53,-12.993,9.89754,2.40929,-2064.25,-12055.2,-711.667,12.0989,-56.5281,-143.514
1.584,24415.9,11585.3,10108.8,71.0996,-296.895,102.619,4253.14,10942.5,-878.95,127.534,-77.4964,-47.4865,951.309,9656.59,-466.442,-1.17388,-49.3274,-55.9435,3973.1,-904.804,9575.3,0.745809,-7.99169,5.09741,-5873.52,-13819.5,-4409.19,58.6385,0.521413,196.85,7888.82,50.1524,3681.23,-13.8706,9.8908,2.30618,-1906.23,-12219.4,-373.883,12.9611,-58.832,-147.995
1.585,23810.5,11114.4,10109.0,62.3453,-280.747,96.9292,4345.23,11113.6,-869.728,125.454,-78.6494,-47.8795,957.204,9705.64,-394.762,-0.259291,-47.1084,-55.427,3979.59,-816.343,9614.72,-1.70423,-7.72751,4.99484,-6098.5,-13748.6,-4585.38,56.7738,4.98,196.538,7923.13,29.8225,3702.93,-14.7481,9.88406,2.20308,-1748.21,-12383.5,-36.0994,13.8233,-61.1358,-152.476
1.586,23205.0,10643.5,10109.2,53.591,-264.599,91.2398,4437.32,11284.7,-860.505,123.374,-79.8024,-48.2724,963.099,9754.69,-323.082,0.655297,-44.8894,-54.9105,3986.09,-727.882,9654.15,-4.15426,-7.46333,4.89226,-6323.48,-13677.8,-4761.58,54.9091,9.43859,196.226,7957.45,9.49251,3724.63,-15.6257,9.87731,2.09997,-1590.18,-12547.7,301.684,14.6855,-63.4397,-156.957
1.587,22469.5,10295.3,10158.0,45.1412,-250.41,86.6107,4477.48,11462.4,-861.779,120.875,-80.5383,-48.7861,962.651,9802.15,-251.706,1.5471,-42.8312,-54.3034,4017.43,-658.813,9693.42,-6.64817,-7.13959,4.81836,-6516.45,-13602.2,-4839.29,53.0818,13.2009,195.732,7988.05,-8.43571,3732.77,-16.5014,9.95709,1.97916,-1454.44,-12705.4,613.913,15.7846,-65.8703,-160.817
1.588,21474.0,10192.5,10304.1,37.3003,-240.142,84.1023,4413.76,11653.1,-884.044,117.537,-80.4401,-49.5414,949.519,9846.42,-180.939,2.39333,-41.0945,-53.5149,4098.43,-628.527,9732.42,-9.22984,-6.69673,4.8018,-6645.39,-13517.1,-4720.06,51.3291,15.5705,194.873,8011.25,-21.5605,3713.78,-17.3734,10.2099,1.82295,-1363.27,-12850.5,875.03,17.3574,-68.5544,-163.435
1.589,20478.4,10089.6,10450.2,29.4594,-229.874,81.5938,4350.05,11843.8,-906.309,114.198,-80.3419,-50.2967,936.387,9890.68,-110.172,3.23956,-39.3578,-52.7265,4179.44,-598.242,9771.41,-11.8115,-6.25386,4.78524,-6774.33,-13432.0,-4600.83,49.5764,17.9402,194.014,8034.44,-34.6852,3694.8,-18.2455,10.4627,1.66673,-1272.09,-12995.6,1136.15,18.9301,-71.2384,-166.054
1.59,19482.9,9986.78,10596.3,21.6185,-219.606,79.0854,4286.33,12034.6,-928.574,110.86,-80.2438,-51.052,923.254,9934.95,-39.4046,4.0858,-37.6211,-51.9381,4260.44,-567.957,9810.41,-14.3932,-5.811,4.76868,-6903.28,-13347.0,-4481.6,47.8237,20.3098,193.156,8057.63,-47.81,3675.82,-19.1175,10.7155,1.51052,-1180.92,-13140.7,1397.26,20.5029,-73.9225,-168.672
1.591,18487.4,9883.93,10742.3,13.7776,-209.338,76.5769,4222.61,12225.3,-950.839,107.521,-80.1456,-51.8072,910.122,9979.22,31.3626,4.93203,-35.8844,-51.1496,4341.45,-537.672,9849.4,-16.9748,-5.36813,4.75213,-7032.22,-13261.9,-4362.36,46.071,22.6795,192.297,8080.82,-60.9347,3656.83,-19.9895,10.9683,1.3543,-1089.75,-13285.7,1658.38,22.0757,-76.6066,-171.291
1.592,17807.5,10216.3,10853.4,11.6188,-195.826,74.7306,4062.13,12407.9,-1024.89,103.766,-78.9158,-52.9154,935.17,10036.4,82.6831,5.6619,-34.6763,-50.2892,4397.27,-570.037,9858.68,-19.4675,-5.05478,4.87915,-7075.84,-13175.8,-4240.13,43.5191,23.1044,191.047,8073.86,-49.325,3661.56,-20.687,11.5205,0.925923,-1052.5,-13400.3,1859.98,23.8931,-78.9206,-172.054
1.593,17167.1,10603.0,10960.0,10.1703,-181.908,72.967,3889.56,12589.5,-1105.42,99.9576,-77.5445,-54.0677,964.991,10095.3,131.573,6.37722,-33.5343,-49.4197,4449.93,-610.233,9864.25,-21.9491,-4.75762,5.02411,-7108.8,-13089.6,-4117.53,40.8672,23.2861,189.749,8063.12,-34.6236,3669.25,-21.3625,12.1101,0.463524,-1022.0,-13511.1,2054.14,25.7411,-81.1885,-172.586
1.594,16526.7,10989.7,11066.7,8.72175,-167.99,71.2034,3716.99,12771.0,-1185.94,96.1496,-76.1732,-55.2199,994.812,10154.1,180.462,7.09255,-32.3923,-48.5502,4502.6,-650.429,9869.82,-24.4306,-4.46045,5.16908,-7141.75,-13003.4,-3994.93,38.2154,23.4679,188.45,8052.38,-19.9221,3676.95,-22.0381,12.6997,0.00112482,-991.503,-13621.8,2248.3,27.5891,-83.4563,-173.118
1.595,15886.3,11376.4,11173.4,7.27323,-154.072,69.4398,3544.41,12952.6,-1266.47,92.3416,-74.802,-56.3722,1024.63,10212.9,229.352,7.80787,-31.2502,-47.6807,4555.27,-690.626,9875.38,-26.9122,-4.16329,5.31404,-7174.71,-12917.2,-3872.32,35.5636,23.6497,187.151,8041.64,-5.22063,3684.64,-22.7137,13.2893,-0.461274,-961.003,-13732.6,2442.45,29.4371,-85.7241,-173.649
1.596,15445.9,11898.1,11424.4,8.03492,-140.676,68.0326,3343.44,13069.9,-1365.98,88.3709,-72.9131,-57.6451,1057.92,10272.2,262.906,8.45268,-30.2682,-46.8816,4549.42,-725.22,9879.33,-29.3638,-3.94494,5.4638,-7170.02,-12825.7,-3891.71,32.7558,23.9902,185.766,8031.07,16.265,3704.21,-23.435,13.826,-0.926981,-941.601,-13831.9,2548.27,31.02,-87.3897,-173.493
1.597,15255.7,12588.6,11855.9,11.5594,-127.931,67.0706,3106.97,13106.9,-1489.22,84.197,-70.3773,-59.0687,1095.54,10332.1,277.29,9.00933,-29.486,-46.1705,4470.43,-752.81,9881.24,-31.7779,-3.82511,5.61955,-7118.26,-12727.3,-4088.58,29.7532,24.5291,184.273,8020.71,46.2309,3738.63,-24.2133,14.2966,-1.39682,-936.074,-13916.9,2543.67,32.2716,-88.3026,-172.475
1.598,15065.4,13279.0,12287.5,15.0839,-115.187,66.1087,2870.5,13143.9,-1612.47,80.023,-67.8415,-60.4924,1133.17,10392.0,291.673,9.56597,-28.7039,-45.4595,4391.45,-780.401,9883.15,-34.192,-3.70529,5.77529,-7066.5,-12629.0,-4285.45,26.7505,25.068,182.78,8010.34,76.1967,3773.05,-24.9917,14.7672,-1.86667,-930.546,-14001.9,2539.07,33.5231,-89.2154,-171.458
1.599,14875.2,13969.5,12719.0,18.6083,-102.442,65.1468,2634.03,13181.0,-1735.71,75.8491,-65.3056,-61.916,1170.79,10451.8,306.057,10.1226,-27.9218,-44.7484,4312.46,-807.992,9885.05,-36.6061,-3.58546,5.93104,-7014.75,-12530.7,-4482.31,23.7478,25.607,181.287,7999.98,106.163,3807.48,-25.77,15.2377,-2.33651,-925.019,-14086.9,2534.47,34.7747,-90.1282,-170.44
1.6,14684.9,14659.9,13150.5,22.1328,-89.6974,64.1849,2397.55,13218.0,-1858.95,71.6751,-62.7698,-63.3396,1208.41,10511.7,320.441,10.6793,-27.1396,-44.0373,4233.47,-835.583,9886.96,-39.0201,-3.46563,6.08679,-6962.99,-12432.4,-4679.18,20.7452,26.1459,179.794,7989.61,136.128,3841.9,-26.5484,15.7083,-2.80635,-919.491,-14172.0,2529.86,36.0263,-91.041,-169.423
1.601,14675.9,14337.2,13331.7,22.664,-75.1871,56.9415,2142.71,13154.5,-1970.02,68.2768,-59.5651,-64.6287,1278.48,10556.1,297.62,11.122,-26.482,-43.9039,4141.57,-915.375,9803.28,-41.2409,-3.36766,6.14125,-6612.4,-12379.6,-4895.54,17.9189,27.4522,177.003,7965.75,152.603,3788.67,-27.2917,16.5495,-3.09848,-954.19,-14251.5,2407.86,36.0918,-90.29,-167.527
1.602,14666.9,14014.4,13513.0,23.1952,-60.6767,49.698,1887.87,13091.0,-2081.09,64.8785,-56.3603,-65.9178,1348.54,10600.5,274.799,11.5648,-25.8243,-43.7705,4049.68,-995.167,9719.59,-43.4617,-3.26969,6.19571,-6261.81,-12326.8,-5111.9,15.0926,28.7586,174.213,7941.9,169.077,3735.44,-28.0351,17.3906,-3.39061,-988.889,-14331.1,2285.86,36.1573,-89.539,-165.63
1.603,14657.9,13691.6,13694.2,23.7263,-46.1663,42.4546,1633.02,13027.6,-2192.16,61.4802,-53.1556,-67.2068,1418.61,10644.9,251.979,12.0075,-25.1667,-43.637,3957.78,-1074.96,9635.9,-45.6825,-3.17171,6.25018,-5911.22,-12274.1,-5328.25,12.2663,30.0649,171.423,7918.04,185.551,3682.21,-28.7784,18.2318,-3.68275,-1023.59,-14410.7,2163.86,36.2228,-88.788,-163.734
1.604,14648.9,13368.8,13875.4,24.2575,-31.6559,35.2112,1378.18,12964.1,-2303.23,58.0819,-49.9508,-68.4959,1488.68,10689.3,229.158,12.4503,-24.509,-43.5036,3865.89,-1154.75,9552.22,-47.9033,-3.07374,6.30464,-5560.64,-12221.3,-5544.61,9.43995,31.3713,168.633,7894.18,202.025,3628.97,-29.5218,19.0729,-3.97488,-1058.29,-14490.3,2041.86,36.2884,-88.037,-161.838
1.605,14447.9,12948.9,13845.7,24.0759,-16.7387,28.1923,1158.27,12860.0,-2414.64,55.5165,-46.5693,-69.4512,1553.22,10713.4,201.746,12.9247,-23.9077,-43.5327,3795.45,-1251.16,9475.28,-49.8994,-3.13809,6.32394,-5096.35,-12163.4,-5683.6,7.16355,32.6918,164.907,7882.28,221.304,3603.6,-30.2289,19.9424,-4.532,-1093.8,-14600.2,1889.67,36.3263,-86.1498,-159.684
1.606,14093.3,12451.2,13647.4,23.3242,-1.49587,21.3529,966.299,12723.6,-2526.34,53.6175,-43.0462,-70.1394,1613.33,10721.3,170.662,13.4243,-23.3514,-43.6918,3742.17,-1360.86,9403.75,-51.7157,-3.33231,6.31512,-4541.11,-12101.5,-5760.7,5.32709,34.0238,160.434,7879.94,242.828,3600.52,-30.9071,20.8346,-5.3011,-1129.95,-14734.3,1713.33,36.3421,-83.3536,-157.322
1.607,13738.7,11953.5,13449.0,22.5725,13.7469,14.5135,774.333,12587.1,-2638.03,51.7185,-39.5232,-70.8277,1673.45,10729.1,139.578,13.9239,-22.7951,-43.8509,3688.89,-1470.55,9332.23,-53.5321,-3.52652,6.30629,-3985.87,-12039.5,-5837.81,3.49062,35.3558,155.961,7877.6,264.352,3597.44,-31.5852,21.7268,-6.07021,-1166.11,-14868.5,1536.99,36.3579,-80.5574,-154.961
1.608,13384.1,11455.9,13250.6,21.8207,28.9897,7.6741,582.367,12450.6,-2749.72,49.8194,-36.0001,-71.516,1733.56,10736.9,108.494,14.4236,-22.2388,-44.01,3635.61,-1580.25,9260.7,-55.3484,-3.72073,6.29746,-3430.62,-11977.5,-5914.91,1.65416,36.6877,151.488,7875.26,285.875,3594.36,-32.2633,22.619,-6.83931,-1202.27,-15002.6,1360.65,36.3737,-77.7611,-152.6
1.609,12996.3,10988.9,13118.8,21.4325,44.0485,1.32246,397.896,12306.7,-2854.65,47.9859,-32.4936,-72.1594,1790.06,10739.7,70.0443,14.924,-21.6903,-44.2057,3591.58,-1697.22,9194.18,-57.074,-3.89663,6.31256,-2882.03,-11906.2,-5970.16,-0.124119,37.9235,146.867,7881.97,309.43,3589.33,-33.0286,23.4844,-7.55854,-1243.7,-15132.7,1184.79,36.2938,-74.8493,-150.271
1.61,12343.4,10767.5,13519.2,23.9526,57.6353,-1.12717,273.387,12103.5,-2905.41,46.6762,-29.1191,-72.4441,1817.64,10701.8,-27.3312,15.431,-21.2044,-44.6947,3621.54,-1872.36,9167.73,-58.0733,-3.92601,6.51907,-2386.63,-11760.0,-5850.62,-1.43688,38.3903,141.07,7961.07,349.238,3568.75,-34.4909,24.1354,-7.87875,-1327.31,-15230.8,1012.8,35.4483,-71.0125,-148.201
1.611,11690.5,10546.0,13919.6,26.4727,71.2222,-3.57681,148.879,11900.2,-2956.17,45.3665,-25.7447,-72.7289,1845.21,10663.8,-124.707,15.9379,-20.7185,-45.1837,3651.51,-2047.5,9141.29,-59.0726,-3.95539,6.72558,-1891.23,-11613.8,-5731.08,-2.74964,38.8571,135.272,8040.17,389.046,3548.17,-35.9532,24.7864,-8.19897,-1410.91,-15328.8,840.809,34.6029,-67.1757,-146.131
1.612,11037.6,10324.6,14320.1,28.9929,84.809,-6.02644,24.3706,11697.0,-3006.93,44.0568,-22.3703,-73.0136,1872.79,10625.9,-222.082,16.4448,-20.2326,-45.6727,3681.48,-2222.64,9114.84,-60.0719,-3.98477,6.93209,-1395.83,-11467.6,-5611.54,-4.06241,39.3239,129.475,8119.27,428.854,3527.59,-37.4155,25.4374,-8.51918,-1494.52,-15426.8,668.821,33.7574,-63.3389,-144.061
1.613,10384.7,10103.2,14720.5,31.513,98.3958,-8.47608,-100.138,11493.8,-3057.7,42.7471,-18.9959,-73.2984,1900.37,10588.0,-319.458,16.9518,-19.7467,-46.1617,3711.45,-2397.78,9088.4,-61.0712,-4.01416,7.1386,-900.423,-11321.4,-5492.0,-5.37517,39.7907,123.677,8198.37,468.662,3507.01,-38.8778,26.0884,-8.83939,-1578.13,-15524.8,496.832,32.9119,-59.502,-141.991
1.614,9670.22,9887.33,14771.3,34.5119,109.076,-9.91416,-170.1,11258.6,-3047.66,41.7705,-16.0996,-73.3524,1906.44,10547.7,-426.115,17.4115,-19.4336,-46.6282,3733.83,-2607.41,8999.8,-61.8,-4.0068,7.39204,-526.553,-11088.0,-5379.08,-6.839,39.3424,117.752,8193.08,468.781,3457.34,-41.4675,25.7488,-8.06629,-1643.05,-15597.0,331.054,31.7282,-55.4136,-140.338
1.615,8925.0,9674.23,14647.4,37.7502,118.304,-10.8465,-212.789,11007.4,-3007.23,40.9606,-13.4423,-73.291,1901.75,10506.1,-537.413,17.8476,-19.2069,-47.0836,3752.41,-2834.29,8880.12,-62.3936,-3.98109,7.66893,-213.449,-10810.9,-5269.48,-8.37837,38.4367,111.763,8145.6,449.054,3393.12,-44.6208,24.9139,-6.74653,-1698.62,-15656.3,168.38,30.3753,-51.1994,-138.894
1.616,8179.79,9461.13,14523.4,40.9885,127.531,-11.7788,-255.478,10756.3,-2966.8,40.1506,-10.7851,-73.2296,1897.07,10464.6,-648.712,18.2837,-18.9801,-47.539,3771.0,-3061.16,8760.44,-62.9872,-3.95537,7.94583,99.6558,-10533.8,-5159.88,-9.91774,37.531,105.774,8098.12,429.328,3328.91,-47.7741,24.0791,-5.42677,-1754.2,-15715.6,5.70605,29.0224,-46.9852,-137.449
1.617,7434.57,9248.04,14399.5,44.2269,136.758,-12.7111,-298.167,10505.1,-2926.37,39.3406,-8.12786,-73.1682,1892.39,10423.1,-760.01,18.7197,-18.7534,-47.9944,3789.58,-3288.04,8640.77,-63.5808,-3.92965,8.22273,412.76,-10256.7,-5050.27,-11.4571,36.6253,99.7848,8050.64,409.602,3264.69,-50.9274,23.2442,-4.10701,-1809.77,-15774.9,-156.968,27.6695,-42.771,-136.005
1.618,6708.22,9033.58,14246.5,47.0562,145.586,-13.1767,-310.658,10252.0,-2882.73,38.671,-5.65196,-73.0887,1886.84,10372.1,-868.345,19.1323,-18.5672,-48.4002,3798.99,-3509.39,8534.7,-64.08,-3.91843,8.41627,691.581,-9967.99,-4953.25,-13.0547,35.4845,93.8733,8033.21,356.597,3173.83,-53.1711,22.6948,-3.15124,-1854.7,-15827.6,-294.25,26.4195,-38.6307,-134.706
1.619,6047.93,8814.36,13992.0,48.4543,153.015,-12.0089,-217.455,9992.27,-2827.86,38.4925,-3.81078,-72.9454,1878.25,10287.7,-966.31,19.4623,-18.5228,-48.6326,3776.3,-3711.39,8476.25,-64.2487,-3.95797,8.31806,850.408,-9638.8,-4900.26,-14.8559,33.5207,88.2341,8120.99,187.121,2989.73,-52.2312,23.1441,-3.46942,-1862.35,-15857.2,-342.661,25.5294,-34.7495,-133.913
1.62,5387.64,8595.15,13737.5,49.8524,160.443,-10.8411,-124.251,9732.53,-2772.99,38.314,-1.96959,-72.8021,1869.66,10203.3,-1064.28,19.7924,-18.4785,-48.8651,3753.6,-3913.39,8417.81,-64.4174,-3.9975,8.21985,1009.24,-9309.61,-4847.27,-16.6572,31.5569,82.5948,8208.76,17.6453,2805.62,-51.2912,23.5935,-3.7876,-1870.0,-15886.8,-391.073,24.6392,-30.8683,-133.121
1.621,4727.34,8375.93,13482.9,51.2505,167.872,-9.67326,-31.0479,9472.78,-2718.12,38.1356,-0.128409,-72.6589,1861.07,10119.0,-1162.24,20.1224,-18.4341,-49.0975,3730.9,-4115.39,8359.36,-64.5861,-4.03703,8.12164,1168.06,-8980.42,-4794.28,-18.4584,29.5931,76.9555,8296.53,-151.831,2621.51,-50.3513,24.0429,-4.10578,-1877.66,-15916.4,-439.484,23.7491,-26.9871,-132.329
1.622,4067.05,8156.72,13228.4,52.6486,175.301,-8.50546,62.1555,9213.03,-2663.25,37.9571,1.71278,-72.5156,1852.48,10034.6,-1260.21,20.4525,-18.3897,-49.33,3708.2,-4317.39,8300.92,-64.7548,-4.07656,8.02343,1326.89,-8651.24,-4741.29,-20.2597,27.6293,71.3162,8384.31,-321.307,2437.4,-49.4114,24.4922,-4.42395,-1885.31,-15945.9,-487.895,22.8589,-23.1058,-131.537
1.623,3678.65,8219.01,13186.5,52.7763,181.935,-5.21124,222.123,8985.99,-2612.45,38.5093,3.06605,-72.5664,1848.67,9971.99,-1372.55,20.5324,-18.2663,-49.3251,3728.84,-4469.74,8192.53,-64.5252,-4.04336,8.12848,1479.43,-8376.83,-4732.57,-21.9891,25.103,65.8236,8505.19,-436.801,2475.82,-47.8202,23.8244,-5.33827,-1910.36,-15946.4,-527.939,22.5025,-19.7201,-131.455
1.624,3367.94,8361.75,13205.4,52.541,188.341,-1.30948,401.167,8768.3,-2562.82,39.2702,4.27992,-72.6728,1846.22,9915.56,-1489.01,20.5408,-18.1203,-49.2525,3761.87,-4607.91,8069.86,-64.1819,-3.98937,8.29161,1630.17,-8118.07,-4736.49,-23.6979,22.4159,60.3729,8635.52,-536.872,2577.81,-46.0429,22.8374,-6.42291,-1940.38,-15938.5,-565.591,22.2986,-16.4761,-131.576
1.625,3057.22,8504.48,13224.3,52.3057,194.748,2.59228,580.21,8550.6,-2513.18,40.0312,5.4938,-72.7791,1843.78,9859.13,-1605.46,20.5492,-17.9742,-49.1799,3794.89,-4746.08,7947.2,-63.8386,-3.93538,8.45474,1780.91,-7859.31,-4740.42,-25.4068,19.7288,54.9221,8765.86,-636.943,2679.8,-44.2656,21.8503,-7.50755,-1970.41,-15930.6,-603.243,22.0946,-13.232,-131.697
1.626,2746.51,8647.21,13243.2,52.0704,201.154,6.49404,759.253,8332.91,-2463.55,40.7921,6.70767,-72.8854,1841.33,9802.7,-1721.92,20.5576,-17.8282,-49.1073,3827.92,-4884.24,7824.53,-63.4953,-3.88139,8.61787,1931.66,-7600.55,-4744.34,-27.1156,17.0417,49.4714,8896.2,-737.014,2781.79,-42.4882,20.8633,-8.59219,-2000.43,-15922.7,-640.896,21.8907,-9.98789,-131.818
1.627,2463.6,8799.06,13173.5,52.2158,207.316,10.0956,939.097,8118.75,-2412.52,41.8121,7.69335,-73.0868,1836.99,9742.81,-1832.66,20.5437,-17.6297,-48.953,3851.27,-5006.34,7740.13,-62.9839,-3.87329,8.74322,2098.23,-7381.7,-4738.54,-28.7052,14.1173,44.061,8995.13,-799.364,2826.95,-41.1538,19.8997,-9.60874,-2040.64,-15906.9,-680.171,21.8612,-7.01374,-132.116
1.628,2236.32,8969.15,12926.4,53.1224,212.989,13.0968,1120.54,7911.66,-2358.69,43.3501,8.22266,-73.4785,1828.89,9675.97,-1931.97,20.4854,-17.3262,-48.6353,3855.28,-5096.31,7732.25,-62.1363,-3.95696,8.79301,2296.46,-7242.67,-4713.28,-30.0561,10.7185,38.7312,9031.25,-786.273,2758.45,-40.7049,18.9829,-10.4891,-2101.21,-15875.5,-722.693,22.1807,-4.57943,-132.768
1.629,2009.04,9139.24,12679.3,54.029,218.662,16.098,1301.99,7704.58,-2304.87,44.888,8.75197,-73.8702,1820.78,9609.13,-2031.29,20.4271,-17.0226,-48.3175,3859.28,-5186.27,7724.38,-61.2888,-4.04063,8.8428,2494.69,-7103.64,-4688.03,-31.407,7.31966,33.4014,9067.37,-773.181,2689.94,-40.2561,18.0662,-11.3695,-2161.79,-15844.1,-765.216,22.5002,-2.14513,-133.419
1.63,1781.75,9309.33,12432.3,54.9357,224.334,19.0991,1483.43,7497.49,-2251.04,46.4259,9.28128,-74.2619,1812.68,9542.29,-2130.6,20.3688,-16.7191,-47.9998,3863.28,-5276.23,7716.5,-60.4412,-4.1243,8.89259,2692.92,-6964.61,-4662.78,-32.7579,3.92082,28.0717,9103.49,-760.09,2621.43,-39.8073,17.1495,-12.2499,-2222.37,-15812.7,-807.738,22.8197,0.289172,-134.071
1.631,1554.47,9479.42,12185.2,55.8423,230.007,22.1003,1664.88,7290.4,-2197.22,47.9639,9.81058,-74.6536,1804.57,9475.46,-2229.91,20.3105,-16.4156,-47.6821,3867.29,-5366.19,7708.62,-59.5937,-4.20797,8.94238,2891.15,-6825.58,-4637.52,-34.1088,0.521985,22.7419,9139.61,-746.998,2552.93,-39.3584,16.2328,-13.1303,-2282.94,-15781.3,-850.26,23.1391,2.72347,-134.722
1.632,1354.98,9480.18,11908.7,55.1855,235.572,23.1326,1817.03,7187.66,-2160.56,49.6229,10.1406,-75.0639,1828.17,9421.46,-2329.04,20.174,-16.0854,-47.3156,3857.47,-5492.16,7652.44,-58.4559,-4.27075,8.75501,3097.87,-6766.43,-4622.76,-34.524,-2.71669,17.3986,9094.04,-755.406,2562.49,-39.8156,15.1962,-14.1397,-2353.47,-15719.3,-856.095,23.5716,4.41198,-135.827
1.633,1158.97,9459.77,11628.5,54.3334,241.124,23.9187,1965.52,7097.96,-2126.05,51.2969,10.4457,-75.4764,1855.73,9369.08,-2428.14,20.0277,-15.752,-46.943,3845.92,-5622.63,7590.21,-57.2817,-4.33093,8.53798,3305.65,-6717.28,-4609.31,-34.8223,-5.93535,12.0537,9038.27,-766.502,2581.81,-40.386,14.1447,-15.1653,-2425.23,-15653.6,-857.344,24.0181,6.00727,-136.988
1.634,962.965,9439.36,11348.4,53.4812,246.676,24.7048,2114.02,7008.27,-2091.55,52.971,10.7509,-75.889,1883.28,9316.7,-2527.25,19.8815,-15.4185,-46.5704,3834.36,-5753.1,7527.99,-56.1076,-4.39111,8.32096,3513.44,-6668.13,-4595.86,-35.1206,-9.15401,6.7087,8982.49,-777.598,2601.13,-40.9564,13.0932,-16.1909,-2497.0,-15587.9,-858.593,24.4646,7.60255,-138.149
1.635,766.956,9418.95,11068.2,52.629,252.227,25.4909,2262.51,6918.57,-2057.04,54.6451,11.056,-76.3015,1910.84,9264.31,-2626.35,19.7352,-15.0851,-46.1979,3822.81,-5883.57,7465.77,-54.9335,-4.45129,8.10394,3721.22,-6618.97,-4582.41,-35.4188,-12.3727,1.36373,8926.71,-788.693,2620.45,-41.5269,12.0418,-17.2165,-2568.76,-15522.1,-859.842,24.9112,9.19784,-139.311
1.636,615.739,9364.03,10862.6,51.4205,257.662,25.8511,2366.49,6845.45,-2027.15,56.1366,11.3368,-76.5393,1914.86,9215.09,-2716.36,19.4162,-14.7823,-45.819,3827.88,-5973.88,7432.67,-53.9181,-4.41195,7.95586,3903.38,-6583.39,-4565.75,-35.3498,-15.253,-3.92131,8897.1,-803.458,2623.58,-42.4446,10.8787,-18.2879,-2672.06,-15440.1,-864.194,25.2645,10.4009,-140.604
1.637,520.511,9265.97,10750.4,49.7665,262.949,25.6787,2414.84,6793.04,-2003.04,57.4,11.5871,-76.5587,1889.46,9169.83,-2795.0,18.8814,-14.5179,-45.4324,3853.71,-6013.99,7435.97,-53.1012,-4.24821,7.89397,4053.53,-6564.77,-4545.08,-34.8218,-17.7104,-9.13146,8900.2,-822.808,2606.47,-43.7963,9.57614,-19.4166,-2814.76,-15337.7,-872.425,25.5014,11.1137,-142.062
1.638,425.284,9167.91,10638.1,48.1125,268.237,25.5063,2463.19,6740.64,-1978.93,58.6634,11.8374,-76.5781,1864.06,9124.56,-2873.65,18.3465,-14.2534,-45.0458,3879.54,-6054.11,7439.26,-52.2844,-4.08447,7.83207,4203.68,-6546.16,-4524.41,-34.2937,-20.1678,-14.3416,8903.29,-842.159,2589.36,-45.1481,8.2736,-20.5453,-2957.47,-15235.4,-880.656,25.7382,11.8265,-143.52
1.639,330.056,9069.85,10525.8,46.4585,273.524,25.3339,2511.54,6688.23,-1954.81,59.9268,12.0878,-76.5975,1838.65,9079.3,-2952.29,17.8117,-13.989,-44.6591,3905.37,-6094.23,7442.56,-51.4675,-3.92073,7.77018,4353.83,-6527.54,-4503.74,-33.7656,-22.6253,-19.5517,8906.39,-861.51,2572.25,-46.4999,6.97106,-21.674,-3100.17,-15133.0,-888.887,25.9751,12.5393,-144.978
1.64,234.829,8971.79,10413.5,44.8045,278.812,25.1615,2559.89,6635.83,-1930.7,61.1902,12.3381,-76.6169,1813.25,9034.03,-3030.93,17.2769,-13.7245,-44.2725,3931.2,-6134.34,7445.86,-50.6507,-3.75699,7.70829,4503.98,-6508.92,-4483.07,-33.2375,-25.0827,-24.7619,8909.48,-880.86,2555.14,-47.8516,5.66852,-22.8027,-3242.88,-15030.6,-897.118,26.2119,13.2521,-146.437
1.641,172.756,8839.2,10293.5,44.1396,283.674,25.1888,2519.3,6660.31,-1926.69,61.7082,12.1368,-76.423,1805.31,9018.63,-3073.03,16.3739,-13.5211,-44.2218,3950.08,-6046.39,7524.63,-49.766,-3.6679,7.55655,4519.47,-6465.79,-4406.7,-32.1659,-27.1301,-29.4846,8948.69,-885.965,2512.65,-48.4823,4.81599,-24.0158,-3403.35,-14920.6,-914.622,26.2668,13.3106,-147.938
1.642,110.684,8706.61,10173.5,43.4747,288.536,25.2162,2478.71,6684.8,-1922.67,62.2262,11.9354,-76.2291,1797.36,9003.23,-3115.12,15.4709,-13.3177,-44.1711,3968.96,-5958.43,7603.4,-48.8813,-3.57881,7.40481,4534.97,-6422.65,-4330.33,-31.0944,-29.1775,-34.2074,8987.9,-891.069,2470.16,-49.113,3.96346,-25.2288,-3563.83,-14810.5,-932.127,26.3217,13.369,-149.439
1.643,48.6111,8574.02,10053.5,42.8098,293.398,25.2436,2438.12,6709.29,-1918.65,62.7442,11.734,-76.0353,1789.41,8987.82,-3157.21,14.5678,-13.1143,-44.1205,3987.84,-5870.48,7682.16,-47.9966,-3.48972,7.25307,4550.46,-6379.51,-4253.96,-30.0228,-31.2249,-38.9301,9027.11,-896.173,2427.67,-49.7437,3.11092,-26.4418,-3724.31,-14700.5,-949.632,26.3766,13.4275,-150.94
1.644,-13.4614,8441.43,9933.5,42.1449,298.26,25.2709,2397.53,6733.78,-1914.64,63.2622,11.5326,-75.8414,1781.47,8972.42,-3199.31,13.6648,-12.9109,-44.0698,4006.72,-5782.52,7760.93,-47.112,-3.40063,7.10132,4565.96,-6336.37,-4177.59,-28.9512,-33.2723,-43.6529,9066.32,-901.278,2385.18,-50.3744,2.25839,-27.6548,-3884.79,-14590.5,-967.137,26.4316,13.486,-152.441
1.645,-21.0739,8283.54,9817.41,41.6028,302.931,25.4077,2314.3,6795.2,-1916.81,63.3789,10.9428,-75.4546,1753.51,8984.88,-3207.57,12.6125,-12.949,-44.0024,4032.71,-5695.63,7777.64,-46.3065,-3.35427,6.96007,4552.19,-6266.9,-4065.92,-27.9905,-35.2118,-47.9827,9087.76,-939.131,2362.71,-50.2816,1.70337,-29.0673,-4042.63,-14475.6,-981.285,26.1487,13.3513,-153.796
1.646,14.8816,8105.4,9704.44,41.1589,307.449,25.632,2196.94,6886.17,-1923.93,63.1746,10.0423,-74.9134,1709.55,9019.64,-3188.77,11.4409,-13.1805,-43.9216,4064.38,-5609.58,7744.69,-45.5645,-3.34208,6.82722,4515.02,-6176.36,-3926.01,-27.1185,-37.065,-51.9981,9094.98,-1003.18,2356.26,-49.6101,1.38635,-30.6395,-4198.34,-14356.8,-992.747,25.5957,13.0619,-155.032
1.647,50.8371,7927.27,9591.47,40.7151,311.967,25.8563,2079.59,6977.14,-1931.05,62.9704,9.14172,-74.3722,1665.59,9054.39,-3169.97,10.2692,-13.4119,-43.8409,4096.05,-5523.53,7711.75,-44.8225,-3.3299,6.69436,4477.84,-6085.81,-3786.11,-26.2465,-38.9183,-56.0135,9102.19,-1067.24,2349.8,-48.9386,1.06933,-32.2117,-4354.05,-14238.0,-1004.21,25.0426,12.7726,-156.269
1.648,86.7925,7749.13,9478.51,40.2712,316.485,26.0805,1962.23,7068.11,-1938.17,62.7661,8.24117,-73.8311,1621.63,9089.15,-3151.17,9.09758,-13.6433,-43.7601,4127.72,-5437.49,7678.8,-44.0804,-3.31771,6.5615,4440.66,-5995.27,-3646.2,-25.3744,-40.7715,-60.0289,9109.41,-1131.29,2343.34,-48.2671,0.752313,-33.7839,-4509.77,-14119.2,-1015.67,24.4896,12.4832,-157.506
1.649,130.577,7570.94,9371.83,39.8301,320.946,26.2766,1840.14,7161.45,-1944.95,62.5299,7.29309,-73.2473,1565.98,9122.67,-3130.47,7.92047,-13.9217,-43.6909,4157.4,-5354.25,7652.28,-43.353,-3.27907,6.42126,4397.35,-5904.54,-3505.42,-24.5423,-42.6243,-63.9748,9118.73,-1182.75,2341.77,-47.5807,0.43979,-35.2859,-4665.94,-14001.7,-1031.06,23.917,12.1783,-158.69
1.65,236.996,7392.31,9315.5,39.4116,324.952,26.2464,1680.19,7273.73,-1949.04,62.0386,5.96481,-72.3225,1416.83,9146.37,-3094.59,6.69971,-14.5752,-43.7136,4171.16,-5293.52,7677.16,-42.7421,-3.02878,6.22202,4304.91,-5812.3,-3357.62,-24.0292,-44.4733,-67.3644,9144.84,-1133.45,2379.31,-46.7751,0.163216,-36.2265,-4825.8,-13895.1,-1077.81,23.1877,11.7491,-159.454
1.651,343.415,7213.69,9259.16,38.993,328.958,26.2163,1520.23,7386.01,-1953.12,61.5473,4.63652,-71.3977,1267.68,9170.06,-3058.71,5.47894,-15.2288,-43.7363,4184.92,-5232.79,7702.04,-42.1311,-2.77849,6.02278,4212.47,-5720.05,-3209.82,-23.5161,-46.3224,-70.7541,9170.95,-1084.14,2416.85,-45.9694,-0.113358,-37.1671,-4985.65,-13788.5,-1124.56,22.4585,11.3199,-160.218
1.652,449.833,7035.06,9202.82,38.5745,332.964,26.1861,1360.28,7498.29,-1957.21,61.056,3.30823,-70.4729,1118.53,9193.75,-3022.83,4.25817,-15.8824,-43.759,4198.67,-5172.06,7726.91,-41.5202,-2.52819,5.82354,4120.04,-5627.81,-3062.03,-23.003,-48.1714,-74.1437,9197.05,-1034.84,2454.4,-45.1638,-0.389932,-38.1077,-5145.51,-13681.9,-1171.31,21.7292,10.8907,-160.982
1.653,556.252,6856.43,9146.48,38.1559,336.97,26.156,1200.32,7610.57,-1961.29,60.5647,1.97995,-69.5481,969.383,9217.45,-2986.96,3.03741,-16.5359,-43.7817,4212.43,-5111.33,7751.79,-40.9093,-2.2779,5.62429,4027.6,-5535.56,-2914.23,-22.4899,-50.0205,-77.5333,9223.16,-985.54,2491.94,-44.3581,-0.666505,-39.0484,-5305.37,-13575.3,-1218.06,21.0,10.4614,-161.746
1.654,666.515,6756.89,9076.31,38.2553,340.675,25.8228,1044.91,7744.6,-1907.89,60.8371,0.3634,-68.4174,849.355,9231.52,-2916.57,1.86402,-17.5342,-43.7522,4240.87,-5045.99,7764.94,-40.3333,-2.02947,5.40221,3904.06,-5464.07,-2788.12,-22.0394,-51.73,-80.6344,9232.66,-1083.95,2503.23,-43.262,-0.644882,-39.5865,-5417.55,-13459.4,-1256.08,20.0431,9.92312,-162.385
1.655,778.702,6696.89,8999.23,38.6136,344.23,25.3381,891.757,7889.5,-1825.75,61.4914,-1.39728,-67.1838,743.887,9240.78,-2828.92,0.714321,-18.7049,-43.6966,4276.66,-4978.35,7772.24,-39.7747,-1.78197,5.1687,3764.96,-5402.96,-2672.86,-21.6201,-53.3699,-83.5911,9233.85,-1256.22,2501.41,-42.0206,-0.474161,-39.9234,-5505.88,-13338.8,-1289.73,18.9723,9.33027,-162.961
1.656,890.888,6636.89,8922.14,38.9719,347.786,24.8533,738.608,8034.4,-1743.61,62.1458,-3.15797,-65.9501,638.419,9250.05,-2741.27,-0.435378,-19.8756,-43.641,4312.44,-4910.71,7779.53,-39.2162,-1.53446,4.9352,3625.87,-5341.85,-2557.6,-21.2009,-55.0098,-86.5479,9235.04,-1428.49,2499.59,-40.7792,-0.303439,-40.2602,-5594.22,-13218.3,-1323.38,17.9015,8.73741,-163.538
1.657,1003.07,6576.89,8845.06,39.3302,351.341,24.3686,585.458,8179.3,-1661.46,62.8001,-4.91865,-64.7165,532.95,9259.31,-2653.62,-1.58508,-21.0463,-43.5854,4348.22,-4843.07,7786.82,-38.6576,-1.28696,4.70169,3486.77,-5280.74,-2442.34,-20.7817,-56.6496,-89.5047,9236.22,-1600.75,2497.77,-39.5379,-0.132718,-40.5971,-5682.56,-13097.8,-1357.04,16.8308,8.14456,-164.114
1.658,1105.44,6536.07,8764.55,39.6362,354.84,23.7831,431.434,8294.83,-1584.58,63.5193,-6.78582,-63.5848,430.21,9278.96,-2563.72,-2.6613,-22.3331,-43.5486,4371.52,-4782.25,7795.31,-38.1201,-1.02894,4.45234,3355.0,-5226.25,-2336.2,-20.4933,-58.1778,-92.427,9224.91,-1748.41,2500.35,-38.3749,-0.07186,-40.8662,-5757.04,-12978.7,-1394.23,15.7023,7.53677,-164.63
1.659,1173.45,6562.38,8672.06,39.7595,358.139,22.8445,274.352,8307.57,-1526.1,64.4653,-9.02568,-62.8102,337.018,9334.97,-2465.94,-3.48035,-24.0262,-43.5777,4351.1,-4745.33,7808.0,-37.656,-0.734088,4.14752,3248.87,-5194.96,-2261.95,-20.6625,-59.3152,-95.2286,9169.85,-1809.91,2518.32,-37.4863,-0.395526,-40.8984,-5783.01,-12864.7,-1443.8,14.3719,6.87673,-164.935
1.66,1241.45,6588.7,8579.57,39.8827,361.439,21.9059,117.27,8320.31,-1467.63,65.4114,-11.2655,-62.0356,243.826,9390.98,-2368.16,-4.29941,-25.7192,-43.6069,4330.69,-4708.41,7820.69,-37.1919,-0.439239,3.84269,3142.74,-5163.67,-2187.71,-20.8317,-60.4525,-98.0302,9114.8,-1871.42,2536.29,-36.5976,-0.719192,-40.9306,-5808.98,-12750.7,-1493.37,13.0415,6.21669,-165.239
1.661,1309.45,6615.02,8487.08,40.006,364.739,20.9673,-39.8127,8333.05,-1409.15,66.3575,-13.5054,-61.2609,150.634,9446.99,-2270.37,-5.11846,-27.4123,-43.636,4310.27,-4671.49,7833.37,-36.7279,-0.144389,3.53787,3036.61,-5132.38,-2113.47,-21.0009,-61.5899,-100.832,9059.74,-1932.92,2554.26,-35.709,-1.04286,-40.9628,-5834.95,-12636.7,-1542.94,11.7111,5.55665,-165.544
1.662,1377.46,6641.33,8394.59,40.1292,368.039,20.0287,-196.895,8345.79,-1350.68,67.3036,-15.7453,-60.4863,57.4417,9503.0,-2172.59,-5.93752,-29.1054,-43.6652,4289.86,-4634.56,7846.06,-36.2638,0.15046,3.23304,2930.48,-5101.1,-2039.23,-21.1702,-62.7273,-103.633,9004.68,-1994.43,2572.23,-34.8203,-1.36652,-40.9949,-5860.92,-12522.7,-1592.51,10.3807,4.89661,-165.849
1.663,1440.56,6684.97,8312.57,39.4847,371.108,18.3854,-316.551,8364.14,-1305.9,68.2756,-18.2662,-59.9348,49.2984,9514.98,-2127.15,-6.5499,-30.9408,-43.7332,4222.78,-4625.87,7835.74,-35.8248,0.380649,2.907,2837.38,-5107.91,-1965.01,-21.7551,-63.4512,-106.317,8960.29,-2007.9,2532.15,-34.2698,-2.01566,-41.391,-5834.25,-12421.5,-1611.63,9.1834,4.31682,-166.125
1.664,1502.27,6733.55,8233.55,38.6209,374.11,16.5409,-425.514,8384.1,-1265.05,69.255,-20.8675,-59.4469,65.4548,9514.38,-2096.66,-7.10324,-32.8169,-43.8124,4142.38,-4625.24,7818.85,-35.3929,0.592363,2.57489,2748.01,-5125.6,-1890.8,-22.4587,-64.057,-108.967,8918.96,-2007.64,2475.48,-33.8158,-2.7578,-41.8909,-5792.54,-12324.0,-1622.04,8.02414,3.75996,-166.392
1.665,1563.98,6782.13,8154.52,37.757,377.113,14.6963,-534.478,8404.06,-1224.19,70.2344,-23.4687,-58.9591,81.6112,9513.78,-2066.18,-7.65658,-34.6931,-43.8916,4061.98,-4624.61,7801.96,-34.9611,0.804077,2.24278,2658.64,-5143.3,-1816.59,-23.1624,-64.6628,-111.618,8877.62,-2007.39,2418.81,-33.3619,-3.49993,-42.3909,-5750.83,-12226.4,-1632.46,6.86488,3.2031,-166.66
1.666,1625.69,6830.71,8075.5,36.8932,380.116,12.8518,-643.441,8424.02,-1183.33,71.2137,-26.0699,-58.4713,97.7677,9513.18,-2035.69,-8.20992,-36.5692,-43.9708,3981.58,-4623.98,7785.07,-34.5292,1.01579,1.91067,2569.26,-5160.99,-1742.37,-23.866,-65.2686,-114.268,8836.29,-2007.13,2362.15,-32.9079,-4.24206,-42.8909,-5709.12,-12128.9,-1642.87,5.70562,2.64623,-166.927
1.667,1673.68,6892.34,7984.2,35.8679,383.076,10.7822,-742.05,8469.62,-1137.27,72.304,-28.6695,-58.0266,132.237,9507.58,-1999.12,-8.67042,-38.3191,-44.0598,3910.34,-4623.33,7774.34,-34.1622,1.20283,1.63585,2489.7,-5185.54,-1688.94,-24.6349,-65.6609,-116.944,8809.55,-1969.35,2329.76,-32.4351,-4.96044,-43.3336,-5658.67,-12046.9,-1653.97,4.64937,2.07027,-167.199
1.668,1694.24,6980.08,7868.37,34.5196,385.95,8.26273,-819.952,8566.51,-1080.8,73.6158,-31.2658,-57.6683,203.333,9492.0,-1950.37,-8.94522,-39.8166,-44.1685,3857.42,-4622.63,7775.94,-33.9246,1.34051,1.4756,2429.73,-5223.8,-1677.05,-25.5342,-65.6265,-119.67,8812.0,-1856.5,2345.94,-31.9247,-5.63133,-43.662,-5590.74,-11996.1,-1666.43,3.79911,1.45609,-167.48
1.669,1714.8,7067.81,7752.54,33.1714,388.824,5.74323,-897.855,8663.41,-1024.34,74.9277,-33.8621,-57.31,274.429,9476.41,-1901.62,-9.22003,-41.3141,-44.2773,3804.51,-4621.94,7777.55,-33.6871,1.47819,1.31535,2369.77,-5262.05,-1665.16,-26.4335,-65.5921,-122.397,8814.46,-1743.66,2362.12,-31.4143,-6.30222,-43.9904,-5522.81,-11945.3,-1678.89,2.94885,0.841908,-167.761
1.67,1735.36,7155.55,7636.71,31.8232,391.698,3.22373,-975.757,8760.31,-967.872,76.2396,-36.4584,-56.9516,345.525,9460.82,-1852.88,-9.49483,-42.8116,-44.386,3751.6,-4621.24,7779.15,-33.4496,1.61587,1.1551,2309.8,-5300.31,-1653.28,-27.3328,-65.5577,-125.123,8816.91,-1630.82,2378.3,-30.904,-6.97311,-44.3187,-5454.89,-11894.5,-1691.35,2.0986,0.227728,-168.041
1.671,1755.92,7243.29,7520.88,30.4749,394.572,0.704233,-1053.66,8857.2,-911.408,77.5515,-39.0547,-56.5933,416.621,9445.24,-1804.13,-9.76964,-44.3091,-44.4947,3698.68,-4620.55,7780.75,-33.2121,1.75356,0.99485,2249.84,-5338.56,-1641.39,-28.2321,-65.5233,-127.85,8819.36,-1517.98,2394.48,-30.3936,-7.644,-44.6471,-5386.96,-11843.7,-1703.81,1.24834,-0.386452,-168.322
1.672,1759.73,7320.85,7397.75,28.8236,397.167,-2.06269,-1102.09,8940.57,-894.272,78.3409,-41.6691,-56.5194,511.108,9447.77,-1802.39,-9.79437,-45.5217,-44.5258,3683.18,-4642.27,7799.62,-32.9509,1.82576,0.869801,2242.38,-5366.91,-1649.73,-29.3141,-65.0291,-130.697,8789.71,-1496.56,2365.84,-30.4303,-8.41888,-44.836,-5308.1,-11829.5,-1718.43,0.576419,-1.14319,-168.658
1.673,1761.45,7397.15,7273.71,27.1345,399.727,-4.86054,-1146.83,9022.24,-882.053,79.065,-44.2857,-56.4811,608.518,9452.56,-1806.53,-9.78784,-46.6986,-44.5471,3672.35,-4666.8,7820.65,-32.6868,1.88979,0.749153,2241.49,-5394.02,-1660.59,-30.4189,-64.4774,-133.56,8756.05,-1486.56,2331.6,-30.5355,-9.20676,-45.0074,-5227.88,-11819.8,-1733.31,-0.0732147,-1.91774,-169.002
1.674,1763.17,7473.44,7149.67,25.4453,402.287,-7.65839,-1191.57,9103.92,-869.833,79.7891,-46.9024,-56.4428,705.929,9457.35,-1810.66,-9.78131,-47.8755,-44.5685,3661.52,-4691.33,7841.69,-32.4227,1.95381,0.628504,2240.59,-5421.13,-1671.45,-31.5237,-63.9258,-136.423,8722.39,-1476.57,2297.35,-30.6407,-9.99464,-45.1788,-5147.65,-11810.2,-1748.2,-0.722848,-2.69229,-169.346
1.675,1764.89,7549.74,7025.63,23.7562,404.846,-10.4562,-1236.31,9185.59,-857.614,80.5132,-49.519,-56.4044,803.34,9462.14,-1814.8,-9.77478,-49.0525,-44.5898,3650.69,-4715.87,7862.72,-32.1586,2.01783,0.507855,2239.7,-5448.24,-1682.32,-32.6285,-63.3741,-139.285,8688.73,-1466.58,2263.11,-30.7459,-10.7825,-45.3502,-5067.42,-11800.5,-1763.08,-1.37248,-3.46684,-169.689
1.676,1763.3,7606.43,6914.07,21.9506,407.207,-13.1921,-1247.14,9270.16,-841.066,81.123,-52.0221,-56.482,891.136,9472.7,-1796.03,-9.72412,-49.9994,-44.7119,3625.82,-4719.43,7882.89,-31.9564,2.06484,0.329952,2272.79,-5479.32,-1685.83,-33.5671,-62.7582,-142.195,8662.13,-1437.7,2254.7,-30.9567,-11.3845,-45.5135,-4995.87,-11777.8,-1777.18,-1.94435,-4.13175,-169.99
1.677,1757.58,7638.6,6818.11,19.9995,409.32,-15.8505,-1215.58,9358.32,-819.108,81.5898,-54.3833,-56.7045,966.913,9490.47,-1748.63,-9.61831,-50.6588,-44.9598,3583.39,-4696.79,7901.99,-31.8317,2.0906,0.080481,2348.37,-5515.37,-1680.16,-34.2979,-62.062,-145.162,8644.35,-1385.2,2278.58,-31.2996,-11.754,-45.6666,-4935.15,-11738.7,-1790.31,-2.41901,-4.65961,-170.237
1.678,1751.86,7670.78,6722.15,18.0485,411.432,-18.509,-1184.02,9446.49,-797.15,82.0566,-56.7446,-56.9271,1042.69,9508.24,-1701.24,-9.51249,-51.3182,-45.2078,3540.96,-4674.14,7921.1,-31.7069,2.11635,-0.16899,2423.96,-5551.42,-1674.48,-35.0288,-61.3659,-148.129,8626.57,-1332.7,2302.46,-31.6426,-12.1235,-45.8196,-4874.43,-11699.6,-1803.43,-2.89368,-5.18746,-170.483
1.679,1746.13,7702.96,6626.19,16.0974,413.544,-21.1674,-1152.46,9534.66,-775.192,82.5234,-59.1058,-57.1496,1118.47,9526.0,-1653.84,-9.40668,-51.9777,-45.4557,3498.53,-4651.5,7940.2,-31.5822,2.1421,-0.418461,2499.54,-5587.46,-1668.8,-35.7596,-60.6697,-151.096,8608.79,-1280.2,2326.35,-31.9855,-12.4931,-45.9727,-4813.71,-11660.5,-1816.55,-3.36834,-5.71531,-170.73
1.68,1740.41,7735.14,6530.23,14.1464,415.656,-23.8258,-1120.9,9622.82,-753.234,82.9903,-61.467,-57.3721,1194.24,9543.77,-1606.44,-9.30086,-52.6371,-45.7037,3456.09,-4628.85,7959.3,-31.4575,2.16785,-0.667932,2575.12,-5623.51,-1663.13,-36.4904,-59.9736,-154.064,8591.01,-1227.7,2350.23,-32.3285,-12.8626,-46.1258,-4752.99,-11621.5,-1829.67,-3.843,-6.24317,-170.977
1.681,1706.6,7682.49,6416.82,12.3542,417.188,-26.4208,-1043.8,9644.89,-713.724,83.8133,-63.6449,-57.3899,1260.14,9548.88,-1577.92,-9.28188,-53.3284,-45.8887,3445.62,-4555.27,7989.26,-31.4716,2.13635,-0.737976,2650.41,-5662.04,-1694.9,-36.9153,-59.1183,-156.916,8530.55,-1209.88,2342.65,-32.2476,-13.1119,-45.9765,-4722.1,-11605.7,-1858.67,-3.95707,-6.32242,-171.018
1.682,1672.78,7629.83,6303.42,10.562,418.719,-29.0158,-966.694,9666.95,-674.215,84.6362,-65.8228,-57.4077,1326.03,9553.98,-1549.4,-9.2629,-54.0196,-46.0737,3435.14,-4481.69,8019.21,-31.4858,2.10484,-0.80802,2725.7,-5700.56,-1726.68,-37.3401,-58.2631,-159.768,8470.09,-1192.06,2335.06,-32.1668,-13.3613,-45.8272,-4691.22,-11589.9,-1887.66,-4.07113,-6.40167,-171.06
1.683,1638.97,7577.17,6190.01,8.76986,420.251,-31.6108,-889.592,9689.01,-634.706,85.4592,-68.0007,-57.4255,1391.92,9559.08,-1520.88,-9.24392,-54.7109,-46.2588,3424.67,-4408.11,8049.17,-31.5,2.07333,-0.878064,2800.99,-5739.09,-1758.45,-37.765,-57.4079,-162.62,8409.63,-1174.24,2327.48,-32.086,-13.6106,-45.6779,-4660.33,-11574.1,-1916.65,-4.1852,-6.48092,-171.101
1.684,1605.15,7524.51,6076.61,6.97768,421.783,-34.2058,-812.49,9711.07,-595.196,86.2822,-70.1786,-57.4433,1457.82,9564.18,-1492.36,-9.22493,-55.4022,-46.4438,3414.19,-4334.53,8079.12,-31.5142,2.04182,-0.948109,2876.28,-5777.61,-1790.23,-38.1898,-56.5526,-165.471,8349.17,-1156.42,2319.89,-32.0051,-13.86,-45.5286,-4629.44,-11558.4,-1945.64,-4.29926,-6.56017,-171.143
1.685,1537.04,7431.86,5968.11,5.33598,422.792,-36.6031,-702.465,9749.18,-580.646,86.8953,-72.0767,-57.4162,1512.41,9570.04,-1474.43,-9.28289,-55.9324,-46.6709,3391.15,-4265.6,8108.78,-31.6213,2.00239,-1.03304,2968.09,-5806.47,-1792.0,-38.5026,-55.7623,-168.48,8323.7,-1124.09,2281.94,-31.7992,-13.8815,-45.5367,-4586.71,-11537.3,-1973.89,-4.45974,-6.37195,-171.142
1.686,1441.48,7307.21,5863.54,3.81466,423.382,-38.8422,-566.102,9800.12,-586.063,87.3404,-73.7508,-57.3531,1557.95,9576.5,-1464.96,-9.4024,-56.3338,-46.9316,3358.05,-4200.38,8138.21,-31.8029,1.95662,-1.12989,3073.11,-5827.59,-1769.79,-38.7256,-55.024,-171.613,8326.22,-1080.15,2219.7,-31.4931,-13.7208,-45.6707,-4534.51,-11512.0,-2001.54,-4.65736,-5.96977,-171.108
1.687,1345.92,7182.55,5758.96,2.29333,423.973,-41.0814,-429.738,9851.06,-591.481,87.7855,-75.4249,-57.2899,1603.5,9582.95,-1455.49,-9.52191,-56.7352,-47.1923,3324.95,-4135.16,8167.63,-31.9845,1.91085,-1.22674,3178.14,-5848.72,-1747.57,-38.9486,-54.2856,-174.747,8328.74,-1036.22,2157.46,-31.187,-13.5601,-45.8047,-4482.31,-11486.8,-2029.2,-4.85498,-5.56758,-171.073
1.688,1250.36,7057.9,5654.39,0.772008,424.564,-43.3205,-293.375,9902.0,-596.898,88.2306,-77.099,-57.2268,1649.05,9589.41,-1446.02,-9.64141,-57.1367,-47.453,3291.85,-4069.94,8197.05,-32.166,1.86508,-1.32358,3283.17,-5869.84,-1725.35,-39.1717,-53.5473,-177.88,8331.26,-992.283,2095.22,-30.8809,-13.3993,-45.9387,-4430.11,-11461.5,-2056.85,-5.0526,-5.16539,-171.039
1.689,1155.02,6931.9,5552.45,-0.706453,425.067,-45.5415,-151.555,9955.55,-603.854,88.6043,-78.6939,-57.1747,1693.56,9600.0,-1434.4,-9.75554,-57.5127,-47.7382,3261.05,-4005.22,8222.37,-32.3587,1.82717,-1.42219,3382.77,-5884.26,-1703.86,-39.3706,-52.7923,-181.016,8328.56,-945.934,2047.4,-30.6693,-13.2805,-46.0378,-4380.09,-11437.6,-2083.47,-5.2477,-4.71212,-170.999
1.69,1061.4,6795.08,5471.65,-1.84201,424.864,-47.6179,33.9235,10029.9,-623.119,88.4068,-79.6558,-57.2103,1729.79,9643.64,-1405.53,-9.82658,-57.6857,-48.2184,3248.74,-3944.5,8214.82,-32.6405,1.85215,-1.53485,3438.99,-5845.04,-1688.2,-39.3764,-51.9041,-184.165,8284.16,-880.268,2115.0,-31.2137,-13.4963,-45.8576,-4347.56,-11424.8,-2101.82,-5.4227,-3.85021,-170.916
1.691,967.776,6658.26,5390.85,-2.97756,424.662,-49.6942,219.402,10104.3,-642.383,88.2092,-80.6177,-57.246,1766.03,9687.29,-1376.66,-9.89763,-57.8587,-48.6986,3236.42,-3883.77,8207.27,-32.9223,1.87714,-1.64752,3495.22,-5805.81,-1672.54,-39.3822,-51.016,-187.315,8239.76,-814.603,2182.6,-31.7581,-13.7122,-45.6774,-4315.04,-11412.0,-2120.16,-5.5977,-2.98829,-170.832
1.692,874.153,6521.44,5310.05,-4.11312,424.459,-51.7705,404.88,10178.6,-661.648,88.0117,-81.5796,-57.2816,1802.26,9730.94,-1347.8,-9.96868,-58.0317,-49.1788,3224.1,-3823.04,8199.71,-33.2041,1.90213,-1.76019,3551.45,-5766.59,-1656.88,-39.3881,-50.1278,-190.465,8195.35,-748.938,2250.19,-32.3026,-13.9281,-45.4972,-4282.51,-11399.2,-2138.51,-5.7727,-2.12638,-170.749
1.693,780.53,6384.62,5229.25,-5.24868,424.256,-53.8468,590.358,10253.0,-680.913,87.8141,-82.5415,-57.3173,1838.5,9774.59,-1318.93,-10.0397,-58.2047,-49.659,3211.78,-3762.31,8192.16,-33.4859,1.92711,-1.87285,3607.67,-5727.37,-1641.22,-39.3939,-49.2397,-193.614,8150.95,-683.272,2317.79,-32.847,-14.144,-45.317,-4249.98,-11386.3,-2156.86,-5.9477,-1.26446,-170.666
1.694,725.21,6274.12,5178.09,-6.12483,423.528,-55.8378,763.378,10296.4,-689.004,87.3102,-83.0155,-57.3427,1860.26,9788.18,-1309.0,-9.98207,-57.9723,-50.0339,3209.42,-3715.07,8194.24,-33.7679,1.99555,-2.05535,3637.1,-5703.98,-1610.64,-39.2215,-48.3013,-196.64,8137.6,-611.858,2308.43,-33.1324,-14.2092,-45.144,-4222.78,-11355.8,-2160.9,-5.94737,-0.0391503,-170.559
1.695,689.041,6176.79,5141.76,-6.8713,422.538,-57.7862,930.169,10324.5,-691.509,86.6531,-83.2456,-57.3631,1874.78,9786.74,-1308.53,-9.86007,-57.5373,-50.3562,3212.04,-3674.56,8201.15,-34.05,2.08571,-2.27276,3653.13,-5688.5,-1572.6,-38.96,-47.3379,-199.604,8139.78,-537.569,2260.6,-33.2885,-14.1991,-44.9746,-4198.24,-11316.3,-2157.79,-5.85939,1.36786,-170.439
1.696,652.872,6079.45,5105.42,-7.61776,421.547,-59.7345,1096.96,10352.5,-694.013,85.996,-83.4758,-57.3835,1889.31,9785.3,-1308.06,-9.73808,-57.1022,-50.6785,3214.66,-3634.04,8208.05,-34.3322,2.17587,-2.49018,3669.16,-5673.02,-1534.56,-38.6984,-46.3745,-202.568,8141.95,-463.281,2212.77,-33.4445,-14.1889,-44.8053,-4173.7,-11276.9,-2154.68,-5.7714,2.77487,-170.32
1.697,616.703,5982.11,5069.08,-8.36422,420.556,-61.6828,1263.75,10380.5,-696.517,85.3389,-83.7059,-57.404,1903.83,9783.86,-1307.6,-9.61608,-56.6672,-51.0008,3217.28,-3593.53,8214.95,-34.6143,2.26602,-2.70759,3685.19,-5657.54,-1496.52,-38.4369,-45.411,-205.532,8144.13,-388.992,2164.93,-33.6005,-14.1788,-44.6359,-4149.15,-11237.5,-2151.56,-5.68342,4.18188,-170.2
1.698,586.329,5885.68,5036.96,-8.94936,419.442,-63.6065,1425.7,10396.8,-696.189,84.6973,-83.8572,-57.4132,1916.89,9778.19,-1304.83,-9.53,-56.2478,-51.3596,3217.56,-3563.17,8217.59,-34.9095,2.30375,-2.90779,3694.4,-5647.01,-1467.65,-38.2862,-44.3994,-208.417,8128.86,-319.815,2129.67,-33.8558,-14.188,-44.4554,-4129.41,-11204.3,-2166.88,-5.70679,5.69298,-170.051
1.699,576.241,5792.46,5019.58,-8.96989,417.896,-65.444,1570.69,10371.6,-685.949,84.1096,-83.7327,-57.3836,1924.84,9757.71,-1294.01,-9.56967,-55.8832,-51.8461,3209.67,-3568.32,8205.33,-35.2503,2.15796,-3.04776,3679.76,-5653.78,-1470.86,-38.5236,-43.2191,-211.027,8052.51,-268.529,2138.39,-34.4587,-14.2651,-44.236,-4126.49,-11193.3,-2246.71,-6.11992,7.56839,-169.798
1.7,566.152,5699.24,5002.21,-8.99042,416.351,-67.2814,1715.69,10346.5,-675.708,83.522,-83.6082,-57.3539,1932.78,9737.24,-1283.19,-9.60935,-55.5186,-52.3327,3201.77,-3573.47,8193.08,-35.591,2.01217,-3.18772,3665.11,-5660.56,-1474.07,-38.7609,-42.0388,-213.637,7976.16,-217.244,2147.1,-35.0616,-14.3422,-44.0166,-4123.56,-11182.3,-2326.54,-6.53304,9.4438,-169.545
1.701,556.063,5606.01,4984.83,-9.01094,414.805,-69.1189,1860.68,10321.4,-665.468,82.9343,-83.4836,-57.3243,1940.72,9716.76,-1272.37,-9.64902,-55.154,-52.8192,3193.88,-3578.63,8180.82,-35.9318,1.86638,-3.32769,3650.47,-5667.34,-1477.29,-38.9982,-40.8585,-216.247,7899.81,-165.958,2155.82,-35.6644,-14.4193,-43.7971,-4120.64,-11171.2,-2406.38,-6.94617,11.3192,-169.292
1.702,545.975,5512.79,4967.45,-9.03147,413.259,-70.9564,2005.67,10296.3,-655.227,82.3467,-83.3591,-57.2946,1948.66,9696.28,-1261.55,-9.68869,-54.7895,-53.3057,3185.99,-3583.78,8168.56,-36.2725,1.72059,-3.46765,3635.83,-5674.12,-1480.5,-39.2355,-39.6782,-218.857,7823.46,-114.672,2164.54,-36.2673,-14.4964,-43.5777,-4117.71,-11160.2,-2486.21,-7.3593,13.1946,-169.039
1.703,547.032,5419.56,4971.8,-8.50627,411.387,-72.8785,2138.61,10225.5,-665.396,81.9187,-82.9191,-57.4891,1982.44,9691.35,-1255.39,-9.59755,-54.1449,-53.8586,3172.61,-3602.91,8166.49,-36.5156,1.66599,-3.59253,3587.05,-5666.78,-1467.0,-39.5789,-38.4663,-221.372,7788.45,-64.8816,2157.41,-37.1709,-14.4638,-43.6292,-4116.25,-11132.6,-2483.09,-8.2973,15.1754,-168.648
1.704,551.274,5326.33,4982.36,-7.82514,409.422,-74.8247,2268.1,10141.6,-681.397,81.5364,-82.3891,-57.7476,2023.59,9690.85,-1250.57,-9.46904,-53.4204,-54.4304,3157.67,-3626.04,8167.33,-36.7308,1.63744,-3.7131,3528.51,-5655.41,-1448.72,-39.9527,-37.2454,-223.861,7765.26,-15.5184,2145.76,-38.1604,-14.3998,-43.7581,-4115.22,-11100.4,-2456.26,-9.38525,17.1863,-168.217
1.705,555.516,5233.1,4992.91,-7.14402,407.457,-76.771,2397.59,10057.7,-697.398,81.1541,-81.859,-58.0061,2064.74,9690.36,-1245.74,-9.34053,-52.6959,-55.0022,3142.73,-3649.17,8168.17,-36.9461,1.6089,-3.83366,3469.98,-5644.04,-1430.45,-40.3265,-36.0244,-226.35,7742.06,33.8448,2134.11,-39.1498,-14.3359,-43.8871,-4114.18,-11068.2,-2429.44,-10.4732,19.1973,-167.787
1.706,559.758,5139.87,5003.47,-6.46289,405.492,-78.7173,2527.08,9973.88,-713.399,80.7718,-81.3289,-58.2646,2105.89,9689.87,-1240.92,-9.21202,-51.9714,-55.574,3127.78,-3672.3,8169.0,-37.1613,1.58035,-3.95423,3411.44,-5632.67,-1412.17,-40.7003,-34.8035,-228.838,7718.87,83.208,2122.45,-40.1393,-14.2719,-44.016,-4113.14,-11035.9,-2402.62,-11.5612,21.2082,-167.356
1.707,585.284,5046.53,5013.99,-5.5532,403.536,-80.6892,2646.32,9889.32,-736.298,80.1227,-80.7405,-58.5076,2142.48,9681.79,-1246.19,-9.02588,-50.9967,-56.1728,3119.35,-3707.25,8163.93,-37.2736,1.52901,-4.07795,3316.14,-5636.87,-1405.54,-41.1082,-33.6666,-231.199,7660.64,119.886,2112.18,-41.1705,-14.1059,-44.2795,-4126.25,-10986.1,-2334.4,-12.1458,23.1749,-166.976
1.708,653.379,4952.95,5024.43,-4.1864,401.599,-82.7125,2745.08,9803.35,-772.993,78.9404,-80.0353,-58.7196,2169.92,9658.54,-1271.67,-8.72449,-49.5217,-56.8253,3123.93,-3765.84,8147.03,-37.1802,1.43209,-4.20798,3147.29,-5672.2,-1422.2,-41.5841,-32.6979,-233.303,7532.33,131.194,2104.68,-42.2853,-13.7356,-44.8124,-4167.64,-10901.1,-2183.41,-11.7238,25.0531,-166.696
1.709,721.473,4859.37,5034.87,-2.8196,399.661,-84.7358,2843.83,9717.39,-809.688,77.758,-79.3302,-58.9316,2197.36,9635.3,-1297.14,-8.42309,-48.0467,-57.4779,3128.51,-3824.43,8130.13,-37.0867,1.33517,-4.33801,2978.44,-5707.54,-1438.85,-42.06,-31.7291,-235.406,7404.02,142.502,2097.19,-43.4001,-13.3653,-45.3452,-4209.02,-10816.0,-2032.41,-11.3017,26.9313,-166.415
1.71,789.567,4765.8,5045.31,-1.4528,397.723,-86.7592,2942.59,9631.42,-846.383,76.5756,-78.625,-59.1435,2224.81,9612.05,-1322.62,-8.12169,-46.5717,-58.1305,3133.1,-3883.02,8113.23,-36.9933,1.23825,-4.46805,2809.6,-5742.88,-1455.51,-42.5359,-30.7604,-237.51,7275.71,153.81,2089.69,-44.5149,-12.9951,-45.878,-4250.41,-10731.0,-1881.41,-10.8797,28.8095,-166.135
1.711,857.662,4672.22,5055.75,-0.0859959,395.786,-88.7825,3041.35,9545.45,-883.079,75.3932,-77.9199,-59.3555,2252.25,9588.81,-1348.1,-7.82029,-45.0967,-58.7831,3137.68,-3941.61,8096.33,-36.8998,1.14133,-4.59808,2640.75,-5778.22,-1472.17,-43.0118,-29.7917,-239.614,7147.4,165.118,2082.19,-45.6297,-12.6248,-46.4108,-4291.8,-10646.0,-1730.41,-10.4576,30.6877,-165.855
1.712,953.336,4605.11,5090.45,1.87284,393.697,-90.7547,3117.96,9492.98,-934.32,74.1236,-77.0741,-59.5599,2283.69,9582.17,-1386.62,-7.27625,-43.5722,-59.0582,3151.56,-4027.43,8072.37,-36.7889,0.990835,-4.74172,2443.23,-5824.47,-1513.18,-43.7114,-29.3098,-241.797,7189.91,237.198,2064.82,-45.274,-12.6427,-46.0217,-4325.45,-10566.4,-1749.12,-9.77998,32.3116,-165.799
1.713,1052.46,4541.3,5128.17,3.90567,391.59,-92.7206,3191.8,9444.71,-987.379,72.8431,-76.2107,-59.7634,2315.63,9577.61,-1426.78,-6.70187,-42.0415,-59.2862,3166.6,-4116.65,8047.53,-36.6759,0.833645,-4.88706,2242.13,-5872.09,-1557.24,-44.439,-28.8889,-243.99,7253.77,316.873,2046.22,-44.7344,-12.7092,-45.5173,-4358.13,-10487.5,-1789.04,-9.07037,33.9037,-165.772
1.714,1151.58,4477.49,5165.9,5.9385,389.483,-94.6864,3265.64,9396.43,-1040.44,71.5626,-75.3473,-59.9669,2347.56,9573.05,-1466.94,-6.12749,-40.5109,-59.5142,3181.64,-4205.88,8022.69,-36.5629,0.676454,-5.0324,2041.03,-5919.7,-1601.3,-45.1666,-28.4679,-246.184,7317.63,396.549,2027.61,-44.1949,-12.7756,-45.013,-4390.82,-10408.6,-1828.97,-8.36075,35.4959,-165.745
1.715,1250.7,4413.69,5203.63,7.97134,387.376,-96.6522,3339.48,9348.16,-1093.5,70.282,-74.4839,-60.1705,2379.5,9568.49,-1507.1,-5.55311,-38.9802,-59.7421,3196.68,-4295.1,7997.85,-36.4499,0.519263,-5.17774,1839.92,-5967.32,-1645.36,-45.8942,-28.0469,-248.377,7381.49,476.225,2009.01,-43.6554,-12.842,-44.5086,-4423.5,-10329.7,-1868.89,-7.65113,37.088,-165.718
1.716,1353.36,4383.1,5248.37,10.1448,385.354,-98.5783,3395.39,9312.14,-1170.96,69.0306,-73.5889,-60.3083,2402.34,9533.13,-1574.23,-5.07427,-37.4392,-60.0194,3220.84,-4401.2,7974.3,-36.3927,0.399866,-5.28217,1626.6,-6030.76,-1677.36,-46.5402,-27.8567,-250.493,7424.26,466.373,1992.76,-43.3689,-13.0366,-43.753,-4446.09,-10247.0,-1903.5,-7.28279,38.4566,-165.642
1.717,1460.44,4394.05,5301.87,12.4941,383.437,-100.455,3428.91,9291.44,-1278.93,67.8155,-72.6542,-60.3642,2413.83,9459.26,-1675.05,-4.71484,-35.8854,-60.3581,3256.41,-4528.41,7952.35,-36.4054,0.327712,-5.33546,1398.01,-6113.99,-1694.28,-47.084,-27.955,-252.514,7440.67,344.611,1979.45,-43.3986,-13.3914,-42.6832,-4456.06,-10159.3,-1931.46,-7.34105,39.5457,-165.506
1.718,1567.53,4404.99,5355.37,14.8433,381.521,-102.331,3462.43,9270.75,-1386.91,66.6005,-71.7196,-60.4201,2425.31,9385.39,-1775.87,-4.35542,-34.3315,-60.6969,3291.98,-4655.61,7930.41,-36.4181,0.255559,-5.38875,1169.42,-6197.21,-1711.2,-47.6278,-28.0533,-254.535,7457.07,222.849,1966.15,-43.4284,-13.7462,-41.6134,-4466.04,-10071.7,-1959.43,-7.39931,40.6348,-165.369
1.719,1674.61,4415.94,5408.87,17.1926,379.605,-104.207,3495.94,9250.06,-1494.88,65.3854,-70.785,-60.476,2436.79,9311.53,-1876.69,-3.996,-32.7776,-61.0356,3327.55,-4782.81,7908.46,-36.4308,0.183405,-5.44205,940.822,-6280.44,-1728.12,-48.1716,-28.1515,-256.555,7473.48,101.087,1952.84,-43.4581,-14.101,-40.5436,-4476.01,-9984.08,-1987.39,-7.45757,41.7238,-165.233
1.72,1781.69,4426.89,5462.37,19.5418,377.688,-106.083,3529.46,9229.36,-1602.85,64.1703,-69.8504,-60.5318,2448.27,9237.66,-1977.51,-3.63658,-31.2238,-61.3743,3363.12,-4910.02,7886.51,-36.4434,0.111251,-5.49534,712.228,-6363.67,-1745.04,-48.7153,-28.2498,-258.576,7489.88,-20.6747,1939.53,-43.4879,-14.4558,-39.4739,-4485.98,-9896.46,-2015.35,-7.51583,42.8129,-165.096
1.721,1901.56,4524.92,5498.49,21.9273,376.097,-107.625,3574.2,9203.47,-1667.0,62.8261,-69.0868,-60.4585,2396.63,9240.63,-1998.31,-3.56041,-29.971,-61.5929,3402.58,-4990.54,7843.69,-36.1114,0.0268011,-5.53573,564.878,-6474.94,-1736.64,-49.354,-28.8389,-260.591,7536.59,-50.0809,1874.34,-42.897,-14.9634,-37.936,-4469.74,-9849.63,-2055.06,-8.26282,43.6733,-164.75
1.722,2021.43,4622.96,5534.6,24.3128,374.505,-109.166,3618.95,9177.57,-1731.15,61.4819,-68.3232,-60.3852,2345.0,9243.6,-2019.12,-3.48425,-28.7183,-61.8115,3442.03,-5071.07,7800.87,-35.7793,-0.0576488,-5.57612,417.528,-6586.21,-1728.24,-49.9927,-29.4281,-262.606,7583.29,-79.4871,1809.14,-42.3062,-15.471,-36.3982,-4453.5,-9802.81,-2094.77,-9.0098,44.5336,-164.403
1.723,2141.29,4721.0,5570.72,26.6983,372.914,-110.708,3663.69,9151.67,-1795.29,60.1376,-67.5596,-60.3119,2293.36,9246.57,-2039.92,-3.40808,-27.4656,-62.0301,3481.48,-5151.59,7758.05,-35.4472,-0.142099,-5.61652,270.177,-6697.48,-1719.84,-50.6314,-30.0172,-264.62,7629.99,-108.893,1743.94,-41.7154,-15.9786,-34.8604,-4437.25,-9756.0,-2134.48,-9.75679,45.3939,-164.056
1.724,2261.16,4819.04,5606.84,29.0837,371.322,-112.249,3708.43,9125.78,-1859.44,58.7934,-66.7961,-60.2386,2241.72,9249.54,-2060.72,-3.33191,-26.2129,-62.2486,3520.93,-5232.12,7715.23,-35.1152,-0.226549,-5.65691,122.827,-6808.75,-1711.44,-51.2701,-30.6063,-266.635,7676.69,-138.299,1678.75,-41.1246,-16.4862,-33.3225,-4421.01,-9709.17,-2174.18,-10.5038,46.2543,-163.71
1.725,2395.13,4936.78,5647.62,31.3041,369.901,-113.762,3740.21,9113.2,-1909.01,57.762,-66.0232,-60.0816,2186.78,9252.22,-2097.26,-3.42454,-25.1744,-62.6388,3557.77,-5284.82,7658.68,-34.618,-0.300059,-5.66799,0.260734,-6917.56,-1718.57,-52.0543,-31.4341,-268.693,7671.24,-126.801,1626.01,-40.0749,-16.7976,-32.5852,-4383.9,-9676.27,-2183.79,-11.1931,47.1966,-163.403
1.726,2540.38,5070.27,5692.14,33.3923,368.616,-115.254,3761.62,9111.29,-1946.91,56.981,-65.2428,-59.8575,2129.18,9254.67,-2146.39,-3.65219,-24.3071,-63.1661,3592.5,-5315.27,7591.14,-33.9888,-0.364817,-5.65562,-102.479,-7024.38,-1738.11,-52.9549,-32.4528,-270.785,7624.07,-82.5781,1583.25,-38.6581,-16.9519,-32.4882,-4330.08,-9654.5,-2169.31,-11.8363,48.2045,-163.129
1.727,2685.64,5203.77,5736.66,35.4805,367.332,-116.745,3783.03,9109.38,-1984.81,56.1999,-64.4625,-59.6335,2071.58,9257.13,-2195.53,-3.87985,-23.4398,-63.6935,3627.24,-5345.71,7523.61,-33.3596,-0.429575,-5.64325,-205.218,-7131.2,-1757.66,-53.8556,-33.4715,-272.877,7576.91,-38.3555,1540.48,-37.2414,-17.1062,-32.3912,-4276.27,-9632.73,-2154.84,-12.4795,49.2124,-162.855
1.728,2830.89,5337.27,5781.19,37.5687,366.047,-118.237,3804.44,9107.46,-2022.71,55.4189,-63.6821,-59.4095,2013.98,9259.58,-2244.66,-4.10751,-22.5726,-64.2208,3661.98,-5376.15,7456.07,-32.7304,-0.494334,-5.63088,-307.957,-7238.03,-1777.21,-54.7562,-34.4902,-274.969,7529.74,5.86709,1497.72,-35.8246,-17.2605,-32.2942,-4222.45,-9610.96,-2140.37,-13.1226,50.2203,-162.581
1.729,2977.55,5472.24,5830.07,39.5758,364.82,-119.738,3821.16,9102.19,-2068.89,54.6692,-62.8005,-59.2014,1955.8,9265.94,-2291.14,-4.35886,-21.7519,-64.7306,3692.22,-5404.49,7393.35,-32.0734,-0.556297,-5.63111,-404.221,-7347.7,-1804.22,-55.6813,-35.4945,-277.051,7481.58,56.2359,1463.44,-34.5444,-17.4453,-32.1309,-4170.43,-9585.79,-2117.44,-13.6133,51.2212,-162.333
1.73,3135.47,5619.02,5913.83,40.9343,364.05,-121.324,3800.34,9070.06,-2181.22,54.1701,-61.1086,-59.1203,1892.97,9303.59,-2316.43,-4.7997,-21.3036,-65.0997,3686.5,-5415.96,7369.15,-31.1939,-0.5959,-5.73216,-448.681,-7480.21,-1890.94,-56.8015,-36.3836,-279.048,7425.47,155.774,1497.02,-34.3566,-17.8739,-31.4371,-4132.76,-9533.38,-2026.87,-12.8837,52.166,-162.293
1.731,3293.39,5765.8,5997.59,42.2927,363.281,-122.91,3779.52,9037.92,-2293.54,53.671,-59.4166,-59.0393,1830.13,9341.24,-2341.72,-5.24055,-20.8553,-65.4689,3680.79,-5427.42,7344.95,-30.3144,-0.635503,-5.83321,-493.141,-7612.72,-1977.66,-57.9217,-37.2728,-281.045,7369.37,255.312,1530.61,-34.1688,-18.3024,-30.7433,-4095.08,-9480.98,-1936.3,-12.1541,53.1107,-162.254
1.732,3451.31,5912.57,6081.35,43.6512,362.512,-124.495,3758.7,9005.79,-2405.87,53.172,-57.7247,-58.9582,1767.3,9378.89,-2367.01,-5.6814,-20.4071,-65.838,3675.07,-5438.89,7320.74,-29.4349,-0.675107,-5.93426,-537.6,-7745.23,-2064.39,-59.042,-38.162,-283.042,7313.26,354.85,1564.2,-33.981,-18.7309,-30.0494,-4057.41,-9428.58,-1845.73,-11.4245,54.0555,-162.215
1.733,3609.23,6059.35,6165.12,45.0097,361.742,-126.081,3737.88,8973.65,-2518.2,52.6729,-56.0327,-58.8772,1704.46,9416.53,-2392.29,-6.12225,-19.9588,-66.2071,3669.35,-5450.35,7296.54,-28.5554,-0.71471,-6.03531,-582.06,-7877.74,-2151.11,-60.1622,-39.0511,-285.039,7257.16,454.388,1597.79,-33.7932,-19.1595,-29.3556,-4019.73,-9376.17,-1755.16,-10.695,55.0002,-162.175
1.734,3760.62,6187.99,6232.12,45.9998,361.224,-127.654,3732.74,8975.88,-2604.13,52.0917,-54.2321,-58.7956,1674.91,9423.54,-2419.44,-6.53203,-19.5875,-66.6189,3631.07,-5498.0,7291.31,-27.5859,-0.851447,-6.17424,-622.041,-7968.47,-2209.22,-61.3418,-39.7994,-286.897,7244.37,459.745,1594.97,-34.015,-19.3976,-28.7354,-3994.04,-9308.76,-1694.96,-10.3079,55.7141,-161.911
1.735,3908.73,6307.56,6290.75,46.8057,360.832,-129.221,3735.45,8995.28,-2676.85,51.4693,-52.377,-58.7138,1662.01,9415.22,-2447.51,-6.92628,-19.2547,-67.0519,3576.5,-5563.72,7295.57,-26.5715,-1.03675,-6.33211,-659.781,-8038.3,-2253.03,-62.5511,-40.4772,-288.684,7253.25,418.013,1573.94,-34.4417,-19.5404,-28.152,-3974.33,-9233.84,-1649.95,-10.0921,56.3127,-161.534
1.736,4056.85,6427.13,6349.38,47.6116,360.439,-130.788,3738.16,9014.68,-2749.57,50.8469,-50.522,-58.6319,1649.1,9406.9,-2475.58,-7.32053,-18.922,-67.4849,3521.93,-5629.45,7299.83,-25.557,-1.22205,-6.48998,-697.522,-8108.14,-2296.83,-63.7604,-41.1551,-290.471,7262.12,376.28,1552.92,-34.8684,-19.6833,-27.5686,-3954.62,-9158.92,-1604.94,-9.87637,56.9113,-161.158
1.737,4204.97,6546.7,6408.01,48.4176,360.047,-132.355,3740.86,9034.08,-2822.3,50.2245,-48.667,-58.5501,1636.19,9398.58,-2503.65,-7.71478,-18.5892,-67.9179,3467.36,-5695.18,7304.09,-24.5425,-1.40736,-6.64785,-735.263,-8177.97,-2340.63,-64.9696,-41.8329,-292.258,7271.0,334.547,1531.89,-35.295,-19.8262,-26.9852,-3934.91,-9084.01,-1559.94,-9.6606,57.5099,-160.781
1.738,4354.62,6664.08,6458.55,49.1688,359.705,-133.914,3730.74,9047.65,-2881.44,49.639,-46.8131,-58.4479,1628.44,9392.08,-2531.59,-8.09645,-18.2898,-68.3241,3422.21,-5758.28,7303.75,-23.5482,-1.56549,-6.82189,-768.405,-8254.67,-2388.39,-66.1647,-42.4399,-293.996,7284.81,292.095,1524.16,-35.6119,-19.9662,-26.4231,-3919.04,-9011.0,-1507.12,-9.38003,58.073,-160.336
1.739,4509.66,6773.8,6480.77,49.7287,359.54,-135.447,3675.71,9040.8,-2893.06,49.1822,-44.9634,-58.2744,1638.78,9391.95,-2559.05,-8.43409,-18.1075,-68.6364,3410.01,-5812.18,7287.29,-22.6242,-1.62854,-7.05253,-785.454,-8355.43,-2449.99,-67.3102,-42.799,-295.56,7315.93,247.124,1562.94,-35.5444,-20.0965,-25.936,-3916.59,-8944.7,-1426.96,-8.87265,58.5119,-159.652
1.74,4664.7,6883.52,6502.99,50.2885,359.374,-136.98,3620.67,9033.94,-2904.68,48.7255,-43.1137,-58.1008,1649.11,9391.82,-2586.51,-8.77172,-17.9252,-68.9487,3397.82,-5866.07,7270.83,-21.7003,-1.69158,-7.28318,-802.502,-8456.18,-2511.58,-68.4556,-43.1581,-297.124,7347.04,202.153,1601.73,-35.4768,-20.2267,-25.4488,-3914.15,-8878.4,-1346.8,-8.36528,58.9508,-158.968
1.741,4819.73,6993.24,6525.22,50.8484,359.208,-138.512,3565.64,9027.09,-2916.3,48.2688,-41.264,-57.9273,1659.44,9391.7,-2613.97,-9.10936,-17.7428,-69.261,3385.62,-5919.97,7254.38,-20.7763,-1.75463,-7.51382,-819.551,-8556.93,-2573.18,-69.601,-43.5172,-298.687,7378.15,157.182,1640.51,-35.4093,-20.3569,-24.9616,-3911.7,-8812.1,-1266.64,-7.85791,59.3897,-158.284
1.742,4974.77,7102.96,6547.44,51.4083,359.043,-140.045,3510.61,9020.24,-2927.92,47.812,-39.4142,-57.7537,1669.77,9391.57,-2641.43,-9.44699,-17.5605,-69.5733,3373.43,-5973.87,7237.92,-19.8524,-1.81767,-7.74446,-836.599,-8657.68,-2634.77,-70.7464,-43.8762,-300.251,7409.27,112.211,1679.3,-35.3418,-20.4871,-24.4744,-3909.25,-8745.79,-1186.48,-7.35053,59.8286,-157.599
1.743,5101.22,7168.54,6600.57,51.9622,358.961,-141.531,3468.76,9007.72,-2952.11,47.9574,-37.5428,-57.444,1643.82,9369.32,-2631.97,-9.89095,-17.5462,-69.7588,3392.66,-5983.82,7224.38,-18.9314,-1.87038,-8.04372,-854.367,-8754.65,-2676.7,-72.132,-43.9175,-301.718,7445.02,44.2412,1670.55,-35.0639,-20.4925,-24.0492,-3929.23,-8686.81,-1172.73,-6.91866,60.1869,-156.654
1.744,5219.49,7221.52,6662.53,52.5143,358.903,-143.005,3430.67,8993.59,-2979.88,48.2749,-35.6651,-57.0952,1607.51,9340.74,-2611.96,-10.3653,-17.58,-69.9081,3420.86,-5981.23,7211.68,-18.0114,-1.92013,-8.36258,-872.341,-8850.53,-2713.01,-73.5861,-43.868,-303.156,7482.09,-30.2998,1648.23,-34.7258,-20.4623,-23.6417,-3955.63,-8629.92,-1177.95,-6.50837,60.5222,-155.633
1.745,5337.77,7274.49,6724.49,53.0665,358.845,-144.478,3392.59,8979.46,-3007.66,48.5923,-33.7875,-56.7465,1571.19,9312.17,-2591.95,-10.8396,-17.6137,-70.0574,3449.07,-5978.63,7198.98,-17.0913,-1.96988,-8.68144,-890.314,-8946.41,-2749.32,-75.0403,-43.8184,-304.595,7519.17,-104.841,1625.9,-34.3877,-20.432,-23.2342,-3982.02,-8573.02,-1183.17,-6.09807,60.8575,-154.613
1.746,5456.04,7327.47,6786.45,53.6187,358.788,-145.952,3354.51,8965.32,-3035.44,48.9098,-31.9098,-56.3978,1534.88,9283.59,-2571.94,-11.314,-17.6474,-70.2066,3477.27,-5976.03,7186.28,-16.1712,-2.01964,-9.0003,-908.287,-9042.29,-2785.63,-76.4944,-43.7689,-306.034,7556.24,-179.382,1603.57,-34.0496,-20.4018,-22.8267,-4008.41,-8516.13,-1188.38,-5.68778,61.1928,-153.593
1.747,5574.53,7368.11,6854.44,54.229,358.691,-147.328,3303.84,8937.52,-3046.25,49.1758,-30.1645,-56.0808,1494.83,9265.49,-2568.64,-11.7805,-17.713,-70.3603,3501.48,-5965.38,7174.47,-15.2143,-2.04104,-9.29219,-914.12,-9132.86,-2825.89,-77.8921,-43.5426,-307.427,7588.25,-231.796,1576.42,-33.746,-20.4446,-22.4396,-4028.71,-8471.13,-1168.86,-5.29773,61.5262,-152.627
1.748,5693.46,7384.09,6934.5,54.9554,358.518,-148.51,3228.01,8882.37,-3023.12,49.3389,-28.6837,-55.8272,1447.32,9268.32,-2598.75,-12.2315,-17.8423,-70.5229,3517.67,-5938.63,7164.44,-14.184,-2.00574,-9.53013,-895.671,-9212.81,-2874.02,-79.1769,-42.9629,-308.729,7610.12,-239.956,1539.62,-33.5114,-20.6335,-22.0932,-4036.83,-8449.91,-1099.84,-4.94817,61.856,-151.77
1.749,5812.38,7400.07,7014.56,55.6818,358.344,-149.691,3152.17,8827.22,-2999.99,49.502,-27.2029,-55.5736,1399.81,9271.15,-2628.86,-12.6824,-17.9717,-70.6854,3533.87,-5911.88,7154.41,-13.1537,-1.97043,-9.76807,-877.222,-9292.75,-2922.16,-80.4616,-42.3831,-310.031,7631.99,-248.116,1502.81,-33.2768,-20.8223,-21.7469,-4044.96,-8428.69,-1030.83,-4.59861,62.1857,-150.912
1.75,5931.31,7416.05,7094.62,56.4083,358.171,-150.873,3076.34,8772.07,-2976.86,49.6651,-25.7222,-55.3201,1352.31,9273.98,-2658.98,-13.1333,-18.101,-70.848,3550.06,-5885.12,7144.38,-12.1234,-1.93513,-10.006,-858.773,-9372.7,-2970.3,-81.7464,-41.8034,-311.333,7653.86,-256.276,1466.01,-33.0422,-21.0112,-21.4005,-4053.08,-8407.47,-961.814,-4.24905,62.5155,-150.055
1.751,6050.23,7432.03,7174.68,57.1347,357.998,-152.055,3000.5,8716.92,-2953.73,49.8282,-24.2414,-55.0665,1304.8,9276.81,-2689.09,-13.5843,-18.2303,-71.0105,3566.26,-5858.37,7134.34,-11.0931,-1.89983,-10.244,-840.324,-9452.65,-3018.43,-83.0311,-41.2236,-312.635,7675.73,-264.436,1429.2,-32.8077,-21.2001,-21.0542,-4061.2,-8386.26,-892.8,-3.89949,62.8452,-149.198
1.752,6172.87,7413.0,7237.8,58.0421,357.787,-153.019,2948.69,8692.24,-2880.5,49.8901,-23.2376,-54.9418,1252.17,9261.76,-2693.86,-13.8083,-18.1392,-71.3478,3585.52,-5871.74,7124.24,-10.0247,-1.83239,-10.5096,-815.379,-9555.47,-3008.94,-84.4048,-40.6042,-313.802,7713.75,-285.035,1427.05,-32.5246,-21.5224,-20.7874,-4055.09,-8365.18,-776.551,-3.11521,63.1404,-148.517
1.753,6295.97,7389.6,7298.8,58.9721,357.572,-153.956,2899.88,8671.37,-2801.0,49.9393,-22.2935,-54.8332,1198.9,9244.49,-2695.46,-14.0039,-18.0205,-71.707,3605.16,-5890.13,7114.12,-8.95163,-1.76093,-10.7787,-789.622,-9661.14,-2992.23,-85.7896,-39.9799,-314.953,7753.79,-307.189,1429.23,-32.2356,-21.8614,-20.5307,-4047.2,-8344.13,-654.399,-2.2766,63.4314,-147.858
1.754,6419.07,7366.19,7359.79,59.9021,357.357,-154.893,2851.07,8650.5,-2721.5,49.9885,-21.3494,-54.7246,1145.63,9227.21,-2697.06,-14.1995,-17.9018,-72.0662,3624.79,-5908.52,7104.0,-7.87853,-1.68947,-11.0478,-763.866,-9766.82,-2975.53,-87.1744,-39.3555,-316.103,7793.82,-329.343,1431.41,-31.9465,-22.2004,-20.2739,-4039.32,-8323.08,-532.246,-1.43798,63.7223,-147.199
1.755,6542.17,7342.79,7420.79,60.8321,357.142,-155.831,2802.26,8629.63,-2642.0,50.0377,-20.4052,-54.616,1092.36,9209.92,-2698.66,-14.3951,-17.7831,-72.4254,3644.43,-5926.92,7093.89,-6.80542,-1.61802,-11.3169,-738.109,-9872.5,-2958.83,-88.5592,-38.7311,-317.253,7833.86,-351.497,1433.59,-31.6574,-22.5394,-20.0171,-4031.43,-8302.02,-410.093,-0.599369,64.0133,-146.54
1.756,6662.16,7325.61,7476.55,61.7927,356.87,-156.662,2754.49,8624.75,-2577.34,50.2306,-19.6575,-54.5036,1058.38,9201.61,-2712.41,-14.4863,-17.5988,-72.7381,3640.9,-5958.7,7089.61,-5.75268,-1.51934,-11.6543,-735.082,-9979.94,-2946.4,-89.9781,-37.8664,-318.346,7888.62,-370.273,1410.15,-31.4353,-22.9177,-19.747,-4047.42,-8273.3,-320.367,0.171698,64.1737,-145.792
1.757,6778.28,7316.2,7525.75,62.7916,356.528,-157.361,2708.01,8639.86,-2531.24,50.6032,-19.1553,-54.3862,1048.51,9204.49,-2741.35,-14.4469,-17.3325,-72.9927,3608.41,-6007.24,7092.64,-4.72538,-1.38664,-12.0771,-760.467,-10089.6,-2939.32,-91.4394,-36.7011,-319.368,7961.79,-384.827,1354.68,-31.297,-23.3451,-19.4604,-4093.27,-8234.98,-271.174,0.858333,64.1709,-144.934
1.758,6894.4,7306.79,7574.96,63.7905,356.186,-158.061,2661.53,8654.97,-2485.13,50.9757,-18.653,-54.2689,1038.63,9207.38,-2770.29,-14.4076,-17.0662,-73.2473,3575.91,-6055.77,7095.66,-3.69809,-1.25393,-12.4999,-785.852,-10199.2,-2932.25,-92.9008,-35.5358,-320.389,8034.95,-399.381,1299.21,-31.1586,-23.7725,-19.1738,-4139.12,-8196.66,-221.982,1.54497,64.1681,-144.076
1.759,7010.51,7297.39,7624.16,64.7893,355.844,-158.76,2615.06,8670.08,-2439.02,51.3483,-18.1508,-54.1516,1028.76,9210.26,-2799.22,-14.3682,-16.8,-73.5019,3543.42,-6104.31,7098.69,-2.67079,-1.12123,-12.9227,-811.237,-10308.8,-2925.17,-94.3622,-34.3706,-321.411,8108.12,-413.935,1243.75,-31.0202,-24.1999,-18.8872,-4184.97,-8158.34,-172.789,2.2316,64.1653,-143.217
1.76,7126.63,7287.98,7673.37,65.7882,355.502,-159.46,2568.58,8685.19,-2392.92,51.7209,-17.6486,-54.0343,1018.88,9213.15,-2828.16,-14.3289,-16.5337,-73.7565,3510.92,-6152.84,7101.71,-1.64349,-0.988529,-13.3455,-836.622,-10418.5,-2918.09,-95.8235,-33.2053,-322.433,8181.29,-428.489,1188.28,-30.8818,-24.6273,-18.6006,-4230.82,-8120.02,-123.596,2.91824,64.1624,-142.359
1.761,7231.07,7335.38,7719.11,66.1445,355.101,-159.758,2512.63,8658.78,-2353.26,51.8987,-17.0924,-54.1172,1091.85,9238.41,-2808.17,-14.1944,-16.1142,-74.2505,3462.86,-6150.35,7105.48,-0.572197,-0.945013,-13.8301,-782.158,-10526.2,-2937.62,-96.9093,-31.6434,-323.342,8170.52,-450.423,1092.52,-31.0537,-24.5435,-17.9517,-4313.77,-8074.07,-91.0076,3.84821,63.6627,-141.468
1.762,7335.5,7382.79,7764.86,66.5007,354.699,-160.057,2456.67,8632.36,-2313.6,52.0766,-16.5363,-54.2002,1164.83,9263.68,-2788.17,-14.06,-15.6948,-74.7445,3414.8,-6147.86,7109.25,0.499101,-0.901497,-14.3146,-727.695,-10633.9,-2957.16,-97.995,-30.0815,-324.251,8159.76,-472.358,996.76,-31.2256,-24.4596,-17.3028,-4396.73,-8028.12,-58.4191,4.77817,63.163,-140.577
1.763,7439.94,7430.19,7810.61,66.8569,354.298,-160.356,2400.71,8605.95,-2273.94,52.2545,-15.9802,-54.2832,1237.8,9288.94,-2768.17,-13.9255,-15.2754,-75.2385,3366.74,-6145.37,7113.02,1.5704,-0.857981,-14.7992,-673.231,-10741.7,-2976.69,-99.0808,-28.5196,-325.159,8148.99,-494.293,901.002,-31.3975,-24.3758,-16.6538,-4479.68,-7982.17,-25.8307,5.70814,62.6632,-139.686
1.764,7544.38,7477.6,7856.36,67.2132,353.897,-160.655,2344.76,8579.53,-2234.27,52.4323,-15.4241,-54.3661,1310.77,9314.21,-2748.18,-13.7911,-14.856,-75.7325,3318.68,-6142.88,7116.79,2.6417,-0.814466,-15.2838,-618.768,-10849.4,-2996.22,-100.167,-26.9576,-326.068,8138.22,-516.228,805.244,-31.5694,-24.292,-16.0049,-4562.63,-7936.22,6.75779,6.63811,62.1635,-138.794
1.765,7630.75,7567.41,7903.29,66.9725,353.58,-160.57,2288.4,8545.84,-2187.71,52.7618,-15.0091,-54.537,1360.31,9307.2,-2743.02,-13.5703,-14.4464,-76.0884,3289.4,-6131.29,7142.29,3.66656,-0.862633,-15.7415,-581.991,-10944.7,-3033.21,-101.319,-25.0936,-326.801,8140.09,-626.056,813.484,-31.1815,-24.0858,-15.5947,-4645.83,-7874.01,39.7057,7.49345,61.3878,-138.09
1.766,7702.67,7691.13,7951.16,66.2542,353.331,-160.178,2231.72,8506.33,-2135.62,53.2127,-14.7072,-54.7781,1391.11,9274.37,-2749.72,-13.2804,-14.0447,-76.3339,3275.14,-6112.42,7185.18,4.65427,-0.984149,-16.1776,-559.364,-11030.1,-3084.16,-102.526,-22.9878,-327.393,8152.07,-806.198,904.923,-30.3457,-23.7816,-15.3756,-4729.23,-7798.79,72.9411,8.28907,60.3915,-137.535
1.767,7774.59,7814.86,7999.03,65.5358,353.082,-159.786,2175.04,8466.81,-2083.53,53.6635,-14.4052,-55.0192,1421.9,9241.55,-2756.42,-12.9905,-13.6429,-76.5794,3260.89,-6093.55,7228.06,5.64199,-1.10566,-16.6137,-536.736,-11115.5,-3135.11,-103.732,-20.882,-327.984,8164.05,-986.341,996.362,-29.51,-23.4775,-15.1564,-4812.62,-7723.58,106.177,9.0847,59.3952,-136.981
1.768,7846.51,7938.58,8046.9,64.8175,352.833,-159.395,2118.37,8427.29,-2031.44,54.1144,-14.1032,-55.2603,1452.7,9208.72,-2763.13,-12.7006,-13.2412,-76.825,3246.64,-6074.67,7270.95,6.6297,-1.22718,-17.0498,-514.109,-11200.9,-3186.06,-104.938,-18.7763,-328.576,8176.03,-1166.48,1087.8,-28.6743,-23.1733,-14.9373,-4896.02,-7648.36,139.412,9.88033,58.3988,-136.426
1.769,7920.62,8068.86,8097.76,63.9966,352.617,-158.892,2066.53,8391.91,-1986.79,54.5537,-13.7927,-55.5131,1483.1,9179.6,-2764.39,-12.4258,-12.851,-77.093,3232.38,-6053.93,7312.28,7.59342,-1.33262,-17.4822,-486.626,-11289.9,-3234.67,-106.146,-16.6085,-329.154,8192.37,-1320.96,1166.96,-27.8206,-22.8731,-14.7205,-4977.43,-7574.45,168.626,10.6445,57.3627,-135.891
1.77,8012.19,8251.56,8172.5,62.3553,352.666,-157.5,2053.43,8389.57,-2001.72,54.9013,-13.414,-55.8585,1510.35,9180.11,-2722.09,-12.271,-12.5534,-77.5411,3218.07,-6018.22,7341.17,8.36522,-1.30947,-17.8844,-420.303,-11408.1,-3264.52,-107.364,-13.9443,-329.618,8243.66,-1270.07,1147.92,-26.8231,-22.6044,-14.5219,-5042.99,-7511.03,165.669,11.1568,56.0086,-135.51
1.771,8103.77,8434.26,8247.23,60.7139,352.716,-156.107,2040.33,8387.22,-2016.65,55.2489,-13.0353,-56.204,1537.6,9180.62,-2679.79,-12.1161,-12.2557,-77.9891,3203.77,-5982.51,7370.06,9.13702,-1.28631,-18.2866,-353.98,-11526.3,-3294.37,-108.582,-11.2802,-330.082,8294.94,-1219.18,1128.88,-25.8256,-22.3356,-14.3234,-5108.55,-7447.6,162.712,11.6691,54.6544,-135.128
1.772,8195.34,8616.95,8321.97,59.0726,352.766,-154.715,2027.23,8384.88,-2031.58,55.5965,-12.6566,-56.5495,1564.86,9181.13,-2637.49,-11.9613,-11.958,-78.4372,3189.47,-5946.8,7398.95,9.90882,-1.26316,-18.6887,-287.656,-11644.6,-3324.22,-109.801,-8.61602,-330.546,8346.23,-1168.29,1109.83,-24.8281,-22.0669,-14.1248,-5174.1,-7384.17,159.756,12.1815,53.3003,-134.747
1.773,8286.92,8799.65,8396.71,57.4312,352.816,-153.323,2014.13,8382.54,-2046.51,55.9441,-12.2779,-56.895,1592.11,9181.64,-2595.19,-11.8065,-11.6604,-78.8853,3175.17,-5911.09,7427.84,10.6806,-1.24001,-19.0909,-221.333,-11762.8,-3354.07,-111.019,-5.95187,-331.009,8397.52,-1117.4,1090.79,-23.8306,-21.7982,-13.9263,-5239.66,-7320.74,156.799,12.6938,51.9462,-134.366
1.774,8459.25,8944.55,8511.88,55.6263,353.3,-151.446,1977.54,8402.07,-2036.02,56.201,-12.0187,-57.1868,1568.47,9197.34,-2558.71,-11.8052,-11.2951,-79.4079,3215.89,-5862.42,7456.88,11.3984,-1.1848,-19.4315,-181.591,-11861.4,-3423.2,-112.246,-2.88932,-331.155,8426.25,-1098.41,1071.71,-23.2662,-21.6993,-13.7627,-5266.64,-7265.28,172.394,13.2,50.3805,-134.168
1.775,8671.97,9070.54,8647.25,53.7397,354.0,-149.325,1929.2,8432.53,-2012.82,56.4125,-11.8192,-57.4517,1519.39,9220.63,-2525.14,-11.8805,-10.8959,-79.9676,3284.13,-5807.27,7486.0,12.0891,-1.11357,-19.7413,-155.141,-11950.2,-3511.96,-113.477,0.372428,-331.141,8443.72,-1095.38,1052.62,-22.9183,-21.6854,-13.6166,-5274.34,-7213.79,197.266,13.7032,48.709,-134.062
1.776,8884.69,9196.54,8782.63,51.853,354.701,-147.205,1880.86,8462.99,-1989.62,56.624,-11.6197,-57.7166,1470.3,9243.92,-2491.57,-11.9559,-10.4968,-80.5274,3352.36,-5752.12,7515.11,12.7798,-1.04234,-20.0511,-128.69,-12039.0,-3600.73,-114.709,3.63418,-331.128,8461.19,-1092.35,1033.52,-22.5704,-21.6715,-13.4705,-5282.03,-7162.3,222.137,14.2063,47.0376,-133.955
1.777,9097.41,9322.53,8918.01,49.9664,355.402,-145.084,1832.52,8493.46,-1966.42,56.8355,-11.4202,-57.9816,1421.22,9267.21,-2458.0,-12.0313,-10.0977,-81.0872,3420.6,-5696.96,7544.23,13.4705,-0.971105,-20.3609,-102.239,-12127.8,-3689.49,-115.94,6.89593,-331.114,8478.65,-1089.32,1014.43,-22.2225,-21.6576,-13.3244,-5289.73,-7110.81,247.008,14.7095,45.3662,-133.849
1.778,9348.56,9402.37,9059.02,48.2904,356.43,-143.04,1790.98,8524.25,-1940.95,57.0244,-11.2494,-58.243,1370.02,9291.47,-2425.69,-12.0783,-9.7002,-81.5992,3481.04,-5634.09,7569.27,14.1205,-0.900111,-20.6631,-140.74,-12220.5,-3768.01,-117.16,10.2911,-331.047,8495.1,-1075.43,997.494,-21.9166,-21.643,-13.1915,-5294.52,-7057.96,269.756,15.0457,43.6348,-133.77
1.779,9734.21,9320.67,9219.77,47.3515,358.602,-141.264,1773.24,8556.19,-1907.55,57.1343,-11.1793,-58.4923,1311.42,9319.12,-2397.8,-12.0259,-9.30833,-81.9441,3514.2,-5544.19,7580.06,14.6279,-0.829952,-20.9384,-406.569,-12327.1,-3810.69,-118.339,14.1531,-330.795,8507.97,-1023.57,988.118,-21.7576,-21.6255,-13.1046,-5289.12,-7000.33,285.069,14.7973,41.6939,-133.786
1.78,10119.9,9238.96,9380.51,46.4127,360.774,-139.488,1755.5,8588.14,-1874.16,57.2441,-11.1091,-58.7415,1252.82,9346.77,-2369.91,-11.9734,-8.91645,-82.289,3547.36,-5454.29,7590.85,15.1353,-0.759793,-21.2137,-672.399,-12433.7,-3853.37,-119.519,18.0151,-330.542,8520.85,-971.705,978.742,-21.5986,-21.608,-13.0176,-5283.72,-6942.71,300.382,14.5489,39.753,-133.802
1.781,10505.5,9157.26,9541.26,45.4738,362.946,-137.712,1737.76,8620.09,-1840.76,57.3539,-11.039,-58.9908,1194.22,9374.42,-2342.01,-11.921,-8.52458,-82.6338,3580.52,-5364.4,7601.64,15.6427,-0.689633,-21.489,-938.229,-12540.3,-3896.05,-120.698,21.8771,-330.29,8533.72,-919.839,969.366,-21.4395,-21.5905,-12.9307,-5278.32,-6885.08,315.696,14.3005,37.8121,-133.819
1.782,10891.2,9075.55,9702.0,44.535,365.117,-135.936,1720.02,8652.03,-1807.37,57.4638,-10.9688,-59.24,1135.61,9402.06,-2314.12,-11.8685,-8.1327,-82.9787,3613.68,-5274.5,7612.43,16.1501,-0.619474,-21.7644,-1204.06,-12646.8,-3938.73,-121.878,25.7391,-330.037,8546.59,-867.974,959.99,-21.2805,-21.573,-12.8438,-5272.92,-6827.45,331.009,14.0521,35.8712,-133.835
1.783,11443.0,8732.09,9839.68,44.4062,368.113,-134.986,1671.27,8675.5,-1783.36,57.4127,-10.7028,-59.3573,1084.99,9444.23,-2268.42,-11.827,-7.99157,-83.3853,3648.08,-5224.97,7605.52,16.5519,-0.508522,-22.1785,-1632.95,-12742.0,-3905.6,-122.859,29.1369,-329.021,8559.51,-849.942,956.026,-21.1199,-21.5534,-12.7546,-5292.96,-6785.4,375.468,13.9374,33.8148,-134.094
1.784,12042.4,8313.83,9970.76,44.5088,371.343,-134.272,1613.66,8696.55,-1762.04,57.3157,-10.3807,-59.4368,1036.65,9490.53,-2217.63,-11.7887,-7.92208,-83.8095,3682.83,-5186.97,7593.54,16.9235,-0.385915,-22.6322,-2108.44,-12833.9,-3850.81,-123.783,32.4021,-327.787,8572.45,-841.576,953.609,-20.9588,-21.5331,-12.6649,-5320.26,-6747.79,428.255,13.8609,31.7255,-134.422
1.785,12641.8,7895.58,10101.8,44.6115,374.573,-133.558,1556.05,8717.6,-1740.72,57.2187,-10.0586,-59.5164,988.301,9536.84,-2166.84,-11.7503,-7.85259,-84.2337,3717.58,-5148.98,7581.57,17.2952,-0.263307,-23.086,-2583.92,-12925.8,-3796.02,-124.707,35.6673,-326.553,8585.38,-833.21,951.191,-20.7978,-21.5128,-12.5752,-5347.56,-6710.19,481.042,13.7844,29.6362,-134.751
1.786,13241.1,7477.33,10232.9,44.7141,377.804,-132.844,1498.44,8738.65,-1719.4,57.1217,-9.73658,-59.5959,939.956,9583.15,-2116.06,-11.7119,-7.7831,-84.6579,3752.32,-5110.98,7569.6,17.6668,-0.1407,-23.5397,-3059.41,-13017.7,-3741.24,-125.631,38.9325,-325.319,8598.31,-824.844,948.774,-20.6367,-21.4926,-12.4855,-5374.86,-6672.59,533.828,13.7079,27.5469,-135.079
1.787,13865.2,7052.62,10317.8,44.558,380.626,-131.772,1452.11,8772.01,-1689.39,57.0889,-9.56505,-59.6389,896.469,9622.56,-2074.32,-11.691,-7.70779,-85.0809,3778.37,-5083.35,7567.66,18.0477,-0.0486949,-23.9203,-3554.04,-13133.2,-3694.28,-126.283,42.0058,-324.009,8605.38,-814.574,941.488,-20.4156,-21.4725,-12.3986,-5385.42,-6637.61,588.118,13.67,25.5104,-135.469
1.788,14538.8,6615.01,10310.3,43.8844,382.633,-129.982,1428.34,8829.99,-1641.97,57.1846,-9.69459,-59.6086,862.696,9648.17,-2050.7,-11.7051,-7.62085,-85.5014,3787.02,-5076.44,7585.77,18.4472,-0.0178935,-24.1544,-4086.98,-13296.1,-3662.99,-126.392,44.6953,-322.548,8600.75,-800.495,924.465,-20.0744,-21.4529,-12.3174,-5362.48,-6607.88,645.411,13.7092,23.5793,-135.983
1.789,15212.4,6177.4,10302.8,43.2108,384.64,-128.192,1404.56,8887.96,-1594.56,57.2803,-9.82414,-59.5783,828.924,9673.78,-2027.07,-11.7192,-7.53392,-85.9218,3795.67,-5069.53,7603.88,18.8468,0.012908,-24.3886,-4619.92,-13458.9,-3631.69,-126.501,47.3849,-321.086,8596.11,-786.416,907.442,-19.7332,-21.4334,-12.2362,-5339.54,-6578.15,702.705,13.7484,21.6482,-136.496
1.79,15885.9,5739.79,10295.3,42.5373,386.647,-126.402,1380.79,8945.94,-1547.15,57.3759,-9.95368,-59.548,795.151,9699.38,-2003.44,-11.7332,-7.44698,-86.3423,3804.33,-5062.62,7621.99,19.2463,0.0437094,-24.6227,-5152.86,-13621.8,-3600.4,-126.609,50.0745,-319.625,8591.47,-772.336,890.419,-19.392,-21.4138,-12.155,-5316.6,-6548.41,759.999,13.7876,19.7171,-137.01
1.791,16559.5,5302.17,10287.8,41.8637,388.654,-124.612,1357.02,9003.92,-1499.74,57.4716,-10.0832,-59.5177,761.379,9724.99,-1979.81,-11.7473,-7.36005,-86.7628,3812.98,-5055.71,7640.1,19.6458,0.0745109,-24.8569,-5685.8,-13784.6,-3569.11,-126.718,52.764,-318.163,8586.83,-758.257,873.396,-19.0507,-21.3942,-12.0738,-5293.66,-6518.68,817.293,13.8268,17.786,-137.523
1.792,16946.9,5050.11,10002.5,41.0273,388.542,-120.572,1345.71,9006.05,-1421.49,57.4393,-10.2699,-59.3456,747.778,9744.42,-1995.86,-11.8399,-7.20409,-87.2166,3771.03,-5048.37,7688.19,19.8913,-0.0341543,-24.9915,-6039.87,-14010.9,-3442.32,-126.551,53.9225,-317.238,8575.77,-718.645,866.714,-18.6447,-21.2759,-11.9297,-5220.32,-6502.89,841.94,13.331,16.034,-137.938
1.793,17298.5,4821.25,9682.48,40.1705,388.166,-116.251,1335.97,9001.19,-1339.39,57.3909,-10.4638,-59.1558,736.7,9763.08,-2016.87,-11.9423,-7.0395,-87.6745,3722.76,-5040.98,7740.04,20.1176,-0.160253,-25.1136,-6371.58,-14245.0,-3303.59,-126.35,54.8895,-316.379,8563.91,-675.841,861.323,-18.2305,-21.1453,-11.7778,-5140.68,-6488.83,862.507,12.7684,14.3045,-138.339
1.794,17650.2,4592.38,9362.46,39.3137,387.79,-111.93,1326.22,8996.34,-1257.28,57.3425,-10.6577,-58.966,725.621,9781.74,-2037.87,-12.0447,-6.87492,-88.1324,3674.49,-5033.59,7791.88,20.3439,-0.286351,-25.2358,-6703.28,-14479.2,-3164.86,-126.149,55.8565,-315.52,8552.05,-633.037,855.933,-17.8163,-21.0147,-11.6259,-5061.04,-6474.77,883.073,12.2058,12.5749,-138.741
1.795,18001.8,4363.51,9042.45,38.4569,387.414,-107.608,1316.48,8991.49,-1175.18,57.2941,-10.8515,-58.7762,714.542,9800.39,-2058.88,-12.1471,-6.71033,-88.5903,3626.21,-5026.2,7843.73,20.5701,-0.41245,-25.358,-7034.99,-14713.3,-3026.13,-125.948,56.8236,-314.662,8540.19,-590.234,850.542,-17.4022,-20.8841,-11.474,-4981.4,-6460.71,903.639,11.6432,10.8453,-139.143
1.796,18004.1,4170.16,8789.54,37.8839,386.119,-103.258,1300.24,9001.27,-1129.27,57.3363,-11.1008,-58.5451,694.24,9823.22,-2055.5,-12.1853,-6.50708,-89.0164,3602.94,-5018.31,7867.52,20.7736,-0.496728,-25.4865,-7111.88,-14960.6,-2850.12,-125.708,56.8694,-314.228,8539.28,-561.32,846.513,-16.9859,-20.7144,-11.3275,-4880.34,-6453.78,898.317,10.9141,9.02041,-139.533
1.797,17569.6,4021.22,8620.52,37.6657,383.675,-98.8708,1275.88,9029.34,-1128.59,57.4916,-11.4194,-58.2626,662.408,9851.26,-2021.64,-12.1432,-6.25551,-89.4027,3610.91,-5009.81,7856.26,20.9485,-0.528731,-25.6229,-6870.26,-15224.2,-2627.5,-125.418,55.7637,-314.325,8552.05,-549.77,844.184,-16.5671,-20.4959,-11.1877,-4752.5,-6455.76,860.635,9.97677,7.07639,-139.908
1.798,17135.1,3872.27,8451.5,37.4474,381.232,-94.4837,1251.53,9057.42,-1127.92,57.6469,-11.738,-57.98,630.576,9879.3,-1987.79,-12.1011,-6.00394,-89.789,3618.88,-5001.3,7844.99,21.1233,-0.560734,-25.7593,-6628.64,-15487.8,-2404.87,-125.129,54.6579,-314.422,8564.82,-538.22,841.856,-16.1483,-20.2774,-11.0478,-4624.66,-6457.73,822.953,9.03946,5.13238,-140.284
1.799,16700.6,3723.32,8282.48,37.2291,378.788,-90.0967,1227.17,9085.49,-1127.24,57.8022,-12.0567,-57.6974,598.744,9907.35,-1953.93,-12.059,-5.75236,-90.1754,3626.86,-4992.79,7833.72,21.2982,-0.592737,-25.8958,-6387.01,-15751.4,-2182.25,-124.839,53.5522,-314.519,8577.6,-526.67,839.527,-15.7295,-20.059,-10.908,-4496.83,-6459.7,785.27,8.10215,3.18836,-140.659
1.8,16266.1,3574.37,8113.46,37.0108,376.345,-85.7097,1202.81,9113.57,-1126.56,57.9575,-12.3753,-57.4149,566.913,9935.39,-1920.07,-12.0169,-5.50079,-90.5617,3634.83,-4984.28,7822.45,21.4731,-0.624739,-26.0322,-6145.39,-16015.0,-1959.63,-124.55,52.4464,-314.616,8590.37,-515.12,837.199,-15.3107,-19.8405,-10.7682,-4368.99,-6461.68,747.588,7.16484,1.24435,-141.034
1.801,15122.1,3506.09,8192.04,37.2222,372.13,-83.5882,1217.25,9145.18,-1110.55,57.8353,-12.8587,-56.9478,525.588,9926.95,-1912.04,-11.7522,-5.24089,-90.8794,3644.8,-4986.43,7826.02,21.773,-0.675094,-26.2687,-5685.1,-16220.3,-1784.44,-124.383,49.4239,-315.566,8637.56,-489.291,828.878,-15.2378,-19.7176,-10.8001,-4249.01,-6485.96,641.719,5.84868,-1.18847,-141.308
1.802,13978.0,3437.81,8270.61,37.4335,367.914,-81.4666,1231.69,9176.79,-1094.54,57.7131,-13.3422,-56.4807,484.264,9918.51,-1904.01,-11.4875,-4.98099,-91.1972,3654.77,-4988.59,7829.59,22.073,-0.725449,-26.5052,-5224.8,-16425.6,-1609.25,-124.216,46.4014,-316.516,8684.75,-463.461,820.557,-15.1649,-19.5946,-10.832,-4129.04,-6510.25,535.849,4.53252,-3.62128,-141.581
1.803,12834.0,3369.52,8349.18,37.6449,363.699,-79.3451,1246.12,9208.4,-1078.53,57.5909,-13.8256,-56.0136,442.94,9910.07,-1895.98,-11.2227,-4.72109,-91.5149,3664.74,-4990.74,7833.16,22.3729,-0.775803,-26.7417,-4764.51,-16631.0,-1434.06,-124.049,43.3789,-317.466,8731.94,-437.632,812.236,-15.092,-19.4717,-10.864,-4009.06,-6534.54,429.979,3.21635,-6.05409,-141.854
1.804,11690.0,3301.24,8427.76,37.8562,359.484,-77.2236,1260.56,9240.01,-1062.52,57.4687,-14.309,-55.5465,401.615,9901.63,-1887.94,-10.958,-4.46119,-91.8327,3674.71,-4992.9,7836.73,22.6728,-0.826158,-26.9782,-4304.22,-16836.3,-1258.86,-123.882,40.3563,-318.415,8779.13,-411.802,803.915,-15.0191,-19.3487,-10.8959,-3889.08,-6558.82,324.109,1.90019,-8.4869,-142.128
1.805,10544.8,3366.34,8526.86,38.7132,353.826,-75.9809,1235.12,9237.21,-1074.51,57.9159,-14.6526,-55.1403,385.312,9886.86,-1898.61,-10.5878,-4.19673,-92.1924,3706.37,-4988.76,7831.04,22.7485,-0.771388,-27.1455,-3884.84,-16955.7,-1088.01,-123.686,36.8748,-319.262,8792.66,-395.595,788.602,-15.0278,-19.2037,-10.8228,-3785.46,-6572.89,223.028,0.478573,-11.0045,-142.34
1.806,9398.62,3538.13,8642.38,40.0867,347.014,-75.4413,1177.79,9206.89,-1108.9,58.8185,-14.8842,-54.7827,389.025,9867.01,-1924.23,-10.1332,-3.92861,-92.5856,3755.38,-4979.59,7817.95,22.6447,-0.632517,-27.2576,-3498.2,-17006.5,-920.615,-123.467,33.026,-320.025,8779.25,-387.085,767.696,-15.1018,-19.0409,-10.6656,-3694.92,-6578.77,125.777,-1.02742,-13.59,-142.504
1.807,8252.44,3709.92,8757.9,41.4602,340.202,-74.9017,1120.46,9176.56,-1143.29,59.7211,-15.1157,-54.4252,392.739,9847.16,-1949.85,-9.67858,-3.6605,-92.9789,3804.39,-4970.41,7804.86,22.5409,-0.493647,-27.3696,-3111.56,-17057.2,-753.224,-123.248,29.1772,-320.788,8765.84,-378.576,746.789,-15.1758,-18.8782,-10.5085,-3604.38,-6584.66,28.5257,-2.53341,-16.1756,-142.667
1.808,7106.27,3881.71,8873.42,42.8337,333.39,-74.3621,1063.13,9146.23,-1177.68,60.6238,-15.3473,-54.0676,396.453,9827.32,-1975.48,-9.22399,-3.39239,-93.3721,3853.41,-4961.24,7791.77,22.4372,-0.354777,-27.4816,-2724.92,-17107.9,-585.834,-123.029,25.3284,-321.551,8752.44,-370.066,725.882,-15.2498,-18.7154,-10.3513,-3513.84,-6590.55,-68.7254,-4.0394,-18.7611,-142.831
1.809,6021.41,4056.68,8980.91,44.2849,326.455,-73.8865,1009.86,9116.63,-1215.61,61.4471,-15.5919,-53.7185,398.808,9807.32,-2000.94,-8.78971,-3.11697,-93.7744,3892.71,-4957.32,7783.81,22.3513,-0.254601,-27.629,-2373.56,-17143.9,-429.117,-122.84,21.6269,-322.188,8740.4,-359.455,703.566,-15.3186,-18.562,-10.1895,-3429.34,-6601.39,-165.818,-5.52568,-21.3285,-142.938
1.81,5427.11,4257.07,9024.11,46.3581,318.536,-73.9229,989.032,9092.85,-1281.91,61.6359,-15.9408,-53.4364,390.295,9786.12,-2025.1,-8.51788,-2.78306,-94.2487,3854.38,-4995.38,7816.84,22.4088,-0.463985,-28.0593,-2304.49,-17062.5,-357.793,-122.886,19.1039,-321.809,8739.29,-332.029,669.97,-15.3453,-18.4831,-9.9903,-3393.19,-6651.89,-261.643,-6.85428,-23.7515,-142.591
1.811,4832.8,4457.45,9067.31,48.4312,310.618,-73.9592,968.207,9069.07,-1348.21,61.8248,-16.2896,-53.1544,381.782,9764.91,-2049.26,-8.24605,-2.44916,-94.7231,3816.05,-5033.45,7849.87,22.4664,-0.67337,-28.4896,-2235.42,-16981.0,-286.468,-122.932,16.581,-321.43,8738.17,-304.603,636.374,-15.3719,-18.4042,-9.7911,-3357.04,-6702.38,-357.469,-8.18287,-26.1744,-142.245
1.812,4238.5,4657.84,9110.51,50.5044,302.699,-73.9956,947.382,9045.29,-1414.51,62.0136,-16.6384,-52.8724,373.269,9743.71,-2073.43,-7.97423,-2.11526,-95.1974,3777.71,-5071.52,7882.89,22.5239,-0.882754,-28.9199,-2166.35,-16899.6,-215.144,-122.979,14.058,-321.051,8737.06,-277.177,602.779,-15.3986,-18.3253,-9.59191,-3320.89,-6752.88,-453.294,-9.51147,-28.5974,-141.899
1.813,3644.2,4858.22,9153.71,52.5775,294.781,-74.0319,926.557,9021.51,-1480.81,62.2024,-16.9872,-52.5903,364.757,9722.51,-2097.59,-7.7024,-1.78135,-95.6717,3739.38,-5109.58,7915.92,22.5815,-1.09214,-29.3502,-2097.28,-16818.1,-143.819,-123.025,11.535,-320.672,8735.95,-249.751,569.183,-15.4253,-18.2464,-9.39272,-3284.74,-6803.38,-549.12,-10.8401,-31.0203,-141.552
1.814,3481.1,4982.36,9201.08,54.162,287.129,-74.6659,889.061,9025.47,-1527.55,62.0723,-17.2227,-52.3376,358.333,9714.17,-2104.15,-7.36568,-1.66352,-96.0598,3684.86,-5150.52,7954.07,22.7922,-1.35185,-29.7543,-2119.4,-16737.9,-160.742,-123.713,10.3595,-319.644,8748.18,-238.372,547.26,-15.346,-18.1976,-9.17113,-3288.94,-6842.04,-610.002,-11.2915,-33.4813,-140.975
1.815,3533.61,5068.38,9250.54,55.502,279.612,-75.5987,843.23,9043.28,-1564.51,61.7826,-17.4015,-52.0995,352.954,9712.26,-2101.9,-6.99651,-1.65373,-96.4047,3622.26,-5192.91,7994.77,23.0795,-1.63672,-30.1454,-2187.12,-16658.3,-221.789,-124.722,9.85768,-318.292,8767.08,-235.017,531.173,-15.2139,-18.1639,-8.93835,-3313.31,-6874.79,-653.413,-11.3044,-35.9612,-140.283
1.816,3586.12,5154.4,9300.0,56.8421,272.094,-76.5316,797.399,9061.1,-1601.48,61.493,-17.5802,-51.8614,347.574,9710.35,-2099.66,-6.62735,-1.64394,-96.7497,3559.65,-5235.29,8035.47,23.3669,-1.92159,-30.5365,-2254.83,-16578.7,-282.836,-125.73,9.35586,-316.94,8785.99,-231.662,515.086,-15.0817,-18.1301,-8.70557,-3337.69,-6907.53,-696.824,-11.3173,-38.4411,-139.591
1.817,3638.64,5240.42,9349.46,58.1822,264.576,-77.4644,751.568,9078.92,-1638.44,61.2033,-17.759,-51.6232,342.195,9708.44,-2097.42,-6.25818,-1.63414,-97.0946,3497.05,-5277.68,8076.18,23.6542,-2.20646,-30.9276,-2322.54,-16499.1,-343.883,-126.739,8.85404,-315.588,8804.89,-228.308,498.999,-14.9495,-18.0964,-8.47279,-3362.06,-6940.28,-740.235,-11.3302,-40.921,-138.899
1.818,3787.24,5333.73,9392.26,59.211,257.293,-78.5823,707.802,9083.24,-1691.78,60.9247,-17.8944,-51.3915,335.949,9714.96,-2095.83,-5.88472,-1.63582,-97.4123,3448.42,-5320.29,8110.86,23.8365,-2.4352,-31.2628,-2392.96,-16426.8,-406.368,-127.731,8.65502,-314.279,8818.32,-228.207,482.479,-14.7973,-18.0853,-8.23785,-3388.02,-6976.56,-776.171,-11.2611,-43.4361,-138.19
1.819,4272.19,5452.54,9411.73,59.1502,250.835,-80.3481,671.267,9040.33,-1802.41,60.6846,-17.8776,-51.1823,326.667,9750.99,-2096.55,-5.49624,-1.67762,-97.6349,3448.75,-5363.7,8124.49,23.6513,-2.46747,-31.4026,-2472.86,-16380.2,-473.885,-128.666,9.51585,-313.123,8812.57,-239.499,464.442,-14.575,-18.1535,-7.99535,-3419.51,-7025.2,-785.948,-10.9051,-46.0741,-137.42
1.82,4757.13,5571.36,9431.2,59.0894,244.377,-82.1139,634.731,8997.41,-1913.04,60.4445,-17.8609,-50.973,317.385,9787.03,-2097.26,-5.10775,-1.71943,-97.8575,3449.08,-5407.12,8138.12,23.4661,-2.49974,-31.5425,-2552.75,-16333.5,-541.402,-129.601,10.3767,-311.967,8806.82,-250.79,446.405,-14.3528,-18.2217,-7.75285,-3451.0,-7073.83,-795.724,-10.5491,-48.7122,-136.65
1.821,5242.08,5690.18,9450.68,59.0287,237.918,-83.8797,598.196,8954.5,-2023.68,60.2044,-17.8442,-50.7637,308.103,9823.06,-2097.98,-4.71926,-1.76123,-98.0801,3449.4,-5450.53,8151.75,23.2809,-2.53201,-31.6823,-2632.64,-16286.9,-608.919,-130.535,11.2375,-310.81,8801.07,-262.081,428.367,-14.1305,-18.2899,-7.51035,-3482.49,-7122.47,-805.5,-10.1931,-51.3503,-135.881
1.822,5727.02,5808.99,9470.15,58.9679,231.46,-85.6455,561.661,8911.59,-2134.31,59.9643,-17.8275,-50.5544,298.821,9859.09,-2098.69,-4.33078,-1.80304,-98.3027,3449.73,-5493.95,8165.38,23.0957,-2.56427,-31.8222,-2712.54,-16240.2,-676.436,-131.47,12.0983,-309.654,8795.32,-273.372,410.33,-13.9083,-18.3581,-7.26785,-3513.98,-7171.11,-815.276,-9.83708,-53.9883,-135.111
1.823,6219.05,5994.31,9463.7,57.8667,225.616,-87.5818,485.426,8930.07,-2201.01,59.7996,-17.5767,-50.3566,243.237,9906.23,-2094.79,-4.06397,-1.87014,-98.5759,3481.28,-5470.05,8164.93,23.0057,-2.56056,-32.2577,-2781.54,-16285.6,-723.913,-132.261,13.0082,-309.224,8793.2,-287.964,397.948,-13.7346,-18.5312,-7.06946,-3555.0,-7222.19,-843.158,-9.61433,-56.8591,-134.134
1.824,6713.1,6198.63,9449.84,56.4683,219.947,-89.5669,397.848,8966.1,-2255.17,59.6565,-17.259,-50.1621,174.424,9956.55,-2089.57,-3.83192,-1.94447,-98.8635,3521.75,-5426.91,8160.47,22.9429,-2.54656,-32.7778,-2847.43,-16357.2,-765.663,-133.011,13.9322,-309.001,8792.11,-303.499,387.182,-13.5748,-18.7343,-6.88367,-3598.75,-7273.97,-876.212,-9.42965,-59.7963,-133.098
1.825,7207.15,6402.95,9435.98,55.0699,214.279,-91.5519,310.271,9002.12,-2309.32,59.5133,-16.9413,-49.9676,105.611,10006.9,-2084.36,-3.59988,-2.01879,-99.1512,3562.23,-5383.77,8156.0,22.88,-2.53257,-33.2979,-2913.32,-16428.8,-807.414,-133.761,14.8561,-308.779,8791.01,-319.035,376.415,-13.4151,-18.9374,-6.69789,-3642.49,-7325.75,-909.266,-9.24497,-62.7335,-132.062
1.826,7701.2,6607.27,9422.11,53.6714,208.61,-93.537,222.693,9038.15,-2363.48,59.3702,-16.6236,-49.7731,36.7983,10057.2,-2079.14,-3.36783,-2.09312,-99.4388,3602.7,-5340.64,8151.54,22.8172,-2.51857,-33.818,-2979.21,-16500.5,-849.165,-134.511,15.7801,-308.556,8789.92,-334.57,365.649,-13.2553,-19.1404,-6.5121,-3686.24,-7377.53,-942.321,-9.06029,-65.6707,-131.026
1.827,8106.61,6784.88,9400.45,52.0742,202.853,-95.5791,143.289,9049.13,-2413.13,59.2818,-16.4473,-49.5965,-35.8753,10100.5,-2071.5,-3.11973,-2.17214,-99.6958,3656.31,-5288.97,8146.05,22.7619,-2.54977,-34.221,-3042.06,-16563.8,-885.469,-135.27,16.6766,-308.329,8790.65,-349.659,352.326,-13.1303,-19.4368,-6.32879,-3719.66,-7410.26,-972.474,-8.9259,-68.3819,-129.915
1.828,8334.73,6909.04,9363.2,50.0792,196.918,-97.7356,80.2326,9010.02,-2453.76,59.3029,-16.5539,-49.4558,-116.27,10129.7,-2059.02,-2.83953,-2.26054,-99.8914,3736.16,-5220.25,8138.49,22.7215,-2.67138,-34.3897,-3098.85,-16610.4,-910.881,-136.048,17.5182,-308.093,8795.01,-363.855,333.893,-13.0747,-19.9198,-6.15042,-3732.42,-7404.91,-996.827,-8.89209,-70.6412,-128.655
1.829,8562.86,7033.2,9325.94,48.0842,190.983,-99.892,17.1763,8970.91,-2494.4,59.3241,-16.6604,-49.3152,-196.664,10158.9,-2046.54,-2.55932,-2.34893,-100.087,3816.02,-5151.52,8130.93,22.6812,-2.79299,-34.5584,-3155.64,-16657.0,-936.292,-136.825,18.3598,-307.856,8799.37,-378.051,315.459,-13.0191,-20.4029,-5.97205,-3745.19,-7399.55,-1021.18,-8.85827,-72.9004,-127.394
1.83,8790.98,7157.37,9288.68,46.0892,185.048,-102.048,-45.8801,8931.8,-2535.03,59.3452,-16.767,-49.1745,-277.059,10188.1,-2034.07,-2.27911,-2.43733,-100.283,3895.88,-5082.8,8123.38,22.6409,-2.91459,-34.7271,-3212.42,-16703.6,-961.704,-137.603,19.2015,-307.62,8803.73,-392.247,297.025,-12.9636,-20.8859,-5.79369,-3757.95,-7394.19,-1045.53,-8.82445,-75.1596,-126.134
1.831,9019.11,7281.53,9251.42,44.0942,179.113,-104.205,-108.936,8892.69,-2575.67,59.3663,-16.8735,-49.0338,-357.454,10217.3,-2021.59,-1.99891,-2.52572,-100.478,3975.74,-5014.08,8115.82,22.6006,-3.0362,-34.8959,-3269.21,-16750.2,-987.116,-138.381,20.0431,-307.384,8808.09,-406.443,278.591,-12.908,-21.3689,-5.61532,-3770.72,-7388.84,-1069.88,-8.79064,-77.4188,-124.873
1.832,9019.05,7245.03,9230.61,42.4945,172.681,-106.543,-236.51,8854.42,-2666.46,59.6914,-16.1971,-49.3125,-423.222,10222.9,-2003.74,-1.65748,-2.68642,-100.459,3946.46,-5001.94,8151.19,22.3908,-3.36445,-35.0813,-3316.46,-16796.1,-966.587,-138.743,20.8433,-307.347,8803.58,-435.696,258.809,-12.823,-21.9359,-5.38104,-3756.02,-7361.23,-1106.13,-9.55337,-78.4177,-123.659
1.833,8990.47,7188.46,9211.85,40.9443,166.188,-108.903,-372.148,8816.25,-2763.52,60.0545,-15.4227,-49.6436,-487.163,10225.7,-1985.22,-1.3084,-2.85617,-100.412,3903.53,-4996.88,8191.93,22.1599,-3.71852,-35.2689,-3362.51,-16841.9,-940.315,-139.053,21.6383,-307.336,8797.96,-466.83,238.858,-12.7342,-22.5134,-5.13978,-3737.9,-7330.84,-1143.85,-10.4157,-79.259,-122.45
1.834,8961.9,7131.88,9193.09,39.394,159.694,-111.264,-507.786,8778.08,-2860.58,60.4176,-14.6484,-49.9748,-551.104,10228.4,-1966.71,-0.959318,-3.02591,-100.365,3860.61,-4991.81,8232.67,21.929,-4.0726,-35.4564,-3408.56,-16887.7,-914.044,-139.363,22.4333,-307.324,8792.34,-497.965,218.908,-12.6455,-23.0908,-4.89852,-3719.77,-7300.45,-1181.58,-11.278,-80.1004,-121.241
1.835,8933.32,7075.3,9174.34,37.8438,153.201,-113.625,-643.424,8739.91,-2957.64,60.7808,-13.8741,-50.3059,-615.044,10231.1,-1948.19,-0.610237,-3.19565,-100.319,3817.69,-4986.75,8273.41,21.6981,-4.42667,-35.6439,-3454.61,-16933.5,-887.773,-139.673,23.2283,-307.312,8786.72,-529.1,198.957,-12.5567,-23.6683,-4.65726,-3701.65,-7270.06,-1219.31,-12.1403,-80.9417,-120.032
1.836,8867.16,6953.98,9161.01,36.785,146.393,-115.888,-737.629,8743.35,-2998.39,61.1065,-13.2795,-50.6557,-669.548,10252.5,-1935.81,-0.256651,-3.50042,-100.249,3776.08,-4979.98,8312.96,21.5493,-4.76276,-35.8867,-3527.59,-16985.8,-859.011,-139.913,24.0676,-307.204,8774.2,-558.432,194.37,-12.471,-24.3054,-4.41217,-3664.74,-7247.69,-1232.9,-13.3828,-81.0205,-118.88
1.837,8754.02,6751.71,9154.48,36.3407,139.194,-118.028,-780.042,8798.78,-2968.76,61.3857,-12.9095,-51.029,-712.256,10297.5,-1931.11,0.102566,-3.97397,-100.151,3736.13,-4971.07,8351.01,21.5032,-5.07635,-36.1984,-3634.24,-17046.4,-827.135,-140.065,24.9622,-306.975,8753.04,-585.512,208.988,-12.389,-25.017,-4.16231,-3604.36,-7235.35,-1216.32,-15.1007,-80.1462,-117.797
1.838,8640.88,6549.44,9147.94,35.8963,131.995,-120.168,-822.456,8854.21,-2939.13,61.6648,-12.5394,-51.4022,-754.964,10342.5,-1926.4,0.461784,-4.44752,-100.052,3696.17,-4962.17,8389.07,21.457,-5.38995,-36.5101,-3740.89,-17106.9,-795.26,-140.218,25.8568,-306.746,8731.88,-612.593,223.605,-12.307,-25.7286,-3.91244,-3543.97,-7223.01,-1199.74,-16.8185,-79.2718,-116.715
1.839,8527.74,6347.18,9141.4,35.4519,124.795,-122.308,-864.869,8909.65,-2909.5,61.944,-12.1694,-51.7755,-797.672,10387.4,-1921.7,0.821001,-4.92108,-99.9541,3656.22,-4953.26,8427.13,21.4109,-5.70355,-36.8218,-3847.54,-17167.5,-763.384,-140.37,26.7515,-306.517,8710.73,-639.673,238.222,-12.225,-26.4402,-3.66258,-3483.59,-7210.67,-1183.16,-18.5363,-78.3974,-115.632
1.84,8414.6,6144.91,9134.87,35.0076,117.596,-124.449,-907.282,8965.08,-2879.87,62.2231,-11.7994,-52.1487,-840.379,10432.4,-1917.0,1.18022,-5.39463,-99.8558,3616.26,-4944.36,8465.18,21.3647,-6.01715,-37.1335,-3954.19,-17228.0,-731.508,-140.522,27.6461,-306.288,8689.57,-666.753,252.839,-12.143,-27.1518,-3.41271,-3423.21,-7198.32,-1166.58,-20.2542,-77.5231,-114.55
1.841,8412.21,5851.55,9155.73,35.3832,109.95,-126.485,-941.059,8933.75,-2841.91,62.5273,-12.0537,-52.2359,-883.504,10484.8,-1927.6,1.37596,-6.20313,-99.7781,3645.82,-4947.86,8467.5,21.061,-6.29882,-37.3635,-4111.99,-17222.7,-663.728,-140.304,28.6365,-305.584,8659.96,-664.054,215.753,-12.143,-27.9583,-3.28474,-3251.08,-7184.06,-1128.53,-22.6013,-75.0892,-113.889
1.842,8409.81,5558.19,9176.6,35.7588,102.304,-128.522,-974.837,8902.42,-2803.96,62.8316,-12.308,-52.3231,-926.628,10537.1,-1938.2,1.5717,-7.01162,-99.7005,3675.37,-4951.37,8469.81,20.7573,-6.58048,-37.5935,-4269.78,-17217.5,-595.948,-140.086,29.6268,-304.88,8630.35,-661.355,178.667,-12.143,-28.7647,-3.15677,-3078.96,-7169.8,-1090.47,-24.9484,-72.6553,-113.228
1.843,8407.42,5264.82,9197.46,36.1345,94.6576,-130.559,-1008.61,8871.09,-2766.0,63.1358,-12.5624,-52.4102,-969.753,10589.5,-1948.8,1.76744,-7.82012,-99.6228,3704.92,-4954.88,8472.13,20.4536,-6.86215,-37.8236,-4427.58,-17212.2,-528.168,-139.867,30.6172,-304.176,8600.75,-658.656,141.58,-12.143,-29.5711,-3.0288,-2906.84,-7155.53,-1052.42,-27.2954,-70.2214,-112.567
1.844,8405.03,4971.46,9218.33,36.5101,87.0116,-132.595,-1042.39,8839.76,-2728.05,63.4401,-12.8167,-52.4974,-1012.88,10641.8,-1959.4,1.96318,-8.62862,-99.5452,3734.48,-4958.39,8474.45,20.1499,-7.14382,-38.0536,-4585.37,-17206.9,-460.388,-139.649,31.6076,-303.472,8571.14,-655.956,104.494,-12.143,-30.3775,-2.90084,-2734.71,-7141.27,-1014.36,-29.6425,-67.7876,-111.906
1.845,8504.56,4714.31,9221.75,37.4413,79.6216,-134.319,-1119.95,8824.69,-2708.66,63.8896,-12.8771,-52.9495,-1071.02,10681.0,-1950.65,2.0898,-9.46807,-99.4394,3785.8,-4951.29,8487.74,19.7989,-7.42452,-38.3472,-4773.85,-17182.1,-381.395,-139.43,32.4913,-302.782,8548.68,-659.973,57.3363,-12.1229,-31.2209,-2.73488,-2528.63,-7107.96,-959.711,-32.3292,-64.7417,-111.563
1.846,8685.63,4486.13,9211.21,38.8169,72.4366,-135.792,-1232.53,8822.63,-2704.14,64.4554,-12.7824,-53.6935,-1141.19,10709.8,-1926.42,2.16112,-10.3323,-99.3112,3854.54,-4935.71,8509.81,19.41,-7.70445,-38.6917,-4986.88,-17141.7,-293.433,-139.211,33.2898,-302.104,8531.94,-669.361,2.12127,-12.0869,-32.0937,-2.53855,-2295.39,-7059.42,-891.78,-35.2876,-61.2062,-111.474
1.847,8866.71,4257.95,9200.68,40.1926,65.2515,-137.266,-1345.11,8820.57,-2699.61,65.0211,-12.6877,-54.4374,-1211.36,10738.5,-1902.19,2.23244,-11.1965,-99.183,3923.28,-4920.13,8531.89,19.0211,-7.98438,-39.0362,-5199.92,-17101.3,-205.47,-138.992,34.0883,-301.425,8515.2,-678.75,-53.0938,-12.0508,-32.9665,-2.34221,-2062.14,-7010.88,-823.849,-38.246,-57.6707,-111.385
1.848,9047.78,4029.78,9190.15,41.5683,58.0665,-138.739,-1457.69,8818.5,-2695.09,65.5868,-12.5929,-55.1814,-1281.52,10767.2,-1877.96,2.30376,-12.0607,-99.0548,3992.02,-4904.55,8553.96,18.6322,-8.26431,-39.3807,-5412.95,-17060.9,-117.508,-138.773,34.8867,-300.747,8498.46,-688.138,-108.309,-12.0147,-33.8394,-2.14588,-1828.89,-6962.34,-755.917,-41.2045,-54.1353,-111.295
1.849,9249.04,3810.99,9178.32,43.0314,50.9907,-140.182,-1570.75,8826.92,-2690.83,66.1329,-12.5064,-55.9225,-1348.91,10794.8,-1852.39,2.38877,-12.9472,-98.9166,4051.52,-4887.45,8572.1,18.2354,-8.56095,-39.6924,-5627.0,-17022.7,-27.2324,-138.506,35.7469,-300.068,8482.9,-696.981,-159.731,-11.9741,-34.7154,-1.95747,-1594.11,-6913.09,-686.695,-44.1765,-50.5279,-111.214
1.85,9611.75,3667.35,9156.21,45.1942,44.7897,-141.384,-1687.62,8919.15,-2688.67,66.5216,-12.4857,-56.641,-1394.08,10813.7,-1816.17,2.58335,-14.0114,-98.6994,4037.11,-4858.1,8558.71,17.7751,-8.99117,-39.7418,-5849.17,-17002.5,81.5454,-137.854,37.1002,-299.387,8476.72,-701.461,-180.807,-11.8969,-35.6167,-1.83245,-1347.04,-6858.22,-607.138,-47.2575,-46.3449,-111.197
1.851,9974.47,3523.71,9134.1,47.3571,38.5886,-142.586,-1804.49,9011.38,-2686.52,66.9103,-12.465,-57.3595,-1439.25,10832.6,-1779.95,2.77792,-15.0756,-98.4822,4022.7,-4828.76,8545.32,17.3149,-9.42139,-39.7911,-6071.34,-16982.3,190.323,-137.201,38.4535,-298.706,8470.54,-705.94,-201.883,-11.8197,-36.5181,-1.70744,-1099.97,-6803.36,-527.581,-50.3385,-42.162,-111.18
1.852,10337.2,3380.07,9112.0,49.5199,32.3875,-143.787,-1921.36,9103.61,-2684.36,67.2989,-12.4443,-58.0779,-1484.42,10851.5,-1743.73,2.97249,-16.1398,-98.265,4008.3,-4799.42,8531.93,16.8547,-9.85162,-39.8404,-6293.52,-16962.2,299.101,-136.549,39.8068,-298.025,8464.36,-710.42,-222.96,-11.7426,-37.4195,-1.58242,-852.906,-6748.49,-448.025,-53.4195,-37.9791,-111.162
1.853,10699.9,3236.43,9089.88,51.6827,26.1864,-144.989,-2038.23,9195.85,-2682.21,67.6876,-12.4235,-58.7964,-1529.59,10870.3,-1707.5,3.16707,-17.2041,-98.0477,3993.89,-4770.08,8518.55,16.3945,-10.2818,-39.8898,-6515.69,-16942.0,407.879,-135.896,41.1601,-297.344,8458.18,-714.899,-244.036,-11.6654,-38.3208,-1.45741,-605.839,-6693.62,-368.468,-56.5005,-33.7962,-111.145
1.854,11224.7,3081.57,9063.8,53.4855,20.4877,-146.69,-2127.19,9219.01,-2619.21,68.1353,-12.806,-59.4201,-1578.15,10901.5,-1674.76,3.28942,-18.5029,-97.8999,3995.96,-4755.56,8543.08,15.8691,-10.7713,-40.0635,-6787.79,-16919.2,509.0,-135.142,42.5549,-296.603,8449.3,-693.47,-295.721,-11.6271,-39.2239,-1.35336,-391.909,-6669.42,-285.242,-59.1563,-29.7327,-110.916
1.855,11830.5,2921.09,9035.74,55.1082,15.0402,-148.642,-2202.19,9207.64,-2525.8,68.6124,-13.3901,-59.9965,-1628.4,10938.7,-1643.75,3.37566,-19.9191,-97.7867,4006.26,-4748.45,8586.58,15.3111,-11.2904,-40.2995,-7084.85,-16895.2,606.293,-134.336,43.9704,-295.832,8439.07,-659.085,-362.711,-11.6084,-40.1277,-1.25978,-194.547,-6660.55,-200.182,-61.5994,-25.7291,-110.581
1.856,12436.2,2760.62,9007.67,56.7309,9.59272,-150.594,-2277.19,9196.27,-2432.39,69.0896,-13.9742,-60.5728,-1678.64,10975.9,-1612.74,3.46191,-21.3353,-97.6735,4016.56,-4741.34,8630.08,14.7531,-11.8095,-40.5355,-7381.9,-16871.1,703.586,-133.53,45.386,-295.061,8428.83,-624.701,-429.701,-11.5896,-41.0316,-1.16621,2.81448,-6651.68,-115.121,-64.0426,-21.7254,-110.245
1.857,13042.0,2600.15,8979.61,58.3535,4.14521,-152.546,-2352.19,9184.9,-2338.98,69.5667,-14.5582,-61.1491,-1728.89,11013.2,-1581.73,3.54815,-22.7515,-97.5604,4026.86,-4734.23,8673.58,14.1951,-12.3285,-40.7716,-7678.96,-16847.0,800.878,-132.724,46.8015,-294.29,8418.6,-590.317,-496.691,-11.5708,-41.9355,-1.07263,200.176,-6642.81,-30.0609,-66.4857,-17.7217,-109.91
1.858,13679.7,2434.32,8935.87,59.6583,-1.01066,-154.63,-2427.58,9191.61,-2257.61,70.1117,-15.1713,-61.6699,-1771.43,11045.4,-1547.45,3.618,-24.149,-97.4881,4028.99,-4720.23,8714.7,13.6546,-12.8735,-40.9904,-7970.22,-16826.3,912.401,-131.907,48.1523,-293.378,8413.24,-559.576,-562.68,-11.5871,-42.7772,-0.963208,394.662,-6630.52,50.7897,-68.6364,-13.896,-109.452
1.859,14428.8,2249.75,8837.26,59.8504,-5.14581,-157.176,-2504.32,9261.62,-2218.34,70.8939,-15.8858,-61.9963,-1787.03,11059.9,-1501.74,3.63046,-25.4815,-97.559,4002.48,-4682.07,8747.46,13.1754,-13.5089,-41.149,-8241.17,-16817.4,1073.73,-131.051,49.2765,-291.97,8424.93,-541.589,-625.165,-11.7263,-43.4009,-0.798314,579.083,-6606.25,116.906,-69.7632,-10.693,-108.565
