Time,RFoot_accel.x,RFoot_accel.y,RFoot_accel.z,RFoot_gyro.x,RFoot_gyro.y,RFoot_gyro.z,LFoot_accel.x,LFoot_accel.y,LFoot_accel.z,LFoot_gyro.x,LFoot_gyro.y,LFoot_gyro.z,RShank_accel.x,RShank_accel.y,RShank_accel.z,RShank_gyro.x,RShank_gyro.y,RShank_gyro.z,LShank_accel.x,LShank_accel.y,LShank_accel.z,LShank_gyro.x,LShank_gyro.y,LShank_gyro.z,RThigh_accel.x,RThigh_accel.y,RThigh_accel.z,RThigh_gyro.x,RThigh_gyro.y,RThigh_gyro.z,LThigh_accel.x,LThigh_accel.y,LThigh_accel.z,LThigh_gyro.x,LThigh_gyro.y,LThigh_gyro.z,Pelvis_accel.x,Pelvis_accel.y,Pelvis_accel.z,Pelvis_gyro.x,Pelvis_gyro.y,Pelvis_gyro.z
1.71,2363.28,11248.7,6919.35,79.1809,-520.025,289.661,-2468.12,12403.2,-773.082,134.197,-39.995,-91.8486,68.7722,12495.9,370.583,5.27852,17.8489,-54.2053,5070.42,-1118.7,9764.19,-19.5719,1.63124,9.51178,4357.49,-15487.1,-5779.59,52.7781,-141.699,167.353,13079.7,-1483.69,4346.6,-12.042,19.3399,37.2875,-5697.04,-12842.6,6153.81,93.3082,-121.517,-60.9423
1.711,2262.91,11182.6,7063.08,81.3077,-522.707,292.991,-2502.23,13049.9,-1091.26,136.938,-40.3492,-92.94,64.3141,12388.5,239.992,6.88034,19.348,-52.7606,5175.26,-1119.85,9664.61,-21.5573,1.18007,10.1838,4607.83,-15304.8,-5758.73,52.9082,-140.031,166.233,12953.4,-1307.87,4339.33,-11.5185,21.5246,36.6997,-5884.53,-12719.8,5943.86,93.3954,-124.848,-63.155
1.712,2110.82,10590.9,7238.88,84.6565,-526.98,294.78,-2558.92,13746.7,-1402.38,137.728,-38.6564,-93.0545,-35.5973,12278.3,168.13,8.34379,20.2723,-50.8478,5083.68,-1177.39,9597.13,-23.2605,0.758466,10.4868,4946.79,-15187.8,-5398.18,53.1392,-139.95,164.541,12806.0,-1113.26,4327.32,-11.0055,23.2991,35.8941,-6057.81,-12598.6,5657.34,92.8566,-128.009,-65.3029
1.713,1952.28,9933.5,7418.69,88.1581,-531.452,296.377,-2618.42,14449.8,-1712.61,138.274,-36.7076,-93.0469,-147.44,12167.7,103.609,9.78994,21.1247,-48.8764,4967.55,-1241.99,9533.66,-24.9285,0.340552,10.7437,5296.84,-15079.0,-4995.17,53.3827,-140.067,162.778,12655.9,-916.308,4314.72,-10.4937,25.0223,35.0612,-6229.32,-12477.5,5361.24,92.2394,-131.148,-67.4427
1.714,1793.73,9276.07,7598.5,91.6597,-535.924,297.974,-2677.92,15152.9,-2022.85,138.819,-34.7589,-93.0393,-259.284,12057.2,39.0886,11.2361,21.9772,-46.9051,4851.41,-1306.59,9470.2,-26.5964,-0.0773617,11.0007,5646.88,-14970.1,-4592.16,53.6263,-140.184,161.015,12505.8,-719.354,4302.12,-9.98202,26.7455,34.2284,-6400.83,-12356.5,5065.14,91.6223,-134.288,-69.5825
1.715,1635.18,8618.65,7778.31,95.1613,-540.396,299.57,-2737.43,15856.0,-2333.09,139.365,-32.8102,-93.0316,-371.127,11946.6,-25.4322,12.6823,22.8296,-44.9337,4735.28,-1371.18,9406.73,-28.2643,-0.495275,11.2576,5996.92,-14861.3,-4189.15,53.8699,-140.301,159.251,12355.7,-522.4,4289.52,-9.4703,28.4687,33.3955,-6572.34,-12235.4,4769.04,91.0052,-137.427,-71.7223
1.716,1606.87,7793.69,7815.56,99.6891,-546.191,300.048,-2822.69,16468.3,-2651.27,138.092,-30.04,-92.5093,-457.744,11847.4,-55.7444,13.8924,22.7941,-43.1726,4616.71,-1444.49,9348.66,-29.8271,-0.784126,11.4136,6255.86,-14726.7,-3682.0,54.8751,-141.717,157.622,12207.1,-317.265,4280.29,-8.83925,29.9845,32.4082,-6712.45,-12097.8,4464.16,90.17,-140.736,-73.8007
1.717,1741.36,6759.3,7674.63,105.5,-553.64,299.127,-2940.17,16967.1,-2979.37,134.543,-26.243,-91.3434,-512.829,11762.4,-43.2957,14.8074,21.6486,-41.6744,4495.11,-1528.67,9297.34,-31.2585,-0.911649,11.4434,6400.92,-14559.7,-3044.68,56.8322,-144.756,156.162,12060.3,-101.906,4275.26,-8.05906,31.241,31.2279,-6813.33,-11939.6,4148.29,89.0621,-144.256,-75.8023
1.718,1875.84,5724.92,7533.7,111.31,-561.09,298.206,-3057.64,17465.8,-3307.47,130.995,-22.446,-90.1775,-567.914,11677.3,-30.8471,15.7224,20.5032,-40.1762,4373.5,-1612.85,9246.02,-32.6898,-1.03917,11.4732,6545.99,-14392.7,-2407.36,58.7893,-147.795,154.702,11913.5,113.453,4270.23,-7.27886,32.4976,30.0476,-6914.2,-11781.4,3832.43,87.9542,-147.776,-77.8039
1.719,2010.33,4690.54,7392.77,117.121,-568.539,297.285,-3175.11,17964.6,-3635.56,127.446,-18.649,-89.0117,-622.999,11592.3,-18.3984,16.6375,19.3577,-38.678,4251.89,-1697.03,9194.7,-34.1212,-1.16669,11.503,6691.05,-14225.7,-1770.04,60.7464,-150.834,153.241,11766.7,328.813,4265.19,-6.49867,33.7541,28.8673,-7015.08,-11623.3,3516.57,86.8463,-151.297,-79.8055
1.72,2144.81,3656.15,7251.84,122.931,-575.988,296.364,-3292.58,18463.4,-3963.66,123.898,-14.852,-87.8458,-678.084,11507.3,-5.94973,17.5525,18.2123,-37.1798,4130.29,-1781.21,9143.38,-35.5525,-1.29422,11.5328,6836.11,-14058.7,-1132.71,62.7035,-153.874,151.781,11619.8,544.172,4260.16,-5.71847,35.0107,27.687,-7115.95,-11465.1,3200.7,85.7384,-154.817,-81.8071
1.721,2485.52,3098.01,7536.4,130.42,-583.718,293.923,-3357.34,18654.3,-4037.25,119.058,-12.1335,-86.2156,-704.106,11433.0,75.1123,18.148,15.6442,-36.3739,4061.39,-1890.37,9169.47,-36.8114,-1.3502,11.6005,6563.4,-13897.7,-597.008,66.548,-156.423,151.278,11445.3,693.559,4318.37,-5.09889,36.1262,26.5147,-7153.58,-11354.3,2869.62,84.3288,-158.898,-83.6241
1.722,2826.22,2539.86,7820.96,137.909,-591.447,291.481,-3422.1,18845.1,-4110.84,114.218,-9.415,-84.5854,-730.128,11358.8,156.174,18.7434,13.076,-35.568,3992.5,-1999.53,9195.56,-38.0703,-1.40619,11.6682,6290.69,-13736.6,-61.3008,70.3926,-158.972,150.775,11270.7,842.947,4376.58,-4.4793,37.2417,25.3423,-7191.21,-11243.6,2538.54,82.9193,-162.978,-85.441
1.723,3166.92,1981.72,8105.52,145.397,-599.177,289.039,-3486.87,19036.0,-4184.42,109.378,-6.69649,-82.9552,-756.15,11284.6,237.236,19.3389,10.5079,-34.762,3923.61,-2108.69,9221.65,-39.3292,-1.46218,11.7359,6017.97,-13575.5,474.406,74.2372,-161.521,150.273,11096.1,992.334,4434.79,-3.85971,38.3572,24.17,-7228.84,-11132.8,2207.45,81.5097,-167.059,-87.258
1.724,3507.62,1423.57,8390.08,152.886,-606.907,286.597,-3551.63,19226.9,-4258.01,104.538,-3.97799,-81.325,-782.171,11210.3,318.299,19.9344,7.93982,-33.9561,3854.71,-2217.85,9247.74,-40.5881,-1.51817,11.8036,5745.26,-13414.5,1010.11,78.0818,-164.07,149.77,10921.6,1141.72,4493.0,-3.24013,39.4727,22.9976,-7266.48,-11022.1,1876.37,80.1001,-171.139,-89.075
1.725,4248.92,1495.08,8557.5,164.645,-612.672,282.508,-3562.97,19259.4,-4287.24,100.113,-2.36935,-80.5545,-808.455,11171.7,349.563,20.6197,5.17779,-33.2,3844.53,-2304.75,9257.66,-41.8384,-1.72178,11.9638,5345.39,-13254.3,1506.73,81.2377,-165.916,149.926,10742.2,1227.55,4544.17,-2.77728,40.4344,21.8947,-7261.39,-10918.9,1514.82,78.4723,-175.057,-90.8252
1.726,5310.7,2070.31,8631.2,179.819,-616.866,277.103,-3531.57,19165.1,-4280.99,96.0215,-1.64861,-80.4717,-834.947,11161.6,340.989,21.377,2.26064,-32.4839,3881.31,-2373.85,9254.64,-43.0817,-2.04348,12.198,4843.8,-13094.7,1972.07,83.8428,-167.199,150.608,10559.1,1262.52,4589.69,-2.43983,41.273,20.8473,-7222.13,-10821.6,1128.91,76.6699,-178.845,-92.522
1.727,6372.48,2645.54,8704.9,194.993,-621.061,271.698,-3500.17,19070.8,-4274.73,91.9295,-0.927863,-80.3888,-861.439,11151.5,332.414,22.1343,-0.656509,-31.7678,3918.09,-2442.95,9251.63,-44.325,-2.36518,12.4321,4342.2,-12935.2,2437.41,86.4479,-168.482,151.29,10375.9,1297.5,4635.21,-2.10239,42.1116,19.7999,-7182.88,-10724.4,742.996,74.8675,-182.632,-94.2188
1.728,7434.27,3220.77,8778.61,210.168,-625.255,266.292,-3468.77,18976.5,-4268.48,87.8375,-0.207121,-80.306,-887.932,11141.4,323.84,22.8916,-3.57366,-31.0517,3954.87,-2512.05,9248.62,-45.5683,-2.68688,12.6663,3840.61,-12775.6,2902.74,89.0529,-169.765,151.972,10192.8,1332.47,4680.73,-1.76494,42.9503,18.7525,-7143.62,-10627.2,357.082,73.0652,-186.42,-95.9155
1.729,8559.65,3799.28,8793.28,224.886,-628.883,260.268,-3425.76,18871.3,-4246.08,83.9265,0.459936,-80.2451,-910.313,11122.9,315.961,23.632,-6.47763,-30.3343,3983.4,-2575.73,9245.92,-46.8159,-2.99512,12.9185,3323.58,-12608.4,3331.41,91.4182,-170.882,152.775,10010.1,1362.81,4722.21,-1.46169,43.776,17.6939,-7096.6,-10535.9,-18.7483,71.239,-190.113,-97.6294
1.73,10193.8,4404.0,8335.74,235.951,-627.987,249.287,-3289.84,18678.6,-4094.48,81.4623,0.697506,-80.359,-899.804,11037.0,313.637,24.2367,-9.27616,-29.6071,3945.9,-2596.09,9245.72,-48.0971,-3.19575,13.3144,2683.05,-12379.5,3466.65,91.8647,-170.666,154.541,9831.5,1356.04,4731.31,-1.43208,44.4984,16.5458,-6987.47,-10491.1,-313.915,69.222,-193.054,-99.4797
1.731,11828.0,5008.73,7878.2,247.015,-627.091,238.307,-3153.93,18485.8,-3942.88,78.9981,0.935077,-80.4729,-889.294,10951.1,311.314,24.8414,-12.0747,-28.8798,3908.41,-2616.44,9245.53,-49.3783,-3.39637,13.7104,2042.52,-12150.7,3601.9,92.3113,-170.45,156.308,9652.88,1349.28,4740.42,-1.40246,45.2207,15.3977,-6878.33,-10446.3,-609.081,67.2051,-195.994,-101.33
1.732,13462.2,5613.45,7420.67,258.08,-626.195,227.326,-3018.01,18293.1,-3791.29,76.534,1.17265,-80.5868,-878.785,10865.2,308.991,25.4461,-14.8732,-28.1526,3870.91,-2636.8,9245.33,-50.6595,-3.59699,14.1064,1401.99,-11921.9,3737.14,92.7579,-170.234,158.075,9474.26,1342.51,4749.52,-1.37285,45.9431,14.2495,-6769.2,-10401.5,-904.247,65.1882,-198.935,-103.18
1.733,15096.4,6218.17,6963.13,269.145,-625.3,216.346,-2882.1,18100.4,-3639.69,74.0698,1.41022,-80.7007,-868.276,10779.3,306.668,26.0508,-17.6718,-27.4253,3833.42,-2657.15,9245.14,-51.9408,-3.79761,14.5024,761.46,-11693.0,3872.39,93.2045,-170.018,159.842,9295.64,1335.74,4758.62,-1.34323,46.6654,13.1014,-6660.07,-10356.7,-1199.41,63.1713,-201.876,-105.031
1.734,16595.0,6894.09,6270.82,271.729,-620.75,202.133,-2717.54,17810.7,-3457.36,72.0402,1.9252,-80.763,-859.34,10699.6,316.567,26.5411,-20.6452,-26.8476,3796.95,-2663.87,9250.97,-53.2102,-3.98452,14.8256,99.2447,-11606.2,3934.63,93.362,-168.876,161.698,9153.62,1298.23,4740.21,-1.56025,47.1979,12.0519,-6486.84,-10358.6,-1348.63,61.3114,-205.084,-107.115
1.735,18025.8,7605.6,5461.14,270.074,-614.374,186.304,-2538.66,17472.7,-3259.67,70.2279,2.57889,-80.7994,-851.192,10622.9,332.579,26.9743,-23.706,-26.3446,3761.0,-2663.77,9259.8,-54.4738,-4.16458,15.1126,-573.813,-11590.4,3960.36,93.3749,-167.27,163.598,9029.91,1245.34,4708.03,-1.90059,47.6354,11.0517,-6281.56,-10383.9,-1424.86,59.5302,-208.425,-109.317
1.736,19456.6,8317.12,4651.45,268.418,-607.998,170.475,-2359.79,17134.6,-3061.98,68.4156,3.23259,-80.8358,-843.044,10546.3,348.59,27.4074,-26.7669,-25.8416,3725.05,-2663.67,9268.64,-55.7374,-4.34464,15.3995,-1246.87,-11574.5,3986.1,93.3878,-165.665,165.499,8906.19,1192.45,4675.85,-2.24092,48.0728,10.0516,-6076.27,-10409.2,-1501.1,57.7489,-211.766,-111.518
1.737,20887.5,9028.63,3841.76,266.762,-601.622,154.647,-2180.91,16796.5,-2864.29,66.6033,3.88628,-80.8723,-834.895,10469.6,364.601,27.8406,-29.8277,-25.3386,3689.11,-2663.57,9277.48,-57.001,-4.52469,15.6865,-1919.93,-11558.7,4011.84,93.4008,-164.06,167.399,8782.48,1139.56,4643.68,-2.58126,48.5103,9.0514,-5870.99,-10434.4,-1577.33,55.9677,-215.108,-113.72
1.738,22214.9,9997.93,3217.19,264.653,-593.91,139.54,-1995.34,16421.7,-2672.19,65.1365,4.5016,-80.8679,-813.866,10387.3,364.244,28.2072,-32.75,-24.8539,3656.62,-2663.01,9274.27,-58.1813,-4.7244,15.9084,-2519.74,-11603.9,4095.5,93.4474,-162.405,169.011,8664.02,1081.39,4607.92,-2.89801,48.8087,8.08569,-5645.89,-10475.1,-1618.21,54.2842,-218.607,-115.987
1.739,23180.6,11869.5,3240.52,260.958,-581.524,126.963,-1786.31,15918.3,-2499.64,64.8787,4.98264,-80.7205,-747.752,10285.4,306.598,28.341,-35.1871,-24.4331,3636.28,-2660.81,9228.88,-59.0704,-4.99286,15.9025,-2863.2,-11862.7,4381.88,93.6121,-160.575,169.614,8563.95,1004.74,4559.61,-3.13219,48.6202,7.24061,-5351.46,-10569.6,-1535.34,52.9432,-222.658,-118.481
1.74,24146.2,13741.1,3263.84,257.262,-569.138,114.386,-1577.28,15414.9,-2327.1,64.6209,5.46368,-80.5731,-681.639,10183.4,248.951,28.4748,-37.6243,-24.0123,3615.93,-2658.62,9183.5,-59.9595,-5.26132,15.8966,-3206.65,-12121.5,4668.26,93.7768,-158.746,170.218,8463.88,928.09,4511.31,-3.36637,48.4317,6.39553,-5057.02,-10664.2,-1452.48,51.6021,-226.709,-120.975
1.741,25111.9,15612.7,3287.17,253.567,-556.752,101.809,-1368.25,14911.6,-2154.55,64.3631,5.94471,-80.4257,-615.525,10081.5,191.305,28.6086,-40.0614,-23.5914,3595.58,-2656.42,9138.12,-60.8486,-5.52978,15.8907,-3550.11,-12380.3,4954.64,93.9416,-156.917,170.821,8363.82,851.441,4463.0,-3.60055,48.2432,5.55045,-4762.58,-10758.7,-1369.62,50.261,-230.759,-123.468
1.742,26077.6,17484.2,3310.49,249.872,-544.366,89.2319,-1159.22,14408.2,-1982.01,64.1054,6.42575,-80.2783,-549.411,9979.53,133.658,28.7424,-42.4985,-23.1706,3575.24,-2654.22,9092.73,-61.7376,-5.79823,15.8848,-3893.57,-12639.1,5241.02,94.1063,-155.087,171.424,8263.75,774.792,4414.7,-3.83473,48.0548,4.70536,-4468.15,-10853.2,-1286.75,48.9199,-234.81,-125.962
1.743,26644.9,18947.6,3332.25,242.782,-526.007,78.845,-980.333,13915.5,-1881.16,65.0329,6.73095,-80.1262,-506.848,9880.58,38.406,28.7433,-44.3056,-22.8216,3597.03,-2683.62,9071.69,-62.7063,-6.09527,16.0963,-3951.92,-12816.7,5089.99,89.9643,-150.129,172.009,8173.31,686.196,4364.21,-4.13006,47.4151,4.10381,-4189.84,-11012.6,-1289.82,47.9183,-237.138,-128.466
1.744,27098.4,20294.2,3353.56,234.722,-505.94,69.0839,-810.062,13425.9,-1800.81,66.2991,6.98592,-79.9726,-471.013,9782.5,-67.591,28.7061,-45.9326,-22.493,3630.86,-2722.04,9057.6,-63.6976,-6.40046,16.3699,-3928.81,-12971.1,4813.98,84.5918,-144.276,172.588,8085.62,594.186,4313.1,-4.44286,46.6466,3.57184,-3916.14,-11190.5,-1317.44,47.0136,-238.973,-130.972
1.745,27551.9,21640.9,3374.87,226.662,-485.874,59.3228,-639.791,12936.3,-1720.45,67.5653,7.24088,-79.8191,-435.178,9684.42,-173.588,28.669,-47.5596,-22.1645,3664.69,-2760.46,9043.51,-64.6889,-6.70566,16.6435,-3905.7,-13125.5,4537.98,79.2193,-138.424,173.167,7997.93,502.177,4261.98,-4.75566,45.8781,3.03986,-3642.44,-11368.5,-1345.06,46.109,-240.809,-133.478
1.746,28005.4,22987.5,3396.18,218.602,-465.808,49.5617,-469.52,12446.6,-1640.1,68.8315,7.49585,-79.6656,-399.343,9586.34,-279.585,28.6319,-49.1867,-21.836,3698.52,-2798.87,9029.43,-65.6803,-7.01085,16.9172,-3882.59,-13279.8,4261.97,73.8468,-132.571,173.746,7910.24,410.167,4210.87,-5.06846,45.1096,2.50789,-3368.74,-11546.4,-1372.68,45.2043,-242.644,-135.983
1.747,28246.0,23653.4,3509.56,208.984,-445.135,38.9038,-310.257,11965.6,-1567.29,70.2564,7.68059,-79.3851,-347.414,9500.74,-393.837,28.4838,-50.5217,-21.4752,3719.42,-2852.93,8998.87,-66.5611,-7.31697,17.1807,-3869.75,-13307.7,3549.1,68.4262,-124.035,174.652,7837.14,314.245,4150.71,-5.39511,44.3481,1.97272,-3117.63,-11748.0,-1411.35,44.3924,-243.265,-138.325
1.748,28060.8,22957.7,3807.07,196.249,-423.248,26.4523,-173.008,11501.8,-1509.57,71.9987,7.72491,-78.8507,-263.294,9440.13,-524.599,28.1137,-51.2729,-21.0499,3714.45,-2938.26,8935.36,-67.2208,-7.62491,17.4242,-3877.46,-13082.4,1962.49,62.9092,-110.131,176.212,7793.25,210.499,4072.45,-5.74944,43.6007,1.43116,-2911.71,-11996.9,-1472.13,43.7661,-241.457,-140.339
1.749,27875.5,22262.1,4104.58,183.514,-401.362,14.0009,-35.7589,11038.1,-1451.85,73.7411,7.76922,-78.3162,-179.175,9379.51,-655.36,27.7436,-52.0241,-20.6246,3709.48,-3023.59,8871.86,-67.8805,-7.93285,17.6677,-3885.17,-12857.2,375.882,57.3923,-96.2268,177.773,7749.35,106.752,3994.2,-6.10378,42.8532,0.8896,-2705.79,-12245.7,-1532.91,43.1398,-239.649,-142.353
1.75,27690.3,21566.4,4402.1,170.78,-379.475,1.5494,101.49,10574.3,-1394.14,75.4834,7.81353,-77.7818,-95.0554,9318.89,-786.122,27.3735,-52.7753,-20.1993,3704.51,-3108.91,8808.35,-68.5402,-8.24079,17.9112,-3892.88,-12631.9,-1210.73,51.8754,-82.3227,179.333,7705.45,3.00547,3915.94,-6.45812,42.1058,0.34804,-2499.87,-12494.6,-1593.69,42.5135,-237.841,-144.367
1.751,27505.0,20870.7,4699.62,158.045,-357.589,-10.9021,238.739,10110.5,-1336.42,77.2257,7.85784,-77.2474,-10.9359,9258.28,-916.884,27.0035,-53.5264,-19.774,3699.54,-3194.24,8744.85,-69.2,-8.54873,18.1546,-3900.59,-12406.7,-2797.34,46.3584,-68.4185,180.893,7661.55,-100.741,3837.68,-6.81246,41.3584,-0.193521,-2293.95,-12743.4,-1654.47,41.8872,-236.034,-146.381
1.752,26818.2,19501.5,5375.81,150.367,-336.469,-25.049,321.743,9754.34,-1304.0,78.0806,7.96736,-76.2035,102.858,9230.52,-1027.16,26.657,-53.6199,-19.3967,3730.65,-3300.25,8701.13,-69.7513,-8.85668,18.5102,-3958.94,-12432.3,-4082.86,44.4102,-50.6257,180.702,7662.04,-181.596,3779.61,-7.26876,40.9209,-0.895793,-2193.73,-13002.9,-1563.66,41.1032,-232.271,-147.348
1.753,26068.8,18048.1,6099.33,143.321,-315.445,-39.4079,397.967,9411.6,-1274.73,78.8246,8.08503,-75.0959,220.361,9206.86,-1134.88,26.3136,-53.6311,-19.0253,3766.26,-3408.84,8659.87,-70.289,-9.16462,18.8797,-4023.62,-12489.2,-5330.74,42.908,-32.3467,180.293,7668.06,-259.59,3724.07,-7.73781,40.5222,-1.61815,-2106.71,-13263.8,-1453.9,40.2994,-228.263,-148.185
1.754,25319.3,16594.7,6822.86,136.275,-294.421,-53.7668,474.191,9068.86,-1245.47,79.5685,8.2027,-73.9884,337.863,9183.21,-1242.6,25.9701,-53.6423,-18.654,3801.88,-3517.44,8618.62,-70.8268,-9.47256,19.2493,-4088.3,-12546.2,-6578.63,41.4059,-14.0677,179.884,7674.09,-337.584,3668.52,-8.20685,40.1234,-2.34052,-2019.7,-13524.7,-1344.14,39.4956,-224.256,-149.021
1.755,24569.9,15141.3,7546.38,129.229,-273.397,-68.1256,550.414,8726.12,-1216.2,80.3124,8.32037,-72.8809,455.366,9159.56,-1350.32,25.6266,-53.6535,-18.2826,3837.5,-3626.03,8577.37,-71.3646,-9.7805,19.6189,-4152.98,-12603.2,-7826.51,39.9038,4.21128,179.474,7680.12,-415.578,3612.97,-8.67589,39.7247,-3.06288,-1932.68,-13785.5,-1234.38,38.6919,-220.248,-149.858
1.756,23608.1,13916.4,8483.18,123.453,-256.916,-78.7045,629.156,8432.24,-1201.45,80.9692,8.07796,-71.7606,569.813,9146.29,-1460.1,25.2179,-53.2608,-17.9651,3863.6,-3714.57,8523.77,-71.7684,-10.0765,19.9683,-4200.63,-12654.1,-8749.94,38.8614,21.1581,177.728,7691.51,-492.979,3576.58,-9.12048,39.4115,-3.84041,-1910.86,-14068.1,-1071.74,38.4821,-215.765,-150.141
1.757,22381.1,12977.1,9686.57,119.266,-246.114,-84.5584,711.043,8199.44,-1204.82,81.5171,7.38545,-70.6244,680.439,9146.02,-1572.47,24.7275,-52.3631,-17.7149,3877.81,-3778.05,8454.72,-72.0049,-10.3576,20.2925,-4226.98,-12697.6,-9267.79,38.3937,36.4398,174.311,7709.6,-569.64,3564.12,-9.5345,39.2051,-4.68691,-1970.52,-14377.8,-843.0,39.0148,-210.687,-149.732
1.758,21154.1,12037.8,10890.0,115.078,-235.313,-90.4123,792.931,7966.65,-1208.19,82.065,6.69294,-69.4881,791.065,9145.75,-1684.83,24.2372,-51.4654,-17.4648,3892.02,-3841.53,8385.67,-72.2414,-10.6387,20.6167,-4253.33,-12741.1,-9785.64,37.926,51.7215,170.894,7727.69,-646.302,3551.67,-9.94851,38.9987,-5.5334,-2030.19,-14687.5,-614.262,39.5475,-205.608,-149.323
1.759,19927.0,11098.5,12093.4,110.89,-224.511,-96.2661,874.819,7733.85,-1211.56,82.6128,6.00043,-68.3519,901.692,9145.47,-1797.2,23.7468,-50.5677,-17.2146,3906.23,-3905.0,8316.63,-72.4779,-10.9198,20.9409,-4279.68,-12784.6,-10303.5,37.4583,67.0031,167.477,7745.78,-722.963,3539.21,-10.3625,38.7923,-6.3799,-2089.85,-14997.2,-385.524,40.0801,-200.53,-148.914
1.76,18700.0,10159.2,13296.7,106.703,-213.709,-102.12,956.707,7501.05,-1214.93,83.1607,5.30793,-67.2157,1012.32,9145.2,-1909.57,23.2565,-49.67,-16.9645,3920.44,-3968.48,8247.58,-72.7144,-11.2009,21.2651,-4306.04,-12828.1,-10821.3,36.9906,82.2848,164.06,7763.87,-799.624,3526.76,-10.7765,38.5859,-7.2264,-2149.52,-15306.9,-156.786,40.6128,-195.452,-148.505
1.761,16932.6,10415.3,12330.5,99.7995,-201.515,-88.9851,1079.33,7308.95,-1308.68,82.2873,3.87977,-66.8786,1185.05,9181.27,-2031.46,23.047,-47.7082,-16.6309,3860.54,-4041.81,8263.26,-72.7603,-11.563,21.8336,-4142.78,-12583.8,-10771.6,35.1552,90.411,158.726,7766.06,-850.601,3475.19,-10.9969,38.3124,-8.3532,-2134.58,-15571.6,-41.4155,41.42,-190.191,-147.606
1.762,15165.2,10671.4,11364.2,92.8966,-189.321,-75.8502,1201.96,7116.84,-1402.43,81.414,2.45161,-66.5415,1357.78,9217.35,-2153.36,22.8375,-45.7464,-16.2973,3800.64,-4115.15,8278.94,-72.8062,-11.9251,22.4021,-3979.53,-12339.5,-10721.8,33.3198,98.5371,153.392,7768.25,-901.578,3423.62,-11.2172,38.0388,-9.48,-2119.65,-15836.4,73.9553,42.2272,-184.931,-146.707
1.763,13397.8,10927.5,10397.9,85.9936,-177.126,-62.7152,1324.58,6924.74,-1496.17,80.5406,1.02345,-66.2044,1530.51,9253.42,-2275.25,22.628,-43.7846,-15.9637,3740.74,-4188.48,8294.62,-72.8521,-12.2872,22.9705,-3816.28,-12095.2,-10672.0,31.4843,106.663,148.058,7770.44,-952.555,3372.05,-11.4375,37.7652,-10.6068,-2104.72,-16101.1,189.326,43.0344,-179.67,-145.808
1.764,11630.4,11183.6,9431.64,79.0906,-164.932,-49.5803,1447.21,6732.63,-1589.92,79.6673,-0.404713,-65.8674,1703.24,9289.5,-2397.14,22.4185,-41.8228,-15.6301,3680.84,-4261.81,8310.3,-72.898,-12.6493,23.539,-3653.02,-11850.9,-10622.2,29.6489,114.789,142.724,7772.63,-1003.53,3320.48,-11.6578,37.4917,-11.7336,-2089.78,-16365.8,304.697,43.8416,-174.41,-144.909
1.765,9929.33,11699.0,9186.2,70.4214,-153.337,-35.2268,1546.37,6608.38,-1677.31,77.9929,-1.97217,-65.3506,1838.27,9330.5,-2493.48,22.3308,-39.6034,-15.1459,3646.31,-4372.18,8302.24,-72.9189,-12.9812,24.0157,-3578.84,-11660.0,-10209.8,27.3021,118.899,136.783,7772.65,-1042.24,3257.76,-12.1723,37.2021,-12.9547,-1995.8,-16578.1,270.486,43.6119,-169.091,-143.795
1.766,8281.27,12421.9,9517.43,60.3391,-142.221,-19.8984,1626.77,6538.43,-1759.6,75.6777,-3.65105,-64.6902,1943.14,9375.45,-2569.36,22.3407,-37.178,-14.5411,3632.08,-4512.18,8275.18,-72.9197,-13.2888,24.419,-3575.9,-11511.8,-9507.27,24.5462,119.795,130.356,7770.92,-1071.14,3186.11,-12.9222,36.8998,-14.2511,-1838.58,-16748.5,116.611,42.5527,-163.727,-142.509
1.767,6633.2,13144.8,9848.66,50.2569,-131.105,-4.57001,1707.17,6468.47,-1841.9,73.3625,-5.32994,-64.0298,2048.01,9420.4,-2645.25,22.3506,-34.7526,-13.9364,3617.85,-4652.18,8248.12,-72.9205,-13.5964,24.8223,-3572.97,-11363.6,-8804.74,21.7902,120.691,123.929,7769.2,-1100.04,3114.46,-13.6722,36.5975,-15.5476,-1681.36,-16918.9,-37.2638,41.4934,-158.363,-141.223
1.768,4985.13,13867.6,10179.9,40.1746,-119.989,10.7584,1787.57,6398.51,-1924.19,71.0473,-7.00883,-63.3693,2152.88,9465.35,-2721.13,22.3605,-32.3272,-13.3316,3603.62,-4792.19,8221.06,-72.9213,-13.904,25.2255,-3570.04,-11215.4,-8102.2,19.0343,121.588,117.502,7767.47,-1128.94,3042.81,-14.4221,36.2951,-16.844,-1524.14,-17089.3,-191.139,40.4342,-152.998,-139.937
1.769,3467.19,14448.3,10544.4,31.4381,-108.724,24.109,1874.0,6340.12,-2004.43,68.772,-8.71402,-62.7365,2254.37,9510.7,-2791.96,22.3369,-29.8951,-12.7312,3590.85,-4915.07,8195.74,-72.9256,-14.2073,25.6092,-3612.23,-11051.2,-7440.25,16.3171,122.099,111.201,7773.89,-1157.53,2974.48,-15.1923,36.0188,-18.1211,-1363.84,-17255.8,-350.107,39.3169,-147.624,-138.658
1.77,2990.22,13891.6,11175.0,33.4676,-96.263,21.6378,2008.66,6374.26,-2068.15,66.8168,-10.6296,-62.3245,2328.8,9559.22,-2822.37,22.0453,-27.4092,-12.1652,3589.68,-4901.07,8184.32,-72.9581,-14.4762,25.8362,-4015.34,-10759.0,-7102.97,13.9099,119.536,105.91,7845.47,-1183.69,2932.71,-16.1253,35.9501,-19.2429,-1178.94,-17390.3,-549.821,37.7352,-142.166,-137.441
1.771,2513.25,13334.8,11805.6,35.4971,-83.8023,19.1666,2143.33,6408.4,-2131.87,64.8615,-12.5452,-61.9124,2403.23,9607.74,-2852.77,21.7537,-24.9233,-11.5992,3588.52,-4887.07,8172.9,-72.9905,-14.7451,26.0632,-4418.45,-10466.7,-6765.68,11.5028,116.973,100.619,7917.04,-1209.85,2890.94,-17.0583,35.8815,-20.3647,-994.04,-17524.9,-749.534,36.1534,-136.708,-136.223
1.772,2036.28,12778.1,12436.1,37.5266,-71.3415,16.6954,2278.0,6442.54,-2195.59,62.9062,-14.4608,-61.5003,2477.66,9656.26,-2883.18,21.4621,-22.4374,-11.0332,3587.35,-4873.06,8161.48,-73.023,-15.014,26.2901,-4821.56,-10174.5,-6428.4,9.09562,114.409,95.3282,7988.62,-1236.02,2849.17,-17.9913,35.8128,-21.4866,-809.141,-17659.5,-949.247,34.5717,-131.25,-135.005
1.773,1559.31,12221.3,13066.7,39.5561,-58.8807,14.2242,2412.67,6476.68,-2259.31,60.951,-16.3764,-61.0882,2552.09,9704.78,-2913.58,21.1706,-19.9515,-10.4672,3586.19,-4859.06,8150.06,-73.0555,-15.2829,26.5171,-5224.67,-9882.25,-6091.11,6.68846,111.846,90.0371,8060.2,-1262.18,2807.4,-18.9243,35.7441,-22.6084,-624.241,-17794.1,-1148.96,32.99,-125.793,-133.787
1.774,2295.25,12512.5,13040.4,38.0188,-44.3505,12.5699,2503.84,6478.27,-2319.75,59.6429,-17.9487,-61.1848,2541.7,9751.25,-2930.01,20.9165,-17.3638,-9.90354,3643.04,-4850.4,8113.88,-72.9159,-15.3683,26.8063,-5548.83,-9485.54,-6012.82,4.74215,108.421,85.8014,8150.06,-1297.14,2770.07,-19.9705,35.5845,-23.3765,-433.406,-17885.0,-1317.78,31.6114,-120.467,-133.134
1.775,3637.64,13227.5,12685.6,34.698,-28.7857,11.324,2573.27,6463.58,-2378.55,58.6584,-19.3493,-61.5356,2488.9,9796.69,-2939.46,20.6812,-14.7252,-9.34103,3728.9,-4844.41,8065.32,-72.6904,-15.3618,27.1265,-5833.53,-9036.6,-6064.04,3.02627,104.565,82.0933,8249.06,-1336.49,2734.96,-21.0734,35.3795,-23.9676,-239.601,-17954.1,-1471.16,30.3344,-115.209,-132.764
1.776,4980.04,13942.6,12330.8,31.3773,-13.2208,10.0782,2642.69,6448.9,-2437.35,57.6739,-20.7498,-61.8865,2436.1,9842.13,-2948.91,20.4459,-12.0866,-8.77852,3814.75,-4838.43,8016.77,-72.465,-15.3554,27.4468,-6118.23,-8587.66,-6115.25,1.31039,100.709,78.3852,8348.06,-1375.85,2699.84,-22.1763,35.1745,-24.5588,-45.7971,-18023.3,-1624.53,29.0574,-109.95,-132.394
1.777,6322.43,14657.7,11976.1,28.0565,2.34404,8.83233,2712.12,6434.21,-2496.15,56.6893,-22.1504,-62.2373,2383.3,9887.57,-2958.36,20.2106,-9.44802,-8.21601,3900.61,-4832.44,7968.21,-72.2394,-15.349,27.7671,-6402.92,-8138.71,-6166.46,-0.405498,96.8537,74.6771,8447.06,-1415.21,2664.73,-23.2791,34.9694,-25.15,148.007,-18092.4,-1777.9,27.7804,-104.691,-132.024
1.778,7634.0,15261.5,11670.8,23.359,18.6368,6.5772,2764.31,6432.17,-2545.23,55.898,-23.4571,-62.6023,2322.58,9930.7,-2965.23,19.9714,-6.87873,-7.63271,3986.29,-4829.1,7934.34,-72.0035,-15.4241,28.135,-6563.61,-7747.73,-6183.63,-2.27776,92.8014,70.8953,8518.06,-1458.72,2626.59,-24.3243,34.6199,-25.7068,333.543,-18141.5,-1921.03,26.6441,-99.4733,-131.785
1.779,8837.72,15476.0,11538.6,13.843,37.4771,0.789636,2756.17,6474.35,-2560.31,55.7828,-24.4352,-63.0168,2234.15,9965.74,-2963.07,19.7186,-4.55202,-6.97664,4071.36,-4835.05,7951.87,-71.7308,-15.785,28.67,-6290.26,-7559.61,-6081.69,-4.69732,88.0612,66.8558,8491.05,-1516.77,2577.84,-25.1674,33.765,-26.143,490.142,-18120.7,-2028.28,25.9999,-94.3999,-132.007
1.78,10041.4,15690.6,11406.4,4.32691,56.3174,-4.99793,2748.03,6516.54,-2575.38,55.6677,-25.4132,-63.4313,2145.71,10000.8,-2960.9,19.4658,-2.22531,-6.32056,4156.42,-4840.99,7969.4,-71.4581,-16.1458,29.2051,-6016.92,-7371.5,-5979.74,-7.11689,83.321,62.8164,8464.04,-1574.82,2529.09,-26.0104,32.9101,-26.5792,646.741,-18099.8,-2135.53,25.3558,-89.3266,-132.229
1.781,11245.1,15905.1,11274.2,-5.18915,75.1578,-10.7855,2739.9,6558.73,-2590.45,55.5525,-26.3912,-63.8457,2057.28,10035.8,-2958.74,19.2129,0.1014,-5.66448,4241.48,-4846.93,7986.93,-71.1853,-16.5066,29.7401,-5743.58,-7183.38,-5877.8,-9.53646,78.5808,58.7769,8437.03,-1632.87,2480.34,-26.8535,32.0552,-27.0154,803.34,-18078.9,-2242.78,24.7117,-84.2532,-132.451
1.782,12448.9,16119.7,11142.1,-14.7052,93.9981,-16.5731,2731.76,6600.92,-2605.52,55.4373,-27.3693,-64.2602,1968.85,10070.9,-2956.57,18.9601,2.42811,-5.0084,4326.54,-4852.87,8004.46,-70.9126,-16.8674,30.2751,-5470.23,-6995.26,-5775.85,-11.956,73.8406,54.7374,8410.02,-1690.92,2431.59,-27.6966,31.2003,-27.4517,959.939,-18058.0,-2350.03,24.0675,-79.1798,-132.673
1.783,12432.5,15655.8,10916.0,-23.3195,108.89,-24.6627,2662.28,6730.86,-2626.53,55.8253,-27.8302,-64.686,1848.15,10093.3,-2934.43,18.6062,4.37217,-4.46488,4369.42,-4875.59,7973.78,-70.4556,-17.2041,30.8414,-4959.64,-6994.71,-5767.69,-13.6286,71.3962,49.7456,8387.49,-1710.68,2356.42,-28.0649,30.0116,-28.2499,1063.66,-17984.0,-2412.79,23.8151,-74.1836,-133.317
1.784,12067.6,14998.1,10663.1,-31.6761,122.654,-33.41,2575.28,6885.86,-2649.24,56.3571,-28.1433,-65.1151,1718.23,10112.2,-2906.58,18.2234,6.2069,-3.95352,4400.24,-4903.11,7929.33,-69.9459,-17.5338,31.4166,-4381.26,-7047.75,-5786.31,-15.0878,69.6077,44.4818,8366.24,-1719.5,2273.7,-28.2975,28.7277,-29.1516,1152.27,-17894.8,-2462.83,23.6746,-69.2094,-134.081
1.785,11702.8,14340.4,10410.2,-40.0327,136.418,-42.1574,2488.28,7040.86,-2671.94,56.8889,-28.4565,-65.5441,1588.31,10131.0,-2878.73,17.8407,8.04163,-3.44216,4431.05,-4930.62,7884.87,-69.4362,-17.8636,31.9918,-3802.88,-7100.8,-5804.94,-16.5471,67.8192,39.2179,8344.99,-1728.32,2190.98,-28.5302,27.4437,-30.0534,1240.88,-17805.6,-2512.88,23.5342,-64.2352,-134.845
1.786,11337.9,13682.6,10157.3,-48.3894,150.182,-50.9047,2401.28,7195.86,-2694.65,57.4207,-28.7697,-65.9731,1458.39,10149.9,-2850.87,17.4579,9.87635,-2.9308,4461.87,-4958.14,7840.42,-68.9265,-18.1934,32.567,-3224.5,-7153.84,-5823.56,-18.0063,66.0308,33.954,8323.74,-1737.15,2108.26,-28.7628,26.1597,-30.9551,1329.49,-17716.4,-2562.92,23.3937,-59.261,-135.609
1.787,10644.3,13088.2,9932.0,-55.1912,162.624,-57.394,2312.05,7376.89,-2677.79,58.0862,-29.2177,-66.3925,1336.97,10162.2,-2814.93,17.069,11.3833,-2.49774,4474.97,-4990.86,7817.35,-68.484,-18.5512,33.1453,-2675.14,-7193.85,-5845.02,-19.1972,65.1332,28.3797,8337.21,-1720.84,2049.95,-29.0651,24.9508,-31.8944,1387.24,-17609.8,-2595.02,23.3474,-54.3023,-136.503
1.788,9293.21,12620.2,9761.9,-58.8836,172.421,-59.3672,2218.37,7609.96,-2581.82,59.0193,-29.9356,-66.7925,1232.54,10161.3,-2762.79,16.6679,12.2348,-2.22129,4452.63,-5034.0,7837.06,-68.1759,-18.965,33.7301,-2183.82,-7207.8,-5872.12,-19.8516,66.0172,22.1845,8420.12,-1654.29,2040.47,-29.507,23.8918,-32.909,1383.26,-17468.5,-2591.22,23.4896,-49.3745,-137.656
1.789,7942.17,12152.3,9591.79,-62.576,182.217,-61.3404,2124.68,7843.02,-2485.86,59.9524,-30.6535,-67.1924,1128.12,10160.4,-2710.66,16.2669,13.0863,-1.94483,4430.29,-5077.13,7856.76,-67.8677,-19.3788,34.3148,-1692.51,-7221.75,-5899.22,-20.5061,66.9013,15.9893,8503.03,-1587.74,2030.98,-29.9489,22.8327,-33.9236,1379.29,-17327.1,-2587.41,23.6319,-44.4467,-138.809
1.79,6591.13,11684.3,9421.68,-66.2684,192.014,-63.3135,2030.99,8076.09,-2389.89,60.8855,-31.3714,-67.5924,1023.69,10159.5,-2658.52,15.8658,13.9378,-1.66837,4407.95,-5120.26,7876.47,-67.5596,-19.7926,34.8996,-1201.2,-7235.69,-5926.32,-21.1605,67.7854,9.79412,8585.93,-1521.19,2021.5,-30.3907,21.7737,-34.9382,1375.31,-17185.7,-2583.61,23.7741,-39.5189,-139.962
1.791,5240.09,11216.3,9251.57,-69.9608,201.811,-65.2867,1937.3,8309.16,-2293.92,61.8186,-32.0893,-67.9924,919.271,10158.6,-2606.38,15.4647,14.7892,-1.39191,4385.61,-5163.39,7896.18,-67.2515,-20.2064,35.4843,-709.883,-7249.64,-5953.42,-21.815,68.6694,3.59892,8668.84,-1454.64,2012.02,-30.8326,20.7147,-35.9528,1371.33,-17044.3,-2579.81,23.9163,-34.5911,-141.115
1.792,4105.55,10520.3,9397.07,-69.3248,209.298,-63.5692,1781.14,8499.05,-2241.32,61.2588,-32.7614,-68.0151,862.717,10124.7,-2547.22,15.0079,14.9294,-1.42035,4363.24,-5167.73,7887.95,-66.8702,-20.6443,36.0274,-419.058,-7179.18,-5821.67,-22.7018,68.4008,-2.52646,8790.58,-1383.24,2003.87,-31.5227,20.0643,-36.7282,1298.95,-16813.4,-2549.62,24.1078,-29.9893,-142.121
1.793,2998.08,9795.7,9582.02,-68.1478,216.497,-61.3904,1617.18,8683.54,-2194.15,60.5123,-33.4277,-67.9906,812.146,10086.7,-2487.17,14.5442,14.9806,-1.48691,4340.87,-5167.21,7876.22,-66.4797,-21.0853,36.5653,-153.295,-7098.16,-5670.06,-23.6178,67.988,-8.64311,8917.17,-1311.23,1995.88,-32.2438,19.465,-37.4736,1218.01,-16571.3,-2516.13,24.3056,-25.4284,-143.108
1.794,1890.61,9071.12,9766.97,-66.9707,223.695,-59.2117,1453.21,8868.04,-2146.97,59.7658,-34.094,-67.9662,761.576,10048.7,-2427.13,14.0804,15.0318,-1.55346,4318.5,-5166.7,7864.5,-66.0892,-21.5262,37.1032,112.469,-7017.15,-5518.45,-24.5337,67.5753,-14.7598,9043.76,-1239.23,1987.9,-32.9649,18.8657,-38.219,1137.08,-16329.2,-2482.64,24.5033,-20.8674,-144.095
1.795,783.144,8346.54,9951.92,-65.7937,230.893,-57.0329,1289.25,9052.54,-2099.8,59.0193,-34.7603,-67.9417,711.006,10010.7,-2367.08,13.6166,15.0831,-1.62002,4296.12,-5166.18,7852.77,-65.6987,-21.9672,37.641,378.233,-6936.13,-5366.84,-25.4496,67.1625,-20.8764,9170.35,-1167.23,1979.91,-33.686,18.2664,-38.9644,1056.14,-16087.2,-2449.15,24.7011,-16.3065,-145.083
1.796,22.5873,7694.88,10005.9,-63.0883,236.777,-53.7596,1091.23,9190.86,-2036.91,58.3274,-35.4829,-68.0335,659.351,9975.81,-2313.49,13.2153,14.8844,-1.74944,4282.67,-5177.28,7875.52,-65.4097,-22.3121,38.1197,563.957,-6780.25,-5227.55,-26.5657,65.3204,-26.3,9273.26,-1090.93,1970.75,-34.334,17.8588,-39.9575,963.53,-15832.4,-2402.68,24.8079,-12.0384,-145.922
1.797,-304.329,7134.38,9896.18,-58.4724,241.018,-49.1183,850.636,9271.46,-1954.37,57.7036,-36.2759,-68.2706,606.34,9944.79,-2267.95,12.892,14.3734,-1.95745,4280.37,-5202.89,7941.35,-65.2475,-22.5369,38.5244,649.631,-6530.8,-5103.66,-27.9319,61.6917,-30.8574,9346.58,-1009.26,1960.1,-34.8906,17.6908,-41.2601,856.324,-15561.8,-2339.97,24.8012,-8.13638,-146.576
1.798,-631.244,6573.87,9786.46,-53.8566,245.258,-44.4769,610.047,9352.07,-1871.83,57.0798,-37.0689,-68.5077,553.329,9913.77,-2222.41,12.5687,13.8624,-2.16547,4278.07,-5228.51,8007.18,-65.0854,-22.7617,38.9291,735.305,-6281.34,-4979.77,-29.2981,58.063,-35.4148,9419.89,-927.599,1949.45,-35.4472,17.5228,-42.5628,749.119,-15291.3,-2277.27,24.7944,-4.23439,-147.229
1.799,-958.16,6013.37,9676.74,-49.2407,249.499,-39.8356,369.457,9432.67,-1789.3,56.456,-37.8619,-68.7448,500.318,9882.75,-2176.88,12.2454,13.3513,-2.37348,4275.77,-5254.12,8073.01,-64.9232,-22.9865,39.3337,820.98,-6031.88,-4855.88,-30.6643,54.4343,-39.9722,9493.21,-845.934,1938.8,-36.0038,17.3548,-43.8654,641.913,-15020.7,-2214.56,24.7877,-0.332404,-147.883
1.8,-1285.08,5452.87,9567.01,-44.6248,253.739,-35.1942,128.868,9513.28,-1706.76,55.8322,-38.655,-68.9819,447.307,9851.73,-2131.34,11.9221,12.8403,-2.5815,4273.47,-5279.73,8138.84,-64.761,-23.2113,39.7384,906.654,-5782.43,-4731.99,-32.0305,50.8056,-44.5296,9566.53,-764.269,1928.15,-36.5604,17.1867,-45.168,534.708,-14750.2,-2151.86,24.7809,3.56958,-148.536
1.801,-1114.99,5219.57,9300.02,-41.4168,257.88,-28.7535,17.9405,9605.64,-1677.33,56.4793,-38.9456,-69.2899,399.952,9814.76,-2070.98,11.5955,11.8661,-2.86446,4281.44,-5220.64,8174.06,-64.7652,-23.5073,40.2669,968.683,-5614.96,-4665.72,-32.1878,45.4027,-47.3339,9584.37,-607.196,1918.2,-37.122,17.309,-46.4602,384.764,-14507.0,-2089.78,24.4735,6.90993,-148.995
1.802,-944.895,4986.27,9033.04,-38.2087,262.021,-22.3128,-92.9865,9698.0,-1647.9,57.1264,-39.2363,-69.5979,352.597,9777.79,-2010.63,11.2689,10.8918,-3.14742,4289.42,-5161.54,8209.28,-64.7693,-23.8034,40.7953,1030.71,-5447.49,-4599.45,-32.345,39.9998,-50.1382,9602.22,-450.123,1908.25,-37.6836,17.4313,-47.7524,234.821,-14263.8,-2027.7,24.1661,10.2503,-149.454
1.803,-774.805,4752.97,8766.05,-35.0006,266.162,-15.872,-203.914,9790.36,-1618.47,57.7735,-39.5269,-69.9058,305.242,9740.81,-1950.27,10.9422,9.91756,-3.43038,4297.39,-5102.45,8244.5,-64.7735,-24.0995,41.3238,1092.74,-5280.02,-4533.19,-32.5023,34.5969,-52.9426,9620.06,-293.049,1898.3,-38.2451,17.5536,-49.0446,84.877,-14020.6,-1965.62,23.8587,13.5906,-149.913
1.804,-604.715,4519.67,8499.07,-31.7926,270.303,-9.4313,-314.841,9882.72,-1589.04,58.4206,-39.8176,-70.2138,257.886,9703.84,-1889.92,10.6156,8.94331,-3.71335,4305.36,-5043.35,8279.72,-64.7776,-24.3956,41.8522,1154.77,-5112.55,-4466.92,-32.6596,29.194,-55.7469,9637.9,-135.976,1888.35,-38.8067,17.6759,-50.3368,-65.0666,-13777.4,-1903.54,23.5513,16.931,-150.372
1.805,-345.818,4420.01,8236.24,-29.355,274.874,-3.99479,-465.678,10013.6,-1556.51,59.0164,-39.5967,-70.342,227.034,9682.19,-1843.82,10.4463,7.91709,-3.99223,4324.61,-4966.81,8297.14,-64.7409,-24.6564,42.4902,1216.35,-5015.09,-4391.45,-32.1914,24.0057,-58.2119,9620.99,-45.8333,1866.72,-39.6927,17.9125,-50.9107,-231.162,-13537.1,-1873.65,23.1081,19.99,-150.702
1.806,-15.876,4427.26,7976.73,-27.5339,279.788,0.638336,-648.444,10175.4,-1521.52,59.5711,-38.9665,-70.3264,209.385,9672.81,-1809.14,10.4029,6.84929,-4.26784,4352.87,-4876.31,8300.3,-64.6713,-24.8891,43.2158,1277.57,-4973.65,-4308.62,-31.223,18.9892,-60.4055,9576.28,-9.23451,1835.73,-40.8383,18.2405,-50.9101,-410.179,-13299.1,-1869.5,22.5562,22.8241,-150.927
1.807,314.066,4434.51,7717.23,-25.7128,284.701,5.27146,-831.21,10337.2,-1486.52,60.1258,-38.3364,-70.3109,191.735,9663.42,-1774.46,10.3594,5.78149,-4.54345,4381.13,-4785.81,8303.46,-64.6018,-25.1218,43.9414,1338.78,-4932.21,-4225.8,-30.2545,13.9726,-62.5991,9531.57,27.3643,1804.75,-41.9838,18.5686,-50.9094,-589.196,-13061.2,-1865.35,22.0044,25.6581,-151.152
1.808,644.008,4441.75,7457.73,-23.8916,289.615,9.90459,-1013.98,10499.0,-1451.52,60.6805,-37.7062,-70.2953,174.085,9654.04,-1739.77,10.316,4.71369,-4.81906,4409.39,-4695.3,8306.63,-64.5323,-25.3545,44.6669,1400.0,-4890.76,-4142.97,-29.286,8.95608,-64.7926,9486.85,63.9631,1773.76,-43.1293,18.8966,-50.9088,-768.212,-12823.2,-1861.2,21.4526,28.4922,-151.377
1.809,957.198,4453.22,7213.11,-22.065,294.503,14.2852,-1184.65,10650.8,-1409.21,61.317,-37.1003,-70.3527,156.799,9643.11,-1702.73,10.2801,3.64477,-5.07948,4435.39,-4604.4,8309.14,-64.4979,-25.5872,45.3703,1453.34,-4860.5,-4059.02,-28.3389,4.07915,-66.913,9449.5,96.0767,1748.24,-44.0928,19.2077,-50.9805,-946.468,-12591.0,-1858.48,20.8436,31.268,-151.585
1.81,1136.37,4498.46,7087.51,-20.1943,299.179,16.6456,-1258.6,10723.4,-1308.37,62.6085,-36.6885,-70.9939,142.419,9619.85,-1646.8,10.3054,2.56689,-5.21837,4443.33,-4510.28,8306.4,-64.7445,-25.8206,45.896,1443.59,-4919.71,-3966.05,-27.5622,0.319195,-68.4477,9471.0,92.308,1766.44,-43.5995,19.3832,-51.6309,-1118.63,-12404.8,-1867.19,19.7773,33.5779,-151.652
1.811,1315.55,4543.69,6961.91,-18.3236,303.856,19.006,-1332.56,10796.1,-1207.53,63.8999,-36.2767,-71.6351,128.039,9596.58,-1590.88,10.3306,1.48902,-5.35726,4451.27,-4416.16,8303.66,-64.991,-26.054,46.4218,1433.84,-4978.92,-3873.09,-26.7856,-3.44076,-69.9825,9492.5,88.5393,1784.63,-43.1063,19.5587,-52.2813,-1290.79,-12218.6,-1875.89,18.7111,35.8878,-151.719
1.812,1494.72,4588.93,6836.31,-16.4528,308.532,21.3665,-1406.51,10868.7,-1106.69,65.1914,-35.8649,-72.2763,113.658,9573.32,-1534.95,10.3558,0.411137,-5.49615,4459.2,-4322.04,8300.92,-65.2376,-26.2874,46.9475,1424.09,-5038.13,-3780.12,-26.009,-7.20072,-71.5173,9514.0,84.7706,1802.82,-42.613,19.7342,-52.9317,-1462.95,-12032.4,-1884.6,17.6448,38.1976,-151.785
1.813,1673.9,4634.16,6710.71,-14.5821,313.209,23.7269,-1480.46,10941.3,-1005.86,66.4829,-35.4531,-72.9176,99.2783,9550.05,-1479.03,10.381,-0.666741,-5.63504,4467.14,-4227.92,8298.18,-65.4841,-26.5208,47.4732,1414.34,-5097.34,-3687.15,-25.2323,-10.9607,-73.0521,9535.5,81.0019,1821.01,-42.1197,19.9097,-53.5821,-1635.11,-11846.2,-1893.31,16.5785,40.5075,-151.852
1.814,1762.13,4656.29,6589.34,-12.6668,317.482,25.4257,-1506.6,10979.1,-853.398,67.7996,-35.6636,-73.4187,79.1145,9561.87,-1415.66,10.3883,-1.86809,-5.75098,4445.56,-4130.84,8331.51,-66.066,-26.8218,48.118,1358.07,-5128.86,-3626.42,-24.8082,-13.9966,-74.3194,9540.83,146.46,1817.23,-42.0384,20.3592,-54.6991,-1809.22,-11694.4,-1926.76,15.2364,42.6451,-151.872
1.815,1804.9,4666.86,6470.08,-10.7292,321.555,26.7938,-1508.84,10999.5,-675.128,69.129,-36.1852,-73.8497,56.0589,9591.24,-1348.57,10.3867,-3.13116,-5.85544,4409.22,-4032.28,8382.89,-66.8156,-27.1566,48.8224,1278.53,-5146.54,-3581.8,-24.5604,-16.6705,-75.453,9538.08,246.53,1802.46,-42.1631,20.9457,-56.0494,-1984.3,-11559.8,-1972.58,13.7563,44.6966,-151.869
1.816,1847.67,4677.44,6350.83,-8.79152,325.627,28.1618,-1511.08,11019.8,-496.858,70.4584,-36.7068,-74.2807,33.0034,9620.6,-1281.48,10.385,-4.39424,-5.9599,4372.89,-3933.71,8434.26,-67.5652,-27.4914,49.5268,1199.0,-5164.21,-3537.17,-24.3126,-19.3444,-76.5866,9535.33,346.601,1787.68,-42.2877,21.5322,-57.3997,-2159.39,-11425.3,-2018.4,12.2762,46.748,-151.866
1.817,1890.44,4688.01,6231.58,-6.85388,329.7,29.5299,-1513.32,11040.2,-318.588,71.7878,-37.2285,-74.7118,9.9478,9649.97,-1214.39,10.3834,-5.65732,-6.06436,4336.55,-3835.15,8485.63,-68.3148,-27.8262,50.2312,1119.46,-5181.88,-3492.55,-24.0648,-22.0183,-77.7202,9532.58,446.672,1772.91,-42.4124,22.1186,-58.75,-2334.47,-11290.7,-2064.22,10.7961,48.7994,-151.863
1.818,1935.57,4695.13,6135.54,-5.0807,333.554,30.8815,-1493.3,11048.2,-173.323,72.9655,-37.734,-75.0965,-9.78025,9680.6,-1148.4,10.4106,-6.93603,-6.16794,4295.22,-3743.67,8524.08,-69.0589,-28.169,50.9038,1016.73,-5199.85,-3449.12,-23.9079,-24.7034,-78.8939,9530.44,553.104,1756.79,-42.669,22.5702,-59.9823,-2493.53,-11156.3,-2111.93,9.337,50.7752,-151.836
1.819,1988.98,4690.12,6120.76,-3.88313,336.647,32.1752,-1395.36,11013.2,-143.576,73.612,-38.1831,-75.3188,-17.862,9715.64,-1086.28,10.5387,-8.26944,-6.26843,4236.41,-3676.97,8517.3,-69.7834,-28.5401,51.4649,832.838,-5218.82,-3409.85,-24.0691,-27.4274,-80.2081,9530.43,681.802,1735.94,-43.3875,22.5499,-60.8014,-2596.55,-11022.5,-2166.24,7.95144,52.4862,-151.726
1.82,2042.39,4685.12,6105.97,-2.68557,339.74,33.469,-1297.42,10978.1,-113.828,74.2585,-38.6323,-75.5413,-25.9437,9750.68,-1024.16,10.6667,-9.60285,-6.36892,4177.59,-3610.28,8510.53,-70.5079,-28.9111,52.026,648.943,-5237.8,-3370.58,-24.2303,-30.1515,-81.5222,9530.41,810.5,1715.1,-44.106,22.5295,-61.6206,-2699.56,-10888.6,-2220.54,6.56589,54.1971,-151.616
1.821,2095.79,4680.12,6091.18,-1.488,342.833,34.7628,-1199.48,10943.0,-84.0809,74.905,-39.0814,-75.7636,-34.0255,9785.72,-962.047,10.7948,-10.9363,-6.4694,4118.78,-3543.58,8503.75,-71.2324,-29.2822,52.5871,465.048,-5256.78,-3331.31,-24.3915,-32.8756,-82.8364,9530.4,939.198,1694.26,-44.8245,22.5091,-62.4397,-2802.57,-10754.8,-2274.85,5.18033,55.908,-151.506
1.822,2149.2,4675.11,6076.4,-0.290428,345.926,36.0566,-1101.54,10907.9,-54.3336,75.5515,-39.5305,-75.986,-42.1072,9820.76,-899.928,10.9229,-12.2697,-6.56989,4059.97,-3476.88,8496.97,-71.9569,-29.6532,53.1482,281.153,-5275.76,-3292.04,-24.5526,-35.5996,-84.1506,9530.38,1067.9,1673.42,-45.543,22.4887,-63.2589,-2905.59,-10621.0,-2329.15,3.79477,57.619,-151.396
1.823,2257.92,4749.98,6039.72,0.0475797,348.814,37.2239,-927.533,10939.2,-7.46033,76.6084,-40.0358,-76.1964,-28.4737,9830.58,-874.96,11.1394,-13.5105,-6.65509,4017.91,-3457.5,8487.45,-72.7111,-29.9847,53.5255,121.56,-5302.32,-3185.18,-24.9702,-38.3549,-85.7309,9507.76,1143.0,1632.26,-46.1218,22.106,-64.0612,-2976.47,-10524.8,-2359.24,2.80784,59.1287,-151.195
1.824,2382.44,4847.67,5996.78,0.139999,351.644,38.3551,-731.796,10989.6,44.3061,77.7825,-40.5571,-76.4032,-8.63585,9833.2,-860.605,11.3812,-14.725,-6.73593,3980.64,-3451.63,8477.14,-73.4736,-30.3048,53.8504,-31.0894,-5331.05,-3059.0,-25.461,-41.119,-87.3873,9478.68,1202.8,1585.31,-46.6608,21.6197,-64.8586,-3038.18,-10439.3,-2382.4,1.93482,60.5809,-150.968
1.825,2506.96,4945.35,5953.85,0.232417,354.474,39.4863,-536.058,11039.9,96.0726,78.9565,-41.0784,-76.61,11.202,9835.81,-846.25,11.623,-15.9394,-6.81677,3943.36,-3445.77,8466.83,-74.2362,-30.6249,54.1753,-183.739,-5359.78,-2932.82,-25.9518,-43.8831,-89.0437,9449.6,1262.6,1538.36,-47.1997,21.1335,-65.656,-3099.89,-10353.8,-2405.56,1.06179,62.0332,-150.741
1.826,2631.48,5043.04,5910.91,0.324836,357.304,40.6174,-340.321,11090.2,147.839,80.1306,-41.5997,-76.8169,31.0399,9838.43,-831.895,11.8648,-17.1539,-6.89761,3906.09,-3439.9,8456.52,-74.9987,-30.945,54.5001,-336.388,-5388.51,-2806.64,-26.4426,-46.6473,-90.7001,9420.53,1322.39,1491.4,-47.7387,20.6472,-66.4534,-3161.6,-10268.3,-2428.73,0.188757,63.4854,-150.514
1.827,2759.84,5168.76,5862.49,0.0537822,360.179,41.5446,-154.798,11109.4,197.664,81.1439,-42.0454,-76.8932,52.1249,9843.77,-822.198,12.1012,-18.2725,-6.99606,3877.53,-3422.75,8464.08,-75.775,-31.2217,54.8813,-470.219,-5418.85,-2693.18,-26.8934,-49.2468,-92.6825,9377.94,1371.0,1454.83,-48.1726,20.1459,-67.2457,-3217.14,-10193.4,-2457.04,-0.631022,64.8265,-150.328
1.828,2895.86,5350.54,5803.09,-0.944218,363.145,42.0636,10.2946,11066.2,243.607,81.8357,-42.3399,-76.7083,75.7044,9854.57,-821.814,12.3269,-19.1995,-7.12972,3866.39,-3383.03,8507.38,-76.5789,-31.4116,55.3751,-566.412,-5452.4,-2605.16,-27.2642,-51.5171,-95.317,9308.34,1397.23,1439.01,-48.3965,19.6145,-68.0277,-3260.37,-10139.8,-2495.66,-1.3443,65.9453,-150.225
1.829,3031.88,5532.32,5743.69,-1.94222,366.111,42.5826,175.387,11023.0,289.55,82.5274,-42.6344,-76.5234,99.2839,9865.38,-821.431,12.5526,-20.1264,-7.26339,3855.24,-3343.32,8550.67,-77.3827,-31.6016,55.869,-662.605,-5485.94,-2517.14,-27.6349,-53.7875,-97.9516,9238.75,1423.45,1423.2,-48.6204,19.0831,-68.8097,-3303.6,-10086.1,-2534.27,-2.05758,67.0641,-150.122
1.83,3167.91,5714.09,5684.29,-2.94022,369.077,43.1016,340.48,10979.9,335.493,83.2192,-42.9289,-76.3386,122.863,9876.18,-821.048,12.7783,-21.0534,-7.39706,3844.09,-3303.6,8593.97,-78.1866,-31.7915,56.3628,-758.798,-5519.49,-2429.12,-28.0057,-56.0578,-100.586,9169.15,1449.68,1407.39,-48.8442,18.5517,-69.5917,-3346.83,-10032.5,-2572.89,-2.77086,68.1829,-150.018
1.831,3303.93,5895.87,5624.9,-3.93822,372.042,43.6206,505.573,10936.7,381.436,83.9109,-43.2234,-76.1537,146.443,9886.98,-820.664,13.0039,-21.9804,-7.53073,3832.95,-3263.89,8637.27,-78.9904,-31.9814,56.8566,-854.991,-5553.04,-2341.09,-28.3765,-58.3281,-103.221,9099.55,1475.9,1391.57,-49.0681,18.0203,-70.3737,-3390.06,-9978.88,-2611.5,-3.48414,69.3017,-149.915
1.832,3432.48,6122.1,5586.8,-5.27618,375.305,43.2514,627.021,10899.9,420.905,83.7438,-43.7371,-75.7709,232.881,9915.57,-811.816,13.1884,-22.7968,-7.54123,3812.16,-3211.32,8656.27,-79.6964,-31.9621,57.1334,-875.247,-5561.93,-2316.54,-28.7155,-59.6296,-106.557,9018.38,1477.17,1406.45,-49.2912,17.5387,-70.9779,-3386.42,-9926.09,-2663.29,-3.80858,70.2678,-150.126
1.833,3560.09,6353.87,5551.36,-6.65663,378.605,42.7713,743.014,10863.8,459.565,83.4693,-44.2781,-75.3633,327.176,9946.38,-801.909,13.3677,-23.5995,-7.53633,3790.16,-3157.16,8672.23,-80.3901,-31.9166,57.383,-886.011,-5567.73,-2299.93,-29.0504,-60.81,-109.98,8935.77,1475.31,1425.16,-49.5143,17.0634,-71.5598,-3376.93,-9873.4,-2716.73,-4.08441,71.2148,-150.376
1.834,3687.69,6585.65,5515.92,-8.03708,381.905,42.2911,859.006,10827.8,498.224,83.1948,-44.8191,-74.9557,421.471,9977.19,-792.003,13.547,-24.4021,-7.53143,3768.15,-3102.99,8688.19,-81.0839,-31.8711,57.6327,-896.775,-5573.54,-2283.32,-29.3854,-61.9904,-113.404,8853.16,1473.45,1443.87,-49.7373,16.5881,-72.1417,-3367.44,-9820.71,-2770.17,-4.36025,72.1619,-150.626
1.835,3815.3,6817.43,5480.49,-9.41754,385.205,41.811,974.999,10791.8,536.883,82.9203,-45.3601,-74.5481,515.766,10008.0,-782.097,13.7263,-25.2047,-7.52654,3746.15,-3048.82,8704.15,-81.7776,-31.8257,57.8823,-907.539,-5579.34,-2266.7,-29.7204,-63.1708,-116.828,8770.54,1471.59,1462.58,-49.9603,16.1128,-72.7237,-3357.95,-9768.02,-2823.61,-4.63608,73.1089,-150.875
1.836,3923.67,7027.75,5417.56,-11.1159,388.676,40.5864,1100.13,10717.2,582.914,82.6565,-46.1017,-74.0982,621.25,10033.5,-782.418,13.8954,-25.9448,-7.64227,3712.07,-2993.05,8715.93,-82.5742,-31.712,58.0852,-858.049,-5562.56,-2243.25,-30.0428,-63.8806,-120.322,8709.31,1460.98,1466.99,-50.2001,15.7968,-73.405,-3345.72,-9706.22,-2883.61,-5.20485,74.0223,-150.913
1.837,4008.0,7211.24,5320.28,-13.2116,392.36,38.4313,1236.67,10594.4,638.157,82.4059,-47.0941,-73.5954,740.722,10052.5,-795.523,14.0517,-26.6068,-7.90879,3662.89,-2935.26,8722.51,-83.4992,-31.5131,58.2295,-733.242,-5517.53,-2211.24,-30.3497,-64.0022,-123.904,8674.8,1439.45,1453.53,-50.4608,15.68,-74.2104,-3330.05,-9633.01,-2951.79,-6.13979,74.8938,-150.685
1.838,4092.33,7394.74,5222.99,-15.3073,396.045,36.2762,1373.22,10471.6,693.401,82.1554,-48.0865,-73.0927,860.193,10071.5,-808.628,14.2079,-27.2688,-8.17531,3613.7,-2877.48,8729.08,-84.4243,-31.3143,58.3738,-608.436,-5472.51,-2179.24,-30.6565,-64.1238,-127.485,8640.28,1417.91,1440.06,-50.7215,15.5632,-75.0158,-3314.38,-9559.81,-3019.98,-7.07472,75.7652,-150.456
1.839,4176.65,7578.24,5125.71,-17.403,399.729,34.121,1509.76,10348.9,748.645,81.9048,-49.0788,-72.59,979.665,10090.5,-821.733,14.3642,-27.9307,-8.44183,3564.52,-2819.7,8735.65,-85.3493,-31.1154,58.5181,-483.629,-5427.48,-2147.23,-30.9633,-64.2455,-131.067,8605.77,1396.37,1426.6,-50.9823,15.4464,-75.8213,-3298.72,-9486.6,-3088.17,-8.00966,76.6367,-150.228
1.84,4260.98,7761.74,5028.43,-19.4987,403.413,31.9659,1646.31,10226.1,803.889,81.6543,-50.0712,-72.0872,1099.14,10109.4,-834.838,14.5205,-28.5927,-8.70835,3515.34,-2761.91,8742.22,-86.2744,-30.9165,58.6624,-358.822,-5382.46,-2115.23,-31.2701,-64.3671,-134.649,8571.26,1374.83,1413.13,-51.243,15.3296,-76.6267,-3283.05,-9413.4,-3156.36,-8.9446,77.5082,-150.0
1.841,4368.93,7839.57,5001.57,-22.4976,406.794,28.9323,1777.79,10148.8,847.008,81.3535,-51.1918,-71.3334,1167.51,10098.7,-829.274,14.6333,-29.1764,-9.07677,3439.7,-2711.8,8746.68,-87.1818,-30.9879,58.4616,-275.843,-5295.11,-2116.56,-31.6709,-63.5283,-138.344,8469.14,1360.81,1453.55,-51.6261,15.5758,-77.4291,-3271.7,-9417.72,-3146.74,-8.96555,78.1079,-150.087
1.842,4476.88,7917.4,4974.7,-25.4965,410.174,25.8987,1909.27,10071.5,890.127,81.0528,-52.3123,-70.5796,1235.89,10088.0,-823.71,14.7462,-29.7601,-9.44519,3364.06,-2661.69,8751.13,-88.0893,-31.0592,58.2608,-192.863,-5207.77,-2117.89,-32.0716,-62.6895,-142.038,8367.03,1346.79,1493.96,-52.0093,15.822,-78.2314,-3260.35,-9422.05,-3137.11,-8.9865,78.7076,-150.174
1.843,4584.83,7995.23,4947.84,-28.4953,413.555,22.8651,2040.76,9994.24,933.247,80.7521,-53.4328,-69.8259,1304.26,10077.2,-818.146,14.859,-30.3438,-9.81361,3288.42,-2611.58,8755.59,-88.9967,-31.1306,58.06,-109.883,-5120.42,-2119.22,-32.4724,-61.8507,-145.733,8264.91,1332.78,1534.37,-52.3924,16.0682,-79.0338,-3249.0,-9426.38,-3127.49,-9.00744,79.3073,-150.261
1.844,4692.78,8073.07,4920.98,-31.4942,416.935,19.8315,2172.24,9916.96,976.366,80.4513,-54.5534,-69.0721,1372.64,10066.5,-812.582,14.9718,-30.9276,-10.182,3212.78,-2561.47,8760.04,-89.9041,-31.202,57.8591,-26.9032,-5033.08,-2120.55,-32.8731,-61.0119,-149.428,8162.8,1318.76,1574.78,-52.7756,16.3144,-79.8362,-3237.65,-9430.7,-3117.86,-9.02839,79.907,-150.348
1.845,4751.83,8142.09,4859.85,-34.8757,420.218,17.0011,2248.75,9815.79,1014.45,79.9837,-55.8754,-68.5724,1432.4,10054.2,-795.948,15.1015,-31.3937,-10.5115,3138.99,-2525.55,8776.46,-90.8604,-31.2373,57.5741,66.7995,-4943.98,-2116.96,-33.1531,-59.9239,-152.728,8068.39,1283.94,1597.16,-53.3241,16.5769,-80.0016,-3232.94,-9419.45,-3112.97,-8.96059,80.4177,-150.43
1.846,4771.76,8204.07,4771.32,-38.5632,423.421,14.3334,2281.27,9695.51,1048.51,79.3826,-57.3587,-68.2761,1485.26,10040.7,-770.458,15.2446,-31.7659,-10.8097,3066.67,-2500.98,8802.44,-91.8556,-31.2437,57.2216,169.081,-4853.47,-2109.44,-33.3364,-58.6365,-155.711,7980.14,1232.47,1605.09,-54.0048,16.8524,-79.6576,-3233.54,-9395.74,-3111.88,-8.82177,80.8572,-150.509
1.847,4791.69,8266.05,4682.79,-42.2507,426.625,11.6656,2313.8,9575.23,1082.57,78.7814,-58.842,-67.9798,1538.13,10027.2,-744.968,15.3878,-32.1381,-11.108,2994.35,-2476.41,8828.42,-92.8509,-31.2502,56.8692,271.362,-4762.96,-2101.91,-33.5197,-57.3492,-158.694,7891.89,1181.0,1613.03,-54.6856,17.1279,-79.3136,-3234.14,-9372.03,-3110.79,-8.68296,81.2966,-150.587
1.848,4811.61,8328.02,4594.26,-45.9383,429.829,8.9979,2346.33,9454.95,1116.63,78.1803,-60.3253,-67.6835,1590.99,10013.7,-719.478,15.5309,-32.5103,-11.4063,2922.04,-2451.84,8854.41,-93.8462,-31.2566,56.5167,373.643,-4672.46,-2094.39,-33.703,-56.0618,-161.677,7803.65,1129.53,1620.97,-55.3663,17.4034,-78.9695,-3234.75,-9348.32,-3109.7,-8.54415,81.7361,-150.666
1.849,4816.68,8370.97,4508.35,-49.5264,432.933,6.35758,2380.34,9339.39,1144.89,77.5977,-61.8189,-67.4186,1639.37,9999.41,-698.187,15.6962,-32.8557,-11.712,2857.14,-2427.2,8874.95,-94.8681,-31.2326,56.136,473.793,-4584.25,-2082.45,-33.8516,-54.8615,-164.592,7713.47,1082.71,1623.73,-55.9803,17.6417,-78.6237,-3236.95,-9321.03,-3116.63,-8.51342,82.1312,-150.698
1.85,4702.83,8261.64,4443.32,-52.3187,435.24,3.9366,2426.18,9261.67,1126.67,77.1634,-63.3947,-67.4048,1651.84,9978.87,-710.486,16.0385,-32.9874,-12.0769,2851.62,-2401.93,8851.98,-96.1028,-30.9645,55.5286,556.899,-4514.4,-2035.23,-33.7221,-54.358,-166.954,7607.83,1073.13,1584.99,-56.0608,17.582,-78.2637,-3251.98,-9265.13,-3187.74,-9.34739,82.1712,-150.359
1.851,4588.98,8152.32,4378.3,-55.111,437.547,1.51562,2472.03,9183.95,1108.46,76.7291,-64.9706,-67.3909,1664.31,9958.33,-722.786,16.3809,-33.119,-12.4419,2846.1,-2376.66,8829.0,-97.3376,-30.6965,54.9213,640.005,-4444.55,-1988.01,-33.5927,-53.8545,-169.316,7502.19,1063.55,1546.26,-56.1412,17.5222,-77.9038,-3267.0,-9209.24,-3258.85,-10.1813,82.2113,-150.02
1.852,4475.13,8042.99,4313.27,-57.9033,439.854,-0.905352,2517.87,9106.22,1090.24,76.2949,-66.5464,-67.3771,1676.77,9937.78,-735.085,16.7232,-33.2507,-12.8069,2840.58,-2351.39,8806.03,-98.5723,-30.4284,54.3139,723.111,-4374.7,-1940.79,-33.4632,-53.351,-171.679,7396.55,1053.96,1507.52,-56.2217,17.4625,-77.5438,-3282.02,-9153.34,-3329.96,-11.0153,82.2513,-149.68
1.853,4361.28,7933.67,4248.25,-60.6956,442.162,-3.32633,2563.71,9028.5,1072.03,75.8606,-68.1223,-67.3632,1689.24,9917.24,-747.384,17.0656,-33.3824,-13.1718,2835.06,-2326.13,8783.05,-99.8071,-30.1603,53.7066,806.217,-4304.84,-1893.57,-33.3338,-52.8475,-174.041,7290.91,1044.38,1468.79,-56.3021,17.4027,-77.1838,-3297.04,-9097.44,-3401.08,-11.8493,82.2913,-149.341
1.854,4178.34,7761.45,4139.35,-62.9474,443.712,-5.35782,2550.85,8976.4,1037.66,75.408,-69.5054,-67.3566,1691.84,9874.42,-766.127,17.3925,-33.5054,-13.5177,2851.13,-2296.74,8759.29,-101.143,-29.8449,53.0897,899.842,-4291.08,-1829.33,-32.9691,-52.9308,-176.365,7199.21,1010.19,1456.02,-55.828,17.1316,-77.1487,-3311.15,-9088.72,-3425.31,-12.2599,82.1986,-149.094
1.855,3960.87,7557.78,4008.52,-64.929,444.883,-7.19457,2508.63,8937.12,995.212,74.9462,-70.7922,-67.3535,1689.5,9820.46,-788.091,17.7118,-33.6242,-13.8541,2878.0,-2265.29,8735.13,-102.53,-29.5059,52.4681,998.726,-4305.36,-1756.58,-32.4868,-53.3077,-178.669,7114.47,963.699,1456.25,-55.0765,16.7549,-77.2759,-3324.81,-9103.6,-3426.1,-12.4589,82.0396,-148.894
1.856,3743.4,7354.11,3877.7,-66.9106,446.055,-9.03132,2466.41,8897.84,952.765,74.4845,-72.0789,-67.3504,1687.16,9766.5,-810.055,18.031,-33.7429,-14.1905,2904.87,-2233.83,8710.97,-103.917,-29.1669,51.8465,1097.61,-4319.64,-1683.83,-32.0046,-53.6845,-180.973,7029.74,917.208,1456.47,-54.3251,16.3782,-77.4032,-3338.46,-9118.48,-3426.88,-12.6579,81.8805,-148.694
1.857,3525.92,7150.44,3746.87,-68.8922,447.227,-10.8681,2424.2,8858.55,910.319,74.0227,-73.3657,-67.3474,1684.82,9712.54,-832.019,18.3503,-33.8616,-14.5269,2931.73,-2202.38,8686.81,-105.304,-28.8279,51.2249,1196.49,-4333.92,-1611.08,-31.5223,-54.0613,-183.277,6945.0,870.716,1456.69,-53.5736,16.0015,-77.5305,-3352.12,-9133.36,-3427.67,-12.8569,81.7215,-148.494
1.858,3293.53,6925.77,3639.79,-70.4663,448.057,-12.6525,2377.99,8815.59,872.252,73.5769,-74.5306,-67.3544,1684.93,9660.72,-842.787,18.6266,-34.0355,-14.8348,2952.35,-2178.97,8665.13,-106.608,-28.4517,50.6105,1292.17,-4358.75,-1532.16,-30.9538,-54.7023,-185.552,6883.09,844.35,1458.28,-52.9084,15.5796,-77.6635,-3364.85,-9131.98,-3437.21,-13.37,81.5158,-148.17
1.859,3008.9,6627.59,3615.86,-70.6144,447.694,-14.2536,2317.83,8759.71,849.515,73.1868,-75.2691,-67.3969,1693.63,9616.41,-814.369,18.7527,-34.4025,-15.0434,2951.09,-2183.68,8652.13,-107.617,-27.9454,50.0219,1376.61,-4420.48,-1431.65,-30.0837,-56.2674,-187.725,6901.04,888.424,1464.68,-52.5453,14.9997,-77.8169,-3374.37,-9073.71,-3477.35,-14.9826,81.147,-147.41
1.86,2724.28,6329.42,3591.93,-70.7624,447.331,-15.8546,2257.66,8703.84,826.777,72.7968,-76.0075,-67.4393,1702.33,9572.1,-785.951,18.8787,-34.7696,-15.252,2949.83,-2188.39,8639.12,-108.627,-27.4392,49.4331,1461.04,-4482.22,-1331.14,-29.2137,-57.8326,-189.899,6919.0,932.498,1471.07,-52.1822,14.4197,-77.9702,-3383.88,-9015.44,-3517.5,-16.5952,80.7782,-146.65
1.861,2439.66,6031.25,3568.0,-70.9105,446.968,-17.4557,2197.5,8647.97,804.039,72.4067,-76.746,-67.4818,1711.03,9527.78,-757.532,19.0048,-35.1366,-15.4606,2948.57,-2193.11,8626.12,-109.636,-26.9329,48.8444,1545.48,-4543.95,-1230.63,-28.3436,-59.3978,-192.073,6936.95,976.571,1477.47,-51.8191,13.8398,-78.1236,-3393.4,-8957.17,-3557.64,-18.2079,80.4093,-145.89
1.862,2155.03,5733.07,3544.07,-71.0585,446.605,-19.0568,2137.33,8592.1,781.302,72.0167,-77.4844,-67.5242,1719.73,9483.47,-729.114,19.1309,-35.5036,-15.6693,2947.31,-2197.82,8613.11,-110.646,-26.4266,48.2557,1629.92,-4605.68,-1130.12,-27.4735,-60.9629,-194.246,6954.9,1020.64,1483.86,-51.456,13.2598,-78.2769,-3402.91,-8898.9,-3597.79,-19.8205,80.0405,-145.13
1.863,1862.02,5434.65,3515.63,-70.2933,445.397,-20.2264,2089.52,8597.79,682.018,71.6934,-77.7918,-67.4541,1720.58,9465.62,-724.76,18.8737,-36.2642,-15.9443,2970.72,-2257.01,8575.01,-111.759,-26.0387,47.7495,1719.23,-4679.86,-1072.76,-26.4427,-63.2498,-196.51,6888.33,951.212,1449.0,-52.4854,12.8005,-77.1054,-3418.28,-8888.86,-3583.92,-20.2965,79.7065,-144.709
1.864,1566.62,5136.16,3485.89,-69.2671,443.947,-21.2727,2045.23,8621.08,560.864,71.3892,-77.9761,-67.3518,1719.2,9455.34,-727.281,18.5069,-37.1373,-16.2383,3001.19,-2331.77,8529.73,-112.901,-25.6847,47.2669,1809.94,-4757.59,-1027.73,-25.366,-65.743,-198.8,6797.6,849.35,1402.35,-53.9126,12.3756,-75.5554,-3435.33,-8892.6,-3554.62,-20.4478,79.3825,-144.385
1.865,1271.21,4837.67,3456.16,-68.241,442.497,-22.3189,2000.95,8644.36,439.709,71.0849,-78.1603,-67.2495,1717.81,9445.05,-729.803,18.1401,-38.0104,-16.5323,3031.65,-2406.53,8484.45,-114.043,-25.3306,46.7842,1900.65,-4835.32,-982.695,-24.2894,-68.2361,-201.089,6706.88,747.487,1355.7,-55.3398,11.9508,-74.0054,-3452.37,-8896.34,-3525.32,-20.5991,79.0584,-144.061
1.866,975.804,4539.18,3426.42,-67.2148,441.046,-23.3652,1956.66,8667.64,318.555,70.7807,-78.3446,-67.1472,1716.42,9434.76,-732.324,17.7734,-38.8835,-16.8264,3062.11,-2481.29,8439.17,-115.185,-24.9766,46.3016,1991.36,-4913.04,-937.664,-23.2127,-70.7293,-203.379,6616.15,645.625,1309.05,-56.7671,11.5259,-72.4553,-3469.41,-8900.08,-3496.02,-20.7504,78.7343,-143.738
1.867,711.866,4274.11,3402.26,-65.8662,439.333,-24.363,1910.75,8679.18,203.046,70.5283,-78.3943,-67.0883,1719.91,9428.19,-750.414,17.4004,-39.8049,-17.1253,3083.61,-2564.22,8376.33,-116.216,-24.7173,45.7883,2046.85,-4986.06,-911.239,-22.1879,-73.1557,-205.559,6546.5,520.047,1287.17,-57.7273,10.9791,-71.348,-3483.93,-8890.38,-3478.93,-21.1892,78.3386,-143.308
1.868,510.867,4075.87,3389.22,-63.8726,437.092,-25.264,1861.56,8667.23,98.826,70.3798,-78.1746,-67.116,1733.14,9429.05,-799.642,17.0149,-40.8231,-17.4341,3087.2,-2663.46,8278.38,-117.022,-24.6476,45.2138,2031.9,-5049.65,-922.026,-21.2669,-75.4488,-207.518,6518.99,347.04,1314.81,-57.7534,10.1886,-71.126,-3493.4,-8853.78,-3486.25,-22.203,77.7995,-142.666
1.869,309.867,3877.62,3376.18,-61.879,434.852,-26.1649,1812.38,8655.28,-5.39369,70.2312,-77.955,-67.1436,1746.38,9429.9,-848.869,16.6294,-41.8413,-17.7428,3090.79,-2762.71,8180.42,-117.829,-24.5779,44.6393,2016.95,-5113.24,-932.814,-20.3458,-77.7419,-209.478,6491.48,174.034,1342.46,-57.7795,9.39815,-70.9041,-3502.86,-8817.18,-3493.57,-23.2167,77.2604,-142.024
1.87,108.868,3679.38,3363.15,-59.8854,432.612,-27.0658,1763.2,8643.32,-109.613,70.0827,-77.7354,-67.1713,1759.62,9430.76,-898.097,16.244,-42.8594,-18.0516,3094.37,-2861.95,8082.47,-118.635,-24.5082,44.0647,2002.01,-5176.83,-943.601,-19.4248,-80.0349,-211.438,6463.97,1.02658,1370.11,-57.8055,8.60765,-70.6821,-3512.33,-8780.58,-3500.9,-24.2305,76.7213,-141.383
1.871,-92.1316,3481.14,3350.11,-57.8918,430.371,-27.9668,1714.02,8631.37,-213.833,69.9341,-77.5158,-67.199,1772.85,9431.61,-947.324,15.8585,-43.8776,-18.3603,3097.96,-2961.2,7984.52,-119.441,-24.4385,43.4902,1987.06,-5240.42,-954.388,-18.5037,-82.328,-213.398,6436.46,-171.98,1397.76,-57.8316,7.81715,-70.4601,-3521.8,-8743.98,-3508.22,-25.2443,76.1822,-140.741
1.872,-174.479,3427.71,3358.47,-55.1797,427.736,-28.5791,1701.52,8624.96,-304.142,70.109,-77.1591,-67.2308,1813.82,9418.31,-1034.11,15.6336,-44.6725,-18.5329,3054.39,-3103.35,7885.4,-119.746,-24.3649,42.7365,1912.86,-5319.96,-950.45,-17.7575,-84.19,-215.521,6353.43,-188.244,1429.44,-57.0874,6.8786,-69.7735,-3532.47,-8726.88,-3499.53,-24.9613,75.7347,-140.568
1.873,-241.995,3392.39,3369.51,-52.3779,425.052,-29.1553,1693.6,8619.23,-392.711,70.3243,-76.7853,-67.263,1858.25,9403.23,-1125.6,15.4288,-45.4394,-18.6885,3004.93,-3250.87,7786.14,-119.989,-24.2908,41.9604,1831.26,-5401.49,-944.671,-17.0331,-85.9982,-217.665,6263.46,-184.915,1461.62,-56.2469,5.92155,-69.0289,-3543.29,-8712.21,-3488.83,-24.5162,75.2986,-140.454
1.874,-309.511,3357.07,3380.55,-49.5761,422.367,-29.7315,1685.69,8613.51,-481.281,70.5396,-76.4116,-67.2953,1902.68,9388.15,-1217.08,15.224,-46.2063,-18.8441,2955.47,-3398.38,7686.88,-120.231,-24.2167,41.1843,1749.65,-5483.02,-938.892,-16.3087,-87.8063,-219.809,6173.5,-181.585,1493.8,-55.4064,4.9645,-68.2843,-3554.11,-8697.55,-3478.14,-24.0712,74.8625,-140.339
1.875,-377.026,3321.75,3391.58,-46.7743,419.683,-30.3077,1677.77,8607.79,-569.85,70.7549,-76.0378,-67.3275,1947.11,9373.07,-1308.57,15.0192,-46.9733,-18.9996,2906.0,-3545.9,7587.61,-120.473,-24.1427,40.4081,1668.05,-5564.55,-933.113,-15.5843,-89.6144,-221.952,6083.53,-178.256,1525.98,-54.5659,4.00744,-67.5396,-3564.93,-8682.89,-3467.44,-23.6261,74.4265,-140.225
1.876,-387.167,3333.31,3406.66,-43.9873,417.066,-31.0736,1685.83,8613.78,-634.994,70.8536,-75.6533,-67.3711,1991.26,9340.71,-1412.55,14.6896,-47.6273,-19.217,2848.75,-3704.52,7507.26,-120.611,-24.1512,39.675,1560.53,-5627.08,-937.911,-15.0979,-91.1167,-223.957,6088.72,-182.185,1534.99,-54.3162,3.21075,-66.1815,-3594.79,-8611.91,-3561.93,-24.3306,73.8491,-139.553
1.877,-325.588,3403.5,3426.77,-41.2189,414.533,-32.0767,1713.87,8634.42,-670.856,70.8067,-75.2555,-67.4289,2035.08,9286.75,-1532.13,14.2041,-48.1402,-19.5116,2781.75,-3877.02,7450.55,-120.618,-24.2629,38.9957,1420.62,-5665.86,-955.928,-14.9091,-92.2366,-225.787,6212.88,-195.187,1515.05,-54.8052,2.61449,-64.0565,-3648.46,-8470.54,-3787.91,-26.4719,73.0952,-138.183
1.878,-264.009,3473.68,3446.89,-38.4505,412.0,-33.0798,1741.9,8655.07,-706.718,70.7597,-74.8577,-67.4867,2078.9,9232.79,-1651.72,13.7187,-48.653,-19.8063,2714.74,-4049.53,7393.83,-120.625,-24.3747,38.3164,1280.7,-5704.64,-973.946,-14.7203,-93.3566,-227.617,6337.03,-208.189,1495.11,-55.2941,2.01824,-61.9316,-3702.14,-8329.17,-4013.88,-28.6133,72.3413,-136.814
1.879,-202.43,3543.86,3467.01,-35.6821,409.468,-34.0829,1769.94,8675.71,-742.58,70.7127,-74.4599,-67.5445,2122.72,9178.83,-1771.31,13.2332,-49.1658,-20.1009,2647.74,-4222.04,7337.12,-120.632,-24.4865,37.637,1140.78,-5743.42,-991.964,-14.5315,-94.4765,-229.447,6461.18,-221.191,1475.16,-55.7831,1.42198,-59.8066,-3755.81,-8187.81,-4239.86,-30.7546,71.5874,-135.444
1.88,-140.851,3614.04,3487.12,-32.9138,406.935,-35.086,1797.97,8696.36,-778.443,70.6658,-74.0621,-67.6023,2166.54,9124.87,-1890.9,12.7478,-49.6787,-20.3955,2580.74,-4394.54,7280.41,-120.639,-24.5982,36.9577,1000.87,-5782.21,-1009.98,-14.3427,-95.5964,-231.277,6585.33,-234.192,1455.22,-56.272,0.82573,-57.6816,-3809.48,-8046.44,-4465.83,-32.896,70.8335,-134.075
1.881,-1.46391,3745.63,3495.33,-30.1694,404.704,-36.6756,1830.17,8687.76,-792.37,70.2023,-73.8795,-67.664,2176.45,9066.64,-1983.9,11.9737,-50.1018,-20.8464,2555.41,-4533.77,7234.68,-120.455,-24.6637,36.4267,939.661,-5830.54,-1035.92,-14.5574,-96.657,-233.049,6573.45,-351.27,1434.72,-56.8805,0.812691,-56.5929,-3805.07,-8053.99,-4331.0,-33.6819,69.998,-133.574
1.882,137.923,3877.23,3503.54,-27.425,402.473,-38.2652,1862.38,8679.17,-806.298,69.7389,-73.6969,-67.7257,2186.36,9008.41,-2076.9,11.1996,-50.5248,-21.2973,2530.09,-4673.0,7188.95,-120.272,-24.7292,35.8957,878.453,-5878.87,-1061.85,-14.7722,-97.7175,-234.822,6561.56,-468.347,1414.22,-57.489,0.799651,-55.5043,-3800.67,-8061.53,-4196.17,-34.4678,69.1625,-133.073
1.883,277.31,4008.82,3511.75,-24.6806,400.242,-39.8548,1894.58,8670.58,-820.226,69.2755,-73.5143,-67.7875,2196.27,8950.18,-2169.9,10.4255,-50.9479,-21.7482,2504.76,-4812.23,7143.22,-120.089,-24.7947,35.3647,817.245,-5927.2,-1087.78,-14.987,-98.7781,-236.594,6549.68,-585.425,1393.73,-58.0975,0.786612,-54.4156,-3796.26,-8069.08,-4061.34,-35.2537,68.327,-132.572
1.884,416.696,4140.41,3519.96,-21.9362,398.011,-41.4444,1926.78,8661.99,-834.154,68.812,-73.3317,-67.8492,2206.18,8891.95,-2262.9,9.65135,-51.371,-22.199,2479.43,-4951.45,7097.49,-119.906,-24.8602,34.8337,756.038,-5975.54,-1113.72,-15.2018,-99.8386,-238.367,6537.8,-702.502,1373.23,-58.706,0.773572,-53.3269,-3791.85,-8076.63,-3926.51,-36.0396,67.4915,-132.071
1.885,552.989,4288.15,3537.41,-19.421,396.0,-43.1573,1988.39,8649.62,-858.921,68.3411,-73.093,-67.8993,2199.6,8860.23,-2345.33,9.00807,-51.7158,-22.6861,2504.17,-5074.42,7044.04,-119.519,-24.854,34.3679,698.133,-5986.3,-1151.03,-15.6842,-100.924,-240.101,6507.77,-769.577,1404.81,-59.0038,0.729435,-52.2152,-3767.99,-8056.38,-3856.33,-37.0043,66.7459,-131.531
1.886,686.805,4448.81,3562.25,-17.0893,394.164,-44.9689,2073.54,8634.25,-892.36,67.8642,-72.8094,-67.9402,2179.82,8849.72,-2419.32,8.46945,-51.998,-23.2022,2568.96,-5184.38,6984.41,-118.97,-24.7905,33.9541,642.871,-5967.01,-1197.44,-16.3806,-102.03,-241.804,6463.22,-796.649,1478.06,-59.053,0.66042,-51.0851,-3728.55,-8013.88,-3837.88,-38.1119,66.0722,-130.959
1.887,820.622,4609.46,3587.08,-14.7576,392.328,-46.7804,2158.69,8618.87,-925.798,67.3873,-72.5258,-67.9811,2160.04,8839.21,-2493.3,7.93082,-52.2802,-23.7183,2633.75,-5294.34,6924.79,-118.421,-24.727,33.5404,587.609,-5947.73,-1243.86,-17.0771,-103.136,-243.508,6418.67,-823.722,1551.32,-59.1022,0.591405,-49.9551,-3689.12,-7971.39,-3819.42,-39.2196,65.3986,-130.387
1.888,954.439,4770.12,3611.92,-12.4259,390.492,-48.5919,2243.84,8603.5,-959.236,66.9104,-72.2422,-68.022,2140.27,8828.7,-2567.29,7.3922,-52.5623,-24.2344,2698.54,-5404.3,6865.16,-117.873,-24.6635,33.1266,532.347,-5928.44,-1290.27,-17.7736,-104.242,-245.212,6374.13,-850.794,1624.57,-59.1513,0.52239,-48.825,-3649.69,-7928.89,-3800.97,-40.3273,64.7249,-129.814
1.889,1093.56,4929.03,3635.4,-10.1761,388.735,-50.4311,2330.9,8591.47,-993.547,66.4268,-71.9269,-68.0667,2123.48,8819.37,-2639.79,6.87496,-52.8431,-24.7267,2765.74,-5512.89,6806.25,-117.295,-24.5802,32.7025,475.007,-5917.1,-1339.05,-18.507,-105.344,-246.909,6332.08,-874.463,1690.76,-59.1556,0.448978,-47.7148,-3613.71,-7888.92,-3781.71,-41.3657,64.0347,-129.244
1.89,1275.08,5074.0,3647.97,-8.58161,387.612,-52.4918,2433.33,8606.26,-1034.84,65.8888,-71.3586,-68.1415,2130.62,8819.48,-2700.44,6.52872,-53.1129,-25.0294,2852.25,-5610.54,6753.01,-116.491,-24.3388,32.1951,401.038,-5969.34,-1406.69,-19.5359,-106.421,-248.558,6310.06,-870.909,1700.42,-58.801,0.340388,-46.7638,-3605.4,-7869.15,-3755.96,-41.8501,63.2118,-128.684
1.891,1456.6,5218.97,3660.55,-6.98711,386.489,-54.5525,2535.75,8621.05,-1076.13,65.3508,-70.7903,-68.2164,2137.75,8819.6,-2761.09,6.18249,-53.3826,-25.3321,2938.77,-5708.18,6699.77,-115.686,-24.0974,31.6877,327.069,-6021.58,-1474.34,-20.5647,-107.498,-250.207,6288.05,-867.354,1710.08,-58.4464,0.231798,-45.8127,-3597.09,-7849.37,-3730.22,-42.3345,62.389,-128.123
1.892,1638.12,5363.94,3673.13,-5.39261,385.367,-56.6132,2638.18,8635.84,-1117.42,64.8128,-70.2221,-68.2913,2144.89,8819.72,-2821.74,5.83625,-53.6523,-25.6347,3025.28,-5805.82,6646.53,-114.882,-23.856,31.1803,253.1,-6073.82,-1541.98,-21.5935,-108.575,-251.856,6266.03,-863.799,1719.74,-58.0917,0.123209,-44.8616,-3588.78,-7829.59,-3704.48,-42.8188,61.5661,-127.563
1.893,1819.64,5508.91,3685.71,-3.79812,384.244,-58.6739,2740.6,8650.63,-1158.71,64.2749,-69.6538,-68.3662,2152.02,8819.84,-2882.4,5.49002,-53.9221,-25.9374,3111.79,-5903.46,6593.3,-114.078,-23.6146,30.6729,179.131,-6126.06,-1609.63,-22.6224,-109.652,-253.505,6244.02,-860.244,1729.41,-57.7371,0.0146188,-43.9105,-3580.48,-7809.81,-3678.73,-43.3032,60.7432,-127.003
1.894,2016.56,5674.97,3707.59,-2.86407,383.419,-60.7715,2824.95,8656.08,-1210.25,64.1025,-69.3577,-68.3531,2171.87,8822.82,-2931.99,5.16301,-54.2398,-26.2006,3167.57,-5992.05,6513.45,-112.95,-23.2929,30.0476,122.703,-6172.46,-1673.75,-23.6151,-110.248,-255.155,6234.96,-882.173,1705.33,-57.8112,-0.445047,-42.8708,-3585.53,-7832.6,-3713.25,-44.7359,60.0275,-125.887
1.895,2221.18,5851.58,3734.13,-2.26025,382.744,-62.8875,2900.27,8656.85,-1266.91,64.1129,-69.1978,-68.296,2198.07,8827.25,-2976.06,4.84561,-54.5817,-26.444,3207.99,-6076.11,6420.3,-111.661,-22.931,29.3633,75.0451,-6215.94,-1736.11,-24.5897,-110.604,-256.805,6232.39,-916.845,1664.38,-58.0997,-1.08025,-41.7866,-3597.27,-7876.67,-3777.89,-46.6427,59.3653,-124.494
1.896,2425.8,6028.18,3760.66,-1.65643,382.069,-65.0035,2975.59,8657.63,-1323.58,64.1233,-69.0379,-68.2389,2224.28,8831.67,-3020.13,4.52821,-54.9235,-26.6874,3248.4,-6160.17,6327.15,-110.373,-22.5692,28.679,27.387,-6259.43,-1798.47,-25.5644,-110.959,-258.455,6229.82,-951.517,1623.43,-58.3882,-1.71546,-40.7025,-3609.0,-7920.74,-3842.54,-48.5494,58.7032,-123.1
1.897,2630.42,6204.78,3787.2,-1.05261,381.393,-67.1195,3050.91,8658.41,-1380.24,64.1337,-68.878,-68.1818,2250.48,8836.09,-3064.19,4.21081,-55.2653,-26.9308,3288.82,-6244.23,6234.0,-109.084,-22.2073,27.9947,-20.271,-6302.91,-1860.83,-26.539,-111.315,-260.105,6227.25,-986.188,1582.47,-58.6767,-2.35066,-39.6184,-3620.74,-7964.81,-3907.18,-50.4562,58.041,-121.707
1.898,2833.98,6394.98,3819.31,-0.597811,380.841,-69.2156,3130.17,8654.75,-1437.38,64.1542,-68.7386,-68.1002,2270.9,8840.08,-3111.25,3.89468,-55.6421,-27.1811,3320.09,-6330.28,6145.7,-107.69,-21.8573,27.2816,-72.8972,-6345.79,-1927.72,-27.581,-111.534,-261.8,6222.3,-1022.09,1540.69,-58.9006,-2.98447,-38.6147,-3632.39,-7986.65,-3910.94,-51.4628,57.4687,-120.595
1.899,3033.87,6632.72,3870.94,-0.664606,380.719,-71.2422,3223.21,8635.54,-1496.2,64.21,-68.6705,-67.9326,2271.07,8842.54,-3168.77,3.58299,-56.1413,-27.4556,3319.36,-6423.32,6074.36,-105.931,-21.549,26.4676,-142.912,-6386.56,-2010.49,-28.8588,-111.278,-263.649,6209.02,-1062.27,1496.0,-58.8984,-3.61337,-37.8927,-3643.77,-7930.69,-3701.6,-49.3185,57.2106,-120.471
1.9,3233.76,6870.47,3922.56,-0.731402,380.596,-73.2688,3316.25,8616.33,-1555.03,64.2658,-68.6024,-67.7651,2271.24,8845.0,-3226.29,3.2713,-56.6406,-27.7302,3318.63,-6516.36,6003.01,-104.171,-21.2406,25.6537,-212.927,-6427.33,-2093.25,-30.1365,-111.021,-265.498,6195.75,-1102.46,1451.3,-58.8962,-4.24228,-37.1706,-3655.14,-7874.73,-3492.26,-47.1742,56.9525,-120.347
1.901,3433.65,7108.21,3974.19,-0.798198,380.474,-75.2953,3409.29,8597.13,-1613.85,64.3216,-68.5343,-67.5976,2271.42,8847.47,-3283.81,2.95961,-57.1398,-28.0047,3317.9,-6609.4,5931.67,-102.411,-20.9323,24.8397,-282.942,-6468.1,-2176.02,-31.4142,-110.765,-267.348,6182.47,-1142.64,1406.61,-58.894,-4.87119,-36.4486,-3666.52,-7818.78,-3282.92,-45.0299,56.6944,-120.224
1.902,3633.54,7345.96,4025.82,-0.864993,380.352,-77.3219,3502.34,8577.92,-1672.67,64.3774,-68.4662,-67.43,2271.59,8849.93,-3341.33,2.64792,-57.639,-28.2792,3317.18,-6702.43,5860.33,-100.652,-20.624,24.0257,-352.957,-6508.87,-2258.79,-32.692,-110.508,-269.197,6169.19,-1182.83,1361.91,-58.8918,-5.5001,-35.7265,-3677.9,-7762.82,-3073.58,-42.8856,56.4363,-120.1
1.903,3814.85,7552.85,4057.54,-1.435,380.419,-79.3584,3622.37,8588.9,-1752.42,64.7332,-68.4306,-67.4046,2272.35,8850.11,-3416.36,2.17205,-58.3352,-28.6109,3254.26,-6844.38,5808.14,-98.4764,-20.545,22.898,-342.756,-6549.83,-2362.02,-34.0912,-109.572,-270.857,6204.01,-1203.13,1374.01,-58.6454,-6.2382,-35.1176,-3652.35,-7720.44,-3021.2,-42.2018,56.2558,-119.555
1.904,3990.84,7750.93,4083.58,-2.14877,380.541,-81.3977,3750.11,8608.5,-1838.15,65.1747,-68.4042,-67.4198,2273.28,8849.64,-3496.39,1.64927,-59.0876,-28.959,3173.58,-7000.29,5761.41,-96.1822,-20.5317,21.6805,-309.638,-6590.85,-2471.1,-35.5252,-108.441,-272.463,6252.58,-1217.75,1402.34,-58.3293,-7.00749,-34.541,-3616.26,-7681.93,-3013.66,-41.9353,56.0974,-118.889
1.905,4166.84,7949.01,4109.62,-2.86255,380.662,-83.437,3877.85,8628.1,-1923.89,65.6161,-68.3778,-67.435,2274.21,8849.17,-3576.41,1.12649,-59.8401,-29.3071,3092.9,-7156.21,5714.69,-93.8879,-20.5183,20.4631,-276.519,-6631.87,-2580.18,-36.9592,-107.311,-274.069,6301.14,-1232.37,1430.67,-58.0132,-7.77678,-33.9644,-3580.16,-7643.42,-3006.12,-41.6689,55.939,-118.224
1.906,4342.84,8147.09,4135.67,-3.57632,380.784,-85.4763,4005.6,8647.7,-2009.62,66.0576,-68.3515,-67.4502,2275.14,8848.71,-3656.44,0.60371,-60.5925,-29.6552,3012.22,-7312.13,5667.97,-91.5937,-20.505,19.2456,-243.4,-6672.89,-2689.25,-38.3932,-106.18,-275.674,6349.71,-1246.99,1459.0,-57.697,-8.54607,-33.3877,-3544.07,-7604.91,-2998.58,-41.4024,55.7806,-117.558
1.907,4505.38,8331.11,4157.64,-4.34729,380.949,-87.5149,4135.29,8663.19,-2083.04,66.4563,-68.3173,-67.4565,2283.52,8853.84,-3743.59,0.0917825,-61.3358,-30.0525,2923.92,-7484.63,5628.1,-89.138,-20.577,17.9639,-203.742,-6730.1,-2790.2,-39.8494,-104.783,-277.253,6387.38,-1261.45,1477.68,-57.415,-9.22978,-32.8356,-3507.07,-7569.93,-2968.6,-41.1827,55.6928,-117.025
1.908,4641.0,8487.02,4171.5,-5.23263,381.201,-89.5524,4268.9,8670.47,-2131.85,66.7694,-68.2676,-67.4451,2306.82,8870.19,-3845.01,-0.398441,-62.0608,-30.5484,2820.37,-7690.3,5601.93,-86.3594,-20.8197,16.5537,-151.008,-6819.7,-2874.86,-41.3501,-102.851,-278.775,6403.26,-1275.57,1477.06,-57.201,-9.74234,-32.3324,-3468.25,-7542.01,-2893.75,-41.0565,55.7463,-116.755
1.909,4776.63,8642.92,4185.35,-6.11798,381.453,-91.5898,4402.5,8677.75,-2180.65,67.0825,-68.2178,-67.4336,2330.11,8886.54,-3946.43,-0.888665,-62.7858,-31.0443,2716.82,-7895.96,5575.76,-83.5807,-21.0624,15.1435,-98.2731,-6909.3,-2959.53,-42.8509,-100.92,-280.298,6419.15,-1289.69,1476.45,-56.987,-10.2549,-31.8292,-3429.44,-7514.1,-2818.89,-40.9303,55.7997,-116.485
1.91,4912.25,8798.83,4199.21,-7.00332,381.705,-93.6272,4536.1,8685.02,-2229.46,67.3956,-68.1681,-67.4221,2353.4,8902.88,-4047.84,-1.37889,-63.5108,-31.5401,2613.27,-8101.63,5549.59,-80.8021,-21.3051,13.7332,-45.5385,-6998.89,-3044.2,-44.3517,-98.9879,-281.821,6435.03,-1303.82,1475.83,-56.773,-10.7675,-31.326,-3390.63,-7486.18,-2744.04,-40.804,55.8532,-116.215
1.911,5047.88,8954.74,4213.06,-7.88867,381.957,-95.6647,4669.71,8692.3,-2278.26,67.7086,-68.1183,-67.4107,2376.7,8919.23,-4149.26,-1.86911,-64.2358,-32.036,2509.72,-8307.3,5523.42,-78.0235,-21.5479,12.323,7.19622,-7088.49,-3128.87,-45.8524,-97.0562,-283.344,6450.91,-1317.94,1475.22,-56.559,-11.28,-30.8227,-3351.82,-7458.26,-2669.18,-40.6778,55.9067,-115.946
1.912,5128.29,9064.2,4265.98,-8.59374,382.209,-97.6431,4773.16,8669.19,-2296.78,67.871,-68.1131,-67.3864,2395.21,8917.44,-4226.92,-2.22623,-64.5872,-32.5093,2478.04,-8472.45,5463.22,-75.3864,-21.7711,11.1575,80.517,-7154.57,-3210.52,-47.5564,-94.1571,-284.644,6469.02,-1321.8,1496.63,-56.0993,-11.3637,-30.4417,-3348.73,-7471.2,-2586.5,-39.5335,56.2486,-115.699
1.913,5201.79,9167.87,4323.79,-9.27627,382.461,-99.6141,4872.84,8642.29,-2311.51,68.0145,-68.1135,-67.3605,2413.12,8913.37,-4301.61,-2.5667,-64.8918,-32.9799,2455.34,-8632.54,5398.76,-72.767,-21.992,10.0227,156.411,-7217.7,-3291.8,-49.2858,-91.137,-285.916,6487.41,-1324.38,1520.8,-55.6089,-11.3937,-30.0759,-3350.11,-7489.25,-2502.83,-38.2619,56.6265,-115.456
1.914,5275.3,9271.53,4381.59,-9.9588,382.712,-101.585,4972.53,8615.39,-2326.24,68.1579,-68.1138,-67.3346,2431.03,8909.31,-4376.3,-2.90718,-65.1964,-33.4504,2432.65,-8792.62,5334.31,-70.1476,-22.2129,8.8878,232.305,-7280.83,-3373.07,-51.0153,-88.1169,-287.188,6505.8,-1326.96,1544.97,-55.1185,-11.4237,-29.7101,-3351.49,-7507.3,-2419.17,-36.9903,57.0045,-115.212
1.915,5348.8,9375.2,4439.4,-10.6413,382.964,-103.556,5072.21,8588.49,-2340.98,68.3014,-68.1142,-67.3086,2448.94,8905.25,-4451.0,-3.24765,-65.501,-33.9209,2409.95,-8952.71,5269.85,-67.5281,-22.4337,7.75294,308.199,-7343.97,-3454.35,-52.7447,-85.0968,-288.461,6524.18,-1329.54,1569.14,-54.6281,-11.4537,-29.3443,-3352.87,-7525.36,-2335.51,-35.7187,57.3824,-114.969
1.916,5415.15,9445.14,4504.97,-11.1201,383.061,-105.54,5170.19,8600.57,-2338.05,68.5023,-68.1425,-67.1973,2473.27,8890.14,-4502.92,-3.49984,-65.5739,-34.4709,2410.26,-9070.21,5235.38,-65.0029,-22.6331,6.81037,417.397,-7416.83,-3539.69,-54.3841,-81.7001,-289.652,6563.49,-1322.46,1600.82,-54.1636,-11.6458,-29.0712,-3329.66,-7504.85,-2283.01,-34.8139,57.8714,-114.85
1.917,5472.57,9472.92,4580.24,-11.3441,382.966,-107.539,5266.03,8661.37,-2313.03,68.7749,-68.2058,-66.9793,2505.61,8861.22,-4526.38,-3.64168,-65.3573,-35.1203,2439.31,-9134.46,5238.38,-62.5954,-22.8057,6.10817,568.224,-7501.87,-3630.13,-55.911,-77.8326,-290.743,6628.96,-1303.3,1641.89,-53.7315,-12.0402,-28.9139,-3275.73,-7436.16,-2269.48,-34.3676,58.4991,-114.886
1.918,5529.98,9500.7,4655.52,-11.5681,382.872,-109.538,5361.86,8722.17,-2288.02,69.0475,-68.2692,-66.7613,2537.96,8832.29,-4549.84,-3.78351,-65.1406,-35.7697,2468.37,-9198.72,5241.38,-60.1879,-22.9783,5.40597,719.052,-7586.9,-3720.57,-57.438,-73.9651,-291.835,6694.42,-1284.15,1682.96,-53.2993,-12.4347,-28.7566,-3221.79,-7367.47,-2255.94,-33.9212,59.1268,-114.922
1.919,5587.39,9528.49,4730.79,-11.7921,382.777,-111.538,5457.7,8782.97,-2263.01,69.3201,-68.3325,-66.5433,2570.31,8803.37,-4573.31,-3.92534,-64.924,-36.4191,2497.42,-9262.98,5244.37,-57.7804,-23.1509,4.70376,869.88,-7671.93,-3811.01,-58.9649,-70.0977,-292.926,6759.88,-1265.0,1724.03,-52.8672,-12.8292,-28.5993,-3167.85,-7298.77,-2242.41,-33.4748,59.7545,-114.958
1.92,5644.8,9556.27,4806.07,-12.0161,382.682,-113.537,5553.54,8843.77,-2238.0,69.5927,-68.3959,-66.3253,2602.65,8774.45,-4596.77,-4.06718,-64.7073,-37.0685,2526.47,-9327.24,5247.37,-55.3729,-23.3235,4.00156,1020.71,-7756.97,-3901.44,-60.4919,-66.2302,-294.017,6825.35,-1245.84,1765.11,-52.4351,-13.2237,-28.442,-3113.92,-7230.08,-2228.88,-33.0285,60.3822,-114.994
1.921,5695.04,9553.72,4854.2,-11.7893,382.162,-115.567,5637.12,8877.83,-2203.77,69.3841,-68.654,-66.1265,2627.35,8742.83,-4629.52,-3.99292,-64.0584,-37.6474,2629.59,-9295.28,5249.7,-53.1285,-23.2785,3.44157,1097.27,-7866.78,-3946.42,-61.846,-61.6043,-294.67,6883.23,-1176.71,1762.33,-52.1145,-13.2553,-28.3035,-3100.31,-7222.63,-2177.03,-32.3557,60.695,-115.164
1.922,5745.28,9551.18,4902.34,-11.5625,381.643,-117.597,5720.7,8911.9,-2169.55,69.1754,-68.9122,-65.9277,2652.05,8711.2,-4662.26,-3.91865,-63.4096,-38.2263,2732.71,-9263.31,5252.03,-50.8841,-23.2334,2.88157,1173.82,-7976.6,-3991.4,-63.2002,-56.9783,-295.323,6941.11,-1107.58,1759.56,-51.7939,-13.2868,-28.1649,-3086.69,-7215.18,-2125.18,-31.6829,61.0077,-115.334
1.923,5795.51,9548.63,4950.48,-11.3358,381.123,-119.627,5804.29,8945.97,-2135.32,68.9668,-69.1704,-65.7289,2676.75,8679.57,-4695.01,-3.84439,-62.7607,-38.8052,2835.83,-9231.34,5254.36,-48.6397,-23.1884,2.32158,1250.38,-8086.41,-4036.38,-64.5543,-52.3524,-295.976,6998.98,-1038.45,1756.78,-51.4733,-13.3184,-28.0264,-3073.08,-7207.73,-2073.34,-31.0101,61.3204,-115.504
1.924,5845.75,9546.09,4998.61,-11.109,380.604,-121.657,5887.87,8980.04,-2101.09,68.7581,-69.4286,-65.5301,2701.45,8647.95,-4727.76,-3.77013,-62.1119,-39.3841,2938.95,-9199.38,5256.68,-46.3953,-23.1434,1.76159,1326.94,-8196.23,-4081.36,-65.9085,-47.7265,-296.629,7056.86,-969.321,1754.01,-51.1528,-13.35,-27.8878,-3059.47,-7200.28,-2021.49,-30.3373,61.6331,-115.674
1.925,5883.69,9538.11,5047.33,-10.6769,379.821,-123.698,5980.57,9004.28,-2059.78,68.3899,-69.5631,-65.328,2716.38,8628.87,-4748.0,-3.76484,-61.3964,-40.0165,3023.91,-9131.21,5256.89,-44.1071,-23.0456,1.21819,1406.1,-8324.57,-4098.72,-67.2509,-42.7449,-297.106,7119.93,-943.075,1767.43,-50.8429,-13.4087,-27.9005,-3052.46,-7185.31,-1985.86,-29.6803,61.8556,-115.871
1.926,5911.8,9525.78,5096.52,-10.0804,378.827,-125.748,6080.56,9020.65,-2012.8,67.8941,-69.5986,-65.1231,2723.5,8619.82,-4758.23,-3.81474,-60.6275,-40.6918,3094.36,-9034.08,5255.4,-41.7838,-22.9056,0.688053,1487.34,-8467.74,-4093.98,-68.5839,-37.4787,-297.443,7187.15,-951.137,1793.82,-50.5416,-13.489,-28.0342,-3050.74,-7164.33,-1963.18,-29.0361,62.0059,-116.09
1.927,5939.9,9513.46,5145.7,-9.48398,377.834,-127.798,6180.55,9037.01,-1965.82,67.3983,-69.6341,-64.9183,2730.62,8610.78,-4768.46,-3.86464,-59.8587,-41.3671,3164.81,-8936.95,5253.9,-39.4605,-22.7656,0.15792,1568.58,-8610.91,-4089.25,-69.917,-32.2125,-297.78,7254.37,-959.198,1820.21,-50.2403,-13.5694,-28.1679,-3049.02,-7143.35,-1940.51,-28.3918,62.1562,-116.308
1.928,5968.0,9501.13,5194.89,-8.88754,376.84,-129.848,6280.55,9053.38,-1918.84,66.9025,-69.6697,-64.7135,2737.73,8601.73,-4778.7,-3.91453,-59.0898,-42.0424,3235.26,-8839.81,5252.41,-37.1371,-22.6256,-0.372213,1649.83,-8754.08,-4084.51,-71.25,-26.9463,-298.117,7321.59,-967.26,1846.6,-49.9389,-13.6498,-28.3016,-3047.3,-7122.37,-1917.84,-27.7475,62.3065,-116.527
1.929,5997.84,9489.9,5240.17,-8.26817,375.783,-131.921,6372.06,9067.98,-1873.5,66.4634,-69.7169,-64.5306,2743.25,8595.57,-4785.73,-3.98181,-58.3311,-42.7341,3297.36,-8740.58,5254.19,-34.8098,-22.4867,-0.935075,1726.3,-8893.83,-4080.26,-72.559,-21.6042,-298.426,7385.83,-969.95,1866.0,-49.6714,-13.7073,-28.393,-3047.56,-7106.12,-1884.5,-26.9951,62.4112,-116.799
1.93,6041.56,9487.44,5254.29,-7.46539,374.216,-134.179,6395.75,9068.41,-1841.27,66.4776,-69.8577,-64.5235,2735.96,8612.5,-4767.11,-4.18807,-57.6532,-43.5561,3292.66,-8624.51,5282.14,-32.4503,-22.357,-1.75976,1764.67,-9006.27,-4079.84,-73.6755,-15.6552,-298.514,7426.24,-929.672,1829.57,-49.6742,-13.5823,-28.1468,-3063.66,-7127.73,-1765.82,-25.3775,62.1506,-117.498
1.931,6085.28,9484.98,5268.4,-6.66261,372.65,-136.437,6419.43,9068.84,-1809.04,66.4918,-69.9985,-64.5165,2728.67,8629.43,-4748.5,-4.39434,-56.9753,-44.3782,3287.96,-8508.44,5310.1,-30.0908,-22.2272,-2.58445,1803.03,-9118.71,-4079.43,-74.792,-9.70612,-298.602,7466.66,-889.393,1793.14,-49.6769,-13.4574,-27.9006,-3079.75,-7149.34,-1647.14,-23.7599,61.8901,-118.196
1.932,6128.99,9482.52,5282.52,-5.85983,371.083,-138.695,6443.12,9069.27,-1776.81,66.506,-70.1394,-64.5094,2721.38,8646.36,-4729.89,-4.60061,-56.2974,-45.2003,3283.27,-8392.37,5338.06,-27.7312,-22.0974,-3.40914,1841.39,-9231.15,-4079.02,-75.9085,-3.75707,-298.69,7507.07,-849.115,1756.7,-49.6796,-13.3324,-27.6544,-3095.85,-7170.95,-1528.46,-22.1423,61.6295,-118.895
1.933,6172.71,9480.06,5296.63,-5.05705,369.516,-140.953,6466.8,9069.7,-1744.57,66.5202,-70.2802,-64.5023,2714.1,8663.29,-4711.28,-4.80687,-55.6196,-46.0223,3278.57,-8276.3,5366.01,-25.3717,-21.9677,-4.23383,1879.75,-9343.6,-4078.6,-77.025,2.19197,-298.778,7547.49,-808.836,1720.27,-49.6824,-13.2074,-27.4082,-3111.95,-7192.55,-1409.78,-20.5247,61.3689,-119.594
1.934,6220.41,9500.15,5304.12,-4.45299,367.692,-143.362,6497.18,9061.68,-1716.94,66.4264,-69.926,-64.4433,2695.48,8670.61,-4661.96,-5.0527,-54.9283,-46.8941,3238.02,-8181.21,5403.34,-23.1432,-21.8194,-5.12006,1912.31,-9468.73,-4068.96,-77.9996,8.29137,-298.678,7589.63,-770.829,1699.6,-49.386,-13.4415,-27.2501,-3126.89,-7198.05,-1334.4,-19.0304,60.9748,-120.361
1.935,6270.12,9531.52,5308.29,-3.9483,365.74,-145.846,6530.89,9049.45,-1691.61,66.2786,-69.3244,-64.3583,2671.2,8673.11,-4597.28,-5.31831,-54.2303,-47.7908,3179.54,-8096.59,5445.36,-20.9801,-21.6619,-6.03706,1941.96,-9600.22,-4054.69,-78.9031,14.4659,-298.484,7632.63,-733.957,1686.8,-48.9401,-13.8552,-27.136,-3141.25,-7195.48,-1280.67,-17.5976,60.5139,-121.162
1.936,6319.82,9562.89,5312.47,-3.44361,363.788,-148.331,6564.6,9037.21,-1666.28,66.1309,-68.7227,-64.2733,2646.93,8675.61,-4532.61,-5.58392,-53.5323,-48.6875,3121.06,-8011.98,5487.38,-18.817,-21.5044,-6.95406,1971.62,-9731.7,-4040.43,-79.8066,20.6405,-298.291,7675.64,-697.085,1674.01,-48.4941,-14.2689,-27.0219,-3155.61,-7192.92,-1226.93,-16.1648,60.0529,-121.962
1.937,6369.52,9594.26,5316.64,-2.93892,361.836,-150.815,6598.32,9024.98,-1640.95,65.9831,-68.121,-64.1883,2622.65,8678.12,-4467.94,-5.84953,-52.8343,-49.5842,3062.58,-7927.37,5529.4,-16.6539,-21.347,-7.87106,2001.27,-9863.18,-4026.16,-80.7101,26.8151,-298.097,7718.64,-660.213,1661.22,-48.0482,-14.6826,-26.9078,-3169.97,-7190.36,-1173.2,-14.7321,59.592,-122.763
1.938,6413.51,9634.15,5329.01,-2.47845,359.783,-153.312,6625.57,9003.63,-1613.03,65.9228,-67.3363,-64.1226,2602.08,8686.76,-4404.49,-6.11567,-52.0512,-50.4854,3017.8,-7841.26,5573.91,-14.6149,-21.1561,-8.80564,2020.39,-9996.97,-4012.11,-81.6025,33.0,-297.852,7758.19,-630.727,1644.23,-47.5241,-15.0721,-26.6979,-3183.36,-7186.48,-1126.95,-13.2591,59.0729,-123.633
1.939,6437.5,9703.88,5370.08,-2.17272,357.377,-155.858,6630.19,8950.36,-1576.02,66.1688,-65.9109,-64.1248,2594.5,8716.91,-4345.34,-6.38368,-50.9703,-51.4027,3020.98,-7749.92,5627.14,-13.0101,-20.8481,-9.80173,2002.68,-10138.8,-3998.78,-82.4557,39.221,-297.428,7785.65,-627.087,1612.55,-46.7265,-15.3773,-26.1523,-3193.38,-7177.98,-1106.9,-11.6455,58.3505,-124.741
1.94,6461.49,9773.6,5411.14,-1.867,354.971,-158.403,6634.82,8897.1,-1539.01,66.4148,-64.4855,-64.1269,2586.91,8747.07,-4286.18,-6.65169,-49.8895,-52.32,3024.16,-7658.57,5680.38,-11.4052,-20.5402,-10.7978,1984.97,-10280.7,-3985.46,-83.309,45.4419,-297.003,7813.12,-623.448,1580.86,-45.9288,-15.6825,-25.6067,-3203.4,-7169.48,-1086.86,-10.0319,57.628,-125.849
1.941,6485.48,9843.32,5452.2,-1.56128,352.565,-160.948,6639.44,8843.84,-1502.01,66.6608,-63.0601,-64.129,2579.33,8777.22,-4227.03,-6.91971,-48.8086,-53.2373,3027.33,-7567.23,5733.61,-9.80039,-20.2323,-11.7939,1967.26,-10422.6,-3972.13,-84.1622,51.6629,-296.578,7840.58,-619.808,1549.18,-45.1312,-15.9876,-25.0612,-3213.43,-7160.99,-1066.81,-8.41828,56.9056,-126.958
1.942,6509.47,9913.04,5493.27,-1.25556,350.16,-163.494,6644.07,8790.57,-1465.0,66.9067,-61.6347,-64.1311,2571.74,8807.37,-4167.88,-7.18772,-47.7277,-54.1545,3030.51,-7475.88,5786.85,-8.19555,-19.9244,-12.79,1949.55,-10564.4,-3958.81,-85.0154,57.8839,-296.154,7868.04,-616.169,1517.5,-44.3335,-16.2928,-24.5156,-3223.45,-7152.49,-1046.77,-6.80467,56.1831,-128.066
1.943,6519.98,9968.15,5530.17,-0.939384,347.25,-166.139,6590.49,8738.6,-1415.56,67.4917,-60.0774,-64.1867,2552.99,8830.32,-4120.65,-7.23231,-46.6937,-54.9852,3040.09,-7402.62,5855.72,-6.88672,-19.6867,-13.5145,1905.49,-10750.8,-3912.72,-85.6393,63.802,-295.66,7898.43,-607.289,1517.73,-44.2669,-16.1655,-24.132,-3256.91,-7197.55,-1015.7,-5.24518,55.3777,-129.135
1.944,6526.64,10019.1,5565.88,-0.620227,344.196,-168.813,6520.29,8687.0,-1362.57,68.1736,-58.4825,-64.2575,2531.06,8851.22,-4076.83,-7.21307,-45.673,-55.7912,3051.5,-7334.51,5929.07,-5.66246,-19.4691,-14.1613,1853.91,-10949.9,-3857.27,-86.1977,69.6336,-295.148,7929.65,-596.911,1527.08,-44.4091,-15.9146,-23.7947,-3297.06,-7257.91,-981.484,-3.70115,54.5487,-130.192
1.945,6533.3,10070.0,5601.59,-0.30107,341.143,-171.486,6450.08,8635.39,-1309.58,68.8554,-56.8876,-64.3283,2509.12,8872.11,-4033.02,-7.19383,-44.6523,-56.5972,3062.92,-7266.41,6002.42,-4.43819,-19.2515,-14.8081,1802.33,-11149.0,-3801.82,-86.7561,75.4651,-294.635,7960.87,-586.534,1536.44,-44.5514,-15.6637,-23.4575,-3337.21,-7318.27,-947.268,-2.15713,53.7197,-131.25
1.946,6539.96,10120.9,5637.3,0.018087,338.089,-174.16,6379.88,8583.79,-1256.59,69.5372,-55.2926,-64.3991,2487.19,8893.01,-3989.2,-7.17459,-43.6317,-57.4031,3074.33,-7198.31,6075.76,-3.21393,-19.0339,-15.4549,1750.75,-11348.1,-3746.37,-87.3144,81.2967,-294.122,7992.09,-576.157,1545.79,-44.6936,-15.4129,-23.1202,-3377.36,-7378.62,-913.053,-0.613106,52.8907,-132.308
1.947,6544.46,10159.6,5683.67,0.401022,334.915,-176.978,6313.02,8540.39,-1199.17,70.1883,-53.8401,-64.4375,2462.66,8906.63,-3939.99,-7.12693,-42.6156,-58.2227,3108.45,-7134.83,6138.83,-1.99912,-18.8018,-16.0908,1685.18,-11545.1,-3690.06,-87.7141,86.9326,-293.601,8021.91,-567.886,1552.33,-44.6502,-15.1467,-22.8298,-3409.46,-7424.4,-862.748,0.898359,52.0604,-133.4
1.948,6544.66,10173.9,5751.38,0.911513,331.501,-180.084,6252.86,8513.41,-1132.89,70.778,-52.6722,-64.411,2432.93,8905.71,-3879.98,-7.02242,-41.6088,-59.0694,3188.0,-7080.62,6181.35,-0.803227,-18.5407,-16.7046,1591.63,-11737.8,-3632.02,-87.7961,92.1772,-293.065,8048.93,-563.831,1553.26,-44.2356,-14.8499,-22.6333,-3425.45,-7441.0,-780.263,2.3447,51.2275,-134.563
1.949,6544.86,10188.1,5819.09,1.422,328.087,-183.19,6192.7,8486.43,-1066.61,71.3677,-51.5043,-64.3845,2403.2,8904.8,-3819.97,-6.91791,-40.602,-59.9161,3267.54,-7026.41,6223.87,0.392669,-18.2796,-17.3184,1498.09,-11930.6,-3573.98,-87.8782,97.4218,-292.528,8075.96,-559.776,1554.19,-43.821,-14.5531,-22.4368,-3441.44,-7457.61,-697.779,3.79105,50.3947,-135.726
1.95,6545.06,10202.4,5886.8,1.9325,324.673,-186.296,6132.54,8459.45,-1000.33,71.9573,-50.3364,-64.358,2373.47,8903.88,-3759.96,-6.8134,-39.5953,-60.7627,3347.09,-6972.19,6266.39,1.58857,-18.0184,-17.9322,1404.55,-12123.4,-3515.94,-87.9603,102.666,-291.991,8102.98,-555.72,1555.12,-43.4064,-14.2563,-22.2403,-3457.43,-7474.22,-615.294,5.2374,49.5618,-136.889
1.951,6545.26,10216.6,5954.51,2.44299,321.259,-189.401,6072.38,8432.47,-934.049,72.547,-49.1685,-64.3315,2343.74,8902.96,-3699.95,-6.70889,-38.5885,-61.6094,3426.63,-6917.98,6308.9,2.78446,-17.7573,-18.546,1311.0,-12316.1,-3457.9,-88.0424,107.911,-291.455,8130.01,-551.665,1556.05,-42.9918,-13.9595,-22.0438,-3473.42,-7490.82,-532.81,6.68374,48.729,-138.052
1.952,6549.39,10204.6,6040.7,2.8782,317.59,-192.693,6020.95,8459.95,-871.425,72.8515,-48.4429,-64.3789,2320.09,8918.43,-3636.33,-6.79667,-37.8041,-62.5747,3482.65,-6900.61,6305.95,3.87437,-17.572,-18.9788,1190.89,-12472.6,-3394.04,-87.9251,112.359,-291.036,8180.65,-529.654,1540.74,-42.9571,-13.34,-21.6762,-3482.1,-7525.25,-478.584,8.10339,48.1265,-139.048
1.953,6554.01,10189.4,6129.19,3.304,313.888,-196.007,5970.61,8494.24,-809.257,73.1205,-47.7725,-64.4356,2297.21,8935.95,-3572.27,-6.90848,-37.0474,-63.5548,3535.73,-6887.84,6297.32,4.95103,-17.3962,-19.3888,1067.46,-12624.6,-3329.47,-87.783,116.708,-290.632,8234.25,-505.4,1523.38,-42.9698,-12.6802,-21.2872,-3489.85,-7561.91,-427.889,9.51971,47.5528,-140.023
1.954,6558.63,10174.1,6217.69,3.7298,310.187,-199.322,5920.27,8528.53,-747.09,73.3894,-47.1022,-64.4922,2274.33,8953.47,-3508.2,-7.02029,-36.2908,-64.535,3588.81,-6875.07,6288.69,6.02769,-17.2204,-19.7989,944.027,-12776.5,-3264.89,-87.6408,121.056,-290.227,8287.85,-481.145,1506.03,-42.9826,-12.0203,-20.8983,-3497.61,-7598.56,-377.195,10.936,46.9791,-140.998
1.955,6563.25,10158.9,6306.18,4.1556,306.486,-202.636,5869.92,8562.82,-684.922,73.6583,-46.4318,-64.5489,2251.44,8970.99,-3444.14,-7.13211,-35.5342,-65.5151,3641.89,-6862.3,6280.05,7.10435,-17.0445,-20.209,820.594,-12928.5,-3200.31,-87.4986,125.404,-289.823,8341.44,-456.89,1488.68,-42.9953,-11.3605,-20.5093,-3505.37,-7635.22,-326.5,12.3523,46.4054,-141.973
1.956,6574.96,10156.1,6378.16,4.48308,302.686,-206.043,5827.99,8607.82,-625.958,73.7733,-46.11,-64.5619,2218.77,8985.94,-3368.94,-7.10927,-34.8032,-66.5105,3659.1,-6844.17,6303.38,8.10072,-16.8574,-20.7091,695.661,-13077.4,-3152.99,-87.3183,129.329,-289.472,8397.25,-450.32,1462.45,-42.3907,-10.9974,-20.1853,-3509.74,-7683.96,-267.396,13.7246,45.9079,-142.836
1.957,6595.53,10168.9,6429.49,4.68766,298.764,-209.564,5796.57,8666.19,-570.997,73.6958,-46.2239,-64.5204,2173.88,8997.69,-3279.84,-6.91812,-34.1042,-67.5251,3631.47,-6819.33,6366.67,8.99672,-16.656,-21.3219,568.852,-13222.5,-3127.25,-87.0901,132.724,-289.186,8455.83,-465.855,1425.12,-41.0144,-11.0054,-19.9426,-3509.88,-7747.82,-197.778,15.0417,45.5056,-143.561
1.958,6616.11,10181.8,6480.82,4.89225,294.841,-213.086,5765.15,8724.56,-516.036,73.6183,-46.3378,-64.4789,2128.98,9009.43,-3190.75,-6.72697,-33.4052,-68.5396,3603.84,-6794.48,6429.96,9.89272,-16.4546,-21.9346,442.042,-13367.6,-3101.5,-86.8619,136.118,-288.901,8514.41,-481.39,1387.79,-39.638,-11.0134,-19.6998,-3510.02,-7811.67,-128.161,16.3588,45.1034,-144.285
1.959,6636.68,10194.6,6532.15,5.09683,290.919,-216.608,5733.73,8782.93,-461.076,73.5408,-46.4517,-64.4374,2084.08,9021.18,-3101.65,-6.53582,-32.7063,-69.5542,3576.21,-6769.64,6493.25,10.7887,-16.2532,-22.5473,315.232,-13512.8,-3075.76,-86.6338,139.513,-288.615,8572.99,-496.925,1350.46,-38.2617,-11.0214,-19.4571,-3510.16,-7875.53,-58.5435,17.6759,44.7011,-145.009
1.96,6657.26,10207.4,6583.48,5.30141,286.997,-220.13,5702.31,8841.3,-406.115,73.4633,-46.5656,-64.3959,2039.18,9032.92,-3012.55,-6.34467,-32.0073,-70.5687,3548.58,-6744.8,6556.54,11.6847,-16.0519,-23.1601,188.423,-13657.9,-3050.02,-86.4056,142.907,-288.329,8631.57,-512.46,1313.13,-36.8854,-11.0294,-19.2143,-3510.3,-7939.38,11.0739,18.9931,44.2989,-145.734
1.961,6710.23,10222.8,6615.47,5.52581,283.105,-223.817,5606.85,8890.04,-323.186,72.5991,-47.6111,-64.2511,2073.22,9088.83,-2929.88,-5.98496,-31.169,-71.4214,3502.23,-6746.65,6599.37,12.5042,-16.1084,-23.4909,65.9825,-13779.6,-3027.07,-86.204,145.697,-288.229,8605.59,-481.34,1303.6,-36.9208,-10.8622,-18.9028,-3530.41,-7950.97,87.4809,19.811,44.215,-146.656
1.962,6763.2,10238.3,6647.45,5.75021,279.214,-227.505,5511.39,8938.78,-240.257,71.7349,-48.6567,-64.1063,2107.25,9144.74,-2847.21,-5.62524,-30.3307,-72.2741,3455.88,-6748.51,6642.19,13.3238,-16.1649,-23.8218,-56.458,-13901.2,-3004.11,-86.0025,148.487,-288.129,8579.62,-450.221,1294.06,-36.9562,-10.6949,-18.5913,-3550.53,-7962.56,163.888,20.6289,44.1311,-147.579
1.963,6816.17,10253.7,6679.44,5.9746,275.323,-231.193,5415.93,8987.53,-157.327,70.8706,-49.7022,-63.9614,2141.28,9200.64,-2764.54,-5.26552,-29.4924,-73.1268,3409.53,-6750.37,6685.02,14.1433,-16.2215,-24.1527,-178.898,-14022.9,-2981.16,-85.801,151.276,-288.029,8553.64,-419.102,1284.53,-36.9916,-10.5276,-18.2797,-3570.64,-7974.15,240.295,21.4468,44.0472,-148.501
1.964,6869.15,10269.1,6711.42,6.199,271.431,-234.881,5320.47,9036.27,-74.398,70.0064,-50.7477,-63.8166,2175.31,9256.55,-2681.88,-4.90581,-28.6541,-73.9795,3363.17,-6752.23,6727.84,14.9628,-16.278,-24.4836,-301.339,-14144.6,-2958.21,-85.5994,154.066,-287.928,8527.67,-387.982,1274.99,-37.027,-10.3604,-17.9682,-3590.76,-7985.74,316.702,22.2647,43.9632,-149.423
1.965,6919.4,10314.1,6745.16,6.31991,267.439,-238.533,5213.67,9095.02,-29.3272,68.8755,-51.9435,-63.5475,2183.98,9280.04,-2635.44,-4.54355,-27.8255,-74.861,3343.87,-6711.9,6751.97,15.6474,-16.4058,-24.8137,-407.562,-14259.1,-2952.62,-85.4059,156.706,-287.839,8511.8,-372.028,1260.81,-36.9229,-10.2415,-17.6373,-3589.79,-8021.43,359.548,23.0204,43.8519,-150.067
1.966,6967.49,10382.6,6780.29,6.35802,263.366,-242.157,5097.8,9161.76,-14.5429,67.5311,-53.2594,-63.1791,2172.34,9277.59,-2617.98,-4.17926,-27.0047,-75.7658,3346.19,-6637.83,6761.13,16.2241,-16.5905,-25.1433,-500.812,-14367.9,-2960.92,-85.2187,159.228,-287.758,8504.02,-368.207,1242.91,-36.7074,-10.1613,-17.2909,-3571.97,-8076.39,375.545,23.7264,43.7186,-150.489
1.967,7015.57,10451.1,6815.43,6.39613,259.292,-245.781,4981.92,9228.5,0.241301,66.1868,-54.5753,-62.8107,2160.7,9275.14,-2600.52,-3.81498,-26.184,-76.6705,3348.52,-6563.75,6770.3,16.8008,-16.7751,-25.4728,-594.062,-14476.7,-2969.22,-85.0315,161.749,-287.677,8496.24,-364.385,1225.01,-36.4919,-10.0811,-16.9445,-3554.14,-8131.35,391.542,24.4325,43.5854,-150.911
1.968,7063.65,10519.7,6850.56,6.43424,255.219,-249.405,4866.05,9295.24,15.0255,64.8424,-55.8912,-62.4423,2149.07,9272.69,-2583.07,-3.45069,-25.3632,-77.5752,3350.85,-6489.67,6779.46,17.3774,-16.9598,-25.8023,-687.312,-14585.5,-2977.53,-84.8444,164.27,-287.596,8488.45,-360.564,1207.12,-36.2763,-10.0009,-16.5981,-3536.31,-8186.31,407.539,25.1385,43.4521,-151.332
1.969,7108.96,10590.2,6885.69,6.44193,251.136,-253.005,4748.19,9361.69,28.196,63.4774,-57.2072,-62.044,2132.32,9273.03,-2564.71,-3.06942,-24.5354,-78.452,3358.75,-6416.96,6787.78,17.945,-17.143,-26.1115,-778.861,-14689.7,-2990.48,-84.6744,166.774,-287.531,8485.92,-360.376,1187.7,-36.0882,-9.89963,-16.2644,-3516.99,-8234.45,422.315,25.6657,43.2832,-151.716
1.97,7132.08,10676.6,6920.73,6.20619,246.97,-256.407,4614.38,9425.8,28.4568,61.9471,-58.5244,-61.4073,2074.71,9295.76,-2539.17,-2.55226,-23.6514,-79.1049,3411.24,-6355.21,6789.3,18.4404,-17.3137,-26.2577,-856.803,-14756.9,-3040.69,-84.6417,169.142,-287.596,8525.38,-389.255,1156.14,-36.119,-9.63028,-16.0319,-3485.68,-8228.0,427.317,24.763,42.8292,-151.802
1.971,7155.2,10763.0,6955.78,5.97044,242.804,-259.81,4480.57,9489.91,28.7175,60.4167,-59.8416,-60.7705,2017.1,9318.49,-2513.62,-2.03511,-22.7674,-79.7579,3463.73,-6293.46,6790.82,18.9358,-17.4844,-26.4038,-934.745,-14824.1,-3090.89,-84.6091,171.511,-287.66,8564.85,-418.133,1124.59,-36.1498,-9.36093,-15.7993,-3454.38,-8221.54,432.32,23.8602,42.3753,-151.887
1.972,7178.32,10849.5,6990.82,5.7347,238.638,-263.212,4346.76,9554.02,28.9783,58.8864,-61.1588,-60.1338,1959.49,9341.22,-2488.08,-1.51795,-21.8834,-80.4108,3516.21,-6231.71,6792.34,19.4311,-17.655,-26.55,-1012.69,-14891.3,-3141.09,-84.5764,173.879,-287.724,8604.32,-447.012,1093.03,-36.1807,-9.09158,-15.5668,-3423.07,-8215.09,437.322,22.9575,41.9213,-151.973
1.973,7201.44,10935.9,7025.87,5.49896,234.472,-266.614,4212.95,9618.14,29.239,57.356,-62.4759,-59.4971,1901.88,9363.95,-2462.54,-1.00079,-20.9994,-81.0638,3568.7,-6169.96,6793.86,19.9265,-17.8257,-26.6961,-1090.63,-14958.5,-3191.29,-84.5438,176.247,-287.788,8643.78,-475.891,1061.47,-36.2115,-8.82224,-15.3342,-3391.77,-8208.63,442.325,22.0547,41.4674,-152.058
1.974,7193.56,11022.2,7046.64,5.0351,230.211,-269.676,4069.91,9682.93,-23.3282,55.6803,-63.4,-58.6512,1848.06,9365.69,-2436.48,-0.367414,-19.9519,-81.7685,3636.45,-6134.17,6795.1,20.3666,-17.874,-26.7254,-1146.9,-15011.4,-3242.02,-84.6011,178.454,-287.896,8649.22,-491.504,1022.49,-36.1613,-8.56936,-15.1204,-3382.91,-8221.52,479.206,21.3898,40.8517,-151.937
1.975,7170.18,11108.3,7060.28,4.45719,225.903,-272.569,3922.25,9748.07,-102.31,53.9318,-64.1275,-57.7007,1796.12,9356.95,-2410.17,0.324079,-18.8226,-82.499,3711.84,-6111.36,6796.2,20.779,-17.861,-26.6963,-1192.33,-15057.1,-3293.01,-84.7035,180.58,-288.026,8637.64,-500.484,979.792,-36.0704,-8.32471,-14.916,-3385.29,-8244.07,532.026,20.8439,40.1551,-151.714
1.976,7146.8,11194.5,7073.93,3.87927,221.595,-275.461,3774.59,9813.21,-181.291,52.1834,-64.8551,-56.7502,1744.19,9348.2,-2383.87,1.01557,-17.6932,-83.2296,3787.23,-6088.55,6797.3,21.1915,-17.848,-26.6672,-1237.76,-15102.8,-3344.0,-84.8058,182.707,-288.155,8626.07,-509.464,937.094,-35.9796,-8.08007,-14.7116,-3387.66,-8266.62,584.847,20.298,39.4584,-151.491
1.977,7123.42,11280.7,7087.57,3.30136,217.287,-278.353,3626.94,9878.34,-260.272,50.4349,-65.5826,-55.7998,1692.25,9339.45,-2357.56,1.70707,-16.5639,-83.9602,3862.61,-6065.75,6798.4,21.6039,-17.8351,-26.6381,-1283.19,-15148.5,-3394.99,-84.9082,184.833,-288.284,8614.49,-518.445,894.397,-35.8887,-7.83542,-14.5071,-3390.03,-8289.18,637.667,19.7521,38.7618,-151.267
1.978,7096.42,11365.6,7104.98,2.68939,212.91,-281.115,3478.7,9939.06,-356.559,48.7651,-66.1374,-54.8351,1640.55,9341.53,-2337.12,2.42078,-15.4714,-84.6805,3920.38,-6055.81,6808.47,21.9856,-17.8745,-26.6472,-1315.99,-15198.5,-3458.51,-85.0525,186.896,-288.405,8610.11,-535.193,857.01,-35.7265,-7.6909,-14.3189,-3383.62,-8305.51,700.236,19.2571,38.115,-151.036
1.979,7056.77,11445.8,7135.57,1.95827,208.293,-283.423,3328.42,9984.3,-513.414,47.3703,-66.0878,-53.8208,1589.68,9381.47,-2337.23,3.21228,-14.508,-85.3646,3916.51,-6090.92,6849.96,22.2596,-18.0972,-26.7899,-1304.61,-15263.9,-3565.87,-85.3437,188.74,-288.495,8630.92,-579.131,838.205,-35.3141,-7.8968,-14.1872,-3346.46,-8300.06,796.924,18.9403,37.6422,-150.78
1.98,7017.11,11525.9,7166.17,1.22714,203.677,-285.731,3178.14,10029.5,-670.27,45.9756,-66.0382,-52.8064,1538.8,9421.42,-2337.34,4.00377,-13.5445,-86.0487,3912.64,-6126.03,6891.44,22.5336,-18.3199,-26.9327,-1293.23,-15329.2,-3673.23,-85.6349,190.583,-288.584,8651.73,-623.068,819.401,-34.9017,-8.1027,-14.0556,-3309.29,-8294.62,893.612,18.6235,37.1695,-150.524
1.981,6977.45,11606.1,7196.76,0.496018,199.06,-288.039,3027.86,10074.8,-827.125,44.5809,-65.9885,-51.7921,1487.92,9461.37,-2337.45,4.79526,-12.581,-86.7329,3908.77,-6161.14,6932.93,22.8077,-18.5427,-27.0754,-1281.84,-15394.5,-3780.59,-85.926,192.426,-288.674,8672.54,-667.006,800.597,-34.4893,-8.30861,-13.924,-3272.13,-8289.17,990.3,18.3067,36.6967,-150.267
1.982,6937.8,11686.3,7227.35,-0.235106,194.443,-290.347,2877.59,10120.0,-983.98,43.1862,-65.9389,-50.7778,1437.04,9501.31,-2337.56,5.58676,-11.6175,-87.417,3904.9,-6196.25,6974.41,23.0817,-18.7654,-27.2182,-1270.46,-15459.9,-3887.95,-86.2172,194.269,-288.764,8693.34,-710.944,781.793,-34.077,-8.51451,-13.7923,-3234.97,-8283.72,1086.99,17.9898,36.2239,-150.011
1.983,6882.73,11726.9,7292.22,-0.928397,189.793,-292.243,2726.08,10101.4,-1101.74,42.225,-65.4654,-49.9591,1464.69,9540.25,-2321.94,6.41675,-10.7171,-88.0788,3868.43,-6213.41,7006.31,23.2028,-18.8953,-27.4849,-1261.77,-15525.9,-3981.34,-86.541,195.969,-288.832,8703.87,-727.941,768.75,-33.6317,-8.98257,-13.7625,-3199.81,-8277.1,1058.37,18.1021,35.7169,-149.634
1.984,6823.25,11756.2,7366.87,-1.61088,185.133,-294.022,2574.23,10064.5,-1208.33,41.3877,-64.8708,-49.1963,1514.78,9578.91,-2301.83,7.25774,-9.83478,-88.7343,3822.66,-6225.44,7035.45,23.2803,-18.9986,-27.787,-1253.85,-15592.1,-4070.74,-86.874,197.629,-288.894,8711.45,-737.242,757.354,-33.1769,-9.52553,-13.7617,-3165.23,-8270.13,993.953,18.3369,35.2001,-149.223
1.985,6763.78,11785.4,7441.52,-2.29336,180.473,-295.801,2422.38,10027.6,-1314.92,40.5505,-64.2762,-48.4335,1564.86,9617.56,-2281.72,8.09873,-8.95241,-89.3898,3776.88,-6237.47,7064.6,23.3578,-19.1019,-28.0891,-1245.92,-15658.3,-4160.14,-87.2071,199.288,-288.956,8719.03,-746.542,745.958,-32.7222,-10.0685,-13.7609,-3130.65,-8263.17,929.535,18.5717,34.6833,-148.812
1.986,6704.3,11814.7,7516.17,-2.97584,175.813,-297.58,2270.53,9990.66,-1421.51,39.7132,-63.6815,-47.6708,1614.95,9656.21,-2261.61,8.93972,-8.07005,-90.0452,3731.1,-6249.51,7093.75,23.4352,-19.2053,-28.3913,-1238.0,-15724.5,-4249.54,-87.5402,200.948,-289.018,8726.62,-755.843,734.562,-32.2675,-10.6114,-13.7601,-3096.07,-8256.2,865.117,18.8065,34.1666,-148.4
1.987,6654.29,11830.8,7590.95,-3.58803,171.225,-299.24,2118.69,9945.53,-1519.91,39.0321,-63.0509,-46.9864,1647.21,9698.3,-2245.09,9.78297,-7.28437,-90.5898,3688.08,-6266.58,7118.03,23.3316,-19.3709,-28.5809,-1246.8,-15784.3,-4333.83,-87.8672,202.583,-289.125,8733.34,-730.993,699.801,-31.9213,-10.9459,-13.5136,-3082.15,-8241.13,799.028,18.3662,33.4766,-147.754
1.988,6623.2,11820.6,7665.98,-4.05963,166.782,-300.661,1966.87,9883.93,-1601.93,38.6632,-62.3482,-46.4588,1643.84,9747.26,-2235.75,10.6308,-6.69207,-90.9125,3650.55,-6293.74,7132.58,22.8659,-19.6613,-28.5456,-1289.04,-15831.3,-4407.91,-88.1821,204.169,-289.321,8738.33,-637.844,618.31,-31.7921,-10.8634,-12.7757,-3109.56,-8209.86,729.599,16.5758,32.4403,-146.638
1.989,6592.11,11810.3,7741.0,-4.53124,162.339,-302.083,1815.05,9822.33,-1683.95,38.2943,-61.6455,-45.9312,1640.47,9796.22,-2226.41,11.4785,-6.09977,-91.2352,3613.03,-6320.9,7147.13,22.4002,-19.9517,-28.5102,-1331.29,-15878.4,-4481.99,-88.497,205.755,-289.518,8743.33,-544.695,536.82,-31.663,-10.7808,-12.0378,-3136.97,-8178.59,660.169,14.7854,31.404,-145.522
1.99,6561.02,11800.1,7816.03,-5.00284,157.896,-303.504,1663.23,9760.74,-1765.97,37.9254,-60.9428,-45.4035,1637.09,9845.18,-2217.07,12.3263,-5.50748,-91.558,3575.5,-6348.06,7161.68,21.9345,-20.2421,-28.4749,-1373.53,-15925.4,-4556.07,-88.812,207.341,-289.715,8748.32,-451.546,455.329,-31.5338,-10.6983,-11.3,-3164.37,-8147.32,590.739,12.995,30.3677,-144.405
1.991,6529.93,11789.8,7891.06,-5.47444,153.452,-304.926,1511.41,9699.14,-1847.99,37.5565,-60.2401,-44.8759,1633.72,9894.13,-2207.73,13.1741,-4.91518,-91.8807,3537.97,-6375.22,7176.22,21.4689,-20.5325,-28.4396,-1415.77,-15972.5,-4630.16,-89.1269,208.926,-289.912,8753.32,-358.396,373.838,-31.4047,-10.6157,-10.5621,-3191.78,-8116.05,521.309,11.2046,29.3314,-143.289
1.992,6560.46,11750.4,7960.14,-5.58413,149.271,-306.036,1358.64,9635.03,-1928.24,37.5927,-59.4875,-44.6637,1587.91,9931.78,-2260.17,13.6707,-4.25051,-92.0874,3521.59,-6408.07,7186.73,21.0816,-20.9214,-28.5498,-1465.0,-16018.6,-4702.94,-89.3711,210.267,-290.01,8688.16,-557.715,426.726,-30.7628,-10.2972,-9.81602,-3214.59,-8053.05,437.294,9.85246,27.2197,-141.913
1.993,6598.69,11707.2,8028.47,-5.64858,145.122,-307.108,1205.74,9570.61,-2008.27,37.6795,-58.7287,-44.4908,1536.79,9968.0,-2320.33,14.1234,-3.5768,-92.2796,3507.84,-6441.64,7196.72,20.7042,-21.3227,-28.6783,-1515.1,-16064.7,-4775.55,-89.6064,211.577,-290.096,8614.22,-793.593,496.41,-30.0568,-9.94929,-9.06895,-3236.82,-7986.08,351.456,8.55511,24.9735,-140.504
1.994,6636.93,11664.1,8096.81,-5.71303,140.973,-308.179,1052.85,9506.18,-2088.31,37.7664,-57.97,-44.3179,1485.67,10004.2,-2380.49,14.5761,-2.90309,-92.4719,3494.1,-6475.2,7206.72,20.3267,-21.7239,-28.8068,-1565.2,-16110.7,-4848.17,-89.8417,212.887,-290.182,8540.29,-1029.47,566.095,-29.3508,-9.60133,-8.32188,-3259.06,-7919.11,265.617,7.25775,22.7274,-139.095
1.995,6675.16,11620.9,8165.15,-5.77748,136.824,-309.251,899.952,9441.76,-2168.34,37.8532,-57.2112,-44.1451,1434.55,10040.5,-2440.64,15.0288,-2.22937,-92.6641,3480.35,-6508.76,7216.72,19.9493,-22.1252,-28.9353,-1615.3,-16156.8,-4920.79,-90.0771,214.197,-290.269,8466.35,-1265.35,635.779,-28.6448,-9.25337,-7.5748,-3281.29,-7852.13,179.779,5.9604,20.4813,-137.686
1.996,6730.35,11568.3,8252.26,-5.55294,132.828,-310.135,749.932,9366.92,-2249.97,38.093,-56.4007,-44.1787,1339.45,10059.9,-2488.21,15.3508,-1.63797,-92.8242,3502.88,-6507.98,7228.13,19.584,-22.4228,-29.119,-1692.85,-16207.3,-4995.84,-90.3589,215.267,-290.341,8451.55,-1392.32,655.507,-27.929,-9.03781,-7.03632,-3272.5,-7826.39,159.247,5.2894,18.2186,-136.626
1.997,6806.72,11503.8,8362.83,-4.96718,129.021,-310.786,603.506,9279.06,-2333.61,38.5241,-55.5255,-44.4704,1189.38,10058.5,-2520.04,15.5093,-1.14945,-92.9442,3570.76,-6464.27,7241.32,19.2341,-22.5908,-29.3715,-1804.72,-16263.3,-5073.94,-90.6988,216.036,-290.396,8510.64,-1383.17,612.788,-27.201,-8.98775,-6.75857,-3224.93,-7852.19,220.349,5.40133,15.9351,-136.003
1.998,6883.1,11439.3,8473.4,-4.38142,125.214,-311.437,457.08,9191.2,-2417.25,38.9551,-54.6504,-44.7621,1039.3,10057.1,-2551.87,15.6677,-0.660937,-93.0642,3638.63,-6420.56,7254.5,18.8841,-22.7588,-29.6241,-1916.58,-16319.4,-5152.03,-91.0387,216.805,-290.45,8569.75,-1374.02,570.069,-26.473,-8.93768,-6.48082,-3177.37,-7877.98,281.45,5.51326,13.6517,-135.38
1.999,6959.48,11374.9,8583.97,-3.79566,121.407,-312.088,310.654,9103.35,-2500.88,39.3862,-53.7753,-45.0539,889.226,10055.6,-2583.7,15.8262,-0.172421,-93.1841,3706.51,-6376.85,7267.69,18.5341,-22.9268,-29.8766,-2028.44,-16375.4,-5230.12,-91.3785,217.574,-290.505,8628.84,-1364.87,527.35,-25.7449,-8.88761,-6.20307,-3129.8,-7903.78,342.551,5.62519,11.3682,-134.757
2.0,7035.85,11310.4,8694.54,-3.2099,117.6,-312.738,164.228,9015.49,-2584.52,39.8172,-52.9001,-45.3456,739.151,10054.2,-2615.53,15.9847,0.316096,-93.3041,3774.38,-6333.15,7280.88,18.1841,-23.0948,-30.1292,-2140.3,-16431.5,-5308.22,-91.7184,218.344,-290.56,8687.94,-1355.72,484.63,-25.0169,-8.83755,-5.92532,-3082.23,-7929.58,403.652,5.73712,9.08476,-134.134
2.001,7093.56,11226.6,8818.26,-2.17683,114.043,-312.679,41.913,8911.37,-2651.7,40.7014,-51.7176,-45.9797,611.297,10123.0,-2602.1,16.0236,0.183908,-93.3291,3863.76,-6323.57,7243.05,17.8177,-23.2693,-30.3796,-2291.85,-16481.4,-5392.21,-92.236,218.513,-290.578,8687.83,-1328.57,405.069,-24.8398,-9.04378,-5.42573,-3043.68,-7867.63,241.699,3.1525,6.38676,-132.6
2.002,7151.27,11142.9,8941.97,-1.14376,110.486,-312.62,-80.4024,8807.25,-2718.88,41.5855,-50.5351,-46.6138,483.443,10191.8,-2588.68,16.0625,0.0517192,-93.3541,3953.13,-6314.0,7205.23,17.4513,-23.4439,-30.63,-2443.4,-16531.4,-5476.2,-92.7535,218.682,-290.597,8687.72,-1301.42,325.508,-24.6627,-9.25,-4.92614,-3005.12,-7805.69,79.7455,0.567872,3.68876,-131.067
2.003,7208.97,11059.1,9065.69,-0.110689,106.928,-312.561,-202.718,8703.13,-2786.06,42.4696,-49.3526,-47.248,355.59,10260.6,-2575.25,16.1015,-0.0804691,-93.3792,4042.5,-6304.43,7167.41,17.085,-23.6184,-30.8805,-2594.95,-16581.4,-5560.19,-93.2711,218.851,-290.615,8687.61,-1274.27,245.946,-24.4856,-9.45623,-4.42654,-2966.56,-7743.75,-82.2079,-2.01675,0.990755,-129.533
2.004,7266.68,10975.4,9189.4,0.922382,103.371,-312.502,-325.033,8599.01,-2853.23,43.3538,-48.1701,-47.8821,227.736,10329.4,-2561.82,16.1404,-0.212657,-93.4042,4131.87,-6294.85,7129.59,16.7186,-23.793,-31.1309,-2746.49,-16631.4,-5644.18,-93.7886,219.02,-290.634,8687.5,-1247.12,166.385,-24.3085,-9.66246,-3.92695,-2928.0,-7681.8,-244.161,-4.60138,-1.70725,-127.999
2.005,7279.04,10868.7,9277.42,2.16046,99.6873,-311.856,-433.107,8510.93,-2910.27,44.5088,-46.9321,-48.6543,128.012,10362.8,-2520.53,16.2286,-0.574385,-93.4022,4219.61,-6295.6,7117.38,16.2058,-24.0146,-31.2428,-2912.92,-16684.9,-5730.63,-94.2654,218.601,-290.79,8711.12,-1240.64,121.404,-23.9886,-9.91886,-3.63794,-2872.9,-7624.33,-296.199,-6.79393,-3.69379,-126.675
2.006,7255.12,10743.6,9336.89,3.56255,95.9025,-310.74,-529.787,8435.69,-2959.18,45.8805,-45.6497,-49.5369,50.7912,10367.9,-2456.95,16.3562,-1.11974,-93.3787,4306.05,-6304.59,7125.67,15.5758,-24.2739,-31.2439,-3091.24,-16741.3,-5819.05,-94.7096,217.71,-291.058,8753.72,-1250.69,104.089,-23.5544,-10.2154,-3.5174,-2804.55,-7570.42,-260.303,-8.67281,-5.11117,-125.518
2.007,7231.21,10618.6,9396.36,4.96464,92.1176,-309.625,-626.467,8360.45,-3008.1,47.2522,-44.3674,-50.4195,-26.4292,10373.0,-2393.37,16.4838,-1.6651,-93.3552,4392.49,-6313.59,7133.96,14.9458,-24.5332,-31.245,-3269.56,-16797.7,-5907.47,-95.1539,216.82,-291.325,8796.31,-1260.75,86.7734,-23.1202,-10.5119,-3.39686,-2736.2,-7516.51,-224.408,-10.5517,-6.52855,-124.36
2.008,7207.29,10493.6,9455.82,6.36673,88.3328,-308.509,-723.147,8285.21,-3057.01,48.624,-43.085,-51.3022,-103.65,10378.0,-2329.79,16.6114,-2.21046,-93.3316,4478.92,-6322.59,7142.25,14.3158,-24.7925,-31.2461,-3447.89,-16854.1,-5995.89,-95.5981,215.93,-291.592,8838.91,-1270.8,69.458,-22.686,-10.8085,-3.27632,-2667.86,-7462.6,-188.512,-12.4306,-7.94593,-123.203
2.009,7182.03,10372.6,9509.33,7.73625,84.5332,-307.24,-817.286,8216.71,-3102.91,50.0149,-41.8142,-52.1823,-177.752,10386.1,-2274.9,16.7276,-2.75025,-93.2936,4553.44,-6325.69,7151.49,13.6807,-25.027,-31.2482,-3626.89,-16911.4,-6082.98,-96.0351,214.909,-291.881,8877.74,-1280.18,52.9258,-22.2166,-11.1117,-3.14284,-2597.64,-7407.95,-146.076,-14.3285,-9.16648,-122.041
2.01,7146.03,10283.8,9515.17,8.8452,80.6154,-304.744,-891.099,8202.14,-3124.67,51.5593,-40.6362,-53.0418,-226.908,10417.5,-2289.55,16.7528,-3.24544,-93.1393,4532.64,-6281.63,7168.36,13.0045,-25.0628,-31.2581,-3811.36,-16976.4,-6159.38,-96.4148,212.84,-292.344,8886.46,-1284.17,42.6597,-21.4646,-11.4691,-2.90584,-2512.38,-7347.3,-51.3132,-16.3783,-8.81239,-120.836
2.011,7110.04,10195.0,9521.0,9.95415,76.6976,-302.247,-964.913,8187.56,-3146.42,53.1037,-39.4582,-53.9014,-276.065,10449.0,-2304.2,16.778,-3.74064,-92.9851,4511.84,-6237.57,7185.24,12.3283,-25.0985,-31.268,-3995.82,-17041.3,-6235.79,-96.7945,210.772,-292.806,8895.18,-1288.16,32.3936,-20.7127,-11.8264,-2.66884,-2427.13,-7286.65,43.4495,-18.4282,-8.4583,-119.631
2.012,7074.04,10106.2,9526.84,11.0631,72.7798,-299.751,-1038.73,8172.98,-3168.18,54.6482,-38.2802,-54.761,-325.221,10480.4,-2318.85,16.8031,-4.23583,-92.8308,4491.05,-6193.51,7202.11,11.6521,-25.1342,-31.278,-4180.28,-17106.3,-6312.19,-97.1741,208.704,-293.269,8903.9,-1292.15,22.1275,-19.9607,-12.1837,-2.43185,-2341.88,-7226.0,138.212,-20.4781,-8.10421,-118.426
2.013,7038.04,10017.4,9532.67,12.172,68.862,-297.255,-1112.54,8158.4,-3189.93,56.1926,-37.1022,-55.6206,-374.378,10511.9,-2333.5,16.8283,-4.73103,-92.6766,4470.25,-6149.44,7218.98,10.9759,-25.17,-31.2879,-4364.75,-17171.2,-6388.59,-97.5538,206.636,-293.732,8912.62,-1296.15,11.8615,-19.2087,-12.541,-2.19485,-2256.63,-7165.36,232.975,-22.5279,-7.75012,-117.221
2.014,7069.03,9984.78,9522.21,12.9268,65.1983,-293.903,-1209.27,8135.05,-3205.34,57.6583,-35.8391,-56.6689,-412.642,10516.8,-2306.05,16.5555,-5.25456,-92.3175,4458.6,-6085.16,7245.54,10.0479,-25.3449,-31.266,-4545.62,-17233.4,-6447.69,-97.9562,203.748,-294.274,8931.55,-1290.31,6.99643,-18.6294,-12.7152,-1.98391,-2118.45,-7124.7,343.239,-24.3257,-6.84721,-115.985
2.015,7133.51,9980.27,9503.6,13.5045,61.6618,-290.124,-1317.45,8107.32,-3217.57,59.0848,-34.5334,-57.8116,-445.46,10508.5,-2257.56,16.1337,-5.79224,-91.856,4451.52,-6010.76,7276.94,8.99408,-25.5894,-31.2282,-4724.69,-17294.2,-6498.13,-98.3701,200.452,-294.856,8955.58,-1279.57,4.83192,-18.1364,-12.7977,-1.78601,-1953.81,-7094.04,461.254,-25.9975,-5.66989,-114.734
2.016,7197.99,9975.77,9484.99,14.0822,58.1253,-286.345,-1425.63,8079.58,-3229.81,60.5112,-33.2278,-58.9543,-478.279,10500.2,-2209.07,15.7119,-6.32993,-91.3944,4444.45,-5936.36,7308.34,7.94024,-25.8339,-31.1904,-4903.76,-17355.0,-6548.57,-98.7839,197.155,-295.439,8979.61,-1268.83,2.66741,-17.6433,-12.8803,-1.58811,-1789.16,-7063.39,579.269,-27.6693,-4.49257,-113.484
2.017,7262.47,9971.26,9466.38,14.6599,54.5887,-282.566,-1533.81,8051.84,-3242.04,61.9376,-31.9221,-60.097,-511.097,10491.8,-2160.57,15.2901,-6.86762,-90.9329,4437.37,-5861.97,7339.74,6.88639,-26.0785,-31.1527,-5082.83,-17415.7,-6599.01,-99.1978,193.859,-296.021,9003.64,-1258.09,0.502893,-17.1503,-12.9628,-1.39021,-1624.52,-7032.73,697.284,-29.341,-3.31525,-112.233
2.018,7351.74,9982.04,9441.0,15.0344,51.1684,-278.549,-1643.2,8028.62,-3258.14,63.2912,-30.5392,-61.3072,-552.028,10492.8,-2115.04,14.915,-7.46109,-90.489,4437.03,-5791.43,7371.16,5.90827,-26.334,-31.0984,-5254.11,-17470.5,-6646.26,-99.6102,190.337,-296.593,9032.89,-1251.02,-1.82922,-16.6478,-13.0826,-1.20591,-1450.2,-7003.31,800.398,-31.0439,-2.02632,-111.001
2.019,7527.78,10046.3,9391.95,14.698,48.1546,-273.697,-1756.8,8021.22,-3287.74,64.3896,-28.886,-62.7537,-621.351,10526.7,-2079.87,14.703,-8.24979,-90.1064,4460.26,-5734.42,7402.64,5.19519,-26.628,-30.9864,-5398.1,-17503.9,-6682.36,-100.018,186.027,-297.129,9080.4,-1256.78,-4.74793,-16.1123,-13.3326,-1.06924,-1242.03,-6978.21,851.358,-32.8558,-0.346762,-109.835
2.02,7703.82,10110.6,9342.89,14.3615,45.1408,-268.845,-1870.41,8013.81,-3317.34,65.4881,-27.2327,-64.2001,-690.675,10560.5,-2044.69,14.4911,-9.03849,-89.7238,4483.49,-5677.41,7434.13,4.48211,-26.922,-30.8744,-5542.1,-17537.4,-6718.46,-100.425,181.717,-297.665,9127.91,-1262.55,-7.66664,-15.5768,-13.5827,-0.932563,-1033.85,-6953.12,902.318,-34.6676,1.3328,-108.669
2.021,7879.85,10174.8,9293.84,14.0251,42.127,-263.993,-1984.01,8006.4,-3346.93,66.5866,-25.5794,-65.6466,-759.999,10594.4,-2009.52,14.2791,-9.82719,-89.3413,4506.71,-5620.4,7465.61,3.76903,-27.216,-30.7624,-5686.09,-17570.8,-6754.56,-100.833,177.407,-298.201,9175.42,-1268.32,-10.5853,-15.0413,-13.8327,-0.795888,-825.674,-6928.02,953.278,-36.4794,3.01236,-107.502
2.022,8055.9,10239.1,9244.78,13.6886,39.1132,-259.141,-2097.62,7998.99,-3376.53,67.6851,-23.9261,-67.0931,-829.322,10628.2,-1974.35,14.0671,-10.6159,-88.9587,4529.94,-5563.39,7497.09,3.05595,-27.51,-30.6504,-5830.08,-17604.3,-6790.66,-101.241,173.096,-298.737,9222.92,-1274.08,-13.5041,-14.5059,-14.0828,-0.659213,-617.498,-6902.92,1004.24,-38.2913,4.69193,-106.336
2.023,8292.84,10333.4,9173.19,12.7663,36.739,-253.551,-2181.38,8039.37,-3384.22,68.5533,-22.6003,-68.3564,-896.699,10646.1,-1935.42,13.613,-11.326,-88.5307,4589.93,-5540.01,7510.9,2.07838,-27.8124,-30.4979,-5951.98,-17615.0,-6824.15,-101.794,168.462,-299.211,9230.57,-1265.33,-15.3346,-13.9543,-14.3561,-0.618755,-417.325,-6903.69,1048.39,-40.5074,6.98966,-104.908
2.024,8547.2,10436.3,9095.15,11.6767,34.5475,-247.751,-2256.62,8093.39,-3385.64,69.3558,-21.3679,-69.5674,-963.519,10659.5,-1895.42,13.0896,-12.0138,-88.0897,4660.42,-5526.24,7519.67,1.02524,-28.1172,-30.3338,-6067.57,-17619.2,-6856.88,-102.389,163.736,-299.668,9226.82,-1252.42,-16.8543,-13.3982,-14.6361,-0.605787,-219.439,-6911.85,1090.61,-42.8391,9.46402,-103.404
2.025,8801.55,10539.2,9017.12,10.587,32.356,-241.951,-2331.87,8147.42,-3387.06,70.1583,-20.1356,-70.7783,-1030.34,10672.8,-1855.41,12.5663,-12.7015,-87.6487,4730.91,-5512.47,7528.43,-0.027892,-28.4221,-30.1697,-6183.16,-17623.3,-6889.62,-102.984,159.009,-300.124,9223.08,-1239.51,-18.374,-12.8421,-14.9161,-0.59282,-21.5523,-6920.01,1132.82,-45.1708,11.9384,-101.901
2.026,9055.9,10642.1,8939.08,9.49733,30.1646,-236.15,-2407.11,8201.45,-3388.48,70.9607,-18.9032,-71.9893,-1097.16,10686.2,-1815.41,12.0429,-13.3892,-87.2077,4801.4,-5498.7,7537.19,-1.08103,-28.7269,-30.0057,-6298.75,-17627.5,-6922.35,-103.579,154.283,-300.581,9219.33,-1226.6,-19.8937,-12.286,-15.1962,-0.579852,176.334,-6928.17,1175.03,-47.5025,14.4127,-100.397
2.027,9331.8,10733.3,8863.94,8.21905,28.3244,-230.191,-2460.32,8254.69,-3376.17,71.7812,-17.8114,-73.1159,-1164.93,10691.8,-1787.49,11.6021,-14.128,-86.8454,4851.38,-5486.11,7555.98,-2.11363,-29.0531,-29.7689,-6412.73,-17621.0,-6955.34,-104.257,149.6,-301.016,9228.79,-1215.1,-27.4362,-11.784,-15.4993,-0.513335,372.056,-6932.64,1202.71,-49.7269,17.2599,-98.9626
2.028,9650.81,10801.2,8794.6,6.56355,27.1868,-223.916,-2469.46,8306.35,-3336.4,72.6379,-17.0007,-74.0739,-1234.59,10681.8,-1783.72,11.3265,-14.9688,-86.6404,4860.34,-5475.89,7594.84,-3.10518,-29.422,-29.3868,-6523.47,-17592.9,-6988.83,-105.102,145.004,-301.408,9264.66,-1206.41,-47.0246,-11.3903,-15.8488,-0.339716,563.45,-6929.72,1201.32,-51.7365,20.8526,-97.6663
2.029,9969.81,10869.1,8725.26,4.90805,26.0493,-217.64,-2478.61,8358.01,-3296.63,73.4945,-16.19,-75.0318,-1304.25,10671.9,-1779.95,11.0509,-15.8096,-86.4354,4869.3,-5465.67,7633.69,-4.09672,-29.7909,-29.0047,-6634.22,-17564.9,-7022.31,-105.946,140.408,-301.799,9300.53,-1197.72,-66.6129,-10.9966,-16.1982,-0.166097,754.843,-6926.8,1199.93,-53.7462,24.4452,-96.3699
2.03,10288.8,10936.9,8655.92,3.25255,24.9117,-211.364,-2487.75,8409.68,-3256.86,74.3512,-15.3793,-75.9898,-1373.91,10661.9,-1776.18,10.7753,-16.6504,-86.2304,4878.26,-5455.45,7672.55,-5.08827,-30.1597,-28.6226,-6744.96,-17536.8,-7055.8,-106.791,135.812,-302.191,9336.4,-1189.03,-86.2012,-10.6029,-16.5477,0.00752104,946.237,-6923.88,1198.54,-55.7559,28.0379,-95.0736
2.031,10607.8,11004.8,8586.58,1.59705,23.7742,-205.088,-2496.9,8461.34,-3217.1,75.2079,-14.5686,-76.9477,-1443.57,10651.9,-1772.41,10.4997,-17.4912,-86.0255,4887.22,-5445.23,7711.4,-6.07981,-30.5286,-28.2405,-6855.7,-17508.8,-7089.28,-107.635,131.216,-302.583,9372.27,-1180.35,-105.79,-10.2091,-16.8971,0.18114,1137.63,-6920.96,1197.15,-57.7656,31.6306,-93.7772
2.032,10919.6,10992.5,8522.26,0.40614,23.5286,-198.72,-2490.38,8524.49,-3170.86,76.139,-13.8594,-77.7021,-1440.91,10662.8,-1753.12,10.3422,-18.3022,-85.59,4864.25,-5430.86,7707.5,-7.02494,-30.9277,-28.0876,-6975.78,-17435.8,-7108.91,-108.738,126.748,-302.89,9391.68,-1169.62,-126.561,-9.9525,-17.1801,0.194689,1282.72,-6910.7,1285.8,-59.122,35.8321,-92.5464
2.033,11230.5,10970.2,8458.56,-0.726702,23.3946,-192.341,-2481.9,8589.07,-3123.81,77.0796,-13.163,-78.431,-1429.21,10676.2,-1731.89,10.1996,-19.1095,-85.1257,4837.28,-5415.98,7698.25,-7.96427,-31.3305,-27.9634,-7097.02,-17357.2,-7126.8,-109.873,122.295,-303.187,9409.03,-1158.65,-147.481,-9.71299,-17.4549,0.188229,1422.01,-6899.52,1385.72,-60.3968,40.1097,-91.3237
2.034,11541.4,10947.9,8394.87,-1.85954,23.2605,-185.963,-2473.43,8653.65,-3076.76,78.0201,-12.4665,-79.16,-1417.51,10689.7,-1710.66,10.0569,-19.9168,-84.6614,4810.31,-5401.09,7689.0,-8.9036,-31.7334,-27.8392,-7218.26,-17278.7,-7144.69,-111.008,117.842,-303.483,9426.38,-1147.67,-168.401,-9.47347,-17.7296,0.18177,1561.31,-6888.34,1485.63,-61.6715,44.3873,-90.101
2.035,11852.3,10925.5,8331.17,-2.99238,23.1265,-179.584,-2464.95,8718.24,-3029.72,78.9606,-11.7701,-79.8889,-1405.81,10703.1,-1689.43,9.91424,-20.7241,-84.197,4783.35,-5386.2,7679.76,-9.84292,-32.1362,-27.715,-7339.5,-17200.1,-7162.58,-112.143,113.389,-303.78,9443.73,-1136.69,-189.321,-9.23396,-18.0043,0.17531,1700.61,-6877.17,1585.54,-62.9463,48.665,-88.8783
2.036,12156.8,10875.7,8258.13,-3.76548,23.408,-173.252,-2459.66,8785.97,-2986.32,79.9746,-11.0671,-80.5743,-1374.91,10708.3,-1669.36,9.84604,-21.4944,-83.8687,4761.59,-5362.51,7682.65,-10.7242,-32.5511,-27.5156,-7482.1,-17115.5,-7172.4,-113.314,108.868,-304.081,9452.23,-1124.42,-204.607,-9.01123,-18.248,0.152668,1826.69,-6876.28,1681.91,-63.7728,52.94,-87.5759
2.037,12453.1,10791.4,8173.42,-4.0889,24.2088,-166.978,-2458.35,8857.64,-2947.48,81.0807,-10.3559,-81.2054,-1320.02,10703.2,-1650.77,9.87093,-22.2185,-83.7102,4746.34,-5327.81,7700.71,-11.533,-32.9813,-27.2222,-7651.4,-17023.3,-7172.12,-114.532,104.263,-304.386,9449.68,-1110.52,-212.851,-8.80948,-18.4528,0.109799,1936.26,-6888.27,1773.85,-64.0391,57.212,-86.1739
2.038,12749.5,10707.1,8088.72,-4.41231,25.0096,-160.705,-2457.04,8929.31,-2908.64,82.1867,-9.64479,-81.8365,-1265.12,10698.1,-1632.17,9.89582,-22.9426,-83.5518,4731.1,-5293.11,7718.78,-12.3417,-33.4114,-26.9289,-7820.69,-16931.1,-7171.84,-115.749,99.6574,-304.691,9447.12,-1096.62,-221.095,-8.60773,-18.6575,0.0669297,2045.82,-6900.25,1865.79,-64.3054,61.4839,-84.7718
2.039,13045.9,10622.8,8004.01,-4.73573,25.8105,-154.432,-2455.74,9000.98,-2869.81,83.2928,-8.93364,-82.4676,-1210.22,10693.0,-1613.57,9.92071,-23.6667,-83.3934,4715.85,-5258.41,7736.85,-13.1504,-33.8415,-26.6355,-7989.98,-16839.0,-7171.56,-116.966,95.052,-304.996,9444.57,-1082.72,-229.34,-8.40599,-18.8623,0.0240604,2155.39,-6912.24,1957.73,-64.5717,65.7559,-83.3697
