Time,RFoot_accel.x,RFoot_accel.y,RFoot_accel.z,RFoot_gyro.x,RFoot_gyro.y,RFoot_gyro.z,LFoot_accel.x,LFoot_accel.y,LFoot_accel.z,LFoot_gyro.x,LFoot_gyro.y,LFoot_gyro.z,RShank_accel.x,RShank_accel.y,RShank_accel.z,RShank_gyro.x,RShank_gyro.y,RShank_gyro.z,LShank_accel.x,LShank_accel.y,LShank_accel.z,LShank_gyro.x,LShank_gyro.y,LShank_gyro.z,RThigh_accel.x,RThigh_accel.y,RThigh_accel.z,RThigh_gyro.x,RThigh_gyro.y,RThigh_gyro.z,LThigh_accel.x,LThigh_accel.y,LThigh_accel.z,LThigh_gyro.x,LThigh_gyro.y,LThigh_gyro.z,Pelvis_accel.x,Pelvis_accel.y,Pelvis_accel.z,Pelvis_gyro.x,Pelvis_gyro.y,Pelvis_gyro.z
0.0,5022.73,-3140.41,7659.51,-0.838564,1.18793,0.0442614,4746.72,3775.83,7637.77,-2.27921,-0.241813,0.57629,577.739,9516.82,-2144.33,-0.339491,-2.04029,1.57876,761.746,-9538.83,-2602.29,0.288966,1.5255,-0.279864,-1068.53,9540.35,-1827.59,-0.402159,-1.28767,1.78064,-2415.52,-9629.94,-1926.51,-3.24075,1.4509,-1.73592,9454.21,681.068,2330.14,3.05155,0.268306,0.187249
0.001,5028.51,-3130.66,7676.85,-0.923277,1.25431,0.0390669,4752.87,3751.02,7620.92,-2.19155,-0.304331,0.464883,581.899,9531.39,-2150.41,-0.408719,-2.13706,1.6063,773.545,-9520.56,-2569.11,0.302271,1.49429,-0.305353,-1064.26,9533.2,-1847.56,-0.507266,-1.37331,1.77944,-2435.8,-9604.77,-1906.87,-3.21414,1.36304,-1.82761,9478.85,663.724,2366.67,2.99926,0.261939,0.123158
0.002,5034.29,-3120.9,7694.19,-1.00799,1.3207,0.0338725,4759.02,3726.21,7604.07,-2.10389,-0.366849,0.353477,586.06,9545.97,-2156.48,-0.477947,-2.23382,1.63384,785.345,-9502.29,-2535.93,0.315577,1.46309,-0.330842,-1059.99,9526.06,-1867.54,-0.612373,-1.45896,1.77825,-2456.09,-9579.59,-1887.23,-3.18752,1.27519,-1.91929,9503.48,646.381,2403.2,2.94696,0.255571,0.0590673
0.003,5040.08,-3111.14,7711.54,-1.0927,1.38709,0.0286781,4765.16,3701.39,7587.23,-2.01623,-0.429367,0.24207,590.22,9560.54,-2162.55,-0.547175,-2.33059,1.66138,797.145,-9484.03,-2502.75,0.328882,1.43188,-0.356331,-1055.73,9518.91,-1887.51,-0.71748,-1.5446,1.77706,-2476.37,-9554.42,-1867.59,-3.16091,1.18733,-2.01097,9528.12,629.037,2439.74,2.89467,0.249204,-0.00502367
0.004,5045.86,-3101.39,7728.88,-1.17742,1.45348,0.0234836,4771.31,3676.58,7570.38,-1.92858,-0.491886,0.130663,594.381,9575.12,-2168.62,-0.616403,-2.42736,1.68892,808.945,-9465.76,-2469.57,0.342188,1.40067,-0.38182,-1051.46,9511.77,-1907.49,-0.822587,-1.63025,1.77586,-2496.66,-9529.24,-1847.95,-3.13429,1.09948,-2.10265,9552.76,611.693,2476.27,2.84238,0.242837,-0.0691146
0.005,5050.66,-3103.1,7744.05,-1.19745,1.4741,0.0788454,4764.47,3670.36,7571.01,-1.8687,-0.496272,0.0777774,602.429,9574.21,-2169.33,-0.655124,-2.47208,1.70389,801.372,-9470.45,-2466.85,0.371594,1.35471,-0.355592,-1043.98,9521.27,-1925.09,-0.86111,-1.69425,1.80249,-2509.44,-9535.83,-1822.69,-3.14229,0.927753,-2.1023,9553.44,616.302,2493.99,2.88242,0.197309,-0.0214421
0.006,5054.66,-3113.98,7757.48,-1.16575,1.4581,0.182652,4747.25,3679.02,7585.62,-1.83104,-0.454152,0.0717086,613.588,9560.91,-2165.74,-0.669439,-2.47517,1.7088,778.301,-9493.5,-2488.49,0.41388,1.29694,-0.287991,-1033.93,9544.09,-1940.81,-0.846365,-1.74095,1.85139,-2516.22,-9567.82,-1792.93,-3.17798,0.688929,-2.02832,9534.97,638.475,2496.65,2.99633,0.120453,0.115641
0.007,5058.67,-3124.87,7770.92,-1.13405,1.44211,0.286459,4730.04,3687.68,7600.23,-1.79338,-0.412033,0.0656398,624.746,9547.61,-2162.15,-0.683754,-2.47825,1.71371,755.23,-9516.55,-2510.13,0.456167,1.23916,-0.22039,-1023.88,9566.91,-1956.52,-0.83162,-1.78765,1.90028,-2523.0,-9599.81,-1763.16,-3.21367,0.450105,-1.95433,9516.5,660.647,2499.31,3.11024,0.0435975,0.252725
0.008,5062.68,-3135.75,7784.35,-1.10235,1.42611,0.390266,4712.82,3696.34,7614.85,-1.75572,-0.369913,0.059571,635.905,9534.3,-2158.55,-0.698069,-2.48133,1.71862,732.158,-9539.59,-2531.77,0.498453,1.18139,-0.152788,-1013.83,9589.72,-1972.24,-0.816875,-1.83435,1.94918,-2529.79,-9631.81,-1733.4,-3.24936,0.211281,-1.88035,9498.02,682.819,2501.97,3.22415,-0.0332582,0.389808
0.009,5066.54,-3145.92,7794.12,-1.06639,1.40938,0.481172,4695.98,3703.13,7626.47,-1.7219,-0.333157,0.0461411,646.15,9521.95,-2154.37,-0.707363,-2.47933,1.71835,711.295,-9561.91,-2550.5,0.530313,1.12844,-0.100969,-1008.11,9608.93,-1984.03,-0.809132,-1.88328,1.99457,-2534.04,-9661.63,-1707.83,-3.27337,-0.00269054,-1.81883,9480.21,700.852,2507.31,3.35968,-0.144333,0.5024
0.01,5069.2,-3150.36,7774.58,-0.996336,1.38674,0.468868,4682.22,3695.04,7614.15,-1.71883,-0.339308,-0.0261779,649.089,9517.15,-2145.4,-0.676492,-2.43664,1.67667,708.093,-9578.38,-2545.92,0.478754,1.11404,-0.175412,-1036.98,9599.24,-1964.47,-0.857403,-1.95012,2.01196,-2518.02,-9674.03,-1715.76,-3.20392,-0.0178455,-1.85696,9467.69,685.776,2534.06,3.66814,-0.52916,0.419065
0.011,5071.86,-3154.79,7755.04,-0.926282,1.3641,0.456565,4668.45,3686.95,7601.84,-1.71575,-0.345459,-0.0984968,652.027,9512.35,-2136.44,-0.645621,-2.39396,1.63498,704.89,-9594.85,-2541.35,0.427196,1.09964,-0.249855,-1065.85,9589.54,-1944.91,-0.905673,-2.01696,2.02935,-2502.01,-9686.44,-1723.68,-3.13447,-0.0330005,-1.89509,9455.17,670.699,2560.81,3.9766,-0.913986,0.335729
0.012,5074.52,-3159.23,7735.5,-0.856227,1.34147,0.444262,4654.68,3678.87,7589.52,-1.71267,-0.351609,-0.170816,654.966,9507.55,-2127.47,-0.61475,-2.35127,1.59329,701.688,-9611.32,-2536.77,0.375637,1.08524,-0.324297,-1094.73,9579.85,-1925.34,-0.953944,-2.0838,2.04674,-2486.0,-9698.84,-1731.61,-3.06503,-0.0481555,-1.93322,9442.65,655.622,2587.56,4.28506,-1.29881,0.252393
0.013,5077.18,-3163.67,7715.97,-0.786173,1.31883,0.431959,4640.92,3670.78,7577.21,-1.70959,-0.35776,-0.243135,657.905,9502.75,-2118.51,-0.583879,-2.30858,1.5516,698.486,-9627.79,-2532.2,0.324079,1.07085,-0.39874,-1123.6,9570.15,-1905.78,-1.00221,-2.15065,2.06413,-2469.99,-9711.25,-1739.54,-2.99558,-0.0633105,-1.97136,9430.13,640.546,2614.31,4.59352,-1.68364,0.169058
0.014,5089.72,-3168.08,7701.9,-0.758235,1.33393,0.419268,4628.93,3666.69,7580.44,-1.67541,-0.311037,-0.289493,653.104,9496.57,-2123.62,-0.586735,-2.30362,1.53793,713.184,-9625.73,-2533.26,0.282034,0.960513,-0.485838,-1102.17,9570.93,-1908.77,-0.953052,-2.13393,2.07064,-2464.69,-9707.83,-1742.82,-2.94831,-0.17217,-2.01737,9442.94,611.416,2606.03,4.67931,-1.89459,0.147233
0.015,5107.22,-3172.49,7690.57,-0.751354,1.36789,0.406383,4617.84,3664.6,7591.45,-1.62569,-0.237878,-0.322871,644.432,9489.69,-2135.77,-0.606456,-2.31751,1.53826,736.833,-9614.41,-2537.15,0.244747,0.802213,-0.579264,-1055.59,9576.93,-1923.04,-0.855173,-2.07543,2.07171,-2464.75,-9696.5,-1743.79,-2.91212,-0.327881,-2.06732,9468.42,575.261,2580.24,4.65375,-2.01861,0.156165
0.016,5124.71,-3176.89,7679.24,-0.744473,1.40186,0.393499,4606.75,3662.51,7602.46,-1.57597,-0.164718,-0.356249,635.761,9482.81,-2147.92,-0.626177,-2.33141,1.53859,760.481,-9603.09,-2541.03,0.207459,0.643912,-0.672691,-1009.0,9582.94,-1937.31,-0.757295,-2.01693,2.07278,-2464.81,-9685.17,-1744.76,-2.87593,-0.483592,-2.11727,9493.9,539.105,2554.45,4.62819,-2.14262,0.165096
0.017,5142.21,-3181.3,7667.91,-0.737592,1.43583,0.380614,4595.66,3660.42,7613.47,-1.52626,-0.0915589,-0.389627,627.089,9475.94,-2160.07,-0.645898,-2.3453,1.53893,784.13,-9591.76,-2544.91,0.170171,0.485612,-0.766117,-962.422,9588.95,-1951.58,-0.659416,-1.95844,2.07385,-2464.87,-9673.84,-1745.73,-2.83974,-0.639303,-2.16722,9519.38,502.95,2528.65,4.60264,-2.26664,0.174027
0.018,5154.02,-3188.27,7661.95,-0.74492,1.44516,0.380989,4594.69,3661.4,7624.08,-1.50595,-0.0552352,-0.407799,618.18,9467.55,-2166.43,-0.659073,-2.36301,1.55107,801.423,-9580.08,-2546.4,0.13827,0.348252,-0.843737,-922.451,9588.57,-1964.75,-0.572995,-1.93191,2.08899,-2466.49,-9661.99,-1741.63,-2.81195,-0.751668,-2.22306,9536.13,480.864,2508.61,4.56159,-2.38777,0.192998
0.019,5145.98,-3204.19,7674.79,-0.80198,1.36827,0.427768,4629.12,3673.11,7633.28,-1.5886,-0.147837,-0.372748,608.437,9453.89,-2152.5,-0.649336,-2.39405,1.60458,796.469,-9567.16,-2539.51,0.125219,0.284184,-0.866039,-905.621,9565.85,-1974.04,-0.526675,-2.01729,2.1534,-2473.58,-9648.3,-1719.76,-2.81353,-0.712323,-2.29947,9522.32,508.023,2508.71,4.46631,-2.49879,0.247104
0.02,5137.93,-3220.11,7687.63,-0.85904,1.29139,0.474547,4663.55,3684.83,7642.49,-1.67125,-0.240438,-0.337698,598.695,9440.22,-2138.57,-0.6396,-2.42508,1.65808,791.516,-9554.24,-2532.63,0.112169,0.220117,-0.888341,-888.791,9543.12,-1983.33,-0.480356,-2.10266,2.21781,-2480.68,-9634.61,-1697.9,-2.81511,-0.672978,-2.37589,9508.5,535.182,2508.8,4.37104,-2.60982,0.30121
0.021,5129.88,-3236.03,7700.48,-0.9161,1.21451,0.521326,4697.99,3696.54,7651.69,-1.7539,-0.33304,-0.302647,588.953,9426.55,-2124.64,-0.629863,-2.45612,1.71159,786.563,-9541.31,-2525.74,0.0991184,0.156049,-0.910643,-871.961,9520.4,-1992.62,-0.434037,-2.18804,2.28222,-2487.77,-9620.92,-1676.03,-2.8167,-0.633633,-2.45231,9494.69,562.34,2508.9,4.27577,-2.72085,0.355316
0.022,5121.83,-3251.96,7713.32,-0.97316,1.13762,0.568105,4732.42,3708.26,7660.9,-1.83656,-0.425642,-0.267597,579.21,9412.89,-2110.72,-0.620127,-2.48716,1.76509,781.61,-9528.39,-2518.85,0.086068,0.0919814,-0.932945,-855.131,9497.68,-2001.91,-0.387717,-2.27341,2.34663,-2494.86,-9607.24,-1654.17,-2.81828,-0.594288,-2.52872,9480.88,589.499,2508.99,4.1805,-2.83188,0.409422
0.023,5116.29,-3255.15,7720.59,-0.998599,1.09028,0.51679,4731.07,3707.09,7675.12,-1.84164,-0.492977,-0.385163,589.798,9410.65,-2104.6,-0.667087,-2.47891,1.69511,781.151,-9518.48,-2525.96,0.134921,0.0600525,-0.861702,-867.372,9501.75,-2006.77,-0.355234,-2.24647,2.35413,-2489.82,-9602.61,-1652.76,-2.76682,-0.562761,-2.54427,9472.58,597.717,2487.52,4.14704,-2.82691,0.432988
0.024,5111.46,-3254.71,7726.27,-1.015,1.05138,0.437448,4719.49,3702.23,7690.77,-1.82455,-0.553094,-0.546335,606.195,9411.69,-2100.72,-0.730247,-2.45944,1.58984,781.976,-9509.43,-2537.07,0.20146,0.0373062,-0.763732,-887.919,9513.47,-2010.36,-0.326705,-2.18744,2.34538,-2481.32,-9600.57,-1657.2,-2.7002,-0.533466,-2.54243,9465.84,600.524,2459.88,4.13124,-2.7888,0.447827
0.025,5106.63,-3254.27,7731.95,-1.03141,1.01247,0.358106,4707.9,3697.38,7706.43,-1.80747,-0.61321,-0.707506,622.593,9412.72,-2096.83,-0.793407,-2.43997,1.48458,782.8,-9500.38,-2548.18,0.267999,0.0145599,-0.665762,-908.466,9525.2,-2013.95,-0.298175,-2.12841,2.33662,-2472.83,-9598.54,-1661.63,-2.63358,-0.504172,-2.54058,9459.1,603.33,2432.24,4.11544,-2.75068,0.462667
0.026,5101.8,-3253.83,7737.63,-1.04781,0.973567,0.278765,4696.32,3692.52,7722.08,-1.79039,-0.673327,-0.868677,638.99,9413.75,-2092.95,-0.856567,-2.42049,1.37931,783.625,-9491.33,-2559.3,0.334538,-0.00818648,-0.567792,-929.013,9536.92,-2017.54,-0.269645,-2.06938,2.32787,-2464.33,-9596.5,-1666.07,-2.56696,-0.474877,-2.53874,9452.37,606.137,2404.6,4.09964,-2.71257,0.477506
0.027,5098.31,-3246.43,7734.3,-1.0381,0.947311,0.216714,4685.84,3692.47,7725.91,-1.75271,-0.65513,-0.886922,652.805,9414.78,-2096.04,-0.892874,-2.38601,1.27823,788.231,-9487.98,-2567.29,0.400767,-0.037225,-0.494987,-938.316,9535.05,-2023.42,-0.245766,-1.9589,2.29121,-2457.86,-9593.15,-1675.71,-2.54706,-0.463188,-2.53146,9457.17,616.98,2384.63,3.97482,-2.67328,0.478318
0.028,5097.51,-3225.09,7712.94,-0.976157,0.946349,0.189246,4677.57,3702.0,7706.08,-1.67385,-0.480307,-0.619314,661.455,9415.82,-2113.1,-0.875476,-2.32153,1.18554,800.399,-9496.05,-2569.05,0.466376,-0.0788478,-0.472511,-925.133,9505.98,-2033.88,-0.231189,-1.74555,2.19874,-2455.45,-9587.15,-1695.77,-2.6206,-0.486708,-2.51331,9485.06,643.899,2379.98,3.63196,-2.63165,0.451074
0.029,5096.72,-3203.75,7691.58,-0.914217,0.945388,0.161778,4669.3,3711.54,7686.25,-1.59499,-0.305484,-0.351705,670.106,9416.86,-2130.15,-0.858079,-2.25704,1.09285,812.567,-9504.12,-2570.81,0.531985,-0.120471,-0.450035,-911.949,9476.91,-2044.34,-0.216612,-1.53219,2.10627,-2453.03,-9581.15,-1715.82,-2.69413,-0.510229,-2.49517,9512.95,670.817,2375.32,3.28911,-2.59001,0.423831
0.03,5095.92,-3182.41,7670.22,-0.852276,0.944426,0.13431,4661.02,3721.08,7666.42,-1.51613,-0.130661,-0.0840969,678.757,9417.9,-2147.21,-0.840681,-2.19255,1.00016,824.736,-9512.19,-2572.57,0.597594,-0.162093,-0.42756,-898.766,9447.83,-2054.79,-0.202034,-1.31884,2.0138,-2450.62,-9575.15,-1735.87,-2.76767,-0.53375,-2.47702,9540.83,697.735,2370.67,2.94625,-2.54838,0.396588
0.031,5095.12,-3161.07,7648.85,-0.790335,0.943465,0.106841,4652.75,3730.62,7646.59,-1.43727,0.0441625,0.183511,687.407,9418.93,-2164.27,-0.823284,-2.12806,0.907473,836.904,-9520.26,-2574.32,0.663203,-0.203716,-0.405084,-885.582,9418.76,-2065.25,-0.187457,-1.10548,1.92133,-2448.21,-9569.16,-1755.93,-2.84121,-0.55727,-2.45887,9568.72,724.653,2366.02,2.6034,-2.50674,0.369344
0.032,5095.01,-3151.03,7645.75,-0.83491,0.944465,0.0512248,4656.78,3718.83,7637.6,-1.50383,0.0982292,0.0135784,671.501,9433.86,-2159.53,-0.80745,-2.01076,0.912783,848.522,-9513.18,-2574.92,0.52585,-0.262403,-0.390142,-906.554,9422.57,-2083.44,-0.291011,-0.896673,1.89542,-2434.67,-9565.52,-1760.72,-2.84089,-0.485807,-2.38813,9563.3,695.175,2370.44,2.69996,-2.28261,0.450465
0.033,5094.98,-3142.41,7644.93,-0.8928,0.94571,-0.0079103,4662.34,3704.37,7629.98,-1.58857,0.137201,-0.211047,652.525,9450.52,-2152.06,-0.791811,-1.88686,0.930344,860.071,-9504.2,-2575.36,0.363127,-0.323223,-0.376142,-931.795,9430.48,-2102.6,-0.409331,-0.688433,1.87783,-2419.74,-9562.17,-1763.6,-2.83134,-0.402471,-2.31081,9553.72,658.647,2376.0,2.85144,-2.03567,0.545131
0.034,5094.95,-3133.79,7644.1,-0.95069,0.946956,-0.0670454,4667.9,3689.91,7622.35,-1.6733,0.176174,-0.435673,633.548,9467.17,-2144.6,-0.776173,-1.76295,0.947904,871.62,-9495.22,-2575.81,0.200403,-0.384043,-0.362142,-957.036,9438.39,-2121.76,-0.527651,-0.480194,1.86024,-2404.82,-9558.82,-1766.48,-2.82178,-0.319134,-2.23349,9544.14,622.119,2381.56,3.00293,-1.78872,0.639798
0.035,5094.93,-3125.16,7643.28,-1.00858,0.948201,-0.126181,4673.47,3675.45,7614.73,-1.75803,0.215146,-0.660299,614.572,9483.83,-2137.13,-0.760534,-1.63905,0.965464,883.169,-9486.24,-2576.25,0.0376803,-0.444864,-0.348142,-982.277,9446.3,-2140.92,-0.645971,-0.271954,1.84265,-2389.89,-9555.48,-1769.36,-2.81223,-0.235798,-2.15617,9534.56,585.59,2387.12,3.15441,-1.54178,0.734464
0.036,5096.26,-3123.16,7648.63,-1.00931,0.965325,-0.150878,4671.73,3670.62,7612.13,-1.72658,0.243316,-0.739889,608.506,9500.69,-2137.95,-0.751882,-1.52281,0.977326,893.799,-9481.01,-2575.41,-0.0890326,-0.488401,-0.358405,-987.451,9454.11,-2137.01,-0.737452,-0.0817627,1.8445,-2385.49,-9560.66,-1764.28,-2.81291,-0.152462,-2.13755,9532.45,568.153,2398.83,3.28657,-1.41582,0.721045
0.037,5099.3,-3129.45,7661.71,-0.938584,1.0023,-0.132527,4660.87,3677.84,7615.84,-1.54989,0.257985,-0.638184,618.578,9517.81,-2149.12,-0.751963,-1.41614,0.982066,903.281,-9480.46,-2572.95,-0.170733,-0.510336,-0.398997,-967.541,9461.8,-2104.26,-0.795382,0.0858692,1.87064,-2394.25,-9576.5,-1749.25,-2.8264,-0.0691256,-2.19229,9539.68,574.58,2418.21,3.39456,-1.44109,0.57252
0.038,5102.34,-3135.74,7674.78,-0.867861,1.03927,-0.114177,4650.0,3685.05,7619.54,-1.37321,0.272654,-0.53648,628.649,9534.92,-2160.3,-0.752044,-1.30946,0.986806,912.762,-9479.91,-2570.49,-0.252433,-0.53227,-0.439588,-947.631,9469.48,-2071.52,-0.853313,0.253501,1.89678,-2403.0,-9592.33,-1734.22,-2.83988,0.0142106,-2.24704,9546.92,581.006,2437.6,3.50255,-1.46637,0.423996
0.039,5105.38,-3142.03,7687.85,-0.797137,1.07624,-0.0958262,4639.14,3692.27,7623.25,-1.19652,0.287323,-0.434775,638.721,9552.04,-2171.47,-0.752126,-1.20279,0.991547,922.244,-9479.36,-2568.03,-0.334133,-0.554205,-0.48018,-927.722,9477.16,-2038.78,-0.911244,0.421133,1.92293,-2411.76,-9608.17,-1719.19,-2.85337,0.0975469,-2.30179,9554.15,587.432,2456.99,3.61055,-1.49164,0.275471
0.04,5108.41,-3148.31,7700.92,-0.726414,1.11321,-0.0774758,4628.28,3699.48,7626.95,-1.01983,0.301992,-0.333071,648.792,9569.15,-2182.65,-0.752207,-1.09612,0.996287,931.726,-9478.81,-2565.57,-0.415834,-0.576139,-0.520772,-907.812,9484.85,-2006.04,-0.969175,0.588765,1.94907,-2420.51,-9624.01,-1704.16,-2.86685,0.180883,-2.35654,9561.38,593.858,2476.37,3.71854,-1.51691,0.126946
0.041,5104.44,-3147.17,7688.66,-0.6571,1.12165,-0.00512571,4635.93,3695.8,7601.37,-1.18099,0.263241,-0.392529,653.531,9558.27,-2190.72,-0.785328,-0.984533,1.05762,936.157,-9486.6,-2573.01,-0.34656,-0.57113,-0.569409,-914.563,9493.5,-2007.14,-0.917026,0.607027,2.00363,-2437.87,-9620.58,-1712.09,-2.88059,0.213016,-2.40248,9549.5,595.248,2484.05,3.67563,-1.42572,0.183735
0.042,5100.47,-3146.04,7676.4,-0.587786,1.13008,0.0672243,4643.58,3692.11,7575.79,-1.34216,0.224489,-0.451987,658.269,9547.39,-2198.8,-0.81845,-0.872947,1.11895,940.589,-9494.4,-2580.45,-0.277286,-0.566121,-0.618046,-921.315,9502.16,-2008.24,-0.864878,0.625289,2.05819,-2455.24,-9617.15,-1720.02,-2.89433,0.245149,-2.44843,9537.62,596.637,2491.73,3.63272,-1.33452,0.240524
0.043,5096.49,-3144.9,7664.13,-0.518473,1.13851,0.139574,4651.24,3688.42,7550.21,-1.50332,0.185737,-0.511445,663.008,9536.51,-2206.87,-0.851572,-0.76136,1.18028,945.021,-9502.19,-2587.89,-0.208013,-0.561112,-0.666683,-928.066,9510.82,-2009.34,-0.812729,0.643551,2.11275,-2472.6,-9613.72,-1727.95,-2.90807,0.277282,-2.49438,9525.74,598.026,2499.41,3.58981,-1.24332,0.297314
0.044,5092.52,-3143.76,7651.87,-0.449159,1.14694,0.211924,4658.89,3684.73,7524.63,-1.66449,0.146986,-0.570903,667.746,9525.63,-2214.95,-0.884693,-0.649773,1.24162,949.452,-9509.99,-2595.33,-0.138739,-0.556103,-0.71532,-934.817,9519.48,-2010.44,-0.760581,0.661813,2.16731,-2489.96,-9610.29,-1735.88,-2.92181,0.309415,-2.54033,9513.86,599.415,2507.09,3.5469,-1.15212,0.354103
0.045,5092.66,-3145.73,7649.22,-0.501242,1.15746,0.226337,4660.76,3695.14,7531.15,-1.68132,0.10668,-0.584193,664.131,9522.86,-2209.17,-0.930294,-0.562599,1.23253,946.903,-9516.25,-2596.13,-0.1069,-0.523638,-0.739734,-939.679,9525.79,-2008.59,-0.819567,0.760428,2.22984,-2496.03,-9593.14,-1734.7,-2.93419,0.290463,-2.53585,9503.67,605.958,2497.51,3.48731,-1.16205,0.431082
0.046,5096.09,-3150.17,7654.26,-0.650441,1.16963,0.1944,4657.99,3716.83,7563.34,-1.58269,0.0651313,-0.560548,653.833,9526.58,-2192.31,-0.985878,-0.494955,1.16711,938.769,-9521.29,-2591.63,-0.10501,-0.46921,-0.744769,-943.028,9530.22,-2004.38,-0.967461,0.923324,2.29876,-2493.07,-9565.02,-1726.25,-2.94549,0.230644,-2.49103,9494.82,616.624,2474.13,3.41437,-1.25288,0.524214
0.047,5099.52,-3154.62,7659.3,-0.799641,1.18181,0.162463,4655.23,3738.51,7595.52,-1.48405,0.0235825,-0.536903,643.536,9530.31,-2175.45,-1.04146,-0.427311,1.10169,930.635,-9526.32,-2587.12,-0.103119,-0.414782,-0.749803,-946.378,9534.66,-2000.17,-1.11536,1.08622,2.36767,-2490.1,-9536.91,-1717.79,-2.95679,0.170824,-2.44622,9485.97,627.289,2450.75,3.34143,-1.34372,0.617345
0.048,5102.95,-3159.07,7664.33,-0.948841,1.19399,0.130526,4652.47,3760.2,7627.71,-1.38542,-0.0179662,-0.513259,633.238,9534.03,-2158.59,-1.09705,-0.359667,1.03627,922.502,-9531.36,-2582.62,-0.101229,-0.360353,-0.754838,-949.728,9539.1,-1995.97,-1.26325,1.24912,2.43659,-2487.14,-9508.79,-1709.33,-2.9681,0.111005,-2.4014,9477.13,637.955,2427.37,3.26849,-1.43455,0.710477
0.049,5105.49,-3164.18,7670.14,-1.08291,1.20493,0.106808,4651.17,3778.98,7654.23,-1.30924,-0.0535636,-0.486188,623.686,9536.58,-2143.23,-1.13965,-0.298152,0.964846,914.053,-9536.5,-2580.95,-0.0985933,-0.308753,-0.763216,-949.255,9538.64,-1993.17,-1.36609,1.40782,2.4691,-2485.57,-9485.14,-1701.95,-2.99159,0.0532021,-2.36078,9468.11,647.889,2408.11,3.21991,-1.50856,0.793662
0.05,5100.92,-3174.5,7682.04,-1.09596,1.20591,0.148836,4661.58,3774.48,7635.42,-1.41269,-0.0415505,-0.431708,620.095,9529.69,-2139.87,-1.07839,-0.285674,0.845359,903.084,-9542.5,-2601.95,-0.090002,-0.279773,-0.798339,-918.207,9499.03,-2001.69,-1.10848,1.53292,2.21042,-2495.22,-9497.29,-1703.19,-3.11267,0.0115318,-2.35373,9457.71,651.973,2421.88,3.36621,-1.44799,0.797277
0.051,5096.34,-3184.82,7693.95,-1.109,1.20689,0.190865,4671.98,3769.98,7616.61,-1.51614,-0.0295374,-0.377228,616.505,9522.8,-2136.51,-1.01714,-0.273196,0.725872,892.115,-9548.49,-2622.96,-0.0814106,-0.250794,-0.833462,-887.158,9459.41,-2010.21,-0.850868,1.65803,1.95173,-2504.87,-9509.44,-1704.42,-3.23374,-0.0301385,-2.34668,9447.32,656.056,2435.66,3.5125,-1.38741,0.800893
0.052,5091.77,-3195.15,7705.86,-1.12204,1.20788,0.232893,4682.38,3765.48,7597.79,-1.61959,-0.0175243,-0.322748,612.914,9515.9,-2133.15,-0.955882,-0.260718,0.606385,881.146,-9554.49,-2643.97,-0.0728193,-0.221814,-0.868584,-856.109,9419.8,-2018.73,-0.593258,1.78313,1.69305,-2514.52,-9521.59,-1705.66,-3.35481,-0.0718088,-2.33962,9436.93,660.14,2449.43,3.6588,-1.32684,0.804509
0.053,5087.2,-3205.47,7717.77,-1.13508,1.20886,0.274922,4692.77,3760.99,7578.98,-1.72304,-0.00551124,-0.268268,609.324,9509.01,-2129.79,-0.894627,-0.248239,0.486897,870.177,-9560.48,-2664.98,-0.0642279,-0.192835,-0.903707,-825.061,9380.19,-2027.25,-0.335649,1.90824,1.43437,-2524.16,-9533.74,-1706.89,-3.47589,-0.113479,-2.33257,9426.54,664.223,2463.2,3.80509,-1.26626,0.808124
0.054,5084.04,-3195.4,7713.82,-1.08928,1.20172,0.296767,4717.62,3777.07,7578.74,-1.83139,0.0167332,-0.249203,607.091,9494.26,-2124.01,-0.819902,-0.191263,0.485192,857.044,-9572.82,-2672.17,-0.0649439,-0.144655,-0.924551,-838.249,9384.82,-2017.17,-0.285448,2.07878,1.35641,-2528.59,-9526.85,-1705.47,-3.55405,-0.155149,-2.31131,9435.47,653.158,2458.67,3.71047,-1.15011,0.854429
0.055,5081.59,-3175.12,7701.93,-1.01404,1.19051,0.308521,4749.7,3803.44,7587.77,-1.94219,0.0440933,-0.247847,605.537,9475.57,-2117.03,-0.738443,-0.112037,0.542378,842.829,-9588.35,-2672.45,-0.0703136,-0.0868762,-0.938254,-873.556,9411.56,-1997.79,-0.338952,2.27204,1.36881,-2530.41,-9510.44,-1702.73,-3.61076,-0.19682,-2.28296,9454.05,634.519,2444.98,3.49539,-1.00616,0.922077
0.056,5079.14,-3154.84,7690.04,-0.938808,1.1793,0.320275,4781.77,3829.81,7596.81,-2.05298,0.0714534,-0.246491,603.983,9456.88,-2110.05,-0.656985,-0.0328118,0.599564,828.614,-9603.87,-2672.73,-0.0756833,-0.0290971,-0.951958,-908.863,9438.3,-1978.4,-0.392456,2.4653,1.38121,-2532.24,-9494.03,-1699.98,-3.66748,-0.23849,-2.2546,9472.63,615.88,2431.3,3.28031,-0.862221,0.989725
0.057,5076.69,-3134.56,7678.15,-0.863574,1.1681,0.332029,4813.84,3856.19,7605.85,-2.16378,0.0988135,-0.245135,602.428,9438.19,-2103.06,-0.575526,0.0464138,0.65675,814.399,-9619.39,-2673.02,-0.0810529,0.028682,-0.965662,-944.171,9465.04,-1959.02,-0.445959,2.65856,1.39362,-2534.06,-9477.61,-1697.23,-3.72419,-0.28016,-2.22625,9491.21,597.24,2417.61,3.06523,-0.718279,1.05737
0.058,5074.77,-3119.31,7667.68,-0.79581,1.1463,0.330709,4834.38,3866.1,7611.25,-2.21097,0.108075,-0.225906,599.154,9425.44,-2095.67,-0.519106,0.110361,0.695454,801.73,-9630.13,-2671.33,-0.0812142,0.0948408,-0.984563,-965.291,9486.13,-1941.53,-0.478553,2.83939,1.39998,-2535.06,-9467.93,-1695.28,-3.76391,-0.311236,-2.19697,9509.53,585.013,2402.65,2.87555,-0.602786,1.11947
0.059,5074.74,-3121.71,7662.18,-0.754196,1.08743,0.283634,4814.58,3818.39,7603.91,-2.03552,0.0539904,-0.144122,589.862,9433.47,-2086.84,-0.550323,0.120832,0.669472,794.472,-9624.16,-2662.73,-0.0631459,0.190329,-1.02166,-936.758,9487.42,-1930.71,-0.437963,2.97671,1.38521,-2533.2,-9481.8,-1696.11,-3.74413,-0.30523,-2.16448,9526.88,595.23,2383.23,2.77473,-0.586865,1.16213
0.06,5074.71,-3124.1,7656.68,-0.712582,1.02856,0.236558,4794.77,3770.69,7596.58,-1.86007,-9.41e-05,-0.0623386,580.569,9441.5,-2078.0,-0.581541,0.131302,0.643491,787.213,-9618.19,-2654.14,-0.0450776,0.285816,-1.05875,-908.226,9488.72,-1919.88,-0.397373,3.11403,1.37043,-2531.33,-9495.66,-1696.94,-3.72436,-0.299223,-2.13198,9544.25,605.447,2363.8,2.67391,-0.570944,1.20478
0.061,5074.67,-3126.49,7651.17,-0.670967,0.969685,0.189482,4774.96,3722.99,7589.25,-1.68463,-0.0541786,0.019445,571.276,9449.53,-2069.17,-0.612758,0.141773,0.617509,779.954,-9612.21,-2645.55,-0.0270093,0.381304,-1.09585,-879.693,9490.01,-1909.06,-0.356783,3.25136,1.35566,-2529.46,-9509.53,-1697.77,-3.70459,-0.293217,-2.09949,9561.6,615.664,2344.38,2.5731,-0.555023,1.24744
0.062,5074.64,-3128.88,7645.67,-0.629353,0.910815,0.142407,4755.15,3675.28,7581.91,-1.50918,-0.108263,0.101229,561.983,9457.56,-2060.33,-0.643975,0.152244,0.591527,772.696,-9606.24,-2636.96,-0.00894099,0.476792,-1.13294,-851.16,9491.3,-1898.23,-0.316193,3.38868,1.34089,-2527.6,-9523.39,-1698.61,-3.68482,-0.287211,-2.067,9578.96,625.881,2324.95,2.47228,-0.539101,1.2901
0.063,5075.55,-3147.05,7654.62,-0.627648,0.895378,0.152791,4727.18,3671.95,7596.97,-1.53325,-0.0886034,0.130329,568.707,9481.26,-2056.81,-0.696991,0.26034,0.608482,769.817,-9598.35,-2628.43,-0.00876155,0.517645,-1.18367,-876.416,9506.03,-1890.24,-0.338223,3.45398,1.26702,-2517.22,-9538.46,-1704.15,-3.75374,-0.280487,-2.01311,9574.99,618.548,2337.63,2.47329,-0.50409,1.34913
0.064,5076.72,-3169.73,7667.7,-0.637346,0.89235,0.179593,4696.87,3681.3,7618.42,-1.61432,-0.047874,0.144376,580.007,9509.43,-2054.8,-0.756235,0.396329,0.637705,768.191,-9589.92,-2619.92,-0.0136932,0.542887,-1.23829,-917.04,9524.6,-1883.06,-0.378144,3.49871,1.17627,-2504.41,-9553.88,-1711.04,-3.84799,-0.273559,-1.9531,9564.93,606.201,2359.47,2.50339,-0.463625,1.41283
0.065,5077.9,-3192.41,7680.78,-0.647044,0.889323,0.206396,4666.56,3690.65,7639.87,-1.69539,-0.00714465,0.158424,591.307,9537.61,-2052.79,-0.815479,0.532318,0.666928,766.564,-9581.48,-2611.41,-0.0186249,0.568129,-1.29291,-957.664,9543.16,-1875.87,-0.418065,3.54343,1.08553,-2491.6,-9569.29,-1717.93,-3.94225,-0.26663,-1.8931,9554.87,593.853,2381.32,2.53348,-0.42316,1.47654
0.066,5079.08,-3215.09,7693.86,-0.656742,0.886295,0.233198,4636.26,3699.99,7661.32,-1.77646,0.0335847,0.172471,602.606,9565.79,-2050.78,-0.874723,0.668307,0.696151,764.937,-9573.05,-2602.9,-0.0235565,0.593372,-1.34753,-998.287,9561.73,-1868.69,-0.457987,3.58816,0.994781,-2478.79,-9584.7,-1724.82,-4.0365,-0.259701,-1.83309,9544.8,581.506,2403.17,2.56358,-0.382694,1.54024
0.067,5074.13,-3227.5,7704.65,-0.662589,0.885384,0.239409,4617.49,3706.18,7666.37,-1.82514,0.0467939,0.122387,615.594,9579.06,-2043.99,-0.915409,0.754462,0.697182,761.541,-9565.1,-2592.94,-0.0115641,0.591626,-1.38733,-1027.79,9564.11,-1868.63,-0.470003,3.68554,1.00444,-2470.46,-9590.86,-1731.94,-4.11953,-0.271521,-1.80401,9538.0,569.347,2417.79,2.59863,-0.350863,1.63008
0.068,5056.93,-3219.4,7710.87,-0.660733,0.888706,0.204438,4621.82,3706.06,7638.64,-1.80903,0.00496268,-0.0559628,631.957,9562.52,-2027.67,-0.918979,0.740949,0.641828,754.607,-9558.12,-2580.08,0.0342767,0.535905,-1.39749,-1035.03,9534.13,-1882.8,-0.42621,3.88824,1.21492,-2471.08,-9578.49,-1739.49,-4.18008,-0.320837,-1.83678,9537.74,557.567,2417.94,2.64359,-0.336299,1.77219
0.069,5039.73,-3211.3,7717.1,-0.658877,0.892027,0.169467,4626.14,3705.94,7610.9,-1.79292,-0.0368685,-0.234312,648.32,9545.98,-2011.34,-0.922549,0.727437,0.586474,747.672,-9551.14,-2567.22,0.0801174,0.480184,-1.40765,-1042.28,9504.15,-1896.98,-0.382416,4.09093,1.42541,-2471.71,-9566.12,-1747.05,-4.24063,-0.370153,-1.86956,9537.48,545.786,2418.09,2.68855,-0.321736,1.9143
0.07,5022.53,-3203.2,7723.32,-0.657022,0.895349,0.134496,4630.47,3705.82,7583.16,-1.77681,-0.0786998,-0.412662,664.683,9529.44,-1995.01,-0.926119,0.713924,0.53112,740.738,-9544.17,-2554.36,0.125958,0.424463,-1.41781,-1049.53,9474.16,-1911.16,-0.338623,4.29363,1.63589,-2472.33,-9553.75,-1754.61,-4.30119,-0.41947,-1.90233,9537.22,534.005,2418.25,2.73351,-0.307172,2.05641
0.071,5005.33,-3195.09,7729.55,-0.655166,0.898671,0.0995254,4634.79,3705.7,7555.43,-1.7607,-0.120531,-0.591011,681.046,9512.89,-1978.69,-0.929688,0.700412,0.475766,733.804,-9537.19,-2541.5,0.171799,0.368742,-1.42797,-1056.77,9444.18,-1925.34,-0.294829,4.49632,1.84637,-2472.96,-9541.38,-1762.16,-4.36174,-0.468786,-1.9351,9536.96,522.224,2418.4,2.77847,-0.292609,2.19852
0.072,5013.65,-3177.22,7715.71,-0.661716,0.842963,0.189975,4637.42,3695.62,7571.94,-1.55636,-0.183248,-0.620816,662.52,9518.84,-1989.19,-0.936523,0.746934,0.486497,719.356,-9534.33,-2529.1,0.15132,0.31202,-1.42397,-1053.16,9460.41,-1940.48,-0.184897,4.54693,1.71722,-2496.48,-9525.29,-1767.51,-4.38181,-0.396128,-1.96335,9541.97,546.019,2425.89,2.73934,-0.372714,2.24088
0.073,5025.17,-3158.13,7699.37,-0.669317,0.779876,0.296102,4639.84,3684.3,7593.98,-1.3285,-0.248576,-0.632052,639.634,9527.6,-2003.04,-0.943766,0.80096,0.505488,703.969,-9532.0,-2516.75,0.122551,0.255173,-1.4182,-1048.19,9482.42,-1955.73,-0.0666963,4.57854,1.54561,-2522.86,-9508.73,-1772.59,-4.39681,-0.308224,-1.99103,9547.63,574.261,2434.3,2.6897,-0.464653,2.27077
0.074,5036.69,-3139.03,7683.03,-0.676918,0.716789,0.402229,4642.26,3672.98,7616.03,-1.10063,-0.313904,-0.643288,616.747,9536.35,-2016.9,-0.951009,0.854986,0.524479,688.582,-9529.66,-2504.41,0.0937827,0.198326,-1.41243,-1043.22,9504.44,-1970.99,0.0515039,4.61014,1.37401,-2549.24,-9492.17,-1777.67,-4.41182,-0.22032,-2.01871,9553.3,602.503,2442.71,2.64006,-0.556592,2.30066
0.075,5048.21,-3119.94,7666.68,-0.684519,0.653702,0.508356,4644.68,3661.66,7638.07,-0.872769,-0.379232,-0.654525,593.861,9545.11,-2030.76,-0.958251,0.909012,0.54347,673.196,-9527.33,-2492.06,0.065014,0.141479,-1.40667,-1038.25,9526.45,-1986.24,0.169704,4.64174,1.20241,-2575.62,-9475.62,-1782.74,-4.42683,-0.132416,-2.04639,9558.96,630.745,2451.11,2.59042,-0.648531,2.33054
0.076,5061.01,-3103.64,7654.93,-0.693092,0.617575,0.578173,4652.8,3664.61,7642.23,-0.818686,-0.355837,-0.607403,588.478,9551.81,-2047.35,-0.954137,0.905914,0.545324,673.979,-9528.35,-2491.29,0.0281459,0.131459,-1.38079,-1038.53,9526.56,-1988.98,0.209161,4.71626,1.13274,-2588.4,-9471.47,-1787.99,-4.43082,-0.0447125,-2.07773,9558.51,646.717,2446.89,2.55996,-0.674518,2.32134
0.077,5075.41,-3090.84,7648.92,-0.702879,0.615148,0.602602,4668.05,3685.39,7624.02,-0.981829,-0.221536,-0.487333,604.975,9555.92,-2067.38,-0.935825,0.831411,0.525756,694.975,-9533.57,-2504.99,-0.0188466,0.179971,-1.32978,-1045.38,9499.32,-1976.09,0.150189,4.84445,1.19051,-2584.18,-9482.83,-1793.47,-4.42104,0.0427406,-2.11364,9550.41,647.351,2426.89,2.55349,-0.618065,2.26327
0.078,5089.82,-3078.03,7642.9,-0.712666,0.612721,0.627031,4683.29,3706.17,7605.81,-1.14497,-0.0872358,-0.367264,621.471,9560.04,-2087.4,-0.917513,0.756908,0.506189,715.971,-9538.78,-2518.69,-0.0658391,0.228483,-1.27877,-1052.23,9472.07,-1963.2,0.0912168,4.97264,1.24828,-2579.96,-9494.18,-1798.94,-4.41126,0.130194,-2.14956,9542.31,647.986,2406.88,2.54702,-0.561612,2.2052
0.079,5104.22,-3065.23,7636.89,-0.722453,0.610293,0.65146,4698.54,3726.95,7587.61,-1.30812,0.0470645,-0.247195,637.968,9564.16,-2107.43,-0.899201,0.682405,0.486621,736.967,-9544.0,-2532.39,-0.112832,0.276996,-1.22776,-1059.08,9444.82,-1950.31,0.0322447,5.10082,1.30605,-2575.73,-9505.54,-1804.41,-4.40148,0.217647,-2.18547,9534.21,648.62,2386.88,2.54055,-0.505159,2.14713
0.08,5118.62,-3052.42,7630.87,-0.73224,0.607866,0.675889,4713.78,3747.72,7569.4,-1.47126,0.181365,-0.127125,654.464,9568.27,-2127.46,-0.880889,0.607901,0.467054,757.963,-9549.22,-2546.08,-0.159824,0.325508,-1.17676,-1065.93,9417.57,-1937.42,-0.0267274,5.22901,1.36382,-2571.51,-9516.9,-1809.88,-4.39171,0.3051,-2.22139,9526.12,649.255,2366.88,2.53409,-0.448706,2.08906
0.081,5136.91,-3064.44,7641.67,-0.70488,0.594761,0.58354,4728.51,3735.04,7560.04,-1.52465,0.166512,-0.169176,667.266,9535.53,-2135.73,-0.864,0.66818,0.381756,756.9,-9534.89,-2556.47,-0.121192,0.318245,-1.31206,-1056.26,9436.26,-1929.77,-0.153019,5.14353,1.4717,-2572.92,-9523.68,-1808.0,-4.35548,0.292899,-2.15025,9537.94,655.255,2363.11,2.49447,-0.449712,2.10975
0.082,5155.21,-3076.45,7652.46,-0.677521,0.581656,0.491192,4743.24,3722.35,7550.67,-1.57805,0.15166,-0.211226,680.067,9502.78,-2144.0,-0.84711,0.728458,0.296457,755.838,-9520.57,-2566.86,-0.08256,0.310981,-1.44736,-1046.6,9454.94,-1922.12,-0.27931,5.05805,1.57957,-2574.32,-9530.45,-1806.11,-4.31925,0.280698,-2.07911,9549.76,661.255,2359.35,2.45485,-0.450717,2.13044
0.083,5173.5,-3088.47,7663.26,-0.650161,0.568551,0.398843,4757.97,3709.66,7541.31,-1.63144,0.136807,-0.253276,692.868,9470.04,-2152.27,-0.830221,0.788736,0.211159,754.775,-9506.25,-2577.25,-0.0439279,0.303718,-1.58266,-1036.94,9473.63,-1914.47,-0.405602,4.97257,1.68745,-2575.73,-9537.23,-1804.22,-4.28303,0.268497,-2.00797,9561.58,667.255,2355.59,2.41524,-0.451722,2.15113
0.084,5191.8,-3100.48,7674.06,-0.622802,0.555446,0.306494,4772.7,3696.97,7531.95,-1.68483,0.121955,-0.295326,705.669,9437.29,-2160.54,-0.813331,0.849015,0.125861,753.712,-9491.92,-2587.64,-0.00529589,0.296454,-1.71796,-1027.27,9492.32,-1906.82,-0.531893,4.88709,1.79533,-2577.14,-9544.0,-1802.34,-4.2468,0.256297,-1.93683,9573.4,673.255,2351.83,2.37562,-0.452728,2.17182
0.085,5198.7,-3112.26,7669.35,-0.638977,0.531648,0.304124,4765.45,3689.39,7514.51,-1.7058,0.0919258,-0.343756,696.297,9431.57,-2154.22,-0.791955,0.931416,0.138452,747.086,-9494.6,-2586.91,0.0356921,0.334716,-1.77013,-1020.41,9511.9,-1919.23,-0.536487,4.91372,1.86945,-2571.12,-9549.17,-1799.62,-4.24341,0.179787,-1.89173,9581.47,678.026,2355.79,2.39125,-0.329831,2.16453
0.086,5196.47,-3123.86,7652.25,-0.689981,0.499296,0.373737,4740.62,3685.88,7490.6,-1.70083,0.0497555,-0.39729,669.185,9447.46,-2136.22,-0.76699,1.03152,0.229353,736.009,-9510.88,-2577.3,0.0785647,0.409398,-1.75581,-1015.78,9532.18,-1947.69,-0.443721,5.03004,1.91657,-2559.18,-9553.06,-1796.22,-4.2663,0.0518303,-1.86748,9586.54,681.815,2365.92,2.45106,-0.107812,2.13486
0.087,5194.25,-3135.45,7635.15,-0.740985,0.466943,0.44335,4715.79,3682.38,7466.7,-1.69585,0.00758521,-0.450823,642.074,9463.35,-2118.22,-0.742025,1.13161,0.320255,724.933,-9527.16,-2567.69,0.121437,0.48408,-1.74149,-1011.15,9552.47,-1976.14,-0.350956,5.14637,1.96369,-2547.24,-9556.94,-1792.83,-4.28919,-0.0761263,-1.84322,9591.61,685.604,2376.06,2.51088,0.114207,2.10519
0.088,5192.03,-3147.04,7618.05,-0.791989,0.43459,0.512963,4690.96,3678.87,7442.8,-1.69088,-0.0345851,-0.504357,614.962,9479.24,-2100.22,-0.717059,1.23171,0.411157,713.856,-9543.43,-2558.07,0.16431,0.558761,-1.72717,-1006.53,9572.75,-2004.6,-0.258191,5.2627,2.01081,-2535.29,-9560.83,-1789.43,-4.31208,-0.204083,-1.81897,9596.69,689.393,2386.19,2.57069,0.336226,2.07551
0.089,5187.26,-3156.47,7604.71,-0.827217,0.405885,0.575077,4671.44,3674.94,7426.29,-1.67464,-0.0778131,-0.553481,591.175,9495.29,-2083.8,-0.69178,1.3315,0.484928,702.345,-9559.33,-2549.89,0.201391,0.626734,-1.71751,-1006.5,9588.62,-2027.97,-0.174009,5.36435,2.04316,-2522.5,-9564.97,-1784.79,-4.33099,-0.329905,-1.80109,9602.81,689.838,2393.22,2.62409,0.524745,2.04772
0.09,5162.08,-3148.63,7621.5,-0.736242,0.406353,0.577202,4694.4,3667.52,7468.91,-1.5683,-0.129503,-0.567331,593.984,9512.6,-2080.09,-0.663988,1.42877,0.421647,687.356,-9572.21,-2553.15,0.192138,0.641037,-1.74509,-1043.28,9569.15,-2010.62,-0.158492,5.34864,1.95731,-2502.97,-9571.16,-1770.11,-4.31815,-0.438651,-1.83425,9617.37,663.529,2375.32,2.62615,0.44526,2.03499
0.091,5136.9,-3140.79,7638.28,-0.645266,0.406822,0.579328,4717.36,3660.11,7511.53,-1.46195,-0.181193,-0.58118,596.793,9529.9,-2076.38,-0.636196,1.52604,0.358366,672.367,-9585.08,-2556.41,0.182885,0.655339,-1.77266,-1080.06,9549.67,-1993.27,-0.142975,5.33293,1.87145,-2483.43,-9577.35,-1755.44,-4.30531,-0.547397,-1.8674,9631.92,637.22,2357.43,2.62822,0.365775,2.02226
0.092,5111.71,-3132.95,7655.07,-0.554291,0.40729,0.581453,4740.32,3652.69,7554.15,-1.3556,-0.232884,-0.59503,599.602,9547.21,-2072.67,-0.608404,1.62332,0.295085,657.377,-9597.95,-2559.66,0.173632,0.669641,-1.80024,-1116.83,9530.19,-1975.93,-0.127459,5.31721,1.7856,-2463.89,-9583.54,-1740.77,-4.29246,-0.656143,-1.90056,9646.47,610.911,2339.54,2.63028,0.286291,2.00953
0.093,5086.53,-3125.11,7671.86,-0.463316,0.407758,0.583579,4763.28,3645.28,7596.77,-1.24926,-0.284574,-0.60888,602.412,9564.52,-2068.96,-0.580612,1.72059,0.231805,642.388,-9610.82,-2562.92,0.16438,0.683943,-1.82782,-1153.61,9510.71,-1958.58,-0.111942,5.3015,1.69975,-2444.35,-9589.73,-1726.09,-4.27962,-0.764889,-1.93371,9661.03,584.602,2321.64,2.63235,0.206806,1.9968
0.094,5072.52,-3119.56,7683.33,-0.446411,0.487164,0.576232,4762.83,3652.19,7604.77,-1.19764,-0.290847,-0.622729,590.467,9542.16,-2078.59,-0.60603,1.81026,0.19741,650.55,-9616.12,-2564.04,0.12985,0.644988,-1.85712,-1140.94,9493.45,-1961.1,-0.190816,5.26579,1.60065,-2430.58,-9587.51,-1712.75,-4.22171,-0.82992,-1.96864,9664.96,580.238,2320.78,2.65705,0.288786,2.07515
0.095,5064.11,-3115.14,7692.14,-0.466543,0.606039,0.564149,4750.66,3666.25,7595.45,-1.17339,-0.274413,-0.636579,571.145,9499.97,-2094.89,-0.658053,1.89613,0.177459,670.289,-9617.62,-2564.09,0.0826819,0.579403,-1.88728,-1103.55,9477.28,-1973.56,-0.316885,5.22008,1.49493,-2419.68,-9581.08,-1700.07,-4.14128,-0.873093,-2.00445,9663.58,586.847,2328.44,2.69306,0.451497,2.19904
0.096,5055.69,-3110.73,7700.96,-0.486675,0.724913,0.552066,4738.5,3680.32,7586.14,-1.14913,-0.257978,-0.650428,551.824,9457.77,-2111.19,-0.710076,1.982,0.157508,690.027,-9619.13,-2564.14,0.0355139,0.513819,-1.91744,-1066.16,9461.12,-1986.02,-0.442954,5.17436,1.38921,-2408.78,-9574.65,-1687.39,-4.06084,-0.916266,-2.04027,9662.21,593.455,2336.1,2.72908,0.614209,2.32292
0.097,5047.28,-3106.32,7709.77,-0.506806,0.843788,0.539983,4726.34,3694.38,7576.83,-1.12488,-0.241543,-0.664278,532.502,9415.58,-2127.49,-0.762099,2.06787,0.137557,709.765,-9620.63,-2564.2,-0.0116542,0.448235,-1.94761,-1028.76,9444.96,-1998.48,-0.569023,5.12865,1.2835,-2397.89,-9568.23,-1674.72,-3.9804,-0.959439,-2.07608,9660.83,600.063,2343.75,2.76509,0.77692,2.44681
0.098,5043.34,-3103.39,7715.75,-0.516985,0.919416,0.537974,4716.9,3705.08,7572.45,-1.11239,-0.219068,-0.677909,520.132,9389.2,-2134.65,-0.789723,2.10948,0.140036,723.179,-9621.26,-2565.25,-0.0366961,0.375099,-1.98109,-999.381,9434.49,-2009.72,-0.629166,5.07286,1.22638,-2392.24,-9563.17,-1667.73,-3.90345,-1.01648,-2.11301,9654.47,598.7,2354.29,2.82126,0.911543,2.5433
0.099,5055.07,-3105.67,7711.83,-0.492329,0.843681,0.571221,4716.98,3703.97,7585.35,-1.14107,-0.175451,-0.690777,532.09,9418.2,-2109.79,-0.731947,1.99619,0.221017,714.459,-9618.81,-2569.81,0.0157031,0.275535,-2.02622,-998.032,9443.99,-2016.69,-0.458567,4.98176,1.33936,-2404.93,-9562.92,-1680.68,-3.83872,-1.12207,-2.15388,9630.68,569.436,2374.89,2.94793,0.947857,2.54389
0.1,5066.8,-3107.95,7707.91,-0.467673,0.767946,0.604467,4717.07,3702.87,7598.24,-1.16975,-0.131834,-0.703645,544.047,9447.2,-2084.94,-0.674171,1.8829,0.301998,705.739,-9616.37,-2574.37,0.0681024,0.175971,-2.07135,-996.683,9453.48,-2023.67,-0.287968,4.89067,1.45234,-2417.63,-9562.67,-1693.62,-3.77399,-1.22767,-2.19474,9606.88,540.173,2395.49,3.0746,0.984171,2.54449
0.101,5078.53,-3110.23,7703.99,-0.443017,0.692212,0.637714,4717.15,3701.77,7611.14,-1.19844,-0.0882171,-0.716513,556.005,9476.2,-2060.08,-0.616395,1.76961,0.382979,697.019,-9613.93,-2578.93,0.120502,0.0764065,-2.11647,-995.334,9462.97,-2030.65,-0.117369,4.79958,1.56532,-2430.33,-9562.41,-1706.56,-3.70926,-1.33326,-2.2356,9583.08,510.91,2416.08,3.20128,1.02049,2.54508
0.102,5090.26,-3112.51,7700.06,-0.418361,0.616477,0.670961,4717.24,3700.66,7624.03,-1.22712,-0.0446001,-0.729381,567.963,9505.19,-2035.23,-0.55862,1.65631,0.46396,688.299,-9611.49,-2583.49,0.172901,-0.0231577,-2.1616,-993.985,9472.46,-2037.62,0.0532294,4.70848,1.6783,-2443.03,-9562.16,-1719.5,-3.64453,-1.43885,-2.27646,9559.29,481.647,2436.68,3.32795,1.0568,2.54568
0.103,5093.57,-3114.96,7710.45,-0.447537,0.535844,0.67249,4709.27,3718.93,7624.9,-1.25809,-0.109942,-0.731383,565.115,9494.26,-2036.36,-0.535697,1.68567,0.457211,683.302,-9609.38,-2580.22,0.103268,0.01723,-2.10795,-1006.88,9464.0,-2052.95,0.0245731,4.65387,1.68474,-2437.55,-9573.1,-1734.77,-3.598,-1.44109,-2.35567,9562.1,503.362,2442.41,3.35219,0.983348,2.61078
0.104,5094.47,-3117.46,7724.93,-0.492093,0.453811,0.664956,4698.99,3742.73,7622.33,-1.28973,-0.206414,-0.730281,558.038,9471.91,-2044.92,-0.522732,1.75578,0.425395,679.368,-9607.37,-2574.7,-0.00123026,0.097604,-2.02608,-1023.83,9450.41,-2070.67,-0.0610132,4.60967,1.66074,-2426.87,-9587.23,-1750.7,-3.55666,-1.41381,-2.44583,9572.51,539.642,2443.88,3.34717,0.878536,2.6943
0.105,5095.37,-3119.95,7739.4,-0.53665,0.371779,0.657422,4688.72,3766.53,7619.76,-1.32136,-0.302887,-0.729179,550.96,9449.56,-2053.47,-0.509768,1.8259,0.393579,675.435,-9605.36,-2569.19,-0.105729,0.177978,-1.9442,-1040.79,9436.82,-2088.38,-0.146599,4.56548,1.63674,-2416.19,-9601.37,-1766.64,-3.51532,-1.38653,-2.53599,9582.93,575.922,2445.35,3.34215,0.773724,2.77783
0.106,5096.27,-3122.44,7753.88,-0.581207,0.289746,0.649888,4678.44,3790.32,7617.2,-1.35299,-0.399359,-0.728078,543.882,9427.21,-2062.03,-0.496803,1.89601,0.361763,671.501,-9603.35,-2563.68,-0.210228,0.258352,-1.86233,-1057.75,9423.23,-2106.1,-0.232186,4.52128,1.61273,-2405.51,-9615.51,-1782.57,-3.47398,-1.35925,-2.62615,9593.34,612.203,2446.83,3.33712,0.668911,2.86135
0.107,5096.62,-3126.4,7763.74,-0.606715,0.261073,0.678828,4677.94,3801.34,7616.69,-1.34801,-0.442628,-0.724763,545.127,9422.48,-2070.07,-0.504029,1.96394,0.310123,681.586,-9602.18,-2558.24,-0.260863,0.290501,-1.80612,-1066.45,9420.98,-2105.34,-0.318323,4.4263,1.56672,-2394.42,-9624.08,-1792.85,-3.45405,-1.31344,-2.72094,9598.03,633.516,2451.12,3.3325,0.602393,2.87128
0.108,5095.88,-3133.27,7764.39,-0.594128,0.339118,0.780716,4696.99,3786.8,7620.3,-1.2698,-0.37949,-0.717023,563.019,9452.96,-2077.09,-0.551637,2.0275,0.218833,719.709,-9602.72,-2552.97,-0.203771,0.2262,-1.80126,-1058.63,9441.41,-2067.64,-0.405562,4.22974,1.4767,-2382.49,-9621.53,-1791.84,-3.4769,-1.23058,-2.825,9591.29,624.893,2461.06,3.32869,0.612462,2.73401
0.109,5095.13,-3140.14,7765.03,-0.581541,0.417163,0.882604,4716.04,3772.25,7623.91,-1.19159,-0.316352,-0.709283,580.911,9483.44,-2084.11,-0.599244,2.09106,0.127543,757.831,-9603.25,-2547.69,-0.14668,0.161899,-1.7964,-1050.81,9461.83,-2029.94,-0.492801,4.03318,1.38667,-2370.56,-9618.98,-1790.82,-3.49976,-1.14771,-2.92906,9584.55,616.27,2471.0,3.32488,0.622532,2.59673
0.11,5094.38,-3147.01,7765.67,-0.568953,0.495208,0.984492,4735.1,3757.71,7627.52,-1.11338,-0.253214,-0.701543,598.803,9513.93,-2091.13,-0.646851,2.15462,0.0362536,795.954,-9603.78,-2542.42,-0.0895884,0.0975987,-1.79154,-1042.99,9482.26,-1992.24,-0.58004,3.83662,1.29664,-2358.64,-9616.42,-1789.81,-3.52262,-1.06485,-3.03311,9577.8,607.648,2480.93,3.32108,0.632601,2.45946
0.111,5093.63,-3153.89,7766.32,-0.556366,0.573252,1.08638,4754.15,3743.16,7631.14,-1.03517,-0.190075,-0.693803,616.695,9544.41,-2098.14,-0.694459,2.21819,-0.0550361,834.076,-9604.32,-2537.14,-0.0324969,0.0332979,-1.78668,-1035.16,9502.68,-1954.55,-0.667279,3.64005,1.20662,-2346.71,-9613.87,-1788.79,-3.54548,-0.981984,-3.13717,9571.06,599.025,2490.87,3.31727,0.642671,2.32219
0.112,5090.29,-3172.97,7763.85,-0.568575,0.602997,1.01758,4747.22,3733.01,7620.45,-1.01737,-0.191411,-0.74338,611.259,9546.75,-2112.19,-0.652609,2.21029,0.00926813,853.986,-9607.58,-2544.04,-0.0059951,0.0344362,-1.83296,-1035.86,9497.69,-1964.37,-0.587481,3.53607,1.37223,-2352.63,-9607.39,-1792.59,-3.6458,-0.92339,-3.18378,9570.98,588.85,2486.72,3.41819,0.727495,2.2971
0.113,5086.61,-3193.58,7760.99,-0.583884,0.626705,0.927437,4737.06,3723.4,7607.97,-1.00712,-0.200807,-0.800121,602.906,9545.57,-2127.11,-0.599578,2.19347,0.0930216,871.619,-9611.19,-2552.46,0.016683,0.0437543,-1.88562,-1037.61,9489.52,-1980.13,-0.486803,3.44367,1.56979,-2360.78,-9600.42,-1797.0,-3.7558,-0.86783,-3.22322,9571.74,578.481,2480.8,3.53219,0.821664,2.28603
0.114,5082.94,-3214.2,7758.13,-0.599193,0.650412,0.837298,4726.89,3713.79,7595.49,-0.996864,-0.210202,-0.856862,594.553,9544.39,-2142.03,-0.546547,2.17664,0.176775,889.252,-9614.8,-2560.88,0.0393611,0.0530724,-1.93828,-1039.37,9481.36,-1995.89,-0.386124,3.35126,1.76736,-2368.93,-9593.45,-1801.4,-3.8658,-0.812269,-3.26265,9572.49,568.111,2474.89,3.6462,0.915833,2.27496
0.115,5079.27,-3234.81,7755.27,-0.614502,0.67412,0.747159,4716.72,3704.18,7583.02,-0.986613,-0.219597,-0.913604,586.201,9543.21,-2156.95,-0.493515,2.15981,0.260529,906.885,-9618.41,-2569.3,0.0620392,0.0623906,-1.99095,-1041.13,9473.19,-2011.65,-0.285446,3.25885,1.96492,-2377.08,-9586.47,-1805.8,-3.97581,-0.756709,-3.30208,9573.25,557.742,2468.98,3.76021,1.01,2.26389
0.116,5079.81,-3245.94,7744.62,-0.609597,0.658336,0.685305,4704.22,3690.83,7581.22,-1.03497,-0.257498,-0.966797,605.188,9538.74,-2164.41,-0.433173,2.15986,0.345591,908.657,-9605.97,-2570.58,0.0489749,0.107037,-2.01593,-1048.45,9472.36,-2031.08,-0.270435,3.18576,2.07254,-2382.53,-9586.48,-1803.98,-4.03457,-0.671607,-3.31125,9582.17,556.114,2461.32,3.90111,1.06413,2.25116
0.117,5085.64,-3245.23,7724.21,-0.579422,0.593187,0.658809,4688.81,3672.79,7592.77,-1.15659,-0.33103,-1.01555,658.35,9530.14,-2162.52,-0.363693,2.18101,0.43229,890.603,-9573.46,-2562.93,-0.00876759,0.195843,-2.00632,-1062.73,9480.68,-2055.12,-0.362508,3.13682,2.06773,-2384.61,-9595.19,-1794.36,-4.02929,-0.549579,-3.28259,9601.3,565.412,2451.49,4.07561,1.06822,2.23637
0.118,5091.46,-3244.51,7703.81,-0.549248,0.528038,0.632313,4673.4,3654.76,7604.32,-1.27821,-0.404563,-1.06431,711.512,9521.55,-2160.64,-0.294213,2.20216,0.518988,872.548,-9540.96,-2555.28,-0.0665101,0.284649,-1.9967,-1077.01,9489.01,-2079.16,-0.454581,3.08787,2.06291,-2386.7,-9603.92,-1784.74,-4.024,-0.427552,-3.25393,9620.44,574.711,2441.65,4.25012,1.0723,2.22157
0.119,5097.29,-3243.79,7683.41,-0.519074,0.462889,0.605816,4657.99,3636.72,7615.87,-1.39982,-0.478095,-1.11307,764.674,9512.96,-2158.75,-0.224733,2.22331,0.605687,854.494,-9508.45,-2547.62,-0.124253,0.373455,-1.98709,-1091.28,9497.34,-2103.2,-0.546654,3.03893,2.0581,-2388.78,-9612.63,-1775.12,-4.01872,-0.305524,-3.22527,9639.57,584.009,2431.82,4.42462,1.07639,2.20678
0.12,5103.11,-3243.08,7663.01,-0.4889,0.39774,0.57932,4642.58,3618.69,7627.42,-1.52144,-0.551627,-1.16183,817.836,9504.36,-2156.87,-0.155252,2.24446,0.692385,836.44,-9475.94,-2539.97,-0.181995,0.462261,-1.97747,-1105.56,9505.67,-2127.23,-0.638727,2.98998,2.05328,-2390.87,-9621.36,-1765.5,-4.01344,-0.183496,-3.19661,9658.71,593.308,2421.98,4.59912,1.08047,2.19198
0.121,5102.3,-3252.05,7647.22,-0.526991,0.345703,0.555076,4686.78,3676.59,7624.71,-1.40355,-0.447587,-1.0562,767.104,9503.42,-2144.72,-0.197386,2.32185,0.837769,853.381,-9470.03,-2563.72,-0.128728,0.582671,-1.87103,-1107.03,9475.75,-2113.9,-0.680362,2.99513,2.01005,-2387.15,-9629.48,-1758.01,-3.98292,-0.116113,-3.17758,9639.22,577.737,2437.85,4.7176,1.05936,2.13502
0.122,5101.49,-3261.02,7631.42,-0.565083,0.293667,0.530831,4730.97,3734.48,7622.01,-1.28565,-0.343546,-0.950573,716.371,9502.49,-2132.57,-0.239519,2.39925,0.983153,870.323,-9464.12,-2587.47,-0.075462,0.703081,-1.76459,-1108.51,9445.83,-2100.57,-0.721997,3.00028,1.96681,-2383.44,-9637.61,-1750.51,-3.9524,-0.0487294,-3.15854,9619.73,562.166,2453.71,4.83607,1.03825,2.07806
0.123,5100.68,-3269.98,7615.63,-0.603174,0.241631,0.506587,4775.17,3792.38,7619.3,-1.16776,-0.239505,-0.844945,665.638,9501.55,-2120.42,-0.281652,2.47665,1.12854,887.264,-9458.21,-2611.22,-0.0221955,0.823492,-1.65815,-1109.98,9415.92,-2087.24,-0.763632,3.00543,1.92357,-2379.72,-9645.74,-1743.02,-3.92188,0.0186541,-3.13951,9600.25,546.595,2469.58,4.95455,1.01714,2.0211
0.124,5099.87,-3278.95,7599.84,-0.641265,0.189594,0.482343,4819.37,3850.28,7616.59,-1.04987,-0.135464,-0.739318,614.906,9500.61,-2108.28,-0.323785,2.55405,1.27392,904.206,-9452.29,-2634.97,0.031071,0.943902,-1.55171,-1111.45,9386.0,-2073.92,-0.805267,3.01057,1.88033,-2376.01,-9653.87,-1735.53,-3.89136,0.0860375,-3.12048,9580.76,531.024,2485.44,5.07302,0.996033,1.96414
0.125,5093.41,-3264.3,7601.34,-0.708437,0.213611,0.466014,4815.4,3863.62,7609.99,-1.01391,-0.126649,-0.701221,586.751,9502.93,-2101.64,-0.401323,2.60684,1.28381,911.984,-9460.0,-2638.32,0.0504055,1.10567,-1.49178,-1122.73,9378.14,-2071.66,-0.79606,3.0471,1.82731,-2371.86,-9655.67,-1734.89,-3.88551,0.147647,-3.11202,9584.75,529.148,2498.63,5.13292,1.07831,1.92388
0.126,5082.44,-3230.74,7616.66,-0.798873,0.29847,0.456018,4772.89,3841.32,7600.27,-1.04351,-0.194015,-0.717147,576.657,9507.86,-2099.4,-0.507183,2.63994,1.1853,912.432,-9478.61,-2625.35,0.0425945,1.30053,-1.46907,-1141.85,9387.94,-2078.26,-0.746178,3.10873,1.76646,-2367.36,-9652.41,-1739.73,-3.8994,0.204638,-3.11202,9607.52,538.227,2509.68,5.14595,1.2433,1.89697
0.127,5071.47,-3197.18,7631.97,-0.889309,0.383328,0.446022,4730.38,3819.01,7590.55,-1.0731,-0.261382,-0.733074,566.563,9512.8,-2097.16,-0.613044,2.67305,1.08679,912.88,-9497.21,-2612.38,0.0347835,1.49538,-1.44636,-1160.97,9397.74,-2084.86,-0.696297,3.17035,1.70561,-2362.87,-9649.16,-1744.58,-3.91329,0.261629,-3.11202,9630.3,547.306,2520.73,5.15898,1.40828,1.87006
0.128,5060.5,-3163.63,7647.29,-0.979745,0.468187,0.436025,4687.88,3796.71,7580.83,-1.1027,-0.328748,-0.749,556.47,9517.73,-2094.93,-0.718905,2.70615,0.988281,913.328,-9515.82,-2599.41,0.0269725,1.69024,-1.42365,-1180.09,9407.53,-2091.46,-0.646416,3.23198,1.64477,-2358.38,-9645.9,-1749.42,-3.92718,0.31862,-3.11202,9653.07,556.386,2531.77,5.172,1.57327,1.84316
0.129,5053.4,-3135.06,7661.52,-1.05312,0.539686,0.436635,4651.91,3776.04,7574.6,-1.12529,-0.401898,-0.74957,549.456,9521.83,-2091.37,-0.808375,2.72027,0.900971,913.935,-9533.57,-2586.95,0.00647699,1.87111,-1.40477,-1198.29,9416.32,-2097.3,-0.599678,3.30678,1.58401,-2352.14,-9641.54,-1754.9,-3.92884,0.380546,-3.11464,9671.98,566.065,2539.52,5.18975,1.72422,1.81191
0.13,5077.22,-3146.43,7667.03,-0.989999,0.504308,0.522086,4668.23,3768.47,7596.34,-1.09185,-0.521313,-0.627287,567.081,9519.29,-2077.29,-0.766719,2.5825,0.903258,915.816,-9544.48,-2578.63,-0.115494,1.94015,-1.41651,-1209.1,9416.99,-2097.15,-0.57808,3.48698,1.52397,-2331.95,-9628.32,-1765.43,-3.83259,0.481956,-3.13824,9659.97,580.542,2520.91,5.24527,1.76296,1.74592
0.131,5101.03,-3157.79,7672.54,-0.926879,0.468931,0.607536,4684.55,3760.91,7618.07,-1.05841,-0.640729,-0.505004,584.706,9516.74,-2063.21,-0.725064,2.44473,0.905546,917.698,-9555.39,-2570.31,-0.237465,2.00919,-1.42826,-1219.92,9417.67,-2097.0,-0.556483,3.66718,1.46392,-2311.76,-9615.09,-1775.97,-3.73634,0.583366,-3.16184,9647.98,595.018,2502.3,5.30078,1.8017,1.67993
0.132,5124.85,-3169.16,7678.04,-0.863759,0.433553,0.692987,4700.88,3753.34,7639.81,-1.02498,-0.760145,-0.38272,602.331,9514.2,-2049.12,-0.683408,2.30696,0.907833,919.579,-9566.3,-2561.98,-0.359437,2.07823,-1.44,-1230.73,9418.35,-2096.85,-0.534886,3.84738,1.40388,-2291.57,-9601.87,-1786.5,-3.64009,0.684776,-3.18545,9635.98,609.495,2483.68,5.3563,1.84044,1.61395
0.133,5148.67,-3180.53,7683.55,-0.800638,0.398176,0.778438,4717.2,3745.78,7661.54,-0.991537,-0.87956,-0.260437,619.956,9511.66,-2035.04,-0.641752,2.16919,0.910121,921.46,-9577.21,-2553.66,-0.481408,2.14727,-1.45175,-1241.54,9419.02,-2096.7,-0.513289,4.02758,1.34383,-2271.38,-9588.64,-1797.03,-3.54384,0.786185,-3.20905,9623.98,623.972,2465.07,5.41181,1.87917,1.54796
0.134,5156.62,-3189.19,7688.79,-0.792203,0.374191,0.801532,4724.81,3751.35,7652.6,-1.03995,-0.863838,-0.317471,626.091,9499.85,-2041.77,-0.582208,2.13318,0.963157,911.711,-9575.39,-2554.77,-0.463185,2.2143,-1.465,-1235.09,9433.6,-2094.96,-0.477724,4.15087,1.42224,-2270.3,-9589.07,-1796.02,-3.55193,0.896956,-3.27145,9620.68,615.475,2454.25,5.44362,1.88826,1.5174
0.135,5156.63,-3196.49,7693.88,-0.811112,0.355902,0.793447,4728.05,3763.49,7628.33,-1.12928,-0.780546,-0.464162,626.482,9483.42,-2058.9,-0.513718,2.14806,1.04157,896.147,-9567.21,-2560.59,-0.374865,2.28033,-1.479,-1220.01,9455.12,-2092.42,-0.435177,4.24571,1.56988,-2278.76,-9596.31,-1789.23,-3.61219,1.01241,-3.35326,9621.73,595.491,2447.33,5.46358,1.88252,1.50455
0.136,5156.64,-3203.8,7698.98,-0.83002,0.337613,0.785362,4731.3,3775.62,7604.05,-1.21861,-0.697254,-0.610853,626.874,9466.98,-2076.04,-0.445229,2.16293,1.11998,880.583,-9559.02,-2566.42,-0.286545,2.34637,-1.493,-1204.92,9476.64,-2089.89,-0.392629,4.34054,1.71752,-2287.23,-9603.56,-1782.44,-3.67245,1.12786,-3.43507,9622.78,575.508,2440.41,5.48355,1.87678,1.4917
0.137,5156.65,-3211.11,7704.07,-0.848928,0.319325,0.777277,4734.55,3787.76,7579.77,-1.30794,-0.613963,-0.757545,627.265,9450.55,-2093.17,-0.376739,2.1778,1.19839,865.019,-9550.84,-2572.24,-0.198224,2.4124,-1.507,-1189.84,9498.16,-2087.35,-0.350081,4.43538,1.86515,-2295.7,-9610.81,-1775.65,-3.73271,1.24331,-3.51688,9623.83,555.524,2433.49,5.50351,1.87104,1.47884
0.138,5154.48,-3209.2,7707.19,-0.858908,0.307537,0.769052,4738.2,3796.15,7561.4,-1.36957,-0.547797,-0.879178,624.82,9440.04,-2108.12,-0.319647,2.17812,1.26048,851.335,-9543.53,-2572.48,-0.134297,2.47658,-1.50189,-1182.51,9508.48,-2082.82,-0.331505,4.52231,1.98536,-2302.59,-9616.82,-1766.72,-3.77928,1.35487,-3.56153,9629.12,543.883,2425.25,5.50464,1.88918,1.482
0.139,5144.68,-3175.0,7703.4,-0.837637,0.318502,0.760333,4743.26,3791.43,7563.67,-1.33424,-0.541572,-0.913106,612.447,9450.29,-2115.45,-0.302444,2.1275,1.26544,844.229,-9539.29,-2553.17,-0.155743,2.5343,-1.42988,-1202.33,9479.59,-2071.28,-0.39683,4.58157,2.00959,-2303.97,-9618.51,-1750.25,-3.77795,1.45283,-3.47613,9649.22,561.439,2412.41,5.43989,1.99092,1.54117
0.14,5134.88,-3140.81,7699.6,-0.816365,0.329467,0.751615,4748.32,3786.71,7565.95,-1.29891,-0.535347,-0.947034,600.075,9460.53,-2122.77,-0.28524,2.07687,1.2704,837.123,-9535.06,-2533.86,-0.177189,2.59201,-1.35787,-1222.16,9450.71,-2059.74,-0.462156,4.64084,2.03382,-2305.36,-9620.2,-1733.79,-3.77662,1.55079,-3.39074,9669.33,578.996,2399.56,5.37514,2.09267,1.60033
0.141,5125.09,-3106.62,7695.81,-0.795094,0.340433,0.742896,4753.38,3781.99,7568.23,-1.26358,-0.529122,-0.980962,587.702,9470.78,-2130.09,-0.268037,2.02624,1.27536,830.017,-9530.82,-2514.56,-0.198635,2.64972,-1.28586,-1241.98,9421.82,-2048.2,-0.527481,4.7001,2.05804,-2306.75,-9621.88,-1717.32,-3.7753,1.64875,-3.30534,9689.43,596.553,2386.72,5.3104,2.19441,1.6595
0.142,5115.29,-3072.43,7692.02,-0.773823,0.351398,0.734177,4758.44,3777.27,7570.51,-1.22825,-0.522898,-1.01489,575.33,9481.02,-2137.41,-0.250834,1.97561,1.28032,822.912,-9526.59,-2495.25,-0.220081,2.70743,-1.21385,-1261.81,9392.93,-2036.66,-0.592807,4.75937,2.08227,-2308.13,-9623.57,-1700.86,-3.77397,1.74671,-3.21994,9709.53,614.11,2373.87,5.24565,2.29615,1.71867
0.143,5100.07,-3078.42,7695.58,-0.745369,0.355985,0.758157,4743.6,3761.22,7579.24,-1.22211,-0.511409,-1.06946,568.057,9463.54,-2140.89,-0.267089,1.9932,1.3329,819.359,-9535.34,-2494.47,-0.208679,2.72474,-1.10321,-1248.38,9389.67,-2021.99,-0.499205,4.72048,2.03737,-2300.5,-9620.9,-1721.0,-3.72845,1.7251,-3.17746,9704.36,607.138,2375.44,5.26242,2.33375,1.65506
0.144,5083.3,-3095.89,7701.25,-0.714861,0.358749,0.791479,4723.06,3741.94,7589.8,-1.22431,-0.498415,-1.12993,562.243,9438.14,-2143.28,-0.292904,2.03027,1.39908,816.823,-9547.81,-2498.99,-0.187892,2.73051,-0.981544,-1225.44,9393.72,-2006.42,-0.360195,4.65355,1.97271,-2290.28,-9616.99,-1751.59,-3.6703,1.66931,-3.14724,9691.96,593.156,2381.13,5.30249,2.35301,1.55638
0.145,5066.53,-3113.37,7706.93,-0.684354,0.361513,0.8248,4702.53,3722.66,7600.36,-1.2265,-0.485422,-1.1904,556.428,9412.74,-2145.67,-0.318719,2.06735,1.46527,814.286,-9560.28,-2503.52,-0.167105,2.73628,-0.859874,-1202.51,9397.77,-1990.86,-0.221185,4.58662,1.90805,-2280.06,-9613.09,-1782.19,-3.61216,1.61353,-3.11703,9679.55,579.175,2386.82,5.34256,2.37228,1.45769
0.146,5049.76,-3130.84,7712.6,-0.653847,0.364277,0.858122,4682.0,3703.38,7610.92,-1.2287,-0.472429,-1.25087,550.613,9387.34,-2148.06,-0.344534,2.10442,1.53146,811.749,-9572.75,-2508.04,-0.146318,2.74205,-0.738204,-1179.57,9401.82,-1975.3,-0.0821753,4.51968,1.84339,-2269.85,-9609.18,-1812.78,-3.55401,1.55775,-3.08681,9667.15,565.194,2392.51,5.38263,2.39155,1.35901
0.147,5046.83,-3147.19,7720.75,-0.624261,0.358621,0.826713,4665.84,3701.86,7614.53,-1.22628,-0.503754,-1.29116,550.529,9383.76,-2146.17,-0.326327,2.09388,1.55853,807.312,-9581.47,-2516.97,-0.127403,2.74162,-0.674953,-1169.1,9399.81,-1961.19,-0.0133654,4.46138,1.79122,-2268.08,-9604.41,-1826.76,-3.5142,1.52248,-3.04802,9655.42,555.155,2396.1,5.44813,2.42886,1.27231
0.148,5071.58,-3161.31,7733.87,-0.596519,0.336122,0.665842,4658.45,3735.86,7604.22,-1.21462,-0.623717,-1.2911,561.906,9423.82,-2135.73,-0.220077,1.98813,1.50737,799.075,-9582.66,-2534.72,-0.112231,2.7288,-0.72854,-1183.56,9385.69,-1949.99,-0.0849552,4.42032,1.764,-2283.19,-9597.91,-1807.49,-3.51107,1.52824,-2.99208,9645.03,553.001,2395.49,5.56452,2.50225,1.20957
0.149,5096.33,-3175.43,7747.0,-0.568776,0.313624,0.504971,4651.05,3769.87,7593.91,-1.20296,-0.74368,-1.29104,573.284,9463.88,-2125.29,-0.113828,1.88237,1.45622,790.839,-9583.86,-2552.48,-0.0970586,2.71597,-0.782127,-1198.02,9371.56,-1938.79,-0.156545,4.37927,1.73679,-2298.3,-9591.4,-1788.22,-3.50795,1.534,-2.93614,9634.64,550.848,2394.88,5.6809,2.57565,1.14683
0.15,5121.08,-3189.55,7760.12,-0.541033,0.291125,0.3441,4643.65,3803.87,7583.6,-1.1913,-0.863643,-1.29097,584.661,9503.93,-2114.84,-0.00757837,1.77661,1.40506,782.602,-9585.06,-2570.24,-0.0818866,2.70314,-0.835714,-1212.48,9357.44,-1927.58,-0.228135,4.33822,1.70958,-2313.41,-9584.9,-1768.95,-3.50482,1.53976,-2.8802,9624.24,548.694,2394.28,5.79728,2.64904,1.08409
0.151,5145.83,-3203.66,7773.24,-0.51329,0.268627,0.183229,4636.26,3837.88,7573.29,-1.17964,-0.983606,-1.29091,596.039,9543.99,-2104.4,0.0986712,1.67085,1.35391,774.365,-9586.25,-2587.99,-0.0667146,2.69031,-0.889302,-1226.94,9343.32,-1916.38,-0.299725,4.29716,1.68236,-2328.53,-9578.4,-1749.68,-3.50169,1.54552,-2.82426,9613.85,546.54,2393.67,5.91366,2.72244,1.02135
0.152,5129.49,-3184.54,7758.67,-0.445045,0.231341,0.294291,4654.54,3821.59,7579.54,-1.08994,-1.01722,-1.25104,578.619,9551.22,-2122.9,0.0886624,1.71711,1.50389,793.959,-9572.68,-2583.73,-0.0991545,2.86272,-0.92255,-1218.0,9352.02,-1930.68,-0.361526,4.31277,1.69406,-2333.98,-9567.02,-1734.88,-3.48899,1.61717,-2.82865,9629.01,532.499,2395.64,5.88959,2.8083,1.07374
0.153,5108.0,-3161.26,7740.64,-0.371738,0.192207,0.439344,4676.02,3799.02,7587.85,-0.990485,-1.04004,-1.2062,557.6,9554.34,-2145.01,0.0641213,1.78236,1.67902,817.033,-9557.26,-2576.71,-0.137546,3.05829,-0.953255,-1206.12,9363.58,-1948.16,-0.422104,4.33546,1.71062,-2338.23,-9555.03,-1720.64,-3.4751,1.69706,-2.8406,9647.37,516.971,2397.93,5.84795,2.89572,1.14053
0.154,5086.52,-3137.99,7722.61,-0.29843,0.153073,0.584398,4697.51,3776.45,7596.16,-0.89103,-1.06286,-1.16135,536.581,9557.47,-2167.12,0.0395802,1.84762,1.85415,840.107,-9541.85,-2569.69,-0.175937,3.25385,-0.983961,-1194.24,9375.13,-1965.65,-0.482682,4.35815,1.72718,-2342.48,-9543.04,-1706.4,-3.46121,1.77695,-2.85254,9665.73,501.443,2400.22,5.80631,2.98315,1.20732
0.155,5065.04,-3114.71,7704.58,-0.225123,0.113939,0.729451,4719.0,3753.88,7604.48,-0.791574,-1.08568,-1.11651,515.562,9560.59,-2189.22,0.0150391,1.91287,2.02927,863.18,-9526.43,-2562.67,-0.214328,3.44942,-1.01467,-1182.37,9386.69,-1983.13,-0.54326,4.38084,1.74373,-2346.73,-9531.05,-1692.16,-3.44732,1.85685,-2.86448,9684.08,485.916,2402.51,5.76468,3.07057,1.2741
0.156,5058.22,-3107.94,7695.11,-0.224293,0.0942061,0.826665,4730.67,3736.68,7609.49,-0.763005,-1.09836,-1.12009,514.784,9561.38,-2199.23,-0.0231353,1.99826,2.08478,862.518,-9521.73,-2564.65,-0.242441,3.55634,-1.00852,-1177.76,9396.91,-1997.28,-0.5573,4.38301,1.71799,-2346.63,-9528.61,-1686.94,-3.40596,1.86537,-2.9205,9684.63,488.129,2407.38,5.74789,3.14129,1.2861
0.157,5069.73,-3121.81,7696.32,-0.314061,0.0987242,0.864079,4730.07,3726.21,7610.38,-0.823044,-1.09836,-1.18423,539.308,9559.23,-2194.1,-0.0783513,2.10882,1.99075,832.188,-9530.43,-2577.9,-0.257704,3.55244,-0.956312,-1182.25,9405.45,-2007.24,-0.51317,4.35954,1.63935,-2341.07,-9538.1,-1693.0,-3.33025,1.7847,-3.03162,9662.91,512.518,2415.48,5.76216,3.19113,1.22961
0.158,5081.23,-3135.68,7697.53,-0.403828,0.103242,0.901493,4729.47,3715.74,7611.27,-0.883083,-1.09836,-1.24836,563.831,9557.09,-2188.96,-0.133567,2.21937,1.89673,801.857,-9539.12,-2591.14,-0.272967,3.54855,-0.904103,-1186.74,9414.0,-2017.2,-0.469039,4.33607,1.56072,-2335.52,-9547.59,-1699.06,-3.25455,1.70403,-3.14274,9641.19,536.907,2423.58,5.77643,3.24098,1.17312
0.159,5092.74,-3149.55,7698.74,-0.493596,0.10776,0.938906,4728.86,3705.27,7612.16,-0.943122,-1.09836,-1.31249,588.354,9554.95,-2183.83,-0.188783,2.32992,1.80271,771.527,-9547.82,-2604.38,-0.28823,3.54466,-0.851895,-1191.22,9422.55,-2027.17,-0.424908,4.31259,1.48209,-2329.97,-9557.09,-1705.11,-3.17884,1.62336,-3.25386,9619.47,561.296,2431.68,5.7907,3.29082,1.11662
0.16,5104.25,-3163.41,7699.94,-0.583364,0.112278,0.97632,4728.26,3694.8,7613.05,-1.00316,-1.09836,-1.37662,612.878,9552.8,-2178.7,-0.243999,2.44048,1.70868,741.196,-9556.52,-2617.62,-0.303493,3.54077,-0.799686,-1195.71,9431.09,-2037.13,-0.380777,4.28912,1.40346,-2324.42,-9566.58,-1711.17,-3.10314,1.54269,-3.36498,9597.75,585.685,2439.78,5.80498,3.34067,1.06013
0.161,5100.19,-3141.38,7687.24,-0.556431,0.0794495,0.964645,4727.74,3708.54,7595.67,-0.969663,-1.09567,-1.39938,600.041,9531.67,-2170.85,-0.216911,2.33142,1.75072,740.345,-9549.28,-2615.85,-0.331132,3.45858,-0.839155,-1199.08,9438.41,-2030.89,-0.358046,4.14824,1.41978,-2337.7,-9554.51,-1694.56,-3.16285,1.45693,-3.36821,9598.02,593.059,2455.79,5.89037,3.3252,1.03238
0.162,5096.14,-3119.35,7674.53,-0.529499,0.0466207,0.95297,4727.22,3722.28,7578.29,-0.936165,-1.09299,-1.42213,587.203,9510.54,-2162.99,-0.189823,2.22236,1.79277,739.494,-9542.05,-2614.07,-0.35877,3.37638,-0.878624,-1202.46,9445.72,-2024.64,-0.335315,4.00735,1.43609,-2350.98,-9542.44,-1677.94,-3.22257,1.37117,-3.37143,9598.28,600.433,2471.8,5.97576,3.30973,1.00462
0.163,5092.08,-3097.31,7661.82,-0.502566,0.013792,0.941295,4726.7,3736.03,7560.9,-0.902667,-1.0903,-1.44489,574.366,9489.4,-2155.14,-0.162734,2.1133,1.83481,738.643,-9534.81,-2612.3,-0.386408,3.29419,-0.918093,-1205.83,9453.03,-2018.39,-0.312584,3.86647,1.45241,-2364.26,-9530.38,-1661.33,-3.28228,1.28541,-3.37466,9598.55,607.808,2487.81,6.06115,3.29426,0.976862
0.164,5088.03,-3075.28,7649.11,-0.475634,-0.0190368,0.92962,4726.18,3749.77,7543.52,-0.869168,-1.08762,-1.46764,561.529,9468.27,-2147.28,-0.135646,2.00424,1.87685,737.792,-9527.57,-2610.53,-0.414046,3.212,-0.957562,-1209.2,9460.35,-2012.15,-0.289852,3.72558,1.46873,-2377.54,-9518.31,-1644.72,-3.342,1.19965,-3.37788,9598.81,615.182,2503.82,6.14654,3.27879,0.949105
0.165,5093.24,-3079.98,7641.09,-0.485358,-0.128961,0.982375,4731.86,3757.78,7538.05,-0.846481,-1.08965,-1.45477,559.354,9475.67,-2130.64,-0.138093,1.98398,1.9328,752.448,-9526.57,-2581.11,-0.411474,3.31939,-0.944846,-1200.5,9472.31,-2002.94,-0.34441,3.55549,1.51425,-2383.39,-9521.52,-1634.18,-3.34156,1.14347,-3.32811,9593.94,624.542,2504.31,6.17162,3.31047,0.929012
0.166,5105.86,-3106.07,7636.82,-0.524408,-0.300563,1.08667,4742.51,3761.2,7542.11,-0.832443,-1.09545,-1.41341,565.708,9505.89,-2106.95,-0.16417,2.03476,1.99988,779.509,-9530.54,-2529.56,-0.384735,3.57845,-0.89038,-1182.13,9487.98,-1991.36,-0.4608,3.36203,1.58314,-2383.3,-9536.97,-1628.5,-3.29301,1.11095,-3.23594,9584.95,635.491,2492.37,6.14846,3.37986,0.915051
0.167,5118.48,-3132.15,7632.54,-0.563459,-0.472164,1.19097,4753.16,3764.62,7546.16,-0.818405,-1.10125,-1.37204,572.063,9536.12,-2083.27,-0.190246,2.08554,2.06696,806.571,-9534.52,-2478.01,-0.357995,3.83751,-0.835915,-1163.77,9503.66,-1979.78,-0.57719,3.16857,1.65203,-2383.21,-9552.41,-1622.82,-3.24446,1.07843,-3.14377,9575.96,646.44,2480.42,6.12531,3.44926,0.90109
0.168,5131.1,-3158.24,7628.27,-0.602509,-0.643766,1.29527,4763.81,3768.05,7550.21,-0.804366,-1.10705,-1.33067,578.417,9566.34,-2059.59,-0.216323,2.13632,2.13404,833.632,-9538.5,-2426.47,-0.331256,4.09657,-0.78145,-1145.4,9519.33,-1968.21,-0.693579,2.97511,1.72092,-2383.11,-9567.85,-1617.14,-3.19591,1.04592,-3.05161,9566.97,657.39,2468.48,6.10215,3.51865,0.887128
0.169,5140.79,-3182.81,7626.84,-0.646043,-0.78333,1.37395,4773.9,3770.02,7553.32,-0.790378,-1.11754,-1.29414,584.007,9590.52,-2041.94,-0.23538,2.16647,2.19103,858.754,-9539.75,-2382.22,-0.311855,4.31676,-0.734841,-1128.83,9531.51,-1958.89,-0.805877,2.78711,1.78337,-2384.22,-9581.4,-1610.31,-3.15751,1.01496,-2.97596,9557.64,666.527,2457.11,6.08319,3.58488,0.878371
0.17,5127.09,-3195.28,7648.12,-0.725447,-0.666597,1.24765,4779.55,3760.43,7548.87,-0.776785,-1.16549,-1.29627,583.477,9566.36,-2072.48,-0.198285,2.03159,2.16732,868.359,-9519.15,-2396.36,-0.351158,4.22595,-0.751087,-1126.59,9515.68,-1967.63,-0.88544,2.64282,1.79427,-2394.88,-9579.71,-1594.2,-3.20028,0.99649,-3.03246,9545.6,661.167,2450.32,6.09779,3.62578,0.91124
0.171,5113.39,-3207.74,7669.41,-0.80485,-0.549865,1.12136,4785.19,3750.83,7544.42,-0.763193,-1.21344,-1.2984,582.947,9542.2,-2103.02,-0.161189,1.89671,2.14362,877.964,-9498.56,-2410.5,-0.390461,4.13514,-0.767334,-1124.35,9499.85,-1976.37,-0.965003,2.49852,1.80517,-2405.55,-9578.03,-1578.1,-3.24305,0.978022,-3.08897,9533.56,655.808,2443.53,6.1124,3.66669,0.944109
0.172,5099.69,-3220.2,7690.69,-0.884254,-0.433132,0.995062,4790.83,3741.24,7539.96,-0.7496,-1.2614,-1.30053,582.418,9518.04,-2133.57,-0.124094,1.76183,2.11991,887.569,-9477.96,-2424.64,-0.429765,4.04433,-0.78358,-1122.11,9484.02,-1985.11,-1.04457,2.35423,1.81607,-2416.21,-9576.34,-1562.0,-3.28582,0.959555,-3.14547,9521.53,650.448,2436.73,6.12701,3.7076,0.976979
0.173,5085.98,-3232.66,7711.97,-0.963658,-0.3164,0.868767,4796.48,3731.64,7535.51,-0.736008,-1.30935,-1.30267,581.888,9493.88,-2164.11,-0.086998,1.62694,2.0962,897.175,-9457.36,-2438.78,-0.469068,3.95352,-0.799827,-1119.86,9468.19,-1993.85,-1.12413,2.20993,1.82697,-2426.87,-9574.66,-1545.9,-3.32859,0.941087,-3.20197,9509.49,645.088,2429.94,6.14162,3.7485,1.00985
0.174,5091.24,-3226.79,7704.74,-1.00528,-0.231055,0.780236,4795.03,3728.86,7556.01,-0.822101,-1.2801,-1.29398,590.702,9486.0,-2174.4,-0.123443,1.56933,2.14117,900.544,-9463.92,-2450.46,-0.456088,4.00293,-0.854045,-1112.38,9456.53,-1994.93,-1.08891,2.06943,1.82653,-2419.69,-9575.92,-1555.3,-3.4165,0.938302,-3.26289,9518.08,648.383,2435.28,6.14051,3.75289,1.03442
0.175,5105.97,-3211.76,7683.25,-1.028,-0.161405,0.710585,4790.04,3729.49,7588.99,-0.958038,-1.21225,-1.2799,604.187,9486.27,-2174.56,-0.196659,1.55034,2.22048,900.796,-9484.06,-2460.92,-0.416967,4.12246,-0.92725,-1102.27,9446.96,-1992.19,-0.996312,1.93082,1.82042,-2403.57,-9578.65,-1577.46,-3.52699,0.943358,-3.326,9536.98,656.005,2446.69,6.13156,3.73901,1.05485
0.176,5120.7,-3196.72,7661.75,-1.05072,-0.0917552,0.640935,4785.05,3730.11,7621.96,-1.09397,-1.1444,-1.26581,617.672,9486.54,-2174.72,-0.269874,1.53136,2.2998,901.047,-9504.2,-2471.37,-0.377847,4.24198,-1.00045,-1092.15,9437.4,-1989.44,-0.903709,1.79222,1.81431,-2387.46,-9581.38,-1599.62,-3.63747,0.948414,-3.38912,9555.89,663.626,2458.1,6.1226,3.72513,1.07527
0.177,5135.43,-3181.69,7640.26,-1.07345,-0.022105,0.571285,4780.05,3730.74,7654.94,-1.22991,-1.07655,-1.25172,631.157,9486.8,-2174.88,-0.34309,1.51237,2.37911,901.299,-9524.34,-2481.82,-0.338726,4.3615,-1.07366,-1082.04,9427.83,-1986.7,-0.811107,1.65361,1.80821,-2371.35,-9584.11,-1621.78,-3.74795,0.95347,-3.45224,9574.79,671.248,2469.51,6.11365,3.71125,1.0957
0.178,5143.98,-3173.15,7623.23,-1.07244,0.0280737,0.512944,4776.67,3730.02,7676.74,-1.31743,-1.02422,-1.25782,641.705,9487.94,-2166.97,-0.37487,1.52895,2.43855,898.267,-9541.61,-2494.02,-0.30943,4.4549,-1.10458,-1070.99,9422.12,-1989.82,-0.757979,1.5422,1.80504,-2358.2,-9592.24,-1640.05,-3.84478,0.947644,-3.51606,9586.04,680.212,2475.79,6.0907,3.7041,1.08943
0.179,5130.91,-3187.31,7621.83,-0.988368,0.0101023,0.494187,4778.91,3724.56,7659.42,-1.23547,-1.02624,-1.33458,641.97,9492.13,-2130.83,-0.261627,1.66999,2.42841,883.741,-9548.82,-2512.33,-0.314521,4.45688,-0.987487,-1056.62,9429.87,-2013.45,-0.84301,1.526,1.81218,-2355.4,-9619.27,-1644.67,-3.89384,0.903732,-3.58238,9570.5,693.876,2464.1,6.01877,3.7205,0.989767
0.18,5117.84,-3201.47,7620.43,-0.904296,-0.00786908,0.47543,4781.15,3719.1,7642.1,-1.15352,-1.02826,-1.41135,642.235,9496.33,-2094.69,-0.148384,1.81102,2.41827,869.215,-9556.03,-2530.64,-0.319612,4.45886,-0.870398,-1042.26,9437.63,-2037.09,-0.928041,1.5098,1.81931,-2352.61,-9646.29,-1649.29,-3.94291,0.85982,-3.64869,9554.95,707.54,2452.42,5.94684,3.73689,0.890099
0.181,5104.77,-3215.63,7619.03,-0.820225,-0.0258405,0.456673,4783.4,3713.64,7624.77,-1.07157,-1.03028,-1.48811,642.5,9500.52,-2058.54,-0.0351407,1.95206,2.40814,854.689,-9563.25,-2548.95,-0.324703,4.46084,-0.753309,-1027.89,9445.39,-2060.73,-1.01307,1.4936,1.82645,-2349.81,-9673.31,-1653.91,-3.99197,0.815908,-3.71501,9539.41,721.205,2440.73,5.87491,3.75329,0.790431
0.182,5091.7,-3229.79,7617.62,-0.736153,-0.0438118,0.437916,4785.64,3708.18,7607.45,-0.989612,-1.0323,-1.56487,642.766,9504.71,-2022.4,0.0781024,2.0931,2.398,840.163,-9570.46,-2567.26,-0.329794,4.46282,-0.63622,-1013.53,9453.15,-2084.37,-1.0981,1.4774,1.83359,-2347.02,-9700.33,-1658.54,-4.04103,0.771996,-3.78132,9523.87,734.869,2429.05,5.80297,3.76969,0.690764
0.183,5095.65,-3212.56,7623.54,-0.728642,-0.0693833,0.528917,4769.31,3708.58,7598.0,-0.915457,-1.04508,-1.60708,645.785,9495.5,-2024.87,0.0531603,2.09359,2.28808,836.602,-9582.33,-2560.98,-0.258517,4.48406,-0.60824,-1018.52,9459.37,-2072.74,-1.21446,1.49449,1.90402,-2351.29,-9704.27,-1659.55,-4.0126,0.731074,-3.76947,9519.86,731.569,2426.56,5.81268,3.81518,0.618564
0.184,5104.48,-3186.36,7631.55,-0.743005,-0.0971262,0.651279,4747.67,3710.65,7590.81,-0.84353,-1.06093,-1.63941,649.591,9482.46,-2038.38,-0.0112635,2.05392,2.14965,836.174,-9595.54,-2547.68,-0.165421,4.5108,-0.60572,-1029.04,9465.14,-2051.04,-1.33976,1.5211,1.99255,-2357.58,-9701.61,-1659.54,-3.96202,0.691006,-3.73528,9519.16,723.421,2426.7,5.84571,3.86899,0.554213
0.185,5113.3,-3160.15,7639.56,-0.757369,-0.124869,0.773641,4726.02,3712.73,7583.61,-0.771604,-1.07678,-1.67174,653.397,9469.41,-2051.88,-0.0756872,2.01425,2.01123,835.746,-9608.74,-2534.37,-0.0723242,4.53754,-0.603199,-1039.56,9470.92,-2029.34,-1.46506,1.54771,2.08107,-2363.87,-9698.96,-1659.53,-3.91145,0.650939,-3.70108,9518.45,715.274,2426.84,5.87874,3.9228,0.489862
0.186,5122.13,-3133.95,7647.57,-0.771732,-0.152612,0.896002,4704.38,3714.8,7576.41,-0.699677,-1.09264,-1.70408,657.203,9456.37,-2065.39,-0.140111,1.97459,1.8728,835.317,-9621.95,-2521.07,0.0207722,4.56427,-0.600679,-1050.08,9476.7,-2007.64,-1.59037,1.57431,2.1696,-2370.15,-9696.3,-1659.51,-3.86087,0.610871,-3.66689,9517.75,707.127,2426.98,5.91176,3.9766,0.425511
0.187,5125.12,-3118.41,7657.45,-0.744622,-0.159476,0.973707,4693.02,3715.7,7570.99,-0.673792,-1.08792,-1.7152,658.404,9451.44,-2084.0,-0.185025,1.9439,1.84677,841.951,-9627.86,-2514.36,0.0557817,4.58422,-0.593237,-1055.76,9480.01,-1997.51,-1.68238,1.56192,2.21939,-2379.71,-9693.93,-1663.66,-3.82592,0.584854,-3.66277,9520.34,699.33,2428.08,5.91384,4.02707,0.417493
0.188,5116.45,-3124.2,7671.07,-0.634565,-0.124584,0.962099,4702.23,3714.24,7569.13,-0.739989,-1.04205,-1.6839,654.392,9462.72,-2112.83,-0.19092,1.93119,2.04554,862.709,-9619.19,-2520.85,-0.0253825,4.59056,-0.57595,-1051.75,9478.39,-2010.5,-1.70782,1.47152,2.1917,-2395.78,-9692.11,-1676.14,-3.82222,0.586939,-3.7188,9529.54,692.231,2431.1,5.85402,4.07086,0.52214
0.189,5107.78,-3129.99,7684.69,-0.524509,-0.0896912,0.950492,4711.43,3712.79,7567.27,-0.806186,-0.996183,-1.6526,650.38,9474.01,-2141.66,-0.196815,1.91847,2.2443,883.466,-9610.53,-2527.34,-0.106547,4.59691,-0.558663,-1047.73,9476.76,-2023.49,-1.73325,1.38112,2.16402,-2411.86,-9690.3,-1688.62,-3.81852,0.589023,-3.77483,9538.75,685.133,2434.13,5.7942,4.11465,0.626787
0.19,5099.11,-3135.78,7698.32,-0.414452,-0.0547986,0.938884,4720.64,3711.34,7565.4,-0.872383,-0.950317,-1.6213,646.369,9485.3,-2170.49,-0.202711,1.90575,2.44307,904.224,-9601.86,-2533.83,-0.187711,4.60326,-0.541376,-1043.72,9475.14,-2036.48,-1.75869,1.29072,2.13634,-2427.94,-9688.48,-1701.1,-3.81482,0.591108,-3.83086,9547.95,678.035,2437.15,5.73438,4.15844,0.731434
0.191,5090.44,-3141.56,7711.94,-0.304396,-0.019906,0.927276,4729.84,3709.88,7563.54,-0.93858,-0.904451,-1.59,642.357,9496.59,-2199.32,-0.208606,1.89303,2.64183,924.981,-9593.19,-2540.32,-0.268875,4.60961,-0.524089,-1039.71,9473.52,-2049.48,-1.78413,1.20032,2.10865,-2444.02,-9686.67,-1713.58,-3.81112,0.593193,-3.88689,9557.15,670.937,2440.17,5.67456,4.20223,0.836081
0.192,5089.52,-3128.82,7704.82,-0.417695,-0.0240853,0.890063,4744.59,3724.62,7553.67,-0.943339,-0.984441,-1.57079,632.751,9473.3,-2191.17,-0.250681,1.89521,2.61571,897.367,-9585.14,-2542.38,-0.23772,4.57174,-0.579588,-1031.34,9489.56,-2037.22,-1.68585,1.19058,2.07162,-2433.87,-9677.64,-1717.95,-3.86238,0.569805,-3.96491,9554.62,683.984,2442.16,5.61317,4.26878,0.85389
0.193,5089.57,-3113.76,7695.11,-0.558914,-0.0331487,0.849648,4760.04,3741.39,7542.8,-0.940419,-1.08016,-1.55308,622.445,9445.69,-2178.4,-0.29728,1.89925,2.56147,863.706,-9577.17,-2543.89,-0.192525,4.52835,-0.644185,-1022.43,9507.8,-2021.8,-1.5721,1.19092,2.03342,-2420.45,-9667.71,-1721.31,-3.9205,0.543233,-4.04569,9550.63,699.55,2444.03,5.55157,4.33817,0.860843
0.194,5089.62,-3098.7,7685.4,-0.700133,-0.042212,0.809234,4775.49,3758.15,7531.93,-0.937498,-1.17588,-1.53538,612.14,9418.08,-2165.63,-0.343878,1.90329,2.50723,830.045,-9569.19,-2545.4,-0.147329,4.48495,-0.708782,-1013.52,9526.04,-2006.38,-1.45836,1.19126,1.99522,-2407.03,-9657.78,-1724.66,-3.97863,0.516661,-4.12646,9546.63,715.116,2445.89,5.48998,4.40756,0.867797
0.195,5089.67,-3083.65,7675.69,-0.841352,-0.0512754,0.76882,4790.93,3774.91,7521.06,-0.934578,-1.27161,-1.51768,601.835,9390.47,-2152.86,-0.390476,1.90733,2.45298,796.385,-9561.22,-2546.91,-0.102134,4.44156,-0.773379,-1004.61,9544.28,-1990.96,-1.34461,1.1916,1.95702,-2393.6,-9647.85,-1728.01,-4.03676,0.490088,-4.20724,9542.64,730.682,2447.75,5.42839,4.47695,0.87475
0.196,5089.29,-3089.88,7670.79,-0.902681,-0.0283094,0.796205,4798.88,3783.7,7512.62,-0.947459,-1.32168,-1.48683,597.741,9380.23,-2143.15,-0.355028,1.92406,2.40096,787.49,-9554.2,-2560.28,-0.0857883,4.4398,-0.808824,-1001.73,9542.92,-1983.79,-1.2782,1.23031,1.92594,-2377.39,-9644.16,-1732.97,-4.09535,0.470508,-4.26014,9538.4,739.617,2445.94,5.39533,4.53632,0.837394
0.197,5088.37,-3122.74,7671.88,-0.864146,0.0346932,0.908338,4797.46,3782.53,7507.21,-0.980092,-1.31468,-1.43955,601.412,9391.71,-2137.25,-0.217021,1.95667,2.3517,809.553,-9548.38,-2588.49,-0.105504,4.49008,-0.807831,-1006.41,9517.06,-1986.91,-1.27097,1.317,1.90376,-2357.68,-9648.25,-1739.95,-4.15452,0.459666,-4.27821,9533.87,740.263,2439.55,5.39792,4.58314,0.744651
0.198,5087.45,-3155.59,7672.98,-0.825612,0.0976958,1.02047,4796.03,3781.35,7501.8,-1.01272,-1.30768,-1.39226,605.084,9403.19,-2131.36,-0.0790143,1.98928,2.30245,831.617,-9542.55,-2616.69,-0.12522,4.54036,-0.806838,-1011.09,9491.19,-1990.03,-1.26373,1.40368,1.88157,-2337.97,-9652.34,-1746.92,-4.2137,0.448824,-4.29628,9529.33,740.91,2433.16,5.40052,4.62997,0.651909
0.199,5086.53,-3188.44,7674.08,-0.787078,0.160698,1.1326,4794.6,3780.18,7496.39,-1.04536,-1.30069,-1.34498,608.755,9414.66,-2125.46,0.0589924,2.02189,2.25319,853.68,-9536.73,-2644.9,-0.144936,4.59065,-0.805845,-1015.77,9465.33,-1993.16,-1.25649,1.49036,1.85939,-2318.26,-9656.44,-1753.9,-4.27287,0.437982,-4.31435,9524.8,741.556,2426.77,5.40311,4.67679,0.559166
0.2,5085.6,-3221.3,7675.17,-0.748543,0.223701,1.24474,4793.18,3779.0,7490.98,-1.07799,-1.29369,-1.2977,612.426,9426.14,-2119.56,0.196999,2.0545,2.20393,875.743,-9530.9,-2673.11,-0.164652,4.64093,-0.804852,-1020.45,9439.46,-1996.28,-1.24926,1.57705,1.83721,-2298.55,-9660.53,-1760.87,-4.33205,0.42714,-4.33242,9520.27,742.203,2420.37,5.4057,4.72362,0.466423
0.201,5086.55,-3224.76,7680.4,-0.6801,0.241241,1.18822,4772.45,3754.98,7498.09,-1.02766,-1.38044,-1.32669,600.202,9447.0,-2142.04,0.108125,2.0481,2.11797,864.221,-9543.15,-2661.73,-0.122605,4.72956,-0.655584,-1025.92,9442.55,-2005.3,-1.20664,1.64036,1.9181,-2280.29,-9659.96,-1757.58,-4.29368,0.48976,-4.3846,9515.02,737.204,2432.81,5.36287,4.73749,0.481402
0.202,5087.49,-3228.22,7685.63,-0.611657,0.258782,1.13169,4751.72,3730.96,7505.2,-0.977321,-1.46718,-1.35568,587.978,9467.86,-2164.52,0.0192506,2.0417,2.032,852.698,-9555.4,-2650.36,-0.080559,4.8182,-0.506316,-1031.39,9445.64,-2014.32,-1.16402,1.70367,1.99899,-2262.03,-9659.4,-1754.28,-4.25531,0.552381,-4.43679,9509.78,732.206,2445.26,5.32004,4.75137,0.49638
0.203,5088.44,-3231.69,7690.85,-0.543213,0.276322,1.07517,4730.99,3706.94,7512.31,-0.926986,-1.55392,-1.38467,575.755,9488.73,-2187.0,-0.0696236,2.0353,1.94603,841.176,-9567.65,-2638.99,-0.0385125,4.90683,-0.357048,-1036.86,9448.73,-2023.34,-1.1214,1.76699,2.07988,-2243.77,-9658.83,-1750.99,-4.21694,0.615001,-4.48897,9504.54,727.208,2457.7,5.27721,4.76525,0.511358
0.204,5089.38,-3235.15,7696.08,-0.47477,0.293862,1.01865,4710.26,3682.92,7519.42,-0.876651,-1.64066,-1.41366,563.531,9509.59,-2209.48,-0.158498,2.0289,1.86007,829.654,-9579.9,-2627.62,0.00353405,4.99546,-0.207781,-1042.32,9451.82,-2032.36,-1.07878,1.8303,2.16077,-2225.52,-9658.27,-1747.69,-4.17857,0.677622,-4.54115,9499.3,722.209,2470.14,5.23438,4.77913,0.526337
0.205,5098.4,-3225.88,7711.13,-0.529517,0.272982,0.998656,4705.04,3664.75,7523.94,-0.841258,-1.6143,-1.44983,549.767,9513.49,-2219.47,-0.198041,2.1486,1.8718,826.983,-9579.01,-2602.71,0.0510743,5.05384,-0.132091,-1039.25,9454.9,-2036.98,-1.02438,1.86229,2.20099,-2235.75,-9660.67,-1740.14,-4.17003,0.598681,-4.57349,9499.57,719.546,2473.96,5.17569,4.78641,0.509866
0.206,5113.88,-3206.41,7734.05,-0.682815,0.221367,1.00788,4712.23,3651.26,7526.4,-0.817817,-1.49745,-1.49174,534.771,9503.82,-2219.46,-0.198121,2.36918,1.96168,831.395,-9567.59,-2566.98,0.10301,5.088,-0.115263,-1029.35,9457.98,-2038.06,-0.960552,1.86923,2.20869,-2268.78,-9665.46,-1729.19,-4.18536,0.40649,-4.58996,9504.25,718.75,2470.89,5.1043,4.78841,0.468235
0.207,5129.36,-3186.94,7756.96,-0.836113,0.169751,1.01711,4719.42,3637.77,7528.85,-0.794377,-1.3806,-1.53365,519.776,9494.15,-2219.44,-0.1982,2.58976,2.05157,835.806,-9556.18,-2531.25,0.154945,5.12217,-0.0984353,-1019.45,9461.07,-2039.15,-0.896725,1.87617,2.21638,-2301.81,-9670.25,-1718.23,-4.20069,0.2143,-4.60642,9508.94,717.955,2467.81,5.03292,4.79041,0.426604
0.208,5144.83,-3167.47,7779.88,-0.989412,0.118135,1.02633,4726.61,3624.28,7531.3,-0.770936,-1.26374,-1.57556,504.78,9484.48,-2219.43,-0.198279,2.81033,2.14146,840.218,-9544.77,-2495.52,0.20688,5.15633,-0.0816077,-1009.55,9464.15,-2040.24,-0.832897,1.88311,2.22408,-2334.84,-9675.04,-1707.27,-4.21601,0.0221097,-4.62289,9513.63,717.159,2464.74,4.96153,4.79241,0.384973
0.209,5158.1,-3148.22,7797.02,-1.12946,0.0646178,1.02872,4733.15,3615.08,7533.57,-0.744447,-1.15761,-1.61466,494.651,9475.23,-2221.52,-0.184321,3.01151,2.22397,843.618,-9535.2,-2463.18,0.233874,5.18638,-0.0773568,-998.734,9467.33,-2040.6,-0.773302,1.89608,2.23532,-2360.17,-9678.83,-1699.77,-4.23427,-0.129389,-4.63752,9518.38,716.699,2460.68,4.88515,4.79468,0.349428
0.21,5153.65,-3130.65,7767.98,-1.16353,-0.00411056,0.976389,4734.45,3640.22,7534.36,-0.693568,-1.1372,-1.63127,523.463,9469.35,-2240.38,-0.0580628,3.05743,2.24753,838.932,-9540.37,-2457.95,0.0613399,5.1835,-0.17372,-980.59,9471.34,-2035.15,-0.747572,1.95733,2.27489,-2323.96,-9674.64,-1719.86,-4.27594,0.0446424,-4.63752,9523.73,718.917,2448.76,4.76879,4.79906,0.362565
0.211,5149.2,-3113.08,7738.94,-1.19759,-0.0728389,0.92406,4735.76,3665.36,7535.15,-0.642689,-1.11678,-1.64789,552.274,9463.47,-2259.25,0.0681956,3.10336,2.27109,834.245,-9545.53,-2452.71,-0.111195,5.18062,-0.270084,-962.447,9475.35,-2029.71,-0.721842,2.01858,2.31446,-2287.74,-9670.45,-1739.95,-4.31761,0.218674,-4.63752,9529.08,721.135,2436.83,4.65242,4.80343,0.375703
0.212,5144.75,-3095.52,7709.9,-1.23165,-0.141567,0.871731,4737.06,3690.5,7535.95,-0.591811,-1.09637,-1.6645,581.085,9457.6,-2278.12,0.194454,3.14928,2.29464,829.559,-9550.7,-2447.47,-0.283729,5.17774,-0.366448,-944.303,9479.36,-2024.27,-0.696113,2.07983,2.35404,-2251.53,-9666.26,-1760.04,-4.35928,0.392706,-4.63752,9534.42,723.353,2424.91,4.53606,4.80781,0.38884
0.213,5140.29,-3077.95,7680.86,-1.26572,-0.210296,0.819403,4738.37,3715.65,7536.74,-0.540932,-1.07596,-1.68112,609.897,9451.72,-2296.98,0.320712,3.19521,2.3182,824.873,-9555.87,-2442.24,-0.456264,5.17485,-0.462811,-926.16,9483.37,-2018.83,-0.670383,2.14109,2.39361,-2215.31,-9662.07,-1780.13,-4.40095,0.566738,-4.63752,9539.77,725.571,2412.98,4.4197,4.81219,0.401978
0.214,5132.38,-3082.19,7680.24,-1.23311,-0.190227,0.791733,4739.89,3715.98,7534.02,-0.534139,-1.15506,-1.74209,633.254,9455.43,-2284.15,0.243279,3.30661,2.27919,829.772,-9566.23,-2456.31,-0.519834,5.16456,-0.423542,-922.156,9473.9,-2007.86,-0.627606,2.15392,2.43393,-2175.12,-9658.45,-1784.17,-4.35527,0.668331,-4.59385,9544.63,716.947,2413.77,4.3345,4.84878,0.403692
0.215,5122.74,-3097.33,7693.83,-1.16718,-0.125761,0.776393,4741.53,3703.9,7529.55,-0.549389,-1.28392,-1.82525,653.884,9463.94,-2255.46,0.0639989,3.45074,2.20891,839.463,-9579.19,-2480.03,-0.528921,5.15056,-0.316456,-925.222,9457.69,-1994.13,-0.576306,2.14253,2.47461,-2132.93,-9655.1,-1780.18,-4.26592,0.733705,-4.52833,9549.24,702.901,2420.93,4.26488,4.90146,0.399693
0.216,5113.09,-3112.47,7707.42,-1.10124,-0.0612942,0.761053,4743.17,3691.83,7525.08,-0.56464,-1.41278,-1.9084,674.514,9472.45,-2226.77,-0.115281,3.59488,2.13862,849.155,-9592.15,-2503.76,-0.538009,5.13656,-0.209369,-928.288,9441.48,-1980.4,-0.525007,2.13115,2.5153,-2090.74,-9651.75,-1776.19,-4.17657,0.799079,-4.46282,9553.86,688.855,2428.08,4.19526,4.95415,0.395695
0.217,5103.45,-3127.6,7721.01,-1.03531,0.00317248,0.745713,4744.81,3679.76,7520.6,-0.57989,-1.54164,-1.99156,695.144,9480.95,-2198.09,-0.294561,3.73902,2.06833,858.846,-9605.11,-2527.49,-0.547097,5.12256,-0.102283,-931.354,9425.27,-1966.67,-0.473707,2.11977,2.55598,-2048.55,-9648.41,-1772.21,-4.08721,0.864453,-4.39731,9558.47,674.81,2435.23,4.12564,5.00683,0.391697
0.218,5092.36,-3141.12,7724.35,-0.956591,0.0536985,0.721682,4745.95,3672.1,7520.13,-0.606715,-1.6454,-2.05125,710.094,9486.48,-2178.38,-0.446744,3.87169,2.01784,865.082,-9612.79,-2546.14,-0.553128,5.11769,-0.0104213,-934.835,9413.82,-1957.71,-0.433891,2.12079,2.57682,-2021.41,-9653.24,-1766.2,-4.00963,0.93992,-4.34754,9560.67,662.611,2438.47,4.07298,5.06348,0.371007
0.219,5076.19,-3148.96,7691.83,-0.83313,0.0554326,0.667234,4745.32,3679.88,7533.64,-0.674052,-1.66132,-2.02886,705.163,9481.56,-2190.13,-0.504087,3.96427,2.03663,859.223,-9602.0,-2547.01,-0.548463,5.14475,0.0281558,-939.768,9419.04,-1965.44,-0.434269,2.16525,2.52817,-2046.94,-9686.71,-1753.12,-3.97326,1.05071,-4.35283,9554.41,656.879,2428.02,4.07968,5.13398,0.291893
0.22,5060.03,-3156.8,7659.31,-0.709668,0.0571666,0.612786,4744.7,3687.66,7547.14,-0.74139,-1.67724,-2.00646,700.232,9476.65,-2201.88,-0.56143,4.05685,2.05542,853.364,-9591.21,-2547.89,-0.543797,5.17182,0.0667329,-944.701,9424.27,-1973.18,-0.434648,2.2097,2.47953,-2072.48,-9720.17,-1740.04,-3.93688,1.1615,-4.35812,9548.16,651.146,2417.57,4.08637,5.20448,0.212779
0.221,5043.86,-3164.63,7626.79,-0.586207,0.0589006,0.558338,4744.07,3695.44,7560.65,-0.808727,-1.69315,-1.98406,695.302,9471.74,-2213.63,-0.618773,4.14943,2.07421,847.505,-9580.42,-2548.77,-0.539131,5.19889,0.10531,-949.635,9429.49,-1980.91,-0.435026,2.25415,2.43088,-2098.02,-9753.64,-1726.96,-3.9005,1.2723,-4.36341,9541.9,645.414,2407.12,4.09307,5.27498,0.133664
0.222,5027.7,-3172.47,7594.27,-0.462746,0.0606347,0.503891,4743.45,3703.23,7574.16,-0.876065,-1.70907,-1.96166,690.371,9466.82,-2225.38,-0.676116,4.24201,2.093,841.646,-9569.63,-2549.65,-0.534465,5.22595,0.143887,-954.568,9434.72,-1988.64,-0.435405,2.2986,2.38224,-2123.56,-9787.11,-1713.88,-3.86412,1.38309,-4.36871,9535.64,639.681,2396.66,4.09977,5.34548,0.0545502
0.223,5037.26,-3186.81,7599.17,-0.508294,-0.0133937,0.459264,4751.39,3711.08,7563.28,-0.951629,-1.65977,-1.93804,685.394,9462.4,-2219.66,-0.606215,4.30097,2.14255,850.428,-9563.4,-2548.78,-0.624485,5.34313,0.165621,-961.769,9421.82,-1997.87,-0.470676,2.38983,2.3195,-2159.39,-9771.35,-1710.41,-3.81027,1.41958,-4.374,9530.81,645.829,2396.78,4.03142,5.36878,0.0248983
0.224,5054.18,-3203.01,7614.76,-0.60213,-0.109068,0.417444,4761.79,3718.95,7545.44,-1.02954,-1.59185,-1.91406,680.403,9458.12,-2208.96,-0.499959,4.35032,2.20089,863.395,-9558.47,-2547.4,-0.741557,5.48605,0.182543,-969.618,9403.76,-2007.53,-0.515917,2.49442,2.25273,-2198.16,-9741.54,-1709.67,-3.75142,1.43484,-4.37931,9526.4,655.372,2399.91,3.94163,5.37859,0.00937847
0.225,5071.1,-3219.21,7630.35,-0.695967,-0.204743,0.375623,4772.19,3726.82,7527.6,-1.10746,-1.52392,-1.89009,675.413,9453.85,-2198.25,-0.393703,4.39967,2.25922,876.361,-9553.55,-2546.02,-0.85863,5.62897,0.199466,-977.467,9385.69,-2017.19,-0.561158,2.59902,2.18596,-2236.94,-9711.72,-1708.94,-3.69257,1.45011,-4.38461,9521.99,664.915,2403.04,3.85184,5.38841,-0.00614134
0.226,5088.02,-3235.41,7645.94,-0.789803,-0.300418,0.333803,4782.59,3734.69,7509.76,-1.18538,-1.456,-1.86612,670.422,9449.57,-2187.54,-0.287446,4.44903,2.31755,889.327,-9548.62,-2544.65,-0.975703,5.77189,0.216388,-985.315,9367.62,-2026.85,-0.606398,2.70361,2.11919,-2275.71,-9681.91,-1708.21,-3.63372,1.46537,-4.38991,9517.57,674.458,2406.17,3.76205,5.39822,-0.0216611
0.227,5097.93,-3247.64,7663.87,-0.87073,-0.391831,0.296897,4781.51,3737.43,7496.58,-1.18553,-1.40078,-1.83518,673.496,9448.04,-2178.11,-0.232294,4.47966,2.30606,904.597,-9543.05,-2546.36,-1.05578,5.89525,0.236212,-986.927,9364.92,-2034.94,-0.613486,2.81821,2.08205,-2294.6,-9662.81,-1708.15,-3.58654,1.49752,-4.37824,9510.5,681.173,2410.67,3.70764,5.41314,-0.0229319
0.228,5093.79,-3251.9,7686.46,-0.925837,-0.474721,0.269819,4757.46,3729.91,7492.73,-1.03017,-1.37098,-1.7903,692.697,9451.99,-2171.25,-0.279351,4.47286,2.15492,924.474,-9536.19,-2554.26,-1.06185,5.97951,0.261839,-976.063,9392.95,-2039.88,-0.544265,2.95281,2.10415,-2273.7,-9665.14,-1709.44,-3.56269,1.56343,-4.33264,9498.11,682.234,2417.91,3.72398,5.43826,0.00429555
0.229,5089.65,-3256.16,7709.06,-0.980944,-0.55761,0.242741,4733.4,3722.4,7488.88,-0.874804,-1.34118,-1.74543,711.898,9455.95,-2164.38,-0.326407,4.46605,2.00378,944.351,-9529.33,-2562.16,-1.06792,6.06377,0.287467,-965.199,9420.98,-2044.83,-0.475045,3.08741,2.12625,-2252.81,-9667.48,-1710.72,-3.53884,1.62934,-4.28704,9485.72,683.295,2425.14,3.74032,5.46338,0.031523
0.23,5085.52,-3260.42,7731.66,-1.03605,-0.6405,0.215663,4709.35,3714.88,7485.03,-0.71944,-1.31138,-1.70055,731.1,9459.91,-2157.51,-0.373464,4.45924,1.85264,964.228,-9522.47,-2570.05,-1.074,6.14803,0.313094,-954.335,9449.01,-2049.78,-0.405824,3.22202,2.14835,-2231.91,-9669.81,-1712.01,-3.51499,1.69525,-4.24144,9473.33,684.356,2432.38,3.75666,5.4885,0.0587504
0.231,5081.38,-3264.68,7754.25,-1.09116,-0.72339,0.188585,4685.3,3707.37,7481.18,-0.564077,-1.28158,-1.65568,750.301,9463.86,-2150.65,-0.42052,4.45243,1.7015,984.105,-9515.61,-2577.95,-1.08007,6.23229,0.338722,-943.471,9477.04,-2054.73,-0.336604,3.35662,2.17045,-2211.02,-9672.14,-1713.29,-3.49114,1.76117,-4.19583,9460.93,685.417,2439.61,3.773,5.51362,0.0859778
0.232,5095.34,-3246.61,7742.06,-1.06565,-0.74493,0.269905,4684.47,3705.96,7489.42,-0.587519,-1.36416,-1.64316,730.711,9451.35,-2157.12,-0.472309,4.65628,1.6676,982.726,-9524.43,-2577.19,-1.07583,6.28044,0.419704,-938.618,9473.61,-2052.91,-0.307693,3.42144,2.178,-2217.37,-9670.32,-1711.18,-3.44532,1.80146,-4.19276,9472.87,688.196,2434.05,3.8072,5.56637,0.0714268
0.233,5111.56,-3225.76,7725.52,-1.03007,-0.758802,0.364775,4686.54,3705.31,7499.16,-0.633313,-1.46078,-1.63468,706.272,9436.79,-2165.25,-0.52469,4.88646,1.64836,978.689,-9535.21,-2575.35,-1.0703,6.32407,0.507605,-934.515,9466.25,-2050.25,-0.283821,3.47754,2.18374,-2227.12,-9667.98,-1708.64,-3.39674,1.83856,-4.19501,9487.84,691.191,2426.89,3.84363,5.62257,0.0516534
0.234,5127.79,-3204.9,7708.98,-0.994485,-0.772674,0.459645,4688.62,3704.66,7508.91,-0.679107,-1.55741,-1.6262,681.833,9422.22,-2173.39,-0.577071,5.11664,1.62912,974.653,-9545.99,-2573.51,-1.06476,6.3677,0.595505,-930.413,9458.88,-2047.6,-0.259948,3.53363,2.18947,-2236.88,-9665.64,-1706.1,-3.34817,1.87566,-4.19725,9502.81,694.185,2419.73,3.88006,5.67878,0.03188
0.235,5144.01,-3184.04,7692.44,-0.958902,-0.786546,0.554515,4690.69,3704.01,7518.65,-0.7249,-1.65404,-1.61773,657.394,9407.65,-2181.53,-0.629451,5.34682,1.60988,970.617,-9556.77,-2571.68,-1.05923,6.41133,0.683406,-926.31,9451.52,-2044.94,-0.236076,3.58973,2.1952,-2246.64,-9663.29,-1703.56,-3.2996,1.91276,-4.1995,9517.79,697.179,2412.57,3.91649,5.73498,0.0121067
0.236,5157.17,-3158.85,7698.73,-1.0858,-0.798304,0.588399,4686.41,3717.01,7526.63,-0.701091,-1.68502,-1.69343,645.946,9407.08,-2200.29,-0.659081,5.79178,1.59329,968.6,-9554.64,-2575.78,-1.06638,6.52537,0.74625,-926.755,9446.6,-2034.8,-0.253578,3.60652,2.16987,-2252.93,-9659.57,-1714.19,-3.25834,1.99781,-4.16524,9527.5,702.206,2403.5,3.92447,5.78786,-0.011101
0.237,5166.51,-3128.26,7733.56,-1.4158,-0.807418,0.546051,4674.18,3747.07,7532.41,-0.590278,-1.63394,-1.87437,650.738,9424.02,-2232.32,-0.660272,6.50519,1.58003,969.107,-9536.35,-2587.32,-1.08938,6.72744,0.777773,-932.884,9444.73,-2015.33,-0.322799,3.57418,2.10572,-2254.91,-9654.12,-1741.27,-3.22622,2.1428,-4.08536,9530.63,709.774,2392.02,3.89691,5.83659,-0.0386015
0.238,5175.85,-3097.67,7768.39,-1.7458,-0.816532,0.503703,4661.95,3777.13,7538.18,-0.479465,-1.58286,-2.0553,655.53,9440.96,-2264.36,-0.661463,7.2186,1.56677,969.614,-9518.07,-2598.86,-1.11239,6.9295,0.809296,-939.013,9442.85,-1995.86,-0.392019,3.54184,2.04157,-2256.88,-9648.67,-1768.36,-3.1941,2.2878,-4.00547,9533.77,717.343,2380.54,3.86935,5.88532,-0.066102
0.239,5185.19,-3067.08,7803.21,-2.07581,-0.825646,0.461355,4649.73,3807.19,7543.96,-0.368652,-1.53179,-2.23624,660.322,9457.89,-2296.39,-0.662655,7.93202,1.55351,970.121,-9499.78,-2610.4,-1.1354,7.13156,0.840819,-945.142,9440.98,-1976.38,-0.461239,3.50951,1.97741,-2258.85,-9643.22,-1795.44,-3.16199,2.4328,-3.92559,9536.91,724.911,2369.07,3.84178,5.93404,-0.0936025
0.24,5194.52,-3036.49,7838.04,-2.40581,-0.83476,0.419007,4637.5,3837.25,7549.73,-0.257839,-1.48071,-2.41717,665.114,9474.83,-2328.43,-0.663846,8.64543,1.54025,970.629,-9481.5,-2621.94,-1.1584,7.33363,0.872342,-951.271,9439.11,-1956.91,-0.53046,3.47717,1.91326,-2260.83,-9637.77,-1822.53,-3.12987,2.57779,-3.84571,9540.05,732.479,2357.59,3.81422,5.98277,-0.121103
0.241,5187.14,-3043.05,7794.88,-2.62166,-0.672872,0.348121,4666.28,3848.97,7570.01,-0.0688865,-1.53354,-2.3813,673.407,9458.22,-2389.13,-0.668477,9.79162,1.40678,967.433,-9473.71,-2647.28,-1.26723,7.73994,0.951246,-944.203,9435.22,-1963.94,-0.585388,3.4404,1.94958,-2248.55,-9645.37,-1789.02,-3.12585,2.70883,-3.74848,9535.67,730.916,2337.46,3.77827,6.04468,-0.0648786
0.242,5179.76,-3049.61,7751.71,-2.83751,-0.510985,0.277235,4695.07,3860.69,7590.29,0.120066,-1.58638,-2.34543,681.7,9441.61,-2449.84,-0.673108,10.9378,1.27332,964.238,-9465.92,-2672.62,-1.37606,8.14625,1.03015,-937.135,9431.33,-1970.98,-0.640317,3.40363,1.9859,-2236.27,-9652.98,-1755.52,-3.12184,2.83986,-3.65125,9531.29,729.352,2317.33,3.74233,6.10659,-0.00865421
0.243,5172.38,-3056.17,7708.55,-3.05336,-0.349097,0.206349,4723.85,3872.41,7610.56,0.309018,-1.63921,-2.30955,689.992,9425.01,-2510.54,-0.677739,12.084,1.13985,961.043,-9458.14,-2697.97,-1.48489,8.55257,1.10905,-930.067,9427.44,-1978.01,-0.695245,3.36686,2.02222,-2223.99,-9660.58,-1722.02,-3.11782,2.9709,-3.55402,9526.91,727.789,2297.2,3.70638,6.1685,0.0475702
0.244,5165.0,-3062.73,7665.38,-3.26921,-0.187209,0.135463,4752.63,3884.13,7630.84,0.497971,-1.69205,-2.27368,698.285,9408.4,-2571.25,-0.68237,13.2302,1.00638,957.848,-9450.35,-2723.31,-1.59372,8.95888,1.18796,-922.999,9423.55,-1985.04,-0.750174,3.3301,2.05854,-2211.71,-9668.19,-1688.52,-3.11381,3.10193,-3.45679,9522.53,726.226,2277.06,3.67043,6.23041,0.103795
0.245,5160.72,-3085.26,7659.19,-3.40682,-0.0928625,0.0412189,4763.44,3881.58,7643.42,0.7722,-1.87778,-2.2494,728.463,9395.42,-2594.15,-0.61413,14.3146,0.849882,953.983,-9450.15,-2751.18,-1.7687,9.42541,1.21273,-913.851,9428.51,-1989.35,-0.80352,3.3309,2.07739,-2207.83,-9667.04,-1686.07,-3.11871,3.28314,-3.42646,9522.4,726.453,2268.95,3.62838,6.25683,0.150823
0.246,5158.92,-3120.57,7682.57,-3.48184,-0.0525486,-0.071711,4759.87,3867.6,7649.85,1.11465,-2.16983,-2.23438,776.15,9385.33,-2586.82,-0.487593,15.3497,0.674951,949.581,-9456.03,-2781.06,-1.99661,9.9401,1.19421,-903.04,9440.54,-1991.48,-0.855601,3.36175,2.08227,-2210.67,-9658.89,-1708.48,-3.13075,3.50449,-3.44966,9525.67,728.112,2270.44,3.58144,6.25487,0.190494
0.247,5157.11,-3155.88,7705.96,-3.55686,-0.0122346,-0.184641,4756.29,3853.63,7656.28,1.4571,-2.46188,-2.21936,823.836,9375.25,-2579.49,-0.361055,16.3847,0.50002,945.179,-9461.92,-2810.94,-2.22452,10.4548,1.17568,-892.228,9452.58,-1993.61,-0.907682,3.3926,2.08715,-2213.51,-9650.75,-1730.89,-3.1428,3.72585,-3.47285,9528.95,729.771,2271.93,3.53451,6.25291,0.230165
0.248,5155.31,-3191.19,7729.35,-3.63189,0.0280793,-0.297571,4752.72,3839.65,7662.71,1.79955,-2.75393,-2.20434,871.523,9365.17,-2572.16,-0.234518,17.4198,0.325089,940.777,-9467.8,-2840.82,-2.45243,10.9695,1.15716,-881.416,9464.61,-1995.74,-0.959763,3.42346,2.09203,-2216.35,-9642.6,-1753.3,-3.15484,3.9472,-3.49605,9532.22,731.43,2273.42,3.48757,6.25095,0.269837
0.249,5152.1,-3224.69,7751.47,-3.75027,0.0650143,-0.414467,4746.66,3826.18,7669.4,2.14226,-3.0495,-2.19265,916.359,9357.87,-2566.05,-0.126341,18.4642,0.165002,938.129,-9472.41,-2868.13,-2.67362,11.5036,1.13436,-871.819,9474.87,-1995.64,-1.01017,3.46627,2.09402,-2218.53,-9632.66,-1770.68,-3.16573,4.17291,-3.5091,9535.32,731.984,2276.34,3.43607,6.24294,0.31416
0.25,5137.71,-3243.69,7763.44,-4.21557,0.0749179,-0.563091,4720.69,3816.77,7678.18,2.48702,-3.37321,-2.2075,938.389,9372.89,-2569.77,-0.16505,19.5837,0.123671,949.518,-9466.84,-2874.9,-2.84111,12.1935,1.07745,-871.944,9470.97,-1977.61,-1.04716,3.60471,2.07291,-2215.36,-9608.35,-1747.83,-3.16742,4.43345,-3.44094,9537.0,723.691,2290.63,3.34807,6.18648,0.395698
0.251,5123.31,-3262.68,7775.41,-4.68087,0.0848216,-0.711715,4694.73,3807.35,7686.95,2.83178,-3.69693,-2.22235,960.419,9387.91,-2573.49,-0.203759,20.7032,0.0823395,960.906,-9461.28,-2881.66,-3.00859,12.8834,1.02053,-872.068,9467.07,-1959.59,-1.08415,3.74315,2.0518,-2212.19,-9584.05,-1724.99,-3.1691,4.69399,-3.37278,9538.68,715.399,2304.92,3.26007,6.13003,0.477236
0.252,5108.91,-3281.68,7787.39,-5.14617,0.0947252,-0.860339,4668.76,3797.93,7695.73,3.17653,-4.02064,-2.2372,982.449,9402.93,-2577.2,-0.242468,21.8227,0.0410083,972.295,-9455.71,-2888.43,-3.17607,13.5733,0.963619,-872.193,9463.17,-1941.57,-1.12114,3.88159,2.03069,-2209.02,-9559.74,-1702.15,-3.17079,4.95452,-3.30462,9540.37,707.107,2319.21,3.17207,6.07357,0.558774
0.253,5094.51,-3300.68,7799.36,-5.61147,0.104629,-1.00896,4642.79,3788.52,7704.5,3.52129,-4.34436,-2.25206,1004.48,9417.95,-2580.92,-0.281177,22.9422,-0.000322987,983.684,-9450.15,-2895.2,-3.34356,14.2631,0.906704,-872.317,9459.27,-1923.54,-1.15813,4.02003,2.00959,-2205.85,-9535.43,-1679.31,-3.17248,5.21506,-3.23646,9542.05,698.814,2333.51,3.08406,6.01712,0.640312
0.254,5100.74,-3278.73,7809.18,-6.00827,0.0684412,-1.11337,4625.61,3782.69,7714.45,3.7611,-4.70539,-2.27488,1015.86,9429.63,-2601.4,-0.35667,24.1739,-0.0256256,1020.61,-9454.29,-2876.23,-3.461,14.8686,0.921342,-872.479,9466.86,-1916.47,-1.1822,4.13804,1.99825,-2223.23,-9527.36,-1681.74,-3.21425,5.36245,-3.19939,9549.15,694.718,2330.23,2.99328,6.07804,0.668455
0.255,5117.27,-3236.3,7817.92,-6.37082,0.00920794,-1.19567,4612.82,3778.67,7724.99,3.94844,-5.08508,-2.30169,1021.91,9439.65,-2630.27,-0.450555,25.4617,-0.0429138,1070.32,-9463.28,-2844.38,-3.55341,15.4319,0.971757,-872.658,9480.19,-1914.88,-1.19981,4.24583,1.9918,-2250.89,-9527.39,-1696.83,-3.27607,5.45327,-3.17787,9558.95,692.719,2318.18,2.90112,6.19766,0.669902
0.256,5133.81,-3193.87,7826.67,-6.73337,-0.0500253,-1.27796,4600.03,3774.65,7735.52,4.13577,-5.46477,-2.32851,1027.97,9449.67,-2659.14,-0.544439,26.7496,-0.060202,1120.02,-9472.27,-2812.54,-3.64582,15.9952,1.02217,-872.838,9493.52,-1913.29,-1.21742,4.35363,1.98535,-2278.55,-9527.43,-1711.91,-3.33789,5.54409,-3.15635,9568.75,690.72,2306.13,2.80895,6.31727,0.671348
0.257,5150.34,-3151.45,7835.41,-7.09591,-0.109259,-1.36026,4587.24,3770.62,7746.06,4.32311,-5.84446,-2.35532,1034.02,9459.68,-2688.01,-0.638324,28.0374,-0.0774903,1169.72,-9481.26,-2780.7,-3.73824,16.5585,1.07259,-873.017,9506.85,-1911.7,-1.23503,4.46142,1.9789,-2306.21,-9527.47,-1726.99,-3.39971,5.6349,-3.13483,9578.55,688.721,2294.08,2.71678,6.43689,0.672795
0.258,5163.7,-3115.97,7834.9,-7.45989,-0.178072,-1.4368,4576.53,3768.55,7754.78,4.44356,-6.24135,-2.37662,1039.17,9463.99,-2705.24,-0.693336,29.2908,-0.133651,1208.58,-9490.84,-2746.15,-3.78975,17.0346,1.11853,-868.864,9519.13,-1913.94,-1.25664,4.55989,1.99577,-2319.45,-9525.38,-1739.17,-3.41591,5.76272,-3.10944,9585.8,686.361,2284.35,2.62043,6.54193,0.666719
0.259,5165.94,-3104.85,7802.02,-7.82889,-0.280418,-1.49322,4573.11,3773.32,7757.13,4.3299,-6.69845,-2.37862,1041.16,9448.29,-2681.76,-0.612293,30.4236,-0.325868,1209.5,-9502.44,-2702.11,-3.69811,17.2057,1.14882,-849.545,9527.73,-1929.6,-1.29221,4.62571,2.09426,-2282.27,-9515.88,-1741.21,-3.27245,6.02004,-3.0705,9584.11,682.735,2282.77,2.50944,6.59595,0.634316
0.26,5168.18,-3093.72,7769.15,-8.19789,-0.382764,-1.54963,4569.7,3778.08,7759.48,4.21624,-7.15556,-2.38062,1043.15,9432.59,-2658.27,-0.53125,31.5564,-0.518084,1210.42,-9514.05,-2658.06,-3.60647,17.3767,1.17911,-830.226,9536.32,-1945.25,-1.32778,4.69153,2.19274,-2245.08,-9506.37,-1743.24,-3.12898,6.27736,-3.03156,9582.42,679.108,2281.19,2.39844,6.64997,0.601913
0.261,5170.42,-3082.59,7736.27,-8.56689,-0.48511,-1.60605,4566.28,3782.85,7761.83,4.10258,-7.61266,-2.38263,1045.13,9416.89,-2634.78,-0.450207,32.6891,-0.7103,1211.34,-9525.65,-2614.02,-3.51483,17.5478,1.2094,-810.907,9544.92,-1960.91,-1.36335,4.75735,2.29123,-2207.89,-9496.86,-1745.28,-2.98551,6.53468,-2.99262,9580.72,675.482,2279.61,2.28744,6.70399,0.56951
0.262,5172.65,-3071.46,7703.4,-8.93589,-0.587456,-1.66246,4562.86,3787.61,7764.19,3.98892,-8.06976,-2.38463,1047.12,9401.19,-2611.3,-0.369164,33.8219,-0.902516,1212.25,-9537.26,-2569.97,-3.4232,17.7188,1.23969,-791.588,9553.51,-1976.57,-1.39892,4.82317,2.38972,-2170.7,-9487.35,-1747.31,-2.84204,6.792,-2.95368,9579.03,671.856,2278.03,2.17644,6.75802,0.537107
0.263,5157.01,-3069.49,7697.22,-9.10583,-0.61495,-1.59757,4560.98,3773.91,7766.75,3.76119,-8.49268,-2.49949,1057.08,9394.2,-2556.91,-0.295957,34.5123,-1.04937,1187.2,-9533.8,-2550.73,-3.22249,17.7949,1.30495,-766.829,9544.64,-1981.3,-1.33741,4.91901,2.41316,-2148.58,-9517.02,-1750.09,-2.89758,6.98632,-2.90275,9558.68,677.89,2282.75,2.08335,6.83784,0.580614
0.264,5136.26,-3070.12,7698.66,-9.2189,-0.621057,-1.49802,4559.54,3754.92,7769.37,3.50088,-8.90583,-2.64659,1069.3,9389.69,-2493.7,-0.224988,35.0764,-1.18327,1154.72,-9526.04,-2538.58,-2.99062,17.8439,1.3802,-740.516,9530.78,-1982.92,-1.24817,5.02342,2.41517,-2130.77,-9557.89,-1753.08,-3.00997,7.16264,-2.84839,9533.0,686.684,2289.26,1.99538,6.92503,0.64581
0.265,5115.51,-3070.76,7700.11,-9.33198,-0.627164,-1.39848,4558.1,3735.94,7772.0,3.24056,-9.31898,-2.7937,1081.53,9385.19,-2430.48,-0.154019,35.6405,-1.31717,1122.24,-9518.29,-2526.43,-2.75874,17.8929,1.45544,-714.202,9516.92,-1984.53,-1.15892,5.12783,2.41718,-2112.95,-9598.75,-1756.06,-3.12236,7.33896,-2.79404,9507.31,695.478,2295.77,1.9074,7.01222,0.711006
0.266,5094.76,-3071.4,7701.55,-9.44505,-0.63327,-1.29893,4556.67,3716.96,7774.62,2.98024,-9.73213,-2.9408,1093.76,9380.68,-2367.27,-0.0830497,36.2046,-1.45106,1089.77,-9510.53,-2514.27,-2.52687,17.9419,1.53069,-687.889,9503.05,-1986.14,-1.06968,5.23225,2.41919,-2095.14,-9639.61,-1759.05,-3.23476,7.51528,-2.73968,9481.63,704.272,2302.29,1.81943,7.09941,0.776201
0.267,5080.54,-3078.06,7698.21,-9.47184,-0.655915,-1.19459,4563.9,3702.42,7769.9,2.74056,-10.0949,-3.04873,1101.48,9381.55,-2297.25,-0.0687309,36.4427,-1.54185,1063.35,-9497.19,-2512.81,-2.38652,18.0119,1.62793,-676.396,9492.5,-1980.17,-1.01955,5.3589,2.41464,-2091.28,-9663.63,-1763.14,-3.27891,7.66269,-2.72774,9464.31,713.348,2310.2,1.72218,7.17678,0.799405
0.268,5079.38,-3096.78,7685.29,-9.32607,-0.711636,-1.08065,4588.49,3696.78,7750.51,2.54216,-10.357,-3.07829,1100.18,9393.17,-2213.62,-0.167713,36.0289,-1.54641,1049.06,-9472.71,-2532.72,-2.42921,18.1239,1.76913,-694.544,9488.54,-1959.03,-1.04767,5.53005,2.39699,-2115.34,-9653.97,-1769.43,-3.18659,7.7523,-2.80064,9463.71,722.989,2320.92,1.6064,7.23451,0.738623
0.269,5078.22,-3115.5,7672.36,-9.18029,-0.767357,-0.966712,4613.08,3691.14,7731.12,2.34376,-10.619,-3.10786,1098.88,9404.79,-2130.0,-0.266694,35.615,-1.55097,1034.76,-9448.23,-2552.63,-2.47191,18.2359,1.91034,-712.692,9484.59,-1937.88,-1.07579,5.7012,2.37935,-2139.39,-9644.31,-1775.73,-3.09427,7.84191,-2.87354,9463.1,732.63,2331.63,1.49062,7.29223,0.677842
0.27,5077.06,-3134.22,7659.44,-9.03452,-0.823078,-0.852775,4637.67,3685.5,7711.73,2.14536,-10.881,-3.13742,1097.58,9416.41,-2046.37,-0.365676,35.2012,-1.55553,1020.47,-9423.75,-2572.54,-2.5146,18.3479,2.05155,-730.84,9480.64,-1916.74,-1.10391,5.87235,2.3617,-2163.45,-9634.65,-1782.02,-3.00194,7.93151,-2.94644,9462.5,742.271,2342.35,1.37484,7.34996,0.61706
0.271,5075.9,-3152.94,7646.52,-8.88875,-0.878799,-0.738838,4662.26,3679.86,7692.33,1.94695,-11.1431,-3.16699,1096.28,9428.03,-1962.74,-0.464658,34.7874,-1.56008,1006.17,-9399.27,-2592.45,-2.5573,18.4599,2.19275,-748.988,9476.69,-1895.6,-1.13203,6.0435,2.34405,-2187.5,-9624.98,-1788.31,-2.90962,8.02112,-3.01934,9461.9,751.912,2353.06,1.25906,7.40769,0.556279
0.272,5059.68,-3169.62,7661.52,-8.78651,-0.847441,-0.708491,4658.73,3683.78,7665.68,1.77452,-11.229,-3.14952,1082.04,9458.07,-1912.69,-0.663904,33.7831,-1.7033,996.958,-9392.59,-2585.55,-2.66576,18.5304,2.29082,-730.686,9487.12,-1890.89,-1.13274,6.19015,2.41593,-2171.75,-9648.51,-1768.52,-2.84683,8.1514,-2.95122,9480.51,743.258,2357.13,1.25971,7.42702,0.524658
0.273,5041.57,-3186.05,7680.01,-8.68972,-0.805197,-0.688593,4651.68,3688.89,7638.12,1.60533,-11.2929,-3.12617,1066.17,9490.42,-1866.83,-0.875684,32.705,-1.86385,988.381,-9388.14,-2575.3,-2.78244,18.5958,2.38349,-707.827,9499.35,-1888.24,-1.13003,6.33373,2.49899,-2151.03,-9676.19,-1745.46,-2.78774,8.28677,-2.86548,9501.53,732.316,2360.36,1.2749,7.44156,0.496682
0.274,5023.46,-3202.48,7698.5,-8.59293,-0.762954,-0.668695,4644.63,3693.99,7610.55,1.43614,-11.3568,-3.10282,1050.31,9522.76,-1820.98,-1.08746,31.6269,-2.0244,979.804,-9383.69,-2565.05,-2.89912,18.6611,2.47616,-684.969,9511.58,-1885.58,-1.12732,6.47731,2.58206,-2130.31,-9703.86,-1722.4,-2.72864,8.42213,-2.77973,9522.55,721.375,2363.59,1.2901,7.4561,0.468706
0.275,5005.36,-3218.9,7716.99,-8.49614,-0.720711,-0.648797,4637.58,3699.1,7582.99,1.26695,-11.4208,-3.07947,1034.44,9555.11,-1775.12,-1.29924,30.5488,-2.18494,971.228,-9379.24,-2554.79,-3.0158,18.7265,2.56883,-662.11,9523.81,-1882.93,-1.1246,6.62089,2.66512,-2109.59,-9731.54,-1699.34,-2.66955,8.5575,-2.69399,9543.57,710.433,2366.82,1.3053,7.47063,0.44073
0.276,5001.77,-3220.32,7705.67,-8.35428,-0.76933,-0.611313,4626.8,3706.68,7569.59,1.04628,-11.5003,-3.09278,997.573,9575.36,-1754.41,-1.44406,29.464,-2.31291,959.828,-9384.11,-2541.49,-3.09609,18.7412,2.66678,-639.421,9540.56,-1878.57,-1.12925,6.70539,2.71536,-2107.17,-9737.06,-1687.79,-2.62373,8.63006,-2.61485,9567.91,711.854,2364.55,1.31151,7.4899,0.419149
0.277,5016.33,-3202.98,7657.08,-8.1561,-0.931527,-0.551847,4611.38,3717.34,7573.9,0.76126,-11.5994,-3.15191,934.453,9580.51,-1765.15,-1.50516,28.3709,-2.40015,944.902,-9400.63,-2524.38,-3.1309,18.6928,2.77133,-616.943,9562.95,-1872.08,-1.14309,6.71603,2.72458,-2127.62,-9714.88,-1690.61,-2.5945,8.62413,-2.54395,9596.4,728.726,2355.4,1.30651,7.51508,0.40556
0.278,5030.89,-3185.64,7608.49,-7.95791,-1.09372,-0.492381,4595.96,3728.0,7578.21,0.476237,-11.6985,-3.21105,871.334,9585.66,-1775.88,-1.56626,27.2778,-2.48739,929.975,-9417.15,-2507.27,-3.16571,18.6444,2.87588,-594.466,9585.35,-1865.59,-1.15694,6.72668,2.7338,-2148.07,-9692.71,-1693.44,-2.56527,8.61819,-2.47305,9624.9,745.598,2346.25,1.30151,7.54026,0.391972
0.279,5045.46,-3168.3,7559.9,-7.75972,-1.25592,-0.432915,4580.53,3738.66,7582.51,0.191213,-11.7976,-3.27019,808.215,9590.81,-1786.61,-1.62736,26.1847,-2.57463,915.048,-9433.67,-2490.15,-3.20051,18.596,2.98043,-571.989,9607.74,-1859.1,-1.17078,6.73733,2.74301,-2168.52,-9670.53,-1696.27,-2.53605,8.61226,-2.40216,9653.39,762.471,2337.1,1.29651,7.56544,0.378383
0.28,5060.02,-3150.96,7511.31,-7.56154,-1.41812,-0.373449,4565.11,3749.32,7586.82,-0.0938099,-11.8967,-3.32933,745.095,9595.96,-1797.34,-1.68846,25.0916,-2.66187,900.121,-9450.19,-2473.04,-3.23532,18.5476,3.08498,-549.511,9630.14,-1852.62,-1.18463,6.74797,2.75223,-2188.97,-9648.36,-1699.1,-2.50682,8.60632,-2.33126,9681.88,779.343,2327.96,1.2915,7.59062,0.364795
0.281,5090.53,-3144.36,7558.11,-7.4779,-1.46199,-0.365822,4599.54,3742.75,7593.17,-0.358877,-12.2115,-3.4603,684.555,9590.81,-1813.6,-1.69332,24.547,-2.77722,909.863,-9471.88,-2479.48,-3.22647,18.45,3.09486,-539.885,9622.81,-1878.41,-1.18109,6.71674,2.78282,-2202.45,-9642.11,-1718.1,-2.6523,8.5791,-2.24848,9666.13,797.34,2333.82,1.27338,7.61053,0.413637
0.282,5121.04,-3137.76,7604.92,-7.39426,-1.50586,-0.358194,4633.98,3736.17,7599.51,-0.623944,-12.5263,-3.59127,624.015,9585.66,-1829.86,-1.69818,24.0024,-2.89257,919.605,-9493.58,-2485.93,-3.21761,18.3524,3.10473,-530.259,9615.48,-1904.21,-1.17754,6.68551,2.8134,-2215.92,-9635.87,-1737.1,-2.79778,8.55188,-2.1657,9650.37,815.336,2339.69,1.25526,7.63043,0.462479
0.283,5151.56,-3131.16,7651.72,-7.31061,-1.54972,-0.350567,4668.42,3729.6,7605.86,-0.88901,-12.8412,-3.72224,563.475,9580.51,-1846.11,-1.70304,23.4578,-3.00792,929.348,-9515.28,-2492.38,-3.20876,18.2548,3.11461,-520.634,9608.16,-1930.0,-1.174,6.65428,2.84399,-2229.4,-9629.62,-1756.1,-2.94326,8.52467,-2.08293,9634.62,833.333,2345.56,1.23714,7.65033,0.511322
0.284,5182.07,-3124.56,7698.53,-7.22697,-1.59359,-0.34294,4702.85,3723.03,7612.21,-1.15408,-13.156,-3.85321,502.935,9575.36,-1862.37,-1.7079,22.9132,-3.12327,939.09,-9536.98,-2498.82,-3.1999,18.1572,3.12449,-511.008,9600.83,-1955.8,-1.17046,6.62305,2.87457,-2242.88,-9623.38,-1775.11,-3.08874,8.49745,-2.00015,9618.87,851.33,2351.42,1.21901,7.67023,0.560164
0.285,5199.45,-3125.94,7727.91,-7.30414,-1.70431,-0.265521,4717.89,3705.53,7625.1,-1.45449,-13.5154,-4.01916,474.395,9569.45,-1905.27,-1.73322,22.6663,-3.18421,940.918,-9550.67,-2509.74,-3.15293,18.0589,3.07135,-507.548,9585.65,-1977.33,-1.11739,6.58169,2.94115,-2254.37,-9612.87,-1767.99,-3.08841,8.50739,-2.00698,9600.37,854.257,2362.13,1.20067,7.69266,0.608295
0.286,5206.34,-3133.71,7743.35,-7.50995,-1.86851,-0.132271,4717.41,3679.3,7643.21,-1.78319,-13.9105,-4.21308,471.457,9562.95,-1969.5,-1.77491,22.6576,-3.20162,936.415,-9557.96,-2524.24,-3.07545,17.9599,2.96778,-509.021,9564.19,-1995.47,-1.02469,6.53223,3.03653,-2264.27,-9598.95,-1739.98,-2.97143,8.54705,-2.0855,9579.69,845.127,2376.7,1.18216,7.71711,0.655858
0.287,5213.23,-3141.49,7758.8,-7.71577,-2.03271,0.000980264,4716.92,3653.06,7661.32,-2.11188,-14.3057,-4.407,468.518,9556.45,-2033.72,-1.8166,22.6489,-3.21903,931.912,-9565.26,-2538.73,-2.99798,17.861,2.86421,-510.494,9542.73,-2013.6,-0.931998,6.48276,3.1319,-2274.18,-9585.04,-1711.97,-2.85446,8.58671,-2.16401,9559.0,835.998,2391.27,1.16364,7.74155,0.70342
0.288,5220.12,-3149.26,7774.24,-7.92158,-2.1969,0.134231,4716.44,3626.82,7679.43,-2.44057,-14.7008,-4.60093,465.579,9549.95,-2097.94,-1.85829,22.6403,-3.23644,927.409,-9572.55,-2553.23,-2.9205,17.762,2.76064,-511.967,9521.27,-2031.73,-0.839303,6.43329,3.22728,-2284.08,-9571.12,-1683.96,-2.73749,8.62637,-2.24253,9538.32,826.869,2405.84,1.14513,7.766,0.750982
0.289,5225.94,-3156.23,7788.1,-8.13374,-2.36491,0.251449,4715.11,3599.9,7696.54,-2.77561,-15.0945,-4.79554,466.222,9544.86,-2161.95,-1.90221,22.6892,-3.24492,921.448,-9578.31,-2566.13,-2.84316,17.6616,2.66613,-515.154,9502.88,-2047.0,-0.750966,6.3981,3.31461,-2287.79,-9561.58,-1658.76,-2.62265,8.66322,-2.30642,9520.79,817.427,2418.54,1.11862,7.7747,0.789376
0.29,5223.21,-3156.79,7789.24,-8.39664,-2.56335,0.2404,4706.98,3567.5,7705.65,-3.16142,-15.4769,-4.99569,495.519,9551.13,-2224.28,-1.964,23.1988,-3.18196,903.826,-9571.82,-2566.29,-2.76691,17.5496,2.6441,-532.054,9509.13,-2039.37,-0.697505,6.47705,3.33755,-2241.9,-9587.04,-1656.11,-2.52494,8.67759,-2.25327,9528.5,805.491,2416.23,1.02815,7.65749,0.754417
0.291,5220.49,-3157.35,7790.39,-8.65955,-2.76179,0.229351,4698.85,3535.1,7714.75,-3.54723,-15.8593,-5.19584,524.816,9557.4,-2286.61,-2.02578,23.7085,-3.11901,886.205,-9565.32,-2566.45,-2.69066,17.4376,2.62207,-548.954,9515.38,-2031.73,-0.644043,6.55601,3.36049,-2196.02,-9612.49,-1653.46,-2.42723,8.69197,-2.20013,9536.2,793.554,2413.93,0.937684,7.54027,0.719458
0.292,5217.76,-3157.91,7791.54,-8.92245,-2.96024,0.218302,4690.73,3502.7,7723.85,-3.93304,-16.2417,-5.39599,554.114,9563.66,-2348.94,-2.08756,24.2182,-3.05605,868.583,-9558.83,-2566.61,-2.61441,17.3256,2.60005,-565.854,9521.62,-2024.1,-0.590581,6.63496,3.38343,-2150.13,-9637.95,-1650.8,-2.32951,8.70634,-2.14698,9543.91,781.617,2411.63,0.847217,7.42305,0.684499
0.293,5215.04,-3158.47,7792.68,-9.18536,-3.15868,0.207253,4682.6,3470.3,7732.96,-4.31886,-16.624,-5.59614,583.411,9569.93,-2411.27,-2.14934,24.7278,-2.9931,850.961,-9552.33,-2566.77,-2.53816,17.2136,2.57802,-582.754,9527.87,-2016.46,-0.53712,6.71391,3.40637,-2104.25,-9663.41,-1648.15,-2.2318,8.72071,-2.09383,9551.61,769.68,2409.32,0.75675,7.30583,0.64954
0.294,5217.09,-3132.01,7782.44,-9.37546,-3.21262,0.143269,4683.39,3460.23,7711.02,-4.69871,-16.9243,-5.78021,607.98,9573.65,-2438.49,-2.25555,25.3103,-2.91987,849.713,-9559.5,-2565.89,-2.41797,17.123,2.56797,-600.755,9532.96,-2017.07,-0.544023,6.93397,3.41523,-2117.41,-9667.08,-1652.32,-2.1806,8.69762,-2.09458,9560.37,760.824,2414.52,0.611111,7.18464,0.689754
0.295,5221.53,-3092.03,7766.51,-9.52917,-3.19431,0.0528168,4688.65,3461.32,7673.57,-5.0756,-17.1834,-5.95624,630.185,9576.09,-2448.16,-2.38397,25.9291,-2.84152,856.652,-9573.5,-2564.49,-2.27582,17.0431,2.5639,-619.307,9537.46,-2021.81,-0.581108,7.22457,3.41704,-2160.1,-9659.85,-1659.91,-2.15266,8.65579,-2.12227,9569.64,753.507,2423.46,0.437885,7.06146,0.767554
0.296,5225.97,-3052.06,7750.57,-9.68287,-3.176,-0.0376354,4693.9,3462.41,7636.11,-5.45248,-17.4425,-6.13227,652.39,9578.54,-2457.83,-2.51239,26.5479,-2.76316,863.59,-9587.5,-2563.09,-2.13367,16.9631,2.55983,-637.859,9541.97,-2026.54,-0.618194,7.51517,3.41886,-2202.78,-9652.61,-1667.5,-2.12471,8.61396,-2.14997,9578.92,746.19,2432.41,0.264659,6.93828,0.845354
0.297,5230.42,-3012.09,7734.63,-9.83658,-3.15769,-0.128088,4699.15,3463.5,7598.65,-5.82936,-17.7017,-6.30829,674.595,9580.98,-2467.5,-2.64081,27.1667,-2.6848,870.528,-9601.5,-2561.7,-1.99152,16.8832,2.55576,-656.411,9546.48,-2031.27,-0.655279,7.80577,3.42068,-2245.47,-9645.38,-1675.08,-2.09677,8.57213,-2.17767,9588.19,738.873,2441.35,0.0914328,6.8151,0.923153
0.298,5232.83,-2980.76,7715.32,-9.95238,-3.13578,-0.154431,4706.09,3472.56,7565.83,-6.21648,-17.928,-6.45585,703.387,9582.0,-2461.5,-2.78798,27.6778,-2.61791,875.596,-9614.1,-2560.18,-1.85767,16.7773,2.54085,-671.68,9551.44,-2032.56,-0.682935,8.10066,3.42161,-2273.39,-9645.61,-1683.07,-2.07785,8.51246,-2.21996,9592.29,732.833,2446.92,-0.063455,6.73492,1.00152
0.299,5228.15,-2979.67,7684.17,-9.93555,-3.10125,0.0436038,4718.96,3509.52,7549.2,-6.63941,-18.0396,-6.50377,755.233,9578.03,-2400.64,-3.00078,27.8117,-2.59112,874.112,-9621.81,-2558.28,-1.75283,16.5804,2.48799,-675.457,9558.0,-2021.81,-0.677587,8.41058,3.4194,-2249.63,-9671.97,-1692.46,-2.09054,8.39034,-2.31334,9578.26,731.262,2440.67,-0.154159,6.80524,1.08189
0.3,5223.47,-2978.58,7653.02,-9.91872,-3.06671,0.241639,4731.82,3546.49,7532.57,-7.06234,-18.1512,-6.55169,807.079,9574.06,-2339.78,-3.21358,27.9457,-2.56433,872.629,-9629.52,-2556.37,-1.64799,16.3835,2.43513,-679.234,9564.56,-2011.05,-0.672239,8.7205,3.4172,-2225.88,-9698.34,-1701.86,-2.10323,8.26822,-2.40672,9564.23,729.691,2434.41,-0.244863,6.87557,1.16226
0.301,5218.8,-2977.5,7621.87,-9.90189,-3.03218,0.439674,4744.68,3583.45,7515.94,-7.48527,-18.2629,-6.59961,858.926,9570.1,-2278.92,-3.42638,28.0796,-2.53754,871.146,-9637.23,-2554.46,-1.54315,16.1867,2.38227,-683.011,9571.12,-2000.29,-0.66689,9.03041,3.415,-2202.13,-9724.7,-1711.25,-2.11592,8.14609,-2.5001,9550.21,728.12,2428.16,-0.335567,6.9459,1.24263
0.302,5214.12,-2976.41,7590.72,-9.88505,-2.99765,0.637709,4757.55,3620.42,7499.32,-7.9082,-18.3745,-6.64753,910.772,9566.13,-2218.07,-3.63918,28.2136,-2.51076,869.663,-9644.94,-2552.56,-1.43831,15.9898,2.32941,-686.788,9577.68,-1989.53,-0.661542,9.34033,3.4128,-2178.37,-9751.06,-1720.65,-2.1286,8.02397,-2.59349,9536.18,726.549,2421.91,-0.426271,7.01623,1.323
0.303,5208.82,-3012.78,7594.94,-9.73041,-3.00167,0.696402,4776.8,3650.06,7506.98,-8.27923,-18.4347,-6.66124,922.794,9543.4,-2150.34,-3.81879,27.8893,-2.50662,891.32,-9636.44,-2571.89,-1.32244,15.8904,2.24991,-674.699,9585.71,-1980.18,-0.668753,9.54358,3.47305,-2164.84,-9738.32,-1712.33,-2.08946,8.02518,-2.52106,9528.72,722.003,2412.84,-0.468014,7.12915,1.35896
0.304,5203.35,-3059.84,7609.26,-9.5364,-3.01669,0.715283,4797.88,3677.6,7521.58,-8.63544,-18.4802,-6.66517,923.438,9515.31,-2080.65,-3.9889,27.4341,-2.50896,919.587,-9623.32,-2597.28,-1.20343,15.8189,2.1628,-658.077,9594.16,-1971.22,-0.679553,9.71636,3.55113,-2154.22,-9714.4,-1698.94,-2.0355,8.06164,-2.40127,9523.13,716.607,2402.96,-0.495768,7.25425,1.38222
0.305,5197.88,-3106.91,7623.57,-9.34239,-3.03172,0.734164,4818.96,3705.15,7536.18,-8.99165,-18.5256,-6.6691,924.081,9487.22,-2010.96,-4.15902,26.9788,-2.5113,947.855,-9610.19,-2622.68,-1.08441,15.7474,2.07568,-641.455,9602.62,-1962.27,-0.690353,9.88914,3.62921,-2143.61,-9690.49,-1685.56,-1.98155,8.09809,-2.28147,9517.53,711.211,2393.07,-0.523522,7.37936,1.40549
0.306,5192.41,-3153.97,7637.89,-9.14837,-3.04675,0.753045,4840.04,3732.69,7550.78,-9.34785,-18.5711,-6.67304,924.725,9459.13,-1941.27,-4.32914,26.5236,-2.51363,976.122,-9597.07,-2648.07,-0.965399,15.6759,1.98857,-624.832,9611.07,-1953.32,-0.701152,10.0619,3.7073,-2132.99,-9666.57,-1672.18,-1.92759,8.13455,-2.16168,9511.94,705.815,2383.19,-0.551276,7.50446,1.42876
0.307,5173.87,-3202.6,7640.97,-8.92503,-3.0748,0.772446,4860.29,3752.18,7554.76,-9.68676,-18.5578,-6.66517,916.269,9437.0,-1890.83,-4.4613,25.9849,-2.57881,995.633,-9582.09,-2674.02,-0.877137,15.7369,2.01259,-611.923,9613.46,-1945.71,-0.711795,10.1961,3.75415,-2125.47,-9644.11,-1667.41,-1.89424,8.11705,-2.10089,9515.28,707.855,2372.96,-0.58214,7.6062,1.48621
0.308,5129.19,-3254.35,7621.54,-8.64303,-3.12892,0.792886,4878.9,3755.58,7537.5,-9.99108,-18.4269,-6.63369,889.615,9426.77,-1878.87,-4.51755,25.2792,-2.76967,997.63,-9563.42,-2701.05,-0.850379,16.0629,2.25886,-606.439,9603.74,-1940.79,-0.722124,10.2533,3.73855,-2124.16,-9624.55,-1679.87,-1.90211,7.99163,-2.15814,9536.47,724.768,2362.01,-0.619223,7.66124,1.61205
0.309,5084.52,-3306.09,7602.12,-8.36103,-3.18303,0.813326,4897.51,3758.97,7520.24,-10.2954,-18.2959,-6.60222,862.961,9416.54,-1866.91,-4.5738,24.5735,-2.96053,999.626,-9544.74,-2728.08,-0.823621,16.3889,2.50513,-600.955,9594.01,-1935.86,-0.732453,10.3104,3.72295,-2122.85,-9605.0,-1692.33,-1.90997,7.86621,-2.21538,9557.67,741.68,2351.07,-0.656307,7.71628,1.73788
0.31,5039.84,-3357.84,7582.7,-8.07903,-3.23715,0.833767,4916.12,3762.36,7502.98,-10.5997,-18.165,-6.57074,836.307,9406.32,-1854.95,-4.63006,23.8678,-3.15139,1001.62,-9526.07,-2755.11,-0.796864,16.7149,2.75141,-595.471,9584.29,-1930.94,-0.742783,10.3675,3.70735,-2121.54,-9585.45,-1704.8,-1.91783,7.74079,-2.27263,9578.86,758.592,2340.12,-0.69339,7.77132,1.86371
0.311,4995.17,-3409.59,7563.28,-7.79703,-3.29127,0.854207,4934.72,3765.75,7485.72,-10.904,-18.034,-6.53927,809.653,9396.09,-1842.99,-4.68631,23.1621,-3.34225,1003.62,-9507.39,-2782.14,-0.770106,17.0409,2.99768,-589.987,9574.56,-1926.02,-0.753112,10.4247,3.69175,-2120.23,-9565.9,-1717.26,-1.9257,7.61537,-2.32988,9600.06,775.505,2329.18,-0.730474,7.82635,1.98954
0.312,4982.53,-3390.03,7574.05,-7.70432,-3.2505,0.797304,4962.65,3765.64,7453.78,-11.0508,-17.5835,-6.36402,756.096,9410.81,-1860.63,-4.65404,22.5001,-3.55709,990.802,-9482.37,-2789.64,-0.719867,17.5649,3.22109,-581.524,9566.43,-1925.29,-0.792332,10.3853,3.74923,-2113.67,-9590.99,-1715.4,-2.09044,7.76658,-2.41432,9602.76,775.755,2356.36,-0.704207,7.91611,2.00382
0.313,4973.89,-3361.57,7588.59,-7.63526,-3.19788,0.730733,4991.74,3765.09,7420.0,-11.178,-17.0931,-6.17081,699.177,9428.64,-1881.96,-4.6107,21.8436,-3.77493,976.132,-9456.55,-2794.7,-0.666694,18.1137,3.44164,-572.688,9558.51,-1925.09,-0.835163,10.3338,3.81585,-2106.45,-9621.66,-1711.74,-2.27479,7.95238,-2.50216,9603.16,773.922,2388.31,-0.670022,8.0102,2.00416
0.314,4965.25,-3333.1,7603.13,-7.5662,-3.14526,0.664163,5020.83,3764.54,7386.22,-11.3051,-16.6027,-5.97759,642.259,9446.47,-1903.3,-4.56736,21.187,-3.99277,961.462,-9430.74,-2799.75,-0.61352,18.6624,3.66218,-563.852,9550.58,-1924.88,-0.877995,10.2823,3.88248,-2099.23,-9652.33,-1708.09,-2.45914,8.13817,-2.58999,9603.56,772.089,2420.27,-0.635837,8.10429,2.0045
0.315,4956.62,-3304.63,7617.67,-7.49714,-3.09263,0.597592,5049.91,3763.99,7352.44,-11.4322,-16.1123,-5.78437,585.34,9464.3,-1924.64,-4.52402,20.5305,-4.21062,946.793,-9404.92,-2804.81,-0.560346,19.2112,3.88273,-555.016,9542.65,-1924.68,-0.920826,10.2308,3.9491,-2092.01,-9683.01,-1704.43,-2.64348,8.32396,-2.67783,9603.96,770.256,2452.22,-0.601651,8.19839,2.00483
0.316,4968.61,-3288.36,7622.23,-7.51487,-3.04871,0.526824,5065.33,3770.48,7326.21,-11.4504,-15.5535,-5.56931,552.243,9469.1,-1951.09,-4.45923,20.0954,-4.34541,940.614,-9389.16,-2804.84,-0.510173,19.7524,4.07796,-547.854,9536.28,-1923.69,-0.923927,10.1586,4.02657,-2079.61,-9689.28,-1689.89,-2.74669,8.43717,-2.69274,9600.39,766.006,2470.19,-0.598875,8.25056,2.00651
0.317,5006.4,-3287.34,7614.31,-7.64107,-3.01567,0.450811,5063.66,3785.77,7309.41,-11.3325,-14.9092,-5.32694,548.924,9457.6,-1983.93,-4.36761,19.9372,-4.3764,945.049,-9385.96,-2798.6,-0.463751,20.2842,4.24153,-542.785,9531.83,-1921.71,-0.877364,10.0604,4.11761,-2060.76,-9665.06,-1661.73,-2.74846,8.45964,-2.61647,9591.85,758.735,2470.68,-0.635359,8.25033,2.00987
0.318,5044.2,-3286.33,7606.39,-7.76728,-2.98263,0.374798,5061.99,3801.07,7292.62,-11.2145,-14.2648,-5.08457,545.605,9446.11,-2016.78,-4.27599,19.7789,-4.40739,949.485,-9382.76,-2792.36,-0.417329,20.816,4.40511,-537.716,9527.38,-1919.74,-0.830802,9.96226,4.20865,-2041.9,-9640.85,-1633.56,-2.75023,8.48211,-2.54019,9583.31,751.463,2471.17,-0.671844,8.25011,2.01323
0.319,5081.99,-3285.31,7598.47,-7.89348,-2.94959,0.298785,5060.32,3816.36,7275.82,-11.0965,-13.6205,-4.8422,542.286,9434.62,-2049.62,-4.18438,19.6206,-4.43838,953.92,-9379.57,-2786.11,-0.370907,21.3478,4.56868,-532.647,9522.94,-1917.76,-0.784239,9.86409,4.29968,-2023.04,-9616.63,-1605.4,-2.752,8.50458,-2.46392,9574.78,744.192,2471.66,-0.708329,8.24988,2.01659
0.32,5119.78,-3284.29,7590.55,-8.01968,-2.91655,0.222772,5058.65,3831.65,7259.02,-10.9785,-12.9761,-4.59983,538.967,9423.12,-2082.46,-4.09276,19.4623,-4.46937,958.356,-9376.37,-2779.87,-0.324484,21.8796,4.73226,-527.578,9518.49,-1915.79,-0.737677,9.76592,4.39072,-2004.18,-9592.41,-1577.24,-2.75377,8.52705,-2.38765,9566.24,736.921,2472.15,-0.744813,8.24966,2.01995
0.321,5138.52,-3244.86,7614.15,-8.10892,-2.72076,0.143972,5047.2,3838.19,7255.83,-10.869,-12.2977,-4.3856,574.325,9426.23,-2113.75,-4.21481,19.4883,-4.3952,966.73,-9394.58,-2776.37,-0.146634,22.2486,4.93789,-510.731,9524.09,-1907.1,-0.65423,9.71737,4.39831,-1997.95,-9598.5,-1583.78,-2.77631,8.48512,-2.41334,9572.75,728.286,2470.75,-0.749899,8.26255,1.92477
0.322,5157.26,-3205.42,7637.76,-8.19816,-2.52498,0.0651713,5035.75,3844.73,7252.65,-10.7594,-11.6193,-4.17137,609.683,9429.34,-2145.04,-4.33686,19.5143,-4.32104,975.105,-9412.78,-2772.88,0.0312157,22.6177,5.14353,-493.885,9529.69,-1898.41,-0.570783,9.66882,4.4059,-1991.71,-9604.59,-1590.32,-2.79885,8.44319,-2.43903,9579.25,719.651,2469.36,-0.754985,8.27545,1.82959
0.323,5176.0,-3165.98,7661.37,-8.2874,-2.3292,-0.0136292,5024.3,3851.27,7249.46,-10.6498,-10.9409,-3.95713,645.041,9432.44,-2176.33,-4.45891,19.5403,-4.24687,983.48,-9430.99,-2769.38,0.209066,22.9867,5.34916,-477.038,9535.28,-1889.71,-0.487336,9.62027,4.4135,-1985.48,-9610.68,-1596.86,-2.82139,8.40126,-2.46472,9585.75,711.017,2467.96,-0.760072,8.28835,1.73442
0.324,5194.74,-3126.55,7684.97,-8.37663,-2.13342,-0.0924297,5012.85,3857.81,7246.27,-10.5403,-10.2625,-3.7429,680.4,9435.55,-2207.63,-4.58096,19.5663,-4.1727,991.854,-9449.2,-2765.89,0.386916,23.3558,5.5548,-460.192,9540.88,-1881.02,-0.403889,9.57172,4.42109,-1979.25,-9616.77,-1603.4,-2.84393,8.35932,-2.4904,9592.25,702.382,2466.56,-0.765158,8.30124,1.63924
