Time,RFoot_accel.x,RFoot_accel.y,RFoot_accel.z,RFoot_gyro.x,RFoot_gyro.y,RFoot_gyro.z,LFoot_accel.x,LFoot_accel.y,LFoot_accel.z,LFoot_gyro.x,LFoot_gyro.y,LFoot_gyro.z,RShank_accel.x,RShank_accel.y,RShank_accel.z,RShank_gyro.x,RShank_gyro.y,RShank_gyro.z,LShank_accel.x,LShank_accel.y,LShank_accel.z,LShank_gyro.x,LShank_gyro.y,LShank_gyro.z,RThigh_accel.x,RThigh_accel.y,RThigh_accel.z,RThigh_gyro.x,RThigh_gyro.y,RThigh_gyro.z,LThigh_accel.x,LThigh_accel.y,LThigh_accel.z,LThigh_gyro.x,LThigh_gyro.y,LThigh_gyro.z,Pelvis_accel.x,Pelvis_accel.y,Pelvis_accel.z,Pelvis_gyro.x,Pelvis_gyro.y,Pelvis_gyro.z
0.0,5128.52,-3215.85,7555.9,0.409088,1.2565,-0.3051,4729.81,3752.92,7530.11,-1.18611,-0.454568,-0.787097,699.826,9458.03,-2404.92,-2.89252,-1.27413,-0.0291551,985.664,-9592.23,-2382.14,-1.3995,1.00009,2.70469,-789.674,9390.06,-2176.84,-0.809172,0.85428,-0.462516,-2080.91,-9696.11,-1663.46,-4.58172,4.62187,0.411485,9504.8,487.611,2310.13,-0.445333,1.04291,-2.80135
0.001,5129.54,-3227.26,7574.04,0.374201,1.25482,-0.288287,4719.55,3734.19,7543.89,-1.13516,-0.501652,-0.867964,715.768,9463.4,-2408.52,-2.82303,-1.26385,-0.0630574,990.927,-9608.5,-2374.47,-1.32174,1.07339,2.90996,-775.145,9392.37,-2181.27,-0.838933,0.90134,-0.495734,-2078.81,-9695.54,-1691.58,-4.59561,4.58687,0.379155,9527.75,489.819,2276.69,-0.475889,0.982819,-2.78887
0.002,5130.57,-3238.68,7592.18,0.339315,1.25314,-0.271475,4709.29,3715.45,7557.67,-1.0842,-0.548736,-0.948832,731.71,9468.78,-2412.12,-2.75355,-1.25357,-0.0969596,996.189,-9624.77,-2366.8,-1.24398,1.14669,3.11524,-760.616,9394.67,-2185.7,-0.868695,0.9484,-0.528952,-2076.71,-9694.97,-1719.69,-4.6095,4.55187,0.346824,9550.69,492.027,2243.25,-0.506445,0.922726,-2.7764
0.003,5131.59,-3250.09,7610.32,0.304428,1.25146,-0.254662,4699.04,3696.72,7571.45,-1.03324,-0.59582,-1.0297,747.652,9474.15,-2415.72,-2.68407,-1.24328,-0.130862,1001.45,-9641.04,-2359.13,-1.16623,1.21999,3.32051,-746.087,9396.98,-2190.13,-0.898456,0.99546,-0.56217,-2074.61,-9694.41,-1747.8,-4.62339,4.51687,0.314493,9573.64,494.235,2209.81,-0.537001,0.862634,-2.76392
0.004,5132.61,-3261.5,7628.47,0.269542,1.24978,-0.23785,4688.78,3677.98,7585.23,-0.982283,-0.642905,-1.11057,763.594,9479.53,-2419.32,-2.61459,-1.233,-0.164764,1006.71,-9657.31,-2351.46,-1.08847,1.29329,3.52578,-731.558,9399.29,-2194.56,-0.928217,1.04252,-0.595388,-2072.51,-9693.84,-1775.91,-4.63728,4.48187,0.282162,9596.59,496.443,2176.37,-0.567557,0.802541,-2.75145
0.005,5126.07,-3277.71,7644.7,0.219868,1.23706,-0.22369,4685.04,3669.84,7594.18,-1.00085,-0.660097,-1.07452,768.415,9467.02,-2426.12,-2.55607,-1.22299,-0.134519,1010.38,-9663.19,-2336.17,-1.10386,1.30565,3.50362,-722.829,9406.99,-2191.15,-0.932481,1.08832,-0.620684,-2085.19,-9695.42,-1790.84,-4.65614,4.48009,0.284552,9599.89,499.63,2179.16,-0.53036,0.845198,-2.7459
0.006,5113.48,-3297.75,7659.42,0.158366,1.21549,-0.211651,4686.51,3670.16,7599.26,-1.07503,-0.653378,-0.944937,764.338,9440.19,-2435.49,-2.50633,-1.2132,-0.0529572,1012.77,-9660.77,-2314.78,-1.19378,1.26924,3.29951,-718.74,9419.01,-2181.47,-0.916348,1.13311,-0.639642,-2109.69,-9698.73,-1795.24,-4.67899,4.50488,0.314718,9587.47,503.601,2210.92,-0.438961,0.970055,-2.7459
0.007,5100.88,-3317.79,7674.14,0.0968629,1.19393,-0.199613,4687.99,3670.48,7604.34,-1.14922,-0.646658,-0.815357,760.261,9413.37,-2444.86,-2.45658,-1.20341,0.0286051,1015.17,-9658.36,-2293.4,-1.2837,1.23283,3.0954,-714.652,9431.03,-2171.79,-0.900215,1.1779,-0.6586,-2134.2,-9702.04,-1799.63,-4.70184,4.52967,0.344884,9575.05,507.572,2242.68,-0.347562,1.09491,-2.7459
0.008,5088.29,-3337.83,7688.86,0.0353602,1.17236,-0.187574,4689.46,3670.81,7609.42,-1.2234,-0.639938,-0.685776,756.184,9386.55,-2454.23,-2.40684,-1.19362,0.110167,1017.56,-9655.94,-2272.01,-1.37362,1.19643,2.89129,-710.563,9443.05,-2162.11,-0.884081,1.22269,-0.677559,-2158.7,-9705.34,-1804.03,-4.7247,4.55446,0.375051,9562.63,511.543,2274.43,-0.256163,1.21977,-2.7459
0.009,5079.95,-3355.34,7699.96,-0.0138721,1.15895,-0.177149,4690.71,3669.37,7615.76,-1.29046,-0.637947,-0.56459,754.255,9363.1,-2461.7,-2.37106,-1.17102,0.174,1019.1,-9652.11,-2256.39,-1.46292,1.17608,2.7244,-706.786,9453.79,-2154.21,-0.865624,1.25721,-0.694005,-2179.19,-9707.98,-1807.51,-4.75324,4.57852,0.382905,9552.46,514.477,2301.75,-0.15983,1.3188,-2.74728
0.01,5105.6,-3352.65,7682.19,0.0350591,1.21078,-0.179628,4690.13,3653.84,7632.26,-1.3005,-0.673788,-0.51056,769.51,9366.62,-2453.99,-2.44697,-1.04599,0.0959931,1013.8,-9637.04,-2286.9,-1.54727,1.28421,2.85526,-705.51,9454.29,-2160.6,-0.828579,1.20958,-0.690352,-2167.51,-9705.25,-1803.67,-4.82732,4.59671,0.212265,9560.32,509.11,2293.55,-0.0240343,1.21126,-2.75967
0.011,5131.25,-3349.96,7664.42,0.0839903,1.2626,-0.182108,4689.56,3638.3,7648.75,-1.31055,-0.70963,-0.45653,784.764,9370.15,-2446.28,-2.52287,-0.920965,0.0179865,1008.5,-9621.96,-2317.41,-1.63162,1.39234,2.98612,-704.234,9454.8,-2166.99,-0.791534,1.16194,-0.6867,-2155.83,-9702.52,-1799.82,-4.90139,4.61489,0.0416246,9568.17,503.743,2285.34,0.111762,1.10373,-2.77206
0.012,5156.9,-3347.27,7646.65,0.132922,1.31442,-0.184588,4688.99,3622.77,7665.24,-1.32059,-0.745471,-0.4025,800.018,9373.67,-2438.57,-2.59878,-0.795936,-0.0600201,1003.2,-9606.88,-2347.91,-1.71597,1.50047,3.11699,-702.957,9455.31,-2173.38,-0.754488,1.11431,-0.683048,-2144.15,-9699.8,-1795.98,-4.97547,4.63308,-0.129016,9576.03,498.376,2277.14,0.247558,0.996186,-2.78445
0.013,5182.55,-3344.58,7628.87,0.181853,1.36625,-0.187067,4688.41,3607.24,7681.74,-1.33064,-0.781313,-0.348471,815.273,9377.2,-2430.86,-2.67468,-0.670907,-0.138027,997.896,-9591.81,-2378.42,-1.80032,1.60861,3.24785,-701.681,9455.82,-2179.76,-0.717443,1.06668,-0.679395,-2132.48,-9697.08,-1792.14,-5.04955,4.65127,-0.299656,9583.88,493.009,2268.94,0.383353,0.888648,-2.79684
0.014,5186.75,-3344.16,7619.31,0.259766,1.36194,-0.150963,4694.12,3605.83,7688.87,-1.33015,-0.786521,-0.355464,802.653,9385.88,-2437.03,-2.7541,-0.638528,-0.147039,1000.32,-9606.65,-2384.91,-1.68332,1.63631,3.36423,-707.846,9451.7,-2170.92,-0.716601,1.0595,-0.709599,-2143.56,-9704.09,-1791.15,-5.01668,4.74589,-0.397179,9594.42,494.735,2269.88,0.445908,0.835512,-2.85201
0.015,5180.23,-3344.88,7613.86,0.35217,1.32956,-0.0955658,4702.96,3611.49,7691.33,-1.32438,-0.776412,-0.392968,776.096,9397.15,-2450.15,-2.83526,-0.652473,-0.121554,1006.6,-9636.47,-2379.38,-1.46564,1.6238,3.47337,-717.732,9445.26,-2154.47,-0.73386,1.07256,-0.756731,-2166.02,-9715.98,-1791.57,-4.93033,4.87873,-0.458143,9606.29,500.008,2275.4,0.471842,0.809578,-2.92857
0.016,5173.71,-3345.6,7608.41,0.444574,1.29718,-0.0401688,4711.81,3617.14,7693.79,-1.31862,-0.766303,-0.430472,749.539,9408.42,-2463.27,-2.91643,-0.666418,-0.0960689,1012.89,-9666.28,-2373.85,-1.24797,1.61128,3.5825,-727.618,9438.83,-2138.02,-0.75112,1.08561,-0.803864,-2188.48,-9727.87,-1792.0,-4.84399,5.01156,-0.519107,9618.16,505.28,2280.92,0.497776,0.783644,-3.00514
0.017,5167.19,-3346.32,7602.96,0.536978,1.2648,0.0152281,4720.65,3622.8,7696.25,-1.31286,-0.756194,-0.467976,722.982,9419.69,-2476.38,-2.9976,-0.680363,-0.0705839,1019.17,-9696.09,-2368.32,-1.03029,1.59877,3.69164,-737.504,9432.39,-2121.57,-0.768379,1.09867,-0.850996,-2210.94,-9739.76,-1792.43,-4.75764,5.1444,-0.58007,9630.04,510.552,2286.44,0.523711,0.757709,-3.0817
0.018,5163.52,-3344.98,7596.68,0.593532,1.23056,0.0361613,4722.42,3623.5,7690.5,-1.31475,-0.73675,-0.503555,703.685,9430.36,-2481.4,-3.05244,-0.683807,-0.0509741,1021.52,-9715.25,-2359.1,-0.884044,1.59817,3.75246,-748.007,9428.69,-2106.95,-0.782849,1.1402,-0.881764,-2231.5,-9744.51,-1793.0,-4.69134,5.24684,-0.594377,9637.73,512.566,2286.46,0.527233,0.762643,-3.12593
0.019,5169.84,-3336.41,7587.5,0.524612,1.18982,-0.0635289,4699.4,3606.88,7656.04,-1.34345,-0.684636,-0.532395,709.794,9438.98,-2458.05,-3.01513,-0.650496,-0.0519277,1010.1,-9697.13,-2336.95,-0.987782,1.63925,3.64413,-760.673,9434.55,-2098.73,-0.787554,1.28143,-0.855256,-2245.39,-9724.24,-1794.11,-4.69521,5.2429,-0.445381,9630.8,503.173,2267.2,0.452316,0.875615,-3.05697
0.02,5176.17,-3327.83,7578.31,0.455693,1.14907,-0.163219,4676.39,3590.25,7621.58,-1.37215,-0.632523,-0.561235,715.904,9447.6,-2434.7,-2.97783,-0.617185,-0.0528812,998.687,-9679.01,-2314.79,-1.09152,1.68033,3.5358,-773.338,9440.41,-2090.52,-0.792259,1.42265,-0.828748,-2259.28,-9703.97,-1795.21,-4.69907,5.23895,-0.296385,9623.86,493.78,2247.95,0.377399,0.988587,-2.98801
0.021,5182.5,-3319.26,7569.13,0.386774,1.10833,-0.262909,4653.38,3573.62,7587.11,-1.40085,-0.580409,-0.590075,722.014,9456.22,-2411.35,-2.94052,-0.583874,-0.0538347,987.269,-9660.89,-2292.64,-1.19526,1.72141,3.42748,-786.004,9446.26,-2082.31,-0.796964,1.56388,-0.80224,-2273.17,-9683.7,-1796.31,-4.70294,5.23501,-0.14739,9616.93,484.387,2228.7,0.302482,1.10156,-2.91906
0.022,5188.82,-3310.69,7559.95,0.317854,1.06759,-0.362599,4630.36,3557.0,7552.65,-1.42955,-0.528295,-0.618915,728.124,9464.84,-2388.01,-2.90321,-0.550563,-0.0547882,975.852,-9642.77,-2270.49,-1.299,1.76249,3.31915,-798.669,9452.12,-2074.09,-0.801669,1.70511,-0.775732,-2287.06,-9663.43,-1797.41,-4.7068,5.23106,0.0016062,9609.99,474.994,2209.44,0.227565,1.21453,-2.8501
0.023,5183.05,-3318.08,7568.48,0.319819,1.05405,-0.363176,4653.78,3550.02,7562.07,-1.42296,-0.54727,-0.697427,742.121,9455.81,-2389.81,-2.94645,-0.578708,-0.090548,957.763,-9660.72,-2292.39,-1.2211,1.77684,3.29735,-800.446,9453.86,-2082.06,-0.804769,1.83207,-0.752582,-2280.29,-9664.28,-1791.46,-4.77418,5.18038,0.0139185,9613.42,463.654,2210.94,0.425618,1.10722,-2.80994
0.024,5173.82,-3330.02,7582.07,0.342035,1.04828,-0.335434,4690.47,3545.81,7584.02,-1.40628,-0.586556,-0.79013,758.371,9441.75,-2398.79,-3.01271,-0.624412,-0.136252,937.77,-9688.96,-2326.89,-1.09131,1.78355,3.30026,-799.111,9454.42,-2094.64,-0.80741,1.95496,-0.730393,-2267.61,-9671.15,-1783.49,-4.85971,5.11635,-0.0128217,9619.82,451.757,2218.36,0.701664,0.936965,-2.77801
0.025,5164.59,-3341.96,7595.66,0.364252,1.04251,-0.307692,4727.15,3541.6,7605.98,-1.38961,-0.625843,-0.882834,774.62,9427.68,-2407.78,-3.07897,-0.670117,-0.181957,917.776,-9717.2,-2361.38,-0.961517,1.79026,3.30318,-797.776,9454.99,-2107.23,-0.810052,2.07785,-0.708203,-2254.94,-9678.03,-1775.51,-4.94523,5.05232,-0.0395618,9626.21,439.86,2225.78,0.97771,0.766712,-2.74607
0.026,5155.37,-3353.91,7609.26,0.386469,1.03674,-0.27995,4763.83,3537.38,7627.94,-1.37294,-0.665129,-0.975538,790.87,9413.61,-2416.76,-3.14523,-0.715821,-0.227661,897.782,-9745.45,-2395.87,-0.831724,1.79697,3.30609,-796.441,9455.55,-2119.82,-0.812693,2.20073,-0.686013,-2242.26,-9684.91,-1767.54,-5.03075,4.98829,-0.0663019,9632.6,427.964,2233.21,1.25376,0.59646,-2.71414
0.027,5146.61,-3367.31,7616.01,0.423944,1.03923,-0.262311,4791.64,3538.11,7635.38,-1.38764,-0.696585,-1.0421,806.316,9400.2,-2424.42,-3.15707,-0.718399,-0.251775,900.542,-9758.26,-2413.37,-0.764861,1.76178,3.32204,-790.864,9459.85,-2131.12,-0.820036,2.32492,-0.69308,-2242.37,-9688.95,-1764.01,-5.07307,4.86528,-0.0755428,9642.46,425.886,2239.05,1.41408,0.496078,-2.65332
0.028,5138.8,-3383.61,7609.1,0.491934,1.05823,-0.264878,4801.69,3548.7,7613.8,-1.4651,-0.712378,-1.05639,820.156,9388.1,-2429.43,-3.0601,-0.634723,-0.232706,948.81,-9740.21,-2396.89,-0.823856,1.64278,3.36406,-776.802,9471.63,-2139.87,-0.836781,2.4517,-0.758662,-2268.04,-9687.3,-1769.36,-5.02898,4.6243,-0.0497851,9659.25,443.446,2241.72,1.34295,0.535439,-2.5347
0.029,5131.0,-3399.91,7602.18,0.559924,1.07723,-0.267444,4811.75,3559.3,7592.22,-1.54256,-0.728172,-1.07067,833.995,9376.0,-2434.44,-2.96312,-0.551046,-0.213637,997.078,-9722.17,-2380.41,-0.88285,1.52377,3.40607,-762.74,9483.41,-2148.61,-0.853527,2.57849,-0.824243,-2293.71,-9685.65,-1774.72,-4.98488,4.38333,-0.0240273,9676.04,461.006,2244.39,1.27183,0.5748,-2.41609
0.03,5123.19,-3416.21,7595.27,0.627914,1.09624,-0.27001,4821.8,3569.9,7570.64,-1.62002,-0.743965,-1.08496,847.834,9363.9,-2439.46,-2.86614,-0.46737,-0.194568,1045.35,-9704.12,-2363.93,-0.941845,1.40477,3.44809,-748.678,9495.19,-2157.36,-0.870272,2.70527,-0.889824,-2319.38,-9683.99,-1780.07,-4.94078,4.14236,0.00173041,9692.83,478.566,2247.06,1.20071,0.614161,-2.29748
0.031,5115.38,-3432.51,7588.35,0.695904,1.11524,-0.272576,4831.85,3580.49,7549.06,-1.69748,-0.759758,-1.09925,861.674,9351.8,-2444.47,-2.76916,-0.383694,-0.175499,1093.61,-9686.07,-2347.45,-1.00084,1.28576,3.4901,-734.616,9506.96,-2166.1,-0.887018,2.83205,-0.955406,-2345.06,-9682.34,-1785.43,-4.89669,3.90139,0.0274881,9709.62,496.126,2249.73,1.12958,0.653521,-2.17886
0.032,5119.95,-3411.24,7590.01,0.672603,1.12677,-0.276023,4825.09,3599.18,7568.4,-1.64334,-0.737919,-1.13913,841.052,9370.12,-2444.82,-2.74693,-0.246433,-0.255454,1057.68,-9665.77,-2345.97,-1.06969,1.24427,3.38273,-731.983,9501.78,-2163.25,-0.834177,2.91255,-0.984931,-2342.66,-9683.53,-1758.84,-4.89542,3.76568,-0.0698661,9713.24,498.102,2251.96,1.15202,0.613884,-2.2297
0.033,5126.07,-3385.28,7592.74,0.63789,1.13737,-0.279579,4816.23,3618.88,7592.85,-1.57275,-0.711376,-1.18221,816.123,9392.25,-2444.59,-2.73404,-0.102475,-0.347786,1011.22,-9645.18,-2346.36,-1.13977,1.21246,3.2567,-730.779,9494.48,-2158.94,-0.772639,2.98727,-1.00995,-2336.77,-9685.06,-1728.26,-4.8995,3.64312,-0.182609,9715.21,498.131,2254.14,1.18616,0.564373,-2.30172
0.034,5132.19,-3359.31,7595.47,0.603178,1.14797,-0.283136,4807.37,3638.58,7617.3,-1.50215,-0.684833,-1.2253,791.194,9414.37,-2444.36,-2.72115,0.041484,-0.440118,964.762,-9624.6,-2346.75,-1.20985,1.18066,3.13066,-729.575,9487.18,-2154.64,-0.7111,3.06199,-1.03497,-2330.87,-9686.6,-1697.69,-4.90358,3.52057,-0.295352,9717.18,498.159,2256.32,1.22029,0.514861,-2.37374
0.035,5138.3,-3333.34,7598.2,0.568465,1.15857,-0.286693,4798.51,3658.27,7641.76,-1.43156,-0.65829,-1.26838,766.265,9436.5,-2444.12,-2.70827,0.185443,-0.532451,918.303,-9604.01,-2347.14,-1.27994,1.14885,3.00462,-728.371,9479.88,-2150.33,-0.649562,3.1367,-1.05999,-2324.97,-9688.14,-1667.11,-4.90766,3.39802,-0.408096,9719.15,498.188,2258.5,1.25443,0.465349,-2.44576
0.036,5142.45,-3313.11,7599.35,0.537327,1.13173,-0.265904,4784.2,3665.18,7652.32,-1.38968,-0.652692,-1.24707,752.56,9444.59,-2440.37,-2.67963,0.246891,-0.575585,898.904,-9598.56,-2358.01,-1.23512,1.10555,2.94014,-727.011,9468.68,-2141.5,-0.605595,3.15939,-1.06097,-2316.06,-9680.94,-1655.84,-4.90185,3.28752,-0.493101,9712.4,503.276,2256.51,1.2978,0.472172,-2.56407
0.037,5144.12,-3300.04,7598.51,0.510656,1.05809,-0.214683,4763.08,3656.11,7645.54,-1.3837,-0.673276,-1.14526,752.884,9435.12,-2432.22,-2.63132,0.205201,-0.557221,913.33,-9612.0,-2381.96,-1.04667,1.04786,2.9526,-725.458,9452.62,-2127.02,-0.583592,3.11704,-1.03191,-2303.39,-9662.83,-1668.73,-4.88369,3.19208,-0.543435,9694.74,514.688,2249.31,1.3527,0.549414,-2.74026
0.038,5145.8,-3286.97,7597.67,0.483986,0.984449,-0.163462,4741.96,3647.03,7638.75,-1.37771,-0.693859,-1.04346,753.208,9425.66,-2424.07,-2.58301,0.163512,-0.538857,927.756,-9625.45,-2405.91,-0.858218,0.990172,2.96506,-723.904,9436.55,-2112.54,-0.56159,3.07469,-1.00285,-2290.72,-9644.72,-1681.61,-4.86553,3.09663,-0.593768,9677.07,526.099,2242.11,1.40761,0.626656,-2.91645
0.039,5147.48,-3273.9,7596.83,0.457316,0.910809,-0.112241,4720.85,3637.95,7631.97,-1.37172,-0.714443,-0.941652,753.533,9416.2,-2415.91,-2.5347,0.121822,-0.520493,942.181,-9638.9,-2429.86,-0.669769,0.932485,2.97752,-722.35,9420.49,-2098.06,-0.539587,3.03233,-0.973786,-2278.05,-9626.61,-1694.5,-4.84737,3.00119,-0.644102,9659.41,537.511,2234.91,1.46251,0.703899,-3.09263
0.04,5149.15,-3260.84,7595.99,0.430646,0.837168,-0.06102,4699.73,3628.88,7625.19,-1.36573,-0.735027,-0.839847,753.857,9406.73,-2407.76,-2.48639,0.0801329,-0.502129,956.607,-9652.35,-2453.81,-0.481321,0.874798,2.98998,-720.797,9404.42,-2083.58,-0.517585,2.98998,-0.944725,-2265.38,-9608.5,-1707.38,-4.82921,2.90574,-0.694435,9641.75,548.923,2227.72,1.51742,0.781141,-3.26882
0.041,5139.53,-3277.25,7593.93,0.405095,0.874035,-0.115774,4708.91,3611.14,7624.29,-1.38795,-0.668521,-0.862361,765.019,9399.15,-2425.32,-2.59357,0.0748538,-0.516026,953.558,-9649.44,-2453.52,-0.481792,0.896899,2.98998,-729.976,9409.84,-2086.74,-0.621174,2.98998,-1.01383,-2257.09,-9607.19,-1723.75,-4.89591,2.86965,-0.694499,9605.33,534.569,2249.59,1.39844,0.757022,-2.99286
0.042,5129.9,-3293.66,7591.87,0.379544,0.910901,-0.170528,4718.09,3593.41,7623.4,-1.41017,-0.602015,-0.884875,776.182,9391.57,-2442.87,-2.70074,0.0695747,-0.529922,950.51,-9646.53,-2453.23,-0.482264,0.919,2.98998,-739.156,9415.25,-2089.9,-0.724764,2.98998,-1.08294,-2248.8,-9605.88,-1740.12,-4.96262,2.83356,-0.694563,9568.91,520.215,2271.46,1.27945,0.732904,-2.71689
0.043,5120.28,-3310.08,7589.81,0.353993,0.947768,-0.225282,4727.28,3575.68,7622.5,-1.43239,-0.535509,-0.907389,787.344,9383.99,-2460.43,-2.80792,0.0642956,-0.543819,947.461,-9643.63,-2452.94,-0.482735,0.941101,2.98998,-748.336,9420.66,-2093.06,-0.828354,2.98998,-1.15205,-2240.51,-9604.57,-1756.49,-5.02933,2.79747,-0.694627,9532.5,505.861,2293.33,1.16047,0.708786,-2.44092
0.044,5110.65,-3326.49,7587.74,0.328442,0.984634,-0.280036,4736.46,3557.95,7621.6,-1.45461,-0.469003,-0.929903,798.507,9376.41,-2477.98,-2.9151,0.0590165,-0.557715,944.412,-9640.72,-2452.65,-0.483207,0.963202,2.98998,-757.516,9426.07,-2096.22,-0.931944,2.98998,-1.22116,-2232.22,-9603.26,-1772.87,-5.09603,2.76137,-0.694691,9496.08,491.507,2315.2,1.04148,0.684668,-2.16496
0.045,5108.37,-3322.03,7584.24,0.31524,0.979557,-0.347107,4736.37,3563.38,7622.8,-1.47401,-0.413435,-0.895835,799.984,9374.86,-2496.07,-2.928,0.110706,-0.573543,939.715,-9633.71,-2437.09,-0.528619,0.921199,3.00037,-760.206,9431.46,-2102.3,-1.03133,3.01334,-1.22784,-2231.67,-9603.89,-1776.37,-5.13219,2.71326,-0.657416,9486.54,481.391,2312.18,1.10015,0.620835,-2.0538
0.046,5111.94,-3300.89,7579.58,0.311919,0.940923,-0.424031,4728.87,3587.34,7625.65,-1.49117,-0.366618,-0.816501,793.713,9378.13,-2514.59,-2.86548,0.20797,-0.590917,933.7,-9623.41,-2409.31,-0.609985,0.827913,3.01908,-757.703,9436.82,-2110.72,-1.12735,3.05539,-1.18456,-2237.3,-9606.07,-1769.58,-5.14392,2.65554,-0.59027,9498.49,474.664,2289.26,1.30094,0.52523,-2.0745
0.047,5115.52,-3279.74,7574.92,0.308597,0.90229,-0.500955,4721.37,3611.29,7628.51,-1.50833,-0.319801,-0.737166,787.442,9381.4,-2533.1,-2.80297,0.305233,-0.60829,927.684,-9613.11,-2381.53,-0.69135,0.734627,3.0378,-755.201,9442.18,-2119.13,-1.22337,3.09744,-1.14129,-2242.93,-9608.25,-1762.8,-5.15564,2.59782,-0.523124,9510.45,467.938,2266.34,1.50172,0.429626,-2.09519
0.048,5119.1,-3258.59,7570.26,0.305275,0.863657,-0.57788,4713.87,3635.25,7631.37,-1.52549,-0.272984,-0.657832,781.171,9384.67,-2551.62,-2.74045,0.402497,-0.625664,921.669,-9602.8,-2353.75,-0.772716,0.64134,3.0565,-752.699,9447.54,-2127.55,-1.31939,3.1395,-1.09801,-2248.56,-9610.43,-1756.01,-5.16737,2.5401,-0.455978,9522.41,461.211,2243.42,1.70251,0.334021,-2.11589
0.049,5122.88,-3238.26,7566.42,0.300375,0.832254,-0.644076,4707.75,3656.62,7632.08,-1.54634,-0.231155,-0.588288,775.136,9386.84,-2563.18,-2.68407,0.494321,-0.647839,917.236,-9591.66,-2328.73,-0.842441,0.561802,3.084,-749.697,9452.0,-2134.32,-1.3999,3.17898,-1.05695,-2254.57,-9612.61,-1753.57,-5.1795,2.48622,-0.400227,9534.02,459.051,2223.85,1.88888,0.245867,-2.14346
0.05,5128.17,-3224.52,7569.17,0.282844,0.85869,-0.624447,4712.72,3657.31,7615.56,-1.59666,-0.229224,-0.597058,770.987,9380.3,-2519.09,-2.67678,0.542618,-0.708429,925.465,-9573.77,-2325.81,-0.819046,0.592244,3.18181,-742.69,9449.2,-2127.99,-1.35637,3.19794,-1.03367,-2263.64,-9614.79,-1785.87,-5.19487,2.46306,-0.435633,9542.78,493.423,2231.11,1.95986,0.217316,-2.22609
0.051,5133.47,-3210.78,7571.92,0.265313,0.885126,-0.604818,4717.68,3658.0,7599.03,-1.64697,-0.227294,-0.605829,766.839,9373.76,-2475.0,-2.66949,0.590916,-0.769018,933.693,-9555.87,-2322.89,-0.795651,0.622686,3.27962,-735.683,9446.41,-2121.67,-1.31285,3.21691,-1.01039,-2272.71,-9616.97,-1818.17,-5.21025,2.43989,-0.471039,9551.54,527.794,2238.37,2.03084,0.188765,-2.30871
0.052,5138.77,-3197.05,7574.67,0.247782,0.911562,-0.585189,4722.65,3658.69,7582.51,-1.69729,-0.225363,-0.6146,762.69,9367.22,-2430.91,-2.66221,0.639214,-0.829608,941.921,-9537.98,-2319.97,-0.772255,0.653128,3.37743,-728.676,9443.62,-2115.34,-1.26932,3.23587,-0.987109,-2281.78,-9619.15,-1850.48,-5.22562,2.41673,-0.506445,9560.3,562.166,2245.63,2.10182,0.160214,-2.39134
0.053,5144.07,-3183.31,7577.42,0.230251,0.937998,-0.56556,4727.62,3659.37,7565.99,-1.74761,-0.223433,-0.623371,758.541,9360.67,-2386.82,-2.65492,0.687512,-0.890197,950.15,-9520.08,-2317.05,-0.74886,0.68357,3.47524,-721.669,9440.82,-2109.01,-1.22579,3.25483,-0.963827,-2290.85,-9621.33,-1882.78,-5.241,2.39357,-0.541851,9569.07,596.538,2252.89,2.1728,0.131663,-2.47396
0.054,5142.5,-3186.04,7574.7,0.210267,0.986562,-0.556254,4735.34,3656.4,7561.72,-1.73682,-0.254621,-0.58136,760.981,9362.11,-2373.28,-2.63904,0.668786,-0.966569,951.659,-9527.39,-2318.73,-0.720586,0.7387,3.48159,-730.294,9440.81,-2093.27,-1.18568,3.21418,-1.01983,-2283.84,-9620.79,-1874.61,-5.19963,2.34231,-0.474455,9546.35,588.728,2245.28,2.23392,0.113972,-2.5098
0.055,5137.49,-3197.02,7569.23,0.189057,1.04619,-0.55211,4744.44,3651.6,7563.59,-1.69547,-0.302367,-0.513959,766.714,9367.52,-2375.02,-2.61887,0.616546,-1.05083,949.81,-9547.3,-2322.71,-0.689873,0.806174,3.44221,-746.735,9442.19,-2072.84,-1.14728,3.14372,-1.11547,-2268.79,-9618.89,-1846.2,-5.12989,2.277,-0.355657,9507.89,559.828,2230.23,2.29012,0.101711,-2.52224
0.056,5132.49,-3207.99,7563.76,0.167847,1.10582,-0.547967,4753.53,3646.8,7565.45,-1.65411,-0.350114,-0.446557,772.447,9372.94,-2376.76,-2.5987,0.564307,-1.13509,947.96,-9567.21,-2326.7,-0.659159,0.873648,3.40283,-763.175,9443.57,-2052.4,-1.10889,3.07325,-1.21112,-2253.74,-9616.99,-1817.8,-5.06014,2.21169,-0.23686,9469.43,530.928,2215.19,2.34632,0.0894497,-2.53469
0.057,5127.48,-3218.96,7558.3,0.146637,1.16544,-0.543823,4762.63,3641.99,7567.31,-1.61276,-0.397861,-0.379156,778.181,9378.36,-2378.5,-2.57853,0.512068,-1.21936,946.11,-9587.12,-2330.68,-0.628446,0.941122,3.36345,-779.616,9444.95,-2031.97,-1.07049,3.00279,-1.30676,-2238.69,-9615.09,-1789.39,-4.9904,2.14638,-0.118062,9430.97,502.028,2200.14,2.40252,0.0771887,-2.54713
0.058,5124.43,-3232.47,7553.48,0.117165,1.20725,-0.529313,4772.41,3637.72,7572.61,-1.58862,-0.446093,-0.34019,782.641,9386.45,-2377.92,-2.56903,0.4384,-1.26593,943.583,-9606.15,-2334.02,-0.624754,0.975233,3.32788,-793.289,9446.43,-2012.76,-1.04024,2.92156,-1.37694,-2229.71,-9612.18,-1769.49,-4.94342,2.08005,-0.0441835,9408.11,483.106,2189.25,2.4731,0.10063,-2.52717
0.059,5128.23,-3254.86,7550.97,0.0587765,1.18666,-0.478524,4784.57,3635.3,7589.93,-1.6247,-0.496024,-0.400751,782.645,9403.86,-2369.22,-2.59687,0.28973,-1.18059,938.683,-9622.13,-2335.08,-0.715636,0.892572,3.30566,-797.276,9448.27,-1997.87,-1.03854,2.80263,-1.35799,-2242.01,-9605.75,-1779.38,-4.9761,2.0101,-0.127519,9439.84,499.107,2192.87,2.59403,0.24903,-2.39378
0.06,5132.02,-3277.24,7548.46,0.000388274,1.16608,-0.427734,4796.74,3632.88,7607.24,-1.66078,-0.545955,-0.461312,782.649,9421.27,-2360.51,-2.62472,0.14106,-1.09525,933.783,-9638.1,-2336.14,-0.806519,0.809911,3.28344,-801.263,9450.11,-1982.98,-1.03684,2.68369,-1.33905,-2254.3,-9599.32,-1789.27,-5.00877,1.94016,-0.210854,9471.58,515.108,2196.49,2.71496,0.397429,-2.26039
0.061,5135.81,-3299.62,7545.95,-0.058,1.14549,-0.376945,4808.91,3630.46,7624.56,-1.69687,-0.595886,-0.521873,782.653,9438.68,-2351.81,-2.65257,-0.00760971,-1.00991,928.884,-9654.07,-2337.21,-0.897402,0.727249,3.26122,-805.25,9451.95,-1968.09,-1.03514,2.56476,-1.3201,-2266.6,-9592.9,-1799.15,-5.04144,1.87022,-0.29419,9503.32,531.109,2200.11,2.83589,0.545828,-2.127
0.062,5139.6,-3322.01,7543.44,-0.116388,1.1249,-0.326155,4821.07,3628.04,7641.88,-1.73295,-0.645817,-0.582434,782.658,9456.09,-2343.11,-2.68041,-0.15628,-0.924564,923.984,-9670.04,-2338.27,-0.988285,0.644588,3.239,-809.237,9453.79,-1953.2,-1.03344,2.44583,-1.30116,-2278.9,-9586.47,-1809.04,-5.07412,1.80028,-0.377525,9535.05,547.111,2203.74,2.95681,0.694228,-1.99361
0.063,5141.94,-3342.03,7542.14,-0.0981697,1.09888,-0.277939,4792.58,3607.87,7645.31,-1.735,-0.635753,-0.6033,781.333,9444.47,-2345.73,-2.7139,-0.126369,-0.888157,927.448,-9658.98,-2337.87,-0.932262,0.669437,3.22669,-806.161,9453.94,-1962.7,-0.988321,2.45677,-1.31441,-2283.01,-9600.93,-1814.36,-4.9832,1.75111,-0.4442,9532.73,550.167,2219.66,2.93307,0.687048,-2.05642
0.064,5143.85,-3361.37,7541.18,-0.0580636,1.07129,-0.230457,4752.48,3582.63,7644.76,-1.72734,-0.608548,-0.612823,779.63,9424.55,-2351.58,-2.749,-0.0454344,-0.865731,933.301,-9640.2,-2337.05,-0.834265,0.725004,3.21721,-801.068,9453.61,-1979.16,-0.930801,2.50482,-1.33686,-2284.79,-9621.36,-1818.37,-4.85698,1.70788,-0.506115,9520.67,549.525,2239.1,2.86799,0.635416,-2.17528
0.065,5145.77,-3380.72,7540.22,-0.0179574,1.0437,-0.182975,4712.37,3557.39,7644.22,-1.71967,-0.581343,-0.622346,777.926,9404.64,-2357.43,-2.7841,0.0354997,-0.843306,939.154,-9621.42,-2336.24,-0.736268,0.78057,3.20774,-795.974,9453.28,-1995.63,-0.873281,2.55288,-1.3593,-2286.56,-9641.79,-1822.39,-4.73075,1.66465,-0.568029,9508.62,548.883,2258.54,2.80292,0.583784,-2.29414
0.066,5147.68,-3400.06,7539.27,0.0221488,1.01612,-0.135494,4672.27,3532.16,7643.68,-1.71201,-0.554138,-0.63187,776.223,9384.72,-2363.28,-2.8192,0.116434,-0.82088,945.007,-9602.63,-2335.42,-0.638272,0.836136,3.19826,-790.881,9452.94,-2012.1,-0.815761,2.60093,-1.38175,-2288.34,-9662.21,-1826.4,-4.60453,1.62141,-0.629944,9496.57,548.24,2277.98,2.73784,0.532153,-2.41301
0.067,5147.61,-3410.29,7540.54,0.0610573,1.00949,-0.108394,4640.73,3520.13,7650.48,-1.6977,-0.523295,-0.657847,773.87,9373.43,-2363.36,-2.82279,0.157611,-0.814397,944.269,-9587.77,-2335.83,-0.553991,0.856895,3.17908,-789.104,9455.23,-2026.85,-0.759826,2.64917,-1.39786,-2287.48,-9676.62,-1834.31,-4.55742,1.54055,-0.66749,9494.84,541.944,2285.19,2.71585,0.519896,-2.46873
0.068,5143.56,-3402.3,7546.29,0.0975705,1.04478,-0.122057,4626.32,3534.54,7671.97,-1.67008,-0.485177,-0.716731,770.221,9379.37,-2351.89,-2.76336,0.119273,-0.839799,930.347,-9580.73,-2338.67,-0.497142,0.808038,3.14051,-793.959,9462.75,-2038.17,-0.707059,2.6978,-1.4013,-2281.34,-9678.97,-1850.01,-4.66853,1.38443,-0.6563,9513.76,524.339,2267.95,2.78003,0.58639,-2.39819
0.069,5139.51,-3394.31,7552.04,0.134084,1.08007,-0.135721,4611.91,3548.94,7693.46,-1.64247,-0.447059,-0.775616,766.571,9385.31,-2340.42,-2.70394,0.0809352,-0.8652,916.426,-9573.69,-2341.52,-0.440294,0.759181,3.10194,-798.814,9470.27,-2049.49,-0.654293,2.74643,-1.40473,-2275.21,-9681.32,-1865.72,-4.77964,1.22831,-0.645111,9532.68,506.734,2250.71,2.84421,0.652884,-2.32765
0.07,5135.46,-3386.32,7557.78,0.170597,1.11536,-0.149384,4597.49,3563.35,7714.95,-1.61486,-0.408941,-0.834501,762.921,9391.25,-2328.95,-2.64451,0.0425975,-0.890602,902.505,-9566.65,-2344.36,-0.383445,0.710325,3.06338,-803.67,9477.79,-2060.8,-0.601526,2.79506,-1.40816,-2269.07,-9683.67,-1881.42,-4.89076,1.07219,-0.633921,9551.6,489.13,2233.47,2.90839,0.719378,-2.25711
0.071,5131.41,-3378.34,7563.53,0.20711,1.15065,-0.163047,4583.08,3577.75,7736.44,-1.58725,-0.370823,-0.893385,759.272,9397.2,-2317.48,-2.58508,0.00425975,-0.916003,888.583,-9559.61,-2347.21,-0.326597,0.661468,3.02481,-808.525,9485.31,-2072.12,-0.54876,2.84369,-1.4116,-2262.94,-9686.02,-1897.12,-5.00187,0.916069,-0.622732,9570.52,471.525,2216.23,2.97257,0.785872,-2.18657
0.072,5135.41,-3368.91,7566.05,0.18901,1.1275,-0.171888,4599.33,3576.54,7702.91,-1.41431,-0.399925,-0.865352,773.166,9401.04,-2330.12,-2.59604,-0.0477768,-0.94149,895.861,-9563.05,-2339.37,-0.369348,0.623412,3.00221,-798.458,9488.19,-2073.91,-0.579762,2.75478,-1.31219,-2259.04,-9663.92,-1887.16,-5.06804,0.872547,-0.59828,9575.58,513.76,2244.44,2.93939,0.788099,-2.09303
0.073,5140.41,-3359.3,7568.16,0.164083,1.09705,-0.180126,4619.42,3573.38,7662.5,-1.22321,-0.43743,-0.826454,789.253,9404.63,-2345.77,-2.61579,-0.101526,-0.966986,905.788,-9567.79,-2330.18,-0.42455,0.586706,2.98161,-786.527,9490.49,-2074.52,-0.621236,2.64867,-1.19993,-2255.42,-9638.77,-1873.99,-5.12859,0.843099,-0.572171,9578.9,563.474,2278.33,2.89404,0.782292,-1.99662
0.074,5145.41,-3349.69,7570.27,0.139156,1.06659,-0.188364,4639.51,3570.22,7622.09,-1.03211,-0.474935,-0.787556,805.34,9408.22,-2361.43,-2.63554,-0.155275,-0.992483,915.716,-9572.53,-2321.0,-0.479751,0.549999,2.96101,-774.595,9492.79,-2075.12,-0.662709,2.54257,-1.08766,-2251.8,-9613.62,-1860.83,-5.18914,0.813652,-0.546062,9582.23,613.188,2312.22,2.8487,0.776486,-1.9002
0.075,5150.41,-3340.08,7572.38,0.114229,1.03614,-0.196602,4659.6,3567.05,7581.68,-0.841005,-0.51244,-0.748657,821.427,9411.8,-2377.08,-2.6553,-0.209024,-1.01798,925.643,-9577.27,-2311.82,-0.534953,0.513293,2.94041,-762.663,9495.09,-2075.72,-0.704182,2.43646,-0.975402,-2248.18,-9588.46,-1847.66,-5.24969,0.784204,-0.519952,9585.55,662.902,2346.11,2.80335,0.77068,-1.80379
0.076,5155.98,-3332.66,7575.51,0.0724921,1.02894,-0.173841,4679.23,3562.12,7559.27,-0.761101,-0.517259,-0.695885,826.167,9419.14,-2391.27,-2.66015,-0.267571,-1.06083,928.936,-9568.79,-2311.08,-0.559494,0.491328,2.92896,-758.499,9484.17,-2082.25,-0.700983,2.33601,-0.9339,-2238.11,-9579.13,-1834.47,-5.25966,0.740579,-0.526018,9587.93,684.145,2355.33,2.83362,0.72083,-1.71516
0.077,5162.24,-3327.98,7579.93,0.00974148,1.05079,-0.112332,4698.28,3554.96,7559.36,-0.820196,-0.481221,-0.625771,816.723,9431.15,-2403.62,-2.64638,-0.332115,-1.12537,923.936,-9543.76,-2320.88,-0.54571,0.487791,2.92896,-764.046,9456.71,-2096.19,-0.641942,2.24261,-0.98085,-2219.98,-9589.58,-1821.25,-5.20641,0.679231,-0.572302,9589.13,669.798,2333.69,2.95842,0.615927,-1.63627
0.078,5168.51,-3323.3,7584.34,-0.0530091,1.07265,-0.0508236,4717.34,3547.8,7559.44,-0.879291,-0.445183,-0.555657,807.28,9443.16,-2415.98,-2.63261,-0.396659,-1.18992,918.935,-9518.74,-2330.68,-0.531926,0.484253,2.92896,-769.592,9429.25,-2110.12,-0.582901,2.14922,-1.0278,-2201.85,-9600.04,-1808.03,-5.15316,0.617884,-0.618586,9590.34,655.451,2312.06,3.08322,0.511024,-1.55737
0.079,5174.78,-3318.63,7588.75,-0.11576,1.0945,0.0106851,4736.39,3540.64,7559.53,-0.938386,-0.409144,-0.485543,797.837,9455.17,-2428.33,-2.61884,-0.461203,-1.25446,913.935,-9493.72,-2340.48,-0.518143,0.480715,2.92896,-775.138,9401.79,-2124.06,-0.52386,2.05583,-1.07475,-2183.72,-9610.49,-1794.81,-5.09991,0.556536,-0.66487,9591.54,641.104,2290.42,3.20801,0.406121,-1.47847
0.08,5181.05,-3313.95,7593.16,-0.17851,1.11636,0.0721939,4755.45,3533.49,7559.62,-0.997481,-0.373106,-0.415429,788.393,9467.18,-2440.68,-2.60507,-0.525747,-1.31901,908.935,-9468.69,-2350.29,-0.504359,0.477178,2.92896,-780.685,9374.34,-2137.99,-0.46482,1.96244,-1.1217,-2165.59,-9620.94,-1781.6,-5.04666,0.495189,-0.711154,9592.75,626.757,2268.79,3.33281,0.301219,-1.39958
0.081,5176.28,-3308.81,7598.33,-0.152983,1.13392,0.118982,4766.21,3559.49,7573.3,-1.07436,-0.337248,-0.449341,785.164,9466.67,-2439.59,-2.57829,-0.444539,-1.24743,903.503,-9481.8,-2367.35,-0.475469,0.357095,2.9332,-800.237,9374.49,-2125.27,-0.43515,1.93277,-1.15137,-2188.19,-9607.43,-1790.55,-5.02856,0.449312,-0.789857,9553.58,637.596,2264.88,3.24955,0.295508,-1.38979
0.082,5171.52,-3303.67,7603.51,-0.127456,1.15149,0.16577,4776.97,3585.5,7586.99,-1.15125,-0.30139,-0.483253,781.936,9466.15,-2438.49,-2.55151,-0.363331,-1.17584,898.072,-9494.9,-2384.41,-0.44658,0.237013,2.93744,-819.79,9374.64,-2112.55,-0.405481,1.90311,-1.18104,-2210.78,-9593.92,-1799.5,-5.01047,0.403435,-0.86856,9514.41,648.436,2260.97,3.16629,0.289798,-1.37999
0.083,5166.75,-3298.54,7608.68,-0.101929,1.16906,0.212558,4787.73,3611.51,7600.68,-1.22813,-0.265531,-0.517165,778.707,9465.63,-2437.4,-2.52473,-0.282123,-1.10426,892.641,-9508.01,-2401.47,-0.417691,0.116931,2.94168,-839.343,9374.8,-2099.82,-0.375812,1.87345,-1.21071,-2233.37,-9580.42,-1808.45,-4.99237,0.357558,-0.947264,9475.24,659.275,2257.07,3.08302,0.284088,-1.3702
0.084,5161.98,-3293.4,7613.85,-0.0764021,1.18662,0.259346,4798.5,3637.51,7614.37,-1.30501,-0.229673,-0.551077,775.478,9465.12,-2436.3,-2.49795,-0.200915,-1.03268,887.209,-9521.11,-2418.53,-0.388802,-0.00315111,2.94592,-858.896,9374.95,-2087.1,-0.346143,1.84378,-1.24038,-2255.96,-9566.91,-1817.4,-4.97427,0.311681,-1.02597,9436.07,670.115,2253.16,2.99976,0.278378,-1.3604
0.085,5152.62,-3300.22,7614.03,-0.0570208,1.18635,0.256644,4798.43,3655.25,7611.98,-1.36679,-0.254544,-0.586968,773.437,9450.47,-2426.43,-2.43941,-0.188564,-1.00961,887.733,-9545.34,-2414.15,-0.410364,-0.0748434,2.94556,-861.826,9393.03,-2077.65,-0.361271,1.8306,-1.28764,-2263.66,-9565.31,-1824.99,-4.9605,0.301688,-1.02852,9441.34,652.726,2246.7,2.91196,0.322666,-1.37269
0.086,5139.57,-3316.6,7610.21,-0.0425562,1.1718,0.214351,4789.71,3666.37,7596.73,-1.41648,-0.327998,-0.624443,772.346,9424.52,-2409.53,-2.35547,-0.231297,-1.02536,893.02,-9578.46,-2392.63,-0.472288,-0.107824,2.94152,-851.458,9425.44,-2070.83,-0.412235,1.8306,-1.34899,-2259.45,-9573.25,-1831.49,-4.9502,0.320401,-0.970163,9482.15,612.754,2238.21,2.82052,0.406953,-1.40264
0.087,5126.53,-3332.98,7606.39,-0.0280915,1.15725,0.172058,4780.98,3677.5,7581.48,-1.46617,-0.401451,-0.661918,771.256,9398.57,-2392.64,-2.27152,-0.27403,-1.0411,898.307,-9611.58,-2371.11,-0.534212,-0.140804,2.93748,-841.089,9457.85,-2064.0,-0.4632,1.8306,-1.41033,-2255.24,-9581.19,-1838.0,-4.9399,0.339114,-0.911803,9522.95,572.783,2229.71,2.72907,0.49124,-1.43258
0.088,5113.49,-3349.36,7602.57,-0.0136269,1.1427,0.129765,4772.25,3688.62,7566.24,-1.51587,-0.474905,-0.699393,770.165,9372.61,-2375.75,-2.18758,-0.316764,-1.05685,903.595,-9644.71,-2349.58,-0.596136,-0.173785,2.93345,-830.721,9490.27,-2057.17,-0.514165,1.8306,-1.47167,-2251.03,-9589.12,-1844.5,-4.92959,0.357827,-0.853443,9563.76,532.811,2221.22,2.63763,0.575527,-1.46253
0.089,5102.72,-3362.93,7599.67,-0.00532667,1.13743,0.0912782,4763.96,3695.24,7553.37,-1.5564,-0.534944,-0.734911,768.94,9350.89,-2360.16,-2.11925,-0.362469,-1.06753,908.223,-9673.89,-2330.38,-0.646438,-0.202532,2.92201,-822.346,9518.54,-2052.19,-0.565254,1.83331,-1.52025,-2247.35,-9596.49,-1848.33,-4.91597,0.387479,-0.793716,9601.0,498.491,2216.36,2.53762,0.644573,-1.47953
0.09,5110.13,-3353.99,7604.12,-0.0463421,1.20639,0.0832418,4759.15,3665.86,7559.55,-1.52367,-0.487662,-0.754765,766.638,9362.96,-2355.03,-2.17586,-0.431952,-1.03768,907.579,-9671.62,-2329.73,-0.603764,-0.197415,2.85133,-829.919,9513.65,-2061.91,-0.617342,1.85772,-1.46672,-2247.91,-9599.26,-1830.8,-4.87582,0.504639,-0.723056,9609.73,509.38,2240.6,2.36907,0.591697,-1.39291
0.091,5117.54,-3345.04,7608.57,-0.0873574,1.27535,0.0752053,4754.34,3636.47,7565.73,-1.49094,-0.44038,-0.774619,764.336,9375.04,-2349.9,-2.23247,-0.501434,-1.00783,906.935,-9669.34,-2329.09,-0.56109,-0.192298,2.78066,-837.491,9508.77,-2071.62,-0.66943,1.88212,-1.41319,-2248.48,-9602.03,-1813.27,-4.83567,0.621799,-0.652395,9618.45,520.27,2264.84,2.20051,0.538821,-1.3063
0.092,5124.96,-3336.1,7613.02,-0.128373,1.34431,0.0671689,4749.53,3607.08,7571.92,-1.45821,-0.393097,-0.794474,762.034,9387.12,-2344.77,-2.28908,-0.570917,-0.977977,906.291,-9667.06,-2328.45,-0.518415,-0.187181,2.70999,-845.063,9503.88,-2081.34,-0.721518,1.90652,-1.35967,-2249.04,-9604.8,-1795.74,-4.79552,0.738959,-0.581735,9627.17,531.16,2289.08,2.03195,0.485944,-1.21969
0.093,5132.37,-3327.15,7617.46,-0.169388,1.41327,0.0591324,4744.72,3577.7,7578.1,-1.42548,-0.345815,-0.814328,759.731,9399.19,-2339.64,-2.34569,-0.640399,-0.948126,905.647,-9664.79,-2327.8,-0.475741,-0.182064,2.63931,-852.635,9499.0,-2091.06,-0.773606,1.93093,-1.30614,-2249.61,-9607.57,-1778.21,-4.75537,0.85612,-0.511074,9635.89,542.049,2313.32,1.86339,0.433068,-1.13308
0.094,5126.24,-3315.37,7608.18,-0.149561,1.44007,0.0536075,4730.64,3570.32,7587.67,-1.42644,-0.311589,-0.765847,752.72,9404.07,-2349.25,-2.34441,-0.699254,-0.929727,912.468,-9658.96,-2328.28,-0.456775,-0.16919,2.55195,-847.391,9494.35,-2091.16,-0.798622,1.91726,-1.19386,-2272.19,-9613.03,-1765.36,-4.67163,0.885914,-0.505923,9630.58,553.398,2306.54,1.78776,0.400843,-1.1037
0.095,5113.35,-3302.16,7592.03,-0.0993123,1.44579,0.0493383,4711.93,3573.94,7598.93,-1.44424,-0.28389,-0.683199,743.354,9405.35,-2366.22,-2.31417,-0.752794,-0.917053,923.022,-9651.36,-2329.33,-0.449663,-0.152437,2.45625,-835.739,9489.82,-2086.44,-0.810102,1.88456,-1.0522,-2305.79,-9619.82,-1754.86,-4.56608,0.872024,-0.533526,9618.26,564.977,2284.25,1.7586,0.378942,-1.10295
0.096,5100.45,-3288.95,7575.87,-0.0490637,1.45152,0.0450691,4693.21,3577.57,7610.19,-1.46205,-0.256192,-0.600551,733.988,9406.63,-2383.18,-2.28393,-0.806334,-0.904379,933.575,-9643.76,-2330.37,-0.442551,-0.135684,2.36055,-824.087,9485.3,-2081.73,-0.821582,1.85187,-0.91055,-2339.38,-9626.62,-1744.36,-4.46053,0.858135,-0.561128,9605.93,576.556,2261.96,1.72943,0.357042,-1.10219
0.097,5087.56,-3275.74,7559.72,0.00118496,1.45724,0.0407999,4674.5,3581.19,7621.46,-1.47985,-0.228493,-0.517902,724.621,9407.91,-2400.15,-2.25369,-0.859874,-0.891705,944.129,-9636.16,-2331.42,-0.435438,-0.118931,2.26485,-812.435,9480.77,-2077.01,-0.833063,1.81917,-0.768896,-2372.98,-9633.42,-1733.86,-4.35498,0.844246,-0.588731,9593.61,588.135,2239.67,1.70026,0.335142,-1.10143
0.098,5076.4,-3265.75,7549.45,0.0358163,1.45065,0.0366243,4662.4,3585.06,7628.11,-1.4869,-0.209389,-0.469647,716.422,9407.87,-2413.5,-2.24496,-0.910129,-0.882893,952.626,-9631.07,-2332.6,-0.446397,-0.113305,2.18227,-802.458,9480.44,-2076.76,-0.837697,1.79571,-0.672485,-2397.47,-9636.19,-1732.5,-4.28538,0.833589,-0.601581,9581.12,600.563,2222.32,1.71145,0.324276,-1.07488
0.099,5071.32,-3267.02,7559.79,0.0157874,1.40094,0.0327761,4673.46,3589.78,7618.63,-1.45633,-0.220362,-0.541769,712.308,9403.17,-2414.19,-2.31151,-0.948884,-0.887599,953.924,-9634.76,-2334.24,-0.520605,-0.146623,2.14559,-798.349,9494.78,-2092.14,-0.818373,1.80462,-0.734427,-2390.08,-9624.86,-1763.14,-4.34159,0.834244,-0.562797,9568.02,615.963,2222.27,1.86384,0.35203,-0.958039
0.1,5066.23,-3268.29,7570.13,-0.00424161,1.35123,0.0289279,4684.51,3594.51,7609.15,-1.42575,-0.231335,-0.613891,708.194,9398.47,-2414.87,-2.37806,-0.987639,-0.892305,955.223,-9638.45,-2335.89,-0.594812,-0.179942,2.10891,-794.239,9509.13,-2107.52,-0.799049,1.81352,-0.796368,-2382.7,-9613.53,-1793.77,-4.39781,0.834898,-0.524013,9554.92,631.364,2222.22,2.01623,0.379784,-0.841201
0.101,5061.15,-3269.56,7580.47,-0.0242706,1.30153,0.0250798,4695.57,3599.24,7599.67,-1.39518,-0.242308,-0.686014,704.08,9393.78,-2415.56,-2.44461,-1.02639,-0.897012,956.521,-9642.14,-2337.54,-0.669019,-0.21326,2.07223,-790.13,9523.48,-2122.9,-0.779724,1.82243,-0.85831,-2375.32,-9602.19,-1824.4,-4.45402,0.835553,-0.485228,9541.83,646.765,2222.17,2.16862,0.407538,-0.724362
0.102,5056.07,-3270.83,7590.8,-0.0442996,1.25182,0.0212316,4706.63,3603.96,7590.19,-1.3646,-0.253282,-0.758136,699.965,9389.08,-2416.25,-2.51115,-1.06515,-0.901718,957.819,-9645.83,-2339.18,-0.743227,-0.246578,2.03555,-786.02,9537.82,-2138.28,-0.7604,1.83133,-0.920251,-2367.94,-9590.86,-1855.03,-4.51023,0.836208,-0.446444,9528.73,662.166,2222.12,2.32101,0.435292,-0.607524
0.103,5068.63,-3278.15,7593.4,-0.0703929,1.25068,-0.0219605,4707.28,3593.28,7580.72,-1.40433,-0.2899,-0.749651,711.084,9395.74,-2407.72,-2.54686,-1.10821,-0.912528,945.619,-9646.85,-2334.29,-0.755287,-0.286648,2.08387,-782.732,9534.22,-2141.18,-0.73216,1.7883,-0.951185,-2358.55,-9579.46,-1854.21,-4.55638,0.885224,-0.390353,9529.97,665.91,2215.23,2.23494,0.472621,-0.538387
0.104,5086.23,-3287.19,7593.78,-0.098219,1.26342,-0.0763936,4704.97,3578.19,7571.26,-1.46414,-0.333845,-0.718135,726.555,9405.65,-2396.56,-2.57376,-1.1525,-0.925081,929.563,-9647.1,-2327.53,-0.749592,-0.328646,2.15648,-779.68,9525.5,-2140.53,-0.701373,1.73042,-0.973259,-2348.59,-9568.05,-1844.4,-4.59965,0.948057,-0.329317,9535.31,666.324,2206.38,2.08072,0.512685,-0.482879
0.105,5103.83,-3296.23,7594.16,-0.126045,1.27615,-0.130827,4702.65,3563.1,7561.8,-1.52396,-0.377791,-0.686619,742.026,9415.55,-2385.4,-2.60066,-1.19679,-0.937635,913.506,-9647.36,-2320.76,-0.743896,-0.370645,2.22908,-776.627,9516.77,-2139.87,-0.670586,1.67255,-0.995334,-2338.64,-9556.63,-1834.59,-4.64292,1.01089,-0.268281,9540.64,666.738,2197.53,1.92651,0.552749,-0.427371
0.106,5121.43,-3305.26,7594.55,-0.153871,1.28889,-0.18526,4700.34,3548.02,7552.33,-1.58377,-0.421736,-0.655104,757.497,9425.46,-2374.24,-2.62756,-1.24108,-0.950189,897.449,-9647.61,-2314.0,-0.738201,-0.412643,2.30169,-773.574,9508.04,-2139.22,-0.639799,1.61467,-1.01741,-2328.68,-9545.21,-1824.78,-4.6862,1.07372,-0.207244,9545.98,667.152,2188.68,1.77229,0.592812,-0.371863
0.107,5130.18,-3313.06,7588.58,-0.166602,1.2947,-0.212604,4697.52,3541.24,7550.94,-1.63312,-0.447609,-0.620084,771.624,9430.12,-2376.75,-2.62696,-1.27405,-0.960268,882.487,-9645.53,-2302.75,-0.747971,-0.423393,2.37593,-772.707,9500.32,-2137.15,-0.602571,1.58146,-1.01192,-2324.35,-9537.17,-1815.24,-4.70406,1.14867,-0.174091,9554.83,667.769,2181.56,1.64381,0.647175,-0.317625
0.108,5121.23,-3318.36,7569.93,-0.149142,1.28666,-0.18577,4693.68,3551.08,7565.71,-1.66154,-0.437335,-0.578056,783.062,9424.28,-2406.58,-2.57137,-1.2844,-0.965399,869.715,-9638.75,-2282.54,-0.788673,-0.371644,2.45344,-776.212,9494.61,-2132.27,-0.55246,1.59757,-0.95129,-2331.27,-9535.91,-1806.24,-4.67112,1.24783,-0.196701,9570.69,668.792,2177.89,1.5668,0.730135,-0.265929
0.109,5112.28,-3323.67,7551.28,-0.131682,1.27863,-0.158936,4689.84,3560.92,7580.47,-1.68996,-0.427061,-0.536028,794.501,9418.44,-2436.41,-2.51579,-1.29475,-0.970529,856.942,-9631.98,-2262.33,-0.829374,-0.319896,2.53096,-779.716,9488.91,-2127.39,-0.502348,1.61368,-0.890665,-2338.19,-9534.64,-1797.24,-4.63817,1.347,-0.219312,9586.55,669.816,2174.22,1.48979,0.813094,-0.214233
0.11,5103.33,-3328.97,7532.63,-0.114222,1.27059,-0.132101,4686.0,3570.75,7595.24,-1.71838,-0.416788,-0.494,805.939,9412.6,-2466.23,-2.4602,-1.3051,-0.97566,844.17,-9625.2,-2242.11,-0.870076,-0.268147,2.60847,-783.221,9483.2,-2122.5,-0.452237,1.62979,-0.830039,-2345.11,-9533.37,-1788.25,-4.60523,1.44616,-0.241923,9602.41,670.839,2170.55,1.41278,0.896054,-0.162537
0.111,5094.37,-3334.28,7513.97,-0.0967624,1.26256,-0.105267,4682.16,3580.59,7610.0,-1.7468,-0.406514,-0.451971,817.378,9406.76,-2496.06,-2.40462,-1.31545,-0.98079,831.398,-9618.43,-2221.9,-0.910778,-0.216398,2.68598,-786.726,9477.49,-2117.62,-0.402126,1.64589,-0.769414,-2352.03,-9532.1,-1779.25,-4.57228,1.54533,-0.264534,9618.28,671.862,2166.89,1.33577,0.979014,-0.110841
0.112,5100.48,-3327.41,7521.6,-0.0727177,1.24278,-0.0902857,4680.26,3582.96,7622.82,-1.70485,-0.437636,-0.409947,819.175,9396.87,-2502.83,-2.4022,-1.29361,-1.12959,825.232,-9626.52,-2225.08,-0.882611,-0.136047,2.59349,-800.991,9476.83,-2121.3,-0.40146,1.76931,-0.790773,-2340.87,-9536.89,-1781.87,-4.49844,1.58205,-0.250981,9618.99,663.082,2190.72,1.2162,0.871685,-0.0822523
0.113,5108.48,-3319.03,7532.52,-0.04785,1.22153,-0.0767857,4678.61,3584.39,7635.39,-1.65411,-0.473932,-0.367923,819.767,9386.47,-2506.7,-2.40644,-1.26775,-1.29635,819.893,-9636.47,-2231.19,-0.845836,-0.0521211,2.47976,-816.602,9476.8,-2126.05,-0.406975,1.90614,-0.822381,-2327.45,-9542.42,-1785.95,-4.41948,1.61097,-0.232906,9617.82,653.076,2217.99,1.09131,0.74057,-0.0565518
0.114,5116.47,-3310.64,7543.43,-0.0229823,1.20028,-0.0632857,4676.96,3585.82,7647.97,-1.60337,-0.510229,-0.3259,820.359,9376.07,-2510.58,-2.41068,-1.24189,-1.46311,814.553,-9646.41,-2237.29,-0.80906,0.0318051,2.36602,-832.213,9476.77,-2130.8,-0.41249,2.04297,-0.853989,-2314.03,-9547.96,-1790.02,-4.34052,1.6399,-0.214832,9616.64,643.07,2245.27,0.966414,0.609455,-0.0308513
0.115,5124.46,-3302.26,7554.35,0.0018854,1.17903,-0.0497856,4675.31,3587.26,7660.54,-1.55263,-0.546526,-0.283876,820.951,9365.67,-2514.46,-2.41491,-1.21603,-1.62986,809.214,-9656.36,-2243.4,-0.772285,0.115731,2.25228,-847.824,9476.74,-2135.55,-0.418004,2.1798,-0.885597,-2300.6,-9553.5,-1794.1,-4.26156,1.66882,-0.196758,9615.46,633.065,2272.54,0.841521,0.47834,-0.00515088
0.116,5133.01,-3295.99,7569.94,0.0438687,1.17255,-0.0642883,4687.01,3594.58,7660.38,-1.52508,-0.54292,-0.243764,817.617,9355.62,-2508.84,-2.44612,-1.20226,-1.72557,812.483,-9660.11,-2250.64,-0.737275,0.143691,2.15123,-851.579,9466.98,-2134.89,-0.412115,2.26867,-0.881334,-2289.65,-9556.98,-1798.31,-4.1901,1.68359,-0.148536,9627.94,628.13,2281.35,0.728367,0.454754,0.0221427
0.117,5142.27,-3292.36,7591.37,0.107247,1.18451,-0.113794,4715.37,3609.28,7644.3,-1.52651,-0.489436,-0.206042,809.375,9346.01,-2491.34,-2.51105,-1.20361,-1.73245,826.515,-9656.13,-2259.3,-0.704472,0.101692,2.06603,-840.515,9445.06,-2127.48,-0.39197,2.29759,-0.832233,-2281.8,-9557.86,-1802.68,-4.12803,1.68067,-0.0626287,9657.48,629.535,2267.09,0.629887,0.56558,0.0514278
0.118,5151.53,-3288.74,7612.8,0.170624,1.19647,-0.1633,4743.74,3623.97,7628.23,-1.52795,-0.435952,-0.16832,801.134,9336.4,-2473.84,-2.57599,-1.20497,-1.73933,840.546,-9652.14,-2267.96,-0.671669,0.0596939,1.98083,-829.45,9423.13,-2120.08,-0.371824,2.32651,-0.783133,-2273.94,-9558.75,-1807.05,-4.06596,1.67776,0.0232784,9687.03,630.939,2252.83,0.531408,0.676406,0.0807128
0.119,5160.79,-3285.11,7634.23,0.234002,1.20844,-0.212806,4772.11,3638.66,7612.15,-1.52938,-0.382468,-0.130598,792.892,9326.79,-2456.35,-2.64092,-1.20632,-1.74621,854.577,-9648.16,-2276.62,-0.638865,0.0176953,1.89563,-818.386,9401.21,-2112.67,-0.351679,2.35543,-0.734032,-2266.08,-9559.64,-1811.43,-4.00388,1.67484,0.109186,9716.57,632.344,2238.57,0.432928,0.787232,0.109998
0.12,5170.05,-3281.49,7655.66,0.29738,1.2204,-0.262312,4800.48,3653.35,7596.07,-1.53082,-0.328984,-0.0928766,784.651,9317.18,-2438.85,-2.70585,-1.20768,-1.75309,868.608,-9644.17,-2285.28,-0.606062,-0.0243033,1.81043,-807.321,9379.28,-2105.26,-0.331534,2.38435,-0.684932,-2258.22,-9560.53,-1815.8,-3.94181,1.67193,0.195093,9746.12,633.748,2224.3,0.334449,0.898057,0.139283
0.121,5153.71,-3275.13,7641.45,0.310511,1.27663,-0.3178,4804.24,3670.88,7581.38,-1.59433,-0.330529,-0.204379,772.061,9340.77,-2425.47,-2.73491,-1.238,-1.65328,881.848,-9649.82,-2289.04,-0.640731,-0.0329555,1.80713,-802.958,9385.21,-2122.65,-0.347548,2.42313,-0.649581,-2261.43,-9556.34,-1804.67,-3.96913,1.70276,0.28362,9741.58,609.356,2218.83,0.383126,0.782344,0.23151
0.122,5137.38,-3268.76,7627.23,0.323641,1.33286,-0.373287,4807.99,3688.42,7566.69,-1.65784,-0.332075,-0.315881,759.471,9364.37,-2412.08,-2.76396,-1.26832,-1.55347,895.087,-9655.48,-2292.8,-0.675399,-0.0416077,1.80382,-798.594,9391.13,-2140.04,-0.363562,2.46191,-0.61423,-2264.64,-9552.14,-1793.54,-3.99645,1.73359,0.372147,9737.04,584.964,2213.35,0.431803,0.66663,0.323737
0.123,5121.05,-3262.4,7613.01,0.336772,1.38909,-0.428775,4811.75,3705.95,7552.0,-1.72136,-0.333621,-0.427383,746.881,9387.96,-2398.69,-2.79302,-1.29864,-1.45366,908.327,-9661.13,-2296.56,-0.710067,-0.05026,1.80052,-794.231,9397.05,-2157.42,-0.379576,2.50069,-0.578879,-2267.85,-9547.95,-1782.42,-4.02378,1.76441,0.460674,9732.5,560.572,2207.87,0.48048,0.550916,0.415963
0.124,5104.72,-3256.04,7598.8,0.349903,1.44532,-0.484262,4815.5,3723.49,7537.31,-1.78487,-0.335167,-0.538885,734.291,9411.56,-2385.31,-2.82208,-1.32896,-1.35385,921.566,-9666.78,-2300.32,-0.744735,-0.0589122,1.79721,-789.868,9402.98,-2174.81,-0.395591,2.53947,-0.543528,-2271.06,-9543.76,-1771.29,-4.0511,1.79524,0.549201,9727.96,536.18,2202.39,0.529157,0.435203,0.50819
0.125,5102.09,-3262.1,7584.33,0.349409,1.48792,-0.526125,4807.41,3714.86,7535.93,-1.81177,-0.290354,-0.61697,726.311,9422.37,-2377.43,-2.86432,-1.37486,-1.34242,939.062,-9669.97,-2304.92,-0.779621,-0.0780439,1.78066,-781.123,9406.12,-2175.85,-0.39833,2.54763,-0.48531,-2279.64,-9541.61,-1774.38,-4.06843,1.79788,0.593605,9722.7,529.321,2195.67,0.585954,0.359378,0.550567
0.126,5110.41,-3278.1,7569.65,0.338015,1.51962,-0.557087,4789.83,3685.29,7545.19,-1.80937,-0.208455,-0.668319,722.017,9422.96,-2373.94,-2.91712,-1.4332,-1.4017,959.964,-9671.18,-2310.21,-0.81468,-0.105559,1.75351,-768.874,9407.04,-2163.81,-0.390451,2.53129,-0.408798,-2292.52,-9541.09,-1788.84,-4.07777,1.77795,0.60271,9716.86,536.489,2187.95,0.649246,0.315463,0.553063
0.127,5118.73,-3294.1,7554.98,0.326621,1.55132,-0.588049,4772.25,3655.72,7554.44,-1.80698,-0.126557,-0.719669,717.724,9423.54,-2370.46,-2.96991,-1.49155,-1.46098,980.865,-9672.39,-2315.49,-0.84974,-0.133074,1.72636,-756.625,9407.96,-2151.78,-0.382571,2.51495,-0.332286,-2305.4,-9540.58,-1803.31,-4.0871,1.75802,0.611815,9711.02,543.657,2180.24,0.712539,0.271549,0.555559
0.128,5127.05,-3310.1,7540.3,0.315228,1.58303,-0.619012,4754.68,3626.16,7563.7,-1.80459,-0.0446579,-0.771019,713.43,9424.12,-2366.97,-3.02271,-1.5499,-1.52026,1001.77,-9673.61,-2320.77,-0.884799,-0.16059,1.6992,-744.375,9408.89,-2139.74,-0.374692,2.49861,-0.255774,-2318.29,-9540.06,-1817.77,-4.09644,1.73809,0.620921,9705.19,550.825,2172.52,0.775831,0.227635,0.558055
0.129,5136.87,-3325.17,7528.01,0.303252,1.60967,-0.634213,4737.98,3599.07,7572.69,-1.79459,0.0234557,-0.818012,710.135,9425.01,-2363.29,-3.06789,-1.60236,-1.58013,1018.84,-9675.1,-2326.19,-0.911864,-0.182365,1.67228,-732.388,9411.29,-2128.61,-0.36409,2.4764,-0.198316,-2331.35,-9539.46,-1829.65,-4.10937,1.71113,0.628144,9699.25,556.707,2168.02,0.83077,0.22296,0.563579
0.13,5158.65,-3332.81,7534.76,0.286617,1.59579,-0.523322,4728.34,3591.88,7579.52,-1.72379,-0.0187117,-0.830153,714.824,9428.29,-2357.99,-3.05211,-1.60773,-1.64475,1005.3,-9678.86,-2332.66,-0.87498,-0.158223,1.64722,-722.499,9425.53,-2124.7,-0.331712,2.40719,-0.293289,-2345.85,-9538.18,-1820.86,-4.15104,1.62789,0.620317,9692.45,552.3,2189.23,0.818879,0.532205,0.593318
0.131,5180.43,-3340.45,7541.51,0.269982,1.58192,-0.412432,4718.69,3584.69,7586.34,-1.65299,-0.0608792,-0.842295,719.514,9431.56,-2352.69,-3.03633,-1.61309,-1.70937,991.766,-9682.61,-2339.12,-0.838095,-0.13408,1.62215,-712.61,9439.78,-2120.79,-0.299334,2.33798,-0.388263,-2360.35,-9536.91,-1812.06,-4.1927,1.54465,0.61249,9685.66,547.893,2210.43,0.806987,0.841449,0.623058
0.132,5202.2,-3348.09,7548.26,0.253347,1.56805,-0.301542,4709.04,3577.5,7593.17,-1.58219,-0.103047,-0.854436,724.203,9434.84,-2347.4,-3.02055,-1.61846,-1.774,978.227,-9686.37,-2345.59,-0.80121,-0.109938,1.59709,-702.721,9454.02,-2116.88,-0.266955,2.26877,-0.483237,-2374.84,-9535.63,-1803.27,-4.23437,1.46141,0.604662,9678.87,543.486,2231.64,0.795095,1.15069,0.652797
0.133,5223.98,-3355.73,7555.0,0.236712,1.55418,-0.190652,4699.4,3570.3,7599.99,-1.51139,-0.145214,-0.866577,728.893,9438.12,-2342.1,-3.00478,-1.62383,-1.83862,964.689,-9690.13,-2352.06,-0.764325,-0.0857952,1.57202,-692.832,9468.26,-2112.97,-0.234577,2.19956,-0.57821,-2389.34,-9534.36,-1794.47,-4.27604,1.37817,0.596835,9672.07,539.08,2252.85,0.783204,1.45994,0.682537
0.134,5226.8,-3341.89,7554.81,0.218311,1.57415,-0.137016,4700.13,3575.05,7597.65,-1.4792,-0.241712,-0.802519,722.569,9433.36,-2343.05,-2.98868,-1.58768,-1.89669,948.83,-9683.87,-2354.13,-0.756506,-0.0585714,1.59537,-697.537,9470.52,-2123.26,-0.217676,2.13652,-0.624814,-2390.7,-9525.52,-1781.34,-4.27687,1.33599,0.635348,9669.97,551.267,2247.59,0.806941,1.56499,0.747905
0.135,5220.13,-3317.3,7551.14,0.199027,1.61103,-0.112007,4706.05,3585.77,7590.72,-1.46633,-0.365376,-0.700361,710.738,9424.57,-2347.12,-2.97242,-1.53079,-1.95149,931.81,-9672.62,-2354.01,-0.76322,-0.029807,1.64293,-709.539,9466.79,-2140.66,-0.208513,2.07657,-0.647233,-2385.48,-9512.88,-1766.04,-4.25728,1.31434,0.69703,9670.2,571.751,2229.1,0.848493,1.56794,0.831088
0.136,5213.46,-3292.71,7547.48,0.179743,1.64792,-0.0869972,4711.97,3596.49,7583.79,-1.45346,-0.48904,-0.598204,698.907,9415.79,-2351.2,-2.95617,-1.47389,-2.00629,914.79,-9661.36,-2353.89,-0.769934,-0.00104258,1.69049,-721.541,9463.06,-2158.05,-0.19935,2.01662,-0.669652,-2380.26,-9500.25,-1750.74,-4.23769,1.29269,0.758713,9670.44,592.234,2210.62,0.890045,1.57089,0.914271
0.137,5206.79,-3268.13,7543.81,0.160459,1.68481,-0.0619878,4717.89,3607.2,7576.86,-1.44059,-0.612704,-0.496046,687.076,9407.0,-2355.27,-2.93991,-1.41699,-2.06109,897.77,-9650.1,-2353.77,-0.776648,0.0277218,1.73805,-733.543,9459.33,-2175.45,-0.190187,1.95667,-0.692071,-2375.05,-9487.62,-1735.44,-4.21809,1.27103,0.820396,9670.68,612.718,2192.13,0.931596,1.57384,0.997454
0.138,5195.06,-3251.95,7542.74,0.151936,1.70597,-0.0667667,4723.22,3615.04,7572.91,-1.44872,-0.689091,-0.424676,680.943,9399.23,-2356.99,-2.9349,-1.3929,-2.10825,884.807,-9637.37,-2355.12,-0.782981,0.0307602,1.77954,-747.55,9455.83,-2185.15,-0.180977,1.9269,-0.685796,-2368.54,-9477.99,-1726.72,-4.2036,1.24133,0.875423,9672.01,633.046,2179.05,0.964096,1.58821,1.07289
0.139,5165.6,-3265.19,7550.76,0.181075,1.6721,-0.175805,4726.53,3612.77,7579.38,-1.53037,-0.600007,-0.461061,694.752,9395.03,-2350.46,-2.96925,-1.48362,-2.1287,886.043,-9619.48,-2361.62,-0.787982,-0.0562422,1.79979,-768.573,9453.2,-2167.92,-0.171604,2.00276,-0.579093,-2357.49,-9478.85,-1741.07,-4.20695,1.18344,0.907156,9677.17,652.826,2184.88,0.964913,1.64257,1.12122
0.14,5136.14,-3278.44,7558.77,0.210215,1.63824,-0.284843,4729.84,3610.5,7585.85,-1.61202,-0.510924,-0.497447,708.561,9390.83,-2343.94,-3.00359,-1.57434,-2.14915,887.279,-9601.58,-2368.11,-0.792982,-0.143245,1.82004,-789.596,9450.57,-2150.7,-0.162231,2.07862,-0.472389,-2346.45,-9479.71,-1755.41,-4.21029,1.12555,0.938888,9682.34,672.606,2190.7,0.96573,1.69694,1.16954
0.141,5106.69,-3291.68,7566.79,0.239354,1.60437,-0.393881,4733.15,3608.22,7592.33,-1.69367,-0.42184,-0.533833,722.369,9386.62,-2337.41,-3.03794,-1.66507,-2.1696,888.515,-9583.69,-2374.6,-0.797982,-0.230247,1.84029,-810.62,9447.93,-2133.47,-0.152857,2.15447,-0.365686,-2335.41,-9480.57,-1769.75,-4.21364,1.06766,0.97062,9687.5,692.387,2196.53,0.966547,1.7513,1.21787
0.142,5077.23,-3304.93,7574.8,0.268493,1.5705,-0.502919,4736.46,3605.95,7598.8,-1.77532,-0.332757,-0.570218,736.178,9382.42,-2330.88,-3.07229,-1.75579,-2.19005,889.751,-9565.8,-2381.1,-0.802982,-0.31725,1.86055,-831.643,9445.3,-2116.25,-0.143484,2.23033,-0.258983,-2324.37,-9481.42,-1784.1,-4.21698,1.00977,1.00235,9692.66,712.167,2202.36,0.967364,1.80566,1.26619
0.143,5076.68,-3320.3,7577.95,0.29092,1.58267,-0.515431,4742.13,3596.61,7597.54,-1.74869,-0.258204,-0.536905,744.704,9391.36,-2348.28,-3.04749,-1.84447,-2.12912,892.233,-9557.18,-2374.09,-0.799558,-0.323874,1.79483,-837.0,9450.67,-2109.7,-0.241303,2.17778,-0.182643,-2337.27,-9490.03,-1792.03,-4.26482,0.910488,1.01364,9680.08,706.116,2219.18,1.00592,1.71345,1.34767
0.144,5084.39,-3336.27,7579.7,0.311429,1.60799,-0.500364,4748.48,3585.23,7594.07,-1.69113,-0.187804,-0.483678,751.72,9404.07,-2372.5,-3.0058,-1.93256,-2.04492,895.072,-9551.2,-2363.23,-0.793727,-0.307534,1.70454,-837.882,9458.34,-2106.21,-0.369749,2.08854,-0.114979,-2357.01,-9500.85,-1798.14,-4.32537,0.799374,1.01909,9662.42,692.684,2239.13,1.05525,1.57937,1.43861
0.145,5092.1,-3352.25,7581.45,0.331938,1.63331,-0.485297,4754.83,3573.86,7590.61,-1.63356,-0.117404,-0.430452,758.736,9416.77,-2396.73,-2.96411,-2.02066,-1.96073,897.91,-9545.23,-2352.37,-0.787896,-0.291194,1.61426,-838.764,9466.0,-2102.71,-0.498194,1.9993,-0.0473153,-2376.75,-9511.67,-1804.24,-4.38592,0.68826,1.02453,9644.76,679.252,2259.09,1.10459,1.44529,1.52955
0.146,5099.81,-3368.22,7583.21,0.352447,1.65863,-0.47023,4761.18,3562.49,7587.14,-1.576,-0.0470034,-0.377225,765.753,9429.47,-2420.95,-2.92242,-2.10875,-1.87654,900.749,-9539.25,-2341.51,-0.782065,-0.274853,1.52398,-839.646,9473.67,-2099.22,-0.62664,1.91006,0.0203486,-2396.49,-9522.5,-1810.35,-4.44647,0.577146,1.02998,9627.11,665.82,2279.04,1.15392,1.3112,1.6205
0.147,5106.31,-3375.05,7583.1,0.357233,1.70492,-0.445591,4762.49,3557.48,7587.13,-1.51216,-0.0256526,-0.354592,770.226,9442.16,-2436.21,-2.89537,-2.17943,-1.81263,905.706,-9541.02,-2334.18,-0.800472,-0.276384,1.44372,-836.835,9477.15,-2090.97,-0.696879,1.85636,-0.00388656,-2408.08,-9533.71,-1815.97,-4.4712,0.468234,1.05168,9620.6,654.332,2288.92,1.20038,1.25159,1.67726
0.148,5110.37,-3363.59,7579.27,0.330572,1.79314,-0.40181,4753.71,3565.17,7594.03,-1.43578,-0.102401,-0.39315,769.612,9454.79,-2433.54,-2.89759,-2.21528,-1.78928,914.902,-9558.26,-2333.93,-0.867356,-0.313657,1.38352,-826.639,9472.28,-2073.21,-0.650708,1.87374,-0.21192,-2403.37,-9545.69,-1820.61,-4.42428,0.363725,1.10588,9636.4,646.732,2278.63,1.24107,1.34091,1.66568
0.149,5114.44,-3352.12,7575.45,0.303911,1.88135,-0.358029,4744.93,3572.86,7600.93,-1.3594,-0.17915,-0.431707,768.999,9467.42,-2430.87,-2.89981,-2.25114,-1.76592,924.097,-9575.5,-2333.68,-0.934239,-0.35093,1.32333,-816.443,9467.42,-2055.45,-0.604536,1.89111,-0.419953,-2398.67,-9557.68,-1825.25,-4.37737,0.259216,1.16008,9652.19,639.132,2268.35,1.28176,1.43023,1.6541
0.15,5118.5,-3340.66,7571.62,0.27725,1.96957,-0.314248,4736.15,3580.56,7607.82,-1.28301,-0.255898,-0.470264,768.385,9480.06,-2428.2,-2.90203,-2.28699,-1.74257,933.293,-9592.75,-2333.42,-1.00112,-0.388202,1.26313,-806.247,9462.55,-2037.69,-0.558365,1.90849,-0.627986,-2393.97,-9569.67,-1829.89,-4.33045,0.154708,1.21428,9667.99,631.531,2258.06,1.32245,1.51955,1.64251
0.151,5122.56,-3329.2,7567.79,0.250589,2.05779,-0.270467,4727.37,3588.25,7614.72,-1.20663,-0.332646,-0.508822,767.772,9492.69,-2425.53,-2.90425,-2.32284,-1.71922,942.488,-9609.99,-2333.17,-1.06801,-0.425475,1.20293,-796.05,9457.68,-2019.93,-0.512193,1.92587,-0.836019,-2389.26,-9581.66,-1834.53,-4.28354,0.0501989,1.26848,9683.78,623.931,2247.78,1.36314,1.60887,1.63093
0.152,5123.71,-3322.81,7569.55,0.170504,1.965,-0.405768,4713.57,3593.37,7618.92,-1.21172,-0.333959,-0.51013,761.654,9488.27,-2409.88,-2.87502,-2.32966,-1.73942,943.12,-9617.47,-2342.47,-1.11204,-0.554071,1.17062,-787.294,9469.84,-2033.59,-0.475302,2.00897,-0.891799,-2387.32,-9586.57,-1825.31,-4.21026,0.000270654,1.28844,9682.78,639.291,2250.0,1.43265,1.60314,1.66664
0.153,5124.49,-3317.06,7572.0,0.0837416,1.84958,-0.563455,4699.14,3598.16,7622.77,-1.22699,-0.325843,-0.506782,754.849,9481.72,-2392.61,-2.84186,-2.33285,-1.76506,942.681,-9623.72,-2352.97,-1.15323,-0.694082,1.14179,-778.718,9484.12,-2051.19,-0.439572,2.10028,-0.928547,-2385.72,-9590.6,-1814.35,-4.13369,-0.042835,1.30413,9679.68,657.521,2253.79,1.50577,1.58553,1.70828
0.154,5125.27,-3311.31,7574.46,-0.00302107,1.73416,-0.721141,4684.72,3602.95,7626.62,-1.24226,-0.317726,-0.503434,748.043,9475.16,-2375.34,-2.80869,-2.33604,-1.79071,942.242,-9629.98,-2363.47,-1.19441,-0.834093,1.11297,-770.142,9498.41,-2068.78,-0.403841,2.1916,-0.965295,-2384.12,-9594.63,-1803.4,-4.05712,-0.0859407,1.31981,9676.58,675.751,2257.58,1.57889,1.56792,1.74991
0.155,5126.05,-3305.55,7576.91,-0.0897837,1.61875,-0.878828,4670.29,3607.74,7630.48,-1.25753,-0.309609,-0.500086,741.237,9468.61,-2358.08,-2.77553,-2.33923,-1.81635,941.803,-9636.24,-2373.96,-1.23559,-0.974104,1.08415,-761.566,9512.69,-2086.38,-0.368111,2.28291,-1.00204,-2382.53,-9598.65,-1792.44,-3.98055,-0.129046,1.3355,9673.47,693.981,2261.37,1.652,1.55031,1.79154
0.156,5128.59,-3297.08,7585.97,-0.109857,1.58643,-0.963269,4664.54,3609.1,7628.98,-1.25795,-0.286894,-0.496319,736.674,9459.77,-2349.59,-2.77509,-2.30546,-1.86121,934.134,-9644.51,-2375.69,-1.24505,-1.1259,1.02361,-755.82,9513.58,-2099.69,-0.350046,2.36619,-1.00738,-2386.98,-9597.5,-1779.82,-3.95639,-0.211451,1.33183,9665.28,698.916,2249.28,1.70485,1.54983,1.82062
0.157,5133.33,-3285.22,7603.28,-0.0465681,1.65798,-0.956153,4669.62,3606.16,7620.81,-1.23981,-0.245932,-0.492028,734.916,9448.07,-2352.09,-2.81556,-2.22551,-1.93008,917.428,-9655.31,-2366.45,-1.21487,-1.29242,0.923418,-753.613,9497.7,-2107.64,-0.354065,2.43942,-0.973442,-2398.98,-9589.88,-1765.12,-3.99773,-0.342978,1.30398,9650.72,687.233,2217.34,1.73237,1.57077,1.83402
0.158,5138.07,-3273.35,7620.59,0.0167207,1.72952,-0.949037,4674.7,3603.22,7612.64,-1.22167,-0.204969,-0.487738,733.157,9436.38,-2354.59,-2.85602,-2.14556,-1.99895,900.723,-9666.11,-2357.21,-1.18469,-1.45894,0.82323,-751.406,9481.83,-2115.59,-0.358083,2.51265,-0.939508,-2410.99,-9582.26,-1750.43,-4.03908,-0.474506,1.27612,9636.16,675.55,2185.4,1.75989,1.5917,1.84742
0.159,5142.81,-3261.48,7637.9,0.0800095,1.80107,-0.941921,4679.78,3600.29,7604.46,-1.20353,-0.164007,-0.483447,731.399,9424.68,-2357.09,-2.89648,-2.06561,-2.06782,884.017,-9676.91,-2347.97,-1.15451,-1.62546,0.723043,-749.198,9465.95,-2123.55,-0.362102,2.58587,-0.905574,-2423.0,-9574.64,-1735.73,-4.08043,-0.606034,1.24826,9621.6,663.867,2153.46,1.7874,1.61264,1.86082
0.16,5147.55,-3249.62,7655.21,0.143298,1.87262,-0.934805,4684.86,3597.35,7596.29,-1.18539,-0.123044,-0.479156,729.64,9412.98,-2359.58,-2.93695,-1.98566,-2.13669,867.312,-9687.71,-2338.73,-1.12432,-1.79198,0.622855,-746.991,9450.08,-2131.5,-0.36612,2.6591,-0.871639,-2435.01,-9567.02,-1721.03,-4.12178,-0.737561,1.2204,9607.04,652.184,2121.51,1.81492,1.63357,1.87422
0.161,5137.66,-3255.23,7644.07,0.109606,1.82446,-0.898542,4686.75,3605.4,7594.32,-1.21118,-0.139555,-0.48894,731.882,9411.07,-2358.9,-3.02726,-1.91359,-2.2383,850.341,-9689.72,-2338.96,-1.12297,-1.91935,0.478629,-754.008,9444.0,-2152.11,-0.336311,2.68857,-0.867733,-2414.33,-9562.24,-1720.34,-4.24622,-1.04368,1.2204,9610.49,649.177,2148.72,1.78266,1.63476,1.90042
0.162,5127.77,-3260.85,7632.93,0.075913,1.77629,-0.862279,4688.63,3613.46,7592.34,-1.23697,-0.156067,-0.498724,734.124,9409.16,-2358.22,-3.11756,-1.84151,-2.33991,833.37,-9691.73,-2339.2,-1.12161,-2.04671,0.334403,-761.026,9437.93,-2172.71,-0.306502,2.71803,-0.863828,-2393.65,-9557.45,-1719.64,-4.37067,-1.34981,1.2204,9613.95,646.171,2175.93,1.7504,1.63595,1.92663
0.163,5117.88,-3266.46,7621.8,0.0422204,1.72813,-0.826016,4690.52,3621.52,7590.37,-1.26276,-0.172578,-0.508508,736.365,9407.25,-2357.54,-3.20787,-1.76943,-2.44152,816.399,-9693.75,-2339.44,-1.12026,-2.17408,0.190176,-768.044,9431.85,-2193.32,-0.276694,2.7475,-0.859922,-2372.97,-9552.67,-1718.95,-4.49511,-1.65593,1.2204,9617.4,643.164,2203.14,1.71814,1.63714,1.95283
0.164,5107.99,-3272.08,7610.66,0.00852778,1.67997,-0.789753,4692.41,3629.57,7588.4,-1.28855,-0.189089,-0.518293,738.607,9405.34,-2356.86,-3.29818,-1.69736,-2.54313,799.428,-9695.76,-2339.67,-1.1189,-2.30144,0.0459498,-775.061,9425.78,-2213.93,-0.246885,2.77697,-0.856016,-2352.29,-9547.89,-1718.25,-4.61955,-1.96205,1.2204,9620.85,640.157,2230.34,1.68588,1.63833,1.97903
0.165,5102.36,-3269.41,7602.77,-0.00750881,1.63719,-0.786597,4682.4,3633.18,7589.76,-1.31633,-0.214312,-0.514947,732.953,9405.12,-2360.91,-3.29936,-1.68653,-2.58137,801.943,-9691.57,-2338.11,-1.12344,-2.42292,-0.0359699,-785.363,9439.51,-2212.82,-0.255228,2.80333,-0.820784,-2337.57,-9544.47,-1720.34,-4.67656,-2.16256,1.19223,9618.86,643.599,2233.15,1.6529,1.6048,2.10371
0.166,5100.13,-3260.11,7597.47,-0.00942058,1.5987,-0.809925,4662.88,3633.22,7593.79,-1.3457,-0.246503,-0.501098,720.983,9406.26,-2368.73,-3.22924,-1.7247,-2.56892,820.047,-9682.42,-2335.11,-1.13268,-2.53969,-0.0680443,-798.294,9469.09,-2194.34,-0.294093,2.82722,-0.760491,-2327.6,-9542.15,-1724.66,-4.67961,-2.27858,1.14152,9612.5,652.199,2216.42,1.61935,1.5435,2.30718
0.167,5097.9,-3250.81,7592.18,-0.0113324,1.56021,-0.833254,4643.35,3633.27,7597.82,-1.37506,-0.278694,-0.487249,709.012,9407.4,-2376.55,-3.15913,-1.76288,-2.55646,838.15,-9673.27,-2332.12,-1.14192,-2.65645,-0.100119,-811.224,9498.67,-2175.87,-0.332957,2.85112,-0.700198,-2317.64,-9539.83,-1728.98,-4.68266,-2.3946,1.09081,9606.15,660.8,2199.7,1.5858,1.48219,2.51065
0.168,5095.67,-3241.51,7586.88,-0.0132441,1.52173,-0.856582,4623.83,3633.31,7601.85,-1.40443,-0.310886,-0.4734,697.042,9408.54,-2384.37,-3.08901,-1.80105,-2.54401,856.254,-9664.12,-2329.12,-1.15116,-2.77322,-0.132193,-824.154,9528.24,-2157.39,-0.371822,2.87501,-0.639904,-2307.67,-9537.51,-1733.29,-4.68571,-2.51062,1.0401,9599.79,669.4,2182.98,1.55225,1.42089,2.71411
0.169,5094.51,-3232.08,7582.77,-0.0151775,1.48953,-0.866536,4606.75,3632.48,7606.83,-1.42517,-0.328943,-0.456101,687.422,9410.97,-2393.01,-3.03144,-1.83673,-2.53182,873.016,-9653.74,-2326.78,-1.15616,-2.90067,-0.157592,-834.027,9552.15,-2141.47,-0.401639,2.89932,-0.586115,-2299.23,-9536.58,-1736.16,-4.68328,-2.62176,0.994098,9595.34,676.957,2167.46,1.53543,1.37676,2.89409
0.17,5101.87,-3221.61,7588.22,-0.0172836,1.50768,-0.769493,4609.15,3624.61,7619.49,-1.37692,-0.233925,-0.411201,696.613,9423.73,-2408.2,-3.07426,-1.85247,-2.52182,879.053,-9633.59,-2329.77,-1.12721,-3.11354,-0.12959,-819.442,9530.65,-2146.0,-0.359073,2.927,-0.584354,-2302.95,-9546.82,-1727.44,-4.63696,-2.69391,0.985719,9606.07,676.169,2161.52,1.65243,1.46997,2.8862
0.171,5109.24,-3211.14,7593.66,-0.0193897,1.52582,-0.672451,4611.55,3616.74,7632.15,-1.32866,-0.138906,-0.366301,705.803,9436.48,-2423.4,-3.11707,-1.86822,-2.51182,885.09,-9613.44,-2332.76,-1.09825,-3.32641,-0.101588,-804.857,9509.15,-2150.54,-0.316507,2.95469,-0.582593,-2306.66,-9557.06,-1718.72,-4.59065,-2.76605,0.97734,9616.79,675.381,2155.58,1.76942,1.56318,2.8783
0.172,5116.61,-3200.67,7599.1,-0.0214958,1.54397,-0.575408,4613.95,3608.87,7644.8,-1.28041,-0.0438881,-0.321401,714.994,9449.23,-2438.59,-3.15989,-1.88396,-2.50182,891.128,-9593.29,-2335.74,-1.0693,-3.53928,-0.0735859,-790.271,9487.65,-2155.07,-0.273942,2.98237,-0.580832,-2310.38,-9567.29,-1710.01,-4.54433,-2.8382,0.968961,9627.52,674.592,2149.64,1.88642,1.6564,2.8704
0.173,5123.98,-3190.19,7604.54,-0.0236019,1.56211,-0.478366,4616.36,3601.0,7657.46,-1.23216,0.0511301,-0.276501,724.184,9461.98,-2453.79,-3.2027,-1.8997,-2.49182,897.165,-9573.14,-2338.73,-1.04035,-3.75216,-0.0455837,-775.686,9466.16,-2159.6,-0.231376,3.01006,-0.579071,-2314.09,-9577.53,-1701.29,-4.49801,-2.91034,0.960582,9638.25,673.804,2143.7,2.00342,1.74961,2.86251
0.174,5125.1,-3188.68,7596.23,0.0286366,1.51896,-0.448199,4619.15,3596.43,7650.04,-1.19627,0.0809623,-0.294754,732.647,9465.82,-2455.25,-3.21538,-1.86052,-2.483,896.859,-9570.34,-2352.86,-0.996077,-3.94482,-0.0572736,-776.743,9461.74,-2143.51,-0.168669,3.00349,-0.569543,-2310.17,-9602.07,-1703.65,-4.48844,-3.00773,1.03938,9641.55,669.332,2124.64,2.11773,1.85774,2.88488
0.175,5123.11,-3191.65,7581.03,0.108047,1.44516,-0.451469,4622.13,3593.51,7632.59,-1.16658,0.0782014,-0.344584,740.746,9465.2,-2449.85,-3.21299,-1.79387,-2.47477,893.381,-9576.22,-2372.55,-0.944151,-4.12738,-0.0888095,-785.622,9465.85,-2117.11,-0.0958901,2.97981,-0.556131,-2302.44,-9633.77,-1711.55,-4.49724,-3.11774,1.16177,9641.15,663.018,2099.03,2.23071,1.97331,2.92239
0.176,5121.12,-3194.61,7565.83,0.187458,1.37136,-0.45474,4625.11,3590.59,7615.14,-1.13688,0.0754405,-0.394413,748.845,9464.58,-2444.44,-3.2106,-1.72722,-2.46654,889.904,-9582.1,-2392.24,-0.892224,-4.30994,-0.120345,-794.5,9469.97,-2090.7,-0.0231115,2.95612,-0.542719,-2294.7,-9665.46,-1719.44,-4.50604,-3.22775,1.28417,9640.74,656.703,2073.42,2.34369,2.08889,2.95991
0.177,5119.12,-3197.58,7550.64,0.266869,1.29756,-0.45801,4628.1,3587.67,7597.69,-1.10719,0.0726796,-0.444243,756.944,9463.96,-2439.04,-3.20821,-1.66057,-2.45831,886.426,-9587.97,-2411.93,-0.840298,-4.4925,-0.151881,-803.379,9474.09,-2064.3,0.0496671,2.93244,-0.529307,-2286.96,-9697.16,-1727.34,-4.51485,-3.33777,1.40656,9640.33,650.389,2047.81,2.45666,2.20446,2.99742
0.178,5119.91,-3204.61,7538.67,0.351984,1.25504,-0.449611,4631.78,3585.94,7583.85,-1.09826,0.0725535,-0.504799,763.0,9459.93,-2430.38,-3.19742,-1.60717,-2.45961,885.544,-9593.67,-2424.79,-0.821447,-4.61887,-0.186589,-813.241,9479.53,-2049.57,0.0847223,2.91633,-0.521956,-2280.89,-9722.07,-1733.89,-4.53645,-3.41577,1.50275,9638.34,646.895,2031.41,2.55757,2.30242,3.02233
0.179,5130.44,-3225.88,7537.99,0.457064,1.32197,-0.400365,4637.89,3588.42,7582.68,-1.162,0.0816492,-0.602898,761.91,9443.94,-2410.33,-3.15722,-1.60018,-2.49431,893.747,-9598.75,-2413.76,-0.918362,-4.5486,-0.232399,-826.543,9489.57,-2075.67,-0.0122539,2.92673,-0.535818,-2280.65,-9723.25,-1735.69,-4.60284,-3.38177,1.50723,9630.8,653.269,2047.25,2.61622,2.33871,3.00315
0.18,5140.98,-3247.15,7537.31,0.562143,1.3889,-0.35112,4644.01,3590.89,7581.5,-1.22575,0.0907449,-0.700997,760.819,9427.95,-2390.27,-3.11703,-1.59319,-2.52901,901.949,-9603.83,-2402.74,-1.01528,-4.47833,-0.278209,-839.846,9499.61,-2101.77,-0.10923,2.93714,-0.549681,-2280.41,-9724.42,-1737.48,-4.66924,-3.34776,1.51171,9623.26,659.644,2063.09,2.67488,2.37499,2.98397
0.181,5151.51,-3268.41,7536.63,0.667223,1.45583,-0.301875,4650.12,3593.36,7580.32,-1.2895,0.0998407,-0.799096,759.729,9411.96,-2370.22,-3.07683,-1.58619,-2.5637,910.152,-9608.91,-2391.71,-1.11219,-4.40806,-0.324019,-853.149,9509.65,-2127.87,-0.206206,2.94755,-0.563543,-2280.17,-9725.6,-1739.28,-4.73563,-3.31375,1.51619,9615.72,666.019,2078.93,2.73353,2.41128,2.9648
0.182,5162.04,-3289.68,7535.94,0.772302,1.52276,-0.25263,4656.24,3595.83,7579.14,-1.35324,0.108936,-0.897194,758.638,9395.96,-2350.17,-3.03663,-1.5792,-2.5984,918.354,-9613.99,-2380.68,-1.20911,-4.33779,-0.369828,-866.451,9519.7,-2153.98,-0.303183,2.95795,-0.577405,-2279.93,-9726.78,-1741.08,-4.80203,-3.27974,1.52067,9608.19,672.393,2094.77,2.79219,2.44757,2.94562
0.183,5161.4,-3294.16,7537.67,0.793197,1.59094,-0.33772,4661.18,3602.31,7580.43,-1.33842,0.129606,-0.866798,753.85,9404.4,-2349.46,-3.03851,-1.54276,-2.67096,911.052,-9602.34,-2388.17,-1.21204,-4.29193,-0.363835,-854.787,9505.85,-2155.5,-0.353333,3.02263,-0.634683,-2285.9,-9715.1,-1733.35,-4.78817,-3.28708,1.41218,9600.77,664.261,2094.44,2.92642,2.50567,2.88541
0.184,5157.58,-3293.83,7540.09,0.790039,1.65948,-0.461191,4665.78,3609.93,7582.43,-1.30114,0.153582,-0.799688,748.006,9419.82,-2354.28,-3.05241,-1.4979,-2.75434,899.32,-9585.91,-2400.96,-1.18813,-4.25305,-0.343041,-835.988,9485.18,-2150.0,-0.390104,3.10281,-0.704364,-2293.65,-9699.75,-1722.89,-4.75138,-3.30622,1.27141,9593.4,651.983,2089.49,3.08224,2.57001,2.81349
0.185,5153.75,-3293.51,7542.5,0.786882,1.72801,-0.584662,4670.38,3617.55,7584.42,-1.26386,0.177558,-0.732578,742.162,9435.24,-2359.1,-3.0663,-1.45305,-2.83771,887.588,-9569.49,-2413.75,-1.16422,-4.21417,-0.322247,-817.19,9464.51,-2144.51,-0.426875,3.18299,-0.774045,-2301.4,-9684.41,-1712.43,-4.71459,-3.32536,1.13064,9586.02,639.706,2084.54,3.23806,2.63434,2.74157
0.186,5149.93,-3293.19,7544.91,0.783724,1.79655,-0.708133,4674.98,3625.17,7586.41,-1.22659,0.201534,-0.665468,736.317,9450.66,-2363.92,-3.0802,-1.4082,-2.92109,875.855,-9553.06,-2426.54,-1.1403,-4.17528,-0.301453,-798.391,9443.83,-2139.01,-0.463646,3.26317,-0.843727,-2309.15,-9669.06,-1701.97,-4.67781,-3.34451,0.989874,9578.64,627.429,2079.59,3.39388,2.69868,2.66964
0.187,5146.31,-3290.41,7549.45,0.784694,1.81883,-0.76829,4673.76,3633.26,7588.38,-1.207,0.194752,-0.603862,736.435,9454.24,-2366.75,-3.08821,-1.35469,-2.97801,873.238,-9545.74,-2435.06,-1.12141,-4.15294,-0.273589,-777.278,9427.77,-2139.68,-0.456324,3.35246,-0.921402,-2307.58,-9659.33,-1696.46,-4.6472,-3.36019,0.898719,9576.94,619.845,2078.7,3.50847,2.77389,2.63557
0.188,5143.11,-3282.71,7558.23,0.793921,1.74859,-0.701819,4660.91,3642.29,7590.29,-1.22281,0.126452,-0.553263,748.478,9434.15,-2365.61,-3.08447,-1.28388,-2.982,888.852,-9556.63,-2435.05,-1.11257,-4.16368,-0.231586,-751.534,9420.93,-2152.67,-0.360817,3.45997,-1.01507,-2287.38,-9660.82,-1700.82,-4.62895,-3.36894,0.906792,9586.57,621.65,2085.93,3.54059,2.87083,2.6772
0.189,5139.92,-3275.02,7567.0,0.803148,1.67835,-0.635348,4648.06,3651.31,7592.21,-1.23862,0.058153,-0.502665,760.521,9414.07,-2364.47,-3.08072,-1.21307,-2.98598,904.465,-9567.51,-2435.04,-1.10373,-4.17442,-0.189583,-725.791,9414.08,-2165.67,-0.265311,3.56747,-1.10873,-2267.18,-9662.31,-1705.18,-4.6107,-3.3777,0.914866,9596.21,623.455,2093.17,3.57271,2.96778,2.71883
0.19,5136.72,-3267.33,7575.78,0.812375,1.60812,-0.568877,4635.21,3660.34,7594.12,-1.25443,-0.0101464,-0.452066,772.564,9393.99,-2363.34,-3.07698,-1.14226,-2.98997,920.079,-9578.4,-2435.03,-1.09489,-4.18515,-0.147579,-700.047,9407.24,-2178.67,-0.169804,3.67498,-1.2024,-2246.98,-9663.8,-1709.54,-4.59245,-3.38645,0.92294,9605.84,625.26,2100.4,3.60484,3.06473,2.76047
0.191,5133.52,-3259.63,7584.56,0.821601,1.53788,-0.502406,4622.36,3669.37,7596.04,-1.27024,-0.0784458,-0.401467,784.607,9373.9,-2362.2,-3.07323,-1.07145,-2.99396,935.693,-9589.29,-2435.03,-1.08605,-4.19589,-0.105576,-674.303,9400.4,-2191.67,-0.0742967,3.78249,-1.29606,-2226.78,-9665.3,-1713.91,-4.5742,-3.3952,0.931014,9615.48,627.065,2107.64,3.63696,3.16168,2.8021
0.192,5138.2,-3259.45,7583.23,0.773966,1.51392,-0.475367,4627.55,3679.38,7600.19,-1.31685,-0.0874894,-0.414206,778.43,9366.52,-2371.13,-3.10041,-1.12602,-2.98131,940.9,-9595.23,-2428.96,-1.05836,-4.11167,-0.151648,-679.158,9395.15,-2193.41,0.0375191,3.7594,-1.25914,-2229.84,-9657.54,-1731.74,-4.62661,-3.4197,0.984696,9631.45,620.315,2114.51,3.66872,3.2416,2.83117
0.193,5143.87,-3260.2,7580.64,0.719223,1.49574,-0.453257,4634.99,3689.51,7604.63,-1.36731,-0.089126,-0.434863,769.976,9360.73,-2381.32,-3.13145,-1.19627,-2.96659,944.806,-9600.56,-2422.13,-1.02833,-4.01557,-0.20873,-687.838,9390.1,-2193.74,0.151374,3.72,-1.20589,-2235.81,-9648.64,-1751.25,-4.68785,-3.44617,1.04408,9648.21,612.495,2121.33,3.70043,3.31941,2.85867
0.194,5149.53,-3260.95,7578.05,0.66448,1.47756,-0.431146,4642.43,3699.64,7609.07,-1.41777,-0.0907626,-0.455519,761.521,9354.94,-2391.51,-3.1625,-1.26652,-2.95187,948.713,-9605.88,-2415.3,-0.998291,-3.91948,-0.265811,-696.518,9385.05,-2194.07,0.265228,3.68059,-1.15264,-2241.77,-9639.73,-1770.77,-4.74909,-3.47264,1.10346,9664.96,604.676,2128.16,3.73214,3.39721,2.88618
0.195,5155.19,-3261.7,7575.46,0.609736,1.45938,-0.409036,4649.87,3709.77,7613.51,-1.46823,-0.0923992,-0.476176,753.067,9349.15,-2401.7,-3.19354,-1.33677,-2.93714,952.619,-9611.21,-2408.47,-0.968255,-3.82339,-0.322892,-705.198,9380.0,-2194.4,0.379083,3.64119,-1.09939,-2247.74,-9630.82,-1790.29,-4.81034,-3.49911,1.16285,9681.72,596.856,2134.98,3.76385,3.47501,2.91368
0.196,5155.17,-3262.47,7569.91,0.584145,1.45545,-0.432312,4654.25,3712.02,7619.6,-1.4778,-0.0748523,-0.48149,748.233,9356.89,-2402.85,-3.1826,-1.38466,-2.95337,942.403,-9618.19,-2397.42,-0.9329,-3.74408,-0.321748,-707.645,9385.64,-2184.51,0.380772,3.57757,-1.12789,-2241.56,-9620.36,-1803.03,-4.84304,-3.5174,1.18343,9685.13,587.067,2137.95,3.78239,3.51422,2.91385
0.197,5148.02,-3263.28,7560.65,0.594993,1.46932,-0.512322,4654.79,3704.4,7627.75,-1.43626,-0.033326,-0.467626,747.925,9381.55,-2392.7,-3.11917,-1.40461,-3.00831,914.533,-9627.26,-2381.09,-0.890896,-3.68576,-0.24782,-702.299,9404.63,-2161.84,0.242256,3.48368,-1.25858,-2220.21,-9607.96,-1807.33,-4.84006,-3.52548,1.1555,9671.84,574.815,2136.1,3.78447,3.5052,2.87985
0.198,5140.88,-3264.08,7551.39,0.605841,1.4832,-0.592332,4655.32,3696.78,7635.91,-1.39473,0.00820039,-0.453761,747.617,9406.2,-2382.55,-3.05573,-1.42456,-3.06324,886.664,-9636.33,-2364.76,-0.848893,-3.62743,-0.173893,-696.953,9423.63,-2139.16,0.10374,3.38979,-1.38926,-2198.85,-9595.56,-1811.62,-4.83708,-3.53355,1.12758,9658.56,562.564,2134.25,3.78655,3.49618,2.84586
0.199,5133.73,-3264.89,7542.13,0.616689,1.49707,-0.672342,4655.86,3689.16,7644.06,-1.35319,0.0497267,-0.439897,747.308,9430.86,-2372.41,-2.9923,-1.4445,-3.11817,858.794,-9645.39,-2348.43,-0.80689,-3.56911,-0.0999649,-691.607,9442.62,-2116.48,-0.0347763,3.2959,-1.51994,-2177.49,-9583.16,-1815.91,-4.8341,-3.54163,1.09966,9645.27,550.312,2132.4,3.78863,3.48716,2.81186
0.2,5126.58,-3265.69,7532.87,0.627537,1.51094,-0.752352,4656.4,3681.54,7652.22,-1.31165,0.0912531,-0.426032,747.0,9455.52,-2362.26,-2.92887,-1.46445,-3.1731,830.924,-9654.46,-2332.1,-0.764887,-3.51079,-0.0260373,-686.261,9461.62,-2093.81,-0.173293,3.20201,-1.65063,-2156.14,-9570.76,-1820.2,-4.83112,-3.5497,1.07174,9631.99,538.061,2130.55,3.79071,3.47814,2.77786
0.201,5147.87,-3250.72,7545.52,0.573792,1.42945,-0.605756,4663.32,3666.71,7662.97,-1.2978,0.147869,-0.384729,752.039,9465.96,-2340.85,-2.98092,-1.39479,-3.20055,840.38,-9651.85,-2325.21,-0.838409,-3.44568,0.0628662,-684.624,9456.75,-2095.01,-0.129081,3.31316,-1.66922,-2153.53,-9585.87,-1811.48,-4.8065,-3.43986,1.16958,9630.26,553.342,2130.42,3.7889,3.48314,2.71575
0.202,5169.15,-3235.76,7558.17,0.520047,1.34796,-0.459159,4670.24,3651.88,7673.72,-1.28396,0.204486,-0.343427,757.078,9476.39,-2319.44,-3.03298,-1.32514,-3.22799,849.835,-9649.24,-2318.32,-0.911932,-3.38057,0.15177,-682.987,9451.89,-2096.21,-0.0848698,3.42431,-1.68782,-2150.92,-9600.97,-1802.76,-4.78188,-3.33002,1.26742,9628.52,568.624,2130.3,3.78709,3.48815,2.65364
0.203,5190.44,-3220.79,7570.82,0.466301,1.26647,-0.312563,4677.16,3637.05,7684.48,-1.27011,0.261102,-0.302124,762.117,9486.83,-2298.03,-3.08503,-1.25548,-3.25544,859.29,-9646.63,-2311.43,-0.985455,-3.31546,0.240673,-681.349,9447.03,-2097.41,-0.0406585,3.53545,-1.70641,-2148.31,-9616.08,-1794.05,-4.75725,-3.22017,1.36525,9626.79,583.906,2130.17,3.78528,3.49315,2.59153
0.204,5211.72,-3205.83,7583.48,0.412556,1.18498,-0.165966,4684.09,3622.22,7695.23,-1.25626,0.317719,-0.260821,767.156,9497.27,-2276.62,-3.13709,-1.18582,-3.28288,868.745,-9644.01,-2304.53,-1.05898,-3.25035,0.329577,-679.712,9442.16,-2098.61,0.00355289,3.6466,-1.72501,-2145.71,-9631.19,-1785.33,-4.73263,-3.11033,1.46309,9625.06,599.188,2130.05,3.78347,3.49816,2.52942
0.205,5212.97,-3207.48,7600.92,0.408051,1.19449,-0.138577,4689.72,3617.06,7693.36,-1.25435,0.348428,-0.278831,765.865,9481.61,-2264.66,-3.20579,-1.17708,-3.3109,879.716,-9656.81,-2311.4,-1.06071,-3.25478,0.382915,-690.679,9442.4,-2106.38,-0.00131723,3.72068,-1.69331,-2148.41,-9642.14,-1773.58,-4.72361,-2.98145,1.49885,9624.41,601.904,2135.93,3.7551,3.51095,2.48465
0.206,5198.2,-3222.44,7622.2,0.442938,1.2768,-0.206553,4694.32,3619.65,7681.4,-1.262,0.358413,-0.344291,759.509,9445.07,-2260.27,-3.28782,-1.21706,-3.33936,891.899,-9681.94,-2329.27,-1.005,-3.31484,0.4078,-711.732,9446.73,-2119.41,-0.0454526,3.7651,-1.62137,-2155.35,-9649.77,-1759.41,-4.72709,-2.83735,1.48494,9624.63,594.569,2146.63,3.70549,3.52998,2.45374
0.207,5183.42,-3237.39,7643.48,0.477825,1.35911,-0.27453,4698.92,3622.23,7669.44,-1.26965,0.368398,-0.409751,753.153,9408.52,-2255.88,-3.36985,-1.25704,-3.36783,904.082,-9707.06,-2347.15,-0.949292,-3.3749,0.432686,-732.784,9451.06,-2132.44,-0.0895879,3.80952,-1.54944,-2162.3,-9657.39,-1745.24,-4.73056,-2.69325,1.47102,9624.86,587.233,2157.33,3.65588,3.54901,2.42283
0.208,5168.64,-3252.34,7664.76,0.512712,1.44142,-0.342507,4703.52,3624.81,7657.48,-1.2773,0.378382,-0.475211,746.797,9371.98,-2251.49,-3.45188,-1.29702,-3.3963,916.264,-9732.19,-2365.02,-0.893585,-3.43497,0.457572,-753.836,9455.39,-2145.47,-0.133723,3.85394,-1.47751,-2169.24,-9665.02,-1731.07,-4.73404,-2.54915,1.45711,9625.08,579.898,2168.04,3.60627,3.56804,2.39191
0.209,5155.3,-3264.43,7682.2,0.529669,1.51549,-0.41384,4707.33,3626.8,7645.73,-1.28151,0.378105,-0.535754,739.215,9341.7,-2249.35,-3.52883,-1.32298,-3.42409,926.627,-9753.09,-2380.72,-0.845486,-3.48425,0.477216,-773.4,9459.42,-2156.19,-0.183424,3.89621,-1.43414,-2174.4,-9671.66,-1719.23,-4.73769,-2.40465,1.45878,9625.55,571.78,2178.11,3.57899,3.57979,2.3599
0.21,5153.47,-3253.61,7668.97,0.403181,1.52365,-0.512029,4704.87,3624.0,7635.72,-1.25821,0.295733,-0.556954,721.823,9361.43,-2265.17,-3.5651,-1.23679,-3.44647,922.427,-9740.19,-2378.96,-0.858245,-3.4473,0.45493,-781.054,9461.09,-2148.38,-0.277652,3.92122,-1.61928,-2165.29,-9670.37,-1726.08,-4.74273,-2.25692,1.58514,9628.03,557.409,2183.15,3.73038,3.53336,2.31903
0.211,5151.63,-3242.79,7655.73,0.276693,1.5318,-0.610218,4702.4,3621.2,7625.7,-1.23491,0.213361,-0.578154,704.431,9381.17,-2280.99,-3.60138,-1.1506,-3.46884,918.227,-9727.29,-2377.21,-0.871005,-3.41034,0.432643,-788.708,9462.77,-2140.58,-0.371879,3.94624,-1.80443,-2156.17,-9669.08,-1732.92,-4.74778,-2.10918,1.71149,9630.51,543.037,2188.2,3.88177,3.48692,2.27816
0.212,5149.8,-3231.96,7642.5,0.150205,1.53995,-0.708406,4699.93,3618.39,7615.68,-1.21161,0.13099,-0.599354,687.039,9400.9,-2296.81,-3.63765,-1.0644,-3.49122,914.027,-9714.39,-2375.45,-0.883765,-3.37339,0.410357,-796.362,9464.44,-2132.78,-0.466107,3.97126,-1.98957,-2147.06,-9667.8,-1739.77,-4.75283,-1.96145,1.83784,9632.98,528.666,2193.25,4.03316,3.44048,2.2373
0.213,5147.96,-3221.14,7629.26,0.0237164,1.54811,-0.806595,4697.47,3615.59,7605.66,-1.18831,0.0486177,-0.620554,669.647,9420.64,-2312.63,-3.67392,-0.97821,-3.5136,909.827,-9701.5,-2373.69,-0.896525,-3.33644,0.38807,-804.016,9466.12,-2124.98,-0.560334,3.99627,-2.17472,-2137.94,-9666.51,-1746.61,-4.75788,-1.81372,1.96419,9635.46,514.295,2198.29,4.18455,3.39405,2.19643
0.214,5150.41,-3217.58,7624.6,0.0744383,1.58377,-0.828675,4693.77,3609.05,7603.62,-1.19362,0.00955361,-0.562992,664.426,9425.62,-2321.65,-3.6718,-0.890698,-3.49103,909.855,-9689.19,-2388.86,-0.845242,-3.26205,0.469158,-816.416,9469.63,-2116.64,-0.53594,4.00802,-2.15421,-2127.68,-9664.45,-1749.52,-4.71755,-1.63861,2.01747,9643.35,520.238,2201.6,4.30644,3.32202,2.19405
0.215,5154.98,-3217.66,7624.23,0.213765,1.63319,-0.812701,4689.45,3600.63,7605.57,-1.21323,-0.00785657,-0.466049,665.29,9423.24,-2327.28,-3.65047,-0.802526,-3.44599,911.997,-9677.17,-2412.48,-0.761937,-3.16895,0.601932,-831.19,9474.06,-2108.03,-0.452235,4.01313,-2.03088,-2116.84,-9662.01,-1750.45,-4.65455,-1.44983,2.03422,9653.95,536.338,2204.03,4.41357,3.2372,2.21091
0.216,5159.56,-3217.74,7623.86,0.353092,1.6826,-0.796727,4685.13,3592.22,7607.52,-1.23285,-0.0252667,-0.369106,666.155,9420.85,-2332.9,-3.62915,-0.714354,-3.40094,914.14,-9665.16,-2436.1,-0.678633,-3.07584,0.734706,-845.964,9478.48,-2099.43,-0.368529,4.01824,-1.90755,-2106.0,-9659.57,-1751.38,-4.59154,-1.26104,2.05097,9664.54,552.439,2206.46,4.52069,3.15238,2.22777
0.217,5164.14,-3217.82,7623.49,0.492418,1.73202,-0.780753,4680.82,3583.8,7609.46,-1.25246,-0.0426769,-0.272164,667.02,9418.46,-2338.52,-3.60783,-0.626182,-3.3559,916.282,-9653.15,-2459.72,-0.595329,-2.98273,0.86748,-860.737,9482.91,-2090.82,-0.284824,4.02335,-1.78422,-2095.16,-9657.13,-1752.31,-4.52853,-1.07225,2.06772,9675.13,568.539,2208.89,4.62782,3.06756,2.24463
0.218,5166.92,-3215.77,7622.08,0.598002,1.7685,-0.749157,4677.95,3581.43,7611.0,-1.27254,-0.0600956,-0.195286,668.305,9418.87,-2346.31,-3.5842,-0.547472,-3.32985,922.207,-9646.43,-2470.53,-0.539652,-2.91662,0.948801,-869.132,9483.19,-2083.43,-0.219903,4.03239,-1.68776,-2087.26,-9656.18,-1753.41,-4.4742,-0.919839,2.06315,9680.33,580.348,2215.7,4.71741,3.01581,2.24531
0.219,5163.38,-3206.32,7617.01,0.585483,1.7597,-0.66288,4680.14,3600.18,7611.09,-1.29424,-0.0775443,-0.188636,671.064,9429.07,-2361.68,-3.5525,-0.501876,-3.37026,941.372,-9658.26,-2436.51,-0.580674,-2.94501,0.850032,-855.2,9468.94,-2080.3,-0.220725,4.05519,-1.68533,-2089.65,-9660.44,-1755.1,-4.45027,-0.894719,1.98395,9666.65,577.138,2237.81,4.7456,3.07982,2.18936
0.22,5159.85,-3196.87,7611.94,0.572964,1.7509,-0.576604,4682.33,3618.92,7611.19,-1.31594,-0.0949929,-0.181987,673.823,9439.27,-2377.05,-3.5208,-0.45628,-3.41067,960.538,-9670.08,-2402.48,-0.621695,-2.97339,0.751264,-841.269,9454.69,-2077.17,-0.221547,4.07799,-1.6829,-2092.04,-9664.71,-1756.79,-4.42633,-0.869598,1.90476,9652.97,573.928,2259.93,4.77379,3.14383,2.13342
0.221,5156.32,-3187.42,7606.87,0.560445,1.74211,-0.490328,4684.52,3637.67,7611.28,-1.33763,-0.112442,-0.175337,676.581,9449.46,-2392.43,-3.4891,-0.410684,-3.45108,979.703,-9681.91,-2368.46,-0.662716,-3.00177,0.652496,-827.338,9440.44,-2074.04,-0.222369,4.10079,-1.68047,-2094.43,-9668.98,-1758.49,-4.40239,-0.844478,1.82556,9639.28,570.718,2282.05,4.80198,3.20784,2.07748
0.222,5152.79,-3177.97,7601.79,0.547927,1.73331,-0.404051,4686.71,3656.42,7611.38,-1.35933,-0.12989,-0.168687,679.34,9459.66,-2407.8,-3.4574,-0.365089,-3.49149,998.868,-9693.73,-2334.43,-0.703738,-3.03015,0.553728,-813.407,9426.19,-2070.91,-0.223192,4.12359,-1.67804,-2096.81,-9673.25,-1760.18,-4.37845,-0.819358,1.74636,9625.6,567.508,2304.16,4.83017,3.27185,2.02153
0.223,5151.91,-3196.76,7614.07,0.482404,1.6746,-0.397302,4700.55,3659.79,7607.11,-1.36751,-0.10551,-0.232957,684.913,9455.79,-2400.28,-3.42084,-0.322532,-3.51792,1003.6,-9697.23,-2324.41,-0.706205,-3.039,0.594437,-816.042,9430.44,-2058.69,-0.182226,4.08751,-1.66503,-2098.15,-9687.8,-1754.54,-4.35494,-0.788046,1.74354,9613.62,564.37,2310.92,4.86472,3.24551,1.94583
0.224,5151.79,-3223.63,7631.29,0.401737,1.60162,-0.413274,4717.71,3658.76,7601.6,-1.37183,-0.0691793,-0.31749,691.289,9447.9,-2386.22,-3.38289,-0.280844,-3.54035,1004.22,-9698.34,-2321.24,-0.697656,-3.04228,0.674997,-823.41,9439.99,-2043.87,-0.129321,4.0346,-1.64899,-2099.18,-9705.3,-1746.81,-4.33155,-0.754965,1.76255,9602.13,561.252,2313.28,4.90109,3.19335,1.86448
0.225,5151.68,-3250.5,7648.52,0.32107,1.52865,-0.429247,4734.87,3657.73,7596.09,-1.37614,-0.0328483,-0.402023,697.665,9440.0,-2372.17,-3.34494,-0.239155,-3.56279,1004.83,-9699.45,-2318.08,-0.689107,-3.04555,0.755557,-830.778,9449.53,-2029.05,-0.0764166,3.9817,-1.63295,-2100.21,-9722.79,-1739.08,-4.30815,-0.721884,1.78156,9590.64,558.134,2315.65,4.93746,3.1412,1.78312
0.226,5151.56,-3277.37,7665.74,0.240403,1.45567,-0.445219,4752.04,3656.7,7590.58,-1.38046,0.00348264,-0.486555,704.042,9432.11,-2358.11,-3.30699,-0.197467,-3.58522,1005.44,-9700.56,-2314.91,-0.680559,-3.04882,0.836117,-838.146,9459.07,-2014.23,-0.0235118,3.92879,-1.61692,-2101.25,-9740.29,-1731.35,-4.28476,-0.688803,1.80057,9579.15,555.016,2318.01,4.97383,3.08905,1.70177
0.227,5149.14,-3294.07,7670.17,0.227581,1.40981,-0.420123,4761.44,3644.75,7587.95,-1.38942,0.0387559,-0.541583,708.23,9431.11,-2349.64,-3.27124,-0.155778,-3.6105,1000.66,-9694.41,-2308.66,-0.674587,-3.07297,0.882946,-839.497,9463.5,-2010.72,-0.011673,3.92083,-1.6435,-2101.09,-9750.54,-1732.52,-4.2774,-0.667412,1.79384,9567.32,558.511,2320.26,5.00244,3.00762,1.65147
0.228,5142.15,-3290.46,7649.0,0.350449,1.41818,-0.312889,4755.33,3610.98,7591.09,-1.40768,0.071914,-0.537602,708.042,9443.89,-2352.35,-3.23988,-0.11409,-3.64147,985.076,-9673.72,-2296.25,-0.673768,-3.13888,0.862314,-828.812,9457.73,-2029.83,-0.0819663,4.00275,-1.75532,-2098.57,-9746.3,-1751.48,-4.30209,-0.6694,1.73563,9554.82,575.232,2322.27,5.0155,2.86764,1.66325
0.229,5135.15,-3286.85,7627.84,0.473317,1.42655,-0.205655,4749.23,3577.21,7594.24,-1.42594,0.105072,-0.533621,707.855,9456.66,-2355.07,-3.20851,-0.0724025,-3.67244,969.495,-9653.03,-2283.83,-0.672949,-3.20479,0.841682,-818.128,9451.95,-2048.94,-0.15226,4.08467,-1.86714,-2096.04,-9742.06,-1770.45,-4.32679,-0.671388,1.67742,9542.32,591.954,2324.29,5.02857,2.72765,1.67502
0.23,5128.15,-3283.24,7606.67,0.596185,1.43492,-0.0984216,4743.12,3543.44,7597.38,-1.44419,0.13823,-0.52964,707.667,9469.44,-2357.78,-3.17715,-0.0307145,-3.70341,953.914,-9632.34,-2271.42,-0.67213,-3.2707,0.821049,-807.444,9446.18,-2068.05,-0.222553,4.16658,-1.97896,-2093.51,-9737.82,-1789.41,-4.35148,-0.673376,1.61921,9529.81,608.675,2326.3,5.04164,2.58767,1.6868
0.231,5121.15,-3279.63,7585.5,0.719053,1.44329,0.00881226,4737.01,3509.67,7600.53,-1.46245,0.171388,-0.525659,707.48,9482.21,-2360.49,-3.14578,0.0109735,-3.73438,938.333,-9611.65,-2259.01,-0.671311,-3.33661,0.800417,-796.759,9440.4,-2087.16,-0.292846,4.2485,-2.09078,-2090.99,-9733.58,-1808.37,-4.37618,-0.675364,1.56101,9517.31,625.396,2328.31,5.05471,2.44769,1.69858
0.232,5097.27,-3283.14,7581.93,0.736411,1.45857,-0.000227532,4729.79,3513.51,7618.93,-1.35938,0.213515,-0.528432,699.429,9470.57,-2356.33,-3.09894,0.00603967,-3.76556,946.352,-9618.92,-2289.08,-0.742974,-3.29853,0.773234,-803.343,9442.53,-2087.08,-0.365918,4.29344,-2.1219,-2100.87,-9727.99,-1793.74,-4.47115,-0.661209,1.49005,9509.52,618.756,2333.13,5.14035,2.38167,1.64943
0.233,5071.28,-3287.54,7580.56,0.740581,1.47473,-0.0238015,4722.44,3522.05,7639.25,-1.24113,0.256762,-0.53205,690.396,9455.87,-2351.3,-3.05017,-0.00472189,-3.79676,957.321,-9629.67,-2324.46,-0.823697,-3.24746,0.745232,-812.084,9445.65,-2084.59,-0.439337,4.33375,-2.14295,-2112.31,-9722.24,-1774.9,-4.57491,-0.645036,1.41749,9502.32,609.195,2338.29,5.23505,2.32491,1.59267
0.234,5045.29,-3291.94,7579.19,0.744751,1.49088,-0.0473755,4715.08,3530.59,7659.56,-1.12289,0.30001,-0.535667,681.362,9441.17,-2346.28,-3.0014,-0.0154835,-3.82795,968.29,-9640.42,-2359.84,-0.904419,-3.19638,0.71723,-820.826,9448.77,-2082.11,-0.512756,4.37405,-2.16399,-2123.75,-9716.48,-1756.07,-4.67867,-0.628863,1.34494,9495.12,599.635,2343.45,5.32976,2.26815,1.53591
0.235,5019.29,-3296.34,7577.82,0.74892,1.50703,-0.0709495,4707.72,3539.13,7679.88,-1.00465,0.343258,-0.539285,672.329,9426.47,-2341.25,-2.95263,-0.026245,-3.85915,979.26,-9651.18,-2395.22,-0.985142,-3.1453,0.689227,-829.567,9451.89,-2079.62,-0.586174,4.41436,-2.18503,-2135.18,-9710.72,-1737.24,-4.78242,-0.61269,1.27239,9487.92,590.074,2348.61,5.42447,2.21138,1.47914
0.236,4997.52,-3292.34,7577.77,0.733691,1.52217,-0.124354,4701.38,3555.48,7696.41,-0.924875,0.357021,-0.532948,673.985,9421.8,-2341.05,-2.92925,-0.0303671,-3.85568,980.672,-9646.25,-2408.02,-0.988022,-3.14083,0.740528,-826.578,9456.04,-2080.65,-0.541851,4.5228,-2.24412,-2135.27,-9709.77,-1729.76,-4.84771,-0.58954,1.24223,9489.01,579.696,2352.93,5.49351,2.13882,1.42582
0.237,4981.02,-3277.86,7579.36,0.694212,1.53604,-0.215045,4696.31,3581.58,7708.22,-0.893192,0.333929,-0.514167,689.004,9429.66,-2346.87,-2.9376,-0.0261899,-3.80888,970.14,-9621.71,-2392.6,-0.893598,-3.19463,0.890956,-808.924,9461.47,-2086.06,-0.35035,4.71639,-2.35078,-2121.18,-9714.83,-1736.47,-4.86491,-0.55767,1.26508,9500.44,568.297,2356.18,5.53046,2.04651,1.3768
0.238,4964.52,-3263.38,7580.95,0.654734,1.54991,-0.305737,4691.23,3607.69,7720.02,-0.861508,0.310837,-0.495386,704.022,9437.52,-2352.69,-2.94596,-0.0220126,-3.76208,959.607,-9597.18,-2377.18,-0.799175,-3.24843,1.04138,-791.271,9466.9,-2091.48,-0.158849,4.90998,-2.45743,-2107.09,-9719.9,-1743.19,-4.88211,-0.5258,1.28793,9511.88,556.898,2359.44,5.56742,1.9542,1.32778
0.239,4948.02,-3248.9,7582.54,0.615255,1.56378,-0.396429,4686.16,3633.79,7731.83,-0.829825,0.287745,-0.476605,719.041,9445.38,-2358.51,-2.95431,-0.0178354,-3.71527,949.074,-9572.64,-2361.76,-0.704751,-3.30223,1.19181,-773.618,9472.33,-2096.89,0.032652,5.10357,-2.56409,-2092.99,-9724.96,-1749.9,-4.89932,-0.493929,1.31078,9523.31,545.499,2362.69,5.60437,1.86189,1.27877
0.24,4931.52,-3234.42,7584.14,0.575777,1.57765,-0.487121,4681.09,3659.9,7743.64,-0.798141,0.264653,-0.457825,734.06,9453.24,-2364.33,-2.96266,-0.0136582,-3.66847,938.541,-9548.11,-2346.34,-0.610327,-3.35603,1.34224,-755.964,9477.76,-2102.31,0.224153,5.29716,-2.67074,-2078.9,-9730.02,-1756.61,-4.91652,-0.462059,1.33362,9534.75,534.1,2365.95,5.64133,1.76958,1.22975
0.241,4977.95,-3245.74,7596.41,0.569793,1.59153,-0.406067,4701.0,3661.35,7727.33,-0.862597,0.243201,-0.41534,738.275,9439.51,-2375.23,-2.95799,0.000237824,-3.70722,962.604,-9546.33,-2370.69,-0.732259,-3.29899,1.32989,-787.603,9458.79,-2124.0,0.268059,5.4349,-2.60391,-2079.01,-9703.25,-1743.21,-4.8987,-0.354575,1.32941,9549.11,531.108,2357.31,5.53489,1.80757,1.30789
0.242,5024.38,-3257.06,7608.68,0.563808,1.6054,-0.325013,4720.91,3662.81,7711.02,-0.927052,0.221749,-0.372855,742.49,9425.77,-2386.14,-2.95331,0.0141338,-3.74597,986.668,-9544.54,-2395.05,-0.854191,-3.24194,1.31755,-819.241,9439.81,-2145.68,0.311964,5.57263,-2.53708,-2079.12,-9676.49,-1729.81,-4.88088,-0.247092,1.3252,9563.46,528.115,2348.67,5.42846,1.84557,1.38603
0.243,5070.81,-3268.38,7620.95,0.557824,1.61927,-0.24396,4740.83,3664.26,7694.71,-0.991508,0.200297,-0.33037,746.705,9412.03,-2397.04,-2.94863,0.0280298,-3.78472,1010.73,-9542.76,-2419.41,-0.976123,-3.1849,1.3052,-850.88,9420.83,-2167.37,0.35587,5.71036,-2.47025,-2079.23,-9649.72,-1716.41,-4.86306,-0.139608,1.32099,9577.82,525.123,2340.03,5.32203,1.88356,1.46418
0.244,5117.25,-3279.7,7633.23,0.55184,1.63314,-0.162906,4760.74,3665.72,7678.4,-1.05596,0.178845,-0.287885,750.92,9398.3,-2407.95,-2.94396,0.0419258,-3.82347,1034.79,-9540.97,-2443.76,-1.09805,-3.12786,1.29285,-882.518,9401.85,-2189.05,0.399776,5.84809,-2.40342,-2079.35,-9622.95,-1703.0,-4.84524,-0.0321244,1.31677,9592.18,522.13,2331.4,5.2156,1.92155,1.54232
0.245,5145.22,-3273.89,7631.87,0.509115,1.64701,-0.14536,4762.24,3667.4,7660.6,-1.14432,0.151186,-0.247574,756.499,9395.28,-2409.27,-2.95247,0.0802427,-3.81213,1025.6,-9550.51,-2443.44,-1.10917,-3.04148,1.32476,-888.9,9401.28,-2192.49,0.420271,5.94497,-2.38697,-2081.04,-9619.1,-1697.91,-4.79586,0.0309482,1.33322,9584.44,526.081,2318.76,5.15192,1.9343,1.59349
0.246,5158.44,-3254.38,7619.61,0.436998,1.66089,-0.178619,4749.0,3669.26,7641.61,-1.2518,0.118561,-0.209001,763.17,9400.84,-2402.93,-2.97155,0.138096,-3.76073,989.814,-9569.1,-2423.36,-1.03163,-2.93163,1.39207,-875.076,9415.43,-2181.32,0.422037,6.00917,-2.41083,-2083.99,-9633.58,-1699.46,-4.72122,0.0584921,1.36618,9559.03,535.584,2302.94,5.12244,1.92684,1.62308
0.247,5171.66,-3234.86,7607.35,0.364881,1.67476,-0.211878,4735.77,3671.12,7622.61,-1.35927,0.0859368,-0.170428,769.841,9406.4,-2396.59,-2.99062,0.19595,-3.70932,954.023,-9587.69,-2403.29,-0.954096,-2.82178,1.45938,-861.252,9429.57,-2170.16,0.423804,6.07337,-2.4347,-2086.95,-9648.07,-1701.02,-4.64658,0.086036,1.39914,9533.61,545.088,2287.11,5.09296,1.91939,1.65267
0.248,5184.88,-3215.35,7595.1,0.292764,1.68863,-0.245137,4722.54,3672.98,7603.62,-1.46675,0.0533123,-0.131855,776.512,9411.96,-2390.24,-3.00969,0.253804,-3.65792,918.233,-9606.28,-2383.22,-0.876558,-2.71192,1.52669,-847.429,9443.72,-2158.99,0.42557,6.13757,-2.45856,-2089.9,-9662.56,-1702.57,-4.57195,0.11358,1.43211,9508.2,554.592,2271.29,5.06348,1.91194,1.68226
0.249,5193.75,-3199.36,7585.46,0.242384,1.6971,-0.272757,4710.27,3674.33,7585.55,-1.56807,0.0299436,-0.0895554,782.049,9417.28,-2382.13,-3.02477,0.31047,-3.6166,886.856,-9621.6,-2368.03,-0.816159,-2.60751,1.58724,-835.703,9455.06,-2148.11,0.412243,6.20215,-2.48709,-2090.83,-9676.89,-1705.94,-4.5108,0.147949,1.46758,9484.27,563.717,2257.72,5.04427,1.89445,1.71151
0.25,5167.83,-3211.54,7596.81,0.365905,1.66232,-0.255274,4705.78,3671.65,7574.91,-1.62008,0.0806217,-0.017438,778.516,9420.74,-2359.84,-3.00794,0.357638,-3.65594,890.788,-9610.74,-2391.87,-0.89287,-2.54664,1.59373,-840.759,9444.01,-2139.47,0.278171,6.2697,-2.553,-2075.49,-9689.98,-1723.86,-4.55756,0.236915,1.52314,9472.2,569.811,2262.24,5.10725,1.79669,1.73801
0.251,5141.91,-3223.73,7608.16,0.489426,1.62754,-0.23779,4701.28,3668.96,7564.27,-1.67209,0.1313,0.0546794,774.984,9424.19,-2337.56,-2.99111,0.404806,-3.69528,894.72,-9599.88,-2415.72,-0.96958,-2.48578,1.60021,-845.815,9432.96,-2130.82,0.1441,6.33726,-2.6189,-2060.16,-9703.07,-1741.79,-4.60433,0.325882,1.57871,9460.14,575.906,2266.75,5.17023,1.69893,1.76452
0.252,5116.0,-3235.91,7619.51,0.612947,1.59277,-0.220306,4696.79,3666.28,7553.62,-1.72409,0.181978,0.126797,771.452,9427.65,-2315.27,-2.97428,0.451975,-3.73462,898.652,-9589.02,-2439.56,-1.04629,-2.42491,1.6067,-850.871,9421.9,-2122.18,0.010028,6.40482,-2.6848,-2044.82,-9716.16,-1759.71,-4.65109,0.414848,1.63427,9448.08,582.0,2271.27,5.23321,1.60116,1.79103
0.253,5090.08,-3248.09,7630.85,0.736468,1.55799,-0.202822,4692.29,3663.59,7542.98,-1.7761,0.232656,0.198914,767.919,9431.11,-2292.99,-2.95745,0.499143,-3.77396,902.585,-9578.17,-2463.4,-1.123,-2.36404,1.61318,-855.927,9410.85,-2113.54,-0.124044,6.47237,-2.7507,-2029.48,-9729.24,-1777.63,-4.69785,0.503815,1.68984,9436.02,588.094,2275.79,5.29619,1.5034,1.81754
0.254,5093.3,-3253.47,7637.07,0.6825,1.52686,-0.186701,4685.55,3654.12,7540.46,-1.76725,0.200538,0.1992,770.672,9423.51,-2284.24,-2.88802,0.535109,-3.84094,913.418,-9569.99,-2451.13,-1.11263,-2.25329,1.68497,-865.336,9419.55,-2099.8,-0.188237,6.50823,-2.76141,-2040.08,-9735.05,-1780.29,-4.7713,0.470555,1.66879,9434.01,591.445,2278.06,5.30189,1.48305,1.82725
0.255,5111.1,-3255.44,7640.73,0.539788,1.49755,-0.171262,4677.7,3641.26,7541.99,-1.72796,0.127022,0.163571,776.569,9410.38,-2282.26,-2.79229,0.565475,-3.92174,927.701,-9563.15,-2420.82,-1.05872,-2.11761,1.7894,-876.922,9438.13,-2083.51,-0.217491,6.52824,-2.74451,-2063.64,-9737.23,-1775.32,-4.85809,0.376181,1.60943,9437.03,593.426,2279.21,5.27895,1.50141,1.82856
0.256,5128.9,-3257.4,7644.38,0.397076,1.46824,-0.155822,4669.84,3628.4,7543.52,-1.68867,0.0535066,0.127942,782.465,9397.26,-2280.28,-2.69657,0.59584,-4.00254,941.984,-9556.32,-2390.5,-1.00481,-1.98193,1.89383,-888.508,9456.7,-2067.22,-0.246744,6.54824,-2.72762,-2087.2,-9739.4,-1770.35,-4.94488,0.281806,1.55007,9440.04,595.406,2280.35,5.256,1.51977,1.82987
0.257,5146.7,-3259.37,7648.03,0.254364,1.43893,-0.140383,4661.99,3615.53,7545.05,-1.64938,-0.0200092,0.0923126,788.361,9384.13,-2278.3,-2.60084,0.626206,-4.08334,956.267,-9549.48,-2360.18,-0.950906,-1.84625,1.99826,-900.093,9475.28,-2050.93,-0.275998,6.56825,-2.71072,-2110.76,-9741.57,-1765.37,-5.03167,0.187432,1.49072,9443.06,597.387,2281.5,5.23306,1.53813,1.83118
0.258,5152.62,-3258.52,7646.8,0.150313,1.42379,-0.139121,4659.1,3604.04,7547.72,-1.62371,-0.0717533,0.0476247,785.269,9371.69,-2280.69,-2.52721,0.663659,-4.13919,969.748,-9548.18,-2341.15,-0.872037,-1.72596,2.0829,-910.677,9483.97,-2043.92,-0.290791,6.59792,-2.72177,-2127.75,-9742.02,-1763.22,-5.07526,0.117065,1.4253,9446.85,600.248,2279.61,5.19832,1.55093,1.82756
0.259,5116.99,-3247.77,7628.47,0.181571,1.45828,-0.187483,4673.62,3597.33,7554.39,-1.64571,-0.0472961,-0.0287683,750.718,9361.64,-2298.39,-2.53093,0.725918,-4.10768,980.418,-9566.25,-2361.6,-0.705807,-1.65956,2.09826,-917.756,9458.07,-2069.4,-0.254974,6.66143,-2.83065,-2121.78,-9736.45,-1770.95,-4.96765,0.130723,1.33867,9453.35,606.194,2267.05,5.12233,1.5443,1.80666
0.26,5081.36,-3237.03,7610.13,0.21283,1.49277,-0.235844,4688.15,3590.63,7561.06,-1.66771,-0.0228388,-0.105161,716.166,9351.6,-2316.09,-2.53465,0.788176,-4.07616,991.089,-9584.33,-2382.06,-0.539578,-1.59315,2.11361,-924.835,9432.18,-2094.89,-0.219157,6.72493,-2.93954,-2115.81,-9730.88,-1778.69,-4.86004,0.144381,1.25205,9459.84,612.139,2254.5,5.04635,1.53767,1.78576
0.261,5045.73,-3226.28,7591.8,0.244089,1.52726,-0.284206,4702.67,3583.92,7567.73,-1.68971,0.00161838,-0.181554,681.615,9341.55,-2333.78,-2.53838,0.850435,-4.04465,1001.76,-9602.4,-2402.51,-0.373348,-1.52674,2.12897,-931.914,9406.28,-2120.38,-0.183339,6.78844,-3.04842,-2109.84,-9725.31,-1786.42,-4.75242,0.158039,1.16542,9466.34,618.084,2241.95,4.97036,1.53104,1.76487
0.262,5010.1,-3215.54,7573.46,0.275348,1.56175,-0.332567,4717.19,3577.22,7574.4,-1.71172,0.0260756,-0.257947,647.063,9331.51,-2351.48,-2.5421,0.912694,-4.01314,1012.43,-9620.47,-2422.97,-0.207119,-1.46034,2.14432,-938.992,9380.38,-2145.86,-0.147522,6.85194,-3.1573,-2103.87,-9719.74,-1794.15,-4.64481,0.171697,1.07879,9472.84,624.03,2229.4,4.89437,1.5244,1.74397
0.263,5032.93,-3226.89,7583.27,0.276494,1.51366,-0.268973,4723.27,3579.89,7568.94,-1.75012,0.0454808,-0.27732,641.029,9344.54,-2371.53,-2.57361,0.980569,-4.06262,998.246,-9643.88,-2398.23,-0.240861,-1.49273,2.17457,-940.282,9390.65,-2157.59,-0.0585327,6.7932,-3.18095,-2085.97,-9720.45,-1793.08,-4.58339,0.186868,1.08686,9485.59,631.022,2239.99,4.78178,1.46449,1.74462
0.264,5072.47,-3244.55,7601.11,0.269036,1.44197,-0.173392,4726.93,3585.24,7560.0,-1.7932,0.0634426,-0.280401,643.142,9364.17,-2392.25,-2.61305,1.05005,-4.13524,976.959,-9668.8,-2360.58,-0.331738,-1.55335,2.20908,-939.917,9411.26,-2165.4,0.0456487,6.69954,-3.18024,-2064.66,-9722.97,-1789.51,-4.53517,0.202471,1.12199,9500.14,638.314,2257.19,4.65873,1.38935,1.75143
0.265,5112.01,-3262.21,7618.96,0.261578,1.37029,-0.0778111,4730.6,3590.6,7551.07,-1.83629,0.0814044,-0.283481,645.255,9383.8,-2412.96,-2.6525,1.11953,-4.20787,955.672,-9693.73,-2322.93,-0.422616,-1.61397,2.24358,-939.553,9431.86,-2173.2,0.14983,6.60587,-3.17954,-2043.35,-9725.48,-1785.93,-4.48696,0.218075,1.15712,9514.69,645.606,2274.39,4.53567,1.31421,1.75824
0.266,5151.56,-3279.88,7636.81,0.25412,1.2986,0.01777,4734.26,3595.95,7542.13,-1.87938,0.0993661,-0.286562,647.369,9403.43,-2433.68,-2.69195,1.18901,-4.2805,934.385,-9718.65,-2285.29,-0.513493,-1.67459,2.27808,-939.188,9452.47,-2181.01,0.254012,6.5122,-3.17884,-2022.04,-9727.99,-1782.35,-4.43874,0.233678,1.19224,9529.23,652.897,2291.59,4.41262,1.23907,1.76504
0.267,5169.57,-3291.55,7646.97,0.269988,1.26551,0.00814324,4729.85,3598.85,7539.16,-1.9085,0.108883,-0.3059,654.268,9417.76,-2440.8,-2.7282,1.2112,-4.30223,919.714,-9724.67,-2265.92,-0.558963,-1.64919,2.32909,-940.237,9464.32,-2188.68,0.326665,6.46763,-3.16111,-2008.57,-9726.91,-1777.92,-4.44933,0.24408,1.23881,9534.88,658.646,2304.49,4.33096,1.17713,1.78402
0.268,5144.54,-3291.26,7641.76,0.332504,1.30959,-0.211899,4709.3,3596.84,7548.13,-1.90968,0.101508,-0.357749,670.738,9421.51,-2420.7,-2.75807,1.13882,-4.22217,918.276,-9692.88,-2283.11,-0.51362,-1.45173,2.4131,-944.112,9458.64,-2196.1,0.336262,6.52125,-3.10934,-2010.79,-9718.63,-1771.77,-4.57756,0.24408,1.30827,9522.72,661.308,2308.79,4.33208,1.14159,1.82733
0.269,5119.5,-3290.96,7636.56,0.395021,1.35367,-0.431941,4688.74,3594.83,7557.1,-1.91086,0.0941338,-0.409599,687.209,9425.25,-2400.6,-2.78793,1.06644,-4.14211,916.837,-9661.09,-2300.3,-0.468277,-1.25427,2.4971,-947.987,9452.96,-2203.51,0.345859,6.57488,-3.05756,-2013.01,-9710.35,-1765.62,-4.70578,0.24408,1.37772,9510.56,663.97,2313.09,4.3332,1.10606,1.87065
0.27,5094.47,-3290.66,7631.36,0.457538,1.39776,-0.651984,4668.19,3592.82,7566.07,-1.91204,0.0867595,-0.461449,703.68,9429.0,-2380.5,-2.8178,0.994053,-4.06206,915.399,-9629.3,-2317.48,-0.422934,-1.05682,2.58111,-951.862,9447.28,-2210.93,0.355456,6.6285,-3.00578,-2015.22,-9702.08,-1759.48,-4.834,0.24408,1.44718,9498.4,666.632,2317.39,4.33433,1.07052,1.91396
0.271,5069.43,-3290.36,7626.15,0.520055,1.44184,-0.872026,4647.63,3590.81,7575.04,-1.91323,0.0793851,-0.513299,720.151,9432.74,-2360.4,-2.84767,0.92167,-3.982,913.96,-9597.51,-2334.67,-0.377591,-0.859357,2.66512,-955.736,9441.6,-2218.35,0.365054,6.68213,-2.954,-2017.44,-9693.8,-1753.33,-4.96223,0.24408,1.51663,9486.24,669.294,2321.7,4.33545,1.03499,1.95728
0.272,5083.49,-3269.54,7625.99,0.531437,1.43884,-0.72935,4657.9,3583.48,7598.54,-1.91697,0.0633723,-0.541529,699.023,9436.5,-2356.51,-2.77978,0.901758,-3.74641,941.78,-9594.98,-2342.06,-0.4432,-0.804815,2.74719,-952.02,9433.25,-2186.77,0.445509,6.39804,-2.98976,-2033.18,-9676.04,-1769.47,-4.93729,0.293384,1.5072,9483.93,685.771,2317.26,4.21617,1.03409,1.93787
0.273,5102.43,-3246.14,7626.45,0.536427,1.42996,-0.541334,4672.01,3575.49,7623.85,-1.92104,0.0462796,-0.566807,673.195,9440.26,-2354.65,-2.69968,0.888405,-3.49138,973.258,-9596.11,-2348.22,-0.522678,-0.768138,2.82903,-947.354,9424.55,-2150.32,0.534822,6.07173,-3.03645,-2050.6,-9657.08,-1788.39,-4.89321,0.348852,1.48791,9482.85,703.975,2311.74,4.08184,1.03752,1.91063
0.274,5121.38,-3222.75,7626.91,0.541417,1.42108,-0.353318,4686.13,3567.5,7649.17,-1.92511,0.029187,-0.592085,647.367,9444.03,-2352.79,-2.61957,0.875052,-3.23636,1004.73,-9597.24,-2354.38,-0.602157,-0.731461,2.91087,-942.689,9415.86,-2113.87,0.624135,5.74542,-3.08315,-2068.03,-9638.13,-1807.32,-4.84912,0.404319,1.46862,9481.78,722.18,2306.21,3.94751,1.04094,1.88338
0.275,5140.32,-3199.36,7627.37,0.546408,1.4122,-0.165302,4700.24,3559.51,7674.48,-1.92917,0.0120943,-0.617363,621.54,9447.79,-2350.93,-2.53947,0.861699,-2.98133,1036.21,-9598.37,-2360.54,-0.681635,-0.694784,2.99271,-938.023,9407.17,-2077.42,0.713447,5.41911,-3.12984,-2085.46,-9619.17,-1826.24,-4.80504,0.459786,1.44933,9480.71,740.384,2300.69,3.81318,1.04437,1.85614
0.276,5145.11,-3196.57,7632.2,0.52604,1.43581,-0.0836883,4711.03,3564.67,7691.59,-1.92549,-0.0118324,-0.63332,604.521,9450.55,-2352.13,-2.49495,0.77865,-2.94842,1048.81,-9605.46,-2364.17,-0.686569,-0.632734,3.06061,-945.14,9411.05,-2064.0,0.663097,5.26667,-3.09457,-2101.5,-9610.43,-1832.2,-4.78235,0.496459,1.4501,9489.71,751.528,2301.97,3.66196,1.05425,1.87568
0.277,5132.23,-3219.54,7642.48,0.473975,1.50003,-0.135079,4717.65,3586.27,7698.44,-1.9121,-0.0443017,-0.637626,598.515,9452.05,-2357.18,-2.49492,0.608481,-3.19316,1037.81,-9620.0,-2364.66,-0.598322,-0.538966,3.11109,-966.984,9430.65,-2079.37,0.438167,5.33155,-2.95685,-2115.82,-9614.44,-1821.94,-4.78641,0.50964,1.47596,9511.31,753.846,2311.77,3.48962,1.07218,1.9537
0.278,5119.33,-3242.51,7652.76,0.42191,1.56426,-0.186469,4724.27,3607.86,7705.29,-1.89872,-0.0767711,-0.641932,592.508,9453.55,-2362.22,-2.49489,0.438312,-3.4379,1026.82,-9634.55,-2365.14,-0.510076,-0.445198,3.16158,-988.828,9450.24,-2094.73,0.213238,5.39643,-2.81912,-2130.15,-9618.46,-1811.68,-4.79047,0.52282,1.50181,9532.91,756.163,2321.58,3.31729,1.09011,2.03173
0.279,5106.45,-3265.48,7663.04,0.369846,1.62848,-0.237859,4730.89,3629.46,7712.14,-1.88533,-0.10924,-0.646239,586.502,9455.05,-2367.26,-2.49485,0.268144,-3.68264,1015.82,-9649.1,-2365.62,-0.421829,-0.35143,3.21206,-1010.67,9469.84,-2110.1,-0.0116917,5.46131,-2.68139,-2144.47,-9622.48,-1801.43,-4.79453,0.536,1.52767,9554.51,758.481,2331.38,3.14495,1.10804,2.10976
0.28,5093.56,-3288.45,7673.32,0.317781,1.69271,-0.289249,4737.51,3651.06,7718.98,-1.87195,-0.14171,-0.650545,580.495,9456.55,-2372.3,-2.49482,0.0979751,-3.92738,1004.82,-9663.64,-2366.11,-0.333583,-0.257662,3.26254,-1032.52,9489.43,-2125.47,-0.236621,5.52619,-2.54367,-2158.79,-9626.5,-1791.17,-4.79858,0.54918,1.55353,9576.11,760.799,2341.18,2.97262,1.12598,2.18778
0.281,5083.48,-3266.04,7655.3,0.341245,1.68312,-0.25334,4727.74,3660.59,7709.95,-1.84425,-0.132619,-0.636803,558.009,9434.43,-2396.13,-2.558,0.223788,-3.80342,982.965,-9635.05,-2380.99,-0.310563,-0.133923,3.2341,-1048.26,9517.28,-2124.64,-0.0572079,5.41529,-2.52126,-2161.12,-9639.0,-1786.08,-4.7122,0.51493,1.50387,9591.5,757.467,2350.98,2.87402,1.11976,2.22299
0.282,5073.4,-3243.64,7637.27,0.364709,1.67352,-0.21743,4717.97,3670.11,7700.92,-1.81655,-0.123529,-0.62306,535.524,9412.32,-2419.95,-2.62119,0.3496,-3.67946,961.104,-9606.45,-2395.88,-0.287543,-0.0101832,3.20566,-1064.01,9545.12,-2123.81,0.122205,5.30439,-2.49886,-2163.45,-9651.5,-1780.98,-4.62582,0.480681,1.45421,9606.89,754.135,2360.78,2.77543,1.11355,2.2582
0.283,5063.32,-3221.23,7619.24,0.388173,1.66393,-0.181521,4708.19,3679.64,7691.88,-1.78886,-0.114439,-0.609318,513.038,9390.2,-2443.77,-2.68437,0.475412,-3.55549,939.244,-9577.85,-2410.77,-0.264523,0.113556,3.17721,-1079.76,9572.96,-2122.98,0.301619,5.19349,-2.47646,-2165.78,-9664.0,-1775.89,-4.53943,0.446431,1.40455,9622.28,750.803,2370.58,2.67683,1.10734,2.2934
0.284,5053.25,-3198.83,7601.21,0.411637,1.65434,-0.145612,4698.42,3689.16,7682.85,-1.76116,-0.105348,-0.595576,490.552,9368.09,-2467.6,-2.74755,0.601225,-3.43153,917.384,-9549.26,-2425.66,-0.241503,0.237296,3.14877,-1095.5,9600.8,-2122.15,0.481032,5.08259,-2.45405,-2168.11,-9676.49,-1770.8,-4.45305,0.412181,1.35489,9637.68,747.471,2380.38,2.57824,1.10112,2.32861
0.285,5050.86,-3198.15,7580.58,0.400531,1.59064,-0.0917534,4703.88,3688.14,7664.07,-1.72828,-0.0859205,-0.568905,491.124,9366.1,-2464.41,-2.75179,0.590214,-3.40789,915.663,-9541.63,-2439.28,-0.2657,0.321748,3.15831,-1084.1,9600.88,-2128.57,0.545112,5.01503,-2.45096,-2174.19,-9682.75,-1762.28,-4.42368,0.418834,1.32639,9638.91,752.081,2383.71,2.50312,1.05062,2.28452
0.286,5054.64,-3214.87,7557.85,0.36177,1.48367,-0.0235358,4721.53,3678.67,7637.49,-1.69127,-0.0582226,-0.53189,510.142,9380.22,-2439.63,-2.70888,0.469744,-3.46452,930.055,-9550.78,-2451.89,-0.327671,0.374768,3.19825,-1050.99,9578.75,-2140.79,0.516926,4.98215,-2.46332,-2183.28,-9684.02,-1751.01,-4.43991,0.458207,1.31483,9628.82,763.044,2381.87,2.44679,0.964681,2.17699
0.287,5058.41,-3231.58,7535.13,0.323009,1.37669,0.0446818,4739.17,3669.21,7610.92,-1.65426,-0.0305246,-0.494876,529.159,9394.34,-2414.84,-2.66597,0.349274,-3.52114,944.447,-9559.93,-2464.5,-0.389643,0.427789,3.23818,-1017.87,9556.61,-2153.01,0.488739,4.94928,-2.47569,-2192.37,-9685.29,-1739.74,-4.45614,0.497581,1.30326,9618.73,774.006,2380.02,2.39045,0.878745,2.06946
0.288,5062.18,-3248.29,7512.4,0.284248,1.26971,0.112899,4756.82,3659.74,7584.34,-1.61724,-0.00282669,-0.457861,548.177,9408.46,-2390.05,-2.62306,0.228805,-3.57776,958.839,-9569.08,-2477.1,-0.451614,0.48081,3.27812,-984.755,9534.47,-2165.24,0.460553,4.9164,-2.48805,-2201.45,-9686.56,-1728.48,-4.47237,0.536954,1.2917,9608.64,784.969,2378.17,2.33411,0.792809,1.96193
0.289,5067.19,-3262.39,7493.88,0.239195,1.1832,0.154357,4772.96,3650.0,7561.75,-1.58811,0.0185806,-0.418246,565.761,9424.06,-2367.72,-2.58155,0.107549,-3.62611,971.248,-9579.33,-2486.07,-0.509524,0.52899,3.32078,-954.216,9513.52,-2175.7,0.441164,4.88263,-2.48148,-2207.16,-9687.88,-1720.8,-4.49795,0.5703,1.28142,9598.38,795.019,2375.25,2.27277,0.70742,1.85887
0.29,5082.09,-3255.58,7509.0,0.143806,1.26043,-0.018264,4777.08,3638.05,7571.0,-1.62205,-0.0103376,-0.357827,571.877,9451.53,-2364.99,-2.55127,-0.0199985,-3.60825,967.798,-9598.34,-2465.88,-0.534939,0.538443,3.38526,-944.296,9502.02,-2172.15,0.492152,4.84172,-2.3235,-2185.81,-9689.55,-1741.8,-4.59832,0.555426,1.28142,9586.77,797.772,2363.74,2.17132,0.626411,1.79152
0.291,5097.0,-3248.77,7524.12,0.0484166,1.33766,-0.190885,4781.2,3626.09,7580.26,-1.65599,-0.0392557,-0.297408,577.992,9479.01,-2362.26,-2.521,-0.147546,-3.59039,964.348,-9617.35,-2445.7,-0.560354,0.547895,3.44974,-934.375,9490.51,-2168.59,0.54314,4.80082,-2.16552,-2164.47,-9691.22,-1762.81,-4.69869,0.540553,1.28142,9575.16,800.524,2352.22,2.06988,0.545401,1.72418
0.292,5111.9,-3241.95,7539.23,-0.0469726,1.41489,-0.363506,4785.31,3614.14,7589.52,-1.68993,-0.0681739,-0.236989,584.108,9506.48,-2359.53,-2.49072,-0.275093,-3.57253,960.898,-9636.37,-2425.51,-0.585769,0.557347,3.51421,-924.454,9479.01,-2165.03,0.594128,4.75991,-2.00754,-2143.13,-9692.9,-1783.81,-4.79906,0.525679,1.28142,9563.55,803.277,2340.71,1.96843,0.464391,1.65683
0.293,5126.8,-3235.14,7554.35,-0.142362,1.49213,-0.536128,4789.43,3602.18,7598.78,-1.72388,-0.097092,-0.17657,590.224,9533.96,-2356.8,-2.46045,-0.40264,-3.55467,957.448,-9655.38,-2405.33,-0.611183,0.5668,3.57869,-914.533,9467.51,-2161.47,0.645116,4.71901,-1.84956,-2121.79,-9694.57,-1804.82,-4.89943,0.510806,1.28142,9551.95,806.029,2329.19,1.86699,0.383382,1.58949
0.294,5132.69,-3245.56,7576.67,-0.166436,1.60959,-0.52369,4787.01,3601.23,7608.93,-1.70491,-0.124551,-0.129378,585.109,9516.41,-2356.57,-2.59423,-0.639646,-3.50455,952.776,-9650.38,-2390.74,-0.540562,0.52107,3.60253,-912.407,9459.22,-2160.18,0.645703,4.60658,-1.81947,-2131.99,-9690.98,-1800.73,-4.8959,0.471458,1.28935,9548.5,809.802,2331.37,1.73296,0.332469,1.52462
0.295,5134.07,-3264.59,7602.6,-0.154853,1.74716,-0.418724,4781.31,3605.77,7619.52,-1.65949,-0.15128,-0.0888001,574.38,9476.34,-2357.57,-2.81003,-0.931382,-3.43829,947.493,-9633.37,-2378.94,-0.421923,0.447749,3.60606,-914.177,9452.54,-2160.02,0.621089,4.45839,-1.85332,-2157.97,-9684.75,-1784.08,-4.84041,0.419874,1.30126,9549.14,814.086,2340.39,1.58264,0.296604,1.461
0.296,5135.45,-3283.63,7628.52,-0.143271,1.88473,-0.313758,4775.62,3610.31,7630.12,-1.61407,-0.17801,-0.0482217,563.65,9436.28,-2358.58,-3.02584,-1.22312,-3.37204,942.21,-9616.36,-2367.15,-0.303283,0.374428,3.60958,-915.948,9445.86,-2159.86,0.596474,4.31021,-1.88716,-2183.95,-9678.53,-1767.44,-4.78492,0.368289,1.31316,9549.77,818.37,2349.41,1.43233,0.26074,1.39738
0.297,5136.83,-3302.66,7654.45,-0.131688,2.02231,-0.208791,4769.93,3614.85,7640.72,-1.56865,-0.204739,-0.00764328,552.921,9396.22,-2359.58,-3.24164,-1.51485,-3.30578,936.927,-9599.35,-2355.36,-0.184644,0.301107,3.61311,-917.719,9439.18,-2159.7,0.57186,4.16202,-1.92101,-2209.94,-9672.3,-1750.8,-4.72943,0.316705,1.32506,9550.41,822.653,2358.43,1.28201,0.224875,1.33376
0.298,5137.19,-3314.63,7670.12,-0.125698,2.11438,-0.160453,4761.66,3616.99,7645.56,-1.55907,-0.209257,-0.00647707,549.61,9360.32,-2364.23,-3.40138,-1.73466,-3.25324,928.565,-9585.69,-2346.6,-0.0985911,0.243236,3.62234,-920.751,9434.65,-2158.87,0.558515,3.995,-1.91772,-2221.28,-9664.92,-1738.62,-4.68116,0.293723,1.33472,9550.0,823.319,2367.89,1.15078,0.182224,1.26886
0.299,5133.97,-3301.91,7649.92,-0.139282,2.04717,-0.310313,4744.41,3610.73,7630.27,-1.67498,-0.136031,-0.143254,572.266,9338.98,-2381.63,-3.36487,-1.7027,-3.2487,909.425,-9583.76,-2348.46,-0.126593,0.239438,3.65154,-928.2,9437.63,-2155.7,0.584612,3.76203,-1.78445,-2181.38,-9653.51,-1742.09,-4.65812,0.370848,1.33655,9545.9,811.323,2378.88,1.08631,0.115818,1.19947
0.3,5130.75,-3289.18,7629.72,-0.152866,1.97997,-0.460172,4727.15,3604.46,7614.98,-1.79089,-0.0628051,-0.28003,594.923,9317.64,-2399.03,-3.32837,-1.67074,-3.24416,890.286,-9581.82,-2350.33,-0.154595,0.235639,3.68073,-935.648,9440.61,-2152.54,0.610709,3.52907,-1.65118,-2141.48,-9642.09,-1745.56,-4.63509,0.447974,1.33838,9541.81,799.328,2389.88,1.02185,0.0494133,1.13008
0.301,5127.53,-3276.46,7609.53,-0.166451,1.91277,-0.610032,4709.9,3598.19,7599.69,-1.90679,0.0104207,-0.416806,617.579,9296.3,-2416.42,-3.29187,-1.63878,-3.23961,871.147,-9579.89,-2352.19,-0.182598,0.231841,3.70992,-943.097,9443.58,-2149.37,0.636806,3.29611,-1.51791,-2101.58,-9630.67,-1749.03,-4.61206,0.5251,1.34021,9537.71,787.332,2400.88,0.957389,-0.0169919,1.06069
0.302,5124.31,-3263.74,7589.33,-0.180035,1.84556,-0.759891,4692.65,3591.92,7584.41,-2.0227,0.0836464,-0.553583,640.235,9274.96,-2433.82,-3.25537,-1.60682,-3.23507,852.007,-9577.95,-2354.06,-0.2106,0.228043,3.73912,-950.546,9446.56,-2146.2,0.662903,3.06315,-1.38464,-2061.68,-9619.26,-1752.5,-4.58903,0.602225,1.34203,9533.62,775.337,2411.88,0.892926,-0.0833971,0.991305
0.303,5132.7,-3257.58,7593.99,-0.108306,1.86277,-0.750272,4684.21,3590.3,7588.37,-2.05767,0.0946754,-0.570337,622.227,9271.01,-2420.79,-3.2961,-1.68948,-3.16244,857.403,-9590.59,-2362.29,-0.248098,0.200482,3.78106,-959.771,9453.07,-2135.52,0.648049,2.89161,-1.28954,-2071.16,-9605.16,-1756.97,-4.65867,0.618931,1.34244,9526.78,772.708,2418.07,0.756667,-0.064852,1.01998
0.304,5144.41,-3253.3,7605.75,-0.0122004,1.90409,-0.695087,4678.3,3590.01,7597.82,-2.06952,0.0879339,-0.5528,592.599,9272.03,-2399.07,-3.3589,-1.8049,-3.07037,869.808,-9607.39,-2372.35,-0.28831,0.166131,3.82665,-969.504,9460.58,-2122.68,0.621493,2.73763,-1.20534,-2094.75,-9590.29,-1761.72,-4.7548,0.618375,1.34244,9519.15,772.757,2422.89,0.599895,-0.0220353,1.07668
0.305,5156.11,-3249.03,7617.51,0.0839048,1.94542,-0.639902,4672.39,3589.72,7607.28,-2.08136,0.0811924,-0.535262,562.972,9273.04,-2377.36,-3.4217,-1.92031,-2.97829,882.213,-9624.19,-2382.4,-0.328522,0.131781,3.87223,-979.237,9468.1,-2109.84,0.594938,2.58365,-1.12115,-2118.34,-9575.42,-1766.48,-4.85093,0.617818,1.34244,9511.53,772.805,2427.71,0.443122,0.0207814,1.13337
0.306,5167.82,-3244.75,7629.27,0.18001,1.98674,-0.584717,4666.47,3589.42,7616.74,-2.09321,0.074451,-0.517725,533.345,9274.06,-2355.64,-3.4845,-2.03573,-2.88621,894.618,-9640.99,-2392.46,-0.368734,0.09743,3.91782,-988.97,9475.62,-2097.01,0.568383,2.42966,-1.03695,-2141.93,-9560.55,-1771.23,-4.94706,0.617261,1.34244,9503.91,772.854,2432.52,0.28635,0.0635981,1.19006
0.307,5170.99,-3243.13,7634.44,0.243702,2.01863,-0.539056,4664.19,3590.26,7621.32,-2.08133,0.054796,-0.462493,523.594,9289.75,-2349.54,-3.51401,-2.17656,-2.89453,903.308,-9655.1,-2394.59,-0.394275,0.0667877,3.93631,-1003.73,9470.64,-2091.62,0.605268,2.21698,-0.944013,-2152.73,-9556.57,-1781.36,-4.97387,0.624645,1.33418,9500.98,773.687,2443.95,0.0985682,0.0910066,1.21424
0.308,5157.08,-3246.81,7626.42,0.242568,2.03165,-0.512446,4669.17,3593.36,7616.13,-2.022,0.009314,-0.331874,553.598,9334.79,-2374.68,-3.47692,-2.36823,-3.10362,904.568,-9663.82,-2380.88,-0.390476,0.0435619,3.9006,-1028.53,9440.69,-2101.12,0.769036,1.88692,-0.833597,-2137.92,-9574.35,-1802.24,-4.86205,0.647912,1.30941,9507.46,776.091,2468.61,-0.151232,0.0875989,1.17339
0.309,5143.18,-3250.5,7618.4,0.241435,2.04467,-0.485836,4674.14,3596.46,7610.95,-1.96267,-0.036168,-0.201254,583.602,9379.82,-2399.81,-3.43984,-2.5599,-3.31272,905.829,-9672.54,-2367.17,-0.386676,0.0203362,3.86489,-1053.33,9410.73,-2110.62,0.932803,1.55685,-0.723182,-2123.11,-9592.14,-1823.13,-4.75024,0.671178,1.28464,9513.93,778.494,2493.27,-0.401032,0.0841912,1.13254
0.31,5129.27,-3254.19,7610.38,0.240301,2.05769,-0.459226,4679.12,3599.56,7605.76,-1.90334,-0.08165,-0.0706346,613.605,9424.86,-2424.95,-3.40276,-2.75156,-3.52182,907.089,-9681.26,-2353.45,-0.382876,-0.00288959,3.82918,-1078.13,9380.78,-2120.11,1.09657,1.22679,-0.612767,-2108.31,-9609.92,-1844.01,-4.63842,0.694444,1.25987,9520.4,780.898,2517.93,-0.650833,0.0807835,1.09168
0.311,5115.36,-3257.88,7602.36,0.239168,2.07071,-0.432616,4684.1,3602.66,7600.58,-1.84401,-0.127132,0.0599851,643.609,9469.9,-2450.09,-3.36568,-2.94323,-3.73091,908.349,-9689.98,-2339.74,-0.379076,-0.0261154,3.79347,-1102.93,9350.82,-2129.61,1.26034,0.896725,-0.502352,-2093.5,-9627.71,-1864.89,-4.52661,0.717711,1.2351,9526.88,783.302,2542.58,-0.900633,0.0773758,1.05083
0.312,5111.94,-3278.18,7622.36,0.190476,2.04977,-0.455834,4692.55,3609.84,7588.31,-1.88628,-0.106686,0.0727404,614.872,9453.55,-2432.9,-3.45637,-3.13745,-3.55616,898.898,-9683.76,-2330.61,-0.294917,-0.00294201,3.80915,-1089.56,9367.53,-2129.86,1.10799,0.712395,-0.440399,-2108.46,-9615.8,-1853.43,-4.49108,0.923442,1.30803,9533.25,773.15,2551.77,-1.15043,0.149952,0.957009
0.313,5109.83,-3300.56,7645.86,0.13584,2.02458,-0.485281,4701.43,3617.52,7575.16,-1.94125,-0.0779994,0.0707627,578.793,9429.53,-2410.42,-3.56304,-3.332,-3.33343,888.108,-9675.67,-2322.06,-0.200713,0.0260312,3.83124,-1071.42,9390.07,-2128.96,0.916121,0.546282,-0.384504,-2127.13,-9600.19,-1837.92,-4.4651,1.15198,1.39317,9539.62,761.43,2559.03,-1.40023,0.232026,0.856566
0.314,5107.72,-3322.94,7669.36,0.0812044,1.99939,-0.514728,4710.31,3625.21,7562.01,-1.99622,-0.0493126,0.0687851,542.714,9405.51,-2387.94,-3.66971,-3.52654,-3.1107,877.318,-9667.58,-2313.5,-0.10651,0.0550045,3.85334,-1053.28,9412.61,-2128.05,0.724255,0.380169,-0.328609,-2145.81,-9584.58,-1822.41,-4.43911,1.38052,1.47832,9545.99,749.709,2566.29,-1.65003,0.3141,0.756123
0.315,5105.61,-3345.31,7692.86,0.0265684,1.9742,-0.544175,4719.19,3632.89,7548.86,-2.05119,-0.0206258,0.0668074,506.634,9381.49,-2365.46,-3.77637,-3.72108,-2.88797,866.528,-9659.49,-2304.95,-0.0123059,0.0839777,3.87543,-1035.13,9435.15,-2127.15,0.532389,0.214056,-0.272715,-2164.48,-9568.96,-1806.9,-4.41313,1.60906,1.56346,9552.36,737.989,2573.54,-1.89983,0.396174,0.65568
0.316,5104.77,-3345.91,7695.1,-0.0158629,1.98512,-0.593991,4728.12,3642.93,7539.42,-2.10677,0.0199317,0.0456007,495.818,9375.09,-2352.78,-3.79402,-3.76392,-2.7624,863.383,-9649.42,-2305.01,0.00428387,0.0769243,3.94356,-1032.69,9451.09,-2139.9,0.395188,0.116318,-0.186752,-2177.05,-9566.19,-1805.08,-4.36993,1.80197,1.56925,9548.97,740.002,2591.74,-2.18504,0.411815,0.533638
0.317,5105.53,-3319.27,7670.78,-0.0430385,2.04118,-0.669268,4737.11,3655.89,7534.64,-2.1631,0.0753276,0.000357619,516.58,9390.7,-2352.36,-3.70039,-3.61713,-2.75827,869.795,-9636.87,-2315.84,-0.076144,0.0248377,4.06923,-1049.87,9458.79,-2169.75,0.326317,0.104049,-0.0632058,-2181.99,-9579.48,-1820.36,-4.3052,1.95033,1.47586,9533.4,759.181,2623.61,-2.51449,0.344414,0.384595
0.318,5106.29,-3292.64,7646.46,-0.0702141,2.09723,-0.744544,4746.09,3668.86,7529.86,-2.21943,0.130724,-0.0448854,537.342,9406.32,-2351.94,-3.60675,-3.47034,-2.75415,876.207,-9624.32,-2326.68,-0.156572,-0.027249,4.1949,-1067.04,9466.49,-2199.59,0.257447,0.0917805,0.0603406,-2186.93,-9592.77,-1835.65,-4.24047,2.0987,1.38246,9517.82,778.361,2655.48,-2.84395,0.277013,0.235552
0.319,5107.05,-3266.01,7622.13,-0.0973897,2.15329,-0.819821,4755.08,3681.83,7525.07,-2.27576,0.186119,-0.0901285,558.104,9421.93,-2351.53,-3.51312,-3.32355,-2.75002,882.619,-9611.77,-2337.51,-0.237,-0.0793357,4.32057,-1084.22,9474.19,-2229.43,0.188577,0.0795116,0.183887,-2191.87,-9606.06,-1850.93,-4.17575,2.24707,1.28907,9502.24,797.54,2687.35,-3.1734,0.209611,0.0865085
0.32,5107.81,-3239.37,7597.81,-0.124565,2.20935,-0.895098,4764.06,3694.8,7520.29,-2.33209,0.241515,-0.135371,578.866,9437.54,-2351.11,-3.41949,-3.17676,-2.7459,889.031,-9599.23,-2348.34,-0.317427,-0.131422,4.44624,-1101.39,9481.89,-2259.27,0.119707,0.0672426,0.307433,-2196.81,-9619.35,-1866.21,-4.11102,2.39544,1.19567,9486.66,816.72,2719.22,-3.50285,0.14221,-0.0625345
0.321,5125.53,-3226.92,7590.58,-0.132042,2.27089,-0.794071,4775.98,3669.43,7531.01,-2.35309,0.255822,-0.238552,604.743,9462.32,-2353.15,-3.47478,-3.09319,-2.81392,891.972,-9589.21,-2345.05,-0.355781,-0.0812889,4.4138,-1102.82,9496.58,-2245.02,0.0813596,0.173362,0.351282,-2200.08,-9638.73,-1840.31,-4.06731,2.66305,1.25186,9466.55,854.13,2756.4,-4.12052,0.213004,-0.220829
0.322,5143.26,-3214.47,7583.35,-0.139519,2.33243,-0.693044,4787.9,3644.05,7541.74,-2.3741,0.270128,-0.341733,630.621,9487.1,-2355.19,-3.53007,-3.00961,-2.88193,894.914,-9579.2,-2341.76,-0.394134,-0.0311555,4.38135,-1104.25,9511.27,-2230.76,0.0430126,0.279481,0.395131,-2203.35,-9658.11,-1814.4,-4.02359,2.93067,1.30804,9446.45,891.539,2793.58,-4.73819,0.283798,-0.379123
