Time,RFoot_accel.x,RFoot_accel.y,RFoot_accel.z,RFoot_gyro.x,RFoot_gyro.y,RFoot_gyro.z,LFoot_accel.x,LFoot_accel.y,LFoot_accel.z,LFoot_gyro.x,LFoot_gyro.y,LFoot_gyro.z,RShank_accel.x,RShank_accel.y,RShank_accel.z,RShank_gyro.x,RShank_gyro.y,RShank_gyro.z,LShank_accel.x,LShank_accel.y,LShank_accel.z,LShank_gyro.x,LShank_gyro.y,LShank_gyro.z,RThigh_accel.x,RThigh_accel.y,RThigh_accel.z,RThigh_gyro.x,RThigh_gyro.y,RThigh_gyro.z,LThigh_accel.x,LThigh_accel.y,LThigh_accel.z,LThigh_gyro.x,LThigh_gyro.y,LThigh_gyro.z,Pelvis_accel.x,Pelvis_accel.y,Pelvis_accel.z,Pelvis_gyro.x,Pelvis_gyro.y,Pelvis_gyro.z
3.81,5991.85,-1447.59,8141.07,-36.465,-66.0342,-23.1876,2254.32,-1167.06,5055.01,-26.547,323.413,93.5972,96.3646,10040.7,-2819.08,15.6572,-74.8405,-9.29273,216.875,-4124.36,-1861.38,-48.1896,67.1197,-235.849,5742.39,10182.9,3139.17,66.1507,12.6916,-180.375,-5982.34,-4807.22,478.883,21.1334,81.6814,-162.349,1551.16,-734.461,3388.99,-2.12736,-40.3662,-15.4253
3.8105,6188.24,-1555.71,8102.78,-37.4964,-65.9344,-23.6904,2265.01,-1217.92,5061.06,-25.6482,323.523,94.3283,60.2562,10035.7,-2894.43,16.0178,-76.15,-9.77051,190.989,-4180.88,-1836.74,-48.4978,66.7331,-236.518,5676.07,10280.4,3254.62,66.1585,10.7294,-179.298,-5855.13,-4720.68,446.038,20.056,82.2536,-162.18,1550.55,-632.112,3383.56,-2.32558,-41.1143,-15.1277
3.811,6384.64,-1663.83,8064.49,-38.5278,-65.8345,-24.1933,2275.69,-1268.79,5067.11,-24.7494,323.633,95.0594,24.1477,10030.7,-2969.78,16.3785,-77.4595,-10.2483,165.103,-4237.4,-1812.11,-48.806,66.3465,-237.187,5609.74,10377.9,3370.07,66.1663,8.76728,-178.222,-5727.91,-4634.13,413.193,18.9785,82.8259,-162.011,1549.95,-529.763,3378.14,-2.52379,-41.8623,-14.8301
3.8115,6581.04,-1771.96,8026.2,-39.5592,-65.7346,-24.6961,2286.38,-1319.65,5073.16,-23.8506,323.744,95.7905,-11.9607,10025.7,-3045.13,16.7392,-78.7689,-10.7261,139.217,-4293.92,-1787.47,-49.1142,65.9599,-237.856,5543.42,10475.4,3485.52,66.1742,6.80513,-177.145,-5600.69,-4547.59,380.348,17.9011,83.3981,-161.842,1549.34,-427.414,3372.72,-2.722,-42.6104,-14.5325
3.812,6777.44,-1880.08,7987.91,-40.5906,-65.6348,-25.199,2297.06,-1370.52,5079.22,-22.9518,323.854,96.5216,-48.0692,10020.6,-3120.48,17.0998,-80.0784,-11.2039,113.331,-4350.44,-1762.84,-49.4224,65.5733,-238.524,5477.1,10572.9,3600.97,66.182,4.84297,-176.069,-5473.47,-4461.05,347.503,16.8236,83.9703,-161.673,1548.74,-325.066,3367.3,-2.92021,-43.3584,-14.2349
3.8125,6973.84,-1988.2,7949.62,-41.6219,-65.5349,-25.7018,2307.75,-1421.38,5085.27,-22.053,323.964,97.2527,-84.1777,10015.6,-3195.83,17.4605,-81.3879,-11.6816,87.4447,-4406.96,-1738.2,-49.7306,65.1867,-239.193,5410.78,10670.5,3716.42,66.1898,2.88082,-174.992,-5346.25,-4374.51,314.658,15.7462,84.5426,-161.504,1548.14,-222.717,3361.87,-3.11842,-44.1065,-13.9373
3.813,7170.24,-2096.32,7911.33,-42.6533,-65.435,-26.2047,2318.43,-1472.25,5091.32,-21.1542,324.075,97.9838,-120.286,10010.6,-3271.18,17.8212,-82.6974,-12.1594,61.5586,-4463.48,-1713.57,-50.0389,64.8001,-239.862,5344.45,10768.0,3831.87,66.1977,0.918671,-173.916,-5219.04,-4287.96,281.814,14.6687,85.1148,-161.335,1547.53,-120.368,3356.45,-3.31663,-44.8546,-13.6397
3.8135,7321.4,-2195.06,7896.54,-43.325,-65.3243,-26.6693,2330.45,-1515.48,5102.62,-20.2248,324.159,98.6629,-129.336,10028.7,-3321.54,18.0227,-83.9139,-12.6784,46.6868,-4514.33,-1684.62,-50.3593,64.3948,-240.555,5255.44,10846.5,3921.11,66.1706,-1.10267,-172.88,-5114.16,-4217.39,238.821,13.5635,85.8627,-161.228,1537.62,-39.0576,3360.0,-3.49844,-45.6175,-13.4211
3.814,7382.07,-2275.05,7928.77,-43.2771,-65.192,-27.0576,2345.12,-1543.45,5124.42,-19.2344,324.191,99.2381,-84.27,10093.2,-3321.94,17.906,-84.9445,-13.2796,53.8434,-4553.82,-1647.04,-50.7041,63.9521,-241.298,5121.04,10887.0,3957.93,66.0737,-3.24239,-171.926,-5053.96,-4178.75,175.534,12.4029,86.9618,-161.245,1509.1,0.175855,3381.49,-3.64745,-46.41,-13.3605
3.8145,7442.75,-2355.03,7961.0,-43.2292,-65.0596,-27.4459,2359.79,-1571.42,5146.21,-18.244,324.222,99.8133,-39.2037,10157.6,-3322.33,17.7893,-85.9751,-13.8808,61.0,-4593.32,-1609.47,-51.049,63.5094,-242.041,4986.63,10927.5,3994.75,65.9768,-5.3821,-170.972,-4993.76,-4140.11,112.247,11.2422,88.0609,-161.263,1480.57,39.4093,3402.98,-3.79646,-47.2026,-13.2998
3.815,7503.43,-2435.01,7993.23,-43.1813,-64.9273,-27.8342,2374.47,-1599.39,5168.01,-17.2535,324.254,100.388,5.86263,10222.1,-3322.72,17.6726,-87.0056,-14.4821,68.1567,-4632.82,-1571.9,-51.3938,63.0667,-242.784,4852.23,10968.0,4031.57,65.8799,-7.52182,-170.018,-4933.57,-4101.47,48.9605,10.0815,89.1599,-161.28,1452.04,78.6428,3424.48,-3.94548,-47.9952,-13.2392
3.8155,7564.1,-2514.99,8025.46,-43.1334,-64.7949,-28.2225,2389.14,-1627.36,5189.8,-16.2631,324.286,100.964,50.929,10286.5,-3323.11,17.5559,-88.0362,-15.0833,75.3133,-4672.31,-1534.32,-51.7386,62.624,-243.527,4717.83,11008.6,4068.4,65.7831,-9.66154,-169.065,-4873.37,-4062.83,-14.3265,8.92077,90.259,-161.297,1423.52,117.876,3445.97,-4.09449,-48.7877,-13.1785
3.816,7624.78,-2594.97,8057.69,-43.0855,-64.6626,-28.6108,2403.81,-1655.33,5211.6,-15.2727,324.317,101.539,95.9953,10350.9,-3323.5,17.4392,-89.0668,-15.6845,82.4699,-4711.81,-1496.75,-52.0835,62.1813,-244.27,4583.43,11049.1,4105.22,65.6862,-11.8013,-168.111,-4813.17,-4024.19,-77.6135,7.76007,91.3581,-161.315,1394.99,157.11,3467.46,-4.2435,-49.5803,-13.1179
3.8165,7685.46,-2674.95,8089.92,-43.0377,-64.5302,-28.9991,2418.48,-1683.3,5233.39,-14.2822,324.349,102.114,141.062,10415.4,-3323.89,17.3225,-90.0973,-16.2858,89.6266,-4751.31,-1459.17,-52.4283,61.7385,-245.013,4449.02,11089.6,4142.04,65.5893,-13.941,-167.157,-4752.97,-3985.55,-140.901,6.59938,92.4572,-161.332,1366.47,196.343,3488.95,-4.39251,-50.3729,-13.0573
3.817,7746.13,-2754.93,8122.15,-42.9898,-64.3979,-29.3874,2433.16,-1711.27,5255.18,-13.2918,324.381,102.689,186.128,10479.8,-3324.28,17.2058,-91.1279,-16.887,96.7832,-4790.8,-1421.6,-52.7732,61.2958,-245.757,4314.62,11130.1,4178.86,65.4924,-16.0807,-166.203,-4692.78,-3946.91,-204.187,5.43868,93.5563,-161.349,1337.94,235.577,3510.45,-4.54152,-51.1655,-12.9966
3.8175,7806.81,-2834.91,8154.38,-42.9419,-64.2655,-29.7757,2447.83,-1739.24,5276.98,-12.3014,324.412,103.264,231.194,10544.2,-3324.67,17.0891,-92.1585,-17.4882,103.94,-4830.3,-1384.03,-53.118,60.8531,-246.5,4180.22,11170.6,4215.68,65.3955,-18.2204,-165.249,-4632.58,-3908.28,-267.474,4.27799,94.6554,-161.367,1309.42,274.81,3531.94,-4.69054,-51.958,-12.936
3.818,7781.36,-2848.68,8193.36,-42.6765,-64.2266,-30.0725,2455.39,-1759.94,5296.15,-11.2708,324.406,103.77,303.249,10620.4,-3287.48,16.8241,-92.9934,-18.0199,116.717,-4860.43,-1354.09,-53.3721,60.3865,-247.315,4055.69,11203.7,4208.98,65.2968,-20.3935,-164.333,-4582.8,-3885.8,-341.734,3.3872,96.0359,-161.395,1285.71,337.773,3538.85,-4.96721,-52.7645,-12.6478
3.8185,7648.24,-2779.69,8240.75,-42.1392,-64.3044,-30.2549,2454.07,-1771.53,5312.05,-10.19,324.353,104.189,409.041,10711.1,-3203.3,16.3739,-93.5839,-18.4646,136.519,-4878.86,-1333.71,-53.5129,59.8901,-248.222,3943.51,11227.4,4147.88,65.1958,-22.6083,-163.466,-4546.06,-3883.53,-429.71,2.83379,97.7682,-161.438,1268.04,430.397,3527.55,-5.40346,-53.5884,-12.0751
3.819,7515.13,-2710.7,8288.15,-41.6019,-64.3823,-30.4373,2452.74,-1783.12,5327.95,-9.10926,324.299,104.608,514.832,10801.8,-3119.13,15.9238,-94.1743,-18.9093,156.321,-4897.28,-1313.32,-53.6536,59.3936,-249.129,3831.33,11251.2,4086.78,65.0948,-24.8231,-162.598,-4509.31,-3881.26,-517.686,2.28038,99.5006,-161.48,1250.37,523.022,3516.24,-5.83971,-54.4122,-11.5024
3.8195,7382.02,-2641.71,8335.55,-41.0646,-64.4602,-30.6196,2451.41,-1794.72,5343.84,-8.0285,324.246,105.026,620.623,10892.5,-3034.95,15.4736,-94.7648,-19.354,176.123,-4915.71,-1292.94,-53.7944,58.8971,-250.036,3719.15,11274.9,4025.68,64.9938,-27.0379,-161.731,-4472.56,-3878.99,-605.662,1.72697,101.233,-161.522,1232.7,615.646,3504.93,-6.27597,-55.2361,-10.9297
3.82,7248.9,-2572.72,8382.94,-40.5273,-64.538,-30.802,2450.09,-1806.31,5359.74,-6.94773,324.193,105.445,726.415,10983.3,-2950.78,15.0234,-95.3552,-19.7986,195.925,-4934.13,-1272.55,-53.9351,58.4006,-250.943,3606.97,11298.6,3964.58,64.8928,-29.2527,-160.863,-4435.81,-3876.72,-693.638,1.17356,102.965,-161.565,1215.02,708.271,3493.62,-6.71222,-56.0599,-10.357
3.8205,7115.79,-2503.73,8430.34,-39.99,-64.6159,-30.9844,2448.76,-1817.91,5375.64,-5.86697,324.139,105.864,832.206,11074.0,-2866.6,14.5732,-95.9457,-20.2433,215.728,-4952.55,-1252.17,-54.0758,57.9042,-251.85,3494.79,11322.3,3903.48,64.7917,-31.4675,-159.995,-4399.07,-3874.45,-781.614,0.620148,104.698,-161.607,1197.35,800.895,3482.32,-7.14847,-56.8838,-9.7843
3.821,6982.67,-2434.74,8477.74,-39.4527,-64.6938,-31.1668,2447.44,-1829.5,5391.53,-4.7862,324.086,106.283,937.997,11164.7,-2782.43,14.123,-96.5362,-20.688,235.53,-4970.98,-1231.78,-54.2166,57.4077,-252.757,3382.61,11346.1,3842.38,64.6907,-33.6823,-159.128,-4362.32,-3872.18,-869.59,0.0667388,106.43,-161.65,1179.68,893.52,3471.01,-7.58472,-57.7076,-9.21161
3.8215,6849.56,-2365.75,8525.13,-38.9154,-64.7716,-31.3492,2446.11,-1841.09,5407.43,-3.70543,324.032,106.702,1043.79,11255.5,-2698.25,13.6728,-97.1266,-21.1327,255.332,-4989.4,-1211.4,-54.3573,56.9112,-253.664,3270.43,11369.8,3781.28,64.5897,-35.8971,-158.26,-4325.57,-3869.91,-957.566,-0.486671,108.162,-161.692,1162.0,986.144,3459.7,-8.02097,-58.5315,-8.63892
3.822,6716.44,-2296.75,8572.53,-38.3781,-64.8495,-31.5316,2444.79,-1852.69,5423.33,-2.62467,323.979,107.12,1149.58,11346.2,-2614.07,13.2226,-97.7171,-21.5774,275.134,-5007.83,-1191.02,-54.4981,56.4147,-254.571,3158.25,11393.5,3720.18,64.4887,-38.1119,-157.392,-4288.83,-3867.64,-1045.54,-1.04008,109.895,-161.735,1144.33,1078.77,3448.39,-8.45723,-59.3553,-8.06622
3.8225,6569.32,-2198.82,8613.15,-37.9479,-65.028,-31.679,2452.26,-1847.62,5446.09,-1.65822,323.954,107.379,1256.27,11400.8,-2519.7,12.7586,-98.1011,-22.0023,290.71,-5015.44,-1171.41,-54.725,55.9617,-255.465,3052.57,11413.6,3563.28,64.2715,-39.573,-156.453,-4284.84,-3866.32,-1104.23,-1.13317,112.051,-161.635,1129.92,1142.3,3445.53,-8.86669,-60.3474,-7.64975
3.823,6410.99,-2077.74,8648.34,-37.6034,-65.287,-31.7985,2466.77,-1829.22,5474.35,-0.783227,323.952,107.51,1363.67,11426.5,-2417.16,12.2835,-98.3199,-22.4115,302.905,-5014.41,-1152.44,-55.0209,55.5435,-256.347,2952.11,11430.8,3329.74,63.9612,-40.4311,-155.457,-4307.08,-3865.78,-1139.48,-0.858011,114.546,-161.423,1118.1,1182.57,3449.42,-9.25473,-61.474,-7.35825
3.8235,6252.66,-1956.66,8683.53,-37.2589,-65.5459,-31.9179,2481.28,-1810.82,5502.6,0.0917656,323.95,107.641,1471.07,11452.2,-2314.63,11.8084,-98.5388,-22.8206,315.1,-5013.38,-1133.47,-55.3169,55.1253,-257.23,2851.64,11447.9,3096.21,63.651,-41.2892,-154.461,-4329.31,-3865.23,-1174.73,-0.582849,117.042,-161.21,1106.29,1222.83,3453.31,-9.64277,-62.6007,-7.06675
3.824,6094.33,-1835.57,8718.73,-36.9144,-65.8049,-32.0374,2495.79,-1792.42,5530.85,0.966759,323.948,107.772,1578.47,11477.9,-2212.09,11.3333,-98.7576,-23.2298,327.296,-5012.35,-1114.49,-55.6128,54.7071,-258.112,2751.17,11465.1,2862.67,63.3408,-42.1473,-153.464,-4351.54,-3864.68,-1209.99,-0.307687,119.537,-160.997,1094.48,1263.1,3457.2,-10.0308,-63.7273,-6.77525
3.8245,5936.0,-1714.49,8753.92,-36.5699,-66.0639,-32.1569,2510.3,-1774.02,5559.11,1.84175,323.946,107.903,1685.87,11503.6,-2109.55,10.8582,-98.9764,-23.6389,339.491,-5011.32,-1095.52,-55.9087,54.2888,-258.995,2650.71,11482.2,2629.14,63.0305,-43.0054,-152.468,-4373.77,-3864.13,-1245.24,-0.0325247,122.032,-160.785,1082.67,1303.36,3461.09,-10.4189,-64.8539,-6.48375
3.825,5777.67,-1593.41,8789.12,-36.2254,-66.3229,-32.2763,2524.81,-1755.62,5587.36,2.71674,323.944,108.034,1793.28,11529.3,-2007.02,10.3831,-99.1953,-24.048,351.686,-5010.29,-1076.54,-56.2046,53.8706,-259.877,2550.24,11499.4,2395.6,62.7203,-43.8635,-151.472,-4396.01,-3863.58,-1280.5,0.242637,124.528,-160.572,1070.85,1343.63,3464.98,-10.8069,-65.9805,-6.19225
3.8255,5619.33,-1472.33,8824.31,-35.8809,-66.5818,-32.3958,2539.33,-1737.22,5615.62,3.59174,323.942,108.165,1900.68,11555.0,-1904.48,9.90797,-99.4141,-24.4572,363.881,-5009.25,-1057.57,-56.5005,53.4524,-260.76,2449.77,11516.6,2162.06,62.41,-44.7217,-150.475,-4418.24,-3863.03,-1315.75,0.517799,127.023,-160.359,1059.04,1383.89,3468.87,-11.1949,-67.1072,-5.90075
3.826,5461.0,-1351.24,8859.5,-35.5364,-66.8408,-32.5153,2553.84,-1718.82,5643.87,4.46673,323.939,108.296,2008.08,11580.7,-1801.94,9.43287,-99.633,-24.8663,376.076,-5008.22,-1038.59,-56.7964,53.0342,-261.642,2349.3,11533.7,1928.53,62.0998,-45.5798,-149.479,-4440.47,-3862.49,-1351.0,0.792961,129.519,-160.147,1047.23,1424.16,3472.76,-11.583,-68.2338,-5.60925
3.8265,5302.67,-1230.16,8894.7,-35.1919,-67.0998,-32.6348,2568.35,-1700.42,5672.13,5.34172,323.937,108.427,2115.48,11606.4,-1699.41,8.95776,-99.8518,-25.2754,388.272,-5007.19,-1019.62,-57.0924,52.616,-262.525,2248.84,11550.9,1694.99,61.7895,-46.4379,-148.483,-4462.7,-3861.94,-1386.26,1.06812,132.014,-159.934,1035.42,1464.42,3476.65,-11.971,-69.3604,-5.31775
3.827,5189.39,-1176.79,8909.94,-34.8387,-67.3494,-32.673,2588.35,-1685.76,5704.5,6.02365,323.936,108.456,2205.32,11586.8,-1623.48,8.66803,-99.8672,-25.7072,402.631,-5003.99,-1014.3,-57.3806,52.34,-263.424,2160.15,11599.1,1377.19,61.1952,-46.1844,-147.333,-4492.38,-3880.25,-1409.67,1.54733,134.659,-159.483,1057.4,1547.52,3504.28,-12.6052,-70.9917,-4.77709
3.8275,5098.64,-1157.28,8915.21,-34.4813,-67.5944,-32.6706,2611.09,-1672.96,5738.93,6.60904,323.936,108.433,2286.38,11544.6,-1560.85,8.47098,-99.7809,-26.1503,418.073,-4999.7,-1015.81,-57.6651,52.1352,-264.331,2077.35,11662.9,1017.26,60.4587,-45.3752,-146.107,-4525.78,-3908.01,-1427.17,2.12855,137.379,-158.913,1096.29,1652.03,3543.78,-13.3625,-72.8754,-4.11187
3.828,5007.89,-1137.77,8920.48,-34.1239,-67.8394,-32.6683,2633.83,-1660.17,5773.36,7.19442,323.935,108.41,2367.44,11502.4,-1498.22,8.27392,-99.6946,-26.5934,433.515,-4995.42,-1017.33,-57.9496,51.9303,-265.238,1994.55,11726.7,657.334,59.7223,-44.566,-144.881,-4559.18,-3935.76,-1444.66,2.70978,140.098,-158.343,1135.17,1756.55,3583.28,-14.1198,-74.7591,-3.44664
3.8285,4917.13,-1118.26,8925.75,-33.7665,-68.0844,-32.6659,2656.58,-1647.38,5807.79,7.77981,323.935,108.388,2448.5,11460.1,-1435.6,8.07687,-99.6083,-27.0365,448.957,-4991.13,-1018.84,-58.2341,51.7255,-266.145,1911.75,11790.5,297.404,58.9859,-43.7568,-143.655,-4592.58,-3963.51,-1462.16,3.291,142.818,-157.773,1174.05,1861.06,3622.78,-14.877,-76.6428,-2.78141
3.829,4826.38,-1098.75,8931.02,-33.4091,-68.3294,-32.6635,2679.32,-1634.58,5842.22,8.3652,323.934,108.365,2529.56,11417.9,-1372.97,7.87982,-99.522,-27.4796,464.4,-4986.84,-1020.35,-58.5186,51.5207,-267.052,1828.95,11854.3,-62.5254,58.2494,-42.9476,-142.429,-4625.98,-3991.26,-1479.65,3.87223,145.538,-157.202,1212.94,1965.57,3662.27,-15.6343,-78.5264,-2.11618
3.8295,4735.62,-1079.24,8936.29,-33.0516,-68.5744,-32.6612,2702.07,-1621.79,5876.65,8.95059,323.934,108.342,2610.62,11375.7,-1310.34,7.68277,-99.4357,-27.9227,479.842,-4982.56,-1021.86,-58.803,51.3158,-267.96,1746.15,11918.1,-422.455,57.513,-42.1384,-141.203,-4659.39,-4019.01,-1497.15,4.45345,148.258,-156.632,1251.82,2070.09,3701.77,-16.3916,-80.4101,-1.45095
3.83,4644.87,-1059.73,8941.55,-32.6942,-68.8194,-32.6588,2724.81,-1608.99,5911.08,9.53598,323.933,108.319,2691.68,11333.4,-1247.71,7.48571,-99.3494,-28.3658,495.284,-4978.27,-1023.37,-59.0875,51.111,-268.867,1663.36,11981.9,-782.385,56.7766,-41.3292,-139.978,-4692.79,-4046.76,-1514.64,5.03468,150.977,-156.062,1290.7,2174.6,3741.27,-17.1489,-82.2938,-0.785722
3.8305,4554.11,-1040.22,8946.82,-32.3368,-69.0644,-32.6564,2747.55,-1596.2,5945.51,10.1214,323.932,108.297,2772.74,11291.2,-1185.09,7.28866,-99.2631,-28.8088,510.726,-4973.98,-1024.89,-59.372,50.9062,-269.774,1580.56,12045.7,-1142.31,56.0401,-40.5199,-138.752,-4726.19,-4074.52,-1532.14,5.6159,153.697,-155.492,1329.59,2279.12,3780.77,-17.9061,-84.1775,-0.120493
3.831,4463.36,-1020.7,8952.09,-31.9794,-69.3094,-32.654,2770.3,-1583.4,5979.94,10.7068,323.932,108.274,2853.8,11249.0,-1122.46,7.09161,-99.1768,-29.2519,526.168,-4969.7,-1026.4,-59.6565,50.7014,-270.681,1497.76,12109.5,-1502.24,55.3037,-39.7107,-137.526,-4759.59,-4102.27,-1549.63,6.19713,156.417,-154.922,1368.47,2383.63,3820.27,-18.6634,-86.0611,0.544736
3.8315,4417.71,-989.823,8939.0,-31.7287,-69.3853,-32.4928,2812.2,-1571.73,6022.21,11.2494,324.004,107.998,2905.71,11186.1,-1083.77,7.1084,-98.9959,-29.6593,536.498,-5003.04,-1000.26,-59.9426,50.404,-271.531,1401.25,12142.6,-1787.3,54.6594,-38.5141,-136.28,-4799.51,-4140.86,-1493.38,6.76132,158.093,-154.015,1411.34,2412.82,3806.08,-19.0747,-87.6848,1.00295
3.832,4384.94,-955.693,8920.66,-31.5086,-69.4129,-32.2861,2859.57,-1560.38,6066.72,11.7798,324.097,107.65,2949.29,11117.2,-1051.93,7.1863,-98.7879,-30.0564,545.369,-5047.14,-966.218,-60.2293,50.0802,-272.364,1300.82,12166.9,-2050.96,54.0414,-37.2068,-135.03,-4841.29,-4182.54,-1416.05,7.32065,159.471,-153.011,1455.35,2420.48,3776.55,-19.3871,-89.2341,1.40202
3.8325,4352.17,-921.563,8902.32,-31.2885,-69.4404,-32.0794,2906.95,-1549.02,6111.22,12.3103,324.19,107.302,2992.87,11048.4,-1020.08,7.26419,-98.5799,-30.4535,554.239,-5091.24,-932.178,-60.516,49.7565,-273.198,1200.4,12191.2,-2314.62,53.4234,-35.8995,-133.779,-4883.08,-4224.23,-1338.72,7.87998,160.849,-152.008,1499.37,2428.14,3747.02,-19.6995,-90.7835,1.8011
3.833,4319.41,-887.433,8883.98,-31.0684,-69.468,-31.8727,2954.32,-1537.67,6155.73,12.8407,324.284,106.955,3036.44,10979.6,-988.237,7.34208,-98.372,-30.8507,563.109,-5135.34,-898.139,-60.8026,49.4327,-274.031,1099.97,12215.6,-2578.28,52.8054,-34.5922,-132.528,-4924.86,-4265.91,-1261.39,8.43931,162.227,-151.004,1543.38,2435.8,3717.5,-20.0119,-92.3328,2.20017
3.8335,4286.64,-853.303,8865.64,-30.8483,-69.4956,-31.6661,3001.69,-1526.32,6200.23,13.3711,324.377,106.607,3080.02,10910.8,-956.391,7.41998,-98.164,-31.2478,571.979,-5179.44,-864.099,-61.0893,49.1089,-274.865,999.547,12239.9,-2841.95,52.1873,-33.2848,-131.277,-4966.65,-4307.6,-1184.06,8.99864,163.605,-150.001,1587.39,2443.46,3687.97,-20.3243,-93.8822,2.59924
3.834,4253.88,-819.173,8847.3,-30.6282,-69.5231,-31.4594,3049.07,-1514.96,6244.74,13.9016,324.47,106.259,3123.6,10841.9,-924.546,7.49787,-97.9561,-31.6449,580.85,-5223.54,-830.059,-61.3759,48.7852,-275.698,899.122,12264.2,-3105.61,51.5693,-31.9775,-130.027,-5008.43,-4349.28,-1106.74,9.55797,164.983,-148.997,1631.4,2451.12,3658.44,-20.6367,-95.4315,2.99831
3.8345,4221.11,-785.043,8828.96,-30.4081,-69.5507,-31.2527,3096.44,-1503.61,6289.25,14.432,324.563,105.911,3167.18,10773.1,-892.701,7.57576,-97.7481,-32.0421,589.72,-5267.63,-796.019,-61.6626,48.4614,-276.532,798.696,12288.5,-3369.27,50.9513,-30.6702,-128.776,-5050.21,-4390.96,-1029.41,10.1173,166.361,-147.994,1675.41,2458.78,3628.92,-20.9491,-96.9809,3.39738
3.835,4188.34,-750.913,8810.62,-30.1879,-69.5783,-31.046,3143.82,-1492.26,6333.75,14.9624,324.656,105.563,3210.76,10704.3,-860.856,7.65366,-97.5401,-32.4392,598.59,-5311.73,-761.98,-61.9493,48.1376,-277.365,698.271,12312.9,-3632.93,50.3333,-29.3629,-127.525,-5092.0,-4432.65,-952.082,10.6766,167.739,-146.991,1719.42,2466.44,3599.39,-21.2615,-98.5303,3.79645
3.8355,4155.58,-716.783,8792.28,-29.9678,-69.6058,-30.8393,3191.19,-1480.9,6378.26,15.4929,324.749,105.215,3254.34,10635.4,-829.011,7.73155,-97.3322,-32.8363,607.46,-5355.83,-727.94,-62.2359,47.8138,-278.199,597.845,12337.2,-3896.59,49.7153,-28.0556,-126.274,-5133.78,-4474.33,-874.755,11.236,169.117,-145.987,1763.44,2474.1,3569.86,-21.5739,-100.08,4.19552
3.836,4154.2,-680.3,8751.36,-30.0724,-69.5418,-30.5918,3258.18,-1479.89,6410.48,15.9636,325.022,104.646,3245.75,10522.1,-849.261,8.04956,-97.119,-33.2384,600.174,-5404.19,-694.599,-62.3886,47.631,-279.096,564.261,12297.2,-4014.16,49.3115,-27.4925,-125.083,-5130.8,-4488.09,-781.305,11.7472,168.479,-144.878,1891.63,2475.48,3520.86,-21.8615,-101.285,4.59085
3.8365,4156.75,-643.523,8707.61,-30.2176,-69.4663,-30.3391,3327.61,-1480.17,6441.16,16.4269,325.317,104.049,3230.64,10403.2,-876.024,8.39759,-96.9051,-33.641,590.869,-5453.09,-661.346,-62.5245,47.4658,-280.002,539.031,12249.2,-4113.47,48.9345,-27.0224,-123.9,-5122.22,-4498.36,-685.84,12.2524,167.589,-143.756,2030.34,2476.07,3469.43,-22.146,-102.447,4.98572
3.837,4159.3,-606.747,8663.87,-30.3627,-69.3908,-30.0864,3397.04,-1480.45,6471.85,16.8902,325.612,103.452,3215.54,10284.3,-902.787,8.74561,-96.6912,-34.0437,581.564,-5501.98,-628.093,-62.6604,47.3005,-280.908,513.802,12201.2,-4212.78,48.5575,-26.5524,-122.716,-5113.64,-4508.63,-590.375,12.7576,166.699,-142.634,2169.05,2476.66,3418.0,-22.4305,-103.609,5.38058
3.8375,4161.85,-569.97,8620.12,-30.5079,-69.3153,-29.8338,3466.48,-1480.73,6502.53,17.3535,325.907,102.855,3200.43,10165.4,-929.55,9.09364,-96.4774,-34.4463,572.258,-5550.88,-594.84,-62.7964,47.1353,-281.813,488.573,12153.1,-4312.09,48.1805,-26.0823,-121.532,-5105.06,-4518.89,-494.91,13.2628,165.808,-141.511,2307.76,2477.26,3366.57,-22.7149,-104.771,5.77545
3.838,4164.4,-533.193,8576.38,-30.6531,-69.2399,-29.5811,3535.91,-1481.01,6533.21,17.8168,326.203,102.258,3185.32,10046.5,-956.312,9.44167,-96.2635,-34.849,562.953,-5599.77,-561.587,-62.9323,46.9701,-282.719,463.343,12105.1,-4411.4,47.8035,-25.6122,-120.348,-5096.48,-4529.16,-399.445,13.768,164.918,-140.389,2446.47,2477.85,3315.14,-22.9994,-105.933,6.17031
3.8385,4166.95,-496.416,8532.63,-30.7982,-69.1644,-29.3284,3605.35,-1481.29,6563.9,18.28,326.498,101.661,3170.21,9927.58,-983.075,9.78969,-96.0496,-35.2517,553.647,-5648.66,-528.334,-63.0682,46.8048,-283.624,438.114,12057.1,-4510.71,47.4265,-25.1422,-119.165,-5087.9,-4539.43,-303.98,14.2732,164.028,-139.267,2585.19,2478.44,3263.7,-23.2839,-107.095,6.56518
3.839,4169.5,-459.64,8488.88,-30.9434,-69.0889,-29.0757,3674.78,-1481.57,6594.58,18.7433,326.793,101.065,3155.1,9808.68,-1009.84,10.1377,-95.8358,-35.6543,544.342,-5697.56,-495.081,-63.2042,46.6396,-284.53,412.885,12009.1,-4610.02,47.0495,-24.6721,-117.981,-5079.32,-4549.7,-208.515,14.7785,163.138,-138.145,2723.9,2479.04,3212.27,-23.5684,-108.258,6.96005
3.8395,4172.05,-422.863,8445.14,-31.0886,-69.0134,-28.823,3744.22,-1481.85,6625.26,19.2066,327.088,100.468,3140.0,9689.78,-1036.6,10.4857,-95.6219,-36.057,535.036,-5746.45,-461.828,-63.3401,46.4744,-285.435,387.656,11961.1,-4709.33,46.6725,-24.202,-116.797,-5070.74,-4559.96,-113.05,15.2837,162.248,-137.022,2862.61,2479.63,3160.84,-23.8528,-109.42,7.35491
3.84,4174.6,-386.086,8401.39,-31.2338,-68.9379,-28.5704,3813.65,-1482.13,6655.95,19.6699,327.383,99.8708,3124.89,9570.88,-1063.36,10.8338,-95.408,-36.4596,525.731,-5795.35,-428.575,-63.476,46.3092,-286.341,362.426,11913.1,-4808.64,46.2955,-23.732,-115.614,-5062.16,-4570.23,-17.5854,15.7889,161.358,-135.9,3001.32,2480.23,3109.41,-24.1373,-110.582,7.74978
3.8405,4210.86,-414.792,8340.71,-31.2872,-68.815,-28.4123,3880.3,-1520.56,6701.2,20.1814,327.839,99.0934,3079.42,9489.8,-1108.06,11.1273,-94.9868,-37.0511,502.631,-5871.16,-412.463,-63.4946,46.0946,-287.366,426.047,11858.3,-4768.0,45.7366,-24.8266,-114.931,-5058.14,-4581.6,28.0336,16.0603,158.174,-134.869,3100.89,2509.15,3037.69,-24.5357,-110.695,7.92423
3.841,4247.12,-443.497,8280.02,-31.3407,-68.692,-28.2542,3946.96,-1559.0,6746.46,20.6929,328.295,98.316,3033.95,9408.72,-1152.76,11.4208,-94.5657,-37.6425,479.531,-5946.98,-396.351,-63.5132,45.88,-288.391,489.668,11803.6,-4727.36,45.1778,-25.9213,-114.248,-5054.11,-4592.96,73.6526,16.3316,154.99,-133.837,3200.47,2538.08,2965.97,-24.934,-110.808,8.09869
3.8415,4283.38,-472.203,8219.34,-31.3942,-68.569,-28.0961,4013.61,-1597.43,6791.72,21.2043,328.751,97.5386,2988.49,9327.64,-1197.46,11.7143,-94.1445,-38.234,456.431,-6022.8,-380.239,-63.5318,45.6654,-289.416,553.289,11748.9,-4686.72,44.6189,-27.016,-113.565,-5050.09,-4604.33,119.272,16.603,151.806,-132.806,3300.04,2567.01,2894.25,-25.3324,-110.922,8.27315
3.842,4319.64,-500.909,8158.65,-31.4477,-68.446,-27.938,4080.27,-1635.87,6836.98,21.7158,329.206,96.7612,2943.02,9246.56,-1242.16,12.0078,-93.7233,-38.8254,433.331,-6098.62,-364.127,-63.5504,45.4508,-290.441,616.909,11694.2,-4646.09,44.06,-28.1106,-112.882,-5046.06,-4615.7,164.891,16.8744,148.623,-131.775,3399.61,2595.94,2822.53,-25.7307,-111.035,8.4476
3.8425,4355.89,-529.614,8097.97,-31.5012,-68.3231,-27.7799,4146.92,-1674.3,6882.23,22.2273,329.662,95.9838,2897.55,9165.49,-1286.86,12.3013,-93.3021,-39.4169,410.232,-6174.44,-348.015,-63.569,45.2362,-291.466,680.53,11639.5,-4605.45,43.5011,-29.2053,-112.2,-5042.04,-4627.06,210.51,17.1458,145.439,-130.744,3499.18,2624.86,2750.82,-26.1291,-111.149,8.62206
3.843,4392.15,-558.32,8037.28,-31.5547,-68.2001,-27.6219,4213.58,-1712.74,6927.49,22.7387,330.118,95.2064,2852.09,9084.41,-1331.56,12.5948,-92.881,-40.0083,387.132,-6250.26,-331.903,-63.5876,45.0216,-292.491,744.151,11584.8,-4564.81,42.9423,-30.3,-111.517,-5038.01,-4638.43,256.128,17.4172,142.255,-129.712,3598.76,2653.79,2679.1,-26.5274,-111.262,8.79652
3.8435,4428.41,-587.025,7976.59,-31.6082,-68.0771,-27.4638,4280.23,-1751.17,6972.75,23.2502,330.574,94.4289,2806.62,9003.33,-1376.26,12.8883,-92.4598,-40.5998,364.032,-6326.08,-315.791,-63.6062,44.807,-293.516,807.771,11530.1,-4524.18,42.3834,-31.3946,-110.834,-5033.99,-4649.8,301.747,17.6886,139.071,-128.681,3698.33,2682.72,2607.38,-26.9257,-111.375,8.97097
3.844,4464.67,-615.731,7915.91,-31.6617,-67.9541,-27.3057,4346.89,-1789.61,7018.01,23.7617,331.029,93.6515,2761.15,8922.25,-1420.95,13.1818,-92.0386,-41.1912,340.932,-6401.9,-299.679,-63.6247,44.5924,-294.541,871.392,11475.4,-4483.54,41.8245,-32.4893,-110.151,-5029.97,-4661.16,347.366,17.9599,135.888,-127.65,3797.9,2711.65,2535.66,-27.3241,-111.489,9.14543
3.8445,4502.1,-649.537,7858.46,-31.6762,-67.8242,-27.154,4415.0,-1827.1,7062.23,24.2883,331.51,92.8609,2715.18,8848.07,-1462.64,13.4518,-91.5952,-41.7842,318.968,-6475.87,-282.212,-63.639,44.3623,-295.564,944.386,11416.5,-4439.43,41.2666,-33.6932,-109.484,-5029.1,-4675.26,385.104,18.2089,132.551,-126.638,3900.02,2740.22,2463.99,-27.7409,-111.441,9.31148
3.845,4548.88,-724.153,7826.88,-31.3786,-67.6387,-27.0535,4494.76,-1857.08,7098.23,24.9358,332.186,91.9642,2665.19,8829.05,-1480.18,13.5334,-90.9739,-42.3894,306.096,-6535.07,-253.899,-63.6187,44.0079,-296.573,1092.36,11323.8,-4367.56,40.7166,-35.7707,-108.944,-5053.48,-4711.18,359.791,18.2789,127.99,-125.786,4022.47,2765.91,2392.63,-28.3059,-110.102,9.41029
3.8455,4595.66,-798.768,7795.31,-31.0811,-67.4533,-26.953,4574.52,-1887.06,7134.23,25.5833,332.862,91.0676,2615.19,8810.02,-1497.72,13.6151,-90.3526,-42.9946,293.223,-6594.27,-225.586,-63.5984,43.6535,-297.582,1240.34,11231.2,-4295.68,40.1666,-37.8483,-108.404,-5077.87,-4747.11,334.477,18.3488,123.43,-124.933,4144.92,2791.61,2321.28,-28.8709,-108.763,9.50909
3.846,4642.44,-873.384,7763.73,-30.7835,-67.2678,-26.8525,4654.28,-1917.04,7170.23,26.2308,333.538,90.171,2565.2,8791.0,-1515.26,13.6968,-89.7313,-43.5998,280.351,-6653.47,-197.273,-63.5782,43.2991,-298.592,1388.32,11138.6,-4223.81,39.6165,-39.9259,-107.864,-5102.25,-4783.03,309.164,18.4187,118.869,-124.081,4267.37,2817.3,2249.93,-29.4358,-107.424,9.6079
3.8465,4689.23,-948.0,7732.16,-30.486,-67.0823,-26.752,4734.05,-1947.01,7206.22,26.8783,334.214,89.2744,2515.2,8771.98,-1532.8,13.7784,-89.1101,-44.205,267.478,-6712.67,-168.96,-63.5579,42.9448,-299.601,1536.3,11046.0,-4151.93,39.0665,-42.0034,-107.323,-5126.63,-4818.95,283.851,18.4886,114.309,-123.229,4389.82,2843.0,2178.57,-30.0008,-106.085,9.70671
3.847,4736.01,-1022.62,7700.59,-30.1884,-66.8968,-26.6515,4813.81,-1976.99,7242.22,27.5258,334.89,88.3777,2465.21,8752.95,-1550.34,13.8601,-88.4888,-44.8102,254.606,-6771.87,-140.647,-63.5376,42.5904,-300.61,1684.28,10953.3,-4080.06,38.5165,-44.081,-106.783,-5151.01,-4854.88,258.537,18.5585,109.748,-122.376,4512.27,2868.69,2107.22,-30.5657,-104.746,9.80551
3.8475,4782.79,-1097.23,7669.01,-29.8909,-66.7114,-26.551,4893.57,-2006.97,7278.22,28.1733,335.566,87.4811,2415.21,8733.93,-1567.88,13.9417,-87.8675,-45.4154,241.733,-6831.07,-112.334,-63.5173,42.236,-301.619,1832.25,10860.7,-4008.19,37.9665,-46.1586,-106.243,-5175.4,-4890.8,233.224,18.6285,105.188,-121.524,4634.72,2894.39,2035.87,-31.1307,-103.407,9.90432
3.848,4829.57,-1171.85,7637.44,-29.5933,-66.5259,-26.4505,4973.33,-2036.95,7314.21,28.8208,336.242,86.5845,2365.22,8714.91,-1585.42,14.0234,-87.2462,-46.0206,228.861,-6890.27,-84.0216,-63.497,41.8816,-302.629,1980.23,10768.1,-3936.31,37.4164,-48.2361,-105.702,-5199.78,-4926.73,207.911,18.6984,100.627,-120.671,4757.17,2920.08,1964.51,-31.6956,-102.068,10.0031
3.8485,4876.35,-1246.46,7605.86,-29.2958,-66.3404,-26.35,5053.1,-2066.93,7350.21,29.4684,336.918,85.6878,2315.22,8695.88,-1602.96,14.1051,-86.6249,-46.6258,215.988,-6949.47,-55.7088,-63.4767,41.5273,-303.638,2128.21,10675.5,-3864.44,36.8664,-50.3137,-105.162,-5224.16,-4962.65,182.597,18.7683,96.0666,-119.819,4879.63,2945.78,1893.16,-32.2606,-100.729,10.1019
3.849,4926.75,-1309.4,7579.4,-28.9664,-66.1608,-26.2507,5133.48,-2089.83,7383.56,30.0738,337.608,84.7911,2268.11,8678.36,-1617.46,14.1733,-85.9973,-47.2092,203.365,-7003.0,-31.4907,-63.4642,41.2098,-304.645,2272.83,10589.0,-3796.48,36.2583,-52.3752,-104.622,-5258.34,-4987.89,144.246,18.8461,91.5459,-119.006,5000.06,2966.2,1829.09,-32.8477,-99.3454,10.208
3.8495,4989.81,-1331.46,7570.84,-28.5258,-66.0017,-26.1556,5216.06,-2087.98,7407.64,30.5321,338.348,83.8942,2231.06,8666.06,-1621.31,14.1947,-85.3473,-47.7165,191.617,-7036.69,-21.6042,-63.4787,41.0215,-305.647,2405.72,10524.0,-3742.21,35.4471,-54.3806,-104.081,-5326.79,-4975.76,60.2633,18.9515,87.1647,-118.333,5113.45,2968.15,1790.54,-33.5125,-97.8073,10.3393
3.85,5052.87,-1353.52,7562.27,-28.0852,-65.8426,-26.0605,5298.63,-2086.12,7431.72,30.9903,339.088,82.9973,2194.02,8653.76,-1625.16,14.2161,-84.6974,-48.2237,179.868,-7070.38,-11.7177,-63.4932,40.8332,-306.649,2538.61,10459.1,-3687.94,34.6358,-56.386,-103.54,-5395.24,-4963.62,-23.7197,19.057,82.7834,-117.661,5226.83,2970.11,1751.98,-34.1773,-96.2692,10.4707
3.8505,5115.92,-1375.57,7553.71,-27.6446,-65.6835,-25.9654,5381.21,-2084.27,7455.8,31.4486,339.828,82.1004,2156.98,8641.46,-1629.02,14.2375,-84.0474,-48.731,168.12,-7104.07,-1.83115,-63.5078,40.6449,-307.651,2671.49,10394.1,-3633.67,33.8245,-58.3914,-102.999,-5463.69,-4951.49,-107.703,19.1624,78.4021,-116.988,5340.21,2972.06,1713.42,-34.8421,-94.731,10.6021
3.851,5178.98,-1397.63,7545.15,-27.204,-65.5243,-25.8702,5463.78,-2082.41,7479.87,31.9068,340.568,81.2035,2119.93,8629.17,-1632.87,14.2589,-83.3975,-49.2383,156.371,-7137.76,8.05536,-63.5223,40.4566,-308.653,2804.38,10329.1,-3579.41,33.0132,-60.3968,-102.458,-5532.14,-4939.35,-191.686,19.2678,74.0209,-116.315,5453.6,2974.01,1674.86,-35.5069,-93.1929,10.7334
3.8515,5242.04,-1419.69,7536.58,-26.7634,-65.3652,-25.7751,5546.35,-2080.56,7503.95,32.3651,341.307,80.3065,2082.89,8616.87,-1636.72,14.2803,-82.7475,-49.7455,144.623,-7171.45,17.9419,-63.5368,40.2682,-309.655,2937.27,10264.2,-3525.14,32.202,-62.4022,-101.917,-5600.59,-4927.21,-275.669,19.3733,69.6396,-115.642,5566.98,2975.97,1636.3,-36.1717,-91.6548,10.8648
3.852,5305.1,-1441.75,7528.02,-26.3228,-65.2061,-25.68,5628.93,-2078.7,7528.03,32.8234,342.047,79.4096,2045.85,8604.57,-1640.57,14.3017,-82.0976,-50.2528,132.874,-7205.14,27.8284,-63.5514,40.0799,-310.656,3070.15,10199.2,-3470.87,31.3907,-64.4075,-101.377,-5669.04,-4915.08,-359.652,19.4787,65.2583,-114.969,5680.36,2977.92,1597.74,-36.8365,-90.1167,10.9962
3.8525,5368.16,-1463.81,7519.46,-25.8822,-65.047,-25.5849,5711.5,-2076.85,7552.11,33.2816,342.787,78.5127,2008.8,8592.27,-1644.42,14.323,-81.4477,-50.76,121.126,-7238.83,37.7149,-63.5659,39.8916,-311.658,3203.04,10134.3,-3416.6,30.5794,-66.4129,-100.836,-5737.49,-4902.94,-443.635,19.5841,60.8771,-114.297,5793.75,2979.88,1559.18,-37.5013,-88.5786,11.1275
3.853,5431.22,-1485.87,7510.89,-25.4416,-64.8879,-25.4897,5794.08,-2074.99,7576.19,33.7399,343.527,77.6158,1971.76,8579.98,-1648.27,14.3444,-80.7977,-51.2673,109.377,-7272.52,47.6014,-63.5804,39.7033,-312.66,3335.92,10069.3,-3362.34,29.7681,-68.4183,-100.295,-5805.94,-4890.81,-527.618,19.6896,56.4958,-113.624,5907.13,2981.83,1520.63,-38.1661,-87.0405,11.2589
3.8535,5487.41,-1492.56,7495.56,-25.0422,-64.6868,-25.3663,5866.14,-2061.78,7605.28,34.1234,344.299,76.7304,1940.52,8573.88,-1655.44,14.3751,-80.1204,-51.7768,94.6426,-7308.75,56.936,-63.6037,39.5307,-313.66,3450.28,10012.5,-3330.02,28.8372,-70.0182,-99.776,-5890.47,-4874.44,-616.756,19.7804,52.5701,-112.978,5996.79,2971.8,1486.45,-38.7984,-85.4621,11.3625
3.854,5529.87,-1468.51,7466.69,-24.7253,-64.4016,-25.1864,5917.16,-2025.84,7644.4,34.3575,345.136,75.8682,1920.91,8580.21,-1669.26,14.4242,-79.3883,-52.2907,73.9353,-7350.06,65.1667,-63.6443,39.3895,-314.658,3527.56,9971.94,-3341.61,27.6669,-70.8073,-99.3013,-6007.19,-4849.59,-716.204,19.8422,49.5555,-112.385,6039.02,2937.8,1461.05,-39.3658,-83.803,11.4106
3.8545,5572.34,-1444.46,7437.81,-24.4083,-64.1163,-25.0065,5968.19,-1989.9,7683.51,34.5916,345.973,75.0059,1901.29,8586.53,-1683.08,14.4733,-78.6561,-52.8046,53.228,-7391.37,73.3974,-63.685,39.2483,-315.656,3604.84,9931.41,-3353.2,26.4966,-71.5963,-98.8266,-6123.9,-4824.75,-815.652,19.904,46.5409,-111.793,6081.24,2903.8,1435.66,-39.9331,-82.1439,11.4587
3.855,5614.8,-1420.41,7408.94,-24.0914,-63.8311,-24.8265,6019.22,-1953.96,7722.63,34.8258,346.81,74.1437,1881.68,8592.86,-1696.91,14.5225,-77.924,-53.3186,32.5207,-7432.69,81.6282,-63.7256,39.107,-316.654,3682.12,9890.87,-3364.79,25.3264,-72.3853,-98.3519,-6240.61,-4799.9,-915.099,19.9657,43.5262,-111.2,6123.47,2869.8,1410.26,-40.5005,-80.4849,11.5068
3.8555,5657.26,-1396.37,7380.07,-23.7745,-63.5459,-24.6466,6070.24,-1918.03,7761.74,35.0599,347.646,73.2814,1862.06,8599.18,-1710.73,14.5716,-77.1919,-53.8325,11.8135,-7474.0,89.8589,-63.7663,38.9658,-317.652,3759.4,9850.33,-3376.38,24.1561,-73.1743,-97.8772,-6357.32,-4775.06,-1014.55,20.0275,40.5116,-110.608,6165.69,2835.79,1384.86,-41.0679,-78.8258,11.5549
3.856,5699.73,-1372.32,7351.19,-23.4575,-63.2607,-24.4666,6121.27,-1882.09,7800.86,35.294,348.483,72.4191,1842.45,8605.5,-1724.55,14.6207,-76.4597,-54.3464,-8.89382,-7515.31,98.0896,-63.8069,38.8246,-318.65,3836.69,9809.8,-3387.96,22.9858,-73.9634,-97.4025,-6474.04,-4750.22,-1114.0,20.0892,37.497,-110.016,6207.92,2801.79,1359.46,-41.6353,-77.1668,11.603
3.8565,5742.19,-1348.27,7322.32,-23.1406,-62.9755,-24.2867,6172.3,-1846.15,7839.97,35.5281,349.32,71.5569,1822.84,8611.83,-1738.37,14.6698,-75.7276,-54.8603,-29.6011,-7556.62,106.32,-63.8475,38.6834,-319.648,3913.97,9769.26,-3399.55,21.8155,-74.7524,-96.9278,-6590.75,-4725.37,-1213.44,20.151,34.4824,-109.423,6250.14,2767.79,1334.06,-42.2026,-75.5077,11.6511
3.857,5784.65,-1324.22,7293.44,-22.8237,-62.6903,-24.1067,6223.33,-1810.22,7879.09,35.7622,350.157,70.6946,1803.22,8618.15,-1752.19,14.719,-74.9955,-55.3742,-50.3084,-7597.93,114.551,-63.8882,38.5422,-320.646,3991.25,9728.72,-3411.14,20.6453,-75.5414,-96.4531,-6707.46,-4700.53,-1312.89,20.2127,31.4678,-108.831,6292.37,2733.79,1308.66,-42.77,-73.8487,11.6991
3.8575,5827.11,-1300.17,7264.57,-22.5068,-62.4051,-23.9268,6274.35,-1774.28,7918.2,35.9964,350.994,69.8323,1783.61,8624.48,-1766.01,14.7681,-74.2633,-55.8882,-71.0157,-7639.24,122.782,-63.9288,38.4009,-321.644,4068.53,9688.19,-3422.73,19.475,-76.3304,-95.9784,-6824.18,-4675.69,-1412.34,20.2745,28.4531,-108.238,6334.59,2699.79,1283.27,-43.3374,-72.1896,11.7472
3.858,5845.83,-1286.25,7240.64,-22.2127,-62.1323,-23.7402,6316.44,-1739.02,7951.17,36.134,351.793,68.972,1770.67,8628.65,-1774.32,14.8316,-73.5313,-56.3951,-77.7171,-7686.39,123.891,-63.9575,38.2515,-322.597,4103.97,9628.6,-3435.65,18.269,-76.5082,-95.4811,-6948.23,-4648.55,-1509.36,20.3028,26.2645,-107.643,6382.8,2676.56,1270.71,-43.8006,-70.8586,11.7554
3.8585,5834.85,-1284.98,7222.87,-21.9472,-61.8748,-23.5452,6347.35,-1704.6,7976.45,36.1511,352.544,68.1141,1766.09,8630.14,-1775.74,14.9129,-72.7994,-56.8932,-66.9112,-7740.81,116.098,-63.9712,38.0917,-323.493,4087.1,9545.21,-3450.24,17.0183,-75.922,-94.9557,-7081.47,-4618.54,-1603.36,20.2894,25.1082,-107.045,6438.48,2666.79,1274.21,-44.1338,-69.9376,11.7136
3.859,5823.87,-1283.72,7205.11,-21.6816,-61.6174,-23.3502,6378.26,-1670.19,8001.73,36.1682,353.296,67.2562,1761.51,8631.63,-1777.17,14.9943,-72.0675,-57.3914,-56.1053,-7795.24,108.305,-63.9849,37.9319,-324.39,4070.23,9461.82,-3464.83,15.7676,-75.3357,-94.4302,-7214.7,-4588.53,-1697.35,20.2759,23.952,-106.447,6494.15,2657.02,1277.71,-44.467,-69.0165,11.6719
3.8595,5812.9,-1282.45,7187.35,-21.4161,-61.36,-23.1552,6409.17,-1635.77,8027.01,36.1853,354.047,66.3984,1756.93,8633.12,-1778.59,15.0757,-71.3356,-57.8895,-45.2993,-7849.67,100.512,-63.9986,37.7721,-325.287,4053.36,9378.42,-3479.41,14.517,-74.7495,-93.9047,-7347.93,-4558.52,-1791.35,20.2625,22.7957,-105.849,6549.83,2647.25,1281.21,-44.8002,-68.0955,11.6301
3.86,5801.92,-1281.19,7169.59,-21.1506,-61.1026,-22.9602,6440.07,-1601.36,8052.29,36.2024,354.799,65.5405,1752.35,8634.61,-1780.01,15.1571,-70.6037,-58.3877,-34.4934,-7904.09,92.7194,-64.0123,37.6124,-326.183,4036.49,9295.03,-3494.0,13.2663,-74.1632,-93.3792,-7481.17,-4528.51,-1885.34,20.249,21.6394,-105.251,6605.51,2637.48,1284.7,-45.1334,-67.1745,11.5884
3.8605,5790.95,-1279.92,7151.83,-20.8851,-60.8452,-22.7652,6470.98,-1566.94,8077.57,36.2195,355.55,64.6826,1747.77,8636.1,-1781.44,15.2384,-69.8718,-58.8859,-23.6875,-7958.52,84.9265,-64.026,37.4526,-327.08,4019.62,9211.64,-3508.59,12.0156,-73.5769,-92.8538,-7614.4,-4498.49,-1979.34,20.2356,20.4832,-104.652,6661.18,2627.71,1288.2,-45.4665,-66.2535,11.5466
3.861,5779.97,-1278.66,7134.07,-20.6196,-60.5878,-22.5703,6501.89,-1532.53,8102.85,36.2366,356.302,63.8247,1743.19,8637.59,-1782.86,15.3198,-69.14,-59.384,-12.8816,-8012.95,77.1336,-64.0397,37.2928,-327.976,4002.75,9128.24,-3523.17,10.7649,-72.9907,-92.3283,-7747.64,-4468.48,-2073.33,20.2221,19.3269,-104.054,6716.86,2617.94,1291.7,-45.7997,-65.3324,11.5048
3.8615,5768.99,-1277.39,7116.3,-20.3541,-60.3304,-22.3753,6532.8,-1498.11,8128.13,36.2537,357.053,62.9668,1738.61,8639.08,-1784.28,15.4012,-68.4081,-59.8822,-2.07568,-8067.37,69.3407,-64.0534,37.133,-328.873,3985.88,9044.85,-3537.76,9.51426,-72.4044,-91.8028,-7880.87,-4438.47,-2167.33,20.2087,18.1707,-103.456,6772.54,2608.18,1295.2,-46.1329,-64.4114,11.4631
3.862,5758.02,-1276.12,7098.54,-20.0886,-60.073,-22.1803,6563.71,-1463.7,8153.41,36.2707,357.805,62.1089,1734.03,8640.57,-1785.71,15.4826,-67.6762,-60.3803,8.73024,-8121.8,61.5478,-64.067,36.9733,-329.77,3969.01,8961.46,-3552.35,8.26359,-71.8181,-91.2774,-8014.1,-4408.46,-2261.32,20.1952,17.0144,-102.858,6828.22,2598.41,1298.7,-46.466,-63.4904,11.4213
3.8625,5734.57,-1287.93,7094.11,-19.7346,-59.8789,-21.951,6592.34,-1447.7,8182.49,36.2263,358.478,61.2277,1736.1,8638.1,-1787.99,15.51,-66.9791,-60.833,22.5248,-8158.88,33.5049,-64.1359,36.8966,-330.601,3907.2,8888.62,-3570.39,7.04941,-70.6243,-90.7295,-8126.21,-4379.06,-2323.41,20.1776,16.6767,-102.202,6903.57,2557.66,1308.37,-46.7998,-62.6235,11.3744
3.863,5701.16,-1310.18,7100.34,-19.3098,-59.7355,-21.6943,6619.15,-1446.43,8214.6,36.1326,359.088,60.3278,1743.5,8632.48,-1790.96,15.4944,-66.3098,-61.2493,38.7104,-8182.1,-10.738,-64.2488,36.8865,-331.381,3809.44,8824.22,-3591.21,5.86441,-68.9444,-90.1636,-8221.42,-4350.14,-2359.96,20.1567,16.9938,-101.499,6994.67,2492.12,1322.99,-47.1339,-61.7998,11.3234
3.8635,5667.74,-1332.44,7106.57,-18.8851,-59.5921,-21.4376,6645.96,-1445.17,8246.71,36.0388,359.699,59.4279,1750.89,8626.86,-1793.92,15.4788,-65.6405,-61.6656,54.8959,-8205.31,-54.9809,-64.3618,36.8763,-332.16,3711.68,8759.82,-3612.03,4.67941,-67.2644,-89.5977,-8316.63,-4321.23,-2396.51,20.1357,17.311,-100.796,7085.77,2426.59,1337.61,-47.468,-60.9761,11.2724
3.864,5634.33,-1354.7,7112.8,-18.4603,-59.4488,-21.1809,6672.77,-1443.91,8278.81,35.9451,360.31,58.528,1758.29,8621.23,-1796.89,15.4631,-64.9713,-62.0818,71.0814,-8228.52,-99.2237,-64.4747,36.8662,-332.94,3613.91,8695.42,-3632.84,3.49442,-65.5845,-89.0319,-8411.83,-4292.31,-2433.06,20.1148,17.6281,-100.093,7176.86,2361.06,1352.22,-47.8021,-60.1525,11.2214
3.8645,5600.91,-1376.96,7119.03,-18.0356,-59.3054,-20.9242,6699.58,-1442.64,8310.92,35.8514,360.92,57.6281,1765.69,8615.61,-1799.86,15.4475,-64.302,-62.4981,87.2669,-8251.73,-143.467,-64.5877,36.856,-333.72,3516.15,8631.02,-3653.66,2.30942,-63.9046,-88.466,-8507.04,-4263.39,-2469.61,20.0938,17.9452,-99.3896,7267.96,2295.52,1366.84,-48.1363,-59.3288,11.1705
3.865,5567.5,-1399.21,7125.25,-17.6108,-59.162,-20.6675,6726.39,-1441.38,8343.03,35.7577,361.531,56.7282,1773.08,8609.98,-1802.82,15.4318,-63.6327,-62.9144,103.452,-8274.94,-187.71,-64.7006,36.8459,-334.499,3418.39,8566.62,-3674.48,1.12443,-62.2246,-87.9001,-8602.24,-4234.47,-2506.16,20.0729,18.2624,-98.6866,7359.06,2229.99,1381.46,-48.4704,-58.5052,11.1195
3.8655,5534.08,-1421.47,7131.48,-17.1861,-59.0186,-20.4108,6753.19,-1440.11,8375.14,35.664,362.141,55.8283,1780.48,8604.36,-1805.79,15.4162,-62.9634,-63.3307,119.638,-8298.15,-231.952,-64.8136,36.8357,-335.279,3320.63,8502.22,-3695.29,-0.0605709,-60.5447,-87.3343,-8697.45,-4205.56,-2542.71,20.052,18.5795,-97.9836,7450.16,2164.46,1396.07,-48.8045,-57.6815,11.0685
3.866,5500.67,-1443.73,7137.71,-16.7613,-58.8752,-20.1541,6780.0,-1438.85,8407.25,35.5703,362.752,54.9284,1787.87,8598.73,-1808.76,15.4006,-62.2942,-63.747,135.823,-8321.36,-276.195,-64.9265,36.8256,-336.058,3222.86,8437.82,-3716.11,-1.24557,-58.8648,-86.7684,-8792.66,-4176.64,-2579.26,20.031,18.8966,-97.2806,7541.26,2098.92,1410.69,-49.1386,-56.8578,11.0175
3.8665,5467.25,-1465.98,7143.94,-16.3366,-58.7319,-19.8974,6806.81,-1437.58,8439.36,35.4765,363.363,54.0285,1795.27,8593.11,-1811.73,15.3849,-61.6249,-64.1632,152.009,-8344.57,-320.438,-65.0395,36.8155,-336.838,3125.1,8373.42,-3736.93,-2.43056,-57.1849,-86.2025,-8887.86,-4147.72,-2615.81,20.0101,19.2137,-96.5776,7632.35,2033.39,1425.31,-49.4728,-56.0342,10.9665
3.867,5427.58,-1472.79,7154.02,-15.9073,-58.657,-19.6327,6844.26,-1442.47,8479.24,35.3926,363.806,53.158,1790.84,8585.38,-1813.71,15.3771,-61.059,-64.5785,164.955,-8394.13,-365.68,-65.1075,36.9363,-337.578,3021.5,8312.19,-3733.89,-3.30798,-55.3281,-85.7915,-8949.18,-4137.57,-2628.7,20.0594,20.0474,-95.9343,7703.83,1975.45,1414.31,-49.6712,-55.2576,10.8596
3.8675,5384.78,-1471.87,7166.03,-15.4757,-58.6164,-19.364,6887.02,-1450.43,8523.01,35.3137,364.167,52.3022,1780.49,8576.6,-1815.2,15.3732,-60.5448,-64.9933,176.282,-8456.85,-411.421,-65.153,37.1227,-338.299,2914.98,8252.55,-3718.94,-4.03162,-53.383,-85.458,-8993.55,-4136.79,-2629.76,20.1438,21.1393,-95.321,7765.51,1921.31,1390.5,-49.8016,-54.5047,10.7247
3.868,5341.99,-1470.95,7178.03,-15.0442,-58.5758,-19.0953,6929.79,-1458.39,8566.77,35.2347,364.527,51.4465,1770.15,8567.81,-1816.69,15.3694,-60.0306,-65.4081,187.609,-8519.58,-457.162,-65.1985,37.309,-339.02,2808.46,8192.92,-3703.98,-4.75525,-51.4378,-85.1244,-9037.92,-4136.02,-2630.82,20.2283,22.2313,-94.7076,7827.18,1867.17,1366.69,-49.9321,-53.7517,10.5898
3.8685,5299.19,-1470.04,7190.03,-14.6126,-58.5352,-18.8266,6972.56,-1466.35,8610.54,35.1557,364.888,50.5907,1759.8,8559.03,-1818.17,15.3655,-59.5164,-65.8229,198.935,-8582.3,-502.904,-65.2441,37.4954,-339.741,2701.94,8133.28,-3689.02,-5.47888,-49.4926,-84.7908,-9082.29,-4135.25,-2631.87,20.3128,23.3232,-94.0942,7888.85,1813.03,1342.88,-50.0626,-52.9987,10.455
3.869,5256.39,-1469.12,7202.04,-14.181,-58.4946,-18.5579,7015.32,-1474.32,8654.3,35.0767,365.248,49.7349,1749.46,8550.25,-1819.66,15.3616,-59.0021,-66.2377,210.262,-8645.03,-548.645,-65.2896,37.6818,-340.462,2595.42,8073.64,-3674.06,-6.20251,-47.5475,-84.4573,-9126.66,-4134.48,-2632.93,20.3972,24.4151,-93.4808,7950.52,1758.88,1319.07,-50.1931,-52.2457,10.3201
3.8695,5213.6,-1468.2,7214.04,-13.7495,-58.454,-18.2892,7058.09,-1482.28,8698.07,34.9977,365.609,48.8791,1739.11,8541.47,-1821.15,15.3577,-58.4879,-66.6525,221.589,-8707.76,-594.386,-65.3351,37.8681,-341.183,2488.9,8014.0,-3659.1,-6.92614,-45.6023,-84.1237,-9171.03,-4133.7,-2633.99,20.4817,25.507,-92.8673,8012.19,1704.74,1295.26,-50.3236,-51.4927,10.1853
3.87,5170.8,-1467.28,7226.05,-13.3179,-58.4134,-18.0205,7100.85,-1490.24,8741.84,34.9188,365.969,48.0233,1728.77,8532.68,-1822.64,15.3539,-57.9737,-67.0673,232.915,-8770.48,-640.127,-65.3807,38.0545,-341.904,2382.38,7954.36,-3644.14,-7.64978,-43.6572,-83.7901,-9215.4,-4132.93,-2635.04,20.5661,26.5989,-92.254,8073.86,1650.6,1271.45,-50.4541,-50.7397,10.0504
3.8705,5128.0,-1466.36,7238.05,-12.8864,-58.3728,-17.7518,7143.62,-1498.2,8785.6,34.8398,366.33,47.1675,1718.43,8523.9,-1824.13,15.35,-57.4595,-67.482,244.242,-8833.21,-685.868,-65.4262,38.2409,-342.625,2275.86,7894.72,-3629.18,-8.37341,-41.712,-83.4565,-9259.77,-4132.16,-2636.1,20.6506,27.6909,-91.6405,8135.53,1596.46,1247.64,-50.5846,-49.9867,9.91552
3.871,5085.2,-1465.44,7250.05,-12.4548,-58.3322,-17.4831,7186.38,-1506.17,8829.37,34.7608,366.69,46.3117,1708.08,8515.12,-1825.62,15.3461,-56.9453,-67.8968,255.569,-8895.94,-731.609,-65.4717,38.4272,-343.345,2169.34,7835.08,-3614.22,-9.09704,-39.7669,-83.123,-9304.14,-4131.39,-2637.16,20.735,28.7828,-91.0271,8197.2,1542.32,1223.83,-50.7151,-49.2337,9.78066
3.8715,5108.85,-1488.15,7271.49,-12.1284,-58.3048,-17.5141,7223.92,-1496.31,8878.83,34.6822,366.927,45.5698,1683.41,8495.05,-1846.94,15.3492,-56.4709,-68.3117,256.889,-8960.28,-766.728,-65.5339,38.5469,-344.075,2072.58,7767.27,-3571.79,-9.49298,-38.0706,-83.0067,-9297.27,-4144.45,-2606.87,20.8762,29.7133,-90.4671,8281.41,1483.49,1212.01,-50.6937,-48.5294,9.59233
3.872,5151.47,-1517.61,7295.61,-11.8321,-58.2812,-17.6307,7259.97,-1481.36,8929.93,34.6036,367.129,44.8604,1654.64,8471.75,-1873.93,15.3542,-56.0078,-68.7265,255.35,-9025.08,-798.811,-65.6009,38.6475,-344.806,1978.61,7697.12,-3521.5,-9.79529,-36.4455,-82.9525,-9275.78,-4161.47,-2567.63,21.0337,30.5976,-89.9222,8372.06,1423.32,1203.62,-50.6289,-47.8389,9.38871
3.8725,5194.09,-1547.08,7319.74,-11.5358,-58.2576,-17.7474,7296.01,-1466.42,8981.02,34.525,367.331,44.151,1625.87,8448.46,-1900.92,15.3593,-55.5447,-69.1413,253.811,-9089.88,-830.894,-65.6679,38.7481,-345.537,1884.64,7626.98,-3471.22,-10.0976,-34.8204,-82.8984,-9254.28,-4178.49,-2528.38,21.1911,31.482,-89.3774,8462.71,1363.15,1195.22,-50.564,-47.1483,9.1851
3.873,5236.72,-1576.54,7343.86,-11.2395,-58.234,-17.864,7332.06,-1451.47,9032.12,34.4465,367.533,43.4415,1597.1,8425.16,-1927.9,15.3643,-55.0816,-69.5562,252.272,-9154.69,-862.977,-65.7349,38.8487,-346.269,1790.67,7556.83,-3420.93,-10.3999,-33.1953,-82.8442,-9232.78,-4195.5,-2489.14,21.3485,32.3664,-88.8326,8553.36,1302.99,1186.83,-50.4992,-46.4578,8.98149
3.8735,5279.34,-1606.0,7367.99,-10.9433,-58.2104,-17.9806,7368.1,-1436.52,9083.21,34.3679,367.735,42.7321,1568.34,8401.87,-1954.89,15.3693,-54.6185,-69.971,250.733,-9219.49,-895.061,-65.8018,38.9493,-347.0,1696.7,7486.68,-3370.65,-10.7022,-31.5702,-82.79,-9211.28,-4212.52,-2449.89,21.506,33.2507,-88.2877,8644.01,1242.82,1178.43,-50.4343,-45.7673,8.77788
3.874,5321.97,-1635.46,7392.12,-10.647,-58.1867,-18.0973,7404.14,-1421.57,9134.31,34.2893,367.937,42.0227,1539.57,8378.57,-1981.88,15.3744,-54.1554,-70.3859,249.194,-9284.3,-927.144,-65.8688,39.0499,-347.731,1602.73,7416.53,-3320.36,-11.0045,-29.9451,-82.7358,-9189.78,-4229.54,-2410.65,21.6634,34.1351,-87.7429,8734.66,1182.65,1170.04,-50.3695,-45.0768,8.57427
3.8745,5364.59,-1664.92,7416.24,-10.3507,-58.1631,-18.2139,7440.19,-1406.63,9185.4,34.2108,368.138,41.3133,1510.8,8355.28,-2008.87,15.3794,-53.6923,-70.8007,247.655,-9349.1,-959.227,-65.9358,39.1505,-348.463,1508.76,7346.39,-3270.07,-11.3068,-28.32,-82.6816,-9168.28,-4246.56,-2371.41,21.8208,35.0195,-87.1981,8825.31,1122.49,1161.65,-50.3046,-44.3863,8.37066
3.875,5407.21,-1694.39,7440.37,-10.0544,-58.1395,-18.3306,7476.23,-1391.68,9236.49,34.1322,368.34,40.6039,1482.03,8331.98,-2035.86,15.3844,-53.2293,-71.2156,246.116,-9413.9,-991.31,-66.0028,39.2511,-349.194,1414.79,7276.24,-3219.79,-11.6092,-26.6949,-82.6275,-9146.78,-4263.57,-2332.16,21.9783,35.9038,-86.6532,8915.96,1062.32,1153.25,-50.2398,-43.6958,8.16705
3.8755,5449.84,-1723.85,7464.49,-9.75807,-58.1159,-18.4472,7512.28,-1376.73,9287.59,34.0537,368.542,39.8944,1453.26,8308.68,-2062.84,15.3895,-52.7662,-71.6304,244.577,-9478.71,-1023.39,-66.0697,39.3517,-349.926,1320.82,7206.09,-3169.5,-11.9115,-25.0697,-82.5733,-9125.28,-4280.59,-2292.92,22.1357,36.7882,-86.1084,9006.61,1002.15,1144.86,-50.175,-43.0053,7.96344
3.876,5471.13,-1728.63,7442.3,-9.56776,-57.9686,-18.3543,7547.84,-1357.92,9346.0,33.9538,368.649,39.2239,1434.42,8308.38,-2081.44,15.4507,-52.4656,-71.9712,237.272,-9555.0,-1056.01,-66.0867,39.46,-350.726,1260.67,7179.05,-3075.45,-11.7889,-24.1927,-82.605,-9090.91,-4303.86,-2243.52,22.234,36.8236,-85.6519,9082.11,936.137,1115.82,-50.1874,-41.9929,7.821
3.8765,5489.75,-1730.33,7414.31,-9.3907,-57.8058,-18.2352,7583.34,-1338.63,9405.33,33.8512,368.744,38.5583,1416.81,8310.94,-2098.99,15.519,-52.1854,-72.3027,229.246,-9632.72,-1088.7,-66.0973,39.5693,-351.534,1204.74,7157.39,-2975.93,-11.6132,-23.4091,-82.6474,-9054.93,-4327.91,-2192.85,22.3249,36.753,-85.2065,9155.71,869.391,1084.2,-50.2095,-40.9403,7.6862
3.877,5508.37,-1732.02,7386.33,-9.21364,-57.643,-18.1161,7618.84,-1319.34,9464.66,33.7486,368.839,37.8927,1399.21,8313.5,-2116.55,15.5872,-51.9052,-72.6342,221.22,-9710.44,-1121.39,-66.108,39.6786,-352.343,1148.81,7135.74,-2876.41,-11.4376,-22.6255,-82.6899,-9018.95,-4351.97,-2142.18,22.4158,36.6823,-84.7611,9229.31,802.646,1052.58,-50.2315,-39.8877,7.55141
3.8775,5526.99,-1733.72,7358.34,-9.03657,-57.4802,-17.997,7654.34,-1300.04,9523.99,33.6461,368.934,37.227,1381.6,8316.07,-2134.1,15.6554,-51.625,-72.9658,213.194,-9788.17,-1154.08,-66.1186,39.7878,-353.151,1092.88,7114.08,-2776.9,-11.2619,-21.8419,-82.7323,-8982.98,-4376.02,-2091.51,22.5067,36.6116,-84.3157,9302.9,735.9,1020.97,-50.2536,-38.8351,7.41662
3.878,5545.61,-1735.42,7330.36,-8.85951,-57.3174,-17.8779,7689.83,-1280.75,9583.32,33.5435,369.029,36.5614,1364.0,8318.63,-2151.65,15.7237,-51.3448,-73.2973,205.168,-9865.89,-1186.76,-66.1293,39.8971,-353.96,1036.95,7092.43,-2677.38,-11.0862,-21.0583,-82.7747,-8947.0,-4400.07,-2040.84,22.5976,36.541,-83.8703,9376.5,669.155,989.348,-50.2757,-37.7825,7.28183
3.8785,5564.23,-1737.12,7302.37,-8.68244,-57.1546,-17.7588,7725.33,-1261.45,9642.64,33.441,369.124,35.8957,1346.39,8321.19,-2169.2,15.7919,-51.0646,-73.6288,197.142,-9943.62,-1219.45,-66.1399,40.0064,-354.768,981.025,7070.77,-2577.86,-10.9106,-20.2747,-82.8172,-8911.02,-4424.12,-1990.17,22.6885,36.4703,-83.4248,9450.1,602.409,957.731,-50.2978,-36.7299,7.14704
3.879,5582.85,-1738.81,7274.38,-8.50538,-56.9918,-17.6397,7760.83,-1242.16,9701.97,33.3384,369.219,35.2301,1328.79,8323.76,-2186.75,15.8602,-50.7844,-73.9603,189.116,-10021.3,-1252.14,-66.1506,40.1157,-355.577,925.097,7049.12,-2478.34,-10.7349,-19.4911,-82.8596,-8875.04,-4448.17,-1939.5,22.7794,36.3997,-82.9794,9523.7,535.664,926.113,-50.3198,-35.6773,7.01224
3.8795,5601.47,-1740.51,7246.4,-8.32832,-56.829,-17.5206,7796.33,-1222.87,9761.3,33.2358,369.314,34.5644,1311.18,8326.32,-2204.3,15.9284,-50.5042,-74.2918,181.09,-10099.1,-1284.83,-66.1613,40.225,-356.385,869.169,7027.46,-2378.82,-10.5592,-18.7075,-82.9021,-8839.06,-4472.23,-1888.83,22.8703,36.329,-82.534,9597.3,468.918,894.495,-50.3419,-34.6246,6.87745
3.88,5620.1,-1742.21,7218.41,-8.15125,-56.6662,-17.4016,7831.83,-1203.57,9820.63,33.1333,369.408,33.8988,1293.58,8328.89,-2221.85,15.9967,-50.224,-74.6234,173.064,-10176.8,-1317.51,-66.1719,40.3343,-357.194,813.241,7005.81,-2279.3,-10.3835,-17.9239,-82.9445,-8803.08,-4496.28,-1838.16,22.9612,36.2583,-82.0886,9670.9,402.172,862.878,-50.364,-33.572,6.74266
3.8805,5604.07,-1764.13,7232.13,-8.01652,-56.7347,-17.4354,7892.27,-1175.75,9874.94,32.8648,369.428,33.3116,1261.73,8345.73,-2237.13,16.0011,-50.0825,-75.0142,166.244,-10260.4,-1345.18,-66.3045,40.417,-357.717,792.353,6984.99,-2169.09,-9.89543,-17.9607,-83.2296,-8738.43,-4523.95,-1821.91,22.9591,35.3443,-81.7318,9720.22,312.465,855.31,-50.4008,-32.0134,6.33175
3.881,5588.04,-1786.05,7245.85,-7.88179,-56.8031,-17.4693,7952.72,-1147.92,9929.25,32.5964,369.448,32.7245,1229.89,8362.58,-2252.41,16.0056,-49.941,-75.405,159.423,-10344.1,-1372.84,-66.437,40.4997,-358.24,771.466,6964.17,-2058.88,-9.40731,-17.9975,-83.5148,-8673.78,-4551.62,-1805.66,22.9571,34.4304,-81.375,9769.53,222.757,847.743,-50.4375,-30.4548,5.92084
3.8815,5572.01,-1807.98,7259.57,-7.74706,-56.8715,-17.5031,8013.16,-1120.1,9983.56,32.3279,369.468,32.1374,1198.04,8379.42,-2267.69,16.0101,-49.7994,-75.7958,152.602,-10427.7,-1400.51,-66.5696,40.5824,-358.764,750.578,6943.36,-1948.67,-8.91919,-18.0344,-83.7999,-8609.13,-4579.29,-1789.41,22.955,33.5164,-81.0182,9818.85,133.049,840.175,-50.4743,-28.8962,5.50992
3.882,5555.98,-1829.9,7273.29,-7.61232,-56.9399,-17.537,8073.6,-1092.27,10037.9,32.0595,369.488,31.5502,1166.19,8396.27,-2282.97,16.0146,-49.6579,-76.1866,145.782,-10511.4,-1428.17,-66.7022,40.6651,-359.287,729.69,6922.54,-1838.47,-8.43107,-18.0712,-84.085,-8544.48,-4606.96,-1773.16,22.9529,32.6024,-80.6614,9868.16,43.3418,832.608,-50.5111,-27.3376,5.09901
3.8825,5539.95,-1851.82,7287.02,-7.47759,-57.0083,-17.5708,8134.04,-1064.45,10092.2,31.791,369.508,30.9631,1134.35,8413.11,-2298.25,16.0191,-49.5164,-76.5774,138.961,-10595.0,-1455.83,-66.8347,40.7478,-359.81,708.803,6901.72,-1728.26,-7.94295,-18.108,-84.3701,-8479.83,-4634.63,-1756.91,22.9508,31.6885,-80.3046,9917.48,-46.3658,825.04,-50.5479,-25.779,4.6881
3.883,5523.92,-1873.75,7300.73,-7.34286,-57.0768,-17.6047,8194.49,-1036.62,10146.5,31.5225,369.528,30.3759,1102.5,8429.96,-2313.53,16.0236,-49.3749,-76.9682,132.14,-10678.7,-1483.5,-66.9673,40.8305,-360.333,687.915,6880.9,-1618.05,-7.45483,-18.1449,-84.6553,-8415.18,-4662.3,-1740.67,22.9488,30.7745,-79.9478,9966.79,-136.073,817.473,-50.5847,-24.2204,4.27719
3.8835,5507.89,-1895.67,7314.46,-7.20813,-57.1452,-17.6386,8254.93,-1008.79,10200.8,31.2541,369.548,29.7888,1070.66,8446.8,-2328.82,16.028,-49.2334,-77.359,125.32,-10762.3,-1511.16,-67.0998,40.9132,-360.856,667.027,6860.08,-1507.84,-6.96671,-18.1817,-84.9404,-8350.53,-4689.97,-1724.42,22.9467,29.8605,-79.591,10016.1,-225.781,809.906,-50.6215,-22.6618,3.86627
3.884,5491.86,-1917.59,7328.18,-7.0734,-57.2136,-17.6724,8315.37,-980.968,10255.1,30.9856,369.568,29.2017,1038.81,8463.65,-2344.1,16.0325,-49.0919,-77.7498,118.499,-10846.0,-1538.82,-67.2324,40.9959,-361.379,646.14,6839.27,-1397.64,-6.47859,-18.2185,-85.2255,-8285.88,-4717.64,-1708.17,22.9446,28.9465,-79.2342,10065.4,-315.489,802.338,-50.6582,-21.1032,3.45536
3.8845,5479.52,-1937.65,7341.09,-6.93553,-57.2806,-17.7103,8379.37,-950.578,10307.0,30.7085,369.593,28.6026,1005.56,8481.17,-2357.31,16.0314,-48.9579,-78.1325,109.516,-10928.6,-1566.45,-67.3713,41.1004,-361.9,623.125,6819.37,-1288.62,-5.98867,-18.3422,-85.5088,-8223.6,-4746.91,-1694.99,22.9579,27.9641,-78.8963,10113.7,-406.595,794.259,-50.688,-19.5406,3.0204
3.885,5496.65,-1942.74,7347.52,-6.77261,-57.336,-17.7798,8471.83,-899.672,10339.1,30.3616,369.653,27.9084,961.009,8504.09,-2354.03,15.9852,-48.884,-78.4501,83.237,-11003.6,-1593.74,-67.5605,41.3798,-362.403,583.091,6806.81,-1189.17,-5.48438,-19.1608,-85.7775,-8180.3,-4788.96,-1706.41,23.0938,26.4341,-78.7096,10153.8,-508.885,782.089,-50.6614,-17.9457,2.39305
3.8855,5513.78,-1947.82,7353.96,-6.60969,-57.3914,-17.8494,8564.29,-848.767,10371.2,30.0148,369.714,27.2143,916.461,8527.01,-2350.75,15.939,-48.8101,-78.7677,56.9576,-11078.5,-1621.04,-67.7498,41.6593,-362.905,543.058,6794.25,-1089.71,-4.98009,-19.9793,-86.0462,-8136.99,-4831.0,-1717.82,23.2298,24.904,-78.5229,10193.9,-611.175,769.918,-50.6347,-16.3507,1.7657
3.886,5530.9,-1952.91,7360.4,-6.44678,-57.4469,-17.9189,8656.76,-797.862,10403.3,29.6679,369.774,26.5201,871.912,8549.93,-2347.47,15.8928,-48.7361,-79.0853,30.6781,-11153.5,-1648.34,-67.9391,41.9387,-363.408,503.024,6781.7,-990.249,-4.47579,-20.7979,-86.3149,-8093.69,-4873.05,-1729.24,23.3657,23.374,-78.3361,10234.0,-713.466,757.748,-50.6081,-14.7558,1.13835
3.8865,5548.03,-1958.0,7366.83,-6.28386,-57.5023,-17.9885,8749.22,-746.957,10435.4,29.3211,369.835,25.8259,827.364,8572.85,-2344.19,15.8466,-48.6622,-79.4029,4.39868,-11228.4,-1675.64,-68.1283,42.2181,-363.911,462.991,6769.14,-890.791,-3.9715,-21.6164,-86.5836,-8050.38,-4915.09,-1740.65,23.5017,21.8439,-78.1494,10274.1,-815.756,745.578,-50.5815,-13.1609,0.511002
3.887,5565.16,-1963.09,7373.27,-6.12094,-57.5577,-18.0581,8841.68,-696.052,10467.6,28.9742,369.895,25.1317,782.816,8595.77,-2340.91,15.8004,-48.5883,-79.7205,-21.8808,-11303.4,-1702.94,-68.3176,42.4975,-364.413,422.957,6756.58,-791.333,-3.46721,-22.435,-86.8523,-8007.08,-4957.14,-1752.07,23.6376,20.3139,-77.9627,10314.2,-918.047,733.407,-50.5549,-11.566,-0.116348
3.8875,5582.29,-1968.17,7379.71,-5.95802,-57.6132,-18.1276,8934.14,-645.147,10499.7,28.6274,369.956,24.4375,738.268,8618.69,-2337.63,15.7542,-48.5144,-80.0381,-48.1602,-11378.3,-1730.24,-68.5069,42.7769,-364.916,382.924,6744.03,-691.875,-2.96292,-23.2535,-87.121,-7963.77,-4999.18,-1763.48,23.7736,18.7839,-77.7759,10354.3,-1020.34,721.237,-50.5283,-9.97109,-0.743697
3.888,5599.42,-1973.26,7386.14,-5.7951,-57.6686,-18.1972,9026.6,-594.242,10531.8,28.2805,370.017,23.7433,693.72,8641.61,-2334.35,15.708,-48.4405,-80.3557,-74.4397,-11453.3,-1757.54,-68.6962,43.0563,-365.418,342.89,6731.47,-592.417,-2.45862,-24.0721,-87.3897,-7920.46,-5041.23,-1774.9,23.9095,17.2538,-77.5892,10394.3,-1122.63,709.066,-50.5017,-8.37617,-1.37105
3.8885,5616.55,-1978.35,7392.58,-5.63218,-57.724,-18.2668,9119.06,-543.336,10563.9,27.9337,370.077,23.0491,649.171,8664.53,-2331.07,15.6618,-48.3665,-80.6733,-100.719,-11528.2,-1784.83,-68.8854,43.3357,-365.921,302.857,6718.91,-492.959,-1.95433,-24.8906,-87.6583,-7877.16,-5083.27,-1786.31,24.0455,15.7238,-77.4025,10434.4,-1224.92,696.896,-50.4751,-6.78126,-1.9984
3.889,5634.36,-1979.17,7394.49,-5.48779,-57.7699,-18.3426,9221.38,-487.387,10593.9,27.5446,370.18,22.3536,610.592,8685.59,-2326.28,15.606,-48.3126,-80.9697,-128.734,-11605.6,-1811.88,-69.0678,43.6421,-366.41,262.039,6714.5,-394.1,-1.46198,-25.8455,-87.9475,-7840.46,-5120.98,-1796.26,24.2313,14.0671,-77.2349,10471.4,-1313.89,690.947,-50.4475,-5.21565,-2.58499
3.8895,5654.55,-1965.07,7380.57,-5.40826,-57.7825,-18.4407,9358.2,-413.785,10616.7,27.0076,370.433,21.6534,592.902,8700.14,-2316.2,15.5168,-48.3287,-81.1922,-162.825,-11691.3,-1838.06,-69.2262,44.0429,-366.849,218.478,6738.58,-297.339,-1.01143,-27.2774,-88.3082,-7826.9,-5143.51,-1801.06,24.592,11.9671,-77.1345,10497.3,-1356.22,706.775,-50.4167,-3.75262,-3.02896
3.89,5674.74,-1950.96,7366.65,-5.32872,-57.7951,-18.5387,9495.02,-340.183,10639.4,26.4706,370.686,20.9532,575.213,8714.7,-2306.13,15.4276,-48.3449,-81.4146,-196.916,-11777.1,-1864.24,-69.3846,44.4437,-367.289,174.917,6762.66,-200.577,-0.560884,-28.7094,-88.6688,-7813.34,-5166.05,-1805.87,24.9526,9.86715,-77.034,10523.3,-1398.56,722.602,-50.386,-2.28959,-3.47292
3.8905,5694.93,-1936.86,7352.73,-5.24918,-57.8076,-18.6367,9631.84,-266.58,10662.1,25.9336,370.938,20.2531,557.524,8729.26,-2296.05,15.3383,-48.361,-81.6371,-231.006,-11862.8,-1890.41,-69.543,44.8445,-367.729,131.356,6786.75,-103.816,-0.110335,-30.1413,-89.0295,-7799.78,-5188.58,-1810.67,25.3133,7.76718,-76.9335,10549.2,-1440.9,738.43,-50.3552,-0.826562,-3.91688
3.891,5715.11,-1922.75,7338.81,-5.16964,-57.8202,-18.7348,9768.66,-192.978,10684.9,25.3967,371.191,19.5529,539.834,8743.81,-2285.97,15.2491,-48.3771,-81.8596,-265.097,-11948.6,-1916.59,-69.7014,45.2452,-368.169,87.7951,6810.83,-7.05415,0.340215,-31.5733,-89.3902,-7786.22,-5211.12,-1815.48,25.6739,5.66721,-76.8331,10575.2,-1483.23,754.257,-50.3244,0.636468,-4.36085
3.8915,5735.3,-1908.65,7324.89,-5.0901,-57.8328,-18.8328,9905.47,-119.376,10707.6,24.8597,371.443,18.8527,522.145,8758.37,-2275.9,15.1599,-48.3932,-82.082,-299.187,-12034.4,-1942.77,-69.8598,45.646,-368.609,44.234,6834.91,89.7074,0.790765,-33.0052,-89.7509,-7772.65,-5233.65,-1820.28,26.0346,3.56724,-76.7327,10601.1,-1525.57,770.085,-50.2936,2.0995,-4.80481
3.892,5755.49,-1894.55,7310.96,-5.01056,-57.8454,-18.9308,10042.3,-45.7736,10730.3,24.3227,371.696,18.1526,504.456,8772.93,-2265.82,15.0706,-48.4093,-82.3045,-333.278,-12120.1,-1968.94,-70.0182,46.0468,-369.049,0.672922,6858.99,186.469,1.24131,-34.4371,-90.1115,-7759.09,-5256.18,-1825.09,26.3952,1.46727,-76.6322,10627.1,-1567.91,785.912,-50.2629,3.56253,-5.24877
3.8925,5775.68,-1880.44,7297.04,-4.93103,-57.8579,-19.0288,10179.1,27.8287,10753.1,23.7857,371.949,17.4524,486.766,8787.48,-2255.74,14.9814,-48.4254,-82.527,-367.369,-12205.9,-1995.12,-70.1765,46.4476,-369.489,-42.8881,6883.07,283.231,1.69186,-35.8691,-90.4722,-7745.53,-5278.72,-1829.9,26.7559,-0.632701,-76.5318,10653.0,-1610.24,801.74,-50.2321,5.02556,-5.69274
3.893,5795.87,-1866.34,7283.12,-4.85149,-57.8705,-19.1269,10315.9,101.431,10775.8,23.2487,372.201,16.7522,469.077,8802.04,-2245.67,14.8922,-48.4415,-82.7494,-401.459,-12291.6,-2021.3,-70.3349,46.8483,-369.929,-86.4492,6907.15,379.992,2.14241,-37.301,-90.8329,-7731.97,-5301.25,-1834.7,27.1165,-2.73267,-76.4313,10679.0,-1652.58,817.567,-50.2013,6.48859,-6.1367
3.8935,5813.38,-1854.09,7271.79,-4.76667,-57.8922,-19.2099,10450.5,178.264,10805.2,22.6008,372.453,16.021,456.519,8816.65,-2238.45,14.8032,-48.448,-82.9699,-438.855,-12379.8,-2053.7,-70.5249,47.3048,-370.33,-138.423,6933.25,467.472,2.58881,-38.8417,-91.1429,-7716.82,-5320.58,-1838.23,27.4646,-5.03035,-76.3375,10702.6,-1705.9,824.143,-50.1081,7.86671,-6.6122
3.894,5825.51,-1845.54,7265.65,-4.67128,-57.932,-19.263,10580.4,261.558,10848.2,21.731,372.705,15.2278,454.223,8831.36,-2236.97,14.7149,-48.4353,-83.1864,-482.861,-12472.9,-2098.53,-70.7782,47.8726,-370.652,-207.221,6963.37,536.388,3.02691,-40.5998,-91.3516,-7698.48,-5333.49,-1839.22,27.7874,-7.72346,-76.2569,10721.7,-1781.21,812.217,-49.89,9.075,-7.15076
3.8945,5837.64,-1837.0,7259.51,-4.5759,-57.9718,-19.3161,10710.3,344.853,10891.1,20.8611,372.956,14.4345,451.928,8846.07,-2235.48,14.6265,-48.4225,-83.4029,-526.866,-12565.9,-2143.37,-71.0314,48.4405,-370.975,-276.02,6993.49,605.304,3.46501,-42.3579,-91.5603,-7680.14,-5346.4,-1840.21,28.1102,-10.4166,-76.1764,10740.8,-1856.51,800.291,-49.6718,10.2833,-7.68933
3.895,5849.78,-1828.45,7253.36,-4.48052,-58.0116,-19.3692,10840.3,428.147,10934.0,19.9913,373.208,13.6412,449.633,8860.78,-2234.0,14.5382,-48.4097,-83.6194,-570.872,-12658.9,-2188.21,-71.2847,49.0083,-371.297,-344.818,7023.61,674.22,3.90311,-44.116,-91.769,-7661.8,-5359.31,-1841.2,28.433,-13.1097,-76.0958,10759.9,-1931.81,788.364,-49.4537,11.4916,-8.22789
3.8955,5861.91,-1819.9,7247.22,-4.38514,-58.0514,-19.4223,10970.2,511.441,10977.0,19.1214,373.459,12.8479,447.338,8875.49,-2232.52,14.4498,-48.3969,-83.8358,-614.877,-12752.0,-2233.04,-71.5379,49.5762,-371.619,-413.617,7053.73,743.136,4.34121,-45.8741,-91.9777,-7643.46,-5372.21,-1842.19,28.7558,-15.8028,-76.0153,10779.0,-2007.11,776.438,-49.2355,12.6999,-8.76645
3.896,5874.05,-1811.36,7241.08,-4.28975,-58.0912,-19.4754,11100.2,594.736,11019.9,18.2516,373.711,12.0546,445.042,8890.2,-2231.03,14.3614,-48.3841,-84.0523,-658.883,-12845.0,-2277.88,-71.7912,50.144,-371.942,-482.416,7083.85,812.052,4.77931,-47.6323,-92.1864,-7625.12,-5385.12,-1843.18,29.0786,-18.4959,-75.9347,10798.1,-2082.41,764.512,-49.0174,13.9082,-9.30502
3.8965,5886.18,-1802.81,7234.93,-4.19437,-58.131,-19.5285,11230.1,678.03,11062.8,17.3817,373.962,11.2613,442.747,8904.91,-2229.55,14.2731,-48.3714,-84.2688,-702.889,-12938.0,-2322.72,-72.0444,50.7118,-372.264,-551.214,7113.97,880.968,5.21741,-49.3904,-92.3951,-7606.79,-5398.03,-1844.17,29.4014,-21.189,-75.8542,10817.1,-2157.72,752.585,-48.7993,15.1165,-9.84358
3.897,5898.32,-1794.27,7228.79,-4.09899,-58.1708,-19.5815,11360.1,761.325,11105.7,16.5119,374.214,10.4681,440.452,8919.63,-2228.06,14.1847,-48.3586,-84.4853,-746.894,-13031.1,-2367.55,-72.2977,51.2797,-372.587,-620.013,7144.09,949.884,5.65551,-51.1485,-92.6038,-7588.45,-5410.94,-1845.16,29.7242,-23.8821,-75.7736,10836.2,-2233.02,740.659,-48.5811,16.3248,-10.3821
3.8975,5910.45,-1785.72,7222.65,-4.0036,-58.2106,-19.6346,11490.0,844.619,11148.7,15.642,374.465,9.67479,438.156,8934.34,-2226.58,14.0964,-48.3458,-84.7018,-790.9,-13124.1,-2412.39,-72.5509,51.8475,-372.909,-688.811,7174.21,1018.8,6.09361,-52.9066,-92.8125,-7570.11,-5423.85,-1846.15,30.047,-26.5752,-75.6931,10855.3,-2308.32,728.733,-48.363,17.5331,-10.9207
3.898,5922.88,-1784.15,7216.42,-3.89895,-58.2258,-19.6756,11610.5,918.514,11189.0,14.6454,374.648,8.7592,434.199,8944.75,-2219.93,14.0338,-48.3555,-84.9284,-832.937,-13223.0,-2457.32,-72.753,52.529,-373.18,-753.29,7207.2,1063.65,6.57749,-54.6959,-93.0137,-7548.16,-5417.57,-1859.26,30.2659,-29.3898,-75.6056,10847.9,-2365.44,723.655,-48.1483,18.7601,-11.4497
3.8985,5935.68,-1791.31,7210.1,-3.78272,-58.2101,-19.7014,11719.0,980.659,11226.2,13.4903,374.745,7.69071,428.165,8949.79,-2206.81,14.0035,-48.3934,-85.1678,-872.515,-13329.2,-2502.35,-72.8912,53.3525,-373.386,-812.37,7243.8,1078.41,7.1186,-56.5242,-93.2053,-7521.7,-5387.3,-1887.51,30.3551,-32.3562,-75.5094,10807.3,-2399.81,727.137,-47.9379,20.0106,-11.9668
3.899,5948.48,-1798.47,7203.77,-3.66649,-58.1944,-19.7271,11827.6,1042.8,11263.4,12.3351,374.841,6.62223,422.13,8954.84,-2193.7,13.9732,-48.4312,-85.4071,-912.092,-13435.3,-2547.39,-73.0294,54.176,-373.591,-871.45,7280.39,1093.18,7.65971,-58.3524,-93.3969,-7495.24,-5357.03,-1915.76,30.4442,-35.3226,-75.4133,10766.7,-2434.19,730.62,-47.7275,21.261,-12.4839
3.8995,5961.28,-1805.63,7197.44,-3.55025,-58.1787,-19.7529,11936.2,1104.95,11300.6,11.18,374.938,5.55374,416.096,8959.88,-2180.58,13.9429,-48.4691,-85.6464,-951.669,-13541.5,-2592.43,-73.1675,54.9995,-373.797,-930.529,7316.99,1107.94,8.20082,-60.1807,-93.5886,-7468.77,-5326.76,-1944.01,30.5333,-38.289,-75.3172,10726.1,-2468.57,734.103,-47.517,22.5115,-13.0009
3.9,5974.08,-1812.79,7191.12,-3.43402,-58.163,-19.7787,12044.7,1167.09,11337.8,10.0249,375.035,4.48526,410.061,8964.92,-2167.47,13.9126,-48.5069,-85.8858,-991.247,-13647.7,-2637.47,-73.3057,55.823,-374.002,-989.609,7353.58,1122.71,8.74193,-62.0089,-93.7802,-7442.31,-5296.49,-1972.26,30.6225,-41.2554,-75.221,10685.5,-2502.95,737.585,-47.3066,23.7619,-13.518
3.9005,5986.88,-1819.95,7184.79,-3.31778,-58.1473,-19.8045,12153.3,1229.24,11375.0,8.86975,375.131,3.41677,404.027,8969.97,-2154.36,13.8823,-48.5447,-86.1251,-1030.82,-13753.9,-2682.51,-73.4438,56.6465,-374.208,-1048.69,7390.17,1137.47,9.28304,-63.8372,-93.9719,-7415.85,-5266.22,-2000.51,30.7116,-44.2218,-75.1249,10644.9,-2537.32,741.068,-47.0962,25.0124,-14.0351
3.901,5999.67,-1827.11,7178.47,-3.20155,-58.1316,-19.8302,12261.9,1291.39,11412.2,7.71463,375.228,2.34829,397.992,8975.01,-2141.24,13.852,-48.5826,-86.3645,-1070.4,-13860.1,-2727.54,-73.582,57.47,-374.414,-1107.77,7426.77,1152.24,9.82415,-65.6655,-94.1635,-7389.39,-5235.95,-2028.75,30.8008,-47.1882,-75.0287,10604.3,-2571.7,744.55,-46.8858,26.2629,-14.5522
3.9015,6012.47,-1834.27,7172.14,-3.08532,-58.1159,-19.856,12370.4,1353.53,11449.4,6.5595,375.325,1.27981,391.958,8980.05,-2128.13,13.8217,-48.6204,-86.6038,-1109.98,-13966.2,-2772.58,-73.7202,58.2935,-374.619,-1166.85,7463.36,1167.0,10.3653,-67.4937,-94.3551,-7362.93,-5205.68,-2057.0,30.8899,-50.1545,-74.9326,10563.7,-2606.08,748.033,-46.6754,27.5133,-15.0692
3.902,6025.27,-1841.43,7165.81,-2.96908,-58.1002,-19.8818,12479.0,1415.68,11486.6,5.40437,375.422,0.211322,385.923,8985.1,-2115.02,13.7914,-48.6582,-86.8432,-1149.56,-14072.4,-2817.62,-73.8583,59.117,-374.825,-1225.93,7499.96,1181.77,10.9064,-69.322,-94.5468,-7336.47,-5175.41,-2085.25,30.979,-53.1209,-74.8364,10523.0,-2640.46,751.515,-46.465,28.7638,-15.5863
3.9025,6022.33,-1845.5,7170.24,-2.79714,-58.0817,-19.8817,12575.3,1456.63,11472.5,4.13024,375.373,-1.0424,388.729,8985.46,-2088.43,13.8004,-48.6789,-87.0952,-1212.17,-14157.3,-2865.55,-74.0175,60.0336,-374.964,-1257.87,7525.75,1190.47,11.399,-71.111,-94.6649,-7301.98,-5123.73,-2135.49,30.684,-56.0576,-74.6282,10486.2,-2669.43,750.294,-46.1315,29.8993,-16.0259
3.903,6006.79,-1847.09,7183.26,-2.58063,-58.0611,-19.861,12661.8,1480.63,11417.5,2.76091,375.207,-2.44431,398.607,8982.08,-2051.07,13.8409,-48.6858,-87.3575,-1293.21,-14225.1,-2915.79,-74.1936,61.0248,-375.049,-1268.1,7542.89,1194.33,11.8528,-72.8686,-94.7242,-7261.06,-5054.92,-2203.32,30.0817,-58.9705,-74.3304,10452.4,-2694.08,745.31,-45.6995,30.9428,-16.4034
3.9035,5991.26,-1848.69,7196.27,-2.36411,-58.0404,-19.8402,12748.3,1504.63,11362.4,1.39157,375.042,-3.84622,408.484,8978.7,-2013.7,13.8813,-48.6927,-87.6197,-1374.25,-14292.9,-2966.03,-74.3696,62.016,-375.134,-1278.33,7560.04,1198.18,12.3066,-74.6263,-94.7835,-7220.15,-4986.12,-2271.16,29.4795,-61.8833,-74.0325,10418.6,-2718.73,740.326,-45.2676,31.9863,-16.7809
3.904,5975.72,-1850.28,7209.29,-2.1476,-58.0198,-19.8195,12834.8,1528.63,11307.4,0.0222405,374.876,-5.24813,418.362,8975.32,-1976.34,13.9218,-48.6996,-87.882,-1455.28,-14360.7,-3016.27,-74.5456,63.0072,-375.219,-1288.56,7577.19,1202.03,12.7605,-76.3839,-94.8428,-7179.24,-4917.31,-2338.99,28.8772,-64.7962,-73.7347,10384.7,-2743.37,735.342,-44.8356,33.0298,-17.1584
3.9045,5960.19,-1851.88,7222.31,-1.93109,-57.9991,-19.7988,12921.3,1552.63,11252.4,-1.34709,374.71,-6.65004,428.239,8971.94,-1938.98,13.9623,-48.7065,-88.1442,-1536.32,-14428.5,-3066.51,-74.7217,63.9984,-375.304,-1298.8,7594.34,1205.89,13.2143,-78.1415,-94.9021,-7138.33,-4848.51,-2406.82,28.2749,-67.7091,-73.4368,10350.9,-2768.02,730.358,-44.4037,34.0733,-17.536
3.905,5944.65,-1853.48,7235.33,-1.71458,-57.9785,-19.778,13007.8,1576.63,11197.3,-2.71643,374.545,-8.05195,438.117,8968.56,-1901.61,14.0027,-48.7134,-88.4065,-1617.36,-14496.3,-3116.75,-74.8977,64.9896,-375.389,-1309.03,7611.48,1209.74,13.6681,-79.8992,-94.9614,-7097.42,-4779.7,-2474.65,27.6726,-70.6219,-73.139,10317.1,-2792.67,725.374,-43.9717,35.1168,-17.9135
3.9055,5929.12,-1855.07,7248.35,-1.49807,-57.9579,-19.7573,13094.3,1600.62,11142.3,-4.08576,374.379,-9.45386,447.995,8965.18,-1864.25,14.0432,-48.7203,-88.6688,-1698.4,-14564.1,-3166.99,-75.0738,65.9808,-375.474,-1319.26,7628.63,1213.59,14.122,-81.6568,-95.0208,-7056.51,-4710.9,-2542.49,27.0703,-73.5348,-72.8411,10283.2,-2817.32,720.389,-43.5398,36.1603,-18.291
3.906,5913.58,-1856.67,7261.37,-1.28156,-57.9372,-19.7365,13180.7,1624.62,11087.3,-5.4551,374.214,-10.8558,457.872,8961.8,-1826.89,14.0837,-48.7271,-88.931,-1779.44,-14631.9,-3217.24,-75.2498,66.972,-375.559,-1329.49,7645.78,1217.45,14.5758,-83.4144,-95.0801,-7015.6,-4642.09,-2610.32,26.468,-76.4476,-72.5433,10249.4,-2841.96,715.405,-43.1078,37.2038,-18.6685
3.9065,5898.05,-1858.27,7274.39,-1.06505,-57.9166,-19.7158,13267.2,1648.62,11032.2,-6.82443,374.048,-12.2577,467.75,8958.42,-1789.52,14.1242,-48.734,-89.1933,-1860.48,-14699.8,-3267.48,-75.4258,67.9632,-375.644,-1339.72,7662.93,1221.3,15.0296,-85.1721,-95.1394,-6974.69,-4573.29,-2678.15,25.8657,-79.3605,-72.2454,10215.6,-2866.61,710.421,-42.6759,38.2473,-19.0461
3.907,5885.38,-1834.53,7293.95,-0.900707,-57.9732,-19.6825,13344.0,1609.77,10952.6,-8.01419,373.647,-13.7479,478.527,8950.63,-1740.69,14.1292,-48.698,-89.4798,-1993.55,-14778.2,-3315.58,-75.6053,68.6798,-375.594,-1331.61,7679.05,1212.81,15.5161,-86.7534,-95.1394,-6928.74,-4504.29,-2760.14,24.85,-81.9038,-71.7545,10186.1,-2881.29,732.599,-42.2601,38.8694,-19.4403
3.9075,5874.14,-1798.11,7316.77,-0.762452,-58.0684,-19.6429,13415.8,1539.49,10860.7,-9.11417,373.129,-15.2823,489.753,8940.62,-1686.13,14.1165,-48.6405,-89.7784,-2152.62,-14862.0,-3362.61,-75.7864,69.2591,-375.478,-1314.32,7694.65,1198.14,16.0189,-88.2466,-95.1098,-6880.28,-4435.2,-2849.2,23.6277,-84.2624,-71.1672,10158.8,-2890.97,768.358,-41.8524,39.2806,-19.843
3.908,5862.91,-1761.7,7339.59,-0.624196,-58.1636,-19.6033,13487.7,1469.21,10768.8,-10.2141,372.611,-16.8167,500.98,8930.62,-1631.56,14.1038,-48.5829,-90.077,-2311.7,-14945.9,-3409.65,-75.9676,69.8385,-375.361,-1297.03,7710.26,1183.47,16.5216,-89.7398,-95.0803,-6831.82,-4366.1,-2938.26,22.4054,-86.6209,-70.5798,10131.6,-2900.66,804.117,-41.4446,39.6919,-20.2457
3.9085,5851.67,-1725.29,7362.42,-0.48594,-58.2588,-19.5637,13559.6,1398.92,10676.9,-11.3141,372.092,-18.351,512.207,8920.61,-1577.0,14.0911,-48.5254,-90.3756,-2470.78,-15029.7,-3456.68,-76.1487,70.4178,-375.244,-1279.74,7725.87,1168.8,17.0244,-91.233,-95.0507,-6783.35,-4297.01,-3027.33,21.1831,-88.9795,-69.9924,10104.3,-2910.35,839.876,-41.0369,40.1032,-20.6483
3.909,5840.44,-1688.88,7385.24,-0.347685,-58.354,-19.5241,13631.4,1328.64,10585.1,-12.4141,371.574,-19.8854,523.433,8910.61,-1522.43,14.0784,-48.4679,-90.6742,-2629.86,-15113.5,-3503.72,-76.3298,70.9971,-375.128,-1262.46,7741.48,1154.13,17.5272,-92.7262,-95.0211,-6734.89,-4227.91,-3116.39,19.9607,-91.3381,-69.405,10077.0,-2920.04,875.635,-40.6292,40.5145,-21.051
3.9095,5829.2,-1652.47,7408.07,-0.209429,-58.4493,-19.4845,13703.3,1258.36,10493.2,-13.5141,371.056,-21.4198,534.66,8900.6,-1467.87,14.0658,-48.4104,-90.9728,-2788.94,-15197.3,-3550.75,-76.511,71.5764,-375.011,-1245.17,7757.09,1139.46,18.03,-94.2194,-94.9915,-6686.43,-4158.82,-3205.46,18.7384,-93.6966,-68.8176,10049.7,-2929.73,911.394,-40.2214,40.9258,-21.4536
3.91,5817.97,-1616.06,7430.89,-0.0711732,-58.5445,-19.4449,13775.2,1188.08,10401.3,-14.614,370.537,-22.9542,545.886,8890.6,-1413.31,14.0531,-48.3528,-91.2715,-2948.01,-15281.1,-3597.78,-76.6921,72.1557,-374.895,-1227.88,7772.69,1124.79,18.5328,-95.7126,-94.9619,-6637.97,-4089.73,-3294.52,17.5161,-96.0552,-68.2302,10022.4,-2939.41,947.153,-39.8137,41.3371,-21.8563
3.9105,5806.73,-1579.65,7453.72,0.0670825,-58.6397,-19.4053,13847.0,1117.8,10309.4,-15.714,370.019,-24.4886,557.113,8880.59,-1358.74,14.0404,-48.2953,-91.5701,-3107.09,-15364.9,-3644.82,-76.8733,72.7351,-374.778,-1210.59,7788.3,1110.13,19.0356,-97.2059,-94.9324,-6589.5,-4020.63,-3383.58,16.2938,-98.4138,-67.6428,9995.14,-2949.1,982.912,-39.406,41.7484,-22.2589
3.911,5795.5,-1543.24,7476.54,0.205338,-58.7349,-19.3657,13918.9,1047.52,10217.5,-16.814,369.501,-26.0229,568.34,8870.59,-1304.18,14.0277,-48.2378,-91.8687,-3266.17,-15448.8,-3691.85,-77.0544,73.3144,-374.661,-1193.3,7803.91,1095.46,19.5383,-98.6991,-94.9028,-6541.04,-3951.54,-3472.65,15.0715,-100.772,-67.0555,9967.86,-2958.79,1018.67,-38.9982,42.1597,-22.6616
3.9115,5774.16,-1497.76,7501.91,0.321142,-58.9022,-19.2398,14014.4,922.871,10186.8,-16.7119,368.412,-27.078,574.279,8872.5,-1257.23,13.9832,-48.1341,-92.2344,-3473.58,-15558.1,-3718.89,-77.158,73.4569,-374.499,-1145.67,7831.61,1070.43,20.0139,-99.94,-94.826,-6503.92,-3913.84,-3567.96,13.668,-102.218,-66.3758,9932.49,-2952.14,1045.18,-38.5405,42.4003,-22.9776
3.912,5749.94,-1449.7,7528.02,0.43053,-59.0901,-19.0891,14116.6,782.694,10173.6,-16.2663,367.161,-27.9962,578.707,8877.82,-1212.47,13.9295,-48.0173,-92.6193,-3694.8,-15674.7,-3740.21,-77.2394,73.4747,-374.323,-1089.38,7862.76,1042.44,20.4816,-101.109,-94.7357,-6470.03,-3885.12,-3665.06,12.2127,-103.403,-65.6697,9894.81,-2940.82,1069.05,-38.0686,42.5921,-23.2689
3.9125,5725.72,-1401.64,7554.12,0.539919,-59.2779,-18.9385,14218.9,642.517,10160.4,-15.8208,365.91,-28.9143,583.136,8883.13,-1167.7,13.8759,-47.9005,-93.0042,-3916.02,-15791.3,-3761.52,-77.3208,73.4925,-374.147,-1033.08,7893.91,1014.45,20.9494,-102.278,-94.6454,-6436.14,-3856.39,-3762.16,10.7575,-104.588,-64.9637,9857.13,-2929.51,1092.92,-37.5966,42.7838,-23.5602
3.913,5701.5,-1353.58,7580.22,0.649307,-59.4658,-18.7879,14321.1,502.34,10147.2,-15.3752,364.658,-29.8324,587.564,8888.45,-1122.93,13.8222,-47.7837,-93.389,-4137.23,-15907.9,-3782.84,-77.4022,73.5103,-373.971,-976.784,7925.06,986.463,21.4172,-103.447,-94.5551,-6402.25,-3827.66,-3859.26,9.3022,-105.773,-64.2576,9819.45,-2918.19,1116.78,-37.1246,42.9756,-23.8515
3.9135,5677.28,-1305.51,7606.32,0.758696,-59.6537,-18.6373,14423.4,362.163,10134.0,-14.9297,363.407,-30.7506,591.993,8893.77,-1078.17,13.7686,-47.6668,-93.7739,-4358.45,-16024.5,-3804.16,-77.4836,73.5281,-373.795,-920.487,7956.21,958.474,21.8849,-104.615,-94.4648,-6368.36,-3798.94,-3956.36,7.84694,-106.958,-63.5516,9781.77,-2906.88,1140.65,-36.6526,43.1674,-24.1428
3.914,5653.06,-1257.45,7632.42,0.868085,-59.8415,-18.4867,14525.7,221.986,10120.8,-14.4842,362.156,-31.6687,596.421,8899.08,-1033.4,13.715,-47.55,-94.1588,-4579.67,-16141.1,-3825.48,-77.565,73.5459,-373.619,-864.19,7987.36,930.485,22.3527,-105.784,-94.3745,-6334.47,-3770.21,-4053.46,6.39169,-108.143,-62.8455,9744.08,-2895.56,1164.52,-36.1806,43.3592,-24.4341
3.9145,5628.84,-1209.39,7658.52,0.977473,-60.0294,-18.3361,14627.9,81.8084,10107.6,-14.0386,360.904,-32.5869,600.85,8904.4,-988.635,13.6613,-47.4332,-94.5437,-4800.89,-16257.7,-3846.8,-77.6464,73.5637,-373.444,-807.893,8018.51,902.496,22.8204,-106.953,-94.2842,-6300.59,-3741.48,-4150.56,4.93643,-109.328,-62.1395,9706.4,-2884.25,1188.39,-35.7086,43.551,-24.7254
3.915,5604.62,-1161.32,7684.63,1.08686,-60.2172,-18.1855,14730.2,-58.3687,10094.4,-13.5931,359.653,-33.505,605.278,8909.72,-943.869,13.6077,-47.3164,-94.9286,-5022.1,-16374.3,-3868.11,-77.7278,73.5815,-373.268,-751.597,8049.66,874.508,23.2882,-108.122,-94.194,-6266.7,-3712.76,-4247.66,3.48118,-110.513,-61.4334,9668.72,-2872.93,1212.25,-35.2367,43.7427,-25.0166
3.9155,5580.4,-1113.26,7710.73,1.19625,-60.4051,-18.0348,14832.4,-198.546,10081.2,-13.1475,358.402,-34.4232,609.707,8915.04,-899.103,13.554,-47.1995,-95.3135,-5243.32,-16490.9,-3889.43,-77.8092,73.5992,-373.092,-695.3,8080.81,846.519,23.756,-109.291,-94.1037,-6232.81,-3684.03,-4344.76,2.02592,-111.698,-60.7274,9631.04,-2861.62,1236.12,-34.7647,43.9345,-25.3079
3.916,5570.75,-1075.27,7712.62,1.32081,-60.6563,-17.7579,14974.1,-230.385,10063.1,-11.5699,356.439,-34.2282,611.667,8939.35,-850.731,13.5022,-47.0354,-95.7178,-5440.8,-16594.2,-3923.89,-78.0564,73.301,-372.829,-600.111,8091.98,826.584,24.1182,-110.265,-93.9324,-6198.81,-3680.61,-4421.73,0.554565,-111.278,-59.9984,9592.43,-2861.86,1240.77,-34.2436,43.9796,-25.5093
3.9165,5562.91,-1038.54,7711.48,1.44727,-60.9154,-17.4651,15120.8,-248.683,10044.4,-9.85071,354.388,-33.894,613.319,8966.03,-801.908,13.4506,-46.8653,-96.1245,-5635.3,-16695.9,-3959.98,-78.3242,72.9633,-372.556,-500.062,8100.65,807.656,24.4672,-111.216,-93.7511,-6164.8,-3680.36,-4496.18,-0.918809,-110.657,-59.2665,9553.7,-2863.56,1243.03,-33.7163,44.0063,-25.6995
3.917,5555.07,-1001.81,7710.34,1.57373,-61.1745,-17.1723,15267.4,-266.98,10025.7,-8.13155,352.336,-33.5598,614.971,8992.72,-753.085,13.399,-46.6952,-96.5313,-5829.81,-16797.5,-3996.08,-78.5921,72.6255,-372.282,-400.012,8109.33,788.727,24.8162,-112.166,-93.5697,-6130.78,-3680.1,-4570.63,-2.39218,-110.036,-58.5347,9514.97,-2865.25,1245.28,-33.1891,44.033,-25.8896
3.9175,5547.23,-965.076,7709.21,1.70018,-61.4337,-16.8795,15414.1,-285.277,10006.9,-6.41239,350.284,-33.2257,616.623,9019.4,-704.262,13.3474,-46.5251,-96.938,-6024.32,-16899.2,-4032.17,-78.8599,72.2878,-372.009,-299.962,8118.0,769.799,25.1652,-113.116,-93.3884,-6096.77,-3679.84,-4645.08,-3.86556,-109.415,-57.8028,9476.24,-2866.95,1247.53,-32.6618,44.0597,-26.0798
3.918,5539.4,-928.344,7708.07,1.82664,-61.6928,-16.5867,15560.7,-303.575,9988.22,-4.69323,348.233,-32.8915,618.275,9046.09,-655.439,13.2958,-46.3551,-97.3448,-6218.83,-17000.8,-4068.26,-79.1278,71.95,-371.735,-199.912,8126.68,750.871,25.5142,-114.066,-93.2071,-6062.76,-3679.59,-4719.54,-5.33893,-108.794,-57.0709,9437.51,-2868.64,1249.78,-32.1346,44.0864,-26.2699
3.9185,5531.56,-891.612,7706.93,1.9531,-61.9519,-16.2939,15707.4,-321.872,9969.5,-2.97408,346.181,-32.5573,619.927,9072.77,-606.616,13.2442,-46.185,-97.7515,-6413.33,-17102.5,-4104.36,-79.3957,71.6123,-371.461,-99.8624,8135.35,731.943,25.8632,-115.016,-93.0257,-6028.74,-3679.33,-4793.99,-6.8123,-108.173,-56.3391,9398.78,-2870.34,1252.04,-31.6073,44.1131,-26.46
3.919,5523.72,-854.88,7705.8,2.07956,-62.211,-16.0011,15854.0,-340.169,9950.78,-1.25492,344.129,-32.2232,621.579,9099.46,-557.793,13.1926,-46.0149,-98.1583,-6607.84,-17204.1,-4140.45,-79.6635,71.2746,-371.188,0.187368,8144.03,713.014,26.2122,-115.967,-92.8444,-5994.73,-3679.08,-4868.44,-8.28568,-107.552,-55.6072,9360.05,-2872.03,1254.29,-31.08,44.1398,-26.6502
3.9195,5515.89,-818.148,7704.66,2.20601,-62.4702,-15.7083,16000.6,-358.467,9932.06,0.464236,342.078,-31.889,623.231,9126.15,-508.971,13.141,-45.8448,-98.565,-6802.35,-17305.8,-4176.55,-79.9314,70.9368,-370.914,100.237,8152.7,694.086,26.5612,-116.917,-92.663,-5960.72,-3678.82,-4942.89,-9.75905,-106.931,-54.8754,9321.32,-2873.72,1256.54,-30.5528,44.1665,-26.8403
3.92,5508.05,-781.416,7703.52,2.33247,-62.7293,-15.4155,16147.3,-376.764,9913.34,2.18339,340.026,-31.5548,624.883,9152.83,-460.148,13.0894,-45.6747,-98.9717,-6996.85,-17407.4,-4212.64,-80.1992,70.5991,-370.641,200.287,8161.38,675.158,26.9102,-117.867,-92.4817,-5926.7,-3678.57,-5017.34,-11.2324,-106.31,-54.1435,9282.59,-2875.42,1258.79,-30.0255,44.1932,-27.0305
3.9205,5513.18,-740.007,7713.3,2.57073,-63.0471,-15.0908,16309.1,-256.924,9833.99,3.51765,337.77,-30.8979,623.774,9178.42,-409.611,13.0412,-45.3886,-99.3925,-7109.3,-17480.0,-4306.25,-80.5069,70.3165,-370.065,306.88,8181.23,668.491,27.1627,-118.488,-92.2576,-5887.25,-3701.38,-5050.63,-12.4339,-103.936,-53.4452,9247.29,-2871.66,1254.33,-29.5984,44.2623,-27.1739
3.921,5518.32,-698.599,7723.08,2.80899,-63.365,-14.766,16471.0,-137.084,9754.64,4.8519,335.513,-30.241,622.665,9204.02,-359.074,12.993,-45.1025,-99.8133,-7221.74,-17552.6,-4399.87,-80.8146,70.034,-369.489,413.472,8201.08,661.823,27.4153,-119.109,-92.0335,-5847.79,-3724.2,-5083.92,-13.6354,-101.561,-52.7468,9211.99,-2867.9,1249.88,-29.1713,44.3314,-27.3173
3.9215,5523.45,-657.19,7732.86,3.04726,-63.6829,-14.4412,16632.8,-17.2435,9675.29,6.18616,333.257,-29.5841,621.555,9229.61,-308.537,12.9448,-44.8164,-100.234,-7334.19,-17625.1,-4493.48,-81.1223,69.7514,-368.913,520.065,8220.93,655.156,27.6678,-119.73,-91.8094,-5808.34,-3747.02,-5117.21,-14.8369,-99.1869,-52.0485,9176.69,-2864.14,1245.42,-28.7442,44.4005,-27.4607
3.922,5528.59,-615.782,7742.64,3.28552,-64.0007,-14.1165,16794.6,102.597,9595.94,7.52041,331.0,-28.9271,620.446,9255.2,-258.0,12.8966,-44.5303,-100.655,-7446.63,-17697.7,-4587.09,-81.43,69.4689,-368.337,626.658,8240.79,648.489,27.9204,-120.352,-91.5853,-5768.89,-3769.84,-5150.5,-16.0384,-96.8124,-51.3502,9141.4,-2860.38,1240.96,-28.3171,44.4697,-27.6041
3.9225,5533.73,-574.374,7752.42,3.52378,-64.3186,-13.7917,16956.4,222.437,9516.59,8.85467,328.744,-28.2702,619.337,9280.79,-207.463,12.8484,-44.2442,-101.076,-7559.08,-17770.3,-4680.7,-81.7377,69.1863,-367.761,733.251,8260.64,641.822,28.1729,-120.973,-91.3612,-5729.43,-3792.66,-5183.79,-17.2399,-94.4379,-50.6519,9106.1,-2856.63,1236.5,-27.89,44.5388,-27.7476
3.923,5538.86,-532.965,7762.2,3.76204,-64.6364,-13.4669,17118.3,342.277,9437.25,10.1889,326.487,-27.6133,618.228,9306.39,-156.927,12.8002,-43.9581,-101.496,-7671.52,-17842.8,-4774.31,-82.0454,68.9038,-367.185,839.844,8280.49,635.154,28.4255,-121.594,-91.1371,-5689.98,-3815.48,-5217.08,-18.4414,-92.0634,-49.9536,9070.8,-2852.87,1232.04,-27.4629,44.6079,-27.891
3.9235,5544.0,-491.557,7771.98,4.0003,-64.9543,-13.1422,17280.1,462.117,9357.9,11.5232,324.231,-26.9564,617.119,9331.98,-106.39,12.752,-43.672,-101.917,-7783.97,-17915.4,-4867.92,-82.3531,68.6212,-366.609,946.436,8300.35,628.487,28.678,-122.215,-90.913,-5650.52,-3838.3,-5250.37,-19.6429,-89.6889,-49.2552,9035.5,-2849.11,1227.58,-27.0357,44.677,-28.0344
3.924,5549.13,-450.148,7781.76,4.23856,-65.2721,-12.8174,17441.9,581.957,9278.55,12.8574,321.974,-26.2994,616.01,9357.57,-55.8529,12.7038,-43.3859,-102.338,-7896.41,-17988.0,-4961.53,-82.6608,68.3387,-366.033,1053.03,8320.2,621.82,28.9306,-122.836,-90.6889,-5611.07,-3861.11,-5283.66,-20.8444,-87.3144,-48.5569,9000.2,-2845.35,1223.12,-26.6086,44.7462,-28.1778
3.9245,5554.75,-411.086,7792.88,4.48019,-65.5962,-12.4818,17599.6,699.894,9204.04,14.1287,319.749,-25.6806,615.977,9382.28,-7.26285,12.6565,-43.0963,-102.769,-8005.72,-18063.7,-5051.94,-82.9256,68.0956,-365.435,1160.69,8341.17,614.665,29.1679,-123.43,-90.4504,-5564.33,-3886.01,-5310.86,-22.0234,-84.7926,-47.8746,8963.02,-2837.43,1218.82,-26.1944,44.8183,-28.3058
3.925,5564.27,-390.797,7814.72,4.74877,-65.9703,-12.0601,17723.5,802.6,9168.22,14.8961,317.769,-25.3668,624.555,9399.88,25.7525,12.6172,-42.7787,-103.279,-8089.86,-18164.1,-5116.69,-82.8469,68.1684,-364.656,1276.87,8371.08,603.609,29.284,-123.806,-90.0969,-5459.34,-3927.48,-5289.34,-23.0218,-81.0926,-47.3208,8910.8,-2796.27,1215.78,-25.8827,44.9149,-28.3102
3.9255,5573.78,-370.508,7836.56,5.01734,-66.3443,-11.6384,17847.5,905.306,9132.4,15.6635,315.79,-25.053,633.132,9417.48,58.7679,12.5778,-42.4612,-103.789,-8174.01,-18264.5,-5181.44,-82.7682,68.2412,-363.877,1393.06,8401.0,592.552,29.4,-124.182,-89.7434,-5354.36,-3968.95,-5267.82,-24.0201,-77.3926,-46.7669,8858.59,-2755.1,1212.74,-25.5711,45.0115,-28.3147
3.926,5583.3,-350.218,7858.4,5.28592,-66.7183,-11.2166,17971.4,1008.01,9096.58,16.4308,313.811,-24.7391,641.71,9435.08,91.7833,12.5384,-42.1437,-104.299,-8258.16,-18364.9,-5246.19,-82.6896,68.3141,-363.098,1509.24,8430.92,581.496,29.5161,-124.558,-89.39,-5249.37,-4010.42,-5246.3,-25.0185,-73.6926,-46.2131,8806.37,-2713.94,1209.7,-25.2595,45.1081,-28.3191
3.9265,5592.81,-329.929,7880.24,5.5545,-67.0923,-10.7949,18095.4,1110.72,9060.76,17.1982,311.831,-24.4253,650.288,9452.68,124.799,12.4991,-41.8261,-104.809,-8342.31,-18465.4,-5310.94,-82.6109,68.3869,-362.319,1625.42,8460.83,570.439,29.6321,-124.935,-89.0365,-5144.38,-4051.89,-5224.78,-26.0169,-69.9926,-45.6592,8754.16,-2672.77,1206.67,-24.9478,45.2047,-28.3236
3.927,5602.33,-309.639,7902.08,5.82307,-67.4664,-10.3732,18219.3,1213.42,9024.95,17.9656,309.852,-24.1114,658.865,9470.29,157.814,12.4597,-41.5086,-105.319,-8426.46,-18565.8,-5375.69,-82.5323,68.4597,-361.54,1741.61,8490.75,559.383,29.7482,-125.311,-88.683,-5039.39,-4093.35,-5203.26,-27.0153,-66.2926,-45.1054,8701.94,-2631.61,1203.63,-24.6362,45.3013,-28.328
3.9275,5611.84,-289.35,7923.92,6.09165,-67.8404,-9.95143,18343.3,1316.13,8989.13,18.733,307.872,-23.7976,667.443,9487.89,190.829,12.4203,-41.1911,-105.829,-8510.61,-18666.2,-5440.44,-82.4536,68.5325,-360.761,1857.79,8520.67,548.326,29.8642,-125.687,-88.3296,-4934.4,-4134.82,-5181.74,-28.0136,-62.5927,-44.5515,8649.73,-2590.44,1200.59,-24.3246,45.3979,-28.3325
3.928,5621.36,-269.06,7945.76,6.36023,-68.2144,-9.5297,18467.2,1418.84,8953.31,19.5004,305.893,-23.4838,676.021,9505.49,223.845,12.381,-40.8735,-106.339,-8594.76,-18766.6,-5505.2,-82.375,68.6054,-359.982,1973.98,8550.58,537.27,29.9802,-126.063,-87.9761,-4829.42,-4176.29,-5160.22,-29.012,-58.8927,-43.9976,8597.51,-2549.27,1197.55,-24.013,45.4945,-28.337
3.9285,5630.87,-248.771,7967.6,6.6288,-68.5884,-9.10796,18591.2,1521.54,8917.49,20.2677,303.914,-23.1699,684.599,9523.09,256.86,12.3416,-40.556,-106.849,-8678.91,-18867.0,-5569.95,-82.2963,68.6782,-359.203,2090.16,8580.5,526.213,30.0963,-126.439,-87.6226,-4724.43,-4217.76,-5138.7,-30.0104,-55.1927,-43.4438,8545.3,-2508.11,1194.51,-23.7013,45.5911,-28.3414
3.929,5643.66,-230.229,7989.25,6.91315,-68.9625,-8.66896,18719.0,1604.79,8885.93,21.1026,302.03,-22.9101,695.578,9542.64,289.355,12.3144,-40.2338,-107.366,-8776.44,-18966.8,-5611.38,-82.1566,68.8008,-358.368,2202.0,8610.19,513.797,30.1704,-126.774,-87.2759,-4607.93,-4260.42,-5105.2,-30.9832,-51.3667,-42.9057,8495.25,-2469.82,1189.98,-23.4133,45.7204,-28.3589
3.9295,5667.87,-217.805,8010.2,7.25267,-69.3366,-8.16952,18860.4,1619.93,8869.25,22.1734,300.484,-22.8394,714.961,9568.98,320.028,12.3297,-39.8955,-107.906,-8920.83,-19064.4,-5571.22,-81.8033,69.0977,-357.338,2298.63,8639.08,496.621,30.098,-126.965,-86.9528,-4451.14,-4307.21,-5029.8,-31.8664,-47.0997,-42.4229,8452.79,-2441.6,1180.23,-23.2081,45.9641,-28.422
3.93,5692.08,-205.38,8031.15,7.59219,-69.7107,-7.67009,19001.8,1635.07,8852.58,23.2443,298.938,-22.7686,734.345,9595.32,350.701,12.345,-39.5571,-108.446,-9065.22,-19162.0,-5531.06,-81.45,69.3945,-356.308,2395.26,8667.98,479.445,30.0256,-127.156,-86.6297,-4294.35,-4353.99,-4954.39,-32.7497,-42.8326,-41.94,8410.32,-2413.39,1170.48,-23.0029,46.2078,-28.4851
3.9305,5716.3,-192.955,8052.1,7.9317,-70.0849,-7.17065,19143.1,1650.21,8835.91,24.3152,297.392,-22.6979,753.729,9621.66,381.374,12.3604,-39.2187,-108.986,-9209.62,-19259.6,-5490.9,-81.0967,69.6914,-355.278,2491.89,8696.87,462.269,29.9531,-127.347,-86.3066,-4137.56,-4400.78,-4878.98,-33.6329,-38.5656,-41.4572,8367.86,-2385.17,1160.73,-22.7977,46.4515,-28.5482
3.931,5740.51,-180.531,8073.06,8.27122,-70.459,-6.67121,19284.5,1665.35,8819.24,25.386,295.846,-22.6271,773.112,9648.01,412.047,12.3757,-38.8803,-109.526,-9354.01,-19357.2,-5450.74,-80.7434,69.9882,-354.248,2588.51,8725.76,445.093,29.8807,-127.539,-85.9835,-3980.77,-4447.57,-4803.58,-34.5161,-34.2986,-40.9744,8325.4,-2356.96,1150.99,-22.5924,46.6952,-28.6113
3.9315,5764.73,-168.106,8094.01,8.61074,-70.8331,-6.17177,19425.8,1680.49,8802.57,26.4569,294.3,-22.5564,792.496,9674.35,442.72,12.391,-38.5419,-110.066,-9498.4,-19454.8,-5410.58,-80.3901,70.2851,-353.218,2685.14,8754.66,427.918,29.8082,-127.73,-85.6603,-3823.98,-4494.36,-4728.17,-35.3994,-30.0316,-40.4915,8282.93,-2328.74,1141.24,-22.3872,46.939,-28.6744
3.932,5788.94,-155.681,8114.96,8.95026,-71.2073,-5.67234,19567.2,1695.63,8785.89,27.5278,292.754,-22.4856,811.879,9700.69,473.392,12.4064,-38.2035,-110.606,-9642.79,-19552.4,-5370.42,-80.0368,70.5819,-352.188,2781.77,8783.55,410.742,29.7358,-127.921,-85.3372,-3667.19,-4541.15,-4652.76,-36.2826,-25.7646,-40.0087,8240.47,-2300.53,1131.49,-22.182,47.1827,-28.7375
3.9325,5813.15,-143.257,8135.91,9.28978,-71.5814,-5.1729,19708.6,1710.77,8769.22,28.5987,291.208,-22.4149,831.263,9727.03,504.065,12.4217,-37.8652,-111.146,-9787.18,-19650.0,-5330.26,-79.6835,70.8788,-351.159,2878.4,8812.45,393.566,29.6633,-128.112,-85.0141,-3510.4,-4587.94,-4577.36,-37.1659,-21.4976,-39.5259,8198.01,-2272.31,1121.74,-21.9767,47.4264,-28.8006
3.933,5837.37,-130.832,8156.87,9.6293,-71.9555,-4.67346,19849.9,1725.91,8752.55,29.6695,289.662,-22.3441,850.646,9753.38,534.738,12.437,-37.5268,-111.687,-9931.57,-19747.6,-5290.09,-79.3302,71.1756,-350.129,2975.03,8841.34,376.39,29.5909,-128.303,-84.691,-3353.61,-4634.73,-4501.95,-38.0491,-17.2306,-39.043,8155.55,-2244.1,1112.0,-21.7715,47.6701,-28.8637
3.9335,5857.05,-112.985,8177.84,9.94572,-72.3321,-4.16984,20031.9,1733.19,8717.63,30.9067,288.239,-22.3449,869.029,9782.61,557.63,12.4673,-37.1682,-112.245,-10091.0,-19834.3,-5233.34,-78.9807,71.4202,-348.984,3070.25,8867.46,351.516,29.4767,-128.362,-84.3416,-3190.08,-4690.06,-4416.21,-38.8876,-12.9969,-38.5937,8114.68,-2212.9,1106.72,-21.6109,47.8434,-28.8974
3.934,5867.65,-84.2948,8198.87,10.2159,-72.7138,-3.65787,20294.9,1724.75,8646.22,32.4763,287.062,-22.4887,885.409,9817.64,564.958,12.5274,-36.7694,-112.839,-10280.6,-19899.1,-5143.4,-78.639,71.56,-347.612,3162.66,8888.03,311.246,29.2791,-128.156,-83.9395,-3013.07,-4762.5,-4309.81,-39.6366,-8.82984,-38.2112,8076.99,-2175.73,1110.38,-21.5397,47.876,-28.8721
3.9345,5878.26,-55.6042,8219.9,10.4861,-73.0955,-3.14589,20558.0,1716.32,8574.8,34.0459,285.884,-22.6325,901.789,9852.66,572.286,12.5876,-36.3705,-113.434,-10470.3,-19963.8,-5053.47,-78.2973,71.6999,-346.24,3255.06,8908.59,270.975,29.0815,-127.951,-83.5375,-2836.06,-4834.93,-4203.4,-40.3857,-4.66282,-37.8287,8039.3,-2138.55,1114.05,-21.4685,47.9085,-28.8468
3.935,5888.87,-26.9137,8240.93,10.7563,-73.4771,-2.63392,20821.0,1707.88,8503.39,35.6156,284.707,-22.7763,918.169,9887.68,579.615,12.6478,-35.9717,-114.028,-10659.9,-20028.6,-4963.53,-77.9556,71.8397,-344.868,3347.47,8929.16,230.705,28.8839,-127.746,-83.1354,-2659.05,-4907.37,-4097.0,-41.1347,-0.495794,-37.4463,8001.62,-2101.38,1117.71,-21.3973,47.941,-28.8215
3.9355,5899.47,1.7769,8261.96,11.0265,-73.8588,-2.12195,21084.0,1699.45,8431.98,37.1852,283.529,-22.9201,934.549,9922.71,586.943,12.7079,-35.5729,-114.622,-10849.5,-20093.4,-4873.59,-77.6139,71.9796,-343.495,3439.87,8949.73,190.435,28.6863,-127.541,-82.7333,-2482.04,-4979.8,-3990.59,-41.8837,3.67123,-37.0638,7963.93,-2064.21,1121.37,-21.3261,47.9735,-28.7962
3.936,5910.08,30.4675,8282.99,11.2967,-74.2404,-1.60997,21347.1,1691.01,8360.57,38.7549,282.352,-23.0639,950.928,9957.73,594.272,12.7681,-35.174,-115.217,-11039.1,-20158.2,-4783.65,-77.2723,72.1195,-342.123,3532.28,8970.29,150.164,28.4887,-127.336,-82.3313,-2305.03,-5052.24,-3884.19,-42.6328,7.83826,-36.6813,7926.24,-2027.04,1125.04,-21.2549,48.006,-28.7709
3.9365,5920.69,59.158,8304.02,11.5669,-74.6221,-1.098,21610.1,1682.58,8289.15,40.3245,281.174,-23.2077,967.308,9992.75,601.6,12.8283,-34.7752,-115.811,-11228.7,-20223.0,-4693.71,-76.9306,72.2593,-340.751,3624.68,8990.86,109.894,28.2911,-127.13,-81.9292,-2128.02,-5124.67,-3777.79,-43.3818,12.0053,-36.2989,7888.56,-1989.87,1128.7,-21.1837,48.0385,-28.7456
3.937,5931.3,87.8486,8325.05,11.8371,-75.0037,-0.586025,21873.2,1674.14,8217.74,41.8942,279.997,-23.3515,983.688,10027.8,608.929,12.8884,-34.3763,-116.405,-11418.3,-20287.7,-4603.78,-76.5889,72.3992,-339.379,3717.09,9011.42,69.6238,28.0935,-126.925,-81.5272,-1951.01,-5197.11,-3671.38,-44.1308,16.1723,-35.9164,7850.87,-1952.7,1132.36,-21.1125,48.0711,-28.7203
3.9375,5941.9,116.539,8346.08,12.1073,-75.3854,-0.0740513,22136.2,1665.71,8146.33,43.4638,278.819,-23.4953,1000.07,10062.8,616.257,12.9486,-33.9775,-117.0,-11607.9,-20352.5,-4513.84,-76.2472,72.539,-338.006,3809.49,9031.99,29.3535,27.8959,-126.72,-81.1251,-1774.0,-5269.54,-3564.98,-44.8799,20.3393,-35.534,7813.19,-1915.53,1136.03,-21.0413,48.1036,-28.695
3.938,5939.3,140.674,8366.18,12.3309,-75.8202,0.451897,22426.7,1705.83,8050.5,45.0428,277.766,-23.6519,1019.81,10093.4,615.048,13.0267,-33.5434,-117.611,-11810.2,-20417.1,-4439.7,-75.9626,72.5956,-336.51,3894.97,9055.01,-11.4211,27.6443,-126.364,-80.7151,-1593.32,-5354.6,-3435.7,-45.6195,24.2286,-35.2383,7781.45,-1872.41,1139.31,-20.9784,47.9815,-28.6459
3.9385,5920.2,159.115,8385.13,12.4962,-76.3216,0.995313,22751.4,1806.66,7924.17,46.6336,276.868,-23.8243,1043.76,10118.5,603.166,13.1271,-33.0652,-118.244,-12028.1,-20481.5,-4385.32,-75.7496,72.5479,-334.857,3971.8,9081.08,-52.8261,27.3251,-125.822,-80.295,-1408.07,-5455.44,-3277.84,-46.3475,27.7708,-35.0513,7757.16,-1821.84,1142.11,-20.926,47.666,-28.5669
3.939,5901.09,177.556,8404.08,12.6616,-76.8229,1.53873,23076.2,1907.49,7797.83,48.2243,275.97,-23.9967,1067.71,10143.6,591.285,13.2276,-32.587,-118.876,-12246.1,-20545.9,-4330.93,-75.5365,72.5003,-333.204,4048.62,9107.16,-94.2311,27.0059,-125.279,-79.875,-1222.82,-5556.28,-3119.98,-47.0754,31.313,-34.8642,7732.86,-1771.28,1144.91,-20.8736,47.3506,-28.4879
3.9395,5881.99,195.996,8423.03,12.8269,-77.3242,2.08215,23400.9,2008.32,7671.5,49.8151,275.073,-24.1692,1091.65,10168.7,579.404,13.328,-32.1089,-119.509,-12464.0,-20610.3,-4276.54,-75.3235,72.4526,-331.552,4125.45,9133.23,-135.636,26.6867,-124.736,-79.4549,-1037.57,-5657.12,-2962.12,-47.8034,34.8552,-34.6771,7708.57,-1720.72,1147.71,-20.8212,47.0352,-28.409
3.94,5862.88,214.437,8441.98,12.9923,-77.8255,2.62556,23725.7,2109.15,7545.16,51.4058,274.175,-24.3416,1115.6,10193.8,567.523,13.4284,-31.6307,-120.142,-12682.0,-20674.7,-4222.16,-75.1104,72.4049,-329.899,4202.27,9159.31,-177.041,26.3675,-124.193,-79.0349,-852.322,-5757.96,-2804.26,-48.5313,38.3974,-34.49,7684.27,-1670.16,1150.51,-20.7687,46.7198,-28.33
3.9405,5843.77,232.878,8460.93,13.1576,-78.3269,3.16898,24050.4,2209.98,7418.82,52.9965,273.277,-24.514,1139.55,10218.9,555.641,13.5289,-31.1525,-120.774,-12900.0,-20739.1,-4167.77,-74.8974,72.3573,-328.246,4279.1,9185.38,-218.446,26.0483,-123.65,-78.6148,-667.072,-5858.8,-2646.4,-49.2593,41.9396,-34.3029,7659.97,-1619.6,1153.31,-20.7163,46.4044,-28.2511
3.941,5824.67,251.318,8479.88,13.323,-78.8282,3.71239,24375.2,2310.81,7292.49,54.5873,272.379,-24.6864,1163.49,10244.0,543.76,13.6293,-30.6743,-121.407,-13117.9,-20803.5,-4113.39,-74.6843,72.3096,-326.594,4355.92,9211.46,-259.851,25.7291,-123.107,-78.1948,-481.821,-5959.64,-2488.54,-49.9872,45.4818,-34.1159,7635.68,-1569.03,1156.11,-20.6639,46.089,-28.1721
3.9415,5805.56,269.759,8498.83,13.4883,-79.3295,4.25581,24699.9,2411.64,7166.15,56.178,271.482,-24.8589,1187.44,10269.1,531.879,13.7298,-30.1961,-122.039,-13335.9,-20867.9,-4059.0,-74.4712,72.262,-324.941,4432.75,9237.53,-301.256,25.4099,-122.564,-77.7747,-296.57,-6060.48,-2330.68,-50.7152,49.0239,-33.9288,7611.38,-1518.47,1158.91,-20.6115,45.7736,-28.0932
3.942,5786.46,288.2,8517.79,13.6537,-79.8308,4.79923,25024.7,2512.47,7039.82,57.7687,270.584,-25.0313,1211.39,10294.1,519.997,13.8302,-29.718,-122.672,-13553.9,-20932.3,-4004.62,-74.2582,72.2143,-323.289,4509.57,9263.61,-342.661,25.0907,-122.021,-77.3547,-111.32,-6161.32,-2172.82,-51.4431,52.5661,-33.7417,7587.09,-1467.91,1161.71,-20.5591,45.4582,-28.0142
3.9425,5773.81,289.609,8538.41,13.7601,-80.4076,5.32659,25310.4,2663.5,6876.5,59.0467,269.703,-25.2556,1235.95,10319.6,508.821,13.9445,-29.1586,-123.3,-13772.6,-20986.9,-3985.85,-74.0822,72.04,-321.608,4590.06,9286.79,-405.693,24.648,-121.24,-76.9806,78.2204,-6266.31,-1997.54,-52.1972,55.5314,-33.6878,7561.28,-1419.31,1155.92,-20.6048,45.0469,-27.9682
3.943,5766.34,277.393,8560.37,13.8193,-81.0448,5.84111,25564.9,2854.69,6683.6,60.0744,268.837,-25.5213,1261.01,10345.2,498.208,14.0697,-28.5343,-123.925,-13992.1,-21033.8,-3995.59,-73.9359,71.7644,-319.905,4673.49,9307.67,-486.026,24.1066,-120.269,-76.6432,271.192,-6374.64,-1808.34,-52.9722,58.035,-33.7404,7534.25,-1372.29,1143.24,-20.7291,44.5589,-27.9486
3.9435,5758.87,265.177,8582.33,13.8786,-81.682,6.35563,25819.4,3045.87,6490.7,61.1021,267.97,-25.787,1286.06,10370.9,487.595,14.195,-27.9101,-124.549,-14211.5,-21080.6,-4005.32,-73.7896,71.4888,-318.201,4756.92,9328.54,-566.359,23.5651,-119.297,-76.3059,464.164,-6482.96,-1619.13,-53.7472,60.5387,-33.793,7507.22,-1325.26,1130.57,-20.8533,44.0709,-27.929
3.944,5751.4,252.962,8604.29,13.9378,-82.3191,6.87015,26073.9,3237.06,6297.8,62.1297,267.103,-26.0528,1311.12,10396.6,476.982,14.3203,-27.2858,-125.174,-14430.9,-21127.4,-4015.06,-73.6433,71.2132,-316.498,4840.34,9349.41,-646.693,23.0236,-118.326,-75.9685,657.136,-6591.28,-1429.93,-54.5221,63.0424,-33.8457,7480.2,-1278.23,1117.89,-20.9776,43.5829,-27.9094
3.9445,5743.93,240.746,8626.26,13.9971,-82.9563,7.38467,26328.3,3428.25,6104.91,63.1574,266.236,-26.3185,1336.18,10422.3,466.37,14.4456,-26.6615,-125.799,-14650.4,-21174.2,-4024.79,-73.497,70.9376,-314.795,4923.77,9370.29,-727.026,22.4822,-117.354,-75.6312,850.107,-6699.61,-1240.73,-55.2971,65.5461,-33.8983,7453.17,-1231.2,1105.22,-21.1018,43.0948,-27.8898
3.945,5736.46,228.53,8648.22,14.0563,-83.5935,7.89919,26582.8,3619.44,5912.01,64.1851,265.37,-26.5843,1361.23,10448.0,455.757,14.5709,-26.0372,-126.423,-14869.8,-21221.0,-4034.52,-73.3507,70.662,-313.092,5007.2,9391.16,-807.359,21.9407,-116.383,-75.2938,1043.08,-6807.93,-1051.52,-56.072,68.0498,-33.9509,7426.14,-1184.18,1092.55,-21.2261,42.6068,-27.8702
3.9455,5728.99,216.314,8670.18,14.1155,-84.2307,8.41371,26837.3,3810.63,5719.11,65.2128,264.503,-26.85,1386.29,10473.6,445.144,14.6962,-25.413,-127.048,-15089.2,-21267.9,-4044.26,-73.2044,70.3864,-311.389,5090.63,9412.03,-887.692,21.3992,-115.411,-74.9565,1236.05,-6916.25,-862.32,-56.847,70.5534,-34.0036,7399.12,-1137.15,1079.87,-21.3504,42.1188,-27.8506
3.946,5721.52,204.098,8692.14,14.1748,-84.8678,8.92824,27091.8,4001.81,5526.21,66.2405,263.636,-27.1157,1411.34,10499.3,434.531,14.8215,-24.7887,-127.672,-15308.6,-21314.7,-4053.99,-73.0581,70.1108,-309.686,5174.05,9432.91,-968.025,20.8577,-114.44,-74.6191,1429.02,-7024.58,-673.117,-57.622,73.0571,-34.0562,7372.09,-1090.12,1067.2,-21.4746,41.6308,-27.831
3.9465,5714.05,191.882,8714.1,14.234,-85.505,9.44276,27346.3,4193.0,5333.31,67.2682,262.769,-27.3815,1436.4,10525.0,423.918,14.9468,-24.1644,-128.297,-15528.1,-21361.5,-4063.73,-72.9118,69.8352,-307.982,5257.48,9453.78,-1048.36,20.3163,-113.468,-74.2818,1621.99,-7132.9,-483.913,-58.3969,75.5608,-34.1088,7345.06,-1043.1,1054.52,-21.5989,41.1428,-27.8114
3.947,5716.25,169.759,8741.88,14.3927,-86.1923,9.95829,27536.0,4380.94,5101.15,67.5557,261.899,-27.771,1460.8,10551.3,406.323,15.0661,-23.4644,-128.98,-15743.5,-21389.7,-4085.92,-72.8336,69.3229,-306.172,5326.34,9482.4,-1134.01,19.7179,-112.18,-73.9284,1803.68,-7246.68,-300.187,-59.4337,77.3361,-34.2443,7317.02,-997.506,1047.05,-21.7543,40.5278,-27.7814
3.9475,5723.28,142.682,8772.56,14.6011,-86.9047,10.4743,27693.3,4567.25,4849.36,67.4731,261.026,-28.2225,1484.88,10578.0,385.235,15.1825,-22.7266,-129.692,-15957.1,-21408.5,-4114.33,-72.7895,68.6923,-304.309,5387.91,9514.89,-1222.31,19.091,-110.733,-73.567,1979.72,-7363.18,-119.2,-60.6013,78.7472,-34.4211,7288.48,-952.634,1042.19,-21.9253,39.8494,-27.7463
3.948,5730.31,115.605,8803.24,14.8094,-87.6171,10.9904,27850.6,4753.57,4597.57,67.3905,260.153,-28.6739,1508.96,10604.6,364.148,15.2989,-21.9887,-130.404,-16170.6,-21427.4,-4142.75,-72.7453,68.0617,-302.445,5449.49,9547.39,-1310.62,18.4641,-109.287,-73.2057,2155.77,-7479.69,61.7876,-61.7689,80.1583,-34.598,7259.93,-907.763,1037.32,-22.0963,39.171,-27.7111
3.9485,5737.35,88.5281,8833.93,15.0178,-88.3295,11.5064,28007.9,4939.88,4345.78,67.308,259.281,-29.1254,1533.03,10631.3,343.06,15.4153,-21.2509,-131.117,-16384.1,-21446.2,-4171.17,-72.7012,67.4312,-300.582,5511.06,9579.88,-1398.92,17.8372,-107.84,-72.8443,2331.81,-7596.19,242.775,-62.9365,81.5694,-34.7748,7231.38,-862.891,1032.46,-22.2674,38.4926,-27.6759
3.949,5744.38,61.4512,8864.61,15.2262,-89.0419,12.0225,28165.3,5126.2,4093.99,67.2254,258.408,-29.5769,1557.11,10658.0,321.973,15.5317,-20.5131,-131.829,-16597.6,-21465.1,-4199.58,-72.6571,66.8006,-298.718,5572.64,9612.38,-1487.23,17.2103,-106.393,-72.4829,2507.85,-7712.7,423.762,-64.1041,82.9805,-34.9516,7202.83,-818.02,1027.59,-22.4384,37.8142,-27.6407
3.9495,5751.41,34.3743,8895.29,15.4346,-89.7543,12.5385,28322.6,5312.51,3842.2,67.1428,257.535,-30.0283,1581.18,10684.6,300.886,15.6481,-19.7752,-132.541,-16811.1,-21483.9,-4228.0,-72.6129,66.17,-296.854,5634.22,9644.87,-1575.54,16.5835,-104.947,-72.1216,2683.89,-7829.2,604.75,-65.2717,84.3916,-35.1285,7174.29,-773.148,1022.72,-22.6094,37.1358,-27.6056
3.95,5758.44,7.29734,8925.97,15.6429,-90.4667,13.0545,28479.9,5498.82,3590.41,67.0602,256.663,-30.4798,1605.26,10711.3,279.798,15.7645,-19.0374,-133.254,-17024.6,-21502.8,-4256.42,-72.5688,65.5394,-294.991,5695.79,9677.37,-1663.84,15.9566,-103.5,-71.7602,2859.94,-7945.71,785.737,-66.4393,85.8027,-35.3053,7145.74,-728.277,1017.86,-22.7804,36.4574,-27.5704
3.9505,5765.48,-19.7796,8956.65,15.8513,-91.179,13.5706,28637.2,5685.14,3338.62,66.9776,255.79,-30.9312,1629.34,10737.9,258.711,15.8809,-18.2996,-133.966,-17238.1,-21521.6,-4284.84,-72.5246,64.9088,-293.127,5757.37,9709.86,-1752.15,15.3297,-102.053,-71.3988,3035.98,-8062.21,966.725,-67.6069,87.2138,-35.4822,7117.19,-683.405,1012.99,-22.9514,35.779,-27.5352
3.951,5772.51,-46.8565,8987.34,16.0597,-91.8914,14.0866,28794.5,5871.45,3086.83,66.8951,254.917,-31.3827,1653.41,10764.6,237.624,15.9973,-17.5617,-134.678,-17451.6,-21540.5,-4313.25,-72.4805,64.2782,-291.264,5818.94,9742.36,-1840.45,14.7028,-100.607,-71.0375,3212.02,-8178.72,1147.71,-68.7745,88.6249,-35.659,7088.64,-638.534,1008.13,-23.1224,35.1006,-27.5
3.9515,5772.52,-80.2538,9019.58,16.3809,-92.6696,14.5769,28910.8,6051.75,2833.58,66.0477,253.865,-31.9242,1696.85,10805.1,215.14,16.1012,-16.8146,-135.399,-17675.4,-21522.9,-4330.84,-72.4337,63.3178,-289.19,5872.6,9768.29,-1890.56,14.0544,-98.9597,-70.7141,3379.8,-8274.08,1275.95,-70.3947,89.531,-35.9092,7065.45,-581.473,1008.29,-23.2184,34.4099,-27.3914
3.952,5770.53,-115.457,9052.27,16.7343,-93.4665,15.0599,29015.3,6230.33,2579.93,64.9819,252.762,-32.4915,1745.82,10849.6,192.257,16.2016,-16.0649,-136.123,-17902.1,-21494.8,-4345.32,-72.3861,62.2632,-287.056,5924.0,9792.35,-1929.75,13.3999,-97.2554,-70.4016,3545.21,-8363.39,1389.11,-72.1441,90.2929,-36.1804,7043.79,-520.931,1009.9,-23.293,33.7157,-27.2618
3.9525,5768.54,-150.66,9084.96,17.0877,-94.2635,15.5428,29119.8,6408.9,2326.27,63.9161,251.659,-33.0587,1794.78,10894.1,169.374,16.302,-15.3151,-136.846,-18128.8,-21466.8,-4359.81,-72.3385,61.2086,-284.922,5975.39,9816.41,-1968.94,12.7454,-95.5512,-70.0891,3710.63,-8452.71,1502.27,-73.8936,91.0547,-36.4516,7022.13,-460.388,1011.51,-23.3675,33.0215,-27.1322
3.953,5766.54,-185.863,9117.65,17.4411,-95.0604,16.0258,29224.3,6587.48,2072.62,62.8503,250.556,-33.626,1843.75,10938.6,146.492,16.4024,-14.5654,-137.569,-18355.6,-21438.7,-4374.3,-72.2909,60.154,-282.788,6026.79,9840.47,-2008.13,12.0908,-93.847,-69.7766,3876.05,-8542.02,1615.43,-75.643,91.8165,-36.7228,7000.47,-399.845,1013.11,-23.4421,32.3273,-27.0026
3.9535,5764.55,-221.066,9150.34,17.7946,-95.8573,16.5087,29328.9,6766.06,1818.96,61.7844,249.453,-34.1932,1892.72,10983.1,123.609,16.5028,-13.8156,-138.293,-18582.3,-21410.6,-4388.79,-72.2434,59.0994,-280.654,6078.18,9864.53,-2047.32,11.4363,-92.1428,-69.4641,4041.46,-8631.34,1728.6,-77.3924,92.5784,-36.9939,6978.81,-339.302,1014.72,-23.5166,31.6331,-26.873
3.954,5762.56,-256.269,9183.04,18.148,-96.6543,16.9917,29433.4,6944.63,1565.3,60.7186,248.35,-34.7605,1941.69,11027.7,100.726,16.6031,-13.0659,-139.016,-18809.0,-21382.6,-4403.27,-72.1958,58.0448,-278.52,6129.58,9888.58,-2086.51,10.7817,-90.4386,-69.1516,4206.88,-8720.65,1841.76,-79.1419,93.3402,-37.2651,6957.15,-278.759,1016.32,-23.5912,30.9389,-26.7434
3.9545,5760.56,-291.472,9215.73,18.5014,-97.4512,17.4746,29537.9,7123.21,1311.65,59.6528,247.246,-35.3277,1990.66,11072.2,77.8433,16.7035,-12.3161,-139.74,-19035.7,-21354.5,-4417.76,-72.1482,56.9902,-276.387,6180.97,9912.64,-2125.71,10.1272,-88.7344,-68.839,4372.29,-8809.97,1954.92,-80.8913,94.102,-37.5363,6935.49,-218.216,1017.93,-23.6657,30.2447,-26.6137
3.955,5758.57,-326.675,9248.42,18.8548,-98.2481,17.9576,29642.4,7301.79,1057.99,58.587,246.143,-35.895,2039.62,11116.7,54.9605,16.8039,-11.5664,-140.463,-19262.4,-21326.5,-4432.25,-72.1006,55.9356,-274.253,6232.37,9936.7,-2164.9,9.47266,-87.0302,-68.5265,4537.71,-8899.28,2068.08,-82.6408,94.8638,-37.8075,6913.83,-157.674,1019.54,-23.7403,29.5505,-26.4841
3.9555,5756.58,-361.878,9281.11,19.2083,-99.0451,18.4405,29746.9,7480.36,804.333,57.5211,245.04,-36.4622,2088.59,11161.2,32.0777,16.9043,-10.8166,-141.187,-19489.1,-21298.4,-4446.74,-72.053,54.881,-272.119,6283.76,9960.76,-2204.09,8.81812,-85.326,-68.214,4703.13,-8988.6,2181.24,-84.3902,95.6257,-38.0787,6892.17,-97.1308,1021.14,-23.8148,28.8563,-26.3545
3.956,5742.77,-387.999,9321.11,19.4773,-99.9531,18.787,29834.9,7677.56,557.018,56.1634,243.676,-36.6591,2126.38,11208.8,-3.51117,17.0383,-10.0882,-141.904,-19723.9,-21214.3,-4430.44,-71.7421,53.6585,-269.795,6317.73,9994.16,-2225.56,8.23751,-83.4832,-67.908,4872.67,-9101.92,2244.46,-86.071,96.1953,-38.503,6884.78,-60.5689,1031.58,-23.9364,28.0146,-26.2557
3.9565,5727.48,-412.984,9362.02,19.7359,-100.875,19.1165,29920.7,7877.09,310.497,54.7692,242.28,-36.8097,2162.77,11256.8,-40.6883,17.1765,-9.36246,-142.62,-19959.7,-21123.2,-4410.29,-71.3982,52.415,-267.448,6349.53,10028.7,-2244.82,7.66614,-81.6231,-67.6028,5042.72,-9218.24,2301.43,-87.7433,96.7409,-38.9464,6879.18,-27.0045,1043.13,-24.0639,27.1544,-26.1607
3.957,5712.19,-437.969,9402.93,19.9944,-101.797,19.4459,30006.6,8076.61,63.9759,53.375,240.883,-36.9604,2199.16,11304.8,-77.8655,17.3147,-8.6367,-143.336,-20195.5,-21032.0,-4390.14,-71.0543,51.1715,-265.1,6381.32,10063.3,-2264.07,7.09477,-79.7629,-67.2976,5212.78,-9334.57,2358.41,-89.4156,97.2865,-39.3899,6873.57,6.55979,1054.67,-24.1914,26.2942,-26.0657
3.9575,5696.9,-462.954,9443.84,20.2529,-102.719,19.7754,30092.5,8276.14,-182.545,51.9808,239.486,-37.111,2235.55,11352.8,-115.043,17.4529,-7.91095,-144.053,-20431.3,-20940.9,-4369.99,-70.7105,49.928,-262.753,6413.11,10097.9,-2283.33,6.52341,-77.9028,-66.9924,5382.83,-9450.89,2415.38,-91.0878,97.8322,-39.8333,6867.97,40.1241,1066.21,-24.3189,25.434,-25.9707
3.958,5681.61,-487.938,9484.75,20.5114,-103.641,20.1049,30178.3,8475.67,-429.067,50.5866,238.09,-37.2616,2271.94,11400.8,-152.22,17.5911,-7.1852,-144.769,-20667.2,-20849.8,-4349.85,-70.3666,48.6846,-260.405,6444.9,10132.4,-2302.59,5.95204,-76.0427,-66.6872,5552.89,-9567.21,2472.35,-92.7601,98.3778,-40.2768,6862.36,73.6885,1077.76,-24.4464,24.5738,-25.8757
3.9585,5666.32,-512.923,9525.66,20.77,-104.562,20.4343,30264.2,8675.19,-675.588,49.1924,236.693,-37.4122,2308.33,11448.8,-189.397,17.7292,-6.45945,-145.485,-20903.0,-20758.6,-4329.7,-70.0227,47.4411,-258.058,6476.69,10167.0,-2321.84,5.38067,-74.1826,-66.382,5722.94,-9683.53,2529.33,-94.4323,98.9234,-40.7202,6856.76,107.253,1089.3,-24.5739,23.7137,-25.7807
3.959,5651.03,-537.908,9566.57,21.0285,-105.484,20.7638,30350.0,8874.72,-922.109,47.7982,235.297,-37.5628,2344.72,11496.8,-226.574,17.8674,-5.7337,-146.202,-21138.8,-20667.5,-4309.55,-69.6788,46.1976,-255.711,6508.48,10201.6,-2341.1,4.80931,-72.3225,-66.0767,5893.0,-9799.86,2586.3,-96.1046,99.469,-41.1637,6851.16,140.817,1100.84,-24.7014,22.8535,-25.6857
3.9595,5635.74,-562.893,9607.48,21.287,-106.406,21.0933,30435.9,9074.24,-1168.63,46.404,233.9,-37.7134,2381.11,11544.8,-263.751,18.0056,-5.00794,-146.918,-21374.6,-20576.3,-4289.4,-69.335,44.9541,-253.363,6540.28,10236.1,-2360.35,4.23794,-70.4623,-65.7715,6063.05,-9916.18,2643.27,-97.7768,100.015,-41.6071,6845.55,174.381,1112.39,-24.8289,21.9933,-25.5907
3.96,5620.45,-587.878,9648.4,21.5455,-107.328,21.4227,30521.7,9273.77,-1415.15,45.0098,232.503,-37.864,2417.5,11592.9,-300.928,18.1438,-4.28219,-147.634,-21610.4,-20485.2,-4269.25,-68.9911,43.7106,-251.016,6572.07,10270.7,-2379.61,3.66657,-68.6022,-65.4663,6233.11,-10032.5,2700.25,-99.4491,100.56,-42.0506,6839.95,207.946,1123.93,-24.9564,21.1331,-25.4958
3.9605,5605.81,-598.462,9688.24,21.6938,-108.391,21.7053,30565.3,9361.09,-1623.53,44.0382,230.808,-37.569,2436.05,11625.3,-370.482,18.3477,-3.59788,-148.355,-21844.3,-20374.2,-4228.31,-68.5486,42.2695,-248.583,6561.66,10307.9,-2385.57,3.17942,-66.7802,-65.0778,6430.19,-10203.3,2703.19,-100.487,101.194,-42.5967,6840.51,220.318,1106.53,-25.079,20.4392,-25.3902
3.961,5591.17,-609.047,9728.09,21.8421,-109.453,21.9879,30608.9,9448.42,-1831.91,43.0666,229.113,-37.274,2454.6,11657.8,-440.036,18.5516,-2.91357,-149.077,-22078.2,-20263.1,-4187.36,-68.106,40.8284,-246.151,6551.26,10345.0,-2391.53,2.69228,-64.9582,-64.6893,6627.27,-10374.1,2706.14,-101.525,101.827,-43.1428,6841.07,232.69,1089.13,-25.2015,19.7453,-25.2847
3.9615,5576.52,-619.631,9767.93,21.9904,-110.516,22.2705,30652.5,9535.74,-2040.29,42.095,227.418,-36.979,2473.14,11690.3,-509.589,18.7555,-2.22926,-149.798,-22312.1,-20152.1,-4146.42,-67.6635,39.3872,-243.719,6540.85,10382.2,-2397.49,2.20513,-63.1362,-64.3008,6824.35,-10544.8,2709.08,-102.562,102.46,-43.689,6841.64,245.062,1071.73,-25.3241,19.0514,-25.1791
3.962,5561.88,-630.215,9807.78,22.1387,-111.578,22.5531,30696.1,9623.07,-2248.67,41.1235,225.723,-36.684,2491.69,11722.8,-579.143,18.9594,-1.54494,-150.52,-22546.0,-20041.1,-4105.48,-67.2209,37.9461,-241.286,6530.45,10419.3,-2403.45,1.71798,-61.3142,-63.9123,7021.44,-10715.6,2712.03,-103.6,103.094,-44.2351,6842.2,257.434,1054.33,-25.4466,18.3575,-25.0736
3.9625,5547.24,-640.799,9847.63,22.287,-112.641,22.8356,30739.7,9710.39,-2457.05,40.1519,224.028,-36.389,2510.24,11755.3,-648.696,19.1633,-0.860632,-151.241,-22779.9,-19930.0,-4064.53,-66.7784,36.5049,-238.854,6520.04,10456.5,-2409.41,1.23084,-59.4922,-63.5238,7218.52,-10886.4,2714.97,-104.638,103.727,-44.7812,6842.76,269.806,1036.93,-25.5692,17.6636,-24.968
3.963,5532.59,-651.384,9887.47,22.4353,-113.703,23.1182,30783.2,9797.72,-2665.43,39.1803,222.333,-36.0941,2528.79,11787.7,-718.25,19.3672,-0.17632,-151.962,-23013.8,-19819.0,-4023.59,-66.3359,35.0638,-236.421,6509.63,10493.7,-2415.37,0.743688,-57.6702,-63.1354,7415.6,-11057.2,2717.92,-105.676,104.361,-45.3274,6843.33,282.178,1019.53,-25.6918,16.9697,-24.8625
3.9635,5517.95,-661.968,9927.32,22.5837,-114.765,23.4008,30826.8,9885.04,-2873.81,38.2087,220.638,-35.7991,2547.34,11820.2,-787.803,19.5711,0.507992,-152.684,-23247.8,-19707.9,-3982.64,-65.8933,33.6227,-233.989,6499.23,10530.8,-2421.33,0.256541,-55.8482,-62.7469,7612.68,-11228.0,2720.86,-106.714,104.994,-45.8735,6843.89,294.55,1002.13,-25.8143,16.2757,-24.7569
3.964,5503.31,-672.552,9967.16,22.732,-115.828,23.6834,30870.4,9972.37,-3082.2,37.2371,218.943,-35.5041,2565.89,11852.7,-857.357,19.775,1.1923,-153.405,-23481.7,-19596.9,-3941.7,-65.4508,32.1815,-231.556,6488.82,10568.0,-2427.29,-0.230607,-54.0262,-62.3584,7809.76,-11398.7,2723.81,-107.751,105.627,-46.4196,6844.45,306.922,984.731,-25.9369,15.5818,-24.6514
3.9645,5488.93,-684.107,10006.3,22.8657,-116.898,23.9502,30909.5,10036.0,-3290.36,36.4079,217.218,-35.2032,2583.56,11888.2,-925.903,19.9795,1.86324,-154.121,-23715.1,-19481.2,-3899.13,-65.0067,30.6824,-229.191,6477.69,10604.6,-2432.32,-0.699351,-52.2167,-61.9661,8009.17,-11566.4,2721.18,-108.693,106.276,-46.9638,6846.17,321.32,969.263,-26.0634,14.8861,-24.5502
3.965,5476.63,-703.423,10039.3,22.8828,-118.024,24.0906,30912.4,9910.08,-3496.83,36.7179,215.247,-34.8551,2594.19,11947.4,-986.389,20.1888,2.42716,-154.798,-23944.7,-19327.7,-3843.55,-64.5498,28.719,-227.36,6460.76,10637.0,-2429.93,-1.02087,-50.5073,-61.5437,8227.15,-11709.0,2673.98,-108.863,107.045,-47.4926,6857.12,351.93,969.257,-26.221,14.1755,-24.4839
3.9655,5464.33,-722.739,10072.4,22.8998,-119.15,24.231,30915.4,9784.15,-3703.3,37.0278,213.276,-34.507,2604.82,12006.7,-1046.87,20.3981,2.99108,-155.475,-24174.2,-19174.3,-3787.96,-64.0929,26.7557,-225.53,6443.82,10669.5,-2427.54,-1.34239,-48.798,-61.1213,8445.12,-11851.6,2626.78,-109.034,107.814,-48.0214,6868.08,382.54,969.251,-26.3787,13.4649,-24.4175
3.966,5452.04,-742.055,10105.4,22.9169,-120.276,24.3714,30918.4,9658.23,-3909.78,37.3377,211.305,-34.1589,2615.45,12066.0,-1107.36,20.6074,3.55501,-156.151,-24403.8,-19020.9,-3732.38,-63.636,24.7924,-223.699,6426.88,10701.9,-2425.16,-1.66391,-47.0886,-60.6989,8663.1,-11994.3,2579.59,-109.204,108.583,-48.5501,6879.03,413.15,969.244,-26.5364,12.7543,-24.3512
3.9665,5439.74,-761.371,10138.5,22.934,-121.402,24.5119,30921.4,9532.3,-4116.25,37.6477,209.334,-33.8108,2626.08,12125.3,-1167.85,20.8167,4.11893,-156.828,-24633.3,-18867.5,-3676.79,-63.1791,22.829,-221.868,6409.94,10734.3,-2422.77,-1.98543,-45.3792,-60.2764,8881.08,-12136.9,2532.39,-109.375,109.352,-49.0789,6889.98,443.76,969.238,-26.694,12.0437,-24.2849
3.967,5427.45,-780.688,10171.5,22.9511,-122.528,24.6523,30924.3,9406.38,-4322.72,37.9576,207.363,-33.4627,2636.71,12184.6,-1228.33,21.026,4.68285,-157.504,-24862.9,-18714.1,-3621.21,-62.7222,20.8657,-220.038,6393.01,10766.8,-2420.38,-2.30695,-43.6699,-59.854,9099.06,-12279.5,2485.19,-109.545,110.121,-49.6077,6900.93,474.37,969.232,-26.8517,11.3331,-24.2186
3.9675,5415.15,-800.004,10204.6,22.9681,-123.654,24.7927,30927.3,9280.45,-4529.19,38.2675,205.392,-33.1146,2647.33,12243.9,-1288.82,21.2354,5.24677,-158.181,-25092.4,-18560.7,-3565.63,-62.2654,18.9024,-218.207,6376.07,10799.2,-2417.99,-2.62847,-41.9605,-59.4316,9317.04,-12422.1,2437.99,-109.716,110.89,-50.1365,6911.89,504.979,969.225,-27.0094,10.6226,-24.1523
3.968,5402.85,-819.32,10237.7,22.9852,-124.78,24.9331,30930.3,9154.53,-4735.66,38.5775,203.421,-32.7665,2657.96,12303.2,-1349.3,21.4447,5.81069,-158.857,-25322.0,-18407.3,-3510.04,-61.8085,16.9391,-216.377,6359.13,10831.6,-2415.61,-2.95,-40.2511,-59.0092,9535.02,-12564.7,2390.79,-109.886,111.659,-50.6653,6922.84,535.589,969.219,-27.167,9.91197,-24.086
3.9685,5390.56,-838.636,10270.7,23.0023,-125.906,25.0735,30933.2,9028.61,-4942.13,38.8874,201.45,-32.4185,2668.59,12362.5,-1409.79,21.654,6.37462,-159.534,-25551.5,-18253.9,-3454.46,-61.3516,14.9757,-214.546,6342.19,10864.1,-2413.22,-3.27152,-38.5418,-58.5868,9752.99,-12707.3,2343.6,-110.056,112.429,-51.194,6933.79,566.199,969.213,-27.3247,9.20138,-24.0196
3.969,5378.52,-860.226,10301.8,22.9805,-127.056,25.1815,30939.0,8886.14,-5155.1,39.4971,199.466,-32.01,2675.62,12419.1,-1464.69,21.8576,6.8902,-160.21,-25773.5,-18065.1,-3397.04,-60.9535,12.8807,-212.757,6319.22,10900.4,-2408.84,-3.56109,-36.8624,-58.1604,9965.26,-12847.1,2288.55,-109.999,113.181,-51.7016,6946.48,590.11,971.251,-27.4682,8.48239,-23.9489
3.9695,5367.39,-889.772,10326.0,22.8228,-128.287,25.1759,30954.5,8685.78,-5390.81,41.1559,197.437,-31.39,2670.03,12466.2,-1500.06,22.0413,7.23661,-160.886,-25968.8,-17752.8,-3333.2,-60.7612,10.3246,-211.115,6275.13,10950.1,-2397.47,-3.73884,-35.2878,-57.72,10157.5,-12977.0,2206.01,-109.142,113.877,-52.135,6965.23,590.572,980.444,-27.5621,7.73399,-23.8625
3.97,5356.26,-919.318,10350.2,22.665,-129.519,25.1703,30970.0,8485.42,-5626.52,42.8146,195.408,-30.77,2664.45,12513.3,-1535.43,22.225,7.58302,-161.562,-26164.2,-17440.4,-3269.36,-60.5688,7.76861,-209.472,6231.03,10999.9,-2386.11,-3.91659,-33.7132,-57.2796,10349.8,-13107.0,2123.48,-108.286,114.573,-52.5683,6983.98,591.034,989.636,-27.656,6.98559,-23.7761
3.9705,5345.12,-948.865,10374.4,22.5072,-130.75,25.1648,30985.5,8285.05,-5862.23,44.4734,193.378,-30.1501,2658.86,12560.4,-1570.8,22.4087,7.92943,-162.238,-26359.5,-17128.0,-3205.52,-60.3764,5.21258,-207.829,6186.93,11049.7,-2374.74,-4.09434,-32.1386,-56.8392,10542.0,-13236.9,2040.94,-107.43,115.269,-53.0017,7002.73,591.496,998.829,-27.75,6.23719,-23.6897
3.971,5333.99,-978.411,10398.6,22.3495,-131.982,25.1592,31001.0,8084.69,-6097.95,46.1322,191.349,-29.5301,2653.27,12607.6,-1606.16,22.5924,8.27585,-162.914,-26554.9,-16815.6,-3141.68,-60.1841,2.65654,-206.187,6142.84,11099.5,-2363.38,-4.27209,-30.5641,-56.3989,10734.3,-13366.8,1958.41,-106.573,115.964,-53.435,7021.48,591.958,1008.02,-27.8439,5.48879,-23.6034
3.9715,5322.86,-1007.96,10422.8,22.1917,-133.213,25.1536,31016.5,7884.33,-6333.66,47.7909,189.32,-28.9102,2647.69,12654.7,-1641.53,22.7761,8.62226,-163.59,-26750.2,-16503.2,-3077.83,-59.9917,0.100511,-204.544,6098.74,11149.3,-2352.02,-4.44984,-28.9895,-55.9585,10926.5,-13496.7,1875.87,-105.717,116.66,-53.8683,7040.23,592.42,1017.22,-27.9378,4.74038,-23.517
3.972,5311.73,-1037.5,10447.0,22.034,-134.444,25.148,31032.0,7683.97,-6569.37,49.4497,187.291,-28.2902,2642.1,12701.8,-1676.9,22.9598,8.96867,-164.266,-26945.6,-16190.8,-3013.99,-59.7994,-2.45552,-202.901,6054.64,11199.1,-2340.65,-4.62759,-27.4149,-55.5182,11118.8,-13626.6,1793.33,-104.861,117.356,-54.3017,7058.98,592.882,1026.41,-28.0317,3.99198,-23.4306
3.9725,5300.59,-1067.05,10471.2,21.8762,-135.676,25.1424,31047.5,7483.61,-6805.09,51.1085,185.262,-27.6703,2636.51,12748.9,-1712.26,23.1435,9.31508,-164.941,-27140.9,-15878.5,-2950.15,-59.607,-5.01156,-201.258,6010.55,11248.9,-2329.29,-4.80534,-25.8404,-55.0778,11311.0,-13756.5,1710.8,-104.004,118.052,-54.735,7077.73,593.344,1035.6,-28.1257,3.24358,-23.3442
3.973,5289.46,-1096.6,10495.4,21.7184,-136.907,25.1368,31063.0,7283.25,-7040.8,52.7672,183.233,-27.0503,2630.93,12796.0,-1747.63,23.3273,9.66149,-165.617,-27336.2,-15566.1,-2886.31,-59.4147,-7.56759,-199.616,5966.45,11298.6,-2317.92,-4.98309,-24.2658,-54.6374,11503.3,-13886.4,1628.26,-103.148,118.747,-55.1684,7096.48,593.806,1044.79,-28.2196,2.49518,-23.2579
3.9735,5285.88,-1118.78,10518.5,21.5074,-138.169,25.1254,31074.7,7104.33,-7269.71,54.7065,181.226,-26.3782,2622.13,12842.1,-1781.26,23.4925,9.92951,-166.273,-27509.5,-15244.2,-2826.79,-59.3663,-10.2564,-197.685,5918.14,11345.4,-2299.43,-5.16766,-22.7819,-54.1952,11680.8,-14008.0,1543.17,-101.978,119.294,-55.5647,7119.6,578.104,1055.27,-28.3025,1.72224,-23.1986
3.974,5297.41,-1126.24,10539.5,21.19,-139.492,25.1023,31079.0,6968.31,-7485.02,57.2067,179.263,-25.6019,2606.91,12886.0,-1811.42,23.6206,10.0408,-166.888,-27638.4,-14903.2,-2775.93,-59.606,-13.2107,-195.177,5861.4,11385.9,-2266.66,-5.36586,-21.4794,-53.7492,11828.6,-14112.9,1452.98,-100.183,119.54,-55.8869,7151.48,530.074,1068.33,-28.3634,0.900219,-23.1938
3.9745,5308.93,-1133.69,10560.4,20.8726,-140.815,25.0792,31083.2,6832.28,-7700.32,59.7069,177.3,-24.8256,2591.68,12930.0,-1841.58,23.7488,10.152,-167.503,-27767.4,-14562.2,-2725.06,-59.8456,-16.1651,-192.668,5804.66,11426.5,-2233.9,-5.56407,-20.1769,-53.3033,11976.5,-14217.8,1362.78,-98.3869,119.787,-56.2091,7183.36,482.044,1081.39,-28.4242,0.0781997,-23.1889
3.975,5320.46,-1141.15,10581.3,20.5551,-142.137,25.0561,31087.5,6696.25,-7915.63,62.2071,175.337,-24.0493,2576.46,12974.0,-1871.74,23.877,10.2632,-168.119,-27896.3,-14221.2,-2674.19,-60.0852,-19.1194,-190.16,5747.92,11467.1,-2201.14,-5.76228,-18.8743,-52.8574,12124.4,-14322.8,1272.59,-96.5912,120.033,-56.5313,7215.24,434.014,1094.44,-28.4851,-0.74382,-23.184
