Time,RFoot_accel.x,RFoot_accel.y,RFoot_accel.z,RFoot_gyro.x,RFoot_gyro.y,RFoot_gyro.z,LFoot_accel.x,LFoot_accel.y,LFoot_accel.z,LFoot_gyro.x,LFoot_gyro.y,LFoot_gyro.z,RShank_accel.x,RShank_accel.y,RShank_accel.z,RShank_gyro.x,RShank_gyro.y,RShank_gyro.z,LShank_accel.x,LShank_accel.y,LShank_accel.z,LShank_gyro.x,LShank_gyro.y,LShank_gyro.z,RThigh_accel.x,RThigh_accel.y,RThigh_accel.z,RThigh_gyro.x,RThigh_gyro.y,RThigh_gyro.z,LThigh_accel.x,LThigh_accel.y,LThigh_accel.z,LThigh_gyro.x,LThigh_gyro.y,LThigh_gyro.z,Pelvis_accel.x,Pelvis_accel.y,Pelvis_accel.z,Pelvis_gyro.x,Pelvis_gyro.y,Pelvis_gyro.z
3.67,4813.49,-2097.62,8324.15,-42.0147,-90.7718,-33.8224,4677.63,1254.51,7806.05,83.5819,376.021,145.461,2615.13,9798.73,-2448.58,6.87851,-78.9269,-27.2226,2278.15,-4660.98,-2302.22,-117.265,-32.3134,-318.44,2307.33,9113.71,-4887.07,40.8262,-70.8961,-128.19,-5651.67,-3020.22,-1091.94,-18.7517,110.971,-123.537,3120.39,934.279,2853.57,-54.2431,-74.927,-5.43236
3.6705,4796.72,-2197.23,8316.47,-41.2554,-90.8766,-33.7515,4706.79,1289.08,7848.72,83.8134,376.396,144.605,2677.19,9771.57,-2454.7,6.93303,-78.7789,-27.8534,2289.75,-4712.37,-2302.58,-118.176,-31.2044,-318.854,2359.01,9065.72,-4933.4,40.7712,-71.0227,-127.917,-5671.27,-3020.21,-1052.61,-18.0893,110.355,-122.942,3145.39,918.992,2824.97,-54.4033,-75.7661,-5.07836
3.671,4779.95,-2296.83,8308.78,-40.496,-90.9815,-33.6807,4735.96,1323.64,7891.38,84.0448,376.771,143.748,2739.26,9744.41,-2460.82,6.98755,-78.6309,-28.4842,2301.35,-4763.75,-2302.95,-119.087,-30.0955,-319.267,2410.69,9017.72,-4979.72,40.7162,-71.1493,-127.644,-5690.87,-3020.2,-1013.29,-17.4268,109.738,-122.347,3170.39,903.704,2796.37,-54.5634,-76.6053,-4.72435
3.6715,4770.06,-2305.73,8289.35,-39.8488,-91.0573,-33.4683,4765.15,1348.15,7938.36,84.1242,377.244,142.723,2755.04,9714.62,-2473.02,7.07458,-78.2412,-29.1185,2308.38,-4818.53,-2295.68,-119.99,-28.8662,-319.669,2485.79,8991.91,-4975.2,40.3369,-71.3938,-127.544,-5713.55,-3025.85,-998.58,-16.8369,108.593,-121.836,3225.18,903.763,2762.57,-54.7302,-77.0743,-4.43198
3.672,4762.15,-2288.71,8266.56,-39.2337,-91.1248,-33.2155,4794.34,1369.78,7986.57,84.1601,377.746,141.649,2757.6,9684.08,-2486.97,7.17089,-77.7825,-29.7538,2314.1,-4874.26,-2286.22,-120.89,-27.6026,-320.067,2567.58,8972.43,-4956.14,39.8649,-71.672,-127.493,-5737.1,-3033.13,-990.907,-16.2677,107.296,-121.35,3288.47,908.208,2727.29,-54.8989,-77.4376,-4.15722
3.6725,4754.23,-2271.69,8243.77,-38.6185,-91.1923,-32.9627,4823.54,1391.41,8034.78,84.1961,378.248,140.575,2760.15,9653.54,-2500.91,7.26721,-77.3238,-30.3891,2319.83,-4930.0,-2276.76,-121.791,-26.3389,-320.466,2649.38,8952.96,-4937.08,39.3929,-71.9503,-127.442,-5760.66,-3040.4,-983.234,-15.6984,105.999,-120.863,3351.76,912.652,2692.01,-55.0676,-77.8009,-3.88246
3.673,4746.32,-2254.67,8220.98,-38.0033,-91.2598,-32.7099,4852.73,1413.04,8082.99,84.232,378.75,139.501,2762.71,9623.01,-2514.86,7.36352,-76.8651,-31.0244,2325.55,-4985.74,-2267.31,-122.691,-25.0753,-320.864,2731.17,8933.48,-4918.02,38.9209,-72.2285,-127.391,-5784.21,-3047.67,-975.562,-15.1292,104.702,-120.376,3415.05,917.097,2656.73,-55.2364,-78.1641,-3.60769
3.6735,4738.41,-2237.64,8198.2,-37.3882,-91.3273,-32.4571,4881.93,1434.67,8131.2,84.268,379.251,138.427,2765.27,9592.47,-2528.8,7.45984,-76.4064,-31.6597,2331.28,-5041.48,-2257.85,-123.592,-23.8116,-321.263,2812.96,8914.01,-4898.96,38.4489,-72.5067,-127.34,-5807.77,-3054.95,-967.889,-14.56,103.405,-119.889,3478.34,921.541,2621.44,-55.4051,-78.5274,-3.33293
3.674,4730.49,-2220.62,8175.41,-36.773,-91.3948,-32.2043,4911.12,1456.3,8179.41,84.3039,379.753,137.353,2767.82,9561.93,-2542.74,7.55615,-75.9477,-32.295,2337.01,-5097.22,-2248.39,-124.492,-22.5479,-321.661,2894.75,8894.54,-4879.91,37.9769,-72.7849,-127.289,-5831.33,-3062.22,-960.216,-13.9908,102.109,-119.402,3541.63,925.986,2586.16,-55.5738,-78.8907,-3.05817
3.6745,4722.58,-2203.6,8152.62,-36.1578,-91.4623,-31.9515,4940.32,1477.93,8227.62,84.3398,380.255,136.279,2770.38,9531.39,-2556.69,7.65247,-75.489,-32.9303,2342.73,-5152.96,-2238.93,-125.393,-21.2843,-322.059,2976.55,8875.06,-4860.85,37.505,-73.0632,-127.238,-5854.88,-3069.49,-952.544,-13.4216,100.812,-118.916,3604.92,930.43,2550.88,-55.7425,-79.254,-2.7834
3.675,4714.66,-2186.58,8129.83,-35.5427,-91.5298,-31.6987,4969.51,1499.55,8275.83,84.3758,380.757,135.205,2772.93,9500.86,-2570.63,7.74878,-75.0303,-33.5656,2348.46,-5208.7,-2229.48,-126.293,-20.0206,-322.458,3058.34,8855.59,-4841.79,37.033,-73.3414,-127.187,-5878.44,-3076.76,-944.871,-12.8523,99.515,-118.429,3668.21,934.875,2515.6,-55.9112,-79.6173,-2.50864
3.6755,4706.75,-2169.56,8107.04,-34.9275,-91.5973,-31.4459,4998.71,1521.18,8324.04,84.4117,381.259,134.131,2775.49,9470.32,-2584.58,7.8451,-74.5716,-34.2009,2354.18,-5264.44,-2220.02,-127.194,-18.757,-322.856,3140.13,8836.12,-4822.73,36.561,-73.6196,-127.137,-5901.99,-3084.04,-937.198,-12.2831,98.2182,-117.942,3731.51,939.319,2480.32,-56.0799,-79.9806,-2.23388
3.676,4722.03,-2126.63,8088.39,-34.661,-91.6022,-31.3393,5037.76,1533.41,8358.62,84.4464,381.811,133.001,2754.94,9433.88,-2597.89,8.01355,-74.1409,-34.8285,2372.06,-5349.78,-2228.29,-127.985,-17.403,-323.272,3236.55,8869.38,-4797.45,35.5633,-73.8456,-127.123,-5947.57,-3087.32,-953.634,-11.8735,96.9025,-117.487,3789.59,946.53,2438.38,-56.0517,-79.9023,-2.06592
3.6765,4740.21,-2080.46,8070.25,-34.4382,-91.5993,-31.2509,5078.04,1544.47,8391.49,84.4808,382.369,131.863,2731.49,9396.71,-2611.13,8.19102,-73.7137,-35.4552,2391.45,-5438.82,-2238.78,-128.762,-16.0377,-323.691,3334.79,8909.25,-4771.38,34.4998,-74.065,-127.114,-5995.91,-3090.1,-973.083,-11.4838,95.5844,-117.035,3847.02,954.086,2395.6,-55.9988,-79.7687,-1.91132
3.677,4758.4,-2034.29,8052.11,-34.2153,-91.5963,-31.1625,5118.33,1555.52,8424.37,84.5153,382.927,130.726,2708.05,9359.54,-2624.36,8.36848,-73.2865,-36.0818,2410.85,-5527.85,-2249.27,-129.539,-14.6724,-324.109,3433.03,8949.11,-4745.31,33.4363,-74.2844,-127.105,-6044.24,-3092.88,-992.532,-11.0941,94.2664,-116.584,3904.45,961.642,2352.83,-55.9459,-79.6352,-1.75672
3.6775,4776.58,-1988.12,8033.97,-33.9924,-91.5933,-31.0741,5158.61,1566.58,8457.25,84.5498,383.485,129.589,2684.61,9322.36,-2637.6,8.54595,-72.8593,-36.7085,2430.24,-5616.89,-2259.76,-130.316,-13.3071,-324.527,3531.28,8988.97,-4719.25,32.3729,-74.5038,-127.096,-6092.58,-3095.66,-1011.98,-10.7043,92.9483,-116.132,3961.88,969.198,2310.05,-55.893,-79.5017,-1.60212
3.678,4794.76,-1941.96,8015.83,-33.7695,-91.5904,-30.9856,5198.9,1577.63,8490.13,84.5843,384.043,128.451,2661.16,9285.19,-2650.83,8.72342,-72.4321,-37.3351,2449.64,-5705.93,-2270.25,-131.094,-11.9418,-324.945,3629.52,9028.83,-4693.18,31.3094,-74.7233,-127.087,-6140.91,-3098.44,-1031.43,-10.3146,91.6302,-115.681,4019.31,976.754,2267.28,-55.8401,-79.3682,-1.44752
3.6785,4812.94,-1895.79,7997.69,-33.5467,-91.5874,-30.8972,5239.18,1588.69,8523.0,84.6188,384.601,127.314,2637.72,9248.01,-2664.07,8.90089,-72.0049,-37.9618,2469.03,-5794.97,-2280.74,-131.871,-10.5765,-325.363,3727.76,9068.7,-4667.11,30.246,-74.9427,-127.079,-6189.25,-3101.22,-1050.88,-9.92493,90.3122,-115.229,4076.74,984.31,2224.51,-55.7873,-79.2347,-1.29292
3.679,4831.13,-1849.62,7979.55,-33.3238,-91.5844,-30.8088,5279.46,1599.74,8555.88,84.6533,385.159,126.176,2614.28,9210.84,-2677.31,9.07836,-71.5778,-38.5884,2488.43,-5884.0,-2291.23,-132.648,-9.2112,-325.781,3826.0,9108.56,-4641.05,29.1825,-75.1621,-127.07,-6237.58,-3104.0,-1070.33,-9.53522,88.9941,-114.778,4134.17,991.866,2181.73,-55.7344,-79.1012,-1.13831
3.6795,4849.31,-1803.45,7961.41,-33.1009,-91.5815,-30.7204,5319.75,1610.8,8588.76,84.6877,385.718,125.039,2590.83,9173.67,-2690.54,9.25583,-71.1506,-39.2151,2507.82,-5973.04,-2301.72,-133.425,-7.8459,-326.199,3924.25,9148.42,-4614.98,28.1191,-75.3815,-127.061,-6285.92,-3106.78,-1089.78,-9.14551,87.6761,-114.326,4191.6,999.422,2138.96,-55.6815,-78.9677,-0.983713
3.68,4867.49,-1757.29,7943.27,-32.878,-91.5785,-30.632,5360.03,1621.85,8621.63,84.7222,386.276,123.902,2567.39,9136.49,-2703.78,9.43329,-70.7234,-39.8417,2527.22,-6062.08,-2312.21,-134.202,-6.48061,-326.618,4022.49,9188.28,-4588.91,27.0556,-75.601,-127.052,-6334.25,-3109.57,-1109.23,-8.7558,86.358,-113.875,4249.03,1006.98,2096.18,-55.6287,-78.8341,-0.829112
3.6805,4883.58,-1772.1,7929.65,-32.7619,-91.5476,-30.6909,5399.0,1596.61,8664.47,84.87,386.887,122.499,2557.61,9112.54,-2716.46,9.65353,-70.391,-40.4176,2528.49,-6139.67,-2302.92,-134.872,-5.05081,-327.055,4079.68,9212.23,-4551.63,25.7148,-75.6287,-126.835,-6391.27,-3118.2,-1159.62,-8.46887,85.5432,-113.419,4328.94,1021.46,2071.65,-55.6681,-78.1856,-0.582262
3.681,4899.68,-1786.92,7916.03,-32.6458,-91.5166,-30.7498,5437.96,1571.36,8707.3,85.0177,387.498,121.096,2547.83,9088.58,-2729.15,9.87376,-70.0587,-40.9935,2529.76,-6217.26,-2293.63,-135.542,-3.62101,-327.493,4136.88,9236.17,-4514.34,24.3741,-75.6565,-126.618,-6448.3,-3126.84,-1210.02,-8.18195,84.7284,-112.963,4408.86,1035.95,2047.12,-55.7075,-77.5372,-0.335413
3.6815,4915.77,-1801.74,7902.4,-32.5297,-91.4856,-30.8086,5476.92,1546.12,8750.13,85.1655,388.11,119.694,2538.06,9064.63,-2741.83,10.094,-69.7263,-41.5694,2531.04,-6294.85,-2284.34,-136.212,-2.19121,-327.931,4194.07,9260.12,-4477.05,23.0333,-75.6843,-126.402,-6505.32,-3135.48,-1260.41,-7.89502,83.9137,-112.507,4488.77,1050.43,2022.59,-55.7469,-76.8887,-0.0885639
3.682,4931.86,-1816.56,7888.78,-32.4136,-91.4546,-30.8675,5515.89,1520.88,8792.96,85.3133,388.721,118.291,2528.28,9040.67,-2754.52,10.3142,-69.3939,-42.1452,2532.31,-6372.44,-2275.05,-136.882,-0.761416,-328.369,4251.27,9284.07,-4439.76,21.6925,-75.7121,-126.185,-6562.34,-3144.12,-1310.81,-7.60809,83.0989,-112.051,4568.68,1064.92,1998.06,-55.7863,-76.2402,0.158285
3.6825,4947.96,-1831.38,7875.16,-32.2975,-91.4237,-30.9263,5554.85,1495.64,8835.8,85.461,389.332,116.888,2518.5,9016.72,-2767.2,10.5345,-69.0616,-42.7211,2533.58,-6450.03,-2265.77,-137.552,0.668382,-328.807,4308.46,9308.01,-4402.47,20.3518,-75.7398,-125.968,-6619.36,-3152.76,-1361.2,-7.32117,82.2841,-111.596,4648.6,1079.4,1973.53,-55.8257,-75.5917,0.405135
3.683,4964.05,-1846.2,7861.54,-32.1813,-91.3927,-30.9852,5593.82,1470.39,8878.63,85.6088,389.944,115.486,2508.72,8992.76,-2779.89,10.7547,-68.7292,-43.297,2534.86,-6527.62,-2256.48,-138.222,2.09818,-329.245,4365.66,9331.96,-4365.18,19.011,-75.7676,-125.751,-6676.39,-3161.4,-1411.6,-7.03424,81.4693,-111.14,4728.51,1093.89,1949.0,-55.8651,-74.9432,0.651984
3.6835,4980.14,-1861.02,7847.91,-32.0652,-91.3617,-31.0441,5632.78,1445.15,8921.46,85.7565,390.555,114.083,2498.95,8968.81,-2792.57,10.9749,-68.3969,-43.8729,2536.13,-6605.21,-2247.19,-138.892,3.52798,-329.683,4422.85,9355.91,-4327.89,17.6702,-75.7954,-125.535,-6733.41,-3170.04,-1461.99,-6.74731,80.6545,-110.684,4808.42,1108.37,1924.47,-55.9045,-74.2947,0.898833
3.684,4996.24,-1875.84,7834.29,-31.9491,-91.3308,-31.1029,5671.74,1419.91,8964.3,85.9043,391.166,112.68,2489.17,8944.85,-2805.25,11.1952,-68.0645,-44.4488,2537.4,-6682.8,-2237.9,-139.562,4.95777,-330.121,4480.05,9379.85,-4290.61,16.3294,-75.8232,-125.318,-6790.43,-3178.68,-1512.39,-6.46039,79.8397,-110.228,4888.34,1122.86,1899.94,-55.9439,-73.6463,1.14568
3.6845,5011.56,-1890.54,7821.21,-31.8222,-91.294,-31.1663,5711.16,1392.16,9007.05,86.0659,391.771,111.261,2477.36,8922.04,-2817.06,11.4094,-67.7446,-45.0224,2539.32,-6763.89,-2227.49,-140.228,6.38673,-330.542,4533.55,9401.84,-4250.74,14.9874,-75.8371,-125.092,-6847.25,-3186.97,-1562.69,-6.16658,79.0889,-109.765,4967.78,1134.52,1876.92,-55.9904,-72.9722,1.39218
3.685,5020.69,-1904.25,7812.51,-31.6086,-91.2113,-31.266,5754.24,1344.35,9049.12,86.3383,392.32,109.705,2449.25,8908.42,-2821.82,11.5762,-67.524,-45.5784,2546.37,-6872.95,-2208.15,-140.856,7.80891,-330.833,4557.46,9408.17,-4190.27,13.6352,-75.7403,-124.794,-6902.42,-3192.45,-1612.22,-5.81768,78.8503,-109.244,5043.41,1123.57,1865.99,-56.0941,-72.0934,1.6359
3.6855,5029.83,-1917.95,7803.82,-31.395,-91.1285,-31.3657,5797.31,1296.55,9091.19,86.6106,392.869,108.15,2421.14,8894.79,-2826.58,11.7429,-67.3035,-46.1343,2553.42,-6982.02,-2188.82,-141.485,9.23108,-331.124,4581.38,9414.49,-4129.79,12.2829,-75.6434,-124.497,-6957.59,-3197.93,-1661.76,-5.46878,78.6117,-108.723,5119.03,1112.62,1855.07,-56.1979,-71.2146,1.87962
3.686,5038.97,-1931.66,7795.12,-31.1814,-91.0458,-31.4654,5840.38,1248.74,9133.26,86.883,393.418,106.594,2393.03,8881.16,-2831.35,11.9096,-67.083,-46.6902,2560.47,-7091.08,-2169.48,-142.114,10.6533,-331.414,4605.3,9420.81,-4069.31,10.9307,-75.5466,-124.199,-7012.75,-3203.41,-1711.3,-5.11989,78.3731,-108.202,5194.66,1101.67,1844.15,-56.3016,-70.3358,2.12334
3.6865,5048.11,-1945.37,7786.42,-30.9679,-90.963,-31.5651,5883.46,1200.93,9175.33,87.1553,393.966,105.039,2364.93,8867.54,-2836.11,12.0763,-66.8625,-47.2461,2567.52,-7200.15,-2150.14,-142.742,12.0754,-331.705,4629.21,9427.14,-4008.84,9.57843,-75.4498,-123.902,-7067.92,-3208.89,-1760.84,-4.77099,78.1344,-107.681,5270.29,1090.73,1833.22,-56.4053,-69.4571,2.36706
3.687,5057.24,-1959.07,7777.72,-30.7543,-90.8803,-31.6647,5926.53,1153.13,9217.4,87.4277,394.515,103.484,2336.82,8853.91,-2840.87,12.243,-66.642,-47.802,2574.57,-7309.21,-2130.8,-143.371,13.4976,-331.996,4653.13,9433.46,-3948.36,8.22619,-75.353,-123.604,-7123.09,-3214.37,-1810.38,-4.4221,77.8958,-107.16,5345.92,1079.78,1822.3,-56.509,-68.5783,2.61078
3.6875,5066.38,-1972.78,7769.02,-30.5407,-90.7975,-31.7644,5969.6,1105.32,9259.47,87.7001,395.064,101.928,2308.71,8840.28,-2845.64,12.4097,-66.4214,-48.3579,2581.63,-7418.28,-2111.46,-144.0,14.9198,-332.287,4677.05,9439.78,-3887.89,6.87394,-75.2561,-123.307,-7178.26,-3219.85,-1859.92,-4.0732,77.6572,-106.639,5421.55,1068.83,1811.38,-56.6127,-67.6995,2.8545
3.688,5075.52,-1986.49,7760.32,-30.3271,-90.7147,-31.8641,6012.67,1057.52,9301.54,87.9724,395.613,100.373,2280.6,8826.65,-2850.4,12.5764,-66.2009,-48.9138,2588.68,-7527.34,-2092.12,-144.628,16.342,-332.578,4700.96,9446.11,-3827.41,5.5217,-75.1593,-123.009,-7233.43,-3225.33,-1909.46,-3.72431,77.4186,-106.118,5497.18,1057.88,1800.45,-56.7165,-66.8207,3.09822
3.6885,5084.65,-2000.19,7751.62,-30.1135,-90.632,-31.9638,6055.75,1009.71,9343.61,88.2448,396.162,98.8176,2252.5,8813.03,-2855.16,12.7431,-65.9804,-49.4697,2595.73,-7636.41,-2072.79,-145.257,17.7642,-332.868,4724.88,9452.43,-3766.94,4.16946,-75.0625,-122.711,-7288.6,-3230.81,-1959.0,-3.37541,77.1799,-105.597,5572.81,1046.94,1789.53,-56.8202,-65.9419,3.34194
3.689,5095.56,-2009.18,7742.97,-29.9089,-90.5446,-32.0523,6094.88,964.894,9383.19,88.5069,396.691,97.2217,2223.01,8799.76,-2853.07,12.9075,-65.7801,-50.0268,2597.68,-7746.45,-2056.76,-145.89,19.1766,-333.198,4741.13,9450.65,-3703.01,2.88159,-74.9951,-122.347,-7344.22,-3238.02,-2005.58,-3.03529,77.0559,-105.078,5647.12,1036.04,1777.67,-56.9138,-65.0474,3.53367
3.6895,5112.65,-2001.67,7734.48,-29.7356,-90.4408,-32.1018,6120.24,930.525,9414.08,88.7333,397.147,95.4838,2188.68,8787.76,-2826.96,13.0641,-65.6508,-50.588,2581.78,-7859.89,-2052.35,-146.542,20.5551,-333.662,4730.55,9420.48,-3627.0,1.81904,-75.031,-121.749,-7401.43,-3251.27,-2041.83,-2.72589,77.3326,-104.568,5716.79,1025.34,1762.56,-56.972,-64.0975,3.54343
3.69,5129.74,-1994.16,7726.0,-29.5623,-90.3371,-32.1512,6145.6,896.156,9444.97,88.9597,397.604,93.746,2154.36,8775.77,-2800.85,13.2206,-65.5215,-51.1492,2565.88,-7973.34,-2047.94,-147.193,21.9336,-334.127,4719.97,9390.31,-3550.99,0.756495,-75.0669,-121.152,-7458.64,-3264.53,-2078.08,-2.4165,77.6094,-104.058,5786.47,1014.64,1747.44,-57.0302,-63.1477,3.55319
3.6905,5146.83,-1986.65,7717.51,-29.389,-90.2333,-32.2006,6170.95,861.787,9475.86,89.1861,398.061,92.0081,2120.03,8763.77,-2774.75,13.3771,-65.3922,-51.7104,2549.98,-8086.78,-2043.52,-147.844,23.312,-334.591,4709.38,9360.14,-3474.98,-0.306053,-75.1027,-120.554,-7515.85,-3277.78,-2114.34,-2.1071,77.8862,-103.548,5856.15,1003.95,1732.33,-57.0884,-62.1979,3.56295
3.691,5163.92,-1979.14,7709.03,-29.2157,-90.1295,-32.2501,6196.31,827.419,9506.75,89.4125,398.518,90.2702,2085.7,8751.78,-2748.64,13.5337,-65.2629,-52.2716,2534.08,-8200.23,-2039.11,-148.495,24.6905,-335.056,4698.8,9329.98,-3398.98,-1.3686,-75.1386,-119.956,-7573.06,-3291.04,-2150.59,-1.7977,78.163,-103.038,5925.82,993.246,1717.22,-57.1466,-61.2481,3.57271
3.6915,5181.01,-1971.63,7700.54,-29.0424,-90.0258,-32.2995,6221.67,793.05,9537.64,89.6388,398.974,88.5324,2051.38,8739.78,-2722.53,13.6902,-65.1336,-52.8329,2518.18,-8313.67,-2034.7,-149.146,26.069,-335.52,4688.22,9299.81,-3322.97,-2.43115,-75.1744,-119.359,-7630.27,-3304.29,-2186.84,-1.4883,78.4397,-102.528,5995.5,982.547,1702.1,-57.2048,-60.2983,3.58247
3.692,5198.11,-1964.12,7692.05,-28.8691,-89.922,-32.349,6247.02,758.681,9568.53,89.8652,399.431,86.7945,2017.05,8727.78,-2696.43,13.8467,-65.0043,-53.3941,2502.28,-8427.12,-2030.28,-149.797,27.4474,-335.985,4677.64,9269.64,-3246.96,-3.4937,-75.2103,-118.761,-7687.48,-3317.55,-2223.09,-1.17891,78.7165,-102.018,6065.18,971.847,1686.99,-57.263,-59.3484,3.59223
3.6925,5215.2,-1956.61,7683.57,-28.6958,-89.8183,-32.3984,6272.38,724.312,9599.42,90.0916,399.888,85.0567,1982.73,8715.79,-2670.32,14.0032,-64.875,-53.9553,2486.38,-8540.56,-2025.87,-150.448,28.8259,-336.449,4667.06,9239.48,-3170.95,-4.55624,-75.2461,-118.163,-7744.69,-3330.8,-2259.34,-0.869509,78.9933,-101.507,6134.85,961.148,1671.87,-57.3212,-58.3986,3.60199
3.693,5232.29,-1949.1,7675.08,-28.5225,-89.7145,-32.4479,6297.74,689.943,9630.3,90.318,400.344,83.3188,1948.4,8703.79,-2644.21,14.1598,-64.7457,-54.5165,2470.48,-8654.01,-2021.45,-151.099,30.2044,-336.914,4656.48,9209.31,-3094.94,-5.61879,-75.282,-117.565,-7801.9,-3344.06,-2295.6,-0.560111,79.2701,-100.997,6204.53,950.448,1656.76,-57.3794,-57.4488,3.61175
3.6935,5246.33,-1943.46,7662.61,-28.3328,-89.5901,-32.505,6321.48,666.169,9666.44,90.5082,400.749,81.5326,1921.57,8690.67,-2617.57,14.2994,-64.6206,-55.0926,2454.69,-8768.47,-2024.83,-151.715,31.5566,-337.357,4639.7,9188.58,-3016.12,-6.45695,-75.3429,-116.897,-7857.24,-3357.92,-2328.06,-0.219535,79.585,-100.464,6273.18,938.884,1643.71,-57.4526,-56.5513,3.59745
3.694,5254.29,-1941.56,7642.15,-28.1104,-89.4245,-32.5774,6342.01,663.585,9713.05,90.626,401.051,79.6497,1909.74,8675.29,-2589.85,14.4054,-64.5041,-55.6985,2439.12,-8884.95,-2043.77,-152.261,32.8565,-337.756,4610.52,9186.71,-2931.69,-6.84632,-75.4537,-116.088,-7908.83,-3373.0,-2352.94,0.1834,79.9762,-99.8854,6339.76,925.589,1634.81,-57.556,-55.7586,3.53503
3.6945,5262.25,-1939.66,7621.7,-27.888,-89.2589,-32.6498,6362.53,661.001,9759.67,90.7438,401.352,77.7668,1897.91,8659.91,-2562.14,14.5114,-64.3875,-56.3045,2423.56,-9001.43,-2062.72,-152.807,34.1564,-338.156,4581.34,9184.85,-2847.25,-7.2357,-75.5646,-115.278,-7960.43,-3388.07,-2377.83,0.586335,80.3674,-99.3065,6406.34,912.293,1625.91,-57.6593,-54.9658,3.47261
3.695,5270.21,-1937.76,7601.25,-27.6656,-89.0932,-32.7222,6383.06,658.417,9806.29,90.8616,401.654,75.8839,1886.07,8644.53,-2534.42,14.6174,-64.2709,-56.9104,2407.99,-9117.91,-2081.66,-153.353,35.4562,-338.556,4552.17,9182.99,-2762.81,-7.62508,-75.6754,-114.469,-8012.02,-3403.15,-2402.71,0.989269,80.7587,-98.7277,6472.92,898.998,1617.01,-57.7626,-54.1731,3.41018
3.6955,5278.17,-1935.86,7580.79,-27.4432,-88.9276,-32.7946,6403.58,655.832,9852.9,90.9794,401.955,74.0009,1874.24,8629.16,-2506.71,14.7233,-64.1544,-57.5164,2392.43,-9234.4,-2100.61,-153.899,36.7561,-338.956,4522.99,9181.12,-2678.37,-8.01445,-75.7863,-113.66,-8063.61,-3418.23,-2427.6,1.3922,81.1499,-98.1488,6539.51,885.703,1608.11,-57.8659,-53.3803,3.34776
3.696,5286.12,-1933.97,7560.34,-27.2208,-88.7619,-32.867,6424.11,653.248,9899.52,91.0972,402.257,72.118,1862.41,8613.78,-2478.99,14.8293,-64.0378,-58.1223,2376.87,-9350.88,-2119.55,-154.444,38.056,-339.355,4493.81,9179.26,-2593.93,-8.40383,-75.8971,-112.85,-8115.2,-3433.3,-2452.48,1.79514,81.5411,-97.5699,6606.09,872.408,1599.21,-57.9692,-52.5876,3.28534
3.6965,5294.08,-1932.07,7539.89,-26.9985,-88.5963,-32.9394,6444.63,650.664,9946.14,91.215,402.558,70.2351,1850.58,8598.4,-2451.28,14.9353,-63.9212,-58.7282,2361.3,-9467.36,-2138.5,-154.99,39.3558,-339.755,4464.63,9177.39,-2509.49,-8.7932,-76.008,-112.041,-8166.8,-3448.38,-2477.37,2.19807,81.9324,-96.9911,6672.67,859.112,1590.31,-58.0725,-51.7948,3.22291
3.697,5302.04,-1930.17,7519.43,-26.7761,-88.4307,-33.0119,6465.16,648.08,9992.75,91.3329,402.86,68.3522,1838.74,8583.03,-2423.57,15.0412,-63.8047,-59.3342,2345.74,-9583.84,-2157.44,-155.536,40.6557,-340.155,4435.46,9175.53,-2425.05,-9.18258,-76.1188,-111.232,-8218.39,-3463.46,-2502.25,2.60101,82.3236,-96.4122,6739.25,845.817,1581.41,-58.1759,-51.002,3.16049
3.6975,5310.0,-1928.27,7498.98,-26.5537,-88.265,-33.0843,6485.68,645.495,10039.4,91.4507,403.161,66.4693,1826.91,8567.65,-2395.85,15.1472,-63.6881,-59.9401,2330.17,-9700.32,-2176.39,-156.082,41.9556,-340.554,4406.28,9173.66,-2340.61,-9.57196,-76.2297,-110.422,-8269.98,-3478.53,-2527.13,3.00394,82.7148,-95.8334,6805.84,832.522,1572.51,-58.2792,-50.2093,3.09807
3.698,5305.83,-1930.14,7482.23,-26.2833,-88.1221,-33.124,6504.29,642.415,10094.3,91.5293,403.342,64.5324,1821.92,8553.55,-2372.69,15.2462,-63.6413,-60.5492,2319.64,-9819.66,-2190.5,-156.635,43.1721,-340.969,4369.37,9162.31,-2268.82,-9.80228,-76.3048,-109.576,-8306.72,-3499.79,-2539.31,3.44399,82.8894,-95.2339,6874.23,820.937,1561.47,-58.3755,-49.45,3.08024
3.6985,5286.5,-1936.73,7470.11,-25.9529,-88.0075,-33.1229,6520.49,638.715,10159.5,91.5588,403.373,62.5281,1825.48,8541.05,-2355.21,15.3366,-63.6818,-61.1622,2315.39,-9942.56,-2198.57,-157.198,44.2845,-341.401,4322.79,9139.1,-2212.84,-9.83378,-76.3354,-108.683,-8324.9,-3528.78,-2535.61,3.93043,82.7933,-94.6088,6944.89,811.489,1547.74,-58.4632,-48.7326,3.11815
3.699,5267.17,-1943.31,7457.98,-25.6226,-87.8929,-33.1217,6536.68,635.015,10224.8,91.5884,403.403,60.5238,1829.04,8528.56,-2337.74,15.4269,-63.7223,-61.7752,2311.15,-10065.5,-2206.65,-157.761,45.397,-341.834,4276.21,9115.88,-2156.86,-9.86528,-76.366,-107.79,-8343.07,-3557.77,-2531.9,4.41687,82.6972,-93.9837,7015.54,802.041,1534.02,-58.5509,-48.0152,3.15607
3.6995,5247.84,-1949.9,7445.86,-25.2922,-87.7783,-33.1206,6552.88,631.314,10290.0,91.618,403.433,58.5196,1832.6,8516.06,-2320.27,15.5172,-63.7628,-62.3881,2306.91,-10188.4,-2214.72,-158.324,46.5094,-342.266,4229.63,9092.67,-2100.88,-9.89679,-76.3965,-106.897,-8361.24,-3586.76,-2528.2,4.90332,82.6011,-93.3587,7086.2,792.592,1520.29,-58.6385,-47.2978,3.19398
3.7,5228.52,-1956.48,7433.74,-24.9619,-87.6637,-33.1194,6569.08,627.614,10355.3,91.6475,403.464,56.5153,1836.16,8503.57,-2302.79,15.6076,-63.8033,-63.0011,2302.66,-10311.3,-2222.8,-158.886,47.6218,-342.699,4183.05,9069.46,-2044.9,-9.92829,-76.4271,-106.005,-8379.42,-3615.75,-2524.49,5.38976,82.505,-92.7336,7156.86,783.144,1506.57,-58.7262,-46.5804,3.2319
3.7005,5209.19,-1963.07,7421.62,-24.6315,-87.5491,-33.1183,6585.28,623.914,10420.5,91.6771,403.494,54.511,1839.72,8491.07,-2285.32,15.6979,-63.8438,-63.6141,2298.42,-10434.2,-2230.87,-159.449,48.7342,-343.132,4136.47,9046.24,-1988.92,-9.95979,-76.4577,-105.112,-8397.59,-3644.74,-2520.79,5.8762,82.4089,-92.1085,7227.52,773.696,1492.85,-58.8139,-45.863,3.26981
3.701,5189.86,-1969.65,7409.49,-24.3012,-87.4345,-33.1172,6601.48,620.213,10485.8,91.7066,403.525,52.5067,1843.28,8478.58,-2267.84,15.7882,-63.8842,-64.2271,2294.17,-10557.1,-2238.95,-160.012,49.8467,-343.564,4089.89,9023.03,-1932.94,-9.99129,-76.4882,-104.219,-8415.76,-3673.72,-2517.08,6.36264,82.3128,-91.4833,7298.18,764.248,1479.12,-58.9015,-45.1456,3.30772
3.7015,5170.53,-1976.24,7397.37,-23.9708,-87.3199,-33.116,6617.68,616.513,10551.0,91.7362,403.555,50.5024,1846.84,8466.08,-2250.37,15.8786,-63.9247,-64.84,2289.93,-10680.0,-2247.02,-160.575,50.9591,-343.997,4043.31,8999.82,-1876.96,-10.0228,-76.5188,-103.326,-8433.94,-3702.71,-2513.38,6.84908,82.2167,-90.8582,7368.83,754.8,1465.4,-58.9892,-44.4282,3.34564
3.702,5151.21,-1982.82,7385.25,-23.6405,-87.2053,-33.1149,6633.88,612.813,10616.3,91.7658,403.585,48.4982,1850.4,8453.58,-2232.9,15.9689,-63.9652,-65.453,2285.68,-10802.9,-2255.09,-161.137,52.0715,-344.429,3996.73,8976.6,-1820.98,-10.0543,-76.5494,-102.434,-8452.11,-3731.7,-2509.68,7.33552,82.1205,-90.2331,7439.49,745.352,1451.67,-59.0769,-43.7107,3.38355
3.7025,5134.77,-1989.61,7381.42,-23.2741,-87.1031,-33.0428,6640.2,600.448,10684.1,91.7873,403.439,46.5127,1861.13,8436.83,-2212.29,16.0685,-63.9431,-66.0498,2264.08,-10925.2,-2271.06,-161.639,53.209,-344.861,3955.46,8963.85,-1776.96,-9.91834,-76.414,-101.499,-8453.94,-3764.66,-2500.39,7.83101,81.7097,-89.6906,7511.95,731.41,1436.52,-59.1381,-42.9244,3.35677
3.703,5120.64,-1996.57,7384.22,-22.8788,-87.0107,-32.9139,6638.62,581.152,10753.9,91.8023,403.151,44.5423,1877.58,8416.66,-2189.18,16.1755,-63.871,-66.6335,2228.58,-11047.1,-2293.34,-162.092,54.3664,-345.293,3918.46,8959.45,-1742.5,-9.6484,-76.146,-100.53,-8442.71,-3800.8,-2486.63,8.33374,81.0471,-89.2142,7585.85,713.873,1420.22,-59.178,-42.083,3.27824
3.7035,5106.52,-2003.52,7387.02,-22.4835,-86.9183,-32.7851,6637.04,561.857,10823.8,91.8173,402.863,42.5719,1894.04,8396.49,-2166.06,16.2825,-63.7989,-67.2172,2193.09,-11168.9,-2315.61,-162.545,55.5239,-345.725,3881.45,8955.06,-1708.05,-9.37846,-75.878,-99.5611,-8431.47,-3836.95,-2472.88,8.83646,80.3845,-88.7377,7659.76,696.336,1403.92,-59.218,-41.2415,3.1997
3.704,5092.39,-2010.47,7389.82,-22.0882,-86.8259,-32.6562,6635.47,542.561,10893.6,91.8323,402.575,40.6016,1910.5,8376.32,-2142.95,16.3895,-63.7268,-67.801,2157.59,-11290.8,-2337.89,-162.998,56.6814,-346.157,3844.44,8950.66,-1673.59,-9.10853,-75.61,-98.5923,-8420.24,-3873.09,-2459.12,9.33919,79.7219,-88.2613,7733.66,678.798,1387.61,-59.258,-40.4001,3.12116
3.7045,5078.26,-2017.42,7392.62,-21.6929,-86.7335,-32.5273,6633.89,523.265,10963.4,91.8474,402.287,38.6312,1926.96,8356.16,-2119.84,16.4965,-63.6547,-68.3847,2122.1,-11412.7,-2360.17,-163.45,57.8389,-346.589,3807.43,8946.27,-1639.14,-8.83859,-75.342,-97.6235,-8409.0,-3909.23,-2445.36,9.84191,79.0594,-87.7848,7807.56,661.261,1371.31,-59.298,-39.5587,3.04263
3.705,5064.14,-2024.38,7395.42,-21.2976,-86.6411,-32.3985,6632.31,503.969,11033.3,91.8624,401.999,36.6608,1943.41,8335.99,-2096.72,16.6035,-63.5826,-68.9684,2086.6,-11534.6,-2382.44,-163.903,58.9963,-347.021,3770.42,8941.87,-1604.68,-8.56865,-75.074,-96.6547,-8397.76,-3945.37,-2431.61,10.3446,78.3968,-87.3084,7881.46,643.724,1355.01,-59.338,-38.7172,2.96409
3.7055,5050.01,-2031.33,7398.22,-20.9023,-86.5487,-32.2696,6630.73,484.673,11103.1,91.8774,401.711,34.6904,1959.87,8315.82,-2073.61,16.7105,-63.5104,-69.5522,2051.11,-11656.4,-2404.72,-164.356,60.1538,-347.453,3733.42,8937.48,-1570.22,-8.29872,-74.806,-95.6859,-8386.53,-3981.51,-2417.85,10.8474,77.7342,-86.8319,7955.37,626.187,1338.71,-59.378,-37.8758,2.88555
3.706,5035.88,-2038.28,7401.02,-20.507,-86.4563,-32.1408,6629.15,465.377,11172.9,91.8924,401.423,32.72,1976.33,8295.65,-2050.5,16.8175,-63.4383,-70.1359,2015.61,-11778.3,-2427.0,-164.809,61.3113,-347.885,3696.41,8933.08,-1535.77,-8.02878,-74.538,-94.717,-8375.29,-4017.65,-2404.1,11.3501,77.0716,-86.3554,8029.27,608.649,1322.41,-59.4179,-37.0343,2.80702
3.7065,5021.76,-2045.23,7403.82,-20.1117,-86.3639,-32.0119,6627.57,446.081,11242.8,91.9074,401.135,30.7496,1992.79,8275.49,-2027.39,16.9245,-63.3662,-70.7196,1980.12,-11900.2,-2449.28,-165.262,62.4688,-348.317,3659.4,8928.69,-1501.31,-7.75884,-74.27,-93.7482,-8364.05,-4053.79,-2390.34,11.8528,76.409,-85.879,8103.17,591.112,1306.11,-59.4579,-36.1929,2.72848
3.707,5014.41,-2034.61,7409.72,-19.7158,-86.2747,-31.8514,6637.98,429.776,11350.0,92.0914,400.538,28.8297,1992.12,8263.59,-2010.63,17.0606,-63.2305,-71.3476,1951.81,-12040.1,-2441.47,-165.745,63.6626,-348.755,3610.91,8909.21,-1490.96,-7.35222,-73.7162,-92.7451,-8362.09,-4098.75,-2369.38,12.4234,75.4825,-85.5088,8187.58,561.509,1282.04,-59.5507,-35.3064,2.61869
3.7075,5010.45,-2015.2,7417.15,-19.3198,-86.1869,-31.6752,6654.37,414.966,11475.9,92.3597,399.787,26.9351,1982.89,8255.83,-1997.05,17.2112,-63.0629,-71.9976,1927.11,-12189.0,-2418.63,-166.243,64.8747,-349.196,3556.67,8882.18,-1492.67,-6.87726,-73.0196,-91.7249,-8364.77,-4148.11,-2344.82,13.028,74.424,-85.1916,8277.24,525.872,1254.08,-59.6699,-34.3975,2.49326
3.708,5006.5,-1995.79,7424.59,-18.9237,-86.0992,-31.4989,6670.76,400.155,11601.8,92.6281,399.036,25.0404,1973.66,8248.08,-1983.47,17.3619,-62.8954,-72.6477,1902.4,-12337.9,-2395.79,-166.742,66.0867,-349.637,3502.43,8855.16,-1494.38,-6.40229,-72.3229,-90.7047,-8367.44,-4197.48,-2320.26,13.6325,73.3655,-84.8745,8366.89,490.236,1226.12,-59.789,-33.4885,2.36783
3.7085,5002.54,-1976.38,7432.03,-18.5276,-86.0115,-31.3226,6687.16,385.345,11727.7,92.8965,398.284,23.1457,1964.43,8240.32,-1969.88,17.5125,-62.7278,-73.2977,1877.69,-12486.8,-2372.94,-167.24,67.2987,-350.078,3448.19,8828.13,-1496.09,-5.92733,-71.6263,-89.6844,-8370.12,-4246.84,-2295.7,14.2371,72.307,-84.5573,8456.55,454.599,1198.16,-59.9082,-32.5796,2.24241
3.709,4998.58,-1956.97,7439.47,-18.1316,-85.9238,-31.1464,6703.55,370.535,11853.6,93.1648,397.533,21.251,1955.21,8232.56,-1956.3,17.6632,-62.5602,-73.9477,1852.99,-12635.7,-2350.1,-167.739,68.5108,-350.52,3393.96,8801.11,-1497.8,-5.45236,-70.9296,-88.6642,-8372.79,-4296.21,-2271.14,14.8416,71.2485,-84.2402,8546.2,418.962,1170.2,-60.0273,-31.6706,2.11698
3.7095,4994.62,-1937.55,7446.91,-17.7355,-85.836,-30.9701,6719.94,355.724,11979.4,93.4332,396.782,19.3563,1945.98,8224.8,-1942.72,17.8138,-62.3927,-74.5978,1828.28,-12784.6,-2327.26,-168.237,69.7228,-350.961,3339.72,8774.08,-1499.51,-4.9774,-70.2329,-87.644,-8375.47,-4345.57,-2246.58,15.4461,70.19,-83.923,8635.86,383.326,1142.24,-60.1465,-30.7617,1.99155
3.71,4990.67,-1918.14,7454.35,-17.3394,-85.7483,-30.7938,6736.34,340.914,12105.3,93.7016,396.031,17.4617,1936.75,8217.04,-1929.14,17.9644,-62.2251,-75.2478,1803.57,-12933.5,-2304.42,-168.736,70.9348,-351.402,3285.48,8747.06,-1501.22,-4.50243,-69.5363,-86.6238,-8378.15,-4394.94,-2222.02,16.0507,69.1315,-83.6059,8725.52,347.689,1114.28,-60.2656,-29.8528,1.86613
3.7105,4986.71,-1898.73,7461.78,-16.9433,-85.6606,-30.6176,6752.73,326.103,12231.2,93.97,395.279,15.567,1927.52,8209.29,-1915.56,18.1151,-62.0576,-75.8979,1778.86,-13082.4,-2281.57,-169.234,72.1469,-351.843,3231.25,8720.03,-1502.93,-4.02747,-68.8396,-85.6035,-8380.82,-4444.3,-2197.46,16.6552,68.073,-83.2887,8815.17,312.053,1086.32,-60.3848,-28.9438,1.7407
3.711,4982.75,-1879.32,7469.22,-16.5473,-85.5729,-30.4413,6769.12,311.293,12357.1,94.2383,394.528,13.6723,1918.29,8201.53,-1901.98,18.2657,-61.89,-76.5479,1754.16,-13231.3,-2258.73,-169.733,73.3589,-352.284,3177.01,8693.01,-1504.64,-3.5525,-68.143,-84.5833,-8383.5,-4493.66,-2172.9,17.2598,67.0145,-82.9716,8904.83,276.416,1058.37,-60.5039,-28.0349,1.61527
3.7115,4995.04,-1837.88,7480.6,-16.1552,-85.5658,-30.2512,6818.94,339.29,12498.5,94.1851,393.299,11.7144,1893.81,8200.6,-1892.92,18.4725,-61.6321,-77.1667,1723.46,-13386.3,-2244.47,-170.127,74.5068,-352.818,3115.99,8686.42,-1497.12,-3.23374,-67.1889,-83.5002,-8379.98,-4540.49,-2128.22,17.8849,65.7152,-82.7621,8988.52,251.471,1030.01,-60.7033,-26.9831,1.4956
3.712,5011.97,-1790.15,7493.1,-15.7642,-85.5818,-30.0573,6878.31,379.518,12644.3,94.04,391.933,9.73844,1864.98,8201.63,-1885.16,18.6952,-61.3485,-77.7766,1691.04,-13543.0,-2232.66,-170.492,75.6363,-353.378,3053.02,8685.68,-1486.96,-2.95961,-66.1613,-82.3992,-8374.71,-4586.59,-2077.78,18.516,64.3471,-82.5834,9070.51,229.581,1001.53,-60.9256,-25.8906,1.37757
3.7125,5028.9,-1742.41,7505.6,-15.3733,-85.5978,-29.8633,6937.67,419.746,12790.0,93.8949,390.567,7.76246,1836.14,8202.65,-1877.4,18.918,-61.0648,-78.3865,1658.63,-13699.7,-2220.85,-170.858,76.7658,-353.938,2990.06,8684.93,-1476.8,-2.68549,-65.1337,-81.2982,-8369.43,-4632.7,-2027.35,19.1471,62.979,-82.4047,9152.5,207.692,973.062,-61.1479,-24.798,1.25954
3.713,5045.83,-1694.68,7518.11,-14.9823,-85.6138,-29.6693,6997.04,459.973,12935.8,93.7498,389.201,5.78649,1807.31,8203.68,-1869.63,19.1408,-60.7812,-78.9963,1626.22,-13856.4,-2209.04,-171.223,77.8954,-354.498,2927.1,8684.19,-1466.65,-2.41136,-64.1061,-80.1972,-8364.15,-4678.8,-1976.91,19.7781,61.6109,-82.2261,9234.48,185.802,944.59,-61.3702,-23.7054,1.1415
3.7135,5062.75,-1646.95,7530.61,-14.5914,-85.6298,-29.4753,7056.41,500.201,13081.6,93.6047,387.835,3.81052,1778.48,8204.71,-1861.87,19.3635,-60.4975,-79.6062,1593.8,-14013.1,-2197.23,-171.588,79.0249,-355.059,2864.14,8683.44,-1456.49,-2.13723,-63.0785,-79.0961,-8358.87,-4724.9,-1926.47,20.4092,60.2428,-82.0474,9316.47,163.912,916.117,-61.5925,-22.6129,1.02347
3.714,5079.68,-1599.21,7543.11,-14.2004,-85.6458,-29.2813,7115.77,540.429,13227.4,93.4596,386.469,1.83454,1749.64,8205.73,-1854.11,19.5863,-60.2138,-80.2161,1561.39,-14169.8,-2185.42,-171.953,80.1544,-355.619,2801.17,8682.7,-1446.33,-1.8631,-62.0509,-77.9951,-8353.59,-4771.0,-1876.04,21.0403,58.8748,-81.8687,9398.46,142.022,887.645,-61.8148,-21.5203,0.905441
3.7145,5096.61,-1551.48,7555.62,-13.8095,-85.6618,-29.0874,7175.14,580.656,13373.1,93.3145,385.103,-0.141431,1720.81,8206.76,-1846.35,19.8091,-59.9302,-80.826,1528.98,-14326.5,-2173.61,-172.318,81.284,-356.179,2738.21,8681.95,-1436.18,-1.58897,-61.0232,-76.8941,-8348.31,-4817.11,-1825.6,21.6714,57.5067,-81.69,9480.44,120.132,859.172,-62.0371,-20.4277,0.787409
3.715,5113.54,-1503.74,7568.12,-13.4185,-85.6778,-28.8934,7234.51,620.884,13518.9,93.1694,383.737,-2.11741,1691.97,8207.78,-1838.58,20.0318,-59.6465,-81.4358,1496.56,-14483.2,-2161.8,-172.683,82.4135,-356.739,2675.25,8681.21,-1426.02,-1.31484,-59.9956,-75.7931,-8343.03,-4863.21,-1775.17,22.3024,56.1386,-81.5113,9562.43,98.2425,830.7,-62.2594,-19.3352,0.669377
3.7155,5130.47,-1456.01,7580.62,-13.0276,-85.6938,-28.6994,7293.88,661.112,13664.7,93.0242,382.371,-4.09338,1663.14,8208.81,-1830.82,20.2546,-59.3629,-82.0457,1464.15,-14639.9,-2149.99,-173.048,83.543,-357.299,2612.28,8680.47,-1415.87,-1.04071,-58.968,-74.692,-8337.75,-4909.31,-1724.73,22.9335,54.7705,-81.3326,9644.42,76.3526,802.227,-62.4817,-18.2426,0.551345
3.716,5154.09,-1407.54,7598.96,-12.7424,-85.7418,-28.5261,7405.24,771.547,13750.3,92.0936,380.711,-6.09557,1639.51,8242.86,-1809.08,20.3706,-59.1421,-82.6447,1441.2,-14760.8,-2176.18,-173.516,84.6794,-357.768,2552.4,8647.65,-1384.36,-0.599245,-58.0333,-73.8662,-8323.34,-4954.33,-1644.31,23.2548,52.7953,-81.2117,9712.78,32.497,772.516,-62.8082,-16.9593,0.360065
3.7165,5178.54,-1358.98,7618.03,-12.4704,-85.7938,-28.3554,7523.11,890.758,13828.5,91.0649,379.014,-8.10105,1616.54,8281.03,-1785.59,20.4734,-58.9293,-83.2423,1419.43,-14877.1,-2207.13,-173.996,85.8167,-358.227,2492.9,8610.83,-1350.19,-0.136858,-57.1102,-73.0747,-8307.79,-4999.22,-1560.15,23.5373,50.7442,-81.0979,9779.43,-14.1043,742.65,-63.1477,-15.6521,0.159629
3.717,5203.0,-1310.42,7637.1,-12.1985,-85.8457,-28.1848,7640.98,1009.97,13906.6,90.0361,377.317,-10.1065,1593.57,8319.2,-1762.1,20.5761,-58.7164,-83.8399,1397.67,-14993.4,-2238.08,-174.476,86.9539,-358.684,2433.4,8574.01,-1316.02,0.325529,-56.1872,-72.2832,-8292.24,-5044.1,-1475.99,23.8199,48.6931,-80.9842,9846.09,-60.7056,712.784,-63.4872,-14.3449,-0.0408071
3.7175,5227.45,-1261.86,7656.17,-11.9265,-85.8977,-28.0141,7758.84,1129.18,13984.7,89.0073,375.619,-12.112,1570.6,8357.38,-1738.61,20.6788,-58.5036,-84.4375,1375.9,-15109.7,-2269.03,-174.957,88.0912,-359.142,2373.91,8537.2,-1281.85,0.787916,-55.2641,-71.4917,-8276.69,-5088.99,-1391.82,24.1024,46.642,-80.8705,9912.75,-107.307,682.918,-63.8267,-13.0377,-0.241243
3.718,5251.91,-1213.3,7675.24,-11.6545,-85.9497,-27.8434,7876.71,1248.39,14062.9,87.9785,373.922,-14.1175,1547.63,8395.55,-1715.11,20.7815,-58.2907,-85.0351,1354.13,-15226.0,-2299.98,-175.437,89.2284,-359.6,2314.41,8500.38,-1247.68,1.2503,-54.341,-70.7002,-8261.14,-5133.87,-1307.66,24.385,44.5909,-80.7568,9979.4,-153.908,653.052,-64.1662,-11.7304,-0.441679
3.7185,5276.36,-1164.74,7694.31,-11.3826,-86.0016,-27.6727,7994.58,1367.6,14141.0,86.9497,372.225,-16.1229,1524.66,8433.72,-1691.62,20.8843,-58.0779,-85.6327,1332.37,-15342.4,-2330.93,-175.918,90.3657,-360.058,2254.91,8463.56,-1213.5,1.71269,-53.4179,-69.9087,-8245.6,-5178.76,-1223.49,24.6675,42.5398,-80.643,10046.1,-200.51,623.186,-64.5057,-10.4232,-0.642116
3.719,5300.82,-1116.18,7713.38,-11.1106,-86.0536,-27.5021,8112.44,1486.81,14219.1,85.9209,370.528,-18.1284,1501.69,8471.9,-1668.13,20.987,-57.865,-86.2303,1310.6,-15458.7,-2361.87,-176.398,91.5029,-360.516,2195.41,8426.74,-1179.33,2.17508,-52.4948,-69.1172,-8230.05,-5223.64,-1139.33,24.9501,40.4888,-80.5293,10112.7,-247.111,593.32,-64.8453,-9.11604,-0.842552
3.7195,5325.27,-1067.62,7732.45,-10.8387,-86.1056,-27.3314,8230.31,1606.03,14297.3,84.8921,368.831,-20.1339,1478.72,8510.07,-1644.64,21.0897,-57.6521,-86.8279,1288.83,-15575.0,-2392.82,-176.879,92.6401,-360.974,2135.91,8389.92,-1145.16,2.63746,-51.5717,-68.3257,-8214.5,-5268.52,-1055.17,25.2326,38.4377,-80.4156,10179.4,-293.712,563.454,-65.1848,-7.80883,-1.04299
3.72,5349.73,-1019.06,7751.52,-10.5667,-86.1575,-27.1607,8348.18,1725.24,14375.4,83.8633,367.134,-22.1394,1455.75,8548.25,-1621.15,21.1924,-57.4393,-87.4255,1267.07,-15691.3,-2423.77,-177.359,93.7774,-361.432,2076.41,8353.1,-1110.99,3.09985,-50.6487,-67.5342,-8198.95,-5313.41,-971.003,25.5152,36.3866,-80.3019,10246.0,-340.313,533.588,-65.5243,-6.50162,-1.24342
3.7205,5377.23,-991.019,7770.57,-10.4071,-86.2512,-26.9873,8507.84,1820.23,14397.8,82.0153,365.84,-24.2481,1422.93,8617.08,-1609.69,21.3101,-57.2447,-87.8935,1218.46,-15824.3,-2488.87,-177.779,95.3711,-361.759,2030.99,8341.52,-1062.39,3.5579,-50.0537,-66.7855,-8173.62,-5351.56,-896.134,25.4939,33.2946,-80.2438,10301.7,-384.879,518.391,-65.8724,-5.17284,-1.58966
3.721,5404.72,-962.976,7789.63,-10.2475,-86.3448,-26.8138,8667.5,1915.21,14420.2,80.1673,364.546,-26.3568,1390.11,8685.91,-1598.22,21.4278,-57.0501,-88.3615,1169.86,-15957.2,-2553.97,-178.198,96.9648,-362.086,1985.57,8329.94,-1013.78,4.01596,-49.4588,-66.0368,-8148.29,-5389.71,-821.265,25.4727,30.2027,-80.1856,10357.3,-429.445,503.193,-66.2205,-3.84406,-1.9359
3.7215,5432.22,-934.934,7808.69,-10.0879,-86.4385,-26.6404,8827.16,2010.2,14442.6,78.3192,363.252,-28.4655,1357.28,8754.74,-1586.75,21.5455,-56.8556,-88.8296,1121.26,-16090.1,-2619.07,-178.617,98.5585,-362.413,1940.15,8318.36,-965.176,4.47401,-48.8639,-65.288,-8122.96,-5427.87,-746.396,25.4515,27.1107,-80.1275,10413.0,-474.011,487.995,-66.5686,-2.51528,-2.28214
3.722,5459.72,-906.891,7827.74,-9.92826,-86.5321,-26.4669,8986.82,2105.19,14465.0,76.4712,361.958,-30.5742,1324.46,8823.57,-1575.29,21.6631,-56.661,-89.2976,1072.66,-16223.1,-2684.17,-179.037,100.152,-362.739,1894.73,8306.78,-916.571,4.93206,-48.2689,-64.5393,-8097.63,-5466.02,-671.528,25.4303,24.0187,-80.0694,10468.6,-518.577,472.797,-66.9168,-1.1865,-2.62838
3.7225,5487.21,-878.848,7846.8,-9.76865,-86.6258,-26.2935,9146.48,2200.18,14487.4,74.6232,360.664,-32.6829,1291.64,8892.41,-1563.82,21.7808,-56.4664,-89.7656,1024.06,-16356.0,-2749.27,-179.456,101.746,-363.066,1849.31,8295.2,-867.966,5.39012,-47.674,-63.7905,-8072.3,-5504.17,-596.659,25.4091,20.9268,-80.0113,10524.3,-563.143,457.599,-67.2649,0.142278,-2.97462
3.723,5514.71,-850.806,7865.86,-9.60904,-86.7195,-26.12,9306.14,2295.17,14509.8,72.7751,359.37,-34.7916,1258.82,8961.24,-1552.35,21.8985,-56.2719,-90.2336,975.454,-16488.9,-2814.38,-179.876,103.34,-363.393,1803.88,8283.62,-819.362,5.84817,-47.0791,-63.0418,-8046.97,-5542.32,-521.79,25.3878,17.8348,-79.9532,10579.9,-607.709,442.401,-67.613,1.47106,-3.32086
3.7235,5542.21,-822.763,7884.91,-9.44943,-86.8131,-25.9466,9465.8,2390.16,14532.2,70.9271,358.076,-36.9003,1226.0,9030.07,-1540.89,22.0161,-56.0773,-90.7016,926.852,-16621.9,-2879.48,-180.295,104.933,-363.719,1758.46,8272.04,-770.757,6.30622,-46.4841,-62.293,-8021.64,-5580.47,-446.921,25.3666,14.7428,-79.8951,10635.5,-652.274,427.203,-67.9611,2.79984,-3.6671
3.724,5569.7,-794.72,7903.97,-9.28982,-86.9068,-25.7731,9625.46,2485.15,14554.6,69.079,356.782,-39.009,1193.18,9098.9,-1529.42,22.1338,-55.8827,-91.1697,878.249,-16754.8,-2944.58,-180.714,106.527,-364.046,1713.04,8260.46,-722.152,6.76427,-45.8892,-61.5443,-7996.3,-5618.62,-372.052,25.3454,11.6509,-79.8369,10691.2,-696.84,412.005,-68.3093,4.12862,-4.01334
3.7245,5596.64,-767.072,7921.88,-9.12774,-87.0114,-25.5982,9787.78,2568.05,14580.3,67.2359,355.548,-41.119,1158.98,9166.75,-1516.43,22.2503,-55.6782,-91.6377,827.438,-16890.7,-3007.89,-181.093,108.162,-364.349,1670.01,8249.14,-674.143,7.24333,-45.3512,-60.8139,-7969.23,-5654.71,-303.326,25.2872,8.47233,-79.7685,10743.7,-741.443,396.799,-68.6617,5.449,-4.35748
3.725,5619.12,-742.582,7930.65,-8.94589,-87.2034,-25.4113,9971.45,2554.31,14632.9,65.4322,354.793,-43.2399,1113.77,9226.69,-1491.3,22.3574,-55.394,-92.1064,758.958,-17050.3,-3056.92,-181.141,110.131,-364.462,1646.06,8239.88,-630.895,7.89036,-45.2687,-60.2304,-7928.24,-5674.22,-283.748,24.9335,4.60112,-79.6177,10771.6,-786.338,381.532,-69.0483,6.70218,-4.68487
3.7255,5641.59,-718.091,7939.41,-8.76404,-87.3954,-25.2243,10155.1,2540.57,14685.5,63.6285,354.038,-45.3608,1068.55,9286.63,-1466.17,22.4646,-55.1098,-92.575,690.478,-17209.9,-3105.94,-181.189,112.1,-364.574,1622.12,8230.61,-587.648,8.5374,-45.1863,-59.6469,-7887.25,-5693.74,-264.169,24.5798,0.729908,-79.4668,10799.4,-831.232,366.264,-69.435,7.95536,-5.01226
3.726,5664.07,-693.6,7948.17,-8.58218,-87.5875,-25.0374,10338.8,2526.83,14738.1,61.8248,353.282,-47.4817,1023.34,9346.58,-1441.03,22.5718,-54.8257,-93.0436,621.998,-17369.5,-3154.96,-181.238,114.069,-364.687,1598.17,8221.35,-544.401,9.18443,-45.1038,-59.0634,-7846.26,-5713.25,-244.59,24.2261,-3.1413,-79.3159,10827.2,-876.127,350.997,-69.8217,9.20854,-5.33964
3.7265,5686.55,-669.109,7956.93,-8.40033,-87.7795,-24.8505,10522.4,2513.09,14790.7,60.0211,352.527,-49.6026,978.127,9406.52,-1415.9,22.6789,-54.5415,-93.5122,553.517,-17529.1,-3203.99,-181.286,116.038,-364.8,1574.22,8212.09,-501.154,9.83147,-45.0213,-58.4799,-7805.27,-5732.77,-225.012,23.8724,-7.01252,-79.1651,10855.0,-921.022,335.729,-70.2084,10.4617,-5.66703
3.727,5709.03,-644.618,7965.7,-8.21848,-87.9716,-24.6636,10706.1,2499.35,14843.2,58.2173,351.772,-51.7234,932.914,9466.46,-1390.77,22.7861,-54.2573,-93.9809,485.037,-17688.7,-3253.01,-181.334,118.007,-364.912,1550.28,8202.83,-457.907,10.4785,-44.9389,-57.8964,-7764.29,-5752.28,-205.433,23.5187,-10.8837,-79.0142,10882.9,-965.917,320.461,-70.5951,11.7149,-5.99442
3.7275,5731.5,-620.127,7974.46,-8.03662,-88.1636,-24.4767,10889.8,2485.61,14895.8,56.4136,351.016,-53.8443,887.702,9526.41,-1365.64,22.8932,-53.9731,-94.4495,416.557,-17848.3,-3302.04,-181.383,119.976,-365.025,1526.33,8193.57,-414.659,11.1255,-44.8564,-57.3129,-7723.3,-5771.8,-185.855,23.165,-14.7549,-78.8634,10910.7,-1010.81,305.194,-70.9818,12.9681,-6.32181
3.728,5753.98,-595.637,7983.22,-7.85477,-88.3557,-24.2898,11073.4,2471.87,14948.4,54.6099,350.261,-55.9652,842.489,9586.35,-1340.5,23.0004,-53.689,-94.9181,348.076,-18007.9,-3351.06,-181.431,121.945,-365.138,1502.39,8184.31,-371.412,11.7726,-44.7739,-56.7294,-7682.31,-5791.32,-166.276,22.8113,-18.6262,-78.7125,10938.5,-1055.71,289.926,-71.3684,14.2213,-6.64919
3.7285,5776.46,-571.146,7991.98,-7.67291,-88.5477,-24.1029,11257.1,2458.13,15001.0,52.8062,349.506,-58.0861,797.276,9646.29,-1315.37,23.1075,-53.4048,-95.3867,279.596,-18167.5,-3400.08,-181.48,123.914,-365.25,1478.44,8175.05,-328.165,12.4196,-44.6914,-56.146,-7641.32,-5810.83,-146.697,22.4576,-22.4974,-78.5617,10966.3,-1100.6,274.659,-71.7551,15.4744,-6.97658
3.729,5796.49,-546.584,8000.83,-7.48641,-88.7558,-23.9004,11467.1,2418.08,15042.7,51.1388,348.879,-60.1746,757.183,9702.8,-1287.95,23.2019,-53.1416,-95.832,189.102,-18326.1,-3438.86,-181.434,125.865,-365.289,1448.98,8167.98,-277.148,13.0499,-44.74,-55.6262,-7601.87,-5823.45,-149.25,22.0157,-26.4215,-78.3956,10993.6,-1144.05,262.636,-72.1194,16.7089,-7.29643
3.7295,5807.98,-521.775,8009.98,-7.28362,-89.0201,-23.6435,11769.4,2285.94,15046.2,49.9488,348.701,-62.1498,735.009,9747.29,-1252.54,23.2516,-52.9518,-96.1955,21.5603,-18481.0,-3441.75,-181.057,127.752,-365.066,1400.21,8168.62,-198.935,13.6214,-45.247,-55.3296,-7567.82,-5811.93,-229.26,21.2649,-30.5308,-78.1764,11018.7,-1182.43,261.971,-72.4052,17.8779,-7.5899
3.73,5819.47,-496.966,8019.13,-7.08083,-89.2843,-23.3866,12071.7,2153.8,15049.8,48.7588,348.524,-64.125,712.835,9791.78,-1217.12,23.3014,-52.7621,-96.5589,-145.982,-18635.9,-3444.65,-180.681,129.638,-364.844,1351.44,8169.25,-120.723,14.1929,-45.754,-55.0331,-7533.77,-5800.42,-309.271,20.5142,-34.6401,-77.9572,11043.9,-1220.81,261.306,-72.691,19.0469,-7.88336
3.7305,5830.96,-472.157,8028.28,-6.87805,-89.5486,-23.1297,12373.9,2021.66,15053.3,47.5689,348.346,-66.1003,690.66,9836.27,-1181.7,23.3511,-52.5723,-96.9224,-313.523,-18790.9,-3447.54,-180.304,131.525,-364.621,1302.67,8169.88,-42.5103,14.7644,-46.261,-54.7365,-7499.71,-5788.9,-389.282,19.7634,-38.7494,-77.738,11069.1,-1259.18,260.641,-72.9769,20.2159,-8.17683
3.731,5842.45,-447.349,8037.42,-6.67526,-89.8128,-22.8728,12676.2,1889.53,15056.9,46.3789,348.169,-68.0755,668.486,9880.76,-1146.29,23.4008,-52.3826,-97.2859,-481.065,-18945.8,-3450.44,-179.928,133.411,-364.398,1253.9,8170.51,35.7022,15.3359,-46.768,-54.4399,-7465.66,-5777.38,-469.293,19.0126,-42.8587,-77.5188,11094.3,-1297.56,259.975,-73.2627,21.3849,-8.47029
3.7315,5853.93,-422.54,8046.57,-6.47247,-90.0771,-22.6158,12978.5,1757.39,15060.4,45.1889,347.991,-70.0507,646.312,9925.25,-1110.87,23.4505,-52.1928,-97.6494,-648.607,-19100.7,-3453.33,-179.552,135.298,-364.176,1205.12,8171.14,113.915,15.9074,-47.2751,-54.1433,-7431.61,-5765.86,-549.304,18.2619,-46.968,-77.2996,11119.5,-1335.94,259.31,-73.5485,22.5539,-8.76376
3.732,5865.42,-397.731,8055.72,-6.26969,-90.3413,-22.3589,13280.8,1625.25,15064.0,43.9989,347.814,-72.0259,624.137,9969.74,-1075.45,23.5002,-52.0031,-98.0128,-816.149,-19255.7,-3456.23,-179.175,137.185,-363.953,1156.35,8171.77,192.127,16.4789,-47.7821,-53.8468,-7397.56,-5754.34,-629.314,17.5111,-51.0772,-77.0804,11144.7,-1374.32,258.645,-73.8343,23.7229,-9.05723
3.7325,5876.91,-372.922,8064.87,-6.0669,-90.6056,-22.102,13583.1,1493.11,15067.5,42.8089,347.636,-74.0011,601.963,10014.2,-1040.04,23.5499,-51.8133,-98.3763,-983.691,-19410.6,-3459.13,-178.799,139.071,-363.731,1107.58,8172.41,270.34,17.0504,-48.2891,-53.5502,-7363.51,-5742.83,-709.325,16.7604,-55.1865,-76.8611,11169.9,-1412.7,257.98,-74.1201,24.8919,-9.35069
3.733,5888.4,-348.113,8074.02,-5.86411,-90.8698,-21.8451,13885.4,1360.97,15071.1,41.6189,347.458,-75.9763,579.789,10058.7,-1004.62,23.5996,-51.6236,-98.7398,-1151.23,-19565.5,-3462.02,-178.422,140.958,-363.508,1058.81,8173.04,348.552,17.6219,-48.7961,-53.2536,-7329.46,-5731.31,-789.336,16.0096,-59.2958,-76.6419,11195.1,-1451.08,257.315,-74.4059,26.061,-9.64416
3.7335,5900.55,-319.762,8082.9,-5.68187,-91.1471,-21.558,14221.3,1176.52,15020.8,40.7923,347.413,-77.9577,557.38,10102.1,-971.722,23.6466,-51.431,-99.0856,-1344.73,-19710.0,-3441.7,-177.91,142.513,-363.171,1011.73,8183.77,414.74,18.1053,-49.4942,-52.9925,-7307.8,-5710.22,-871.934,15.2428,-63.1752,-76.4319,11217.7,-1481.8,263.12,-74.6383,27.145,-9.95871
3.734,5914.04,-284.327,8091.24,-5.54073,-91.4505,-21.2106,14624.7,887.464,14863.0,40.6924,347.633,-79.9515,534.501,10143.2,-943.863,23.6883,-51.2327,-99.3962,-1590.15,-19833.4,-3374.95,-177.125,143.406,-362.606,968.051,8214.7,456.878,18.4126,-50.5743,-52.8021,-7310.94,-5669.98,-959.707,14.4436,-66.5949,-76.2402,11235.4,-1497.2,281.868,-74.7638,28.0591,-10.3154
3.7345,5927.52,-248.892,8099.59,-5.39959,-91.7539,-20.8633,15028.1,598.404,14705.1,40.5926,347.853,-81.9454,511.623,10184.3,-916.005,23.73,-51.0344,-99.7068,-1835.56,-19956.8,-3308.19,-176.34,144.299,-362.04,924.367,8245.63,499.016,18.7199,-51.6544,-52.6118,-7314.07,-5629.75,-1047.48,13.6445,-70.0145,-76.0486,11253.1,-1512.59,300.615,-74.8893,28.9733,-10.6722
3.735,5941.0,-213.457,8107.93,-5.25845,-92.0572,-20.5159,15431.5,309.344,14547.3,40.4928,348.072,-83.9392,488.745,10225.3,-888.146,23.7717,-50.8361,-100.017,-2080.97,-20080.3,-3241.44,-175.555,145.192,-361.474,880.683,8276.57,541.154,19.0272,-52.7345,-52.4214,-7317.2,-5589.52,-1135.25,12.8454,-73.4341,-75.8569,11270.8,-1527.99,319.362,-75.0149,29.8874,-11.0289
3.7355,5954.48,-178.021,8116.28,-5.11731,-92.3606,-20.1685,15834.9,20.2839,14389.4,40.393,348.292,-85.933,465.867,10266.4,-860.287,23.8134,-50.6378,-100.328,-2326.39,-20203.7,-3174.69,-174.771,146.085,-360.909,836.999,8307.5,583.292,19.3345,-53.8146,-52.2311,-7320.33,-5549.28,-1223.02,12.0463,-76.8537,-75.6652,11288.5,-1543.39,338.11,-75.1404,30.8016,-11.3857
3.736,5967.97,-142.586,8124.62,-4.97617,-92.664,-19.8211,16238.3,-268.776,14231.5,40.2932,348.511,-87.9268,442.989,10307.5,-832.428,23.8551,-50.4395,-100.639,-2571.8,-20327.2,-3107.93,-173.986,146.978,-360.343,793.315,8338.44,625.43,19.6418,-54.8947,-52.0407,-7323.46,-5509.05,-1310.8,11.2472,-80.2734,-75.4735,11306.2,-1558.79,356.857,-75.2659,31.7157,-11.7424
3.7365,5981.45,-107.151,8132.97,-4.83503,-92.9674,-19.4738,16641.6,-557.836,14073.7,40.1933,348.731,-89.9206,420.111,10348.6,-804.57,23.8968,-50.2412,-100.949,-2817.22,-20450.6,-3041.18,-173.201,147.871,-359.777,749.631,8369.37,667.568,19.9491,-55.9748,-51.8503,-7326.59,-5468.81,-1398.57,10.4481,-83.693,-75.2818,11323.8,-1574.19,375.604,-75.3914,32.6298,-12.0991
3.737,5994.93,-71.7159,8141.31,-4.69389,-93.2707,-19.1264,17045.0,-846.896,13915.8,40.0935,348.951,-91.9145,397.233,10389.7,-776.711,23.9385,-50.0429,-101.26,-3062.63,-20574.0,-2974.43,-172.416,148.764,-359.212,705.947,8400.3,709.706,20.2564,-57.0549,-51.66,-7329.73,-5428.58,-1486.34,9.64897,-87.1126,-75.0901,11341.5,-1589.59,394.352,-75.5169,33.544,-12.4559
3.7375,6008.41,-36.2807,8149.66,-4.55274,-93.5741,-18.779,17448.4,-1135.96,13758.0,39.9937,349.17,-93.9083,374.355,10430.8,-748.852,23.9802,-49.8446,-101.57,-3308.05,-20697.5,-2907.67,-171.631,149.657,-358.646,662.263,8431.23,751.845,20.5637,-58.135,-51.4697,-7332.86,-5388.34,-1574.11,8.84986,-90.5323,-74.8985,11359.2,-1604.99,413.099,-75.6424,34.4581,-12.8126
3.738,6017.4,-4.0806,8153.55,-4.44057,-93.8892,-18.4104,17831.6,-1404.76,13604.7,40.6099,349.266,-95.6006,351.875,10458.7,-711.728,24.0219,-49.6283,-101.868,-3580.38,-20803.5,-2827.45,-170.746,150.042,-358.024,609.295,8470.17,801.104,20.7501,-59.4036,-51.4035,-7336.81,-5353.75,-1654.52,8.23122,-93.1085,-74.7093,11368.7,-1619.31,412.775,-75.6925,35.3353,-13.151
3.7385,6020.76,24.0757,8151.87,-4.3646,-94.2191,-18.0151,18189.4,-1648.26,13457.1,42.1213,349.208,-96.916,329.893,10470.3,-663.021,24.0636,-49.3894,-102.149,-3886.35,-20887.6,-2730.4,-169.734,149.79,-357.331,544.723,8519.11,859.264,20.7852,-60.9078,-51.4925,-7341.77,-5326.21,-1725.72,7.83816,-94.6304,-74.5233,11367.9,-1632.28,388.612,-75.6484,36.1662,-13.4664
3.739,6024.11,52.2321,8150.19,-4.28863,-94.549,-17.6198,18547.3,-1891.75,13309.5,43.6326,349.15,-98.2314,307.911,10481.9,-614.314,24.1053,-49.1505,-102.429,-4192.32,-20971.7,-2633.35,-168.722,149.539,-356.638,480.15,8568.06,917.424,20.8204,-62.412,-51.5815,-7346.74,-5298.67,-1796.92,7.44511,-96.1524,-74.3373,11367.1,-1645.24,364.448,-75.6043,36.9971,-13.7819
3.7395,6027.47,80.3884,8148.51,-4.21266,-94.8789,-17.2246,18905.2,-2135.24,13162.0,45.144,349.091,-99.5469,285.929,10493.5,-565.607,24.147,-48.9117,-102.71,-4498.3,-21055.8,-2536.3,-167.711,149.288,-355.945,415.578,8617.0,975.585,20.8556,-63.9162,-51.6705,-7351.71,-5271.13,-1868.12,7.05206,-97.6743,-74.1512,11366.3,-1658.21,340.285,-75.5602,37.8281,-14.0973
3.74,6030.83,108.545,8146.83,-4.13669,-95.2088,-16.8293,19263.0,-2378.73,13014.4,46.6553,349.033,-100.862,263.947,10505.1,-516.901,24.1887,-48.6728,-102.991,-4804.27,-21139.9,-2439.25,-166.699,149.036,-355.252,351.005,8665.94,1033.75,20.8908,-65.4205,-51.7596,-7356.68,-5243.59,-1939.31,6.659,-99.1963,-73.9652,11365.6,-1671.18,316.121,-75.5161,38.659,-14.4128
3.7405,6034.19,136.701,8145.15,-4.06071,-95.5386,-16.434,19620.9,-2622.22,12866.8,48.1666,348.975,-102.178,241.965,10516.7,-468.194,24.2303,-48.4339,-103.272,-5110.25,-21224.1,-2342.19,-165.687,148.785,-354.559,286.433,8714.88,1091.91,20.9259,-66.9247,-51.8486,-7361.64,-5216.05,-2010.51,6.26595,-100.718,-73.7792,11364.8,-1684.14,291.958,-75.472,39.4899,-14.7282
3.741,6037.55,164.857,8143.47,-3.98474,-95.8685,-16.0388,19978.8,-2865.71,12719.2,49.678,348.916,-103.493,219.984,10528.2,-419.487,24.272,-48.195,-103.553,-5416.22,-21308.2,-2245.14,-164.676,148.534,-353.866,221.861,8763.83,1150.07,20.9611,-68.4289,-51.9376,-7366.61,-5188.51,-2081.71,5.8729,-102.24,-73.5932,11364.0,-1697.11,267.795,-75.4279,40.3209,-15.0437
3.7415,6040.91,193.014,8141.79,-3.90877,-96.1984,-15.6435,20336.7,-3109.21,12571.7,51.1893,348.858,-104.809,198.002,10539.8,-370.78,24.3137,-47.9562,-103.834,-5722.19,-21392.3,-2148.09,-163.664,148.282,-353.174,157.288,8812.77,1208.23,20.9963,-69.9331,-52.0266,-7371.58,-5160.98,-2152.91,5.47984,-103.762,-73.4071,11363.2,-1710.08,243.631,-75.3838,41.1518,-15.3591
3.742,6044.27,221.17,8140.11,-3.8328,-96.5283,-15.2482,20694.5,-3352.7,12424.1,52.7006,348.8,-106.124,176.02,10551.4,-322.074,24.3554,-47.7173,-104.114,-6028.17,-21476.4,-2051.04,-162.652,148.031,-352.481,92.7156,8861.71,1266.39,21.0315,-71.4373,-52.1157,-7376.55,-5133.44,-2224.11,5.08679,-105.284,-73.2211,11362.4,-1723.04,219.468,-75.3397,41.9827,-15.6746
3.7425,6047.54,243.859,8138.65,-3.71154,-96.8599,-14.7845,20922.5,-3358.81,12341.1,53.791,348.195,-106.789,160.185,10568.5,-285.705,24.3971,-47.4585,-104.397,-6292.28,-21518.8,-2014.33,-161.653,148.04,-351.841,44.3748,8898.79,1299.97,20.9569,-73.0874,-52.2694,-7368.47,-5111.19,-2277.95,4.73855,-105.225,-73.0895,11357.0,-1743.51,187.538,-75.2298,42.7773,-15.9681
3.743,6050.75,262.174,8137.38,-3.55406,-97.193,-14.2661,21046.5,-3175.03,12309.9,54.5445,347.153,-106.934,149.268,10590.1,-259.208,24.4388,-47.1837,-104.681,-6522.9,-21527.8,-2025.9,-160.664,148.258,-351.244,9.01915,8926.38,1313.9,20.7946,-74.8543,-52.4749,-7349.96,-5093.18,-2317.91,4.42617,-103.9,-73.0013,11347.7,-1769.98,149.395,-75.0672,43.5429,-16.2441
3.7435,6053.95,280.489,8136.1,-3.39657,-97.526,-13.7476,21170.5,-2991.25,12278.7,55.298,346.111,-107.079,138.35,10611.6,-232.71,24.4805,-46.909,-104.966,-6753.52,-21536.8,-2037.47,-159.674,148.476,-350.647,-26.3365,8953.98,1327.83,20.6323,-76.6211,-52.6803,-7331.45,-5075.16,-2357.87,4.11379,-102.576,-72.9132,11338.5,-1796.45,111.253,-74.9046,44.3085,-16.52
3.744,6057.16,298.803,8134.83,-3.23908,-97.8591,-13.2292,21294.5,-2807.47,12247.5,56.0516,345.069,-107.224,127.433,10633.2,-206.213,24.5222,-46.6342,-105.25,-6984.14,-21545.8,-2049.04,-158.685,148.694,-350.05,-61.6921,8981.57,1341.76,20.47,-78.3879,-52.8858,-7312.94,-5057.15,-2397.83,3.80141,-101.251,-72.8251,11329.3,-1822.92,73.1101,-74.742,45.074,-16.796
3.7445,6060.36,317.118,8133.55,-3.08159,-98.1921,-12.7107,21418.5,-2623.69,12216.3,56.8051,344.026,-107.369,116.516,10654.7,-179.715,24.5639,-46.3594,-105.534,-7214.76,-21554.8,-2060.61,-157.696,148.912,-349.453,-97.0477,9009.16,1355.69,20.3077,-80.1547,-53.0913,-7294.43,-5039.14,-2437.8,3.48903,-99.927,-72.737,11320.0,-1849.39,34.9675,-74.5794,45.8396,-17.0719
3.745,6063.57,335.433,8132.28,-2.92411,-98.5252,-12.1923,21542.6,-2439.91,12185.0,57.5587,342.984,-107.514,105.598,10676.3,-153.218,24.6056,-46.0847,-105.819,-7445.38,-21563.8,-2072.18,-156.706,149.13,-348.856,-132.403,9036.75,1369.62,20.1453,-81.9215,-53.2967,-7275.92,-5021.12,-2477.76,3.17665,-98.6026,-72.6488,11310.8,-1875.86,-3.17514,-74.4168,46.6051,-17.3479
3.7455,6066.77,353.748,8131.01,-2.76662,-98.8583,-11.6738,21666.6,-2256.13,12153.8,58.3122,341.942,-107.659,94.6811,10697.8,-126.72,24.6473,-45.8099,-106.103,-7675.99,-21572.8,-2083.75,-155.717,149.348,-348.259,-167.759,9064.35,1383.54,19.983,-83.6883,-53.5022,-7257.42,-5003.11,-2517.72,2.86427,-97.2781,-72.5607,11301.5,-1902.33,-41.3178,-74.2542,47.3707,-17.6239
3.746,6069.98,372.063,8129.73,-2.60913,-99.1913,-11.1553,21790.6,-2072.34,12122.6,59.0657,340.9,-107.804,83.7638,10719.4,-100.223,24.689,-45.5351,-106.387,-7906.61,-21581.8,-2095.32,-154.727,149.566,-347.662,-203.114,9091.94,1397.47,19.8207,-85.4551,-53.7077,-7238.91,-4985.1,-2557.68,2.55189,-95.9537,-72.4726,11292.3,-1928.8,-79.4604,-74.0916,48.1363,-17.8998
3.7465,6073.18,390.378,8128.46,-2.45165,-99.5244,-10.6369,21914.6,-1888.56,12091.4,59.8193,339.858,-107.949,72.8465,10740.9,-73.7255,24.7307,-45.2604,-106.671,-8137.23,-21590.8,-2106.89,-153.738,149.784,-347.065,-238.47,9119.53,1411.4,19.6584,-87.222,-53.9131,-7220.4,-4967.09,-2597.64,2.23951,-94.6292,-72.3844,11283.1,-1955.27,-117.603,-73.9289,48.9018,-18.1758
3.747,6080.21,404.705,8130.12,-2.23582,-99.86,-10.1178,21874.8,-1486.28,12063.1,58.2438,338.135,-108.216,74.0382,10751.7,-49.5667,24.7596,-44.9238,-106.926,-8290.39,-21576.4,-2178.59,-153.247,150.535,-346.347,-282.735,9152.92,1419.01,19.4707,-88.8553,-54.2067,-7156.32,-4931.35,-2575.89,1.74308,-91.6034,-72.5263,11252.5,-1960.55,-151.163,-73.7883,49.6381,-18.5042
3.7475,6089.15,417.04,8133.26,-1.99082,-100.197,-9.59844,21753.0,-974.735,12036.4,55.5039,336.073,-108.544,81.2843,10757.0,-26.5773,24.7821,-44.5563,-107.166,-8404.82,-21550.4,-2280.36,-153.005,151.554,-345.569,-331.455,9189.2,1423.45,19.2704,-90.4218,-54.5443,-7069.46,-4886.75,-2523.3,1.15463,-87.7269,-72.7832,11211.3,-1955.24,-182.432,-73.6586,50.3596,-18.8587
3.748,6098.09,429.374,8136.4,-1.74583,-100.534,-9.07906,21631.2,-463.194,12009.6,52.764,334.01,-108.873,88.5304,10762.3,-3.5879,24.8046,-44.1888,-107.406,-8519.25,-21524.3,-2382.13,-152.763,152.573,-344.791,-380.175,9225.48,1427.9,19.0701,-91.9884,-54.882,-6982.6,-4842.16,-2470.7,0.566179,-83.8503,-73.0401,11170.1,-1949.92,-213.702,-73.5289,51.0812,-19.2133
3.7485,6107.03,441.709,8139.54,-1.50083,-100.871,-8.55967,21509.5,48.3473,11982.8,50.0241,331.947,-109.201,95.7765,10767.7,19.4015,24.8271,-43.8214,-107.647,-8633.68,-21498.3,-2483.9,-152.521,153.591,-344.013,-428.895,9261.77,1432.34,18.8698,-93.555,-55.2196,-6895.74,-4797.56,-2418.1,-0.0222722,-79.9738,-73.2969,11128.9,-1944.61,-244.971,-73.3993,51.8028,-19.5679
3.749,6115.97,454.043,8142.68,-1.25584,-101.208,-8.04029,21387.7,559.888,11956.0,47.2841,329.884,-109.529,103.023,10773.0,42.3909,24.8496,-43.4539,-107.887,-8748.11,-21472.3,-2585.66,-152.279,154.61,-343.235,-477.615,9298.05,1436.78,18.6695,-95.1215,-55.5573,-6808.89,-4752.96,-2365.5,-0.610724,-76.0973,-73.5538,11087.6,-1939.3,-276.24,-73.2696,52.5244,-19.9225
3.7495,6124.91,466.378,8145.82,-1.01084,-101.545,-7.52091,21265.9,1071.43,11929.3,44.5442,327.822,-109.858,110.269,10778.4,65.3803,24.8721,-43.0864,-108.127,-8862.54,-21446.2,-2687.43,-152.037,155.628,-342.457,-526.335,9334.34,1441.23,18.4691,-96.6881,-55.8949,-6722.03,-4708.36,-2312.9,-1.19918,-72.2207,-73.8107,11046.4,-1933.98,-307.509,-73.1399,53.246,-20.277
3.75,6133.85,478.712,8148.96,-0.765843,-101.882,-7.00153,21144.2,1582.97,11902.5,41.8043,325.759,-110.186,117.515,10783.7,88.3697,24.8946,-42.7189,-108.367,-8976.97,-21420.2,-2789.2,-151.795,156.647,-341.679,-575.055,9370.62,1445.67,18.2688,-98.2547,-56.2325,-6635.17,-4663.77,-2260.3,-1.78763,-68.3442,-74.0676,11005.2,-1928.67,-338.778,-73.0102,53.9675,-20.6316
3.7505,6142.78,491.047,8152.09,-0.520847,-102.219,-6.48214,21022.4,2094.51,11875.7,39.0643,323.696,-110.514,124.761,10789.0,111.359,24.9171,-42.3514,-108.607,-9091.4,-21394.1,-2890.97,-151.553,157.666,-340.901,-623.775,9406.9,1450.12,18.0685,-99.8212,-56.5702,-6548.31,-4619.17,-2207.7,-2.37608,-64.4677,-74.3244,10964.0,-1923.35,-370.047,-72.8806,54.6891,-20.9862
3.751,6151.72,503.381,8155.23,-0.275851,-102.556,-5.96276,20900.7,2606.05,11848.9,36.3244,321.634,-110.843,132.007,10794.4,134.348,24.9396,-41.984,-108.847,-9205.83,-21368.1,-2992.74,-151.311,158.684,-340.123,-672.495,9443.19,1454.56,17.8682,-101.388,-56.9078,-6461.45,-4574.57,-2155.1,-2.96453,-60.5911,-74.5813,10922.8,-1918.04,-401.316,-72.7509,55.4107,-21.3408
3.7515,6154.85,518.384,8157.43,-0.053417,-102.895,-5.41757,20876.7,2882.09,11739.7,32.2583,319.739,-111.173,127.354,10789.8,157.27,25.0012,-41.6457,-109.16,-9347.94,-21323.5,-3037.78,-151.3,159.514,-339.171,-703.922,9493.67,1442.31,17.5121,-102.586,-57.2199,-6305.29,-4556.04,-2099.79,-4.27066,-55.6902,-75.0745,10867.9,-1918.02,-420.422,-72.5323,56.1767,-21.6461
3.752,6156.31,534.148,8159.35,0.162571,-103.235,-4.86501,20880.6,3090.85,11607.0,27.8133,317.892,-111.504,119.301,10782.5,180.173,25.0739,-41.3158,-109.493,-9497.96,-21273.6,-3066.63,-151.357,160.291,-338.171,-730.409,9548.21,1425.3,17.1116,-103.678,-57.5247,-6129.32,-4544.95,-2043.7,-5.78183,-50.4966,-75.6353,10809.2,-1919.51,-436.052,-72.2882,56.9553,-21.9373
3.7525,6157.77,549.913,8161.27,0.378559,-103.575,-4.31245,20884.5,3299.6,11474.3,23.3682,316.045,-111.835,111.249,10775.1,203.075,25.1465,-40.986,-109.827,-9647.97,-21223.7,-3095.47,-151.413,161.067,-337.17,-756.896,9602.75,1408.28,16.7111,-104.77,-57.8295,-5953.36,-4533.86,-1987.62,-7.29301,-45.3031,-76.196,10750.5,-1920.99,-451.682,-72.0442,57.7339,-22.2286
3.753,6159.23,565.678,8163.2,0.594548,-103.915,-3.75989,20888.5,3508.35,11341.6,18.9232,314.198,-112.165,103.196,10767.7,225.978,25.2192,-40.6561,-110.16,-9797.99,-21173.8,-3124.31,-151.469,161.844,-336.169,-783.383,9657.29,1391.26,16.3105,-105.863,-58.1344,-5777.39,-4522.77,-1931.53,-8.80418,-40.1095,-76.7568,10691.8,-1922.48,-467.312,-71.8001,58.5126,-22.5198
3.7535,6160.69,581.443,8165.12,0.810536,-104.255,-3.20733,20892.4,3717.11,11208.8,14.4781,312.351,-112.496,95.1433,10760.4,248.88,25.2919,-40.3262,-110.494,-9948.01,-21123.9,-3153.15,-151.525,162.62,-335.169,-809.87,9711.83,1374.24,15.91,-106.955,-58.4392,-5601.42,-4511.68,-1875.44,-10.3154,-34.9159,-77.3175,10633.1,-1923.97,-482.941,-71.5561,59.2912,-22.8111
3.754,6162.15,597.207,8167.05,1.02652,-104.595,-2.65477,20896.3,3925.86,11076.1,10.0331,310.504,-112.827,87.0906,10753.0,271.782,25.3646,-39.9963,-110.827,-10098.0,-21074.1,-3181.99,-151.582,163.397,-334.168,-836.356,9766.37,1357.23,15.5095,-108.048,-58.744,-5425.46,-4500.59,-1819.36,-11.8265,-29.7223,-77.8783,10574.4,-1925.46,-498.571,-71.312,60.0699,-23.1023
3.7545,6163.61,612.972,8168.97,1.24251,-104.935,-2.10221,20900.3,4134.61,10943.4,5.58806,308.657,-113.158,79.0378,10745.6,294.685,25.4372,-39.6664,-111.161,-10248.0,-21024.2,-3210.84,-151.638,164.173,-333.168,-862.843,9820.91,1340.21,15.1089,-109.14,-59.0488,-5249.49,-4489.5,-1763.27,-13.3377,-24.5287,-78.439,10515.7,-1926.95,-514.201,-71.068,60.8485,-23.3935
3.755,6165.07,628.737,8170.89,1.4585,-105.275,-1.54965,20904.2,4343.37,10810.7,1.14302,306.81,-113.488,70.9851,10738.2,317.587,25.5099,-39.3365,-111.494,-10398.1,-20974.3,-3239.68,-151.694,164.95,-332.167,-889.33,9875.46,1323.19,14.7084,-110.232,-59.3536,-5073.53,-4478.41,-1707.19,-14.8489,-19.3351,-78.9998,10457.0,-1928.43,-529.831,-70.8239,61.6272,-23.6848
3.7555,6166.53,644.501,8172.82,1.67449,-105.615,-0.997088,20908.1,4552.12,10677.9,-3.30202,304.963,-113.819,62.9324,10730.9,340.49,25.5826,-39.0066,-111.828,-10548.1,-20924.4,-3268.52,-151.75,165.726,-331.166,-915.817,9930.0,1306.18,14.3078,-111.325,-59.6584,-4897.56,-4467.32,-1651.1,-16.3601,-14.1415,-79.5605,10398.3,-1929.92,-545.461,-70.5799,62.4058,-23.976
3.756,6175.35,663.667,8170.65,1.78354,-105.984,-0.372338,21143.5,4372.57,10555.3,-6.01312,303.555,-113.291,42.353,10726.9,356.068,25.5944,-38.703,-112.027,-10787.8,-20902.6,-3240.06,-151.66,165.655,-329.833,-906.126,9938.36,1244.08,13.949,-111.924,-59.9911,-4604.05,-4460.93,-1631.34,-18.6709,-8.46715,-79.8843,10342.1,-1935.25,-543.062,-70.4054,62.914,-24.3243
3.7565,6185.09,683.258,8167.97,1.87923,-106.356,0.261437,21407.7,4144.47,10433.9,-8.50748,302.202,-112.656,20.2078,10723.4,370.73,25.5987,-38.4027,-112.21,-11038.8,-20884.3,-3204.43,-151.552,165.478,-328.457,-891.912,9940.94,1176.35,13.5954,-112.461,-60.3273,-4295.84,-4455.13,-1616.11,-21.0816,-2.73268,-80.1784,10286.2,-1941.06,-538.409,-70.2395,63.3883,-24.6798
3.757,6194.83,702.849,8165.29,1.97492,-106.729,0.895212,21672.0,3916.37,10312.5,-11.0018,300.848,-112.021,-1.93741,10719.8,385.392,25.6029,-38.1023,-112.393,-11289.7,-20866.0,-3168.8,-151.443,165.302,-327.082,-877.699,9943.53,1108.63,13.2418,-112.998,-60.6634,-3987.63,-4449.33,-1600.88,-23.4923,3.00179,-80.4726,10230.3,-1946.87,-533.757,-70.0737,63.8627,-25.0352
3.7575,6204.57,722.44,8162.6,2.0706,-107.101,1.52899,21936.3,3688.28,10191.1,-13.4962,299.495,-111.386,-24.0826,10716.3,400.054,25.6072,-37.802,-112.576,-11540.7,-20847.8,-3133.17,-151.334,165.125,-325.707,-863.486,9946.12,1040.9,12.8882,-113.535,-60.9996,-3679.42,-4443.53,-1585.65,-25.9031,8.73627,-80.7667,10174.3,-1952.68,-529.104,-69.9079,64.337,-25.3906
3.758,6214.31,742.031,8159.92,2.16629,-107.474,2.16276,22200.6,3460.18,10069.7,-15.9906,298.142,-110.751,-46.2279,10712.7,414.717,25.6114,-37.5016,-112.759,-11791.6,-20829.5,-3097.54,-151.226,164.948,-324.332,-849.272,9948.71,973.171,12.5346,-114.073,-61.3357,-3371.21,-4437.73,-1570.42,-28.3138,14.4707,-81.0609,10118.4,-1958.49,-524.451,-69.742,64.8114,-25.7461
3.7585,6224.05,761.622,8157.24,2.26198,-107.846,2.79654,22464.9,3232.08,9948.27,-18.4849,296.788,-110.116,-68.3731,10709.2,429.379,25.6157,-37.2013,-112.942,-12042.6,-20811.2,-3061.91,-151.117,164.772,-322.957,-835.059,9951.3,905.443,12.181,-114.61,-61.6719,-3063.01,-4431.94,-1555.2,-30.7246,20.2052,-81.355,10062.5,-1964.3,-519.799,-69.5762,65.2857,-26.1015
3.759,6233.79,781.213,8154.56,2.35767,-108.219,3.43031,22729.1,3003.99,9826.86,-20.9793,295.435,-109.481,-90.5183,10705.6,444.041,25.6199,-36.9009,-113.125,-12293.5,-20792.9,-3026.28,-151.008,164.595,-321.581,-820.846,9953.88,837.715,11.8273,-115.147,-62.0081,-2754.8,-4426.14,-1539.97,-33.1353,25.9397,-81.6491,10006.6,-1970.11,-515.146,-69.4104,65.7601,-26.4569
3.7595,6243.54,800.804,8151.88,2.45335,-108.591,4.06408,22993.4,2775.89,9705.46,-23.4736,294.082,-108.846,-112.664,10702.1,458.704,25.6242,-36.6006,-113.308,-12544.5,-20774.6,-2990.65,-150.9,164.418,-320.206,-806.632,9956.47,769.988,11.4737,-115.684,-62.3442,-2446.59,-4420.34,-1524.74,-35.5461,31.6742,-81.9433,9950.69,-1975.92,-510.493,-69.2445,66.2344,-26.8124
3.76,6253.28,820.395,8149.2,2.54904,-108.964,4.69786,23257.7,2547.8,9584.06,-25.968,292.728,-108.211,-134.809,10698.6,473.366,25.6284,-36.3002,-113.491,-12795.4,-20756.4,-2955.02,-150.791,164.241,-318.831,-792.419,9959.06,702.26,11.1201,-116.221,-62.6804,-2138.38,-4414.54,-1509.51,-37.9568,37.4086,-82.2374,9894.77,-1981.73,-505.84,-69.0787,66.7088,-27.1678
3.7605,6248.65,838.572,8162.25,2.61945,-109.417,5.34729,23615.6,2227.96,9447.75,-26.1964,291.476,-107.056,-125.371,10701.0,505.278,25.7348,-35.9948,-113.851,-13067.7,-20803.8,-2921.37,-150.268,163.197,-317.323,-770.891,9952.12,646.781,10.7224,-116.024,-62.7954,-1777.09,-4459.37,-1489.49,-40.9512,43.0047,-81.8762,9829.16,-1983.31,-480.699,-68.8484,66.9592,-27.3854
3.761,6244.02,856.748,8175.3,2.68986,-109.87,5.99671,23973.5,1908.12,9311.45,-26.4247,290.223,-105.902,-115.934,10703.5,537.191,25.8411,-35.6893,-114.211,-13340.0,-20851.3,-2887.72,-149.744,162.152,-315.816,-749.364,9945.17,591.301,10.3246,-115.826,-62.9104,-1415.81,-4504.21,-1469.48,-43.9456,48.6007,-81.515,9763.53,-1984.89,-455.558,-68.6181,67.2096,-27.603
3.7615,6239.39,874.925,8188.36,2.76027,-110.324,6.64614,24331.3,1588.28,9175.15,-26.6531,288.971,-104.747,-106.497,10706.0,569.103,25.9475,-35.3839,-114.571,-13612.3,-20898.7,-2854.07,-149.221,161.107,-314.308,-727.837,9938.22,535.822,9.92683,-115.629,-63.0254,-1054.52,-4549.05,-1449.46,-46.94,54.1968,-81.1538,9697.92,-1986.47,-430.416,-68.3877,67.46,-27.8205
3.762,6234.76,893.102,8201.41,2.83068,-110.777,7.29556,24689.2,1268.44,9038.84,-26.8815,287.719,-103.593,-97.0596,10708.4,601.015,26.0538,-35.0784,-114.931,-13884.6,-20946.1,-2820.42,-148.697,160.062,-312.801,-706.309,9931.28,480.342,9.52907,-115.431,-63.1404,-693.235,-4593.89,-1429.45,-49.9344,59.7928,-80.7926,9632.3,-1988.06,-405.275,-68.1574,67.7104,-28.0381
3.7625,6230.13,911.278,8214.46,2.90109,-111.23,7.94499,25047.1,948.606,8902.54,-27.1099,286.466,-102.438,-87.6223,10710.9,632.928,26.1602,-34.773,-115.29,-14156.9,-20993.6,-2786.78,-148.173,159.018,-311.293,-684.782,9924.33,424.863,9.13131,-115.234,-63.2554,-331.949,-4638.72,-1409.43,-52.9288,65.3889,-80.4314,9566.67,-1989.64,-380.133,-67.9271,67.9608,-28.2557
3.763,6225.5,929.455,8227.52,2.9715,-111.684,8.59441,25405.0,628.768,8766.23,-27.3382,285.214,-101.284,-78.185,10713.4,664.84,26.2665,-34.4675,-115.65,-14429.2,-21041.0,-2753.13,-147.65,157.973,-309.786,-663.255,9917.39,369.384,8.73355,-115.036,-63.3704,29.3376,-4683.56,-1389.41,-55.9232,70.9849,-80.0702,9501.06,-1991.22,-354.992,-67.6968,68.2112,-28.4733
3.7635,6220.87,947.631,8240.57,3.04191,-112.137,9.24384,25762.9,308.929,8629.93,-27.5666,283.961,-100.129,-68.7477,10715.8,696.753,26.3729,-34.1621,-116.01,-14701.5,-21088.5,-2719.48,-147.126,156.928,-308.279,-641.727,9910.44,313.904,8.33578,-114.838,-63.4853,390.624,-4728.4,-1369.4,-58.9176,76.581,-79.709,9435.44,-1992.8,-329.85,-67.4664,68.4616,-28.6908
3.764,6216.24,965.808,8253.62,3.11232,-112.59,9.89327,26120.8,-10.909,8493.63,-27.795,282.709,-98.9747,-59.3104,10718.3,728.665,26.4792,-33.8567,-116.37,-14973.8,-21135.9,-2685.83,-146.603,155.884,-306.771,-620.2,9903.5,258.425,7.93802,-114.641,-63.6003,751.91,-4773.23,-1349.38,-61.912,82.177,-79.3477,9369.82,-1994.39,-304.709,-67.2361,68.712,-28.9084
3.7645,6212.04,982.578,8266.77,3.1846,-113.052,10.5481,26467.8,-314.228,8352.2,-27.9206,281.438,-97.8101,-51.412,10722.4,757.791,26.5943,-33.5444,-116.724,-15242.2,-21186.4,-2654.92,-146.042,154.81,-305.237,-596.802,9897.12,202.551,7.55942,-114.387,-63.7368,1112.31,-4830.05,-1323.63,-64.8892,87.635,-78.9656,9305.41,-1994.01,-281.124,-66.9955,68.9128,-29.1106
3.765,6211.25,988.101,8280.71,3.27186,-113.578,11.2467,26728.7,-485.395,8169.76,-27.2247,280.016,-96.5646,-55.8241,10739.9,764.626,26.7796,-33.1781,-117.032,-15480.0,-21260.7,-2645.96,-145.182,153.501,-303.492,-558.433,9895.26,143.526,7.33407,-113.685,-64.0448,1465.63,-4982.68,-1251.99,-67.729,91.9884,-78.4163,9250.72,-1978.02,-269.994,-66.6721,68.7176,-29.1898
3.7655,6210.46,993.623,8294.65,3.35911,-114.105,11.9452,26989.5,-656.563,7987.32,-26.5287,278.595,-95.3191,-60.2363,10757.5,771.462,26.9648,-32.8118,-117.339,-15717.7,-21335.1,-2637.01,-144.322,152.193,-301.746,-520.064,9893.41,84.5008,7.10871,-112.983,-64.3528,1818.96,-5135.31,-1180.34,-70.5688,96.3417,-77.8669,9196.03,-1962.03,-258.864,-66.3488,68.5224,-29.269
3.766,6209.68,999.146,8308.59,3.44636,-114.631,12.6437,27250.4,-827.73,7804.88,-25.8328,277.173,-94.0736,-64.6484,10775.0,778.297,27.15,-32.4454,-117.647,-15955.5,-21409.4,-2628.05,-143.462,150.885,-300.0,-481.696,9891.56,25.4755,6.88336,-112.282,-64.6608,2172.28,-5287.95,-1108.7,-73.4087,100.695,-77.3176,9141.33,-1946.04,-247.733,-66.0255,68.3271,-29.3483
3.7665,6208.89,1004.67,8322.53,3.53361,-115.157,13.3422,27511.2,-998.897,7622.44,-25.1368,275.752,-92.8281,-69.0605,10792.5,785.133,27.3352,-32.0791,-117.955,-16193.2,-21483.8,-2619.1,-142.602,149.577,-298.255,-443.327,9889.71,-33.5497,6.65801,-111.58,-64.9688,2525.6,-5440.58,-1037.05,-76.2485,105.048,-76.7683,9086.64,-1930.05,-236.603,-65.7022,68.1319,-29.4275
3.767,6208.11,1010.19,8336.47,3.62087,-115.683,14.0407,27772.0,-1170.06,7440.0,-24.4408,274.331,-91.5826,-73.4727,10810.0,791.969,27.5205,-31.7128,-118.262,-16431.0,-21558.1,-2610.14,-141.742,148.269,-296.509,-404.959,9887.85,-92.575,6.43266,-110.878,-65.2768,2878.93,-5593.21,-965.41,-79.0883,109.402,-76.2189,9031.95,-1914.05,-225.473,-65.3789,67.9367,-29.5067
3.7675,6207.32,1015.71,8350.4,3.70812,-116.21,14.7392,28032.9,-1341.23,7257.56,-23.7449,272.909,-90.3371,-77.8848,10827.5,798.804,27.7057,-31.3465,-118.57,-16668.7,-21632.5,-2601.18,-140.882,146.961,-294.764,-366.59,9886.0,-151.6,6.20731,-110.176,-65.5848,3232.25,-5745.85,-893.766,-81.9281,113.755,-75.6696,8977.26,-1898.06,-214.342,-65.0555,67.7414,-29.5859
3.768,6206.54,1021.24,8364.34,3.79537,-116.736,15.4377,28293.7,-1512.4,7075.12,-23.0489,271.488,-89.0916,-82.2969,10845.0,805.64,27.8909,-30.9801,-118.878,-16906.5,-21706.8,-2592.23,-140.022,145.653,-293.018,-328.221,9884.15,-210.626,5.98196,-109.474,-65.8928,3585.57,-5898.48,-822.123,-84.768,118.109,-75.1202,8922.57,-1882.07,-203.212,-64.7322,67.5462,-29.6652
3.7685,6205.75,1026.76,8378.28,3.88262,-117.262,16.1362,28554.6,-1683.57,6892.68,-22.353,270.066,-87.8461,-86.7091,10862.6,812.475,28.0761,-30.6138,-119.186,-17144.2,-21781.2,-2583.27,-139.162,144.345,-291.273,-289.853,9882.3,-269.651,5.7566,-108.772,-66.2008,3938.9,-6051.11,-750.479,-87.6078,122.462,-74.5709,8867.87,-1866.08,-192.082,-64.4089,67.3509,-29.7444
3.769,6207.09,1032.12,8389.65,3.98457,-117.791,16.8366,28783.0,-1816.11,6711.3,-21.6558,268.547,-86.5562,-90.1617,10882.7,820.551,28.2255,-30.2425,-119.485,-17376.9,-21857.7,-2572.62,-138.297,143.075,-289.499,-244.815,9878.92,-327.32,5.55324,-107.997,-66.4831,4273.9,-6218.81,-676.951,-90.221,126.354,-74.0333,8813.37,-1855.73,-182.463,-64.0769,67.0841,-29.8058
3.7695,6215.83,1036.91,8392.03,4.13795,-118.326,17.5438,28897.9,-1813.47,6533.65,-20.9543,266.688,-85.1113,-90.2561,10911.9,832.967,28.2496,-29.8538,-119.757,-17591.8,-21941.9,-2556.02,-137.413,141.937,-287.63,-176.435,9870.22,-380.24,5.42684,-106.967,-66.6756,4544.76,-6439.23,-596.831,-92.0408,128.632,-73.5368,8759.53,-1865.13,-178.133,-63.7143,66.5665,-29.8052
3.77,6224.58,1041.71,8394.4,4.29132,-118.861,18.2509,29012.8,-1810.83,6355.99,-20.2528,264.828,-83.6663,-90.3505,10941.1,845.383,28.2736,-29.465,-120.029,-17806.8,-22026.1,-2539.42,-136.529,140.8,-285.76,-108.056,9861.51,-433.161,5.30044,-105.936,-66.8681,4815.62,-6659.65,-516.71,-93.8607,130.911,-73.0403,8705.7,-1874.53,-173.803,-63.3518,66.0488,-29.8045
3.7705,6233.33,1046.5,8396.78,4.4447,-119.397,18.9581,29127.7,-1808.19,6178.34,-19.5514,262.968,-82.2213,-90.4448,10970.3,857.799,28.2977,-29.0763,-120.3,-18021.8,-22110.3,-2522.82,-135.646,139.662,-283.89,-39.6761,9852.81,-486.082,5.17404,-104.906,-67.0606,5086.49,-6880.07,-436.59,-95.6806,133.189,-72.5438,8651.86,-1883.93,-169.474,-62.9893,65.5312,-29.8038
3.771,6242.08,1051.3,8399.15,4.59808,-119.932,19.6652,29242.6,-1805.55,6000.68,-18.8499,261.109,-80.7763,-90.5392,10999.6,870.215,28.3218,-28.6875,-120.572,-18236.7,-22194.5,-2506.22,-134.762,138.525,-282.02,28.7036,9844.11,-539.002,5.04764,-103.875,-67.2531,5357.35,-7100.49,-356.469,-97.5004,135.467,-72.0472,8598.02,-1893.34,-165.144,-62.6267,65.0136,-29.8031
3.7715,6250.82,1056.09,8401.53,4.75145,-120.467,20.3724,29357.5,-1802.91,5823.03,-18.1484,259.249,-79.3313,-90.6336,11028.8,882.631,28.3458,-28.2988,-120.844,-18451.7,-22278.6,-2489.62,-133.878,137.387,-280.151,97.0833,9835.4,-591.923,4.92124,-102.844,-67.4456,5628.22,-7320.91,-276.349,-99.3203,137.745,-71.5507,8544.18,-1902.74,-160.814,-62.2642,64.496,-29.8024
3.772,6259.57,1060.89,8403.9,4.90483,-121.003,21.0795,29472.4,-1800.27,5645.38,-17.4469,257.389,-77.8864,-90.728,11058.0,895.046,28.3699,-27.9101,-121.115,-18666.7,-22362.8,-2473.02,-132.995,136.25,-278.281,165.463,9826.7,-644.844,4.79485,-101.814,-67.6381,5899.08,-7541.32,-196.228,-101.14,140.024,-71.0542,8490.35,-1912.14,-156.485,-61.9017,63.9784,-29.8017
3.7725,6268.32,1065.68,8406.28,5.05821,-121.538,21.7867,29587.3,-1797.63,5467.72,-16.7455,255.529,-76.4414,-90.8224,11087.3,907.462,28.3939,-27.5213,-121.387,-18881.6,-22447.0,-2456.42,-132.111,135.112,-276.411,233.843,9818.0,-697.764,4.66845,-100.783,-67.8306,6169.94,-7761.74,-116.108,-102.96,142.302,-70.5577,8436.51,-1921.54,-152.155,-61.5391,63.4608,-29.801
3.773,6277.06,1070.48,8408.66,5.21158,-122.073,22.4939,29702.2,-1795.0,5290.07,-16.044,253.67,-74.9964,-90.9167,11116.5,919.878,28.418,-27.1326,-121.659,-19096.6,-22531.2,-2439.82,-131.227,133.975,-274.541,302.222,9809.29,-750.685,4.54205,-99.7527,-68.0231,6440.81,-7982.16,-35.9874,-104.78,144.58,-70.0612,8382.67,-1930.94,-147.825,-61.1766,62.9432,-29.8003
3.7735,6287.08,1077.17,8414.27,5.38236,-122.625,23.2082,29805.7,-1759.76,5101.8,-15.3885,251.7,-73.4252,-90.4156,11146.1,921.009,28.4227,-26.7482,-121.971,-19314.0,-22607.6,-2420.97,-130.334,132.9,-272.661,374.561,9805.15,-800.645,4.40242,-98.6698,-68.2045,6697.95,-8205.55,44.2923,-106.123,145.994,-69.6087,8328.33,-1934.16,-149.18,-60.7744,62.3325,-29.7687
3.774,6299.62,1087.66,8426.37,5.58793,-123.209,23.9369,29886.5,-1659.34,4892.31,-14.8248,249.511,-71.6017,-88.7236,11176.7,899.57,28.389,-26.3725,-122.367,-19536.3,-22668.4,-2397.63,-129.421,131.951,-270.76,454.817,9810.14,-844.682,4.23635,-97.4822,-68.3637,6927.63,-8434.88,124.891,-106.511,145.679,-69.2443,8272.98,-1925.03,-161.905,-60.2926,61.5356,-29.6751
3.7745,6312.17,1098.14,8438.47,5.79351,-123.793,24.6656,29967.3,-1558.91,4682.83,-14.2611,247.323,-69.7781,-87.0315,11207.3,878.13,28.3552,-25.9969,-122.762,-19758.6,-22729.2,-2374.28,-128.509,131.002,-268.858,535.073,9815.13,-888.72,4.07027,-96.2946,-68.5229,7157.31,-8664.2,205.489,-106.899,145.364,-68.8799,8217.63,-1915.89,-174.631,-59.8109,60.7387,-29.5814
3.775,6324.71,1108.62,8450.57,5.99908,-124.376,25.3943,30048.1,-1458.48,4473.34,-13.6975,245.134,-67.9546,-85.3394,11237.8,856.691,28.3215,-25.6212,-123.157,-19981.0,-22790.1,-2350.94,-127.597,130.052,-266.957,615.329,9820.12,-932.757,3.90419,-95.107,-68.682,7386.99,-8893.53,286.087,-107.288,145.049,-68.5154,8162.27,-1906.75,-187.356,-59.3292,59.9418,-29.4878
3.7755,6337.26,1119.11,8462.67,6.20466,-124.96,26.123,30128.9,-1358.06,4263.85,-13.1338,242.945,-66.131,-83.6473,11268.4,835.252,28.2877,-25.2455,-123.552,-20203.3,-22850.9,-2327.59,-126.684,129.103,-265.056,695.585,9825.1,-976.795,3.73812,-93.9194,-68.8412,7616.68,-9122.86,366.685,-107.676,144.734,-68.151,8106.92,-1897.61,-200.081,-58.8475,59.1449,-29.3942
3.776,6349.81,1129.59,8474.77,6.41023,-125.544,26.8517,30209.7,-1257.63,4054.36,-12.5701,240.756,-64.3075,-81.9552,11298.9,813.812,28.2539,-24.8698,-123.947,-20425.6,-22911.7,-2304.25,-125.772,128.154,-263.154,775.841,9830.09,-1020.83,3.57204,-92.7318,-69.0004,7846.36,-9352.18,447.283,-108.065,144.419,-67.7866,8051.57,-1888.47,-212.806,-58.3657,58.348,-29.3006
3.7765,6362.35,1140.08,8486.87,6.61581,-126.128,27.5804,30290.5,-1157.21,3844.87,-12.0065,238.567,-62.4839,-80.2631,11329.5,792.373,28.2202,-24.4941,-124.342,-20648.0,-22972.6,-2280.9,-124.859,127.204,-261.253,856.096,9835.08,-1064.87,3.40597,-91.5442,-69.1596,8076.04,-9581.51,527.882,-108.453,144.105,-67.4222,7996.22,-1879.33,-225.531,-57.884,57.5511,-29.207
3.777,6374.9,1150.56,8498.96,6.82138,-126.712,28.3091,30371.3,-1056.78,3635.38,-11.4428,236.378,-60.6604,-78.5711,11360.1,770.933,28.1864,-24.1184,-124.737,-20870.3,-23033.4,-2257.56,-123.947,126.255,-259.352,936.352,9840.07,-1108.91,3.23989,-90.3566,-69.3188,8305.72,-9810.83,608.48,-108.842,143.79,-67.0577,7940.86,-1870.19,-238.256,-57.4023,56.7542,-29.1133
3.7775,6387.44,1161.05,8511.06,7.02696,-127.296,29.0378,30452.1,-956.358,3425.89,-10.8792,234.189,-58.8368,-76.879,11390.6,749.494,28.1527,-23.7428,-125.132,-21092.6,-23094.2,-2234.21,-123.035,125.306,-257.451,1016.61,9845.05,-1152.95,3.07382,-89.169,-69.478,8535.41,-10040.2,689.078,-109.23,143.475,-66.6933,7885.51,-1861.05,-250.981,-56.9206,55.9573,-29.0197
3.778,6396.64,1171.71,8533.75,7.19038,-127.909,29.7796,30555.6,-867.014,3223.1,-10.36,231.915,-57.005,-68.8922,11423.8,739.048,28.17,-23.3361,-125.522,-21316.9,-23129.5,-2201.89,-122.113,124.486,-255.523,1090.67,9851.25,-1187.01,2.97249,-88.0096,-69.633,8728.22,-10223.9,740.015,-109.294,142.454,-66.2597,7835.91,-1859.1,-266.721,-56.5022,55.1383,-28.8799
3.7785,6401.66,1182.6,8569.69,7.30112,-128.557,30.5378,30687.4,-791.523,3028.68,-9.89636,229.534,-55.1627,-53.0371,11460.1,742.343,28.2513,-22.8906,-125.905,-21543.5,-23132.9,-2158.35,-121.179,123.829,-253.562,1156.99,9858.95,-1208.6,2.9521,-86.8855,-69.7829,8874.96,-10350.8,753.876,-108.954,140.55,-65.7397,7793.49,-1866.14,-286.228,-56.1629,54.2917,-28.6823
3.779,6406.68,1193.49,8605.62,7.41185,-129.206,31.2961,30819.3,-716.031,2834.26,-9.43276,227.152,-53.3205,-37.182,11496.5,745.639,28.3325,-22.4452,-126.288,-21770.2,-23136.2,-2114.8,-120.245,123.172,-251.602,1223.31,9866.66,-1230.2,2.93171,-85.7615,-69.9328,9021.7,-10477.6,767.736,-108.613,138.647,-65.2197,7751.08,-1873.17,-305.736,-55.8237,53.445,-28.4847
3.7795,6411.69,1204.38,8641.56,7.52258,-129.854,32.0543,30951.1,-640.54,2639.84,-8.96916,224.771,-51.4782,-21.3269,11532.9,748.934,28.4138,-21.9998,-126.67,-21996.8,-23139.6,-2071.26,-119.312,122.515,-249.642,1289.63,9874.36,-1251.8,2.91131,-84.6374,-70.0826,9168.44,-10604.4,781.597,-108.272,136.743,-64.6997,7708.66,-1880.2,-325.243,-55.4844,52.5984,-28.2871
3.78,6416.71,1215.27,8677.49,7.63332,-130.503,32.8125,31083.0,-565.048,2445.42,-8.50555,222.389,-49.6359,-5.47184,11569.2,752.229,28.495,-21.5543,-127.053,-22223.5,-23143.0,-2027.72,-118.378,121.858,-247.681,1355.95,9882.06,-1273.39,2.89092,-83.5134,-70.2325,9315.18,-10731.3,795.457,-107.932,134.839,-64.1797,7666.25,-1887.23,-344.751,-55.1451,51.7517,-28.0895
3.7805,6421.73,1226.16,8713.43,7.74405,-131.152,33.5708,31214.8,-489.557,2251.0,-8.04195,220.008,-47.7937,10.3833,11605.6,755.525,28.5763,-21.1089,-127.436,-22450.2,-23146.3,-1984.18,-117.445,121.201,-245.721,1422.27,9889.77,-1294.99,2.87053,-82.3893,-70.3824,9461.91,-10858.1,809.318,-107.591,132.936,-63.6597,7623.83,-1894.27,-364.258,-54.8059,50.9051,-27.8919
3.781,6426.75,1237.05,8749.36,7.85479,-131.8,34.329,31346.6,-414.065,2056.58,-7.57835,217.627,-45.9514,26.2384,11642.0,758.82,28.6575,-20.6634,-127.819,-22676.8,-23149.7,-1940.64,-116.511,120.543,-243.76,1488.59,9897.47,-1316.58,2.85014,-81.2652,-70.5323,9608.65,-10984.9,823.178,-107.25,131.032,-63.1397,7581.42,-1901.3,-383.765,-54.4666,50.0584,-27.6943
3.7815,6431.77,1247.94,8785.3,7.96552,-132.449,35.0872,31478.5,-338.574,1862.16,-7.11475,215.245,-44.1091,42.0935,11678.3,762.116,28.7388,-20.218,-128.202,-22903.5,-23153.1,-1897.09,-115.577,119.886,-241.8,1554.91,9905.17,-1338.18,2.82975,-80.1412,-70.6821,9755.39,-11111.8,837.039,-106.91,129.128,-62.6197,7539.0,-1908.33,-403.273,-54.1274,49.2117,-27.4967
3.782,6436.78,1258.83,8821.23,8.07625,-133.097,35.8454,31610.3,-263.082,1667.74,-6.65114,212.864,-42.2669,57.9486,11714.7,765.411,28.82,-19.7726,-128.584,-23130.1,-23156.4,-1853.55,-114.644,119.229,-239.839,1621.23,9912.88,-1359.77,2.80936,-79.0171,-70.832,9902.13,-11238.6,850.899,-106.569,127.225,-62.0997,7496.59,-1915.36,-422.78,-53.7881,48.3651,-27.2991
3.7825,6435.07,1264.42,8861.92,8.18132,-133.805,36.609,31784.3,-227.329,1471.96,-6.05408,210.484,-40.5561,92.3596,11746.1,752.129,28.8327,-19.3062,-128.986,-23351.7,-23100.2,-1794.66,-113.732,118.723,-237.864,1687.76,9926.11,-1374.65,2.79404,-77.9383,-70.8962,10044.7,-11330.2,836.11,-106.277,125.469,-61.6613,7457.69,-1923.31,-428.883,-53.406,47.434,-27.1308
3.783,6427.98,1265.77,8906.4,8.28185,-134.562,37.3767,31991.9,-223.366,1275.09,-5.35026,208.105,-38.9504,141.616,11773.6,725.585,28.7906,-18.823,-129.403,-23569.1,-22996.4,-1723.48,-112.838,118.338,-235.877,1754.47,9943.78,-1384.16,2.78277,-76.8957,-70.8918,10184.0,-11393.6,798.402,-106.023,123.831,-61.2883,7421.6,-1932.0,-424.261,-52.9896,46.4353,-26.9858
3.7835,6420.88,1267.12,8950.89,8.38238,-135.318,38.1445,32199.5,-219.404,1078.22,-4.64644,205.726,-37.3447,190.871,11801.1,699.04,28.7485,-18.3398,-129.819,-23786.5,-22892.5,-1652.31,-111.945,117.953,-233.89,1821.18,9961.44,-1393.67,2.7715,-75.8532,-70.8874,10323.2,-11457.0,760.694,-105.77,122.193,-60.9153,7385.52,-1940.68,-419.639,-52.5732,45.4367,-26.8408
3.784,6413.79,1268.47,8995.38,8.48292,-136.074,38.9122,32407.1,-215.441,881.351,-3.94262,203.347,-35.739,240.127,11828.6,672.496,28.7064,-17.8566,-130.236,-24003.9,-22788.7,-1581.13,-111.051,117.568,-231.903,1887.89,9979.1,-1403.18,2.76023,-74.8106,-70.883,10462.5,-11520.4,722.986,-105.516,120.555,-60.5423,7349.43,-1949.36,-415.017,-52.1567,44.4381,-26.6958
3.7845,6406.69,1269.82,9039.86,8.58345,-136.83,39.68,32614.7,-211.478,684.48,-3.23879,200.968,-34.1333,289.383,11856.1,645.951,28.6643,-17.3735,-130.653,-24221.3,-22684.8,-1509.95,-110.157,117.182,-229.916,1954.6,9996.77,-1412.68,2.74896,-73.768,-70.8786,10601.7,-11583.8,685.278,-105.263,118.917,-60.1693,7313.35,-1958.05,-410.395,-51.7403,43.4394,-26.5508
3.785,6399.6,1271.17,9084.35,8.68398,-137.586,40.4477,32822.3,-207.515,487.61,-2.53497,198.589,-32.5276,338.639,11883.5,619.407,28.6222,-16.8903,-131.07,-24438.7,-22581.0,-1438.78,-109.263,116.797,-227.929,2021.3,10014.4,-1422.19,2.73769,-72.7254,-70.8742,10741.0,-11647.2,647.57,-105.009,117.28,-59.7963,7277.26,-1966.73,-405.773,-51.3239,42.4408,-26.4058
3.7855,6392.5,1272.52,9128.84,8.78451,-138.342,41.2155,33029.9,-203.553,290.739,-1.83115,196.21,-30.9219,387.895,11911.0,592.862,28.5802,-16.4071,-131.486,-24656.1,-22477.1,-1367.6,-108.37,116.412,-225.942,2088.01,10032.1,-1431.7,2.72643,-71.6828,-70.8698,10880.3,-11710.6,609.862,-104.756,115.642,-59.4232,7241.18,-1975.42,-401.152,-50.9075,41.4421,-26.2608
3.786,6385.41,1273.87,9173.32,8.88505,-139.099,41.9832,33237.4,-199.59,93.8684,-1.12733,193.831,-29.3162,437.151,11938.5,566.318,28.538,-15.9239,-131.903,-24873.5,-22373.3,-1296.43,-107.476,116.027,-223.955,2154.72,10049.8,-1441.2,2.71516,-70.6402,-70.8653,11019.5,-11774.0,572.154,-104.502,114.004,-59.0502,7205.09,-1984.1,-396.53,-50.4911,40.4435,-26.1159
3.7865,6378.31,1275.22,9217.81,8.98558,-139.855,42.751,33445.0,-195.627,-103.002,-0.423505,191.452,-27.7105,486.407,11966.0,539.774,28.496,-15.4408,-132.32,-25090.9,-22269.4,-1225.25,-106.582,115.642,-221.968,2221.43,10067.4,-1450.71,2.70389,-69.5976,-70.8609,11158.8,-11837.4,534.446,-104.248,112.366,-58.6772,7169.01,-1992.78,-391.908,-50.0746,39.4448,-25.9709
3.787,6368.57,1276.96,9256.05,9.01693,-140.714,43.4319,33678.8,-225.727,-330.744,0.509603,189.349,-26.3984,527.545,12010.2,516.511,28.447,-15.0313,-132.732,-25288.1,-22108.4,-1137.54,-105.741,115.32,-219.919,2280.87,10071.7,-1456.56,2.71794,-68.6623,-70.9456,11303.2,-11941.7,524.335,-104.15,111.794,-58.7092,7146.08,-2003.6,-394.727,-49.6878,38.2772,-25.7083
3.7875,6357.51,1278.9,9291.18,9.01369,-141.624,44.0694,33925.7,-272.858,-573.922,1.55735,187.385,-25.2331,564.625,12062.7,494.889,28.3945,-14.6586,-133.142,-25475.2,-21918.7,-1041.57,-104.927,115.029,-217.839,2336.68,10069.2,-1460.58,2.74466,-67.7805,-71.0748,11450.2,-12066.6,528.022,-104.129,111.754,-58.9438,7129.73,-2015.49,-401.266,-49.3157,37.0252,-25.387
3.788,6346.44,1280.83,9326.31,9.01045,-142.534,44.7069,34172.6,-319.988,-817.099,2.60511,185.42,-24.0678,601.706,12115.2,473.267,28.3421,-14.2859,-133.551,-25662.4,-21729.0,-945.605,-104.113,114.738,-215.759,2392.49,10066.8,-1464.6,2.77137,-66.8987,-71.204,11597.1,-12191.4,531.71,-104.108,111.715,-59.1783,7113.38,-2027.37,-407.805,-48.9436,35.7731,-25.0657
3.7885,6335.38,1282.77,9361.43,9.00722,-143.444,45.3443,34419.5,-367.119,-1060.28,3.65286,183.456,-22.9026,638.786,12167.8,451.645,28.2897,-13.9133,-133.961,-25849.5,-21539.3,-849.635,-103.299,114.447,-213.68,2448.3,10064.3,-1468.63,2.79808,-66.0169,-71.3332,11744.1,-12316.2,535.397,-104.087,111.675,-59.4128,7097.04,-2039.26,-414.344,-48.5715,34.521,-24.7444
3.789,6324.31,1284.7,9396.56,9.00398,-144.354,45.9818,34666.4,-414.25,-1303.45,4.70061,181.492,-21.7373,675.866,12220.3,430.023,28.2372,-13.5406,-134.371,-26036.6,-21349.6,-753.665,-102.485,114.157,-211.6,2504.11,10061.9,-1472.65,2.8248,-65.1351,-71.4624,11891.1,-12441.1,539.085,-104.066,111.636,-59.6473,7080.69,-2051.15,-420.883,-48.1995,33.2689,-24.423
3.7895,6313.25,1286.63,9431.69,9.00074,-145.264,46.6193,34913.2,-461.381,-1546.63,5.74836,179.527,-20.572,712.946,12272.8,408.402,28.1848,-13.168,-134.78,-26223.7,-21159.9,-657.696,-101.671,113.866,-209.52,2559.92,10059.4,-1476.67,2.85151,-64.2533,-71.5916,12038.1,-12565.9,542.772,-104.045,111.596,-59.8818,7064.34,-2063.03,-427.423,-47.8274,32.0168,-24.1017
3.79,6302.19,1288.57,9466.81,8.9975,-146.174,47.2568,35160.1,-508.512,-1789.81,6.79611,177.563,-19.4067,750.026,12325.4,386.78,28.1324,-12.7953,-135.19,-26410.8,-20970.2,-561.726,-100.857,113.575,-207.44,2615.72,10057.0,-1480.69,2.87823,-63.3715,-71.7208,12185.1,-12690.8,546.46,-104.025,111.556,-60.1164,7047.99,-2074.92,-433.962,-47.4553,30.7647,-23.7804
3.7905,6291.12,1290.5,9501.94,8.99427,-147.084,47.8942,35407.0,-555.642,-2032.99,7.84386,175.599,-18.2414,787.106,12377.9,365.158,28.0799,-12.4227,-135.6,-26598.0,-20780.5,-465.756,-100.042,113.284,-205.36,2671.53,10054.5,-1484.71,2.90494,-62.4897,-71.85,12332.0,-12815.6,550.147,-104.004,111.517,-60.3509,7031.64,-2086.8,-440.501,-47.0832,29.5127,-23.4591
3.791,6280.06,1292.44,9537.07,8.99103,-147.995,48.5317,35653.9,-602.773,-2276.16,8.89161,173.635,-17.0761,824.186,12430.4,343.536,28.0275,-12.05,-136.009,-26785.1,-20590.8,-369.786,-99.2283,112.993,-203.28,2727.34,10052.1,-1488.73,2.93165,-61.6079,-71.9792,12479.0,-12940.4,553.835,-103.983,111.477,-60.5854,7015.29,-2098.69,-447.04,-46.7111,28.2606,-23.1378
3.7915,6269.28,1288.73,9582.49,8.77359,-149.07,49.1159,35864.9,-620.37,-2524.34,9.89168,172.084,-16.3561,861.538,12475.6,304.948,28.0364,-11.7315,-136.413,-26964.5,-20349.5,-267.272,-98.5344,112.518,-201.112,2771.11,10056.6,-1479.08,2.95131,-60.9214,-72.0184,12566.7,-12959.2,531.664,-103.754,112.842,-61.1038,6995.64,-2120.59,-458.987,-46.2825,27.1556,-22.9403
3.792,6258.57,1283.41,9630.87,8.49495,-150.193,49.6849,36065.6,-629.528,-2773.94,10.8781,170.652,-15.7632,898.968,12518.6,261.512,28.0628,-11.4284,-136.816,-27141.6,-20093.6,-162.888,-97.8748,111.99,-198.919,2811.44,10063.1,-1465.52,2.96894,-60.2908,-72.0318,12637.4,-12947.7,502.106,-103.465,114.607,-61.7032,6975.04,-2145.35,-472.48,-45.8377,26.0926,-22.7782
3.7925,6247.87,1278.1,9679.24,8.21631,-151.315,50.2539,36266.3,-638.686,-3023.55,11.8645,169.22,-15.1704,936.397,12561.7,218.077,28.0892,-11.1254,-137.218,-27318.8,-19837.6,-58.5047,-97.2153,111.462,-196.726,2851.77,10069.7,-1451.96,2.98658,-59.6601,-72.0452,12708.1,-12936.1,472.547,-103.177,116.372,-62.3027,6954.44,-2170.1,-485.972,-45.3929,25.0297,-22.6162
3.793,6237.16,1272.78,9727.61,7.93767,-152.438,50.8228,36467.0,-647.844,-3273.15,12.851,167.788,-14.5775,973.827,12604.7,174.641,28.1156,-10.8223,-137.62,-27495.9,-19581.6,45.879,-96.5557,110.934,-194.532,2892.1,10076.2,-1438.41,3.00421,-59.0294,-72.0586,12778.9,-12924.6,442.989,-102.888,118.137,-62.9022,6933.84,-2194.86,-499.465,-44.9481,23.9667,-22.4541
3.7935,6226.46,1267.46,9775.98,7.65903,-153.56,51.3918,36667.8,-657.002,-3522.76,13.8374,166.356,-13.9846,1011.26,12647.7,131.205,28.142,-10.5193,-138.023,-27673.1,-19325.7,150.263,-95.8962,110.406,-192.339,2932.43,10082.7,-1424.85,3.02185,-58.3988,-72.0721,12849.6,-12913.1,413.431,-102.6,119.903,-63.5016,6913.25,-2219.62,-512.957,-44.5033,22.9038,-22.2921
3.794,6215.75,1262.15,9824.35,7.38039,-154.683,51.9608,36868.5,-666.161,-3772.36,14.8238,164.924,-13.3918,1048.69,12690.8,87.7696,28.1684,-10.2162,-138.425,-27850.3,-19069.7,254.646,-95.2366,109.877,-190.146,2972.75,10089.3,-1411.29,3.03949,-57.7681,-72.0855,12920.3,-12901.5,383.872,-102.311,121.668,-64.1011,6892.65,-2244.38,-526.45,-44.0584,21.8408,-22.13
3.7945,6205.05,1256.83,9872.73,7.10175,-155.805,52.5297,37069.2,-675.319,-4021.97,15.8103,163.492,-12.7989,1086.11,12733.8,44.3339,28.1948,-9.91317,-138.827,-28027.4,-18813.8,359.03,-94.5771,109.349,-187.953,3013.08,10095.8,-1397.73,3.05712,-57.1374,-72.0989,12991.1,-12890.0,354.314,-102.023,123.433,-64.7005,6872.05,-2269.14,-539.943,-43.6136,20.7778,-21.9679
3.795,6194.34,1251.51,9921.1,6.82312,-156.928,53.0987,37269.9,-684.477,-4271.57,16.7967,162.06,-12.2061,1123.54,12776.8,0.898275,28.2213,-9.61012,-139.229,-28204.6,-18557.8,463.414,-93.9176,108.821,-185.76,3053.41,10102.3,-1384.17,3.07476,-56.5068,-72.1123,13061.8,-12878.5,324.755,-101.734,125.198,-65.3,6851.45,-2293.9,-553.435,-43.1688,19.7149,-21.8059
3.7955,6183.64,1246.2,9969.47,6.54448,-158.051,53.6677,37470.6,-693.635,-4521.17,17.7832,160.628,-11.6132,1160.97,12819.9,-42.5374,28.2477,-9.30707,-139.632,-28381.7,-18301.8,567.798,-93.258,108.293,-183.567,3093.74,10108.9,-1370.61,3.09239,-55.8761,-72.1258,13132.5,-12867.0,295.197,-101.446,126.964,-65.8995,6830.85,-2318.66,-566.928,-42.724,18.6519,-21.6438
3.796,6170.29,1205.11,10004.9,6.1491,-159.23,54.0435,37587.4,-596.865,-4764.04,18.601,159.398,-11.4188,1204.0,12845.4,-100.292,28.3602,-9.17182,-140.025,-28532.3,-18047.3,675.29,-92.6479,107.348,-181.116,3143.07,10170.7,-1366.62,3.15398,-55.389,-72.1982,13177.2,-12795.0,194.915,-99.6526,129.55,-65.9446,6825.29,-2330.73,-561.957,-42.1919,17.5075,-21.3575
3.7965,6156.61,1159.54,10038.7,5.73913,-160.416,54.3951,37693.7,-486.855,-5006.07,19.3977,158.194,-11.2741,1247.74,12868.7,-159.836,28.4834,-9.05754,-140.417,-28679.5,-17792.9,783.172,-92.044,106.351,-178.634,3193.52,10239.4,-1363.82,3.22106,-54.9198,-72.278,13218.5,-12715.5,85.7939,-97.6715,132.238,-65.9205,6821.61,-2341.22,-554.678,-41.6489,16.3529,-21.0556
3.797,6142.93,1113.98,10072.5,5.32916,-161.602,54.7468,37800.0,-376.844,-5248.1,20.1944,156.99,-11.1295,1291.47,12892.0,-219.381,28.6067,-8.94326,-140.81,-28826.7,-17538.5,891.053,-91.4401,105.354,-176.152,3243.97,10308.1,-1361.03,3.28813,-54.4506,-72.3578,13259.9,-12636.1,-23.3277,-95.6905,134.927,-65.8964,6817.93,-2351.7,-547.399,-41.1059,15.1984,-20.7538
3.7975,6129.24,1068.42,10106.4,4.91919,-162.788,55.0985,37906.3,-266.834,-5490.12,20.9911,155.787,-10.9848,1335.2,12915.4,-278.925,28.7299,-8.82898,-141.202,-28973.8,-17284.1,998.934,-90.8362,104.357,-173.67,3294.42,10376.9,-1358.23,3.35521,-53.9814,-72.4376,13301.3,-12556.6,-132.449,-93.7094,137.616,-65.8723,6814.25,-2362.19,-540.12,-40.5628,14.0438,-20.452
3.798,6115.56,1022.86,10140.2,4.50922,-163.975,55.4501,38012.6,-156.823,-5732.15,21.7878,154.583,-10.8402,1378.93,12938.7,-338.469,28.8532,-8.71471,-141.594,-29121.0,-17029.7,1106.82,-90.2323,103.36,-171.187,3344.87,10445.6,-1355.43,3.42229,-53.5122,-72.5174,13342.7,-12477.1,-241.571,-91.7284,140.304,-65.8481,6810.57,-2372.68,-532.842,-40.0198,12.8892,-20.1501
3.7985,6101.88,977.297,10174.0,4.09926,-165.161,55.8018,38118.9,-46.8125,-5974.18,22.5845,153.379,-10.6955,1422.66,12962.0,-398.014,28.9765,-8.60043,-141.987,-29268.2,-16775.3,1214.7,-89.6284,102.363,-168.705,3395.32,10514.3,-1352.63,3.48937,-53.043,-72.5972,13384.1,-12397.6,-350.692,-89.7473,142.993,-65.824,6806.89,-2383.16,-525.563,-39.4768,11.7346,-19.8483
3.799,6088.2,931.735,10207.8,3.68929,-166.347,56.1535,38225.2,63.1981,-6216.21,23.3813,152.175,-10.5509,1466.39,12985.4,-457.558,29.0997,-8.48615,-142.379,-29415.4,-16520.9,1322.58,-89.0245,101.366,-166.223,3445.77,10583.0,-1349.84,3.55644,-52.5739,-72.677,13425.5,-12318.2,-459.814,-87.7663,145.682,-65.7999,6803.21,-2393.65,-518.284,-38.9338,10.58,-19.5464
3.7995,6074.52,886.173,10241.6,3.27932,-167.533,56.5051,38331.5,173.209,-6458.23,24.178,150.971,-10.4062,1510.12,13008.7,-517.103,29.223,-8.37187,-142.771,-29562.6,-16266.5,1430.46,-88.4206,100.369,-163.741,3496.22,10651.8,-1347.04,3.62352,-52.1047,-72.7568,13466.9,-12238.7,-568.935,-85.7852,148.37,-65.7758,6799.53,-2404.14,-511.005,-38.3908,9.42546,-19.2446
3.8,6060.83,840.611,10275.4,2.86935,-168.719,56.8568,38437.8,283.219,-6700.26,24.9747,149.767,-10.2615,1553.85,13032.0,-576.647,29.3462,-8.2576,-143.164,-29709.8,-16012.1,1538.34,-87.8167,99.3717,-161.259,3546.68,10720.5,-1344.24,3.6906,-51.6355,-72.8366,13508.3,-12159.2,-678.057,-83.8042,151.059,-65.7517,6795.85,-2414.63,-503.727,-37.8477,8.27088,-18.9428
3.8005,6043.71,775.15,10310.7,2.30216,-170.038,57.0346,38425.5,445.149,-6982.28,25.3065,148.51,-10.5185,1597.21,13061.1,-636.493,29.4435,-8.41167,-143.599,-29782.6,-15818.6,1691.62,-87.0618,97.9245,-158.207,3618.38,10770.5,-1318.56,3.7932,-51.264,-72.7847,13528.5,-12074.3,-854.927,-80.1948,153.388,-64.7357,6824.18,-2439.19,-506.401,-37.2495,6.85836,-18.635
3.801,6026.58,709.689,10346.0,1.73497,-171.357,57.2125,38413.3,607.079,-7264.31,25.6383,147.253,-10.7755,1640.56,13090.2,-696.339,29.5408,-8.56575,-144.035,-29855.3,-15625.1,1844.89,-86.3069,96.4773,-155.155,3690.07,10820.5,-1292.87,3.8958,-50.8925,-72.7328,13548.6,-11989.3,-1031.8,-76.5855,155.718,-63.7197,6852.51,-2463.76,-509.076,-36.6513,5.44584,-18.3273
3.8015,6009.45,644.229,10381.3,1.16777,-172.676,57.3903,38401.1,769.009,-7546.33,25.97,145.996,-11.0324,1683.92,13119.2,-756.185,29.6381,-8.71982,-144.471,-29928.0,-15431.6,1998.17,-85.552,95.0301,-152.104,3761.77,10870.5,-1267.18,3.9984,-50.521,-72.6809,13568.8,-11904.4,-1208.67,-72.9761,158.047,-62.7037,6880.84,-2488.33,-511.751,-36.0531,4.03332,-18.0196
3.802,5992.32,578.768,10416.6,0.600582,-173.994,57.5681,38388.9,930.939,-7828.35,26.3018,144.739,-11.2894,1727.27,13148.3,-816.031,29.7354,-8.8739,-144.906,-30000.8,-15238.1,2151.44,-84.7971,93.5829,-149.052,3833.47,10920.5,-1241.49,4.101,-50.1495,-72.629,13589.0,-11819.5,-1385.54,-69.3667,160.377,-61.6878,6909.17,-2512.89,-514.425,-35.4549,2.62081,-17.7118
3.8025,5975.19,513.307,10451.9,0.0333899,-175.313,57.7459,38376.6,1092.87,-8110.37,26.6336,143.482,-11.5463,1770.63,13177.3,-875.877,29.8327,-9.02798,-145.342,-30073.5,-15044.6,2304.72,-84.0423,92.1357,-146.001,3905.17,10970.6,-1215.8,4.2036,-49.778,-72.577,13609.2,-11734.5,-1562.41,-65.7574,162.706,-60.6718,6937.5,-2537.46,-517.1,-34.8567,1.20829,-17.4041
3.803,5958.06,447.846,10487.2,-0.533802,-176.632,57.9237,38364.4,1254.8,-8392.39,26.9654,142.225,-11.8033,1813.98,13206.4,-935.723,29.9299,-9.18205,-145.777,-30146.3,-14851.1,2457.99,-83.2874,90.6885,-142.949,3976.87,11020.6,-1190.11,4.3062,-49.4065,-72.5251,13629.4,-11649.6,-1739.28,-62.148,165.035,-59.6558,6965.83,-2562.03,-519.775,-34.2585,-0.20423,-17.0964
3.8035,5940.94,382.386,10522.5,-1.10099,-177.95,58.1016,38352.2,1416.73,-8674.42,27.2972,140.968,-12.0602,1857.34,13235.5,-995.569,30.0272,-9.33613,-146.213,-30219.0,-14657.6,2611.27,-82.5325,89.2412,-139.898,4048.57,11070.6,-1164.43,4.4088,-49.035,-72.4732,13649.6,-11564.6,-1916.15,-58.5387,167.365,-58.6398,6994.16,-2586.59,-522.449,-33.6603,-1.61675,-16.7886
3.804,5923.81,316.925,10557.8,-1.66819,-179.269,58.2794,38340.0,1578.66,-8956.44,27.629,139.711,-12.3172,1900.69,13264.5,-1055.41,30.1245,-9.4902,-146.649,-30291.7,-14464.1,2764.54,-81.7776,87.7941,-136.846,4120.27,11120.6,-1138.74,4.5114,-48.6635,-72.4213,13669.8,-11479.7,-2093.02,-54.9293,169.694,-57.6239,7022.49,-2611.16,-525.124,-33.0621,-3.02927,-16.4809
3.8045,5905.18,254.609,10594.2,-2.24684,-180.602,58.452,38315.9,1730.73,-9233.22,27.9112,138.406,-12.643,1941.75,13293.1,-1113.48,30.2215,-9.66588,-147.083,-30360.9,-14282.8,2910.47,-81.005,86.3297,-133.756,4191.14,11171.7,-1114.2,4.59735,-48.3021,-72.3421,13683.6,-11394.6,-2272.31,-51.1433,171.859,-56.5169,7054.39,-2635.47,-523.592,-32.4667,-4.4549,-16.1859
3.805,5874.6,217.456,10639.2,-2.91723,-182.046,58.5831,38196.7,1803.92,-9468.06,27.7968,136.719,-13.5195,1964.43,13317.2,-1157.27,30.3156,-10.0144,-147.503,-30400.9,-14199.0,2997.63,-80.0906,84.7286,-130.361,4255.3,11231.8,-1098.87,4.55013,-48.0211,-72.0448,13646.3,-11308.0,-2470.99,-45.9445,172.708,-54.6821,7114.84,-2657.76,-488.406,-31.8941,-5.98547,-15.9925
3.8055,5844.02,180.302,10684.3,-3.58762,-183.49,58.7142,38077.6,1877.12,-9702.9,27.6824,135.031,-14.3961,1987.11,13341.4,-1201.06,30.4098,-10.3629,-147.922,-30441.0,-14115.2,3084.79,-79.1763,83.1275,-126.965,4319.46,11291.9,-1083.54,4.50291,-47.7402,-71.7476,13608.9,-11221.4,-2669.68,-40.7457,173.556,-52.8473,7175.28,-2680.05,-453.221,-31.3214,-7.51605,-15.7991
3.806,5813.43,143.149,10729.3,-4.25801,-184.934,58.8453,37958.5,1950.31,-9937.74,27.5681,133.344,-15.2726,2009.79,13365.5,-1244.85,30.504,-10.7114,-148.342,-30481.1,-14031.3,3171.95,-78.2619,81.5263,-123.57,4383.63,11352.0,-1068.21,4.4557,-47.4593,-71.4503,13571.6,-11134.8,-2868.36,-35.5469,174.405,-51.0125,7235.73,-2702.35,-418.035,-30.7488,-9.04662,-15.6057
3.8065,5782.85,105.995,10774.3,-4.9284,-186.378,58.9764,37839.3,2023.5,-10172.6,27.4537,131.657,-16.1492,2032.46,13389.7,-1288.64,30.5981,-11.0599,-148.762,-30521.2,-13947.5,3259.1,-77.3475,79.9252,-120.175,4447.79,11412.1,-1052.88,4.40848,-47.1784,-71.153,13534.3,-11048.2,-3067.04,-30.3481,175.254,-49.1777,7296.17,-2724.64,-382.849,-30.1761,-10.5772,-15.4124
3.807,5752.26,68.8417,10819.4,-5.59879,-187.822,59.1075,37720.2,2096.69,-10407.4,27.3393,129.969,-17.0257,2055.14,13413.8,-1332.44,30.6923,-11.4084,-149.182,-30561.3,-13863.7,3346.26,-76.4332,78.324,-116.779,4511.96,11472.2,-1037.55,4.36126,-46.8974,-70.8557,13497.0,-10961.6,-3265.72,-25.1493,176.103,-47.3429,7356.62,-2746.93,-347.664,-29.6034,-12.1078,-15.219
3.8075,5721.68,31.6882,10864.4,-6.26918,-189.266,59.2386,37601.1,2169.89,-10642.3,27.225,128.282,-17.9022,2077.82,13437.9,-1376.23,30.7865,-11.7569,-149.602,-30601.4,-13779.9,3433.42,-75.5188,76.7229,-113.384,4576.12,11532.3,-1022.22,4.31405,-46.6165,-70.5584,13459.7,-10875.0,-3464.41,-19.9504,176.951,-45.5081,7417.06,-2769.22,-312.478,-29.0308,-13.6383,-15.0256
3.808,5691.1,-5.46531,10909.5,-6.93957,-190.711,59.3697,37482.0,2243.08,-10877.1,27.1106,126.595,-18.7788,2100.5,13462.1,-1420.02,30.8806,-12.1054,-150.022,-30641.5,-13696.0,3520.58,-74.6045,75.1218,-109.988,4640.28,11592.5,-1006.89,4.26683,-46.3356,-70.2611,13422.4,-10788.4,-3663.09,-14.7516,177.8,-43.6732,7477.51,-2791.51,-277.292,-28.4581,-15.1689,-14.8323
3.8085,5660.51,-42.6188,10954.5,-7.60996,-192.155,59.5008,37362.8,2316.27,-11111.9,26.9962,124.908,-19.6553,2123.17,13486.2,-1463.81,30.9748,-12.4539,-150.442,-30681.5,-13612.2,3607.74,-73.6901,73.5206,-106.593,4704.45,11652.6,-991.561,4.21961,-46.0547,-69.9639,13385.0,-10701.8,-3861.77,-9.55282,178.649,-41.8384,7537.95,-2813.8,-242.106,-27.8855,-16.6995,-14.6389
3.809,5633.4,-78.4271,10993.8,-8.30491,-193.619,59.5931,37231.9,2365.74,-11327.2,26.8444,123.055,-20.6283,2149.83,13509.6,-1504.7,31.0627,-12.8403,-150.885,-30711.6,-13544.9,3682.71,-72.6809,71.8646,-103.227,4773.89,11711.0,-979.731,4.15999,-45.7779,-69.638,13337.1,-10630.4,-4019.41,-4.60874,179.03,-40.0351,7604.61,-2834.55,-212.273,-27.2856,-18.2085,-14.4596
3.8095,5618.42,-109.527,11013.1,-9.0858,-195.154,59.5499,37059.7,2332.16,-11473.8,26.5615,120.623,-21.9389,2190.42,13530.1,-1535.44,31.1288,-13.359,-151.407,-30706.6,-13535.4,3715.06,-71.34,70.0165,-99.9637,4861.82,11763.8,-980.149,4.05695,-45.5157,-69.2119,13251.8,-10611.9,-4033.39,-0.556244,177.774,-38.3418,7693.03,-2849.91,-201.174,-26.5906,-19.6421,-14.3295
3.81,5603.44,-140.627,11032.4,-9.86669,-196.69,59.5066,36887.5,2298.58,-11620.4,26.2786,118.192,-23.2494,2231.01,13550.6,-1566.17,31.1949,-13.8777,-151.929,-30701.6,-13525.9,3747.41,-69.9991,68.1685,-96.7008,4949.75,11816.5,-980.567,3.95391,-45.2534,-68.7859,13166.6,-10593.4,-4047.38,3.49625,176.518,-36.6486,7781.45,-2865.27,-190.076,-25.8957,-21.0757,-14.1994
3.8105,5588.46,-171.727,11051.6,-10.6476,-198.225,59.4634,36715.3,2265.0,-11767.0,25.9956,115.76,-24.56,2271.6,13571.1,-1596.9,31.2609,-14.3964,-152.45,-30696.6,-13516.5,3779.76,-68.6582,66.3204,-93.4378,5037.67,11869.3,-980.985,3.85087,-44.9912,-68.3599,13081.4,-10574.9,-4061.36,7.54875,175.263,-34.9553,7869.87,-2880.63,-178.977,-25.2007,-22.5093,-14.0694
3.811,5573.48,-202.826,11070.9,-11.4285,-199.76,59.4201,36543.1,2231.42,-11913.7,25.7127,113.329,-25.8706,2312.19,13591.6,-1627.63,31.327,-14.9151,-152.972,-30691.6,-13507.0,3812.11,-67.3173,64.4723,-90.1749,5125.6,11922.0,-981.403,3.74783,-44.729,-67.9339,12996.1,-10556.4,-4075.35,11.6013,174.007,-33.2621,7958.29,-2895.99,-167.878,-24.5057,-23.9429,-13.9393
3.8115,5558.5,-233.926,11090.2,-12.2094,-201.295,59.3769,36370.9,2197.84,-12060.3,25.4298,110.897,-27.1811,2352.78,13612.1,-1658.37,31.3931,-15.4338,-153.494,-30686.6,-13497.5,3844.46,-65.9763,62.6242,-86.9119,5213.53,11974.8,-981.821,3.64479,-44.4668,-67.5079,12910.9,-10538.0,-4089.33,15.6538,172.751,-31.5688,8046.71,-2911.35,-156.779,-23.8107,-25.3765,-13.8092
3.812,5543.52,-265.026,11109.5,-12.9903,-202.831,59.3336,36198.7,2164.26,-12206.9,25.1468,108.466,-28.4917,2393.37,13632.6,-1689.1,31.4592,-15.9525,-154.016,-30681.6,-13488.0,3876.8,-64.6354,60.7761,-83.649,5301.45,12027.5,-982.24,3.54176,-44.2045,-67.0818,12825.7,-10519.5,-4103.32,19.7062,171.495,-29.8755,8135.13,-2926.71,-145.68,-23.1157,-26.8101,-13.6792
3.8125,5528.54,-296.126,11128.7,-13.7711,-204.366,59.2904,36026.5,2130.68,-12353.6,24.8639,106.034,-29.8023,2433.96,13653.1,-1719.83,31.5253,-16.4712,-154.538,-30676.6,-13478.5,3909.15,-63.2945,58.9281,-80.386,5389.38,12080.2,-982.658,3.43872,-43.9423,-66.6558,12740.4,-10501.0,-4117.3,23.7587,170.24,-28.1823,8223.55,-2942.08,-134.582,-22.4207,-28.2437,-13.5491
3.813,5513.56,-327.226,11148.0,-14.552,-205.901,59.2471,35854.3,2097.1,-12500.2,24.581,103.603,-31.1128,2474.55,13673.7,-1750.57,31.5913,-16.99,-155.06,-30671.6,-13469.0,3941.5,-61.9536,57.08,-77.1231,5477.31,12133.0,-983.076,3.33568,-43.6801,-66.2298,12655.2,-10482.5,-4131.28,27.8112,168.984,-26.489,8311.97,-2957.44,-123.483,-21.7258,-29.6773,-13.419
3.8135,5491.16,-355.929,11169.9,-15.3773,-207.489,59.1394,35689.5,2083.23,-12645.6,24.2168,101.026,-32.3948,2510.73,13696.0,-1785.96,31.666,-17.5696,-155.583,-30635.8,-13434.0,3976.6,-60.5216,55.2365,-73.897,5564.73,12181.4,-990.544,3.21678,-43.4064,-65.7665,12559.1,-10435.7,-4130.14,31.4149,167.039,-24.809,8397.07,-2979.91,-121.527,-21.0774,-31.0181,-13.2886
3.814,5453.9,-379.841,11196.9,-16.2915,-209.18,58.9029,35539.7,2108.79,-12788.5,23.69,98.1603,-33.6195,2538.09,13721.9,-1830.68,31.7577,-18.2712,-156.109,-30538.2,-13347.8,4017.19,-58.9075,53.4021,-70.7446,5651.12,12221.3,-1012.11,3.06616,-43.1098,-65.2288,12441.4,-10332.1,-4098.74,34.1209,163.716,-23.1553,8475.51,-3016.61,-137.856,-20.5225,-32.1732,-13.1573
3.8145,5416.64,-403.752,11224.0,-17.2056,-210.872,58.6664,35389.9,2134.34,-12931.5,23.1633,95.2944,-34.8443,2565.46,13747.8,-1875.4,31.8494,-18.9728,-156.634,-30440.6,-13261.6,4057.79,-57.2933,51.5677,-67.5922,5737.52,12261.2,-1033.68,2.91554,-42.8132,-64.6911,12323.8,-10228.6,-4067.34,36.8268,160.392,-21.5016,8553.96,-3053.31,-154.185,-19.9675,-33.3282,-13.026
3.815,5379.38,-427.663,11251.1,-18.1197,-212.564,58.4299,35240.2,2159.9,-13074.4,22.6366,92.4285,-36.069,2592.82,13773.8,-1920.12,31.9412,-19.6743,-157.16,-30343.0,-13175.4,4098.39,-55.6792,49.7332,-64.4398,5823.92,12301.1,-1055.25,2.76493,-42.5165,-64.1534,12206.1,-10125.1,-4035.93,39.5328,157.069,-19.8479,8632.41,-3090.02,-170.514,-19.4126,-34.4833,-12.8947
3.8155,5342.13,-451.574,11278.2,-19.0339,-214.256,58.1934,35090.4,2185.45,-13217.4,22.1099,89.5626,-37.2938,2620.18,13799.7,-1964.85,32.0329,-20.3759,-157.686,-30245.4,-13089.2,4138.99,-54.0651,47.8988,-61.2874,5910.31,12341.0,-1076.82,2.61431,-42.2199,-63.6157,12088.4,-10021.5,-4004.53,42.2388,153.745,-18.1942,8710.85,-3126.72,-186.843,-18.8576,-35.6384,-12.7634
3.816,5304.87,-475.486,11305.2,-19.948,-215.947,57.9569,34940.6,2211.01,-13360.3,21.5832,86.6967,-38.5185,2647.54,13825.6,-2009.57,32.1247,-21.0775,-158.212,-30147.8,-13003.0,4179.58,-52.4509,46.0644,-58.135,5996.71,12380.8,-1098.39,2.46369,-41.9233,-63.078,11970.7,-9918.02,-3973.13,44.9447,150.422,-16.5405,8789.3,-3163.42,-203.172,-18.3027,-36.7935,-12.6321
3.8165,5267.61,-499.397,11332.3,-20.8621,-217.639,57.7204,34790.8,2236.57,-13503.3,21.0564,83.8308,-39.7433,2674.9,13851.6,-2054.29,32.2164,-21.779,-158.737,-30050.2,-12916.8,4220.18,-50.8368,44.23,-54.9826,6083.1,12420.7,-1119.96,2.31307,-41.6267,-62.5402,11853.0,-9814.49,-3941.73,47.6507,147.098,-14.8868,8867.75,-3200.12,-219.501,-17.7477,-37.9485,-12.5008
3.817,5230.35,-523.308,11359.4,-21.7763,-219.331,57.4839,34641.0,2262.12,-13646.2,20.5297,80.9649,-40.968,2702.26,13877.5,-2099.01,32.3082,-22.4806,-159.263,-29952.6,-12830.6,4260.78,-49.2227,42.3956,-51.8303,6169.5,12460.6,-1141.53,2.16245,-41.3301,-62.0025,11735.4,-9710.96,-3910.33,50.3566,143.775,-13.2331,8946.19,-3236.82,-235.83,-17.1928,-39.1036,-12.3696
3.8175,5193.09,-547.219,11386.5,-22.6904,-221.022,57.2474,34491.2,2287.68,-13789.2,20.003,78.099,-42.1927,2729.62,13903.4,-2143.73,32.3999,-23.1822,-159.789,-29854.9,-12744.4,4301.37,-47.6085,40.5612,-48.6779,6255.9,12500.5,-1163.1,2.01184,-41.0334,-61.4648,11617.7,-9607.44,-3878.93,53.0626,140.452,-11.5794,9024.64,-3273.52,-252.16,-16.6378,-40.2587,-12.2383
3.818,5162.52,-569.102,11415.5,-23.6932,-222.779,56.985,34335.8,2335.8,-13926.8,19.2913,75.2365,-43.3677,2769.38,13936.9,-2180.57,32.4709,-23.9701,-160.312,-29728.8,-12625.7,4319.96,-46.1441,38.9772,-45.431,6352.96,12525.4,-1186.87,1.86233,-40.7821,-60.8462,11469.7,-9503.3,-3764.09,55.3367,136.273,-9.69257,9117.21,-3293.79,-261.817,-16.0488,-41.2628,-12.0924
3.8185,5140.29,-588.449,11447.0,-24.8067,-224.618,56.6904,34173.5,2412.15,-14057.7,18.3484,72.3782,-44.4803,2824.64,13979.9,-2207.56,32.5161,-24.8659,-160.833,-29566.9,-12466.4,4311.05,-44.8666,37.7064,-42.0659,6463.34,12531.8,-1213.38,1.71422,-40.5873,-60.1265,11284.0,-9398.41,-3544.95,57.071,131.026,-7.51433,9227.42,-3293.5,-263.134,-15.4173,-42.0781,-11.9283
3.819,5118.07,-607.796,11478.5,-25.9203,-226.456,56.3957,34011.1,2488.49,-14188.7,17.4055,69.52,-45.5929,2879.9,14022.9,-2234.54,32.5612,-25.7617,-161.353,-29405.1,-12307.0,4302.13,-43.5892,36.4355,-38.7009,6573.72,12538.1,-1239.9,1.56611,-40.3925,-59.4068,11098.3,-9293.51,-3325.81,58.8053,125.779,-5.33609,9337.63,-3293.22,-264.451,-14.7857,-42.8934,-11.7642
3.8195,5095.84,-627.143,11510.0,-27.0339,-228.294,56.101,33848.8,2564.83,-14319.7,16.4625,66.6618,-46.7056,2935.16,14065.9,-2261.53,32.6064,-26.6575,-161.873,-29243.2,-12147.7,4293.21,-42.3118,35.1646,-35.3358,6684.1,12544.4,-1266.41,1.418,-40.1977,-58.6872,10912.5,-9188.62,-3106.67,60.5396,120.532,-3.15786,9447.84,-3292.93,-265.768,-14.1542,-43.7087,-11.6001
3.82,5073.62,-646.49,11541.5,-28.1475,-230.133,55.8063,33686.5,2641.17,-14450.7,15.5196,63.8035,-47.8182,2990.42,14108.9,-2288.51,32.6515,-27.5533,-162.394,-29081.4,-11988.3,4284.3,-41.0344,33.8937,-31.9708,6794.49,12550.8,-1292.93,1.26989,-40.0029,-57.9675,10726.8,-9083.73,-2887.53,62.2739,115.285,-0.97962,9558.05,-3292.65,-267.085,-13.5226,-44.5241,-11.4361
3.8205,5051.39,-665.836,11573.0,-29.2611,-231.971,55.5117,33524.1,2717.51,-14581.6,14.5767,60.9453,-48.9308,3045.68,14151.9,-2315.5,32.6966,-28.4491,-162.914,-28919.5,-11829.0,4275.38,-39.757,32.6229,-28.6057,6904.87,12557.1,-1319.44,1.12178,-39.8081,-57.2478,10541.0,-8978.83,-2668.39,64.0082,110.038,1.19862,9668.26,-3292.37,-268.402,-12.8911,-45.3394,-11.272
3.821,5029.17,-685.183,11604.5,-30.3746,-233.809,55.217,33361.8,2793.86,-14712.6,13.6338,58.0871,-50.0435,3100.94,14194.9,-2342.48,32.7418,-29.3449,-163.435,-28757.6,-11669.6,4266.46,-38.4796,31.352,-25.2407,7015.25,12563.4,-1345.95,0.973665,-39.6133,-56.5281,10355.3,-8873.94,-2449.25,65.7424,104.791,3.37685,9778.47,-3292.08,-269.719,-12.2595,-46.1547,-11.1079
3.8215,5006.94,-704.53,11636.0,-31.4882,-235.648,54.9223,33199.5,2870.2,-14843.6,12.6909,55.2288,-51.1561,3156.19,14237.9,-2369.47,32.7869,-30.2408,-163.955,-28595.8,-11510.3,4257.55,-37.2021,30.0811,-21.8756,7125.64,12569.8,-1372.47,0.825554,-39.4185,-55.8084,10169.5,-8769.04,-2230.11,67.4767,99.5436,5.55509,9888.68,-3291.8,-271.036,-11.628,-46.97,-10.9438
3.822,4984.72,-723.877,11667.5,-32.6018,-237.486,54.6277,33037.1,2946.54,-14974.5,11.748,52.3706,-52.2687,3211.45,14280.9,-2396.45,32.8321,-31.1366,-164.475,-28433.9,-11350.9,4248.63,-35.9247,28.8102,-18.5106,7236.02,12576.1,-1398.98,0.677443,-39.2237,-55.0888,9983.79,-8664.15,-2010.98,69.211,94.2965,7.73333,9998.89,-3291.51,-272.354,-10.9964,-47.7854,-10.7797
3.8225,4970.13,-760.409,11700.5,-33.8228,-239.476,54.308,32859.8,3002.64,-15076.7,10.4686,49.6323,-53.2999,3258.97,14316.4,-2421.06,32.8664,-32.1762,-165.049,-28250.4,-11217.9,4236.56,-34.8543,27.9832,-15.0733,7344.82,12585.7,-1432.78,0.48617,-39.0127,-54.3944,9752.73,-8529.87,-1758.41,69.8575,88.7261,10.0394,10093.7,-3281.89,-286.017,-10.4516,-48.3119,-10.7012
3.823,4961.67,-810.689,11734.7,-35.1298,-241.587,53.9683,32670.5,3042.56,-15155.8,8.92014,46.9899,-54.2659,3300.28,14346.0,-2443.75,32.892,-33.331,-165.665,-28049.5,-11106.0,4221.96,-33.9493,27.5113,-11.5783,7452.36,12598.0,-1472.41,0.260367,-38.7889,-53.7202,9485.43,-8372.08,-1479.1,69.6337,82.8969,12.4478,10176.3,-3264.81,-309.557,-9.97617,-48.6074,-10.6912
3.8235,4953.2,-860.969,11768.8,-36.4368,-243.698,53.6286,32481.2,3082.48,-15234.8,7.37166,44.3476,-55.2319,3341.6,14375.6,-2466.45,32.9177,-34.4857,-166.282,-27848.6,-10994.2,4207.36,-33.0444,27.0394,-8.08323,7559.9,12610.3,-1512.05,0.0345649,-38.565,-53.046,9218.13,-8214.3,-1199.79,69.4099,77.0678,14.8562,10258.8,-3247.73,-333.096,-9.50074,-48.903,-10.6811
3.824,4944.73,-911.249,11802.9,-37.7438,-245.809,53.2889,32291.9,3122.39,-15313.9,5.82318,41.7052,-56.1979,3382.91,14405.2,-2489.15,32.9433,-35.6404,-166.898,-27647.6,-10882.3,4192.76,-32.1395,26.5675,-4.58818,7667.44,12622.5,-1551.68,-0.191237,-38.3412,-52.3719,8950.83,-8056.51,-920.485,69.1861,71.2387,17.2647,10341.3,-3230.64,-356.636,-9.02531,-49.1985,-10.6711
3.8245,4936.26,-961.529,11837.1,-39.0507,-247.921,52.9492,32102.6,3162.31,-15393.0,4.2747,39.0628,-57.164,3424.23,14434.8,-2511.85,32.9689,-36.7952,-167.514,-27446.7,-10770.4,4178.17,-31.2346,26.0955,-1.09313,7774.98,12634.8,-1591.31,-0.41704,-38.1173,-51.6977,8683.53,-7898.72,-641.177,68.9623,65.4095,19.6731,10423.9,-3213.56,-380.176,-8.54987,-49.494,-10.661
3.825,4927.79,-1011.81,11871.2,-40.3577,-250.032,52.6095,31913.2,3202.22,-15472.1,2.72622,36.4205,-58.13,3465.55,14464.4,-2534.54,32.9946,-37.9499,-168.131,-27245.8,-10658.5,4163.57,-30.3297,25.6236,2.40192,7882.52,12647.1,-1630.94,-0.642842,-37.8934,-51.0235,8416.24,-7740.93,-361.869,68.7386,59.5804,22.0815,10506.4,-3196.47,-403.716,-8.07444,-49.7895,-10.651
3.8255,4919.32,-1062.09,11905.4,-41.6647,-252.143,52.2698,31723.9,3242.14,-15551.2,1.17775,33.7781,-59.096,3506.86,14494.0,-2557.24,33.0202,-39.1047,-168.747,-27044.9,-10546.7,4148.97,-29.4248,25.1517,5.89697,7990.05,12659.3,-1670.57,-0.868645,-37.6696,-50.3493,8148.94,-7583.15,-82.5607,68.5148,53.7513,24.4899,10589.0,-3179.39,-427.256,-7.59901,-50.0851,-10.6409
3.826,4910.86,-1112.37,11939.5,-42.9717,-254.254,51.9301,31534.6,3282.05,-15630.2,-0.370731,31.1357,-60.062,3548.18,14523.6,-2579.94,33.0459,-40.2594,-169.363,-26844.0,-10434.8,4134.37,-28.5199,24.6798,9.39202,8097.59,12671.6,-1710.2,-1.09445,-37.4457,-49.6752,7881.64,-7425.36,196.747,68.291,47.9221,26.8983,10671.5,-3162.3,-450.795,-7.12358,-50.3806,-10.6309
3.8265,4902.39,-1162.65,11973.6,-44.2787,-256.365,51.5904,31345.3,3321.97,-15709.3,-1.91921,28.4934,-61.028,3589.49,14553.2,-2602.64,33.0715,-41.4142,-169.98,-26643.1,-10322.9,4119.77,-27.6149,24.2078,12.8871,8205.13,12683.9,-1749.83,-1.32025,-37.2219,-49.001,7614.34,-7267.57,476.055,68.0672,42.093,29.3067,10754.0,-3145.22,-474.335,-6.64815,-50.6761,-10.6208
3.827,4886.07,-1197.31,11997.4,-45.7701,-258.565,51.1259,31149.0,3348.51,-15718.4,-4.27549,25.841,-62.0955,3644.09,14589.8,-2630.09,33.122,-42.6753,-170.614,-26418.8,-10291.7,4094.4,-26.7894,24.228,16.33,8313.55,12691.1,-1780.87,-1.60783,-37.109,-48.3096,7315.2,-7121.58,673.205,66.9187,37.6732,31.3509,10847.7,-3119.26,-504.749,-6.28523,-50.5854,-10.6395
3.8275,4865.83,-1224.15,12015.9,-47.3537,-260.811,50.5991,30949.1,3368.36,-15692.4,-7.03568,23.1838,-63.2137,3705.32,14629.9,-2659.91,33.1849,-43.9897,-171.259,-26182.7,-10300.9,4063.64,-26.0035,24.4941,19.7468,8422.42,12695.8,-1807.61,-1.92631,-37.0517,-47.6095,7000.13,-6981.5,829.274,65.3079,33.958,33.2131,10946.9,-3088.87,-538.599,-5.97857,-50.3017,-10.6724
3.828,4845.59,-1251.0,12034.4,-48.9374,-263.056,50.0723,30749.2,3388.2,-15666.4,-9.79586,20.5265,-64.3319,3766.55,14670.0,-2689.74,33.2478,-45.3042,-171.903,-25946.7,-10310.1,4032.88,-25.2176,24.7603,23.1636,8531.28,12700.5,-1834.35,-2.24479,-36.9944,-46.9094,6685.07,-6841.41,985.344,63.6971,30.2429,35.0752,11046.2,-3058.47,-572.45,-5.67192,-50.0179,-10.7054
3.8285,4825.35,-1277.85,12053.0,-50.521,-265.301,49.5454,30549.3,3408.05,-15640.4,-12.556,17.8692,-65.4501,3827.78,14710.0,-2719.56,33.3107,-46.6186,-172.547,-25710.7,-10319.3,4002.12,-24.4318,25.0264,26.5804,8640.15,12705.2,-1861.09,-2.56326,-36.937,-46.2094,6370.01,-6701.32,1141.41,62.0863,26.5277,36.9374,11145.4,-3028.08,-606.3,-5.36526,-49.7341,-10.7384
3.829,4805.11,-1304.69,12071.5,-52.1047,-267.546,49.0186,30349.4,3427.9,-15614.4,-15.3162,15.2119,-66.5683,3889.01,14750.1,-2749.39,33.3736,-47.933,-173.191,-25474.7,-10328.5,3971.36,-23.6459,25.2925,29.9972,8749.01,12709.9,-1887.83,-2.88174,-36.8797,-45.5093,6054.95,-6561.23,1297.48,60.4754,22.8126,38.7995,11244.6,-2997.68,-640.151,-5.0586,-49.4503,-10.7714
3.8295,4784.87,-1331.54,12090.0,-53.6883,-269.791,48.4918,30149.5,3447.75,-15588.4,-18.0764,12.5546,-67.6865,3950.25,14790.2,-2779.21,33.4365,-49.2474,-173.835,-25238.6,-10337.7,3940.6,-22.86,25.5587,33.414,8857.88,12714.6,-1914.57,-3.20022,-36.8224,-44.8092,5739.88,-6421.14,1453.55,58.8646,19.0974,40.6617,11343.9,-2967.29,-674.002,-4.75195,-49.1666,-10.8044
3.83,4764.63,-1358.38,12108.6,-55.272,-272.036,47.965,29949.6,3467.6,-15562.4,-20.8366,9.89736,-68.8047,4011.48,14830.2,-2809.04,33.4994,-50.5618,-174.479,-25002.6,-10346.9,3909.83,-22.0741,25.8248,36.8308,8966.74,12719.3,-1941.31,-3.51869,-36.7651,-44.1092,5424.82,-6281.05,1609.62,57.2538,15.3823,42.5239,11443.1,-2936.9,-707.852,-4.44529,-48.8828,-10.8374
3.8305,4744.39,-1385.23,12127.1,-56.8556,-274.281,47.4381,29749.7,3487.45,-15536.4,-23.5968,7.24007,-69.9229,4072.71,14870.3,-2838.86,33.5623,-51.8762,-175.124,-24766.6,-10356.1,3879.07,-21.2882,26.091,40.2477,9075.6,12724.0,-1968.05,-3.83717,-36.7078,-43.4091,5109.76,-6140.97,1765.69,55.6429,11.6671,44.386,11542.3,-2906.5,-741.703,-4.13863,-48.599,-10.8703
3.831,4724.15,-1412.08,12145.6,-58.4393,-276.526,46.9113,29549.8,3507.29,-15510.4,-26.357,4.58279,-71.0411,4133.94,14910.4,-2868.69,33.6252,-53.1906,-175.768,-24530.6,-10365.3,3848.31,-20.5024,26.3571,43.6645,9184.47,12728.7,-1994.79,-4.15564,-36.6504,-42.709,4794.7,-6000.88,1921.76,54.0321,7.95199,46.2482,11641.6,-2876.11,-775.553,-3.83198,-48.3152,-10.9033
3.8315,4704.17,-1436.81,12165.4,-60.1017,-278.974,46.3202,29424.1,3580.78,-15667.4,-34.4453,3.47102,-73.2382,4178.31,14935.6,-2890.58,33.7237,-54.6375,-176.411,-24249.1,-10413.7,3789.04,-19.574,27.1582,46.7894,9298.78,12709.5,-1992.09,-4.55869,-36.6431,-41.9794,4464.32,-5891.99,1918.67,51.6965,7.35971,47.5349,11751.7,-2823.22,-819.94,-3.95202,-47.4645,-10.8806
3.832,4684.25,-1460.94,12185.6,-61.7866,-281.48,45.7108,29319.6,3669.6,-15876.5,-44.0558,2.80081,-75.7437,4217.86,14956.6,-2910.21,33.8325,-56.1221,-177.055,-23954.7,-10473.3,3721.61,-18.6048,28.1121,49.831,9414.64,12683.5,-1980.98,-4.9859,-36.6501,-41.2414,4129.58,-5792.02,1870.09,49.1539,7.65968,48.6573,11865.0,-2763.91,-867.336,-4.19399,-46.4517,-10.8419
3.8325,4664.34,-1485.08,12205.7,-63.4715,-283.987,45.1014,29215.2,3758.41,-16085.7,-53.6664,2.13061,-78.2491,4257.42,14977.6,-2929.84,33.9412,-57.6068,-177.699,-23660.3,-10532.9,3654.19,-17.6357,29.0661,52.8726,9530.51,12657.5,-1969.86,-5.4131,-36.657,-40.5033,3794.83,-5692.04,1821.52,46.6113,7.95965,49.7797,11978.3,-2704.6,-914.733,-4.43595,-45.4389,-10.8032
3.833,4644.42,-1509.21,12225.9,-65.1564,-286.493,44.492,29110.7,3847.22,-16294.9,-63.277,1.46041,-80.7546,4296.97,14998.5,-2949.47,34.05,-59.0914,-178.342,-23365.9,-10592.5,3586.77,-16.6665,30.02,55.9141,9646.38,12631.4,-1958.75,-5.84031,-36.664,-39.7653,3460.08,-5592.07,1772.95,44.0686,8.25962,50.9021,12091.6,-2645.29,-962.13,-4.67791,-44.4261,-10.7645
3.8335,4624.51,-1533.34,12246.0,-66.8413,-289.0,43.8826,29006.2,3936.04,-16504.1,-72.8876,0.790207,-83.26,4336.52,15019.5,-2969.1,34.1587,-60.5761,-178.986,-23071.5,-10652.1,3519.34,-15.6974,30.9739,58.9557,9762.24,12605.4,-1947.64,-6.26752,-36.671,-39.0273,3125.34,-5492.1,1724.38,41.526,8.55959,52.0244,12204.9,-2585.98,-1009.53,-4.91988,-43.4134,-10.7258
3.834,4604.6,-1557.47,12266.2,-68.5262,-291.506,43.2731,28901.7,4024.85,-16713.3,-82.4982,0.120005,-85.7654,4376.07,15040.5,-2988.74,34.2675,-62.0608,-179.63,-22777.1,-10711.7,3451.92,-14.7282,31.9278,61.9972,9878.11,12579.4,-1936.52,-6.69472,-36.6779,-38.2892,2790.59,-5392.13,1675.81,38.9833,8.85955,53.1468,12318.2,-2526.67,-1056.92,-5.16184,-42.4006,-10.6871
3.8345,4584.68,-1581.6,12286.4,-70.2111,-294.013,42.6637,28797.2,4113.67,-16922.5,-92.1088,-0.550198,-88.2709,4415.62,15061.5,-3008.37,34.3762,-63.5454,-180.273,-22482.7,-10771.3,3384.5,-13.7591,32.8817,65.0388,9993.97,12553.4,-1925.41,-7.12193,-36.6849,-37.5512,2455.85,-5292.15,1627.24,36.4407,9.15952,54.2692,12431.5,-2467.36,-1104.32,-5.4038,-41.3878,-10.6484
