Time,RFoot_accel.x,RFoot_accel.y,RFoot_accel.z,RFoot_gyro.x,RFoot_gyro.y,RFoot_gyro.z,LFoot_accel.x,LFoot_accel.y,LFoot_accel.z,LFoot_gyro.x,LFoot_gyro.y,LFoot_gyro.z,RShank_accel.x,RShank_accel.y,RShank_accel.z,RShank_gyro.x,RShank_gyro.y,RShank_gyro.z,LShank_accel.x,LShank_accel.y,LShank_accel.z,LShank_gyro.x,LShank_gyro.y,LShank_gyro.z,RThigh_accel.x,RThigh_accel.y,RThigh_accel.z,RThigh_gyro.x,RThigh_gyro.y,RThigh_gyro.z,LThigh_accel.x,LThigh_accel.y,LThigh_accel.z,LThigh_gyro.x,LThigh_gyro.y,LThigh_gyro.z,Pelvis_accel.x,Pelvis_accel.y,Pelvis_accel.z,Pelvis_gyro.x,Pelvis_gyro.y,Pelvis_gyro.z
3.71,5117.16,-3465.42,7493.35,-31.9398,-45.0062,-28.264,4412.99,-2401.57,7818.54,1.98963,337.24,83.9308,1321.04,8599.94,-3129.47,-0.400831,-61.7966,-39.4288,1330.25,-5453.67,-946.18,-90.9761,54.5665,-259.464,-1259.11,9743.25,-5229.29,4.18691,-85.6976,-78.5219,-5482.18,-6662.59,-1957.84,-44.7574,171.252,-162.069,5515.87,2015.27,2499.27,-84.7619,-14.7623,-55.9255
3.7105,5102.29,-3492.73,7485.81,-31.5892,-44.9675,-28.4265,4461.88,-2435.26,7827.57,3.50313,338.645,84.4729,1304.15,8591.12,-3119.47,-0.372842,-61.5149,-39.5847,1279.54,-5453.66,-888.544,-91.5307,54.9009,-260.665,-1327.83,9723.5,-5343.29,2.32477,-81.3789,-78.4686,-5351.35,-6608.63,-1893.52,-44.9921,172.346,-161.325,5495.96,2009.79,2450.72,-85.2402,-15.13,-55.4531
3.711,5087.43,-3520.04,7478.27,-31.2386,-44.9288,-28.5891,4510.77,-2468.96,7836.61,5.01663,340.051,85.015,1287.26,8582.3,-3109.46,-0.344854,-61.2332,-39.7405,1228.84,-5453.65,-830.908,-92.0854,55.2352,-261.866,-1396.55,9703.76,-5457.29,0.462627,-77.0601,-78.4154,-5220.52,-6554.66,-1829.19,-45.2268,173.44,-160.582,5476.06,2004.31,2402.16,-85.7186,-15.4977,-54.9808
3.7115,5095.35,-3500.51,7464.15,-31.0131,-44.9093,-28.6673,4527.67,-2469.68,7842.84,6.52838,341.308,85.3784,1248.15,8594.56,-3093.44,-0.296046,-60.994,-39.9241,1169.62,-5462.74,-792.994,-92.5654,55.2812,-263.011,-1430.83,9634.87,-5458.42,-0.872355,-73.2431,-78.2582,-5098.15,-6510.56,-1779.31,-45.4195,172.957,-159.938,5487.27,1989.83,2397.98,-86.2483,-16.1685,-54.5777
3.712,5109.78,-3467.61,7448.13,-30.8233,-44.8952,-28.7215,4535.43,-2460.98,7848.26,8.03962,342.522,85.6908,1202.7,8612.84,-3075.69,-0.24129,-60.767,-40.1156,1107.98,-5474.44,-760.714,-93.0241,55.2448,-264.141,-1455.26,9551.96,-5427.31,-2.05672,-69.5695,-78.0713,-4978.19,-6469.29,-1733.56,-45.6003,172.022,-159.322,5507.37,1972.77,2406.48,-86.7927,-16.9259,-54.1945
3.7125,5124.21,-3434.71,7432.12,-30.6336,-44.8811,-28.7756,4543.18,-2452.29,7853.69,9.55087,343.737,86.0033,1157.25,8631.12,-3057.95,-0.186534,-60.5399,-40.307,1046.33,-5486.14,-728.435,-93.4828,55.2084,-265.27,-1479.69,9469.04,-5396.19,-3.24108,-65.8959,-77.8844,-4858.23,-6428.01,-1687.81,-45.7811,171.088,-158.706,5527.47,1955.71,2414.97,-87.3371,-17.6834,-53.8112
3.713,5138.65,-3401.8,7416.11,-30.4438,-44.8671,-28.8298,4550.94,-2443.59,7859.12,11.0621,344.952,86.3157,1111.81,8649.39,-3040.2,-0.131777,-60.3129,-40.4985,984.689,-5497.83,-696.155,-93.9415,55.172,-266.399,-1504.13,9386.12,-5365.08,-4.42545,-62.2223,-77.6975,-4738.27,-6386.74,-1642.05,-45.9619,170.154,-158.09,5547.57,1938.65,2423.47,-87.8815,-18.4408,-53.4279
3.7135,5153.08,-3368.9,7400.1,-30.254,-44.853,-28.8839,4558.7,-2434.89,7864.54,12.5734,346.167,86.6281,1066.36,8667.67,-3022.45,-0.0770212,-60.0858,-40.69,923.044,-5509.53,-663.876,-94.4002,55.1356,-267.529,-1528.56,9303.2,-5333.96,-5.60981,-58.5488,-77.5105,-4618.31,-6345.46,-1596.3,-46.1427,169.22,-157.474,5567.68,1921.6,2431.96,-88.4259,-19.1983,-53.0447
3.714,5167.51,-3335.99,7384.08,-30.0642,-44.8389,-28.9381,4566.45,-2426.19,7869.97,14.0846,347.381,86.9405,1020.91,8685.95,-3004.71,-0.0222649,-59.8588,-40.8815,861.399,-5521.23,-631.596,-94.8589,55.0992,-268.658,-1552.99,9220.28,-5302.84,-6.79418,-54.8752,-77.3236,-4498.35,-6304.19,-1550.55,-46.3234,168.285,-156.859,5587.78,1904.54,2440.46,-88.9703,-19.9558,-52.6614
3.7145,5181.94,-3303.09,7368.07,-29.8744,-44.8249,-28.9922,4574.21,-2417.5,7875.4,15.5959,348.596,87.2529,975.457,8704.23,-2986.96,0.0324913,-59.6317,-41.0729,799.755,-5532.93,-599.317,-95.3176,55.0628,-269.788,-1577.43,9137.36,-5271.73,-7.97854,-51.2016,-77.1367,-4378.4,-6262.91,-1504.79,-46.5042,167.351,-156.243,5607.88,1887.48,2448.95,-89.5147,-20.7132,-52.2781
3.715,5196.37,-3270.18,7352.06,-29.6846,-44.8108,-29.0464,4581.97,-2408.8,7880.82,17.1071,349.811,87.5653,930.007,8722.51,-2969.21,0.0872475,-59.4047,-41.2644,738.11,-5544.62,-567.037,-95.7763,55.0264,-270.917,-1601.86,9054.44,-5240.61,-9.16291,-47.528,-76.9498,-4258.44,-6221.64,-1459.04,-46.685,166.417,-155.627,5627.98,1870.42,2457.45,-90.0591,-21.4707,-51.8949
3.7155,5210.81,-3237.28,7336.05,-29.4949,-44.7967,-29.1005,4589.72,-2400.1,7886.25,18.6184,351.026,87.8778,884.558,8740.78,-2951.47,0.142004,-59.1776,-41.4559,676.465,-5556.32,-534.758,-96.235,54.99,-272.047,-1626.29,8971.52,-5209.5,-10.3473,-43.8544,-76.7629,-4138.48,-6180.36,-1413.29,-46.8658,165.483,-155.011,5648.08,1853.36,2465.94,-90.6035,-22.2281,-51.5116
3.716,5218.34,-3205.01,7334.24,-29.336,-44.8105,-29.1136,4577.02,-2368.72,7890.93,19.8725,352.038,87.9487,849.427,8760.77,-2933.2,0.212716,-59.0233,-41.58,661.584,-5599.58,-496.696,-96.5863,54.8015,-273.18,-1587.92,8846.94,-5066.46,-10.4451,-42.1917,-76.7746,-4039.4,-6144.58,-1406.56,-46.8092,163.248,-154.669,5651.55,1799.38,2440.7,-90.886,-22.9655,-51.1102
3.7165,5225.02,-3172.82,7334.22,-29.1811,-44.8277,-29.1215,4561.76,-2334.49,7895.52,21.0945,353.025,87.9894,815.587,8780.97,-2914.86,0.285422,-58.8781,-41.6958,652.548,-5646.78,-457.912,-96.9242,54.594,-274.314,-1541.69,8717.16,-4909.43,-10.4071,-40.7803,-76.811,-3942.94,-6109.48,-1404.7,-46.7229,160.85,-154.361,5652.94,1740.78,2411.24,-91.1358,-23.7004,-50.7065
3.717,5231.69,-3140.62,7334.19,-29.0261,-44.8449,-29.1295,4546.5,-2300.27,7900.11,22.3165,354.011,88.0302,781.746,8801.18,-2896.52,0.358129,-58.7329,-41.8115,643.513,-5693.98,-419.128,-97.262,54.3864,-275.448,-1495.46,8587.38,-4752.39,-10.369,-39.3688,-76.8475,-3846.48,-6074.39,-1402.85,-46.6367,158.453,-154.053,5654.33,1682.18,2381.78,-91.3856,-24.4353,-50.3028
3.7175,5238.36,-3108.43,7334.17,-28.8711,-44.8621,-29.1374,4531.23,-2266.04,7904.7,23.5385,354.998,88.0709,747.905,8821.38,-2878.19,0.430835,-58.5877,-41.9273,634.477,-5741.18,-380.344,-97.5999,54.1789,-276.581,-1449.23,8457.59,-4595.36,-10.331,-37.9574,-76.884,-3750.01,-6039.29,-1401.0,-46.5504,156.055,-153.745,5655.71,1623.57,2352.33,-91.6355,-25.1702,-49.8991
3.718,5245.04,-3076.24,7334.14,-28.7162,-44.8793,-29.1453,4515.97,-2231.82,7909.29,24.7605,355.985,88.1116,714.064,8841.58,-2859.85,0.503542,-58.4425,-42.043,625.442,-5788.38,-341.559,-97.9378,53.9713,-277.715,-1403.0,8327.81,-4438.33,-10.293,-36.546,-76.9204,-3653.55,-6004.2,-1399.14,-46.4641,153.657,-153.437,5657.1,1564.97,2322.87,-91.8853,-25.9051,-49.4954
3.7185,5251.71,-3044.05,7334.11,-28.5612,-44.8965,-29.1533,4500.71,-2197.59,7913.88,25.9826,356.972,88.1524,680.223,8861.78,-2841.51,0.576249,-58.2973,-42.1588,616.406,-5835.58,-302.775,-98.2757,53.7638,-278.849,-1356.77,8198.02,-4281.3,-10.255,-35.1346,-76.9569,-3557.08,-5969.1,-1397.29,-46.3778,151.26,-153.129,5658.49,1506.37,2293.41,-92.1351,-26.64,-49.0917
3.719,5258.38,-3011.86,7334.09,-28.4062,-44.9137,-29.1612,4485.45,-2163.37,7918.47,27.2046,357.958,88.1931,646.383,8881.98,-2823.18,0.648955,-58.1521,-42.2746,607.37,-5882.78,-263.991,-98.6135,53.5563,-279.983,-1310.54,8068.24,-4124.27,-10.217,-33.7232,-76.9934,-3460.62,-5934.01,-1395.44,-46.2916,148.862,-152.821,5659.88,1447.77,2263.95,-92.3849,-27.3749,-48.688
3.7195,5265.06,-2979.66,7334.06,-28.2513,-44.9309,-29.1692,4470.19,-2129.15,7923.06,28.4266,358.945,88.2338,612.542,8902.19,-2804.84,0.721662,-58.0069,-42.3903,598.335,-5929.98,-225.207,-98.9514,53.3487,-281.117,-1264.31,7938.46,-3967.24,-10.179,-32.3118,-77.0299,-3364.15,-5898.91,-1393.58,-46.2053,146.465,-152.512,5661.26,1389.17,2234.49,-92.6347,-28.1098,-48.2843
3.72,5271.73,-2947.47,7334.04,-28.0963,-44.9481,-29.1771,4454.92,-2094.92,7927.65,29.6486,359.932,88.2746,578.701,8922.39,-2786.5,0.794368,-57.8617,-42.5061,589.299,-5977.18,-186.422,-99.2893,53.1412,-282.25,-1218.08,7808.67,-3810.21,-10.141,-30.9004,-77.0663,-3267.69,-5863.82,-1391.73,-46.119,144.067,-152.204,5662.65,1330.57,2205.04,-92.8845,-28.8447,-47.8806
3.7205,5284.68,-2957.62,7341.67,-27.8613,-44.9413,-29.22,4440.26,-2017.98,7923.27,30.4373,360.789,88.0245,554.166,8939.15,-2767.13,0.774593,-57.8603,-42.6743,600.609,-6019.38,-174.603,-99.6181,52.8981,-283.362,-1136.24,7729.08,-3657.61,-9.25523,-31.7036,-77.2391,-3262.04,-5838.78,-1429.7,-45.8648,141.483,-152.132,5680.75,1269.4,2149.88,-93.1282,-29.1755,-47.4786
3.721,5297.62,-2967.76,7349.3,-27.6263,-44.9345,-29.263,4425.59,-1941.03,7918.9,31.226,361.647,87.7745,529.63,8955.91,-2747.76,0.754818,-57.8589,-42.8426,611.918,-6061.57,-162.783,-99.947,52.655,-284.473,-1054.4,7649.48,-3505.02,-8.3695,-32.5069,-77.4119,-3256.4,-5813.74,-1467.67,-45.6106,138.899,-152.06,5698.85,1208.24,2094.73,-93.3718,-29.5063,-47.0766
3.7215,5310.56,-2977.9,7356.94,-27.3913,-44.9276,-29.3059,4410.93,-1864.09,7914.53,32.0147,362.504,87.5244,505.095,8972.68,-2728.38,0.735042,-57.8575,-43.0109,623.227,-6103.77,-150.964,-100.276,52.4119,-285.585,-972.564,7569.89,-3352.43,-7.48377,-33.3101,-77.5847,-3250.76,-5788.7,-1505.64,-45.3563,136.315,-151.988,5716.96,1147.07,2039.58,-93.6155,-29.8371,-46.6746
3.722,5323.51,-2988.05,7364.57,-27.1563,-44.9208,-29.3489,4396.26,-1787.15,7910.16,32.8034,363.361,87.2744,480.559,8989.44,-2709.01,0.715267,-57.856,-43.1792,634.537,-6145.97,-139.145,-100.605,52.1688,-286.696,-890.726,7490.29,-3199.83,-6.59804,-34.1134,-77.7575,-3245.11,-5763.66,-1543.61,-45.1021,133.732,-151.916,5735.06,1085.91,1984.43,-93.8591,-30.168,-46.2726
3.7225,5336.45,-2998.19,7372.2,-26.9213,-44.914,-29.3918,4381.6,-1710.2,7905.79,33.5921,364.218,87.0243,456.024,9006.2,-2689.64,0.695492,-57.8546,-43.3474,645.846,-6188.16,-127.325,-100.933,51.9257,-287.807,-808.887,7410.7,-3047.24,-5.71232,-34.9166,-77.9303,-3239.47,-5738.62,-1581.58,-44.8478,131.148,-151.844,5753.16,1024.74,1929.28,-94.1028,-30.4988,-45.8706
3.723,5349.39,-3008.33,7379.83,-26.6862,-44.9072,-29.4348,4366.93,-1633.26,7901.41,34.3809,365.076,86.7742,431.488,9022.96,-2670.26,0.675716,-57.8532,-43.5157,657.156,-6230.36,-115.506,-101.262,51.6826,-288.919,-727.048,7331.1,-2894.65,-4.82659,-35.7199,-78.1031,-3233.83,-5713.58,-1619.55,-44.5936,128.564,-151.772,5771.26,963.578,1874.13,-94.3465,-30.8296,-45.4687
3.7235,5362.34,-3018.48,7387.47,-26.4512,-44.9004,-29.4777,4352.27,-1556.31,7897.04,35.1696,365.933,86.5242,406.953,9039.73,-2650.89,0.655941,-57.8518,-43.684,668.465,-6272.56,-103.686,-101.591,51.4395,-290.03,-645.209,7251.5,-2742.06,-3.94086,-36.5232,-78.2759,-3228.18,-5688.53,-1657.52,-44.3393,125.98,-151.7,5789.36,902.413,1818.97,-94.5901,-31.1604,-45.0667
3.724,5375.28,-3028.62,7395.1,-26.2162,-44.8935,-29.5207,4337.6,-1479.37,7892.67,35.9583,366.79,86.2741,382.417,9056.49,-2631.51,0.636166,-57.8504,-43.8523,679.775,-6314.75,-91.867,-101.92,51.1964,-291.142,-563.371,7171.91,-2589.46,-3.05513,-37.3264,-78.4487,-3222.54,-5663.49,-1695.49,-44.0851,123.396,-151.628,5807.46,841.248,1763.82,-94.8338,-31.4913,-44.6647
3.7245,5387.06,-3039.37,7401.45,-25.9873,-44.8984,-29.5616,4324.43,-1402.71,7891.09,36.7036,367.625,85.9908,360.265,9073.89,-2613.24,0.614062,-57.8575,-44.0123,692.697,-6356.47,-76.0458,-102.248,50.9636,-292.245,-479.993,7101.12,-2444.2,-2.16259,-38.2531,-78.6177,-3223.11,-5636.88,-1735.57,-43.7993,120.898,-151.545,5828.08,780.924,1712.07,-95.0686,-31.7825,-44.276
3.725,5389.51,-3054.91,7397.51,-25.8071,-44.9973,-29.5861,4323.18,-1328.32,7911.85,37.102,368.279,85.4413,357.177,9096.34,-2603.78,0.573334,-57.9326,-44.1063,718.518,-6394.33,-28.2104,-102.565,50.8129,-293.283,-384.3,7100.79,-2357.52,-1.2156,-40.1676,-78.7564,-3273.42,-5597.64,-1792.53,-43.2611,119.085,-151.371,5868.9,727.329,1687.47,-95.2332,-31.7574,-43.994
3.7255,5391.95,-3070.46,7393.57,-25.6269,-45.0961,-29.6105,4321.93,-1253.92,7932.62,37.5004,368.934,84.8918,354.088,9118.8,-2594.32,0.532606,-58.0078,-44.2004,744.339,-6432.18,19.6251,-102.882,50.6621,-294.32,-288.607,7100.46,-2270.85,-0.268597,-42.082,-78.8951,-3323.73,-5558.4,-1849.48,-42.7229,117.273,-151.198,5909.72,673.734,1662.87,-95.3978,-31.7322,-43.712
3.726,5394.4,-3086.0,7389.63,-25.4467,-45.1949,-29.635,4320.68,-1179.53,7953.38,37.8988,369.589,84.3422,351.0,9141.25,-2584.86,0.491878,-58.083,-44.2944,770.16,-6470.04,67.4605,-103.199,50.5114,-295.358,-192.914,7100.13,-2184.17,0.678402,-43.9965,-79.0339,-3374.04,-5519.16,-1906.44,-42.1847,115.461,-151.024,5950.53,620.139,1638.27,-95.5624,-31.7071,-43.43
3.7265,5396.85,-3101.55,7385.69,-25.2665,-45.2938,-29.6595,4319.43,-1105.13,7974.15,38.2972,370.243,83.7927,347.912,9163.71,-2575.4,0.45115,-58.1581,-44.3884,795.981,-6507.89,115.296,-103.516,50.3607,-296.396,-97.2206,7099.79,-2097.5,1.6254,-45.9109,-79.1726,-3424.36,-5479.92,-1963.4,-41.6465,113.648,-150.851,5991.35,566.544,1613.67,-95.727,-31.6819,-43.148
3.727,5399.29,-3117.09,7381.75,-25.0863,-45.3926,-29.684,4318.18,-1030.74,7994.91,38.6956,370.898,83.2432,344.824,9186.17,-2565.94,0.410422,-58.2333,-44.4824,821.802,-6545.75,163.131,-103.833,50.21,-297.433,-1.52761,7099.46,-2010.82,2.5724,-47.8254,-79.3114,-3474.67,-5440.68,-2020.35,-41.1082,111.836,-150.677,6032.16,512.948,1589.07,-95.8916,-31.6568,-42.8659
3.7275,5401.74,-3132.64,7377.81,-24.9061,-45.4914,-29.7085,4316.93,-956.346,8015.67,39.094,371.552,82.6937,341.735,9208.62,-2556.48,0.369694,-58.3085,-44.5765,847.623,-6583.6,210.967,-104.15,50.0593,-298.471,94.1654,7099.13,-1924.15,3.5194,-49.7398,-79.4501,-3524.98,-5401.44,-2077.31,-40.57,110.024,-150.503,6072.98,459.353,1564.48,-96.0562,-31.6316,-42.5839
3.728,5404.19,-3148.18,7373.87,-24.7259,-45.5902,-29.733,4315.68,-881.952,8036.44,39.4924,372.207,82.1442,338.647,9231.08,-2547.02,0.328967,-58.3836,-44.6705,873.444,-6621.46,258.802,-104.467,49.9085,-299.509,189.858,7098.8,-1837.47,4.4664,-51.6543,-79.5888,-3575.29,-5362.21,-2134.27,-40.0318,108.212,-150.33,6113.79,405.758,1539.88,-96.2208,-31.6065,-42.3019
3.7285,5406.64,-3163.73,7369.94,-24.5457,-45.6891,-29.7575,4314.44,-807.558,8057.2,39.8907,372.861,81.5947,335.559,9253.54,-2537.56,0.288239,-58.4588,-44.7645,899.265,-6659.32,306.638,-104.784,49.7578,-300.547,285.551,7098.47,-1750.8,5.4134,-53.5687,-79.7276,-3625.6,-5322.97,-2191.23,-39.4936,106.399,-150.156,6154.61,352.163,1515.28,-96.3854,-31.5813,-42.0199
3.729,5409.51,-3173.35,7365.55,-24.3506,-45.7844,-29.7546,4324.89,-737.073,8077.61,40.2232,373.509,80.9832,332.171,9275.36,-2529.05,0.239817,-58.5206,-44.8532,927.78,-6696.88,354.348,-105.075,49.6643,-301.555,366.691,7114.2,-1682.78,6.20919,-55.4196,-79.8606,-3677.47,-5289.14,-2238.4,-38.9581,104.838,-149.907,6197.87,297.531,1493.81,-96.5123,-31.5189,-41.7202
3.7295,5413.9,-3162.23,7359.63,-24.1036,-45.8676,-29.6563,4376.31,-680.269,8096.76,40.325,374.132,80.1548,327.736,9294.97,-2523.9,0.16447,-58.5356,-44.9232,965.727,-6733.41,401.621,-105.277,49.771,-302.461,396.891,7186.17,-1680.04,6.47578,-57.0482,-79.9736,-3734.79,-5274.24,-2251.31,-38.4322,104.158,-149.395,6249.68,239.266,1483.31,-96.5073,-31.3263,-41.3589
3.73,5418.3,-3151.11,7353.7,-23.8566,-45.9508,-29.5579,4427.73,-623.465,8115.92,40.4267,374.756,79.3264,323.301,9314.58,-2518.75,0.0891221,-58.5506,-44.9931,1003.67,-6769.95,448.893,-105.479,49.8778,-303.368,427.092,7258.15,-1677.31,6.74237,-58.6768,-80.0867,-3792.11,-5259.35,-2264.23,-37.9063,103.478,-148.883,6301.5,181.001,1472.81,-96.5023,-31.1336,-40.9975
3.7305,5422.69,-3139.99,7347.77,-23.6096,-46.034,-29.4595,4479.15,-566.662,8135.08,40.5285,375.379,78.4981,318.866,9334.2,-2513.6,0.0137744,-58.5655,-45.0631,1041.62,-6806.48,496.166,-105.681,49.9845,-304.274,457.293,7330.12,-1674.57,7.00895,-60.3053,-80.1997,-3849.43,-5244.46,-2277.14,-37.3804,102.797,-148.37,6353.32,122.736,1462.31,-96.4974,-30.941,-40.6361
3.731,5427.08,-3128.88,7341.84,-23.3627,-46.1172,-29.3611,4530.57,-509.858,8154.24,40.6302,376.002,77.6697,314.431,9353.81,-2508.45,-0.0615732,-58.5805,-45.133,1079.57,-6843.01,543.438,-105.884,50.0912,-305.18,487.493,7402.09,-1671.84,7.27554,-61.9339,-80.3128,-3906.75,-5229.56,-2290.06,-36.8545,102.117,-147.858,6405.13,64.4712,1451.81,-96.4924,-30.7483,-40.2747
3.7315,5431.47,-3117.76,7335.91,-23.1157,-46.2004,-29.2627,4581.99,-453.054,8173.4,40.7319,376.626,76.8413,309.996,9373.42,-2503.3,-0.136921,-58.5955,-45.203,1117.51,-6879.55,590.711,-106.086,50.1979,-306.086,517.694,7474.06,-1669.1,7.54213,-63.5625,-80.4258,-3964.08,-5214.67,-2302.97,-36.3286,101.436,-147.345,6456.95,6.20631,1441.31,-96.4874,-30.5557,-39.9133
3.732,5435.86,-3106.64,7329.99,-22.8687,-46.2836,-29.1644,4633.41,-396.25,8192.56,40.8337,377.249,76.013,305.561,9393.03,-2498.15,-0.212268,-58.6105,-45.2729,1155.46,-6916.08,637.984,-106.288,50.3047,-306.993,547.894,7546.03,-1666.36,7.80871,-65.191,-80.5388,-4021.4,-5199.77,-2315.89,-35.8027,100.756,-146.833,6508.77,-52.0586,1430.81,-96.4824,-30.363,-39.5519
3.7325,5440.25,-3095.52,7324.06,-22.6217,-46.3669,-29.066,4684.83,-339.447,8211.71,40.9354,377.872,75.1846,301.126,9412.64,-2493.0,-0.287616,-58.6255,-45.3429,1193.41,-6952.62,685.256,-106.49,50.4114,-307.899,578.095,7618.0,-1663.63,8.0753,-66.8196,-80.6519,-4078.72,-5184.88,-2328.8,-35.2767,100.076,-146.321,6560.58,-110.323,1420.31,-96.4774,-30.1704,-39.1905
3.733,5444.64,-3084.41,7318.13,-22.3747,-46.4501,-28.9676,4736.25,-282.643,8230.87,41.0372,378.495,74.3563,296.691,9432.26,-2487.85,-0.362964,-58.6405,-45.4128,1231.35,-6989.15,732.529,-106.692,50.5181,-308.805,608.296,7689.97,-1660.89,8.34189,-68.4482,-80.7649,-4136.04,-5169.99,-2341.72,-34.7508,99.3952,-145.808,6612.4,-168.588,1409.8,-96.4724,-29.9777,-38.8292
3.7335,5450.2,-3071.34,7314.98,-22.1186,-46.5283,-28.8874,4800.25,-237.933,8238.95,41.0185,379.159,73.3886,289.931,9445.33,-2481.8,-0.441702,-58.672,-45.494,1265.86,-7024.99,772.156,-106.889,50.7485,-309.655,613.223,7763.31,-1680.47,8.35929,-69.6407,-80.8506,-4196.91,-5156.48,-2334.2,-34.1,98.9891,-145.197,6658.61,-222.433,1392.49,-96.4928,-29.731,-38.4991
3.734,5458.11,-3054.39,7317.4,-21.8444,-46.5966,-28.8437,4889.43,-217.41,8224.87,40.7588,379.902,72.1424,278.522,9445.33,-2473.95,-0.527224,-58.7367,-45.5977,1293.51,-7059.43,796.492,-107.077,51.226,-310.39,567.603,7839.38,-1744.68,7.87833,-69.9612,-80.8815,-4264.89,-5145.73,-2285.81,-33.1992,99.1314,-144.39,6693.6,-267.437,1361.55,-96.5639,-29.3761,-38.2318
3.7345,5466.02,-3037.43,7319.82,-21.5702,-46.6649,-28.7999,4978.6,-196.887,8210.79,40.4991,380.646,70.8962,267.113,9445.33,-2466.11,-0.612745,-58.8014,-45.7014,1321.15,-7093.88,820.828,-107.264,51.7036,-311.126,521.983,7915.44,-1808.88,7.39738,-70.2816,-80.9124,-4332.86,-5134.98,-2237.41,-32.2985,99.2738,-143.582,6728.59,-312.44,1330.6,-96.635,-29.0213,-37.9645
3.735,5473.93,-3020.47,7322.24,-21.2959,-46.7332,-28.7561,5067.77,-176.364,8196.71,40.2394,381.389,69.6501,255.704,9445.33,-2458.27,-0.698266,-58.8661,-45.8051,1348.8,-7128.32,845.164,-107.451,52.1811,-311.862,476.363,7991.51,-1873.09,6.91642,-70.602,-80.9432,-4400.83,-5124.24,-2189.02,-31.3978,99.4161,-142.775,6763.57,-357.444,1299.66,-96.706,-28.6664,-37.6971
3.7355,5481.84,-3003.52,7324.66,-21.0217,-46.8015,-28.7123,5156.95,-155.842,8182.63,39.9797,382.133,68.4039,244.295,9445.33,-2450.42,-0.783787,-58.9308,-45.9088,1376.44,-7162.77,869.5,-107.639,52.6587,-312.598,430.744,8067.58,-1937.29,6.43546,-70.9225,-80.9741,-4468.81,-5113.49,-2140.63,-30.497,99.5585,-141.967,6798.56,-402.448,1268.72,-96.7771,-28.3115,-37.4298
3.736,5489.75,-2986.56,7327.08,-20.7474,-46.8698,-28.6685,5246.12,-135.319,8168.55,39.72,382.877,67.1577,232.886,9445.33,-2442.58,-0.869308,-58.9954,-46.0125,1404.09,-7197.21,893.837,-107.826,53.1362,-313.334,385.124,8143.64,-2001.5,5.9545,-71.2429,-81.005,-4536.78,-5102.75,-2092.24,-29.5963,99.7008,-141.159,6833.55,-447.452,1237.78,-96.8482,-27.9566,-37.1625
3.7365,5497.66,-2969.6,7329.5,-20.4732,-46.9381,-28.6248,5335.29,-114.796,8154.47,39.4604,383.62,65.9115,221.477,9445.33,-2434.73,-0.954829,-59.0601,-46.1162,1431.73,-7231.66,918.173,-108.013,53.6138,-314.069,339.504,8219.71,-2065.7,5.47355,-71.5633,-81.0359,-4604.76,-5092.0,-2043.85,-28.6956,99.8431,-140.352,6868.54,-492.456,1206.83,-96.9193,-27.6018,-36.8952
3.737,5505.57,-2952.65,7331.92,-20.1989,-47.0064,-28.581,5424.47,-94.2735,8140.39,39.2007,384.364,64.6653,210.069,9445.32,-2426.89,-1.04035,-59.1248,-46.2199,1459.38,-7266.1,942.509,-108.2,54.0914,-314.805,293.884,8295.78,-2129.91,4.99259,-71.8838,-81.0668,-4672.73,-5081.26,-1995.46,-27.7949,99.9855,-139.544,6903.53,-537.459,1175.89,-96.9904,-27.2469,-36.6278
3.7375,5513.48,-2935.69,7334.34,-19.9247,-47.0747,-28.5372,5513.64,-73.7508,8126.31,38.941,385.107,63.4191,198.66,9445.32,-2419.05,-1.12587,-59.1895,-46.3236,1487.02,-7300.55,966.845,-108.388,54.5689,-315.541,248.264,8371.84,-2194.11,4.51163,-72.2042,-81.0977,-4740.71,-5070.51,-1947.07,-26.8941,100.128,-138.737,6938.52,-582.463,1144.95,-97.0614,-26.892,-36.3605
3.738,5521.27,-2923.4,7339.79,-19.7106,-47.1301,-28.5057,5611.26,-71.9008,8108.58,38.6201,385.824,61.9939,191.214,9441.54,-2415.25,-1.20814,-59.2372,-46.4427,1501.4,-7343.37,999.994,-108.562,55.1541,-316.238,172.128,8440.98,-2265.33,3.88604,-71.9154,-81.0526,-4796.23,-5061.8,-1883.39,-25.8011,100.356,-137.82,6969.87,-624.914,1118.37,-97.0167,-26.4885,-36.0781
3.7385,5528.92,-2916.94,7349.04,-19.5715,-47.1694,-28.4894,5719.42,-93.3917,8086.28,38.2227,386.507,60.3447,188.724,9433.03,-2416.51,-1.28635,-59.2638,-46.581,1499.21,-7396.65,1044.16,-108.718,55.8737,-316.888,57.8457,8501.45,-2345.32,3.07965,-70.8651,-80.9125,-4836.19,-5055.63,-1800.59,-24.4676,100.69,-136.768,6996.7,-664.174,1097.24,-96.8274,-26.0242,-35.7768
3.739,5536.56,-2910.48,7358.28,-19.4325,-47.2088,-28.4732,5827.59,-114.883,8063.99,37.8252,387.191,58.6955,186.233,9424.52,-2417.78,-1.36456,-59.2903,-46.7193,1497.01,-7449.94,1088.32,-108.875,56.5933,-317.538,-56.4365,8561.92,-2425.31,2.27326,-69.8147,-80.7724,-4876.15,-5049.46,-1717.8,-23.1342,101.025,-135.715,7023.52,-703.434,1076.11,-96.638,-25.56,-35.4756
3.7395,5544.21,-2904.02,7367.52,-19.2935,-47.2481,-28.4569,5935.76,-136.374,8041.7,37.4278,387.874,57.0464,183.743,9416.01,-2419.04,-1.44277,-59.3169,-46.8576,1494.81,-7503.23,1132.49,-109.032,57.3129,-318.187,-170.719,8622.4,-2505.3,1.46686,-68.7644,-80.6323,-4916.11,-5043.29,-1635.01,-21.8007,101.359,-134.663,7050.34,-742.694,1054.97,-96.4486,-25.0957,-35.1743
3.74,5551.85,-2897.56,7376.76,-19.1545,-47.2874,-28.4407,6043.93,-157.865,8019.4,37.0304,388.557,55.3972,181.252,9407.5,-2420.3,-1.52097,-59.3435,-46.9959,1492.62,-7556.52,1176.65,-109.189,58.0325,-318.837,-285.001,8682.87,-2585.3,0.660471,-67.714,-80.4922,-4956.07,-5037.12,-1552.21,-20.4673,101.694,-133.61,7077.16,-781.954,1033.84,-96.2592,-24.6315,-34.873
3.7405,5559.5,-2891.1,7386.0,-19.0155,-47.3267,-28.4245,6152.1,-179.355,7997.11,36.6329,389.241,53.7481,178.762,9398.99,-2421.56,-1.59918,-59.37,-47.1342,1490.42,-7609.8,1220.82,-109.346,58.7521,-319.486,-399.283,8743.34,-2665.29,-0.145921,-66.6637,-80.3521,-4996.03,-5030.95,-1469.42,-19.1338,102.028,-132.558,7103.99,-821.214,1012.71,-96.0698,-24.1672,-34.5717
3.741,5567.14,-2884.64,7395.25,-18.8765,-47.3661,-28.4082,6260.27,-200.846,7974.81,36.2355,389.924,52.0989,176.271,9390.48,-2422.83,-1.67739,-59.3966,-47.2724,1488.22,-7663.09,1264.98,-109.502,59.4717,-320.136,-513.565,8803.81,-2745.28,-0.952313,-65.6133,-80.212,-5035.99,-5024.78,-1386.63,-17.8004,102.363,-131.505,7130.81,-860.475,991.579,-95.8804,-23.703,-34.2705
3.7415,5574.78,-2878.18,7404.49,-18.7374,-47.4054,-28.392,6368.44,-222.337,7952.52,35.8381,390.607,50.4497,173.781,9381.97,-2424.09,-1.7556,-59.4231,-47.4107,1486.03,-7716.38,1309.15,-109.659,60.1913,-320.786,-627.848,8864.28,-2825.27,-1.75871,-64.563,-80.0719,-5075.95,-5018.61,-1303.84,-16.467,102.697,-130.453,7157.63,-899.735,970.448,-95.691,-23.2387,-33.9692
3.742,5582.43,-2871.73,7413.73,-18.5984,-47.4447,-28.3757,6476.61,-243.828,7930.22,35.4406,391.29,48.8006,171.29,9373.46,-2425.35,-1.83381,-59.4497,-47.549,1483.83,-7769.67,1353.31,-109.816,60.9109,-321.435,-742.13,8924.75,-2905.26,-2.5651,-63.5127,-79.9318,-5115.9,-5012.44,-1221.04,-15.1335,103.032,-129.4,7184.45,-938.995,949.316,-95.5017,-22.7744,-33.6679
3.7425,5588.63,-2869.1,7417.3,-18.4833,-47.4885,-28.3372,6588.91,-265.789,7902.36,35.1481,391.952,47.0106,165.001,9368.45,-2426.45,-1.89267,-59.5251,-47.6637,1477.47,-7804.54,1390.39,-109.914,61.567,-321.995,-868.134,8963.26,-2961.37,-3.24259,-62.1912,-79.8062,-5158.68,-4998.14,-1155.82,-13.6366,103.248,-128.337,7216.88,-983.825,946.191,-95.32,-22.4452,-33.3376
3.743,5593.69,-2869.55,7416.34,-18.3873,-47.5358,-28.281,6704.51,-288.127,7870.04,34.9394,392.597,45.1079,155.673,9366.24,-2427.41,-1.93605,-59.6395,-47.7593,1467.77,-7824.69,1421.8,-109.964,62.1722,-322.484,-1003.52,8984.2,-2998.37,-3.81696,-60.653,-79.6921,-5203.71,-4977.34,-1104.64,-12.0089,103.369,-127.266,7253.79,-1033.11,957.472,-95.1445,-22.2239,-32.9842
3.7435,5598.74,-2870.0,7415.38,-18.2913,-47.5831,-28.2247,6820.11,-310.464,7837.71,34.7307,393.241,43.2053,146.345,9364.04,-2428.37,-1.97944,-59.7539,-47.855,1458.08,-7844.84,1453.21,-110.014,62.7774,-322.972,-1138.9,9005.14,-3035.37,-4.39133,-59.1147,-79.578,-5248.73,-4956.54,-1053.46,-10.3812,103.49,-126.194,7290.7,-1082.4,968.752,-94.9691,-22.0026,-32.6308
3.744,5603.8,-2870.45,7414.41,-18.1953,-47.6305,-28.1684,6935.71,-332.801,7805.39,34.522,393.885,41.3026,137.018,9361.83,-2429.34,-2.02282,-59.8684,-47.9506,1448.38,-7864.99,1484.62,-110.064,63.3825,-323.461,-1274.28,9026.08,-3072.38,-4.9657,-57.5765,-79.4639,-5293.76,-4935.74,-1002.28,-8.75349,103.611,-125.123,7327.61,-1131.68,980.032,-94.7936,-21.7813,-32.2773
3.7445,5608.85,-2870.9,7413.45,-18.0993,-47.6778,-28.1122,7051.31,-355.138,7773.07,34.3133,394.53,39.4,127.69,9359.62,-2430.3,-2.06621,-59.9828,-48.0463,1438.69,-7885.14,1516.03,-110.114,63.9877,-323.949,-1409.66,9047.02,-3109.38,-5.54008,-56.0382,-79.3498,-5338.78,-4914.94,-951.107,-7.12579,103.732,-124.051,7364.52,-1180.97,991.312,-94.6182,-21.5601,-31.9239
3.745,5613.9,-2871.35,7412.49,-18.0033,-47.7251,-28.0559,7166.91,-377.476,7740.75,34.1046,395.174,37.4973,118.362,9357.42,-2431.26,-2.1096,-60.0972,-48.142,1428.99,-7905.29,1547.44,-110.164,64.5929,-324.438,-1545.04,9067.96,-3146.38,-6.11445,-54.5,-79.2357,-5383.81,-4894.14,-899.929,-5.4981,103.853,-122.98,7401.43,-1230.26,1002.59,-94.4427,-21.3388,-31.5704
3.7455,5618.96,-2871.8,7411.52,-17.9073,-47.7725,-27.9996,7282.51,-399.813,7708.43,33.8959,395.819,35.5946,109.034,9355.21,-2432.23,-2.15298,-60.2116,-48.2376,1419.3,-7925.44,1578.84,-110.215,65.1981,-324.926,-1680.42,9088.9,-3183.38,-6.68882,-52.9617,-79.1216,-5428.83,-4873.34,-848.752,-3.8704,103.975,-121.908,7438.34,-1279.54,1013.87,-94.2673,-21.1175,-31.217
3.746,5624.01,-2872.25,7410.56,-17.8113,-47.8198,-27.9434,7398.11,-422.15,7676.11,33.6872,396.463,33.692,99.7061,9353.01,-2433.19,-2.19637,-60.326,-48.3333,1409.61,-7945.59,1610.25,-110.265,65.8033,-325.415,-1815.8,9109.84,-3220.39,-7.26319,-51.4234,-79.0075,-5473.86,-4852.54,-797.574,-2.2427,104.096,-120.837,7475.25,-1328.83,1025.15,-94.0918,-20.8962,-30.8635
3.7465,5629.06,-2872.7,7409.6,-17.7153,-47.8671,-27.8871,7513.72,-444.488,7643.78,33.4785,397.107,31.7893,90.3783,9350.8,-2434.15,-2.23975,-60.4405,-48.4289,1399.91,-7965.74,1641.66,-110.315,66.4085,-325.903,-1951.19,9130.78,-3257.39,-7.83756,-49.8852,-78.8934,-5518.89,-4831.74,-746.397,-0.615001,104.217,-119.766,7512.16,-1378.12,1036.43,-93.9163,-20.675,-30.5101
3.747,5630.91,-2867.5,7406.18,-17.6324,-47.8852,-27.8762,7597.25,-427.035,7618.62,33.2109,397.662,29.9434,75.3054,9350.9,-2421.89,-2.25906,-60.5298,-48.5069,1382.41,-8017.19,1647.63,-110.328,67.1555,-326.279,-2045.09,9144.84,-3259.1,-8.06918,-48.5248,-78.8111,-5588.12,-4811.49,-706.55,1.22847,104.061,-118.728,7546.96,-1406.13,1042.8,-93.6677,-20.5732,-30.2022
3.7475,5631.16,-2859.47,7401.53,-17.5562,-47.8886,-27.8878,7664.75,-389.687,7597.03,32.9138,398.172,28.126,57.3601,9352.16,-2403.0,-2.26632,-60.6067,-48.5761,1360.99,-8084.3,1640.88,-110.324,67.9734,-326.599,-2118.27,9155.47,-3243.16,-8.12942,-47.2534,-78.7446,-5669.45,-4791.51,-672.367,3.17983,103.768,-117.708,7580.71,-1423.52,1046.71,-93.3825,-20.5311,-29.9171
3.748,5631.4,-2851.44,7396.89,-17.4799,-47.892,-27.8995,7732.25,-352.34,7575.45,32.6167,398.682,26.3085,39.4148,9353.41,-2384.12,-2.27358,-60.6835,-48.6453,1339.58,-8151.41,1634.12,-110.319,68.7914,-326.919,-2191.44,9166.09,-3227.23,-8.18966,-45.982,-78.6782,-5750.78,-4771.53,-638.185,5.13118,103.474,-116.688,7614.46,-1440.9,1050.63,-93.0973,-20.489,-29.632
3.7485,5631.65,-2843.41,7392.24,-17.4036,-47.8954,-27.9112,7799.75,-314.992,7553.86,32.3197,399.191,24.491,21.4694,9354.67,-2365.24,-2.28084,-60.7603,-48.7145,1318.17,-8218.51,1627.37,-110.315,69.6093,-327.239,-2264.61,9176.71,-3211.29,-8.2499,-44.7106,-78.6118,-5832.11,-4751.55,-604.003,7.08254,103.18,-115.668,7648.21,-1458.29,1054.54,-92.8121,-20.4469,-29.3469
3.749,5631.89,-2835.38,7387.59,-17.3274,-47.8988,-27.9229,7867.25,-277.645,7532.27,32.0226,399.701,22.6736,3.52411,9355.93,-2346.36,-2.2881,-60.8371,-48.7836,1296.76,-8285.62,1620.62,-110.31,70.4272,-327.56,-2337.78,9187.34,-3195.36,-8.31014,-43.4392,-78.5454,-5913.45,-4731.57,-569.82,9.0339,102.886,-114.647,7681.96,-1475.67,1058.45,-92.5269,-20.4048,-29.0618
3.7495,5632.14,-2827.35,7382.95,-17.2511,-47.9023,-27.9346,7934.75,-240.297,7510.69,31.7255,400.211,20.8561,-14.4212,9357.18,-2327.47,-2.29536,-60.914,-48.8528,1275.35,-8352.73,1613.86,-110.305,71.2451,-327.88,-2410.96,9197.96,-3179.42,-8.37038,-42.1677,-78.479,-5994.78,-4711.59,-535.638,10.9853,102.593,-113.627,7715.71,-1493.06,1062.36,-92.2417,-20.3627,-28.7767
3.75,5632.38,-2819.32,7378.3,-17.1748,-47.9057,-27.9463,8002.25,-202.95,7489.1,31.4284,400.721,19.0386,-32.3665,9358.44,-2308.59,-2.30262,-60.9908,-48.922,1253.93,-8419.84,1607.11,-110.301,72.0631,-328.2,-2484.13,9208.58,-3163.49,-8.43062,-40.8963,-78.4126,-6076.11,-4691.62,-501.455,12.9366,102.299,-112.607,7749.46,-1510.44,1066.28,-91.9566,-20.3207,-28.4916
3.7505,5632.63,-2811.29,7373.66,-17.0986,-47.9091,-27.958,8069.75,-165.602,7467.51,31.1314,401.231,17.2211,-50.3119,9359.69,-2289.71,-2.30989,-61.0676,-48.9912,1232.52,-8486.95,1600.36,-110.296,72.881,-328.52,-2557.3,9219.21,-3147.55,-8.49086,-39.6249,-78.3462,-6157.45,-4671.64,-467.273,14.888,102.005,-111.587,7783.21,-1527.83,1070.19,-91.6714,-20.2786,-28.2064
3.751,5632.88,-2803.26,7369.01,-17.0223,-47.9125,-27.9697,8137.25,-128.254,7445.93,30.8343,401.74,15.4037,-68.2572,9360.95,-2270.83,-2.31715,-61.1445,-49.0603,1211.11,-8554.05,1593.61,-110.291,73.6989,-328.84,-2630.48,9229.83,-3131.61,-8.5511,-38.3535,-78.2798,-6238.78,-4651.66,-433.09,16.8393,101.711,-110.567,7816.96,-1545.21,1074.1,-91.3862,-20.2365,-27.9213
3.7515,5629.88,-2793.9,7368.26,-16.8995,-47.9415,-28.0187,8158.55,-43.0957,7460.95,30.0204,401.94,13.4735,-87.3704,9354.34,-2248.38,-2.39409,-61.219,-49.0957,1224.77,-8619.36,1578.48,-110.242,74.7171,-329.135,-2657.02,9227.59,-3077.34,-8.29203,-37.6695,-78.3009,-6324.95,-4612.8,-410.398,18.6473,101.05,-109.663,7852.62,-1583.26,1073.15,-91.0095,-20.2457,-27.7428
3.752,5625.97,-2784.17,7368.63,-16.7633,-47.9778,-28.0785,8166.65,55.7233,7486.42,29.0588,402.052,11.5112,-106.817,9345.48,-2224.91,-2.49095,-61.2928,-49.1214,1248.45,-8684.15,1560.96,-110.179,75.7925,-329.423,-2670.24,9221.67,-3012.1,-7.94174,-37.1533,-78.3471,-6412.5,-4568.55,-390.989,20.4144,100.282,-108.794,7888.82,-1627.2,1070.81,-90.6067,-20.2695,-27.5946
3.7525,5622.05,-2774.43,7369.0,-16.6272,-48.014,-28.1382,8174.76,154.542,7511.9,28.0972,402.163,9.54888,-126.264,9336.62,-2201.45,-2.58781,-61.3667,-49.1471,1272.12,-8748.93,1543.43,-110.116,76.8679,-329.711,-2683.46,9215.76,-2946.87,-7.59144,-36.6371,-78.3932,-6500.06,-4524.31,-371.58,22.1814,99.5152,-107.924,7925.02,-1671.15,1068.47,-90.204,-20.2934,-27.4465
3.753,5618.13,-2764.7,7369.36,-16.4911,-48.0503,-28.198,8182.86,253.361,7537.38,27.1356,402.274,7.58655,-145.711,9327.76,-2177.98,-2.68467,-61.4405,-49.1728,1295.8,-8813.72,1525.91,-110.054,77.9433,-329.999,-2696.68,9209.84,-2881.64,-7.24114,-36.1209,-78.4394,-6587.61,-4480.06,-352.171,23.9485,98.7481,-107.054,7961.22,-1715.09,1066.12,-89.8012,-20.3173,-27.2983
3.7535,5614.21,-2754.96,7369.73,-16.3549,-48.0866,-28.2577,8190.97,352.18,7562.86,26.1741,402.385,5.62422,-165.158,9318.9,-2154.51,-2.78152,-61.5144,-49.1985,1319.48,-8878.51,1508.39,-109.991,79.0186,-330.287,-2709.9,9203.92,-2816.4,-6.89084,-35.6047,-78.4855,-6675.16,-4435.81,-332.762,25.7155,97.9809,-106.184,7997.42,-1759.03,1063.78,-89.3984,-20.3411,-27.1502
3.754,5610.3,-2745.23,7370.1,-16.2188,-48.1229,-28.3174,8199.07,450.999,7588.34,25.2125,402.497,3.66189,-184.605,9310.04,-2131.05,-2.87838,-61.5883,-49.2242,1343.16,-8943.3,1490.87,-109.928,80.094,-330.576,-2723.13,9198.01,-2751.17,-6.54055,-35.0885,-78.5317,-6762.71,-4391.56,-313.353,27.4826,97.2137,-105.314,8033.62,-1802.98,1061.44,-88.9956,-20.365,-27.0021
3.7545,5606.38,-2735.49,7370.47,-16.0827,-48.1592,-28.3772,8207.18,549.818,7613.82,24.2509,402.608,1.69957,-204.052,9301.17,-2107.58,-2.97524,-61.6621,-49.2499,1366.83,-9008.09,1473.35,-109.866,81.1694,-330.864,-2736.35,9192.09,-2685.94,-6.19025,-34.5723,-78.5778,-6850.27,-4347.31,-293.944,29.2496,96.4466,-104.444,8069.82,-1846.92,1059.1,-88.5929,-20.3888,-26.8539
3.755,5602.46,-2725.76,7370.83,-15.9465,-48.1955,-28.4369,8215.28,648.638,7639.3,23.2893,402.719,-0.26276,-223.499,9292.31,-2084.11,-3.07209,-61.736,-49.2756,1390.51,-9072.88,1455.82,-109.803,82.2448,-331.152,-2749.57,9186.18,-2620.7,-5.83995,-34.0561,-78.6239,-6937.82,-4303.06,-274.535,31.0166,95.6794,-103.574,8106.02,-1890.87,1056.76,-88.1901,-20.4127,-26.7058
3.7555,5598.54,-2716.02,7371.2,-15.8104,-48.2318,-28.4967,8223.39,747.457,7664.77,22.3277,402.83,-2.22509,-242.946,9283.45,-2060.65,-3.16895,-61.8098,-49.3013,1414.19,-9137.67,1438.3,-109.741,83.3202,-331.44,-2762.79,9180.26,-2555.47,-5.48965,-33.5399,-78.6701,-7025.37,-4258.81,-255.125,32.7837,94.9123,-102.705,8142.22,-1934.81,1054.42,-87.7873,-20.4365,-26.5577
3.756,5605.45,-2720.68,7362.69,-15.5333,-48.2812,-28.5277,8210.29,805.343,7697.64,20.8781,402.548,-4.60255,-247.487,9291.49,-2044.38,-3.27603,-61.8648,-49.3584,1436.59,-9204.66,1437.64,-109.738,84.5771,-331.65,-2744.64,9160.92,-2469.72,-4.93108,-33.7674,-78.8527,-7117.55,-4226.41,-283.102,34.0778,93.9802,-102.069,8178.03,-1958.03,1041.0,-87.3585,-20.2848,-26.4084
3.7565,5613.71,-2727.13,7353.07,-15.2387,-48.3322,-28.5551,8194.54,858.114,7731.42,19.3674,402.216,-7.03191,-250.165,9301.63,-2029.01,-3.38438,-61.9173,-49.4195,1458.84,-9271.93,1439.09,-109.744,85.8567,-331.851,-2722.58,9139.91,-2381.41,-4.34647,-34.0878,-79.0524,-7210.3,-4195.5,-317.001,35.3127,93.0276,-101.462,8213.78,-1978.66,1026.19,-86.9265,-20.1111,-26.2591
3.757,5621.97,-2733.59,7343.45,-14.944,-48.3833,-28.5825,8178.79,910.884,7765.2,17.8568,401.885,-9.46127,-252.843,9311.78,-2013.64,-3.49273,-61.9699,-49.4805,1481.08,-9339.21,1440.54,-109.749,87.1363,-332.051,-2700.51,9118.89,-2293.1,-3.76187,-34.4082,-79.2521,-7303.05,-4164.58,-350.901,36.5476,92.075,-100.856,8249.54,-1999.29,1011.39,-86.4944,-19.9374,-26.1097
3.7575,5630.23,-2740.04,7333.83,-14.6493,-48.4343,-28.6099,8163.04,963.655,7798.99,16.3461,401.553,-11.8906,-255.521,9321.92,-1998.27,-3.60109,-62.0225,-49.5416,1503.33,-9406.48,1441.98,-109.754,88.4159,-332.252,-2678.44,9097.87,-2204.79,-3.17726,-34.7286,-79.4518,-7395.81,-4133.67,-384.8,37.7826,91.1224,-100.249,8285.29,-2019.91,996.58,-86.0624,-19.7637,-25.9604
3.758,5638.49,-2746.5,7324.21,-14.3546,-48.4854,-28.6373,8147.29,1016.42,7832.77,14.8354,401.222,-14.32,-258.199,9332.07,-1982.9,-3.70944,-62.0751,-49.6026,1525.57,-9473.75,1443.43,-109.76,89.6954,-332.453,-2656.38,9076.86,-2116.48,-2.59265,-35.049,-79.6515,-7488.56,-4102.76,-418.699,39.0175,90.1698,-99.643,8321.05,-2040.54,981.774,-85.6303,-19.59,-25.811
3.7585,5646.74,-2752.95,7314.59,-14.0599,-48.5364,-28.6647,8131.54,1069.2,7866.55,13.3248,400.89,-16.7493,-260.877,9342.21,-1967.53,-3.81779,-62.1276,-49.6637,1547.82,-9541.02,1444.88,-109.765,90.975,-332.653,-2634.31,9055.84,-2028.16,-2.00804,-35.3694,-79.8512,-7581.31,-4071.84,-452.599,40.2525,89.2172,-99.0366,8356.8,-2061.17,966.969,-85.1982,-19.4163,-25.6616
3.759,5655.0,-2759.41,7304.97,-13.7653,-48.5875,-28.6921,8115.79,1121.97,7900.34,11.8141,400.558,-19.1787,-263.555,9352.36,-1952.16,-3.92615,-62.1802,-49.7247,1570.07,-9608.3,1446.33,-109.77,92.2546,-332.854,-2612.24,9034.83,-1939.85,-1.42344,-35.6899,-80.0509,-7674.06,-4040.93,-486.498,41.4874,88.2645,-98.4301,8392.56,-2081.79,952.163,-84.7662,-19.2427,-25.5123
3.7595,5663.26,-2765.86,7295.35,-13.4706,-48.6386,-28.7195,8100.04,1174.74,7934.12,10.3034,400.227,-21.6081,-266.234,9362.5,-1936.79,-4.0345,-62.2328,-49.7858,1592.31,-9675.57,1447.77,-109.776,93.5342,-333.054,-2590.18,9013.81,-1851.54,-0.83883,-36.0103,-80.2506,-7766.82,-4010.01,-520.398,42.7224,87.3119,-97.8236,8428.32,-2102.42,937.358,-84.3341,-19.069,-25.3629
3.76,5671.52,-2772.31,7285.72,-13.1759,-48.6896,-28.7469,8084.29,1227.51,7967.9,8.79275,399.895,-24.0374,-268.912,9372.65,-1921.42,-4.14285,-62.2853,-49.8468,1614.56,-9742.84,1449.22,-109.781,94.8138,-333.255,-2568.11,8992.79,-1763.23,-0.254223,-36.3307,-80.4504,-7859.57,-3979.1,-554.297,43.9573,86.3593,-97.2172,8464.07,-2123.05,922.552,-83.9021,-18.8953,-25.2136
3.7605,5673.96,-2773.95,7276.12,-12.7882,-48.7267,-28.6936,8083.57,1143.5,7970.45,7.47562,399.291,-26.6147,-261.958,9386.21,-1911.51,-4.30011,-62.2175,-49.918,1605.61,-9814.91,1443.81,-109.758,95.9014,-333.51,-2515.52,8984.33,-1655.19,0.296885,-37.4274,-80.6523,-7931.56,-3930.46,-592.495,44.3144,85.1168,-96.7367,8503.08,-2130.09,929.998,-83.4723,-18.6173,-25.1312
3.761,5676.39,-2775.58,7266.51,-12.4004,-48.7637,-28.6403,8082.85,1059.49,7973.0,6.15848,398.687,-29.1921,-255.005,9399.77,-1901.59,-4.45737,-62.1497,-49.9893,1596.66,-9886.97,1438.39,-109.736,96.989,-333.766,-2462.93,8975.87,-1547.16,0.847992,-38.5242,-80.8542,-8003.55,-3881.82,-630.693,44.6716,83.8743,-96.2562,8542.09,-2137.14,937.444,-83.0426,-18.3394,-25.0488
3.7615,5678.83,-2777.21,7256.9,-12.0127,-48.8008,-28.587,8082.12,975.478,7975.54,4.84135,398.083,-31.7694,-248.052,9413.33,-1891.67,-4.61462,-62.0819,-50.0605,1587.72,-9959.04,1432.98,-109.713,98.0767,-334.021,-2410.34,8967.4,-1439.12,1.3991,-39.6209,-81.0561,-8075.54,-3833.18,-668.89,45.0287,82.6319,-95.7757,8581.09,-2144.18,944.889,-82.6129,-18.0614,-24.9663
3.762,5681.26,-2778.85,7247.29,-11.625,-48.8378,-28.5337,8081.4,891.469,7978.09,3.52422,397.479,-34.3467,-241.098,9426.89,-1881.76,-4.77188,-62.0141,-50.1317,1578.77,-10031.1,1427.56,-109.69,99.1643,-334.276,-2357.75,8958.94,-1331.09,1.95021,-40.7177,-81.2581,-8147.53,-3784.54,-707.088,45.3858,81.3894,-95.2953,8620.1,-2151.23,952.335,-82.1831,-17.7835,-24.8839
3.7625,5683.7,-2780.48,7237.68,-11.2372,-48.8749,-28.4804,8080.68,807.459,7980.64,2.20709,396.874,-36.924,-234.145,9440.44,-1871.84,-4.92913,-61.9463,-50.2029,1569.82,-10103.2,1422.15,-109.668,100.252,-334.532,-2305.16,8950.48,-1223.05,2.50132,-41.8144,-81.46,-8219.52,-3735.9,-745.286,45.743,80.1469,-94.8148,8659.11,-2158.27,959.78,-81.7534,-17.5055,-24.8015
3.763,5686.14,-2782.11,7228.07,-10.8495,-48.9119,-28.4271,8079.96,723.45,7983.18,0.889956,396.27,-39.5013,-227.192,9454.0,-1861.93,-5.08639,-61.8785,-50.2741,1560.88,-10175.2,1416.73,-109.645,101.339,-334.787,-2252.58,8942.02,-1115.02,3.05242,-42.9111,-81.6619,-8291.51,-3687.26,-783.483,46.1001,78.9044,-94.3343,8698.11,-2165.32,967.226,-81.3236,-17.2276,-24.7191
3.7635,5688.57,-2783.74,7218.46,-10.4618,-48.949,-28.3738,8079.24,639.441,7985.73,-0.427176,395.666,-42.0786,-220.239,9467.56,-1852.01,-5.24365,-61.8107,-50.3453,1551.93,-10247.3,1411.32,-109.623,102.427,-335.043,-2199.99,8933.55,-1006.98,3.60353,-44.0079,-81.8639,-8363.5,-3638.63,-821.681,46.4572,77.662,-93.8539,8737.12,-2172.36,974.671,-80.8939,-16.9496,-24.6367
3.764,5691.01,-2785.38,7208.85,-10.074,-48.9861,-28.3205,8078.52,555.431,7988.28,-1.74431,395.062,-44.6559,-213.285,9481.12,-1842.1,-5.4009,-61.7429,-50.4165,1542.99,-10319.4,1405.9,-109.6,103.515,-335.298,-2147.4,8925.09,-898.947,4.15464,-45.1046,-82.0658,-8435.49,-3589.99,-859.879,46.8144,76.4195,-93.3734,8776.13,-2179.41,982.117,-80.4641,-16.6717,-24.5543
3.7645,5695.07,-2786.62,7199.45,-9.67958,-49.0234,-28.2651,8080.34,464.415,7993.89,-2.97312,394.443,-47.1922,-206.638,9493.12,-1832.14,-5.5518,-61.6567,-50.5008,1529.08,-10394.7,1400.09,-109.582,104.607,-335.545,-2096.69,8916.02,-792.643,4.69029,-46.2672,-82.2751,-8504.9,-3544.82,-899.607,47.0998,75.163,-92.896,8814.91,-2188.73,986.564,-80.0232,-16.3699,-24.4802
3.765,5712.14,-2784.75,7191.69,-9.23131,-49.0629,-28.1928,8102.56,317.34,8023.98,-3.49541,393.703,-49.3995,-202.439,9492.63,-1821.89,-5.65186,-61.4239,-50.6898,1475.48,-10496.3,1391.07,-109.599,105.735,-335.722,-2061.08,8902.09,-700.187,5.10233,-47.9564,-82.5437,-8553.73,-3527.42,-951.583,46.8111,73.7944,-92.4432,8851.86,-2216.27,967.023,-79.4925,-15.8774,-24.4729
3.7655,5729.21,-2782.88,7183.93,-8.78304,-49.1024,-28.1205,8124.77,170.265,8054.08,-4.01769,392.963,-51.6069,-198.241,9492.14,-1811.64,-5.75192,-61.1912,-50.8789,1421.89,-10597.9,1382.05,-109.617,106.864,-335.899,-2025.46,8888.16,-607.731,5.51436,-49.6456,-82.8122,-8602.56,-3510.02,-1003.56,46.5224,72.4258,-91.9904,8888.81,-2243.82,947.482,-78.9618,-15.3849,-24.4655
3.766,5746.28,-2781.01,7176.16,-8.33477,-49.1419,-28.0482,8146.98,23.1908,8084.17,-4.53998,392.223,-53.8143,-194.042,9491.65,-1801.39,-5.85198,-60.9584,-51.0679,1368.29,-10699.6,1373.03,-109.634,107.992,-336.077,-1989.85,8874.24,-515.275,5.9264,-51.3348,-83.0807,-8651.38,-3492.63,-1055.53,46.2338,71.0572,-91.5376,8925.76,-2271.36,927.942,-78.4312,-14.8924,-24.4582
3.7665,5763.35,-2779.14,7168.4,-7.8865,-49.1814,-27.9759,8169.2,-123.884,8114.27,-5.06226,391.483,-56.0216,-189.843,9491.16,-1791.14,-5.95204,-60.7256,-51.2569,1314.69,-10801.2,1364.02,-109.651,109.121,-336.254,-1954.23,8860.31,-422.82,6.33844,-53.024,-83.3493,-8700.21,-3475.23,-1107.51,45.9451,69.6885,-91.0848,8962.71,-2298.91,908.401,-77.9005,-14.3998,-24.4508
3.767,5780.42,-2777.27,7160.64,-7.43822,-49.2209,-27.9036,8191.41,-270.958,8144.36,-5.58455,390.744,-58.229,-185.645,9490.66,-1780.89,-6.05211,-60.4928,-51.4459,1261.1,-10902.8,1355.0,-109.669,110.249,-336.431,-1918.61,8846.38,-330.364,6.75047,-54.7132,-83.6178,-8749.03,-3457.83,-1159.48,45.6565,68.3199,-90.632,8999.66,-2326.45,888.86,-77.3699,-13.9073,-24.4435
3.7675,5797.49,-2775.4,7152.88,-6.98995,-49.2604,-27.8313,8213.62,-418.033,8174.46,-6.10683,390.004,-60.4364,-181.446,9490.17,-1770.63,-6.15217,-60.26,-51.6349,1207.5,-11004.4,1345.98,-109.686,111.378,-336.609,-1883.0,8832.46,-237.908,7.16251,-56.4024,-83.8864,-8797.86,-3440.43,-1211.46,45.3678,66.9513,-90.1792,9036.61,-2353.99,869.32,-76.8392,-13.4148,-24.4361
3.768,5814.56,-2773.53,7145.11,-6.54168,-49.2999,-27.7591,8235.84,-565.108,8204.55,-6.62912,389.264,-62.6437,-177.247,9489.68,-1760.38,-6.25223,-60.0272,-51.8239,1153.9,-11106.0,1336.96,-109.704,112.506,-336.786,-1847.38,8818.53,-145.452,7.57454,-58.0916,-84.1549,-8846.68,-3423.03,-1263.44,45.0791,65.5827,-89.7264,9073.56,-2381.54,849.779,-76.3085,-12.9223,-24.4287
3.7685,5831.63,-2771.66,7137.35,-6.09341,-49.3394,-27.6868,8258.05,-712.182,8234.65,-7.1514,388.524,-64.8511,-173.049,9489.19,-1750.13,-6.35229,-59.7945,-52.0129,1100.31,-11207.6,1327.94,-109.721,113.635,-336.963,-1811.76,8804.6,-52.9967,7.98658,-59.7808,-84.4235,-8895.51,-3405.64,-1315.41,44.7905,64.2141,-89.2736,9110.5,-2409.08,830.238,-75.7779,-12.4298,-24.4214
3.769,5849.07,-2768.65,7130.5,-5.64457,-49.3808,-27.5928,8281.29,-850.781,8272.56,-7.51752,387.744,-66.9713,-163.914,9486.17,-1740.51,-6.43961,-59.5193,-52.2029,1044.31,-11312.3,1308.33,-109.724,114.753,-337.178,-1778.33,8792.31,30.6365,8.34998,-61.5156,-84.6985,-8936.08,-3388.48,-1368.39,44.3657,62.8351,-88.7888,9147.58,-2431.81,809.274,-75.2465,-11.8897,-24.4095
3.7695,5867.77,-2761.65,7126.82,-5.19372,-49.4287,-27.4229,8308.12,-959.715,8337.84,-7.33703,386.821,-68.7861,-137.502,9474.27,-1733.1,-6.48236,-59.0959,-52.3967,979.939,-11428.0,1251.63,-109.675,115.832,-337.522,-1752.52,8785.72,83.3905,8.54319,-63.4102,-84.9962,-8947.75,-3372.18,-1424.9,43.4648,61.4201,-88.192,9185.12,-2437.65,783.326,-74.7129,-11.1833,-24.3816
3.77,5886.47,-2754.65,7123.15,-4.74287,-49.4766,-27.2529,8334.94,-1068.65,8403.11,-7.15654,385.898,-70.601,-111.089,9462.37,-1725.69,-6.5251,-58.6724,-52.5904,915.563,-11543.6,1194.93,-109.626,116.912,-337.866,-1726.71,8779.13,136.144,8.73641,-65.3049,-85.2938,-8959.42,-3355.88,-1481.4,42.5638,60.0051,-87.5952,9222.66,-2443.49,757.378,-74.1793,-10.4768,-24.3538
3.7705,5905.17,-2747.65,7119.48,-4.29202,-49.5245,-27.083,8361.77,-1177.58,8468.38,-6.97605,384.975,-72.4158,-84.6771,9450.48,-1718.28,-6.56785,-58.249,-52.7841,851.188,-11659.2,1138.23,-109.577,117.992,-338.211,-1700.9,8772.54,188.898,8.92962,-67.1995,-85.5915,-8971.09,-3339.58,-1537.9,41.6628,58.59,-86.9984,9260.19,-2449.33,731.431,-73.6457,-9.77039,-24.3259
3.771,5923.87,-2740.65,7115.81,-3.84117,-49.5724,-26.9131,8388.59,-1286.52,8533.66,-6.79556,384.053,-74.2307,-58.2649,9438.58,-1710.87,-6.6106,-57.8255,-52.9778,786.812,-11774.8,1081.53,-109.528,119.071,-338.555,-1675.09,8765.95,241.652,9.12283,-69.0941,-85.8891,-8982.76,-3323.28,-1594.41,40.7618,57.175,-86.4016,9297.73,-2455.17,705.483,-73.1121,-9.06394,-24.2981
3.7715,5942.57,-2733.65,7112.13,-3.39031,-49.6203,-26.7432,8415.42,-1395.45,8598.93,-6.61507,383.13,-76.0456,-31.8527,9426.68,-1703.46,-6.65334,-57.4021,-53.1716,722.437,-11890.4,1024.84,-109.479,120.151,-338.899,-1649.29,8759.36,294.406,9.31604,-70.9887,-86.1868,-8994.43,-3306.99,-1650.91,39.8609,55.76,-85.8048,9335.26,-2461.01,679.535,-72.5785,-8.35749,-24.2702
3.772,5961.27,-2726.65,7108.46,-2.93946,-49.6682,-26.5732,8442.25,-1504.39,8664.21,-6.43458,382.207,-77.8604,-5.44049,9414.79,-1696.05,-6.69609,-56.9786,-53.3653,658.061,-12006.0,968.137,-109.43,121.231,-339.243,-1623.48,8752.77,347.16,9.50925,-72.8833,-86.4845,-9006.1,-3290.69,-1707.41,38.9599,54.3449,-85.208,9372.8,-2466.86,653.587,-72.0449,-7.65105,-24.2423
3.7725,5979.97,-2719.65,7104.79,-2.48861,-49.7161,-26.4033,8469.07,-1613.32,8729.48,-6.2541,381.284,-79.6753,20.9717,9402.89,-1688.63,-6.73883,-56.5552,-53.559,593.685,-12121.6,911.438,-109.381,122.31,-339.588,-1597.67,8746.19,399.914,9.70246,-74.7779,-86.7821,-9017.77,-3274.39,-1763.92,38.0589,52.9299,-84.6112,9410.34,-2472.7,627.64,-71.5113,-6.9446,-24.2145
3.773,5998.67,-2712.65,7101.12,-2.03776,-49.764,-26.2334,8495.9,-1722.25,8794.75,-6.07361,380.361,-81.4902,47.3839,9390.99,-1681.22,-6.78158,-56.1318,-53.7527,529.31,-12237.3,854.74,-109.332,123.39,-339.932,-1571.86,8739.6,452.668,9.89567,-76.6725,-87.0798,-9029.44,-3258.09,-1820.42,37.158,51.5149,-84.0144,9447.87,-2478.54,601.692,-70.9777,-6.23815,-24.1866
3.7735,6013.77,-2707.89,7096.07,-1.54017,-49.7954,-26.0667,8520.07,-1811.42,8859.86,-5.86161,379.378,-83.165,76.9883,9381.58,-1669.54,-6.79147,-55.6477,-53.9717,474.137,-12351.7,788.284,-109.249,124.373,-340.257,-1555.7,8729.66,491.817,10.0753,-78.5487,-87.3253,-9028.43,-3240.2,-1863.0,36.1579,50.0546,-83.3883,9480.56,-2478.02,578.291,-70.5155,-5.46385,-24.192
3.774,6021.66,-2707.6,7088.27,-0.949103,-49.7937,-25.9066,8538.92,-1861.07,8924.63,-5.58659,378.274,-84.56,112.977,9377.12,-1649.33,-6.73563,-55.0424,-54.241,437.367,-12463.6,702.313,-109.098,125.164,-340.544,-1558.83,8713.02,503.755,10.2277,-80.3879,-87.4664,-9002.04,-3219.12,-1877.72,34.9596,48.5038,-82.7038,9503.55,-2464.78,559.984,-70.196,-4.55385,-24.2639
3.7745,6029.55,-2707.32,7080.48,-0.358035,-49.7921,-25.7464,8557.78,-1910.72,8989.4,-5.31157,377.171,-85.9549,148.966,9372.66,-1629.12,-6.6798,-54.4372,-54.5103,400.598,-12575.6,616.342,-108.948,125.955,-340.831,-1561.96,8696.38,515.693,10.3801,-82.2272,-87.6076,-8975.66,-3198.05,-1892.44,33.7614,46.953,-82.0192,9526.54,-2451.54,541.677,-69.8764,-3.64385,-24.3358
3.775,6037.44,-2707.03,7072.68,0.233032,-49.7904,-25.5863,8576.63,-1960.37,9054.17,-5.03655,376.067,-87.3499,184.955,9368.21,-1608.9,-6.62396,-53.8319,-54.7796,363.829,-12687.6,530.371,-108.797,126.746,-341.118,-1565.09,8679.75,527.632,10.5325,-84.0665,-87.7487,-8949.27,-3176.97,-1907.17,32.5632,45.4022,-81.3346,9549.53,-2438.3,523.37,-69.5569,-2.73385,-24.4077
3.7755,6045.33,-2706.75,7064.89,0.8241,-49.7888,-25.4261,8595.48,-2010.01,9118.94,-4.76153,374.963,-88.7448,220.943,9363.75,-1588.69,-6.56813,-53.2267,-55.049,327.059,-12799.5,444.401,-108.646,127.537,-341.406,-1568.22,8663.11,539.57,10.6849,-85.9057,-87.8898,-8922.89,-3155.9,-1921.89,31.3649,43.8514,-80.6501,9572.53,-2425.06,505.064,-69.2373,-1.82385,-24.4796
3.776,6053.22,-2706.46,7057.09,1.41517,-49.7871,-25.2659,8614.34,-2059.66,9183.7,-4.48651,373.859,-90.1398,256.932,9359.3,-1568.47,-6.5123,-52.6214,-55.3183,290.29,-12911.5,358.43,-108.496,128.327,-341.693,-1571.35,8646.47,551.508,10.8373,-87.745,-88.031,-8896.5,-3134.82,-1936.62,30.1667,42.3006,-79.9655,9595.52,-2411.83,486.757,-68.9178,-0.913846,-24.5515
3.7765,6061.11,-2706.18,7049.3,2.00624,-49.7855,-25.1058,8633.19,-2109.31,9248.47,-4.21149,372.755,-91.5347,292.921,9354.84,-1548.26,-6.45646,-52.0161,-55.5876,253.521,-13023.4,272.459,-108.345,129.118,-341.98,-1574.48,8629.83,563.446,10.9897,-89.5842,-88.1721,-8870.12,-3113.75,-1951.34,28.9685,40.7498,-79.2809,9618.51,-2398.59,468.45,-68.5983,-0.00384469,-24.6234
3.777,6069.0,-2705.89,7041.5,2.5973,-49.7838,-24.9456,8652.05,-2158.95,9313.24,-3.93647,371.651,-92.9296,328.91,9350.38,-1528.05,-6.40063,-51.4109,-55.857,216.752,-13135.4,186.489,-108.194,129.909,-342.267,-1577.61,8613.2,575.385,11.1421,-91.4235,-88.3132,-8843.73,-3092.67,-1966.06,27.7702,39.199,-78.5964,9641.5,-2385.35,450.143,-68.2787,0.906157,-24.6952
3.7775,6076.89,-2705.6,7033.71,3.18837,-49.7822,-24.7855,8670.9,-2208.6,9378.01,-3.66145,370.547,-94.3246,364.898,9345.93,-1507.83,-6.34479,-50.8056,-56.1263,179.982,-13247.4,100.518,-108.044,130.7,-342.554,-1580.74,8596.56,587.323,11.2945,-93.2627,-88.4544,-8817.35,-3071.6,-1980.79,26.572,37.6482,-77.9118,9664.49,-2372.11,431.836,-67.9592,1.81616,-24.7671
3.778,6078.28,-2704.25,7029.97,3.8075,-49.7822,-24.6562,8690.12,-2236.92,9440.1,-3.50913,369.361,-95.4555,395.177,9341.43,-1498.24,-6.27363,-50.1336,-56.4186,136.588,-13364.9,14.9849,-107.884,131.287,-342.836,-1581.96,8580.66,573.394,11.4569,-94.8796,-88.5564,-8789.86,-3069.32,-2002.57,25.3631,36.1101,-77.2258,9681.08,-2367.58,423.242,-67.6263,2.74469,-24.8171
3.7785,6071.55,-2701.57,7031.3,4.46172,-49.7842,-24.5655,8709.79,-2238.57,9498.84,-3.51019,368.072,-96.2564,418.319,9336.87,-1501.92,-6.18329,-49.3781,-56.7397,84.9133,-13489.3,-70.001,-107.714,131.618,-343.111,-1580.79,8565.68,527.131,11.632,-96.2185,-88.6094,-8761.0,-3090.54,-2033.18,24.1408,34.588,-76.5381,9689.66,-2373.94,426.789,-67.2767,3.69637,-24.8396
3.779,6064.81,-2698.89,7032.63,5.11593,-49.7862,-24.4748,8729.47,-2240.23,9557.57,-3.51124,366.783,-97.0572,441.461,9332.31,-1505.6,-6.09296,-48.6226,-57.0608,33.2384,-13613.7,-154.987,-107.543,131.95,-343.387,-1579.63,8550.71,480.868,11.807,-97.5574,-88.6625,-8732.13,-3111.76,-2063.78,22.9186,33.0658,-75.8504,9698.24,-2380.3,430.335,-66.9271,4.64805,-24.8621
3.7795,6058.08,-2696.21,7033.96,5.77014,-49.7883,-24.3841,8749.15,-2241.89,9616.31,-3.5123,365.494,-97.8581,464.603,9327.75,-1509.28,-6.00263,-47.8671,-57.3819,-18.4366,-13738.1,-239.973,-107.373,132.282,-343.662,-1578.46,8535.73,434.605,11.9821,-98.8963,-88.7155,-8703.27,-3132.99,-2094.39,21.6964,31.5436,-75.1627,9706.82,-2386.66,433.882,-66.5775,5.59974,-24.8846
3.78,6051.34,-2693.53,7035.28,6.42435,-49.7903,-24.2934,8768.82,-2243.54,9675.04,-3.51335,364.205,-98.6589,487.744,9323.19,-1512.95,-5.91229,-47.1116,-57.703,-70.1115,-13862.5,-324.958,-107.202,132.614,-343.938,-1577.29,8520.76,388.342,12.1571,-100.235,-88.7686,-8674.41,-3154.21,-2125.0,20.4741,30.0214,-74.475,9715.4,-2393.02,437.429,-66.2279,6.55142,-24.9071
3.7805,6044.6,-2690.85,7036.61,7.07857,-49.7924,-24.2027,8788.5,-2245.2,9733.78,-3.51441,362.915,-99.4598,510.886,9318.63,-1516.63,-5.82196,-46.3561,-58.0241,-121.786,-13986.9,-409.944,-107.032,132.945,-344.213,-1576.13,8505.78,342.079,12.3321,-101.574,-88.8217,-8645.55,-3175.43,-2155.6,19.2519,28.4992,-73.7873,9723.98,-2399.38,440.975,-65.8783,7.50311,-24.9295
3.781,6037.87,-2688.17,7037.94,7.73278,-49.7944,-24.112,8808.17,-2246.86,9792.51,-3.51546,361.626,-100.261,534.028,9314.07,-1520.31,-5.73163,-45.6006,-58.3452,-173.461,-14111.3,-494.93,-106.861,133.277,-344.489,-1574.96,8490.8,295.816,12.5072,-102.913,-88.8747,-8616.68,-3196.65,-2186.21,18.0297,26.977,-73.0996,9732.55,-2405.74,444.522,-65.5287,8.45479,-24.952
3.7815,6031.13,-2685.49,7039.27,8.38699,-49.7965,-24.0213,8827.85,-2248.51,9851.25,-3.51652,360.337,-101.062,557.17,9309.51,-1523.99,-5.64129,-44.8451,-58.6663,-225.136,-14235.7,-579.916,-106.691,133.609,-344.764,-1573.79,8475.83,249.553,12.6822,-104.252,-88.9278,-8587.82,-3217.87,-2216.81,16.8075,25.4548,-72.4119,9741.13,-2412.09,448.069,-65.1791,9.40648,-24.9745
3.782,6024.4,-2682.81,7040.6,9.04121,-49.7985,-23.9306,8847.53,-2250.17,9909.98,-3.51757,359.048,-101.862,580.311,9304.95,-1527.67,-5.55096,-44.0896,-58.9873,-276.811,-14360.1,-664.902,-106.52,133.94,-345.039,-1572.62,8460.85,203.29,12.8573,-105.591,-88.9809,-8558.96,-3239.09,-2247.42,15.5852,23.9326,-71.7242,9749.71,-2418.45,451.615,-64.8295,10.3582,-24.997
3.7825,6017.2,-2678.51,7047.47,9.66674,-49.8492,-23.8014,8868.67,-2235.94,9980.59,-3.65657,357.587,-102.294,597.043,9288.25,-1525.39,-5.42596,-43.3513,-59.297,-327.179,-14484.4,-750.268,-106.358,134.04,-345.266,-1571.18,8446.49,140.024,12.9936,-106.652,-88.9949,-8505.3,-3268.41,-2284.55,14.4503,22.5099,-71.0973,9749.66,-2430.25,443.196,-64.5257,11.32,-25.0707
3.783,6009.63,-2672.91,7058.78,10.2693,-49.9387,-23.6415,8890.99,-2208.99,10060.7,-3.90593,355.987,-102.43,608.645,9261.85,-1518.35,-5.27323,-42.6267,-59.5976,-376.501,-14608.4,-835.938,-106.201,133.954,-345.453,-1569.51,8432.61,63.1546,13.0989,-107.49,-88.9778,-8431.8,-3304.19,-2326.91,13.3852,21.1666,-70.5192,9742.71,-2446.39,425.205,-64.2584,12.2898,-25.1853
3.7835,6002.06,-2667.3,7070.08,10.8719,-50.0282,-23.4816,8913.3,-2182.05,10140.8,-4.15529,354.388,-102.565,620.248,9235.45,-1511.31,-5.12049,-41.9021,-59.8982,-425.823,-14732.5,-921.608,-106.045,133.869,-345.64,-1567.85,8418.74,-13.7147,13.2042,-108.329,-88.9607,-8358.3,-3339.98,-2369.27,12.3202,19.8234,-69.9411,9735.76,-2462.53,407.213,-63.9912,13.2597,-25.2999
3.784,5994.5,-2661.7,7081.39,11.4745,-50.1178,-23.3218,8935.62,-2155.11,10220.9,-4.40464,352.789,-102.701,631.851,9209.05,-1504.27,-4.96776,-41.1776,-60.1988,-475.144,-14856.5,-1007.28,-105.888,133.783,-345.827,-1566.18,8404.86,-90.5839,13.3095,-109.168,-88.9435,-8284.8,-3375.76,-2411.63,11.2551,18.4802,-69.363,9728.81,-2478.67,389.221,-63.7239,14.2296,-25.4145
3.7845,5986.93,-2656.09,7092.7,12.0771,-50.2073,-23.1619,8957.94,-2128.16,10301.0,-4.654,351.189,-102.837,643.453,9182.65,-1497.23,-4.81503,-40.453,-60.4994,-524.466,-14980.6,-1092.95,-105.732,133.697,-346.013,-1564.52,8390.99,-167.453,13.4149,-110.006,-88.9264,-8211.31,-3411.55,-2453.99,10.19,17.137,-68.7848,9721.86,-2494.81,371.229,-63.4566,15.1995,-25.5291
3.785,5979.36,-2650.49,7104.01,12.6797,-50.2968,-23.002,8980.25,-2101.22,10381.1,-4.90336,349.59,-102.973,655.056,9156.25,-1490.18,-4.66229,-39.7285,-60.8,-573.788,-15104.7,-1178.62,-105.576,133.611,-346.2,-1562.85,8377.12,-244.322,13.5202,-110.845,-88.9093,-8137.81,-3447.33,-2496.34,9.12495,15.7937,-68.2067,9714.9,-2510.95,353.238,-63.1894,16.1694,-25.6437
3.7855,5971.8,-2644.89,7115.31,13.2823,-50.3863,-22.8421,9002.57,-2074.28,10461.3,-5.15272,347.991,-103.108,666.659,9129.85,-1483.14,-4.50956,-39.0039,-61.1006,-623.11,-15228.7,-1264.29,-105.419,133.526,-346.387,-1561.19,8363.24,-321.192,13.6255,-111.684,-88.8921,-8064.31,-3483.12,-2538.7,8.05988,14.4505,-67.6286,9707.95,-2527.1,335.246,-62.9221,17.1393,-25.7583
3.786,5964.23,-2639.28,7126.62,13.8849,-50.4759,-22.6822,9024.89,-2047.33,10541.4,-5.40208,346.391,-103.244,678.261,9103.45,-1476.1,-4.35683,-38.2794,-61.4012,-672.432,-15352.8,-1349.96,-105.263,133.44,-346.574,-1559.52,8349.37,-398.061,13.7308,-112.522,-88.875,-7990.81,-3518.91,-2581.06,6.99481,13.1073,-67.0504,9701.0,-2543.24,317.254,-62.6549,18.1091,-25.8729
3.7865,5956.66,-2633.68,7137.93,14.4875,-50.5654,-22.5223,9047.21,-2020.39,10621.5,-5.65143,344.792,-103.38,689.864,9077.04,-1469.06,-4.20409,-37.5548,-61.7018,-721.754,-15476.9,-1435.63,-105.106,133.354,-346.761,-1557.85,8335.49,-474.93,13.8361,-113.361,-88.8579,-7917.31,-3554.69,-2623.42,5.92973,11.7641,-66.4723,9694.05,-2559.38,299.262,-62.3876,19.079,-25.9875
3.787,5947.06,-2633.78,7143.77,15.0888,-50.6566,-22.3522,9056.89,-1999.95,10718.7,-5.92602,342.998,-103.219,706.822,9060.44,-1466.66,-4.07612,-36.8384,-62.0494,-774.497,-15587.2,-1516.04,-104.906,133.105,-346.971,-1530.71,8323.14,-537.39,13.923,-113.77,-88.786,-7836.78,-3593.13,-2651.23,5.04587,10.7706,-65.9375,9691.26,-2543.5,292.836,-62.1534,20.0127,-26.0811
3.7875,5936.43,-2636.74,7146.87,15.6894,-50.7486,-22.1769,9060.25,-1982.76,10824.5,-6.21322,341.108,-102.91,726.458,9048.74,-1466.58,-3.96053,-36.126,-62.4205,-828.95,-15690.7,-1593.81,-104.684,132.773,-347.192,-1490.82,8311.56,-592.645,14.0007,-113.965,-88.6867,-7752.72,-3632.9,-2671.76,4.25262,9.95209,-65.4244,9690.55,-2511.61,292.193,-61.9356,20.9282,-26.1641
3.788,5925.8,-2639.7,7149.97,16.2899,-50.8406,-22.0017,9063.62,-1965.57,10930.4,-6.50042,339.217,-102.602,746.094,9037.04,-1466.5,-3.84493,-35.4136,-62.7916,-883.404,-15794.2,-1671.58,-104.462,132.442,-347.414,-1450.94,8299.97,-647.9,14.0784,-114.16,-88.5874,-7668.66,-3672.67,-2692.3,3.45936,9.13356,-64.9112,9689.84,-2479.72,291.549,-61.7179,21.8437,-26.2472
3.7885,5915.18,-2642.66,7153.07,16.8905,-50.9326,-21.8264,9066.99,-1948.38,11036.2,-6.78763,337.327,-102.293,765.73,9025.34,-1466.42,-3.72934,-34.7012,-63.1627,-937.858,-15897.7,-1749.36,-104.239,132.111,-347.635,-1411.05,8288.39,-703.155,14.1561,-114.355,-88.4881,-7584.6,-3712.44,-2712.84,2.66611,8.31502,-64.3981,9689.14,-2447.84,290.906,-61.5002,22.7593,-26.3303
3.789,5904.55,-2645.61,7156.18,17.4911,-51.0246,-21.6512,9070.35,-1931.18,11142.0,-7.07483,335.436,-101.984,785.366,9013.64,-1466.34,-3.61374,-33.9888,-63.5338,-992.311,-16001.2,-1827.13,-104.017,131.78,-347.856,-1371.17,8276.8,-758.411,14.2337,-114.549,-88.3888,-7500.54,-3752.21,-2733.38,1.87285,7.49649,-63.885,9688.43,-2415.95,290.262,-61.2824,23.6748,-26.4134
3.7895,5893.92,-2648.57,7159.28,18.0916,-51.1166,-21.4759,9073.72,-1913.99,11247.8,-7.36203,333.546,-101.675,805.002,9001.94,-1466.26,-3.49815,-33.2764,-63.9049,-1046.77,-16104.7,-1904.9,-103.795,131.449,-348.078,-1331.28,8265.22,-813.666,14.3114,-114.744,-88.2895,-7416.48,-3791.98,-2753.92,1.0796,6.67796,-63.3718,9687.72,-2384.06,289.618,-61.0647,24.5904,-26.4965
3.79,5883.3,-2651.53,7162.38,18.6922,-51.2086,-21.3006,9077.08,-1896.8,11353.6,-7.64923,331.655,-101.366,824.638,8990.24,-1466.18,-3.38255,-32.5641,-64.276,-1101.22,-16208.2,-1982.68,-103.573,131.118,-348.299,-1291.39,8253.63,-868.921,14.3891,-114.939,-88.1902,-7332.42,-3831.75,-2774.45,0.286341,5.85942,-62.8587,9687.01,-2352.17,288.975,-60.847,25.5059,-26.5796
3.7905,5872.67,-2654.49,7165.48,19.2928,-51.3006,-21.1254,9080.45,-1879.61,11459.5,-7.93643,329.764,-101.057,844.274,8978.54,-1466.1,-3.26696,-31.8517,-64.6471,-1155.67,-16311.7,-2060.45,-103.35,130.787,-348.521,-1251.51,8242.04,-924.176,14.4668,-115.133,-88.0909,-7248.37,-3871.52,-2794.99,-0.506914,5.04089,-62.3456,9686.31,-2320.29,288.331,-60.6292,26.4214,-26.6627
3.791,5862.04,-2657.44,7168.59,19.8934,-51.3926,-20.9501,9083.82,-1862.42,11565.3,-8.22363,327.874,-100.749,863.91,8966.84,-1466.02,-3.15137,-31.1393,-65.0182,-1210.13,-16415.2,-2138.23,-103.128,130.456,-348.742,-1211.62,8230.46,-979.432,14.5445,-115.328,-87.9915,-7164.31,-3911.28,-2815.53,-1.30017,4.22236,-61.8324,9685.6,-2288.4,287.688,-60.4115,27.337,-26.7458
3.7915,5862.29,-2643.6,7188.0,20.4117,-51.4832,-20.7892,9131.36,-1859.62,11683.5,-8.24294,326.164,-100.213,869.05,8974.18,-1465.8,-2.97904,-30.4034,-65.4547,-1264.47,-16533.2,-2179.58,-102.785,130.046,-348.964,-1168.7,8224.75,-1017.92,14.5574,-115.149,-87.8822,-7068.83,-3949.96,-2817.63,-2.15032,3.59846,-61.4059,9679.31,-2273.27,286.26,-60.1812,28.3153,-26.8653
3.792,5865.63,-2624.96,7212.07,20.9064,-51.5736,-20.6324,9191.54,-1860.93,11805.2,-8.1857,324.505,-99.6116,870.047,8986.97,-1465.52,-2.7905,-29.6609,-65.9098,-1318.77,-16655.4,-2210.52,-102.408,129.614,-349.186,-1124.9,8220.73,-1051.61,14.5518,-114.864,-87.77,-6970.1,-3988.33,-2814.47,-3.01672,3.03017,-61.0042,9671.44,-2262.94,284.609,-59.9474,29.3115,-26.9952
3.7925,5868.98,-2606.31,7236.14,21.4012,-51.6639,-20.4755,9251.71,-1862.24,11926.8,-8.12847,322.846,-99.0106,871.045,8999.75,-1465.25,-2.60196,-28.9183,-66.3649,-1373.08,-16777.5,-2241.47,-102.03,129.182,-349.408,-1081.11,8216.71,-1085.3,14.5462,-114.579,-87.6577,-6871.37,-4026.69,-2811.3,-3.88312,2.46188,-60.6025,9663.56,-2252.6,282.958,-59.7136,30.3078,-27.1251
3.793,5872.33,-2587.67,7260.21,21.896,-51.7542,-20.3187,9311.88,-1863.55,12048.5,-8.07123,321.187,-98.4096,872.043,9012.54,-1464.98,-2.41343,-28.1758,-66.82,-1427.39,-16899.7,-2272.42,-101.653,128.75,-349.63,-1037.31,8212.68,-1119.0,14.5406,-114.293,-87.5455,-6772.63,-4065.06,-2808.13,-4.74951,1.89359,-60.2008,9655.68,-2242.26,281.306,-59.4797,31.304,-27.255
3.7935,5875.68,-2569.03,7284.29,22.3908,-51.8445,-20.1618,9372.05,-1864.87,12170.2,-8.014,319.528,-97.8086,873.04,9025.32,-1464.71,-2.22489,-27.4332,-67.2752,-1481.7,-17021.8,-2303.36,-101.275,128.318,-349.852,-993.518,8208.66,-1152.69,14.535,-114.008,-87.4333,-6673.9,-4103.43,-2804.97,-5.61591,1.3253,-59.7991,9647.8,-2231.92,279.655,-59.2459,32.3002,-27.385
3.794,5879.03,-2550.39,7308.36,22.8856,-51.9349,-20.005,9432.23,-1866.18,12291.9,-7.95676,317.869,-97.2076,874.038,9038.1,-1464.44,-2.03635,-26.6906,-67.7303,-1536.0,-17144.0,-2334.31,-100.898,127.886,-350.074,-949.724,8204.64,-1186.39,14.5295,-113.722,-87.321,-6575.17,-4141.79,-2801.8,-6.48231,0.757014,-59.3973,9639.92,-2221.59,278.004,-59.0121,33.2965,-27.5149
3.7945,5882.37,-2531.74,7332.43,23.3804,-52.0252,-19.8481,9492.4,-1867.49,12413.6,-7.89952,316.21,-96.6067,875.036,9050.89,-1464.17,-1.84782,-25.9481,-68.1854,-1590.31,-17266.1,-2365.25,-100.52,127.454,-350.296,-905.93,8200.61,-1220.08,14.5239,-113.437,-87.2088,-6476.43,-4180.16,-2798.63,-7.34871,0.188725,-58.9956,9632.05,-2211.25,276.352,-58.7783,34.2927,-27.6448
3.795,5885.72,-2513.1,7356.5,23.8751,-52.1155,-19.6913,9552.57,-1868.8,12535.3,-7.84229,314.551,-96.0057,876.033,9063.67,-1463.9,-1.65928,-25.2055,-68.6405,-1644.62,-17388.3,-2396.2,-100.143,127.022,-350.519,-862.135,8196.59,-1253.77,14.5183,-113.152,-87.0965,-6377.7,-4218.53,-2795.47,-8.21511,-0.379563,-58.5939,9624.17,-2200.91,274.701,-58.5444,35.289,-27.7747
3.7955,5889.07,-2494.46,7380.57,24.3699,-52.2058,-19.5344,9612.74,-1870.11,12657.0,-7.78505,312.892,-95.4047,877.031,9076.46,-1463.63,-1.47074,-24.463,-69.0957,-1698.93,-17510.4,-2427.15,-99.7652,126.59,-350.741,-818.341,8192.57,-1287.47,14.5127,-112.866,-86.9843,-6278.96,-4256.89,-2792.3,-9.08151,-0.947852,-58.1922,9616.29,-2190.58,273.049,-58.3106,36.2852,-27.9046
3.796,5883.21,-2465.96,7412.15,24.649,-52.3585,-19.3425,9826.6,-1873.55,12768.9,-7.49679,311.804,-94.722,870.393,9078.66,-1457.96,-1.30193,-23.7328,-69.5565,-1795.31,-17629.5,-2450.24,-99.2414,126.402,-350.757,-744.031,8204.02,-1317.77,14.4728,-112.297,-86.9125,-6155.13,-4303.63,-2793.5,-9.87037,-1.47418,-57.8425,9584.48,-2174.31,259.358,-58.1584,37.241,-27.9711
3.7965,5876.19,-2436.24,7444.66,24.9011,-52.5189,-19.1462,10059.7,-1877.25,12879.5,-7.17965,310.786,-94.0291,862.801,9079.54,-1451.62,-1.13559,-23.0041,-70.0182,-1896.95,-17748.1,-2472.36,-98.6994,126.244,-350.747,-665.906,8217.4,-1347.65,14.4286,-111.692,-86.8458,-6028.15,-4351.42,-2795.24,-10.6495,-1.99526,-57.4993,9549.69,-2157.31,244.163,-58.0163,38.1916,-28.0296
3.797,5869.17,-2406.51,7477.18,25.1532,-52.6793,-18.9498,10292.7,-1880.95,12990.1,-6.86252,309.769,-93.3362,855.209,9080.42,-1445.27,-0.969248,-22.2755,-70.4798,-1998.6,-17866.8,-2494.47,-98.1573,126.086,-350.737,-587.782,8230.78,-1377.52,14.3844,-111.087,-86.7791,-5901.18,-4399.21,-2796.98,-11.4287,-2.51634,-57.1561,9514.89,-2140.31,228.967,-57.8743,39.1423,-28.0882
3.7975,5862.16,-2376.79,7509.69,25.4054,-52.8397,-18.7535,10525.8,-1884.66,13100.7,-6.54538,308.751,-92.6433,847.617,9081.3,-1438.93,-0.802904,-21.5468,-70.9414,-2100.24,-17985.4,-2516.59,-97.6153,125.929,-350.727,-509.657,8244.16,-1407.4,14.3402,-110.481,-86.7124,-5774.2,-4447.01,-2798.73,-12.2078,-3.03743,-56.8129,9480.09,-2123.31,213.771,-57.7323,40.093,-28.1467
3.798,5855.14,-2347.06,7542.21,25.6575,-53.0002,-18.5572,10758.9,-1888.36,13211.3,-6.22824,307.734,-91.9504,840.026,9082.19,-1432.59,-0.636561,-20.8181,-71.403,-2201.88,-18104.1,-2538.7,-97.0732,125.771,-350.717,-431.533,8257.55,-1437.28,14.296,-109.876,-86.6457,-5647.23,-4494.8,-2800.47,-12.987,-3.55851,-56.4697,9445.29,-2106.31,198.575,-57.5902,41.0437,-28.2052
3.7985,5848.13,-2317.34,7574.72,25.9096,-53.1606,-18.3608,10991.9,-1892.06,13321.9,-5.91111,306.716,-91.2575,832.433,9083.07,-1426.25,-0.470218,-20.0895,-71.8646,-2303.52,-18222.8,-2560.82,-96.5311,125.613,-350.707,-353.409,8270.93,-1467.16,14.2518,-109.271,-86.579,-5520.25,-4542.59,-2802.21,-13.7662,-4.07959,-56.1265,9410.49,-2089.31,183.379,-57.4482,41.9944,-28.2638
3.799,5841.11,-2287.61,7607.24,26.1617,-53.321,-18.1645,11225.0,-1895.77,13432.6,-5.59397,305.699,-90.5646,824.841,9083.95,-1419.91,-0.303875,-19.3608,-72.3262,-2405.17,-18341.4,-2582.94,-95.9891,125.455,-350.697,-275.284,8284.31,-1497.03,14.2075,-108.666,-86.5123,-5393.27,-4590.38,-2803.96,-14.5453,-4.60067,-55.7833,9375.69,-2072.31,168.183,-57.3061,42.9451,-28.3223
3.7995,5834.09,-2257.89,7639.75,26.4138,-53.4815,-17.9681,11458.1,-1899.47,13543.2,-5.27683,304.682,-89.8717,817.25,9084.83,-1413.56,-0.137532,-18.6322,-72.7878,-2506.81,-18460.1,-2605.05,-95.447,125.298,-350.687,-197.16,8297.7,-1526.91,14.1633,-108.061,-86.4456,-5266.3,-4638.17,-2805.7,-15.3245,-5.12175,-55.4401,9340.89,-2055.31,152.987,-57.1641,43.8957,-28.3809
3.8,5827.08,-2228.16,7672.27,26.6659,-53.6419,-17.7718,11691.1,-1903.17,13653.8,-4.9597,303.664,-89.1787,809.658,9085.71,-1407.22,0.0288107,-17.9035,-73.2494,-2608.45,-18578.7,-2627.17,-94.905,125.14,-350.677,-119.035,8311.08,-1556.79,14.1191,-107.456,-86.3789,-5139.32,-4685.96,-2807.44,-16.1036,-5.64284,-55.0969,9306.09,-2038.31,137.791,-57.0221,44.8464,-28.4394
3.8005,5818.74,-2198.85,7702.51,26.7092,-53.8988,-17.581,12108.8,-1949.81,13701.7,-4.60505,303.596,-88.7982,793.659,9111.87,-1413.49,0.209362,-17.4189,-73.6637,-2782.92,-18712.7,-2620.48,-94.295,125.275,-350.498,-27.6467,8330.64,-1566.58,13.9928,-106.547,-86.2734,-5012.77,-4729.5,-2811.32,-16.9263,-6.55314,-54.8705,9248.68,-2043.15,126.618,-56.8241,45.6816,-28.6856
3.801,5810.41,-2169.53,7732.75,26.7525,-54.1558,-17.3902,12526.5,-1996.46,13749.7,-4.25041,303.527,-88.4176,777.66,9138.03,-1419.76,0.389913,-16.9343,-74.0781,-2957.38,-18846.6,-2613.79,-93.685,125.411,-350.32,63.742,8350.21,-1576.37,13.8664,-105.637,-86.168,-4886.21,-4773.04,-2815.21,-17.749,-7.46345,-54.6442,9191.26,-2048.0,115.445,-56.6261,46.5168,-28.9318
3.8015,5802.07,-2140.21,7762.99,26.7957,-54.4127,-17.1994,12944.2,-2043.1,13797.6,-3.89576,303.458,-88.0371,761.661,9164.18,-1426.02,0.570464,-16.4497,-74.4924,-3131.84,-18980.5,-2607.1,-93.075,125.547,-350.141,155.131,8369.78,-1586.17,13.7401,-104.728,-86.0625,-4759.66,-4816.59,-2819.09,-18.5717,-8.37376,-54.4179,9133.85,-2052.84,104.271,-56.4281,47.352,-29.1781
3.802,5793.74,-2110.9,7793.23,26.839,-54.6697,-17.0086,13361.9,-2089.74,13845.6,-3.54112,303.39,-87.6565,745.663,9190.34,-1432.29,0.751015,-15.965,-74.9067,-3306.3,-19114.4,-2600.41,-92.465,125.682,-349.962,246.519,8389.34,-1595.96,13.6137,-103.819,-85.9571,-4633.1,-4860.13,-2822.97,-19.3944,-9.28406,-54.1915,9076.43,-2057.69,93.0981,-56.2301,48.1872,-29.4243
3.8025,5785.41,-2081.58,7823.47,26.8823,-54.9266,-16.8178,13779.6,-2136.38,13893.5,-3.18647,303.321,-87.276,729.664,9216.5,-1438.56,0.931566,-15.4804,-75.3211,-3480.76,-19248.4,-2593.72,-91.855,125.818,-349.784,337.908,8408.91,-1605.75,13.4874,-102.909,-85.8516,-4506.54,-4903.68,-2826.85,-20.2171,-10.1944,-53.9652,9019.02,-2062.53,81.9248,-56.0321,49.0224,-29.6705
3.803,5777.07,-2052.26,7853.71,26.9255,-55.1836,-16.627,14197.3,-2183.02,13941.4,-2.83183,303.253,-86.8954,713.665,9242.66,-1444.83,1.11212,-14.9958,-75.7354,-3655.22,-19382.3,-2587.04,-91.2451,125.953,-349.605,429.297,8428.48,-1615.54,13.361,-102.0,-85.7461,-4379.99,-4947.22,-2830.73,-21.0398,-11.1047,-53.7389,8961.6,-2067.38,70.7515,-55.8341,49.8576,-29.9167
3.8035,5768.74,-2022.94,7883.95,26.9688,-55.4405,-16.4362,14615.0,-2229.66,13989.4,-2.47719,303.184,-86.5149,697.666,9268.82,-1451.09,1.29267,-14.5112,-76.1497,-3829.68,-19516.2,-2580.35,-90.6351,126.089,-349.427,520.686,8448.04,-1625.34,13.2346,-101.09,-85.6407,-4253.43,-4990.76,-2834.61,-21.8625,-12.015,-53.5125,8904.18,-2072.22,59.5783,-55.6361,50.6928,-30.1629
3.804,5760.4,-1993.63,7914.19,27.0121,-55.6975,-16.2454,15032.7,-2276.3,14037.3,-2.12254,303.116,-86.1343,681.668,9294.97,-1457.36,1.47322,-14.0265,-76.564,-4004.14,-19650.1,-2573.66,-90.0251,126.224,-349.248,612.074,8467.61,-1635.13,13.1083,-100.181,-85.5352,-4126.88,-5034.31,-2838.49,-22.6852,-12.9253,-53.2862,8846.77,-2077.07,48.405,-55.4381,51.528,-30.4092
3.8045,5752.42,-1965.83,7942.11,27.0353,-55.9622,-16.0631,15458.8,-2318.31,14076.7,-1.75319,303.149,-85.7336,665.398,9320.41,-1464.02,1.64769,-13.5568,-76.9734,-4184.26,-19782.9,-2565.62,-89.4053,126.361,-349.055,703.129,8490.81,-1641.44,12.9717,-99.2719,-85.4309,-3998.75,-5080.31,-2840.1,-23.5304,-13.7797,-53.0523,8792.11,-2079.3,40.0542,-55.2552,52.3305,-30.6254
3.805,5747.23,-1950.19,7951.53,26.8984,-56.2892,-15.9484,15952.3,-2323.22,14047.7,-1.26615,303.998,-85.1714,646.963,9340.11,-1473.84,1.77348,-13.206,-77.3427,-4409.64,-19906.3,-2546.75,-88.7075,126.507,-348.748,791.506,8543.12,-1619.86,12.7533,-98.3646,-85.3357,-3858.04,-5146.04,-2823.49,-24.5556,-14.1868,-52.7582,8759.54,-2060.57,54.2829,-55.1934,52.8709,-30.6021
3.8055,5742.04,-1934.55,7960.95,26.7615,-56.6162,-15.8337,16445.8,-2328.13,14018.7,-0.779121,304.848,-84.6092,628.527,9359.8,-1483.65,1.89928,-12.8552,-77.712,-4635.01,-20029.6,-2527.88,-88.0097,126.652,-348.441,879.884,8595.42,-1598.28,12.5348,-97.4573,-85.2405,-3717.33,-5211.76,-2806.89,-25.5808,-14.594,-52.4641,8726.97,-2041.84,68.5116,-55.1316,53.4113,-30.5787
3.806,5736.85,-1918.91,7970.36,26.6246,-56.9432,-15.719,16939.2,-2333.03,13989.7,-0.292087,305.697,-84.047,610.092,9379.5,-1493.47,2.02508,-12.5043,-78.0813,-4860.38,-20153.0,-2509.01,-87.3118,126.798,-348.133,968.262,8647.72,-1576.69,12.3163,-96.55,-85.1453,-3576.62,-5277.48,-2790.29,-26.6061,-15.0012,-52.1699,8694.4,-2023.11,82.7404,-55.0698,53.9518,-30.5553
3.8065,5731.66,-1903.26,7979.78,26.4877,-57.2702,-15.6043,17432.7,-2337.94,13960.7,0.194946,306.547,-83.4848,591.657,9399.19,-1503.28,2.15088,-12.1535,-78.4506,-5085.76,-20276.4,-2490.13,-86.614,126.943,-347.826,1056.64,8700.03,-1555.11,12.0979,-95.6427,-85.0501,-3435.91,-5343.2,-2773.69,-27.6313,-15.4083,-51.8758,8661.82,-2004.38,96.9691,-55.008,54.4922,-30.5319
3.807,5726.47,-1887.62,7989.2,26.3508,-57.5972,-15.4896,17926.2,-2342.85,13931.7,0.68198,307.396,-82.9225,573.221,9418.89,-1513.1,2.27667,-11.8027,-78.8199,-5311.13,-20399.7,-2471.26,-85.9162,127.088,-347.519,1145.02,8752.33,-1533.53,11.8794,-94.7354,-84.9549,-3295.19,-5408.92,-2757.09,-28.6565,-15.8155,-51.5817,8629.25,-1985.65,111.198,-54.9461,55.0326,-30.5086
3.8075,5721.28,-1871.98,7998.61,26.2139,-57.9242,-15.3749,18419.6,-2347.76,13902.7,1.16901,308.246,-82.3603,554.786,9438.58,-1522.91,2.40247,-11.4519,-79.1892,-5536.5,-20523.1,-2452.39,-85.2184,127.234,-347.212,1233.4,8804.63,-1511.95,11.661,-93.828,-84.8597,-3154.48,-5474.65,-2740.49,-29.6817,-16.2226,-51.2876,8596.68,-1966.92,125.427,-54.8843,55.5731,-30.4852
3.808,5716.09,-1856.34,8008.03,26.077,-58.2512,-15.2602,18913.1,-2352.67,13873.7,1.65605,309.095,-81.7981,536.35,9458.28,-1532.73,2.52827,-11.1011,-79.5585,-5761.88,-20646.5,-2433.52,-84.5205,127.379,-346.904,1321.77,8856.94,-1490.37,11.4425,-92.9207,-84.7646,-3013.77,-5540.37,-2723.88,-30.7069,-16.6298,-50.9934,8564.11,-1948.19,139.655,-54.8225,56.1135,-30.4618
3.8085,5710.9,-1840.7,8017.45,25.9401,-58.5782,-15.1455,19406.6,-2357.58,13844.7,2.14308,309.945,-81.2359,517.915,9477.98,-1542.54,2.65406,-10.7503,-79.9278,-5987.25,-20769.8,-2414.65,-83.8227,127.525,-346.597,1410.15,8909.24,-1468.79,11.2241,-92.0134,-84.6694,-2873.06,-5606.09,-2707.28,-31.7321,-17.0369,-50.6993,8531.53,-1929.46,153.884,-54.7607,56.654,-30.4385
3.809,5708.25,-1827.65,8025.6,25.7976,-58.9007,-15.0302,19871.6,-2324.57,13802.8,2.49748,310.885,-80.5938,501.147,9501.41,-1550.37,2.76013,-10.4134,-80.3004,-6198.72,-20885.0,-2402.72,-83.1765,127.712,-346.275,1502.38,8961.42,-1447.24,10.9766,-91.1156,-84.5665,-2730.65,-5672.72,-2695.18,-32.7141,-17.1822,-50.4745,8497.77,-1913.36,166.64,-54.7039,57.1816,-30.4319
3.8095,5714.47,-1823.65,8029.35,25.6357,-59.2075,-14.9131,20237.0,-2158.84,13715.8,2.38765,312.142,-79.672,490.217,9537.91,-1551.23,2.79717,-10.1255,-80.6846,-6361.54,-20971.5,-2415.1,-82.711,128.043,-345.899,1608.12,9013.15,-1425.77,10.6277,-90.251,-84.4367,-2582.26,-5742.54,-2698.82,-33.5446,-16.4108,-50.4921,8459.85,-1906.49,174.239,-54.6645,57.6642,-30.484
3.81,5720.69,-1819.65,8033.1,25.4739,-59.5143,-14.796,20602.5,-1993.12,13628.8,2.27782,313.399,-78.7501,479.286,9574.41,-1552.1,2.83419,-9.83763,-81.0687,-6524.35,-21058.0,-2427.48,-82.2455,128.374,-345.523,1713.85,9064.88,-1404.31,10.2787,-89.3864,-84.307,-2433.87,-5812.37,-2702.45,-34.3751,-15.6394,-50.5098,8421.92,-1899.61,181.838,-54.6252,58.1468,-30.5361
3.8105,5726.91,-1815.66,8036.85,25.312,-59.8212,-14.6788,20967.9,-1827.4,13541.8,2.16799,314.656,-77.8283,468.356,9610.91,-1552.96,2.87123,-9.54972,-81.4529,-6687.17,-21144.5,-2439.85,-81.78,128.706,-345.147,1819.58,9116.61,-1382.84,9.92976,-88.5218,-84.1772,-2285.48,-5882.19,-2706.09,-35.2056,-14.8679,-50.5275,8384.0,-1892.74,189.438,-54.5858,58.6295,-30.5882
3.811,5733.13,-1811.66,8040.6,25.1501,-60.128,-14.5617,21333.4,-1661.68,13454.8,2.05816,315.913,-76.9065,457.425,9647.41,-1553.82,2.90825,-9.26181,-81.837,-6849.99,-21231.0,-2452.23,-81.3144,129.037,-344.772,1925.31,9168.35,-1361.38,9.5808,-87.6572,-84.0475,-2137.09,-5952.01,-2709.72,-36.0362,-14.0965,-50.5452,8346.08,-1885.86,197.037,-54.5464,59.1121,-30.6403
3.8115,5739.36,-1807.66,8044.34,24.9882,-60.4348,-14.4445,21698.9,-1495.95,13367.8,1.94833,317.17,-75.9846,446.494,9683.91,-1554.69,2.94529,-8.9739,-82.2212,-7012.8,-21317.5,-2464.61,-80.8489,129.369,-344.396,2031.05,9220.08,-1339.91,9.23185,-86.7926,-83.9177,-1988.7,-6021.83,-2713.36,-36.8667,-13.3251,-50.5629,8308.15,-1878.99,204.637,-54.5071,59.5948,-30.6924
3.812,5745.58,-1803.67,8048.09,24.8264,-60.7416,-14.3274,22064.3,-1330.23,13280.8,1.8385,318.427,-75.0628,435.564,9720.41,-1555.55,2.98232,-8.686,-82.6053,-7175.62,-21404.0,-2476.98,-80.3834,129.7,-344.02,2136.78,9271.81,-1318.45,8.8829,-85.928,-83.788,-1840.31,-6091.65,-2717.0,-37.6972,-12.5537,-50.5806,8270.23,-1872.11,212.236,-54.4677,60.0774,-30.7445
3.8125,5751.8,-1799.67,8051.84,24.6645,-61.0484,-14.2103,22429.8,-1164.51,13193.8,1.72867,319.685,-74.141,424.633,9756.91,-1556.41,3.01934,-8.39809,-82.9895,-7338.43,-21490.4,-2489.36,-79.9179,130.032,-343.644,2242.51,9323.54,-1296.99,8.53394,-85.0634,-83.6582,-1691.92,-6161.48,-2720.63,-38.5277,-11.7823,-50.5983,8232.31,-1865.24,219.835,-54.4284,60.5601,-30.7966
3.813,5758.02,-1795.68,8055.59,24.5026,-61.3552,-14.0931,22795.2,-998.785,13106.7,1.61884,320.942,-73.2192,413.703,9793.41,-1557.28,3.05638,-8.11018,-83.3736,-7501.25,-21576.9,-2501.74,-79.4524,130.363,-343.268,2348.24,9375.28,-1275.52,8.18499,-84.1988,-83.5285,-1543.53,-6231.3,-2724.27,-39.3582,-11.0109,-50.616,8194.38,-1858.36,227.435,-54.389,61.0427,-30.8487
3.8135,5767.73,-1793.36,8064.24,24.3611,-61.6769,-13.9787,23064.8,-803.981,13005.6,1.02313,321.997,-72.4131,402.872,9830.92,-1549.46,3.09573,-7.86418,-83.744,-7631.26,-21654.7,-2523.82,-79.019,130.831,-342.844,2442.4,9425.52,-1253.16,7.81627,-83.3612,-83.3557,-1406.08,-6297.14,-2714.02,-40.0298,-9.79292,-50.6565,8155.81,-1856.35,237.637,-54.3879,61.4921,-30.9007
3.814,5784.41,-1794.4,8082.7,24.2602,-62.0282,-13.8696,23142.7,-551.013,12876.1,-0.544366,322.65,-71.8386,392.239,9870.45,-1524.3,3.13972,-7.70198,-84.0868,-7695.64,-21715.2,-2565.33,-78.65,131.572,-342.323,2513.41,9472.8,-1229.01,7.40804,-82.5774,-83.0968,-1290.49,-6355.01,-2675.99,-40.3834,-7.68188,-50.7426,8115.92,-1864.07,253.046,-54.4633,61.8751,-30.9527
3.8145,5801.09,-1795.44,8101.16,24.1592,-62.3795,-13.7604,23220.6,-298.046,12746.6,-2.11186,323.302,-71.264,381.607,9909.99,-1499.14,3.18372,-7.53979,-84.4296,-7760.02,-21775.6,-2606.83,-78.2809,132.313,-341.803,2584.43,9520.07,-1204.86,6.9998,-81.7935,-82.8378,-1174.9,-6412.88,-2637.96,-40.7371,-5.57084,-50.8288,8076.03,-1871.78,268.455,-54.5387,62.2581,-31.0046
3.815,5817.77,-1796.48,8119.62,24.0583,-62.7308,-13.6513,23298.6,-45.0786,12617.2,-3.67935,323.954,-70.6895,370.974,9949.52,-1473.98,3.22772,-7.3776,-84.7725,-7824.41,-21836.1,-2648.33,-77.9119,133.054,-341.282,2655.44,9567.35,-1180.71,6.59157,-81.0098,-82.5789,-1059.31,-6470.75,-2599.93,-41.0907,-3.4598,-50.915,8036.15,-1879.5,283.864,-54.6141,62.6411,-31.0566
3.8155,5834.44,-1797.52,8138.08,23.9574,-63.0821,-13.5422,23376.5,207.889,12487.7,-5.24684,324.607,-70.115,360.342,9989.05,-1448.81,3.27172,-7.2154,-85.1153,-7888.79,-21896.5,-2689.83,-77.5429,133.794,-340.761,2726.45,9614.62,-1156.56,6.18333,-80.2259,-82.32,-943.719,-6528.63,-2561.9,-41.4444,-1.34876,-51.0011,7996.26,-1887.21,299.273,-54.6894,63.0241,-31.1086
3.816,5851.12,-1798.55,8156.54,23.8565,-63.4334,-13.4331,23454.4,460.856,12358.2,-6.81433,325.259,-69.5404,349.71,10028.6,-1423.65,3.31571,-7.05321,-85.4581,-7953.18,-21957.0,-2731.34,-77.1738,134.535,-340.24,2797.47,9661.9,-1132.4,5.77509,-79.4421,-82.061,-828.13,-6586.5,-2523.87,-41.798,0.762279,-51.0873,7956.38,-1894.93,314.682,-54.7648,63.4071,-31.1605
3.8165,5867.8,-1799.59,8175.0,23.7556,-63.7847,-13.324,23532.3,713.823,12228.7,-8.38182,325.911,-68.9659,339.077,10068.1,-1398.49,3.35971,-6.89102,-85.8009,-8017.56,-22017.4,-2772.84,-76.8048,135.276,-339.719,2868.48,9709.17,-1108.25,5.36686,-78.6583,-81.8021,-712.541,-6644.37,-2485.84,-42.1517,2.87332,-51.1734,7916.49,-1902.65,330.091,-54.8402,63.7901,-31.2125
3.817,5884.48,-1800.63,8193.46,23.6546,-64.136,-13.2149,23610.2,966.791,12099.3,-9.94931,326.564,-68.3913,328.445,10107.7,-1373.33,3.40371,-6.72882,-86.1438,-8081.95,-22077.9,-2814.34,-76.4357,136.017,-339.198,2939.49,9756.45,-1084.1,4.95862,-77.8745,-81.5432,-596.951,-6702.24,-2447.81,-42.5053,4.98436,-51.2596,7876.6,-1910.36,345.499,-54.9156,64.1731,-31.2645
3.8175,5901.16,-1801.67,8211.92,23.5537,-64.4873,-13.1058,23688.2,1219.76,11969.8,-11.5168,327.216,-67.8168,317.813,10147.2,-1348.17,3.44771,-6.56663,-86.4866,-8146.33,-22138.3,-2855.84,-76.0667,136.758,-338.677,3010.51,9803.73,-1059.95,4.55039,-77.0907,-81.2842,-481.362,-6760.11,-2409.78,-42.859,7.0954,-51.3457,7836.72,-1918.08,360.908,-54.991,64.5561,-31.3164
3.818,5911.82,-1801.74,8228.91,23.4743,-64.8591,-13.0235,23687.3,1426.91,11817.8,-13.3485,327.467,-67.4543,320.779,10184.1,-1329.87,3.47289,-6.4539,-86.841,-8188.62,-22164.5,-2888.54,-75.7181,137.67,-338.03,3078.17,9855.4,-1039.47,4.12869,-76.3833,-80.9937,-351.643,-6828.46,-2361.41,-42.9054,9.78404,-51.5165,7800.44,-1914.69,378.268,-55.0873,64.854,-31.3371
3.8185,5914.95,-1800.59,8244.07,23.4217,-65.2565,-12.975,23588.1,1576.8,11637.7,-15.5106,327.217,-67.3568,340.745,10217.9,-1320.15,3.47456,-6.403,-87.2097,-8203.29,-22147.7,-2910.23,-75.3952,138.797,-337.224,3141.63,9912.58,-1023.58,3.69016,-75.7714,-80.6635,-204.263,-6909.9,-2300.11,-42.5677,13.1947,-51.7931,7768.66,-1897.42,398.067,-55.2098,65.0455,-31.3186
3.819,5918.08,-1799.43,8259.23,23.3691,-65.6539,-12.9264,23488.9,1726.69,11457.5,-17.6727,326.967,-67.2593,360.711,10251.6,-1310.43,3.47622,-6.35211,-87.5785,-8217.97,-22131.0,-2931.92,-75.0723,139.923,-336.418,3205.1,9969.75,-1007.68,3.25163,-75.1595,-80.3333,-56.8816,-6991.35,-2238.81,-42.23,16.6053,-52.0697,7736.89,-1880.16,417.866,-55.3322,65.2371,-31.3002
3.8195,5921.21,-1798.28,8274.39,23.3165,-66.0513,-12.8779,23389.6,1876.58,11277.4,-19.8347,326.717,-67.1618,380.677,10285.3,-1300.72,3.47789,-6.30121,-87.9473,-8232.64,-22114.2,-2953.61,-74.7494,141.05,-335.612,3268.57,10026.9,-991.789,2.81311,-74.5475,-80.0031,90.4993,-7072.79,-2177.52,-41.8923,20.016,-52.3463,7705.12,-1862.89,437.665,-55.4547,65.4286,-31.2817
3.82,5924.34,-1797.13,8289.54,23.2639,-66.4487,-12.8293,23290.4,2026.47,11097.3,-21.9968,326.466,-67.0643,400.643,10319.1,-1291.0,3.47956,-6.25031,-88.316,-8247.31,-22097.5,-2975.3,-74.4264,142.177,-334.806,3332.04,10084.1,-975.895,2.37458,-73.9356,-79.6729,237.88,-7154.23,-2116.22,-41.5546,23.4266,-52.6229,7673.34,-1845.62,457.465,-55.5772,65.6201,-31.2633
3.8205,5927.46,-1795.98,8304.7,23.2113,-66.8461,-12.7807,23191.1,2176.36,10917.1,-24.1589,326.216,-66.9668,420.609,10352.8,-1281.28,3.48122,-6.19941,-88.6848,-8261.98,-22080.7,-2996.99,-74.1035,143.303,-334.0,3395.51,10141.3,-960.002,1.93605,-73.3237,-79.3428,385.261,-7235.68,-2054.92,-41.2169,26.8373,-52.8995,7641.57,-1828.36,477.264,-55.6997,65.8117,-31.2448
3.821,5930.59,-1794.83,8319.86,23.1587,-67.2434,-12.7322,23091.9,2326.25,10737.0,-26.3209,325.966,-66.8693,440.575,10386.5,-1271.57,3.48289,-6.14851,-89.0536,-8276.66,-22064.0,-3018.68,-73.7806,144.43,-333.194,3458.98,10198.5,-944.108,1.49752,-72.7117,-79.0126,532.642,-7317.12,-1993.63,-40.8791,30.2479,-53.1761,7609.79,-1811.09,497.063,-55.8222,66.0032,-31.2263
3.8215,5933.72,-1793.68,8335.02,23.1061,-67.6408,-12.6836,22992.6,2476.14,10556.9,-28.483,325.716,-66.7718,460.541,10420.3,-1261.85,3.48456,-6.09761,-89.4223,-8291.33,-22047.2,-3040.36,-73.4577,145.557,-332.388,3522.45,10255.6,-928.215,1.059,-72.0998,-78.6824,680.023,-7398.57,-1932.33,-40.5414,33.6586,-53.4526,7578.02,-1793.83,516.862,-55.9447,66.1948,-31.2079
3.822,5936.85,-1792.52,8350.18,23.0535,-68.0382,-12.635,22893.4,2626.03,10376.7,-30.6451,325.466,-66.6743,480.507,10454.0,-1252.13,3.48623,-6.04672,-89.7911,-8306.0,-22030.5,-3062.05,-73.1348,146.683,-331.582,3585.92,10312.8,-912.321,0.620469,-71.4879,-78.3522,827.404,-7480.01,-1871.03,-40.2037,37.0692,-53.7292,7546.25,-1776.56,536.661,-56.0671,66.3863,-31.1894
3.8225,5923.55,-1798.37,8365.71,22.9762,-68.465,-12.5755,22812.0,2672.87,10194.1,-32.4221,324.947,-66.7669,490.896,10492.9,-1245.26,3.48972,-6.07097,-90.1601,-8352.27,-21973.5,-3052.2,-72.8041,147.864,-330.585,3633.1,10351.0,-904.045,0.205448,-70.9319,-78.0073,978.082,-7549.71,-1809.5,-39.5897,41.1485,-54.0132,7512.36,-1753.85,556.228,-56.168,66.4207,-31.1572
3.823,5897.1,-1809.81,8381.55,22.8791,-68.9151,-12.5071,22744.9,2637.28,10009.5,-33.8911,324.213,-67.0115,493.624,10535.9,-1240.67,3.49469,-6.15534,-90.5294,-8423.8,-21884.2,-3017.11,-72.4671,149.087,-329.435,3667.27,10373.9,-901.862,-0.190769,-70.4206,-77.6505,1131.4,-7610.02,-1747.78,-38.7546,45.7626,-54.3031,7476.77,-1726.79,575.61,-56.2515,66.3293,-31.1141
3.8235,5870.65,-1821.24,8397.39,22.782,-69.3653,-12.4387,22677.8,2601.69,9824.96,-35.3601,323.479,-67.2561,496.352,10578.9,-1236.07,3.49965,-6.23971,-90.8987,-8495.33,-21795.0,-2982.03,-72.1302,150.311,-328.285,3701.43,10396.8,-899.679,-0.586986,-69.9094,-77.2938,1284.71,-7670.33,-1686.07,-37.9195,50.3768,-54.593,7441.19,-1699.73,594.992,-56.335,66.2378,-31.0709
3.824,5844.2,-1832.68,8413.23,22.6848,-69.8155,-12.3704,22610.7,2566.11,9640.38,-36.8291,322.745,-67.5006,499.079,10621.9,-1231.47,3.50461,-6.32408,-91.268,-8566.87,-21705.7,-2946.94,-71.7933,151.535,-327.135,3735.6,10419.7,-897.496,-0.983203,-69.3981,-76.937,1438.03,-7730.63,-1624.35,-37.0844,54.9909,-54.8829,7405.61,-1672.67,614.374,-56.4186,66.1464,-31.0277
3.8245,5817.75,-1844.12,8429.07,22.5877,-70.2657,-12.302,22543.5,2530.52,9455.81,-38.2982,322.012,-67.7452,501.807,10664.9,-1226.88,3.50957,-6.40845,-91.6373,-8638.4,-21616.5,-2911.85,-71.4563,152.758,-325.985,3769.76,10442.7,-895.313,-1.37942,-68.8869,-76.5802,1591.35,-7790.94,-1562.63,-36.2493,59.605,-55.1727,7370.02,-1645.61,633.755,-56.5021,66.055,-30.9845
3.825,5791.3,-1855.56,8444.91,22.4906,-70.7159,-12.2337,22476.4,2494.93,9271.23,-39.7672,321.278,-67.9898,504.535,10707.9,-1222.28,3.51454,-6.49282,-92.0065,-8709.93,-21527.2,-2876.77,-71.1194,153.982,-324.836,3803.92,10465.6,-893.131,-1.77564,-68.3756,-76.2235,1744.66,-7851.25,-1500.91,-35.4142,64.2192,-55.4626,7334.44,-1618.56,653.137,-56.5856,65.9636,-30.9413
3.8255,5764.85,-1867.0,8460.75,22.3934,-71.1661,-12.1653,22409.3,2459.34,9086.65,-41.2362,320.544,-68.2344,507.263,10750.9,-1217.69,3.5195,-6.57719,-92.3758,-8781.47,-21438.0,-2841.68,-70.7825,155.205,-323.686,3838.09,10488.5,-890.948,-2.17185,-67.8643,-75.8667,1897.98,-7911.56,-1439.2,-34.5791,68.8333,-55.7525,7298.85,-1591.5,672.519,-56.6692,65.8722,-30.8982
3.826,5738.4,-1878.44,8476.59,22.2963,-71.6163,-12.0969,22342.2,2423.75,8902.08,-42.7052,319.81,-68.479,509.99,10793.9,-1213.09,3.52446,-6.66156,-92.7451,-8853.0,-21348.7,-2806.59,-70.4456,156.429,-322.536,3872.25,10511.5,-888.765,-2.56807,-67.3531,-75.51,2051.29,-7971.86,-1377.48,-33.744,73.4475,-56.0424,7263.27,-1564.44,691.901,-56.7527,65.7808,-30.855
3.8265,5711.95,-1889.87,8492.43,22.1992,-72.0665,-12.0286,22275.1,2388.16,8717.5,-44.1742,319.076,-68.7236,512.718,10836.9,-1208.49,3.52943,-6.74593,-93.1143,-8924.54,-21259.5,-2771.51,-70.1086,157.652,-321.386,3906.42,10534.4,-886.582,-2.96429,-66.8418,-75.1532,2204.61,-8032.17,-1315.76,-32.9089,78.0616,-56.3323,7227.69,-1537.38,711.283,-56.8362,65.6894,-30.8118
3.827,5687.51,-1906.04,8508.48,22.0998,-72.5908,-11.9681,22299.0,2306.02,8537.59,-44.8551,318.349,-69.0303,517.008,10860.2,-1214.48,3.58403,-6.85562,-93.4508,-9060.82,-21149.2,-2726.6,-69.852,158.595,-319.991,3922.77,10543.0,-890.802,-3.32722,-66.3273,-74.8731,2382.57,-8112.36,-1231.65,-31.8145,83.3052,-56.7845,7194.84,-1515.67,722.308,-56.9123,65.431,-30.7504
3.8275,5664.09,-1924.58,8524.62,21.9993,-73.1522,-11.9117,22368.3,2200.59,8360.02,-45.1419,317.626,-69.368,522.079,10873.6,-1225.76,3.66345,-6.97797,-93.7707,-9229.49,-21028.5,-2676.77,-69.6355,159.398,-318.473,3930.23,10544.5,-898.223,-3.6735,-65.8112,-74.6313,2572.86,-8202.49,-1136.34,-30.5906,88.8635,-57.3177,7163.37,-1496.63,729.155,-56.9847,65.0891,-30.6799
3.828,5640.66,-1943.11,8540.76,21.8988,-73.7135,-11.8552,22437.6,2095.16,8182.46,-45.4287,316.902,-69.7058,527.149,10887.0,-1237.04,3.74288,-7.10032,-94.0907,-9398.16,-20907.8,-2626.94,-69.419,160.2,-316.956,3937.69,10545.9,-905.643,-4.01979,-65.295,-74.3896,2763.15,-8292.63,-1041.03,-29.3667,94.4218,-57.851,7131.89,-1477.59,736.003,-57.0572,64.7472,-30.6094
3.8285,5617.24,-1961.64,8556.91,21.7983,-74.2749,-11.7987,22507.0,1989.73,8004.88,-45.7156,316.178,-70.0436,532.22,10900.5,-1248.31,3.8223,-7.22267,-94.4106,-9566.82,-20787.1,-2577.12,-69.2025,161.002,-315.438,3945.14,10547.4,-913.064,-4.36607,-64.7789,-74.1478,2953.43,-8382.76,-945.713,-28.1428,99.9801,-58.3843,7100.41,-1458.55,742.85,-57.1296,64.4054,-30.5389
3.829,5593.81,-1980.18,8573.05,21.6978,-74.8363,-11.7423,22576.3,1884.31,7827.31,-46.0024,315.454,-70.3813,537.291,10913.9,-1259.59,3.90173,-7.34502,-94.7306,-9735.49,-20666.4,-2527.29,-68.9859,161.805,-313.921,3952.6,10548.8,-920.485,-4.71236,-64.2627,-73.9061,3143.72,-8472.89,-850.401,-26.9188,105.538,-58.9176,7068.94,-1439.51,749.697,-57.202,64.0635,-30.4684
3.8295,5570.38,-1998.71,8589.2,21.5973,-75.3977,-11.6858,22645.7,1778.88,7649.74,-46.2892,314.73,-70.7191,542.362,10927.3,-1270.87,3.98115,-7.46737,-95.0506,-9904.15,-20545.7,-2477.46,-68.7694,162.607,-312.403,3960.05,10550.3,-927.906,-5.05864,-63.7466,-73.6643,3334.01,-8563.02,-755.089,-25.6949,111.097,-59.4509,7037.46,-1420.48,756.545,-57.2744,63.7216,-30.398
3.83,5546.96,-2017.24,8605.34,21.4968,-75.9591,-11.6293,22715.0,1673.45,7472.17,-46.576,314.007,-71.0569,547.432,10940.8,-1282.15,4.06058,-7.58972,-95.3705,-10072.8,-20425.0,-2427.64,-68.5529,163.409,-310.886,3967.51,10551.7,-935.327,-5.40493,-63.2304,-73.4225,3524.3,-8653.15,-659.777,-24.471,116.655,-59.9842,7005.99,-1401.44,763.392,-57.3468,63.3797,-30.3275
3.8305,5523.53,-2035.78,8621.49,21.3963,-76.5205,-11.5729,22784.3,1568.02,7294.6,-46.8629,313.283,-71.3946,552.503,10954.2,-1293.43,4.14,-7.71207,-95.6905,-10241.5,-20304.3,-2377.81,-68.3364,164.212,-309.368,3974.97,10553.2,-942.747,-5.75122,-62.7143,-73.1808,3714.58,-8743.29,-564.464,-23.247,122.213,-60.5175,6974.51,-1382.4,770.239,-57.4193,63.0379,-30.257
3.831,5500.11,-2054.31,8637.63,21.2958,-77.0818,-11.5164,22853.7,1462.6,7117.03,-47.1497,312.559,-71.7324,557.574,10967.6,-1304.71,4.21943,-7.83442,-96.0105,-10410.2,-20183.6,-2327.98,-68.1199,165.014,-307.851,3982.42,10554.6,-950.168,-6.0975,-62.1981,-72.939,3904.87,-8833.42,-469.152,-22.0231,127.772,-61.0507,6943.03,-1363.36,777.086,-57.4917,62.696,-30.1865
3.8315,5499.93,-2055.52,8640.13,21.155,-77.684,-11.4796,23016.3,1418.96,6969.33,-46.9034,311.924,-72.0808,550.658,10979.3,-1312.21,4.25495,-7.96842,-96.3772,-10630.3,-20073.6,-2290.52,-68.0424,165.35,-306.174,3968.46,10556.3,-945.1,-6.41507,-61.6425,-72.6898,4107.67,-8906.35,-343.214,-20.685,133.384,-61.6877,6922.03,-1344.46,783.621,-57.5135,62.1825,-30.1448
3.832,5506.41,-2051.79,8638.73,21.0027,-78.2978,-11.4485,23205.7,1392.99,6830.17,-46.5047,311.315,-72.4322,540.318,10990.4,-1318.63,4.27792,-8.10574,-96.7572,-10865.1,-19966.7,-2256.59,-68.0046,165.554,-304.452,3948.38,10558.0,-936.463,-6.72443,-61.0756,-72.4384,4314.04,-8974.37,-208.526,-19.3143,139.011,-62.3543,6904.01,-1325.6,790.066,-57.5209,61.6201,-30.1114
3.8325,5512.88,-2048.06,8637.33,20.8504,-78.9115,-11.4173,23395.0,1367.01,6691.0,-46.106,310.706,-72.7837,529.978,11001.5,-1325.06,4.30089,-8.24306,-97.1373,-11100.0,-19859.8,-2222.66,-67.9668,165.757,-302.729,3928.3,10559.8,-927.827,-7.03379,-60.5086,-72.1871,4520.42,-9042.38,-73.8373,-17.9436,144.639,-63.021,6885.99,-1306.74,796.511,-57.5282,61.0576,-30.0781
3.833,5519.35,-2044.32,8635.93,20.6981,-79.5253,-11.3862,23584.3,1341.03,6551.84,-45.7074,310.097,-73.1351,519.638,11012.6,-1331.48,4.32387,-8.38039,-97.5173,-11334.8,-19752.8,-2188.72,-67.929,165.96,-301.007,3908.21,10561.5,-919.19,-7.34315,-59.9417,-71.9357,4726.79,-9110.4,60.8511,-16.5728,150.266,-63.6876,6867.97,-1287.88,802.956,-57.5356,60.4952,-30.0447
3.8335,5525.82,-2040.59,8634.53,20.5458,-80.1391,-11.355,23773.7,1315.06,6412.67,-45.3087,309.488,-73.4865,509.298,11023.8,-1337.9,4.34684,-8.51771,-97.8974,-11569.6,-19645.9,-2154.79,-67.8913,166.163,-299.285,3888.13,10563.2,-910.554,-7.65251,-59.3748,-71.6843,4933.16,-9178.42,195.539,-15.2021,155.894,-64.3542,6849.96,-1269.01,809.401,-57.543,59.9327,-30.0113
3.834,5532.29,-2036.85,8633.13,20.3935,-80.7529,-11.3239,23963.0,1289.08,6273.51,-44.9101,308.879,-73.838,498.958,11034.9,-1344.33,4.36981,-8.65504,-98.2774,-11804.5,-19539.0,-2120.86,-67.8535,166.366,-297.563,3868.05,10564.9,-901.917,-7.96187,-58.8078,-71.433,5139.54,-9246.44,330.228,-13.8314,161.522,-65.0208,6831.94,-1250.15,815.846,-57.5504,59.3703,-29.9779
3.8345,5538.76,-2033.12,8631.73,20.2412,-81.3667,-11.2927,24152.3,1263.1,6134.34,-44.5114,308.27,-74.1894,488.618,11046.0,-1350.75,4.39279,-8.79236,-98.6575,-12039.3,-19432.1,-2086.93,-67.8157,166.57,-295.841,3847.97,10566.7,-893.281,-8.27123,-58.2409,-71.1816,5345.91,-9314.45,464.916,-12.4607,167.149,-65.6875,6813.92,-1231.29,822.292,-57.5577,58.8078,-29.9445
3.835,5545.23,-2029.39,8630.33,20.0889,-81.9805,-11.2616,24341.7,1237.13,5995.18,-44.1127,307.66,-74.5409,478.277,11057.1,-1357.18,4.41576,-8.92968,-99.0375,-12274.1,-19325.2,-2053.0,-67.7779,166.773,-294.118,3827.89,10568.4,-884.644,-8.58059,-57.674,-70.9303,5552.28,-9382.47,599.605,-11.0899,172.777,-66.3541,6795.91,-1212.43,828.737,-57.5651,58.2454,-29.9111
3.8355,5551.7,-2025.65,8628.93,19.9366,-82.5942,-11.2304,24531.0,1211.15,5856.01,-43.7141,307.051,-74.8923,467.937,11068.3,-1363.6,4.43873,-9.06701,-99.4176,-12509.0,-19218.3,-2019.07,-67.7402,166.976,-292.396,3807.8,10570.1,-876.008,-8.88995,-57.1071,-70.6789,5758.66,-9450.49,734.293,-9.71922,178.404,-67.0207,6777.89,-1193.56,835.182,-57.5725,57.6829,-29.8777
3.836,5570.38,-2016.11,8637.07,19.7783,-83.1891,-11.1962,24707.8,1297.11,5718.8,-43.3266,306.4,-75.2853,460.836,11082.3,-1373.92,4.55296,-9.16717,-99.8278,-12759.8,-19136.8,-2018.08,-67.7739,166.569,-290.652,3784.33,10565.9,-891.808,-9.03974,-56.5119,-70.5412,5937.84,-9463.32,914.545,-8.26995,182.779,-67.6054,6769.06,-1160.5,842.976,-57.4787,56.8462,-29.7133
3.8365,5590.59,-2005.83,8646.39,19.6194,-83.7815,-11.1616,24883.1,1397.07,5581.83,-42.9404,305.744,-75.6835,454.14,11096.7,-1384.74,4.67859,-9.2627,-100.242,-13012.7,-19058.4,-2021.21,-67.8166,166.085,-288.906,3760.42,10561.0,-910.663,-9.16958,-55.9132,-70.4176,6113.63,-9469.24,1100.49,-6.81086,186.997,-68.1798,6761.37,-1125.67,850.938,-57.3723,55.9752,-29.5326
3.837,5610.79,-1995.56,8655.72,19.4604,-84.3739,-11.1271,25058.4,1497.03,5444.87,-42.5543,305.089,-76.0817,447.444,11111.0,-1395.55,4.80423,-9.35822,-100.656,-13265.5,-18980.1,-2024.34,-67.8593,165.601,-287.159,3736.52,10556.1,-929.518,-9.29942,-55.3146,-70.294,6289.41,-9475.17,1286.44,-5.35176,191.214,-68.7543,6753.69,-1090.83,858.9,-57.2659,55.1042,-29.3519
3.8375,5631.0,-1985.28,8665.04,19.3014,-84.9664,-11.0925,25233.6,1596.99,5307.9,-42.1682,304.433,-76.4799,440.748,11125.4,-1406.36,4.92986,-9.45374,-101.07,-13518.4,-18901.7,-2027.47,-67.902,165.118,-285.412,3712.62,10551.2,-948.373,-9.42926,-54.7159,-70.1705,6465.2,-9481.1,1472.39,-3.89267,195.432,-69.3287,6746.0,-1056.0,866.863,-57.1594,54.2332,-29.1711
3.838,5651.21,-1975.01,8674.37,19.1424,-85.5588,-11.0579,25408.9,1696.95,5170.93,-41.7821,303.777,-76.8781,434.052,11139.8,-1417.17,5.0555,-9.54926,-101.484,-13771.2,-18823.4,-2030.6,-67.9447,164.634,-283.666,3688.72,10546.2,-967.228,-9.55911,-54.1172,-70.0469,6640.99,-9487.03,1658.34,-2.43358,199.65,-69.9032,6738.32,-1021.16,874.825,-57.053,53.3622,-28.9904
3.8385,5671.41,-1964.74,8683.69,18.9835,-86.1512,-11.0233,25584.2,1796.9,5033.97,-41.396,303.121,-77.2763,427.356,11154.2,-1427.98,5.18113,-9.64478,-101.898,-14024.1,-18745.0,-2033.74,-67.9874,164.15,-281.919,3664.82,10541.3,-986.084,-9.68895,-53.5186,-69.9233,6816.77,-9492.96,1844.28,-0.974483,203.868,-70.4776,6730.64,-986.328,882.788,-56.9466,52.4912,-28.8096
3.839,5691.62,-1954.46,8693.02,18.8245,-86.7437,-10.9887,25759.4,1896.86,4897.0,-41.0099,302.465,-77.6745,420.66,11168.5,-1438.79,5.30676,-9.7403,-102.312,-14276.9,-18666.7,-2036.87,-68.0301,163.667,-280.172,3640.91,10536.4,-1004.94,-9.81879,-52.9199,-69.7998,6992.56,-9498.88,2030.23,0.48461,208.086,-71.0521,6722.95,-951.493,890.75,-56.8401,51.6202,-28.6289
3.8395,5711.82,-1944.19,8702.34,18.6655,-87.3361,-10.9541,25934.7,1996.82,4760.03,-40.6237,301.809,-78.0727,413.964,11182.9,-1449.6,5.4324,-9.83582,-102.725,-14529.8,-18588.3,-2040.0,-68.0727,163.183,-278.426,3617.01,10531.5,-1023.79,-9.94863,-52.3212,-69.6762,7168.35,-9504.81,2216.18,1.9437,212.304,-71.6265,6715.27,-916.658,898.712,-56.7337,50.7492,-28.4481
3.84,5732.03,-1933.91,8711.67,18.5065,-87.9286,-10.9195,26110.0,2096.78,4623.06,-40.2376,301.153,-78.4709,407.268,11197.3,-1460.41,5.55803,-9.93134,-103.139,-14782.6,-18510.0,-2043.13,-68.1154,162.699,-276.679,3593.11,10526.6,-1042.65,-10.0785,-51.7226,-69.5526,7344.13,-9510.74,2402.13,3.4028,216.522,-72.201,6707.59,-881.822,906.675,-56.6273,49.8782,-28.2674
3.8405,5744.69,-1930.44,8721.88,18.3024,-88.5523,-10.9241,26197.0,2237.92,4485.59,-40.1991,300.229,-78.7835,399.295,11199.2,-1454.58,5.61522,-10.0406,-103.544,-15004.5,-18469.4,-2079.36,-68.1295,161.638,-274.887,3573.98,10524.4,-1052.64,-10.085,-51.0777,-69.6678,7540.33,-9595.01,2614.2,4.15522,218.103,-72.7645,6705.83,-865.365,903.082,-56.421,48.8011,-27.996
3.841,5757.35,-1926.97,8732.09,18.0983,-89.1761,-10.9287,26284.1,2379.07,4348.12,-40.1607,299.305,-79.0962,391.322,11201.0,-1448.76,5.6724,-10.1498,-103.948,-15226.5,-18428.9,-2115.59,-68.1437,160.576,-273.095,3554.86,10522.2,-1062.63,-10.0915,-50.4329,-69.783,7736.53,-9679.29,2826.28,4.90764,219.685,-73.328,6704.07,-848.907,899.489,-56.2147,47.7239,-27.7246
3.8415,5770.02,-1923.5,8742.3,17.8941,-89.7998,-10.9332,26371.1,2520.21,4210.65,-40.1222,298.38,-79.4088,383.349,11202.9,-1442.93,5.72959,-10.259,-104.352,-15448.4,-18388.4,-2151.81,-68.1578,159.515,-271.303,3535.73,10520.1,-1072.62,-10.098,-49.7881,-69.8981,7932.73,-9763.56,3038.35,5.66006,221.267,-73.8915,6702.31,-832.45,895.896,-56.0085,46.6468,-27.4532
3.842,5782.68,-1920.03,8752.51,17.69,-90.4236,-10.9378,26458.1,2661.35,4073.18,-40.0837,297.456,-79.7215,375.376,11204.8,-1437.1,5.78677,-10.3682,-104.757,-15670.3,-18347.9,-2188.04,-68.1719,158.453,-269.512,3516.6,10517.9,-1082.62,-10.1045,-49.1432,-70.0133,8128.93,-9847.84,3250.42,6.41249,222.849,-74.455,6700.56,-815.992,892.303,-55.8022,45.5697,-27.1818
3.8425,5795.34,-1916.56,8762.72,17.4858,-91.0473,-10.9424,26545.2,2802.5,3935.71,-40.0452,296.532,-80.0341,367.403,11206.7,-1431.27,5.84395,-10.4774,-105.161,-15892.3,-18307.4,-2224.27,-68.186,157.392,-267.72,3497.47,10515.8,-1092.61,-10.111,-48.4984,-70.1285,8325.13,-9932.11,3462.5,7.16491,224.43,-75.0185,6698.8,-799.534,888.71,-55.5959,44.4925,-26.9104
3.843,5808.0,-1913.09,8772.92,17.2817,-91.6711,-10.947,26632.2,2943.64,3798.24,-40.0067,295.608,-80.3468,359.43,11208.6,-1425.44,5.90114,-10.5866,-105.565,-16114.2,-18266.8,-2260.5,-68.2001,156.33,-265.928,3478.34,10513.6,-1102.6,-10.1175,-47.8535,-70.2436,8521.34,-10016.4,3674.57,7.91733,226.012,-75.582,6697.04,-783.077,885.117,-55.3897,43.4154,-26.6391
3.8435,5820.66,-1909.61,8783.13,17.0776,-92.2948,-10.9515,26719.2,3084.78,3660.77,-39.9683,294.684,-80.6594,351.457,11210.5,-1419.61,5.95832,-10.6958,-105.97,-16336.1,-18226.3,-2296.73,-68.2142,155.269,-264.136,3459.21,10511.5,-1112.59,-10.124,-47.2087,-70.3588,8717.54,-10100.7,3886.65,8.66976,227.594,-76.1455,6695.28,-766.619,881.525,-55.1834,42.3383,-26.3677
3.844,5833.32,-1906.14,8793.34,16.8734,-92.9186,-10.9561,26806.3,3225.93,3523.3,-39.9298,293.76,-80.9721,343.484,11212.4,-1413.78,6.01551,-10.805,-106.374,-16558.1,-18185.8,-2332.96,-68.2283,154.207,-262.344,3440.09,10509.3,-1122.58,-10.1305,-46.5639,-70.474,8913.74,-10184.9,4098.72,9.42218,229.175,-76.709,6693.53,-750.161,877.932,-54.9771,41.2611,-26.0963
3.8445,5845.05,-1901.82,8803.43,16.6722,-93.5533,-10.949,26886.9,3359.25,3384.16,-39.8727,292.8,-81.2829,336.711,11217.4,-1405.53,6.06182,-10.9166,-106.774,-16774.7,-18146.1,-2370.38,-68.2289,153.102,-260.547,3422.16,10507.9,-1132.37,-10.1198,-45.9313,-70.5713,9103.88,-10264.4,4302.53,10.1743,230.502,-77.2395,6692.1,-733.512,873.055,-54.7736,40.1859,-25.8245
3.845,5849.27,-1890.7,8812.55,16.494,-94.276,-10.8481,26916.6,3430.07,3231.71,-39.6673,291.554,-81.579,339.539,11248.0,-1377.88,6.02121,-11.0469,-107.139,-16949.3,-18112.9,-2417.35,-68.1211,151.644,-258.704,3413.81,10512.5,-1140.52,-9.97163,-45.3973,-70.5263,9245.54,-10305.9,4440.15,10.9245,229.786,-77.5052,6693.3,-715.328,857.907,-54.5918,39.1255,-25.5497
3.8455,5853.49,-1879.57,8821.67,16.3158,-94.9987,-10.7472,26946.2,3500.88,3079.25,-39.4618,290.309,-81.8752,342.366,11278.6,-1350.24,5.98059,-11.1772,-107.504,-17123.9,-18079.7,-2464.32,-68.0134,150.186,-256.861,3405.46,10517.2,-1148.67,-9.82346,-44.8633,-70.4813,9387.21,-10347.3,4577.78,11.6746,229.07,-77.7709,6694.51,-697.144,842.759,-54.41,38.0652,-25.2748
3.846,5857.71,-1868.45,8830.79,16.1376,-95.7214,-10.6462,26975.9,3571.69,2926.79,-39.2563,289.063,-82.1713,345.194,11309.1,-1322.59,5.93997,-11.3075,-107.868,-17298.5,-18046.5,-2511.28,-67.9056,148.728,-255.018,3397.11,10521.8,-1156.82,-9.67529,-44.3293,-70.4363,9528.88,-10388.7,4715.41,12.4247,228.354,-78.0366,6695.71,-678.96,827.612,-54.2283,37.0049,-25.0
3.8465,5861.93,-1857.33,8839.92,15.9595,-96.4441,-10.5453,27005.5,3642.5,2774.34,-39.0508,287.817,-82.4675,348.021,11339.7,-1294.94,5.89936,-11.4378,-108.233,-17473.1,-18013.3,-2558.25,-67.7979,147.27,-253.176,3388.76,10526.4,-1164.96,-9.52712,-43.7952,-70.3913,9670.55,-10430.2,4853.03,13.1749,227.637,-78.3023,6696.91,-660.776,812.464,-54.0465,35.9445,-24.7251
3.847,5866.16,-1846.21,8849.04,15.7813,-97.1669,-10.4444,27035.2,3713.31,2621.88,-38.8453,286.571,-82.7636,350.848,11370.3,-1267.3,5.85874,-11.5681,-108.598,-17647.7,-17980.1,-2605.22,-67.6901,145.812,-251.333,3380.41,10531.1,-1173.11,-9.37896,-43.2612,-70.3463,9812.21,-10471.6,4990.66,13.925,226.921,-78.568,6698.12,-642.592,797.316,-53.8647,34.8842,-24.4503
3.8475,5870.38,-1835.08,8858.16,15.6031,-97.8896,-10.3435,27064.8,3784.12,2469.43,-38.6399,285.325,-83.0598,353.676,11400.8,-1239.65,5.81812,-11.6984,-108.963,-17822.3,-17946.9,-2652.19,-67.5824,144.354,-249.49,3372.06,10535.7,-1181.26,-9.23079,-42.7272,-70.3013,9953.88,-10513.1,5128.29,14.6751,226.205,-78.8337,6699.32,-624.407,782.168,-53.6829,33.8238,-24.1754
3.848,5874.6,-1823.96,8867.28,15.4249,-98.6123,-10.2426,27094.4,3854.93,2316.97,-38.4344,284.08,-83.3559,356.503,11431.4,-1212.0,5.77751,-11.8287,-109.328,-17996.9,-17913.8,-2699.16,-67.4746,142.896,-247.647,3363.71,10540.4,-1189.41,-9.08262,-42.1931,-70.2563,10095.5,-10554.5,5265.91,15.4252,225.489,-79.0994,6700.52,-606.223,767.021,-53.5012,32.7635,-23.9006
3.8485,5878.82,-1812.84,8876.4,15.2468,-99.335,-10.1417,27124.1,3925.75,2164.52,-38.2289,282.834,-83.6521,359.331,11461.9,-1184.36,5.73689,-11.959,-109.692,-18171.6,-17880.6,-2746.13,-67.3668,141.438,-245.805,3355.36,10545.0,-1197.56,-8.93445,-41.6591,-70.2113,10237.2,-10595.9,5403.54,16.1754,224.773,-79.3651,6701.73,-588.039,751.873,-53.3194,31.7032,-23.6258
3.849,5881.73,-1801.65,8887.41,15.0864,-100.066,-10.0247,27148.0,3971.35,2002.83,-37.9001,281.505,-83.9183,366.659,11491.6,-1160.25,5.71028,-12.094,-110.082,-18334.7,-17840.6,-2788.12,-67.2432,139.896,-243.961,3350.86,10550.0,-1204.95,-8.77953,-41.1849,-70.1898,10365.6,-10623.2,5526.6,16.743,223.765,-79.5403,6703.88,-569.8,739.703,-53.1251,30.6279,-23.3554
3.8495,5880.05,-1790.27,8905.0,14.9882,-100.827,-9.8513,27152.0,3928.76,1808.85,-37.1395,279.885,-84.0798,389.738,11518.3,-1148.55,5.73269,-12.2454,-110.56,-18457.5,-17776.8,-2812.68,-67.0642,138.063,-242.114,3359.86,10556.4,-1209.69,-8.60099,-40.9198,-70.2508,10447.4,-10600.8,5598.7,16.6721,221.735,-79.3988,6709.35,-551.368,737.956,-52.8873,29.5004,-23.1008
3.85,5878.37,-1778.88,8922.59,14.89,-101.588,-9.67788,27156.0,3886.16,1614.87,-36.3789,278.265,-84.2413,412.816,11545.0,-1136.85,5.75511,-12.3968,-111.037,-18580.4,-17713.1,-2837.25,-66.8851,136.23,-240.267,3368.85,10562.8,-1214.44,-8.42246,-40.6548,-70.3118,10529.2,-10578.3,5670.79,16.6011,219.704,-79.2573,6714.82,-532.937,736.21,-52.6494,28.3729,-22.8462
3.8505,5876.69,-1767.49,8940.18,14.7918,-102.349,-9.50446,27159.9,3843.56,1420.89,-35.6183,276.644,-84.4028,435.895,11571.7,-1125.14,5.77752,-12.5482,-111.515,-18703.2,-17649.3,-2861.81,-66.706,134.397,-238.42,3377.84,10569.2,-1219.18,-8.24392,-40.3898,-70.3727,10611.1,-10555.9,5742.88,16.5301,217.674,-79.1159,6720.29,-514.505,734.463,-52.4115,27.2453,-22.5916
3.851,5875.01,-1756.11,8957.78,14.6935,-103.11,-9.33104,27163.9,3800.97,1226.91,-34.8577,275.024,-84.5643,458.974,11598.3,-1113.44,5.79993,-12.6996,-111.993,-18826.1,-17585.6,-2886.38,-66.5269,132.564,-236.574,3386.83,10575.6,-1223.92,-8.06538,-40.1247,-70.4337,10692.9,-10533.5,5814.97,16.4591,215.643,-78.9744,6725.76,-496.073,732.716,-52.1736,26.1178,-22.337
3.8515,5873.33,-1744.72,8975.37,14.5953,-103.871,-9.15762,27167.9,3758.37,1032.93,-34.0971,273.404,-84.7257,482.053,11625.0,-1101.73,5.82235,-12.851,-112.47,-18948.9,-17521.9,-2910.94,-66.3478,130.73,-234.727,3395.82,10582.0,-1228.67,-7.88685,-39.8597,-70.4946,10774.7,-10511.1,5887.06,16.3882,213.612,-78.8329,6731.23,-477.641,730.97,-51.9357,24.9903,-22.0824
3.852,5871.65,-1733.33,8992.96,14.4971,-104.632,-8.9842,27171.9,3715.77,838.955,-33.3365,271.784,-84.8872,505.132,11651.7,-1090.03,5.84476,-13.0024,-112.948,-19071.8,-17458.1,-2935.5,-66.1688,128.897,-232.88,3404.81,10588.4,-1233.41,-7.70831,-39.5947,-70.5556,10856.5,-10488.7,5959.16,16.3172,211.582,-78.6914,6736.7,-459.209,729.223,-51.6978,23.8628,-21.8277
3.8525,5869.97,-1721.95,9010.55,14.3989,-105.393,-8.81079,27175.8,3673.17,644.975,-32.5759,270.164,-85.0487,528.211,11678.4,-1078.33,5.86718,-13.1538,-113.425,-19194.6,-17394.4,-2960.07,-65.9897,127.064,-231.033,3413.8,10594.9,-1238.15,-7.52977,-39.3296,-70.6165,10938.4,-10466.3,6031.25,16.2462,209.551,-78.55,6742.17,-440.777,727.476,-51.4599,22.7353,-21.5731
3.853,5868.3,-1710.56,9028.14,14.3007,-106.154,-8.63737,27179.8,3630.58,450.996,-31.8154,268.544,-85.2102,551.29,11705.0,-1066.62,5.88959,-13.3052,-113.903,-19317.5,-17330.6,-2984.63,-65.8106,125.231,-229.186,3422.79,10601.3,-1242.9,-7.35123,-39.0646,-70.6775,11020.2,-10443.9,6103.34,16.1752,207.521,-78.4085,6747.64,-422.346,725.73,-51.222,21.6077,-21.3185
3.8535,5863.67,-1698.03,9045.9,14.197,-106.936,-8.47527,27176.0,3586.06,259.657,-30.8356,266.803,-85.3205,571.946,11725.5,-1054.0,5.90943,-13.444,-114.36,-19433.2,-17252.8,-3010.44,-65.6727,123.445,-227.264,3435.52,10607.7,-1244.4,-7.17222,-38.8449,-70.7143,11070.1,-10408.8,6149.43,15.8372,205.484,-78.1576,6758.82,-412.319,728.691,-50.9635,20.4703,-21.0594
3.854,5853.17,-1683.21,9063.98,14.0822,-107.759,-8.33583,27156.5,3537.72,73.5996,-29.4175,264.823,-85.3284,587.754,11733.7,-1039.53,5.92414,-13.5577,-114.774,-19534.6,-17146.6,-3038.74,-65.6171,121.752,-225.191,3455.71,10614.2,-1239.41,-6.99223,-38.7159,-70.7028,11056.0,-10348.5,6143.51,14.9652,203.437,-77.6878,6781.4,-419.102,741.069,-50.6637,19.3128,-20.7913
3.8545,5842.66,-1668.38,9082.06,13.9674,-108.582,-8.19639,27137.0,3489.37,-112.458,-27.9994,262.843,-85.3363,603.563,11741.9,-1025.06,5.93885,-13.6713,-115.188,-19636.0,-17040.5,-3067.05,-65.5615,120.059,-223.119,3475.9,10620.7,-1234.43,-6.81225,-38.5869,-70.6914,11042.0,-10288.2,6137.58,14.0932,201.389,-77.218,6803.98,-425.886,753.446,-50.3638,18.1554,-20.5233
3.855,5832.16,-1653.56,9100.14,13.8525,-109.404,-8.05695,27117.4,3441.03,-298.515,-26.5814,260.862,-85.3442,619.372,11750.1,-1010.59,5.95356,-13.7849,-115.603,-19737.4,-16934.4,-3095.35,-65.506,118.366,-221.046,3496.09,10627.3,-1229.45,-6.63226,-38.4579,-70.6799,11028.0,-10227.9,6131.66,13.2211,199.341,-76.7482,6826.57,-432.669,765.824,-50.064,16.9979,-20.2552
3.8555,5821.65,-1638.74,9118.22,13.7377,-110.227,-7.91751,27097.9,3392.68,-484.573,-25.1633,258.882,-85.3521,635.18,11758.3,-996.124,5.96827,-13.8985,-116.017,-19838.8,-16828.3,-3123.65,-65.4504,116.673,-218.973,3516.29,10633.8,-1224.47,-6.45228,-38.3289,-70.6685,11013.9,-10167.7,6125.74,12.3491,197.293,-76.2785,6849.15,-439.452,778.202,-49.7642,15.8405,-19.9871
3.856,5811.15,-1623.92,9136.31,13.6229,-111.05,-7.77808,27078.4,3344.34,-670.63,-23.7452,256.902,-85.3601,650.989,11766.6,-981.656,5.98297,-14.0121,-116.432,-19940.2,-16722.2,-3151.96,-65.3948,114.979,-216.9,3536.48,10640.3,-1219.48,-6.27229,-38.1999,-70.6571,10999.9,-10107.4,6119.82,11.477,195.246,-75.8087,6871.73,-446.236,790.579,-49.4643,14.6831,-19.719
3.8565,5800.64,-1609.1,9154.39,13.5081,-111.873,-7.63864,27058.9,3295.99,-856.688,-22.3271,254.921,-85.368,666.797,11774.8,-967.187,5.99768,-14.1257,-116.846,-20041.6,-16616.1,-3180.26,-65.3392,113.286,-214.828,3556.67,10646.8,-1214.5,-6.09231,-38.0709,-70.6456,10985.8,-10047.1,6113.9,10.605,193.198,-75.3389,6894.31,-453.019,802.957,-49.1645,13.5256,-19.4509
3.857,5790.14,-1594.28,9172.47,13.3933,-112.695,-7.4992,27039.4,3247.65,-1042.75,-20.909,252.941,-85.3759,682.606,11783.0,-952.719,6.01239,-14.2393,-117.261,-20143.0,-16510.0,-3208.56,-65.2836,111.593,-212.755,3576.87,10653.3,-1209.52,-5.91233,-37.9419,-70.6342,10971.8,-9986.77,6107.98,9.73294,191.15,-74.8691,6916.9,-459.803,815.334,-48.8647,12.3682,-19.1828
3.8575,5779.63,-1579.45,9190.55,13.2785,-113.518,-7.35976,27019.9,3199.3,-1228.8,-19.4909,250.961,-85.3838,698.414,11791.2,-938.251,6.0271,-14.3529,-117.675,-20244.4,-16403.9,-3236.87,-65.228,109.9,-210.682,3597.06,10659.9,-1204.54,-5.73234,-37.8129,-70.6227,10957.8,-9926.48,6102.06,8.8609,189.102,-74.3993,6939.48,-466.586,827.712,-48.5648,11.2108,-18.9147
3.858,5772.0,-1567.86,9202.01,13.1416,-114.364,-7.23135,26978.6,3122.79,-1398.53,-17.8935,248.797,-85.4312,715.37,11805.8,-931.759,6.03555,-14.4154,-118.149,-20350.4,-16315.5,-3266.23,-65.2309,108.29,-208.603,3629.59,10663.1,-1192.06,-5.5271,-37.7844,-70.6464,10914.4,-9865.35,6071.84,7.76226,187.274,-73.7813,6967.65,-481.352,839.982,-48.2098,10.0798,-18.6729
3.8585,5767.94,-1560.3,9205.19,12.977,-115.24,-7.11672,26910.2,3011.05,-1547.85,-16.0718,246.405,-85.5281,733.758,11828.5,-935.239,6.0362,-14.4139,-118.698,-20462.3,-16249.5,-3296.93,-65.3067,106.784,-206.516,3677.53,10662.2,-1170.23,-5.29029,-37.8814,-70.7141,10834.5,-9803.16,6011.26,6.38037,185.72,-72.978,7002.79,-506.097,852.116,-47.786,8.98202,-18.4639
3.859,5763.89,-1552.73,9208.38,12.8125,-116.116,-7.0021,26841.7,2899.32,-1697.17,-14.2501,244.014,-85.625,752.146,11851.2,-938.719,6.03684,-14.4124,-119.248,-20574.1,-16183.4,-3327.62,-65.3825,105.277,-204.43,3725.47,10661.2,-1148.4,-5.05348,-37.9784,-70.7817,10754.6,-9740.97,5950.67,4.99848,184.165,-72.1747,7037.93,-530.841,864.25,-47.3621,7.88422,-18.255
3.8595,5759.84,-1545.17,9211.56,12.6479,-116.992,-6.88748,26773.3,2787.58,-1846.5,-12.4285,241.622,-85.7219,770.535,11873.9,-942.199,6.03748,-14.4109,-119.797,-20686.0,-16117.3,-3358.31,-65.4584,103.77,-202.343,3773.41,10660.3,-1126.57,-4.81666,-38.0754,-70.8493,10674.6,-9678.78,5890.09,3.61659,182.611,-71.3714,7073.08,-555.586,876.384,-46.9382,6.78642,-18.046
3.86,5755.78,-1537.61,9214.74,12.4834,-117.868,-6.77285,26704.8,2675.84,-1995.82,-10.6068,239.23,-85.8188,788.923,11896.6,-945.679,6.03812,-14.4094,-120.346,-20797.9,-16051.3,-3389.01,-65.5342,102.264,-200.256,3821.36,10659.4,-1104.74,-4.57985,-38.1724,-70.917,10594.7,-9616.59,5829.5,2.2347,181.057,-70.5681,7108.22,-580.331,888.518,-46.5143,5.68862,-17.837
3.8605,5751.73,-1530.05,9217.93,12.3188,-118.744,-6.65823,26636.3,2564.11,-2145.14,-8.78512,236.838,-85.9157,807.312,11919.3,-949.159,6.03877,-14.408,-120.895,-20909.7,-15985.2,-3419.7,-65.61,100.757,-198.169,3869.3,10658.5,-1082.91,-4.34304,-38.2694,-70.9846,10514.7,-9554.4,5768.92,0.852815,179.503,-69.7648,7143.36,-605.075,900.652,-46.0904,4.59083,-17.628
3.861,5747.68,-1522.48,9221.11,12.1543,-119.619,-6.5436,26567.9,2452.37,-2294.46,-6.96345,234.446,-86.0126,825.7,11941.9,-952.638,6.03941,-14.4065,-121.444,-21021.6,-15919.1,-3450.39,-65.6859,99.2502,-196.082,3917.24,10657.6,-1061.08,-4.10623,-38.3664,-71.0522,10434.8,-9492.21,5708.33,-0.529074,177.948,-68.9615,7178.51,-629.82,912.786,-45.6665,3.49303,-17.419
3.8615,5743.62,-1514.92,9224.29,11.9897,-120.495,-6.42898,26499.4,2340.64,-2443.78,-5.14178,232.054,-86.1094,844.088,11964.6,-956.118,6.04005,-14.405,-121.993,-21133.4,-15853.1,-3481.08,-65.7617,97.7435,-193.996,3965.18,10656.7,-1039.24,-3.86941,-38.4634,-71.1199,10354.8,-9430.02,5647.75,-1.91096,176.394,-68.1582,7213.65,-654.564,924.92,-45.2426,2.39523,-17.2101
3.862,5739.57,-1507.36,9227.48,11.8252,-121.371,-6.31436,26431.0,2228.9,-2593.1,-3.32011,229.662,-86.2063,862.477,11987.3,-959.598,6.04069,-14.4035,-122.542,-21245.3,-15787.0,-3511.78,-65.8376,96.2368,-191.909,4013.13,10655.8,-1017.41,-3.6326,-38.5604,-71.1875,10274.9,-9367.83,5587.17,-3.29285,174.84,-67.3549,7248.79,-679.309,937.054,-44.8188,1.29743,-17.0011
3.8625,5740.87,-1504.82,9234.15,11.6117,-122.269,-6.18693,26396.8,2143.93,-2737.61,-1.26771,227.104,-86.0495,885.923,11999.9,-962.691,6.04844,-14.3691,-123.084,-21337.4,-15714.6,-3524.27,-65.8623,94.7645,-189.909,4055.28,10658.9,-1015.57,-3.44231,-38.6441,-71.2138,10175.8,-9321.64,5536.02,-4.40178,173.497,-66.2837,7287.85,-696.927,939.194,-44.3796,0.222797,-16.8169
3.863,5746.47,-1506.31,9243.61,11.3591,-123.185,-6.04926,26390.0,2080.37,-2878.26,0.969257,224.412,-85.6897,913.416,12004.4,-965.473,6.06186,-14.3085,-123.62,-21413.6,-15637.0,-3522.2,-65.8463,93.3198,-187.979,4092.8,10665.3,-1029.71,-3.28923,-38.7172,-71.2071,10061.5,-9288.25,5492.44,-5.29233,172.323,-64.9982,7330.05,-708.844,933.34,-43.9281,-0.833299,-16.6527
3.8635,5752.06,-1507.79,9253.07,11.1064,-124.101,-5.91158,26383.2,2016.8,-3018.91,3.20623,221.72,-85.3299,940.909,12008.9,-968.255,6.07528,-14.2479,-124.156,-21489.8,-15559.5,-3520.14,-65.8302,91.8751,-186.048,4130.32,10671.6,-1043.85,-3.13615,-38.7903,-71.2004,9947.16,-9254.86,5448.85,-6.18288,171.15,-63.7127,7372.24,-720.762,927.486,-43.4767,-1.88939,-16.4884
3.864,5757.65,-1509.28,9262.53,10.8538,-125.016,-5.77391,26376.5,1953.24,-3159.56,5.4432,219.028,-84.9701,968.402,12013.4,-971.037,6.08871,-14.1872,-124.691,-21566.0,-15482.0,-3518.07,-65.8141,90.4304,-184.118,4167.84,10678.0,-1058.0,-2.98307,-38.8633,-71.1938,9832.83,-9221.47,5405.26,-7.07343,169.976,-62.4271,7414.43,-732.679,921.632,-43.0252,-2.94549,-16.3241
3.8645,5763.25,-1510.76,9271.99,10.6012,-125.932,-5.63624,26369.7,1889.67,-3300.21,7.68017,216.336,-84.6103,995.895,12017.9,-973.82,6.10213,-14.1266,-125.227,-21642.3,-15404.5,-3516.0,-65.798,88.9856,-182.188,4205.35,10684.4,-1072.14,-2.82999,-38.9364,-71.1871,9718.5,-9188.09,5361.67,-7.96398,168.803,-61.1416,7456.62,-744.596,915.778,-42.5738,-4.00159,-16.1598
3.865,5768.84,-1512.24,9281.45,10.3485,-126.848,-5.49857,26363.0,1826.11,-3440.86,9.91714,213.644,-84.2505,1023.39,12022.3,-976.602,6.11555,-14.0659,-125.763,-21718.5,-15327.0,-3513.94,-65.782,87.5409,-180.258,4242.87,10690.7,-1086.28,-2.67692,-39.0095,-71.1804,9604.17,-9154.7,5318.09,-8.85454,167.629,-59.8561,7498.81,-756.513,909.924,-42.1223,-5.05768,-15.9956
3.8655,5774.43,-1513.73,9290.91,10.0959,-127.763,-5.36089,26356.2,1762.54,-3581.52,12.1541,210.953,-83.8907,1050.88,12026.8,-979.384,6.12897,-14.0053,-126.299,-21794.7,-15249.5,-3511.87,-65.7659,86.0962,-178.328,4280.39,10697.1,-1100.43,-2.52384,-39.0826,-71.1737,9489.84,-9121.31,5274.5,-9.74509,166.455,-58.5705,7541.0,-768.43,904.069,-41.6709,-6.11378,-15.8313
3.866,5780.03,-1515.21,9300.37,9.84325,-128.679,-5.22322,26349.4,1698.98,-3722.17,14.3911,208.261,-83.5309,1078.37,12031.3,-982.167,6.1424,-13.9447,-126.835,-21870.9,-15171.9,-3509.8,-65.7498,84.6515,-176.397,4317.91,10703.5,-1114.57,-2.37076,-39.1556,-71.167,9375.51,-9087.92,5230.91,-10.6356,165.282,-57.285,7583.19,-780.348,898.215,-41.2194,-7.16987,-15.667
3.8665,5785.62,-1516.7,9309.83,9.59062,-129.595,-5.08555,26342.7,1635.41,-3862.82,16.628,205.569,-83.1711,1105.87,12035.8,-984.949,6.15582,-13.884,-127.37,-21947.2,-15094.4,-3507.73,-65.7338,83.2067,-174.467,4355.43,10709.9,-1128.72,-2.21768,-39.2287,-71.1603,9261.18,-9054.54,5187.32,-11.5262,164.108,-55.9995,7625.39,-792.265,892.361,-40.768,-8.22597,-15.5027
3.867,5793.56,-1514.99,9326.35,9.38468,-130.565,-4.93746,26379.3,1623.76,-3998.95,18.6746,202.819,-82.6732,1131.44,12051.6,-973.829,6.24204,-13.7768,-127.955,-22012.6,-14970.5,-3481.08,-65.7555,81.8642,-172.342,4390.86,10724.1,-1136.95,-2.15547,-39.3164,-71.1531,9133.09,-9044.68,5106.48,-11.9848,162.911,-54.5372,7665.78,-813.798,884.698,-40.3296,-9.16936,-15.3567
3.8675,5802.68,-1511.69,9346.41,9.2021,-131.562,-4.78416,26437.5,1638.06,-4132.81,20.6258,200.041,-82.1063,1156.05,12073.0,-955.759,6.36467,-13.6463,-128.565,-22072.6,-14823.3,-3442.12,-65.7963,80.5727,-170.119,4425.23,10742.2,-1142.22,-2.1387,-39.4113,-71.1457,8998.13,-9046.58,5007.02,-12.2275,161.701,-52.9866,7705.28,-840.139,876.129,-39.8977,-10.0564,-15.2197
3.868,5811.79,-1508.39,9366.46,9.01952,-132.559,-4.63087,26495.8,1652.36,-4266.68,22.5771,197.263,-81.5393,1180.66,12094.4,-937.689,6.48729,-13.5158,-129.175,-22132.5,-14676.2,-3403.17,-65.837,79.2812,-167.897,4459.61,10760.4,-1147.49,-2.12192,-39.5063,-71.1383,8863.17,-9048.49,4907.55,-12.4701,160.492,-51.436,7744.77,-866.481,867.561,-39.4659,-10.9434,-15.0828
3.8685,5820.91,-1505.08,9386.52,8.83694,-133.556,-4.47757,26554.1,1666.66,-4400.54,24.5284,194.485,-80.9724,1205.27,12115.8,-919.618,6.60991,-13.3853,-129.785,-22192.5,-14529.1,-3364.22,-65.8777,77.9897,-165.674,4493.99,10778.6,-1152.77,-2.10514,-39.6012,-71.1309,8728.21,-9050.39,4808.09,-12.7128,159.283,-49.8854,7784.27,-892.822,858.993,-39.034,-11.8305,-14.9459
3.869,5830.02,-1501.78,9406.57,8.65436,-134.553,-4.32428,26612.4,1680.96,-4534.4,26.4796,191.707,-80.4055,1229.88,12137.2,-901.548,6.73254,-13.2548,-130.395,-22252.5,-14381.9,-3325.26,-65.9184,76.6982,-163.452,4528.37,10796.7,-1158.04,-2.08836,-39.6962,-71.1235,8593.26,-9052.3,4708.63,-12.9554,158.074,-48.3348,7823.77,-919.163,850.425,-38.6022,-12.7175,-14.8089
3.8695,5839.14,-1498.48,9426.63,8.47177,-135.55,-4.17098,26670.6,1695.27,-4668.27,28.4309,188.929,-79.8386,1254.49,12158.6,-883.478,6.85516,-13.1244,-131.004,-22312.5,-14234.8,-3286.31,-65.9592,75.4067,-161.229,4562.75,10814.9,-1163.31,-2.07159,-39.7911,-71.1161,8458.3,-9054.21,4609.16,-13.1981,156.865,-46.7841,7863.26,-945.504,841.857,-38.1703,-13.6045,-14.672
3.87,5848.25,-1495.18,9446.68,8.28919,-136.547,-4.01769,26728.9,1709.57,-4802.13,30.3822,186.151,-79.2716,1279.1,12180.1,-865.407,6.97778,-12.9939,-131.614,-22372.5,-14087.6,-3247.36,-65.9999,74.1152,-159.007,4597.12,10833.1,-1168.59,-2.05481,-39.886,-71.1087,8323.34,-9056.11,4509.69,-13.4407,155.655,-45.2335,7902.76,-971.846,833.289,-37.7385,-14.4916,-14.535
3.8705,5857.37,-1491.87,9466.74,8.10661,-137.544,-3.86439,26787.2,1723.87,-4936.0,32.3334,183.373,-78.7047,1303.71,12201.5,-847.337,7.10041,-12.8634,-132.224,-22432.5,-13940.5,-3208.4,-66.0406,72.8236,-156.784,4631.5,10851.2,-1173.86,-2.03803,-39.981,-71.1012,8188.38,-9058.02,4410.23,-13.6834,154.446,-43.6829,7942.25,-998.187,824.72,-37.3066,-15.3786,-14.3981
3.871,5866.48,-1488.57,9486.8,7.92403,-138.541,-3.71109,26845.5,1738.17,-5069.86,34.2847,180.595,-78.1378,1328.32,12222.9,-829.267,7.22303,-12.7329,-132.834,-22492.4,-13793.4,-3169.45,-66.0813,71.5321,-154.561,4665.88,10869.4,-1179.14,-2.02126,-40.0759,-71.0938,8053.42,-9059.92,4310.77,-13.926,153.237,-42.1323,7981.75,-1024.53,816.152,-36.8748,-16.2657,-14.2611
3.8715,5860.85,-1483.53,9511.76,7.76422,-139.626,-3.60102,26920.0,1759.16,-5227.91,35.9378,177.92,-77.6011,1350.35,12241.3,-816.743,7.29405,-12.5851,-133.418,-22538.8,-13676.4,-3079.7,-66.124,70.1279,-151.987,4707.66,10880.7,-1189.23,-2.08783,-40.0664,-70.9506,7933.47,-9036.75,4178.48,-13.9356,151.793,-40.5397,8021.8,-1059.72,802.849,-36.3407,-17.0394,-14.174
3.872,5851.01,-1477.98,9538.12,7.61092,-140.737,-3.50329,26999.1,1782.07,-5392.86,37.5058,175.275,-77.0731,1371.64,12258.8,-805.805,7.35034,-12.4323,-133.996,-22581.2,-13568.0,-2975.44,-66.1672,68.6915,-149.313,4751.56,10890.0,-1200.7,-2.17822,-40.0271,-70.7685,7817.81,-9006.41,4036.82,-13.8787,150.283,-38.9351,8062.0,-1097.43,788.192,-35.7774,-17.7808,-14.1011
3.8725,5841.17,-1472.44,9564.48,7.45762,-141.847,-3.40556,27078.3,1804.97,-5557.81,39.0737,172.629,-76.5451,1392.93,12276.3,-794.866,7.40662,-12.2796,-134.573,-22623.7,-13459.6,-2871.18,-66.2103,67.2551,-146.638,4795.45,10899.4,-1212.18,-2.26861,-39.9878,-70.5864,7702.15,-8976.07,3895.17,-13.8218,148.773,-37.3305,8102.2,-1135.15,773.536,-35.2141,-18.5222,-14.0282
3.873,5831.33,-1466.89,9590.84,7.30432,-142.958,-3.30784,27157.5,1827.88,-5722.77,40.6417,169.984,-76.0171,1414.22,12293.8,-783.928,7.46291,-12.1268,-135.15,-22666.1,-13351.3,-2766.92,-66.2535,65.8186,-143.964,4839.35,10908.7,-1223.65,-2.359,-39.9485,-70.4043,7586.49,-8945.73,3753.51,-13.7648,147.262,-35.7258,8142.4,-1172.86,758.88,-34.6508,-19.2636,-13.9553
3.8735,5821.49,-1461.35,9617.2,7.15101,-144.068,-3.21011,27236.6,1850.78,-5887.72,42.2096,167.338,-75.489,1435.51,12311.3,-772.99,7.51919,-11.9741,-135.727,-22708.6,-13242.9,-2662.66,-66.2967,64.3822,-141.289,4883.24,10918.0,-1235.12,-2.44939,-39.9092,-70.2222,7470.83,-8915.39,3611.85,-13.7079,145.752,-34.1212,8182.6,-1210.58,744.223,-34.0875,-20.0049,-13.8824
