Time,RFoot_accel.x,RFoot_accel.y,RFoot_accel.z,RFoot_gyro.x,RFoot_gyro.y,RFoot_gyro.z,LFoot_accel.x,LFoot_accel.y,LFoot_accel.z,LFoot_gyro.x,LFoot_gyro.y,LFoot_gyro.z,RShank_accel.x,RShank_accel.y,RShank_accel.z,RShank_gyro.x,RShank_gyro.y,RShank_gyro.z,LShank_accel.x,LShank_accel.y,LShank_accel.z,LShank_gyro.x,LShank_gyro.y,LShank_gyro.z,RThigh_accel.x,RThigh_accel.y,RThigh_accel.z,RThigh_gyro.x,RThigh_gyro.y,RThigh_gyro.z,LThigh_accel.x,LThigh_accel.y,LThigh_accel.z,LThigh_gyro.x,LThigh_gyro.y,LThigh_gyro.z,Pelvis_accel.x,Pelvis_accel.y,Pelvis_accel.z,Pelvis_gyro.x,Pelvis_gyro.y,Pelvis_gyro.z
2.69,3740.86,306.965,9173.22,23.1957,-3.23631,3.70042,4819.5,1693.74,7284.17,39.7088,342.174,2.88533,-1592.66,10444.9,-996.224,-3.60369,-4.79157,-32.4528,-1773.45,6259.35,-337.694,-0.139567,45.7035,-276.565,1921.3,10686.0,-745.145,70.3239,8.90759,-74.8148,-4756.87,-7889.77,-285.202,-19.8406,16.6966,-151.477,6850.35,1731.78,868.531,-31.3655,20.1952,-35.8916
2.6905,3741.37,325.955,9170.64,23.2969,-3.35145,3.68305,4828.29,1690.03,7347.16,39.5014,342.359,2.37769,-1571.14,10411.2,-995.644,-3.56814,-4.4417,-32.5727,-1805.73,6296.07,-319.232,0.112493,45.4068,-277.278,1895.21,10649.2,-753.249,70.333,8.43772,-74.6954,-4775.69,-7849.15,-309.238,-19.9575,17.27,-151.364,6845.52,1725.33,866.276,-31.5168,20.2483,-35.5775
2.691,3741.87,344.946,9168.07,23.398,-3.4666,3.66567,4837.07,1686.31,7410.14,39.294,342.545,1.87004,-1549.62,10377.4,-995.064,-3.53259,-4.09183,-32.6926,-1838.02,6332.78,-300.77,0.364554,45.1101,-277.991,1869.11,10612.5,-761.353,70.3422,7.96785,-74.5761,-4794.5,-7808.54,-333.273,-20.0744,17.8434,-151.25,6840.68,1718.87,864.02,-31.668,20.3013,-35.2635
2.6915,3742.38,363.937,9165.5,23.4992,-3.58174,3.6483,4845.86,1682.6,7473.13,39.0867,342.73,1.36239,-1528.1,10343.7,-994.484,-3.49705,-3.74196,-32.8124,-1870.3,6369.5,-282.308,0.616614,44.8133,-278.705,1843.02,10575.7,-769.457,70.3513,7.49798,-74.4568,-4813.32,-7767.92,-357.308,-20.1913,18.4167,-151.137,6835.84,1712.42,861.765,-31.8192,20.3544,-34.9494
2.692,3742.88,382.927,9162.93,23.6003,-3.69689,3.63092,4854.64,1678.89,7536.11,38.8793,342.915,0.854746,-1506.58,10309.9,-993.904,-3.4615,-3.39209,-32.9323,-1902.58,6406.22,-263.846,0.868675,44.5166,-279.418,1816.92,10538.9,-777.561,70.3605,7.02811,-74.3375,-4832.13,-7727.31,-381.344,-20.3082,18.9901,-151.023,6831.0,1705.96,859.51,-31.9705,20.4075,-34.6354
2.6925,3743.39,401.918,9160.36,23.7015,-3.81203,3.61355,4863.43,1675.17,7599.09,38.6719,343.101,0.347099,-1485.05,10276.1,-993.324,-3.42595,-3.04222,-33.0522,-1934.86,6442.94,-245.384,1.12074,44.2199,-280.131,1790.83,10502.1,-785.665,70.3696,6.55825,-74.2182,-4850.95,-7686.69,-405.379,-20.4251,19.5634,-150.91,6826.17,1699.51,857.254,-32.1217,20.4605,-34.3213
2.693,3743.89,420.908,9157.79,23.8026,-3.92717,3.59617,4872.22,1671.46,7662.08,38.4645,343.286,-0.160548,-1463.53,10242.4,-992.745,-3.3904,-2.69234,-33.1721,-1967.15,6479.65,-226.922,1.3728,43.9232,-280.844,1764.73,10465.3,-793.769,70.3788,6.08838,-74.0989,-4869.76,-7646.08,-429.414,-20.5419,20.1368,-150.796,6821.33,1693.05,854.999,-32.2729,20.5136,-34.0073
2.6935,3744.48,441.544,9153.93,23.8583,-4.04845,3.59907,4891.81,1670.52,7709.87,38.2016,343.456,-0.64687,-1452.31,10212.8,-985.58,-3.40708,-2.37587,-33.3117,-1992.56,6513.14,-213.128,1.62321,43.6188,-281.565,1740.05,10423.7,-800.913,70.3174,5.56524,-74.0019,-4890.28,-7605.48,-457.676,-20.6672,20.8328,-150.652,6818.34,1676.05,853.903,-32.4177,20.5449,-33.719
2.694,3745.25,465.47,9147.51,23.823,-4.18199,3.6425,4933.03,1675.12,7727.26,37.8276,343.597,-1.09054,-1461.7,10191.3,-965.247,-3.5282,-2.12619,-33.4907,-2004.25,6540.16,-208.671,1.87035,43.2991,-282.301,1718.21,10372.3,-806.138,70.1149,4.93555,-73.9494,-4914.21,-7564.9,-494.392,-20.8093,21.7743,-150.445,6819.04,1637.94,855.126,-32.5497,20.5329,-33.4822
2.6945,3746.01,489.396,9141.09,23.7876,-4.31553,3.68594,4974.25,1679.72,7744.65,37.4536,343.738,-1.53422,-1471.09,10169.9,-944.914,-3.64932,-1.8765,-33.6696,-2015.93,6567.18,-204.214,2.11749,42.9794,-283.038,1696.37,10321.0,-811.363,69.9123,4.30586,-73.897,-4938.14,-7524.32,-531.107,-20.9514,22.7157,-150.238,6819.74,1599.83,856.348,-32.6817,20.5208,-33.2455
2.695,3746.78,513.322,9134.67,23.7523,-4.44907,3.72938,5015.47,1684.33,7762.04,37.0796,343.879,-1.97789,-1480.48,10148.5,-924.582,-3.77044,-1.62682,-33.8486,-2027.62,6594.2,-199.757,2.36462,42.6598,-283.775,1674.53,10269.6,-816.588,69.7098,3.67618,-73.8446,-4962.08,-7483.75,-567.823,-21.0935,23.6572,-150.03,6820.43,1561.71,857.571,-32.8137,20.5087,-33.0087
2.6955,3747.54,537.248,9128.24,23.717,-4.58261,3.77281,5056.69,1688.93,7779.43,36.7057,344.02,-2.42156,-1489.87,10127.1,-904.249,-3.89156,-1.37714,-34.0275,-2039.3,6621.22,-195.3,2.61176,42.3401,-284.511,1652.68,10218.3,-821.813,69.5073,3.04649,-73.7921,-4986.01,-7443.17,-604.538,-21.2356,24.5986,-149.823,6821.13,1523.6,858.794,-32.9456,20.4967,-32.7719
2.696,3748.31,561.174,9121.82,23.6816,-4.71615,3.81625,5097.91,1693.54,7796.83,36.3317,344.161,-2.86524,-1499.25,10105.7,-883.916,-4.01268,-1.12745,-34.2065,-2050.99,6648.24,-190.843,2.85889,42.0204,-285.248,1630.84,10166.9,-827.039,69.3048,2.41681,-73.7397,-5009.94,-7402.59,-641.254,-21.3777,25.5401,-149.616,6821.83,1485.49,860.016,-33.0776,20.4846,-32.5352
2.6965,3749.07,585.1,9115.4,23.6463,-4.8497,3.85968,5139.13,1698.14,7814.22,35.9577,344.302,-3.30891,-1508.64,10084.3,-863.583,-4.13381,-0.87777,-34.3854,-2062.67,6675.26,-186.387,3.10603,41.7007,-285.985,1609.0,10115.6,-832.264,69.1023,1.78712,-73.6872,-5033.87,-7362.02,-677.97,-21.5198,26.4815,-149.409,6822.53,1447.38,861.239,-33.2096,20.4725,-32.2984
2.697,3749.84,609.026,9108.98,23.611,-4.98324,3.90312,5180.34,1702.75,7831.61,35.5837,344.443,-3.75258,-1518.03,10062.8,-843.25,-4.25493,-0.628086,-34.5644,-2074.36,6702.28,-181.93,3.35316,41.381,-286.721,1587.16,10064.2,-837.489,68.8998,1.15744,-73.6348,-5057.8,-7321.44,-714.685,-21.6619,27.423,-149.202,6823.23,1409.27,862.462,-33.3415,20.4605,-32.0617
2.6975,3750.61,632.952,9102.56,23.5757,-5.11678,3.94655,5221.56,1707.35,7849.0,35.2098,344.584,-4.19626,-1527.42,10041.4,-822.917,-4.37605,-0.378403,-34.7433,-2086.04,6729.3,-177.473,3.6003,41.0613,-287.458,1565.32,10012.9,-842.714,68.6973,0.527751,-73.5823,-5081.73,-7280.86,-751.401,-21.8039,28.3645,-148.995,6823.93,1371.16,863.684,-33.4735,20.4484,-31.8249
2.698,3750.63,658.285,9099.82,23.4878,-5.26174,3.96331,5254.06,1699.7,7870.19,34.9201,344.713,-4.72137,-1537.02,10019.6,-809.54,-4.48477,-0.162446,-34.8976,-2094.98,6765.07,-170.841,3.79668,40.711,-288.151,1541.83,9954.42,-848.276,68.4019,-0.18624,-73.5718,-5103.17,-7245.97,-787.933,-21.9589,29.4775,-148.772,6828.16,1342.88,865.263,-33.562,20.4466,-31.5758
2.6985,3749.72,685.376,9101.7,23.3343,-5.42098,3.9467,5275.66,1676.74,7896.11,34.7358,344.826,-5.34828,-1546.9,9997.22,-804.859,-4.57797,0.011352,-35.021,-2100.48,6811.79,-161.492,3.92962,40.3225,-288.788,1516.3,9887.1,-854.261,67.9903,-1.00561,-73.6135,-5121.49,-7218.18,-824.235,-22.1298,30.805,-148.53,6836.79,1326.88,867.288,-33.596,20.4577,-31.3112
2.699,3748.81,712.467,9103.57,23.1808,-5.58022,3.9301,5297.26,1653.78,7922.03,34.5516,344.939,-5.9752,-1556.78,9974.85,-800.177,-4.67118,0.18515,-35.1445,-2105.98,6858.51,-152.143,4.06256,39.9339,-289.425,1490.76,9819.78,-860.245,67.5787,-1.82499,-73.6552,-5139.8,-7190.39,-860.538,-22.3007,32.1325,-148.288,6845.43,1310.89,869.312,-33.6301,20.4689,-31.0467
2.6995,3747.9,739.559,9105.45,23.0273,-5.73947,3.9135,5318.87,1630.82,7947.95,34.3673,345.052,-6.60211,-1566.66,9952.47,-795.496,-4.76439,0.358949,-35.2679,-2111.48,6905.23,-142.794,4.19549,39.5453,-290.062,1465.22,9752.46,-866.229,67.1671,-2.64436,-73.6969,-5158.12,-7162.6,-896.841,-22.4717,33.46,-148.046,6854.07,1294.89,871.336,-33.6642,20.48,-30.7821
2.7,3746.99,766.65,9107.32,22.8738,-5.89871,3.8969,5340.47,1607.86,7973.87,34.183,345.165,-7.22902,-1576.54,9930.1,-790.814,-4.8576,0.532747,-35.3913,-2116.99,6951.95,-133.445,4.32843,39.1568,-290.699,1439.69,9685.13,-872.213,66.7556,-3.46373,-73.7386,-5176.44,-7134.82,-933.143,-22.6426,34.7875,-147.803,6862.71,1278.9,873.361,-33.6982,20.4911,-30.5175
2.7005,3746.08,793.742,9109.19,22.7203,-6.05795,3.88029,5362.07,1584.9,7999.8,33.9988,345.278,-7.85593,-1586.42,9907.73,-786.133,-4.95081,0.706546,-35.5147,-2122.49,6998.67,-124.095,4.46137,38.7682,-291.336,1414.15,9617.81,-878.198,66.344,-4.28311,-73.7803,-5194.76,-7107.03,-969.446,-22.8135,36.115,-147.561,6871.35,1262.9,875.385,-33.7323,20.5022,-30.253
2.701,3745.17,820.833,9111.07,22.5668,-6.21719,3.86369,5383.67,1561.94,8025.72,33.8145,345.391,-8.48284,-1596.3,9885.36,-781.452,-5.04402,0.880344,-35.6381,-2127.99,7045.39,-114.746,4.59431,38.3797,-291.973,1388.61,9550.49,-884.182,65.9324,-5.10248,-73.822,-5213.07,-7079.24,-1005.75,-22.9845,37.4425,-147.319,6879.99,1246.91,877.409,-33.7664,20.5133,-29.9884
2.7015,3744.26,847.925,9112.94,22.4133,-6.37643,3.84709,5405.27,1538.98,8051.64,33.6302,345.504,-9.10976,-1606.18,9862.98,-776.77,-5.13723,1.05414,-35.7616,-2133.49,7092.11,-105.397,4.72725,37.9911,-292.61,1363.08,9483.17,-890.166,65.5209,-5.92185,-73.8637,-5231.39,-7051.45,-1042.05,-23.1554,38.77,-147.077,6888.63,1230.91,879.434,-33.8004,20.5244,-29.7238
2.702,3743.35,875.016,9114.82,22.2598,-6.53568,3.83049,5426.87,1516.02,8077.56,33.446,345.617,-9.73667,-1616.06,9840.61,-772.089,-5.23044,1.22794,-35.885,-2138.99,7138.83,-96.0479,4.86019,37.6025,-293.247,1337.54,9415.84,-896.15,65.1093,-6.74123,-73.9054,-5249.71,-7023.66,-1078.35,-23.3264,40.0975,-146.834,6897.27,1214.92,881.458,-33.8345,20.5355,-29.4593
2.7025,3745.7,890.926,9113.24,22.1438,-6.70398,3.85403,5451.81,1513.73,8107.81,33.3288,345.715,-10.3338,-1617.71,9824.87,-766.93,-5.29404,1.37318,-36.0459,-2141.83,7187.59,-83.994,4.94384,37.1614,-293.871,1316.14,9342.42,-902.386,64.7213,-7.60026,-73.952,-5261.56,-6999.81,-1104.91,-23.4163,41.557,-146.595,6903.06,1189.66,883.724,-33.8312,20.5833,-29.1371
2.703,3750.65,897.891,9108.9,22.0577,-6.87953,3.90968,5479.43,1527.97,8141.52,33.2653,345.8,-10.9071,-1612.79,9814.42,-761.391,-5.33396,1.49557,-36.2369,-2142.53,7237.97,-69.7764,4.98808,36.6783,-294.485,1298.05,9264.12,-908.824,64.3521,-8.49103,-74.0025,-5268.24,-6979.12,-1123.67,-23.4414,43.1222,-146.358,6906.57,1157.0,886.182,-33.7979,20.6604,-28.7688
2.7035,3755.6,904.856,9104.56,21.9716,-7.05508,3.96532,5507.04,1542.21,8175.23,33.2018,345.885,-11.4804,-1607.87,9803.98,-755.851,-5.37388,1.61796,-36.4279,-2143.23,7288.36,-55.5588,5.03231,36.1952,-295.098,1279.96,9185.82,-915.261,63.9829,-9.3818,-74.053,-5274.92,-6958.43,-1142.43,-23.4665,44.6873,-146.121,6910.08,1124.34,888.641,-33.7646,20.7375,-28.4005
2.704,3760.55,911.82,9100.23,21.8856,-7.23063,4.02097,5534.66,1556.46,8208.95,33.1383,345.97,-12.0537,-1602.95,9793.54,-750.312,-5.4138,1.74035,-36.6188,-2143.92,7338.75,-41.3413,5.07655,35.7121,-295.712,1261.87,9107.52,-921.699,63.6137,-10.2726,-74.1035,-5281.6,-6937.74,-1161.19,-23.4916,46.2524,-145.884,6913.58,1091.68,891.1,-33.7313,20.8146,-28.0323
2.7045,3765.5,918.785,9095.89,21.7995,-7.40619,4.07662,5562.27,1570.7,8242.66,33.0748,346.055,-12.627,-1598.02,9783.1,-744.772,-5.45372,1.86274,-36.8098,-2144.62,7389.13,-27.1237,5.12078,35.229,-296.326,1243.78,9029.22,-928.136,63.2446,-11.1633,-74.154,-5288.28,-6917.05,-1179.95,-23.5166,47.8175,-145.647,6917.09,1059.02,893.559,-33.698,20.8917,-27.664
2.705,3770.45,925.75,9091.55,21.7135,-7.58174,4.13227,5589.89,1584.94,8276.37,33.0113,346.14,-13.2003,-1593.1,9772.66,-739.233,-5.49364,1.98513,-37.0008,-2145.32,7439.52,-12.9061,5.16502,34.7459,-296.94,1225.69,8950.92,-934.573,62.8754,-12.0541,-74.2045,-5294.96,-6896.36,-1198.71,-23.5417,49.3826,-145.41,6920.6,1026.36,896.018,-33.6648,20.9688,-27.2957
2.7055,3775.4,932.715,9087.21,21.6274,-7.75729,4.18792,5617.5,1599.18,8310.08,32.9478,346.225,-13.7736,-1588.18,9762.22,-733.693,-5.53356,2.10752,-37.1918,-2146.02,7489.9,1.31149,5.20925,34.2628,-297.554,1207.6,8872.62,-941.011,62.5062,-12.9449,-74.255,-5301.64,-6875.67,-1217.47,-23.5668,50.9477,-145.173,6924.1,993.7,898.476,-33.6315,21.0459,-26.9274
2.706,3780.35,939.68,9082.87,21.5413,-7.93284,4.24357,5645.12,1613.43,8343.79,32.8843,346.31,-14.3469,-1583.25,9751.78,-728.154,-5.57348,2.22991,-37.3827,-2146.72,7540.29,15.5291,5.25349,33.7797,-298.168,1189.51,8794.32,-947.448,62.137,-13.8356,-74.3055,-5308.32,-6854.98,-1236.23,-23.5919,52.5128,-144.936,6927.61,961.04,900.935,-33.5982,21.123,-26.5592
2.7065,3785.31,946.645,9078.54,21.4553,-8.10839,4.29922,5672.74,1627.67,8377.5,32.8208,346.395,-14.9202,-1578.33,9741.33,-722.614,-5.6134,2.3523,-37.5737,-2147.42,7590.67,29.7466,5.29772,33.2966,-298.782,1171.42,8716.02,-953.885,61.7678,-14.7264,-74.356,-5315.0,-6834.28,-1254.99,-23.617,54.0779,-144.699,6931.12,928.379,903.394,-33.5649,21.2001,-26.1909
2.707,3797.84,937.368,9077.02,21.3006,-8.29021,4.35207,5720.08,1630.8,8413.93,32.7584,346.583,-15.6409,-1584.57,9737.75,-722.459,-5.63439,2.4979,-37.8066,-2141.4,7635.0,41.7239,5.3621,32.7172,-299.348,1156.07,8641.79,-958.415,61.4543,-15.4607,-74.4175,-5317.18,-6811.61,-1258.09,-23.6337,55.6471,-144.488,6930.21,905.536,910.272,-33.464,21.2467,-25.8201
2.7075,3814.18,919.97,9076.91,21.1117,-8.47515,4.40351,5777.3,1628.36,8451.71,32.6965,346.821,-16.4353,-1596.4,9737.58,-724.995,-5.64592,2.6551,-38.0605,-2132.02,7676.29,52.581,5.43655,32.0897,-299.89,1142.1,8569.6,-961.992,61.1686,-16.1169,-74.4846,-5317.11,-6787.95,-1253.36,-23.6463,57.2184,-144.291,6927.09,887.602,919.359,-33.3293,21.2779,-25.4481
2.708,3830.51,902.572,9076.81,20.9227,-8.66009,4.45495,5834.51,1625.93,8489.5,32.6347,347.06,-17.2296,-1608.22,9737.42,-727.532,-5.65744,2.8123,-38.3144,-2122.63,7717.58,63.438,5.51101,31.4621,-300.432,1128.13,8497.4,-965.568,60.8829,-16.773,-74.5516,-5317.04,-6764.28,-1248.63,-23.6588,58.7897,-144.094,6923.97,869.667,928.446,-33.1946,21.3092,-25.0761
2.7085,3846.84,885.174,9076.7,20.7338,-8.84503,4.50639,5891.73,1623.5,8527.28,32.5728,347.298,-18.024,-1620.05,9737.26,-730.068,-5.66897,2.9695,-38.5682,-2113.25,7758.87,74.2951,5.58546,30.8346,-300.974,1114.15,8425.21,-969.144,60.5972,-17.4292,-74.6186,-5316.97,-6740.62,-1243.9,-23.6713,60.3609,-143.897,6920.85,851.732,937.533,-33.0598,21.3405,-24.7042
2.709,3863.17,867.776,9076.6,20.5448,-9.02997,4.55783,5948.94,1621.07,8565.07,32.5109,347.537,-18.8183,-1631.88,9737.09,-732.605,-5.68049,3.1267,-38.8221,-2103.87,7800.16,85.1522,5.65991,30.2071,-301.516,1100.18,8353.01,-972.721,60.3115,-18.0853,-74.6856,-5316.9,-6716.95,-1239.17,-23.6839,61.9322,-143.699,6917.73,833.797,946.62,-32.9251,21.3718,-24.3322
2.7095,3879.51,850.378,9076.49,20.3559,-9.21492,4.60927,6006.16,1618.64,8602.85,32.4491,347.775,-19.6127,-1643.7,9736.93,-735.141,-5.69202,3.28391,-39.076,-2094.48,7841.46,96.0092,5.73436,29.5795,-302.058,1086.2,8280.82,-976.297,60.0258,-18.7414,-74.7526,-5316.83,-6693.29,-1234.44,-23.6964,63.5035,-143.502,6914.6,815.863,955.707,-32.7904,21.403,-23.9602
2.71,3895.84,832.98,9076.39,20.167,-9.39986,4.66071,6063.38,1616.21,8640.64,32.3872,348.014,-20.407,-1655.53,9736.77,-737.678,-5.70354,3.44111,-39.3298,-2085.1,7882.75,106.866,5.80882,28.952,-302.6,1072.23,8208.63,-979.873,59.7401,-19.3976,-74.8196,-5316.76,-6669.63,-1229.71,-23.7089,65.0747,-143.305,6911.48,797.928,964.795,-32.6557,21.4343,-23.5882
2.7105,3912.17,815.582,9076.28,19.978,-9.5848,4.71215,6120.59,1613.78,8678.42,32.3253,348.252,-21.2014,-1667.35,9736.61,-740.214,-5.71507,3.59831,-39.5837,-2075.72,7924.04,117.723,5.88327,28.3245,-303.142,1058.25,8136.43,-983.45,59.4544,-20.0537,-74.8866,-5316.69,-6645.96,-1224.98,-23.7215,66.646,-143.108,6908.36,779.993,973.882,-32.521,21.4656,-23.2162
2.711,3928.5,798.184,9076.18,19.7891,-9.76974,4.76359,6177.81,1611.35,8716.21,32.2635,348.491,-21.9958,-1679.18,9736.44,-742.751,-5.72659,3.75551,-39.8376,-2066.33,7965.33,128.58,5.95772,27.6969,-303.684,1044.28,8064.24,-987.026,59.1687,-20.7099,-74.9536,-5316.61,-6622.3,-1220.25,-23.734,68.2173,-142.91,6905.24,762.059,982.969,-32.3862,21.4968,-22.8442
2.7115,3943.26,784.415,9078.82,19.5929,-9.9445,4.71361,6249.74,1640.15,8745.41,32.2521,348.926,-22.7058,-1686.43,9734.66,-760.555,-5.77074,3.94828,-40.1005,-2053.69,8009.08,150.442,6.06619,27.0262,-304.195,1044.37,8000.95,-989.998,58.8602,-21.1526,-75.0439,-5304.83,-6598.72,-1186.09,-23.7279,69.5502,-142.717,6908.27,738.243,982.907,-32.312,21.4964,-22.5205
2.712,3957.57,771.683,9082.24,19.3946,-10.1163,4.63466,6325.88,1677.88,8772.16,32.2551,349.417,-23.3917,-1692.39,9732.4,-782.722,-5.82422,4.15121,-40.366,-2040.11,8053.53,175.448,6.18438,26.3432,-304.697,1048.47,7940.19,-992.797,58.5452,-21.5344,-75.1409,-5289.69,-6575.18,-1143.53,-23.7165,70.815,-142.524,6913.07,712.747,980.231,-32.255,21.4869,-22.2105
2.7125,3971.88,758.951,9085.65,19.1963,-10.2882,4.5557,6402.02,1715.61,8798.91,32.2581,349.908,-24.0776,-1698.34,9730.15,-804.889,-5.87769,4.35414,-40.6315,-2026.54,8097.99,200.453,6.30257,25.6602,-305.199,1052.58,7879.44,-995.597,58.2302,-21.9162,-75.2379,-5274.56,-6551.63,-1100.97,-23.7051,72.0798,-142.331,6917.86,687.25,977.556,-32.1981,21.4774,-21.9006
2.713,3986.18,746.219,9089.07,18.998,-10.46,4.47674,6478.16,1753.34,8825.66,32.2612,350.399,-24.7635,-1704.29,9727.89,-827.056,-5.93117,4.55707,-40.8971,-2012.96,8142.44,225.459,6.42076,24.9772,-305.701,1056.69,7818.68,-998.396,57.9151,-22.298,-75.3349,-5259.42,-6528.09,-1058.41,-23.6937,73.3446,-142.138,6922.65,661.754,974.88,-32.1411,21.4679,-21.5907
2.7135,4000.49,733.487,9092.49,18.7997,-10.6319,4.39778,6554.3,1791.06,8852.42,32.2642,350.89,-25.4494,-1710.25,9725.64,-849.223,-5.98464,4.76,-41.1626,-1999.39,8186.89,250.465,6.53895,24.2942,-306.203,1060.79,7757.93,-1001.2,57.6001,-22.6798,-75.4319,-5244.29,-6504.54,-1015.84,-23.6823,74.6094,-141.945,6927.44,636.258,972.204,-32.0841,21.4584,-21.2808
2.714,4014.8,720.754,9095.91,18.6014,-10.8037,4.31882,6630.44,1828.79,8879.17,32.2672,351.381,-26.1353,-1716.2,9723.39,-871.39,-6.03811,4.96294,-41.4281,-1985.81,8231.35,275.47,6.65714,23.6112,-306.706,1064.9,7697.18,-1003.99,57.2851,-23.0616,-75.5289,-5229.15,-6481.0,-973.281,-23.671,75.8742,-141.752,6932.23,610.762,969.529,-32.0271,21.4489,-20.9709
2.7145,4029.11,708.022,9099.33,18.4031,-10.9756,4.23987,6706.58,1866.52,8905.92,32.2702,351.872,-26.8212,-1722.15,9721.13,-893.556,-6.09159,5.16587,-41.6936,-1972.24,8275.8,300.476,6.77533,22.9282,-307.208,1069.01,7636.42,-1006.79,56.9701,-23.4434,-75.6259,-5214.02,-6457.45,-930.718,-23.6596,77.139,-141.559,6937.02,585.265,966.853,-31.9702,21.4394,-20.6609
2.715,4043.41,695.29,9102.75,18.2048,-11.1474,4.16091,6782.72,1904.25,8932.67,32.2733,352.363,-27.5071,-1728.11,9718.88,-915.723,-6.14506,5.3688,-41.9592,-1958.66,8320.25,325.482,6.89352,22.2451,-307.71,1073.11,7575.67,-1009.59,56.6551,-23.8252,-75.7229,-5198.88,-6433.91,-888.156,-23.6482,78.4038,-141.367,6941.81,559.769,964.177,-31.9132,21.4298,-20.351
2.7155,4057.72,682.558,9106.17,18.0065,-11.3193,4.08195,6858.86,1941.98,8959.42,32.2763,352.854,-28.193,-1734.06,9716.63,-937.89,-6.19854,5.57173,-42.2247,-1945.09,8364.71,350.488,7.01171,21.5621,-308.212,1077.22,7514.91,-1012.39,56.34,-24.207,-75.8199,-5183.75,-6410.36,-845.593,-23.6368,79.6686,-141.174,6946.6,534.273,961.502,-31.8562,21.4203,-20.0411
2.716,4060.53,688.559,9110.38,17.8329,-11.4666,3.95847,6955.22,1928.56,9000.75,32.0367,353.498,-29.054,-1739.27,9723.27,-946.556,-6.31444,5.71922,-42.5297,-1942.78,8405.3,387.886,7.19643,20.8116,-308.754,1090.21,7477.76,-1012.21,56.069,-24.5251,-75.8358,-5163.34,-6384.78,-791.275,-23.616,80.4931,-141.036,6946.29,506.197,952.168,-31.6842,21.5001,-19.7881
2.7165,4061.89,696.902,9114.68,17.6624,-11.6109,3.82942,7054.09,1908.76,9043.9,31.7667,354.162,-29.9369,-1744.39,9731.03,-953.534,-6.43815,5.85979,-42.8396,-1941.87,8445.41,426.834,7.38946,20.0525,-309.301,1104.32,7443.56,-1011.65,55.8033,-24.8353,-75.8415,-5142.28,-6358.94,-735.488,-23.5941,81.2626,-140.905,6945.34,477.798,942.001,-31.4978,21.5911,-19.5422
2.717,4063.26,705.245,9118.99,17.492,-11.7552,3.70037,7152.97,1888.95,9087.05,31.4967,354.825,-30.8197,-1749.5,9738.78,-960.513,-6.56186,6.00035,-43.1495,-1940.96,8485.52,465.782,7.58249,19.2935,-309.848,1118.42,7409.36,-1011.1,55.5377,-25.1454,-75.8473,-5121.21,-6333.1,-679.7,-23.5722,82.0321,-140.774,6944.39,449.399,931.835,-31.3114,21.6821,-19.2962
2.7175,4064.62,713.588,9123.29,17.3215,-11.8994,3.57132,7251.85,1869.14,9130.2,31.2268,355.489,-31.7026,-1754.62,9746.54,-967.491,-6.68557,6.14091,-43.4594,-1940.06,8525.63,504.73,7.77552,18.5345,-310.395,1132.53,7375.16,-1010.54,55.2721,-25.4556,-75.853,-5100.15,-6307.26,-623.912,-23.5503,82.8016,-140.644,6943.44,421.0,921.669,-31.1251,21.7731,-19.0503
2.718,4065.99,721.931,9127.59,17.151,-12.0437,3.44227,7350.73,1849.33,9173.35,30.9568,356.153,-32.5855,-1759.73,9754.29,-974.469,-6.80928,6.28148,-43.7693,-1939.15,8565.73,543.678,7.96855,17.7755,-310.943,1146.64,7340.96,-1009.99,55.0065,-25.7657,-75.8587,-5079.09,-6281.42,-568.125,-23.5283,83.5711,-140.513,6942.49,392.601,911.503,-30.9387,21.864,-18.8044
2.7185,4067.35,730.274,9131.9,16.9805,-12.188,3.31322,7449.6,1829.53,9216.5,30.6868,356.816,-33.4684,-1764.85,9762.05,-981.448,-6.93299,6.42204,-44.0792,-1938.25,8605.84,582.626,8.16158,17.0165,-311.49,1160.74,7306.75,-1009.43,54.7409,-26.0759,-75.8645,-5058.02,-6255.58,-512.337,-23.5064,84.3406,-140.382,6941.54,364.203,901.336,-30.7523,21.955,-18.5585
2.719,4068.72,738.617,9136.2,16.81,-12.3323,3.18417,7548.48,1809.72,9259.66,30.4168,357.48,-34.3512,-1769.96,9769.81,-988.426,-7.0567,6.5626,-44.3892,-1937.34,8645.95,621.574,8.35461,16.2575,-312.037,1174.85,7272.55,-1008.88,54.4753,-26.386,-75.8702,-5036.96,-6229.75,-456.55,-23.4845,85.1101,-140.251,6940.59,335.804,891.17,-30.5659,22.046,-18.3126
2.7195,4070.08,746.96,9140.51,16.6395,-12.4765,3.05512,7647.36,1789.91,9302.81,30.1469,358.143,-35.2341,-1775.08,9777.56,-995.404,-7.18041,6.70317,-44.6991,-1936.43,8686.06,660.521,8.54765,15.4985,-312.584,1188.95,7238.35,-1008.32,54.2097,-26.6962,-75.8759,-5015.89,-6203.91,-400.762,-23.4626,85.8796,-140.12,6939.65,307.405,881.004,-30.3795,22.1369,-18.0666
2.72,4071.45,755.303,9144.81,16.4691,-12.6208,2.92607,7746.24,1770.1,9345.96,29.8769,358.807,-36.117,-1780.2,9785.32,-1002.38,-7.30412,6.84373,-45.009,-1935.53,8726.17,699.469,8.74068,14.7394,-313.131,1203.06,7204.15,-1007.76,53.9441,-27.0064,-75.8817,-4994.83,-6178.07,-344.975,-23.4406,86.6491,-139.99,6938.7,279.006,870.838,-30.1931,22.2279,-17.8207
2.7205,4067.15,760.252,9151.47,16.3861,-12.8415,2.80582,7762.17,1744.15,9359.17,29.613,359.213,-37.2496,-1780.24,9787.34,-991.337,-7.36639,6.98779,-45.2525,-1946.29,8756.63,733.989,9.04715,13.9231,-313.718,1219.98,7198.97,-1006.28,53.7148,-27.0346,-75.913,-4971.63,-6158.14,-290.529,-23.3124,86.9799,-139.924,6964.49,266.987,865.765,-29.9336,22.349,-17.5076
2.721,4062.84,765.201,9158.14,16.3032,-13.0622,2.68558,7778.1,1718.2,9372.38,29.3491,359.618,-38.3822,-1780.29,9789.37,-980.292,-7.42866,7.13184,-45.496,-1957.06,8787.08,768.509,9.35361,13.1068,-314.304,1236.91,7193.79,-1004.8,53.4854,-27.0628,-75.9444,-4948.43,-6138.21,-236.083,-23.1842,87.3107,-139.859,6990.28,254.967,860.693,-29.6741,22.4702,-17.1945
2.7215,4058.54,770.15,9164.8,16.2202,-13.2828,2.56534,7794.04,1692.25,9385.59,29.0852,360.024,-39.5147,-1780.33,9791.4,-969.246,-7.49093,7.2759,-45.7395,-1967.83,8817.53,803.029,9.66008,12.2905,-314.891,1253.84,7188.61,-1003.31,53.2561,-27.0911,-75.9758,-4925.23,-6118.28,-181.637,-23.0559,87.6416,-139.793,7016.07,242.948,855.62,-29.4146,22.5914,-16.8813
2.722,4054.23,775.098,9171.46,16.1373,-13.5035,2.4451,7809.97,1666.3,9398.81,28.8213,360.429,-40.6473,-1780.38,9793.43,-958.201,-7.55319,7.41996,-45.983,-1978.6,8847.98,837.549,9.96655,11.4742,-315.478,1270.76,7183.43,-1001.83,53.0267,-27.1193,-76.0071,-4902.03,-6098.35,-127.192,-22.9277,87.9724,-139.728,7041.86,230.929,850.547,-29.1551,22.7125,-16.5682
2.7225,4049.93,780.047,9178.12,16.0544,-13.7242,2.32485,7825.9,1640.35,9412.02,28.5574,360.835,-41.7799,-1780.42,9795.46,-947.155,-7.61546,7.56402,-46.2265,-1989.36,8878.44,872.069,10.273,10.6579,-316.064,1287.69,7178.25,-1000.35,52.7974,-27.1476,-76.0385,-4878.82,-6078.42,-72.7459,-22.7995,88.3033,-139.662,7067.65,218.909,845.475,-28.8956,22.8337,-16.2551
2.723,4045.62,784.996,9184.78,15.9714,-13.9449,2.20461,7841.84,1614.4,9425.23,28.2935,361.24,-42.9125,-1780.46,9797.48,-936.11,-7.67773,7.70807,-46.4699,-2000.13,8908.89,906.588,10.5795,9.8416,-316.651,1304.62,7173.08,-998.861,52.568,-27.1758,-76.0699,-4855.62,-6058.49,-18.3001,-22.6712,88.6341,-139.597,7093.44,206.89,840.402,-28.6361,22.9548,-15.9419
2.7235,4041.32,789.945,9191.45,15.8885,-14.1655,2.08437,7857.77,1588.45,9438.44,28.0295,361.646,-44.0451,-1780.51,9799.51,-925.064,-7.74,7.85213,-46.7134,-2010.9,8939.34,941.108,10.886,9.02529,-317.237,1321.54,7167.9,-997.377,52.3387,-27.2041,-76.1012,-4832.42,-6038.56,36.1456,-22.543,88.965,-139.531,7119.24,194.87,835.33,-28.3766,23.076,-15.6288
2.724,4037.01,794.894,9198.11,15.8055,-14.3862,1.96412,7873.7,1562.5,9451.66,27.7656,362.051,-45.1776,-1780.55,9801.54,-914.019,-7.80226,7.99619,-46.9569,-2021.66,8969.8,975.628,11.1924,8.20898,-317.824,1338.47,7162.72,-995.894,52.1093,-27.2323,-76.1326,-4809.22,-6018.64,90.5914,-22.4147,89.2958,-139.466,7145.03,182.851,830.257,-28.1171,23.1971,-15.3157
2.7245,4033.22,800.862,9204.83,15.7104,-14.6132,1.83981,7888.44,1540.86,9466.37,27.51,362.427,-46.3024,-1781.58,9805.86,-903.551,-7.85972,8.13557,-47.2068,-2033.96,9002.91,1008.98,11.5039,7.37939,-318.402,1355.99,7162.19,-997.179,51.8759,-27.206,-76.1715,-4788.17,-5998.01,142.194,-22.2768,89.602,-139.405,7166.89,171.651,824.725,-27.8381,23.3303,-15.0156
2.725,4033.54,814.987,9212.06,15.518,-14.8905,1.68296,7893.56,1553.75,9493.06,27.3207,362.567,-47.3642,-1790.48,9828.54,-897.707,-7.87871,8.23758,-47.5073,-2058.52,9057.31,1032.96,11.8556,6.44354,-318.916,1378.28,7198.88,-1020.62,51.6103,-26.7432,-76.2706,-4784.24,-5971.85,171.054,-22.0607,89.7107,-139.389,7157.28,167.009,815.516,-27.4033,23.5602,-14.8206
2.7255,4033.87,829.112,9219.29,15.3257,-15.1678,1.52611,7898.68,1566.64,9519.76,27.1315,362.707,-48.4261,-1799.38,9851.21,-891.863,-7.8977,8.33959,-47.8079,-2083.08,9111.71,1056.94,12.2073,5.50769,-319.43,1400.57,7235.58,-1044.06,51.3448,-26.2804,-76.3697,-4780.31,-5945.68,199.914,-21.8447,89.8195,-139.372,7147.68,162.366,806.306,-26.9685,23.79,-14.6255
2.726,4034.19,843.238,9226.52,15.1333,-15.4451,1.36926,7903.81,1579.52,9546.46,26.9422,362.846,-49.4879,-1808.27,9873.88,-886.018,-7.91669,8.44159,-48.1084,-2107.64,9166.11,1080.92,12.559,4.57184,-319.944,1422.85,7272.27,-1067.5,51.0792,-25.8176,-76.4688,-4776.38,-5919.52,228.774,-21.6287,89.9283,-139.355,7138.07,157.724,797.097,-26.5338,24.0198,-14.4304
2.7265,4034.51,857.363,9233.75,14.9409,-15.7224,1.21241,7908.93,1592.41,9573.15,26.7529,362.986,-50.5498,-1817.17,9896.56,-880.174,-7.93568,8.5436,-48.409,-2132.2,9220.51,1104.9,12.9107,3.63599,-320.458,1445.14,7308.96,-1090.94,50.8136,-25.3548,-76.5679,-4772.46,-5893.35,257.633,-21.4127,90.0371,-139.338,7128.47,153.082,787.888,-26.099,24.2497,-14.2353
2.727,4034.84,871.488,9240.98,14.7485,-15.9996,1.05556,7914.06,1605.3,9599.85,26.5636,363.126,-51.6116,-1826.07,9919.23,-874.33,-7.95466,8.64561,-48.7095,-2156.75,9274.91,1128.88,13.2624,2.70014,-320.972,1467.43,7345.65,-1114.38,50.548,-24.8921,-76.667,-4768.53,-5867.18,286.493,-21.1967,90.1458,-139.321,7118.87,148.439,778.679,-25.6642,24.4795,-14.0402
2.7275,4035.16,885.614,9248.21,14.5561,-16.2769,0.898708,7919.18,1618.19,9626.55,26.3743,363.265,-52.6735,-1834.96,9941.91,-868.486,-7.97365,8.74761,-49.0101,-2181.31,9329.31,1152.86,13.6141,1.76429,-321.486,1489.72,7382.34,-1137.82,50.2824,-24.4293,-76.7661,-4764.6,-5841.02,315.353,-20.9807,90.2546,-139.304,7109.26,143.797,769.47,-25.2295,24.7093,-13.8452
2.728,4035.48,899.739,9255.45,14.3637,-16.5542,0.741857,7924.3,1631.07,9653.24,26.1851,363.405,-53.7353,-1843.86,9964.58,-862.642,-7.99264,8.84962,-49.3106,-2205.87,9383.71,1176.84,13.9658,0.82844,-322.0,1512.01,7419.04,-1161.27,50.0168,-23.9665,-76.8652,-4760.67,-5814.85,344.213,-20.7646,90.3634,-139.287,7099.66,139.155,760.26,-24.7947,24.9392,-13.6501
2.7285,4035.81,913.864,9262.67,14.1714,-16.8315,0.585006,7929.43,1643.96,9679.94,25.9958,363.544,-54.7972,-1852.76,9987.25,-856.798,-8.01163,8.95162,-49.6112,-2230.43,9438.11,1200.82,14.3175,-0.107411,-322.514,1534.3,7455.73,-1184.71,49.7512,-23.5037,-76.9643,-4756.75,-5788.69,373.072,-20.5486,90.4722,-139.27,7090.06,134.512,751.051,-24.3599,25.169,-13.455
2.729,4034.8,926.683,9268.13,13.9801,-17.1031,0.445683,7927.3,1660.31,9705.44,25.7333,363.639,-55.8344,-1862.2,10007.3,-853.624,-8.02222,9.03267,-49.8984,-2257.24,9492.17,1222.7,14.6744,-1.11086,-323.023,1557.53,7496.55,-1197.45,49.4495,-23.0755,-77.0579,-4756.17,-5761.64,394.176,-20.3547,90.5883,-139.258,7083.86,133.927,744.261,-23.9468,25.3856,-13.2522
2.7295,4029.14,934.933,9267.35,13.7928,-17.3547,0.367705,7899.79,1688.78,9726.76,25.2147,363.574,-56.7854,-1873.55,10018.4,-859.794,-8.00342,9.04036,-50.1391,-2291.96,9545.05,1237.23,15.0492,-2.35091,-323.514,1584.06,7551.81,-1172.78,49.0215,-22.7685,-77.1322,-4767.33,-5731.54,388.134,-20.238,90.73,-139.262,7089.58,147.542,745.937,-23.6093,25.5559,-13.0222
2.73,4023.48,943.182,9266.56,13.6054,-17.6063,0.289727,7872.28,1717.25,9748.08,24.6961,363.509,-57.7364,-1884.9,10029.5,-865.965,-7.98462,9.04805,-50.3798,-2326.67,9597.92,1251.76,15.4241,-3.59096,-324.004,1610.59,7607.07,-1148.11,48.5934,-22.4614,-77.2065,-4778.49,-5701.43,382.091,-20.1212,90.8718,-139.266,7095.3,161.156,747.613,-23.2719,25.7262,-12.7922
2.7305,4017.82,951.432,9265.78,13.4181,-17.858,0.211749,7844.76,1745.71,9769.41,24.1775,363.444,-58.6874,-1896.25,10040.6,-872.136,-7.96582,9.05574,-50.6205,-2361.38,9650.79,1266.29,15.799,-4.831,-324.495,1637.12,7662.34,-1123.43,48.1654,-22.1544,-77.2807,-4789.65,-5671.32,376.048,-20.0045,91.0135,-139.27,7101.02,174.771,749.289,-22.9344,25.8965,-12.5622
2.731,4012.16,959.681,9265.0,13.2307,-18.1096,0.133772,7817.25,1774.18,9790.73,23.6589,363.38,-59.6384,-1907.6,10051.6,-878.307,-7.94702,9.06343,-50.8612,-2396.1,9703.67,1280.82,16.1739,-6.07105,-324.986,1663.66,7717.6,-1098.76,47.7373,-21.8473,-77.355,-4800.81,-5641.22,370.006,-19.8878,91.1553,-139.275,7106.74,188.385,750.965,-22.597,26.0667,-12.3322
2.7315,4006.5,967.93,9264.22,13.0434,-18.3612,0.055794,7789.74,1802.65,9812.05,23.1403,363.315,-60.5894,-1918.95,10062.7,-884.477,-7.92822,9.07113,-51.1019,-2430.81,9756.54,1295.35,16.5488,-7.3111,-325.477,1690.19,7772.86,-1074.08,47.3093,-21.5402,-77.4293,-4811.97,-5611.11,363.963,-19.7711,91.297,-139.279,7112.46,202.0,752.641,-22.2595,26.237,-12.1023
2.732,4000.84,976.18,9263.44,12.856,-18.6128,-0.0221838,7762.23,1831.12,9833.38,22.6216,363.25,-61.5404,-1930.31,10073.8,-890.648,-7.90942,9.07882,-51.3425,-2465.52,9809.41,1309.87,16.9237,-8.55115,-325.967,1716.72,7828.12,-1049.41,46.8813,-21.2332,-77.5035,-4823.13,-5581.0,357.921,-19.6544,91.4388,-139.283,7118.18,215.614,754.317,-21.9221,26.4073,-11.8723
2.7325,3995.18,984.429,9262.66,12.6687,-18.8644,-0.100161,7734.72,1859.58,9854.7,22.103,363.185,-62.4913,-1941.66,10084.9,-896.819,-7.89063,9.08651,-51.5832,-2500.24,9862.29,1324.4,17.2986,-9.7912,-326.458,1743.25,7883.39,-1024.74,46.4532,-20.9261,-77.5778,-4834.29,-5550.9,351.878,-19.5377,91.5806,-139.287,7123.9,229.229,755.992,-21.5846,26.5776,-11.6423
2.733,3989.52,992.679,9261.88,12.4813,-19.116,-0.178139,7707.2,1888.05,9876.02,21.5844,363.121,-63.4423,-1953.01,10095.9,-902.99,-7.87183,9.0942,-51.8239,-2534.95,9915.16,1338.93,17.6735,-11.0312,-326.949,1769.79,7938.65,-1000.06,46.0252,-20.6191,-77.6521,-4845.45,-5520.79,345.836,-19.421,91.7223,-139.292,7129.62,242.843,757.668,-21.2472,26.7479,-11.4123
2.7335,3986.62,997.169,9256.07,12.2982,-19.3729,-0.25,7682.66,1925.2,9892.3,20.97,363.036,-64.4357,-1967.37,10100.1,-902.775,-7.84192,9.08323,-52.072,-2569.75,9969.92,1353.54,18.0135,-12.3429,-327.411,1797.85,8001.41,-970.972,45.6044,-20.2803,-77.7123,-4860.6,-5495.08,336.59,-19.3055,91.9172,-139.306,7135.18,249.693,760.743,-20.9631,26.9122,-11.1929
2.734,3989.23,994.141,9240.19,12.1236,-19.6402,-0.309628,7664.05,1979.71,9898.48,20.1639,362.912,-65.514,-1987.76,10090.3,-889.791,-7.78982,9.03493,-52.3348,-2604.74,10028.5,1368.33,18.2836,-13.7978,-327.817,1828.99,8079.17,-933.05,45.198,-19.878,-77.7444,-4883.74,-5478.18,320.937,-19.1924,92.2183,-139.342,7140.42,243.014,766.616,-20.7857,27.0647,-10.9947
2.7345,3991.83,991.113,9224.32,11.949,-19.9075,-0.369256,7645.45,2034.23,9904.67,19.3577,362.789,-66.5922,-2008.14,10080.4,-876.806,-7.73771,8.98663,-52.5976,-2639.73,10087.0,1383.11,18.5538,-15.2528,-328.222,1860.12,8156.94,-895.129,44.7916,-19.4758,-77.7765,-4906.87,-5461.27,305.285,-19.0794,92.5195,-139.378,7145.65,236.334,772.488,-20.6083,27.2172,-10.7964
2.735,3994.44,988.085,9208.44,11.7743,-20.1749,-0.428884,7626.84,2088.74,9910.86,18.5516,362.665,-67.6705,-2028.53,10070.6,-863.822,-7.6856,8.93834,-52.8604,-2674.72,10145.5,1397.89,18.8239,-16.7077,-328.627,1891.26,8234.7,-857.207,44.3852,-19.0735,-77.8086,-4930.0,-5444.36,289.632,-18.9664,92.8206,-139.414,7150.89,229.655,778.361,-20.4309,27.3696,-10.5982
2.7355,3997.05,985.057,9192.57,11.5997,-20.4422,-0.488512,7608.23,2143.25,9917.04,17.7455,362.541,-68.7487,-2048.92,10060.8,-850.838,-7.63349,8.89004,-53.1232,-2709.71,10204.0,1412.68,19.0941,-18.1626,-329.033,1922.39,8312.46,-819.285,43.9789,-18.6713,-77.8407,-4953.13,-5427.45,273.979,-18.8533,93.1218,-139.45,7156.13,222.976,784.233,-20.2535,27.5221,-10.4
2.736,3999.66,982.029,9176.7,11.4251,-20.7096,-0.548139,7589.62,2197.76,9923.23,16.9394,362.417,-69.827,-2069.31,10051.0,-837.853,-7.58138,8.84174,-53.386,-2744.7,10262.6,1427.46,19.3643,-19.6176,-329.438,1953.53,8390.23,-781.364,43.5725,-18.269,-77.8728,-4976.26,-5410.54,258.327,-18.7403,93.4229,-139.486,7161.36,216.296,790.106,-20.0761,27.6745,-10.2017
2.7365,4002.26,979.001,9160.82,11.2504,-20.9769,-0.607767,7571.01,2252.28,9929.42,16.1333,362.293,-70.9052,-2089.7,10041.2,-824.869,-7.52927,8.79345,-53.6488,-2779.69,10321.1,1442.24,19.6344,-21.0725,-329.843,1984.66,8467.99,-743.442,43.1661,-17.8667,-77.9049,-4999.4,-5393.63,242.674,-18.6272,93.724,-139.522,7166.6,209.617,795.979,-19.8987,27.827,-10.0035
2.737,4004.87,975.973,9144.95,11.0758,-21.2442,-0.667395,7552.41,2306.79,9935.61,15.3271,362.169,-71.9835,-2110.08,10031.4,-811.884,-7.47716,8.74515,-53.9116,-2814.68,10379.6,1457.03,19.9046,-22.5274,-330.249,2015.79,8545.75,-705.521,42.7597,-17.4645,-77.937,-5022.53,-5376.73,227.022,-18.5142,94.0252,-139.558,7171.84,202.937,801.851,-19.7213,27.9795,-9.80524
2.7375,4007.48,972.945,9129.07,10.9012,-21.5116,-0.727023,7533.8,2361.3,9941.79,14.521,362.045,-73.0617,-2130.47,10021.6,-798.9,-7.42505,8.69685,-54.1744,-2849.67,10438.2,1471.81,20.1747,-23.9823,-330.654,2046.93,8623.52,-667.599,42.3534,-17.0622,-77.9691,-5045.66,-5359.82,211.369,-18.4012,94.3263,-139.594,7177.07,196.258,807.724,-19.5439,28.1319,-9.607
2.738,4015.51,976.825,9113.78,10.7273,-21.751,-0.787699,7522.28,2399.33,9958.49,13.689,361.9,-74.1073,-2157.59,10014.5,-786.577,-7.41988,8.58359,-54.4303,-2889.77,10492.9,1491.14,20.3929,-25.4628,-331.041,2068.59,8709.16,-638.45,42.0265,-16.6274,-77.9685,-5077.69,-5346.92,190.329,-18.2899,94.6529,-139.622,7186.72,202.414,814.695,-19.437,28.2701,-9.40642
2.7385,4030.31,989.34,9099.23,10.5545,-21.9557,-0.849687,7519.61,2416.77,9988.34,12.8245,361.727,-75.1122,-2193.12,10010.9,-775.083,-7.47337,8.38912,-54.6775,-2936.26,10542.8,1516.17,20.5462,-26.9752,-331.406,2078.4,8804.65,-620.267,41.7991,-16.1518,-77.9271,-5120.85,-5339.03,162.556,-18.181,95.0113,-139.641,7201.88,224.613,823.039,-19.4184,28.3905,-9.2029
2.739,4045.12,1001.86,9084.67,10.3816,-22.1603,-0.911674,7516.95,2434.2,10018.2,11.96,361.554,-76.1171,-2228.65,10007.3,-763.588,-7.52686,8.19465,-54.9247,-2982.76,10592.8,1541.19,20.6994,-28.4877,-331.77,2088.21,8900.13,-602.084,41.5718,-15.6763,-77.8858,-5164.0,-5331.13,134.783,-18.0721,95.3697,-139.659,7217.03,246.813,831.383,-19.3997,28.5108,-8.99938
2.7395,4059.93,1014.37,9070.12,10.2088,-22.365,-0.973662,7514.28,2451.63,10048.0,11.0956,361.381,-77.122,-2264.19,10003.7,-752.093,-7.58035,8.00018,-55.1719,-3029.25,10642.7,1566.21,20.8527,-30.0001,-332.134,2098.02,8995.62,-583.901,41.3444,-15.2007,-77.8444,-5207.16,-5323.24,107.01,-17.9632,95.7281,-139.678,7232.19,269.013,839.727,-19.381,28.6312,-8.79587
2.74,4074.73,1026.89,9055.57,10.0359,-22.5696,-1.03565,7511.62,2469.06,10077.9,10.2311,361.209,-78.1269,-2299.72,10000.1,-740.599,-7.63384,7.8057,-55.4191,-3075.75,10692.7,1591.23,21.0059,-31.5125,-332.498,2107.83,9091.11,-565.719,41.117,-14.7252,-77.803,-5250.31,-5315.35,79.2374,-17.8542,96.0865,-139.697,7247.35,291.213,848.07,-19.3623,28.7516,-8.59235
2.7405,4089.54,1039.4,9041.01,9.8631,-22.7743,-1.09764,7508.95,2486.49,10107.7,9.36663,361.036,-79.1318,-2335.25,9996.53,-729.104,-7.68733,7.61123,-55.6663,-3122.24,10742.6,1616.26,21.1592,-33.0249,-332.863,2117.65,9186.6,-547.536,40.8896,-14.2496,-77.7616,-5293.47,-5307.46,51.4643,-17.7453,96.4448,-139.715,7262.51,313.413,856.415,-19.3436,28.8719,-8.38883
2.741,4104.34,1051.92,9026.46,9.69025,-22.9789,-1.15962,7506.29,2503.92,10137.6,8.50217,360.863,-80.1367,-2370.78,9992.93,-717.609,-7.74082,7.41676,-55.9135,-3168.74,10792.6,1641.28,21.3124,-34.5373,-333.227,2127.46,9282.09,-529.353,40.6622,-13.7741,-77.7203,-5336.62,-5299.57,23.6913,-17.6364,96.8032,-139.734,7277.66,335.613,864.759,-19.3249,28.9923,-8.18531
2.7415,4119.15,1064.43,9011.9,9.5174,-23.1835,-1.22161,7503.62,2521.35,10167.4,7.6377,360.69,-81.1416,-2406.31,9989.33,-706.115,-7.79431,7.22229,-56.1607,-3215.23,10842.5,1666.3,21.4657,-36.0498,-333.591,2137.27,9377.58,-511.17,40.4349,-13.2985,-77.6789,-5379.78,-5291.68,-4.08172,-17.5275,97.1616,-139.753,7292.82,357.813,873.103,-19.3062,29.1127,-7.98179
2.742,4133.96,1076.95,8997.35,9.34455,-23.3882,-1.2836,7500.96,2538.78,10197.3,6.77323,360.518,-82.1465,-2441.85,9985.72,-694.62,-7.84781,7.02782,-56.4079,-3261.73,10892.4,1691.32,21.6189,-37.5622,-333.955,2147.08,9473.06,-492.987,40.2075,-12.823,-77.6375,-5422.94,-5283.79,-31.8547,-17.4185,97.52,-139.772,7307.98,380.012,881.447,-19.2875,29.233,-7.77828
2.7425,4153.43,1099.07,8985.87,9.17497,-23.5711,-1.31161,7522.4,2528.26,10243.4,6.02884,360.353,-83.255,-2469.32,9988.01,-679.333,-7.86198,6.85257,-56.6677,-3289.1,10944.6,1706.95,21.7462,-39.0892,-334.291,2157.09,9553.99,-452.149,40.1491,-12.6313,-77.4642,-5468.97,-5277.22,-60.0916,-17.2614,97.7717,-139.671,7316.9,403.474,880.577,-19.3399,29.3464,-7.50538
2.743,4176.64,1128.87,8976.84,9.00799,-23.7367,-1.31245,7563.14,2495.39,10302.5,5.38053,360.196,-84.4464,-2490.36,9995.01,-661.012,-7.8447,6.69271,-56.9376,-3301.18,10998.6,1715.05,21.8527,-40.6279,-334.603,2167.24,9623.27,-393.186,40.2258,-12.6667,-77.1852,-5517.32,-5271.73,-88.6996,-17.0656,97.938,-139.475,7320.83,427.946,872.337,-19.4492,29.4543,-7.17699
2.7435,4199.85,1158.68,8967.81,8.84101,-23.9023,-1.31329,7603.87,2462.51,10361.7,4.73221,360.039,-85.6378,-2511.39,10002.0,-642.691,-7.82742,6.53285,-57.2074,-3313.26,11052.6,1723.16,21.9593,-42.1666,-334.916,2177.4,9692.55,-334.224,40.3026,-12.7021,-76.9062,-5565.66,-5266.23,-117.308,-16.8698,98.1044,-139.278,7324.76,452.417,864.098,-19.5585,29.5622,-6.8486
2.744,4223.05,1188.48,8958.79,8.67403,-24.0679,-1.31413,7644.61,2429.63,10420.8,4.0839,359.881,-86.8292,-2532.43,10009.0,-624.37,-7.81013,6.37299,-57.4773,-3325.33,11106.6,1731.27,22.0658,-43.7053,-335.229,2187.56,9761.83,-275.261,40.3794,-12.7375,-76.6272,-5614.0,-5260.73,-145.916,-16.674,98.2707,-139.082,7328.69,476.889,855.858,-19.6677,29.6701,-6.52021
2.7445,4246.26,1218.29,8949.76,8.50705,-24.2335,-1.31496,7685.34,2396.76,10480.0,3.43558,359.724,-88.0206,-2553.46,10016.0,-606.049,-7.79285,6.21313,-57.7472,-3337.41,11160.5,1739.37,22.1724,-45.244,-335.541,2197.72,9831.11,-216.299,40.4562,-12.7729,-76.3483,-5662.35,-5255.23,-174.524,-16.4782,98.4371,-138.886,7332.62,501.361,847.618,-19.777,29.7779,-6.19181
2.745,4269.47,1248.09,8940.73,8.34007,-24.3991,-1.3158,7726.08,2363.88,10539.1,2.78726,359.566,-89.2121,-2574.49,10023.0,-587.728,-7.77557,6.05327,-58.0171,-3349.49,11214.5,1747.48,22.2789,-46.7827,-335.854,2207.88,9900.38,-157.336,40.5329,-12.8083,-76.0693,-5710.69,-5249.73,-203.132,-16.2824,98.6034,-138.689,7336.55,525.832,839.378,-19.8863,29.8858,-5.86342
2.7455,4292.67,1277.9,8931.71,8.17309,-24.5647,-1.31664,7766.81,2331.01,10598.3,2.13895,359.409,-90.4035,-2595.53,10030.0,-569.407,-7.75829,5.89341,-58.287,-3361.57,11268.5,1755.58,22.3855,-48.3214,-336.167,2218.04,9969.66,-98.3739,40.6097,-12.8437,-75.7903,-5759.04,-5244.23,-231.74,-16.0866,98.7697,-138.493,7340.48,550.304,831.138,-19.9955,29.9937,-5.53503
2.746,4315.88,1307.71,8922.68,8.00611,-24.7303,-1.31748,7807.55,2298.13,10657.4,1.49063,359.252,-91.5949,-2616.56,10037.0,-551.086,-7.74101,5.73355,-58.5569,-3373.65,11322.5,1763.69,22.492,-49.8601,-336.479,2228.2,10038.9,-39.4114,40.6865,-12.8791,-75.5113,-5807.38,-5238.74,-260.348,-15.8908,98.9361,-138.297,7344.4,574.775,822.899,-20.1048,30.1015,-5.20663
2.7465,4339.09,1337.51,8913.66,7.83913,-24.8959,-1.31831,7848.28,2265.25,10716.6,0.842315,359.094,-92.7863,-2637.59,10044.0,-532.765,-7.72373,5.57369,-58.8268,-3385.72,11376.5,1771.79,22.5986,-51.3988,-336.792,2238.35,10108.2,19.5511,40.7633,-12.9145,-75.2324,-5855.72,-5233.24,-288.955,-15.6951,99.1024,-138.101,7348.33,599.247,814.659,-20.2141,30.2094,-4.87824
2.747,4344.22,1367.38,8908.06,7.6984,-25.058,-1.26578,7888.57,2217.27,10771.6,0.338205,359.04,-94.0067,-2651.52,10041.1,-508.438,-7.67197,5.28999,-59.1083,-3379.8,11430.3,1767.48,22.7361,-52.9165,-337.134,2258.3,10162.4,29.3276,40.5756,-12.9464,-74.9929,-5908.22,-5233.97,-321.584,-15.4331,98.8996,-137.876,7356.89,615.866,806.138,-20.2966,30.3206,-4.71293
2.7475,4340.32,1397.27,8904.17,7.5708,-25.2184,-1.18656,7928.62,2161.74,10824.6,-0.0938013,359.038,-95.2417,-2661.89,10033.4,-481.107,-7.60299,4.94438,-59.3957,-3364.88,11484.2,1756.95,22.8892,-54.4237,-337.491,2283.14,10209.0,14.5113,40.2556,-12.9765,-74.7733,-5962.79,-5237.82,-356.223,-15.1381,98.5121,-137.636,7367.75,628.559,797.476,-20.3659,30.4335,-4.62916
2.748,4336.42,1427.17,8900.29,7.44319,-25.3788,-1.10734,7968.67,2106.21,10877.6,-0.525808,359.035,-96.4767,-2672.26,10025.6,-453.776,-7.534,4.59877,-59.6831,-3349.96,11538.0,1746.43,23.0422,-55.9309,-337.848,2307.98,10255.6,-0.305128,39.9357,-13.0066,-74.5536,-6017.36,-5241.67,-390.863,-14.843,98.1246,-137.397,7378.62,641.252,788.814,-20.4351,30.5463,-4.54539
2.7485,4332.52,1457.06,8896.4,7.31559,-25.5392,-1.02813,8008.73,2050.68,10930.7,-0.957814,359.033,-97.7117,-2682.63,10017.8,-426.445,-7.46501,4.25315,-59.9705,-3335.04,11591.9,1735.9,23.1953,-57.438,-338.206,2332.81,10302.2,-15.1215,39.6158,-13.0367,-74.334,-6071.93,-5245.52,-425.502,-14.548,97.7371,-137.158,7389.48,653.945,780.152,-20.5043,30.6592,-4.46162
2.749,4328.62,1486.96,8892.52,7.18799,-25.6995,-0.948907,8048.78,1995.15,10983.7,-1.38982,359.03,-98.9467,-2693.0,10010.0,-399.114,-7.39603,3.90754,-60.2579,-3320.12,11645.7,1725.38,23.3484,-58.9452,-338.563,2357.65,10348.8,-29.9379,39.2959,-13.0668,-74.1144,-6126.49,-5249.38,-460.141,-14.253,97.3496,-136.918,7400.34,666.638,771.49,-20.5736,30.772,-4.37785
2.7495,4324.72,1516.85,8888.63,7.06038,-25.8599,-0.869688,8088.84,1939.61,11036.7,-1.82183,359.027,-100.182,-2703.37,10002.2,-371.783,-7.32704,3.56192,-60.5453,-3305.21,11699.5,1714.86,23.5014,-60.4524,-338.92,2382.49,10395.4,-44.7543,38.9759,-13.0969,-73.8947,-6181.06,-5253.23,-494.78,-13.9579,96.9621,-136.679,7411.21,679.331,762.828,-20.6428,30.8849,-4.29408
2.75,4320.82,1546.75,8884.75,6.93278,-26.0203,-0.79047,8128.89,1884.08,11089.7,-2.25383,359.025,-101.417,-2713.74,9994.44,-344.452,-7.25805,3.21631,-60.8327,-3290.29,11753.4,1704.33,23.6545,-61.9596,-339.277,2407.33,10442.0,-59.5707,38.656,-13.1271,-73.6751,-6235.63,-5257.08,-529.419,-13.6629,96.5746,-136.44,7422.07,692.024,754.167,-20.712,30.9978,-4.21031
2.7505,4316.92,1576.64,8880.86,6.80518,-26.1806,-0.711251,8168.95,1828.55,11142.7,-2.68584,359.022,-102.652,-2724.12,9986.65,-317.121,-7.18906,2.87069,-61.1201,-3275.37,11807.2,1693.81,23.8076,-63.4668,-339.634,2432.17,10488.6,-74.387,38.3361,-13.1572,-73.4554,-6290.2,-5260.93,-564.059,-13.3678,96.1871,-136.2,7432.94,704.717,745.505,-20.7813,31.1106,-4.12654
2.751,4313.01,1606.54,8876.97,6.67757,-26.341,-0.632033,8209.0,1773.02,11195.7,-3.11785,359.02,-103.887,-2734.49,9978.87,-289.79,-7.12008,2.52508,-61.4074,-3260.45,11861.0,1683.28,23.9607,-64.974,-339.991,2457.01,10535.2,-89.2034,38.0162,-13.1873,-73.2358,-6344.77,-5264.78,-598.698,-13.0728,95.7996,-135.961,7443.8,717.41,736.843,-20.8505,31.2235,-4.04277
2.7515,4296.08,1628.75,8880.04,6.59259,-26.5687,-0.54238,8263.57,1753.31,11240.3,-3.3914,358.927,-104.962,-2742.01,9974.19,-253.775,-7.05979,2.15131,-61.6892,-3228.48,11927.0,1668.89,24.1708,-66.3648,-340.362,2488.7,10571.6,-88.5972,37.8142,-13.3978,-73.0117,-6399.66,-5280.23,-637.545,-12.8188,94.8719,-135.67,7450.42,743.118,726.482,-20.796,31.2849,-3.97524
2.752,4275.42,1648.76,8885.09,6.51979,-26.8157,-0.449746,8322.3,1743.84,11282.5,-3.61967,358.807,-105.991,-2748.73,9970.41,-215.278,-7.00199,1.7695,-61.9693,-3191.65,11996.4,1653.4,24.3972,-67.7224,-340.737,2522.35,10605.0,-83.5845,37.6458,-13.6598,-72.7863,-6454.64,-5298.99,-677.596,-12.5765,93.7898,-135.365,7455.82,772.545,715.636,-20.7062,31.3317,-3.91235
2.7525,4254.75,1668.77,8890.14,6.44699,-27.0627,-0.357112,8381.02,1734.37,11324.6,-3.84795,358.688,-107.02,-2755.45,9966.62,-176.782,-6.94419,1.38769,-62.2494,-3154.82,12065.8,1637.9,24.6237,-69.0799,-341.111,2556.01,10638.5,-78.5718,37.4775,-13.9219,-72.5609,-6509.63,-5317.76,-717.646,-12.3342,92.7078,-135.06,7461.22,801.972,704.79,-20.6163,31.3784,-3.84946
2.753,4234.09,1688.79,8895.19,6.37419,-27.3097,-0.264478,8439.74,1724.9,11366.8,-4.07623,358.569,-108.049,-2762.16,9962.83,-138.286,-6.88639,1.00588,-62.5295,-3117.98,12135.1,1622.41,24.8501,-70.4375,-341.486,2589.66,10671.9,-73.5591,37.3092,-14.1839,-72.3355,-6564.61,-5336.52,-757.696,-12.0919,91.6257,-134.754,7466.63,831.399,693.944,-20.5265,31.4252,-3.78656
2.7535,4213.43,1708.8,8900.24,6.30139,-27.5566,-0.171844,8498.47,1715.43,11409.0,-4.30451,358.45,-109.079,-2768.88,9959.05,-99.7892,-6.82859,0.624073,-62.8096,-3081.15,12204.5,1606.91,25.0765,-71.795,-341.861,2623.31,10705.4,-68.5464,37.1409,-14.4459,-72.1101,-6619.59,-5355.29,-797.746,-11.8497,90.5436,-134.449,7472.03,860.826,683.097,-20.4367,31.4719,-3.72367
2.754,4192.77,1728.81,8905.29,6.22859,-27.8036,-0.0792098,8557.19,1705.97,11451.2,-4.53278,358.33,-110.108,-2775.6,9955.26,-61.2928,-6.77079,0.242263,-63.0897,-3044.32,12273.9,1591.42,25.303,-73.1526,-342.236,2656.97,10738.8,-63.5337,36.9726,-14.708,-71.8847,-6674.57,-5374.05,-837.796,-11.6074,89.4615,-134.143,7477.44,890.252,672.251,-20.3468,31.5187,-3.66078
2.7545,4172.11,1748.83,8910.35,6.15579,-28.0506,0.0134242,8615.91,1696.5,11493.4,-4.76106,358.211,-111.137,-2782.31,9951.48,-22.7964,-6.71299,-0.139547,-63.3698,-3007.48,12343.3,1575.93,25.5294,-74.5101,-342.611,2690.62,10772.2,-58.521,36.8043,-14.97,-71.6593,-6729.56,-5392.81,-877.846,-11.3651,88.3795,-133.838,7482.84,919.679,661.405,-20.257,31.5654,-3.59788
2.755,4151.45,1768.84,8915.4,6.08298,-28.2976,0.106058,8674.64,1687.03,11535.6,-4.98934,358.092,-112.166,-2789.03,9947.69,15.7,-6.65519,-0.521357,-63.6498,-2970.65,12412.7,1560.43,25.7558,-75.8677,-342.985,2724.27,10805.7,-53.5082,36.636,-15.2321,-71.4339,-6784.54,-5411.58,-917.896,-11.1228,87.2974,-133.533,7488.24,949.106,650.559,-20.1672,31.6122,-3.53499
2.7555,4130.79,1788.85,8920.45,6.01018,-28.5445,0.198692,8733.36,1677.56,11577.8,-5.21761,357.972,-113.195,-2795.74,9943.9,54.1964,-6.59739,-0.903167,-63.9299,-2933.81,12482.1,1544.94,25.9823,-77.2252,-343.36,2757.92,10839.1,-48.4955,36.4676,-15.4941,-71.2085,-6839.52,-5430.34,-957.946,-10.8805,86.2153,-133.227,7493.65,978.533,639.713,-20.0773,31.6589,-3.4721
2.756,4110.78,1833.47,8955.4,5.79668,-28.8869,0.322955,8777.29,1628.61,11647.0,-5.42554,358.013,-114.357,-2793.6,9972.8,88.2457,-6.62014,-1.18249,-64.2687,-2888.93,12543.2,1492.61,26.122,-78.1927,-343.779,2778.15,10845.2,18.0166,36.1127,-16.0954,-70.92,-6891.78,-5450.05,-1014.32,-10.8635,84.9253,-132.709,7505.38,1003.29,646.004,-20.262,31.6279,-3.3286
2.7565,4090.84,1881.16,8994.08,5.56558,-29.2412,0.451171,8819.36,1574.72,11719.6,-5.63093,358.074,-115.536,-2790.34,10005.8,121.739,-6.65296,-1.44901,-64.6147,-2843.05,12603.3,1435.68,26.251,-79.1113,-344.202,2796.71,10847.8,92.2162,35.7344,-16.7391,-70.6237,-6943.69,-5469.88,-1072.74,-10.8747,83.6093,-132.165,7517.92,1027.46,654.438,-20.4809,31.5872,-3.17502
2.757,4070.91,1928.85,9032.77,5.33449,-29.5955,0.579387,8861.44,1520.83,11792.2,-5.83632,358.135,-116.714,-2787.08,10038.8,155.232,-6.68578,-1.71552,-64.9607,-2797.16,12663.4,1378.75,26.3799,-80.03,-344.626,2815.26,10850.5,166.416,35.3562,-17.3829,-70.3274,-6995.6,-5489.7,-1131.15,-10.8858,82.2933,-131.62,7530.45,1051.64,662.871,-20.6998,31.5465,-3.02144
2.7575,4050.98,1976.55,9071.46,5.1034,-29.9498,0.707603,8903.51,1466.94,11864.7,-6.0417,358.197,-117.893,-2783.82,10071.7,188.726,-6.7186,-1.98204,-65.3068,-2751.27,12723.5,1321.82,26.5088,-80.9487,-345.05,2833.81,10853.1,240.615,34.9779,-18.0266,-70.031,-7047.51,-5509.53,-1189.57,-10.897,80.9774,-131.076,7542.98,1075.81,671.305,-20.9187,31.5058,-2.86786
2.758,4031.05,2024.24,9110.15,4.87231,-30.304,0.835819,8945.59,1413.06,11937.3,-6.24709,358.258,-119.071,-2780.57,10104.7,222.219,-6.75142,-2.24855,-65.6528,-2705.39,12783.5,1264.89,26.6378,-81.8674,-345.474,2852.36,10855.7,314.815,34.5996,-18.6703,-69.7347,-7099.42,-5529.36,-1247.98,-10.9081,79.6614,-130.531,7555.51,1099.98,679.738,-21.1377,31.4651,-2.71428
2.7585,4011.12,2071.93,9148.83,4.64121,-30.6583,0.964035,8987.67,1359.17,12009.9,-6.45248,358.319,-120.25,-2777.31,10137.7,255.713,-6.78424,-2.51507,-65.9989,-2659.5,12843.6,1207.96,26.7667,-82.786,-345.898,2870.91,10858.4,389.014,34.2214,-19.3141,-69.4383,-7151.34,-5549.18,-1306.4,-10.9193,78.3454,-129.986,7568.04,1124.15,688.172,-21.3566,31.4244,-2.5607
2.759,3991.19,2119.62,9187.52,4.41012,-31.0126,1.09225,9029.74,1305.28,12082.5,-6.65786,358.38,-121.429,-2774.05,10170.7,289.206,-6.81706,-2.78158,-66.3449,-2613.61,12903.7,1151.03,26.8957,-83.7047,-346.322,2889.46,10861.0,463.214,33.8431,-19.9578,-69.142,-7203.25,-5569.01,-1364.81,-10.9304,77.0294,-129.442,7580.57,1148.33,696.605,-21.5755,31.3837,-2.40713
2.7595,3971.26,2167.32,9226.21,4.17903,-31.3669,1.22047,9071.82,1251.39,12155.1,-6.86325,358.441,-122.607,-2770.8,10203.7,322.699,-6.84988,-3.0481,-66.691,-2567.73,12963.8,1094.1,27.0246,-84.6234,-346.745,2908.02,10863.6,537.414,33.4648,-20.6015,-68.8456,-7255.16,-5588.84,-1423.23,-10.9416,75.7134,-128.897,7593.1,1172.5,705.039,-21.7944,31.3429,-2.25355
2.76,3951.33,2215.01,9264.9,3.94793,-31.7212,1.34868,9113.9,1197.51,12227.7,-7.06864,358.502,-123.786,-2767.54,10236.6,356.193,-6.8827,-3.31461,-67.037,-2521.84,13023.9,1037.17,27.1535,-85.5421,-347.169,2926.57,10866.3,611.613,33.0866,-21.2453,-68.5493,-7307.07,-5608.66,-1481.64,-10.9527,74.3974,-128.353,7605.63,1196.67,713.472,-22.0134,31.3022,-2.09997
2.7605,3929.05,2270.43,9296.21,3.60726,-32.112,1.65747,9162.37,1154.58,12293.4,-6.84423,358.527,-124.808,-2748.59,10272.0,392.327,-6.91348,-3.59931,-67.355,-2460.27,13099.2,1001.25,27.2391,-86.122,-347.632,2950.56,10848.1,566.896,32.9302,-21.8047,-68.1688,-7337.77,-5607.94,-1571.21,-11.2539,74.0842,-127.54,7609.64,1231.08,715.463,-22.3055,31.1877,-2.00365
2.761,3906.78,2325.86,9327.53,3.26659,-32.5028,1.96625,9210.85,1111.66,12359.1,-6.61983,358.552,-125.83,-2729.64,10307.4,428.461,-6.94427,-3.88401,-67.6731,-2398.71,13174.5,965.343,27.3247,-86.702,-348.095,2974.56,10830.0,522.179,32.7738,-22.3642,-67.7883,-7368.47,-5607.21,-1660.77,-11.555,73.7711,-126.727,7613.64,1265.48,717.454,-22.5976,31.0732,-1.90733
2.7615,3884.51,2381.28,9358.85,2.92592,-32.8935,2.27503,9259.33,1068.74,12424.9,-6.39543,358.577,-126.852,-2710.7,10342.8,464.594,-6.97505,-4.16871,-67.9911,-2337.14,13249.9,929.431,27.4103,-87.282,-348.557,2998.56,10811.9,477.461,32.6174,-22.9237,-67.4078,-7399.17,-5606.48,-1750.34,-11.8562,73.4579,-125.914,7617.64,1299.89,719.444,-22.8898,30.9586,-1.81101
2.762,3862.24,2436.71,9390.17,2.58525,-33.2843,2.58381,9307.81,1025.82,12490.6,-6.17102,358.602,-127.874,-2691.75,10378.2,500.728,-7.00583,-4.45341,-68.3092,-2275.57,13325.2,893.52,27.4959,-87.862,-349.02,3022.55,10793.7,432.744,32.461,-23.4832,-67.0273,-7429.87,-5605.75,-1839.9,-12.1573,73.1447,-125.101,7621.64,1334.29,721.435,-23.1819,30.8441,-1.71469
2.7625,3839.96,2492.13,9421.49,2.24458,-33.6751,2.8926,9356.29,982.895,12556.3,-5.94662,358.628,-128.896,-2672.8,10413.6,536.862,-7.03662,-4.73811,-68.6272,-2214.01,13400.5,857.608,27.5815,-88.442,-349.483,3046.55,10775.6,388.027,32.3046,-24.0426,-66.6468,-7460.57,-5605.02,-1929.46,-12.4585,72.8315,-124.289,7625.64,1368.69,723.426,-23.474,30.7296,-1.61837
2.763,3817.69,2547.56,9452.81,1.90391,-34.0659,3.20138,9404.76,939.973,12622.1,-5.72222,358.653,-129.918,-2653.86,10448.9,572.996,-7.0674,-5.02281,-68.9453,-2152.44,13475.8,821.696,27.6671,-89.022,-349.945,3070.55,10757.5,343.309,32.1483,-24.6021,-66.2663,-7491.27,-5604.29,-2019.03,-12.7596,72.5183,-123.476,7629.64,1403.1,725.416,-23.7662,30.6151,-1.52205
2.7635,3795.42,2602.99,9484.12,1.56323,-34.4567,3.51016,9453.24,897.05,12687.8,-5.49781,358.678,-130.94,-2634.91,10484.3,609.13,-7.09818,-5.30751,-69.2633,-2090.87,13551.2,785.785,27.7527,-89.602,-350.408,3094.54,10739.3,298.592,31.9919,-25.1616,-65.8857,-7521.97,-5603.57,-2108.59,-13.0608,72.2051,-122.663,7633.64,1437.5,727.407,-24.0583,30.5005,-1.42573
2.764,3773.15,2658.41,9515.44,1.22256,-34.8475,3.81894,9501.72,854.128,12753.6,-5.27341,358.703,-131.963,-2615.96,10519.7,645.264,-7.12897,-5.59221,-69.5814,-2029.31,13626.5,749.873,27.8383,-90.182,-350.871,3118.54,10721.2,253.875,31.8355,-25.7211,-65.5052,-7552.67,-5602.84,-2198.16,-13.3619,71.8919,-121.85,7637.64,1471.91,729.398,-24.3504,30.386,-1.3294
2.7645,3751.18,2708.85,9543.99,0.900387,-35.2442,4.13945,9550.5,810.076,12816.6,-5.02458,358.722,-132.945,-2597.11,10554.7,679.607,-7.1599,-5.87663,-69.8885,-1966.53,13702.2,714.212,27.9022,-90.715,-351.335,3143.19,10698.3,208.515,31.676,-26.2169,-65.1505,-7581.15,-5600.24,-2279.62,-13.6633,71.748,-120.997,7642.12,1505.29,732.018,-24.629,30.2514,-1.23895
2.765,3731.66,2719.44,9550.39,0.726177,-35.6886,4.55377,9601.75,756.978,12858.1,-4.58036,358.692,-133.608,-2579.03,10586.3,699.621,-7.19202,-6.15877,-70.1077,-1894.07,13780.4,680.551,27.7919,-90.8723,-351.81,3173.08,10637.4,158.02,31.4912,-26.2034,-65.0017,-7591.93,-5582.67,-2296.25,-13.9658,72.958,-119.824,7650.42,1530.51,739.671,-24.7994,29.9562,-1.19547
2.7655,3712.15,2730.02,9556.8,0.551967,-36.1331,4.96808,9653.0,703.88,12899.6,-4.13614,358.662,-134.27,-2560.96,10617.9,719.635,-7.22414,-6.44092,-70.3269,-1821.61,13858.7,646.89,27.6817,-91.0297,-352.284,3202.98,10576.5,107.524,31.3065,-26.19,-64.8528,-7602.72,-5565.1,-2312.89,-14.2684,74.168,-118.651,7658.73,1555.74,747.324,-24.9698,29.661,-1.15198
2.766,3692.63,2740.6,9563.2,0.377758,-36.5775,5.38239,9704.24,650.783,12941.1,-3.69192,358.632,-134.933,-2542.88,10649.6,739.65,-7.25626,-6.72306,-70.5461,-1749.15,13936.9,613.23,27.5715,-91.187,-352.759,3232.87,10515.6,57.0289,31.1218,-26.1765,-64.704,-7613.5,-5547.53,-2329.52,-14.571,75.378,-117.477,7667.03,1580.96,754.978,-25.1402,29.3658,-1.1085
2.7665,3673.12,2751.19,9569.6,0.203548,-37.022,5.79671,9755.49,597.685,12982.7,-3.24771,358.602,-135.596,-2524.8,10681.2,759.664,-7.28838,-7.0052,-70.7653,-1676.69,14015.2,579.569,27.4612,-91.3443,-353.233,3262.76,10454.8,6.53343,30.937,-26.163,-64.5552,-7624.28,-5529.96,-2346.15,-14.8736,76.588,-116.304,7675.33,1606.18,762.631,-25.3106,29.0706,-1.06501
2.767,3653.6,2761.77,9576.0,0.0293379,-37.4664,6.21102,9806.74,544.588,13024.2,-2.80349,358.572,-136.259,-2506.72,10712.8,779.678,-7.32049,-7.28735,-70.9846,-1604.23,14093.5,545.909,27.351,-91.5017,-353.708,3292.66,10393.9,-43.9621,30.7523,-26.1496,-64.4064,-7635.07,-5512.4,-2362.79,-15.1762,77.798,-115.131,7683.63,1631.41,770.284,-25.4811,28.7754,-1.02153
2.7675,3634.09,2772.35,9582.41,-0.144872,-37.9109,6.62533,9857.98,491.49,13065.7,-2.35927,358.542,-136.922,-2488.64,10744.5,799.693,-7.35261,-7.56949,-71.2038,-1531.77,14171.7,512.248,27.2408,-91.659,-354.183,3322.55,10333.0,-94.4575,30.5676,-26.1361,-64.2576,-7645.85,-5494.83,-2379.42,-15.4788,79.008,-113.957,7691.93,1656.63,777.938,-25.6515,28.4802,-0.978043
2.768,3614.57,2782.94,9588.81,-0.319082,-38.3553,7.03965,9909.23,438.392,13107.2,-1.91505,358.512,-137.584,-2470.56,10776.1,819.707,-7.38473,-7.85164,-71.423,-1459.31,14250.0,478.588,27.1305,-91.8163,-354.657,3352.44,10272.1,-144.953,30.3828,-26.1226,-64.1087,-7656.63,-5477.26,-2396.06,-15.7814,80.218,-112.784,7700.24,1681.85,785.591,-25.8219,28.185,-0.934558
2.7685,3595.06,2793.52,9595.21,-0.493292,-38.7998,7.45396,9960.48,385.295,13148.7,-1.47083,358.483,-138.247,-2452.48,10807.7,839.721,-7.41685,-8.13378,-71.6422,-1386.85,14328.2,444.927,27.0203,-91.9737,-355.132,3382.34,10211.2,-195.449,30.1981,-26.1092,-63.9599,-7667.41,-5459.69,-2412.69,-16.084,81.428,-111.611,7708.54,1707.08,793.245,-25.9923,27.8898,-0.891073
2.769,3578.95,2798.67,9600.35,-0.652828,-39.2608,7.86473,10012.1,337.628,13184.9,-0.968586,358.442,-138.845,-2437.26,10839.1,858.999,-7.46945,-8.40324,-71.8856,-1316.0,14410.5,408.233,26.9304,-92.038,-355.602,3405.52,10154.0,-227.249,30.0298,-26.1091,-63.7988,-7669.77,-5453.39,-2398.62,-16.2833,82.6814,-110.429,7717.16,1734.74,799.663,-26.1836,27.5933,-0.851107
2.7695,3574.77,2784.79,9601.07,-0.761009,-39.7798,8.26311,10064.8,308.969,13202.5,-0.263256,358.362,-139.216,-2432.05,10869.3,875.698,-7.59373,-8.62829,-72.2137,-1250.75,14506.7,360.921,26.9115,-91.7769,-356.055,3405.23,10109.6,-193.618,29.9188,-26.1561,-63.5948,-7642.62,-5486.52,-2277.07,-16.1215,84.0869,-109.22,7726.92,1770.92,801.762,-26.448,27.2924,-0.823459
2.77,3570.6,2770.92,9601.79,-0.86919,-40.2988,8.6615,10117.6,280.311,13220.2,0.442074,358.282,-139.587,-2426.84,10899.6,892.398,-7.71801,-8.85334,-72.5417,-1185.51,14602.9,313.609,26.8926,-91.5158,-356.508,3404.93,10065.3,-159.987,29.8079,-26.203,-63.3907,-7615.48,-5519.65,-2155.52,-15.9596,85.4925,-108.01,7736.67,1807.1,803.86,-26.7125,26.9914,-0.795812
2.7705,3566.42,2757.04,9602.5,-0.97737,-40.8178,9.05988,10170.4,251.652,13237.8,1.1474,358.203,-139.958,-2421.63,10929.8,909.097,-7.84229,-9.0784,-72.8697,-1120.27,14699.1,266.298,26.8738,-91.2547,-356.962,3404.64,10020.9,-126.356,29.697,-26.25,-63.1866,-7588.33,-5552.78,-2033.97,-15.7978,86.898,-106.801,7746.42,1843.28,805.958,-26.977,26.6905,-0.768164
2.771,3562.24,2743.17,9603.22,-1.08555,-41.3367,9.45826,10223.1,222.993,13255.4,1.85273,358.123,-140.328,-2416.43,10960.1,925.796,-7.96656,-9.30345,-73.1978,-1055.02,14795.3,218.986,26.8549,-90.9936,-357.415,3404.35,9976.54,-92.7256,29.5861,-26.2969,-62.9826,-7561.19,-5585.91,-1912.43,-15.6359,88.3036,-105.592,7756.17,1879.47,808.057,-27.2414,26.3895,-0.740517
2.7715,3558.06,2729.29,9603.94,-1.19373,-41.8557,9.85664,10275.9,194.334,13273.0,2.55807,358.043,-140.699,-2411.22,10990.3,942.496,-8.09084,-9.52851,-73.5258,-989.78,14891.5,171.674,26.836,-90.7325,-357.868,3404.05,9932.18,-59.0947,29.4751,-26.3439,-62.7785,-7534.05,-5619.05,-1790.88,-15.474,89.7091,-104.382,7765.93,1915.65,810.155,-27.5059,26.0886,-0.712869
2.772,3553.89,2715.42,9604.66,-1.30191,-42.3747,10.255,10328.7,165.676,13290.6,3.2634,357.964,-141.07,-2406.01,11020.6,959.195,-8.21512,-9.75356,-73.8538,-924.537,14987.7,124.362,26.8171,-90.4714,-358.322,3403.76,9887.82,-25.4638,29.3642,-26.3908,-62.5744,-7506.9,-5652.18,-1669.33,-15.3122,91.1146,-103.173,7775.68,1951.83,812.253,-27.7704,25.7876,-0.685222
2.7725,3549.71,2701.54,9605.38,-1.41009,-42.8937,10.6534,10381.4,137.017,13308.3,3.96873,357.884,-141.441,-2400.8,11050.8,975.894,-8.3394,-9.97861,-74.1819,-859.293,15083.9,77.0506,26.7983,-90.2103,-358.775,3403.46,9843.46,8.16716,29.2533,-26.4377,-62.3704,-7479.76,-5685.31,-1547.79,-15.1503,92.5202,-101.963,7785.43,1988.01,814.351,-28.0348,25.4867,-0.657574
2.773,3545.53,2687.67,9606.09,-1.51827,-43.4127,11.0518,10434.2,108.358,13325.9,4.67406,357.805,-141.812,-2395.59,11081.0,992.594,-8.46368,-10.2037,-74.5099,-794.05,15180.1,29.7388,26.7794,-89.9492,-359.228,3403.17,9799.11,41.7981,29.1423,-26.4847,-62.1663,-7452.61,-5718.44,-1426.24,-14.9885,93.9257,-100.754,7795.18,2024.2,816.45,-28.2993,25.1857,-0.629927
2.7735,3543.85,2670.68,9609.05,-1.64143,-43.9391,11.4188,10479.8,94.3208,13346.4,5.36769,357.666,-142.099,-2387.54,11106.4,999.569,-8.56709,-10.3937,-74.8342,-735.282,15268.2,-21.0563,26.7366,-89.6185,-359.62,3402.75,9750.53,85.8308,29.0867,-26.6405,-61.9309,-7405.9,-5766.51,-1270.99,-14.5155,94.7331,-99.6717,7801.19,2057.45,817.667,-28.6438,24.8745,-0.583283
2.774,3547.14,2647.46,9616.47,-1.79454,-44.4803,11.7232,10511.0,109.527,13372.5,6.03792,357.41,-142.217,-2373.79,11121.8,987.096,-8.62877,-10.5135,-75.1509,-689.464,15339.9,-78.8182,26.6458,-89.1485,-359.887,3402.06,9693.51,150.667,29.1414,-27.0142,-61.633,-7320.07,-5844.45,-1048.33,-13.4203,94.3441,-98.8436,7799.69,2084.84,817.122,-29.1483,24.5427,-0.498647
2.7745,3550.43,2624.24,9623.9,-1.94764,-45.0215,12.0275,10542.3,124.733,13398.7,6.70814,357.154,-142.336,-2360.04,11137.2,974.624,-8.69045,-10.6334,-75.4676,-643.646,15411.7,-136.58,26.555,-88.6785,-360.155,3401.37,9636.49,215.503,29.1962,-27.3879,-61.3351,-7234.23,-5922.39,-825.665,-12.3251,93.9551,-98.0155,7798.2,2112.23,816.577,-29.6529,24.211,-0.414012
2.775,3553.72,2601.02,9631.33,-2.10075,-45.5628,12.3318,10573.5,139.939,13424.9,7.37837,356.898,-142.455,-2346.3,11152.6,962.151,-8.75213,-10.7533,-75.7843,-597.829,15483.4,-194.342,26.4642,-88.2086,-360.423,3400.68,9579.46,280.34,29.251,-27.7615,-61.0372,-7148.4,-6000.33,-603.004,-11.2299,93.5662,-97.1874,7796.71,2139.61,816.032,-30.1574,23.8793,-0.329377
2.7755,3557.02,2577.8,9638.75,-2.25386,-46.104,12.6362,10604.7,155.145,13451.1,8.0486,356.642,-142.573,-2332.55,11168.0,949.679,-8.81381,-10.8732,-76.101,-552.011,15555.2,-252.104,26.3734,-87.7386,-360.69,3399.99,9522.44,345.176,29.3058,-28.1352,-60.7392,-7062.57,-6078.27,-380.343,-10.1347,93.1772,-96.3593,7795.21,2167.0,815.487,-30.6619,23.5476,-0.244741
2.776,3560.31,2554.58,9646.18,-2.40696,-46.6452,12.9405,10635.9,170.351,13477.2,8.71883,356.386,-142.692,-2318.8,11183.4,937.206,-8.87549,-10.9931,-76.4177,-506.194,15627.0,-309.866,26.2826,-87.2687,-360.958,3399.3,9465.42,410.012,29.3606,-28.5088,-60.4413,-6976.73,-6156.2,-157.682,-9.0395,92.7882,-95.5312,7793.72,2194.39,814.941,-31.1664,23.2158,-0.160106
2.7765,3563.6,2531.36,9653.61,-2.56007,-47.1864,13.2449,10667.2,185.557,13503.4,9.38906,356.13,-142.811,-2305.05,11198.8,924.733,-8.93717,-11.1129,-76.7344,-460.376,15698.7,-367.627,26.1917,-86.7987,-361.225,3398.61,9408.4,474.848,29.4153,-28.8825,-60.1434,-6890.9,-6234.14,64.9787,-7.9443,92.3993,-94.7031,7792.23,2221.78,814.396,-31.671,22.8841,-0.0754701
2.777,3566.89,2508.14,9661.03,-2.71318,-47.7276,13.5492,10698.4,200.763,13529.6,10.0593,355.874,-142.929,-2291.31,11214.2,912.261,-8.99885,-11.2328,-77.0511,-414.559,15770.5,-425.389,26.1009,-86.3287,-361.493,3397.92,9351.38,539.685,29.4701,-29.2562,-59.8454,-6805.06,-6312.08,287.639,-6.8491,92.0103,-93.875,7790.74,2249.17,813.851,-32.1755,22.5524,0.00916533
2.7775,3570.19,2484.92,9668.46,-2.86628,-48.2688,13.8535,10729.6,215.968,13555.8,10.7295,355.618,-143.048,-2277.56,11229.6,899.788,-9.06053,-11.3527,-77.3678,-368.741,15842.2,-483.151,26.0101,-85.8587,-361.76,3397.23,9294.36,604.521,29.5249,-29.6298,-59.5475,-6719.23,-6390.02,510.3,-5.7539,91.6213,-93.0469,7789.24,2276.56,813.306,-32.68,22.2206,0.0938008
2.778,3573.83,2454.52,9684.46,-2.9792,-48.8099,14.1289,10773.7,239.029,13564.0,11.2626,355.243,-143.163,-2266.63,11237.3,873.891,-9.08131,-11.4544,-77.6901,-316.796,15920.3,-527.272,25.8331,-85.3211,-362.028,3395.05,9258.83,615.012,29.6547,-29.8549,-59.2504,-6620.13,-6465.86,722.231,-4.18733,90.0898,-92.3762,7791.69,2307.29,816.382,-33.2707,21.817,0.234771
2.7785,3577.9,2415.12,9711.17,-3.04187,-49.351,14.3681,10833.8,271.909,13549.8,11.6241,354.72,-143.273,-2259.2,11235.3,831.213,-9.05098,-11.5335,-78.0193,-257.192,16006.3,-554.342,25.5483,-84.6989,-362.294,3391.02,9250.14,557.573,29.8783,-29.8944,-58.9543,-6504.44,-6539.06,920.748,-2.03155,87.13,-91.9023,7799.06,2342.19,823.985,-33.969,21.3234,0.44616
2.779,3581.98,2375.73,9737.89,-3.10454,-49.892,14.6072,10893.9,304.788,13535.7,11.9856,354.197,-143.383,-2251.78,11233.3,788.536,-9.02065,-11.6126,-78.3486,-197.588,16092.4,-581.412,25.2635,-84.0767,-362.561,3387.0,9241.46,500.134,30.102,-29.9338,-58.6582,-6388.75,-6612.27,1119.27,0.124227,84.1702,-91.4284,7806.44,2377.1,831.588,-34.6673,20.8299,0.657548
2.7795,3586.05,2336.34,9764.6,-3.16722,-50.433,14.8464,10954.0,337.667,13521.5,12.3471,353.675,-143.493,-2244.36,11231.3,745.858,-8.99032,-11.6917,-78.6778,-137.984,16178.4,-608.482,24.9787,-83.4545,-362.828,3382.97,9232.78,442.695,30.3256,-29.9732,-58.3621,-6273.07,-6685.48,1317.78,2.28001,81.2105,-90.9546,7813.81,2412.0,839.19,-35.3655,20.3363,0.868937
2.78,3590.13,2296.94,9791.32,-3.22989,-50.974,15.0855,11014.1,370.547,13507.3,12.7087,353.152,-143.603,-2236.94,11229.3,703.18,-8.95999,-11.7708,-79.007,-78.3796,16264.5,-635.552,24.6938,-82.8323,-363.095,3378.94,9224.09,385.256,30.5492,-30.0126,-58.0661,-6157.38,-6758.69,1516.3,4.43579,78.2507,-90.4807,7821.18,2446.91,846.793,-36.0638,19.8428,1.08033
2.7805,3594.2,2257.55,9818.03,-3.29256,-51.5151,15.3247,11074.2,403.426,13493.1,13.0702,352.629,-143.713,-2229.52,11227.3,660.503,-8.92966,-11.8499,-79.3363,-18.7755,16350.5,-662.622,24.409,-82.2101,-363.362,3374.91,9215.41,327.817,30.7729,-30.052,-57.77,-6041.7,-6831.89,1714.82,6.59157,75.2909,-90.0068,7828.55,2481.81,854.395,-36.7621,19.3492,1.29171
2.781,3598.28,2218.16,9844.74,-3.35524,-52.0561,15.5638,11134.3,436.306,13479.0,13.4317,352.106,-143.823,-2222.09,11225.2,617.825,-8.89933,-11.929,-79.6655,40.8286,16436.5,-689.691,24.1242,-81.5879,-363.628,3370.88,9206.73,270.378,30.9965,-30.0914,-57.4739,-5926.01,-6905.1,1913.34,8.74735,72.3312,-89.5329,7835.93,2516.72,861.998,-37.4604,18.8556,1.5031
2.7815,3602.36,2178.76,9871.46,-3.41791,-52.5971,15.803,11194.4,469.185,13464.8,13.7933,351.583,-143.933,-2214.67,11223.2,575.148,-8.86899,-12.0081,-79.9947,100.433,16522.6,-716.761,23.8394,-80.9657,-363.895,3366.85,9198.04,212.939,31.2201,-30.1309,-57.1778,-5810.33,-6978.31,2111.85,10.9031,69.3714,-89.059,7843.3,2551.62,869.6,-38.1587,18.3621,1.71449
2.782,3606.43,2139.37,9898.17,-3.48059,-53.1381,16.0421,11254.5,502.064,13450.6,14.1548,351.06,-144.044,-2207.25,11221.2,532.47,-8.83866,-12.0872,-80.324,160.037,16608.6,-743.831,23.5546,-80.3435,-364.162,3362.82,9189.36,155.5,31.4437,-30.1703,-56.8817,-5694.64,-7051.52,2310.37,13.0589,66.4116,-88.5851,7850.67,2586.53,877.203,-38.857,17.8685,1.92588
2.7825,3614.65,2080.13,9911.6,-3.44971,-53.6575,16.2692,11341.8,556.426,13443.0,14.3735,350.563,-144.011,-2196.2,11217.6,478.449,-8.81987,-12.1507,-80.6766,216.274,16686.7,-774.409,23.3173,-79.7701,-364.371,3356.28,9179.38,121.389,31.5419,-30.1938,-56.6725,-5581.65,-7092.1,2432.92,15.5167,62.4947,-88.1187,7855.7,2613.01,876.013,-39.5596,17.4099,2.07603
2.783,3626.17,2005.02,9914.39,-3.344,-54.1597,16.4865,11450.7,627.974,13440.5,14.4778,350.086,-143.864,-2182.24,11212.6,415.354,-8.8103,-12.2017,-81.048,269.817,16758.6,-807.792,23.118,-79.2357,-364.535,3347.73,9168.36,105.939,31.5397,-30.2045,-56.5329,-5470.8,-7106.58,2494.69,18.2161,57.812,-87.6584,7858.86,2632.76,867.79,-40.2657,16.9792,2.17718
2.7835,3637.69,1929.91,9917.18,-3.23828,-54.6618,16.7039,11559.6,699.521,13438.1,14.5822,349.609,-143.717,-2168.28,11207.7,352.258,-8.80073,-12.2527,-81.4194,323.36,16830.4,-841.176,22.9188,-78.7013,-364.698,3339.18,9157.34,90.4903,31.5374,-30.2153,-56.3932,-5359.96,-7121.07,2556.47,20.9154,53.1293,-87.198,7862.02,2652.5,859.566,-40.9718,16.5484,2.27834
2.784,3649.22,1854.8,9919.98,-3.13257,-55.1639,16.9213,11668.6,771.069,13435.7,14.6866,349.133,-143.57,-2154.32,11202.7,289.162,-8.79116,-12.3037,-81.7907,376.902,16902.3,-874.559,22.7196,-78.1669,-364.861,3330.63,9146.32,75.0411,31.5352,-30.226,-56.2535,-5249.12,-7135.55,2618.24,23.6148,48.4467,-86.7376,7865.17,2672.25,851.342,-41.6778,16.1177,2.37949
2.7845,3660.74,1779.69,9922.77,-3.02686,-55.666,17.1386,11777.5,842.617,13433.3,14.7909,348.656,-143.423,-2140.36,11197.7,226.067,-8.7816,-12.3547,-82.1621,430.445,16974.2,-907.943,22.5203,-77.6325,-365.025,3322.08,9135.3,59.5919,31.533,-30.2368,-56.1139,-5138.28,-7150.03,2680.01,26.3142,43.764,-86.2772,7868.33,2692.0,843.119,-42.3839,15.687,2.48065
2.785,3672.27,1704.58,9925.56,-2.92115,-56.1681,17.356,11886.4,914.164,13430.9,14.8953,348.179,-143.276,-2126.4,11192.8,162.971,-8.77203,-12.4057,-82.5335,483.988,17046.0,-941.326,22.3211,-77.0981,-365.188,3313.53,9124.28,44.1426,31.5308,-30.2475,-55.9742,-5027.44,-7164.52,2741.79,29.0136,39.0813,-85.8168,7871.49,2711.74,834.895,-43.09,15.2562,2.5818
2.7855,3683.79,1629.47,9928.36,-2.81543,-56.6703,17.5734,11995.3,985.712,13428.5,14.9997,347.703,-143.129,-2112.44,11187.8,99.8757,-8.76246,-12.4567,-82.9049,537.531,17117.9,-974.71,22.1218,-76.5637,-365.351,3304.97,9113.26,28.6934,31.5286,-30.2583,-55.8345,-4916.6,-7179.0,2803.56,31.713,34.3986,-85.3564,7874.64,2731.49,826.671,-43.7961,14.8255,2.68295
2.786,3695.31,1554.36,9931.15,-2.70972,-57.1724,17.7907,12104.3,1057.26,13426.1,15.104,347.226,-142.982,-2098.48,11182.9,36.7802,-8.75289,-12.5077,-83.2763,591.074,17189.7,-1008.09,21.9226,-76.0294,-365.514,3296.42,9102.24,13.2442,31.5264,-30.269,-55.6949,-4805.76,-7193.48,2865.33,34.4123,29.716,-84.896,7877.8,2751.24,818.448,-44.5022,14.3948,2.78411
2.7865,3706.84,1479.25,9933.94,-2.60401,-57.6745,18.0081,12213.2,1128.81,13423.7,15.2084,346.749,-142.835,-2084.52,11177.9,-26.3154,-8.74332,-12.5587,-83.6476,644.617,17261.6,-1041.48,21.7234,-75.495,-365.678,3287.87,9091.22,-2.20499,31.5241,-30.2798,-55.5552,-4694.92,-7207.96,2927.11,37.1117,25.0333,-84.4357,7880.96,2770.98,810.224,-45.2083,13.964,2.88526
2.787,3717.41,1411.67,9941.5,-2.48026,-58.1807,18.1127,12326.5,1180.92,13419.3,15.061,346.32,-142.626,-2073.79,11177.7,-86.8338,-8.75357,-12.5871,-83.9959,704.105,17331.7,-1079.63,21.4982,-75.0088,-365.83,3272.85,9096.29,5.71324,31.4703,-30.3286,-55.4125,-4628.25,-7189.29,2889.13,39.5882,20.0724,-83.9163,7872.19,2780.97,797.338,-45.8408,13.5238,2.99545
2.7875,3727.51,1347.87,9951.43,-2.34749,-58.6889,18.1609,12442.0,1223.31,13414.0,14.7877,345.915,-142.386,-2064.68,11179.8,-146.064,-8.77372,-12.6041,-84.3327,766.566,17400.9,-1120.17,21.2601,-74.5469,-365.977,3254.6,9109.41,25.3152,31.3905,-30.3964,-55.2681,-4583.68,-7154.05,2801.27,41.9531,14.9724,-83.3673,7857.46,2786.07,782.122,-46.4365,13.0788,3.11014
2.788,3737.6,1284.06,9961.36,-2.21472,-59.1971,18.2092,12557.6,1265.71,13408.7,14.5144,345.509,-142.146,-2055.57,11181.9,-205.293,-8.79388,-12.6211,-84.6695,829.027,17470.1,-1160.71,21.022,-74.0848,-366.124,3236.34,9122.54,44.9171,31.3108,-30.4643,-55.1238,-4539.11,-7118.8,2713.42,44.3181,9.87241,-82.8184,7842.72,2791.17,766.905,-47.0322,12.6339,3.22484
2.7885,3747.7,1220.25,9971.29,-2.08195,-59.7053,18.2574,12673.1,1308.1,13403.4,14.2411,345.104,-141.906,-2046.45,11184.1,-264.523,-8.81403,-12.6381,-85.0062,891.487,17539.3,-1201.25,20.7839,-73.6229,-366.271,3218.09,9135.66,64.5191,31.2311,-30.5322,-54.9795,-4494.53,-7083.56,2625.57,46.683,4.77241,-82.2695,7827.99,2796.27,751.688,-47.6279,12.1889,3.33953
2.789,3757.79,1156.45,9981.23,-1.94918,-60.2135,18.3056,12788.6,1350.5,13398.1,13.9678,344.699,-141.665,-2037.34,11186.2,-323.753,-8.83418,-12.6551,-85.343,953.948,17608.6,-1241.79,20.5458,-73.1609,-366.418,3199.83,9148.78,84.121,31.1514,-30.6,-54.8352,-4449.96,-7048.31,2537.71,49.048,-0.327584,-81.7206,7813.26,2801.38,736.472,-48.2237,11.7439,3.45423
2.7895,3767.89,1092.64,9991.16,-1.81642,-60.7217,18.3538,12904.1,1392.89,13392.8,13.6946,344.293,-141.425,-2028.23,11188.3,-382.983,-8.85433,-12.6721,-85.6798,1016.41,17677.8,-1282.33,20.3077,-72.6989,-366.565,3181.58,9161.9,103.723,31.0717,-30.6679,-54.6909,-4405.39,-7013.06,2449.86,51.413,-5.42758,-81.1717,7798.53,2806.48,721.255,-48.8194,11.2989,3.56892
2.79,3777.98,1028.83,10001.1,-1.68365,-61.2299,18.402,13019.6,1435.28,13387.5,13.4213,343.888,-141.185,-2019.12,11190.5,-442.212,-8.87449,-12.6891,-86.0165,1078.87,17747.0,-1322.87,20.0695,-72.2369,-366.712,3163.33,9175.02,123.325,30.9919,-30.7358,-54.5466,-4360.81,-6977.82,2362.0,53.7779,-10.5276,-80.6228,7783.8,2811.58,706.038,-49.4151,10.854,3.68362
2.7905,3788.08,965.025,10011.0,-1.55088,-61.7381,18.4502,13135.2,1477.68,13382.2,13.148,343.483,-140.945,-2010.01,11192.6,-501.442,-8.89464,-12.7062,-86.3533,1141.33,17816.2,-1363.41,19.8314,-71.7749,-366.859,3145.07,9188.14,142.927,30.9122,-30.8036,-54.4022,-4316.24,-6942.57,2274.15,56.1429,-15.6276,-80.0739,7769.07,2816.68,690.822,-50.0108,10.409,3.79831
2.791,3798.17,901.219,10021.0,-1.41811,-62.2463,18.4985,13250.7,1520.07,13376.8,12.8747,343.077,-140.705,-2000.9,11194.8,-560.672,-8.91479,-12.7232,-86.6901,1203.79,17885.5,-1403.95,19.5933,-71.3129,-367.006,3126.82,9201.27,162.529,30.8325,-30.8715,-54.2579,-4271.67,-6907.33,2186.3,58.5079,-20.7276,-79.525,7754.34,2821.78,675.605,-50.6065,9.96401,3.91301
2.7915,3804.5,872.242,10034.5,-1.34037,-62.8422,18.4828,13353.0,1526.87,13371.4,12.4263,342.573,-140.425,-2003.56,11196.7,-604.656,-8.96531,-12.7498,-87.0072,1272.29,17944.6,-1421.69,19.4043,-70.8216,-367.059,3102.81,9224.7,156.762,30.6189,-30.7563,-54.1386,-4268.31,-6847.49,2040.87,60.0166,-25.3966,-78.8318,7758.99,2828.36,653.901,-51.02,9.55747,3.94329
2.792,3809.75,853.217,10049.0,-1.27834,-63.4632,18.449,13451.6,1523.5,13365.9,11.9278,342.04,-140.133,-2009.58,11198.6,-644.283,-9.0245,-12.7793,-87.3186,1342.52,18000.8,-1432.91,19.2293,-70.322,-367.085,3077.16,9251.08,143.747,30.367,-30.5888,-54.0263,-4276.73,-6780.63,1878.99,61.2807,-29.9425,-78.0974,7769.17,2835.37,630.342,-51.3814,9.16191,3.94945
2.7925,3815.0,834.192,10063.6,-1.21632,-64.0842,18.4151,13550.2,1520.12,13360.5,11.4293,341.507,-139.841,-2015.6,11200.5,-683.91,-9.0837,-12.8087,-87.6301,1412.74,18057.0,-1444.13,19.0543,-69.8223,-367.111,3051.51,9277.46,130.732,30.1152,-30.4212,-53.9141,-4285.15,-6713.77,1717.12,62.5447,-34.4884,-77.363,7779.36,2842.37,606.784,-51.7429,8.76635,3.95561
2.793,3820.25,815.167,10078.1,-1.1543,-64.7052,18.3812,13648.7,1516.75,13355.0,10.9308,340.974,-139.549,-2021.63,11202.4,-723.538,-9.14289,-12.8381,-87.9416,1482.97,18113.3,-1455.36,18.8793,-69.3227,-367.137,3025.86,9303.85,117.717,29.8633,-30.2537,-53.8019,-4293.58,-6646.91,1555.24,63.8088,-39.0343,-76.6286,7789.55,2849.38,583.225,-52.1043,8.3708,3.96177
2.7935,3825.5,796.142,10092.6,-1.09228,-65.3262,18.3473,13747.3,1513.37,13349.5,10.4323,340.441,-139.257,-2027.65,11204.3,-763.165,-9.20209,-12.8675,-88.2531,1553.19,18169.5,-1466.58,18.7043,-68.8231,-367.164,3000.22,9330.23,104.701,29.6115,-30.0862,-53.6896,-4302.0,-6580.05,1393.36,65.0729,-43.5802,-75.8943,7799.74,2856.39,559.667,-52.4657,7.97524,3.96794
2.794,3830.75,777.117,10107.2,-1.03026,-65.9472,18.3135,13845.9,1510.0,13344.0,9.9338,339.908,-138.966,-2033.68,11206.2,-802.792,-9.26128,-12.897,-88.5646,1623.42,18225.7,-1477.8,18.5293,-68.3234,-367.19,2974.57,9356.61,91.6864,29.3596,-29.9187,-53.5774,-4310.42,-6513.19,1231.48,66.3369,-48.1261,-75.1599,7809.93,2863.39,536.109,-52.8271,7.57968,3.9741
2.7945,3836.0,758.091,10121.7,-0.968233,-66.5682,18.2796,13944.4,1506.63,13338.6,9.43531,339.375,-138.674,-2039.7,11208.1,-842.42,-9.32047,-12.9264,-88.876,1693.64,18282.0,-1489.03,18.3544,-67.8238,-367.216,2948.92,9382.99,78.6713,29.1078,-29.7512,-53.4651,-4318.84,-6446.33,1069.61,67.601,-52.6719,-74.4255,7820.11,2870.4,512.55,-53.1885,7.18412,3.98026
2.795,3841.25,739.066,10136.3,-0.90621,-67.1892,18.2457,14043.0,1503.25,13333.1,8.93682,338.842,-138.382,-2045.72,11210.0,-882.047,-9.37967,-12.9558,-89.1875,1763.87,18338.2,-1500.25,18.1794,-67.3241,-367.242,2923.27,9409.37,65.6562,28.8559,-29.5836,-53.3529,-4327.26,-6379.47,907.731,68.8651,-57.2178,-73.6911,7830.3,2877.4,488.992,-53.5499,6.78856,3.98642
2.7955,3846.5,720.041,10150.8,-0.844188,-67.8102,18.2119,14141.5,1499.88,13327.6,8.43833,338.309,-138.09,-2051.75,11211.9,-921.675,-9.43886,-12.9852,-89.499,1834.09,18394.4,-1511.47,18.0044,-66.8245,-367.268,2897.62,9435.75,52.641,28.6041,-29.4161,-53.2407,-4335.68,-6312.61,745.854,70.1291,-61.7637,-72.9567,7840.49,2884.41,465.434,-53.9114,6.393,3.99258
2.796,3854.72,703.644,10166.3,-0.821241,-68.4602,18.143,14239.4,1496.02,13347.5,7.93356,337.579,-137.707,-2056.86,11229.2,-960.86,-9.4284,-13.0785,-89.8593,1921.68,18464.5,-1539.1,17.8818,-66.2111,-367.243,2876.77,9477.39,49.2919,28.2232,-29.5099,-53.1251,-4393.81,-6236.97,615.327,70.0689,-65.4271,-71.922,7848.71,2876.51,435.615,-54.2287,6.05581,4.00017
2.7965,3863.31,687.576,10181.9,-0.803178,-69.1138,18.0698,14337.1,1492.11,13370.6,7.428,336.824,-137.312,-2061.86,11248.5,-999.99,-9.40923,-13.1798,-90.2256,2011.43,18536.3,-1568.78,17.7658,-65.5834,-367.211,2856.52,9520.93,47.151,27.8263,-29.6363,-53.009,-4458.16,-6160.23,488.719,69.8431,-68.9803,-70.8496,7856.68,2866.75,405.013,-54.5405,5.72592,4.00793
2.797,3871.9,671.508,10197.5,-0.785116,-69.7673,17.9966,14434.9,1488.19,13393.6,6.92244,336.07,-136.918,-2066.87,11267.7,-1039.12,-9.39006,-13.281,-90.592,2101.19,18608.0,-1598.45,17.6498,-64.9558,-367.179,2836.27,9564.47,45.0101,27.4294,-29.7627,-52.893,-4522.51,-6083.48,362.11,69.6173,-72.5334,-69.7774,7864.66,2857.0,374.411,-54.8523,5.39603,4.0157
2.7975,3880.48,655.439,10213.1,-0.767053,-70.4209,17.9234,14532.6,1484.28,13416.6,6.41688,335.316,-136.523,-2071.87,11287.0,-1078.25,-9.37089,-13.3823,-90.9584,2190.94,18679.8,-1628.13,17.5338,-64.3281,-367.148,2816.02,9608.01,42.8691,27.0324,-29.8891,-52.7769,-4586.85,-6006.74,235.502,69.3915,-76.0865,-68.705,7872.63,2847.24,343.81,-55.1641,5.06613,4.02346
2.798,3889.07,639.371,10228.7,-0.748991,-71.0745,17.8502,14630.3,1480.36,13439.7,5.91132,334.561,-136.129,-2076.87,11306.3,-1117.38,-9.35172,-13.4836,-91.3247,2280.7,18751.6,-1657.81,17.4178,-63.7005,-367.116,2795.78,9651.55,40.7282,26.6355,-30.0155,-52.6609,-4651.2,-5930.0,108.893,69.1657,-79.6396,-67.6328,7880.61,2837.49,313.208,-55.4759,4.73624,4.03123
2.7985,3897.66,623.303,10244.3,-0.730929,-71.7281,17.777,14728.1,1476.45,13462.7,5.40577,333.807,-135.734,-2081.87,11325.5,-1156.51,-9.33255,-13.5848,-91.6911,2370.45,18823.4,-1687.48,17.3018,-63.0728,-367.085,2775.53,9695.09,38.5873,26.2386,-30.1419,-52.5449,-4715.54,-5853.26,-17.7149,68.9399,-83.1927,-66.5605,7888.59,2827.73,282.606,-55.7877,4.40634,4.03899
2.799,3906.25,607.234,10259.9,-0.712866,-72.3816,17.7038,14825.8,1472.53,13485.8,4.90021,333.053,-135.339,-2086.87,11344.8,-1195.64,-9.31338,-13.6861,-92.0575,2460.21,18895.2,-1717.16,17.1859,-62.4452,-367.053,2755.28,9738.63,36.4464,25.8416,-30.2683,-52.4288,-4779.89,-5776.52,-144.323,68.7141,-86.7458,-65.4882,7896.56,2817.97,252.004,-56.0995,4.07645,4.04676
2.7995,3914.84,591.166,10275.5,-0.694804,-73.0352,17.6306,14923.6,1468.62,13508.8,4.39465,332.298,-134.945,-2091.87,11364.1,-1234.77,-9.29421,-13.7874,-92.4238,2549.96,18966.9,-1746.84,17.0699,-61.8175,-367.022,2735.03,9782.17,34.3055,25.4447,-30.3947,-52.3128,-4844.23,-5699.78,-270.932,68.4883,-90.2989,-64.4158,7904.54,2808.22,221.403,-56.4113,3.74656,4.05452
2.8,3923.42,575.098,10291.1,-0.676741,-73.6888,17.5573,15021.3,1464.7,13531.9,3.88909,331.544,-134.55,-2096.87,11383.4,-1273.9,-9.27504,-13.8886,-92.7902,2639.72,19038.7,-1776.51,16.9539,-61.1899,-366.99,2714.78,9825.71,32.1646,25.0478,-30.5211,-52.1968,-4908.58,-5623.04,-397.54,68.2625,-93.852,-63.3436,7912.51,2798.46,190.801,-56.7231,3.41666,4.06229
2.8005,3924.79,512.721,10299.3,-0.629579,-74.3009,17.3364,15097.7,1471.78,13529.6,3.29698,330.891,-133.857,-2108.72,11397.2,-1313.15,-9.23358,-14.0843,-93.1151,2722.58,19099.8,-1813.56,16.6559,-60.5661,-366.915,2718.22,9864.56,-8.97315,24.5351,-30.6848,-51.959,-5006.08,-5557.66,-494.982,66.9958,-95.8667,-62.0014,7928.02,2789.61,165.354,-57.1581,3.15048,4.11846
2.801,3926.15,450.345,10307.4,-0.582417,-74.9131,17.1155,15174.1,1478.86,13527.3,2.70487,330.239,-133.163,-2120.57,11411.0,-1352.41,-9.19212,-14.2801,-93.4399,2805.44,19160.9,-1850.61,16.358,-59.9422,-366.841,2721.65,9903.41,-50.1109,24.0224,-30.8486,-51.7213,-5103.59,-5492.28,-592.425,65.7292,-97.8815,-60.6592,7943.53,2780.76,139.907,-57.5932,2.8843,4.17464
2.8015,3927.51,387.969,10315.6,-0.535255,-75.5252,16.8946,15250.5,1485.94,13525.0,2.11277,329.587,-132.47,-2132.42,11424.9,-1391.66,-9.15066,-14.4758,-93.7648,2888.3,19222.0,-1887.66,16.06,-59.3184,-366.766,2725.08,9942.26,-91.2486,23.5098,-31.0123,-51.4836,-5201.1,-5426.9,-689.867,64.4626,-99.8962,-59.3171,7959.04,2771.92,114.46,-58.0282,2.61812,4.23082
2.802,3928.87,325.592,10323.8,-0.488093,-76.1374,16.6737,15326.9,1493.02,13522.7,1.52066,328.934,-131.777,-2144.28,11438.7,-1430.91,-9.1092,-14.6715,-94.0897,2971.17,19283.1,-1924.7,15.7621,-58.6946,-366.691,2728.52,9981.11,-132.386,22.9971,-31.176,-51.2458,-5298.6,-5361.52,-787.31,63.1959,-101.911,-57.9749,7974.55,2763.07,89.0137,-58.4633,2.35193,4.287
2.8025,3930.23,263.216,10331.9,-0.440931,-76.7495,16.4528,15403.3,1500.1,13520.4,0.928548,328.282,-131.083,-2156.13,11452.5,-1470.17,-9.06775,-14.8672,-94.4145,3054.03,19344.2,-1961.75,15.4642,-58.0708,-366.616,2731.95,10020.0,-173.524,22.4844,-31.3398,-51.0081,-5396.11,-5296.15,-884.752,61.9293,-103.926,-56.6328,7990.06,2754.22,63.5669,-58.8984,2.08575,4.34318
2.803,3931.59,200.84,10340.1,-0.393769,-77.3617,16.2318,15479.7,1507.18,13518.1,0.336439,327.629,-130.39,-2167.98,11466.4,-1509.42,-9.02629,-15.0629,-94.7394,3136.89,19405.2,-1998.8,15.1662,-57.447,-366.541,2735.38,10058.8,-214.662,21.9718,-31.5035,-50.7704,-5493.61,-5230.77,-982.195,60.6627,-105.94,-55.2906,8005.57,2745.37,38.1201,-59.3334,1.81957,4.39935
2.8035,3932.96,138.464,10348.3,-0.346607,-77.9738,16.0109,15556.1,1514.26,13515.8,-0.25567,326.977,-129.696,-2179.83,11480.2,-1548.67,-8.98483,-15.2586,-95.0643,3219.75,19466.3,-2035.84,14.8683,-56.8232,-366.466,2738.82,10097.7,-255.799,21.4591,-31.6672,-50.5326,-5591.12,-5165.39,-1079.64,59.396,-107.955,-53.9485,8021.08,2736.53,12.6733,-59.7685,1.55339,4.45553
2.804,3934.32,76.0873,10356.4,-0.299445,-78.586,15.79,15632.5,1521.34,13513.4,-0.847779,326.325,-129.003,-2191.68,11494.0,-1587.93,-8.94337,-15.4544,-95.3892,3302.61,19527.4,-2072.89,14.5703,-56.1994,-366.392,2742.25,10136.5,-296.937,20.9464,-31.831,-50.2949,-5688.63,-5100.01,-1177.08,58.1294,-109.97,-52.6063,8036.59,2727.68,-12.7735,-60.2035,1.2872,4.51171
2.8045,3935.37,16.5586,10363.8,-0.247597,-79.2016,15.5615,15709.6,1533.59,13512.6,-1.46484,325.67,-128.284,-2204.17,11505.8,-1626.45,-8.89612,-15.657,-95.7151,3385.6,19589.2,-2107.02,14.266,-55.5862,-366.312,2743.29,10175.1,-334.025,20.4442,-31.9895,-50.0489,-5785.16,-5038.46,-1275.72,56.8025,-111.727,-51.2337,8052.74,2719.4,-36.6556,-60.6458,1.02573,4.56465
2.805,3933.96,-20.1887,10364.6,-0.158259,-79.8447,15.2718,15792.5,1587.23,13523.0,-2.28156,324.997,-127.361,-2221.77,11501.3,-1659.18,-8.80258,-15.9147,-96.0496,3469.6,19657.1,-2117.79,13.9105,-55.058,-366.194,2725.15,10211.8,-338.712,20.0252,-32.1069,-49.7372,-5873.88,-5007.52,-1383.93,54.9932,-111.428,-49.6172,8074.0,2715.69,-48.0196,-61.1457,0.801917,4.59173
2.8055,3932.55,-56.9361,10365.4,-0.0689207,-80.4879,14.9821,15875.3,1640.87,13533.5,-3.09827,324.324,-126.439,-2239.36,11496.8,-1691.91,-8.70904,-16.1725,-96.3842,3553.61,19725.0,-2128.56,13.555,-54.5297,-366.077,2707.02,10248.5,-343.4,19.6061,-32.2243,-49.4255,-5962.6,-4976.57,-1492.15,53.184,-111.129,-48.0008,8095.27,2711.98,-59.3837,-61.6455,0.578106,4.6188
2.806,3931.13,-93.6834,10366.1,0.0204173,-81.1311,14.6925,15958.1,1694.51,13543.9,-3.91498,323.652,-125.516,-2256.96,11492.3,-1724.64,-8.6155,-16.4302,-96.7187,3637.61,19792.9,-2139.33,13.1996,-54.0015,-365.959,2688.89,10285.2,-348.087,19.1871,-32.3417,-49.1137,-6051.32,-4945.62,-1600.36,51.3748,-110.83,-46.3844,8116.53,2708.26,-70.7477,-62.1454,0.354294,4.64587
2.8065,3929.72,-130.431,10366.9,0.109755,-81.7743,14.4028,16041.0,1748.15,13554.4,-4.7317,322.979,-124.594,-2274.55,11487.8,-1757.37,-8.52197,-16.6879,-97.0533,3721.62,19860.8,-2150.1,12.8441,-53.4733,-365.841,2670.76,10321.8,-352.775,18.768,-32.4591,-48.802,-6140.04,-4914.68,-1708.58,49.5656,-110.531,-44.7679,8137.79,2704.55,-82.1117,-62.6453,0.130483,4.67295
2.807,3928.31,-167.178,10367.7,0.199093,-82.4174,14.1132,16123.8,1801.79,13564.9,-5.54841,322.306,-123.671,-2292.15,11483.2,-1790.09,-8.42843,-16.9457,-97.3878,3805.62,19928.6,-2160.87,12.4886,-52.9451,-365.724,2652.63,10358.5,-357.462,18.349,-32.5765,-48.4903,-6228.76,-4883.73,-1816.79,47.7563,-110.232,-43.1515,8159.06,2700.84,-93.4758,-63.1452,-0.0933286,4.70002
2.8075,3926.89,-203.926,10368.5,0.288431,-83.0606,13.8235,16206.6,1855.44,13575.3,-6.36512,321.633,-122.748,-2309.75,11478.7,-1822.82,-8.33489,-17.2034,-97.7223,3889.62,19996.5,-2171.64,12.1331,-52.4168,-365.606,2634.49,10395.2,-362.15,17.93,-32.6939,-48.1786,-6317.48,-4852.79,-1925.01,45.9471,-109.933,-41.535,8180.32,2697.13,-104.84,-63.6451,-0.31714,4.72709
2.808,3925.48,-240.673,10369.3,0.377769,-83.7038,13.5338,16289.5,1909.08,13585.8,-7.18184,320.96,-121.826,-2327.34,11474.2,-1855.55,-8.24135,-17.4611,-98.0569,3973.63,20064.4,-2182.41,11.7776,-51.8886,-365.488,2616.36,10431.9,-366.837,17.5109,-32.8113,-47.8668,-6406.2,-4821.84,-2033.22,44.1379,-109.634,-39.9186,8201.59,2693.41,-116.204,-64.1449,-0.540951,4.75417
2.8085,3924.07,-277.42,10370.1,0.467107,-84.347,13.2442,16372.3,1962.72,13596.3,-7.99855,320.288,-120.903,-2344.94,11469.7,-1888.28,-8.14781,-17.7189,-98.3914,4057.63,20132.3,-2193.18,11.4222,-51.3604,-365.371,2598.23,10468.6,-371.524,17.0919,-32.9287,-47.5551,-6494.92,-4790.9,-2141.44,42.3286,-109.335,-38.3022,8222.85,2689.7,-127.568,-64.6448,-0.764763,4.78124
2.809,3921.18,-308.985,10372.4,0.568284,-84.993,12.9449,16461.0,2004.21,13599.3,-8.81003,319.675,-119.947,-2360.74,11466.4,-1922.18,-8.05643,-17.9659,-98.7364,4134.56,20199.4,-2202.17,11.0325,-50.8485,-365.231,2578.63,10501.8,-378.238,16.7256,-33.0529,-47.2293,-6578.67,-4769.72,-2239.85,40.5427,-108.419,-36.6581,8242.42,2683.57,-139.158,-65.1406,-0.990192,4.80123
2.8095,3913.1,-322.412,10380.2,0.710894,-85.649,12.612,16569.9,2003.19,13576.2,-9.60321,319.271,-118.875,-2370.29,11467.4,-1960.2,-7.9726,-18.1755,-99.1181,4186.73,20263.7,-2204.95,10.5229,-50.3937,-365.014,2553.92,10522.9,-392.045,16.5439,-33.201,-46.8543,-6645.03,-4782.72,-2303.93,38.8381,-105.343,-34.9172,8256.05,2668.94,-151.537,-65.622,-1.22128,4.79642
2.81,3905.03,-335.839,10388.0,0.853504,-86.3051,12.2792,16678.9,2002.17,13553.1,-10.3964,318.867,-117.804,-2379.84,11468.4,-1998.22,-7.88878,-18.385,-99.4998,4238.9,20328.0,-2207.73,10.0134,-49.9389,-364.797,2529.21,10544.0,-405.851,16.3622,-33.3491,-46.4792,-6711.38,-4795.72,-2368.02,37.1335,-102.267,-33.1763,8269.68,2654.32,-163.917,-66.1035,-1.45238,4.79161
2.8105,3896.96,-349.266,10395.7,0.996115,-86.9611,11.9463,16787.9,2001.15,13530.0,-11.1896,318.463,-116.732,-2389.38,11469.4,-2036.23,-7.80496,-18.5946,-99.8814,4291.08,20392.4,-2210.5,9.5039,-49.4841,-364.58,2504.5,10565.1,-419.657,16.1805,-33.4972,-46.1042,-6777.73,-4808.73,-2432.11,35.4289,-99.1908,-31.4355,8283.32,2639.7,-176.296,-66.5849,-1.68347,4.78681
2.811,3888.88,-362.693,10403.5,1.13873,-87.6171,11.6134,16896.9,2000.13,13507.0,-11.9827,318.059,-115.66,-2398.93,11470.4,-2074.25,-7.72113,-18.8042,-100.263,4343.25,20456.7,-2213.28,8.99439,-49.0293,-364.363,2479.79,10586.2,-433.464,15.9987,-33.6453,-45.7291,-6844.09,-4821.73,-2496.19,33.7244,-96.1147,-29.6946,8296.95,2625.08,-188.676,-67.0663,-1.91456,4.782
2.8115,3880.81,-376.12,10411.3,1.28134,-88.2731,11.2805,17005.9,1999.11,13483.9,-12.7759,317.656,-114.588,-2408.47,11471.4,-2112.27,-7.63731,-19.0137,-100.645,4395.42,20521.0,-2216.06,8.48487,-48.5745,-364.146,2455.08,10607.3,-447.27,15.817,-33.7934,-45.3541,-6910.44,-4834.73,-2560.28,32.0198,-93.0386,-27.9537,8310.58,2610.46,-201.056,-67.5478,-2.14565,4.77719
2.812,3872.74,-389.547,10419.1,1.42395,-88.9292,10.9477,17114.9,1998.09,13460.8,-13.5691,317.252,-113.516,-2418.02,11472.3,-2150.29,-7.55348,-19.2233,-101.026,4447.59,20585.4,-2218.83,7.97535,-48.1197,-363.929,2430.37,10628.4,-461.077,15.6353,-33.9415,-44.979,-6976.79,-4847.73,-2624.36,30.3152,-89.9624,-26.2128,8324.21,2595.84,-213.435,-68.0292,-2.37674,4.77238
2.8125,3864.67,-402.974,10426.8,1.56656,-89.5852,10.6148,17223.9,1997.07,13437.7,-14.3623,316.848,-112.444,-2427.56,11473.3,-2188.3,-7.46966,-19.4329,-101.408,4499.76,20649.7,-2221.61,7.46584,-47.6649,-363.712,2405.66,10649.5,-474.883,15.4536,-34.0896,-44.604,-7043.15,-4860.73,-2688.45,28.6106,-86.8863,-24.472,8337.84,2581.22,-225.815,-68.5106,-2.60784,4.76757
2.813,3856.59,-416.401,10434.6,1.70917,-90.2412,10.2819,17332.8,1996.05,13414.6,-15.1554,316.444,-111.372,-2437.11,11474.3,-2226.32,-7.38583,-19.6424,-101.79,4551.94,20714.1,-2224.39,6.95632,-47.2101,-363.495,2380.95,10670.6,-488.689,15.2719,-34.2377,-44.2289,-7109.5,-4873.74,-2752.54,26.906,-83.8102,-22.7311,8351.48,2566.59,-238.194,-68.9921,-2.83893,4.76277
2.8135,3856.7,-434.741,10435.2,1.85727,-90.8738,9.94858,17442.7,1994.11,13401.6,-15.9105,316.039,-110.285,-2447.99,11474.0,-2257.37,-7.32394,-19.8263,-102.17,4609.85,20779.0,-2224.09,6.42798,-46.8119,-363.215,2351.06,10686.3,-492.565,15.1414,-34.4789,-43.864,-7165.8,-4898.86,-2788.62,25.3976,-79.95,-21.0748,8370.87,2551.29,-245.093,-69.4891,-3.06606,4.76745
2.814,3873.17,-462.906,10421.5,2.01634,-91.4596,9.6143,17554.5,1990.31,13408.6,-16.5892,315.63,-109.169,-2461.56,11471.1,-2274.48,-7.30589,-19.9588,-102.549,4679.23,20844.9,-2217.66,5.862,-46.5269,-362.811,2310.8,10691.2,-476.579,15.1132,-34.9061,-43.5191,-7202.0,-4948.23,-2768.7,24.2814,-74.5219,-19.5877,8401.8,2534.64,-241.031,-70.0175,-3.28526,4.79111
2.8145,3889.64,-491.07,10407.7,2.17542,-92.0454,9.28003,17666.3,1986.52,13415.5,-17.2679,315.222,-108.053,-2475.13,11468.2,-2291.6,-7.28786,-20.0912,-102.928,4748.61,20910.9,-2211.23,5.29603,-46.2419,-362.408,2270.55,10696.1,-460.592,15.085,-35.3333,-43.1743,-7238.19,-4997.6,-2748.78,23.1653,-69.0938,-18.1006,8432.73,2517.98,-236.968,-70.5459,-3.50447,4.81477
2.815,3906.11,-519.235,10394.0,2.33449,-92.6311,8.94576,17778.0,1982.72,13422.5,-17.9466,314.813,-106.937,-2488.69,11465.3,-2308.71,-7.26982,-20.2237,-103.306,4817.99,20976.9,-2204.79,4.73005,-45.9568,-362.004,2230.29,10701.0,-444.606,15.0568,-35.7606,-42.8294,-7274.39,-5046.97,-2728.86,22.0491,-63.6656,-16.6135,8463.66,2501.32,-232.906,-71.0742,-3.72367,4.83843
2.8155,3922.58,-547.4,10380.2,2.49357,-93.2169,8.61149,17889.8,1978.93,13429.5,-18.6253,314.405,-105.82,-2502.26,11462.4,-2325.82,-7.25178,-20.3562,-103.685,4887.37,21042.9,-2198.36,4.16407,-45.6718,-361.6,2190.04,10705.9,-428.62,15.0286,-36.1878,-42.4846,-7310.59,-5096.34,-2708.94,20.9329,-58.2375,-15.1264,8494.58,2484.67,-228.844,-71.6026,-3.94287,4.8621
2.816,3939.06,-575.565,10366.5,2.65265,-93.8027,8.27722,18001.5,1975.14,13436.5,-19.304,313.996,-104.704,-2515.82,11459.5,-2342.93,-7.23374,-20.4887,-104.063,4956.76,21108.9,-2191.93,3.59809,-45.3868,-361.196,2149.78,10710.8,-412.634,15.0004,-36.615,-42.1398,-7346.78,-5145.71,-2689.02,19.8167,-52.8093,-13.6393,8525.51,2468.01,-224.781,-72.131,-4.16208,4.88576
2.8165,3955.53,-603.73,10352.8,2.81172,-94.3884,7.94295,18113.3,1971.34,13443.5,-19.9827,313.588,-103.588,-2529.39,11456.6,-2360.05,-7.2157,-20.6212,-104.442,5026.14,21174.9,-2185.49,3.03211,-45.1018,-360.792,2109.53,10715.7,-396.648,14.9722,-37.0423,-41.7949,-7382.98,-5195.08,-2669.1,18.7006,-47.3812,-12.1522,8556.44,2451.35,-220.719,-72.6594,-4.38128,4.90942
2.817,3972.0,-631.895,10339.0,2.9708,-94.9742,7.60868,18225.0,1967.55,13450.5,-20.6614,313.179,-102.472,-2542.96,11453.7,-2377.16,-7.19766,-20.7536,-104.82,5095.52,21240.8,-2179.06,2.46614,-44.8168,-360.388,2069.27,10720.6,-380.662,14.9439,-37.4695,-41.4501,-7419.18,-5244.45,-2649.18,17.5844,-41.9531,-10.6651,8587.37,2434.7,-216.656,-73.1877,-4.60049,4.93308
2.8175,3988.47,-660.06,10325.3,3.12987,-95.56,7.27441,18336.8,1963.75,13457.5,-21.3401,312.771,-101.355,-2556.52,11450.8,-2394.27,-7.17962,-20.8861,-105.199,5164.9,21306.8,-2172.63,1.90016,-44.5318,-359.984,2029.02,10725.5,-364.675,14.9157,-37.8967,-41.1053,-7455.37,-5293.81,-2629.26,16.4682,-36.5249,-9.17798,8618.29,2418.04,-212.594,-73.7161,-4.81969,4.95675
2.818,4012.56,-666.07,10314.8,3.25803,-96.1745,6.95123,18460.8,1945.21,13458.2,-21.9736,312.387,-100.195,-2576.08,11449.1,-2395.71,-7.16789,-21.0014,-105.545,5237.81,21373.9,-2160.15,1.35207,-44.2781,-359.5,1977.85,10712.9,-325.907,14.9051,-38.5149,-40.8241,-7457.7,-5355.55,-2582.21,15.6921,-30.608,-7.97617,8644.8,2402.9,-208.967,-74.2222,-5.07665,5.00564
2.8185,4046.18,-644.386,10308.3,3.34754,-96.825,6.64192,18600.0,1908.24,13451.1,-22.5505,312.033,-98.9799,-2603.14,11448.9,-2377.55,-7.16404,-21.0952,-105.85,5315.11,21442.4,-2140.13,0.826353,-44.0636,-358.916,1913.04,10678.5,-258.662,14.9165,-39.3718,-40.6226,-7417.7,-5432.75,-2501.26,15.3408,-24.0801,-7.13096,8665.78,2389.67,-205.883,-74.7004,-5.38079,5.08606
2.819,4079.8,-622.702,10301.9,3.43705,-97.4756,6.33261,18739.2,1871.26,13443.9,-23.1273,311.679,-97.7647,-2630.21,11448.7,-2359.39,-7.1602,-21.1889,-106.155,5392.41,21510.9,-2120.11,0.300634,-43.8491,-358.331,1848.23,10644.0,-191.417,14.9279,-40.2286,-40.4211,-7377.7,-5509.95,-2420.3,14.9896,-17.5522,-6.28575,8686.77,2376.43,-202.8,-75.1786,-5.68494,5.16649
2.8195,4113.42,-601.018,10295.4,3.52656,-98.1261,6.02331,18878.5,1834.28,13436.8,-23.7042,311.324,-96.5494,-2657.27,11448.5,-2341.24,-7.15635,-21.2827,-106.46,5469.72,21579.3,-2100.09,-0.225084,-43.6345,-357.746,1783.43,10609.6,-124.172,14.9393,-41.0855,-40.2196,-7337.7,-5587.15,-2339.34,14.6384,-11.0243,-5.44055,8707.75,2363.19,-199.716,-75.6567,-5.98908,5.24692
2.82,4147.04,-579.334,10289.0,3.61607,-98.7766,5.714,19017.7,1797.31,13429.7,-24.2811,310.97,-95.3342,-2684.33,11448.3,-2323.08,-7.15251,-21.3765,-106.765,5547.02,21647.8,-2080.07,-0.750803,-43.42,-357.162,1718.62,10575.2,-56.9267,14.9507,-41.9424,-40.0181,-7297.69,-5664.35,-2258.39,14.2872,-4.49643,-4.59534,8728.73,2349.95,-196.632,-76.1349,-6.29323,5.32735
2.8205,4180.66,-557.65,10282.6,3.70558,-99.4271,5.40469,19156.9,1760.33,13422.6,-24.858,310.616,-94.1189,-2711.39,11448.2,-2304.92,-7.14867,-21.4703,-107.069,5624.33,21716.3,-2060.04,-1.27652,-43.2055,-356.577,1653.81,10540.8,10.3185,14.962,-42.7992,-39.8166,-7257.69,-5741.55,-2177.43,13.936,2.03146,-3.75014,8749.71,2336.71,-193.549,-76.6131,-6.59737,5.40777
2.821,4214.28,-535.966,10276.1,3.79509,-100.078,5.09539,19296.2,1723.35,13415.4,-25.4349,310.262,-92.9037,-2738.45,11448.0,-2286.77,-7.14482,-21.564,-107.374,5701.63,21784.8,-2040.02,-1.80224,-42.991,-355.993,1589.0,10506.4,77.5637,14.9734,-43.6561,-39.6151,-7217.69,-5818.75,-2096.47,13.5848,8.55935,-2.90493,8770.7,2323.48,-190.465,-77.0913,-6.90152,5.4882
2.8215,4247.9,-514.283,10269.7,3.8846,-100.728,4.78608,19435.4,1686.38,13408.3,-26.0117,309.908,-91.6885,-2765.51,11447.8,-2268.61,-7.14098,-21.6578,-107.679,5778.93,21853.3,-2020.0,-2.32796,-42.7765,-355.408,1524.19,10471.9,144.809,14.9848,-44.5129,-39.4136,-7177.69,-5895.94,-2015.52,13.2336,15.0872,-2.05973,8791.68,2310.24,-187.382,-77.5695,-7.20566,5.56863
2.822,4281.52,-492.599,10263.2,3.97411,-101.379,4.47677,19574.6,1649.4,13401.2,-26.5886,309.554,-90.4732,-2792.57,11447.6,-2250.45,-7.13713,-21.7516,-107.984,5856.24,21921.7,-1999.98,-2.85368,-42.5619,-354.823,1459.38,10437.5,212.054,14.9962,-45.3698,-39.2121,-7137.68,-5973.14,-1934.56,12.8824,21.6151,-1.21452,8812.66,2297.0,-184.298,-78.0477,-7.50981,5.64906
2.8225,4305.15,-450.238,10252.5,3.94966,-102.052,4.16821,19717.5,1622.64,13380.2,-27.0095,309.22,-89.2159,-2827.7,11446.8,-2217.56,-7.14215,-21.919,-108.267,5956.21,21994.8,-1990.66,-3.3853,-42.2901,-354.194,1403.09,10434.5,261.551,14.9449,-46.4907,-39.0111,-7052.98,-6050.45,-1812.67,12.8493,27.6009,-0.866431,8824.32,2278.6,-185.158,-78.4396,-7.77755,5.72349
2.823,4320.79,-391.336,10238.4,3.83404,-102.745,3.86024,19863.2,1604.04,13348.2,-27.3055,308.901,-87.9249,-2869.29,11445.3,-2172.87,-7.15426,-22.1453,-108.531,6074.33,22071.6,-1989.89,-3.92164,-41.9725,-353.529,1353.6,10456.7,296.848,14.8435,-47.8228,-38.8107,-6932.51,-6127.85,-1658.03,13.0706,33.1529,-0.91603,8828.51,2256.08,-189.172,-78.7624,-8.01616,5.79314
2.8235,4336.43,-332.433,10224.3,3.71843,-103.437,3.55227,20008.9,1585.45,13316.2,-27.6015,308.582,-86.6339,-2910.88,11443.9,-2128.19,-7.16637,-22.3715,-108.796,6192.45,22148.3,-1989.13,-4.45797,-41.6549,-352.864,1304.11,10478.8,332.146,14.7421,-49.1549,-38.6102,-6812.04,-6205.24,-1503.4,13.292,38.7048,-0.965628,8832.7,2233.56,-193.187,-79.0852,-8.25478,5.86278
2.824,4352.07,-273.531,10210.2,3.60281,-104.129,3.2443,20154.7,1566.85,13284.2,-27.8975,308.263,-85.3429,-2952.47,11442.5,-2083.5,-7.17849,-22.5978,-109.06,6310.57,22225.0,-1988.37,-4.99431,-41.3372,-352.199,1254.62,10500.9,367.444,14.6407,-50.487,-38.4098,-6691.57,-6282.64,-1348.76,13.5133,44.2568,-1.01523,8836.9,2211.04,-197.201,-79.408,-8.49339,5.93243
2.8245,4367.71,-214.629,10196.1,3.48719,-104.821,2.93633,20300.4,1548.26,13252.2,-28.1935,307.944,-84.0519,-2994.06,11441.0,-2038.82,-7.1906,-22.8241,-109.325,6428.69,22301.8,-1987.6,-5.53065,-41.0196,-351.534,1205.13,10523.1,402.742,14.5393,-51.8191,-38.2093,-6571.1,-6360.03,-1194.12,13.7347,49.8088,-1.06483,8841.09,2188.52,-201.215,-79.7309,-8.73201,6.00208
2.825,4383.35,-155.726,10182.0,3.37158,-105.513,2.62836,20446.1,1529.67,13220.2,-28.4895,307.624,-82.7609,-3035.65,11439.6,-1994.13,-7.20271,-23.0503,-109.589,6546.8,22378.5,-1986.84,-6.06699,-40.7019,-350.869,1155.64,10545.2,438.04,14.4379,-53.1512,-38.0088,-6450.63,-6437.43,-1039.49,13.956,55.3608,-1.11442,8845.28,2166.0,-205.23,-80.0537,-8.97063,6.07172
2.8255,4398.99,-96.8242,10167.9,3.25596,-106.205,2.3204,20591.8,1511.07,13188.2,-28.7855,307.305,-81.4699,-3077.24,11438.2,-1949.45,-7.21482,-23.2766,-109.854,6664.92,22455.3,-1986.08,-6.60333,-40.3843,-350.204,1106.15,10567.4,473.337,14.3365,-54.4833,-37.8084,-6330.16,-6514.82,-884.85,14.1774,60.9128,-1.16402,8849.48,2143.48,-209.244,-80.3765,-9.20924,6.14137
2.826,4414.62,-37.9219,10153.8,3.14034,-106.898,2.01243,20737.6,1492.48,13156.2,-29.0815,306.986,-80.1789,-3118.83,11436.8,-1904.76,-7.22693,-23.5029,-110.119,6783.04,22532.0,-1985.31,-7.13967,-40.0667,-349.539,1056.66,10589.5,508.635,14.2351,-55.8154,-37.6079,-6209.69,-6592.22,-730.214,14.3987,66.4648,-1.21362,8853.67,2120.95,-213.258,-80.6993,-9.44786,6.21101
2.8265,4430.26,20.9804,10139.7,3.02473,-107.59,1.70446,20883.3,1473.88,13124.2,-29.3776,306.667,-78.8879,-3160.42,11435.3,-1860.08,-7.23904,-23.7292,-110.383,6901.16,22608.8,-1984.55,-7.67601,-39.749,-348.874,1007.17,10611.6,543.933,14.1337,-57.1475,-37.4075,-6089.22,-6669.62,-575.577,14.6201,72.0168,-1.26322,8857.87,2098.43,-217.273,-81.0222,-9.68648,6.28066
2.827,4440.5,79.3399,10125.4,2.89302,-108.312,1.41814,21024.5,1454.0,13085.1,-29.7739,306.233,-77.6304,-3196.33,11433.4,-1814.93,-7.2481,-24.058,-110.698,7004.06,22694.9,-1996.33,-8.19052,-39.337,-348.139,971.241,10599.2,545.572,13.9003,-58.5649,-37.2842,-5916.51,-6721.83,-421.184,14.9412,75.6827,-1.81481,8854.66,2071.52,-223.292,-81.1913,-9.99021,6.31467
2.8275,4448.03,137.428,10111.2,2.75326,-109.048,1.14265,21163.5,1433.47,13042.4,-30.2203,305.741,-76.3897,-3229.39,11431.1,-1769.55,-7.25563,-24.4382,-111.037,7099.34,22785.8,-2014.39,-8.69412,-38.8778,-347.368,942.092,10569.4,530.383,13.6009,-60.0249,-37.1994,-5717.67,-6761.46,-266.913,15.3122,78.4055,-2.61738,8847.76,2042.41,-230.313,-81.2836,-10.3265,6.33085
2.828,4455.56,195.516,10096.9,2.6135,-109.785,0.867163,21302.5,1412.95,12999.7,-30.6667,305.249,-75.149,-3262.45,11428.9,-1724.17,-7.26316,-24.8184,-111.377,7194.63,22876.6,-2032.44,-9.19771,-38.4186,-346.597,912.944,10539.6,515.193,13.3015,-61.4849,-37.1147,-5518.84,-6801.08,-112.641,15.6833,81.1284,-3.41996,8840.86,2013.31,-237.335,-81.3759,-10.6628,6.34704
2.8285,4463.09,253.604,10082.6,2.47375,-110.521,0.591673,21441.5,1392.42,12957.0,-31.1132,304.757,-73.9082,-3295.51,11426.6,-1678.79,-7.2707,-25.1985,-111.717,7289.92,22967.5,-2050.5,-9.70131,-37.9593,-345.827,883.795,10509.8,500.003,13.0021,-62.9449,-37.03,-5320.01,-6840.71,41.6307,16.0543,83.8512,-4.22254,8833.96,1984.2,-244.356,-81.4682,-10.9991,6.36322
2.829,4470.62,311.693,10068.3,2.33399,-111.258,0.316184,21580.4,1371.9,12914.3,-31.5596,304.265,-72.6675,-3328.57,11424.4,-1633.41,-7.27823,-25.5787,-112.056,7385.2,23058.3,-2068.55,-10.2049,-37.5001,-345.056,854.646,10480.1,484.813,12.7026,-64.4049,-36.9453,-5121.18,-6880.34,195.902,16.4253,86.5741,-5.02511,8827.06,1955.09,-251.378,-81.5604,-11.3354,6.37941
2.8295,4478.15,369.781,10054.0,2.19423,-111.994,0.040694,21719.4,1351.37,12871.6,-32.0061,303.773,-71.4267,-3361.63,11422.2,-1588.03,-7.28577,-25.9589,-112.396,7480.49,23149.2,-2086.61,-10.7085,-37.0409,-344.285,825.498,10450.3,469.624,12.4032,-65.8649,-36.8606,-4922.34,-6919.96,350.174,16.7963,89.2969,-5.82769,8820.16,1925.99,-258.399,-81.6527,-11.6716,6.39559
2.83,4485.68,427.869,10039.8,2.05448,-112.731,-0.234796,21858.4,1330.84,12829.0,-32.4525,303.281,-70.186,-3394.69,11419.9,-1542.65,-7.2933,-26.3391,-112.736,7575.77,23240.0,-2104.67,-11.2121,-36.5817,-343.514,796.349,10420.5,454.434,12.1038,-67.325,-36.7758,-4723.51,-6959.59,504.446,17.1674,92.0198,-6.63027,8813.26,1896.88,-265.421,-81.745,-12.0079,6.41178
2.8305,4493.22,485.957,10025.5,1.91472,-113.467,-0.510285,21997.4,1310.32,12786.3,-32.899,302.789,-68.9453,-3427.75,11417.7,-1497.27,-7.30084,-26.7192,-113.075,7671.06,23330.8,-2122.72,-11.7157,-36.1225,-342.743,767.201,10390.7,439.244,11.8044,-68.785,-36.6911,-4524.68,-6999.21,658.717,17.5384,94.7426,-7.43284,8806.36,1867.77,-272.442,-81.8373,-12.3442,6.42796
2.831,4500.75,544.045,10011.2,1.77496,-114.204,-0.785775,22136.4,1289.79,12743.6,-33.3454,302.297,-67.7045,-3460.81,11415.4,-1451.89,-7.30837,-27.0994,-113.415,7766.35,23421.7,-2140.78,-12.2193,-35.6632,-341.972,738.052,10361.0,424.054,11.5049,-70.245,-36.6064,-4325.84,-7038.84,812.989,17.9094,97.4654,-8.23542,8799.46,1838.67,-279.464,-81.9296,-12.6805,6.44415
2.8315,4505.87,582.54,10000.1,1.61201,-114.941,-0.986176,22239.0,1292.0,12688.0,-33.6107,301.768,-66.4291,-3468.73,11420.3,-1407.83,-7.2689,-27.5113,-113.738,7868.1,23515.5,-2146.37,-12.7749,-35.1794,-341.136,728.002,10326.0,400.236,11.2872,-71.843,-36.5844,-4103.62,-7036.93,928.85,18.0688,97.5443,-9.29944,8800.43,1811.28,-292.648,-81.9551,-13.0455,6.44419
2.832,4510.31,615.437,9990.04,1.44244,-115.679,-1.16512,22331.3,1300.71,12628.7,-33.8243,301.228,-65.1438,-3469.46,11427.2,-1364.15,-7.21601,-27.9322,-114.055,7971.71,23610.3,-2148.39,-13.3453,-34.6884,-340.28,723.408,10289.6,373.953,11.0928,-73.4804,-36.5803,-3874.71,-7023.16,1033.74,18.1678,96.8678,-10.4382,8803.65,1784.39,-307.592,-81.9614,-13.4188,6.43961
2.8325,4514.75,648.334,9979.92,1.27286,-116.417,-1.34407,22423.7,1309.41,12569.4,-34.0379,300.688,-63.8585,-3470.19,11434.0,-1320.47,-7.16312,-28.3531,-114.373,8075.32,23705.0,-2150.42,-13.9158,-34.1975,-339.424,718.814,10253.3,347.67,10.8984,-75.1178,-36.5761,-3645.8,-7009.39,1138.62,18.2668,96.1912,-11.5769,8806.87,1757.49,-322.537,-81.9678,-13.792,6.43504
2.833,4519.19,681.231,9969.81,1.10329,-117.156,-1.52302,22516.0,1318.12,12510.1,-34.2515,300.149,-62.5732,-3470.92,11440.9,-1276.79,-7.11022,-28.774,-114.691,8178.92,23799.7,-2152.45,-14.4862,-33.7065,-338.569,714.22,10216.9,321.387,10.7041,-76.7552,-36.572,-3416.9,-6995.61,1243.51,18.3657,95.5147,-12.7156,8810.09,1730.6,-337.481,-81.9742,-14.1653,6.43047
2.8335,4523.63,714.128,9959.7,0.933714,-117.894,-1.70196,22608.3,1326.82,12450.8,-34.4651,299.609,-61.288,-3471.65,11447.8,-1233.1,-7.05733,-29.1949,-115.009,8282.53,23894.4,-2154.47,-15.0566,-33.2156,-337.713,709.626,10180.5,295.104,10.5097,-78.3926,-36.5679,-3187.99,-6981.84,1348.4,18.4647,94.8381,-13.8543,8813.31,1703.7,-352.426,-81.9806,-14.5385,6.4259
2.834,4528.07,747.025,9949.58,0.764139,-118.632,-1.88091,22700.6,1335.53,12391.5,-34.6786,299.069,-60.0027,-3472.39,11454.7,-1189.42,-7.00444,-29.6159,-115.326,8386.13,23989.1,-2156.5,-15.6271,-32.7246,-336.858,705.032,10144.1,268.82,10.3153,-80.03,-36.5638,-2959.08,-6968.06,1453.28,18.5637,94.1616,-14.9931,8816.53,1676.81,-367.371,-81.9869,-14.9117,6.42133
2.8345,4532.5,779.922,9939.47,0.594564,-119.37,-2.05985,22792.9,1344.24,12332.2,-34.8922,298.529,-58.7174,-3473.12,11461.5,-1145.74,-6.95155,-30.0368,-115.644,8489.74,24083.8,-2158.52,-16.1975,-32.2337,-336.002,700.438,10107.7,242.537,10.1209,-81.6674,-36.5597,-2730.17,-6954.29,1558.17,18.6627,93.485,-16.1318,8819.75,1649.92,-382.315,-81.9933,-15.285,6.41675
2.835,4536.94,812.818,9929.36,0.424988,-120.108,-2.2388,22885.2,1352.94,12273.0,-35.1058,297.989,-57.4321,-3473.85,11468.4,-1102.06,-6.89865,-30.4577,-115.962,8593.34,24178.5,-2160.55,-16.768,-31.7427,-335.147,695.844,10071.3,216.254,9.92652,-83.3048,-36.5556,-2501.27,-6940.52,1663.05,18.7616,92.8085,-17.2705,8822.97,1623.02,-397.26,-81.9997,-15.6582,6.41218
2.8355,4541.38,845.715,9919.24,0.255413,-120.846,-2.41775,22977.5,1361.65,12213.7,-35.3194,297.449,-56.1468,-3474.58,11475.3,-1058.38,-6.84576,-30.8786,-116.28,8696.95,24273.2,-2162.58,-17.3384,-31.2518,-334.291,691.25,10034.9,189.971,9.73213,-84.9422,-36.5514,-2272.36,-6926.74,1767.94,18.8606,92.1319,-18.4092,8826.19,1596.13,-412.204,-82.0061,-16.0315,6.40761
2.836,4526.67,841.944,9910.31,0.121188,-121.516,-2.58209,23056.2,1368.61,12133.3,-35.4176,296.665,-54.8045,-3454.53,11478.3,-1039.69,-6.8319,-31.2877,-116.468,8797.3,24334.0,-2181.27,-17.8733,-30.8696,-333.413,687.831,9987.22,134.49,9.75096,-86.2745,-36.6931,-2043.52,-6870.37,1765.62,18.3849,89.2221,-19.3075,8824.92,1578.17,-423.795,-81.9324,-16.4387,6.39437
2.8365,4509.56,833.589,9901.52,-0.00861945,-122.178,-2.7446,23133.1,1375.36,12050.4,-35.5015,295.85,-53.4551,-3431.89,11480.8,-1024.14,-6.82292,-31.6953,-116.641,8897.24,24390.6,-2202.05,-18.4037,-30.5011,-332.532,684.559,9938.13,75.3585,9.79644,-87.5686,-36.8529,-1814.7,-6808.67,1749.89,17.8374,86.0331,-20.1756,8823.09,1561.32,-434.967,-81.8487,-16.8501,6.38005
2.837,4492.45,825.234,9892.73,-0.138426,-122.84,-2.90711,23210.1,1382.11,11967.4,-35.5853,295.035,-52.1057,-3409.24,11483.4,-1008.58,-6.81394,-32.1029,-116.814,8997.17,24447.1,-2222.82,-18.9341,-30.1326,-331.65,681.286,9889.05,16.2274,9.84193,-88.8627,-37.0128,-1585.87,-6746.96,1734.16,17.2898,82.8441,-21.0438,8821.25,1544.48,-446.139,-81.765,-17.2615,6.36573
2.8375,4475.34,816.879,9883.95,-0.268233,-123.501,-3.06963,23287.0,1388.86,11884.5,-35.6691,294.22,-50.7563,-3386.6,11485.9,-993.022,-6.80495,-32.5105,-116.987,9097.11,24503.6,-2243.6,-19.4645,-29.764,-330.769,678.014,9839.96,-42.9037,9.88741,-90.1568,-37.1727,-1357.05,-6685.26,1718.43,16.7423,79.6551,-21.912,8819.42,1527.63,-457.31,-81.6813,-17.6729,6.35141
2.838,4458.23,808.524,9875.16,-0.39804,-124.163,-3.23214,23363.9,1395.61,11801.5,-35.7529,293.405,-49.407,-3363.95,11488.4,-977.465,-6.79597,-32.918,-117.16,9197.05,24560.2,-2264.38,-19.9949,-29.3955,-329.888,674.742,9790.88,-102.035,9.93289,-91.4509,-37.3325,-1128.22,-6623.56,1702.71,16.1948,76.4662,-22.7802,8817.59,1510.78,-468.482,-81.5976,-18.0844,6.33709
2.8385,4441.13,800.169,9866.38,-0.527847,-124.825,-3.39465,23440.9,1402.36,11718.5,-35.8368,292.59,-48.0576,-3341.3,11490.9,-961.908,-6.78699,-33.3256,-117.333,9296.99,24616.7,-2285.15,-20.5254,-29.027,-329.007,671.47,9741.79,-161.166,9.97838,-92.745,-37.4924,-899.395,-6561.86,1686.98,15.6472,73.2772,-23.6483,8815.75,1493.94,-479.654,-81.5139,-18.4958,6.32277
2.839,4424.02,791.814,9857.59,-0.657654,-125.487,-3.55717,23517.8,1409.11,11635.6,-35.9206,291.775,-46.7082,-3318.66,11493.5,-946.351,-6.77801,-33.7332,-117.505,9396.93,24673.3,-2305.93,-21.0558,-28.6584,-328.126,668.197,9692.71,-220.297,10.0239,-94.0392,-37.6523,-670.569,-6500.16,1671.25,15.0997,70.0882,-24.5165,8813.92,1477.09,-490.825,-81.4303,-18.9072,6.30845
2.8395,4406.91,783.459,9848.8,-0.787461,-126.149,-3.71968,23594.8,1415.86,11552.6,-36.0044,290.961,-45.3588,-3296.01,11496.0,-930.794,-6.76903,-34.1408,-117.678,9496.87,24729.8,-2326.71,-21.5862,-28.2899,-327.245,664.925,9643.62,-279.428,10.0693,-95.3333,-37.8121,-441.743,-6438.46,1655.53,14.5522,66.8992,-25.3847,8812.08,1460.25,-501.997,-81.3466,-19.3187,6.29413
2.84,4389.8,775.104,9840.01,-0.917268,-126.81,-3.8822,23671.7,1422.6,11469.7,-36.0882,290.146,-44.0094,-3273.36,11498.5,-915.237,-6.76004,-34.5484,-117.851,9596.81,24786.4,-2347.48,-22.1166,-27.9214,-326.364,661.653,9594.53,-338.559,10.1148,-96.6274,-37.972,-212.916,-6376.75,1639.8,14.0046,63.7102,-26.2529,8810.25,1443.4,-513.169,-81.2629,-19.7301,6.2798
2.8405,4373.05,751.853,9845.23,-0.953426,-127.464,-4.04024,23734.8,1459.38,11334.7,-36.084,289.008,-42.5863,-3246.8,11483.4,-925.217,-6.76745,-34.7929,-118.037,9685.5,24819.5,-2354.02,-22.5356,-27.6464,-325.38,686.438,9545.96,-403.332,10.1502,-97.3597,-38.0983,-0.145006,-6332.85,1565.11,12.8419,59.3882,-26.5885,8810.43,1436.25,-531.962,-81.063,-20.1945,6.25294
2.841,4356.29,728.603,9850.44,-0.989585,-128.117,-4.19829,23797.8,1496.15,11199.8,-36.0798,287.87,-41.1632,-3220.23,11468.3,-935.197,-6.77486,-35.0374,-118.223,9774.18,24852.7,-2360.55,-22.9546,-27.3714,-324.395,711.223,9497.39,-468.104,10.1855,-98.0921,-38.2246,212.626,-6288.95,1490.42,11.6792,55.0663,-26.9242,8810.62,1429.1,-550.754,-80.8632,-20.6588,6.22607
2.8415,4339.54,705.353,9855.65,-1.02574,-128.771,-4.35634,23860.8,1532.93,11064.8,-36.0756,286.733,-39.7401,-3193.67,11453.2,-945.176,-6.78227,-35.2819,-118.409,9862.87,24885.9,-2367.08,-23.3736,-27.0964,-323.411,736.008,9448.82,-532.877,10.2209,-98.8245,-38.3509,425.398,-6245.05,1415.74,10.5164,50.7443,-27.2598,8810.8,1421.95,-569.547,-80.6633,-21.1232,6.1992
2.842,4322.78,682.102,9860.87,-1.0619,-129.424,-4.51438,23923.8,1569.7,10929.9,-36.0714,285.595,-38.317,-3167.1,11438.1,-955.156,-6.78968,-35.5264,-118.595,9951.56,24919.1,-2373.61,-23.7925,-26.8214,-322.427,760.793,9400.25,-597.649,10.2563,-99.5568,-38.4773,638.169,-6201.15,1341.05,9.3537,46.4223,-27.5955,8810.98,1414.8,-588.34,-80.4634,-21.5875,6.17233
2.8425,4306.03,658.852,9866.08,-1.09806,-130.078,-4.67243,23986.9,1606.48,10794.9,-36.0672,284.457,-36.8939,-3140.54,11423.0,-965.135,-6.79709,-35.7709,-118.782,10040.3,24952.3,-2380.14,-24.2115,-26.5464,-321.443,785.579,9351.68,-662.422,10.2916,-100.289,-38.6036,850.941,-6157.25,1266.36,8.19096,42.1003,-27.9312,8811.17,1407.65,-607.133,-80.2635,-22.0519,6.14547
2.843,4289.27,635.602,9871.29,-1.13422,-130.731,-4.83048,24049.9,1643.25,10660.0,-36.063,283.32,-35.4708,-3113.97,11407.9,-975.115,-6.8045,-36.0154,-118.968,10128.9,24985.5,-2386.67,-24.6305,-26.2714,-320.459,810.364,9303.11,-727.194,10.327,-101.022,-38.7299,1063.71,-6113.35,1191.67,7.02823,37.7783,-28.2668,8811.35,1400.5,-625.926,-80.0637,-22.5163,6.1186
2.8435,4272.52,612.352,9876.5,-1.17038,-131.385,-4.98852,24112.9,1680.03,10525.0,-36.0588,282.182,-34.0477,-3087.41,11392.8,-985.095,-6.81191,-36.2599,-119.154,10217.6,25018.7,-2393.21,-25.0494,-25.9964,-319.475,835.149,9254.54,-791.967,10.3624,-101.754,-38.8562,1276.48,-6069.45,1116.99,5.86549,33.4563,-28.6025,8811.54,1393.35,-644.718,-79.8638,-22.9806,6.09173
2.844,4255.77,589.101,9881.72,-1.20653,-132.038,-5.14657,24176.0,1716.8,10390.1,-36.0546,281.044,-32.6246,-3060.84,11377.7,-995.074,-6.81931,-36.5044,-119.34,10306.3,25051.8,-2399.74,-25.4684,-25.7214,-318.49,859.934,9205.96,-856.739,10.3977,-102.486,-38.9826,1489.26,-6025.55,1042.3,4.70276,29.1343,-28.9381,8811.72,1386.2,-663.511,-79.664,-23.445,6.06486
2.8445,4240.12,567.949,9886.16,-1.24425,-132.7,-5.30425,24237.7,1758.95,10253.3,-36.0765,279.878,-31.2006,-3036.5,11361.8,-1004.66,-6.82745,-36.7426,-119.528,10395.3,25079.4,-2412.7,-25.8505,-25.465,-317.495,882.848,9158.65,-906.337,10.3935,-103.224,-39.1156,1698.48,-5984.65,965.955,3.45809,24.8471,-29.2283,8813.1,1378.0,-682.763,-79.4536,-23.8968,6.03492
2.845,4233.33,563.581,9884.43,-1.29437,-133.425,-5.45898,24289.2,1844.02,10102.1,-36.3077,278.477,-29.7703,-3029.94,11339.6,-1011.11,-6.84143,-36.9303,-119.73,10486.8,25062.1,-2477.09,-25.9377,-25.3574,-316.411,890.79,9121.37,-834.539,10.0731,-104.001,-39.3022,1879.29,-5967.79,876.36,1.55794,20.8378,-29.1544,8824.09,1361.39,-705.682,-79.1596,-24.2484,5.98033
2.8455,4226.55,559.213,9882.7,-1.3445,-134.15,-5.61371,24340.8,1929.1,9950.85,-36.5389,277.077,-28.3399,-3023.39,11317.4,-1017.57,-6.85541,-37.1179,-119.932,10578.4,25044.7,-2541.49,-26.0248,-25.2498,-315.327,898.733,9084.09,-762.741,9.75258,-104.778,-39.4887,2060.1,-5950.92,786.766,-0.342214,16.8284,-29.0806,8835.08,1344.79,-728.601,-78.8656,-24.6001,5.92575
2.846,4219.76,554.845,9880.98,-1.39463,-134.874,-5.76844,24392.3,2014.18,9799.61,-36.7701,275.677,-26.9095,-3016.83,11295.3,-1024.02,-6.86938,-37.3056,-120.134,10669.9,25027.4,-2605.88,-26.112,-25.1421,-314.242,906.676,9046.8,-690.943,9.4321,-105.556,-39.6753,2240.92,-5934.06,697.171,-2.24236,12.8191,-29.0068,8846.06,1328.18,-751.521,-78.5716,-24.9517,5.87117
2.8465,4212.98,550.477,9879.25,-1.44476,-135.599,-5.92317,24443.8,2099.26,9648.37,-37.0013,274.277,-25.4791,-3010.28,11273.1,-1030.47,-6.88336,-37.4933,-120.337,10761.4,25010.0,-2670.28,-26.1991,-25.0345,-313.158,914.618,9009.52,-619.145,9.11162,-106.333,-39.8619,2421.73,-5917.19,607.577,-4.14251,8.80978,-28.933,8857.05,1311.58,-774.44,-78.2775,-25.3033,5.81658
2.847,4206.19,546.109,9877.52,-1.49489,-136.324,-6.0779,24495.4,2184.33,9497.13,-37.2325,272.876,-24.0487,-3003.72,11250.9,-1036.92,-6.89734,-37.6809,-120.539,10852.9,24992.7,-2734.67,-26.2862,-24.9269,-312.074,922.561,8972.24,-547.347,8.79114,-107.11,-40.0485,2602.54,-5900.33,517.982,-6.04266,4.80045,-28.8591,8868.04,1294.97,-797.359,-77.9835,-25.6549,5.762
2.8475,4199.4,541.74,9875.79,-1.54502,-137.049,-6.23263,24546.9,2269.41,9345.89,-37.4637,271.476,-22.6184,-2997.16,11228.7,-1043.37,-6.91131,-37.8686,-120.741,10944.4,24975.4,-2799.07,-26.3734,-24.8192,-310.989,930.503,8934.96,-475.548,8.47066,-107.888,-40.2351,2783.36,-5883.46,428.388,-7.94281,0.791121,-28.7853,8879.02,1278.37,-820.279,-77.6895,-26.0066,5.70742
2.848,4192.62,537.372,9874.06,-1.59515,-137.774,-6.38736,24598.4,2354.49,9194.65,-37.6949,270.076,-21.188,-2990.61,11206.6,-1049.83,-6.92529,-38.0562,-120.943,11036.0,24958.0,-2863.46,-26.4605,-24.7116,-309.905,938.446,8897.68,-403.75,8.15018,-108.665,-40.4216,2964.17,-5866.6,338.794,-9.84296,-3.21821,-28.7115,8890.01,1261.76,-843.198,-77.3955,-26.3582,5.65283
2.8485,4185.83,533.004,9872.33,-1.64528,-138.498,-6.54209,24650.0,2439.56,9043.42,-37.9261,268.675,-19.7576,-2984.05,11184.4,-1056.28,-6.93927,-38.2439,-121.145,11127.5,24940.7,-2927.86,-26.5477,-24.604,-308.821,946.388,8860.4,-331.952,7.8297,-109.442,-40.6082,3144.99,-5849.74,249.199,-11.7431,-7.22754,-28.6376,8901.0,1245.16,-866.118,-77.1014,-26.7098,5.59825
2.849,4187.41,531.94,9870.34,-1.68332,-139.214,-6.69175,24697.8,2534.57,8890.47,-38.1999,267.203,-18.3148,-2982.28,11166.7,-1060.35,-6.96237,-38.439,-121.351,11216.6,24915.7,-2992.22,-26.5887,-24.5178,-307.687,957.41,8832.75,-306.52,7.55126,-110.027,-40.746,3316.25,-5841.15,168.547,-13.7912,-10.96,-28.4545,8910.54,1225.67,-889.888,-76.8201,-27.0281,5.52369
2.8495,4218.28,542.441,9867.41,-1.67902,-139.896,-6.82367,24732.5,2664.31,8731.55,-38.623,265.475,-16.8283,-2997.23,11164.6,-1056.11,-7.01738,-38.66,-121.571,11297.1,24864.1,-3056.45,-26.4684,-24.5071,-306.378,979.21,8838.8,-443.37,7.41993,-109.939,-40.7132,3454.11,-5861.56,119.192,-16.357,-13.7234,-27.8888,8915.04,1196.09,-916.639,-76.5831,-27.2297,5.37921
2.85,4249.15,552.943,9864.48,-1.67472,-140.579,-6.95559,24767.3,2794.05,8572.63,-39.0461,263.748,-15.3419,-3012.19,11162.5,-1051.87,-7.0724,-38.881,-121.79,11377.7,24812.4,-3120.69,-26.348,-24.4963,-305.069,1001.01,8844.86,-580.22,7.2886,-109.85,-40.6803,3591.96,-5881.97,69.8377,-18.9229,-16.4867,-27.3232,8919.54,1166.51,-943.389,-76.346,-27.4314,5.23474
2.8505,4280.02,563.444,9861.55,-1.67043,-141.261,-7.0875,24802.0,2923.79,8413.72,-39.4692,262.02,-13.8555,-3027.15,11160.4,-1047.63,-7.12742,-39.1021,-122.01,11458.2,24760.8,-3184.92,-26.2277,-24.4855,-303.761,1022.81,8850.91,-717.07,7.15728,-109.762,-40.6475,3729.81,-5902.38,20.4831,-21.4888,-19.2501,-26.7575,8924.04,1136.92,-970.139,-76.109,-27.633,5.09026
2.851,4310.88,573.945,9858.62,-1.66613,-141.944,-7.21942,24836.8,3053.53,8254.8,-39.8922,260.293,-12.3691,-3042.1,11158.3,-1043.38,-7.18244,-39.3231,-122.229,11538.8,24709.1,-3249.16,-26.1073,-24.4748,-302.452,1044.61,8856.96,-853.92,7.02595,-109.673,-40.6146,3867.67,-5922.79,-28.8714,-24.0546,-22.0135,-26.1918,8928.55,1107.34,-996.889,-75.872,-27.8346,4.94578
2.8515,4341.75,584.446,9855.7,-1.66184,-142.626,-7.35134,24871.5,3183.28,8095.88,-40.3153,258.566,-10.8826,-3057.06,11156.2,-1039.14,-7.23746,-39.5441,-122.449,11619.4,24657.5,-3313.39,-25.987,-24.464,-301.143,1066.41,8863.02,-990.77,6.89462,-109.585,-40.5818,4005.52,-5943.2,-78.226,-26.6205,-24.7769,-25.6262,8933.05,1077.76,-1023.64,-75.635,-28.0362,4.8013
2.852,4372.62,594.947,9852.77,-1.65754,-143.308,-7.48325,24906.3,3313.02,7936.96,-40.7384,256.838,-9.39621,-3072.01,11154.1,-1034.9,-7.29248,-39.7652,-122.668,11699.9,24605.8,-3377.63,-25.8667,-24.4532,-299.835,1088.21,8869.07,-1127.62,6.76329,-109.496,-40.5489,4143.37,-5963.61,-127.581,-29.1863,-27.5402,-25.0605,8937.55,1048.18,-1050.39,-75.3979,-28.2379,4.65683
2.8525,4403.48,605.448,9849.84,-1.65324,-143.991,-7.61517,24941.0,3442.76,7778.05,-41.1615,255.111,-7.90979,-3086.97,11152.0,-1030.66,-7.3475,-39.9862,-122.887,11780.5,24554.2,-3441.86,-25.7463,-24.4424,-298.526,1110.01,8875.13,-1264.47,6.63196,-109.408,-40.5161,4281.22,-5984.02,-176.935,-31.7522,-30.3036,-24.4949,8942.05,1018.59,-1077.14,-75.1609,-28.4395,4.51235
2.853,4434.35,615.949,9846.91,-1.64895,-144.673,-7.74709,24975.8,3572.5,7619.13,-41.5846,253.383,-6.42337,-3101.93,11149.9,-1026.41,-7.40251,-40.2072,-123.107,11861.0,24502.5,-3506.1,-25.626,-24.4317,-297.218,1131.81,8881.18,-1401.32,6.50064,-109.32,-40.4832,4419.08,-6004.42,-226.29,-34.318,-33.067,-23.9292,8946.55,989.012,-1103.89,-74.9239,-28.6411,4.36787
2.8535,4466.25,623.269,9845.69,-1.65559,-145.376,-7.85563,25010.5,3696.55,7451.67,-42.0846,251.568,-5.00134,-3120.25,11151.2,-1018.83,-7.45407,-40.4402,-123.331,11938.8,24443.0,-3579.92,-25.4186,-24.4702,-295.815,1155.94,8874.99,-1509.12,6.4438,-109.129,-40.4866,4559.02,-6033.55,-251.227,-36.926,-35.4291,-23.1711,8948.34,963.983,-1128.91,-74.6772,-28.8097,4.22435
2.854,4500.19,624.225,9847.89,-1.6841,-146.119,-7.91745,25045.3,3809.19,7267.11,-42.7384,249.577,-3.7081,-3145.31,11159.3,-1004.56,-7.4987,-40.6971,-123.563,12011.0,24367.7,-3672.93,-25.0373,-24.6072,-294.226,1184.71,8844.3,-1558.82,6.53593,-108.735,-40.5623,4703.14,-6080.12,-227.33,-39.6184,-36.9885,-22.0281,8944.7,948.062,-1150.45,-74.411,-28.9121,4.08272
2.8545,4534.14,625.18,9850.09,-1.71262,-146.862,-7.97926,25080.1,3921.84,7082.56,-43.3923,247.586,-2.41486,-3170.36,11167.4,-990.3,-7.54333,-40.954,-123.795,12083.1,24292.4,-3765.94,-24.6559,-24.7443,-292.636,1213.49,8813.61,-1608.52,6.62806,-108.34,-40.6381,4847.27,-6126.69,-203.432,-42.3107,-38.548,-20.8851,8941.07,932.141,-1172.0,-74.1448,-29.0146,3.94109
2.855,4568.08,626.136,9852.3,-1.74113,-147.606,-8.04107,25114.9,4034.48,6898.01,-44.0461,245.595,-1.12161,-3195.42,11175.5,-976.034,-7.58796,-41.2109,-124.027,12155.3,24217.1,-3858.95,-24.2745,-24.8813,-291.046,1242.26,8782.92,-1658.22,6.72019,-107.946,-40.7139,4991.39,-6173.26,-179.535,-45.0031,-40.1075,-19.7422,8937.43,916.22,-1193.55,-73.8786,-29.117,3.79947
2.8555,4602.03,627.092,9854.5,-1.76965,-148.349,-8.10289,25149.7,4147.13,6713.45,-44.7,243.604,0.171627,-3220.48,11183.6,-961.769,-7.63259,-41.4678,-124.26,12227.5,24141.8,-3951.95,-23.8932,-25.0183,-289.456,1271.04,8752.23,-1707.92,6.81232,-107.552,-40.7896,5135.51,-6219.82,-155.638,-47.6954,-41.6669,-18.5992,8933.8,900.299,-1215.09,-73.6125,-29.2195,3.65784
