Time,RFoot_accel.x,RFoot_accel.y,RFoot_accel.z,RFoot_gyro.x,RFoot_gyro.y,RFoot_gyro.z,LFoot_accel.x,LFoot_accel.y,LFoot_accel.z,LFoot_gyro.x,LFoot_gyro.y,LFoot_gyro.z,RShank_accel.x,RShank_accel.y,RShank_accel.z,RShank_gyro.x,RShank_gyro.y,RShank_gyro.z,LShank_accel.x,LShank_accel.y,LShank_accel.z,LShank_gyro.x,LShank_gyro.y,LShank_gyro.z,RThigh_accel.x,RThigh_accel.y,RThigh_accel.z,RThigh_gyro.x,RThigh_gyro.y,RThigh_gyro.z,LThigh_accel.x,LThigh_accel.y,LThigh_accel.z,LThigh_gyro.x,LThigh_gyro.y,LThigh_gyro.z,Pelvis_accel.x,Pelvis_accel.y,Pelvis_accel.z,Pelvis_gyro.x,Pelvis_gyro.y,Pelvis_gyro.z
3.07,4428.12,-3097.5,8241.43,-1.13727,11.6557,-12.8873,4047.27,2380.14,6873.23,22.8846,376.406,-135.54,211.003,9863.66,-1674.67,-1.49588,-50.2474,-32.0234,1137.52,-4327.06,726.844,-60.5537,-15.962,-260.052,-3595.02,-8748.27,-819.13,-89.4035,184.455,-150.293,562.924,10025.1,-1570.72,40.6022,-97.2138,-101.889,6325.12,1258.96,1387.05,-17.8613,35.2149,-47.5581
3.071,4436.54,-3108.9,8243.2,-1.22412,11.6052,-12.9005,4185.19,2339.81,6951.9,22.151,378.335,-136.631,175.594,9800.22,-1641.9,-1.41583,-51.1312,-31.883,1155.08,-4339.34,756.592,-60.6045,-16.6664,-261.895,-3575.49,-8761.14,-848.203,-90.4031,186.789,-148.829,642.27,10170.6,-1504.93,40.0161,-97.9892,-102.106,6358.16,1292.14,1372.06,-19.0265,35.6803,-46.3355
3.072,4436.08,-3105.57,8221.48,-1.2504,11.567,-13.08,4292.77,2287.74,7027.25,22.2044,380.563,-137.743,172.251,9735.79,-1623.44,-1.4914,-51.7733,-31.8255,1193.33,-4354.87,796.421,-60.6791,-17.2208,-263.67,-3526.88,-8740.89,-935.447,-90.4432,187.013,-147.397,759.57,10266.2,-1421.06,40.0349,-98.7843,-102.075,6334.5,1312.44,1399.85,-19.9486,35.7859,-45.1871
3.073,4434.51,-3100.39,8196.82,-1.26911,11.5302,-13.2803,4396.57,2234.21,7102.19,22.3561,382.829,-138.857,172.916,9671.25,-1606.76,-1.58641,-52.3852,-31.7784,1234.16,-4370.82,837.511,-60.7567,-17.7566,-265.436,-3474.64,-8716.51,-1029.96,-90.3633,186.973,-145.969,881.615,10355.6,-1334.92,40.1292,-99.5818,-102.013,6303.76,1331.13,1432.98,-20.8403,35.8465,-44.048
3.074,4432.94,-3095.22,8172.16,-1.28782,11.4934,-13.4806,4500.36,2180.68,7177.13,22.5078,385.095,-139.971,173.581,9606.7,-1590.08,-1.68143,-52.9971,-31.7313,1275.0,-4386.76,878.6,-60.8342,-18.2923,-267.203,-3422.39,-8692.13,-1124.48,-90.2834,186.934,-144.541,1003.66,10445.1,-1248.79,40.2236,-100.379,-101.951,6273.01,1349.83,1466.11,-21.7321,35.9071,-42.9089
3.075,4431.36,-3090.04,8147.49,-1.30653,11.4567,-13.681,4604.15,2127.16,7252.08,22.6595,387.361,-141.085,174.246,9542.16,-1573.41,-1.77644,-53.6089,-31.6842,1315.84,-4402.7,919.69,-60.9118,-18.8281,-268.969,-3370.15,-8667.74,-1218.99,-90.2036,186.894,-143.114,1125.7,10534.5,-1162.66,40.318,-101.177,-101.889,6242.27,1368.52,1499.24,-22.6238,35.9677,-41.7698
3.076,4446.0,-3072.06,8133.39,-1.3537,11.4435,-13.8751,4701.76,2070.0,7325.4,23.0769,389.606,-142.261,180.148,9493.42,-1567.92,-1.85881,-54.0046,-31.6985,1359.21,-4447.37,933.903,-61.0122,-19.1344,-270.801,-3322.19,-8626.62,-1337.66,-89.5095,185.964,-141.676,1245.92,10569.9,-1088.31,40.5346,-102.027,-101.78,6233.68,1395.75,1495.24,-23.3822,36.0561,-40.7308
3.077,4480.9,-3038.06,8132.49,-1.43642,11.4597,-14.0616,4791.61,2008.31,7396.71,23.8263,391.826,-143.515,192.597,9464.44,-1576.42,-1.92536,-54.13,-31.7896,1405.75,-4527.95,914.521,-61.1411,-19.1539,-272.715,-3279.6,-8564.58,-1486.51,-88.0476,183.921,-140.227,1363.85,10537.8,-1028.69,40.9041,-102.942,-101.612,6252.81,1433.66,1444.83,-23.9738,36.1793,-39.817
3.078,4515.79,-3004.06,8131.59,-1.51915,11.476,-14.2481,4881.47,1946.62,7468.01,24.5757,394.045,-144.768,205.047,9435.46,-1584.93,-1.99192,-54.2554,-31.8807,1452.3,-4608.53,895.14,-61.2699,-19.1734,-274.629,-3237.0,-8502.54,-1635.37,-86.5857,181.879,-138.778,1481.77,10505.8,-969.07,41.2735,-103.857,-101.444,6271.93,1471.57,1394.42,-24.5655,36.3024,-38.9031
3.079,4550.69,-2970.07,8130.69,-1.60188,11.4922,-14.4347,4971.33,1884.93,7539.32,25.3252,396.265,-146.022,217.496,9406.48,-1593.43,-2.05848,-54.3808,-31.9717,1498.85,-4689.1,875.758,-61.3988,-19.1929,-276.543,-3194.4,-8440.5,-1784.22,-85.1239,179.836,-137.329,1599.7,10473.7,-909.451,41.643,-104.773,-101.276,6291.05,1509.48,1344.01,-25.1571,36.4256,-37.9893
3.08,4585.59,-2936.07,8129.78,-1.6846,11.5085,-14.6212,5061.19,1823.24,7610.62,26.0746,398.484,-147.276,229.945,9377.5,-1601.94,-2.12503,-54.5062,-32.0628,1545.39,-4769.68,856.376,-61.5277,-19.2125,-278.457,-3151.8,-8378.46,-1933.07,-83.662,177.793,-135.88,1717.63,10441.7,-849.833,42.0124,-105.688,-101.108,6310.17,1547.39,1293.6,-25.7488,36.5488,-37.0755
3.081,4626.05,-2923.11,8134.56,-1.80395,11.4471,-14.4646,5172.71,1765.34,7659.67,27.3144,400.801,-148.632,255.02,9367.59,-1621.23,-2.10345,-54.2827,-32.2522,1549.58,-4818.9,806.308,-61.7729,-18.4809,-280.413,-3189.2,-8317.62,-2157.87,-81.0206,174.429,-134.413,1817.54,10344.5,-808.144,42.2974,-106.76,-101.064,6287.62,1565.37,1311.54,-25.7066,36.4884,-36.4515
3.082,4666.51,-2910.15,8139.35,-1.9233,11.3858,-14.3081,5284.22,1707.44,7708.71,28.5541,403.117,-149.988,280.095,9357.67,-1640.52,-2.08186,-54.0591,-32.4416,1553.76,-4868.13,756.24,-62.0182,-17.7493,-282.369,-3226.6,-8256.77,-2382.66,-78.3793,171.065,-132.947,1917.46,10247.3,-766.455,42.5824,-107.831,-101.021,6265.07,1583.35,1329.47,-25.6644,36.4279,-35.8275
3.083,4706.98,-2897.19,8144.13,-2.04265,11.3244,-14.1515,5395.74,1649.53,7757.76,29.7939,405.433,-151.345,305.171,9347.76,-1659.82,-2.06028,-53.8356,-32.6309,1557.95,-4917.35,706.172,-62.2635,-17.0178,-284.325,-3263.99,-8195.92,-2607.46,-75.7379,167.701,-131.48,2017.38,10150.2,-724.766,42.8674,-108.903,-100.977,6242.52,1601.33,1347.41,-25.6223,36.3675,-35.2035
3.084,4747.44,-2884.23,8148.91,-2.162,11.2631,-13.995,5507.26,1591.63,7806.8,31.0337,407.75,-152.701,330.246,9337.84,-1679.11,-2.03869,-53.612,-32.8203,1562.14,-4966.58,656.104,-62.5087,-16.2862,-286.281,-3301.39,-8135.07,-2832.25,-73.0966,164.337,-130.014,2117.3,10053.0,-683.077,43.1524,-109.975,-100.933,6219.98,1619.31,1365.35,-25.5801,36.3071,-34.5795
3.085,4776.38,-2880.25,8142.14,-2.20295,11.1958,-13.8132,5588.51,1552.53,7852.98,32.6941,410.122,-154.078,358.413,9349.2,-1682.24,-1.99065,-53.146,-32.9804,1579.16,-5038.67,631.683,-62.6122,-15.638,-288.307,-3414.56,-8086.35,-3048.0,-69.8662,160.585,-128.787,2188.45,9930.2,-672.597,43.4271,-110.69,-101.004,6236.15,1623.21,1367.58,-25.5354,36.1127,-33.9718
3.086,4796.09,-2883.45,8126.14,-2.18117,11.1239,-13.6112,5645.56,1528.47,7896.87,34.6909,412.54,-155.473,389.053,9377.58,-1672.44,-1.92144,-52.4858,-33.1172,1606.46,-5129.05,627.781,-62.6022,-15.0564,-290.391,-3588.35,-8047.35,-3256.51,-66.1647,156.523,-127.752,2236.57,9786.87,-687.085,43.6936,-111.12,-101.166,6283.31,1615.85,1357.25,-25.4888,35.8112,-33.3771
3.087,4815.81,-2886.66,8110.14,-2.15939,11.0519,-13.4092,5702.6,1504.42,7940.77,36.6877,414.957,-156.867,419.693,9405.96,-1662.64,-1.85223,-51.8257,-33.2539,1633.76,-5219.43,623.878,-62.5923,-14.4747,-292.474,-3762.14,-8008.34,-3465.02,-62.4631,152.46,-126.717,2284.69,9643.54,-701.572,43.9601,-111.55,-101.328,6330.47,1608.5,1346.93,-25.4422,35.5097,-32.7824
3.088,4835.53,-2889.86,8094.14,-2.13761,10.98,-13.2073,5759.65,1480.36,7984.66,38.6846,417.374,-158.261,450.333,9434.34,-1652.84,-1.78302,-51.1656,-33.3906,1661.06,-5309.81,619.976,-62.5823,-13.8931,-294.558,-3935.93,-7969.34,-3673.53,-58.7615,148.398,-125.682,2332.81,9500.21,-716.059,44.2265,-111.98,-101.49,6377.63,1601.14,1336.6,-25.3956,35.2081,-32.1877
3.089,4853.05,-2893.32,8080.1,-2.13366,10.9286,-13.0125,5814.69,1460.4,8029.82,40.6371,419.772,-159.659,482.446,9466.21,-1647.96,-1.71082,-50.4721,-33.5204,1687.32,-5399.66,620.914,-62.5874,-13.362,-296.63,-4124.73,-7925.06,-3879.25,-55.003,144.33,-124.688,2378.69,9354.04,-734.642,44.5586,-112.298,-101.658,6422.15,1598.31,1328.17,-25.4294,34.9197,-31.6006
3.09,4853.06,-2898.76,8081.83,-2.27233,11.042,-12.8754,5853.65,1473.2,8085.1,42.2357,422.014,-161.085,526.338,9526.05,-1682.39,-1.61469,-49.5117,-33.595,1705.32,-5485.25,660.567,-62.7129,-13.2356,-298.614,-4433.62,-7838.58,-4062.63,-50.7883,140.225,-124.022,2406.63,9185.14,-785.992,45.4157,-111.713,-101.866,6445.51,1631.6,1334.94,-26.1066,34.7364,-31.0738
3.091,4853.06,-2904.2,8083.55,-2.411,11.1554,-12.7383,5892.61,1486.0,8140.39,43.8342,424.256,-162.511,570.231,9585.89,-1716.83,-1.51856,-48.5514,-33.6696,1723.32,-5570.84,700.221,-62.8384,-13.1092,-300.598,-4742.52,-7752.11,-4246.02,-46.5736,136.119,-123.357,2434.57,9016.25,-837.342,46.2727,-111.128,-102.075,6468.88,1664.9,1341.71,-26.7838,34.5532,-30.547
3.092,4853.06,-2909.64,8085.27,-2.54967,11.2688,-12.6012,5931.56,1498.8,8195.68,45.4328,426.498,-163.937,614.123,9645.72,-1751.26,-1.42244,-47.5911,-33.7442,1741.32,-5656.44,739.875,-62.964,-12.9828,-302.581,-5051.41,-7665.64,-4429.4,-42.359,132.013,-122.691,2462.51,8847.35,-888.692,47.1297,-110.543,-102.283,6492.24,1698.19,1348.49,-27.461,34.3699,-30.0201
3.093,4853.07,-2915.09,8087.0,-2.68835,11.3821,-12.4641,5970.52,1511.6,8250.97,47.0313,428.74,-165.363,658.016,9705.56,-1785.69,-1.32631,-46.6308,-33.8188,1759.32,-5742.03,779.529,-63.0895,-12.8563,-304.565,-5360.3,-7579.17,-4612.78,-38.1443,127.907,-122.026,2490.45,8678.45,-940.042,47.9867,-109.958,-102.492,6515.6,1731.49,1355.26,-28.1382,34.1866,-29.4933
3.094,4821.85,-2904.8,8107.05,-2.7777,11.3058,-12.3043,6039.86,1544.72,8264.17,48.2756,430.786,-166.854,676.456,9732.24,-1815.3,-1.26891,-45.5666,-34.0475,1776.31,-5818.43,809.652,-63.3053,-12.8051,-306.461,-5765.49,-7488.65,-4749.21,-34.0504,124.304,-121.314,2523.65,8546.5,-1030.07,48.9256,-108.656,-102.887,6548.66,1723.56,1348.8,-28.7504,33.9599,-28.9667
3.095,4775.03,-2886.65,8136.27,-2.8424,11.1346,-12.1332,6124.38,1587.99,8256.33,49.3428,432.734,-168.377,682.17,9742.35,-1842.49,-1.23087,-44.4504,-34.3531,1792.78,-5890.23,835.01,-63.5663,-12.7915,-308.313,-6218.81,-7396.12,-4862.17,-30.0169,120.953,-120.58,2559.49,8433.01,-1139.44,49.9053,-106.995,-103.374,6586.56,1695.02,1335.73,-29.3301,33.7115,-28.4402
3.096,4728.21,-2868.5,8165.48,-2.9071,10.9634,-11.9621,6208.91,1631.27,8248.49,50.41,434.682,-169.9,687.883,9752.45,-1869.69,-1.19284,-43.3342,-34.6587,1809.26,-5962.04,860.367,-63.8273,-12.7779,-310.165,-6672.14,-7303.59,-4975.13,-25.9834,117.602,-119.846,2595.32,8319.52,-1248.81,50.8851,-105.334,-103.862,6624.47,1666.47,1322.66,-29.9098,33.4632,-27.9138
3.097,4681.38,-2850.35,8194.7,-2.9718,10.7922,-11.791,6293.43,1674.54,8240.65,51.4772,436.63,-171.423,693.597,9762.56,-1896.88,-1.1548,-42.2181,-34.9644,1825.73,-6033.84,885.725,-64.0883,-12.7643,-312.017,-7125.47,-7211.06,-5088.09,-21.9499,114.251,-119.112,2631.15,8206.04,-1358.18,51.8648,-103.674,-104.35,6662.37,1637.93,1309.6,-30.4895,33.2148,-27.3873
3.098,4641.0,-2842.58,8210.02,-2.98195,10.6431,-11.6386,6367.84,1728.96,8226.29,52.545,438.481,-172.875,699.483,9759.38,-1920.34,-1.08369,-41.1013,-35.2693,1841.2,-6113.52,897.142,-64.3664,-12.7091,-313.857,-7579.39,-7122.67,-5170.56,-18.0857,111.067,-118.483,2677.91,8113.83,-1460.99,52.6737,-101.888,-104.909,6711.77,1608.61,1296.92,-30.9438,32.9699,-26.8101
3.099,4623.15,-2871.17,8176.71,-2.80114,10.5712,-11.552,6406.83,1822.39,8189.09,53.615,439.992,-174.08,705.969,9709.72,-1930.75,-0.896798,-39.9822,-35.5718,1853.15,-6220.77,859.765,-64.704,-12.5086,-315.656,-8035.4,-7048.77,-5146.34,-14.8144,108.47,-118.219,2762.92,8096.11,-1540.85,52.8846,-99.6645,-105.719,6801.41,1576.55,1285.63,-30.9594,32.7374,-26.0555
3.1,4605.29,-2899.75,8143.4,-2.62034,10.4992,-11.4653,6445.83,1915.81,8151.88,54.6849,441.504,-175.285,712.455,9660.06,-1941.16,-0.709909,-38.8631,-35.8742,1865.1,-6328.01,822.389,-65.0416,-12.308,-317.455,-8491.42,-6974.87,-5122.11,-11.5431,105.872,-117.955,2847.93,8078.39,-1620.71,53.0954,-97.4412,-106.53,6891.05,1544.49,1274.33,-30.9751,32.505,-25.3008
3.101,4587.44,-2928.33,8110.08,-2.43953,10.4273,-11.3786,6484.82,2009.24,8114.68,55.7549,443.016,-176.49,718.941,9610.41,-1951.57,-0.523021,-37.7441,-36.1766,1877.05,-6435.26,785.013,-65.3791,-12.1074,-319.254,-8947.43,-6900.97,-5097.89,-8.27171,103.274,-117.691,2932.94,8060.67,-1700.58,53.3063,-95.2178,-107.34,6980.68,1512.43,1263.04,-30.9907,32.2725,-24.5462
3.102,4569.58,-2956.92,8076.77,-2.25873,10.3553,-11.2919,6523.82,2102.66,8077.48,56.8249,444.528,-177.694,725.428,9560.75,-1961.98,-0.336133,-36.625,-36.479,1889.0,-6542.5,747.636,-65.7167,-11.9069,-321.054,-9403.44,-6827.08,-5073.66,-5.00037,100.677,-117.427,3017.96,8042.95,-1780.44,53.5172,-92.9945,-108.151,7070.32,1480.37,1251.74,-31.0063,32.04,-23.7916
3.103,4584.63,-2991.45,8028.02,-2.34082,10.4176,-11.3016,6503.14,2196.13,8071.44,57.2434,445.361,-178.52,745.267,9509.08,-1978.32,-0.222162,-35.4409,-36.8021,1934.47,-6653.21,701.457,-66.0849,-11.4349,-322.748,-9793.94,-6754.85,-4985.8,-2.58503,98.5381,-117.324,3087.64,8068.19,-1833.64,52.8712,-90.5161,-108.964,7115.91,1455.27,1257.05,-31.0643,31.6757,-23.1302
3.104,4609.08,-3027.7,7974.86,-2.49804,10.5181,-11.3389,6465.41,2289.6,8074.3,57.4757,446.001,-179.238,768.922,9456.85,-1996.35,-0.129023,-34.2383,-37.1311,1989.5,-6764.9,652.762,-66.4618,-10.8854,-324.412,-10165.7,-6683.09,-4879.75,-0.414261,96.5307,-117.266,3152.95,8105.71,-1879.22,51.9804,-87.9649,-109.779,7148.91,1432.16,1267.1,-31.1345,31.2739,-22.4954
3.105,4633.53,-3063.94,7921.7,-2.65525,10.6187,-11.3762,6427.68,2383.07,8077.16,57.7081,446.64,-179.956,792.578,9404.61,-2014.38,-0.0358846,-33.0356,-37.46,2044.54,-6876.59,604.067,-66.8386,-10.3359,-326.077,-10537.5,-6611.34,-4773.71,1.75651,94.5234,-117.209,3218.25,8143.24,-1924.81,51.0896,-85.4137,-110.593,7181.92,1409.05,1277.15,-31.2047,30.872,-21.8607
3.106,4657.97,-3100.18,7868.54,-2.81246,10.7193,-11.4135,6389.94,2476.54,8080.03,57.9404,447.28,-180.674,816.233,9352.37,-2032.42,0.0572539,-31.8329,-37.789,2099.58,-6988.28,555.373,-67.2155,-9.78633,-327.741,-10909.3,-6539.59,-4667.66,3.92728,92.5161,-117.152,3283.56,8180.76,-1970.39,50.1988,-82.8625,-111.407,7214.92,1385.94,1287.2,-31.2748,30.4702,-21.226
3.107,4692.59,-3119.37,7833.47,-2.89532,10.8519,-11.3929,6344.98,2556.3,8091.08,57.9193,447.646,-181.258,828.95,9307.84,-2043.79,0.173737,-30.6901,-38.1647,2178.68,-7093.24,509.549,-67.549,-9.18335,-329.402,-11222.5,-6482.41,-4533.11,5.85148,90.5478,-117.142,3344.13,8215.23,-2013.8,49.1468,-80.2327,-112.185,7263.21,1360.78,1277.25,-31.4576,30.0056,-20.5534
3.108,4747.53,-3104.48,7834.56,-2.82948,11.0487,-11.2565,6285.56,2608.63,8118.54,57.3913,447.464,-181.573,819.791,9278.73,-2041.85,0.336908,-29.667,-38.6341,2305.91,-7184.73,469.466,-67.7956,-8.47342,-331.055,-11418.7,-6454.38,-4341.54,7.28256,88.6577,-117.227,3395.22,8243.59,-2052.86,47.7724,-77.4459,-112.89,7342.09,1331.52,1227.3,-31.8657,29.4155,-19.8053
3.109,4802.48,-3089.59,7835.65,-2.76364,11.2455,-11.1201,6226.13,2660.95,8145.99,56.8634,447.282,-181.888,810.633,9249.62,-2039.91,0.50008,-28.6439,-39.1035,2433.13,-7276.22,429.384,-68.0422,-7.7635,-332.709,-11614.9,-6426.35,-4149.97,8.71364,86.7677,-117.312,3446.32,8271.95,-2091.91,46.398,-74.6591,-113.596,7420.96,1302.27,1177.34,-32.2737,28.8255,-19.0572
3.11,4857.43,-3074.7,7836.74,-2.69779,11.4423,-10.9837,6166.7,2713.28,8173.44,56.3354,447.1,-182.203,801.474,9220.5,-2037.97,0.663251,-27.6208,-39.5729,2560.36,-7367.71,389.301,-68.2887,-7.05357,-334.362,-11811.0,-6398.33,-3958.41,10.1447,84.8776,-117.397,3497.41,8300.31,-2130.97,45.0236,-71.8723,-114.301,7499.84,1273.01,1127.39,-32.6818,28.2354,-18.309
3.111,4912.37,-3059.81,7837.83,-2.63195,11.6391,-10.8474,6107.28,2765.61,8200.89,55.8074,446.918,-182.518,792.315,9191.39,-2036.03,0.826423,-26.5977,-40.0423,2687.58,-7459.21,349.219,-68.5353,-6.34365,-336.016,-12007.2,-6370.3,-3766.84,11.5758,82.9875,-117.482,3548.51,8328.67,-2170.03,43.6493,-69.0855,-115.006,7578.71,1243.76,1077.44,-33.0898,27.6454,-17.5609
3.112,4892.86,-3013.29,7855.12,-2.45049,11.7812,-10.8137,6013.63,2805.02,8223.87,55.1352,446.088,-182.709,758.603,9157.65,-2000.02,1.00677,-25.781,-40.5398,2779.42,-7569.35,351.804,-68.6746,-5.55317,-337.583,-12077.0,-6401.22,-3549.98,12.5561,80.7731,-117.737,3607.69,8345.49,-2224.52,42.7038,-65.9394,-115.459,7660.55,1185.0,1076.51,-33.2504,26.8707,-16.9537
3.113,4864.04,-2962.81,7874.44,-2.25457,11.9165,-10.7928,5915.69,2842.82,8246.29,54.445,445.178,-182.885,721.821,9123.33,-1959.76,1.18927,-24.99,-41.0409,2866.84,-7681.82,359.722,-68.8004,-4.75263,-339.139,-12131.0,-6439.52,-3329.96,13.4801,78.5181,-118.013,3667.88,8360.87,-2280.95,41.8119,-62.7483,-115.881,7742.75,1122.56,1081.72,-33.3801,26.0729,-16.3642
3.114,4835.22,-2912.34,7893.76,-2.05866,12.0518,-10.772,5817.76,2880.61,8268.71,53.7548,444.268,-183.061,685.04,9089.01,-1919.5,1.37176,-24.199,-41.5419,2954.25,-7794.29,367.641,-68.9262,-3.95209,-340.696,-12185.1,-6477.82,-3109.93,14.4041,76.2631,-118.289,3728.08,8376.24,-2337.37,40.92,-59.5573,-116.303,7824.96,1060.11,1086.92,-33.5097,25.2752,-15.7747
3.115,4806.4,-2861.87,7913.08,-1.86274,12.1871,-10.7511,5719.83,2918.41,8291.13,53.0646,443.357,-183.236,648.258,9054.69,-1879.24,1.55426,-23.4081,-42.0429,3041.67,-7906.77,375.559,-69.052,-3.15154,-342.252,-12239.1,-6516.12,-2889.91,15.328,74.0081,-118.565,3788.27,8391.62,-2393.8,40.0281,-56.3662,-116.725,7907.17,997.668,1092.13,-33.6394,24.4774,-15.1853
3.116,4775.86,-2843.89,7921.44,-1.78146,12.3341,-10.6577,5626.11,2942.99,8310.24,52.2869,442.188,-183.24,610.151,9018.06,-1847.89,1.73682,-22.68,-42.5148,3118.43,-8032.06,390.998,-69.1503,-2.38232,-343.802,-12238.9,-6541.41,-2670.46,16.2584,71.3549,-118.778,3811.17,8417.6,-2441.88,39.4987,-53.0053,-117.005,7980.88,938.649,1075.23,-33.6101,23.7781,-14.5763
3.117,4743.17,-2866.53,7916.12,-1.84346,12.4958,-10.4735,5537.66,2951.05,8325.2,51.3999,440.696,-183.027,570.386,8978.55,-1827.68,1.91947,-22.0304,-42.9503,3181.88,-8173.37,415.838,-69.214,-1.65226,-345.344,-12170.9,-6550.45,-2451.72,17.1967,68.2039,-118.914,3787.43,8456.84,-2479.55,39.4224,-49.4321,-117.106,8043.98,883.91,1030.71,-33.3822,23.2018,-13.9431
3.118,4710.47,-2889.17,7910.79,-1.90547,12.6574,-10.2894,5449.22,2959.11,8340.16,50.5128,439.203,-182.815,530.621,8939.04,-1807.47,2.10211,-21.3809,-43.3858,3245.33,-8314.68,440.677,-69.2777,-0.922196,-346.886,-12103.0,-6559.48,-2232.98,18.135,65.0529,-119.05,3763.7,8496.07,-2517.22,39.3461,-45.8588,-117.208,8107.07,829.172,986.192,-33.1542,22.6256,-13.3098
3.119,4677.78,-2911.81,7905.46,-1.96748,12.8191,-10.1052,5360.77,2967.17,8355.12,49.6257,437.711,-182.603,490.856,8899.53,-1787.26,2.28475,-20.7314,-43.8213,3308.78,-8455.99,465.517,-69.3414,-0.192131,-348.428,-12035.0,-6568.52,-2014.24,19.0733,61.9019,-119.186,3739.97,8535.31,-2554.89,39.2698,-42.2855,-117.31,8170.17,774.433,941.671,-32.9263,22.0493,-12.6766
3.12,4645.08,-2934.46,7900.13,-2.02948,12.9808,-9.92107,5272.32,2975.23,8370.08,48.7386,436.218,-182.39,451.091,8860.02,-1767.04,2.4674,-20.0818,-44.2567,3372.23,-8597.3,490.356,-69.4052,0.537933,-349.97,-11967.0,-6577.56,-1795.5,20.0116,58.7509,-119.322,3716.24,8574.54,-2592.56,39.1934,-38.7123,-117.411,8233.27,719.694,897.151,-32.6984,21.4731,-12.0434
3.121,4595.97,-2936.9,7947.95,-1.96514,12.9237,-9.75025,5263.9,3058.95,8401.44,48.3476,434.732,-182.029,428.123,8901.38,-1751.49,2.45979,-19.7574,-44.7075,3417.8,-8730.15,515.945,-69.5721,1.31315,-351.563,-11836.7,-6558.5,-1663.94,21.3969,54.9502,-119.551,3638.87,8633.67,-2591.88,39.3452,-35.104,-116.957,8265.2,671.267,887.192,-32.4095,21.0722,-11.586
3.122,4546.86,-2939.35,7995.76,-1.90079,12.8666,-9.57942,5255.48,3142.67,8432.8,47.9566,433.245,-181.668,405.155,8942.75,-1735.94,2.45219,-19.433,-45.1583,3463.37,-8863.0,541.533,-69.7391,2.08836,-353.156,-11706.4,-6539.45,-1532.37,22.7822,51.1494,-119.78,3561.49,8692.8,-2591.2,39.4969,-31.4957,-116.502,8297.14,622.839,877.234,-32.1206,20.6713,-11.1287
3.123,4497.75,-2941.79,8043.58,-1.83644,12.8096,-9.4086,5247.06,3226.39,8464.17,47.5655,431.758,-181.307,382.187,8984.11,-1720.39,2.44458,-19.1085,-45.6091,3508.94,-8995.86,567.121,-69.9061,2.86358,-354.75,-11576.1,-6520.4,-1400.81,24.1675,47.3487,-120.009,3484.12,8751.93,-2590.52,39.6487,-27.8874,-116.048,8329.07,574.411,867.275,-31.8317,20.2705,-10.6714
3.124,4448.63,-2944.24,8091.4,-1.7721,12.7525,-9.23778,5238.64,3310.11,8495.53,47.1745,430.271,-180.946,359.219,9025.47,-1704.84,2.43698,-18.7841,-46.0599,3554.51,-9128.71,592.709,-70.073,3.63879,-356.343,-11445.7,-6501.35,-1269.25,25.5528,43.5479,-120.238,3406.75,8811.06,-2589.84,39.8004,-24.2791,-115.593,8361.01,525.983,857.316,-31.5428,19.8696,-10.214
3.125,4427.96,-2920.08,8113.86,-1.80892,12.7297,-9.13916,5240.18,3400.51,8556.13,46.4483,428.465,-180.857,332.981,9074.5,-1680.56,2.47075,-18.6173,-46.3939,3577.78,-9249.83,618.323,-70.2059,4.56122,-357.767,-11319.3,-6488.29,-1180.88,26.8366,39.5878,-120.288,3318.86,8897.66,-2548.2,39.7585,-20.967,-114.816,8382.26,476.494,835.001,-31.218,19.4677,-9.8347
3.126,4430.02,-2874.63,8116.05,-1.92668,12.7344,-9.09832,5249.68,3496.26,8640.11,45.4538,426.404,-180.988,304.127,9129.67,-1649.3,2.53763,-18.5766,-46.6346,3583.21,-9361.57,643.958,-70.3115,5.60142,-359.054,-11195.9,-6480.03,-1127.06,28.0391,35.5002,-120.195,3222.57,9006.22,-2473.78,39.5618,-17.892,-113.781,8394.97,426.157,802.801,-30.8645,19.065,-9.51774
3.127,4432.09,-2829.18,8118.23,-2.04444,12.7391,-9.05747,5259.18,3592.0,8724.1,44.4594,424.342,-181.118,275.274,9184.84,-1618.04,2.60451,-18.5358,-46.8753,3588.64,-9473.31,669.593,-70.4171,6.64161,-360.342,-11072.5,-6471.76,-1073.24,29.2416,31.4126,-120.101,3126.28,9114.78,-2399.35,39.365,-14.8169,-112.746,8407.69,375.819,770.601,-30.5109,18.6622,-9.20078
3.128,4434.16,-2783.73,8120.41,-2.16219,12.7438,-9.01663,5268.68,3687.75,8808.08,43.4649,422.281,-181.248,246.42,9240.01,-1586.78,2.67138,-18.4951,-47.116,3594.06,-9585.06,695.227,-70.5227,7.6818,-361.63,-10949.1,-6463.5,-1019.43,30.4441,27.325,-120.008,3029.99,9223.35,-2324.93,39.1682,-11.7419,-111.71,8420.4,325.481,738.401,-30.1574,18.2595,-8.88382
3.129,4434.63,-2742.98,8123.1,-2.27663,12.7397,-8.94477,5280.74,3790.37,8896.49,42.3136,420.162,-181.395,220.623,9297.07,-1557.74,2.73794,-18.4998,-47.3667,3595.97,-9702.58,721.807,-70.6223,8.76588,-362.917,-10830.4,-6450.91,-970.669,31.6144,23.2094,-119.896,2929.34,9331.02,-2243.63,38.9349,-8.78739,-110.673,8434.24,276.873,709.403,-29.8253,17.8515,-8.59017
3.13,4422.31,-2739.76,8129.8,-2.36454,12.6646,-8.62482,5313.26,3948.04,9020.29,39.9073,417.585,-181.674,219.272,9369.17,-1546.49,2.80189,-18.8677,-47.6965,3569.67,-9866.4,755.94,-70.6735,10.201,-364.203,-10749.3,-6403.68,-962.361,32.5269,18.8695,-119.639,2793.87,9431.61,-2107.24,38.4089,-6.79736,-109.619,8457.15,242.097,706.023,-29.665,17.4017,-8.48296
3.131,4409.99,-2736.54,8136.51,-2.45244,12.5895,-8.30487,5345.78,4105.7,9144.08,37.501,415.007,-181.953,217.921,9441.27,-1535.23,2.86584,-19.2356,-48.0264,3543.36,-10030.2,790.074,-70.7247,11.6361,-365.488,-10668.1,-6356.46,-954.053,33.4393,14.5296,-119.382,2658.39,9532.2,-1970.86,37.8829,-4.80733,-108.566,8480.06,207.321,702.643,-29.5047,16.9518,-8.37576
3.132,4397.67,-2733.32,8143.21,-2.54034,12.5145,-7.98492,5378.29,4263.36,9267.87,35.0947,412.43,-182.232,216.571,9513.37,-1523.98,2.92979,-19.6035,-48.3563,3517.06,-10194.0,824.207,-70.7759,13.0712,-366.773,-10587.0,-6309.23,-945.745,34.3518,10.1897,-119.125,2522.92,9632.79,-1834.47,37.3569,-2.81731,-107.512,8502.96,172.545,699.264,-29.3444,16.502,-8.26856
3.133,4385.35,-2730.11,8149.91,-2.62825,12.4394,-7.66498,5410.81,4421.02,9391.67,32.6883,409.852,-182.511,215.22,9585.47,-1512.73,2.99374,-19.9713,-48.6861,3490.76,-10357.9,858.341,-70.8272,14.5063,-368.059,-10505.8,-6262.0,-937.438,35.2642,5.84977,-118.868,2387.44,9733.38,-1698.08,36.8309,-0.827281,-106.458,8525.87,137.769,695.884,-29.1841,16.0521,-8.16136
3.134,4357.03,-2755.3,8156.56,-2.8672,12.2904,-7.63546,5475.86,4594.68,9489.4,30.6881,407.502,-182.816,217.881,9662.71,-1515.11,3.02307,-20.5017,-48.9936,3498.38,-10530.1,884.043,-70.8582,16.2217,-369.328,-10436.4,-6205.23,-980.128,35.6145,1.25274,-118.464,2256.32,9798.59,-1548.46,36.4361,0.254231,-105.506,8512.95,112.706,698.307,-29.2548,15.7917,-8.07699
3.135,4320.7,-2794.7,8163.17,-3.18168,12.1044,-7.75115,5557.16,4776.33,9574.11,28.8908,405.266,-183.133,222.549,9742.53,-1524.31,3.03509,-21.1133,-49.2899,3522.96,-10706.6,905.53,-70.8791,18.0773,-370.59,-10372.8,-6143.68,-1048.32,35.6836,-3.47287,-117.986,2127.37,9846.12,-1392.21,36.1068,0.881486,-104.606,8482.12,92.4985,703.631,-29.441,15.6261,-8.00404
3.136,4284.37,-2834.09,8169.78,-3.49616,11.9184,-7.86684,5638.47,4957.98,9658.81,27.0936,403.029,-183.45,227.216,9822.35,-1533.51,3.04711,-21.7249,-49.5862,3547.53,-10883.1,927.018,-70.9,19.9329,-371.851,-10309.2,-6082.13,-1116.51,35.7527,-8.19848,-117.508,1998.41,9893.65,-1235.96,35.7774,1.50874,-103.705,8451.29,72.2914,708.955,-29.6273,15.4605,-7.93108
3.137,4248.04,-2873.49,8176.39,-3.81064,11.7324,-7.98254,5719.78,5139.64,9743.52,25.2963,400.793,-183.766,231.883,9902.17,-1542.71,3.05913,-22.3365,-49.8825,3572.11,-11059.5,948.505,-70.921,21.7885,-373.113,-10245.6,-6020.58,-1184.7,35.8218,-12.9241,-117.031,1869.46,9941.18,-1079.71,35.4481,2.136,-102.804,8420.46,52.0842,714.279,-29.8135,15.2949,-7.85813
3.138,4221.73,-2906.09,8190.24,-4.10036,11.5503,-8.07468,5810.14,5317.54,9841.9,23.413,398.522,-184.218,227.247,9971.95,-1550.36,3.09923,-22.97,-50.1808,3597.16,-11233.3,962.605,-70.9434,23.7553,-374.355,-10177.7,-5952.09,-1238.1,35.7374,-17.6404,-116.473,1734.44,9982.42,-926.395,35.2094,2.503,-101.924,8397.55,32.3023,709.567,-30.0459,15.1035,-7.80666
3.139,4230.52,-2914.91,8229.39,-4.30339,11.3821,-8.08438,5932.17,5482.32,9988.19,21.2284,396.13,-185.142,190.05,10006.6,-1552.58,3.23763,-23.6802,-50.4865,3623.87,-11397.9,950.854,-70.9709,26.1116,-375.533,-10094.5,-5859.32,-1239.73,35.1158,-22.3243,-115.636,1578.17,10001.7,-783.363,35.288,1.95912,-101.115,8402.36,14.0083,669.732,-30.4397,14.8219,-7.83041
3.14,4239.31,-2923.73,8268.54,-4.50642,11.2138,-8.09409,6054.2,5647.1,10134.5,19.0438,393.739,-186.065,152.852,10041.2,-1554.8,3.37602,-24.3903,-50.7921,3650.57,-11562.4,939.103,-70.9984,28.4679,-376.711,-10011.2,-5766.56,-1241.36,34.4941,-27.0082,-114.799,1421.9,10020.9,-640.331,35.3665,1.41524,-100.306,8407.18,-4.28569,629.897,-30.8336,14.5403,-7.85415
3.141,4248.1,-2932.54,8307.69,-4.70946,11.0456,-8.1038,6176.23,5811.89,10280.8,16.8592,391.348,-186.989,115.654,10075.8,-1557.03,3.51442,-25.1005,-51.0978,3677.27,-11726.9,927.351,-71.0259,30.8242,-377.889,-9927.99,-5673.79,-1242.99,33.8725,-31.6922,-113.963,1265.63,10040.1,-497.298,35.445,0.871364,-99.4973,8411.99,-22.5797,590.062,-31.2274,14.2587,-7.87789
3.142,4256.89,-2941.36,8346.84,-4.91249,10.8774,-8.1135,6298.26,5976.67,10427.0,14.6746,388.956,-187.913,78.4563,10110.5,-1559.25,3.65281,-25.8106,-51.4034,3703.98,-11891.5,915.6,-71.0534,33.1805,-379.067,-9844.76,-5581.02,-1244.62,33.2509,-36.3761,-113.126,1109.36,10059.4,-354.266,35.5235,0.327485,-98.6884,8416.8,-40.8736,550.226,-31.6212,13.9771,-7.90164
3.143,4216.06,-2944.39,8404.54,-5.30273,10.6901,-8.30973,6431.48,6138.1,10568.4,12.4343,386.662,-189.092,63.7132,10153.9,-1565.04,3.68149,-26.6952,-51.7015,3660.26,-12073.5,913.503,-70.9473,35.7311,-380.202,-9794.5,-5527.7,-1261.66,32.7446,-40.804,-111.836,960.12,10070.6,-258.805,36.0186,-1.20633,-98.0115,8392.95,-52.3466,579.835,-31.739,13.7984,-8.0392
3.144,4161.05,-2945.77,8467.55,-5.74645,10.4974,-8.55924,6567.9,6298.56,10708.3,10.1783,384.396,-190.344,55.3856,10199.8,-1571.86,3.67881,-27.6295,-51.9975,3596.43,-12260.6,914.165,-70.8029,38.3372,-381.324,-9753.66,-5485.66,-1283.09,32.2712,-45.1588,-110.418,812.893,10079.6,-176.935,36.6328,-3.02298,-97.3722,8360.9,-61.8707,629.285,-31.778,13.6489,-8.20929
3.145,4106.04,-2947.15,8530.56,-6.19017,10.3046,-8.80875,6704.32,6459.03,10848.2,7.92217,382.13,-191.595,47.058,10245.7,-1578.68,3.67613,-28.5639,-52.2934,3532.6,-12447.7,914.827,-70.6586,40.9433,-382.446,-9712.82,-5443.61,-1304.53,31.7978,-49.5137,-108.999,665.666,10088.5,-95.066,37.247,-4.83964,-96.7329,8328.85,-71.3948,678.735,-31.817,13.4995,-8.37938
3.146,4051.03,-2948.53,8593.56,-6.6339,10.1119,-9.05827,6840.74,6619.5,10988.1,5.66608,379.864,-192.847,38.7304,10291.6,-1585.5,3.67345,-29.4982,-52.5893,3468.77,-12634.7,915.49,-70.5142,43.5495,-383.568,-9671.98,-5401.56,-1325.97,31.3245,-53.8685,-107.58,518.439,10097.5,-13.1967,37.8611,-6.65629,-96.0936,8296.8,-80.9189,728.185,-31.856,13.3501,-8.54947
3.147,4017.68,-2947.38,8630.93,-7.02035,9.92753,-9.25494,6993.65,6742.08,11115.1,3.45679,377.651,-194.512,29.4543,10325.9,-1586.54,3.65971,-30.4225,-52.8709,3370.17,-12828.6,915.228,-70.2802,46.1139,-384.617,-9622.42,-5377.87,-1372.32,31.1704,-57.6492,-106.168,383.322,10112.7,47.0199,38.5191,-8.81969,-95.5344,8258.5,-72.6954,768.188,-31.8781,13.0915,-8.64013
3.148,4027.65,-2941.18,8617.03,-7.29228,9.75987,-9.34594,7179.56,6788.89,11216.2,1.34111,375.541,-197.001,18.281,10337.1,-1576.03,3.62383,-31.3268,-53.1237,3202.02,-13036.2,913.12,-69.867,48.5948,-385.519,-9555.4,-5390.88,-1468.49,31.6551,-60.2816,-104.768,272.422,10140.4,63.931,39.2647,-11.6766,-95.1351,8207.69,-28.9764,789.295,-31.8666,12.6146,-8.57193
3.149,4037.62,-2934.97,8603.13,-7.56422,9.59221,-9.43693,7365.47,6835.7,11317.2,-0.774581,373.432,-199.491,7.10766,10348.3,-1565.52,3.58795,-32.231,-53.3764,3033.88,-13243.7,911.013,-69.4538,51.0758,-386.421,-9488.38,-5403.9,-1564.66,32.1397,-62.914,-103.368,161.523,10168.1,80.8421,40.0102,-14.5335,-94.7359,8156.87,14.7425,810.403,-31.8551,12.1377,-8.50373
3.15,4047.59,-2928.77,8589.23,-7.83615,9.42455,-9.52793,7551.38,6882.5,11418.3,-2.89027,371.322,-201.98,-4.06565,10359.4,-1555.01,3.55207,-33.1352,-53.6292,2865.74,-13451.2,908.905,-69.0406,53.5567,-387.323,-9421.36,-5416.91,-1660.83,32.6244,-65.5464,-101.969,50.6241,10195.8,97.7532,40.7558,-17.3904,-94.3367,8106.06,58.4615,831.511,-31.8436,11.6608,-8.43552
3.151,4057.56,-2922.57,8575.32,-8.10808,9.2569,-9.61893,7737.29,6929.31,11519.3,-5.00596,369.213,-204.469,-15.239,10370.6,-1544.49,3.51619,-34.0394,-53.882,2697.59,-13658.7,906.797,-68.6273,56.0377,-388.226,-9354.34,-5429.93,-1757.0,33.109,-68.1789,-100.569,-60.2751,10223.5,114.664,41.5013,-20.2473,-93.9374,8055.24,102.18,852.618,-31.8321,11.1839,-8.36732
3.152,4059.98,-2895.48,8573.27,-8.42028,8.99488,-9.66724,7978.35,6890.77,11593.5,-6.34604,367.336,-207.655,-10.0582,10356.2,-1524.24,3.56641,-34.8613,-54.1045,2470.65,-13883.8,910.809,-67.8757,58.0488,-388.879,-9343.65,-5499.38,-1805.93,34.6722,-68.8202,-99.0994,-148.163,10251.8,94.6219,41.9934,-23.5143,-93.6094,8025.87,105.193,862.137,-31.9159,10.6963,-8.32663
3.153,4061.46,-2865.79,8572.7,-8.73752,8.72108,-9.71022,8226.3,6841.56,11664.4,-7.58918,365.489,-210.928,-2.83321,10338.5,-1502.77,3.62739,-35.673,-54.3233,2236.36,-14111.1,915.586,-67.0817,60.0011,-389.502,-9339.99,-5575.88,-1848.95,36.3702,-69.2128,-97.6212,-233.174,10280.2,69.9603,42.4537,-26.8326,-93.2902,7999.18,103.116,870.207,-32.0115,10.2073,-8.28938
3.154,4062.94,-2836.09,8572.13,-9.05476,8.44727,-9.7532,8474.26,6792.36,11735.3,-8.83232,363.642,-214.201,4.3918,10320.8,-1481.3,3.68838,-36.4847,-54.542,2002.06,-14338.4,920.363,-66.2877,61.9535,-390.124,-9336.34,-5652.39,-1891.98,38.0683,-69.6053,-96.1429,-318.185,10308.5,45.2986,42.9141,-30.151,-92.971,7972.49,101.04,878.276,-32.1072,9.71829,-8.25212
3.155,4064.42,-2806.4,8571.56,-9.372,8.17347,-9.79618,8722.21,6743.15,11806.2,-10.0755,361.794,-217.474,11.6168,10303.2,-1459.83,3.74936,-37.2963,-54.7608,1767.77,-14565.7,925.14,-65.4937,63.9059,-390.747,-9332.69,-5728.89,-1935.0,39.7663,-69.9978,-94.6646,-403.197,10336.9,20.637,43.3745,-33.4693,-92.6518,7945.8,98.9637,886.346,-32.2028,9.22929,-8.21487
3.156,4082.28,-2809.46,8559.89,-9.68402,7.92215,-9.79034,8981.22,6693.25,11876.0,-11.1419,360.037,-220.781,17.2331,10297.3,-1455.66,3.77374,-37.9619,-54.9968,1548.03,-14797.6,959.316,-64.6962,65.5588,-391.347,-9352.3,-5781.81,-1923.99,41.7314,-70.0858,-93.3345,-462.689,10360.1,-20.1582,43.5881,-36.7405,-92.2577,7922.04,111.266,902.336,-32.2723,8.759,-8.09034
3.157,4120.61,-2853.46,8534.35,-9.98952,7.69895,-9.72348,9254.04,6642.5,11944.7,-11.9875,358.391,-224.132,20.8385,10306.2,-1473.11,3.75236,-38.445,-55.2544,1346.48,-15035.3,1030.24,-63.8943,66.8375,-391.918,-9400.98,-5805.25,-1845.45,44.0306,-69.7931,-92.1895,-490.281,10376.9,-81.1203,43.4934,-39.953,-91.7697,7901.94,141.54,928.227,-32.3092,8.31207,-7.85669
3.158,4158.95,-2897.47,8508.82,-10.295,7.47575,-9.65661,9526.86,6591.75,12013.3,-12.833,356.746,-227.482,24.4439,10315.1,-1490.55,3.73098,-38.928,-55.5119,1144.94,-15273.1,1101.17,-63.0924,68.1162,-392.49,-9449.66,-5828.7,-1766.9,46.3297,-69.5005,-91.0445,-517.874,10393.6,-142.082,43.3986,-43.1654,-91.2818,7881.84,171.814,954.118,-32.3461,7.86514,-7.62305
3.159,4197.28,-2941.48,8483.28,-10.6005,7.25255,-9.58975,9799.68,6540.99,12081.9,-13.6786,355.101,-230.833,28.0493,10324.0,-1508.0,3.7096,-39.411,-55.7695,943.394,-15510.8,1172.09,-62.2904,69.3949,-393.061,-9498.34,-5852.14,-1688.36,48.6289,-69.2079,-89.8995,-545.467,10410.4,-203.045,43.3039,-46.3778,-90.7939,7861.74,202.089,980.009,-32.3829,7.41821,-7.38941
3.16,4235.61,-2985.48,8457.74,-10.906,7.02935,-9.52289,10072.5,6490.24,12150.6,-14.5241,353.455,-234.184,31.6547,10332.9,-1525.45,3.68822,-39.894,-56.0271,741.849,-15748.5,1243.02,-61.4885,70.6736,-393.633,-9547.02,-5875.58,-1609.81,50.928,-68.9152,-88.7545,-573.059,10427.2,-264.007,43.2091,-49.5902,-90.3059,7841.64,232.363,1005.9,-32.4198,6.97127,-7.15576
3.161,4240.39,-2970.99,8475.7,-11.1701,6.46483,-9.56315,10345.2,6551.37,12234.2,-15.1544,351.663,-237.002,39.219,10339.9,-1563.45,3.67674,-40.1279,-56.3079,620.823,-15928.2,1310.42,-61.0587,71.5024,-393.868,-9533.87,-5876.95,-1420.66,53.1676,-69.8388,-88.466,-504.071,10439.3,-360.807,42.6563,-52.1657,-89.9544,7809.63,265.485,1032.22,-32.6817,6.43633,-6.7642
3.162,4245.17,-2956.49,8493.66,-11.4342,5.90031,-9.60341,10617.9,6612.5,12317.8,-15.7848,349.871,-239.821,46.7833,10346.9,-1601.46,3.66526,-40.3618,-56.5888,499.797,-16107.8,1377.82,-60.6289,72.3312,-394.103,-9520.72,-5878.32,-1231.51,55.4072,-70.7624,-88.1774,-435.083,10451.5,-457.607,42.1034,-54.7412,-89.6028,7777.62,298.606,1058.55,-32.9435,5.90139,-6.37263
3.163,4249.95,-2942.0,8511.62,-11.6982,5.33579,-9.64367,10890.5,6673.63,12401.4,-16.4151,348.078,-242.639,54.3477,10353.9,-1639.46,3.65378,-40.5956,-56.8696,378.771,-16287.4,1445.23,-60.1991,73.16,-394.338,-9507.58,-5879.69,-1042.36,57.6469,-71.686,-87.8888,-366.095,10463.6,-554.407,41.5505,-57.3166,-89.2512,7745.62,331.727,1084.87,-33.2054,5.36645,-5.98107
3.164,4254.73,-2927.5,8529.58,-11.9623,4.77127,-9.68393,11163.2,6734.75,12485.0,-17.0454,346.286,-245.457,61.912,10360.9,-1677.46,3.6423,-40.8295,-57.1505,257.745,-16467.0,1512.63,-59.7693,73.9888,-394.573,-9494.43,-5881.06,-853.213,59.8865,-72.6096,-87.6003,-297.106,10475.8,-651.207,40.9977,-59.8921,-88.8996,7713.61,364.849,1111.19,-33.4673,4.83151,-5.5895
3.165,4257.89,-2890.21,8557.45,-12.1882,4.37963,-9.7168,11392.8,6837.55,12535.0,-17.5652,344.29,-248.045,78.7809,10367.9,-1707.99,3.63331,-41.0578,-57.4411,148.573,-16652.5,1527.49,-59.338,74.8408,-394.802,-9438.97,-5865.31,-647.206,61.5414,-74.4549,-87.5924,-195.244,10479.3,-756.486,40.3571,-61.9336,-88.5667,7699.61,399.624,1152.7,-33.7254,4.12675,-5.15906
3.166,4259.77,-2834.7,8593.24,-12.3836,4.12631,-9.74376,11588.0,6973.68,12558.1,-17.9967,342.131,-250.448,103.093,10374.8,-1732.55,3.62631,-41.2816,-57.7395,48.8851,-16842.7,1500.31,-58.9056,75.7115,-395.025,-9349.67,-5835.85,-427.713,62.7286,-77.0375,-87.8091,-67.0823,10476.1,-868.548,39.6463,-63.5479,-88.2489,7700.02,435.722,1206.35,-33.9807,3.28614,-4.69751
3.167,4261.64,-2779.18,8629.03,-12.579,3.87298,-9.77072,11783.1,7109.81,12581.2,-18.4281,339.973,-252.852,127.406,10381.7,-1757.1,3.61931,-41.5055,-58.038,-50.8031,-17032.9,1473.14,-58.4732,76.5821,-395.249,-9260.38,-5806.4,-208.221,63.9157,-79.6201,-88.0258,61.0793,10472.8,-980.61,38.9355,-65.1621,-87.9311,7700.43,471.82,1260.01,-34.2359,2.44554,-4.23596
3.168,4263.51,-2723.66,8664.82,-12.7744,3.61966,-9.79768,11978.3,7245.94,12604.2,-18.8596,337.814,-255.255,151.719,10388.6,-1781.66,3.61231,-41.7293,-58.3364,-150.491,-17223.0,1445.97,-58.0408,77.4527,-395.473,-9171.08,-5776.95,11.2718,65.1029,-82.2027,-88.2425,189.241,10469.5,-1092.67,38.2247,-66.7764,-87.6132,7700.83,507.918,1313.66,-34.4912,1.60493,-3.77442
3.169,4261.43,-2681.58,8699.17,-12.9832,3.32658,-9.815,12161.0,7380.15,12633.9,-19.3085,335.586,-257.636,174.76,10397.7,-1807.88,3.59527,-41.9597,-58.6384,-249.662,-17416.1,1409.12,-57.6071,78.4059,-395.711,-9069.57,-5732.67,221.022,66.1954,-84.9498,-88.445,319.118,10464.1,-1202.32,37.5188,-68.2989,-87.3011,7702.93,540.822,1365.53,-34.774,0.75305,-3.29339
3.17,4227.69,-2746.98,8722.02,-13.2989,2.71543,-9.7552,12244.4,7499.07,12716.7,-19.8972,332.8,-259.846,187.637,10425.0,-1847.47,3.49791,-42.2422,-58.9685,-344.697,-17631.9,1294.94,-57.1625,80.0189,-396.061,-8870.33,-5569.87,352.834,66.5306,-89.0131,-88.5339,462.715,10441.6,-1292.7,36.8514,-69.0869,-87.0352,7718.51,548.169,1403.09,-35.2771,-0.189012,-2.65653
3.171,4193.95,-2812.38,8744.88,-13.6146,2.10428,-9.6954,12327.7,7618.0,12799.4,-20.486,330.014,-262.055,200.514,10452.3,-1887.06,3.40055,-42.5247,-59.2986,-439.733,-17847.8,1180.75,-56.718,81.632,-396.411,-8671.08,-5407.06,484.646,66.8658,-93.0763,-88.6227,606.312,10419.2,-1383.07,36.1841,-69.8749,-86.7692,7734.09,555.517,1440.66,-35.7803,-1.13107,-2.01967
3.172,4160.21,-2877.78,8767.73,-13.9303,1.49313,-9.6356,12411.0,7736.92,12882.2,-21.0747,327.228,-264.264,213.391,10479.5,-1926.64,3.30319,-42.8072,-59.6287,-534.768,-18063.6,1066.56,-56.2734,83.2451,-396.762,-8471.84,-5244.25,616.458,67.201,-97.1396,-88.7116,749.91,10396.7,-1473.44,35.5167,-70.6629,-86.5033,7749.67,562.864,1478.22,-36.2835,-2.07313,-1.38281
3.173,4126.47,-2943.19,8790.58,-14.246,0.881988,-9.5758,12494.3,7855.84,12964.9,-21.6635,324.442,-266.473,226.268,10506.8,-1966.23,3.20582,-43.0897,-59.9588,-629.803,-18279.5,952.368,-55.8288,84.8581,-397.112,-8272.6,-5081.44,748.27,67.5363,-101.203,-88.8005,893.507,10374.2,-1563.81,34.8494,-71.451,-86.2374,7765.25,570.212,1515.79,-36.7866,-3.0152,-0.74595
3.174,4131.86,-3048.51,8776.22,-14.4493,0.242544,-9.85581,12593.9,7933.36,13035.7,-22.4718,321.22,-268.794,240.161,10535.2,-2028.85,3.16899,-43.3104,-60.3575,-759.915,-18492.9,799.285,-55.3527,86.7703,-397.38,-8054.06,-4923.04,794.419,66.7743,-105.298,-88.7706,1021.46,10350.7,-1654.72,34.2902,-71.8005,-86.1782,7774.35,596.43,1584.86,-37.0493,-4.0775,-0.159187
3.175,4156.81,-3173.8,8743.24,-14.5964,-0.411049,-10.3057,12701.6,7990.18,13100.4,-23.39,317.779,-271.171,254.563,10564.1,-2102.97,3.16242,-43.5003,-60.7906,-907.565,-18705.0,626.754,-54.8607,88.8321,-397.606,-7825.86,-4766.85,797.736,65.4636,-109.409,-88.6813,1141.58,10326.7,-1745.9,33.785,-71.9307,-86.2224,7780.21,632.083,1669.68,-37.1917,-5.19993,0.402527
3.176,4181.77,-3299.09,8710.26,-14.7436,-1.06464,-10.7557,12809.3,8047.0,13165.1,-24.3081,314.338,-273.548,268.964,10593.0,-2177.1,3.15585,-43.6901,-61.2238,-1055.22,-18917.1,454.224,-54.3688,90.8939,-397.833,-7597.66,-4610.66,801.054,64.153,-113.52,-88.592,1261.7,10302.8,-1837.07,33.2799,-72.061,-86.2666,7786.08,667.737,1754.5,-37.3342,-6.32236,0.964242
3.177,4206.72,-3424.37,8677.28,-14.8907,-1.71823,-11.2056,12917.1,8103.82,13229.9,-25.2263,310.897,-275.925,283.365,10622.0,-2251.23,3.14928,-43.8799,-61.6569,-1202.87,-19129.2,281.693,-53.8768,92.9556,-398.06,-7369.46,-4454.46,804.371,62.8424,-117.631,-88.5028,1381.83,10278.8,-1928.25,32.7747,-72.1912,-86.3107,7791.94,703.39,1839.32,-37.4766,-7.44478,1.52596
3.178,4238.27,-3533.45,8658.16,-15.1031,-2.38356,-11.699,13048.9,8155.68,13291.2,-26.0537,307.477,-278.324,298.775,10650.8,-2326.59,3.11904,-44.0828,-62.0892,-1370.73,-19352.0,119.997,-53.3541,94.9597,-398.236,-7133.39,-4302.89,784.0,61.2332,-121.613,-88.3285,1492.94,10258.2,-2015.25,32.3227,-72.2542,-86.406,7800.69,738.227,1917.6,-37.5955,-8.65134,2.10163
3.179,4292.87,-3585.76,8687.56,-15.544,-3.08995,-12.3444,13265.0,8190.18,13340.8,-26.5638,304.13,-280.804,317.718,10679.2,-2406.27,3.00595,-44.3312,-62.519,-1609.36,-19612.0,-3.77475,-52.7237,96.762,-398.238,-6869.79,-4167.5,680.719,58.5787,-125.141,-87.8564,1572.51,10249.6,-2087.6,32.0566,-72.0814,-86.6798,7819.54,770.206,1973.01,-37.6319,-10.1523,2.72618
3.18,4347.48,-3638.08,8716.95,-15.9849,-3.79634,-12.9899,13481.1,8224.67,13390.4,-27.0739,300.782,-283.284,336.661,10707.6,-2485.95,2.89286,-44.5795,-62.9489,-1847.99,-19871.9,-127.547,-52.0933,98.5642,-398.239,-6606.19,-4032.11,577.438,55.9242,-128.669,-87.3844,1652.08,10241.0,-2159.96,31.7906,-71.9087,-86.9536,7838.4,802.185,2028.42,-37.6682,-11.6533,3.35072
3.181,4402.08,-3690.4,8746.34,-16.4258,-4.50273,-13.6353,13697.2,8259.16,13440.0,-27.584,297.435,-285.763,355.604,10736.0,-2565.63,2.77977,-44.8279,-63.3787,-2086.62,-20131.9,-251.319,-51.4629,100.366,-398.241,-6342.59,-3896.72,474.157,53.2697,-132.197,-86.9124,1731.65,10232.4,-2232.32,31.5245,-71.736,-87.2274,7857.25,834.164,2083.83,-37.7045,-13.1543,3.97527
3.182,4456.68,-3742.72,8775.73,-16.8667,-5.20912,-14.2808,13913.3,8293.65,13489.6,-28.0941,294.087,-288.243,374.548,10764.4,-2645.3,2.66668,-45.0763,-63.8085,-2325.25,-20391.9,-375.091,-50.8325,102.169,-398.243,-6078.99,-3761.33,370.876,50.6152,-135.725,-86.4404,1811.22,10223.8,-2304.68,31.2584,-71.5633,-87.5012,7876.11,866.142,2139.24,-37.7409,-14.6553,4.59981
3.183,4432.69,-3736.71,8803.95,-17.5155,-5.90438,-14.8051,14241.7,8308.66,13530.0,-28.9487,290.791,-290.154,372.809,10810.2,-2710.89,2.56804,-45.456,-64.1319,-2638.75,-20645.2,-465.924,-49.9341,103.498,-397.977,-5794.44,-3603.13,254.03,47.0719,-138.378,-85.3223,1881.77,10236.6,-2326.79,31.1161,-71.588,-87.8647,7884.21,885.392,2170.74,-37.5539,-16.2798,5.21571
3.184,4386.25,-3714.03,8831.83,-18.2237,-6.59646,-15.2947,14602.3,8318.09,13567.7,-29.9016,287.51,-291.903,365.16,10861.0,-2772.46,2.47353,-45.8733,-64.425,-2973.64,-20896.6,-547.346,-48.9592,104.691,-397.635,-5503.91,-3438.4,133.307,43.2747,-140.78,-84.0196,1949.75,10255.6,-2334.53,31.0091,-71.6693,-88.2538,7889.23,901.004,2195.4,-37.303,-17.9396,5.82913
3.185,4339.81,-3691.35,8859.72,-18.9318,-7.28855,-15.7844,14962.9,8327.53,13605.5,-30.8546,284.23,-293.652,357.512,10911.8,-2834.02,2.37901,-46.2906,-64.7181,-3308.52,-21148.1,-628.768,-47.9843,105.885,-397.292,-5213.38,-3273.68,12.5846,39.4775,-143.183,-82.717,2017.72,10274.5,-2342.28,30.9021,-71.7505,-88.6429,7894.25,916.616,2220.07,-37.0522,-19.5994,6.44256
3.186,4293.36,-3668.67,8887.6,-19.64,-7.98063,-16.274,15323.5,8336.96,13643.2,-31.8075,280.949,-295.4,349.864,10962.6,-2895.58,2.2845,-46.7078,-65.0111,-3643.41,-21399.5,-710.19,-47.0094,107.079,-396.95,-4922.85,-3108.95,-108.138,35.6803,-145.585,-81.4143,2085.69,10293.5,-2350.02,30.7952,-71.8317,-89.032,7899.27,932.229,2244.74,-36.8014,-21.2591,7.05599
3.187,4256.04,-3669.41,8903.81,-20.3716,-8.74603,-16.8024,15710.5,8345.79,13690.6,-32.7752,277.664,-296.998,335.972,11014.6,-2973.71,2.32912,-47.2437,-65.2878,-4011.64,-21653.8,-787.05,-45.9987,108.041,-396.479,-4612.79,-2980.36,-236.4,31.6456,-147.582,-79.9284,2142.76,10331.7,-2347.87,30.6906,-71.9738,-89.4157,7911.15,947.256,2253.58,-36.4463,-22.8671,7.63996
3.188,4236.94,-3716.98,8896.67,-21.1502,-9.65805,-17.4085,16150.4,8353.38,13757.5,-33.7723,274.372,-298.295,309.594,11068.9,-3084.95,2.65198,-48.0169,-65.5315,-4446.55,-21913.8,-854.786,-44.9161,108.543,-395.751,-4263.69,-2924.03,-379.741,27.1358,-148.767,-78.076,2178.02,10408.4,-2325.92,30.5908,-72.238,-89.7886,7936.75,961.112,2230.78,-35.8827,-24.3713,8.16502
3.189,4217.85,-3764.56,8889.54,-21.9287,-10.5701,-18.0145,16590.2,8360.97,13824.3,-34.7693,271.08,-299.591,283.216,11123.3,-3196.2,2.97484,-48.7901,-65.7752,-4881.46,-22173.8,-922.522,-43.8336,109.044,-395.023,-3914.58,-2867.7,-523.082,22.626,-149.952,-76.2236,2213.28,10485.1,-2303.97,30.4911,-72.5021,-90.1615,7962.34,974.968,2207.97,-35.3192,-25.8755,8.69009
3.19,4198.76,-3812.13,8882.4,-22.7072,-11.4821,-18.6206,17030.0,8368.56,13891.1,-35.7664,267.788,-300.888,256.837,11177.6,-3307.44,3.29771,-49.5633,-66.0189,-5316.37,-22433.8,-990.259,-42.7511,109.545,-394.295,-3565.48,-2811.38,-666.423,18.1162,-151.137,-74.3711,2248.54,10561.9,-2282.01,30.3913,-72.7663,-90.5344,7987.94,988.825,2185.16,-34.7556,-27.3797,9.21515
3.191,4179.67,-3859.71,8875.26,-23.4858,-12.3941,-19.2266,17469.8,8376.15,13957.9,-36.7634,264.496,-302.184,230.459,11232.0,-3418.68,3.62057,-50.3365,-66.2626,-5751.28,-22693.8,-1058.0,-41.6686,110.046,-393.567,-3216.37,-2755.05,-809.764,13.6064,-152.322,-72.5187,2283.8,10638.6,-2260.06,30.2916,-73.0304,-90.9073,8013.53,1002.68,2162.35,-34.192,-28.8839,9.74021
3.192,4166.69,-4012.34,8785.28,-24.9287,-13.0428,-20.4546,18023.1,8333.36,13987.6,-37.4282,261.797,-302.938,210.634,11264.4,-3719.81,4.46635,-51.8702,-66.1415,-6169.02,-22954.3,-1071.96,-40.7595,109.773,-392.685,-2840.99,-2659.19,-912.843,8.89139,-152.443,-70.2491,2268.12,10734.2,-2225.81,29.9368,-73.302,-91.1069,8019.13,997.951,2091.66,-33.523,-30.4327,10.1778
3.193,4154.47,-4178.1,8684.93,-26.4547,-13.6586,-21.7603,18590.6,8284.28,14012.7,-38.0514,259.172,-303.623,191.629,11294.2,-4044.68,5.3775,-53.4989,-65.9749,-6584.62,-23214.8,-1079.21,-39.8722,109.404,-391.784,-2462.32,-2558.39,-1010.89,4.15075,-152.43,-67.9273,2246.07,10832.1,-2190.02,29.5503,-73.5745,-91.2848,8022.23,990.897,2014.97,-32.8409,-31.9872,10.6044
3.194,4142.25,-4343.86,8584.59,-27.9808,-14.2744,-23.0659,19158.0,8235.19,14037.7,-38.6746,256.546,-304.309,172.624,11323.9,-4369.55,6.28865,-55.1277,-65.8082,-7000.22,-23475.3,-1086.46,-38.9849,109.034,-390.883,-2083.66,-2457.59,-1108.93,-0.589895,-152.418,-65.6055,2224.02,10930.1,-2154.23,29.1637,-73.847,-91.4627,8025.33,983.844,1938.29,-32.1587,-33.5416,11.0311
3.195,4130.03,-4509.63,8484.24,-29.5068,-14.8902,-24.3716,19725.5,8186.1,14062.8,-39.2978,253.921,-304.994,153.619,11353.6,-4694.41,7.1998,-56.7564,-65.6415,-7415.82,-23735.8,-1093.71,-38.0976,108.665,-389.982,-1704.99,-2356.79,-1206.98,-5.33053,-152.405,-63.2837,2201.97,11028.1,-2118.44,28.7771,-74.1194,-91.6405,8028.43,976.791,1861.61,-31.4766,-35.0961,11.4578
3.196,4205.56,-4931.82,8398.51,-30.2272,-15.3582,-26.3404,20323.1,8162.27,14051.5,-39.5785,251.632,-305.33,163.185,11344.4,-4944.84,7.57976,-58.5299,-65.66,-7813.26,-23970.2,-1106.18,-37.1401,107.989,-388.919,-1307.17,-2257.75,-1320.9,-10.1057,-151.944,-60.6601,2167.55,11100.2,-2084.65,28.4453,-74.3906,-91.73,8025.52,970.858,1753.17,-31.0493,-36.3978,11.9009
3.197,4390.77,-5674.54,8331.04,-29.9406,-15.6416,-29.1381,20958.2,8170.01,13994.6,-39.4309,249.766,-305.23,208.464,11286.6,-5102.21,7.29576,-60.4842,-65.9099,-8188.01,-24172.0,-1125.19,-36.095,106.931,-387.656,-885.414,-2160.91,-1454.68,-14.9241,-150.921,-57.659,2117.65,11139.9,-2053.36,28.1819,-74.6601,-91.709,8015.11,966.327,1605.03,-30.9407,-37.3834,12.3647
3.198,4575.99,-6417.26,8263.58,-29.6539,-15.925,-31.9358,21593.3,8177.75,13937.8,-39.2833,247.899,-305.131,253.743,11228.8,-5259.58,7.01175,-62.4385,-66.1598,-8562.76,-24373.8,-1144.2,-35.0498,105.873,-386.393,-463.656,-2064.07,-1588.46,-19.7425,-149.899,-54.658,2067.75,11179.7,-2022.06,27.9185,-74.9297,-91.6879,8004.7,961.796,1456.89,-30.8321,-38.3691,12.8285
3.199,4761.2,-7159.99,8196.11,-29.3673,-16.2085,-34.7335,22228.4,8185.5,13881.0,-39.1358,246.032,-305.031,299.023,11171.0,-5416.96,6.72774,-64.3928,-66.4097,-8937.51,-24575.6,-1163.21,-34.0047,104.815,-385.129,-41.8973,-1967.23,-1722.24,-24.5609,-148.876,-51.657,2017.85,11219.4,-1990.77,27.6552,-75.1992,-91.6669,7994.29,957.265,1308.76,-30.7235,-39.3547,13.2923
3.2,4946.42,-7902.71,8128.64,-29.0807,-16.4919,-37.5312,22863.5,8193.24,13824.1,-38.9882,244.165,-304.931,344.302,11113.2,-5574.33,6.44373,-66.3471,-66.6596,-9312.25,-24777.4,-1182.22,-32.9595,103.757,-383.866,379.861,-1870.39,-1856.02,-29.3792,-147.854,-48.6559,1967.95,11259.2,-1959.48,27.3918,-75.4687,-91.6458,7983.87,952.734,1160.62,-30.6148,-40.3404,13.7561
3.201,4954.51,-6980.79,8157.85,-30.982,-16.5103,-39.9022,23584.5,8136.74,13659.3,-39.2301,243.038,-303.873,374.966,11092.5,-5324.74,5.0472,-66.6941,-67.8121,-9684.77,-24938.6,-1145.51,-32.1215,101.86,-381.868,783.444,-1779.66,-2007.49,-34.7875,-144.572,-45.032,1899.08,11313.2,-1913.52,27.5743,-76.6714,-91.3504,7969.92,974.517,1049.42,-30.5981,-40.9312,13.9716
3.202,4962.59,-6058.87,8187.07,-32.8834,-16.5287,-42.2732,24305.5,8080.24,13494.5,-39.4719,241.911,-302.816,405.631,11071.9,-5075.15,3.65066,-67.0411,-68.9647,-10057.3,-25099.8,-1108.81,-31.2836,99.9626,-379.87,1187.03,-1688.93,-2158.95,-40.1958,-141.29,-41.4082,1830.22,11367.2,-1867.56,27.7568,-77.874,-91.0549,7955.96,996.301,938.224,-30.5813,-41.5219,14.187
3.203,4970.68,-5136.95,8216.28,-34.7848,-16.547,-44.6442,25026.5,8023.74,13329.8,-39.7138,240.784,-301.758,436.295,11051.3,-4825.55,2.25412,-67.388,-70.1173,-10429.8,-25261.0,-1072.1,-30.4456,98.0657,-377.872,1590.61,-1598.2,-2310.42,-45.604,-138.008,-37.7843,1761.35,11421.2,-1821.6,27.9393,-79.0766,-90.7595,7942.0,1018.08,827.027,-30.5645,-42.1127,14.4024
3.204,4978.76,-4215.02,8245.5,-36.6862,-16.5654,-47.0151,25747.6,7967.24,13165.0,-39.9557,239.657,-300.701,466.96,11030.7,-4575.96,0.857578,-67.735,-71.2698,-10802.3,-25422.2,-1035.39,-29.6077,96.1687,-375.874,1994.19,-1507.47,-2461.89,-51.0123,-134.726,-34.1604,1692.48,11475.2,-1775.64,28.1217,-80.2793,-90.4641,7928.04,1039.87,715.829,-30.5477,-42.7034,14.6178
3.205,5020.97,-3625.22,8378.5,-37.2177,-17.3774,-47.3753,26416.2,7894.08,12935.0,-40.3525,238.858,-299.24,389.995,11082.0,-4222.66,0.0729476,-68.1092,-72.3205,-11148.5,-25585.0,-968.726,-28.6412,94.1034,-373.724,2406.3,-1406.11,-2596.71,-57.0599,-129.746,-30.2627,1671.77,11513.4,-1755.66,28.1863,-82.612,-89.8668,7935.34,1051.07,626.504,-30.301,-43.09,14.803
3.206,5090.47,-3301.11,8594.55,-36.6534,-18.8242,-46.1267,27042.8,7807.57,12652.9,-40.8734,238.321,-297.456,226.926,11191.0,-3786.4,-0.222157,-68.5052,-73.2896,-11473.7,-25749.0,-878.087,-27.5719,91.9033,-371.451,2825.23,-1296.23,-2718.22,-63.619,-123.407,-26.1459,1689.6,11538.9,-1756.47,28.1566,-85.8488,-89.0282,7959.65,1053.81,554.677,-29.8703,-43.3131,14.9639
3.207,5159.97,-2977.0,8810.6,-36.0891,-20.2709,-44.8781,27669.4,7721.07,12370.7,-41.3943,237.784,-295.672,63.8571,11299.9,-3350.14,-0.517261,-68.9011,-74.2587,-11798.8,-25913.1,-787.448,-26.5026,89.7033,-369.179,3244.15,-1186.35,-2839.73,-70.178,-117.068,-22.0292,1707.42,11564.3,-1757.27,28.1269,-89.0855,-88.1895,7983.96,1056.56,482.849,-29.4396,-43.5363,15.1249
3.208,5229.47,-2652.89,9026.64,-35.5248,-21.7177,-43.6295,28296.1,7634.57,12088.6,-41.9152,237.247,-293.888,-99.2117,11408.8,-2913.87,-0.812365,-69.2971,-75.2278,-12124.0,-26077.1,-696.809,-25.4333,87.5032,-366.906,3663.08,-1076.47,-2961.23,-76.7371,-110.729,-17.9124,1725.24,11589.8,-1758.07,28.0972,-92.3223,-87.3509,8008.26,1059.3,411.022,-29.0089,-43.7594,15.2858
3.209,5278.29,-2395.47,9213.51,-34.9923,-23.1469,-42.5363,28917.1,7534.82,11798.7,-42.4837,236.741,-291.997,-254.894,11521.8,-2496.78,-1.1202,-69.8027,-76.1097,-12452.1,-26235.9,-605.759,-24.3815,85.3171,-364.602,4086.43,-970.013,-3068.91,-83.3827,-104.103,-13.8095,1750.03,11611.1,-1768.46,27.9944,-95.7293,-86.4905,8031.51,1064.2,343.959,-28.548,-43.9501,15.4413
3.21,5161.69,-2671.6,9166.94,-34.7149,-24.4354,-42.6858,29492.8,7329.11,11446.6,-43.4322,236.484,-289.253,-351.482,11667.5,-2233.02,-1.52988,-71.1862,-76.2938,-12804.5,-26352.0,-511.421,-23.4702,83.2423,-362.045,4545.12,-890.93,-3065.91,-90.721,-95.1804,-9.81749,1830.54,11598.9,-1855.51,27.3063,-100.498,-85.4562,8046.32,1086.4,315.012,-27.8456,-43.8807,15.5532
3.211,5045.09,-2947.73,9120.38,-34.4374,-25.724,-42.8353,30068.6,7123.4,11094.5,-44.3807,236.227,-286.509,-448.069,11813.3,-1969.26,-1.93956,-72.5696,-76.4779,-13156.8,-26468.2,-417.083,-22.5589,81.1675,-359.488,5003.82,-811.846,-3062.91,-98.0592,-86.258,-5.8255,1911.05,11586.7,-1942.56,26.6182,-105.267,-84.4219,8061.13,1108.61,286.066,-27.1431,-43.8113,15.665
3.212,4928.49,-3223.85,9073.81,-34.16,-27.0125,-42.9848,30644.3,6917.68,10742.4,-45.3293,235.97,-283.765,-544.657,11959.0,-1705.5,-2.34924,-73.9531,-76.662,-13509.1,-26584.3,-322.745,-21.6476,79.0927,-356.931,5462.52,-732.763,-3059.91,-105.397,-77.3356,-1.83351,1991.56,11574.5,-2029.61,25.9301,-110.037,-83.3875,8075.94,1130.81,257.12,-26.4406,-43.7419,15.7769
3.213,4811.89,-3499.98,9027.25,-33.8826,-28.3011,-43.1344,31220.1,6711.97,10390.3,-46.2778,235.713,-281.021,-641.245,12104.8,-1441.74,-2.75892,-75.3365,-76.8461,-13861.5,-26700.5,-228.407,-20.7363,77.0179,-354.375,5921.22,-653.68,-3056.92,-112.736,-68.4132,2.15848,2072.07,11562.3,-2116.66,25.2419,-114.806,-82.3532,8090.75,1153.01,228.174,-25.7381,-43.6726,15.8887
3.214,4659.75,-3540.0,9006.6,-33.6051,-29.2261,-43.4669,31697.8,6499.29,10064.2,-47.144,235.518,-277.839,-619.595,12170.7,-1366.76,-3.36019,-75.966,-77.0485,-14194.6,-26727.1,-209.682,-20.1185,75.4044,-351.6,6418.25,-654.937,-3001.16,-119.687,-58.0769,5.90706,2141.67,11532.6,-2180.62,24.0847,-119.217,-81.5037,8104.36,1163.02,165.825,-25.053,-43.4928,15.861
3.215,4489.84,-3461.96,8998.92,-33.3277,-29.9693,-43.891,32126.4,6283.12,9751.25,-47.9691,235.355,-274.44,-538.826,12196.6,-1386.17,-4.05724,-76.2186,-77.2602,-14518.2,-26708.9,-228.765,-19.6475,74.0216,-348.717,6934.45,-696.365,-2919.02,-126.444,-47.0335,9.53393,2205.8,11494.2,-2233.03,22.6928,-123.449,-80.7467,8117.37,1166.93,86.7734,-24.3766,-43.2578,15.7636
3.216,4319.94,-3383.93,8991.24,-33.0502,-30.7126,-44.3151,32555.0,6066.95,9438.26,-48.7942,235.192,-271.04,-458.057,12222.5,-1405.57,-4.7543,-76.4711,-77.4719,-14841.8,-26690.7,-247.848,-19.1765,72.6387,-345.834,7450.65,-737.792,-2836.88,-133.202,-35.9902,13.1608,2269.94,11455.8,-2285.44,21.301,-127.681,-79.9896,8130.38,1170.84,7.72238,-23.7002,-43.0228,15.6661
3.217,4150.03,-3305.9,8983.56,-32.7728,-31.4558,-44.7392,32983.6,5850.78,9125.28,-49.6193,235.03,-267.641,-377.289,12248.4,-1424.98,-5.45135,-76.7236,-77.6835,-15165.4,-26672.5,-266.931,-18.7055,71.2559,-342.95,7966.86,-779.219,-2754.74,-139.959,-24.9468,16.7877,2334.08,11417.4,-2337.84,19.9091,-131.913,-79.2326,8143.39,1174.74,-71.3287,-23.0238,-42.7878,15.5687
3.218,4023.81,-3215.88,8979.85,-32.4742,-32.2457,-45.088,33379.3,5643.15,8813.64,-50.539,234.809,-264.158,-287.078,12246.7,-1436.03,-6.09527,-76.8459,-78.0559,-15475.3,-26635.0,-288.79,-18.2489,70.0313,-340.03,8514.17,-847.145,-2670.88,-146.539,-13.8153,20.2466,2406.64,11375.6,-2382.88,18.4485,-135.503,-78.5569,8154.98,1178.76,-165.88,-22.4568,-42.473,15.4629
3.219,4050.49,-3083.93,8990.05,-32.1018,-33.1985,-45.1734,33659.7,5465.37,8506.68,-51.7898,234.384,-260.385,-163.821,12148.2,-1417.83,-6.55318,-76.5125,-78.9907,-15736.9,-26529.7,-320.367,-17.8426,69.3606,-336.978,9170.39,-1007.82,-2580.98,-152.5,-2.37539,23.118,2508.68,11321.7,-2402.14,16.7469,-136.84,-78.1658,8161.59,1183.15,-314.68,-22.2724,-41.879,15.3283
3.22,4077.16,-2951.98,9000.25,-31.7294,-34.1513,-45.2587,33940.1,5287.6,8199.72,-53.0406,233.959,-256.613,-40.564,12049.6,-1399.63,-7.0111,-76.179,-79.9255,-15998.5,-26424.4,-351.943,-17.4362,68.6899,-333.926,9826.6,-1168.49,-2491.08,-158.461,9.06454,25.9894,2610.73,11267.8,-2421.4,15.0452,-138.178,-77.7747,8168.2,1187.54,-463.481,-22.088,-41.2849,15.1937
3.221,4103.84,-2820.03,9010.45,-31.3569,-35.1042,-45.344,34220.5,5109.83,7892.76,-54.2914,233.535,-252.84,82.693,11951.1,-1381.43,-7.46901,-75.8456,-80.8602,-16260.1,-26319.2,-383.519,-17.0299,68.0192,-330.874,10482.8,-1329.16,-2401.19,-164.422,20.5045,28.8608,2712.77,11214.0,-2440.65,13.3436,-139.516,-77.3836,8174.81,1191.93,-612.282,-21.9036,-40.6908,15.059
3.222,4130.52,-2688.08,9020.65,-30.9845,-36.057,-45.4294,34500.9,4932.05,7585.8,-55.5422,233.11,-249.067,205.95,11852.6,-1363.22,-7.92693,-75.5121,-81.795,-16521.8,-26213.9,-415.096,-16.6236,67.3486,-327.823,11139.0,-1489.83,-2311.29,-170.383,31.9444,31.7321,2814.81,11160.1,-2459.91,11.642,-140.854,-76.9926,8181.42,1196.32,-761.083,-21.7192,-40.0968,14.9244
3.223,4192.13,-2714.74,9039.75,-30.2045,-37.2691,-45.1195,34707.5,4785.31,7258.04,-56.6679,232.176,-244.913,326.323,11760.7,-1298.48,-8.32993,-75.0793,-82.9531,-16759.7,-26026.9,-432.198,-16.1093,67.3992,-324.385,11812.0,-1753.44,-2212.11,-174.964,42.9849,33.918,2922.82,11054.1,-2471.03,10.2244,-140.33,-76.6968,8217.43,1186.54,-930.574,-21.8859,-39.3334,14.7093
3.224,4263.72,-2786.71,9061.41,-29.3082,-38.5553,-44.6966,34893.0,4647.44,6924.34,-57.7578,231.095,-240.65,445.872,11670.7,-1220.45,-8.71723,-74.6181,-84.1749,-16991.0,-25816.5,-445.165,-15.5642,67.656,-320.837,12489.9,-2046.45,-2110.28,-179.152,53.9113,35.908,3032.53,10933.3,-2479.83,8.88784,-139.274,-76.4283,8261.85,1172.72,-1105.98,-22.1529,-38.5217,14.4713
3.225,4335.31,-2858.69,9083.06,-28.4118,-39.8414,-44.2738,35078.5,4509.57,6590.65,-58.8477,230.015,-236.387,565.42,11580.7,-1142.41,-9.10454,-74.157,-85.3968,-17222.2,-25606.1,-458.132,-15.0191,67.9127,-317.289,13167.7,-2339.47,-2008.45,-183.34,64.8376,37.898,3142.25,10812.4,-2488.63,7.5513,-138.218,-76.1598,8306.27,1158.9,-1281.38,-22.4198,-37.7099,14.2332
3.226,4406.9,-2930.66,9104.71,-27.5154,-41.1276,-43.8509,35264.1,4371.7,6256.95,-59.9376,228.935,-232.124,684.969,11490.7,-1064.37,-9.49184,-73.6958,-86.6186,-17453.4,-25395.8,-471.099,-14.474,68.1695,-313.741,13845.5,-2632.49,-1906.62,-187.527,75.764,39.888,3251.96,10691.6,-2497.43,6.21477,-137.162,-75.8913,8350.69,1145.08,-1456.78,-22.6868,-36.8982,13.9952
3.227,4455.79,-3004.37,9119.62,-26.8225,-42.3798,-43.6521,35422.0,4256.76,5939.23,-61.2683,227.593,-227.705,789.369,11406.3,-1006.15,-9.84514,-73.0128,-87.7764,-17655.8,-25183.5,-516.133,-13.9324,68.638,-309.974,14487.2,-2988.59,-1831.32,-191.147,86.1215,41.5979,3400.0,10618.8,-2458.19,4.89373,-136.002,-75.3163,8394.98,1116.06,-1620.16,-22.9594,-36.0095,13.6742
3.228,4459.29,-3081.56,9121.07,-26.5366,-43.564,-43.9011,35524.8,4187.67,5653.46,-63.0807,225.728,-222.974,863.469,11333.0,-987.557,-10.1304,-71.8864,-88.8059,-17800.5,-24967.6,-625.301,-13.3977,69.53,-305.767,15056.8,-3470.85,-1809.08,-193.631,95.3413,42.7474,3624.66,10642.3,-2322.89,3.60368,-134.632,-74.1282,8439.04,1056.65,-1759.51,-23.2432,-34.9669,13.1875
3.229,4462.78,-3158.74,9122.53,-26.2507,-44.7482,-44.1502,35627.6,4118.58,5367.7,-64.893,223.864,-218.242,937.57,11259.8,-968.966,-10.4157,-70.7599,-89.8355,-17945.2,-24751.7,-734.469,-12.8631,70.4219,-301.56,15626.3,-3953.12,-1786.85,-196.115,104.561,43.897,3849.33,10665.7,-2187.58,2.31362,-133.263,-72.94,8483.09,997.234,-1898.85,-23.5269,-33.9243,12.7007
3.23,4466.28,-3235.92,9123.98,-25.9648,-45.9324,-44.3993,35730.4,4049.5,5081.93,-66.7054,221.999,-213.511,1011.67,11186.5,-950.375,-10.701,-69.6335,-90.865,-18089.9,-24535.7,-843.637,-12.3284,71.3139,-297.352,16195.9,-4435.38,-1764.61,-198.598,113.781,45.0465,4074.0,10689.2,-2052.27,1.02357,-131.893,-71.7519,8527.14,937.819,-2038.2,-23.8106,-32.8817,12.2139
3.231,4469.77,-3313.1,9125.43,-25.679,-47.1166,-44.6484,35833.2,3980.41,4796.16,-68.5177,220.135,-208.78,1085.77,11113.2,-931.784,-10.9862,-68.507,-91.8946,-18234.6,-24319.8,-952.805,-11.7937,72.2059,-293.145,16765.4,-4917.64,-1742.38,-201.082,123.001,46.1961,4298.66,10712.7,-1916.96,-0.266478,-130.523,-70.5638,8571.19,878.404,-2177.54,-24.0944,-31.8392,11.7272
3.232,4403.11,-3272.73,9189.55,-25.3292,-48.0123,-44.6142,35823.9,3976.56,4491.72,-70.7327,218.408,-203.91,1186.94,11040.1,-885.383,-11.2754,-67.0266,-92.9542,-18335.1,-24099.6,-984.016,-10.7339,72.2725,-288.751,17142.2,-5457.64,-1812.2,-202.38,130.087,45.7655,4321.36,10444.9,-1778.75,-0.306244,-129.044,-70.9764,8649.09,816.704,-2272.42,-24.1713,-30.7502,11.1595
3.233,4327.67,-3217.66,9261.5,-24.9715,-48.8719,-44.5447,35800.5,3980.85,4184.94,-72.9981,216.698,-199.023,1291.49,10967.0,-835.505,-11.565,-65.5019,-94.0176,-18430.1,-23878.9,-1005.48,-9.60839,72.236,-284.333,17495.0,-6004.85,-1893.52,-203.529,136.907,45.1374,4318.82,10140.7,-1640.18,-0.189724,-127.552,-71.5891,8731.21,754.72,-2361.74,-24.2224,-29.6554,10.5818
3.234,4252.23,-3162.59,9333.46,-24.6137,-49.7314,-44.4751,35777.2,3985.15,3878.16,-75.2634,214.988,-194.135,1396.04,10893.9,-785.627,-11.8546,-63.9773,-95.081,-18525.2,-23658.3,-1026.95,-8.48289,72.1995,-279.916,17847.8,-6552.07,-1974.85,-204.678,143.727,44.5093,4316.27,9836.5,-1501.6,-0.0732043,-126.059,-72.2018,8813.33,692.735,-2451.05,-24.2735,-28.5607,10.0041
3.235,4176.79,-3107.52,9405.41,-24.256,-50.591,-44.4056,35753.9,3989.45,3571.38,-77.5287,213.278,-189.248,1500.59,10820.8,-735.749,-12.1443,-62.4526,-96.1444,-18620.2,-23437.6,-1048.41,-7.35739,72.163,-275.498,18200.5,-7099.28,-2056.17,-205.827,150.547,43.8812,4313.73,9532.31,-1363.03,0.0433155,-124.566,-72.8145,8895.46,630.75,-2540.37,-24.3246,-27.4659,9.42637
3.236,4103.71,-3045.85,9466.39,-23.8415,-51.7153,-44.1855,35708.1,4018.22,3186.96,-79.7437,211.933,-184.224,1592.77,10762.1,-697.2,-12.4002,-60.8942,-97.3382,-18719.7,-23231.3,-1062.02,-6.22123,71.6325,-271.172,18444.3,-7663.9,-2158.2,-206.519,155.668,42.5076,4374.03,9309.64,-1249.05,0.83946,-122.903,-73.576,8986.88,562.961,-2611.83,-24.2518,-26.3269,8.8412
3.237,4033.58,-2975.93,9513.64,-23.356,-53.1705,-43.7771,35634.3,4077.56,2705.49,-81.8957,211.045,-179.028,1669.47,10721.3,-672.811,-12.6141,-59.2936,-98.6949,-18824.7,-23043.1,-1065.79,-5.07174,70.4845,-266.96,18551.8,-8250.3,-2286.09,-206.637,158.667,40.2021,4512.88,9188.89,-1165.81,2.48513,-121.026,-74.5235,9089.94,487.916,-2660.96,-24.024,-25.1328,8.24671
3.238,3963.45,-2906.01,9560.89,-22.8704,-54.6257,-43.3689,35560.4,4136.91,2224.02,-84.0477,210.157,-173.832,1746.17,10680.6,-648.422,-12.8281,-57.693,-100.052,-18929.8,-22854.8,-1069.56,-3.92226,69.3364,-262.747,18659.4,-8836.69,-2413.99,-206.756,161.665,37.8966,4651.73,9068.14,-1082.58,4.13081,-119.149,-75.471,9193.0,412.872,-2710.09,-23.7963,-23.9386,7.65223
3.239,3893.33,-2836.1,9608.15,-22.3849,-56.0809,-42.9606,35486.6,4196.26,1742.55,-86.1997,209.269,-168.637,1822.88,10639.9,-624.034,-13.042,-56.0924,-101.408,-19034.8,-22666.6,-1073.34,-2.77277,68.1884,-258.535,18766.9,-9423.09,-2541.89,-206.875,164.664,35.5911,4790.58,8947.39,-999.342,5.77648,-117.272,-76.4185,9296.06,337.827,-2759.23,-23.5686,-22.7444,7.05774
3.24,3823.2,-2766.18,9655.4,-21.8994,-57.5361,-42.5523,35412.7,4255.61,1261.08,-88.3517,208.38,-163.441,1899.58,10599.2,-599.645,-13.2559,-54.4917,-102.765,-19139.8,-22478.3,-1077.11,-1.62329,67.0403,-254.323,18874.5,-10009.5,-2669.78,-206.994,167.663,33.2856,4929.43,8826.64,-916.106,7.42216,-115.395,-77.366,9399.12,262.782,-2808.36,-23.3409,-21.5502,6.46326
3.241,3824.16,-2863.72,9689.34,-21.3809,-59.148,-42.5013,35258.6,4385.06,906.127,-91.6501,208.026,-157.886,1911.55,10626.1,-615.861,-13.5261,-52.8294,-104.187,-19305.9,-22241.7,-1324.48,-0.39245,67.6379,-250.339,18732.9,-10486.6,-2906.29,-205.406,168.108,30.0166,5018.77,8900.25,-808.215,9.00406,-113.837,-77.355,9548.83,198.515,-2770.13,-22.3279,-20.4289,5.58554
3.242,3825.13,-2961.27,9723.29,-20.8623,-60.7599,-42.4503,35104.4,4514.51,551.172,-94.9485,207.671,-152.33,1923.52,10653.0,-632.076,-13.7964,-51.1671,-105.609,-19472.0,-22005.1,-1571.85,0.838387,68.2355,-246.355,18591.4,-10963.7,-3142.8,-203.818,168.553,26.7476,5108.1,8973.86,-700.324,10.586,-112.279,-77.344,9698.54,134.247,-2731.91,-21.315,-19.3076,4.70782
3.243,3826.09,-3058.81,9757.23,-20.3438,-62.3718,-42.3993,34950.2,4643.96,196.217,-98.2469,207.316,-146.775,1935.49,10679.9,-648.292,-14.0666,-49.5048,-107.031,-19638.0,-21768.5,-1819.21,2.06922,68.8332,-242.371,18449.8,-11440.8,-3379.3,-202.23,168.999,23.4786,5197.44,9047.48,-592.433,12.1679,-110.722,-77.333,9848.25,69.9795,-2693.68,-20.3021,-18.1863,3.8301
3.244,3827.06,-3156.35,9791.18,-19.8252,-63.9837,-42.3483,34796.0,4773.41,-158.739,-101.545,206.962,-141.219,1947.47,10706.8,-664.507,-14.3369,-47.8425,-108.453,-19804.1,-21531.9,-2066.58,3.30006,69.4308,-238.387,18308.3,-11917.9,-3615.81,-200.642,169.444,20.2096,5286.77,9121.09,-484.542,13.7498,-109.164,-77.3219,9997.95,5.71196,-2655.45,-19.2891,-17.0651,2.95238
3.245,3849.79,-3193.87,9827.84,-19.2502,-65.6786,-42.1364,34646.8,4858.95,-551.69,-104.146,206.836,-135.476,1931.08,10779.2,-641.862,-14.7047,-46.1389,-109.872,-20040.7,-21243.5,-2504.7,4.20803,71.1687,-234.129,18133.3,-12329.1,-3999.34,-196.982,169.973,17.0196,5357.98,9217.13,-379.761,14.9764,-108.195,-77.1973,10144.1,-88.8379,-2598.31,-17.7501,-15.9442,1.91263
3.246,3889.94,-3183.35,9866.67,-18.6299,-67.4399,-41.7958,34501.6,4909.34,-975.038,-106.189,206.895,-129.583,1892.01,10888.1,-588.127,-15.1506,-44.4024,-111.29,-20333.6,-20913.7,-3095.41,4.8577,73.8189,-229.652,17931.6,-12687.5,-4500.48,-191.666,170.569,13.8928,5414.69,9331.12,-277.468,15.9187,-107.697,-76.9817,10287.3,-207.614,-2526.02,-15.7904,-14.8236,0.743258
3.247,3930.08,-3172.84,9905.51,-18.0097,-69.2012,-41.4552,34356.3,4959.74,-1398.39,-108.232,206.954,-123.689,1852.94,10997.0,-534.393,-15.5964,-42.6659,-112.708,-20626.6,-20584.0,-3686.12,5.50737,76.469,-225.175,17729.9,-13045.9,-5001.62,-186.349,171.164,10.7661,5471.4,9445.11,-175.174,16.861,-107.199,-76.7662,10430.5,-326.389,-2453.74,-13.8306,-13.7031,-0.426112
3.248,3970.23,-3162.33,9944.34,-17.3894,-70.9625,-41.1146,34211.0,5010.14,-1821.73,-110.275,207.012,-117.796,1813.87,11105.9,-480.658,-16.0423,-40.9294,-114.125,-20919.5,-20254.2,-4276.83,6.15704,79.1192,-220.698,17528.2,-13404.4,-5502.76,-181.033,171.76,7.63927,5528.11,9559.1,-72.8808,17.8033,-106.701,-76.5507,10573.8,-445.165,-2381.45,-11.8708,-12.5825,-1.59548
3.249,4006.25,-3142.39,9984.34,-16.7881,-72.7353,-40.7963,34096.1,5039.91,-2264.26,-112.114,207.088,-111.948,1771.13,11219.5,-421.12,-16.4599,-39.1996,-115.538,-21216.1,-19913.6,-4816.98,6.75721,81.6303,-216.251,17328.4,-13755.7,-6013.76,-175.134,172.567,4.60851,5577.43,9669.23,22.1579,18.698,-106.236,-76.3233,10717.9,-567.094,-2300.1,-9.79795,-11.4686,-2.797
3.25,4009.29,-3047.05,10033.7,-16.3383,-74.6006,-40.6566,34223.4,4904.67,-2860.25,-112.317,207.298,-106.466,1699.0,11371.0,-315.15,-16.6511,-37.5242,-116.906,-21541.8,-19486.8,-4952.63,6.96133,83.0284,-212.051,17144.7,-14050.7,-6603.57,-164.582,175.068,2.34591,5567.57,9748.51,59.1594,19.2118,-106.031,-76.0016,10869.3,-714.255,-2146.2,-6.82035,-10.4079,-4.25572
3.251,4012.34,-2951.72,10083.0,-15.8885,-76.4658,-40.5169,34350.7,4769.43,-3456.24,-112.52,207.509,-100.983,1626.86,11522.5,-209.18,-16.8424,-35.8488,-118.275,-21867.4,-19059.9,-5088.28,7.16546,84.4266,-207.851,16960.9,-14345.6,-7193.39,-154.03,177.569,0.0833151,5557.72,9827.8,96.1608,19.7256,-105.826,-75.6799,11020.7,-861.415,-1992.31,-3.84276,-9.34709,-5.71444
3.252,4015.38,-2856.38,10132.3,-15.4386,-78.3311,-40.3771,34478.1,4634.19,-4052.23,-112.724,207.72,-95.5003,1554.73,11673.9,-103.21,-17.0336,-34.1734,-119.644,-22193.0,-18633.1,-5223.94,7.36959,85.8247,-203.65,16777.1,-14640.6,-7783.2,-143.478,180.07,-2.17928,5547.86,9907.08,133.162,20.2394,-105.62,-75.3582,11172.1,-1008.57,-1838.41,-0.865169,-8.28631,-7.17316
3.253,4018.43,-2761.05,10181.6,-14.9888,-80.1964,-40.2374,34605.4,4498.95,-4648.22,-112.927,207.93,-90.0176,1482.59,11825.4,2.75993,-17.2248,-32.498,-121.013,-22518.6,-18206.2,-5359.59,7.57372,87.2228,-199.45,16593.3,-14935.6,-8373.02,-132.926,182.571,-4.44188,5538.01,9986.36,170.164,20.7532,-105.415,-75.0365,11323.5,-1155.73,-1684.51,2.11242,-7.22554,-8.63187
3.254,4017.94,-2701.59,10212.8,-14.5251,-82.1987,-39.9286,34813.3,4238.41,-5228.6,-112.869,207.876,-85.0306,1412.71,11942.6,90.4496,-17.3814,-30.9227,-122.322,-23008.3,-17793.0,-5376.69,7.24944,87.9344,-194.868,16364.2,-15240.8,-8906.07,-119.296,186.232,-6.52785,5532.61,10102.2,154.322,21.2404,-104.993,-74.76,11456.4,-1285.92,-1530.86,5.28927,-6.37811,-10.1454
3.255,4015.7,-2660.07,10235.1,-14.0543,-84.2696,-39.5353,35061.6,3915.22,-5801.18,-112.681,207.69,-80.2914,1343.96,12042.5,168.999,-17.5206,-29.3975,-123.602,-23580.0,-17386.5,-5334.51,6.66096,88.3028,-190.094,16112.3,-15551.3,-9410.74,-104.126,190.474,-8.52551,5529.45,10236.3,112.06,21.7145,-104.461,-74.5062,11580.1,-1407.63,-1377.33,8.56573,-5.63736,-11.6863
3.256,4013.45,-2618.54,10257.3,-13.5836,-86.3405,-39.142,35309.8,3592.02,-6373.76,-112.493,207.503,-75.5523,1275.21,12142.5,247.549,-17.6598,-27.8723,-124.882,-24151.7,-16980.0,-5292.33,6.07248,88.6711,-185.321,15860.4,-15861.8,-9915.41,-88.9567,194.716,-10.5232,5526.28,10370.4,69.7973,22.1885,-103.93,-74.2524,11703.7,-1529.33,-1223.8,11.8422,-4.89661,-13.2272
3.257,4011.2,-2577.02,10279.6,-13.1128,-88.4113,-38.7487,35558.0,3268.83,-6946.34,-112.305,207.317,-70.8131,1206.46,12242.5,326.098,-17.799,-26.347,-126.161,-24723.5,-16573.5,-5250.15,5.484,89.0394,-180.547,15608.5,-16172.2,-10420.1,-73.7871,198.958,-12.5208,5523.11,10504.5,27.5347,22.6625,-103.398,-73.9985,11827.4,-1651.03,-1070.27,15.1187,-4.15586,-14.7682
3.258,4004.42,-2536.26,10301.4,-12.6853,-90.5044,-38.3301,35793.5,2963.24,-7456.71,-111.304,206.682,-66.2045,1138.26,12341.0,402.425,-17.9568,-24.8814,-127.439,-25334.8,-16166.5,-5259.42,4.88665,89.4258,-175.776,15360.5,-16470.6,-10871.2,-57.7167,203.287,-14.5446,5503.93,10635.4,-14.2841,23.0397,-102.739,-73.7177,11944.8,-1766.53,-933.513,18.2099,-3.55808,-16.2772
3.259,3981.76,-2498.16,10322.0,-12.4093,-92.6749,-37.823,35984.2,2719.28,-7749.33,-107.455,204.479,-62.0529,1071.98,12434.2,470.972,-18.1799,-23.6247,-128.709,-26085.0,-15757.8,-5448.72,4.25823,89.8751,-171.015,15125.9,-16726.7,-11134.9,-38.4937,207.919,-16.6599,5428.72,10754.9,-54.5493,23.0779,-101.632,-73.3421,12040.5,-1860.31,-855.466,20.653,-3.46072,-17.6747
3.26,3959.11,-2460.06,10342.5,-12.1333,-94.8454,-37.316,36175.0,2475.32,-8041.95,-103.607,202.276,-57.9013,1005.71,12527.5,539.519,-18.403,-22.368,-129.98,-26835.2,-15349.0,-5638.02,3.62981,90.3245,-166.253,14891.3,-16982.7,-11398.6,-19.2708,212.551,-18.7752,5353.51,10874.4,-94.8145,23.1161,-100.526,-72.9666,12136.2,-1954.08,-777.42,23.0961,-3.36335,-19.0722
3.261,3936.45,-2421.96,10363.0,-11.8573,-97.0159,-36.8089,36365.8,2231.36,-8334.56,-99.7582,200.074,-53.7497,939.434,12620.7,608.066,-18.6262,-21.1113,-131.251,-27585.4,-14940.3,-5827.32,3.00139,90.7739,-161.492,14656.6,-17238.8,-11662.3,-0.0478202,217.183,-20.8905,5278.31,10993.9,-135.08,23.1544,-99.4188,-72.5911,12231.9,-2047.86,-699.373,25.5392,-3.26598,-20.4697
3.262,3913.8,-2383.86,10383.5,-11.5813,-99.1864,-36.3019,36556.5,1987.4,-8627.18,-95.9097,197.871,-49.598,873.159,12713.9,676.613,-18.8493,-19.8545,-132.522,-28335.6,-14531.5,-6016.62,2.37297,91.2233,-156.73,14422.0,-17494.9,-11926.0,19.1751,221.815,-23.0058,5203.1,11113.4,-175.345,23.1926,-98.312,-72.2155,12327.6,-2141.64,-621.326,27.9823,-3.16861,-21.8672
3.263,3890.5,-2342.78,10422.8,-11.3527,-101.467,-35.7939,36668.1,1626.21,-9040.48,-87.707,194.966,-46.8303,812.859,12756.4,739.637,-19.1277,-18.4824,-133.687,-29009.7,-14064.9,-5895.88,1.3322,89.7329,-151.327,14258.5,-17665.3,-11888.8,39.2884,225.338,-25.0207,5119.68,11194.5,-202.632,22.903,-97.0346,-71.6436,12418.0,-2241.8,-595.295,29.3311,-3.43094,-23.2017
3.264,3867.02,-2300.85,10467.6,-11.1378,-103.778,-35.2856,36757.1,1231.52,-9488.27,-78.2602,191.859,-44.458,754.267,12784.4,801.082,-19.422,-17.0773,-134.822,-29662.1,-13581.9,-5686.56,0.173633,87.6883,-145.74,14115.3,-17811.2,-11765.6,59.656,228.543,-27.0069,5033.92,11264.6,-226.21,22.5196,-95.7084,-71.0154,12507.0,-2343.78,-584.125,30.3671,-3.79604,-24.5183
3.265,3843.53,-2258.92,10512.3,-10.9228,-106.09,-34.7773,36846.1,836.831,-9936.06,-68.8134,188.753,-42.0857,695.674,12812.5,862.527,-19.7163,-15.6722,-135.957,-30314.5,-13098.8,-5477.23,-0.984939,85.6437,-140.153,13972.1,-17957.0,-11642.5,80.0236,231.749,-28.9931,4948.15,11334.6,-249.789,22.1363,-94.3823,-70.3873,12596.0,-2445.76,-572.955,31.4032,-4.16113,-25.8348
3.266,3820.05,-2216.99,10557.0,-10.7078,-108.402,-34.269,36935.1,442.141,-10383.8,-59.3666,185.647,-39.7134,637.082,12840.5,923.972,-20.0106,-14.2671,-137.092,-30966.8,-12615.7,-5267.91,-2.14351,83.5992,-134.566,13828.9,-18102.9,-11519.3,100.391,234.954,-30.9793,4862.39,11404.7,-273.367,21.753,-93.0561,-69.7592,12685.0,-2547.74,-561.786,32.4393,-4.52623,-27.1514
3.267,3806.85,-2170.01,10596.9,-10.5756,-110.752,-33.7359,37053.8,24.7681,-10906.4,-49.1557,182.996,-38.5276,592.416,12857.4,984.882,-20.2284,-12.9101,-138.225,-31520.3,-12173.8,-4947.99,-3.53877,80.7152,-128.268,13747.5,-18172.8,-11197.5,119.438,236.772,-32.7509,4805.32,11446.4,-300.422,21.2806,-91.621,-69.1059,12759.7,-2640.43,-572.84,33.1077,-4.98774,-28.4229
3.268,3814.21,-2112.91,10627.3,-10.6088,-113.178,-33.1533,37232.0,-437.972,-11578.6,-37.4168,181.253,-39.7146,575.604,12851.9,1044.72,-20.2929,-11.6494,-139.355,-31876.0,-11814.3,-4406.85,-5.4074,76.1524,-120.549,13789.6,-18090.6,-10478.4,135.841,235.815,-34.0931,4805.62,11431.1,-334.428,20.63,-89.9679,-68.4021,12806.0,-2714.56,-628.344,33.0408,-5.64206,-29.6046
3.269,3821.57,-2055.82,10657.8,-10.6419,-115.605,-32.5707,37410.1,-900.711,-12250.8,-25.6778,179.511,-40.9016,558.792,12846.5,1104.56,-20.3575,-10.3886,-140.485,-32231.7,-11454.7,-3865.71,-7.27603,71.5897,-112.831,13831.6,-18008.5,-9759.35,152.245,234.858,-35.4353,4805.92,11415.9,-368.434,19.9795,-88.3148,-67.6983,12852.3,-2788.69,-683.848,32.974,-6.29639,-30.7862
3.27,3828.93,-1998.73,10688.2,-10.6751,-118.032,-31.988,37588.2,-1363.45,-12923.0,-13.9389,177.769,-42.0886,541.98,12841.0,1164.4,-20.4221,-9.12789,-141.615,-32587.5,-11095.2,-3324.58,-9.14467,67.0269,-105.112,13873.7,-17926.3,-9040.29,168.648,233.901,-36.7775,4806.22,11400.7,-402.441,19.3289,-86.6617,-66.9945,12898.6,-2862.82,-739.352,32.9071,-6.95071,-31.9678
3.271,3836.29,-1941.63,10718.6,-10.7083,-120.459,-31.4054,37766.3,-1826.19,-13595.2,-2.1999,176.027,-43.2756,525.167,12835.6,1224.24,-20.4866,-7.86715,-142.745,-32943.2,-10735.7,-2783.44,-11.0133,62.4642,-97.3928,13915.7,-17844.1,-8321.23,185.052,232.944,-38.1198,4806.52,11385.4,-436.447,18.6784,-85.0086,-66.2908,12945.0,-2936.95,-794.856,32.8403,-7.60503,-33.1494
3.272,3820.93,-1901.42,10757.8,-10.4837,-123.048,-30.8416,38038.6,-1932.58,-14183.4,8.01769,173.875,-46.0468,512.564,12853.1,1267.78,-20.6167,-6.81645,-143.692,-32898.9,-10652.7,-2488.57,-12.7735,58.5417,-88.4879,14069.5,-17520.2,-7017.16,193.174,227.176,-39.0432,4861.55,11351.4,-446.033,17.8253,-83.3944,-65.8267,12942.3,-2978.09,-905.011,31.664,-8.26501,-33.9076
3.273,3802.73,-1863.31,10798.0,-10.227,-125.657,-30.2802,38322.8,-1994.42,-14761.0,18.0451,171.672,-49.016,500.486,12873.6,1309.28,-20.755,-5.79201,-144.616,-32804.7,-10604.3,-2224.49,-14.5201,54.6992,-79.4347,14237.2,-17166.1,-5639.98,200.262,220.806,-39.9142,4923.43,11315.1,-452.567,16.947,-81.785,-65.3926,12933.5,-3015.11,-1022.0,30.349,-8.92569,-34.6129
3.274,3784.53,-1825.2,10838.3,-9.97018,-128.266,-29.7188,38606.9,-2056.26,-15338.7,28.0725,169.47,-51.9852,488.409,12894.0,1350.79,-20.8933,-4.76757,-145.541,-32710.4,-10555.9,-1960.41,-16.2667,50.8568,-70.3816,14404.9,-16812.0,-4262.79,207.349,214.436,-40.7852,4985.31,11278.8,-459.1,16.0686,-80.1757,-64.9584,12924.7,-3052.13,-1138.98,29.034,-9.58637,-35.3182
3.275,3766.34,-1787.1,10878.6,-9.7134,-130.875,-29.1574,38891.0,-2118.11,-15916.3,38.1,167.267,-54.9544,476.331,12914.4,1392.29,-21.0315,-3.74313,-146.465,-32616.2,-10507.5,-1696.33,-18.0132,47.0143,-61.3285,14572.7,-16457.9,-2885.6,214.437,208.066,-41.6562,5047.19,11242.5,-465.634,15.1902,-78.5664,-64.5243,12915.9,-3089.15,-1255.97,27.719,-10.2471,-36.0235
3.276,3762.93,-1789.7,10915.1,-9.48016,-133.559,-28.6449,39044.4,-1945.04,-16352.8,46.7799,163.78,-57.4069,465.185,12959.2,1419.03,-21.3278,-2.7458,-147.481,-32405.3,-10517.5,-1566.5,-19.2728,43.7507,-52.2667,14816.5,-16000.0,-1360.83,217.166,199.658,-42.3635,5110.25,11200.9,-482.644,14.2531,-76.8594,-64.0336,12886.9,-3122.16,-1345.68,26.2462,-10.7543,-36.581
3.277,3778.01,-1843.2,10947.0,-9.27633,-136.337,-28.1933,39034.4,-1478.32,-16612.7,53.7756,158.687,-59.2136,455.204,13034.5,1427.3,-21.8214,-1.78235,-148.611,-32048.7,-10600.4,-1604.49,-19.9236,41.2105,-43.1943,15155.4,-15412.6,348.407,214.447,188.701,-42.8661,5174.77,11152.9,-512.752,13.2426,-75.0304,-63.4722,12832.7,-3150.13,-1401.29,24.576,-11.0699,-36.9539
3.278,3793.1,-1896.7,10978.9,-9.0725,-139.115,-27.7418,39024.4,-1011.61,-16872.6,60.7712,153.594,-61.0203,445.222,13109.8,1435.58,-22.3151,-0.818908,-149.741,-31692.0,-10683.3,-1642.48,-20.5744,38.6703,-34.1219,15494.3,-14825.2,2057.65,211.728,177.744,-43.3686,5239.3,11104.8,-542.859,12.232,-73.2014,-62.9109,12778.5,-3178.11,-1456.9,22.9059,-11.3854,-37.3269
3.279,3808.18,-1950.19,11010.8,-8.86867,-141.893,-27.2902,39014.4,-544.899,-17132.6,67.7669,148.501,-62.827,435.24,13185.1,1443.85,-22.8087,0.144536,-150.87,-31335.4,-10766.2,-1680.48,-21.2252,36.1301,-25.0494,15833.2,-14237.7,3766.89,209.009,166.786,-43.8712,5303.82,11056.8,-572.966,11.2214,-71.3724,-62.3495,12724.4,-3206.09,-1512.5,21.2357,-11.7009,-37.6998
3.28,3823.27,-2003.69,11042.8,-8.66484,-144.671,-26.8387,39004.4,-78.1869,-17392.5,74.7626,143.408,-64.6337,425.259,13260.4,1452.12,-23.3024,1.10798,-152.0,-30978.7,-10849.1,-1718.47,-21.8759,33.59,-15.977,16172.1,-13650.3,5476.13,206.29,155.829,-44.3738,5368.35,11008.8,-603.073,10.2109,-69.5434,-61.7881,12670.2,-3234.06,-1568.11,19.5656,-12.0164,-38.0727
3.281,3809.56,-2085.98,11045.5,-8.6419,-147.502,-26.6076,38487.2,359.994,-17563.2,79.2648,135.274,-64.4169,456.636,13320.4,1376.25,-23.4447,2.12985,-153.124,-30562.1,-10807.3,-1791.81,-21.8543,32.171,-7.96277,16452.8,-12961.4,6823.92,197.838,143.854,-44.4075,5397.37,10940.1,-662.221,9.11132,-67.4424,-61.3791,12641.2,-3192.24,-1651.28,19.203,-12.0098,-37.9691
3.282,3795.85,-2168.26,11048.2,-8.61896,-150.332,-26.3764,37969.9,798.174,-17734.0,83.767,127.14,-64.2001,488.014,13380.4,1300.37,-23.587,3.15171,-154.248,-30145.5,-10765.5,-1865.15,-21.8327,30.752,0.0514689,16733.5,-12272.5,8171.72,189.385,131.878,-44.4412,5426.38,10871.4,-721.37,8.01177,-65.3414,-60.9701,12612.3,-3150.42,-1734.44,18.8404,-12.0031,-37.8654
3.283,3782.15,-2250.55,11050.9,-8.59602,-153.162,-26.1453,37452.7,1236.35,-17904.7,88.2692,119.006,-63.9832,519.391,13440.4,1224.5,-23.7293,4.17358,-155.372,-29728.9,-10723.7,-1938.5,-21.811,29.333,8.06571,17014.1,-11583.6,9519.52,180.933,119.903,-44.475,5455.4,10802.7,-780.518,6.91221,-63.2404,-60.5611,12583.3,-3108.6,-1817.61,18.4778,-11.9965,-37.7617
3.284,3768.44,-2332.83,11053.6,-8.57308,-155.993,-25.9142,36935.4,1674.54,-18075.4,92.7714,110.872,-63.7664,550.769,13500.4,1148.62,-23.8716,5.19545,-156.496,-29312.3,-10681.9,-2011.84,-21.7894,27.914,16.08,17294.8,-10894.7,10867.3,172.48,107.927,-44.5087,5484.42,10734.0,-839.667,5.81265,-61.1395,-60.152,12554.3,-3066.78,-1900.77,18.1152,-11.9898,-37.6581
3.285,3764.69,-2411.05,11051.3,-8.51885,-158.909,-25.8049,36249.2,1966.59,-18146.8,94.1473,101.477,-62.2366,571.659,13545.6,1068.61,-24.0091,6.31111,-157.604,-28877.7,-10607.9,-2017.84,-21.7998,26.3135,23.5119,17370.2,-10276.3,11772.5,162.544,98.1627,-44.477,5509.52,10700.5,-922.506,4.71938,-58.7436,-59.8016,12530.9,-2988.56,-2002.57,18.3432,-11.6431,-37.3564
3.286,3768.89,-2486.01,11045.1,-8.43958,-161.893,-25.793,35427.7,2141.74,-18138.7,93.0221,91.0728,-59.6564,584.158,13579.0,985.3,-24.1427,7.50181,-158.699,-28428.8,-10508.1,-1969.96,-21.8359,24.5679,30.4779,17281.4,-9714.25,12323.6,151.422,90.1665,-44.393,5531.49,10695.2,-1024.3,3.63115,-56.1118,-59.4981,12512.0,-2881.21,-2119.28,19.0435,-11.0242,-36.8964
3.287,3773.09,-2560.97,11038.9,-8.36032,-164.878,-25.7811,34606.2,2316.9,-18130.5,91.8969,80.6684,-57.0762,596.657,13612.4,901.986,-24.2763,8.69251,-159.795,-27979.9,-10408.2,-1922.07,-21.872,22.8222,37.444,17192.6,-9152.24,12874.7,140.299,82.1703,-44.309,5553.46,10689.9,-1126.09,2.54291,-53.48,-59.1946,12493.0,-2773.86,-2235.99,19.7438,-10.4053,-36.4363
3.288,3777.29,-2635.93,11032.7,-8.28105,-167.862,-25.7692,33784.7,2492.05,-18122.4,90.7718,70.264,-54.496,609.156,13645.8,818.672,-24.4099,9.88321,-160.89,-27531.0,-10308.4,-1874.19,-21.908,21.0765,44.41,17103.7,-8590.22,13425.9,129.177,74.1741,-44.225,5575.43,10684.6,-1227.88,1.45468,-50.8483,-58.891,12474.1,-2666.51,-2352.7,20.4441,-9.78641,-35.9762
3.289,3782.14,-2711.75,11027.1,-8.22114,-170.863,-25.7763,32960.0,2654.42,-18086.1,89.24,59.7147,-51.6917,623.406,13681.1,730.679,-24.5417,11.0625,-161.975,-27073.8,-10214.4,-1814.23,-21.9282,19.2387,51.3576,16980.3,-8050.91,13899.3,117.888,66.8221,-44.2647,5597.7,10678.4,-1324.22,0.356075,-48.1537,-58.5767,12449.0,-2554.98,-2463.42,21.0532,-9.14713,-35.4905
3.29,3792.14,-2794.44,11026.7,-8.31612,-173.989,-25.936,32109.7,2714.53,-17824.4,84.4554,48.0059,-47.0939,651.661,13731.3,605.246,-24.6582,12.1503,-162.978,-26550.2,-10166.5,-1657.62,-21.8207,16.6638,58.1578,16579.8,-7693.26,13751.7,105.263,64.623,-45.2939,5622.38,10664.7,-1376.95,-0.825454,-44.957,-58.1754,12374.7,-2409.97,-2526.23,20.9318,-8.34466,-34.7988
3.291,3802.14,-2877.14,11026.3,-8.41109,-177.115,-26.0957,31259.4,2774.63,-17562.6,79.6708,36.2971,-42.4962,679.915,13781.5,479.813,-24.7747,13.2382,-163.98,-26026.6,-10118.6,-1501.01,-21.7133,14.0889,64.958,16179.3,-7335.61,13604.1,92.6383,62.424,-46.323,5647.06,10651.1,-1429.68,-2.00698,-41.7603,-57.7742,12300.5,-2264.96,-2589.03,20.8104,-7.5422,-34.1072
3.292,3812.14,-2959.83,11025.9,-8.50607,-180.242,-26.2554,30409.1,2834.74,-17300.8,74.8862,24.5883,-37.8985,708.17,13831.8,354.38,-24.8912,14.326,-164.982,-25503.0,-10070.7,-1344.4,-21.6059,11.5139,71.7582,15778.8,-6977.96,13456.4,80.0136,60.2249,-47.3521,5671.73,10637.5,-1482.41,-3.18851,-38.5636,-57.3729,12226.2,-2119.95,-2651.83,20.689,-6.73974,-33.4156
3.293,3822.15,-3042.53,11025.5,-8.60104,-183.368,-26.4151,29558.8,2894.85,-17039.1,70.1016,12.8795,-33.3008,736.425,13882.0,228.947,-25.0077,15.4139,-165.985,-24979.4,-10022.9,-1187.79,-21.4985,8.93897,78.5584,15378.3,-6620.32,13308.8,67.3889,58.0258,-48.3812,5696.41,10623.9,-1535.14,-4.37004,-35.3669,-56.9717,12151.9,-1974.94,-2714.63,20.5677,-5.93727,-32.7239
3.294,3832.63,-3115.65,11008.4,-9.00456,-186.47,-26.8994,28812.8,2855.57,-16662.8,65.1477,1.56646,-27.9692,741.352,13932.1,115.66,-25.0824,16.2467,-166.932,-24516.2,-10122.6,-1121.21,-21.2062,7.02426,85.2236,14916.5,-6399.56,12915.3,55.5753,58.416,-50.4118,5667.24,10624.6,-1583.18,-5.40493,-32.074,-56.7898,12066.9,-1804.72,-2758.37,19.497,-5.39911,-31.8096
3.295,3843.36,-3183.98,10982.8,-9.56235,-189.559,-27.546,28118.9,2766.6,-16229.2,60.1091,-9.54864,-22.2707,734.615,13982.0,8.44565,-25.1362,16.9521,-167.851,-24083.2,-10296.2,-1099.65,-20.8216,5.43965,91.8213,14424.0,-6247.25,12398.9,44.1672,60.1007,-52.9431,5611.14,10632.4,-1628.88,-6.36649,-28.7331,-56.7176,11976.4,-1621.9,-2792.59,17.9518,-4.99308,-30.7838
3.296,3854.09,-3252.32,10957.3,-10.1201,-192.649,-28.1927,27425.0,2677.63,-15795.7,55.0706,-20.6637,-16.5721,727.878,14031.9,-98.7683,-25.1899,17.6575,-168.77,-23650.1,-10469.7,-1078.09,-20.4369,3.85505,98.419,13931.5,-6094.95,11882.5,32.7591,61.7855,-55.4745,5555.04,10640.2,-1674.57,-7.32806,-25.3922,-56.6454,11885.9,-1439.08,-2826.8,16.4065,-4.58706,-29.7581
3.297,3864.81,-3320.65,10931.7,-10.6779,-195.739,-28.8393,26731.2,2588.66,-15362.1,50.0321,-31.7789,-10.8736,721.141,14081.8,-205.982,-25.2437,18.3628,-169.689,-23217.1,-10643.3,-1056.53,-20.0522,2.27045,105.017,13439.1,-5942.64,11366.2,21.3509,63.4703,-58.0058,5498.94,10648.0,-1720.27,-8.28963,-22.0512,-56.5732,11795.5,-1256.26,-2861.02,14.8613,-4.18104,-28.7323
3.298,3882.39,-3380.04,10908.4,-11.2887,-198.799,-29.4892,26107.3,2460.59,-14872.4,44.9638,-42.6166,-5.15849,707.336,14122.8,-301.543,-25.2751,18.949,-170.619,-22759.6,-10847.3,-1057.22,-19.5215,1.23233,111.438,12961.9,-5789.25,10847.8,10.4173,65.1259,-60.6461,5437.25,10661.1,-1756.62,-9.18622,-18.6943,-56.5026,11707.0,-1075.37,-2883.14,13.1581,-3.98835,-27.6648
3.299,3923.96,-3408.12,10892.8,-12.0847,-201.756,-30.1507,25728.2,2195.71,-14185.9,39.7917,-52.4835,0.614395,668.789,14132.6,-356.316,-25.2282,19.1179,-171.59,-22216.8,-11158.3,-1135.79,-18.4792,2.1069,117.24,12538.5,-5632.04,10322.6,1.14422,66.6796,-63.668,5356.01,10692.6,-1760.3,-9.85538,-15.2814,-56.4373,11625.7,-901.228,-2862.93,10.9022,-4.54231,-26.4513
3.3,3965.52,-3436.2,10877.3,-12.8807,-204.714,-30.8121,25349.1,1930.82,-13499.3,34.6196,-62.3504,6.38728,630.243,14142.4,-411.088,-25.1813,19.2869,-172.561,-21674.0,-11469.3,-1214.35,-17.4369,2.98147,123.042,12115.1,-5474.83,9797.42,-8.12884,68.2333,-66.6899,5274.76,10724.0,-1763.97,-10.5245,-11.8685,-56.372,11544.4,-727.089,-2842.71,8.64626,-5.09627,-25.2377
3.301,4007.08,-3464.28,10861.7,-13.6768,-207.671,-31.4736,24970.0,1665.93,-12812.8,29.4475,-72.2173,12.1602,591.697,14152.1,-465.861,-25.1345,19.4558,-173.531,-21131.1,-11780.3,-1292.91,-16.3947,3.85604,128.844,11691.7,-5317.62,9272.21,-17.4019,69.787,-69.7118,5193.51,10755.5,-1767.65,-11.1937,-8.45566,-56.3068,11463.1,-552.951,-2822.5,6.39035,-5.65022,-24.0242
3.302,4048.65,-3492.36,10846.1,-14.4728,-210.628,-32.1351,24590.9,1401.04,-12126.3,24.2754,-82.0842,17.933,553.151,14161.9,-520.634,-25.0876,19.6248,-174.502,-20588.3,-12091.3,-1371.48,-15.3524,4.73062,134.646,11268.3,-5160.41,8747.01,-26.675,71.3407,-72.7337,5112.26,10787.0,-1771.32,-11.8629,-5.04277,-56.2415,11381.8,-378.813,-2802.29,4.13444,-6.20418,-22.8106
3.303,4064.53,-3489.8,10845.4,-15.3589,-213.821,-32.835,24510.5,1162.53,-12444.7,20.3044,-89.3005,23.8874,523.681,14210.1,-572.946,-25.1281,19.583,-175.372,-19793.4,-12329.9,-1476.31,-14.1797,9.07387,139.913,10868.0,-4975.61,8086.02,-34.541,72.0454,-75.4221,5014.26,10836.6,-1775.93,-12.4991,-2.13652,-56.1434,11356.4,-204.96,-2689.76,1.94622,-7.57964,-21.6973
3.304,4073.07,-3478.48,10848.9,-16.2707,-217.08,-33.546,24515.3,931.553,-13050.1,16.6765,-95.7594,29.8937,496.804,14269.3,-624.554,-25.1936,19.4811,-176.213,-18926.6,-12547.9,-1588.64,-12.9698,14.4082,145.026,10474.4,-4782.94,7386.23,-42.005,72.5076,-78.0153,4911.47,10891.2,-1780.8,-13.126,0.624973,-56.0359,11346.9,-31.1876,-2550.84,-0.22266,-9.18981,-20.6126
3.305,4081.6,-3467.16,10852.4,-17.1825,-220.34,-34.2569,24520.1,700.576,-13655.5,13.0486,-102.218,35.8999,469.927,14328.5,-676.162,-25.2592,19.3791,-177.054,-18059.8,-12765.9,-1700.98,-11.7599,19.7425,150.14,10080.7,-4590.26,6686.44,-49.4691,72.9698,-80.6084,4808.69,10945.9,-1785.67,-13.7528,3.38647,-55.9284,11337.5,142.585,-2411.93,-2.39154,-10.8,-19.528
3.306,4090.14,-3455.85,10856.0,-18.0944,-223.599,-34.9679,24524.9,469.6,-14261.0,9.42074,-108.677,41.9062,443.05,14387.7,-727.77,-25.3247,19.2772,-177.895,-17192.9,-12983.9,-1813.31,-10.55,25.0768,155.253,9687.1,-4397.59,5986.66,-56.9331,73.432,-83.2016,4705.9,11000.6,-1790.54,-14.3796,6.14797,-55.8209,11328.0,316.357,-2273.02,-4.56042,-12.4102,-18.4433
3.307,4096.01,-3479.96,10867.7,-18.986,-226.908,-35.7599,24682.8,541.617,-14733.1,4.32545,-122.331,51.6628,421.381,14443.4,-758.167,-25.4428,19.0714,-178.774,-15861.7,-13278.0,-2066.27,-8.65063,33.2464,160.432,9300.4,-4229.99,5204.96,-63.5878,73.9199,-85.5958,4602.13,11054.3,-1788.89,-14.9889,8.61415,-55.5966,11334.3,484.767,-1962.98,-7.09525,-14.3482,-17.5635
3.308,4096.51,-3574.92,10895.8,-19.8372,-230.317,-36.7138,25146.8,1219.62,-14938.7,-3.70464,-150.374,68.9204,410.125,14492.3,-746.143,-25.6659,18.6578,-179.73,-13601.5,-13724.3,-2600.5,-5.37232,47.0868,165.741,8927.62,-4112.52,4259.43,-68.6238,74.4591,-87.592,4496.4,11106.0,-1774.2,-15.5632,10.4897,-55.1388,11372.1,642.453,-1310.67,-10.3619,-16.942,-17.0933
3.309,4097.02,-3669.89,10923.8,-20.6884,-233.726,-37.6678,25610.8,1897.62,-15144.3,-11.7347,-178.416,86.1779,398.87,14541.2,-734.119,-25.8891,18.2443,-180.685,-11341.4,-14170.7,-3134.72,-2.094,60.9271,171.051,8554.84,-3995.05,3313.91,-73.6599,74.9984,-89.5883,4390.66,11157.7,-1759.51,-16.1375,12.3653,-54.6811,11409.9,800.139,-658.367,-13.6287,-19.5358,-16.6232
3.31,4097.53,-3764.85,10951.9,-21.5396,-237.135,-38.6218,26074.8,2575.63,-15349.9,-19.7648,-206.459,103.435,387.615,14590.1,-722.095,-26.1122,17.8308,-181.641,-9081.28,-14617.0,-3668.94,1.18431,74.7674,176.36,8182.06,-3877.58,2368.39,-78.6959,75.5376,-91.5845,4284.92,11209.4,-1744.83,-16.7117,14.2409,-54.2233,11447.6,957.825,-6.06166,-16.8954,-22.1296,-16.1531
3.311,4098.04,-3859.82,10980.0,-22.3908,-240.544,-39.5758,26538.8,3253.63,-15555.5,-27.7949,-234.502,120.693,376.359,14639.0,-710.071,-26.3354,17.4172,-182.596,-6821.15,-15063.4,-4203.16,4.46263,88.6077,181.67,7809.27,-3760.11,1422.87,-83.7319,76.0768,-93.5808,4179.18,11261.1,-1730.14,-17.286,16.1165,-53.7655,11485.4,1115.51,646.244,-20.1621,-24.7234,-15.683
3.312,4116.65,-3986.19,11059.5,-23.2392,-244.412,-40.7508,23839.8,3239.66,-8153.48,-43.8797,-303.877,151.024,411.095,14715.7,-653.044,-26.5517,16.7135,-183.353,-2861.1,-16170.7,-4878.22,9.33404,99.4185,186.095,7588.57,-3881.84,-36.4312,-86.5807,78.9017,-95.2788,4078.81,11283.4,-1800.16,-17.3824,16.9369,-53.1434,11706.9,1185.11,1594.91,-23.5166,-26.2603,-16.3182
3.313,4137.53,-4116.5,11145.4,-24.0872,-248.338,-41.9534,20745.4,3139.2,199.531,-60.9714,-378.419,182.99,451.581,14795.8,-590.392,-26.7672,15.9734,-184.085,1311.45,-17360.6,-5570.89,14.4046,109.851,190.409,7386.88,-4033.48,-1559.96,-89.1561,82.0123,-96.9396,3979.12,11302.0,-1880.77,-17.419,17.6255,-52.5007,11951.3,1243.7,2580.62,-26.8821,-27.6651,-17.0915
3.314,4158.4,-4246.8,11231.2,-24.9353,-252.263,-43.156,17651.0,3038.74,8552.54,-78.063,-452.961,214.955,492.066,14875.9,-527.74,-26.9828,15.2334,-184.817,5484.0,-18550.6,-6263.56,19.4751,120.283,194.724,7185.19,-4185.11,-3083.48,-91.7315,85.1228,-98.6005,3879.42,11320.6,-1961.37,-17.4557,18.3141,-51.8581,12195.8,1302.29,3566.33,-30.2477,-29.0699,-17.8649
3.315,4179.28,-4377.11,11317.1,-25.7834,-256.189,-44.3587,14556.7,2938.27,16905.6,-95.1547,-527.502,246.921,532.551,14956.0,-465.088,-27.1983,14.4934,-185.549,9656.55,-19740.5,-6956.22,24.5457,130.715,199.038,6983.5,-4336.74,-4607.01,-94.3069,88.2334,-100.261,3779.72,11339.2,-2041.98,-17.4924,19.0027,-51.2154,12440.3,1360.88,4552.04,-33.6132,-30.4747,-18.6382
3.316,4181.79,-4495.94,11435.7,-26.3655,-260.48,-45.5804,10281.3,2491.48,21788.6,-111.016,-575.371,278.897,580.236,15067.7,-371.264,-27.6204,13.8714,-186.196,13837.7,-21370.2,-6188.97,28.8438,126.803,203.689,6979.96,-4576.8,-6469.71,-97.0412,95.1735,-100.611,3714.69,11356.3,-2175.2,-16.8039,18.3215,-50.7202,12840.0,1179.38,5174.48,-30.4051,-29.7345,-20.45
3.317,4161.36,-4600.42,11595.1,-26.6153,-265.229,-46.826,4529.56,1611.76,22334.2,-125.341,-589.898,310.888,636.922,15218.9,-238.476,-28.3008,13.397,-186.736,18029.5,-23549.7,-3596.81,32.1764,104.963,208.76,7224.14,-4927.38,-8756.38,-99.9741,106.901,-99.3227,3692.99,11371.7,-2374.19,-15.209,15.928,-50.4095,13433.7,697.775,5342.84,-18.98,-26.3131,-23.5599
3.318,4140.92,-4704.9,11754.5,-26.8651,-269.978,-48.0715,-1222.13,732.044,22879.8,-139.665,-604.426,342.878,693.608,15370.1,-105.688,-28.9812,12.9227,-187.276,22221.4,-25729.2,-1004.65,35.509,83.123,213.831,7468.31,-5277.96,-11043.0,-102.907,118.628,-98.0341,3671.29,11387.0,-2573.17,-13.6142,13.5345,-50.0988,14027.5,216.171,5511.2,-7.55496,-22.8917,-26.6697
3.319,4120.48,-4809.38,11914.0,-27.1148,-274.726,-49.3171,-6973.83,-147.672,23425.4,-153.99,-618.953,374.868,750.294,15521.2,27.1003,-29.6616,12.4483,-187.816,26413.2,-27908.7,1587.5,38.8416,61.2828,218.902,7712.48,-5628.54,-13329.7,-105.84,130.355,-96.7456,3649.59,11402.3,-2772.15,-12.0193,11.141,-49.7881,14621.3,-265.432,5679.55,3.87013,-19.4702,-29.7795
3.32,4100.05,-4913.87,12073.4,-27.3646,-279.475,-50.5627,-12725.5,-1027.39,23971.1,-168.314,-633.48,406.858,806.981,15672.4,159.888,-30.342,11.9739,-188.356,30605.1,-30088.2,4179.66,42.1742,39.4427,223.973,7956.66,-5979.13,-15616.4,-108.773,142.082,-95.457,3627.88,11417.7,-2971.14,-10.4244,8.7475,-49.4774,15215.0,-747.036,5847.91,15.2952,-16.0488,-32.8894
3.321,4025.1,-5030.83,12206.3,-26.1553,-284.937,-51.5668,-13684.4,-409.253,23891.1,-157.437,-590.203,404.518,933.418,15931.8,164.905,-30.5562,12.6821,-188.595,29334.3,-33116.9,5793.22,43.2376,26.9107,231.169,9275.44,-6585.14,-17991.2,-114.921,167.46,-85.4102,3757.13,11518.9,-3125.93,-8.06124,5.77553,-49.3324,15724.5,-1272.27,5513.52,41.2842,-11.4644,-36.9054
3.322,3950.16,-5147.8,12339.2,-24.946,-290.4,-52.5709,-14643.2,208.882,23811.2,-146.559,-546.926,402.178,1059.85,16191.2,169.921,-30.7704,13.3904,-188.834,28063.4,-36145.7,7406.77,44.3011,14.3786,238.365,10594.2,-7191.14,-20366.1,-121.069,192.838,-75.3634,3886.38,11620.1,-3280.73,-5.69805,2.80356,-49.1873,16233.9,-1797.5,5179.14,67.2732,-6.88003,-40.9214
3.323,3875.21,-5264.77,12472.1,-23.7368,-295.862,-53.5751,-15602.1,827.017,23731.2,-135.682,-503.649,399.839,1186.29,16450.6,174.937,-30.9846,14.0986,-189.073,26792.6,-39174.5,9020.33,45.3645,1.84664,245.561,11913.0,-7797.15,-22740.9,-127.217,218.216,-65.3166,4015.63,11721.3,-3435.53,-3.33485,-0.168403,-49.0422,16743.4,-2322.73,4844.76,93.2622,-2.29563,-44.9374
3.324,3800.27,-5381.73,12605.0,-22.5275,-301.324,-54.5792,-16560.9,1445.15,23651.3,-124.805,-460.372,397.499,1312.73,16710.0,179.953,-31.1988,14.8068,-189.313,25521.7,-42203.2,10633.9,46.428,-10.6854,252.756,13231.8,-8403.16,-25115.7,-133.364,243.594,-55.2698,4144.88,11822.5,-3590.33,-0.971658,-3.14037,-48.8972,17252.8,-2847.96,4510.38,119.251,2.28877,-48.9534
3.325,3747.84,-5467.71,12623.3,-21.1596,-306.909,-55.5673,-13848.5,2105.26,25109.3,-112.091,-403.292,366.474,1386.52,17020.0,120.029,-31.6674,15.6904,-189.662,20785.8,-44245.1,10284.2,45.8703,-0.79975,255.584,15345.3,-9536.98,-26374.2,-136.974,272.093,-41.3013,4349.42,12055.4,-3669.68,0.948699,-4.43853,-48.9809,17518.7,-3147.69,4347.12,138.468,4.59662,-52.7107
3.326,3713.41,-5528.91,12550.0,-19.6648,-312.591,-56.5425,-8199.07,2798.96,27797.6,-97.9064,-335.17,312.502,1418.19,17370.4,8.15358,-32.3395,16.7142,-190.1,13277.8,-45497.4,8364.0,44.0157,27.02,254.916,18094.7,-11093.0,-26739.5,-138.553,303.088,-24.1954,4614.19,12393.6,-3688.67,2.51479,-4.39765,-49.2477,17589.7,-3267.03,4320.76,152.267,5.08323,-56.261
3.327,3678.99,-5590.1,12476.6,-18.17,-318.273,-57.5177,-2549.63,3492.66,30486.0,-83.7224,-267.049,258.53,1449.86,17720.8,-103.722,-33.0115,17.7381,-190.538,5769.76,-46749.8,6443.77,42.1611,54.8397,254.249,20844.1,-12649.1,-27104.9,-140.133,334.083,-7.08954,4878.96,12731.8,-3707.67,4.08087,-4.35676,-49.5144,17660.7,-3386.37,4294.4,166.066,5.56984,-59.8113
3.328,3644.57,-5651.29,12403.3,-16.6752,-323.956,-58.4929,3099.81,4186.35,33174.3,-69.5383,-198.927,204.558,1481.52,18071.2,-215.598,-33.6836,18.7619,-190.975,-1738.26,-48002.1,4523.54,40.3065,82.6594,253.582,23593.5,-14205.2,-27470.3,-141.712,365.078,10.0164,5143.73,13070.1,-3726.66,5.64696,-4.31588,-49.7812,17731.7,-3505.71,4268.04,179.865,6.05646,-63.3616
3.329,3619.74,-5697.89,12315.0,-15.2545,-329.564,-59.5583,8959.5,4911.63,35642.1,-56.1581,-136.285,149.82,1511.06,18417.2,-316.839,-34.4178,19.7386,-191.486,-8781.83,-48689.5,2917.84,37.8659,108.637,252.509,26302.9,-15806.9,-27281.1,-140.728,393.63,26.7715,5401.5,13407.6,-3704.51,6.98827,-4.23671,-49.9929,17794.1,-3626.16,4268.97,191.461,6.08184,-66.9676
3.33,3671.61,-5627.83,12107.1,-14.4255,-334.578,-61.3463,16501.2,5889.51,36344.8,-49.2093,-117.478,88.9573,1523.57,18728.1,-333.004,-35.6499,20.3378,-192.575,-12109.9,-44857.3,3828.43,30.7371,119.88,248.192,28692.0,-17774.1,-22655.5,-119.241,402.637,40.7203,5603.22,13739.5,-3353.21,6.53138,-3.85131,-49.7641,17787.9,-3755.51,4488.22,185.441,2.41734,-71.019
3.331,3723.48,-5557.77,11899.2,-13.5966,-339.592,-63.1342,24042.9,6867.39,37047.5,-42.2604,-98.6705,28.0942,1536.07,19039.1,-349.168,-36.8819,20.937,-193.665,-15437.9,-41025.1,4739.02,23.6084,131.122,243.876,31081.2,-19741.3,-18029.9,-97.7535,411.643,54.6691,5804.95,14071.3,-3001.91,6.07448,-3.46591,-49.5353,17781.6,-3884.86,4707.47,179.421,-1.24715,-75.0705
3.332,3775.35,-5487.71,11691.3,-12.7677,-344.606,-64.9221,31584.6,7845.27,37750.3,-35.3116,-79.8634,-32.7689,1548.57,19350.0,-365.333,-38.1139,21.5362,-194.754,-18765.9,-37193.0,5649.61,16.4796,142.365,239.559,33470.4,-21708.5,-13404.3,-76.2662,420.649,68.6179,6006.67,14403.1,-2650.61,5.61759,-3.08051,-49.3065,17775.4,-4014.21,4926.72,173.401,-4.91165,-79.122
3.333,3827.22,-5417.65,11483.4,-11.9388,-349.62,-66.7101,39126.4,8823.16,38453.0,-28.3628,-61.0564,-93.6319,1561.07,19661.0,-381.498,-39.346,22.1355,-195.844,-22094.0,-33360.8,6560.2,9.35091,153.607,235.242,35859.5,-23675.7,-8778.65,-54.7789,429.656,82.5667,6208.39,14735.0,-2299.31,5.1607,-2.69511,-49.0776,17769.1,-4143.56,5145.97,167.381,-8.57615,-83.1734
3.334,3889.14,-5540.1,11346.0,-10.4179,-354.644,-68.6025,42239.2,9899.31,35687.6,-36.6605,-70.0037,-113.901,1727.71,19864.9,-396.85,-40.0184,22.505,-196.769,-21573.3,-29779.7,7871.93,4.70603,145.2,227.976,36406.9,-24432.8,-2394.46,-20.3839,410.872,93.4089,6319.77,15055.4,-1968.97,1.75613,-2.12973,-48.6464,17890.2,-4405.44,5085.6,159.179,-12.2643,-86.8023
3.335,3956.08,-5758.79,11243.9,-8.55097,-359.674,-70.5472,43137.6,11024.6,31188.0,-52.5816,-92.8282,-113.873,1971.43,20015.3,-411.797,-40.4111,22.7597,-197.612,-19128.3,-26324.0,9384.24,1.30308,126.968,219.233,36033.4,-24584.9,4869.02,20.465,378.192,102.698,6385.98,15370.1,-1649.11,-3.12227,-1.47434,-48.1139,18074.9,-4733.58,4885.42,149.887,-15.9643,-90.2198
3.336,4023.03,-5977.48,11141.8,-6.68407,-364.704,-72.4919,44035.9,12149.9,26688.4,-68.5027,-115.653,-113.845,2215.14,20165.6,-426.743,-40.8038,23.0143,-198.455,-16683.3,-22868.3,10896.5,-2.09987,108.736,210.491,35659.9,-24737.0,12132.5,61.3139,345.512,111.987,6452.19,15684.7,-1329.25,-8.00067,-0.818962,-47.5814,18259.6,-5061.73,4685.24,140.595,-19.6643,-93.6373
3.337,4089.97,-6196.17,11039.7,-4.81716,-369.734,-74.4365,44934.3,13275.1,22188.9,-84.4237,-138.477,-113.817,2458.86,20316.0,-441.69,-41.1965,23.269,-199.298,-14238.2,-19412.6,12408.8,-5.50281,90.5039,201.749,35286.3,-24889.1,19396.0,102.163,312.833,121.276,6518.39,15999.4,-1009.38,-12.8791,-0.16358,-47.049,18444.3,-5389.87,4485.06,131.303,-23.3643,-97.0548
3.338,4132.96,-6445.7,10940.9,-3.08662,-374.762,-76.5743,44429.7,13890.1,17946.4,-95.9038,-161.669,-107.272,2693.71,20390.0,-471.117,-41.3328,23.4517,-199.981,-11751.3,-16403.5,13407.8,-7.95142,73.9543,193.335,34379.2,-24699.6,25472.5,141.721,277.81,129.854,6571.25,16251.9,-688.082,-17.9326,0.546971,-46.4122,18564.6,-5634.77,4227.12,122.837,-26.6466,-99.85
3.339,4092.07,-6803.14,10853.6,-1.83335,-379.781,-79.3881,39014.4,12719.1,14603.4,-91.8401,-186.147,-77.9182,2897.58,20196.5,-551.226,-40.5715,23.3824,-200.102,-9117.83,-14957.4,12610.0,-7.05982,63.2931,186.07,31604.3,-23314.8,27394.8,176.763,234.587,135.945,6577.37,16286.5,-361.743,-23.5992,1.45062,-45.4107,18459.7,-5588.35,3767.02,117.261,-28.4671,-100.467
3.34,4051.18,-7160.57,10766.4,-0.580086,-384.801,-82.2019,33599.1,11548.0,11260.5,-87.7765,-210.624,-48.5646,3101.44,20003.0,-631.336,-39.8103,23.313,-200.223,-6484.33,-13511.3,11812.2,-6.16822,52.6319,178.805,28829.3,-21929.9,29317.1,211.805,191.364,142.036,6583.48,16321.2,-35.4044,-29.2657,2.35426,-44.4091,18354.7,-5541.92,3306.92,111.685,-30.2876,-101.085
3.341,4010.29,-7518.01,10679.2,0.673179,-389.821,-85.0157,28183.8,10376.9,7917.56,-83.7129,-235.102,-19.211,3305.31,19809.5,-711.445,-39.049,23.2437,-200.345,-3850.84,-12065.2,11014.4,-5.27663,41.9707,171.54,26054.4,-20545.0,31239.3,246.846,148.14,148.127,6589.6,16355.8,290.934,-34.9322,3.25791,-43.4075,18249.8,-5495.5,2846.82,106.109,-32.1081,-101.702
3.342,3969.41,-7875.45,10591.9,1.92644,-394.841,-87.8295,22768.5,9205.86,4574.62,-79.6493,-259.579,10.1427,3509.17,19616.0,-791.554,-38.2877,23.1743,-200.466,-1217.34,-10619.1,10216.7,-4.38503,31.3095,164.274,23279.5,-19160.1,33161.6,281.888,104.917,154.218,6595.72,16390.5,617.273,-40.5988,4.16155,-42.4059,18144.8,-5449.07,2386.72,100.533,-33.9286,-102.319
3.343,3907.76,-7986.66,10573.9,3.03705,-399.951,-91.357,17802.1,6455.25,2832.24,-76.3439,-271.342,25.7994,3601.3,19384.8,-881.134,-37.0775,22.6327,-200.777,264.688,-9176.2,8710.52,-5.79162,34.2029,164.403,20442.0,-18282.2,29728.3,289.146,88.5433,150.693,6660.6,16201.4,729.926,-45.0674,5.04623,-41.3699,17678.5,-4941.05,2137.67,93.9002,-36.0463,-99.2836
3.344,3840.18,-8027.51,10575.7,4.10689,-405.086,-95.0886,12963.9,3253.35,1547.16,-73.2553,-279.471,37.5428,3661.49,19142.8,-973.42,-35.7389,21.9562,-201.141,1417.73,-7734.16,7002.01,-7.85482,40.9689,166.644,17586.6,-17549.0,24764.9,288.466,79.8407,144.42,6742.27,15948.4,781.525,-49.1937,5.9255,-40.3241,17109.0,-4301.14,1948.92,86.9651,-38.2488,-95.204
3.345,3772.59,-8068.36,10577.4,5.17673,-410.221,-98.8201,8125.77,51.4562,262.077,-70.1666,-287.6,49.2862,3721.69,18900.7,-1065.71,-34.4004,21.2796,-201.506,2570.77,-6292.12,5293.5,-9.91803,47.735,168.885,14731.2,-16815.9,19801.4,287.786,71.1382,138.148,6823.93,15695.4,833.124,-53.32,6.80476,-39.2782,16539.4,-3661.23,1760.17,80.03,-40.4513,-91.1245
3.346,3705.01,-8109.21,10579.2,6.24658,-415.357,-102.552,3287.63,-3150.44,-1023.0,-67.0779,-295.729,61.0296,3781.89,18658.7,-1157.99,-33.0618,20.6031,-201.87,3723.81,-4850.07,3584.99,-11.9812,54.5011,171.126,11875.9,-16082.7,14838.0,287.105,62.4356,131.875,6905.6,15442.4,884.723,-57.4463,7.68403,-38.2324,15969.9,-3021.33,1571.42,73.0948,-42.6538,-87.045
3.347,3670.47,-8144.75,10583.9,7.62466,-420.585,-106.168,-807.489,-5957.64,-1640.87,-63.0715,-300.402,67.2,3830.21,18471.2,-1221.08,-31.7539,19.6457,-202.161,4430.52,-3369.69,2077.34,-13.7623,62.6566,175.245,9258.52,-15327.9,9972.37,275.724,64.3728,122.286,6985.16,15240.1,950.515,-60.6628,8.31088,-37.0228,15396.9,-2353.35,1359.12,65.4289,-44.7477,-81.8804
3.348,3702.01,-8169.68,10594.5,9.61923,-425.996,-109.555,-3416.56,-7975.44,-924.313,-57.2296,-298.162,62.2244,3854.75,18392.7,-1225.79,-30.5075,18.1264,-202.302,4244.57,-1812.63,971.399,-14.9792,73.5911,183.118,7117.23,-14529.5,5302.32,242.94,87.5894,106.065,7060.49,15139.4,1044.69,-62.0596,8.43292,-35.4857,14817.3,-1629.25,1099.73,56.3012,-46.6243,-74.5457
3.349,3733.54,-8194.61,10605.1,11.6138,-431.408,-112.941,-6025.62,-9993.23,-207.753,-51.3878,-295.922,57.2488,3879.28,18314.2,-1230.5,-29.261,16.6071,-202.444,4058.61,-255.568,-134.54,-16.1961,84.5256,190.992,4975.94,-13731.2,632.262,210.157,110.806,89.8434,7135.82,15038.6,1138.87,-63.4564,8.55495,-33.9485,14237.6,-905.144,840.34,47.1735,-48.5009,-67.211
3.35,3765.08,-8219.53,10615.8,13.6084,-436.82,-116.328,-8634.69,-12011.0,508.807,-45.5459,-293.682,52.2732,3903.82,18235.6,-1235.2,-28.0145,15.0878,-202.585,3872.66,1301.49,-1240.48,-17.413,95.4601,198.865,2834.65,-12932.8,-4037.79,177.373,134.023,73.6221,7211.16,14937.8,1233.04,-64.8532,8.67698,-32.4114,13657.9,-181.039,580.949,38.0458,-50.3774,-59.8763
3.351,3796.62,-8244.46,10626.4,15.6029,-442.232,-119.714,-11243.8,-14028.8,1225.37,-39.704,-291.442,47.2977,3928.36,18157.1,-1239.91,-26.768,13.5685,-202.727,3686.7,2858.55,-2346.42,-18.6298,106.395,206.739,693.358,-12134.5,-8707.85,144.59,157.239,57.4008,7286.49,14837.0,1327.22,-66.25,8.79901,-30.8743,13078.2,543.066,321.558,28.918,-52.254,-52.5416
3.352,4072.79,-8114.24,10658.4,12.7895,-447.614,-121.729,-11739.1,-14196.1,1926.33,-23.0494,-285.294,42.7544,3977.3,18090.1,-1297.6,-26.0936,11.3793,-203.394,2832.47,3779.28,-2266.45,-17.2042,109.218,212.113,-1411.3,-10985.6,-9766.4,101.849,176.339,42.1027,7326.51,14733.9,1481.63,-68.1072,7.35096,-28.9354,12655.2,1014.83,-158.514,19.8752,-51.7766,-45.1578
3.353,4379.54,-7964.63,10693.0,9.37506,-452.991,-123.573,-11970.3,-14132.0,2625.35,-5.04327,-278.657,38.2652,4029.29,18024.5,-1361.91,-25.4907,9.10649,-204.128,1894.71,4620.46,-2038.25,-15.4482,111.027,217.175,-3511.39,-9792.96,-10373.5,57.864,194.923,26.92,7362.11,14630.6,1643.58,-70.0219,5.70664,-26.9463,12251.8,1455.05,-666.171,10.843,-51.0049,-37.7678
3.354,4686.3,-7815.01,10727.7,5.96063,-458.368,-125.417,-12201.4,-14067.9,3324.37,12.9629,-272.02,33.776,4081.28,17958.9,-1426.22,-24.8878,6.83363,-204.862,956.954,5461.64,-1810.04,-13.6922,112.836,222.238,-5611.47,-8600.28,-10980.6,13.8788,213.508,11.7373,7397.72,14527.3,1805.53,-71.9367,4.06233,-24.9571,11848.4,1895.27,-1173.83,1.81082,-50.2333,-30.3778
3.355,4993.05,-7665.4,10762.3,2.54619,-463.746,-127.26,-12432.6,-14003.8,4023.39,30.9691,-265.383,29.2868,4133.27,17893.3,-1490.53,-24.2849,4.56078,-205.596,19.1948,6302.82,-1581.83,-11.9363,114.645,227.3,-7711.56,-7407.6,-11587.7,-30.1064,232.093,-3.44542,7433.32,14423.9,1967.47,-73.8514,2.41801,-22.968,11445.0,2335.49,-1681.49,-7.22139,-49.4616,-22.9877
3.356,5233.84,-7634.14,10756.1,1.08158,-469.675,-129.748,-11857.5,-13218.1,4620.83,43.4835,-259.657,29.0723,4241.1,17886.7,-1423.99,-23.8992,1.93223,-206.439,-887.837,6600.91,-1261.82,-10.5275,113.656,229.419,-9727.19,-6216.52,-11408.0,-70.2089,240.814,-15.3157,7485.83,14359.4,2088.85,-76.5146,0.59276,-20.8793,11085.2,2718.52,-2136.79,-16.2205,-47.7003,-16.3331
3.357,5392.18,-7750.83,10698.9,2.05425,-476.294,-133.04,-10274.6,-11530.6,5091.32,49.1332,-255.07,34.201,4418.74,17953.8,-1193.89,-23.7848,-1.14094,-207.418,-1756.46,6220.13,-827.046,-9.55273,109.17,227.859,-11637.3,-5027.43,-10244.7,-105.458,237.205,-23.0453,7559.45,14343.4,2159.51,-80.1133,-1.45867,-18.666,10780.0,3030.06,-2526.66,-25.1783,-44.7019,-10.5976
3.358,5550.53,-7867.52,10641.6,3.02691,-482.914,-136.332,-8691.63,-9843.03,5561.8,54.7828,-250.482,39.3297,4596.39,18020.8,-963.783,-23.6704,-4.21411,-208.398,-2625.08,5839.35,-392.274,-8.57796,104.685,226.299,-13547.3,-3838.34,-9081.33,-140.707,233.595,-30.7749,7633.08,14327.4,2230.18,-83.7119,-3.5101,-16.4527,10474.8,3341.6,-2916.52,-34.136,-41.7036,-4.86204
3.359,5708.87,-7984.21,10584.4,3.99958,-489.533,-139.624,-7108.7,-8155.49,6032.29,60.4325,-245.895,44.4585,4774.03,18087.9,-733.679,-23.556,-7.28728,-209.377,-3493.7,5458.57,42.4986,-7.60319,100.199,224.739,-15457.4,-2649.26,-7917.99,-175.956,229.986,-38.5045,7706.71,14311.4,2300.84,-87.3106,-5.56153,-14.2394,10169.6,3653.14,-3306.38,-43.0938,-38.7052,0.87347
3.36,5867.21,-8100.9,10527.1,4.97224,-496.153,-142.916,-5525.78,-6467.95,6502.77,66.0822,-241.307,49.5872,4951.67,18155.0,-503.575,-23.4417,-10.3604,-210.357,-4362.32,5077.79,477.271,-6.62843,95.7129,223.179,-17367.4,-1460.17,-6754.66,-211.205,226.376,-46.2341,7780.33,14295.3,2371.51,-90.9092,-7.61296,-12.0261,9864.36,3964.67,-3696.25,-52.0516,-35.7069,6.60898
3.361,5379.08,-8520.14,10417.1,13.521,-504.59,-150.438,-3591.28,-4631.91,6683.49,59.9672,-240.018,56.9291,5371.73,18259.1,-447.894,-23.1541,-13.9649,-210.842,-4465.44,3830.33,214.716,-7.06363,93.7359,216.577,-19395.4,-315.386,-5841.99,-224.953,212.01,-43.8894,7767.59,14237.7,2270.4,-94.3195,-8.4671,-9.99004,9696.44,4205.04,-3511.01,-59.6933,-33.3539,11.0748
3.362,4890.94,-8939.38,10307.0,22.0697,-513.026,-157.96,-1656.78,-2795.88,6864.22,53.8521,-238.73,64.271,5791.79,18363.1,-392.214,-22.8665,-17.5693,-211.326,-4568.57,2582.86,-47.839,-7.49884,91.7588,209.974,-21423.3,829.397,-4929.32,-238.7,197.644,-41.5447,7754.85,14180.1,2169.29,-97.7297,-9.32125,-7.95396,9528.52,4445.41,-3325.77,-67.3351,-31.001,15.5406
3.363,4402.8,-9358.62,10197.0,30.6184,-521.463,-165.482,277.712,-959.844,7044.94,47.7371,-237.441,71.6129,6211.84,18467.1,-336.533,-22.5789,-21.1738,-211.811,-4671.69,1335.4,-310.394,-7.93404,89.7818,203.371,-23451.2,1974.18,-4016.65,-252.448,183.279,-39.2,7742.12,14122.5,2068.19,-101.14,-10.1754,-5.91788,9360.6,4685.78,-3140.54,-74.9769,-28.648,20.0064
3.364,3914.66,-9777.86,10087.0,39.1672,-529.9,-173.004,2212.21,876.19,7225.66,41.6221,-236.152,78.9548,6631.9,18571.1,-280.852,-22.2913,-24.7782,-212.296,-4774.81,87.93,-572.949,-8.36925,87.8048,196.768,-25479.1,3118.96,-3103.98,-266.196,168.913,-36.8554,7729.38,14064.9,1967.08,-104.55,-11.0295,-3.88181,9192.68,4926.15,-2955.3,-82.6186,-26.2951,24.4722
3.365,3482.83,-9958.42,9999.03,44.2218,-538.854,-180.478,3936.47,2054.2,7427.32,36.6247,-235.424,83.3923,7055.79,18686.9,-305.883,-21.7935,-28.238,-212.484,-4473.31,-1065.86,-828.838,-8.52501,87.535,190.058,-27366.4,3684.01,-2284.27,-268.574,155.106,-31.3956,7749.11,13980.8,1874.85,-106.873,-11.538,-2.07356,9122.9,5090.25,-2517.61,-88.0476,-25.2101,27.9793
3.366,3096.06,-9948.05,9928.79,46.4812,-548.22,-187.913,5492.54,2705.8,7645.73,32.5214,-235.143,85.5062,7482.73,18812.0,-395.483,-21.1276,-31.582,-212.435,-3848.1,-2144.7,-1079.39,-8.45722,88.631,183.262,-29141.2,3785.26,-1538.92,-261.857,141.747,-23.4437,7794.82,13875.5,1789.72,-108.326,-11.7699,-0.447567,9131.63,5193.34,-1877.97,-91.7064,-25.1394,30.7195
3.367,2709.28,-9937.68,9858.56,48.7406,-557.587,-195.348,7048.61,3357.4,7864.15,28.4182,-234.862,87.6202,7909.68,18937.1,-485.083,-20.4617,-34.926,-212.387,-3222.9,-3223.55,-1329.95,-8.38942,89.727,176.466,-30916.0,3886.51,-793.563,-255.141,128.388,-15.4918,7840.53,13770.2,1704.59,-109.779,-12.0019,1.17842,9140.36,5296.43,-1238.32,-95.3652,-25.0687,33.4596
3.368,2322.5,-9927.31,9788.33,51.0,-566.954,-202.784,8604.68,4009.0,8082.56,24.3149,-234.581,89.7341,8336.63,19062.2,-574.683,-19.7959,-38.27,-212.338,-2597.69,-4302.39,-1580.5,-8.32163,90.8231,169.67,-32690.7,3987.77,-48.2101,-248.424,115.028,-7.53997,7886.25,13664.8,1619.46,-111.232,-12.2338,2.80441,9149.08,5399.52,-598.676,-99.0239,-24.998,36.1998
3.369,1973.73,-9890.11,9645.75,53.2615,-576.548,-210.362,10099.3,4527.02,8288.46,20.466,-234.253,91.6709,8726.14,19178.7,-725.371,-19.0447,-41.1809,-212.35,-1991.87,-5309.8,-1787.81,-8.19481,91.8521,163.256,-34292.3,3918.82,653.069,-240.746,102.078,-0.0435701,7939.55,13558.0,1555.48,-112.463,-12.3439,4.40349,9167.95,5495.72,28.2873,-102.117,-25.0622,38.7159
3.37,1929.06,-9638.33,8924.39,55.5393,-587.961,-219.088,11102.6,3976.47,8394.3,18.6525,-233.55,92.1904,8816.19,19227.0,-1364.77,-17.6114,-40.6269,-212.848,-1541.1,-5745.74,-1649.12,-7.59578,92.345,159.896,-34508.0,2488.33,1001.76,-225.378,92.4016,3.80912,8053.64,13438.5,1660.77,-111.911,-11.4796,5.78724,9267.89,5536.88,553.792,-100.682,-26.2052,39.4399
3.371,1884.39,-9386.54,8203.03,57.8171,-599.374,-227.813,12105.8,3425.92,8500.13,16.839,-232.847,92.7098,8906.24,19275.3,-2004.17,-16.1782,-40.073,-213.346,-1090.33,-6181.67,-1510.44,-6.99674,92.8379,156.535,-34723.6,1057.83,1350.45,-210.011,82.7248,7.6618,8167.72,13319.1,1766.06,-111.36,-10.6153,7.17099,9367.84,5578.04,1079.3,-99.2467,-27.3481,40.1639
3.372,1839.72,-9134.75,7481.68,60.0949,-610.788,-236.538,13109.1,2875.37,8605.96,15.0255,-232.144,93.2293,8996.28,19323.6,-2643.56,-14.7449,-39.519,-213.845,-639.553,-6617.61,-1371.75,-6.39771,93.3308,153.175,-34939.3,-372.663,1699.15,-194.643,73.048,11.5145,8281.81,13199.7,1871.35,-110.809,-9.75099,8.55475,9467.79,5619.2,1604.8,-97.8117,-28.4911,40.8879
3.373,1795.05,-8882.96,6760.32,62.3727,-622.201,-245.263,14112.3,2324.82,8711.8,13.212,-231.441,93.7488,9086.33,19371.8,-3282.96,-13.3116,-38.965,-214.343,-188.78,-7053.55,-1233.06,-5.79868,93.8237,149.814,-35154.9,-1803.16,2047.84,-179.275,63.3712,15.3672,8395.9,13080.2,1976.64,-110.258,-8.88669,9.9385,9567.74,5660.36,2130.3,-96.3767,-29.634,41.6119
3.374,2132.48,-8470.56,6306.25,64.4253,-633.981,-254.355,14603.3,1721.34,8776.77,13.9148,-229.94,95.8856,8667.36,19400.2,-3399.31,-11.9367,-39.8134,-215.877,-209.402,-7333.66,-1033.51,-5.26141,92.7567,148.593,-34431.4,-3287.34,1956.37,-163.487,56.214,15.4942,8501.21,13020.5,1885.1,-108.783,-6.28002,11.4355,9673.29,5683.19,2364.52,-92.7467,-30.3498,41.0218
3.375,2660.96,-7977.85,5985.83,66.3653,-645.945,-263.629,14838.0,1091.41,8821.32,15.8758,-228.04,98.831,7993.87,19418.5,-3254.14,-10.5909,-41.3629,-217.928,-465.722,-7535.87,-803.526,-4.75503,90.9097,148.442,-33238.3,-4798.36,1644.81,-147.488,50.3165,13.7585,8602.13,12990.6,1695.14,-106.845,-2.80218,12.9892,9781.65,5696.85,2453.1,-88.0192,-30.852,39.7746
3.376,3189.43,-7485.15,5665.4,68.3053,-657.909,-272.904,15072.8,461.474,8865.86,17.8368,-226.14,101.776,7320.39,19436.9,-3108.97,-9.24504,-42.9124,-219.98,-722.041,-7738.07,-573.544,-4.24864,89.0627,148.291,-32045.2,-6309.39,1333.26,-131.489,44.419,12.0227,8703.06,12960.7,1505.19,-104.908,0.675671,14.5428,9890.01,5710.51,2541.68,-83.2917,-31.3543,38.5275
3.377,3717.91,-6992.44,5344.98,70.2453,-669.873,-282.178,15307.6,-168.461,8910.41,19.7977,-224.24,104.722,6646.91,19455.3,-2963.8,-7.89924,-44.4619,-222.031,-978.361,-7940.28,-343.562,-3.74226,87.2157,148.139,-30852.1,-7820.41,1021.7,-115.49,38.5215,10.287,8803.98,12930.8,1315.23,-102.97,4.15352,16.0965,9998.37,5724.17,2630.26,-78.5642,-31.8565,37.2804
3.378,4331.87,-6560.4,5192.18,71.62,-681.193,-290.326,15338.4,-678.379,8885.79,22.2029,-222.504,107.801,6186.5,19641.1,-2709.02,-7.51158,-47.5047,-223.698,-1317.81,-8172.03,-142.622,-3.33163,84.9993,148.338,-29531.1,-9093.05,680.836,-100.168,32.8246,8.81327,8903.7,12902.8,1094.63,-100.702,8.17506,17.6568,10103.3,5762.18,2669.29,-73.9656,-32.1474,35.7345
3.379,5245.03,-6340.71,5626.05,71.0161,-690.26,-294.532,14655.5,-768.239,8619.1,26.1628,-221.344,111.348,6471.88,20412.8,-2070.62,-10.4775,-55.7742,-224.019,-1948.2,-8507.18,-43.3352,-3.25613,81.4898,149.763,-27762.5,-9531.34,237.386,-87.2165,27.8299,8.25661,8999.18,12881.9,766.792,-97.2778,14.0995,19.2402,10196.2,5885.45,2534.9,-69.8184,-31.6988,33.1431
3.38,6158.18,-6121.02,6059.92,70.4123,-699.328,-298.738,13972.6,-858.099,8352.41,30.1227,-220.184,114.895,6757.25,21184.6,-1432.23,-13.4434,-64.0436,-224.34,-2578.59,-8842.33,55.9521,-3.18064,77.9803,151.189,-25993.9,-9969.63,-206.064,-74.2651,22.8352,7.69995,9094.66,12861.0,438.952,-93.8531,20.024,20.8237,10289.1,6008.71,2400.51,-65.6712,-31.2502,30.5517
3.381,7071.34,-5901.32,6493.78,69.8085,-708.396,-302.944,13289.7,-947.959,8085.72,34.0826,-219.025,118.442,7042.62,21956.4,-793.827,-16.4092,-72.3131,-224.661,-3208.99,-9177.48,155.239,-3.10514,74.4708,152.614,-24225.3,-10407.9,-649.515,-61.3137,17.8405,7.14328,9190.14,12840.0,111.112,-90.4285,25.9484,22.4071,10381.9,6131.97,2266.12,-61.524,-30.8016,27.9603
3.382,7984.49,-5681.63,6927.65,69.2046,-717.463,-307.149,12606.8,-1037.82,7819.03,38.0425,-217.865,121.989,7327.99,22728.2,-155.428,-19.3751,-80.5826,-224.982,-3839.38,-9512.63,254.527,-3.02964,70.9613,154.039,-22456.8,-10846.2,-1092.96,-48.3622,12.8457,6.58662,9285.62,12819.1,-216.728,-87.0038,31.8729,23.9906,10474.8,6255.24,2131.73,-57.3768,-30.353,25.3689
3.383,8459.4,-5985.23,7412.82,67.591,-722.464,-309.034,11616.2,-555.216,7620.24,36.7587,-216.199,124.736,8180.39,23102.1,-21.0947,-21.0562,-86.8855,-224.008,-4288.15,-9966.99,379.196,-2.97428,67.2393,155.252,-20556.8,-10760.2,-1186.73,-36.3089,5.65144,10.3016,9427.62,12971.0,-79.9221,-86.7759,38.5681,25.9042,10508.8,6333.69,2102.3,-54.956,-29.7485,22.5642
3.384,8809.1,-6438.34,7912.65,65.6889,-726.303,-310.255,10537.7,90.9464,7440.84,33.9768,-214.387,127.255,9194.8,23362.4,-30.7803,-22.3702,-92.6267,-222.664,-4685.01,-10455.4,511.118,-2.92467,63.4566,156.404,-18619.4,-10524.5,-1180.58,-24.5121,-2.17134,15.2371,9582.9,13172.3,189.64,-87.4612,45.4836,27.9122,10525.9,6399.35,2102.87,-53.0284,-29.0995,19.6986
3.385,9158.79,-6891.45,8412.48,63.7867,-730.141,-311.476,9459.26,737.109,7261.44,31.1949,-212.576,129.773,10209.2,23622.6,-40.4658,-23.6842,-98.3678,-221.321,-5081.88,-10943.8,643.039,-2.87506,59.6739,157.556,-16682.0,-10288.7,-1174.43,-12.7153,-9.99411,20.1726,9738.18,13373.6,459.201,-88.1466,52.399,29.9202,10543.1,6465.0,2103.44,-51.1007,-28.4505,16.833
3.386,9508.48,-7344.56,8912.3,61.8846,-733.98,-312.697,8380.8,1383.27,7082.03,28.413,-210.765,132.292,11223.6,23882.9,-50.1514,-24.9982,-104.109,-219.977,-5478.75,-11432.3,774.96,-2.82545,55.8912,158.708,-14744.5,-10052.9,-1168.27,-0.918505,-17.8169,25.1081,9893.47,13574.9,728.763,-88.832,59.3145,31.9281,10560.2,6530.65,2104.01,-49.1731,-27.8014,13.9675
3.387,9599.05,-8000.98,9511.67,59.5585,-736.387,-314.022,7501.74,2307.54,7352.96,17.9344,-205.039,135.209,12285.7,23935.2,-143.385,-25.6101,-109.016,-218.181,-5785.58,-11859.2,723.8,-3.47078,52.3149,159.447,-12870.1,-9798.6,-1044.58,11.1276,-26.5797,31.5197,10156.7,13738.0,938.247,-89.4654,67.0611,33.9495,10580.5,6527.79,2161.66,-47.146,-27.3264,11.1425
3.388,9171.35,-9064.04,10310.1,56.3845,-735.93,-315.553,7021.5,3788.03,8524.54,-7.93747,-191.483,138.923,13443.3,23571.6,-403.713,-24.8179,-112.256,-215.479,-5912.33,-12163.3,306.474,-5.50601,49.1516,159.361,-11121.9,-9507.22,-685.809,23.6725,-37.2228,40.8838,10635.6,13824.9,1027.57,-89.9949,76.4698,35.9976,10607.3,6387.92,2333.49,-44.9197,-27.1996,8.39893
3.389,8743.66,-10127.1,11108.6,53.2105,-735.473,-317.084,6541.26,5268.52,9696.11,-33.8093,-177.927,142.637,14600.8,23208.0,-664.042,-24.0257,-115.495,-212.777,-6039.08,-12467.4,-110.851,-7.54124,45.9882,159.275,-9373.66,-9215.84,-327.035,36.2174,-47.8658,50.2479,11114.6,13911.9,1116.9,-90.5245,85.8786,38.0457,10634.1,6248.05,2505.32,-42.6935,-27.0727,5.65532
3.39,8315.97,-11190.2,11907.0,50.0366,-735.016,-318.615,6061.01,6749.01,10867.7,-59.6812,-164.371,146.351,15758.4,22844.4,-924.37,-23.2335,-118.735,-210.075,-6165.83,-12771.4,-528.177,-9.57646,42.8248,159.188,-7625.41,-8924.46,31.7389,48.7623,-58.5089,59.6119,11593.6,13998.8,1206.23,-91.054,95.2873,40.0938,10660.9,6108.18,2677.14,-40.4672,-26.9459,2.91172
3.391,7888.28,-12253.2,12705.5,46.8626,-734.56,-320.146,5580.77,8229.49,12039.3,-85.5531,-150.815,150.065,16915.9,22480.9,-1184.7,-22.4413,-121.974,-207.373,-6292.58,-13075.5,-945.502,-11.6117,39.6615,159.102,-5877.17,-8633.08,390.513,61.3072,-69.152,68.976,12072.6,14085.7,1295.55,-91.5836,104.696,42.142,10687.6,5968.3,2848.97,-38.241,-26.819,0.168117
3.392,7132.84,-13198.4,13254.2,44.1156,-732.416,-321.454,6686.48,10893.8,13762.7,-121.979,-119.988,150.099,17581.1,21808.3,-1518.3,-21.1149,-121.513,-204.691,-6570.13,-12962.0,-2335.33,-15.1908,38.8603,158.628,-4641.57,-8539.98,488.068,69.0427,-78.4995,77.8647,11928.5,13865.0,2865.13,-94.3233,101.099,41.8723,10786.5,5760.09,3061.28,-34.6669,-26.8701,-2.97462
3.393,6336.44,-14128.9,13771.7,41.4219,-730.062,-322.734,7990.44,13706.1,15555.1,-159.724,-87.0029,149.673,18184.9,21097.0,-1861.07,-19.7217,-120.588,-202.011,-6866.52,-12796.4,-3846.72,-18.9628,38.3543,158.105,-3470.06,-8471.66,552.97,76.177,-87.6851,86.694,11706.5,13606.0,4619.73,-97.3393,95.8751,41.3129,10894.4,5543.33,3278.65,-30.9244,-26.9435,-6.16724
3.394,5540.03,-15059.3,14289.2,38.7282,-727.707,-324.014,9294.4,16518.4,17347.5,-197.469,-54.0175,149.248,18788.6,20385.8,-2203.83,-18.3286,-119.664,-199.332,-7162.91,-12630.8,-5358.11,-22.7348,37.8483,157.582,-2298.55,-8403.34,617.872,83.3113,-96.8707,95.5233,11484.5,13346.9,6374.34,-100.355,90.6518,40.7535,11002.3,5326.57,3496.02,-27.1819,-27.0169,-9.35987
3.395,4743.63,-15989.8,14806.7,36.0346,-725.353,-325.295,10598.4,19330.7,19139.9,-235.214,-21.0321,148.822,19392.3,19674.6,-2546.59,-16.9354,-118.74,-196.653,-7459.3,-12465.1,-6869.5,-26.5069,37.3423,157.059,-1127.04,-8335.03,682.774,90.4456,-106.056,104.353,11262.5,13087.8,8128.95,-103.371,85.4284,40.1941,11110.1,5109.81,3713.38,-23.4394,-27.0903,-12.5525
3.396,4152.37,-16673.2,15004.1,34.1258,-722.533,-325.726,12295.0,21589.6,19757.1,-246.128,3.35483,137.696,19663.3,18901.2,-2883.6,-15.4083,-115.254,-194.401,-7881.36,-12352.7,-7907.33,-28.9463,35.7259,156.775,-200.96,-8346.77,497.193,92.7207,-112.518,111.317,10452.1,12821.4,9524.61,-108.5,73.8983,38.4525,11223.2,4869.6,3896.72,-19.4237,-26.8771,-15.8649
3.397,3817.53,-17047.6,14801.6,33.1982,-719.131,-325.097,14482.5,23156.5,18905.2,-223.503,16.9936,113.194,19518.4,18049.9,-3213.4,-13.7136,-108.567,-192.682,-8460.51,-12306.9,-8353.18,-29.72,32.7214,156.79,418.332,-8458.57,-1.49067,88.9216,-115.576,115.95,8906.33,12545.9,10471.6,-116.271,54.4849,35.2331,11342.6,4600.07,4037.53,-15.0666,-26.3059,-19.327
3.398,3482.7,-17422.1,14599.1,32.2705,-715.729,-324.468,16669.9,24723.5,18053.3,-200.878,30.6324,88.6928,19373.5,17198.7,-3543.2,-12.019,-101.88,-190.963,-9039.66,-12261.1,-8799.04,-30.4936,29.7169,156.805,1037.63,-8570.38,-500.175,85.1225,-118.634,120.584,7360.54,12270.3,11418.6,-124.042,35.0715,32.0137,11462.1,4330.54,4178.33,-10.7094,-25.7346,-22.7891
3.399,3147.87,-17796.5,14396.5,31.3429,-712.327,-323.838,18857.4,26290.5,17201.5,-178.253,44.2711,64.1912,19228.6,16347.5,-3873.0,-10.3244,-95.1925,-189.245,-9618.81,-12215.3,-9244.9,-31.2673,26.7124,156.82,1656.92,-8682.19,-998.858,81.3234,-121.692,125.217,5814.74,11994.7,12365.6,-131.812,15.658,28.7943,11581.6,4061.01,4319.13,-6.35223,-25.1633,-26.2512
3.4,2813.04,-18170.9,14194.0,30.4153,-708.925,-323.209,21044.9,27857.5,16349.6,-155.628,57.9099,39.6896,19083.7,15496.3,-4202.8,-8.62975,-88.5052,-187.526,-10198.0,-12169.5,-9690.76,-32.0409,23.708,156.835,2276.21,-8794.0,-1497.54,77.5244,-124.75,129.851,4268.95,11719.2,13312.5,-139.583,-3.75539,25.5749,11701.1,3791.48,4459.94,-1.99507,-24.5921,-29.7133
