Time,RFoot_accel.x,RFoot_accel.y,RFoot_accel.z,RFoot_gyro.x,RFoot_gyro.y,RFoot_gyro.z,LFoot_accel.x,LFoot_accel.y,LFoot_accel.z,LFoot_gyro.x,LFoot_gyro.y,LFoot_gyro.z,RShank_accel.x,RShank_accel.y,RShank_accel.z,RShank_gyro.x,RShank_gyro.y,RShank_gyro.z,LShank_accel.x,LShank_accel.y,LShank_accel.z,LShank_gyro.x,LShank_gyro.y,LShank_gyro.z,RThigh_accel.x,RThigh_accel.y,RThigh_accel.z,RThigh_gyro.x,RThigh_gyro.y,RThigh_gyro.z,LThigh_accel.x,LThigh_accel.y,LThigh_accel.z,LThigh_gyro.x,LThigh_gyro.y,LThigh_gyro.z,Pelvis_accel.x,Pelvis_accel.y,Pelvis_accel.z,Pelvis_gyro.x,Pelvis_gyro.y,Pelvis_gyro.z
3.75,4290.98,-3713.36,7574.63,-109.4,322.703,236.721,3874.5,3644.48,8158.0,9.42997,-4.02975,-0.0391276,1034.91,7295.26,-1781.85,5.48449,67.834,334.535,-728.056,-9521.06,-1631.24,-7.89456,-6.74516,26.8662,-242.202,-9383.91,-2068.79,-40.5748,-106.888,100.306,-8630.98,4583.26,-1884.5,22.7939,190.935,124.138,6072.69,-1382.34,671.627,19.3935,25.4807,44.7785
3.751,4474.42,-3711.25,7701.01,-111.783,322.154,236.226,3822.17,3689.69,8166.48,9.40808,-4.04393,0.126214,951.411,7390.32,-1777.01,5.47592,65.9434,337.274,-733.103,-9546.67,-1683.65,-7.63165,-6.63782,27.1656,-314.84,-9525.5,-2062.14,-39.5479,-108.862,100.814,-8771.83,4348.84,-1674.58,30.3939,190.863,118.9,6045.79,-1391.36,686.583,20.3539,25.53,44.0682
3.752,4692.34,-3709.29,7801.4,-113.846,321.589,235.602,3817.21,3692.01,8182.78,9.40348,-4.0039,0.403591,914.727,7472.51,-1802.76,5.60027,64.3252,339.738,-751.308,-9600.46,-1702.82,-7.28981,-6.90418,27.3977,-295.364,-9669.73,-2055.1,-38.0699,-110.779,101.052,-8753.36,4377.48,-1473.36,35.2481,190.272,115.084,6054.38,-1437.59,655.177,21.0829,25.5214,43.5438
3.753,4914.57,-3707.36,7898.54,-115.868,321.022,234.962,3818.17,3688.98,8200.06,9.40105,-3.95709,0.694972,883.895,7553.09,-1832.33,5.74124,62.7411,342.167,-771.157,-9657.77,-1717.84,-6.93811,-7.21724,27.6214,-264.374,-9814.29,-2048.0,-36.5355,-112.689,101.258,-8714.97,4439.01,-1273.23,39.7591,189.616,111.445,6067.4,-1488.46,617.975,21.7831,25.5056,43.0428
3.754,5136.81,-3705.42,7995.68,-117.891,320.455,234.322,3819.12,3685.94,8217.34,9.39862,-3.91028,0.986353,853.063,7633.66,-1861.9,5.88221,61.1571,344.596,-791.007,-9715.09,-1732.86,-6.58641,-7.53031,27.845,-233.383,-9958.86,-2040.9,-35.0011,-114.599,101.463,-8676.58,4500.53,-1073.1,44.2702,188.96,107.806,6080.43,-1539.33,580.773,22.4833,25.4899,42.5417
3.755,5359.04,-3703.49,8092.82,-119.913,319.887,233.682,3820.08,3682.9,8234.61,9.39618,-3.86347,1.27773,822.23,7714.24,-1891.47,6.02317,59.573,347.025,-810.856,-9772.4,-1747.88,-6.23471,-7.84337,28.0686,-202.393,-10103.4,-2033.8,-33.4667,-116.509,101.668,-8638.19,4562.05,-872.97,48.7812,188.305,104.167,6093.45,-1590.2,543.572,23.1835,25.4741,42.0406
3.756,5587.89,-3714.5,8197.49,-121.768,319.502,232.987,3820.97,3697.64,8245.26,9.34133,-3.88483,1.49369,810.719,7797.38,-1924.24,6.31085,58.1289,349.332,-851.787,-9839.5,-1763.77,-5.9846,-8.33129,28.2186,-146.092,-10220.8,-2035.87,-31.7062,-118.417,101.695,-8551.56,4659.7,-712.541,49.1176,188.353,102.439,6119.94,-1610.61,534.058,23.7279,25.453,41.6258
3.757,5825.02,-3741.7,8311.58,-123.414,319.345,232.223,3821.78,3734.61,8247.62,9.22094,-3.99138,1.61536,823.359,7883.72,-1961.0,6.7819,56.86,351.487,-919.068,-9918.83,-1780.75,-5.86147,-9.03778,28.2764,-58.1543,-10304.3,-2049.4,-29.6632,-120.321,101.497,-8404.64,4802.51,-601.738,44.2357,189.28,103.1,6163.27,-1592.93,559.155,24.0778,25.4252,41.3191
3.758,6062.15,-3768.9,8425.67,-125.06,319.188,231.458,3822.58,3771.58,8249.99,9.10056,-4.09793,1.73704,836.0,7970.06,-1997.76,7.25295,55.591,353.643,-986.349,-9998.16,-1797.73,-5.73833,-9.74426,28.3342,29.7838,-10387.8,-2062.92,-27.6202,-122.226,101.299,-8257.72,4945.31,-490.934,39.3539,190.208,103.76,6206.61,-1575.25,584.252,24.4277,25.3975,41.0123
3.759,6299.28,-3796.1,8539.76,-126.706,319.031,230.694,3823.39,3808.55,8252.35,8.98017,-4.20448,1.85871,848.64,8056.41,-2034.53,7.72401,54.3221,355.798,-1053.63,-10077.5,-1814.71,-5.6152,-10.4507,28.3921,117.722,-10471.3,-2076.45,-25.5772,-124.131,101.101,-8110.8,5088.12,-380.13,34.472,191.135,104.421,6249.94,-1557.57,609.349,24.7775,25.3697,40.7055
3.76,6536.4,-3823.3,8653.85,-128.351,318.874,229.93,3824.19,3845.52,8254.71,8.85979,-4.31103,1.98038,861.28,8142.75,-2071.29,8.19506,53.0531,357.953,-1120.91,-10156.8,-1831.69,-5.49206,-11.1572,28.4499,205.66,-10554.8,-2089.98,-23.5343,-126.035,100.903,-7963.88,5230.93,-269.327,29.5901,192.063,105.082,6293.27,-1539.89,634.446,25.1274,25.342,40.3988
3.761,6792.68,-3946.9,8735.68,-129.077,319.306,228.648,3804.37,3845.72,8272.34,8.64668,-4.50581,2.44217,869.66,8254.38,-2097.33,9.07375,52.3918,360.039,-1176.35,-10219.5,-1817.64,-5.23273,-12.0151,28.3738,358.535,-10569.8,-2092.27,-21.8907,-127.721,100.634,-7833.54,5135.63,-136.787,26.1435,191.256,104.145,6328.25,-1572.84,616.343,25.4542,25.1846,40.0623
3.762,7048.95,-4070.51,8817.51,-129.803,319.738,227.366,3784.54,3845.92,8289.96,8.43357,-4.70059,2.90396,878.039,8366.01,-2123.36,9.95244,51.7305,362.125,-1231.78,-10282.2,-1803.6,-4.9734,-12.873,28.2977,511.411,-10584.8,-2094.56,-20.2471,-129.406,100.365,-7703.19,5040.33,-4.2468,22.6969,190.449,103.209,6363.22,-1605.8,598.24,25.7809,25.0273,39.7259
3.763,7305.23,-4194.11,8899.33,-130.529,320.169,226.084,3764.71,3846.12,8307.59,8.22046,-4.89537,3.36574,886.419,8477.64,-2149.39,10.8311,51.0692,364.21,-1287.22,-10344.8,-1789.55,-4.71407,-13.7309,28.2216,664.286,-10599.7,-2096.85,-18.6035,-131.091,100.096,-7572.84,4945.03,128.293,19.2503,189.642,102.273,6398.2,-1638.75,580.138,26.1077,24.87,39.3894
3.764,7561.5,-4317.72,8981.16,-131.255,320.601,224.802,3744.89,3846.32,8325.22,8.00735,-5.09015,3.82753,894.798,8589.27,-2175.43,11.7098,50.4079,366.296,-1342.65,-10407.5,-1775.5,-4.45474,-14.5887,28.1456,817.161,-10614.7,-2099.14,-16.9599,-132.776,99.8273,-7442.49,4849.73,260.833,15.8037,188.835,101.337,6433.18,-1671.71,562.035,26.4345,24.7127,39.0529
3.765,7818.76,-4479.85,9055.51,-131.506,321.148,223.528,3755.89,3825.19,8319.04,7.93385,-5.16903,4.22754,889.135,8704.83,-2204.56,12.6562,50.0205,368.327,-1431.18,-10443.7,-1760.57,-4.29044,-15.6303,28.0088,964.879,-10609.6,-2078.86,-15.4367,-134.429,99.4494,-7316.8,4789.32,327.479,14.0292,186.495,99.9474,6469.47,-1687.76,533.579,26.6389,24.6287,38.9095
3.766,8076.8,-4672.8,9123.89,-131.378,321.787,222.259,3791.56,3787.01,8293.83,7.97203,-5.1552,4.57814,872.238,8823.54,-2236.18,13.6566,49.8521,370.314,-1546.18,-10458.8,-1744.93,-4.20215,-16.8189,27.8235,1108.47,-10588.3,-2040.54,-14.0099,-136.056,98.9843,-7194.84,4756.81,341.409,13.5925,182.929,98.1951,6506.83,-1690.29,496.84,26.7453,24.6033,38.9203
3.767,8334.84,-4865.75,9192.26,-131.25,322.426,220.991,3827.22,3748.82,8268.62,8.01021,-5.14136,4.92873,855.34,8942.24,-2267.79,14.6571,49.6838,372.302,-1661.17,-10473.8,-1729.3,-4.11386,-18.0075,27.6383,1252.06,-10567.1,-2002.21,-12.583,-137.683,98.5193,-7072.87,4724.31,355.34,13.1558,179.363,96.4428,6544.18,-1692.83,460.102,26.8518,24.5779,38.9312
3.768,8592.88,-5058.7,9260.63,-131.122,323.065,219.723,3862.89,3710.64,8243.41,8.04839,-5.12753,5.27932,838.443,9060.95,-2299.4,15.6576,49.5154,374.289,-1776.17,-10488.8,-1713.66,-4.02558,-19.1961,27.453,1395.66,-10545.8,-1963.89,-11.1562,-139.31,98.0542,-6950.91,4691.8,369.271,12.719,175.797,94.6905,6581.53,-1695.36,423.363,26.9582,24.5526,38.9421
3.769,8852.72,-5241.2,9327.55,-130.869,323.704,218.535,3898.56,3673.12,8221.58,8.11875,-5.11287,5.63165,821.607,9180.13,-2327.01,16.6384,49.3931,376.242,-1883.29,-10503.5,-1697.25,-3.95365,-20.4216,27.2579,1530.85,-10513.5,-1930.99,-9.77996,-140.893,97.6168,-6838.13,4657.1,372.158,12.3554,171.951,92.9534,6624.96,-1694.49,391.42,27.0404,24.4536,38.9688
3.77,9126.97,-5340.04,9382.9,-129.616,324.343,217.982,3934.3,3640.98,8226.82,8.44652,-5.09166,5.99783,805.27,9303.07,-2322.59,17.4623,49.6394,377.912,-1927.37,-10515.1,-1674.7,-4.01262,-21.9433,26.9845,1598.82,-10392.5,-1941.53,-8.80857,-142.127,97.4008,-6798.81,4604.82,286.703,12.5765,165.862,91.3381,6717.09,-1666.45,397.842,26.9287,23.7653,39.1228
3.771,9401.23,-5438.89,9438.24,-128.363,324.982,217.43,3970.03,3608.84,8232.05,8.77429,-5.07045,6.36402,788.932,9426.01,-2318.17,18.2862,49.8857,379.582,-1971.44,-10526.8,-1652.14,-4.07159,-23.465,26.7111,1666.79,-10271.4,-1952.07,-7.83719,-143.362,97.1847,-6759.49,4552.55,201.248,12.7976,159.773,89.7228,6809.22,-1638.4,404.263,26.8169,23.0769,39.2767
3.772,9675.48,-5537.73,9493.58,-127.11,325.621,216.878,4005.77,3576.7,8237.29,9.10206,-5.04924,6.73021,772.594,9548.96,-2313.74,19.1101,50.132,381.252,-2015.51,-10538.4,-1629.59,-4.13055,-24.9867,26.4376,1734.76,-10150.4,-1962.6,-6.86581,-144.596,96.9686,-6720.17,4500.28,115.793,13.0187,153.684,88.1074,6901.35,-1610.35,410.684,26.7052,22.3886,39.4306
3.773,9949.74,-5636.58,9548.93,-125.857,326.26,216.325,4041.5,3544.56,8242.53,9.42984,-5.02803,7.09639,756.256,9671.9,-2309.32,19.934,50.3783,382.922,-2059.59,-10550.1,-1607.03,-4.18952,-26.5084,26.1642,1802.73,-10029.3,-1973.14,-5.89442,-145.83,96.7526,-6680.85,4448.01,30.3381,13.2398,147.595,86.4921,6993.48,-1582.31,417.106,26.5934,21.7003,39.5845
3.774,10163.3,-5772.17,9576.34,-125.57,327.421,215.695,4055.1,3540.55,8247.84,9.69661,-4.98749,7.45008,740.255,9795.09,-2297.59,20.7693,50.7861,384.395,-2076.49,-10532.9,-1592.97,-4.27404,-27.9766,25.9551,1845.52,-9923.78,-1980.16,-5.3236,-146.624,96.9463,-6735.79,4393.49,-85.1868,12.6963,140.377,85.1983,7049.42,-1584.52,379.356,26.7652,21.0658,39.429
3.775,10346.5,-5926.14,9589.79,-125.766,328.843,215.026,4057.62,3550.61,8253.19,9.93288,-4.93727,7.79752,724.422,9918.4,-2282.2,21.6103,51.2747,385.769,-2079.81,-10501.3,-1583.16,-4.37133,-29.4182,25.7782,1875.73,-9826.0,-1985.43,-4.95307,-147.198,97.3449,-6837.85,4337.86,-215.746,11.7705,132.595,84.0652,7087.26,-1601.86,319.522,27.0787,20.4581,39.1188
3.776,10529.8,-6080.11,9603.24,-125.961,330.265,214.357,4060.15,3560.67,8258.53,10.1691,-4.88706,8.14496,708.589,10041.7,-2266.82,22.4513,51.7633,387.143,-2083.13,-10469.7,-1573.35,-4.46862,-30.8597,25.6012,1905.93,-9728.23,-1990.69,-4.58254,-147.772,97.7436,-6939.92,4282.23,-346.306,10.8447,124.813,82.9321,7125.1,-1619.2,259.688,27.3922,19.8504,38.8086
3.777,10713.0,-6234.08,9616.68,-126.157,331.687,213.687,4062.67,3570.73,8263.88,10.4054,-4.83684,8.49239,692.756,10165.0,-2251.43,23.2924,52.2519,388.516,-2086.45,-10438.1,-1563.54,-4.56591,-32.3012,25.4243,1936.14,-9630.46,-1995.96,-4.212,-148.347,98.1422,-7041.98,4226.6,-476.866,9.91896,117.031,81.799,7162.94,-1636.54,199.853,27.7057,19.2427,38.4984
3.778,10889.2,-6356.22,9665.25,-125.987,332.791,213.06,4054.21,3586.05,8270.87,10.6855,-4.79817,8.85429,672.036,10294.3,-2235.49,24.1506,52.7605,389.857,-2074.78,-10405.2,-1560.71,-4.66622,-33.666,25.2585,1957.22,-9530.97,-2013.88,-3.84098,-148.796,98.6781,-7169.22,4168.92,-622.573,8.74697,109.316,80.7554,7206.24,-1650.39,156.382,28.0631,18.6406,38.2729
3.779,11040.8,-6366.95,9836.75,-124.536,332.782,212.578,4007.29,3619.79,8283.58,11.1191,-4.7999,9.26676,634.209,10444.4,-2217.59,25.0688,53.3394,391.08,-2010.61,-10367.8,-1582.33,-4.7771,-34.7622,25.1314,1946.39,-9425.49,-2076.08,-3.46821,-148.806,99.6943,-7384.58,4104.09,-821.299,6.71325,101.836,80.0252,7268.65,-1652.01,170.18,28.5739,18.0577,38.3436
3.78,11192.3,-6377.69,10008.2,-123.084,332.774,212.096,3960.37,3653.54,8296.29,11.5526,-4.80162,9.67924,596.382,10594.5,-2199.69,25.987,53.9183,392.303,-1946.45,-10330.3,-1603.95,-4.88798,-35.8584,25.0043,1935.56,-9320.01,-2138.29,-3.09545,-148.817,100.711,-7599.93,4039.27,-1020.02,4.67953,94.3556,79.2949,7331.07,-1653.64,183.978,29.0847,17.4748,38.4143
3.781,11343.9,-6388.42,10179.7,-121.632,332.766,211.614,3913.45,3687.28,8309.0,11.9862,-4.80334,10.0917,558.555,10744.5,-2181.79,26.9052,54.4972,393.526,-1882.29,-10292.9,-1625.57,-4.99886,-36.9546,24.8772,1924.73,-9214.54,-2200.49,-2.72269,-148.828,101.727,-7815.29,3974.44,-1218.75,2.64581,86.8754,78.5647,7393.48,-1655.27,197.777,29.5955,16.892,38.485
3.782,11495.5,-6399.16,10351.2,-120.181,332.758,211.133,3866.53,3721.02,8321.71,12.4198,-4.80507,10.5042,520.728,10894.6,-2163.89,27.8235,55.0761,394.749,-1818.12,-10255.5,-1647.19,-5.10975,-38.0508,24.7501,1913.9,-9109.06,-2262.7,-2.34992,-148.839,102.743,-8030.64,3909.61,-1417.47,0.612084,79.3952,77.8344,7455.9,-1656.9,211.575,30.1063,16.3091,38.5557
3.783,11659.9,-6193.87,10305.8,-120.176,332.972,212.829,3844.31,3691.35,8337.5,12.7515,-4.89371,10.9148,407.308,11068.8,-2146.53,28.5289,55.6332,395.773,-1764.13,-10235.1,-1676.63,-5.30423,-38.8364,24.5954,1885.79,-9021.31,-2296.31,-1.79682,-148.597,104.151,-8347.44,3791.77,-1665.75,-1.6974,74.0127,77.43,7505.39,-1657.18,274.542,30.2307,15.4535,38.5127
3.784,11827.9,-5926.87,10198.4,-120.585,333.249,215.147,3829.14,3643.57,8354.16,13.054,-5.00718,11.3248,272.291,11249.9,-2129.32,29.1736,56.1841,396.739,-1713.04,-10219.5,-1708.29,-5.5226,-39.5332,24.4329,1852.75,-8938.63,-2321.76,-1.1922,-148.282,105.67,-8693.22,3658.78,-1928.18,-4.08567,69.2295,77.1187,7551.18,-1657.07,351.558,30.2447,14.5201,38.4373
3.785,11996.0,-5659.86,10091.1,-120.994,333.526,217.465,3813.97,3595.78,8370.83,13.3566,-5.12066,11.7348,137.274,11430.9,-2112.12,29.8183,56.735,397.706,-1661.95,-10203.9,-1739.96,-5.74097,-40.23,24.2703,1819.71,-8855.95,-2347.2,-0.587574,-147.967,107.189,-9039.0,3525.78,-2190.62,-6.47394,64.4463,76.8074,7596.98,-1656.97,428.573,30.2587,13.5866,38.3618
3.786,12164.0,-5392.85,9983.67,-121.403,333.803,219.784,3798.8,3548.0,8387.5,13.6592,-5.23414,12.1448,2.25667,11612.0,-2094.91,30.463,57.2859,398.673,-1610.86,-10188.3,-1771.62,-5.95934,-40.9268,24.1078,1786.67,-8773.27,-2372.65,0.0170509,-147.651,108.709,-9384.78,3392.79,-2453.05,-8.86221,59.6631,76.4961,7642.78,-1656.86,505.589,30.2727,12.6532,38.2864
3.787,12360.6,-5057.0,9879.93,-122.189,334.063,222.183,3796.34,3508.29,8394.17,14.0784,-5.33093,12.5436,-137.252,11788.1,-2014.04,30.8773,57.48,399.479,-1576.77,-10190.6,-1791.88,-6.14563,-41.6032,23.9863,1763.11,-8710.49,-2404.59,0.677755,-147.395,110.274,-9768.84,3246.25,-2682.74,-11.2734,55.8095,76.3421,7693.8,-1645.19,559.667,30.1795,11.8676,38.1404
3.788,12614.0,-4583.45,9783.49,-123.727,334.287,224.746,3819.32,3484.71,8380.84,14.7308,-5.39435,12.9197,-285.742,11954.4,-1805.83,30.8305,56.9603,399.965,-1576.69,-10228.4,-1789.34,-6.26776,-42.2386,23.947,1758.52,-8687.51,-2449.51,1.45062,-147.255,111.93,-10229.4,3072.62,-2846.96,-13.7306,53.8151,76.5029,7755.25,-1610.39,567.87,29.8718,11.3775,37.8532
3.789,12867.5,-4109.91,9687.05,-125.265,334.51,227.309,3842.3,3461.14,8367.51,15.3831,-5.45777,13.2959,-434.233,12120.7,-1597.62,30.7837,56.4407,400.451,-1576.61,-10266.3,-1786.79,-6.38989,-42.8739,23.9076,1753.93,-8664.53,-2494.44,2.22348,-147.115,113.587,-10690.0,2898.98,-3011.18,-16.1877,51.8207,76.6637,7816.71,-1575.6,576.074,29.5641,10.8875,37.566
3.79,13121.0,-3636.36,9590.61,-126.803,334.734,229.872,3865.28,3437.57,8354.18,16.0355,-5.52119,13.6721,-582.724,12287.1,-1389.4,30.7369,55.921,400.938,-1576.54,-10304.1,-1784.25,-6.51202,-43.5093,23.8682,1749.34,-8641.54,-2539.37,2.99635,-146.975,115.244,-11150.6,2725.34,-3175.39,-18.6448,49.8263,76.8245,7878.17,-1540.8,584.277,29.2564,10.3975,37.2789
3.791,13374.5,-3162.82,9494.17,-128.341,334.958,232.435,3888.26,3413.99,8340.85,16.6879,-5.58461,14.0483,-731.214,12453.4,-1181.19,30.6901,55.4013,401.424,-1576.46,-10342.0,-1781.7,-6.63415,-44.1447,23.8289,1744.75,-8618.56,-2584.3,3.76921,-146.835,116.9,-11611.2,2551.71,-3339.61,-21.1019,47.8319,76.9853,7939.62,-1506.0,592.481,28.9487,9.90745,36.9917
3.792,13570.1,-2854.67,9641.86,-129.918,333.98,233.959,3951.78,3420.29,8336.59,17.4374,-5.63129,14.2279,-846.002,12609.6,-967.903,30.2018,54.677,401.431,-1603.93,-10361.3,-1803.13,-6.81024,-44.7502,23.7756,1791.62,-8646.2,-2635.32,4.53137,-146.966,118.256,-12131.5,2402.4,-3187.83,-24.4726,46.488,77.6234,8008.86,-1444.12,585.42,27.8438,9.26457,36.996
3.793,13758.6,-2567.2,9820.05,-131.499,332.852,235.353,4020.37,3430.32,8333.46,18.1992,-5.67587,14.3828,-956.578,12764.5,-753.978,29.6583,53.9271,401.379,-1634.84,-10378.3,-1827.55,-6.99307,-45.3519,23.7206,1844.91,-8680.17,-2687.09,5.2922,-147.13,119.574,-12659.3,2256.14,-2996.55,-27.9575,45.2255,78.3211,8079.06,-1378.84,576.451,26.6391,8.60258,37.0368
3.794,13947.0,-2279.73,9998.25,-133.081,331.723,236.747,4088.95,3440.35,8330.34,18.9609,-5.72045,14.5378,-1067.15,12919.4,-540.054,29.1149,53.1772,401.327,-1665.75,-10395.3,-1851.97,-7.1759,-45.9537,23.6655,1898.21,-8714.13,-2738.87,6.05302,-147.295,120.891,-13187.1,2109.88,-2805.27,-31.4424,43.9629,79.0189,8149.26,-1313.57,567.481,25.4345,7.94059,37.0775
3.795,14135.4,-1992.26,10176.4,-134.662,330.595,238.141,4157.54,3450.38,8327.21,19.7226,-5.76504,14.6928,-1177.73,13074.3,-326.129,28.5714,52.4272,401.275,-1696.66,-10412.3,-1876.39,-7.35873,-46.5555,23.6105,1951.5,-8748.1,-2790.65,6.81384,-147.459,122.209,-13714.9,1963.62,-2613.99,-34.9273,42.7004,79.7167,8219.47,-1248.3,558.512,24.2298,7.27861,37.1183
3.796,14292.4,-1786.47,10334.1,-136.415,329.12,239.715,4197.17,3471.75,8324.67,20.511,-5.82424,14.9043,-1280.0,13238.5,-239.847,28.3835,52.5982,401.171,-1709.09,-10444.3,-1917.11,-7.63262,-47.1453,23.6289,2007.15,-8818.2,-2846.07,7.55512,-147.462,123.398,-14205.5,1848.27,-2348.87,-38.9771,41.0549,80.3951,8271.39,-1200.57,531.99,22.8029,6.57979,37.0392
3.797,14410.0,-1682.78,10466.2,-138.383,327.212,241.516,4200.62,3507.32,8322.85,21.3326,-5.90171,15.1863,-1371.91,13414.3,-313.119,28.6402,53.9202,401.001,-1698.43,-10495.1,-1978.22,-8.02034,-47.7203,23.739,2065.74,-8933.47,-2906.05,8.27196,-147.262,124.425,-14649.7,1771.58,-1991.44,-43.7328,38.9307,81.0492,8300.46,-1174.76,483.525,21.0983,5.83495,36.8104
3.798,14527.6,-1579.09,10598.3,-140.35,325.304,243.317,4204.06,3542.88,8321.03,22.1543,-5.97918,15.4684,-1463.81,13590.2,-386.392,28.8968,55.2422,400.832,-1687.77,-10545.8,-2039.33,-8.40805,-48.2952,23.849,2124.34,-9048.73,-2966.02,8.98881,-147.062,125.452,-15094.0,1694.88,-1634.0,-48.4885,36.8066,81.7033,8329.54,-1148.96,435.06,19.3937,5.09011,36.5816
3.799,14645.3,-1475.4,10730.4,-142.318,323.396,245.118,4207.51,3578.45,8319.21,22.9759,-6.05665,15.7505,-1555.71,13766.1,-459.664,29.1535,56.5643,400.662,-1677.11,-10596.6,-2100.44,-8.79576,-48.8702,23.9591,2182.93,-9164.0,-3026.0,9.70566,-146.863,126.479,-15538.2,1618.19,-1276.57,-53.2442,34.6824,82.3574,8358.61,-1123.15,386.595,17.689,4.34526,36.3527
3.8,14762.9,-1371.71,10862.5,-144.285,321.487,246.919,4210.95,3614.01,8317.39,23.7976,-6.13413,16.0325,-1647.61,13941.9,-532.936,29.4102,57.8863,400.493,-1666.45,-10647.3,-2161.55,-9.18348,-49.4451,24.0692,2241.52,-9279.27,-3085.97,10.4225,-146.663,127.506,-15982.4,1541.49,-919.139,-57.9999,32.5583,83.0115,8387.68,-1097.35,338.131,15.9844,3.60042,36.1239
3.801,14775.2,-1767.83,10729.7,-146.155,319.943,248.714,4166.87,3610.35,8358.75,25.6343,-6.16535,16.441,-1621.98,14053.5,-678.382,30.45,60.8645,400.291,-1634.25,-10671.1,-2227.87,-9.82994,-49.947,24.1304,2280.35,-9344.65,-3037.95,10.8496,-146.316,128.174,-16082.5,1476.46,-631.974,-61.4611,28.6984,83.3081,8388.09,-1061.1,297.237,16.1643,2.71987,35.861
3.802,14787.5,-2163.95,10597.0,-148.024,318.399,250.509,4122.78,3606.7,8400.11,27.471,-6.19658,16.8494,-1596.34,14165.0,-823.827,31.4899,63.8426,400.09,-1602.05,-10695.0,-2294.2,-10.4764,-50.4489,24.1916,2319.18,-9410.03,-2989.94,11.2766,-145.97,128.843,-16182.6,1411.44,-344.808,-64.9223,24.8386,83.6047,8388.5,-1024.85,256.344,16.3443,1.83933,35.5981
3.803,14799.8,-2560.08,10464.2,-149.894,316.855,252.304,4078.7,3603.04,8441.46,29.3077,-6.2278,17.2578,-1570.7,14276.6,-969.273,32.5298,66.8207,399.888,-1569.85,-10718.8,-2360.52,-11.1229,-50.9507,24.2528,2358.01,-9475.42,-2941.93,11.7037,-145.623,129.512,-16282.7,1346.41,-57.6424,-68.3835,20.9787,83.9013,8388.91,-988.606,215.45,16.5242,0.958781,35.3352
3.804,14812.1,-2956.2,10331.5,-151.764,315.31,254.099,4034.61,3599.39,8482.82,31.1444,-6.25903,17.6663,-1545.07,14388.1,-1114.72,33.5697,69.7989,399.686,-1537.65,-10742.6,-2426.85,-11.7693,-51.4526,24.314,2396.83,-9540.8,-2893.91,12.1307,-145.277,130.181,-16382.8,1281.38,229.523,-71.8447,17.1188,84.1978,8389.32,-952.358,174.557,16.7041,0.0782357,35.0723
3.805,14795.1,-3383.05,10326.4,-151.9,313.073,255.571,3907.65,3596.48,8500.71,33.7332,-5.94465,18.077,-1468.29,14510.3,-1197.74,34.1972,72.3492,399.464,-1487.94,-10726.9,-2673.71,-13.1036,-52.1009,24.3496,2408.44,-9623.97,-2822.33,12.4445,-144.545,130.686,-16278.8,1227.08,432.211,-73.2286,12.2927,84.1637,8390.63,-933.601,143.247,16.8723,-0.93181,34.7279
3.806,14754.7,-3834.48,10423.3,-150.65,310.281,256.783,3714.4,3594.16,8499.81,36.9235,-5.35378,18.4895,-1350.61,14640.9,-1230.82,34.4947,74.5572,399.225,-1424.22,-10679.6,-3065.01,-14.9882,-52.8664,24.3646,2398.27,-9721.39,-2731.9,12.6676,-143.507,131.06,-16011.4,1181.37,567.315,-72.9506,6.69354,83.865,8392.66,-928.837,119.605,17.0311,-2.04545,34.3183
3.807,14714.4,-4285.91,10520.3,-149.399,307.488,257.995,3521.15,3591.85,8498.92,40.1139,-4.76292,18.9021,-1232.93,14771.5,-1263.9,34.7923,76.7652,398.986,-1360.5,-10632.3,-3456.31,-16.8728,-53.6319,24.3796,2388.1,-9818.8,-2641.47,12.8907,-142.468,131.434,-15744.0,1135.65,702.42,-72.6727,1.0944,83.5663,8394.69,-924.073,95.9623,17.1899,-3.1591,33.9087
3.808,14674.0,-4737.34,10617.3,-148.149,304.696,259.207,3327.89,3589.53,8498.02,43.3042,-4.17206,19.3146,-1115.25,14902.2,-1296.99,35.0899,78.9733,398.748,-1296.78,-10585.0,-3847.6,-18.7574,-54.3973,24.3946,2377.94,-9916.21,-2551.04,13.1138,-141.429,131.808,-15476.7,1089.93,837.525,-72.3948,-4.50474,83.2676,8396.73,-919.308,72.32,17.3487,-4.27274,33.4992
3.809,14633.9,-5162.33,10719.3,-146.713,301.829,260.444,3127.93,3649.37,8469.15,46.0725,-3.54904,19.9046,-1005.46,15044.8,-1327.42,35.3098,81.0746,398.519,-1234.78,-10532.6,-4246.32,-20.5808,-55.434,24.356,2360.82,-10010.0,-2457.41,13.3065,-140.352,132.16,-15185.3,1053.48,953.904,-71.7743,-10.2114,82.9365,8394.57,-909.683,48.7635,17.4637,-5.35179,33.0889
3.81,14595.6,-5375.81,10861.0,-143.792,298.358,261.874,2874.3,4206.47,8216.48,45.4648,-2.66884,21.9139,-958.783,15283.4,-1336.66,34.9089,82.3218,398.374,-1186.59,-10438.7,-4704.42,-21.9147,-58.6406,23.8888,2288.08,-10074.8,-2338.17,13.2557,-138.968,132.328,-14701.4,1091.18,920.472,-68.4125,-16.7779,82.3454,8358.86,-861.163,25.8938,17.2274,-6.15404,32.6725
3.811,14557.4,-5589.3,11002.8,-140.871,294.887,263.304,2620.67,4763.57,7963.81,44.8571,-1.78864,23.9232,-912.109,15522.1,-1345.9,34.508,83.569,398.228,-1138.4,-10344.8,-5162.52,-23.2485,-61.8472,23.4217,2215.34,-10139.5,-2218.94,13.2048,-137.585,132.496,-14217.6,1128.87,887.04,-65.0508,-23.3444,81.7543,8323.15,-812.643,3.02412,16.9911,-6.95628,32.2562
3.812,14519.2,-5802.78,11144.6,-137.951,291.417,264.734,2367.04,5320.67,7711.14,44.2493,-0.908432,25.9325,-865.434,15760.8,-1355.14,34.1071,84.8163,398.083,-1090.21,-10250.8,-5620.62,-24.5824,-65.0539,22.9545,2142.61,-10204.3,-2099.7,13.154,-136.202,132.664,-13733.7,1166.57,853.608,-61.6891,-29.9109,81.1632,8287.44,-764.124,-19.8456,16.7549,-7.75853,31.8398
3.813,14480.9,-6016.26,11286.4,-135.03,287.946,266.164,2113.41,5877.78,7458.47,43.6416,-0.0282279,27.9418,-818.76,15999.4,-1364.39,33.7062,86.0635,397.938,-1042.02,-10156.9,-6078.72,-25.9163,-68.2605,22.4873,2069.87,-10269.1,-1980.47,13.1031,-134.818,132.832,-13249.9,1204.27,820.176,-58.3274,-36.4774,80.5721,8251.73,-715.604,-42.7153,16.5186,-8.56078,31.4235
3.814,14543.1,-6067.25,11413.2,-132.473,284.452,267.847,2243.45,6503.05,7422.63,43.4796,0.153515,32.9269,-882.845,16277.1,-1388.83,33.2193,87.1064,397.726,-993.814,-10080.7,-6116.65,-25.357,-72.1788,22.3074,2004.59,-10327.4,-1853.18,12.7648,-133.72,132.458,-12752.9,1272.42,723.975,-54.2851,-43.1343,79.9072,8227.21,-661.075,-64.873,16.3818,-9.3645,31.0524
3.815,14655.5,-6037.0,11532.4,-130.098,280.947,269.658,2565.33,7162.42,7495.21,43.5406,-0.0139731,39.3998,-1002.31,16574.3,-1420.88,32.6894,88.0472,397.48,-945.595,-10013.4,-5944.51,-23.8511,-76.4529,22.2712,1943.04,-10382.5,-1721.86,12.2827,-132.765,131.814,-12249.4,1355.8,596.389,-49.9025,-49.8365,79.2054,8208.27,-603.542,-86.6749,16.2947,-10.169,30.7039
3.816,14767.9,-6006.74,11651.7,-127.722,277.442,271.468,2887.21,7821.78,7567.79,43.6016,-0.181461,45.8728,-1121.78,16871.6,-1452.93,32.1594,88.9879,397.235,-897.377,-9946.01,-5772.36,-22.3453,-80.727,22.235,1881.49,-10437.7,-1590.54,11.8006,-131.81,131.169,-11745.9,1439.18,468.803,-45.5199,-56.5387,78.5036,8189.34,-546.008,-108.477,16.2077,-10.9734,30.3555
3.817,14880.3,-5976.48,11771.0,-125.347,273.937,273.279,3209.09,8481.14,7640.37,43.6626,-0.348949,52.3457,-1241.24,17168.8,-1484.98,31.6295,89.9287,396.989,-849.158,-9878.65,-5600.21,-20.8394,-85.0012,22.1987,1819.94,-10492.8,-1459.22,11.3185,-130.854,130.524,-11242.4,1522.57,341.218,-41.1374,-63.2409,77.8018,8170.4,-488.475,-130.278,16.1206,-11.7779,30.007
3.818,15019.4,-5906.82,11893.1,-122.921,270.525,274.984,3565.97,8777.47,7666.06,43.8996,-0.43533,57.4186,-1382.72,17477.5,-1520.3,31.0503,90.6572,396.651,-840.265,-9837.68,-5401.26,-19.3208,-88.4913,22.4831,1790.56,-10546.2,-1344.43,10.7653,-130.282,129.725,-10758.6,1610.06,213.406,-36.8135,-69.8579,76.968,8151.8,-446.673,-143.711,16.0587,-12.5702,29.6162
3.819,15252.1,-5699.28,12025.2,-120.319,267.438,276.325,4045.35,7803.16,7527.65,44.753,-0.237835,57.5912,-1601.26,17826.5,-1567.05,30.299,90.6427,395.989,-969.01,-9889.07,-5108.48,-17.7574,-89.2373,23.8897,1873.76,-10593.6,-1287.52,9.96309,-131.052,128.381,-10344.0,1711.96,84.8016,-32.695,-76.1769,75.672,8134.37,-459.933,-127.853,16.0851,-13.3202,29.0775
3.82,15484.8,-5491.74,12157.3,-117.717,264.351,277.665,4524.73,6828.85,7389.25,45.6063,-0.0403411,57.7638,-1819.8,18175.6,-1613.8,29.5477,90.6283,395.326,-1097.76,-9940.45,-4815.69,-16.194,-89.9832,25.2962,1956.96,-10640.9,-1230.6,9.16092,-131.822,127.038,-9929.35,1813.86,-43.8027,-28.5764,-82.4958,74.3761,8116.93,-473.193,-111.995,16.1115,-14.0701,28.5388
3.821,15717.6,-5284.2,12289.5,-115.115,261.265,279.005,5004.11,5854.54,7250.84,46.4597,0.157153,57.9364,-2038.34,18524.6,-1660.55,28.7964,90.6139,394.664,-1226.5,-9991.84,-4522.91,-14.6307,-90.7292,26.7028,2040.17,-10688.3,-1173.69,8.35876,-132.592,125.695,-9514.73,1915.76,-172.407,-24.4579,-88.8148,73.0801,8099.5,-486.454,-96.1373,16.1378,-14.8201,28.0001
3.822,15950.3,-5076.65,12421.6,-112.512,258.178,280.345,5483.49,4880.23,7112.43,47.313,0.354648,58.1089,-2256.88,18873.6,-1707.3,28.045,90.5994,394.002,-1355.25,-10043.2,-4230.13,-13.0673,-91.4752,28.1094,2123.37,-10735.6,-1116.78,7.5566,-133.362,124.352,-9100.1,2017.66,-301.011,-20.3394,-95.1337,71.7841,8082.06,-499.714,-80.2792,16.1642,-15.57,27.4613
3.823,16215.1,-4861.79,12556.7,-111.529,255.377,281.221,5821.32,4369.82,7173.17,47.6829,0.113789,57.0919,-2514.89,19269.7,-1762.56,26.7362,89.3693,393.16,-1624.34,-10118.6,-3951.23,-12.5221,-91.9448,29.5535,2266.37,-10696.6,-1165.02,7.53813,-135.624,122.736,-8745.37,2124.59,-425.121,-16.4938,-100.684,69.6807,8065.05,-479.146,-73.2553,16.0843,-16.5005,26.663
3.824,16489.0,-4644.84,12692.7,-111.009,252.659,281.964,6118.72,3991.95,7290.8,47.9146,-0.252314,55.7351,-2784.19,19679.2,-1820.25,25.2682,87.7917,392.267,-1933.54,-10200.9,-3676.29,-12.2677,-92.3355,31.0085,2426.45,-10633.0,-1243.3,7.74358,-138.312,121.042,-8407.74,2232.96,-547.946,-12.7262,-106.015,67.3465,8048.17,-448.913,-68.7554,15.974,-17.4826,25.7904
3.825,16763.0,-4427.88,12828.8,-110.488,249.94,282.708,6416.11,3614.08,7408.43,48.1464,-0.618417,54.3782,-3053.48,20088.6,-1877.94,23.8001,86.2142,391.374,-2242.73,-10283.1,-3401.36,-12.0134,-92.7262,32.4634,2586.54,-10569.4,-1321.59,7.94903,-140.999,119.348,-8070.11,2341.33,-670.772,-8.95857,-111.346,65.0123,8031.28,-418.68,-64.2555,15.8638,-18.4647,24.9179
3.826,17036.9,-4210.93,12964.8,-109.967,247.222,283.452,6713.5,3236.21,7526.06,48.3781,-0.98452,53.0213,-3322.78,20498.1,-1935.63,22.3321,84.6367,390.481,-2551.92,-10365.4,-3126.42,-11.7591,-93.1169,33.9183,2746.62,-10505.8,-1399.87,8.15447,-143.687,117.654,-7732.48,2449.7,-793.598,-5.19094,-116.677,62.6781,8014.4,-388.447,-59.7556,15.7535,-19.4468,24.0453
3.827,17356.3,-4004.26,13086.2,-109.995,244.586,284.027,6834.85,3071.17,7612.75,48.3844,-1.43642,52.0045,-3615.99,20918.4,-1998.42,20.6852,82.7442,389.454,-2765.71,-10428.2,-2846.25,-11.8861,-93.6798,35.0955,2915.53,-10426.3,-1465.12,8.53156,-146.806,115.927,-7407.35,2550.22,-915.811,-1.57161,-121.616,60.01,7976.63,-364.434,-50.5094,15.6615,-20.3316,23.2084
3.828,17766.5,-3818.18,13178.6,-111.119,242.117,284.265,6604.12,3331.77,7637.56,47.9396,-2.05992,51.6678,-3957.02,21360.3,-2071.42,18.6807,80.2217,388.159,-2788.66,-10452.0,-2555.6,-12.7759,-94.5871,35.7174,3102.08,-10315.1,-1504.32,9.25194,-150.785,114.133,-7107.2,2635.04,-1036.8,1.75114,-125.773,56.6741,7897.09,-352.86,-31.7706,15.606,-21.0221,22.4429
3.829,18176.8,-3632.1,13270.9,-112.243,239.647,284.502,6373.39,3592.38,7662.37,47.4949,-2.68341,51.331,-4298.05,21802.2,-2144.41,16.6762,77.6992,386.864,-2811.62,-10475.9,-2264.96,-13.6657,-95.4943,36.3392,3288.63,-10203.9,-1543.51,9.97232,-154.765,112.34,-6807.05,2719.87,-1157.79,5.07389,-129.93,53.3382,7817.56,-341.286,-13.0318,15.5505,-21.7126,21.6774
3.83,18587.0,-3446.02,13363.2,-113.366,237.178,284.74,6142.66,3852.98,7687.17,47.0501,-3.30691,50.9943,-4639.08,22244.2,-2217.41,14.6716,75.1766,385.569,-2834.58,-10499.7,-1974.31,-14.5555,-96.4016,36.9611,3475.17,-10092.8,-1582.7,10.6927,-158.745,110.546,-6506.9,2804.7,-1278.78,8.39664,-134.088,50.0023,7738.02,-329.712,5.707,15.495,-22.4031,20.9119
3.831,18997.2,-3259.94,13455.6,-114.49,234.708,284.978,5911.93,4113.58,7711.98,46.6053,-3.93041,50.6576,-4980.11,22686.1,-2290.4,12.6671,72.6541,384.274,-2857.54,-10523.6,-1683.66,-15.4453,-97.3089,37.5829,3661.72,-9981.57,-1621.89,11.4131,-162.725,108.753,-6206.76,2889.52,-1399.77,11.7194,-138.245,46.6664,7658.49,-318.138,24.4458,15.4395,-23.0936,20.1463
3.832,19463.3,-3125.77,13417.4,-115.657,232.775,284.765,5620.69,4242.8,7755.21,45.9316,-4.48721,51.3211,-5353.47,23164.3,-2360.75,11.0425,69.2146,382.934,-2640.08,-10610.0,-1542.45,-15.6811,-97.506,37.5716,3784.92,-9876.78,-1739.4,11.9017,-166.059,107.167,-5961.38,2975.35,-1493.32,14.5393,-141.135,42.9394,7626.11,-276.179,53.1122,15.3917,-24.2574,19.2778
3.833,19936.3,-2998.1,13362.9,-116.83,230.908,284.495,5321.89,4355.59,7800.75,45.2293,-5.03568,52.1096,-5730.86,23647.1,-2430.78,9.4653,65.6604,381.588,-2392.57,-10704.3,-1419.91,-15.835,-97.6144,37.4812,3900.21,-9772.79,-1866.7,12.3613,-169.313,105.608,-5722.86,3061.31,-1583.43,17.2963,-143.867,39.1634,7599.62,-230.423,83.0196,15.3448,-25.4804,18.3963
3.834,20409.3,-2870.42,13308.4,-118.002,229.041,284.225,5023.09,4468.38,7846.29,44.527,-5.58415,52.8981,-6108.25,24129.8,-2500.81,7.88813,62.1062,380.242,-2145.06,-10798.6,-1297.37,-15.989,-97.7227,37.3907,4015.5,-9668.8,-1994.0,12.8209,-172.567,104.049,-5484.33,3147.26,-1673.54,20.0534,-146.598,35.3875,7573.14,-184.666,112.927,15.2979,-26.7034,17.5149
3.835,20882.3,-2742.74,13253.9,-119.175,227.174,283.955,4724.3,4581.17,7891.82,43.8247,-6.13262,53.6867,-6485.65,24612.6,-2570.83,6.31096,58.552,378.896,-1897.55,-10892.8,-1174.83,-16.143,-97.8311,37.3003,4130.79,-9564.82,-2121.3,13.2806,-175.821,102.489,-5245.81,3233.22,-1763.66,22.8104,-149.33,31.6115,7546.65,-138.91,142.834,15.2511,-27.9264,16.6334
3.836,21358.6,-2640.05,13192.6,-120.605,225.811,283.503,4511.81,4486.99,7930.98,43.2679,-6.52966,53.9328,-6899.23,25071.5,-2638.81,4.9372,54.516,377.767,-1636.65,-10953.9,-1088.42,-15.8388,-97.5869,37.4724,4239.91,-9472.26,-2248.51,13.7135,-178.24,101.056,-5029.56,3326.91,-1859.01,25.2571,-151.055,27.9092,7515.21,-108.514,163.687,15.343,-28.9724,15.8433
3.837,21839.0,-2568.57,13122.9,-122.357,225.077,282.822,4407.21,4134.09,7962.18,42.8932,-6.73741,53.5008,-7358.07,25500.4,-2704.24,3.8177,49.8778,376.908,-1359.03,-10973.5,-1047.16,-14.962,-96.9019,37.9728,4341.34,-9393.98,-2375.59,14.1131,-179.615,99.7814,-4841.14,3430.27,-1960.91,27.316,-151.523,24.299,7477.58,-97.3203,173.222,15.6083,-29.7971,15.1672
3.838,22319.5,-2497.1,13053.2,-124.11,224.344,282.142,4302.61,3781.2,7993.37,42.5185,-6.94515,53.0689,-7816.9,25929.4,-2769.66,2.6982,45.2396,376.05,-1081.4,-10993.1,-1005.91,-14.0852,-96.217,38.4732,4442.77,-9315.7,-2502.68,14.5127,-180.99,98.5065,-4652.73,3533.64,-2062.81,29.3749,-151.99,20.6887,7439.95,-86.1262,182.756,15.8737,-30.6219,14.4912
3.839,22799.9,-2425.63,12983.5,-125.862,223.61,281.462,4198.01,3428.3,8024.56,42.1437,-7.1529,52.6369,-8275.73,26358.3,-2835.08,1.5787,40.6013,375.192,-803.778,-11012.7,-964.659,-13.2084,-95.5321,38.9736,4544.2,-9237.42,-2629.76,14.9123,-182.365,97.2317,-4464.31,3637.01,-2164.71,31.4337,-152.458,17.0784,7402.32,-74.9322,192.291,16.1391,-31.4466,13.8152
3.84,23280.3,-2354.15,12913.7,-127.614,222.876,280.782,4093.42,3075.41,8055.76,41.769,-7.36064,52.205,-8734.56,26787.3,-2900.51,0.459204,35.9631,374.334,-526.153,-11032.3,-923.407,-12.3316,-94.8471,39.474,4645.62,-9159.14,-2756.85,15.3119,-183.741,95.9568,-4275.9,3740.37,-2266.61,33.4926,-152.925,13.4682,7364.69,-63.7381,201.825,16.4045,-32.2713,13.1391
3.841,23778.0,-2299.75,12803.3,-130.046,222.722,279.568,4097.66,2951.1,8119.51,41.1021,-7.7121,51.1538,-9194.21,27002.7,-2951.45,-0.384443,30.5597,374.716,-303.152,-10909.4,-864.246,-11.5079,-93.2168,40.5585,4685.15,-9180.64,-2833.65,15.3702,-183.234,95.0702,-4094.64,3851.71,-2326.48,35.2625,-150.544,10.1184,7336.52,-43.5194,177.913,17.3666,-32.8794,12.2479
3.842,24275.7,-2245.34,12692.8,-132.477,222.569,278.353,4101.91,2826.79,8183.26,40.4352,-8.06356,50.1026,-9653.85,27218.2,-3002.38,-1.22809,25.1563,375.099,-80.1508,-10786.6,-805.084,-10.6841,-91.5865,41.643,4724.69,-9202.13,-2910.46,15.4285,-182.727,94.1835,-3913.38,3963.05,-2386.36,37.0325,-148.163,6.76862,7308.35,-23.3006,154.0,18.3287,-33.4874,11.3567
3.843,24773.4,-2190.93,12582.4,-134.908,222.415,277.139,4106.15,2702.48,8247.02,39.7684,-8.41502,49.0514,-10113.5,27433.6,-3053.32,-2.07174,19.753,375.481,142.85,-10663.7,-745.923,-9.86044,-89.9562,42.7274,4764.22,-9223.63,-2987.27,15.4869,-182.22,93.2968,-3732.12,4074.39,-2446.24,38.8024,-145.782,3.41885,7280.18,-3.08178,130.087,19.2909,-34.0955,10.4655
3.844,25271.1,-2136.52,12471.9,-137.339,222.261,275.925,4110.4,2578.16,8310.77,39.1015,-8.76648,48.0002,-10573.1,27649.1,-3104.26,-2.91538,14.3496,375.863,365.851,-10540.9,-686.762,-9.03673,-88.3258,43.8119,4803.75,-9245.13,-3064.07,15.5452,-181.713,92.4102,-3550.86,4185.73,-2506.11,40.5724,-143.401,0.0690736,7252.01,17.137,106.174,20.253,-34.7036,9.57436
3.845,25739.6,-2053.39,12305.8,-139.745,222.361,274.569,4093.02,2586.18,8350.76,38.3614,-9.20002,47.2873,-10920.7,27629.4,-3168.54,-3.28121,8.89197,376.7,550.021,-10429.9,-624.405,-8.50861,-86.3732,44.8649,4836.28,-9276.29,-3126.99,15.9339,-180.584,91.5145,-3348.16,4309.57,-2527.3,42.309,-138.878,-3.07468,7205.73,51.7568,71.3503,21.1257,-34.9932,8.94355
3.846,26184.7,-1947.29,12095.1,-142.131,222.664,273.101,4058.34,2700.07,8371.73,37.5626,-9.69922,46.8452,-11178.7,27421.7,-3243.49,-3.26479,3.39098,377.899,703.125,-10328.3,-559.491,-8.21695,-84.1629,45.8927,4863.2,-9315.18,-3178.8,16.587,-178.959,90.6115,-3128.31,4443.43,-2517.53,44.0189,-132.642,-6.05361,7144.97,97.8973,27.7968,21.9268,-35.028,8.52105
3.847,26629.7,-1841.18,11884.4,-144.518,222.967,271.632,4023.66,2813.95,8392.71,36.7639,-10.1984,46.403,-11436.7,27214.1,-3318.44,-3.24836,-2.11001,379.098,856.229,-10226.8,-494.577,-7.92529,-81.9525,46.9205,4890.12,-9354.08,-3230.61,17.2401,-177.333,89.7085,-2908.47,4577.28,-2507.76,45.7289,-126.407,-9.03254,7084.21,144.038,-15.7566,22.7278,-35.0629,8.09854
3.848,27074.8,-1735.08,11673.7,-146.904,223.269,270.164,3988.99,2927.83,8413.69,35.9651,-10.6976,45.9609,-11694.7,27006.4,-3393.38,-3.23194,-7.611,380.298,1009.33,-10125.2,-429.663,-7.63364,-79.7421,47.9483,4917.04,-9392.97,-3282.42,17.8932,-175.707,88.8055,-2688.62,4711.14,-2497.99,47.4389,-120.171,-12.0115,7023.45,190.178,-59.3101,23.5289,-35.0977,7.67604
3.849,27511.4,-1631.35,11449.6,-149.23,223.582,268.626,3955.74,3025.66,8428.0,35.208,-11.1762,45.5067,-11925.5,26760.4,-3479.69,-3.11665,-12.9713,381.429,1146.17,-10033.8,-371.223,-7.35949,-77.5316,48.9582,4950.67,-9427.1,-3325.28,18.5914,-173.996,87.915,-2460.19,4845.06,-2477.33,49.1333,-113.442,-14.9345,6971.72,226.129,-102.552,24.3479,-35.1171,7.26646
3.85,27879.8,-1546.59,11118.9,-151.067,223.974,266.53,3933.91,2995.11,8388.97,34.7844,-11.4893,44.9561,-11938.1,26208.4,-3656.8,-2.21044,-17.2064,382.013,1152.89,-10023.4,-364.571,-7.22545,-75.3204,49.8248,5038.03,-9423.06,-3296.57,19.6512,-171.602,87.1241,-2163.11,4979.51,-2369.6,50.7034,-102.77,-17.41,6992.23,180.56,-143.297,25.3103,-35.0129,6.96021
3.851,28248.3,-1461.84,10788.3,-152.904,224.367,264.434,3912.08,2964.56,8349.94,34.3608,-11.8025,44.4055,-11950.6,25656.3,-3833.92,-1.30424,-21.4414,382.597,1159.6,-10013.0,-357.92,-7.09142,-73.1091,50.6915,5125.38,-9419.02,-3267.86,20.7109,-169.207,86.3332,-1866.03,5113.95,-2261.87,52.2734,-92.0975,-19.8855,7012.75,134.992,-184.042,26.2726,-34.9088,6.65395
3.852,28616.8,-1377.09,10457.6,-154.741,224.759,262.338,3890.26,2934.01,8310.91,33.9372,-12.1157,43.8549,-11963.2,25104.3,-4011.04,-0.398033,-25.6764,383.181,1166.32,-10002.5,-351.268,-6.95738,-70.8979,51.5581,5212.73,-9414.98,-3239.15,21.7706,-166.813,85.5424,-1568.94,5248.4,-2154.14,53.8435,-81.4253,-22.361,7033.26,89.4233,-224.787,27.235,-34.8046,6.3477
3.853,28985.2,-1292.34,10126.9,-156.578,225.151,260.241,3868.43,2903.46,8271.87,33.5136,-12.4289,43.3043,-11975.8,24552.2,-4188.16,0.508171,-29.9115,383.766,1173.03,-9992.1,-344.617,-6.82334,-68.6867,52.4247,5300.09,-9410.94,-3210.44,22.8304,-164.418,84.7515,-1271.86,5382.84,-2046.4,55.4136,-70.753,-24.8365,7053.78,43.8547,-265.532,28.1974,-34.7004,6.04145
3.854,29297.6,-1265.17,9772.67,-158.059,225.576,257.89,3899.39,2953.62,8286.87,32.8259,-12.9423,42.9795,-11956.8,23984.9,-4438.45,2.09849,-32.4445,383.147,1130.02,-9990.71,-298.185,-6.5681,-66.5504,53.4036,5444.31,-9379.03,-3243.87,23.6385,-161.657,84.0101,-918.759,5518.86,-1836.36,56.5779,-57.5,-26.8159,7030.25,16.5347,-280.706,29.189,-34.3253,5.75017
3.855,29581.9,-1266.8,9406.69,-159.361,226.017,255.41,3956.74,3044.14,8328.88,32.0062,-13.5558,42.7676,-11922.1,23409.9,-4725.32,4.03088,-34.1266,381.927,1062.14,-9993.83,-231.863,-6.25225,-64.4516,54.4385,5616.98,-9333.17,-3308.37,24.3208,-158.713,83.2934,-537.652,5655.67,-1575.17,57.5394,-42.9566,-28.5473,6984.69,-1.66088,-283.093,30.1953,-33.8148,5.46637
3.856,29866.2,-1268.43,9040.71,-160.664,226.459,252.93,4014.09,3134.66,8370.89,31.1864,-14.1693,42.5557,-11887.4,22835.0,-5012.2,5.96326,-35.8087,380.708,994.268,-9996.94,-165.541,-5.93641,-62.3528,55.4734,5789.64,-9287.32,-3372.87,25.0031,-155.769,82.5768,-156.546,5792.48,-1313.98,58.501,-28.4132,-30.2786,6939.14,-19.8565,-285.481,31.2015,-33.3042,5.18258
3.857,30150.5,-1270.06,8674.73,-161.966,226.9,250.451,4071.45,3225.17,8412.91,30.3666,-14.7828,42.3438,-11852.7,22260.0,-5299.08,7.89564,-37.4908,379.488,926.391,-10000.1,-99.2195,-5.62057,-60.2539,56.5084,5962.31,-9241.46,-3437.37,25.6854,-152.825,81.8601,224.56,5929.28,-1052.79,59.4625,-13.8698,-32.01,6893.58,-38.0521,-287.868,32.2078,-32.7937,4.89878
3.858,30417.8,-1307.08,8290.21,-162.869,227.384,247.684,4139.26,3271.98,8448.55,29.5885,-15.4087,42.0197,-11815.4,21718.8,-5591.26,9.96878,-38.5585,377.886,865.903,-10014.5,-22.8981,-5.25165,-58.1287,57.6072,6153.84,-9193.02,-3502.86,26.2178,-149.643,81.2312,619.752,6079.56,-754.28,60.2809,1.0097,-33.5212,6864.66,-63.711,-285.414,33.1891,-32.3832,4.70186
3.859,30625.6,-1467.99,7840.79,-162.373,228.014,243.912,4243.67,3165.8,8461.93,28.9563,-16.0781,41.3033,-11769.2,21295.8,-5902.04,12.5345,-37.4759,374.949,831.278,-10068.6,88.4216,-4.69696,-55.9111,58.9293,6411.41,-9135.51,-3571.8,26.2253,-145.632,80.9096,1064.24,6277.01,-325.179,60.5986,17.0656,-34.2621,6893.96,-115.492,-266.017,34.0831,-32.323,4.80901
3.86,30833.4,-1628.9,7391.38,-161.878,228.644,240.14,4348.07,3059.63,8475.32,28.324,-16.7475,40.5869,-11722.9,20872.7,-6212.82,15.1003,-36.3933,372.011,796.653,-10122.7,199.741,-4.14227,-53.6935,60.2515,6668.97,-9078.01,-3640.74,26.2328,-141.621,80.588,1508.73,6474.46,103.921,60.9162,33.1216,-35.0029,6923.26,-167.272,-246.62,34.9772,-32.2629,4.91615
3.861,31041.3,-1789.81,6941.96,-161.383,229.274,236.367,4452.48,2953.45,8488.7,27.6918,-17.4169,39.8705,-11676.6,20449.6,-6523.6,17.6661,-35.3107,369.074,762.028,-10176.8,311.061,-3.58758,-51.4759,61.5736,6926.54,-9020.5,-3709.68,26.2404,-137.61,80.2664,1953.21,6671.9,533.022,61.2339,49.1775,-35.7437,6952.55,-219.053,-227.223,35.8712,-32.2027,5.0233
3.862,31249.1,-1950.71,6492.55,-160.887,229.904,232.595,4556.89,2847.27,8502.08,27.0595,-18.0863,39.154,-11630.4,20026.6,-6834.38,20.2318,-34.2281,366.136,727.403,-10230.9,422.381,-3.03289,-49.2582,62.8958,7184.1,-8962.99,-3778.62,26.2479,-133.599,79.9448,2397.7,6869.35,962.122,61.5516,65.2335,-36.4846,6981.85,-270.834,-207.825,36.7652,-32.1425,5.13044
3.863,31483.5,-2091.07,6089.74,-160.452,230.607,228.312,4577.36,2758.57,8565.41,26.3996,-18.9376,38.2354,-11568.4,19781.8,-7067.06,22.6418,-31.7702,362.463,719.861,-10270.2,494.016,-2.55839,-46.9214,64.2957,7421.94,-8887.29,-3823.94,25.5113,-128.993,79.5819,2849.87,7117.17,1451.66,60.9259,79.6642,-36.6476,7010.82,-331.506,-188.13,38.489,-31.7198,5.1826
3.864,31725.6,-2225.55,5700.24,-160.034,231.332,223.882,4573.85,2674.86,8643.03,25.7318,-19.8408,37.2589,-11502.0,19588.0,-7277.44,25.0072,-28.9194,358.58,720.056,-10305.3,554.312,-2.1068,-44.5505,65.7177,7654.14,-8806.4,-3862.51,24.5622,-124.217,79.2073,3304.23,7379.38,1958.48,60.0306,93.6305,-36.6455,7039.69,-394.719,-168.349,40.45,-31.1936,5.21905
3.865,31967.7,-2360.04,5310.75,-159.616,232.057,219.452,4570.33,2591.15,8720.64,25.0639,-20.7441,36.2824,-11435.6,19394.1,-7487.81,27.3727,-26.0685,354.697,720.251,-10340.3,614.609,-1.65521,-42.1796,67.1397,7886.35,-8725.5,-3901.08,23.613,-119.44,78.8326,3758.59,7641.59,2465.29,59.1354,107.597,-36.6434,7068.56,-457.932,-148.569,42.4109,-30.6673,5.2555
3.866,32209.8,-2494.52,4921.25,-159.198,232.782,215.023,4566.82,2507.44,8798.25,24.3961,-21.6474,35.306,-11369.2,19200.3,-7698.18,29.7381,-23.2177,350.813,720.446,-10375.4,674.905,-1.20362,-39.8086,68.5618,8118.55,-8644.61,-3939.65,22.6638,-114.664,78.458,4212.94,7903.8,2972.1,58.2402,121.563,-36.6413,7097.43,-521.145,-128.788,44.3719,-30.141,5.29195
3.867,32415.3,-2614.72,4522.29,-158.699,233.278,210.67,4536.71,2450.87,8863.77,23.7456,-22.5808,34.3477,-11326.2,19057.7,-7842.29,31.8915,-20.3411,346.797,746.527,-10412.5,739.305,-0.730983,-37.4625,69.9764,8347.37,-8575.45,-3959.46,21.5197,-109.801,78.0337,4656.48,8199.57,3457.04,56.519,133.628,-36.1139,7130.61,-596.347,-102.131,46.0863,-29.6074,5.24562
3.868,32547.9,-2706.35,4104.39,-158.04,233.316,206.472,4453.42,2448.57,8905.12,23.1297,-23.5742,33.4257,-11330.2,19017.4,-7853.85,33.6209,-17.4129,342.515,824.382,-10453.9,811.909,-0.21625,-35.1659,71.376,8569.43,-8529.79,-3941.74,19.9855,-104.763,77.5101,5078.35,8562.47,3898.25,53.1459,141.89,-34.5357,7172.41,-695.524,-61.7203,47.3076,-29.059,5.03372
3.869,32680.4,-2797.98,3686.49,-157.38,233.355,202.273,4370.13,2446.27,8946.46,22.5137,-24.5677,32.5037,-11334.1,18977.2,-7865.42,35.3503,-14.4848,338.232,902.237,-10495.3,884.514,0.298484,-32.8693,72.7757,8791.48,-8484.12,-3924.02,18.4512,-99.7257,76.9865,5500.23,8925.36,4339.46,49.7728,150.151,-32.9576,7214.21,-794.702,-21.3096,48.5289,-28.5107,4.82182
3.87,32813.0,-2889.61,3268.59,-156.721,233.394,198.075,4286.84,2443.97,8987.81,21.8978,-25.5612,31.5817,-11338.0,18937.0,-7876.98,37.0797,-11.5566,333.95,980.092,-10536.6,957.118,0.813217,-30.5728,74.1753,9013.54,-8438.46,-3906.3,16.917,-94.6882,76.4629,5922.1,9288.26,4780.67,46.3997,158.413,-31.3794,7256.01,-893.88,19.1011,49.7502,-27.9623,4.60993
3.871,32945.6,-2981.24,2850.69,-156.062,233.432,193.876,4203.54,2441.67,9029.15,21.2819,-26.5547,30.6597,-11342.0,18896.7,-7888.54,38.8091,-8.62848,329.668,1057.95,-10578.0,1029.72,1.32795,-28.2762,75.575,9235.6,-8392.79,-3888.58,15.3828,-89.6508,75.9393,6343.98,9651.16,5221.88,43.0266,166.674,-29.8013,7297.81,-993.058,59.5119,50.9715,-27.414,4.39803
3.872,33042.8,-2869.31,2446.43,-152.794,232.183,189.989,4141.04,2397.47,9068.05,20.9057,-27.6376,29.8987,-11474.2,18894.5,-7904.46,40.0586,-6.12882,325.268,1123.07,-10621.1,1059.3,1.86966,-25.9305,76.8696,9365.16,-8380.48,-3838.2,13.7692,-85.0777,75.309,6694.78,10027.0,5485.64,37.4052,169.605,-26.0822,7380.71,-1016.14,92.967,51.7138,-27.4014,4.46993
3.873,33135.7,-2731.92,2043.88,-149.201,230.773,186.141,4081.13,2348.03,9106.65,20.5595,-28.7318,29.1577,-11622.4,18897.0,-7920.92,41.2481,-3.68272,320.853,1186.6,-10664.5,1083.51,2.41474,-23.5788,78.1511,9483.17,-8372.35,-3783.73,12.1456,-80.5628,74.6653,7036.7,10404.5,5727.21,31.5027,171.87,-22.0955,7468.74,-1029.7,125.553,52.3961,-27.4558,4.57731
3.874,33228.5,-2594.54,1641.32,-145.607,229.363,182.292,4021.22,2298.59,9145.25,20.2133,-29.826,28.4167,-11770.6,18899.5,-7937.38,42.4375,-1.23662,316.439,1250.14,-10707.8,1107.71,2.95983,-21.227,79.4325,9601.17,-8364.21,-3729.26,10.522,-76.0478,74.0215,7378.61,10782.0,5968.78,25.6003,174.135,-18.1088,7556.77,-1043.27,158.138,53.0784,-27.5102,4.68469
3.875,33321.3,-2457.16,1238.77,-142.013,227.952,178.444,3961.31,2249.15,9183.84,19.8671,-30.9201,27.6758,-11918.8,18902.0,-7953.85,43.627,1.20948,312.024,1313.67,-10751.2,1131.91,3.50491,-18.8753,80.714,9719.17,-8356.08,-3674.79,8.89844,-71.5328,73.3778,7720.53,11159.5,6210.35,19.6978,176.4,-14.1222,7644.8,-1056.83,190.724,53.7607,-27.5646,4.79207
3.876,33382.2,-2246.91,973.46,-137.7,225.536,174.942,3919.59,2216.9,9233.33,19.6036,-32.0687,26.8745,-12216.5,18935.2,-7875.76,44.5831,2.81088,307.361,1343.56,-10810.3,1141.27,3.97323,-16.6068,82.0421,9797.99,-8364.51,-3577.69,7.37386,-67.2549,72.7103,8035.21,11479.1,6302.12,14.291,177.388,-9.00918,7690.25,-1091.2,197.521,54.0679,-27.3103,5.00164
3.877,33403.0,-1945.57,879.707,-132.487,221.86,171.873,3900.62,2206.11,9296.41,19.4436,-33.2854,25.9979,-12701.0,19006.8,-7679.48,45.2473,3.35641,302.388,1331.39,-10889.2,1132.06,4.3456,-14.4425,83.4283,9827.83,-8393.64,-3427.3,5.97302,-63.2731,72.0129,8315.84,11726.4,6206.66,9.50361,176.782,-2.48831,7682.47,-1151.56,172.083,53.9062,-26.6702,5.33896
3.878,33423.8,-1644.23,785.955,-127.274,218.185,168.804,3881.66,2195.33,9359.5,19.2835,-34.5021,25.1213,-13185.5,19078.3,-7483.21,45.9115,3.90194,297.414,1319.22,-10968.1,1122.86,4.71798,-12.2781,84.8146,9857.67,-8422.78,-3276.91,4.57219,-59.2914,71.3155,8596.47,11973.6,6111.19,4.71625,176.175,4.03256,7674.7,-1211.93,146.645,53.7444,-26.0301,5.67628
3.879,33444.6,-1342.89,692.202,-122.061,214.51,165.735,3862.69,2184.55,9422.59,19.1235,-35.7187,24.2448,-13670.1,19149.8,-7286.93,46.5757,4.44747,292.44,1307.05,-11047.0,1113.65,5.09035,-10.1137,86.2008,9887.51,-8451.91,-3126.51,3.17135,-55.3096,70.6182,8877.1,12220.9,6015.72,-0.071104,175.569,10.5534,7666.92,-1272.29,121.206,53.5826,-25.3899,6.0136
3.88,33465.4,-1041.55,598.449,-116.847,210.835,162.666,3843.72,2173.77,9485.68,18.9635,-36.9354,23.3682,-14154.6,19221.4,-7090.65,47.2399,4.99301,287.467,1294.88,-11125.9,1104.44,5.46272,-7.94939,87.5871,9917.35,-8481.04,-2976.12,1.77051,-51.3279,69.9208,9157.73,12468.1,5920.26,-4.85846,174.962,17.0743,7659.15,-1332.66,95.7681,53.4209,-24.7498,6.35092
3.881,33638.2,-626.419,304.946,-113.36,207.58,159.567,3872.65,2199.75,9515.48,18.9531,-38.295,22.498,-14772.6,19326.4,-6882.11,47.1905,4.17972,282.017,1226.17,-11216.9,1078.95,5.82028,-6.33042,88.9328,9883.53,-8524.35,-2813.64,0.935183,-48.2996,69.3792,9337.21,12521.6,5687.96,-4.56125,173.091,24.4739,7773.31,-1371.01,95.1356,52.7166,-24.0674,7.08252
3.882,33811.1,-211.288,11.442,-109.872,204.324,156.469,3901.57,2225.72,9545.29,18.9427,-39.6546,21.6278,-15390.7,19431.4,-6673.58,47.1411,3.36643,276.567,1157.47,-11307.9,1053.45,6.17785,-4.71145,90.2785,9849.71,-8567.67,-2651.16,0.0998509,-45.2714,68.8375,9516.69,12575.1,5455.67,-4.26403,171.22,31.8735,7887.48,-1409.37,94.5031,52.0123,-23.3851,7.81411
3.883,33983.9,203.843,-282.062,-106.385,201.069,153.37,3930.5,2251.69,9575.09,18.9324,-41.0142,20.7576,-16008.8,19536.5,-6465.04,47.0916,2.55314,271.117,1088.76,-11398.9,1027.95,6.53541,-3.09248,91.6241,9815.89,-8610.98,-2488.67,-0.735481,-42.2431,68.2959,9696.17,12628.7,5223.38,-3.96682,169.349,39.2731,8001.64,-1447.72,93.8706,51.308,-22.7027,8.5457
3.884,34156.8,618.974,-575.565,-102.897,197.813,150.271,3959.43,2277.66,9604.89,18.922,-42.3738,19.8874,-16626.8,19641.5,-6256.5,47.0422,1.73985,265.668,1020.05,-11489.9,1002.45,6.89297,-1.47351,92.9698,9782.07,-8654.29,-2326.19,-1.57081,-39.2149,67.7542,9875.65,12682.2,4991.09,-3.6696,167.479,46.6727,8115.81,-1486.07,93.2381,50.6037,-22.0203,9.2773
3.885,34359.9,1218.76,-911.959,-101.046,195.898,148.05,3979.66,2343.2,9632.83,18.8388,-43.8845,19.2423,-17206.6,19668.4,-6096.81,46.8869,1.68547,260.154,949.107,-11570.3,970.316,7.14262,-0.0951751,94.3248,9744.76,-8721.94,-2177.25,-2.10609,-36.7286,67.1975,10045.5,12675.2,4732.74,-0.0618671,164.922,53.5682,8193.44,-1511.74,86.7692,49.7346,-21.2115,10.0923
3.886,34587.3,1966.26,-1282.67,-100.504,195.055,146.53,3992.93,2440.39,9659.29,18.6973,-45.516,18.7774,-17755.9,19632.9,-5976.21,46.6469,2.23821,254.59,876.376,-11642.1,932.866,7.30595,1.09066,95.6873,9704.67,-8809.05,-2039.13,-2.40133,-34.6757,66.6288,10207.5,12619.8,4453.53,6.19429,161.818,60.0605,8241.85,-1527.25,75.6311,48.7336,-20.3015,10.9739
3.887,34814.6,2713.77,-1653.37,-99.9625,194.212,145.01,4006.2,2537.58,9685.76,18.5559,-47.1475,18.3125,-18305.1,19597.3,-5855.61,46.4068,2.79095,249.025,803.646,-11713.9,895.416,7.46927,2.27649,97.0498,9664.57,-8896.16,-1901.02,-2.69657,-32.6229,66.0601,10369.5,12564.4,4174.32,12.4504,158.713,66.5528,8290.26,-1542.76,64.493,47.7327,-19.3916,11.8556
3.888,35042.0,3461.27,-2024.08,-99.4206,193.37,143.49,4019.47,2634.77,9712.22,18.4144,-48.779,17.8476,-18854.3,19561.8,-5735.0,46.1668,3.34369,243.461,730.915,-11785.7,857.966,7.6326,3.46233,98.4123,9624.47,-8983.26,-1762.9,-2.99181,-30.5701,65.4914,10531.6,12508.9,3895.11,18.7066,155.609,73.0451,8338.67,-1558.27,53.3549,46.7317,-18.4816,12.7372
3.889,35236.5,4197.76,-2381.95,-99.0396,192.555,142.162,4030.54,2729.57,9734.41,18.2937,-50.4048,17.4035,-19358.5,19515.5,-5610.46,46.0013,4.05077,238.034,660.676,-11859.5,814.612,7.80226,4.59933,99.7681,9584.24,-9073.15,-1626.02,-3.22975,-28.61,64.9374,10694.1,12451.2,3611.03,25.4414,152.297,79.2857,8384.08,-1574.32,38.7546,45.6904,-17.5443,13.6769
3.89,35167.9,4846.06,-2637.2,-99.9457,191.969,142.366,4024.07,2805.23,9722.43,18.3396,-51.9848,17.1258,-19501.9,19383.6,-5454.35,46.432,5.99256,233.708,610.367,-11949.3,724.024,8.02262,5.34563,101.071,9542.95,-9185.22,-1499.06,-3.00921,-27.3918,64.5013,10859.8,12374.4,3288.0,36.005,147.332,83.5128,8405.46,-1594.65,-3.54271,44.3259,-16.3879,15.0805
3.891,35099.4,5494.37,-2892.44,-100.852,191.382,142.57,4017.6,2880.89,9710.46,18.3855,-53.5648,16.8481,-19645.3,19251.7,-5298.23,46.8628,7.93434,229.383,560.058,-12039.1,633.436,8.24299,6.09194,102.373,9501.66,-9297.3,-1372.09,-2.78868,-26.1737,64.0651,11025.5,12297.7,2964.96,46.5687,142.367,87.7399,8426.85,-1614.98,-45.8401,42.9614,-15.2316,16.4842
3.892,35030.8,6142.67,-3147.68,-101.758,190.795,142.774,4011.13,2956.56,9698.49,18.4314,-55.1448,16.5705,-19788.8,19119.8,-5142.12,47.2935,9.87612,225.057,509.749,-12128.9,542.849,8.46335,6.83825,103.676,9460.37,-9409.38,-1245.13,-2.56815,-24.9555,63.629,11191.2,12221.0,2641.93,57.1324,137.401,91.9669,8448.23,-1635.31,-88.1374,41.5969,-14.0752,17.8878
3.893,34962.3,6790.98,-3402.92,-102.664,190.209,142.978,4004.66,3032.22,9686.51,18.4773,-56.7248,16.2928,-19932.2,18987.9,-4986.01,47.7242,11.8179,220.731,459.439,-12218.7,452.261,8.68371,7.58455,104.978,9419.08,-9521.45,-1118.16,-2.34761,-23.7374,63.1929,11356.9,12144.2,2318.9,67.696,132.436,96.194,8469.62,-1655.64,-130.435,40.2325,-12.9189,19.2915
3.894,34657.9,7314.33,-3728.83,-104.108,188.978,142.616,3983.95,3084.11,9679.69,18.7485,-58.2626,16.0613,-19944.5,18775.0,-4765.8,48.5286,13.8854,216.599,426.872,-12267.7,384.601,8.83413,8.04544,106.219,9369.92,-9605.45,-1013.61,-1.882,-23.1113,62.703,11642.7,12105.2,1957.38,78.8395,125.833,98.365,8522.42,-1665.7,-134.596,38.9582,-11.8528,20.8199
3.895,34235.8,7775.22,-4090.06,-105.82,187.424,141.971,3956.12,3124.12,9675.44,19.1325,-59.7793,15.8529,-19891.3,18521.6,-4513.54,49.5197,16.0158,212.562,403.176,-12296.2,328.404,8.94957,8.36362,107.43,9316.83,-9675.4,-920.27,-1.29385,-22.7812,62.1862,11988.5,12085.1,1576.62,90.2728,118.41,99.508,8590.93,-1670.63,-119.69,37.7291,-10.8317,22.4107
3.896,33813.6,8236.1,-4451.3,-107.533,185.871,141.325,3928.29,3164.13,9671.19,19.5164,-61.296,15.6445,-19838.1,18268.2,-4261.29,50.5108,18.1461,208.526,379.48,-12324.8,272.208,9.06501,8.6818,108.64,9263.74,-9745.35,-826.929,-0.705704,-22.451,61.6694,12334.3,12065.0,1195.86,101.706,110.988,100.651,8659.45,-1675.56,-104.783,36.4999,-9.81071,24.0015
3.897,33391.4,8696.98,-4812.54,-109.246,184.317,140.68,3900.46,3204.14,9666.94,19.9004,-62.8127,15.4361,-19784.8,18014.7,-4009.03,51.5019,20.2765,204.49,355.784,-12353.4,216.011,9.18044,8.99997,109.85,9210.65,-9815.3,-733.589,-0.117555,-22.1209,61.1526,12680.2,12044.9,815.094,113.139,103.565,101.794,8727.96,-1680.49,-89.8767,35.2707,-8.78968,25.5924
3.898,32930.3,9183.11,-5143.39,-111.148,182.111,139.757,3878.06,3240.53,9666.65,20.2574,-64.3414,15.2577,-19851.3,17752.7,-3738.93,52.3839,22.2106,200.234,335.949,-12372.5,164.998,9.30789,9.29234,111.095,9161.22,-9873.57,-650.94,0.509666,-21.915,60.6637,13065.7,12072.4,441.758,123.347,95.5451,102.364,8790.02,-1682.53,-46.9308,34.0151,-7.79011,27.2224
3.899,32332.7,9757.64,-5367.88,-113.712,177.622,137.865,3874.63,3264.24,9680.19,20.5206,-65.9124,15.1846,-20336.9,17460.4,-3406.41,52.884,23.4581,195.207,329.629,-12358.5,132.123,9.47736,9.4944,112.463,9124.57,-9890.97,-605.713,1.27364,-22.1436,60.2727,13590.3,12266.8,94.4123,129.263,85.4328,100.928,8829.46,-1674.5,94.1528,32.6669,-6.86565,28.9898
3.9,31735.1,10332.2,-5592.37,-116.275,173.134,135.974,3871.2,3287.96,9693.74,20.7837,-67.4833,15.1114,-20822.5,17168.0,-3073.9,53.3841,24.7056,190.18,323.309,-12344.5,99.2492,9.64683,9.69646,113.831,9087.92,-9908.38,-560.487,2.03762,-22.3721,59.8816,14114.9,12461.2,-252.934,135.179,75.3205,99.493,8868.9,-1666.48,235.236,31.3186,-5.9412,30.7572
3.901,31137.5,10906.7,-5816.86,-118.838,168.645,134.082,3867.77,3311.68,9707.29,21.0469,-69.0542,15.0383,-21308.0,16875.7,-2741.38,53.8842,25.9531,185.153,316.989,-12330.5,66.3751,9.8163,9.89851,115.198,9051.27,-9925.77,-515.26,2.80159,-22.6007,59.4906,14639.5,12655.6,-600.279,141.095,65.2082,98.0575,8908.35,-1658.45,376.32,29.9704,-5.01675,32.5245
3.902,30540.0,11481.2,-6041.34,-121.402,164.156,132.19,3864.34,3335.39,9720.83,21.31,-70.6251,14.9651,-21793.6,16583.4,-2408.86,54.3843,27.2006,180.126,310.669,-12316.6,33.5009,9.98577,10.1006,116.566,9014.62,-9943.18,-470.033,3.56557,-22.8293,59.0996,15164.1,12850.0,-947.625,147.011,55.0959,96.622,8947.79,-1650.42,517.404,28.6221,-4.0923,34.2919
3.903,29882.0,12266.1,-6115.25,-124.553,156.978,130.155,3867.48,3338.43,9734.57,21.5873,-72.2398,14.9251,-22500.5,16398.1,-1906.19,53.7135,25.5136,174.986,297.021,-12319.5,9.85864,10.1319,10.5006,117.812,8986.39,-9936.39,-453.594,4.0901,-23.4251,58.6198,15792.5,13172.7,-1338.21,145.744,43.9881,93.9882,9058.72,-1638.5,614.115,26.3372,-3.15551,36.0256
3.904,29206.8,13111.1,-6146.13,-127.871,149.032,128.079,3872.5,3335.56,9748.37,21.8685,-73.867,14.8946,-23270.6,16243.3,-1354.9,52.7081,22.9881,169.813,281.279,-12327.3,-11.1459,10.2714,10.9573,119.023,8960.57,-9922.69,-445.378,4.54622,-24.1257,58.1148,16450.7,13531.9,-1741.15,142.424,32.596,91.0121,9190.08,-1625.47,698.149,23.7846,-2.21519,37.7496
3.905,28531.5,13956.1,-6177.01,-131.189,141.087,126.003,3877.51,3332.69,9762.16,22.1498,-75.4941,14.864,-24040.7,16088.6,-803.612,51.7027,20.4626,164.64,265.537,-12335.0,-32.1505,10.4109,11.4139,120.234,8934.76,-9908.98,-437.163,5.00234,-24.8263,57.6097,17108.8,13891.2,-2144.09,139.105,21.2038,88.0359,9321.43,-1612.44,782.183,21.232,-1.27487,39.4737
3.906,27856.3,14801.1,-6207.89,-134.508,133.141,123.927,3882.53,3329.82,9775.96,22.431,-77.1213,14.8335,-24810.8,15933.8,-252.325,50.6973,17.9371,159.468,249.794,-12342.8,-53.155,10.5504,11.8706,121.445,8908.94,-9895.28,-428.948,5.45846,-25.5269,57.1046,17767.0,14250.4,-2547.03,135.785,9.81167,85.0597,9452.78,-1599.41,866.217,18.6794,-0.334555,41.1977
3.907,27306.6,15630.4,-6313.45,-137.774,125.359,121.765,3891.19,3323.6,9795.98,22.7345,-78.8021,14.8111,-25477.3,15796.8,356.578,49.3835,13.6958,154.329,245.822,-12351.2,-57.9038,10.7125,12.3285,122.713,8880.73,-9876.0,-441.058,5.87955,-26.2185,56.5511,18398.6,14621.0,-3003.56,128.886,-0.97224,82.3944,9568.91,-1583.45,917.356,15.7605,0.695279,42.7653
3.908,27007.8,16428.3,-6568.39,-140.938,117.904,119.432,3907.13,3310.66,9828.46,23.0822,-80.5903,14.8049,-25936.6,15695.4,1080.71,47.453,6.02265,149.257,265.387,-12361.0,-30.1409,10.9199,12.7888,124.097,8847.76,-9845.54,-493.819,6.2306,-26.8919,55.9009,18977.1,15014.3,-3567.27,114.826,-10.5397,80.3506,9654.57,-1561.62,902.708,12.109,1.90415,44.0199
3.909,26709.0,17226.2,-6823.33,-144.101,110.449,117.098,3923.07,3297.73,9860.95,23.43,-82.3785,14.7987,-26395.9,15594.0,1804.84,45.5224,-1.65046,144.186,284.953,-12370.7,-2.37799,11.1272,13.2491,125.48,8814.78,-9815.08,-546.581,6.58165,-27.5653,55.2507,19555.6,15407.5,-4130.98,100.766,-20.1071,78.3068,9740.23,-1539.8,888.06,8.45744,3.11301,45.2745
3.91,26410.2,18024.1,-7078.27,-147.264,102.995,114.765,3939.02,3284.8,9893.43,23.7778,-84.1666,14.7926,-26855.3,15492.5,2528.98,43.5918,-9.32357,139.114,304.518,-12380.4,25.3849,11.3345,13.7094,126.863,8781.81,-9784.62,-599.342,6.9327,-28.2388,54.6004,20134.1,15800.7,-4694.7,86.7065,-29.6745,76.263,9825.89,-1517.98,873.412,4.80589,4.32188,46.5291
3.911,26111.4,18822.0,-7333.21,-150.427,95.5402,112.432,3954.96,3271.86,9925.91,24.1256,-85.9548,14.7864,-27314.6,15391.1,3253.11,41.6613,-16.9967,134.043,324.084,-12390.2,53.1478,11.5419,14.1697,128.246,8748.83,-9754.16,-652.103,7.28375,-28.9122,53.9502,20712.6,16193.9,-5258.41,72.6468,-39.2419,74.2192,9911.55,-1496.16,858.764,1.15435,5.53075,47.7837
3.912,26471.1,19033.8,-7658.8,-149.677,91.0016,108.041,3984.64,3221.84,9955.51,24.5771,-87.8189,14.5389,-27374.8,15307.4,3311.28,40.468,-24.3118,128.61,304.255,-12416.5,106.04,11.9226,14.9469,129.364,8725.39,-9736.73,-734.245,7.41323,-29.3366,53.1828,20879.1,16435.0,-5929.37,52.9318,-44.5618,74.8014,9897.87,-1486.77,748.283,-1.75153,6.97741,48.2361
3.913,26913.1,19172.2,-7993.23,-148.437,86.8275,103.392,4016.04,3167.18,9984.76,25.0415,-89.6925,14.2612,-27385.1,15225.9,3286.2,39.367,-31.5822,123.131,279.503,-12444.9,162.074,12.3251,15.7637,130.448,8703.13,-9720.93,-820.059,7.515,-29.7298,52.4007,20994.0,16657.0,-6613.74,32.51,-49.3507,75.7117,9871.78,-1478.95,625.824,-4.56419,8.4538,48.5881
3.914,27355.1,19310.7,-8327.66,-147.198,82.6534,98.7442,4047.44,3112.51,10014.0,25.5059,-91.5661,13.9835,-27395.5,15144.4,3261.13,38.2659,-38.8526,117.653,254.751,-12473.3,218.108,12.7275,16.5805,131.532,8680.88,-9705.13,-905.874,7.61677,-30.1231,51.6186,21109.0,16879.0,-7298.1,12.0881,-54.1396,76.6221,9845.68,-1471.12,503.364,-7.37686,9.93018,48.9402
3.915,27797.1,19449.1,-8662.09,-145.958,78.4794,94.0959,4078.84,3057.85,10043.2,25.9703,-93.4397,13.7058,-27405.8,15062.8,3236.05,37.1649,-46.123,112.174,229.999,-12501.6,274.142,13.13,17.3973,132.617,8658.63,-9689.34,-991.689,7.71855,-30.5163,50.8366,21223.9,17101.0,-7982.47,-8.33382,-58.9285,77.5325,9819.58,-1463.29,380.904,-10.1895,11.4066,49.2922
3.916,28441.2,19245.7,-8933.3,-143.041,75.3192,88.4648,4102.07,3001.66,10074.6,26.4712,-95.367,13.3607,-27255.1,14869.0,2986.08,35.9866,-51.9381,106.344,210.436,-12526.9,329.111,13.4601,18.2271,133.798,8630.29,-9663.08,-1077.36,7.80672,-30.698,49.9462,21069.3,17135.8,-8562.6,-26.9389,-61.5392,79.5008,9803.85,-1444.7,258.872,-11.9597,12.4975,49.3715
3.917,29338.0,18615.0,-9125.49,-138.027,73.4266,81.6051,4115.09,2943.54,10108.5,27.0178,-97.3615,12.9314,-26903.0,14534.6,2454.98,34.7117,-55.9341,100.074,197.361,-12548.3,382.747,13.6997,19.0732,135.1,8594.36,-9623.76,-1162.85,7.87789,-30.6154,48.9206,20577.9,16936.8,-9012.44,-43.2731,-61.4273,82.7915,9801.06,-1412.63,137.372,-12.4269,13.1067,49.1098
3.918,30234.8,17984.2,-9317.67,-133.014,71.5339,74.7453,4128.11,2885.43,10142.5,27.5643,-99.356,12.5022,-26551.0,14200.2,1923.88,33.4369,-59.9301,93.8044,184.285,-12569.7,436.384,13.9393,19.9193,136.403,8558.42,-9584.43,-1248.35,7.94906,-30.5327,47.8949,20086.4,16737.7,-9462.28,-59.6072,-61.3155,86.0822,9798.27,-1380.57,15.8732,-12.894,13.7159,48.8481
3.919,31131.6,17353.5,-9509.86,-128.0,69.6412,67.8856,4141.13,2827.31,10176.4,28.1108,-101.35,12.0729,-26198.9,13865.9,1392.78,32.162,-63.9261,87.5346,171.21,-12591.0,490.021,14.179,20.7654,137.705,8522.48,-9545.11,-1333.84,8.02023,-30.45,46.8693,19595.0,16538.6,-9912.13,-75.9413,-61.2036,89.3729,9795.48,-1348.51,-105.626,-13.3611,14.325,48.5864
3.92,32028.4,16722.8,-9702.04,-122.986,67.7485,61.0259,4154.15,2769.2,10210.4,28.6574,-103.345,11.6436,-25846.9,13531.5,861.675,30.8871,-67.9221,81.2647,158.134,-12612.4,543.658,14.4186,21.6115,139.008,8486.55,-9505.79,-1419.33,8.0914,-30.3674,45.8436,19103.5,16339.6,-10362.0,-92.2755,-61.0917,92.6636,9792.7,-1316.44,-227.125,-13.8283,14.9342,48.3247
3.921,32709.0,16043.6,-9853.14,-118.818,65.684,55.1799,4129.09,2756.67,10236.1,29.1201,-105.611,11.4025,-25440.9,13116.7,563.009,28.9714,-69.7096,73.962,167.775,-12644.9,571.032,14.7905,22.3774,140.191,8471.9,-9463.29,-1492.83,8.07037,-29.9837,44.9297,18267.9,15774.2,-10191.5,-97.3241,-57.4929,95.4642,9801.45,-1215.85,-360.185,-12.7144,14.4963,47.4934
3.922,33389.7,15364.5,-10004.2,-114.65,63.6195,49.3339,4104.03,2744.14,10261.9,29.5829,-107.878,11.1613,-25035.0,12701.8,264.342,27.0556,-71.4971,66.6593,177.415,-12677.4,598.406,15.1625,23.1432,141.374,8457.25,-9420.79,-1566.33,8.04934,-29.6001,44.0159,17432.4,15208.8,-10021.0,-102.373,-53.8941,98.2647,9810.21,-1115.25,-493.244,-11.6006,14.0585,46.6621
3.923,34070.3,14685.4,-10155.3,-110.481,61.5551,43.4879,4078.97,2731.62,10287.6,30.0456,-110.144,10.9202,-24629.1,12287.0,-34.324,25.1398,-73.2846,59.3566,187.055,-12709.9,625.781,15.5344,23.9091,142.557,8442.6,-9378.3,-1639.83,8.02832,-29.2165,43.102,16596.8,14643.5,-9850.51,-107.421,-50.2953,101.065,9818.96,-1014.65,-626.304,-10.4867,13.6206,45.8307
3.924,34751.0,14006.2,-10306.4,-106.313,59.4906,37.6419,4053.91,2719.09,10313.4,30.5083,-112.411,10.6791,-24223.1,11872.2,-332.99,23.224,-75.0721,52.0539,196.695,-12742.4,653.155,15.9064,24.675,143.74,8427.94,-9335.8,-1713.33,8.00729,-28.8329,42.1882,15761.2,14078.1,-9680.02,-112.47,-46.6966,103.866,9827.72,-914.056,-759.363,-9.37283,13.1828,44.9994
3.925,35088.8,13584.3,-10458.5,-101.024,56.6184,32.7129,4041.42,2716.27,10328.9,31.0025,-114.678,10.447,-23889.1,11521.3,-511.162,21.6409,-76.326,44.3012,184.395,-12790.2,662.113,16.1411,25.4286,144.863,8425.48,-9286.09,-1794.81,8.00154,-28.2215,41.2789,14934.6,13445.2,-9081.32,-112.044,-42.708,105.318,9850.08,-775.117,-865.963,-8.33075,12.676,44.0268
3.926,35152.3,13368.0,-10611.3,-94.8385,53.1002,28.5174,4038.98,2721.21,10336.2,31.5219,-116.946,10.2222,-23612.5,11221.7,-592.939,20.324,-77.153,36.1884,154.543,-12850.2,656.339,16.2661,26.1724,145.936,8432.75,-9230.61,-1882.67,8.00801,-27.428,40.3733,14115.2,12758.4,-8140.04,-107.239,-38.4077,105.692,9883.32,-605.505,-951.395,-7.34609,12.1142,42.9412
3.927,35215.8,13151.8,-10764.2,-88.6533,49.582,24.322,4036.54,2726.16,10343.4,32.0414,-119.215,9.99742,-23336.0,10922.0,-674.715,19.007,-77.98,28.0756,124.692,-12910.3,650.564,16.3911,26.9162,147.01,8440.03,-9175.14,-1970.53,8.01447,-26.6345,39.4676,13295.8,12071.6,-7198.76,-102.434,-34.1074,106.066,9916.57,-435.892,-1036.83,-6.36142,11.5523,41.8556
3.928,35279.3,12935.6,-10917.0,-82.4681,46.0638,20.1266,4034.1,2731.11,10350.7,32.5608,-121.483,9.77263,-23059.4,10622.4,-756.492,17.6901,-78.807,19.9628,94.8396,-12970.3,644.789,16.5161,27.66,148.084,8447.3,-9119.66,-2058.39,8.02094,-25.8409,38.562,12476.3,11384.7,-6257.48,-97.6286,-29.8071,106.44,9949.82,-266.28,-1122.26,-5.37676,10.9905,40.7699
3.929,35266.0,12755.3,-11047.7,-75.9479,42.3817,15.8685,4032.37,2736.66,10359.6,33.1099,-123.751,9.54268,-22783.7,10353.7,-831.459,16.447,-79.6082,11.8595,66.5593,-13032.6,638.339,16.6656,28.3776,149.187,8454.42,-9066.05,-2146.39,8.02508,-24.9901,37.6689,11685.4,10720.1,-5267.18,-92.4055,-25.7205,106.486,9990.9,-93.6996,-1198.74,-4.53562,10.4661,39.7079
3.93,34637.6,12862.5,-11002.0,-66.7486,37.3892,11.1088,4036.31,2747.1,10382.0,33.897,-126.02,9.27144,-22514.6,10332.6,-851.954,15.795,-80.203,3.83239,50.851,-13112.6,626.482,17.0108,28.886,150.525,8460.28,-9027.34,-2235.47,8.01062,-23.6808,36.8762,11122.5,10232.9,-3884.67,-83.8394,-23.3436,103.905,10094.6,102.625,-1203.61,-4.84267,10.2417,38.8343
3.931,34009.2,12969.8,-10956.3,-57.5492,32.3966,6.34911,4040.26,2757.54,10404.3,34.6841,-128.289,9.00021,-22245.4,10311.5,-872.449,15.1431,-80.7979,-4.19469,35.1426,-13192.6,614.625,17.356,29.3944,151.863,8466.14,-8988.63,-2324.54,7.99615,-22.3715,36.0835,10559.5,9745.77,-2502.16,-75.2732,-20.9668,101.324,10198.3,298.949,-1208.49,-5.14972,10.0173,37.9608
3.932,33380.8,13077.1,-10910.6,-48.3498,27.404,1.58942,4044.2,2767.97,10426.6,35.4712,-130.558,8.72897,-21976.3,10290.4,-892.944,14.4911,-81.3927,-12.2218,19.4343,-13272.6,602.768,17.7012,29.9027,153.2,8472.0,-8949.92,-2413.62,7.98168,-21.0623,35.2907,9996.59,9258.62,-1119.66,-66.7071,-18.59,98.7425,10302.1,495.273,-1213.36,-5.45678,9.79283,37.0873
3.933,32752.5,13184.3,-10864.8,-39.1505,22.4115,-3.17028,4048.14,2778.41,10448.9,36.2583,-132.827,8.45774,-21707.2,10269.3,-913.438,13.8391,-81.9875,-20.2489,3.72598,-13352.6,590.911,18.0464,30.4111,154.538,8477.87,-8911.21,-2502.7,7.96722,-19.753,34.498,9433.66,8771.47,262.849,-58.141,-16.2132,96.1615,10405.8,691.598,-1218.24,-5.76383,9.56841,36.2137
3.934,31890.3,13302.7,-10679.4,-31.478,16.9548,-8.95969,4038.18,2830.44,10476.7,37.1849,-135.203,8.38926,-21400.6,10367.1,-957.447,13.2318,-81.8358,-27.8649,-12.428,-13413.4,536.497,18.2891,30.8986,155.872,8485.76,-8883.64,-2555.4,7.97496,-18.2348,33.9302,8999.52,8525.1,1519.28,-50.3825,-14.7631,92.4808,10486.8,813.144,-1246.72,-6.50259,9.52902,35.2605
3.935,30911.2,13426.7,-10424.0,-24.569,11.2659,-15.264,4021.28,2903.28,10507.3,38.1814,-137.634,8.42216,-21075.4,10524.4,-1013.21,12.6468,-81.3108,-35.2754,-28.8049,-13464.5,460.805,18.4806,31.3757,157.205,8494.68,-8861.65,-2589.92,7.99381,-16.6121,33.4749,8629.77,8399.13,2712.67,-43.0279,-13.7765,88.2503,10556.3,897.301,-1287.01,-7.4572,9.58215,34.2674
3.936,29932.2,13550.7,-10168.7,-17.66,5.57713,-21.5683,4004.38,2976.11,10537.8,39.1778,-140.064,8.45506,-20750.1,10681.6,-1068.98,12.0618,-80.7858,-42.6859,-45.1818,-13515.6,385.112,18.6722,31.8527,158.537,8503.6,-8839.66,-2624.44,8.01266,-14.9895,33.0196,8260.03,8273.15,3906.06,-35.6733,-12.7898,84.0197,10625.9,981.459,-1327.3,-8.41181,9.63528,33.2743
3.937,28953.1,13674.7,-9913.38,-10.751,-0.111677,-27.8725,3987.48,3048.94,10568.3,40.1742,-142.494,8.48796,-20424.9,10838.9,-1124.75,11.4768,-80.2607,-50.0963,-61.5587,-13566.7,309.42,18.8637,32.3297,159.869,8512.52,-8817.66,-2658.96,8.03151,-13.3668,32.5642,7890.28,8147.17,5099.45,-28.3187,-11.8032,79.7892,10695.5,1065.62,-1367.58,-9.36642,9.68841,32.2812
3.938,27994.5,13773.2,-9645.15,-4.76895,-5.64598,-34.4462,3977.53,3114.33,10593.9,41.2172,-144.926,8.57818,-20081.9,10984.8,-1203.8,10.9367,-79.4435,-57.2205,-82.9288,-13619.6,241.948,19.0531,32.7343,161.177,8525.21,-8800.05,-2684.79,8.05585,-11.6796,32.1761,7552.78,8046.04,6186.56,-21.6914,-11.021,75.6757,10761.4,1132.6,-1407.8,-10.3247,9.68619,31.3139
3.939,27107.8,13782.4,-9331.78,-2.0314,-10.6395,-41.9627,3991.9,3153.67,10602.5,42.4232,-147.363,8.86903,-19677.2,11090.7,-1364.36,10.5535,-77.6038,-63.3428,-121.775,-13678.7,203.248,19.2352,32.885,162.4,8551.11,-8797.77,-2680.2,8.0994,-9.76638,32.0229,7328.13,8031.87,6901.69,-17.6099,-10.9546,71.9716,10814.4,1139.48,-1447.78,-11.2957,9.49026,30.437
3.94,26221.0,13791.6,-9018.4,0.706158,-15.633,-49.4791,4006.27,3193.01,10611.1,43.6291,-149.8,9.15987,-19272.4,11196.7,-1524.92,10.1704,-75.764,-69.465,-160.622,-13737.7,164.549,19.4174,33.0357,163.622,8577.01,-8795.5,-2675.62,8.14294,-7.85318,31.8698,7103.48,8017.69,7616.82,-13.5283,-10.8881,68.2676,10867.4,1146.35,-1487.76,-12.2667,9.29434,29.56
3.941,25334.3,13800.8,-8705.02,3.44371,-20.6266,-56.9956,4020.64,3232.35,10619.7,44.8351,-152.237,9.45071,-18867.7,11302.6,-1685.49,9.78723,-73.9242,-75.5872,-199.469,-13796.8,125.849,19.5995,33.1865,164.844,8602.91,-8793.22,-2671.04,8.18649,-5.93998,31.7167,6878.83,8003.52,8331.95,-9.44673,-10.8216,64.5636,10920.5,1153.23,-1527.74,-13.2377,9.09841,28.6831
3.942,24447.5,13810.1,-8391.65,6.18127,-25.6201,-64.5121,4035.02,3271.69,10628.3,46.041,-154.673,9.74156,-18462.9,11408.6,-1846.05,9.40409,-72.0844,-81.7094,-238.315,-13855.8,87.1497,19.7816,33.3372,166.067,8628.82,-8790.94,-2666.45,8.23004,-4.02678,31.5636,6654.19,7989.35,9047.08,-5.36516,-10.7552,60.8596,10973.5,1160.11,-1567.72,-14.2087,8.90248,27.8062
3.943,23824.6,13701.4,-8102.96,6.72902,-29.5739,-72.0908,4048.7,3300.23,10627.2,47.4046,-157.123,10.1154,-18036.8,11477.2,-1979.24,9.2376,-69.0587,-86.7721,-292.649,-13901.6,77.1096,19.7912,33.3799,167.169,8618.0,-8842.11,-2639.8,8.35851,-2.11598,31.2629,6539.17,8016.76,9280.87,-3.21423,-11.1129,59.3268,11000.1,1129.96,-1604.12,-14.6698,8.29442,26.5662
3.944,23277.1,13559.2,-7821.33,6.65111,-33.2306,-79.6872,4062.19,3325.68,10623.3,48.8133,-159.576,10.5131,-17604.5,11535.2,-2104.61,9.13301,-65.6943,-91.5319,-351.409,-13943.7,75.2579,19.7516,33.3918,168.236,8596.69,-8908.55,-2606.85,8.51125,-0.20586,30.9201,6455.48,8056.05,9377.14,-1.61491,-11.5919,58.4143,11019.1,1089.23,-1639.5,-14.9852,7.56861,25.2226
3.945,22729.7,13416.9,-7539.7,6.5732,-36.8874,-87.2837,4075.68,3351.13,10619.4,50.2219,-162.03,10.9107,-17172.3,11593.1,-2229.97,9.02843,-62.3298,-96.2918,-410.168,-13985.7,73.4062,19.7119,33.4036,169.304,8575.38,-8975.0,-2573.89,8.66398,1.70425,30.5772,6371.79,8095.34,9473.41,-0.0155839,-12.0709,57.5019,11038.1,1048.51,-1674.88,-15.3006,6.84279,23.879
3.946,22182.2,13274.6,-7258.07,6.49529,-40.5441,-94.8802,4089.17,3376.58,10615.5,51.6306,-164.483,11.3083,-16740.1,11651.0,-2355.34,8.92385,-58.9653,-101.052,-468.927,-14027.7,71.5545,19.6723,33.4155,170.371,8554.08,-9041.44,-2540.93,8.81672,3.61437,30.2344,6288.09,8134.63,9569.68,1.58374,-12.5498,56.5894,11057.1,1007.78,-1710.26,-15.616,6.11698,22.5354
3.947,21799.9,13059.4,-7206.54,6.13531,-44.0251,-102.947,4095.65,3405.24,10614.7,53.1139,-166.937,11.7396,-16281.5,11678.1,-2426.26,8.76235,-55.4278,-105.457,-512.895,-14071.8,57.0207,19.6226,33.2797,171.478,8524.31,-9118.09,-2496.1,9.03827,5.4541,29.8878,6205.47,8150.89,9498.99,2.69241,-12.5903,56.535,11095.5,955.941,-1738.48,-15.6766,5.20288,21.149
3.948,21748.2,12698.3,-7615.23,5.21118,-47.1546,-111.955,4088.09,3440.29,10620.2,54.7466,-169.393,12.2382,-15770.1,11643.5,-2388.29,8.48705,-51.5441,-109.155,-527.28,-14120.0,17.1226,19.553,32.8487,172.662,8477.63,-9215.17,-2427.53,9.39746,7.15305,29.5336,6124.99,8121.09,9094.38,2.81976,-11.7539,58.1966,11172.4,881.869,-1752.41,-15.2275,3.91219,19.6772
3.949,21696.4,12337.2,-8023.91,4.28705,-50.2841,-120.963,4080.53,3475.34,10625.6,56.3792,-171.848,12.7368,-15258.8,11608.8,-2350.31,8.21174,-47.6604,-112.852,-541.665,-14168.1,-22.7755,19.4833,32.4178,173.847,8430.94,-9312.24,-2358.95,9.75665,8.852,29.1795,6044.5,8091.29,8689.77,2.94712,-10.9175,59.8583,11249.3,807.797,-1766.34,-14.7784,2.6215,18.2053
3.95,21644.6,11976.1,-8432.59,3.36293,-53.4135,-129.971,4072.97,3510.39,10631.1,58.0119,-174.304,13.2354,-14747.4,11574.2,-2312.34,7.93644,-43.7767,-116.549,-556.05,-14216.3,-62.6736,19.4137,31.9868,175.031,8384.25,-9409.32,-2290.38,10.1158,10.551,28.8254,5964.02,8061.49,8285.16,3.07448,-10.0811,61.5199,11326.2,733.724,-1780.27,-14.3294,1.33082,16.7335
3.951,21592.8,11615.0,-8841.28,2.4388,-56.543,-138.98,4065.41,3545.44,10636.5,59.6446,-176.759,13.7339,-14236.1,11539.5,-2274.36,7.66113,-39.8931,-120.246,-570.435,-14264.4,-102.572,19.344,31.5558,176.216,8337.57,-9506.4,-2221.81,10.475,12.2499,28.4712,5883.54,8031.69,7880.55,3.20183,-9.24465,63.1816,11403.1,659.652,-1794.2,-13.8803,0.0401312,15.2616
3.952,22061.1,10749.9,-9878.48,13.053,-62.9044,-151.853,4035.68,3562.59,10670.0,61.4491,-179.43,14.3045,-13187.1,11629.3,-1507.25,3.13942,-34.4738,-124.335,-587.763,-14309.2,-115.239,19.2895,30.78,177.212,8279.41,-9590.29,-2136.31,11.2867,13.5939,27.9744,5759.12,8031.33,7118.7,3.2818,-5.11668,66.1256,11483.6,579.743,-1738.27,-12.6762,-1.98517,14.5943
3.953,22594.4,9821.71,-10994.3,25.1096,-69.6698,-165.209,4003.17,3577.49,10707.1,63.2751,-182.128,14.884,-12070.9,11734.7,-649.003,-1.91308,-28.8627,-128.473,-605.459,-14353.5,-124.503,19.2368,29.9612,178.185,8219.82,-9672.53,-2048.69,12.1549,14.8935,27.4598,5629.2,8034.65,6312.18,3.35585,-0.577271,69.2299,11564.5,499.104,-1673.61,-11.3778,-4.10229,14.0275
3.954,23127.6,8893.56,-12110.0,37.1661,-76.4351,-178.566,3970.66,3592.4,10744.1,65.1011,-184.825,15.4636,-10954.7,11840.0,209.249,-6.96559,-23.2515,-132.611,-623.155,-14397.9,-133.766,19.1842,29.1424,179.158,8160.23,-9754.77,-1961.08,13.023,16.1932,26.9452,5499.29,8037.97,5505.67,3.42989,3.96214,72.3342,11645.4,418.465,-1608.95,-10.0794,-6.21941,13.4607
3.955,23660.9,7965.41,-13225.8,49.2226,-83.2005,-191.922,3938.16,3607.31,10781.1,66.9271,-187.523,16.0431,-9838.43,11945.4,1067.5,-12.0181,-17.6404,-136.749,-640.851,-14442.2,-143.03,19.1315,28.3235,180.13,8100.64,-9837.01,-1873.46,13.8912,17.4928,26.4306,5369.37,8041.28,4699.16,3.50394,8.50155,75.4384,11726.3,337.826,-1544.3,-8.78103,-8.33653,12.8939
3.956,23630.7,7130.73,-13433.5,73.1661,-99.2479,-205.676,3915.29,3626.73,10832.1,68.8779,-190.346,16.7308,-8409.12,12004.8,1817.07,-17.9622,-10.0079,-142.709,-659.376,-14517.5,-118.65,19.1085,27.3274,181.15,8037.44,-9917.33,-1795.36,14.8368,18.5352,25.8167,5188.39,8060.65,3818.98,3.94379,15.1259,78.7547,11813.6,247.995,-1371.05,-6.5087,-10.4906,12.2873
3.957,22896.1,6412.87,-12506.2,111.968,-126.898,-219.928,3904.46,3651.79,10900.5,70.9847,-193.324,17.5538,-6588.43,12006.7,2430.8,-25.0209,0.151088,-150.947,-678.94,-14631.5,-52.2166,19.1225,26.1095,182.23,7969.75,-9995.24,-1729.16,15.879,19.2562,25.0788,4943.58,8100.09,2846.71,4.84092,24.3566,82.3359,11909.0,146.673,-1062.08,-3.01896,-12.691,11.631
3.958,22161.6,5695.01,-11578.9,150.77,-154.548,-234.18,3893.64,3676.85,10968.9,73.0916,-196.303,18.3767,-4767.74,12008.6,3044.53,-32.0796,10.3101,-159.184,-698.503,-14745.5,14.2172,19.1365,24.8916,183.309,7902.06,-10073.2,-1662.96,16.9212,19.9771,24.3409,4698.76,8139.52,1874.44,5.73804,33.5872,85.9171,12004.5,45.3519,-753.104,0.470787,-14.8913,10.9748
3.959,21427.0,4977.16,-10651.6,189.573,-182.198,-248.432,3882.82,3701.92,11037.4,75.1984,-199.282,19.1997,-2947.06,12010.6,3658.25,-39.1383,20.4692,-167.421,-718.066,-14859.4,80.6511,19.1505,23.6738,184.388,7834.36,-10151.1,-1596.75,17.9635,20.6981,23.603,4453.95,8178.95,902.174,6.63516,42.8179,89.4983,12099.9,-55.9695,-444.13,3.96053,-17.0916,10.3185
3.96,20692.4,4259.3,-9724.33,228.375,-209.848,-262.684,3871.99,3726.98,11105.8,77.3052,-202.261,20.0226,-1126.37,12012.5,4271.98,-46.197,30.6282,-175.659,-737.629,-14973.4,147.085,19.1645,22.4559,185.468,7766.67,-10229.0,-1530.55,19.0057,21.419,22.8651,4209.14,8218.38,-70.0939,7.53228,52.0485,93.0795,12195.3,-157.291,-135.156,7.45027,-19.2919,9.66223
3.961,17086.6,4976.68,-7925.84,266.243,-255.165,-277.863,3878.29,3729.2,11203.5,79.6436,-205.625,20.9465,1311.48,12800.3,4259.37,-47.2465,41.3447,-180.478,-752.956,-15059.8,197.042,19.2057,21.2449,186.385,7734.92,-10265.2,-1523.99,19.9163,21.1968,22.1188,4015.11,8284.15,-784.109,9.78665,62.3989,94.6787,12381.3,-226.351,342.845,9.73523,-20.8215,10.1356
3.962,13480.9,5694.05,-6127.36,304.111,-300.482,-293.042,3884.59,3731.42,11301.2,81.982,-208.989,21.8704,3749.33,13588.2,4246.76,-48.2961,52.0612,-185.298,-768.282,-15146.3,247.0,19.247,20.0339,187.303,7703.16,-10301.4,-1517.42,20.827,20.9746,21.3725,3821.09,8349.91,-1498.12,12.041,72.7494,96.2778,12567.2,-295.41,820.846,12.0202,-22.351,10.609
3.963,9875.11,6411.42,-4328.87,341.979,-345.798,-308.221,3890.89,3733.64,11399.0,84.3203,-212.352,22.7943,6187.18,14376.0,4234.15,-49.3457,62.7778,-190.117,-783.608,-15232.7,296.957,19.2882,18.8229,188.221,7671.41,-10337.6,-1510.86,21.7376,20.7524,20.6261,3627.06,8415.68,-2212.14,14.2954,83.0998,97.877,12753.2,-364.47,1298.85,14.3052,-23.8805,11.0824
3.964,6269.34,7128.79,-2530.38,379.847,-391.115,-323.399,3897.19,3735.86,11496.7,86.6587,-215.716,23.7181,8625.03,15163.9,4221.54,-50.3953,73.4943,-194.936,-798.934,-15319.1,346.915,19.3294,17.6119,189.138,7639.65,-10373.8,-1504.3,22.6483,20.5302,19.8798,3433.04,8481.45,-2926.15,16.5498,93.4502,99.4762,12939.1,-433.53,1776.85,16.5901,-25.41,11.5559
3.965,2962.35,7405.07,-869.088,402.213,-427.431,-341.185,3901.69,3703.93,11618.1,89.03,-219.491,24.5397,9937.06,16740.4,3897.72,-46.9007,81.8061,-197.699,-804.14,-15453.0,436.861,19.525,16.416,190.162,7633.93,-10399.8,-1526.53,23.3745,19.6021,19.1848,3427.19,8586.26,-3247.52,19.0051,100.645,98.1629,13175.6,-389.603,2058.35,15.7686,-25.8958,12.7429
3.966,-105.61,7328.47,682.454,412.176,-456.545,-361.055,3904.75,3644.67,11758.5,91.4276,-223.593,25.2794,10348.4,18947.9,3324.95,-39.7709,88.1941,-198.816,-801.251,-15624.9,558.799,19.8442,15.2321,191.271,7649.03,-10417.6,-1571.81,23.9533,18.1094,18.5309,3571.89,8722.3,-3254.77,21.6211,105.315,94.5196,13452.3,-255.286,2182.66,12.462,-25.5467,14.5009
3.967,-3173.57,7251.87,2234.0,422.139,-485.658,-380.926,3907.82,3585.41,11898.9,93.8252,-227.695,26.0191,10759.8,21155.3,2752.18,-32.641,94.5821,-199.934,-798.362,-15796.7,680.737,20.1634,14.0482,192.38,7664.12,-10435.4,-1617.08,24.532,16.6166,17.8771,3716.59,8858.34,-3262.03,24.2372,109.985,90.8763,13729.1,-120.969,2306.97,9.15536,-25.1975,16.2588
3.968,-6241.54,7175.26,3785.54,432.102,-514.772,-400.796,3910.88,3526.15,12039.3,96.2227,-231.798,26.7588,11171.2,23362.8,2179.41,-25.5112,100.97,-201.051,-795.472,-15968.5,802.676,20.4826,12.8644,193.489,7679.22,-10453.3,-1662.36,25.1107,15.1238,17.2232,3861.29,8994.38,-3269.28,26.8533,114.654,87.2331,14005.9,13.3476,2431.28,5.84872,-24.8484,18.0168
3.969,-8949.08,6970.74,5513.36,439.061,-540.206,-419.516,3909.3,3478.62,12179.0,98.5598,-235.969,27.4786,11449.2,25507.5,1668.24,-18.5564,107.39,-202.155,-787.154,-16150.8,921.003,20.7966,11.7622,194.57,7703.13,-10473.4,-1701.42,25.6202,13.5362,16.5966,4070.59,9199.64,-3276.54,29.0224,118.863,83.0591,14281.2,153.453,2534.1,1.81293,-24.2964,19.8118
3.97,-8773.27,5742.87,8651.45,421.984,-536.197,-429.033,3870.52,3524.93,12312.5,100.413,-240.689,28.0392,10660.3,27150.6,1649.91,-13.0024,114.069,-203.155,-735.4,-16416.4,1010.44,21.0692,11.3135,195.429,7797.51,-10512.3,-1690.72,25.5759,11.1892,16.1884,4796.68,9958.69,-3283.81,27.616,119.385,74.6395,14543.9,339.871,2465.05,-8.05614,-22.1213,21.903
3.971,-8597.45,4515.0,11789.5,404.907,-532.188,-438.549,3831.74,3571.23,12446.0,102.266,-245.409,28.5997,9871.5,28793.6,1631.57,-7.44841,120.748,-204.155,-683.646,-16682.0,1099.88,21.3419,10.8649,196.288,7891.9,-10551.1,-1680.02,25.5316,8.84218,15.7803,5522.77,10717.7,-3291.09,26.2096,119.908,66.2198,14806.6,526.289,2396.0,-17.9252,-19.9462,23.9942
3.972,-8421.64,3287.13,14927.6,387.829,-528.179,-448.066,3792.96,3617.54,12579.5,104.12,-250.129,29.1602,9082.65,30436.6,1613.24,-1.8944,127.427,-205.154,-631.891,-16947.6,1189.33,21.6145,10.4162,197.147,7986.28,-10590.0,-1669.33,25.4873,6.49519,15.3721,6248.86,11476.8,-3298.37,24.8032,120.43,57.8002,15069.3,712.707,2326.95,-27.7943,-17.7712,26.0855
3.973,-8245.82,2059.26,18065.7,370.752,-524.171,-457.582,3754.19,3663.84,12713.0,105.973,-254.85,29.7207,8293.8,32079.7,1594.91,3.65962,134.106,-206.154,-580.137,-17213.2,1278.77,21.8871,9.96753,198.006,8080.67,-10628.8,-1658.63,25.443,4.1482,14.9639,6974.95,12235.8,-3305.65,23.3969,120.952,49.3805,15332.0,899.125,2257.9,-37.6633,-15.5961,28.1767
3.974,-5731.63,995.015,20921.9,342.353,-499.391,-453.447,3710.02,3809.89,12776.0,107.701,-259.837,30.5835,7643.8,32149.0,1481.6,7.45843,141.266,-207.715,-539.596,-17526.7,1255.78,22.0732,9.43436,198.708,8216.89,-10722.1,-1599.02,24.9682,1.6096,14.5277,8119.32,13484.2,-3797.04,14.9498,127.1,41.2282,15476.6,999.031,2296.26,-47.1084,-13.8062,29.8152
3.975,-2048.24,12.5874,23637.2,308.292,-464.225,-442.486,3663.17,4005.82,12803.8,109.366,-264.959,31.5974,7063.22,31431.4,1320.81,10.3796,148.665,-209.556,-504.662,-17864.1,1176.58,22.2159,8.85892,199.331,8374.04,-10842.7,-1514.96,24.2782,-1.02481,14.0774,9472.83,14977.2,-4530.49,2.98242,136.061,33.2095,15562.2,1055.68,2388.32,-56.3415,-12.209,31.2273
3.976,1635.15,-969.84,26352.5,274.231,-429.06,-431.525,3616.31,4201.75,12831.5,111.031,-270.08,32.6113,6482.64,30713.8,1160.01,13.3008,156.065,-211.397,-469.727,-18201.6,1097.38,22.3585,8.28349,199.954,8531.19,-10963.3,-1430.9,23.5882,-3.65922,13.6271,10826.3,16470.2,-5263.94,-8.98497,145.023,25.1907,15647.7,1112.33,2480.38,-65.5746,-10.6117,32.6395
3.977,5318.54,-1952.27,29067.7,240.17,-393.895,-420.563,3569.45,4397.68,12859.3,112.697,-275.202,33.6252,5902.06,29996.2,999.213,16.222,163.464,-213.239,-434.793,-18539.1,1018.18,22.5012,7.70806,200.577,8688.33,-11083.9,-1346.83,22.8982,-6.29363,13.1768,12179.8,17963.2,-5997.39,-20.9524,153.984,17.172,15733.2,1168.98,2572.44,-74.8077,-9.01446,34.0516
3.978,9341.08,-2652.74,31515.5,205.306,-358.968,-404.636,3541.04,4591.67,12860.8,114.572,-280.236,34.7772,5330.23,29010.7,1102.14,18.3232,168.975,-214.787,-402.528,-18880.3,918.907,22.65,7.08189,201.239,8851.83,-11233.1,-1257.72,22.2378,-8.80211,12.6642,13532.4,19405.1,-6634.92,-34.7818,166.384,9.81013,15787.8,1206.48,2681.3,-82.4082,-7.68481,35.3585
3.979,14550.6,-2366.38,33027.1,167.633,-324.876,-371.327,3577.18,4778.86,12770.0,117.181,-284.966,36.4126,4789.06,27087.4,2128.09,17.554,167.873,-215.308,-379.607,-19234.8,749.351,22.8198,6.27813,202.036,9037.56,-11482.4,-1150.91,21.6809,-10.8698,11.9332,14881.6,20668.3,-6936.76,-55.1286,190.818,4.74705,15734.0,1176.97,2848.96,-84.2947,-7.29174,36.297
3.98,19760.2,-2080.02,34538.7,129.959,-290.784,-338.019,3613.32,4966.06,12679.3,119.791,-289.695,38.0481,4247.89,25164.2,3154.03,16.7849,166.772,-215.83,-356.685,-19589.3,579.796,22.9896,5.47438,202.832,9223.29,-11731.7,-1044.11,21.1241,-12.9376,11.2023,16230.8,21931.4,-7238.6,-75.4754,215.251,-0.316031,15680.2,1147.46,3016.61,-86.1812,-6.89866,37.2355
3.981,24969.8,-1793.66,36050.3,92.2851,-256.691,-304.71,3649.47,5153.26,12588.5,122.401,-294.425,39.6835,3706.72,23241.0,4179.98,16.0158,165.671,-216.352,-333.764,-19943.8,410.24,23.1595,4.67062,203.629,9409.02,-11981.0,-937.308,20.5673,-15.0053,10.4713,17580.0,23194.5,-7540.44,-95.8221,239.685,-5.37911,15626.3,1117.95,3184.27,-88.0677,-6.50559,38.1739
3.982,30179.4,-1507.3,37561.9,54.6114,-222.599,-271.401,3685.61,5340.46,12497.7,125.01,-299.155,41.319,3165.55,21317.7,5205.93,15.2466,164.57,-216.874,-310.842,-20298.2,240.685,23.3293,3.86686,204.426,9594.75,-12230.2,-830.505,20.0104,-17.073,9.74035,18929.2,24457.7,-7842.28,-116.169,264.119,-10.4422,15572.5,1088.43,3351.92,-89.9542,-6.11252,39.1124
3.983,33153.6,-2285.74,36781.1,46.5509,-201.746,-237.44,3726.48,5482.23,12413.8,128.18,-303.76,43.3869,2899.24,19827.6,6166.37,14.6354,157.211,-213.088,-256.769,-20544.5,60.9776,23.1256,2.7762,205.49,9758.62,-12518.5,-702.974,20.4864,-18.1329,8.65538,19939.8,24410.9,-7039.46,-129.815,288.775,-14.8493,15559.3,1152.94,3422.31,-87.8382,-6.88424,40.0103
3.984,35489.3,-3368.41,35345.3,46.9513,-184.675,-203.292,3768.69,5611.02,12331.9,131.51,-308.33,45.5784,2711.46,18461.3,7108.09,14.0692,148.064,-208.072,-193.795,-20759.9,-121.63,22.8151,1.60355,206.631,9916.24,-12817.9,-569.521,21.2575,-18.9049,7.46926,20853.5,23989.8,-5921.02,-141.547,313.495,-19.069,15557.7,1244.32,3464.91,-84.5785,-7.98876,40.8965
3.985,37824.9,-4451.08,33909.6,47.3516,-167.604,-169.144,3810.91,5739.81,12249.9,134.84,-312.901,47.7699,2523.68,17095.0,8049.81,13.503,138.917,-203.056,-130.821,-20975.3,-304.238,22.5047,0.430911,207.773,10073.9,-13117.3,-436.068,22.0287,-19.6769,6.28314,21767.3,23568.7,-4802.58,-153.278,338.215,-23.2887,15556.0,1335.7,3507.52,-81.3188,-9.09328,41.7828
3.986,40160.6,-5533.75,32473.8,47.752,-150.532,-134.997,3853.13,5868.6,12168.0,138.17,-317.471,49.9614,2335.91,15728.7,8991.53,12.9368,129.77,-198.04,-67.8471,-21190.7,-486.846,22.1942,-0.741732,208.914,10231.5,-13416.7,-302.615,22.7998,-20.4489,5.09703,22681.1,23147.6,-3684.14,-165.01,362.935,-27.5084,15554.4,1427.07,3550.12,-78.0592,-10.1978,42.669
3.987,41151.3,-7458.76,30776.4,63.3634,-135.428,-110.65,3864.87,6020.29,12130.2,141.534,-322.175,52.2867,2149.95,14566.0,9474.24,12.7702,122.062,-192.763,54.1292,-21390.2,-624.578,21.7257,-2.03345,210.17,10388.7,-13681.3,-166.945,24.0839,-20.8467,3.79722,23367.8,22220.8,-2121.88,-168.446,379.384,-32.3335,15542.7,1526.52,3516.41,-74.6062,-11.4473,43.3101
3.988,39452.4,-11068.5,28555.8,109.397,-124.255,-105.908,3815.66,6217.76,12181.0,144.966,-327.147,54.8795,1967.62,13810.8,9038.93,13.4029,117.232,-186.965,294.11,-21557.9,-672.557,20.941,-3.56333,211.655,10545.0,-13876.3,-26.8403,26.3941,-20.4963,2.27004,23600.1,20282.7,328.021,-155.291,379.294,-38.3693,15510.6,1642.11,3330.09,-70.7667,-12.9869,43.4607
3.989,37753.5,-14678.2,26335.1,155.43,-113.083,-101.165,3766.45,6415.23,12231.8,148.398,-332.12,57.4723,1785.29,13055.5,8603.62,14.0355,112.401,-181.166,534.091,-21725.6,-720.537,20.1564,-5.0932,213.141,10701.3,-14071.3,113.265,28.7042,-20.1458,0.742862,23832.4,18344.5,2777.93,-142.135,379.203,-44.4052,15478.6,1757.7,3143.76,-66.9272,-14.5265,43.6113
3.99,36054.5,-18287.9,24114.4,201.463,-101.91,-96.4219,3717.25,6612.71,12282.6,151.829,-337.092,60.0652,1602.96,12300.2,8168.32,14.6681,107.57,-175.368,774.072,-21893.4,-768.516,19.3717,-6.62308,214.626,10857.6,-14266.3,253.369,31.0143,-19.7954,-0.784317,24064.8,16406.4,5227.83,-128.98,379.112,-50.441,15446.6,1873.29,2957.44,-63.0877,-16.0661,43.7618
3.991,34355.6,-21897.6,21893.7,247.497,-90.7376,-91.679,3668.04,6810.18,12333.3,155.261,-342.064,62.658,1420.63,11544.9,7733.01,15.3008,102.74,-169.57,1014.05,-22061.1,-816.496,18.5871,-8.15296,216.112,11013.9,-14461.4,393.474,33.3245,-19.4449,-2.3115,24297.1,14468.3,7677.74,-115.824,379.021,-56.4769,15414.5,1988.87,2771.11,-59.2481,-17.6056,43.9124
3.992,30889.9,-22576.5,19310.5,278.479,-78.174,-92.0382,3556.53,6986.35,12457.0,158.113,-347.642,65.6645,1375.98,11013.5,6659.24,17.5999,105.726,-166.502,1390.69,-22144.4,-788.944,18.2587,-10.1083,217.624,11189.7,-14503.9,516.595,35.9049,-18.6282,-3.92831,23090.7,12588.9,9973.74,-94.1826,354.501,-62.7834,15254.0,1962.63,2611.68,-55.9366,-18.6871,43.0609
3.993,27203.5,-22889.0,16681.9,307.58,-65.4364,-93.0351,3437.23,7159.86,12589.9,160.893,-353.295,68.7227,1348.54,10510.0,5505.66,20.1074,109.69,-163.775,1784.41,-22217.2,-751.951,17.9873,-12.1169,219.14,11367.9,-14527.4,637.593,38.5191,-17.7531,-5.55634,21704.5,10716.8,12250.5,-71.4799,326.927,-69.1238,15077.3,1918.66,2455.6,-52.6911,-19.7113,42.084
3.994,23517.0,-23201.6,14053.3,336.681,-52.6989,-94.032,3317.93,7333.37,12722.7,163.672,-358.948,71.7809,1321.09,10006.5,4352.08,22.6148,113.654,-161.048,2178.13,-22290.0,-714.958,17.716,-14.1254,220.655,11546.1,-14550.8,758.591,41.1333,-16.878,-7.18436,20318.2,8844.7,14527.3,-48.7773,299.353,-75.4641,14900.7,1874.68,2299.53,-49.4457,-20.7356,41.1072
3.995,19830.6,-23514.2,11424.8,365.782,-39.9613,-95.0289,3198.64,7506.88,12855.6,166.451,-364.601,74.8391,1293.65,9503.02,3198.5,25.1223,117.617,-158.321,2571.84,-22362.8,-677.965,17.4446,-16.134,222.17,11724.2,-14574.3,879.589,43.7475,-16.003,-8.81238,18932.0,6972.62,16804.0,-26.0746,271.778,-81.8045,14724.1,1830.71,2143.45,-46.2002,-21.7598,40.1304
3.996,16263.9,-21197.6,9648.38,371.335,-27.8743,-85.3603,3064.22,7660.07,12995.2,168.805,-370.701,78.1401,1166.93,9100.93,2088.69,27.8644,123.508,-157.453,2907.12,-22434.1,-634.21,17.1445,-18.4839,223.606,11897.9,-14548.1,959.537,46.1264,-15.1721,-10.5207,17122.8,5829.67,17396.4,-9.49297,248.085,-86.0192,14511.3,1714.77,2065.79,-43.1775,-22.6235,38.78
3.997,12846.8,-15594.6,8937.24,347.453,-16.6004,-62.3598,2910.9,7787.84,13143.4,170.625,-377.361,81.7445,916.122,8825.59,1033.58,30.8998,131.807,-158.909,3169.34,-22503.5,-582.003,16.8082,-21.2606,224.941,12066.0,-14459.9,988.173,48.211,-14.3964,-12.3292,14785.1,5598.14,15883.3,-0.562598,229.243,-87.5769,14253.1,1508.86,2086.14,-40.4334,-23.2867,36.9627
3.998,9429.78,-9991.6,8226.11,323.571,-5.32645,-39.3593,2757.58,7915.61,13291.6,172.446,-384.02,85.3489,665.311,8550.25,-21.537,33.9352,140.106,-160.365,3431.56,-22572.9,-529.796,16.472,-24.0373,226.276,12234.1,-14371.7,1016.81,50.2956,-13.6207,-14.1378,12447.3,5366.62,14370.1,8.36777,210.402,-89.1345,13995.0,1302.96,2106.5,-37.6892,-23.9499,35.1455
3.999,6012.75,-4388.6,7514.97,299.689,5.94747,-16.3587,2604.26,8043.38,13439.7,174.266,-390.679,88.9533,414.501,8274.9,-1076.65,36.9706,148.405,-161.821,3693.78,-22642.3,-477.589,16.1358,-26.814,227.611,12402.2,-14283.4,1045.45,52.3802,-12.8451,-15.9464,10109.6,5135.09,12857.0,17.2981,191.56,-90.6922,13736.9,1097.06,2126.85,-34.9451,-24.6131,33.3282
4.0,2595.71,1214.4,6803.84,275.806,17.2214,6.6418,2450.95,8171.15,13587.9,176.086,-397.339,92.5577,163.691,7999.56,-2131.76,40.006,156.704,-163.277,3956.0,-22711.8,-425.382,15.7996,-29.5907,228.946,12570.3,-14195.2,1074.08,54.4648,-12.0694,-17.755,7771.82,4903.56,11343.8,26.2285,172.718,-92.2498,13478.8,891.154,2147.2,-32.201,-25.2763,31.5109
4.001,2658.41,5379.09,8234.07,239.395,27.6053,13.7787,2337.24,8304.01,13589.8,178.211,-405.397,96.2223,-1719.25,8013.1,-3333.61,44.4743,163.745,-167.636,4060.82,-22863.0,-357.311,15.4821,-32.319,229.971,12808.8,-14068.0,1018.63,55.8439,-11.1127,-19.6302,5191.08,5437.95,8250.47,31.3943,180.731,-89.0393,13215.1,610.097,2134.84,-29.8085,-25.1829,28.9002
4.002,2721.11,9543.78,9664.3,202.983,37.9893,20.9156,2223.54,8436.88,13591.7,180.335,-413.455,99.8869,-3602.2,8026.64,-4535.47,48.9427,170.785,-171.995,4165.64,-23014.3,-289.24,15.1647,-35.0474,230.995,13047.2,-13940.9,963.17,57.223,-10.1559,-21.5053,2610.35,5972.34,5157.14,36.5601,188.743,-85.8287,12951.5,329.04,2122.48,-27.4161,-25.0895,26.2894
4.003,2783.82,13708.5,11094.5,166.571,48.3732,28.0525,2109.84,8569.75,13593.6,182.459,-421.513,103.551,-5485.14,8040.18,-5737.32,53.4111,177.826,-176.354,4270.46,-23165.5,-221.169,14.8472,-37.7757,232.019,13285.7,-13813.7,907.714,58.6021,-9.19915,-23.3804,29.6155,6506.73,2063.81,41.7259,196.756,-82.6181,12687.8,47.9837,2110.11,-25.0237,-24.9961,23.6787
4.004,2846.52,17873.2,12524.8,130.159,58.7572,35.1894,1996.14,8702.62,13595.4,184.583,-429.571,107.216,-7368.08,8053.72,-6939.17,57.8794,184.866,-180.713,4375.28,-23316.8,-153.099,14.5298,-40.504,233.044,13524.1,-13686.5,852.258,59.9812,-8.2424,-25.2556,-2551.12,7041.12,-1029.53,46.8918,204.769,-79.4076,12424.2,-233.073,2097.75,-22.6313,-24.9026,21.0679
4.005,4616.86,19536.6,13192.4,104.939,66.4245,20.7721,1960.5,8871.62,13634.7,186.852,-438.1,110.808,-9749.33,8230.17,-7508.9,60.3869,186.335,-185.026,4455.3,-23539.4,-92.2386,13.9987,-43.0577,233.966,13769.0,-13553.0,729.781,60.4296,-6.29374,-27.2676,-4794.56,7466.64,-2819.37,53.3471,214.126,-75.8046,12187.4,-486.727,2015.23,-19.8048,-24.4851,18.3526
4.006,7753.31,19199.0,13250.0,88.6744,71.9184,-10.8884,1987.32,9069.52,13703.8,189.235,-447.006,114.342,-12529.2,8536.95,-7572.93,61.3255,183.345,-189.303,4515.49,-23819.2,-37.1475,13.2967,-45.4717,234.805,14019.0,-13414.6,553.686,60.1336,-3.55154,-29.3891,-6768.17,7805.08,-3566.42,60.834,224.559,-71.8875,11972.2,-718.458,1876.59,-16.631,-23.8083,15.5535
4.007,10889.8,18861.5,13307.6,72.4093,77.4124,-42.549,2014.13,9267.43,13773.0,191.619,-455.913,117.877,-15309.1,8843.73,-7636.96,62.2642,180.355,-193.58,4575.68,-24098.9,17.9436,12.5946,-47.8857,235.645,14269.1,-13276.2,377.592,59.8375,-0.809337,-31.5105,-8741.79,8143.52,-4313.48,68.3209,234.992,-67.9705,11756.9,-950.19,1737.95,-13.4572,-23.1314,12.7545
4.008,14026.2,18523.9,13365.3,56.1441,82.9064,-74.2096,2040.94,9465.34,13842.1,194.003,-464.819,121.411,-18089.0,9150.51,-7700.99,63.2028,177.366,-197.856,4635.86,-24378.7,73.0347,11.8926,-50.2997,236.485,14519.2,-13137.7,201.497,59.5415,1.93286,-33.632,-10715.4,8481.96,-5060.53,75.8078,245.425,-64.0535,11541.6,-1181.92,1599.31,-10.2835,-22.4546,9.95552
4.009,17154.1,18124.4,13399.3,41.6518,87.4517,-103.633,2068.5,9687.33,13928.8,196.271,-473.875,125.127,-20671.6,9488.81,-7586.45,63.4731,172.861,-201.969,4724.73,-24663.9,116.724,11.0891,-52.8793,237.291,14761.5,-13010.3,16.5472,59.0124,5.08702,-35.8309,-12590.6,8815.08,-5648.94,83.0317,254.432,-60.0078,11336.3,-1408.29,1462.36,-6.90531,-21.7451,7.187
4.01,20213.0,17229.3,13244.9,41.3419,84.4082,-115.164,2102.0,10102.0,14156.1,197.621,-484.128,130.299,-21676.4,10079.2,-6043.43,58.3966,156.23,-204.771,5043.07,-24992.8,69.2016,9.47393,-56.7838,237.834,14942.1,-12971.5,-239.251,56.6191,11.5368,-38.6494,-13679.0,9105.69,-4968.28,88.1511,252.031,-54.9335,11210.2,-1591.76,1338.95,-1.89206,-20.7746,4.6624
4.011,23271.9,16334.1,13090.5,41.032,81.3646,-126.695,2135.51,10516.7,14383.4,198.97,-494.381,135.472,-22681.1,10669.6,-4500.4,53.3201,139.599,-207.572,5361.41,-25321.8,21.679,7.85872,-60.6883,238.378,15122.8,-12932.6,-495.048,54.2259,17.9866,-41.4678,-14767.3,9396.3,-4287.61,93.2706,249.631,-49.8592,11084.1,-1775.22,1215.54,3.1212,-19.804,2.13781
4.012,26330.8,15439.0,12936.1,40.7222,78.3211,-138.225,2169.01,10931.3,14610.6,200.32,-504.634,140.644,-23685.9,11260.0,-2957.38,48.2436,122.969,-210.374,5679.75,-25650.7,-25.8436,6.24351,-64.5928,238.921,15303.4,-12893.8,-750.846,51.8326,24.4364,-44.2862,-15855.7,9686.91,-3606.94,98.39,247.23,-44.7848,10958.0,-1958.69,1092.13,8.13445,-18.8334,-0.386791
4.013,29389.7,14543.9,12781.7,40.4123,75.2775,-149.756,2202.51,11346.0,14837.9,201.669,-514.887,145.816,-24690.6,11850.4,-1414.35,43.1671,106.338,-213.175,5998.09,-25979.7,-73.3662,4.62831,-68.4973,239.464,15484.1,-12854.9,-1006.64,49.4394,30.8862,-47.1046,-16944.0,9977.52,-2926.27,103.509,244.829,-39.7105,10832.0,-2142.16,968.713,13.1477,-17.8628,-2.91139
4.014,30753.1,12330.6,12146.4,42.5113,70.1604,-139.421,2169.72,11656.2,14973.6,202.537,-525.671,151.868,-24184.3,12647.7,-97.8158,38.9684,85.7269,-213.413,6511.3,-26255.0,-138.923,3.52521,-72.0806,239.895,15686.9,-12916.3,-1066.4,47.2431,38.8269,-50.2784,-17359.0,10255.2,-2400.19,107.99,239.9,-34.5733,10797.7,-2293.92,951.182,18.0337,-17.2746,-5.05414
4.015,31268.6,9458.31,11270.7,45.8149,64.0066,-118.154,2103.78,11914.1,15063.6,203.164,-536.72,158.359,-22922.5,13548.4,1105.48,35.2086,63.1253,-212.37,7121.96,-26503.6,-213.496,2.67817,-75.5033,240.271,15900.7,-13027.9,-1028.13,45.1453,47.513,-53.6299,-17437.4,10526.5,-1951.41,112.152,233.706,-29.4048,10809.2,-2429.84,986.592,22.856,-16.8776,-7.00597
4.016,31784.2,6585.97,10395.0,49.1184,57.8527,-96.8872,2037.85,12172.1,15153.5,203.791,-547.769,164.851,-21660.7,14449.1,2308.78,31.4488,40.5238,-211.326,7732.62,-26752.2,-288.07,1.83112,-78.9261,240.647,16114.5,-13139.4,-989.856,43.0476,56.1991,-56.9814,-17515.7,10797.7,-1502.63,116.314,227.512,-24.2362,10820.8,-2565.76,1022.0,27.6783,-16.4805,-8.9578
4.017,32299.7,3713.64,9519.27,52.422,51.6988,-75.6201,1971.91,12430.0,15243.5,204.419,-558.818,171.343,-20398.9,15349.8,3512.07,27.689,17.9222,-210.282,8343.27,-27000.8,-362.643,0.984083,-82.3488,241.022,16328.4,-13251.0,-951.586,40.9498,64.8852,-60.3328,-17594.0,11069.0,-1053.84,120.476,221.319,-19.0676,10832.4,-2701.67,1057.41,32.5006,-16.0835,-10.9096
4.018,32209.9,566.9,8600.93,54.7412,46.0866,-55.7253,1864.69,12618.4,15296.7,205.113,-570.002,177.741,-19104.5,16163.2,4425.84,24.3495,-2.478,-208.831,8963.52,-27206.9,-472.117,0.372132,-85.157,241.342,16574.1,-13350.8,-853.732,39.5364,73.4228,-63.499,-17499.6,11328.3,-757.582,123.881,216.19,-14.4373,10866.6,-2821.45,1125.95,36.8057,-15.9079,-12.6581
4.019,30001.6,-3540.26,7533.43,53.6155,42.3703,-40.6338,1613.0,12563.3,15221.6,206.043,-581.654,183.812,-17695.7,16670.7,4326.27,22.4809,-15.1732,-205.955,9617.31,-27264.3,-703.743,0.583002,-85.8143,241.463,16931.5,-13409.7,-547.339,40.5183,81.4404,-66.0164,-16800.6,11545.7,-995.164,124.641,214.792,-11.6908,10980.2,-2884.76,1310.46,39.3005,-16.5074,-13.695
4.02,27793.3,-7647.43,6465.94,52.4897,38.6539,-25.5422,1361.31,12508.1,15146.4,206.972,-593.307,189.883,-16286.9,17178.3,4226.7,20.6123,-27.8685,-203.078,10271.1,-27321.8,-935.369,0.793872,-86.4716,241.585,17288.8,-13468.6,-240.946,41.5002,89.458,-68.5338,-16101.6,11763.2,-1232.75,125.402,213.393,-8.94423,11093.7,-2948.06,1494.97,41.7953,-17.1069,-14.7318
4.021,25585.0,-11754.6,5398.44,51.364,34.9375,-10.4506,1109.61,12453.0,15071.3,207.901,-604.959,195.954,-14878.2,17685.8,4127.13,18.7438,-40.5638,-200.202,10924.9,-27379.2,-1166.99,1.00474,-87.129,241.707,17646.2,-13527.5,65.4474,42.4821,97.4756,-71.0512,-15402.6,11980.6,-1470.33,126.162,211.995,-6.1977,11207.2,-3011.37,1679.48,44.2901,-17.7064,-15.7687
4.022,23376.7,-15861.8,4330.95,50.2382,31.2211,4.64093,857.919,12397.9,14996.1,208.831,-616.612,202.025,-13469.4,18193.4,4027.56,16.8752,-53.259,-197.326,11578.7,-27436.6,-1398.62,1.21561,-87.7863,241.829,18003.5,-13586.4,371.841,43.4641,105.493,-73.5686,-14703.6,12198.0,-1707.91,126.922,210.596,-3.45117,11320.7,-3074.67,1863.99,46.7849,-18.3059,-16.8056
4.023,20708.2,-17194.2,4256.98,46.1072,29.7386,8.58517,552.37,12112.0,14477.1,208.289,-630.779,208.199,-12027.8,18467.8,3146.3,16.3876,-52.6171,-193.823,11987.7,-27331.8,-1717.32,1.80266,-87.2364,242.045,18324.7,-13635.2,1411.51,48.8947,106.667,-74.8019,-14163.8,12114.1,-2197.41,124.76,211.624,-3.26653,11476.7,-3132.97,2043.05,48.1607,-19.2386,-16.8
4.024,17908.2,-17733.8,4466.88,41.1175,28.8944,9.34447,231.433,11760.3,13831.3,207.327,-645.664,214.401,-10576.7,18675.7,2041.71,16.2945,-48.1646,-190.14,12326.8,-27180.6,-2060.91,2.49719,-86.3416,242.288,18635.6,-13681.0,2660.68,55.5963,105.884,-75.6682,-13669.5,11944.1,-2758.89,121.764,213.344,-3.81385,11644.9,-3189.84,2220.56,49.2167,-20.2664,-16.4966
4.025,15108.2,-18273.4,4676.78,36.1277,28.0503,10.1038,-89.5029,11408.5,13185.5,206.365,-660.55,220.603,-9125.72,18883.6,937.112,16.2013,-43.7122,-186.457,12665.9,-27029.4,-2404.49,3.19172,-85.4467,242.531,18946.5,-13726.9,3909.86,62.298,105.102,-76.5345,-13175.1,11774.1,-3320.36,118.767,215.064,-4.36118,11813.1,-3246.71,2398.07,50.2727,-21.2942,-16.1933
4.026,12308.2,-18813.1,4886.68,31.138,27.2061,10.8631,-410.439,11056.8,12539.7,205.403,-675.435,226.806,-7674.7,19091.4,-167.484,16.1082,-39.2597,-182.775,13005.0,-26878.2,-2748.07,3.88625,-84.5519,242.775,19257.4,-13772.7,5159.03,68.9997,104.32,-77.4008,-12680.8,11604.1,-3881.84,115.771,216.784,-4.9085,11981.3,-3303.58,2575.57,51.3287,-22.322,-15.8899
4.027,9788.24,-18124.7,5208.6,26.9618,26.8545,10.6348,-608.941,10663.8,11861.6,204.282,-690.289,233.249,-6189.84,19127.2,-1080.08,16.91,-32.9876,-178.863,13188.0,-26686.4,-2966.24,4.70651,-84.4572,243.041,19297.7,-13811.6,6337.87,76.846,100.002,-77.8407,-12371.6,11456.1,-4382.28,112.926,217.844,-5.91256,12156.4,-3390.04,2685.23,52.2578,-23.0807,-15.165
4.028,7828.26,-14980.2,5754.58,24.4126,27.488,8.43145,-562.574,10188.5,11119.0,202.842,-705.08,240.173,-4637.31,18818.8,-1608.68,19.5015,-23.0764,-174.495,13058.7,-26413.2,-2933.58,5.77826,-85.9629,243.352,18796.9,-13836.5,7376.03,86.9819,88.6128,-77.4274,-12432.4,11352.4,-4760.66,110.385,217.582,-7.83009,12345.5,-3535.69,2659.19,52.9331,-23.3013,-13.597
4.029,5868.28,-11835.7,6300.55,21.8633,28.1215,6.22809,-516.206,9713.15,10376.4,201.403,-719.872,247.098,-3084.77,18510.4,-2137.29,22.093,-13.1651,-170.127,12929.4,-26140.0,-2900.91,6.85,-87.4686,243.664,18296.0,-13861.4,8414.19,97.1177,77.2234,-77.0142,-12493.3,11248.6,-5139.05,107.844,217.319,-9.74762,12534.6,-3681.34,2633.15,53.6083,-23.5219,-12.0291
4.03,3908.31,-8691.26,6846.53,19.3141,28.755,4.02474,-469.839,9237.81,9633.86,199.963,-734.663,254.023,-1532.23,18202.0,-2665.89,24.6845,-3.25386,-165.758,12800.1,-25866.8,-2868.25,7.92175,-88.9742,243.975,17795.2,-13886.3,9452.36,107.253,65.834,-76.6009,-12554.1,11144.8,-5517.43,105.303,217.057,-11.6651,12723.7,-3826.99,2607.11,54.2836,-23.7426,-10.4611
4.031,1948.33,-5546.8,7392.51,16.7649,29.3885,1.82138,-423.472,8762.48,8891.28,198.523,-749.454,260.947,20.3024,17893.6,-3194.49,27.276,6.65739,-161.39,12670.8,-25593.6,-2835.59,8.99349,-90.4799,244.287,17294.3,-13911.2,10490.5,117.389,54.4446,-76.1877,-12615.0,11041.0,-5895.81,102.762,216.795,-13.5827,12912.8,-3972.64,2581.07,54.9588,-23.9632,-8.89318
4.032,1244.34,-2592.54,8136.38,16.8618,29.84,-0.627359,201.594,8223.37,8618.34,201.794,-761.206,265.076,709.135,17142.6,-3159.37,28.5977,10.9338,-157.596,12439.3,-25389.0,-2347.6,9.93833,-94.0994,244.223,16052.5,-13662.0,9860.06,123.724,44.9356,-74.401,-13076.9,11080.8,-5956.25,102.069,211.692,-14.7662,13058.5,-4134.82,2462.72,55.2236,-23.2093,-6.91199
4.033,697.341,337.947,8905.0,17.2894,30.2687,-3.10677,898.997,7676.29,8404.1,205.654,-772.579,268.857,1290.0,16336.2,-3053.79,29.7608,14.5057,-153.875,12195.2,-25192.9,-1802.68,10.8673,-97.9831,244.111,14718.0,-13378.5,9021.02,129.583,35.6615,-72.4426,-13588.9,11138.6,-5976.94,101.608,205.983,-15.8579,13198.7,-4299.06,2332.82,55.437,-22.3337,-4.87914
4.034,150.346,3268.43,9673.61,17.7171,30.6974,-5.58618,1596.4,7129.21,8189.87,209.514,-783.951,272.637,1870.87,15529.9,-2948.2,30.9239,18.0777,-150.153,11951.0,-24996.8,-1257.77,11.7963,-101.867,244.0,13383.5,-13095.0,8181.98,135.442,26.3875,-70.4843,-14101.0,11196.3,-5997.64,101.146,200.275,-16.9496,13339.0,-4463.3,2202.92,55.6504,-21.458,-2.84629
4.035,-396.648,6198.92,10442.2,18.1447,31.1261,-8.06559,2293.8,6582.13,7975.63,213.374,-795.323,276.417,2451.74,14723.5,-2842.62,32.087,21.6497,-146.432,11706.8,-24800.8,-712.861,12.7252,-105.75,243.888,12049.0,-12811.6,7342.94,141.301,17.1135,-68.5259,-14613.0,11254.0,-6018.33,100.684,194.566,-18.0414,13479.3,-4627.55,2073.03,55.8639,-20.5823,-0.813446
4.036,-402.204,8044.36,10922.4,18.5302,31.5178,-10.2672,2987.08,5974.59,8001.91,217.334,-804.49,277.727,2505.06,13968.2,-2647.37,32.1394,22.4299,-142.899,11622.2,-24607.9,-201.32,13.3399,-108.829,243.559,10772.1,-12477.3,6179.47,143.289,11.1369,-66.4987,-15059.3,11265.1,-5976.18,99.3701,186.292,-19.6798,13580.1,-4763.69,1998.41,55.6545,-19.5557,1.10203
4.037,269.04,8533.5,11042.1,18.8631,31.8633,-12.1215,3675.19,5291.47,8328.83,221.42,-810.901,275.95,1898.93,13276.8,-2340.05,30.8034,19.7201,-139.601,11737.0,-24419.1,268.509,13.5617,-110.903,242.957,9566.99,-12079.5,4610.46,140.44,9.28206,-64.3854,-15423.2,11218.0,-5855.46,96.99,174.809,-22.0015,13631.6,-4864.71,1992.91,54.9166,-18.3403,2.87079
4.038,940.284,9022.64,11161.7,19.1959,32.2088,-13.9759,4363.31,4608.34,8655.74,225.506,-817.312,274.173,1292.8,12585.4,-2032.73,29.4674,17.0104,-136.303,11851.8,-24230.2,738.337,13.7835,-112.976,242.355,8361.92,-11681.7,3041.44,137.59,7.42725,-62.2722,-15787.2,11170.9,-5734.75,94.6098,163.326,-24.3231,13683.0,-4965.73,1987.4,54.1787,-17.1249,4.63955
4.039,1611.53,9511.77,11281.4,19.5288,32.5543,-15.8302,5051.42,3925.22,8982.66,229.592,-823.723,272.396,686.674,11894.0,-1725.41,28.1315,14.3006,-133.005,11966.5,-24041.4,1208.17,14.0054,-115.049,241.752,7156.86,-11284.0,1472.43,134.74,5.57244,-60.1589,-16151.2,11123.8,-5614.03,92.2296,151.843,-26.6448,13734.5,-5066.75,1981.89,53.4408,-15.9096,6.40831
4.04,2282.77,10000.9,11401.0,19.8616,32.8998,-17.6846,5739.54,3242.09,9309.57,233.678,-830.133,270.619,80.5463,11202.6,-1418.09,26.7955,11.5909,-129.707,12081.3,-23852.5,1677.99,14.2272,-117.122,241.15,5951.79,-10886.2,-96.5791,131.89,3.71763,-58.0457,-16515.1,11076.6,-5493.31,89.8495,140.36,-28.9665,13786.0,-5167.77,1976.39,52.7029,-14.6942,8.17707
4.041,3078.22,8187.96,10904.8,19.9928,32.6493,-15.4798,6037.49,2189.24,9915.19,239.469,-828.791,262.88,-888.06,10828.6,-1049.02,24.8918,6.5818,-126.906,12340.6,-23293.9,1959.41,15.944,-119.517,240.11,5273.49,-10678.1,-1076.6,122.729,5.67705,-58.0745,-16650.1,11082.6,-5198.52,85.7593,124.248,-33.1814,13760.8,-5180.34,2082.41,51.2262,-13.7512,9.61022
4.042,3873.68,6375.02,10408.5,20.1241,32.3987,-13.2751,6335.45,1136.39,10520.8,245.261,-827.448,255.141,-1856.67,10454.7,-679.95,22.988,1.57273,-124.104,12599.9,-22735.2,2240.82,17.6609,-121.912,239.069,4595.19,-10469.9,-2056.62,113.567,7.63646,-58.1033,-16785.0,11088.6,-4903.73,81.6692,108.135,-37.3963,13735.6,-5192.9,2188.43,49.7495,-12.8083,11.0434
4.043,4669.13,4562.07,9912.27,20.2553,32.1482,-11.0703,6633.41,83.5373,11126.4,251.053,-826.105,247.402,-2825.27,10080.8,-310.877,21.0842,-3.43633,-121.302,12859.2,-22176.5,2522.23,19.3777,-124.307,238.029,3916.89,-10261.8,-3036.64,104.405,9.59587,-58.1321,-16919.9,11094.5,-4608.93,77.579,92.0223,-41.6111,13710.4,-5205.47,2294.45,48.2728,-11.8653,12.4765
4.044,5464.58,2749.12,9416.0,20.3866,31.8976,-8.86557,6931.36,-969.314,11732.0,256.845,-824.763,239.662,-3793.88,9706.88,58.1954,19.1804,-8.44539,-118.501,13118.6,-21617.8,2803.64,21.0946,-126.702,236.989,3238.59,-10053.6,-4016.66,95.2431,11.5553,-58.1609,-17054.8,11100.5,-4314.14,73.4889,75.9095,-45.826,13685.2,-5218.04,2400.47,46.7961,-10.9223,13.9097
4.045,6073.07,730.222,8957.63,19.7815,31.3719,-7.23146,7174.53,-1572.45,12489.4,269.469,-817.483,233.108,-4515.93,9383.19,262.247,18.2143,-13.3697,-116.264,13346.0,-20976.7,2914.86,23.7778,-130.628,235.669,2720.04,-9975.57,-4636.1,85.9234,14.423,-59.3232,-17103.7,11054.4,-4051.15,68.5514,58.9254,-49.9426,13642.7,-5173.17,2533.55,45.4304,-10.1245,15.3015
4.046,6531.99,-1453.44,8529.56,18.5872,30.6259,-6.05385,7373.85,-1815.8,13368.1,287.559,-805.455,227.5,-5040.74,9099.7,334.281,17.9984,-18.2263,-114.479,13548.0,-20269.7,2889.94,27.2341,-135.779,234.126,2329.28,-10001.6,-4967.07,76.4772,18.0174,-61.3922,-17083.9,10966.6,-3813.62,62.936,41.244,-53.9806,13586.2,-5082.36,2688.26,44.1534,-9.44267,16.6604
4.047,6990.91,-3637.1,8101.49,17.393,29.88,-4.87624,7573.18,-2059.16,14246.8,305.648,-793.426,221.893,-5565.54,8816.2,406.316,17.7824,-23.0828,-112.694,13749.9,-19562.7,2865.01,30.6905,-140.93,232.582,1938.53,-10027.6,-5298.04,67.0311,21.6118,-63.4612,-17064.0,10878.9,-3576.08,57.3206,23.5626,-58.0186,13529.7,-4991.55,2842.98,42.8764,-8.76088,18.0192
4.048,7449.83,-5820.77,7673.41,16.1988,29.134,-3.69864,7772.51,-2302.52,15125.5,323.738,-781.397,216.286,-6090.35,8532.7,478.351,17.5665,-27.9394,-110.909,13951.9,-18855.7,2840.08,34.1468,-146.081,231.039,1547.77,-10053.6,-5629.01,57.585,25.2062,-65.5302,-17044.1,10791.1,-3338.54,51.7052,5.88127,-62.0566,13473.2,-4900.74,2997.69,41.5994,-8.07909,19.378
4.049,7875.79,-7804.61,7274.73,14.9345,28.4382,-2.76799,8007.24,-2280.56,15915.7,342.676,-769.362,211.839,-6542.3,8258.17,524.487,17.4099,-32.7378,-109.219,14140.2,-18156.2,2723.37,37.6355,-150.715,229.539,1161.75,-10091.4,-5911.28,48.5363,28.7316,-67.6659,-17004.0,10683.6,-3125.28,46.0733,-11.5604,-66.1032,13413.8,-4805.0,3151.58,40.4869,-7.41626,20.7581
4.05,8038.13,-8189.95,7111.08,13.1094,28.1427,-3.81303,8525.17,-136.121,15998.0,368.395,-757.272,216.677,-6411.45,8055.33,363.434,17.7275,-37.0706,-108.292,14218.6,-17516.4,1872.36,41.3832,-151.22,228.39,813.562,-10223.0,-5804.01,42.6675,31.7046,-70.335,-16801.9,10417.7,-3106.17,40.3095,-27.0847,-70.2184,13331.0,-4669.89,3298.8,40.6895,-6.90511,22.3081
4.051,8200.46,-8575.28,6947.44,11.2844,27.8473,-4.85808,9043.09,2008.32,16080.4,394.115,-745.183,221.515,-6280.6,7852.5,202.38,18.0452,-41.4033,-107.365,14297.1,-16876.7,1021.35,45.1309,-151.724,227.241,465.376,-10354.6,-5696.73,36.7988,34.6776,-73.0042,-16599.8,10151.9,-3087.07,34.5458,-42.609,-74.3336,13248.2,-4534.78,3446.03,40.8921,-6.39396,23.858
4.052,8362.8,-8960.61,6783.8,9.45938,27.5518,-5.90312,9561.01,4152.76,16162.8,419.834,-733.094,226.353,-6149.75,7649.66,41.3271,18.3628,-45.7361,-106.437,14375.6,-16236.9,170.341,48.8786,-152.229,226.091,117.191,-10486.2,-5589.45,30.93,37.6506,-75.6733,-16397.7,9886.09,-3067.96,28.782,-58.1333,-78.4488,13165.3,-4399.66,3593.25,41.0947,-5.88281,25.408
4.053,8525.13,-9345.95,6620.17,7.63436,27.2564,-6.94816,10078.9,6297.2,16245.2,445.554,-721.005,231.191,-6018.9,7446.83,-119.726,18.6805,-50.0689,-105.51,14454.1,-15597.1,-680.668,52.6263,-152.733,224.942,-230.995,-10617.8,-5482.17,25.0612,40.6236,-78.3425,-16195.5,9620.26,-3048.86,23.0182,-73.6576,-82.564,13082.5,-4264.55,3740.48,41.2972,-5.37166,26.9579
4.054,8418.41,-8770.89,6741.22,6.59664,26.959,-7.33178,10886.8,9129.58,15583.0,461.76,-708.476,240.221,-5672.89,7360.33,-231.603,18.3661,-54.1979,-104.677,14413.3,-15151.8,-1756.07,55.7051,-147.345,223.82,-595.964,-10800.4,-5183.02,21.8622,41.477,-81.0523,-15928.4,9385.26,-3184.15,18.445,-86.1106,-86.5844,12962.7,-4117.09,3810.0,41.466,-4.66189,28.8322
4.055,8177.17,-7715.64,7004.62,5.95257,26.6606,-7.3847,11839.7,12305.9,14548.6,473.21,-695.727,251.348,-5219.29,7332.0,-318.891,17.7358,-58.2249,-103.891,14313.0,-14803.6,-2943.68,58.4496,-139.011,222.711,-969.324,-11008.5,-4787.94,19.9981,41.2705,-83.7824,-15628.7,9165.68,-3396.64,14.4672,-97.0278,-90.5572,12824.5,-3963.46,3840.68,41.6178,-3.85281,30.8685
4.056,7935.92,-6660.38,7268.02,5.3085,26.3621,-7.43761,12792.6,15482.3,13514.1,484.66,-682.978,262.474,-4765.69,7303.67,-406.179,17.1054,-62.252,-103.104,14212.6,-14455.4,-4131.29,61.1941,-130.677,221.602,-1342.69,-11216.5,-4392.85,18.134,41.0641,-86.5126,-15329.1,8946.1,-3609.12,10.4893,-107.945,-94.5301,12686.2,-3809.82,3871.35,41.7696,-3.04374,32.9049
4.057,7694.68,-5605.13,7531.42,4.66444,26.0637,-7.49052,13745.4,18658.6,12479.7,496.11,-670.229,273.6,-4312.1,7275.33,-493.467,16.4751,-66.2791,-102.318,14112.2,-14107.3,-5318.89,63.9386,-122.344,220.494,-1716.05,-11424.6,-3997.77,16.27,40.8576,-89.2427,-15029.4,8726.51,-3821.61,6.51146,-118.862,-98.5029,12548.0,-3656.19,3902.03,41.9214,-2.23466,34.9413
4.058,7379.19,-4558.14,7810.9,4.04653,25.7559,-7.41772,14834.7,21977.8,11776.5,501.78,-658.194,284.421,-3832.73,7289.4,-566.439,15.6355,-70.1582,-101.549,13965.5,-13861.8,-6449.88,66.0396,-113.079,219.174,-2092.2,-11644.4,-3585.21,15.0758,39.8127,-92.0881,-14728.9,8571.25,-4016.16,3.26243,-128.592,-102.179,12398.7,-3493.68,3907.27,41.7179,-1.25608,36.9362
4.059,6803.86,-3540.04,8146.71,3.5202,25.415,-6.90492,16401.6,25797.3,12232.5,487.224,-648.659,294.173,-3263.15,7451.86,-589.301,14.0636,-73.5194,-100.837,13656.3,-13975.6,-7382.67,65.8889,-100.555,217.115,-2478.12,-11905.3,-3111.51,16.2265,35.833,-95.3371,-14425.5,8641.08,-4147.92,2.56434,-134.165,-104.818,12210.8,-3300.13,3823.49,40.2706,0.315783,38.7861
4.06,6228.52,-2521.94,8482.51,2.99386,25.0741,-6.39212,17968.5,29616.7,12688.5,472.667,-639.124,303.924,-2693.58,7614.32,-612.164,12.4916,-76.8806,-100.125,13347.1,-14089.5,-8315.46,65.7381,-88.0313,215.056,-2864.05,-12166.1,-2637.81,17.3772,31.8534,-98.586,-14122.2,8710.91,-4279.67,1.86624,-139.737,-107.456,12023.0,-3106.58,3739.72,38.8233,1.88764,40.636
4.061,5653.18,-1503.85,8818.32,2.46753,24.7332,-5.87932,19535.4,33436.1,13144.6,458.11,-629.588,313.676,-2124.01,7776.78,-635.026,10.9197,-80.2419,-99.4133,13037.9,-14203.4,-9248.25,65.5873,-75.5075,212.997,-3249.98,-12427.0,-2164.11,18.5279,27.8737,-101.835,-13818.8,8780.74,-4411.43,1.16815,-145.31,-110.095,11835.1,-2913.03,3655.94,37.3761,3.4595,42.4859
4.062,5077.85,-485.752,9154.12,1.94119,24.3922,-5.36651,21102.3,37255.6,13600.6,443.554,-620.053,323.428,-1554.44,7939.24,-657.889,9.3478,-83.6031,-98.7015,12728.7,-14317.2,-10181.0,65.4365,-62.9838,210.938,-3635.9,-12687.9,-1690.41,19.6787,23.894,-105.084,-13515.4,8850.57,-4543.19,0.470054,-150.883,-112.733,11647.2,-2719.48,3572.17,35.9288,5.03136,44.3358
4.063,4541.52,-59.3319,9281.58,1.45507,23.9739,-4.98501,22451.0,40174.5,13415.1,417.92,-604.697,325.572,-1200.49,8146.19,-644.169,8.26685,-86.386,-98.0287,12019.7,-14568.1,-10497.6,64.7428,-51.5622,208.851,-3962.08,-12913.9,-1329.85,21.8505,18.4669,-108.893,-13129.3,8976.97,-4563.61,2.07304,-154.14,-113.806,11442.6,-2564.16,3493.16,33.9569,6.75052,45.6434
4.064,4016.34,198.037,9349.51,0.98044,23.5335,-4.64101,23737.3,42836.1,13046.4,389.122,-587.677,325.542,-908.145,8365.86,-619.998,7.32618,-89.0038,-97.3671,11196.5,-14858.1,-10638.0,63.8939,-40.4555,206.756,-4271.2,-13130.1,-1001.62,24.3141,12.6261,-112.863,-12719.6,9119.52,-4552.23,4.33348,-156.736,-114.431,11233.2,-2419.76,3415.51,31.8352,8.51176,46.796
4.065,3491.16,455.407,9417.44,0.505807,23.0931,-4.29702,25023.6,45497.7,12677.7,360.324,-570.658,325.513,-615.802,8585.53,-595.826,6.3855,-91.6215,-96.7055,10373.4,-15148.1,-10778.4,63.045,-29.3487,204.661,-4580.31,-13346.2,-673.386,26.7778,6.78541,-116.832,-12309.9,9262.08,-4540.85,6.59391,-159.333,-115.056,11023.7,-2275.36,3337.87,29.7134,10.273,47.9486
4.066,2965.98,712.776,9485.37,0.0311752,22.6527,-3.95303,26309.9,48159.3,12309.0,331.525,-553.638,325.483,-323.459,8805.2,-571.655,5.44483,-94.2392,-96.0439,9550.21,-15438.2,-10918.9,62.1961,-18.242,202.566,-4889.42,-13562.3,-345.154,29.2414,0.944685,-120.802,-11900.3,9404.63,-4529.46,8.85435,-161.929,-115.682,10814.3,-2130.96,3260.23,27.5917,12.0342,49.1013
4.067,2616.94,711.76,9464.17,-0.412959,22.2057,-3.65784,27379.0,49662.4,12314.5,299.571,-537.963,322.591,-161.643,9024.09,-589.994,4.7723,-96.388,-95.3404,8619.36,-15734.0,-10887.4,61.8397,-8.08394,200.006,-5142.28,-13755.1,-101.009,31.3629,-4.68538,-124.893,-11474.7,9578.97,-4467.89,11.4583,-164.679,-115.739,10608.1,-2009.44,3194.02,25.574,13.7545,49.9812
4.068,2620.17,193.973,9264.7,-0.796097,21.7457,-3.46028,28013.8,48848.2,13068.4,261.304,-524.978,313.973,-260.882,9241.43,-693.353,4.63606,-97.599,-94.553,7473.12,-16041.4,-10512.1,62.4681,0.17665,196.516,-5282.61,-13901.2,-25.0405,32.8001,-9.89413,-129.23,-11017.3,9816.89,-4305.93,14.7493,-167.736,-114.661,10408.3,-1933.69,3150.7,23.7643,15.3927,50.3156
4.069,2623.4,-323.815,9065.24,-1.17923,21.2856,-3.26271,28648.6,48034.1,13822.4,223.036,-511.993,305.356,-360.121,9458.78,-796.712,4.49982,-98.8099,-93.7656,6326.88,-16348.7,-10136.8,63.0965,8.43724,193.026,-5422.95,-14047.4,50.9281,34.2373,-15.1029,-133.566,-10559.9,10054.8,-4143.97,18.0402,-170.792,-113.582,10208.5,-1857.94,3107.38,21.9546,17.0309,50.6501
4.07,2626.64,-841.602,8865.77,-1.56237,20.8256,-3.06515,29283.4,47220.0,14576.3,184.769,-499.009,296.738,-459.36,9676.13,-900.071,4.36358,-100.021,-92.9782,5180.65,-16656.1,-9761.55,63.7248,16.6978,189.537,-5563.28,-14193.5,126.897,35.6745,-20.3116,-137.902,-10102.6,10292.7,-3982.02,21.3312,-173.849,-112.504,10008.7,-1782.18,3064.06,20.1449,18.6691,50.9846
4.071,2629.87,-1359.39,8666.31,-1.94551,20.3655,-2.86758,29918.2,46405.9,15330.3,146.502,-486.024,288.12,-558.599,9893.47,-1003.43,4.22734,-101.232,-92.1908,4034.41,-16963.5,-9386.27,64.3532,24.9584,186.047,-5703.62,-14339.6,202.865,37.1118,-25.5204,-142.238,-9645.21,10530.7,-3820.06,24.6222,-176.906,-111.425,9808.88,-1706.43,3020.74,18.3352,20.3073,51.319
4.072,3068.47,-2016.3,8476.13,-2.40224,20.2739,-3.12242,29321.0,43818.5,15403.7,118.219,-472.63,273.091,-755.972,10080.9,-1107.37,4.15469,-101.791,-91.2303,3129.24,-17125.4,-9209.64,63.028,31.027,181.042,-5705.55,-14468.3,82.7911,36.6825,-29.1775,-146.451,-9120.94,10787.7,-3782.91,26.6478,-180.266,-109.426,9662.2,-1629.16,2995.74,17.0377,22.1337,50.8501
4.073,3561.49,-2690.6,8287.12,-2.86818,20.2283,-3.43381,28569.7,41009.4,15392.1,91.1837,-459.185,257.26,-965.612,10264.5,-1211.38,4.08998,-102.269,-90.2482,2254.2,-17269.2,-9057.84,61.4587,36.8216,175.849,-5690.17,-14594.9,-61.7884,36.02,-32.6407,-150.647,-8588.3,11047.0,-3761.36,28.5153,-183.665,-107.312,9522.16,-1551.7,2973.02,15.8041,23.9835,50.2809
4.074,4054.51,-3364.91,8098.11,-3.33411,20.1827,-3.7452,27818.5,38200.3,15380.5,64.1488,-445.74,241.43,-1175.25,10448.1,-1315.39,4.02527,-102.747,-89.2661,1379.16,-17413.0,-8906.04,59.8893,42.6162,170.655,-5674.8,-14721.5,-206.368,35.3575,-36.104,-154.844,-8055.67,11306.4,-3739.81,30.3827,-187.063,-105.198,9382.13,-1474.24,2950.31,14.5705,25.8334,49.7116
4.075,4547.54,-4039.21,7909.1,-3.80005,20.1372,-4.05659,27067.3,35391.3,15368.8,37.1138,-432.296,225.599,-1384.89,10631.8,-1419.4,3.96056,-103.225,-88.284,504.123,-17556.8,-8754.23,58.3199,48.4108,165.461,-5659.42,-14848.1,-350.948,34.695,-39.5672,-159.041,-7523.04,11565.8,-3718.26,32.2502,-190.461,-103.084,9242.09,-1396.79,2927.59,13.337,27.6832,49.1423
4.076,4993.23,-4477.66,7780.19,-4.20167,20.08,-4.36229,26239.0,32902.7,15565.4,17.1834,-414.399,208.697,-1517.04,10802.8,-1515.67,3.85824,-103.394,-87.2863,-290.528,-17524.7,-8450.45,55.7044,52.3274,160.742,-5603.36,-15003.4,-490.401,33.4576,-42.8666,-162.801,-6973.85,11790.7,-3826.64,33.3908,-192.568,-100.896,9161.27,-1336.21,2928.28,11.9779,29.4627,48.3216
4.077,5379.78,-4621.29,7726.39,-4.52291,20.0082,-4.66088,25314.2,30814.9,16022.2,6.13351,-390.936,190.456,-1552.34,10958.1,-1602.28,3.70892,-103.176,-86.2691,-984.696,-17272.8,-7956.67,51.7813,53.8964,156.615,-5496.44,-15194.7,-623.446,31.5016,-45.9611,-166.015,-6403.96,11972.5,-4097.43,33.6228,-193.059,-98.616,9154.49,-1296.75,2958.23,10.4621,31.1542,47.1866
4.078,5766.32,-4764.92,7672.6,-4.84415,19.9365,-4.95947,24389.4,28727.1,16479.0,-4.91633,-367.474,172.214,-1587.63,11113.4,-1688.9,3.5596,-102.957,-85.2518,-1678.86,-17020.9,-7462.9,47.8582,55.4654,152.489,-5389.52,-15386.1,-756.492,29.5456,-49.0557,-169.229,-5834.08,12154.2,-4368.22,33.8548,-193.551,-96.336,9147.7,-1257.29,2988.18,8.94623,32.8457,46.0516
4.079,6152.87,-4908.55,7618.81,-5.16539,19.8647,-5.25806,23464.6,26639.3,16935.8,-15.9662,-344.012,153.972,-1622.92,11268.7,-1775.51,3.41028,-102.739,-84.2346,-2373.03,-16769.0,-6969.13,43.935,57.0344,148.362,-5282.6,-15577.4,-889.537,27.5896,-52.1503,-172.443,-5264.19,12336.0,-4639.02,34.0869,-194.042,-94.056,9140.91,-1217.82,3018.12,7.43037,34.5372,44.9166
4.08,6539.41,-5052.19,7565.02,-5.48663,19.793,-5.55665,22539.9,24551.5,17392.7,-27.016,-320.55,135.731,-1658.21,11424.0,-1862.12,3.26095,-102.52,-83.2173,-3067.2,-16517.1,-6475.35,40.0119,58.6034,144.236,-5175.68,-15768.8,-1022.58,25.6336,-55.2449,-175.657,-4694.31,12517.8,-4909.81,34.3189,-194.534,-91.776,9134.13,-1178.36,3048.07,5.91451,36.2287,43.7815
4.081,6487.07,-4795.68,7653.86,-5.58805,19.603,-5.26198,21885.0,23666.2,17761.3,-25.9425,-288.36,119.07,-1452.51,11509.8,-1954.73,3.17684,-101.216,-81.8111,-3758.95,-16178.1,-5835.0,37.4871,59.3087,143.409,-5020.92,-16051.8,-974.576,23.89,-60.0925,-177.63,-4069.34,12569.9,-5096.82,33.369,-191.911,-90.2282,9238.28,-1199.94,3047.88,4.80354,37.9621,41.57
4.082,6434.72,-4539.18,7742.69,-5.68948,19.4131,-4.96731,21230.2,22780.8,18129.9,-24.869,-256.169,102.409,-1246.82,11595.6,-2047.34,3.09272,-99.9108,-80.4048,-4450.7,-15839.2,-5194.64,34.9624,60.0141,142.583,-4866.16,-16334.8,-926.57,22.1465,-64.9402,-179.602,-3444.37,12622.1,-5283.83,32.4191,-189.287,-88.6803,9342.44,-1221.52,3047.7,3.69258,39.6955,39.3584
4.083,6382.38,-4282.68,7831.53,-5.7909,19.2231,-4.67264,20575.3,21895.5,18498.6,-23.7955,-223.979,85.7476,-1041.12,11681.4,-2139.95,3.0086,-98.606,-78.9985,-5142.46,-15500.3,-4554.28,32.4376,60.7194,141.756,-4711.4,-16617.8,-878.564,20.403,-69.7878,-181.575,-2819.4,12674.2,-5470.84,31.4692,-186.663,-87.1325,9446.6,-1243.11,3047.52,2.58161,41.429,37.1468
4.084,6330.04,-4026.18,7920.36,-5.89233,19.0332,-4.37796,19920.4,21010.2,18867.2,-22.7221,-191.789,69.0865,-835.426,11767.1,-2232.56,2.92449,-97.3012,-77.5922,-5834.21,-15161.4,-3913.92,29.9128,61.4248,140.93,-4556.63,-16900.8,-830.557,18.6595,-74.6355,-183.548,-2194.43,12726.4,-5657.85,30.5193,-184.04,-85.5847,9550.75,-1264.69,3047.33,1.47064,43.1624,34.9353
4.085,6122.89,-3782.7,8010.91,-5.92761,18.7731,-4.11807,19672.9,19987.6,19466.7,-21.841,-160.226,52.824,-541.191,11762.7,-2315.32,3.13561,-95.5152,-76.0491,-6370.32,-14800.0,-3730.9,27.3754,63.5698,142.187,-4357.25,-17255.6,-766.916,17.8007,-80.4289,-184.69,-1586.26,12760.9,-5799.94,29.9114,-180.162,-84.3178,9624.82,-1237.31,3055.44,0.291629,44.8457,32.7032
