Time,RFoot_accel.x,RFoot_accel.y,RFoot_accel.z,RFoot_gyro.x,RFoot_gyro.y,RFoot_gyro.z,LFoot_accel.x,LFoot_accel.y,LFoot_accel.z,LFoot_gyro.x,LFoot_gyro.y,LFoot_gyro.z,RShank_accel.x,RShank_accel.y,RShank_accel.z,RShank_gyro.x,RShank_gyro.y,RShank_gyro.z,LShank_accel.x,LShank_accel.y,LShank_accel.z,LShank_gyro.x,LShank_gyro.y,LShank_gyro.z,RThigh_accel.x,RThigh_accel.y,RThigh_accel.z,RThigh_gyro.x,RThigh_gyro.y,RThigh_gyro.z,LThigh_accel.x,LThigh_accel.y,LThigh_accel.z,LThigh_gyro.x,LThigh_gyro.y,LThigh_gyro.z,Pelvis_accel.x,Pelvis_accel.y,Pelvis_accel.z,Pelvis_gyro.x,Pelvis_gyro.y,Pelvis_gyro.z
3.0,6505.69,-3306.11,8243.88,-176.232,341.26,240.614,3934.07,3245.07,8256.09,27.7273,-25.4211,36.9167,1220.63,10333.9,-430.897,46.3117,17.1527,375.236,-2731.33,-10276.7,-2001.55,-5.89796,-69.8724,22.4322,1517.94,-10599.0,-340.825,-63.7767,-104.847,108.791,-8862.44,4336.52,-1367.89,-17.5749,70.6745,140.082,6216.27,-1661.58,992.938,16.126,-1.83961,43.5287
3.001,6700.93,-3335.52,8398.51,-175.747,338.755,240.456,3947.07,3205.52,8267.15,27.7635,-25.4247,37.0797,1162.06,10421.6,-434.021,46.5564,17.2208,376.231,-2577.62,-10236.6,-1998.1,-6.06952,-70.8392,22.5382,1537.53,-10539.3,-352.197,-63.2403,-107.934,108.422,-8871.54,4121.46,-1352.03,-18.5162,70.4078,139.545,6176.27,-1619.86,972.87,16.7341,-1.7618,43.3245
3.002,6896.18,-3364.92,8553.14,-175.261,336.249,240.299,3960.08,3165.96,8278.21,27.7998,-25.4283,37.2428,1103.5,10509.3,-437.145,46.801,17.289,377.226,-2423.91,-10196.5,-1994.65,-6.24108,-71.8061,22.6442,1557.12,-10479.7,-363.568,-62.704,-111.021,108.053,-8880.63,3906.39,-1336.16,-19.4575,70.1411,139.007,6136.27,-1578.15,952.802,17.3422,-1.68398,43.1204
3.003,7091.42,-3394.33,8707.77,-174.775,333.744,240.141,3973.09,3126.41,8289.27,27.836,-25.4319,37.4059,1044.93,10597.0,-440.268,47.0457,17.3571,378.221,-2270.2,-10156.4,-1991.2,-6.41265,-72.7729,22.7502,1576.71,-10420.0,-374.94,-62.1677,-114.107,107.684,-8889.73,3691.33,-1320.3,-20.3988,69.8745,138.47,6096.27,-1536.43,932.734,17.9503,-1.60617,42.9162
3.004,7286.67,-3423.73,8862.4,-174.29,331.239,239.984,3986.1,3086.86,8300.33,27.8722,-25.4354,37.5689,986.366,10684.7,-443.392,47.2904,17.4253,379.216,-2116.5,-10116.3,-1987.75,-6.58421,-73.7397,22.8562,1596.3,-10360.4,-386.311,-61.6314,-117.194,107.315,-8898.83,3476.27,-1304.43,-21.3401,69.6078,137.932,6056.27,-1494.72,912.666,18.5585,-1.52836,42.712
3.005,7511.52,-3457.37,8971.43,-174.43,329.349,239.863,3997.1,3109.23,8312.83,27.9054,-25.4997,37.8992,904.981,10774.2,-405.409,47.5204,17.3298,380.191,-1974.97,-10080.2,-1966.75,-6.54052,-74.1504,23.0489,1591.59,-10313.9,-396.933,-60.9804,-120.249,106.934,-8939.59,3279.45,-1321.69,-21.7005,68.9563,137.337,6022.63,-1463.01,897.489,19.0653,-1.41162,42.5609
3.006,7760.06,-3494.4,9043.99,-175.07,327.951,239.772,4006.49,3181.14,8326.47,27.9361,-25.6125,38.3632,805.34,10865.1,-334.541,47.7387,17.1034,381.152,-1843.2,-10047.3,-1931.72,-6.32464,-74.1161,23.311,1567.44,-10278.1,-406.956,-60.2376,-123.28,106.543,-9005.67,3097.23,-1365.45,-21.5962,67.9969,136.697,5994.07,-1439.31,886.226,19.4911,-1.26373,42.4523
3.007,8008.6,-3531.43,9116.55,-175.711,326.553,239.681,4015.88,3253.05,8340.11,27.9669,-25.7252,38.8272,705.699,10956.0,-263.672,47.957,16.877,382.112,-1711.42,-10014.4,-1896.7,-6.10876,-74.0819,23.573,1543.29,-10242.2,-416.978,-59.4948,-126.311,106.153,-9071.76,2915.01,-1409.2,-21.4918,67.0375,136.056,5965.51,-1415.61,874.962,19.917,-1.11584,42.3436
3.008,8257.14,-3568.46,9189.12,-176.351,325.156,239.59,4025.27,3324.95,8353.76,27.9976,-25.838,39.2911,606.059,11046.9,-192.804,48.1753,16.6506,383.072,-1579.64,-9981.57,-1861.67,-5.89288,-74.0476,23.8351,1519.14,-10206.3,-427.001,-58.752,-129.342,105.762,-9137.84,2732.79,-1452.95,-21.3875,66.0781,135.415,5936.96,-1391.9,863.699,20.3428,-0.967951,42.235
3.009,8502.36,-3609.85,9284.96,-177.083,323.763,239.55,4033.42,3388.79,8368.08,28.0076,-25.9456,39.7266,508.469,11139.0,-118.683,48.376,16.3816,384.006,-1456.95,-9950.41,-1821.98,-5.67521,-73.9464,24.0935,1495.35,-10165.3,-436.145,-57.9385,-132.358,105.397,-9201.31,2554.72,-1491.18,-21.2573,65.0546,134.759,5908.01,-1371.26,849.766,20.7958,-0.819769,42.0858
3.01,8721.0,-3686.16,9567.03,-178.544,322.415,239.918,4031.65,3388.1,8387.79,27.8509,-26.0117,39.9343,427.288,11240.6,-18.5455,48.4359,15.7712,384.729,-1406.94,-9932.89,-1744.99,-5.44331,-73.3093,24.3226,1474.43,-10083.6,-438.263,-56.5587,-135.251,105.231,-9243.83,2409.89,-1485.19,-20.9208,63.5176,133.983,5875.93,-1375.05,814.478,21.4653,-0.669247,41.6123
3.011,8939.65,-3762.47,9849.1,-180.005,321.067,240.285,4029.88,3387.4,8407.5,27.6943,-26.0778,40.1419,346.106,11342.1,81.592,48.4959,15.1608,385.451,-1356.93,-9915.38,-1668.01,-5.2114,-72.6722,24.5517,1453.52,-10001.8,-440.38,-55.179,-138.144,105.065,-9286.34,2265.06,-1479.2,-20.5842,61.9807,133.207,5843.85,-1378.84,779.191,22.1349,-0.518724,41.1388
3.012,9158.3,-3838.78,10131.2,-181.466,319.719,240.653,4028.12,3386.71,8427.21,27.5376,-26.1439,40.3495,264.925,11443.6,181.73,48.5558,14.5505,386.174,-1306.92,-9897.86,-1591.03,-4.97949,-72.0351,24.7807,1432.61,-9919.99,-442.498,-53.7992,-141.037,104.899,-9328.86,2120.23,-1473.22,-20.2477,60.4437,132.431,5811.77,-1382.64,743.903,22.8045,-0.368201,40.6653
3.013,9376.94,-3915.09,10413.2,-182.927,318.371,241.02,4026.35,3386.01,8446.92,27.381,-26.21,40.5571,183.743,11545.2,281.867,48.6158,13.9401,386.897,-1256.91,-9880.35,-1514.05,-4.74758,-71.398,25.0098,1411.7,-9838.21,-444.616,-52.4195,-143.93,104.733,-9371.38,1975.39,-1467.23,-19.9112,58.9067,131.655,5779.69,-1386.43,708.616,23.4741,-0.217679,40.1917
3.014,9582.71,-3989.27,10622.2,-183.22,317.017,241.555,4001.73,3357.03,8437.47,27.1423,-26.2459,40.7249,133.192,11651.5,356.457,48.6404,13.2711,387.525,-1215.56,-9845.85,-1425.79,-4.57293,-70.63,25.2075,1393.14,-9764.69,-488.907,-50.86,-146.505,104.686,-9384.06,1875.02,-1440.04,-19.7122,57.1644,130.738,5736.24,-1406.2,674.823,24.137,-0.115423,39.7077
3.015,9782.03,-4062.4,10794.5,-182.93,315.66,242.174,3965.69,3313.89,8413.44,26.8626,-26.2667,40.8728,97.9563,11760.3,418.274,48.6474,12.5727,388.106,-1178.53,-9802.85,-1331.89,-4.42692,-69.7966,25.3895,1375.75,-9695.29,-554.285,-49.2107,-148.922,104.699,-9381.84,1796.87,-1402.25,-19.582,55.3193,129.75,5687.12,-1433.95,641.777,24.7966,-0.0373007,39.2184
3.016,9981.36,-4135.52,10966.8,-182.639,314.303,242.793,3929.65,3270.76,8389.41,26.5829,-26.2874,41.0207,62.7205,11869.0,480.09,48.6543,11.8744,388.688,-1141.5,-9759.85,-1238.0,-4.2809,-68.9632,25.5715,1358.37,-9625.9,-619.662,-47.5614,-151.338,104.712,-9379.61,1718.72,-1364.46,-19.4518,53.4743,128.761,5637.99,-1461.7,608.731,25.4562,0.0408215,38.7291
3.017,10180.7,-4208.65,11139.2,-182.348,312.946,243.412,3893.61,3227.62,8365.37,26.3032,-26.3082,41.1686,27.4847,11977.8,541.907,48.6613,11.176,389.269,-1104.47,-9716.85,-1144.1,-4.13489,-68.1298,25.7535,1340.99,-9556.51,-685.04,-45.9121,-153.755,104.725,-9377.39,1640.58,-1326.67,-19.3216,51.6293,127.773,5588.86,-1489.45,575.685,26.1158,0.118944,38.2398
3.018,10385.5,-4258.11,11305.3,-181.871,311.721,244.017,3867.48,3173.39,8349.62,26.0341,-26.3163,41.2952,-14.1668,12092.7,587.093,48.668,10.5131,389.79,-1079.51,-9677.15,-1046.84,-3.98013,-67.3497,25.9453,1329.01,-9489.16,-750.375,-44.2423,-155.997,104.788,-9370.7,1562.53,-1278.07,-19.1998,49.6369,126.819,5545.71,-1509.12,546.732,26.7873,0.173808,37.7286
3.019,10609.3,-4224.76,11449.6,-180.742,310.958,244.571,3876.05,3080.32,8362.84,25.8025,-26.2805,41.3475,-78.2731,12229.6,574.072,48.6741,9.97437,390.104,-1096.79,-9649.02,-937.785,-3.79482,-66.7566,26.1717,1335.97,-9428.97,-815.56,-42.5006,-157.631,105.029,-9348.39,1484.81,-1191.65,-19.107,47.129,125.985,5523.45,-1500.5,532.1,27.5005,0.147267,37.141
3.02,10833.2,-4191.4,11594.0,-179.613,310.195,245.126,3884.62,2987.26,8376.05,25.571,-26.2446,41.3998,-142.38,12366.4,561.052,48.6803,9.43559,390.418,-1114.08,-9620.9,-828.731,-3.6095,-66.1635,26.398,1342.93,-9368.78,-880.745,-40.7588,-159.264,105.27,-9326.08,1407.09,-1105.23,-19.0143,44.621,125.15,5501.2,-1491.89,517.469,28.2136,0.120726,36.5533
3.021,11057.1,-4158.05,11738.3,-178.485,309.432,245.681,3893.19,2894.19,8389.27,25.3394,-26.2087,41.4521,-206.486,12503.3,548.031,48.6864,8.89681,390.732,-1131.36,-9592.77,-719.676,-3.42418,-65.5703,26.6244,1349.88,-9308.59,-945.93,-39.0171,-160.898,105.511,-9303.76,1329.38,-1018.81,-18.9215,42.1131,124.316,5478.94,-1483.28,502.837,28.9268,0.0941859,35.9657
3.022,11280.9,-4124.69,11882.7,-177.356,308.67,246.235,3901.76,2801.12,8402.49,25.1078,-26.1729,41.5044,-270.592,12640.1,535.011,48.6925,8.35804,391.045,-1148.65,-9564.64,-610.622,-3.23887,-64.9772,26.8508,1356.84,-9248.4,-1011.12,-37.2754,-162.532,105.752,-9281.45,1251.66,-932.392,-18.8288,39.6051,123.481,5456.69,-1474.66,488.206,29.64,0.0676453,35.378
3.023,11481.8,-4097.36,12022.2,-176.964,308.444,246.701,3905.7,2699.22,8402.52,24.6827,-26.2759,41.0024,-329.92,12813.1,552.24,48.5485,7.64416,391.232,-1190.9,-9543.82,-518.738,-3.17686,-64.2285,27.2381,1355.55,-9216.56,-1057.89,-35.3989,-163.636,106.049,-9190.35,1223.83,-871.289,-18.1237,36.9635,122.638,5444.54,-1499.2,471.616,30.3894,-0.0218863,34.6053
3.024,11676.1,-4071.75,12160.3,-176.783,308.371,247.141,3908.31,2594.78,8398.78,24.2025,-26.4186,40.342,-387.883,12996.5,578.113,48.3617,6.88026,391.382,-1240.29,-9525.1,-431.759,-3.15009,-63.4354,27.6715,1351.89,-9192.81,-1099.41,-33.4838,-164.588,106.362,-9079.6,1210.25,-817.418,-17.2438,34.2838,121.792,5435.28,-1533.21,454.468,31.1492,-0.129415,33.7796
3.025,11870.4,-4046.13,12298.4,-176.602,308.298,247.582,3910.93,2490.35,8395.04,23.7222,-26.5613,39.6816,-445.845,13179.9,603.985,48.1749,6.11636,391.532,-1289.68,-9506.37,-344.78,-3.12332,-62.6423,28.1049,1348.24,-9169.07,-1140.93,-31.5688,-165.541,106.675,-8968.85,1196.68,-763.548,-16.3638,31.6041,120.946,5426.03,-1567.22,437.319,31.9089,-0.236944,32.954
3.026,12064.7,-4020.52,12436.5,-176.421,308.226,248.022,3913.55,2385.92,8391.29,23.2419,-26.704,39.0213,-503.808,13363.2,629.857,47.988,5.35245,391.682,-1339.07,-9487.65,-257.801,-3.09655,-61.8492,28.5383,1344.59,-9145.33,-1182.44,-29.6538,-166.494,106.988,-8858.1,1183.1,-709.677,-15.4839,28.9243,120.101,5416.77,-1601.23,420.17,32.6687,-0.344473,32.1284
3.027,12259.9,-4026.79,12585.7,-176.307,308.256,248.529,3922.25,2324.92,8393.42,22.7913,-26.8299,38.4191,-568.953,13551.4,653.144,47.6886,4.53013,391.76,-1385.84,-9480.43,-166.13,-2.99851,-61.0264,28.9891,1344.65,-9109.05,-1235.45,-27.6246,-167.127,107.375,-8733.61,1179.42,-658.221,-14.3605,26.3349,119.295,5421.49,-1625.68,396.132,33.3066,-0.475378,31.4437
3.028,12456.7,-4096.8,12757.1,-176.33,308.493,249.171,3943.13,2350.79,8407.3,22.4003,-26.9222,37.9333,-648.462,13749.0,671.261,47.1641,3.59097,391.695,-1427.37,-9496.24,-65.0765,-2.75795,-60.144,29.4747,1352.13,-9047.69,-1311.44,-25.3671,-167.12,107.908,-8581.63,1195.53,-611.593,-12.7503,23.926,118.57,5454.18,-1631.01,358.313,33.7005,-0.653032,31.0409
3.029,12653.5,-4166.82,12928.5,-176.353,308.73,249.813,3964.01,2376.65,8421.18,22.0092,-27.0144,37.4475,-727.971,13946.6,689.378,46.6396,2.65181,391.629,-1468.89,-9512.05,35.9769,-2.51739,-59.2617,29.9603,1359.61,-8986.33,-1387.43,-23.1096,-167.114,108.441,-8429.66,1211.65,-564.965,-11.1401,21.5172,117.844,5486.87,-1636.35,320.495,34.0944,-0.830686,30.6382
3.03,12850.3,-4236.84,13099.9,-176.375,308.966,250.454,3984.89,2402.52,8435.05,21.6181,-27.1066,36.9617,-807.48,14144.3,707.495,46.115,1.71265,391.564,-1510.42,-9527.86,137.03,-2.27682,-58.3794,30.4459,1367.09,-8924.98,-1463.41,-20.8521,-167.108,108.975,-8277.68,1227.76,-518.336,-9.52992,19.1083,117.119,5519.56,-1641.68,282.677,34.4884,-1.00834,30.2354
3.031,13047.2,-4306.86,13271.3,-176.398,309.203,251.096,4005.76,2428.38,8448.93,21.2271,-27.1989,36.4759,-886.989,14341.9,725.612,45.5905,0.773491,391.499,-1551.95,-9543.67,238.084,-2.03626,-57.4971,30.9315,1374.58,-8863.62,-1539.4,-18.5946,-167.102,109.508,-8125.7,1243.88,-471.708,-7.91973,16.6995,116.393,5552.25,-1647.02,244.858,34.8823,-1.18599,29.8327
3.032,13221.2,-4338.96,13430.9,-175.944,309.148,252.073,4046.17,2395.54,8451.65,20.8691,-27.296,36.1623,-988.466,14541.3,703.391,45.24,-0.0650793,391.274,-1550.5,-9550.36,297.139,-1.74183,-56.4342,31.2809,1383.47,-8857.61,-1603.25,-16.2559,-166.767,110.033,-7935.05,1279.56,-437.218,-5.81301,14.7442,115.815,5545.04,-1662.03,231.79,35.3535,-1.03604,29.0903
3.033,13392.4,-4366.31,13589.0,-175.43,309.057,253.093,4089.01,2355.35,8452.98,20.5153,-27.3938,35.8702,-1092.69,14740.9,676.127,44.9114,-0.891076,391.029,-1543.68,-9555.91,350.944,-1.44067,-55.3487,31.6133,1392.54,-8858.52,-1665.58,-13.9071,-166.39,110.558,-7739.56,1317.68,-404.245,-3.64424,12.8455,115.255,5532.85,-1678.26,221.815,35.8343,-0.845142,28.3056
3.034,13563.7,-4393.67,13747.1,-174.917,308.966,254.112,4131.85,2315.17,8454.31,20.1615,-27.4916,35.5781,-1196.91,14940.4,648.863,44.5827,-1.71707,390.785,-1536.86,-9561.46,404.749,-1.13951,-54.2632,31.9457,1401.61,-8859.44,-1727.91,-11.5582,-166.013,111.082,-7544.06,1355.8,-371.273,-1.47546,10.9469,114.695,5520.65,-1694.49,211.841,36.3152,-0.654241,27.5208
3.035,13734.9,-4421.02,13905.3,-174.403,308.875,255.131,4174.69,2274.98,8455.64,19.8077,-27.5893,35.286,-1301.14,15140.0,621.6,44.254,-2.54307,390.54,-1530.04,-9567.01,458.555,-0.838346,-53.1777,32.2782,1410.68,-8860.35,-1790.24,-9.20942,-165.637,111.606,-7348.57,1393.92,-338.3,0.693321,9.0483,114.135,5508.45,-1710.72,201.866,36.796,-0.463339,26.736
3.036,13907.5,-4414.56,14013.4,-173.991,308.962,256.292,4192.85,2220.06,8430.53,19.3905,-27.6038,34.8738,-1393.86,15360.4,609.182,43.8899,-3.51826,390.335,-1533.96,-9542.69,512.654,-0.553617,-52.0782,32.6008,1430.86,-8858.84,-1830.74,-6.73535,-164.976,112.177,-7145.13,1435.91,-319.445,2.92102,7.36692,113.641,5509.42,-1722.43,172.49,37.1928,-0.178204,25.9963
3.037,14082.0,-4365.84,14059.1,-173.707,309.271,257.631,4180.13,2146.71,8372.38,18.894,-27.5142,34.3116,-1472.21,15606.8,615.32,43.4814,-4.67994,390.181,-1551.31,-9481.03,567.121,-0.289427,-50.961,32.9112,1464.91,-8854.31,-1843.95,-4.10472,-163.961,112.804,-6931.76,1482.73,-318.236,5.22238,5.95708,113.229,5526.83,-1728.52,118.864,37.4845,0.224722,25.313
3.038,14256.4,-4317.11,14104.8,-173.422,309.581,258.969,4167.42,2073.36,8314.24,18.3975,-27.4245,33.7494,-1550.56,15853.2,621.459,43.073,-5.84161,390.027,-1568.66,-9419.37,621.588,-0.0252379,-49.8439,33.2217,1498.95,-8849.78,-1857.16,-1.47409,-162.945,113.432,-6718.39,1529.56,-317.028,7.52373,4.54723,112.817,5544.25,-1734.6,65.2369,37.7762,0.627648,24.6297
3.039,14430.9,-4268.38,14150.4,-173.137,309.89,260.308,4154.71,2000.01,8256.09,17.9011,-27.3349,33.1872,-1628.92,16099.5,627.598,42.6645,-7.00329,389.872,-1586.01,-9357.71,676.055,0.238951,-48.7267,33.5321,1533.0,-8845.24,-1870.37,1.15654,-161.93,114.06,-6505.01,1576.38,-315.819,9.82509,3.13739,112.406,5561.66,-1740.68,11.6101,38.068,1.03057,23.9464
3.04,14605.3,-4219.65,14196.1,-172.852,310.2,261.646,4142.0,1926.67,8197.94,17.4046,-27.2453,32.6249,-1707.27,16345.9,633.737,42.2561,-8.16497,389.718,-1603.36,-9296.05,730.522,0.503141,-47.6096,33.8425,1567.05,-8840.71,-1883.58,3.78717,-160.914,114.687,-6291.64,1623.2,-314.61,12.1264,1.72755,111.994,5579.07,-1746.76,-42.0166,38.3597,1.4335,23.2631
3.041,14740.0,-4145.54,14243.0,-173.144,310.26,262.563,4154.61,1839.54,8225.77,17.1625,-27.2669,31.8644,-1808.04,16602.2,621.547,41.741,-9.54601,389.567,-1650.82,-9287.55,814.109,0.602767,-46.6932,34.1844,1566.83,-8841.17,-1954.69,6.18172,-159.348,115.082,-6128.93,1674.04,-351.775,14.1288,0.828144,111.616,5573.33,-1769.42,-59.7167,38.2299,1.61081,22.7734
3.042,14874.6,-4071.43,14289.8,-173.435,310.321,263.48,4167.22,1752.42,8253.59,16.9204,-27.2886,31.1039,-1908.82,16858.5,609.356,41.2258,-10.9271,389.417,-1698.29,-9279.06,897.696,0.702393,-45.7768,34.5262,1566.61,-8841.62,-2025.81,8.57627,-157.781,115.476,-5966.22,1724.87,-388.94,16.1311,-0.0712578,111.239,5567.58,-1792.08,-77.4169,38.1001,1.78812,22.2838
3.043,15009.3,-3997.31,14336.7,-173.726,310.382,264.396,4179.83,1665.3,8281.42,16.6783,-27.3102,30.3433,-2009.59,17114.9,597.165,40.7108,-12.3081,389.267,-1745.76,-9270.56,981.284,0.80202,-44.8604,34.8681,1566.4,-8842.08,-2096.92,10.9708,-156.215,115.87,-5803.51,1775.7,-426.104,18.1334,-0.970659,110.861,5561.83,-1814.74,-95.117,37.9703,1.96542,21.7941
3.044,15144.0,-3923.2,14383.6,-174.017,310.443,265.313,4192.44,1578.18,8309.24,16.4363,-27.3319,29.5828,-2110.37,17371.2,584.974,40.1956,-13.6891,389.116,-1793.23,-9262.06,1064.87,0.901646,-43.944,35.21,1566.18,-8842.53,-2168.04,13.3654,-154.648,116.265,-5640.8,1826.53,-463.269,20.1357,-1.87006,110.483,5556.09,-1837.4,-112.817,37.8405,2.14273,21.3044
3.045,15287.6,-3848.75,14401.9,-174.333,310.457,265.994,4213.8,1501.68,8339.13,16.1689,-27.4235,28.9336,-2199.68,17594.3,585.465,39.7259,-15.0971,388.939,-1824.21,-9232.76,1164.43,1.02143,-43.1404,35.6121,1558.27,-8838.3,-2239.97,15.2783,-152.677,116.482,-5464.68,1877.42,-501.033,21.8982,-2.52774,110.166,5557.69,-1856.89,-113.388,37.8699,2.13464,20.7829
3.046,15438.6,-3774.03,14397.5,-174.669,310.433,266.485,4242.18,1433.69,8370.66,15.8814,-27.5711,28.3736,-2279.82,17790.8,596.101,39.2924,-16.5266,388.74,-1841.99,-9186.82,1276.76,1.15734,-42.4269,36.0626,1544.19,-8830.31,-2312.54,16.8059,-150.382,116.557,-5277.85,1928.35,-539.278,23.4689,-2.99204,109.897,5565.18,-1873.83,-100.256,38.0267,1.97823,20.2358
3.047,15589.5,-3699.3,14393.1,-175.005,310.41,266.976,4270.55,1365.7,8402.19,15.5938,-27.7187,27.8136,-2359.95,17987.4,606.737,38.8588,-17.9561,388.541,-1859.77,-9140.88,1389.08,1.29326,-41.7134,36.513,1530.12,-8822.32,-2385.11,18.3335,-148.087,116.632,-5091.01,1979.27,-577.522,25.0396,-3.45634,109.629,5572.67,-1890.78,-87.1235,38.1835,1.82182,19.6887
3.048,15740.4,-3624.58,14388.6,-175.341,310.387,267.467,4298.92,1297.71,8433.71,15.3063,-27.8664,27.2537,-2440.09,18183.9,617.372,38.4253,-19.3856,388.342,-1877.54,-9094.94,1501.41,1.42917,-40.9999,36.9635,1516.05,-8814.33,-2457.68,19.8611,-145.792,116.708,-4904.17,2030.2,-615.767,26.6103,-3.92065,109.36,5580.16,-1907.72,-73.9912,38.3404,1.66541,19.1416
3.049,15888.1,-3552.09,14378.0,-175.658,310.353,267.893,4324.05,1225.51,8468.56,15.0333,-28.0132,26.6633,-2519.44,18375.2,626.289,38.0078,-20.8612,388.165,-1897.82,-9055.56,1611.47,1.58368,-40.2734,37.4007,1502.27,-8800.86,-2533.46,21.2381,-143.45,116.794,-4715.92,2077.98,-650.177,28.1818,-4.31977,109.074,5588.07,-1925.44,-58.6101,38.5803,1.49794,18.5846
3.05,16010.1,-3497.46,14318.3,-175.821,310.242,267.788,4323.23,1119.67,8529.91,14.8763,-28.1535,25.8298,-2592.44,18524.7,621.45,37.718,-22.7049,388.158,-1938.11,-9068.74,1703.38,1.887,-39.4427,37.732,1490.79,-8743.51,-2634.86,21.4101,-140.732,116.964,-4516.44,2100.59,-653.918,29.7595,-4.19747,108.647,5599.37,-1949.35,-25.2382,39.4849,1.24204,17.9478
3.051,16132.2,-3442.83,14258.6,-175.983,310.13,267.683,4322.4,1013.84,8591.26,14.7193,-28.2938,24.9963,-2665.45,18674.2,616.611,37.4282,-24.5487,388.151,-1978.4,-9081.91,1795.29,2.19032,-38.6121,38.0634,1479.31,-8686.16,-2736.26,21.5821,-138.014,117.134,-4316.96,2123.21,-657.659,31.3373,-4.07517,108.221,5610.67,-1973.25,8.13377,40.3896,0.986127,17.3111
3.052,16254.2,-3388.2,14198.9,-176.146,310.019,267.579,4321.58,908.007,8652.61,14.5624,-28.4341,24.1627,-2738.46,18823.7,611.772,37.1383,-26.3925,388.145,-2018.68,-9095.08,1887.2,2.49364,-37.7814,38.3947,1467.83,-8628.81,-2837.67,21.7542,-135.296,117.305,-4117.48,2145.82,-661.4,32.9151,-3.95287,107.795,5621.96,-1997.15,41.5057,41.2942,0.730218,16.6744
3.053,16376.2,-3333.57,14139.2,-176.308,309.907,267.474,4320.76,802.173,8713.96,14.4054,-28.5744,23.3292,-2811.47,18973.2,606.934,36.8485,-28.2362,388.138,-2058.97,-9108.25,1979.11,2.79696,-36.9507,38.7261,1456.35,-8571.46,-2939.07,21.9262,-132.577,117.475,-3918.0,2168.43,-665.141,34.4928,-3.83057,107.368,5633.26,-2021.05,74.8777,42.1989,0.47431,16.0377
3.054,16489.7,-3300.3,14044.5,-176.21,309.691,267.15,4308.64,748.884,8765.87,14.1777,-28.8281,22.2347,-2868.15,19068.9,580.781,36.5781,-30.2449,388.253,-2082.91,-9167.08,2079.43,3.1281,-36.1413,38.9579,1410.12,-8530.23,-3027.53,22.0531,-130.033,117.533,-3732.5,2177.56,-656.314,35.8775,-3.28499,106.704,5658.64,-2020.12,108.292,43.2264,0.091218,15.3373
3.055,16599.0,-3277.72,13932.4,-175.981,309.422,266.716,4290.86,721.866,8813.04,13.9145,-29.1384,21.0096,-2916.67,19137.7,543.971,36.3174,-32.336,388.428,-2098.69,-9248.75,2183.95,3.47316,-35.3427,39.14,1346.51,-8497.07,-3109.51,22.1575,-127.577,117.535,-3554.0,2179.94,-641.203,37.1657,-2.52777,105.921,5691.08,-2006.76,141.727,44.3154,-0.355465,14.605
3.056,16708.2,-3255.15,13820.2,-175.752,309.154,266.282,4273.09,694.848,8860.22,13.6514,-29.4488,19.7845,-2965.19,19206.5,507.162,36.0566,-34.4271,388.603,-2114.47,-9330.42,2288.47,3.81822,-34.544,39.3221,1282.9,-8463.9,-3191.5,22.2618,-125.12,117.537,-3375.5,2182.32,-626.091,38.4538,-1.77055,105.137,5723.51,-1993.4,175.162,45.4044,-0.802148,13.8727
3.057,16817.4,-3232.57,13708.0,-175.523,308.885,265.848,4255.31,667.831,8907.4,13.3882,-29.7591,18.5594,-3013.71,19275.4,470.352,35.7959,-36.5182,388.779,-2130.24,-9412.08,2392.98,4.16328,-33.7453,39.5042,1219.29,-8430.74,-3273.48,22.3662,-122.663,117.538,-3197.0,2184.7,-610.98,39.742,-1.01334,104.354,5755.94,-1980.04,208.597,46.4934,-1.24883,13.1404
3.058,16929.3,-3249.25,13591.4,-175.001,308.582,265.299,4235.76,634.994,8949.15,13.1094,-30.1111,17.3649,-3045.48,19317.9,422.008,35.6098,-38.4268,388.946,-2148.48,-9497.83,2486.85,4.52136,-32.882,39.6393,1134.02,-8410.92,-3340.26,22.3834,-120.219,117.609,-3018.76,2189.04,-592.385,40.9565,-0.0891912,103.552,5794.04,-1972.49,232.568,47.463,-1.66042,12.3579
3.059,17050.1,-3403.33,13459.5,-173.457,308.158,264.349,4209.97,581.792,8971.89,12.7757,-30.6092,16.2773,-3018.62,19268.5,333.294,35.6849,-39.6966,389.082,-2175.34,-9597.86,2543.43,4.92503,-31.7927,39.6101,972.922,-8437.83,-3353.82,22.096,-117.822,117.921,-2841.43,2200.26,-561.596,41.9134,1.41919,102.686,5851.98,-1985.26,223.415,48.0147,-1.94916,11.4
3.06,17171.0,-3557.41,13327.6,-171.913,307.734,263.399,4184.19,528.589,8994.63,12.4421,-31.1072,15.1898,-2991.76,19219.1,244.581,35.7601,-40.9665,389.219,-2202.2,-9697.89,2600.0,5.32869,-30.7034,39.5808,811.827,-8464.74,-3367.38,21.8086,-115.425,118.232,-2664.09,2211.48,-530.808,42.8704,2.92758,101.82,5909.92,-1998.03,214.261,48.5665,-2.23789,10.4421
3.061,17291.9,-3711.5,13195.7,-170.368,307.31,262.449,4158.4,475.386,9017.38,12.1084,-31.6053,14.1022,-2964.89,19169.7,155.867,35.8353,-42.2363,389.355,-2229.06,-9797.92,2656.58,5.73235,-29.6141,39.5516,650.733,-8491.64,-3380.94,21.5212,-113.028,118.544,-2486.76,2222.7,-500.02,43.8273,4.43597,100.953,5967.85,-2010.8,205.107,49.1182,-2.52663,9.48415
3.062,17412.8,-3865.58,13063.8,-168.824,306.886,261.499,4132.61,422.184,9040.12,11.7747,-32.1033,13.0146,-2938.03,19120.3,67.1532,35.9105,-43.5062,389.491,-2255.92,-9897.95,2713.16,6.13601,-28.5249,39.5223,489.638,-8518.55,-3394.5,21.2338,-110.631,118.856,-2309.43,2233.92,-469.231,44.7842,5.94435,100.087,6025.79,-2023.57,195.954,49.67,-2.81537,8.52623
3.063,17553.4,-4140.73,12900.3,-166.183,306.443,260.109,4128.2,351.188,9063.03,11.4235,-32.7242,11.6964,-2876.13,19023.6,-52.2592,36.4024,-43.6988,389.339,-2318.99,-9999.08,2742.79,6.64563,-27.3345,39.5371,278.314,-8506.77,-3356.1,20.7675,-108.626,119.49,-2177.31,2213.79,-413.409,45.4065,7.78653,99.3346,6083.36,-1994.38,222.622,50.0559,-3.20159,7.60011
3.064,17699.6,-4450.47,12727.9,-163.228,305.993,258.592,4129.89,275.108,9085.98,11.0673,-33.3803,10.3123,-2804.23,18913.5,-180.443,37.0133,-43.5837,389.103,-2392.4,-10100.5,2764.72,7.18552,-26.1153,39.5644,52.6399,-8483.93,-3302.84,20.2501,-106.732,120.217,-2058.11,2184.7,-350.435,45.9332,9.72407,98.6144,6140.83,-1953.21,259.525,50.3943,-3.61566,6.68308
3.065,17845.7,-4760.21,12555.4,-160.274,305.544,257.076,4131.58,199.028,9108.93,10.7111,-34.0363,8.92818,-2732.33,18803.3,-308.626,37.6242,-43.4686,388.868,-2465.81,-10202.0,2786.64,7.72542,-24.896,39.5917,-173.034,-8461.1,-3249.59,19.7327,-104.839,120.944,-1938.91,2155.62,-287.46,46.4598,11.6616,97.8942,6198.3,-1912.04,296.429,50.7328,-4.02972,5.76606
3.066,17991.9,-5069.95,12383.0,-157.319,305.095,255.559,4133.27,122.948,9131.89,10.3549,-34.6923,7.54406,-2660.42,18693.1,-436.809,38.2351,-43.3535,388.632,-2539.22,-10303.4,2808.57,8.26531,-23.6768,39.619,-398.709,-8438.27,-3196.33,19.2153,-102.945,121.671,-1819.72,2126.53,-224.486,46.9865,13.5992,97.174,6255.77,-1870.87,333.332,51.0713,-4.44379,4.84903
3.067,18128.9,-5404.05,12209.8,-153.926,304.535,253.91,4160.43,69.7301,9146.43,10.0419,-35.3536,6.13055,-2573.09,18567.6,-569.937,39.0126,-42.6698,388.237,-2603.56,-10403.2,2822.58,8.81082,-22.4898,39.7316,-614.707,-8441.65,-3133.77,18.5875,-101.197,122.501,-1715.34,2101.45,-154.128,47.3359,15.4648,96.4762,6304.56,-1829.11,368.259,51.4587,-4.87182,4.05582
3.068,18247.6,-5786.87,12035.3,-149.653,303.754,251.996,4238.53,62.2366,9144.14,9.81546,-36.0256,4.65823,-2454.89,18411.4,-712.952,40.1235,-40.8489,387.522,-2649.77,-10499.7,2820.74,9.36758,-21.3673,40.0149,-811.354,-8497.48,-3052.57,17.7388,-99.7398,123.535,-1640.63,2084.39,-69.0026,47.3309,17.1865,95.8233,6336.02,-1786.16,399.235,51.9443,-5.32777,3.51025
3.069,18366.2,-6169.69,11860.7,-145.38,302.972,250.081,4316.64,54.7431,9141.85,9.58902,-36.6976,3.18591,-2336.69,18255.3,-855.967,41.2344,-39.028,386.807,-2695.98,-10596.2,2818.91,9.92433,-20.2449,40.2981,-1008.0,-8553.31,-2971.38,16.8901,-98.2827,124.57,-1565.92,2067.33,16.1226,47.3259,18.9082,95.1704,6367.47,-1743.21,430.211,52.4298,-5.78373,2.96468
3.07,18484.8,-6552.5,11686.2,-141.107,302.191,248.167,4394.74,47.2495,9139.56,9.36258,-37.3696,1.71359,-2218.5,18099.1,-998.982,42.3453,-37.207,386.093,-2742.19,-10692.7,2817.07,10.4811,-19.1224,40.5813,-1204.65,-8609.13,-2890.19,16.0414,-96.8257,125.605,-1491.2,2050.27,101.248,47.3208,20.63,94.5174,6398.92,-1700.26,461.187,52.9153,-6.23968,2.41911
3.071,18603.5,-6935.32,11511.6,-136.834,301.409,246.252,4472.84,39.756,9137.27,9.13615,-38.0416,0.241271,-2100.3,17942.9,-1142.0,43.4562,-35.3861,385.378,-2788.4,-10789.2,2815.24,11.0378,-17.9999,40.8646,-1401.29,-8664.96,-2809.0,15.1927,-95.3686,126.639,-1416.49,2033.22,186.373,47.3158,22.3517,93.8645,6430.37,-1657.32,492.162,53.4008,-6.69564,1.87354
3.072,18667.6,-7261.15,11333.2,-131.712,300.351,244.418,4531.42,75.8126,9135.15,8.84812,-38.726,-1.009,-1935.3,17813.5,-1294.53,44.9794,-32.0683,384.135,-2762.65,-10842.9,2764.44,11.4817,-16.999,41.2126,-1445.4,-8766.59,-2697.79,14.6764,-94.3835,127.636,-1349.22,2043.31,257.533,47.2809,23.8279,93.2744,6418.63,-1648.49,528.324,53.8577,-7.30307,1.43465
3.073,18724.9,-7579.85,11154.3,-126.484,299.259,242.594,4587.57,117.313,9133.05,8.55239,-39.4119,-2.23151,-1764.44,17687.4,-1448.25,46.5541,-28.5633,382.826,-2727.91,-10891.2,2707.53,11.9114,-16.0133,41.5687,-1470.44,-8873.95,-2582.83,14.2017,-93.4575,128.627,-1282.88,2056.8,326.947,47.2422,25.2733,92.6923,6401.49,-1643.92,565.133,54.311,-7.92943,1.0091
3.074,18782.3,-7898.55,10975.4,-121.256,298.166,240.77,4643.72,158.813,9130.95,8.25665,-40.0979,-3.45402,-1593.58,17561.4,-1601.97,48.1289,-25.0583,381.517,-2693.16,-10939.5,2650.61,12.3411,-15.0277,41.9248,-1495.48,-8981.31,-2467.87,13.7269,-92.5314,129.618,-1216.53,2070.29,396.361,47.2035,26.7187,92.1101,6384.34,-1639.36,601.943,54.7643,-8.5558,0.583538
3.075,18839.6,-8217.26,10796.5,-116.029,297.074,238.946,4699.86,200.314,9128.84,7.96092,-40.7838,-4.67653,-1422.73,17435.3,-1755.69,49.7036,-21.5534,380.208,-2658.42,-10987.8,2593.7,12.7708,-14.042,42.2809,-1520.52,-9088.66,-2352.91,13.2522,-91.6053,130.609,-1150.19,2083.78,465.776,47.1649,28.1642,91.5279,6367.2,-1634.79,638.752,55.2177,-9.18216,0.157981
3.076,18890.1,-8459.07,10626.8,-110.655,295.771,237.39,4732.88,278.727,9120.01,7.74198,-41.4529,-5.66646,-1263.67,17345.7,-1912.88,51.2569,-17.4448,378.681,-2622.37,-11020.8,2495.75,13.076,-13.1864,42.679,-1454.4,-9221.29,-2229.83,12.9822,-90.7144,131.384,-1098.29,2115.15,515.968,47.0958,29.435,90.9932,6350.85,-1609.8,674.868,55.721,-9.89038,-0.155227
3.077,18932.0,-8604.76,10468.5,-105.099,294.207,236.17,4736.97,403.282,9102.77,7.61901,-42.101,-6.36566,-1119.37,17301.7,-2074.4,52.7835,-12.5819,376.882,-2584.69,-11034.8,2346.53,13.2255,-12.4934,43.1296,-1274.34,-9385.52,-2096.6,12.9682,-89.8673,131.889,-1064.44,2168.88,542.132,46.9888,30.4877,90.518,6335.5,-1559.29,710.116,56.2868,-10.7009,-0.327999
3.078,18974.0,-8750.44,10310.2,-99.5433,292.642,234.95,4741.07,527.837,9085.54,7.49604,-42.749,-7.06487,-975.074,17257.7,-2235.93,54.31,-7.71896,375.083,-2547.02,-11048.8,2197.3,13.3749,-11.8004,43.5801,-1094.27,-9549.75,-1963.37,12.9541,-89.0202,132.394,-1030.58,2222.62,568.297,46.8819,31.5404,90.0428,6320.14,-1508.78,745.363,56.8527,-11.5115,-0.500771
3.079,19015.9,-8896.13,10151.9,-93.9874,291.077,233.73,4745.16,652.392,9068.3,7.37307,-43.3971,-7.76407,-830.775,17213.7,-2397.45,55.8366,-2.85602,373.285,-2509.34,-11062.8,2048.08,13.5244,-11.1074,44.0306,-914.203,-9713.98,-1830.14,12.9401,-88.1731,132.899,-996.729,2276.35,594.462,46.7749,32.5931,89.5676,6304.78,-1458.26,780.611,57.4185,-12.322,-0.673543
3.08,19057.9,-9041.82,9993.57,-88.4315,289.513,232.509,4749.26,776.947,9051.06,7.2501,-44.0452,-8.46327,-686.476,17169.7,-2558.97,57.3631,2.00691,371.486,-2471.66,-11076.8,1898.85,13.6739,-10.4144,44.4811,-734.136,-9878.21,-1696.9,12.926,-87.326,133.404,-962.874,2330.08,620.626,46.6679,33.6458,89.0923,6289.42,-1407.75,815.859,57.9844,-13.1325,-0.846314
3.081,19056.1,-8946.63,9857.85,-83.0907,287.235,231.387,4727.24,908.84,8980.04,7.66802,-44.418,-8.85289,-632.559,17186.1,-2673.14,58.5711,7.83562,369.279,-2460.17,-11043.4,1704.73,13.5877,-10.0464,44.8979,-468.562,-10010.8,-1506.39,13.2965,-87.0401,133.506,-994.766,2400.76,596.388,46.4915,34.3136,88.4883,6262.69,-1401.3,815.888,58.1112,-13.8912,-0.874161
3.082,19054.3,-8851.45,9722.13,-77.7498,284.958,230.264,4705.22,1040.73,8909.02,8.08595,-44.7908,-9.24252,-578.643,17202.5,-2787.32,59.7792,13.6643,367.073,-2448.68,-11009.9,1510.6,13.5016,-9.67846,45.3147,-202.988,-10143.5,-1315.88,13.667,-86.7542,133.607,-1026.66,2471.44,572.15,46.315,34.9815,87.8844,6235.96,-1394.84,815.917,58.238,-14.6499,-0.902008
3.083,19052.4,-8756.27,9586.41,-72.409,282.68,229.141,4683.19,1172.63,8837.99,8.50387,-45.1637,-9.63214,-524.726,17218.9,-2901.49,60.9872,19.493,364.866,-2437.19,-10976.4,1316.47,13.4154,-9.31048,45.7315,62.5858,-10276.1,-1125.36,14.0375,-86.4683,133.708,-1058.55,2542.11,547.912,46.1386,35.6494,87.2804,6209.23,-1388.38,815.946,58.3648,-15.4086,-0.929855
3.084,19050.6,-8661.08,9450.69,-67.0681,280.402,228.018,4661.17,1304.52,8766.97,8.92179,-45.5365,-10.0218,-470.809,17235.4,-3015.67,62.1952,25.3218,362.659,-2425.7,-10942.9,1122.34,13.3293,-8.9425,46.1483,328.16,-10408.7,-934.849,14.408,-86.1823,133.81,-1090.44,2612.79,523.674,45.9622,36.3172,86.6764,6182.5,-1381.93,815.975,58.4916,-16.1673,-0.957702
3.085,19006.2,-8454.3,9357.48,-61.502,277.322,226.431,4622.08,1417.03,8735.67,9.3798,-45.8393,-10.2674,-483.517,17300.4,-3125.96,63.0106,31.4914,360.334,-2409.36,-10892.4,936.784,13.1723,-8.75628,46.5677,598.766,-10531.7,-729.801,14.6818,-86.5508,133.516,-1110.34,2702.83,487.784,45.9221,36.8841,86.1365,6184.26,-1381.78,817.918,58.4064,-16.9624,-0.936212
3.086,18927.7,-8158.24,9298.26,-55.7556,273.599,224.474,4569.32,1514.05,8736.14,9.86987,-46.086,-10.3978,-549.526,17404.4,-3233.16,63.5119,37.9338,357.914,-2389.15,-10828.4,758.085,12.9588,-8.71545,46.9893,873.397,-10646.9,-513.125,14.8783,-87.4429,132.906,-1120.65,2808.37,442.573,45.9912,37.3703,85.6479,6208.8,-1386.67,821.392,58.1515,-17.7866,-0.875252
3.087,18849.2,-7862.18,9239.05,-50.0093,269.877,222.517,4516.56,1611.06,8736.61,10.3599,-46.3328,-10.5282,-615.535,17508.3,-3340.35,64.0132,44.3762,355.494,-2368.93,-10764.4,579.386,12.7452,-8.67462,47.4108,1148.03,-10762.1,-296.45,15.0748,-88.335,132.297,-1130.96,2913.9,397.362,46.0602,37.8564,85.1593,6233.34,-1391.57,824.867,57.8966,-18.6108,-0.814292
3.088,18770.7,-7566.12,9179.84,-44.2629,266.154,220.559,4463.81,1708.07,8737.08,10.85,-46.5795,-10.6586,-681.543,17612.3,-3447.55,64.5144,50.8185,353.074,-2348.71,-10700.3,400.687,12.5317,-8.63379,47.8324,1422.66,-10877.3,-79.7738,15.2714,-89.227,131.687,-1141.26,3019.44,352.152,46.1293,38.3425,84.6707,6257.88,-1396.46,828.341,57.6416,-19.435,-0.753332
3.089,18693.5,-7239.52,9124.51,-38.9542,262.352,218.818,4414.5,1807.53,8735.58,11.3566,-46.8281,-10.7581,-760.969,17723.1,-3540.22,64.9571,57.2276,350.663,-2331.55,-10637.4,224.264,12.3055,-8.6375,48.259,1694.5,-10985.3,129.765,15.5106,-90.2441,131.034,-1143.32,3125.3,305.603,46.2737,38.8652,84.1944,6279.56,-1401.2,834.884,57.4037,-20.2489,-0.692838
3.09,18626.5,-6668.56,9100.2,-37.1466,257.911,218.812,4392.74,1926.55,8718.22,11.9954,-47.092,-10.6096,-947.733,17888.5,-3516.72,64.9311,63.3697,348.323,-2338.92,-10583.1,66.0462,11.9783,-8.99745,48.7266,1944.01,-11035.5,282.205,16.0913,-92.2613,130.033,-1079.42,3233.76,248.353,47.0204,39.6806,83.8163,6278.36,-1404.66,865.98,57.3016,-20.9806,-0.636072
3.091,18559.4,-6097.6,9075.89,-35.339,253.47,218.806,4370.99,2045.57,8700.87,12.6341,-47.3559,-10.4612,-1134.5,18053.8,-3493.21,64.905,69.5118,345.983,-2346.29,-10528.9,-92.1718,11.6512,-9.3574,49.1942,2193.53,-11085.6,434.646,16.672,-94.2785,129.032,-1015.51,3342.22,191.102,47.7672,40.4961,83.4381,6277.16,-1408.12,897.077,57.1995,-21.7123,-0.579306
3.092,18492.4,-5526.65,9051.59,-33.5315,249.028,218.799,4349.24,2164.59,8683.52,13.2729,-47.6198,-10.3128,-1321.26,18219.2,-3469.7,64.8789,75.654,343.643,-2353.66,-10474.6,-250.39,11.324,-9.71735,49.6618,2443.04,-11135.8,587.086,17.2528,-96.2956,128.032,-951.607,3450.67,133.852,48.514,41.3115,83.06,6275.96,-1411.59,928.173,57.0974,-22.4439,-0.52254
3.093,18425.3,-4955.69,9027.28,-31.7239,244.587,218.793,4327.48,2283.61,8666.17,13.9116,-47.8837,-10.1644,-1508.03,18384.5,-3446.2,64.8529,81.7961,341.303,-2361.03,-10420.4,-408.608,10.9969,-10.0773,50.1294,2692.56,-11186.0,739.527,17.8335,-98.3128,127.031,-887.701,3559.13,76.6012,49.2607,42.1269,82.6818,6274.76,-1415.05,959.269,56.9953,-23.1756,-0.465775
3.094,18432.0,-4386.77,8974.0,-33.711,240.252,221.207,4321.82,2408.9,8659.13,14.5367,-48.2608,-9.87278,-1754.79,18536.5,-3347.67,64.8616,87.415,339.112,-2368.95,-10392.9,-536.388,10.689,-10.6869,50.5688,2884.24,-11212.0,839.035,18.3549,-100.883,125.684,-789.682,3671.94,56.5374,49.7822,42.9168,82.0871,6269.45,-1442.43,1006.84,57.1866,-23.7474,-0.57158
3.095,18475.4,-3818.86,8906.23,-37.5956,235.97,224.831,4324.21,2537.32,8657.25,15.155,-48.6945,-9.50949,-2031.55,18681.6,-3211.63,64.8877,92.7723,336.994,-2377.14,-10378.7,-648.949,10.3908,-11.4213,50.9942,3047.0,-11225.9,912.078,18.8467,-103.73,124.164,-674.607,3786.92,55.0669,50.1911,43.6938,81.384,6262.09,-1481.77,1062.64,57.5247,-24.2391,-0.758671
3.096,18518.9,-3250.95,8838.45,-41.4801,231.688,228.454,4326.59,2665.75,8655.38,15.7733,-49.1283,-9.14621,-2308.31,18826.8,-3075.59,64.9138,98.1296,334.877,-2385.34,-10364.5,-761.51,10.0926,-12.1557,51.4196,3209.76,-11239.8,985.121,19.3385,-106.577,122.644,-559.532,3901.9,53.5964,50.6,44.4709,80.681,6254.72,-1521.11,1118.44,57.8628,-24.7309,-0.945763
3.097,18562.4,-2683.04,8770.68,-45.3646,227.406,232.078,4328.98,2794.17,8653.5,16.3916,-49.562,-8.78293,-2585.07,18972.0,-2939.56,64.9398,103.487,332.759,-2393.54,-10350.4,-874.072,9.79439,-12.8901,51.845,3372.52,-11253.7,1058.16,19.8303,-109.425,121.123,-444.456,4016.89,52.1259,51.0089,45.2479,79.9779,6247.36,-1560.45,1174.24,58.2009,-25.2227,-1.13285
3.098,18609.5,-2229.91,8696.9,-48.4286,223.104,235.245,4334.9,2908.86,8649.33,16.9728,-49.9988,-8.37761,-2873.71,19108.5,-2804.21,64.9583,108.654,330.695,-2398.97,-10347.4,-973.875,9.53404,-13.6324,52.2784,3525.63,-11259.3,1109.53,20.3995,-112.428,119.614,-314.268,4140.53,62.9533,51.1167,46.0531,79.2376,6239.94,-1598.23,1225.74,58.6189,-25.8048,-1.34185
3.099,18669.2,-2178.49,8602.1,-48.621,218.73,236.811,4353.18,2975.52,8637.14,17.4243,-50.446,-7.82515,-3203.97,19214.3,-2671.28,64.9499,113.154,328.818,-2394.74,-10383.4,-1029.02,9.40621,-14.4023,52.74,3644.96,-11236.2,1085.05,21.2393,-115.98,118.142,-131.187,4294.49,116.824,50.1711,46.957,78.3668,6232.32,-1630.56,1262.17,59.3165,-26.7028,-1.6275
3.1,18728.9,-2127.07,8507.3,-48.8133,214.357,238.377,4371.47,3042.17,8624.94,17.8759,-50.8933,-7.27268,-3534.23,19320.2,-2538.36,64.9415,117.654,326.94,-2390.52,-10419.4,-1084.17,9.27837,-15.1722,53.2015,3764.3,-11213.0,1060.56,22.0792,-119.531,116.671,51.895,4448.45,170.694,49.2255,47.8609,77.4961,6224.7,-1662.9,1298.6,60.0141,-27.6009,-1.91316
3.101,18788.7,-2075.65,8412.5,-49.0057,209.984,239.943,4389.75,3108.82,8612.75,18.3274,-51.3405,-6.72022,-3864.48,19426.0,-2405.43,64.9331,122.154,325.063,-2386.29,-10455.4,-1139.32,9.15054,-15.9422,53.663,3883.63,-11189.9,1036.08,22.919,-123.083,115.199,234.977,4602.4,224.564,48.2799,48.7648,76.6253,6217.07,-1695.23,1335.03,60.7117,-28.499,-2.19882
3.102,18848.4,-2024.23,8317.7,-49.1981,205.61,241.508,4408.03,3175.47,8600.56,18.779,-51.7877,-6.16776,-4194.74,19531.9,-2272.5,64.9247,126.654,323.186,-2382.06,-10491.4,-1194.47,9.0227,-16.7121,54.1246,4002.96,-11166.7,1011.6,23.7589,-126.634,113.727,418.059,4756.36,278.434,47.3343,49.6687,75.7546,6209.45,-1727.57,1371.46,61.4093,-29.397,-2.48447
3.103,18980.7,-2131.77,8221.34,-48.8081,201.619,242.033,4410.05,3232.68,8598.21,19.0479,-52.3618,-5.75614,-4517.16,19602.2,-2196.46,64.8355,130.538,321.28,-2350.2,-10558.6,-1248.82,9.04386,-17.2729,54.5891,4059.98,-11159.9,876.396,24.417,-129.955,112.31,631.355,4889.01,317.902,46.3369,51.7807,75.0776,6198.64,-1735.4,1379.55,61.8715,-30.1064,-2.96767
3.104,19133.9,-2284.72,8124.53,-48.2516,197.738,242.261,4407.41,3287.2,8598.67,19.2647,-52.9721,-5.38475,-4837.34,19662.3,-2136.68,64.7234,134.245,319.367,-2310.43,-10634.6,-1302.94,9.10759,-17.774,55.0545,4099.19,-11157.9,709.564,25.0232,-133.209,110.909,853.284,5015.56,353.254,45.3247,54.2378,74.4561,6186.91,-1736.22,1379.55,62.2665,-30.7618,-3.50731
3.105,19287.0,-2437.68,8027.72,-47.6952,193.857,242.489,4404.77,3341.72,8599.13,19.4816,-53.5824,-5.01337,-5157.52,19722.5,-2076.9,64.6112,137.952,317.453,-2270.67,-10710.6,-1357.07,9.17132,-18.2751,55.5198,4138.41,-11155.8,542.733,25.6294,-136.463,109.508,1075.21,5142.12,388.607,44.3126,56.695,73.8346,6175.19,-1737.05,1379.54,62.6616,-31.4173,-4.04695
3.106,19440.1,-2590.64,7930.92,-47.1388,189.976,242.717,4402.14,3396.23,8599.59,19.6984,-54.1927,-4.64198,-5477.7,19782.6,-2017.11,64.499,141.66,315.54,-2230.9,-10786.6,-1411.19,9.23505,-18.7762,55.9852,4177.62,-11153.7,375.901,26.2356,-139.717,108.107,1297.14,5268.68,423.959,43.3004,59.1521,73.2131,6163.47,-1737.87,1379.53,63.0566,-32.0727,-4.58659
3.107,19602.9,-2761.63,7842.04,-46.8302,186.293,243.065,4397.71,3460.81,8604.86,19.9072,-54.8249,-4.23091,-5783.14,19829.8,-1966.6,64.3315,145.142,313.593,-2174.16,-10859.9,-1466.68,9.33642,-19.1598,56.4674,4201.71,-11133.8,189.585,26.9051,-142.591,106.733,1525.88,5392.43,476.59,41.9304,61.8379,72.6222,6167.21,-1725.96,1360.14,63.4096,-32.7224,-5.01688
3.108,19784.8,-2968.69,7769.03,-47.0173,183.008,243.656,4389.69,3545.52,8619.76,20.1,-55.5008,-3.74048,-6059.07,19850.9,-1934.66,64.0531,148.173,311.578,-2083.46,-10927.8,-1524.9,9.51305,-19.3083,56.9834,4195.53,-11078.1,-35.6977,27.7013,-144.706,105.415,1768.22,5510.56,563.777,39.8449,64.9811,72.0928,6201.89,-1688.59,1301.97,63.6786,-33.3608,-5.22846
3.109,19966.7,-3175.76,7696.03,-47.2045,179.724,244.247,4381.67,3630.23,8634.66,20.2927,-56.1767,-3.25006,-6335.0,19872.0,-1902.71,63.7747,151.204,309.563,-1992.76,-10995.8,-1583.12,9.68968,-19.4569,57.4993,4189.35,-11022.3,-260.981,28.4975,-146.821,104.097,2010.56,5628.7,650.963,37.7594,68.1242,71.5634,6236.56,-1651.21,1243.81,63.9476,-33.9991,-5.44005
3.11,20148.6,-3382.82,7623.02,-47.3916,176.439,244.837,4373.65,3714.94,8649.55,20.4855,-56.8526,-2.75963,-6610.93,19893.1,-1870.76,63.4964,154.235,307.548,-1902.06,-11063.7,-1641.34,9.8663,-19.6054,58.0153,4183.18,-10966.6,-486.264,29.2936,-148.936,102.779,2252.9,5746.84,738.15,35.6738,71.2674,71.034,6271.24,-1613.84,1185.65,64.2166,-34.6375,-5.65163
3.111,20330.6,-3589.89,7550.01,-47.5787,173.154,245.428,4365.63,3799.65,8664.45,20.6783,-57.5285,-2.2692,-6886.86,19914.3,-1838.81,63.218,157.266,305.533,-1811.36,-11131.6,-1699.56,10.0429,-19.754,58.5312,4177.0,-10910.9,-711.547,30.0898,-151.051,101.461,2495.24,5864.97,825.337,33.5883,74.4106,70.5045,6305.91,-1576.46,1127.48,64.4855,-35.2758,-5.86322
3.112,20577.5,-3739.32,7462.98,-46.5511,170.056,246.712,4344.14,3829.03,8640.17,20.8838,-58.1357,-1.69935,-7116.72,19902.1,-1752.19,62.8815,159.468,303.441,-1752.65,-11146.5,-1746.73,10.2573,-19.5864,59.1746,4137.53,-10873.3,-1028.85,30.8201,-152.364,100.182,2739.97,6034.57,929.806,29.6328,77.3324,70.2994,6297.95,-1562.62,1049.11,65.1061,-35.5104,-6.10692
3.113,20832.6,-3881.55,7374.2,-45.3717,166.982,248.083,4320.96,3851.49,8611.0,21.0908,-58.7342,-1.11957,-7340.82,19885.9,-1658.74,62.5376,161.565,301.339,-1697.94,-11154.8,-1792.53,10.4764,-19.3792,59.8339,4093.89,-10838.0,-1357.66,31.542,-153.576,98.9068,2985.0,6210.6,1036.43,25.4436,80.2266,70.1348,6284.65,-1551.72,968.206,65.7705,-35.6946,-6.35464
3.114,21087.7,-4023.78,7285.41,-44.1923,163.908,249.454,4297.79,3873.96,8581.83,21.2979,-59.3328,-0.539799,-7564.92,19869.6,-1565.29,62.1938,163.663,299.238,-1643.23,-11163.1,-1838.33,10.6955,-19.1721,60.4931,4050.25,-10802.6,-1686.47,32.264,-154.789,97.632,3230.03,6386.63,1143.06,21.2543,83.1207,69.9703,6271.35,-1540.83,887.304,66.435,-35.8787,-6.60236
3.115,21342.8,-4166.01,7196.63,-43.0128,160.833,250.825,4274.61,3896.42,8552.66,21.5049,-59.9313,0.0399756,-7789.02,19853.3,-1471.83,61.85,165.76,297.136,-1588.52,-11171.4,-1884.12,10.9146,-18.965,61.1524,4006.61,-10767.3,-2015.28,32.986,-156.001,96.3572,3475.06,6562.66,1249.69,17.0651,86.0149,69.8057,6258.06,-1529.93,806.402,67.0994,-36.0628,-6.85008
3.116,21610.0,-4262.78,7112.54,-41.2088,157.788,252.337,4265.45,3901.97,8526.54,21.6709,-60.4703,0.564315,-8000.6,19843.8,-1375.39,61.426,167.565,294.961,-1547.54,-11165.1,-1920.95,11.138,-18.6961,61.8446,3981.57,-10730.8,-2345.23,33.7071,-156.387,95.1919,3693.37,6725.23,1344.98,12.5727,89.2577,69.9786,6271.22,-1497.38,703.015,68.0289,-35.933,-7.09272
3.117,21892.4,-4302.7,7034.33,-38.6241,154.778,254.024,4273.8,3886.38,8504.24,21.7856,-60.9348,1.01936,-8196.53,19842.7,-1275.2,60.902,169.004,292.692,-1523.73,-11140.4,-1946.55,11.3669,-18.3499,62.5778,3979.78,-10692.8,-2676.6,34.427,-155.738,94.1633,3878.26,6870.96,1426.09,7.70135,92.9365,70.5735,6317.45,-1437.76,571.523,69.2897,-35.4106,-7.329
3.118,22174.8,-4342.63,6956.12,-36.0394,151.768,255.711,4282.16,3870.78,8481.94,21.9003,-61.3993,1.47441,-8392.46,19841.7,-1175.01,60.3779,170.442,290.423,-1499.93,-11115.8,-1972.15,11.5957,-18.0038,63.311,3977.99,-10654.9,-3007.97,35.147,-155.09,93.1348,4063.14,7016.7,1507.2,2.83004,96.6153,71.1683,6363.68,-1378.14,440.031,70.5505,-34.8883,-7.56529
3.119,22457.1,-4382.56,6877.91,-33.4546,148.758,257.399,4290.51,3855.19,8459.63,22.015,-61.8637,1.92945,-8588.39,19840.6,-1074.82,59.8538,171.881,288.155,-1476.12,-11091.1,-1997.75,11.8246,-17.6576,64.0442,3976.2,-10616.9,-3339.34,35.8669,-154.442,92.1062,4248.03,7162.44,1588.31,-2.04128,100.294,71.7631,6409.92,-1318.52,308.539,71.8113,-34.3659,-7.80157
3.12,22739.5,-4422.48,6799.69,-30.8699,145.749,259.086,4298.87,3839.6,8437.33,22.1297,-62.3282,2.3845,-8784.32,19839.5,-974.632,59.3298,173.32,285.886,-1452.31,-11066.5,-2023.36,12.0534,-17.3115,64.7774,3974.41,-10578.9,-3670.72,36.5869,-153.794,91.0776,4432.92,7308.17,1669.42,-6.91259,103.973,72.358,6456.15,-1258.9,177.047,73.0721,-33.8436,-8.03785
3.121,22965.4,-4352.19,6745.92,-27.5211,142.744,260.745,4337.12,3810.1,8452.89,22.233,-62.9135,2.77098,-8953.56,19853.3,-884.057,58.3805,174.207,283.282,-1473.91,-11039.2,-2020.24,12.2178,-17.0356,65.3988,3992.74,-10469.8,-3965.44,37.0868,-151.206,90.5476,4604.92,7399.44,1741.45,-10.8595,107.867,73.1509,6485.85,-1197.92,32.4038,74.1577,-32.8518,-7.38619
3.122,23191.3,-4281.9,6692.14,-24.1723,139.739,262.404,4375.38,3780.61,8468.45,22.3362,-63.4988,3.15746,-9122.8,19867.2,-793.481,57.4313,175.094,280.677,-1495.5,-11011.8,-2017.13,12.3821,-16.7597,66.0203,4011.06,-10360.6,-4260.17,37.5868,-148.617,90.0176,4776.91,7490.71,1813.49,-14.8064,111.761,73.9437,6515.54,-1136.93,-112.24,75.2432,-31.8599,-6.73452
3.123,23417.1,-4211.6,6638.36,-20.8236,136.734,264.062,4413.63,3751.11,8484.01,22.4394,-64.084,3.54395,-9292.03,19881.0,-702.906,56.4821,175.981,278.073,-1517.1,-10984.4,-2014.02,12.5464,-16.4838,66.6418,4029.38,-10251.4,-4554.9,38.0868,-146.029,89.4876,4948.9,7581.97,1885.53,-18.7533,115.655,74.7366,6545.24,-1075.95,-256.883,76.3288,-30.8681,-6.08285
3.124,23643.0,-4141.31,6584.58,-17.4748,133.73,265.721,4451.88,3721.62,8499.57,22.5426,-64.6693,3.93043,-9461.27,19894.8,-612.331,55.5329,176.867,275.468,-1538.7,-10957.1,-2010.91,12.7108,-16.208,67.2632,4047.71,-10142.3,-4849.63,38.5868,-143.44,88.9576,5120.9,7673.24,1957.56,-22.7003,119.549,75.5295,6574.94,-1014.97,-401.527,77.4143,-29.8763,-5.43118
3.125,23819.1,-4010.37,6499.56,-13.9629,130.565,267.479,4481.64,3719.52,8500.54,22.7144,-65.2934,4.34265,-9619.89,19928.4,-529.767,54.5347,177.682,272.794,-1575.22,-10940.2,-1996.98,12.7531,-16.0254,67.8559,4074.92,-10045.9,-5151.25,38.868,-139.994,88.4548,5302.66,7760.27,2021.17,-25.7004,123.052,76.1849,6629.7,-974.905,-498.796,78.5592,-28.6872,-4.90821
3.126,23955.4,-3830.9,6389.52,-10.3207,127.272,269.317,4504.6,3739.34,8489.83,22.9411,-65.9486,4.77545,-9770.0,19977.7,-453.612,53.4975,178.439,270.064,-1623.69,-10931.8,-1974.39,12.6979,-15.9175,68.4254,4109.23,-9959.7,-5458.38,38.9744,-135.861,87.9738,5492.25,7843.91,2078.03,-27.943,126.242,76.7304,6704.5,-951.578,-558.166,79.7515,-27.3404,-4.48821
3.127,24091.7,-3651.43,6279.49,-6.67842,123.98,271.155,4527.55,3759.17,8479.12,23.1678,-66.6037,5.20825,-9920.12,20027.0,-377.457,52.4602,179.196,267.333,-1672.15,-10923.4,-1951.81,12.6426,-15.8095,68.995,4143.54,-9873.51,-5765.51,39.0808,-131.729,87.4927,5681.84,7927.55,2134.9,-30.1856,129.432,77.2759,6779.31,-928.252,-617.537,80.9438,-25.9936,-4.0682
3.128,24228.0,-3471.96,6169.46,-3.03615,120.687,272.993,4550.51,3778.99,8468.41,23.3944,-67.2589,5.64106,-10070.2,20076.3,-301.302,51.423,179.952,264.603,-1720.62,-10914.9,-1929.22,12.5874,-15.7016,69.5646,4177.86,-9787.33,-6072.65,39.1871,-127.596,87.0117,5871.42,8011.19,2191.76,-32.4282,132.623,77.8215,6854.11,-904.926,-676.907,82.1362,-24.6468,-3.6482
3.129,24359.7,-3287.62,6059.34,0.623288,117.367,274.846,4571.17,3797.06,8453.29,23.6011,-67.9001,6.07361,-10223.4,20125.2,-231.407,50.3609,180.73,261.828,-1768.42,-10906.4,-1908.76,12.5618,-15.6123,70.1458,4220.15,-9696.75,-6361.83,39.2385,-123.381,86.5756,6049.72,8077.74,2245.9,-34.4844,135.649,78.2758,6927.08,-876.428,-738.217,83.3156,-23.2473,-3.17869
3.13,24454.5,-3064.31,5948.53,4.42015,113.82,276.822,4573.4,3801.12,8402.93,23.6479,-68.4298,6.50413,-10401.3,20170.7,-211.596,49.1005,181.677,258.699,-1810.91,-10897.2,-1905.22,12.7737,-15.6727,70.8196,4326.2,-9571.04,-6507.38,38.8498,-118.501,86.4984,6137.71,8007.5,2278.29,-35.0494,137.363,78.0009,6985.38,-806.564,-815.044,84.3915,-21.4261,-2.31322
3.131,24549.3,-2841.0,5837.73,8.21702,110.274,278.798,4575.64,3805.18,8352.58,23.6948,-68.9594,6.93465,-10579.2,20216.1,-191.784,47.8401,182.623,255.571,-1853.4,-10888.0,-1901.69,12.9857,-15.733,71.4933,4432.26,-9445.33,-6652.94,38.4612,-113.621,86.4213,6225.7,7937.26,2310.67,-35.6144,139.077,77.726,7043.69,-736.7,-891.872,85.4675,-19.6049,-1.44774
3.132,24644.1,-2617.69,5726.92,12.0139,106.727,280.773,4577.87,3809.24,8302.22,23.7416,-69.489,7.36517,-10757.0,20261.6,-171.972,46.5796,183.569,252.442,-1895.9,-10878.9,-1898.16,13.1976,-15.7933,72.1671,4538.32,-9319.61,-6798.49,38.0726,-108.741,86.3442,6313.69,7867.02,2343.06,-36.1795,140.791,77.4511,7102.0,-666.835,-968.7,86.5435,-17.7837,-0.582259
3.133,24739.0,-2394.38,5616.11,15.8107,103.181,282.749,4580.11,3813.3,8251.86,23.7884,-70.0186,7.7957,-10934.9,20307.1,-152.161,45.3192,184.515,249.313,-1938.39,-10869.7,-1894.63,13.4095,-15.8536,72.8409,4644.38,-9193.9,-6944.04,37.684,-103.861,86.2671,6401.69,7796.78,2375.44,-36.7445,142.505,77.1762,7160.3,-596.971,-1045.53,87.6194,-15.9626,0.283219
3.134,24840.0,-2111.01,5503.85,19.027,99.7018,284.631,4598.65,3809.7,8235.09,23.8689,-70.5852,8.19455,-11122.8,20335.6,-155.193,43.8834,185.416,246.044,-1956.86,-10865.6,-1882.79,13.69,-15.9179,73.5669,4775.44,-9079.49,-7003.1,37.249,-98.7511,86.4207,6596.3,7836.88,2381.2,-36.5017,142.171,76.6207,7242.75,-564.141,-1058.6,87.8502,-14.5725,1.35563
3.135,24944.3,-1797.61,5390.87,21.953,96.2561,286.467,4625.33,3802.26,8235.1,23.9663,-71.1702,8.57757,-11315.6,20355.5,-169.647,42.36,186.295,242.704,-1963.32,-10864.1,-1866.79,14.0048,-15.9843,74.319,4918.99,-8970.74,-7018.91,36.7907,-93.5258,86.6898,6844.24,7932.13,2373.66,-35.8552,140.813,75.925,7337.26,-549.828,-1039.79,87.6583,-13.3979,2.53151
3.136,25048.5,-1484.21,5277.89,24.879,92.8105,288.302,4652.02,3794.83,8235.12,24.0637,-71.7553,8.96059,-11508.5,20375.4,-184.101,40.8366,187.173,239.365,-1969.78,-10862.6,-1850.8,14.3196,-16.0507,75.0712,5062.55,-8861.99,-7034.72,36.3325,-88.3004,86.9589,7092.17,8027.38,2366.11,-35.2086,139.455,75.2293,7431.77,-535.515,-1020.98,87.4665,-12.2234,3.70739
3.137,25152.7,-1170.81,5164.91,27.8051,89.3648,290.137,4678.71,3787.4,8235.13,24.1611,-72.3404,9.34361,-11701.3,20395.3,-198.555,39.3131,188.052,236.026,-1976.24,-10861.0,-1834.81,14.6344,-16.1171,75.8233,5206.11,-8753.24,-7050.53,35.8742,-83.075,87.228,7340.1,8122.64,2358.56,-34.562,138.097,74.5336,7526.28,-521.203,-1002.17,87.2747,-11.0488,4.88327
3.138,25260.8,-837.177,5041.02,30.448,86.0342,291.87,4701.94,3783.43,8235.62,24.2579,-72.9235,9.72556,-11905.3,20403.1,-215.377,37.8002,188.811,232.595,-1975.04,-10860.3,-1820.07,14.9412,-16.1533,76.5951,5341.62,-8634.67,-7033.94,35.2886,-78.0446,87.5475,7609.33,8219.81,2342.32,-33.5373,135.969,73.7693,7619.03,-497.382,-998.665,86.9965,-9.80062,6.02947
3.139,25382.7,-432.738,4878.95,32.1002,83.1062,293.244,4713.08,3791.6,8237.73,24.3524,-73.4998,10.1038,-12148.5,20368.6,-240.488,36.3242,189.154,228.845,-1947.05,-10862.5,-1809.75,15.2199,-16.0842,77.4359,5449.0,-8481.75,-6903.91,34.2573,-73.6966,88.0435,7953.09,8323.71,2295.67,-31.1894,131.145,72.7652,7705.63,-440.286,-1048.72,86.4164,-8.29465,7.07182
3.14,25504.7,-28.2998,4716.88,33.7525,80.1781,294.618,4724.23,3799.76,8239.84,24.4469,-74.076,10.482,-12391.6,20334.0,-265.599,34.8482,189.497,225.096,-1919.05,-10864.8,-1799.43,15.4986,-16.0151,78.2767,5556.37,-8328.84,-6773.89,33.2259,-69.3485,88.5396,8296.84,8427.6,2249.03,-28.8415,126.321,71.7611,7792.22,-383.189,-1098.77,85.8363,-6.78866,8.11417
3.141,25626.6,376.139,4554.81,35.4047,77.2501,295.993,4735.37,3807.93,8241.95,24.5414,-74.6523,10.8602,-12634.8,20299.5,-290.71,33.3722,189.84,221.346,-1891.05,-10867.0,-1789.11,15.7773,-15.946,79.1176,5663.75,-8175.92,-6643.86,32.1946,-65.0004,89.0357,8640.6,8531.5,2202.38,-26.4936,121.497,70.757,7878.82,-326.093,-1148.82,85.2562,-5.28268,9.15651
3.142,25748.5,780.577,4392.74,37.057,74.3221,297.367,4746.51,3816.09,8244.06,24.6359,-75.2286,11.2385,-12877.9,20264.9,-315.821,31.8963,190.183,217.596,-1863.05,-10869.2,-1778.79,16.056,-15.8769,79.9584,5771.12,-8023.01,-6513.84,31.1632,-60.6523,89.5318,8984.36,8635.39,2155.74,-24.1457,116.673,69.7529,7965.42,-268.997,-1198.88,84.6761,-3.7767,10.1989
3.143,25890.1,1154.95,4168.65,38.5108,71.6982,298.102,4735.64,3816.12,8235.14,24.7163,-75.7507,11.6023,-13121.1,20177.3,-414.339,30.5329,190.181,213.747,-1801.04,-10845.4,-1759.76,16.4045,-15.705,80.7181,5872.42,-7901.12,-6317.18,30.2698,-57.2426,89.9836,9252.07,8599.85,2064.35,-20.2074,110.232,67.9643,8065.5,-267.193,-1245.19,84.6718,-2.13971,11.2765
3.144,26037.4,1520.72,3926.84,39.908,69.1612,298.655,4718.46,3813.83,8223.07,24.7927,-76.2573,11.962,-13364.2,20074.6,-533.83,29.2017,190.081,209.869,-1729.3,-10814.3,-1738.23,16.773,-15.5039,81.4546,5971.98,-7788.1,-6101.48,29.4157,-54.1009,90.4227,9498.06,8524.48,1960.18,-15.8147,103.328,65.9515,8169.44,-281.187,-1290.44,84.8322,-0.465292,12.3643
3.145,26184.7,1886.5,3685.03,41.3051,66.6243,299.208,4701.29,3811.54,8211.0,24.8692,-76.7639,12.3218,-13607.4,19971.8,-653.322,27.8705,189.98,205.992,-1657.57,-10783.1,-1716.7,17.1415,-15.3027,82.1911,6071.53,-7675.08,-5885.78,28.5616,-50.9592,90.8618,9744.05,8449.1,1856.01,-11.4221,96.4238,63.9387,8273.37,-295.182,-1335.69,84.9925,1.20913,13.452
3.146,26332.0,2252.28,3443.22,42.7023,64.0873,299.761,4684.12,3809.24,8198.94,24.9456,-77.2705,12.6815,-13850.5,19869.1,-772.814,26.5394,189.88,202.114,-1585.83,-10751.9,-1695.18,17.5099,-15.1016,82.9276,6171.09,-7562.05,-5670.08,27.7075,-47.8175,91.301,9990.03,8373.73,1751.84,-7.02942,89.5199,61.926,8377.31,-309.176,-1380.94,85.1528,2.88355,14.5397
3.147,26486.5,2583.61,3182.37,44.1755,61.671,299.853,4680.7,3800.06,8194.07,25.0459,-77.7914,13.0417,-14083.6,19739.7,-924.799,25.3067,189.662,198.206,-1534.28,-10717.6,-1677.08,17.8581,-14.8562,83.6868,6250.13,-7458.16,-5433.84,26.681,-45.0216,91.8073,10210.9,8313.91,1625.02,-2.39392,82.6697,59.6243,8497.96,-313.749,-1401.08,84.95,4.42193,15.663
3.148,26655.3,2846.02,2883.43,45.8006,59.4958,299.024,4704.78,3777.1,8203.58,25.1939,-78.3409,13.4029,-14296.7,19557.1,-1141.77,24.271,189.21,194.236,-1523.07,-10676.9,-1665.85,18.1657,-14.5225,84.4915,6288.11,-7372.53,-5156.53,25.3098,-42.9173,92.4481,10381.4,8285.21,1452.91,2.72725,75.9267,56.7448,8652.03,-299.481,-1370.97,84.0209,5.68822,16.8573
3.149,26824.1,3108.44,2584.5,47.4258,57.3206,298.194,4728.86,3754.14,8213.1,25.342,-78.8904,13.764,-14509.8,19374.4,-1358.74,23.2352,188.758,190.267,-1511.86,-10636.3,-1654.61,18.4733,-14.1887,85.2961,6326.1,-7286.91,-4879.22,23.9386,-40.8129,93.0888,10551.9,8256.5,1280.8,7.84842,69.1837,53.8652,8806.1,-285.213,-1340.87,83.0918,6.9545,18.0515
3.15,26992.9,3370.85,2285.56,49.051,55.1454,297.365,4752.94,3731.18,8222.62,25.4901,-79.4399,14.1252,-14722.9,19191.8,-1575.72,22.1995,188.305,186.298,-1500.66,-10595.7,-1643.37,18.781,-13.855,86.1008,6364.09,-7201.28,-4601.91,22.5674,-38.7086,93.7296,10722.4,8227.8,1108.69,12.9696,62.4407,50.9857,8960.18,-270.945,-1310.76,82.1627,8.22079,19.2458
3.151,27161.7,3633.27,1986.63,50.6761,52.9702,296.535,4777.02,3708.22,8232.13,25.6382,-79.9895,14.4863,-14936.0,19009.2,-1792.69,21.1638,187.853,182.328,-1489.45,-10555.0,-1632.14,19.0886,-13.5212,86.9055,6402.08,-7115.65,-4324.6,21.1962,-36.6043,94.3703,10892.9,8199.09,936.576,18.0908,55.6977,48.1061,9114.25,-256.677,-1280.66,81.2336,9.48708,20.44
3.152,27335.5,3815.15,1640.53,52.5119,51.256,293.99,4794.98,3652.04,8240.4,25.8154,-80.6234,14.7389,-15143.5,18762.2,-2082.64,20.4318,187.572,178.271,-1474.15,-10526.1,-1609.64,19.3846,-13.0792,87.7984,6383.51,-7089.38,-4067.82,20.0891,-35.6842,94.5971,11035.2,8261.8,729.487,22.1577,50.7066,45.1037,9228.06,-192.769,-1241.27,78.1937,10.2084,21.657
3.153,27509.9,3986.97,1288.54,54.374,49.5994,291.229,4812.17,3591.7,8248.5,25.9964,-81.2678,14.9779,-15350.3,18507.1,-2381.72,19.7378,187.313,174.203,-1458.34,-10498.7,-1585.73,19.6792,-12.6237,88.7024,6357.88,-7070.53,-3813.6,19.0149,-34.9122,94.7722,11174.0,8335.94,518.025,26.0929,45.9344,42.0859,9336.85,-122.656,-1200.72,74.8899,10.8616,22.8768
3.154,27684.2,4158.78,936.554,56.2361,47.9428,288.469,4829.37,3531.35,8256.61,26.1773,-81.9123,15.2169,-15557.1,18252.0,-2680.79,19.0437,187.053,170.134,-1442.53,-10471.2,-1561.82,19.9737,-12.1681,89.6064,6332.25,-7051.68,-3559.38,17.9408,-34.1402,94.9473,11312.8,8410.07,306.563,30.0281,41.1622,39.0681,9445.63,-52.5428,-1160.16,71.5862,11.5148,24.0966
3.155,27858.6,4330.6,584.565,58.0982,46.2861,285.709,4846.56,3471.01,8264.72,26.3582,-82.5568,15.4559,-15764.0,17996.9,-2979.87,18.3496,186.794,166.066,-1426.72,-10443.8,-1537.91,20.2683,-11.7126,90.5104,6306.62,-7032.83,-3305.17,16.8667,-33.3682,95.1223,11451.6,8484.21,95.1012,33.9633,36.3901,36.0503,9554.41,17.5702,-1119.61,68.2824,12.168,25.3164
3.156,28050.0,4546.29,214.051,59.4873,44.84,282.428,4855.84,3449.1,8289.5,26.5368,-83.2513,15.758,-15991.1,17721.7,-3283.93,17.8911,186.396,161.96,-1420.39,-10434.6,-1513.56,20.5728,-11.3189,91.4351,6269.73,-7027.32,-3106.16,16.1127,-32.8324,95.1704,11593.9,8620.19,-112.852,36.5824,33.1033,33.1727,9655.71,95.6888,-1085.17,64.0961,12.8372,26.6089
3.157,28262.7,4816.83,-179.622,60.2852,43.6571,278.497,4855.23,3475.22,8335.12,26.7126,-84.0084,16.139,-16243.7,17421.5,-3594.24,17.7271,185.824,157.808,-1425.91,-10448.0,-1488.66,20.8896,-11.0026,92.3856,6218.76,-7038.49,-2976.17,15.7589,-32.5918,95.0598,11740.8,8833.47,-316.42,37.5563,31.6732,30.4702,9747.67,183.814,-1058.38,58.8064,13.5266,27.9922
3.158,28475.4,5087.37,-573.295,61.0831,42.4741,274.565,4854.61,3501.34,8380.74,26.8883,-84.7655,16.5201,-16496.2,17121.3,-3904.55,17.563,185.252,153.655,-1431.42,-10461.5,-1463.76,21.2064,-10.6863,93.3361,6167.79,-7049.66,-2846.18,15.405,-32.3512,94.9492,11887.7,9046.75,-519.988,38.5303,30.2431,27.7678,9839.62,271.94,-1031.58,53.5168,14.216,29.3755
3.159,28688.0,5357.91,-966.968,61.8811,41.2911,270.634,4854.0,3527.45,8426.36,27.064,-85.5225,16.9011,-16748.7,16821.1,-4214.86,17.399,184.68,149.502,-1436.94,-10475.0,-1438.86,21.5233,-10.37,94.2866,6116.82,-7060.82,-2716.19,15.0512,-32.1107,94.8385,12034.5,9260.03,-723.556,39.5042,28.813,25.0653,9931.58,360.066,-1004.79,48.2272,14.9054,30.7588
3.16,28900.7,5628.46,-1360.64,62.679,40.1082,266.702,4853.39,3553.57,8471.98,27.2398,-86.2796,17.2821,-17001.3,16520.9,-4525.17,17.2349,184.107,145.349,-1442.46,-10488.5,-1413.96,21.8401,-10.0537,95.2371,6065.85,-7071.99,-2586.2,14.6973,-31.8701,94.7279,12181.4,9473.31,-927.124,40.4782,27.3829,22.3629,10023.5,448.191,-977.993,42.9375,15.5947,32.1421
3.161,29073.4,5946.89,-1738.39,62.5742,38.9631,261.746,4852.33,3622.48,8485.5,27.3218,-87.1586,17.723,-17343.3,16186.6,-4780.19,17.5432,182.827,141.036,-1409.55,-10529.6,-1395.32,22.0577,-9.65834,96.2095,6041.2,-7103.07,-2494.89,13.8716,-32.13,94.7764,12391.9,9830.21,-1044.98,38.0319,29.4768,20.6958,10105.7,505.83,-984.216,38.9015,16.6502,33.3336
3.162,29246.2,6265.32,-2116.14,62.4694,37.818,256.791,4851.26,3691.39,8499.01,27.4039,-88.0376,18.1638,-17685.3,15852.2,-5035.2,17.8514,181.546,136.723,-1376.65,-10570.7,-1376.67,22.2753,-9.263,97.1818,6016.55,-7134.15,-2403.57,13.0459,-32.3899,94.8249,12602.4,10187.1,-1162.83,35.5856,31.5708,19.0287,10187.9,563.468,-990.439,34.8655,17.7057,34.5252
3.163,29418.9,6583.76,-2493.9,62.3646,36.6729,251.835,4850.2,3760.3,8512.53,27.4859,-88.9166,18.6047,-18027.3,15517.8,-5290.22,18.1597,180.265,132.41,-1343.75,-10611.8,-1358.03,22.4928,-8.86767,98.1542,5991.89,-7165.23,-2312.25,12.2202,-32.6498,94.8734,12812.9,10544.0,-1280.69,33.1393,33.6647,17.3616,10270.1,621.106,-996.662,30.8295,18.7611,35.7168
3.164,29591.6,6902.19,-2871.65,62.2599,35.5278,246.88,4849.14,3829.21,8526.04,27.568,-89.7956,19.0455,-18369.3,15183.4,-5545.23,18.468,178.984,128.096,-1310.84,-10652.9,-1339.38,22.7104,-8.47233,99.1265,5967.24,-7196.31,-2220.93,11.3945,-32.9097,94.9219,13023.4,10900.9,-1398.55,30.693,35.7586,15.6945,10352.3,678.745,-1002.89,26.7934,19.8166,36.9084
3.165,29724.4,7242.87,-3245.62,62.1821,34.4004,240.856,4834.36,3891.28,8549.13,27.621,-90.7782,19.5391,-18729.0,14806.6,-5747.28,18.9087,177.085,123.7,-1269.94,-10694.4,-1339.72,23.0598,-8.14231,99.9957,5911.6,-7232.71,-2152.84,10.6865,-33.1509,94.7468,13262.6,11262.0,-1474.98,27.0883,39.2812,14.7988,10426.2,719.453,-1019.62,24.4636,21.3247,37.5337
3.166,29825.1,7601.34,-3616.58,62.1261,33.2874,233.978,4808.59,3947.89,8579.88,27.6507,-91.8438,20.0749,-19102.8,14395.8,-5906.96,19.4552,174.691,119.237,-1222.65,-10736.2,-1355.25,23.5147,-7.86455,100.782,5831.16,-7273.37,-2103.34,10.0725,-33.3771,94.3928,13524.8,11626.3,-1518.27,22.5569,43.9468,14.5202,10493.5,746.617,-1044.76,23.4987,23.1948,37.7061
3.167,29925.9,7959.81,-3987.53,62.07,32.1743,227.1,4782.83,4004.5,8610.63,27.6805,-92.9093,20.6107,-19476.6,13985.0,-6066.64,20.0018,172.297,114.773,-1175.36,-10778.1,-1370.79,23.9696,-7.58678,101.569,5750.72,-7314.04,-2053.84,9.45859,-33.6033,94.0387,13787.0,11990.7,-1561.56,18.0255,48.6123,14.2417,10560.9,773.782,-1069.91,22.5339,25.065,37.8784
3.168,30026.7,8318.28,-4358.49,62.014,31.0612,220.222,4757.06,4061.11,8641.38,27.7103,-93.9749,21.1465,-19850.4,13574.3,-6226.32,20.5484,169.903,110.31,-1128.06,-10819.9,-1386.32,24.4245,-7.30901,102.355,5670.28,-7354.7,-2004.33,8.84465,-33.8294,93.6847,14049.1,12355.1,-1604.86,13.4941,53.2778,13.9631,10628.2,800.946,-1095.05,21.569,26.9351,38.0507
3.169,30124.0,8688.99,-4721.79,61.7478,29.9597,213.254,4733.58,4115.61,8673.63,27.7531,-95.064,21.6944,-20219.7,13166.9,-6371.35,21.1228,167.395,105.8,-1087.56,-10863.8,-1396.95,24.9179,-7.00869,103.164,5597.62,-7398.43,-1957.7,8.20547,-34.0617,93.3527,14320.9,12709.0,-1632.59,8.94781,58.0992,13.8488,10707.7,837.311,-1110.11,20.4634,28.6105,38.5744
3.17,30194.0,9157.63,-5023.94,59.8011,28.951,205.573,4728.36,4153.18,8717.91,27.8999,-96.3413,22.3396,-20553.2,12786.3,-6399.24,21.9196,163.98,100.916,-1101.44,-10924.5,-1368.44,25.7194,-6.52789,104.146,5587.14,-7466.64,-1934.05,7.36432,-34.3424,93.1977,14669.1,12978.5,-1535.87,4.28283,64.1679,15.0484,10884.0,947.288,-1044.43,18.2316,28.7278,41.9091
3.171,30264.0,9626.27,-5326.09,57.8543,27.9424,197.891,4723.13,4190.75,8762.19,28.0467,-97.6186,22.9847,-20886.6,12405.7,-6427.13,22.7165,160.565,96.032,-1115.32,-10985.2,-1339.93,26.5209,-6.04708,105.129,5576.66,-7534.86,-1910.4,6.52317,-34.6231,93.0426,15017.4,13248.1,-1439.16,-0.38215,70.2366,16.2481,11060.4,1057.26,-978.762,15.9998,28.8451,45.2437
3.172,30334.0,10094.9,-5628.24,55.9075,26.9337,190.209,4717.9,4228.33,8806.47,28.1936,-98.8959,23.6299,-21220.1,12025.1,-6455.01,23.5134,157.15,91.148,-1129.19,-11045.9,-1311.41,27.3224,-5.56628,106.112,5566.18,-7603.07,-1886.74,5.68202,-34.9039,92.8875,15365.6,13517.6,-1342.44,-5.04713,76.3053,17.4478,11236.8,1167.24,-913.09,13.768,28.9623,48.5784
3.173,30404.1,10563.6,-5930.39,53.9608,25.925,182.528,4712.68,4265.9,8850.76,28.3404,-100.173,24.2751,-21553.6,11644.6,-6482.9,24.3102,153.735,86.2639,-1143.07,-11106.6,-1282.9,28.1239,-5.08548,107.095,5555.7,-7671.29,-1863.09,4.84087,-35.1846,92.7324,15713.8,13787.2,-1245.72,-9.71212,82.374,18.6474,11413.2,1277.22,-847.418,11.5363,29.0796,51.9131
3.174,30457.7,10989.0,-6161.76,51.1567,24.695,174.73,4728.75,4271.98,8891.44,28.6079,-101.527,25.0603,-21782.5,11301.5,-6487.56,25.1794,149.915,80.9905,-1183.74,-11194.8,-1252.08,28.7211,-4.65562,108.151,5542.15,-7815.17,-1822.49,3.87214,-35.497,92.4536,16067.3,13992.0,-1109.7,-13.4117,88.4744,20.6683,11550.4,1178.14,-813.629,10.2599,27.9192,53.4577
3.175,30503.1,11392.9,-6357.74,47.924,23.3542,166.874,4755.47,4262.3,8930.33,28.9358,-102.918,25.9155,-21959.1,10977.3,-6480.62,26.0846,145.892,75.5225,-1237.82,-11296.8,-1220.11,29.2162,-4.25123,109.243,5527.06,-7996.89,-1773.41,2.83962,-35.8252,92.1129,16423.4,14164.4,-954.042,-16.6285,94.5906,23.0997,11668.1,974.542,-795.782,9.46118,26.12,54.1074
3.176,30548.5,11796.7,-6553.72,44.6913,22.0135,159.017,4782.2,4252.62,8969.22,29.2636,-104.309,26.7708,-22135.8,10653.0,-6473.68,26.9898,141.869,70.0545,-1291.89,-11398.8,-1188.14,29.7113,-3.84684,110.336,5511.97,-8178.6,-1724.33,1.80709,-36.1534,91.7721,16779.5,14336.8,-798.379,-19.8454,100.707,25.5312,11785.7,770.941,-777.935,8.66249,24.3208,54.7571
3.177,30593.9,12200.6,-6749.7,41.4586,20.6728,151.161,4808.92,4242.94,9008.11,29.5915,-105.7,27.626,-22312.4,10328.8,-6466.73,27.8951,137.846,64.5864,-1345.96,-11500.8,-1156.18,30.2064,-3.44246,111.428,5496.89,-8360.32,-1675.25,0.774567,-36.4816,91.4314,17135.6,14509.2,-642.716,-23.0622,106.823,27.9626,11903.4,567.34,-760.087,7.8638,22.5215,55.4068
3.178,30623.1,12568.6,-6933.45,38.3198,19.2343,143.258,4841.2,4222.23,9041.67,29.9434,-107.09,28.4579,-22470.1,10031.7,-6446.1,28.816,133.787,59.0248,-1394.97,-11607.0,-1123.63,30.6757,-3.08459,112.518,5486.18,-8559.32,-1635.68,-0.140065,-36.8372,91.0484,17455.2,14649.1,-472.483,-25.923,112.646,30.5772,11998.2,401.065,-752.549,7.33111,20.759,56.099
3.179,30595.6,12811.0,-7074.42,35.5094,17.4535,135.19,4892.93,4162.91,9056.61,30.3793,-108.472,29.2083,-22561.6,9829.85,-6377.53,29.7916,129.601,53.136,-1426.23,-11728.3,-1089.05,31.0549,-2.88955,113.597,5490.78,-8818.79,-1629.42,-0.642074,-37.2888,90.5175,17646.9,14675.2,-251.255,-27.5375,117.445,33.8326,12013.0,365.426,-781.09,7.72939,19.1252,56.9401
3.18,30568.0,13053.4,-7215.39,32.6991,15.6728,127.122,4944.66,4103.58,9071.54,30.8152,-109.854,29.9586,-22653.1,9627.96,-6308.96,30.7673,125.415,47.2471,-1457.5,-11849.5,-1054.47,31.4342,-2.69451,114.676,5495.38,-9078.25,-1623.15,-1.14408,-37.7403,89.9866,17838.6,14701.3,-30.0268,-29.152,122.244,37.088,12027.8,329.788,-809.632,8.12767,17.4913,57.7813
3.181,30540.5,13295.8,-7356.36,29.8887,13.8921,119.054,4996.39,4044.26,9086.48,31.2511,-111.236,30.709,-22744.6,9426.08,-6240.39,31.7429,121.229,41.3583,-1488.76,-11970.7,-1019.89,31.8134,-2.49947,115.755,5499.98,-9337.72,-1616.89,-1.64609,-38.1919,89.4557,18030.3,14727.5,191.201,-30.7666,127.042,40.3434,12042.6,294.15,-838.173,8.52595,15.8574,58.6224
3.182,30513.0,13538.2,-7497.33,27.0784,12.1113,110.986,5048.12,3984.93,9101.41,31.6871,-112.618,31.4593,-22836.0,9224.19,-6171.82,32.7186,117.043,35.4694,-1520.03,-12092.0,-985.307,32.1926,-2.30443,116.834,5504.59,-9597.19,-1610.62,-2.1481,-38.6435,88.9248,18222.0,14753.6,412.43,-32.3811,131.841,43.5988,12057.4,258.511,-866.715,8.92423,14.2235,59.4635
3.183,30417.6,13651.3,-7554.58,24.5162,10.1315,103.011,5055.5,3958.67,9133.64,32.1461,-114.182,32.1569,-22880.5,9105.99,-6020.02,33.4114,112.791,29.3212,-1555.42,-12193.6,-920.373,32.552,-2.28339,117.803,5501.94,-9832.97,-1646.35,-1.92973,-39.2811,88.4438,18179.8,14671.5,650.794,-32.9314,134.863,46.8133,12108.3,211.078,-868.214,7.85943,12.7968,59.8571
3.184,30302.7,13727.5,-7587.91,22.0248,8.09482,95.062,5050.21,3941.86,9170.82,32.6118,-115.797,32.8394,-22911.5,9011.7,-5844.43,34.0235,108.521,23.099,-1591.99,-12289.5,-846.767,32.9057,-2.31207,118.74,5497.21,-10062.0,-1694.07,-1.50554,-39.9719,87.9772,18070.8,14558.5,894.055,-33.1776,137.377,50.0161,12169.4,160.275,-861.986,6.37662,11.4293,60.1227
3.185,30187.9,13803.7,-7621.24,19.5335,6.05813,87.1134,5044.92,3925.05,9207.99,33.0776,-117.411,33.5219,-22942.6,8917.42,-5668.85,34.6355,104.25,16.8767,-1628.56,-12385.5,-773.161,33.2594,-2.34075,119.677,5492.49,-10291.0,-1741.79,-1.08134,-40.6626,87.5106,17961.9,14445.5,1137.32,-33.4238,139.891,53.2189,12230.6,109.472,-855.759,4.8938,10.0617,60.3884
3.186,30073.1,13879.9,-7654.57,17.0422,4.02144,79.1648,5039.63,3908.24,9245.17,33.5433,-119.026,34.2044,-22973.6,8823.13,-5493.26,35.2475,99.9797,10.6545,-1665.13,-12481.4,-699.555,33.6131,-2.36943,120.614,5487.77,-10520.0,-1789.52,-0.657145,-41.3534,87.0439,17852.9,14332.5,1380.58,-33.67,142.406,56.4217,12291.8,58.6683,-849.531,3.41098,8.69421,60.6541
3.187,29938.6,13891.5,-7656.03,14.7174,1.96926,71.4334,5025.95,3915.23,9288.65,33.9494,-120.711,34.9364,-22974.8,8772.71,-5315.56,35.7529,95.693,4.45528,-1693.55,-12577.4,-632.53,34.0269,-2.33837,121.572,5475.83,-10718.8,-1855.19,-0.122923,-41.879,86.5476,17662.3,14186.2,1594.51,-33.5259,144.192,59.4316,12361.1,28.1711,-846.905,1.29052,7.4616,60.9473
3.188,29764.7,13773.9,-7593.77,12.7255,-0.113882,64.1362,4995.51,3969.83,9344.76,34.2364,-122.533,35.7672,-22916.3,8810.02,-5133.6,36.0452,91.3738,-1.69792,-1705.65,-12673.5,-578.668,34.5609,-2.18785,122.571,5449.47,-10857.1,-1956.76,0.631353,-42.0741,85.992,17308.4,13973.5,1749.81,-32.601,144.521,62.0559,12446.5,38.2858,-851.481,-2.10522,6.49886,61.2955
3.189,29590.8,13656.4,-7531.52,10.7337,-2.19702,56.839,4965.07,4024.42,9400.87,34.5235,-124.356,36.598,-22857.7,8847.33,-4951.64,36.3375,87.0545,-7.85111,-1717.75,-12769.6,-524.807,35.095,-2.03733,123.57,5423.11,-10995.5,-2058.32,1.38563,-42.2693,85.4364,16954.6,13760.8,1905.1,-31.6761,144.85,64.6802,12532.0,48.4005,-856.058,-5.50097,5.53611,61.6437
3.19,29416.9,13538.9,-7469.26,8.7418,-4.28017,49.5419,4934.63,4079.02,9456.98,34.8105,-126.179,37.4288,-22799.2,8884.64,-4769.69,36.6298,82.7353,-14.0043,-1729.85,-12865.7,-470.945,35.629,-1.88681,124.569,5396.75,-11133.8,-2159.89,2.13991,-42.4645,84.8808,16600.7,13548.1,2060.39,-30.7512,145.179,67.3045,12617.5,58.5152,-860.634,-8.89671,4.57337,61.992
3.191,29243.0,13421.3,-7407.0,6.74993,-6.36331,42.2447,4904.19,4133.61,9513.09,35.0975,-128.002,38.2596,-22740.6,8921.95,-4587.73,36.9221,78.416,-20.1575,-1741.95,-12961.8,-417.083,36.163,-1.7363,125.568,5370.39,-11272.2,-2261.46,2.89418,-42.6596,84.3251,16246.9,13335.4,2215.68,-29.8263,145.508,69.9288,12703.0,68.6299,-865.21,-12.2925,3.61062,62.3402
3.192,28967.2,13217.5,-7303.91,5.85544,-8.67748,35.8129,4888.23,4182.17,9560.0,35.2144,-130.111,39.0918,-22657.5,9049.06,-4393.12,36.8762,74.2526,-26.1103,-1761.48,-13089.5,-349.368,36.741,-1.51458,126.468,5326.89,-11351.7,-2346.14,3.31254,-42.3989,83.704,15709.4,13101.3,2268.54,-28.3067,144.817,72.1298,12702.1,37.4343,-953.243,-15.5424,2.76208,62.9737
3.193,28678.6,13002.8,-7195.72,5.09812,-11.0205,29.4892,4874.08,4229.96,9605.75,35.31,-132.256,39.9241,-22571.2,9187.38,-4196.92,36.7881,70.1087,-32.038,-1781.94,-13221.1,-279.921,37.3244,-1.28397,127.356,5281.24,-11423.8,-2428.71,3.68891,-42.0811,83.0747,15148.9,12864.6,2308.6,-26.7127,143.997,74.2779,12690.4,1.07492,-1051.71,-18.7741,1.92782,63.6427
3.194,28390.1,12788.2,-7087.52,4.3408,-13.3636,23.1656,4859.93,4277.76,9651.51,35.4055,-134.401,40.7565,-22484.9,9325.71,-4000.72,36.7,65.9648,-37.9657,-1802.4,-13352.8,-210.474,37.9079,-1.05336,128.244,5235.6,-11495.9,-2511.29,4.06528,-41.7634,82.4454,14588.5,12627.8,2348.65,-25.1187,143.177,76.426,12678.7,-35.2845,-1150.17,-22.0059,1.09355,64.3118
3.195,28101.5,12573.5,-6979.33,3.58348,-15.7066,16.8419,4845.78,4325.56,9697.26,35.5011,-136.546,41.5889,-22398.7,9464.04,-3804.52,36.6119,61.8209,-43.8934,-1822.86,-13484.4,-141.027,38.4913,-0.822749,129.132,5189.96,-11568.0,-2593.86,4.44166,-41.4457,81.8161,14028.0,12391.1,2388.7,-23.5247,142.358,78.5742,12667.0,-71.6439,-1248.64,-25.2376,0.259288,64.9809
3.196,27802.6,12332.4,-6822.03,3.10598,-18.1359,10.9528,4836.07,4347.26,9754.36,35.571,-138.76,42.3915,-22297.8,9609.1,-3613.65,36.3594,57.64,-49.4749,-1830.19,-13606.7,-95.4322,39.0971,-0.578605,130.004,5140.31,-11597.6,-2674.36,4.69561,-41.0098,81.2881,13463.9,12154.8,2371.26,-21.7613,141.445,80.5688,12626.4,-138.445,-1372.91,-27.6519,-0.715156,65.4768
3.197,27490.9,12058.2,-6603.36,2.97826,-20.6732,5.60665,4831.9,4336.34,9825.64,35.6089,-141.061,43.1569,-22178.6,9762.6,-3429.46,35.9014,53.413,-54.6235,-1821.1,-13717.2,-79.6523,39.7308,-0.317543,130.856,5085.66,-11573.8,-2752.29,4.79656,-40.4264,80.8866,12895.1,11918.9,2281.95,-19.7863,140.417,82.3716,12549.8,-243.297,-1529.44,-29.0445,-1.86482,65.7563
3.198,27179.1,11784.0,-6384.69,2.85054,-23.2104,0.260538,4827.73,4325.43,9896.92,35.6467,-143.361,43.9223,-22059.4,9916.09,-3245.27,35.4434,49.186,-59.772,-1812.01,-13827.7,-63.8724,40.3644,-0.0564816,131.709,5031.01,-11550.0,-2830.22,4.8975,-39.8429,80.4851,12326.4,11682.9,2192.65,-17.8112,139.388,84.1744,12473.1,-348.15,-1685.97,-30.437,-3.01449,66.0357
3.199,26867.3,11509.8,-6166.02,2.72282,-25.7476,-5.08557,4823.56,4314.51,9968.2,35.6845,-145.662,44.6877,-21940.2,10069.6,-3061.09,34.9854,44.9589,-64.9206,-1802.92,-13938.2,-48.0926,40.9981,0.20458,132.561,4976.36,-11526.3,-2908.15,4.99845,-39.2594,80.0836,11757.7,11447.0,2103.34,-15.8362,138.359,85.9772,12396.5,-453.003,-1842.5,-31.8296,-4.16416,66.3151
3.2,26555.6,11235.6,-5947.35,2.5951,-28.2848,-10.4317,4819.39,4303.59,10039.5,35.7224,-147.963,45.453,-21821.0,10223.1,-2876.9,34.5274,40.7319,-70.0692,-1793.84,-14048.7,-32.3127,41.6318,0.465641,133.414,4921.71,-11502.5,-2986.08,5.09939,-38.676,79.6821,11188.9,11211.1,2014.03,-13.8611,137.33,87.78,12319.9,-557.855,-1999.03,-33.2221,-5.31383,66.5945
3.201,26296.7,10973.6,-5738.76,2.54256,-30.454,-14.9444,4816.5,4244.81,10087.9,35.7596,-150.344,46.1645,-21700.6,10343.8,-2719.05,34.0392,36.5897,-74.3959,-1770.97,-14127.0,-2.71307,42.0041,0.498167,134.264,4919.43,-11520.3,-3029.5,5.08708,-38.0389,79.3265,10667.3,11035.6,1880.99,-11.7717,136.067,89.3974,12194.9,-685.574,-2191.83,-32.7348,-6.31455,66.5524
3.202,26037.8,10711.5,-5530.18,2.49001,-32.6233,-19.4572,4813.6,4186.03,10136.4,35.7967,-152.725,46.8759,-21580.2,10464.4,-2561.21,33.551,32.4474,-78.7226,-1748.11,-14205.3,26.8866,42.3764,0.530693,135.115,4917.15,-11538.0,-3072.93,5.07477,-37.4018,78.9709,10145.7,10860.1,1747.95,-9.68235,134.805,91.0148,12070.0,-813.293,-2384.63,-32.2475,-7.31527,66.5102
3.203,25779.0,10449.4,-5321.6,2.43747,-34.7925,-23.9699,4810.71,4127.25,10184.8,35.8339,-155.107,47.5874,-21459.8,10585.1,-2403.36,33.0628,28.3052,-83.0493,-1725.25,-14283.6,56.4862,42.7486,0.563219,135.965,4914.88,-11555.8,-3116.35,5.06246,-36.7647,78.6153,9624.08,10684.6,1614.92,-7.59297,133.542,92.6322,11945.1,-941.013,-2577.43,-31.7602,-8.31599,66.4681
3.204,25520.1,10187.4,-5113.02,2.38493,-36.9618,-28.4827,4807.81,4068.47,10233.3,35.8711,-157.488,48.2988,-21339.4,10705.8,-2245.52,32.5745,24.163,-87.376,-1702.39,-14361.9,86.0858,43.1209,0.595744,136.816,4912.6,-11573.6,-3159.78,5.05014,-36.1276,78.2597,9102.47,10509.1,1481.88,-5.50359,132.279,94.2496,11820.1,-1068.73,-2770.23,-31.2729,-9.31672,66.4259
3.205,25313.6,9967.45,-4923.57,1.9286,-38.7761,-32.8114,4792.61,4058.92,10274.9,35.8931,-160.067,49.065,-21159.2,10775.3,-2138.79,32.0801,20.0483,-91.2277,-1672.35,-14436.4,126.157,43.5829,0.720814,137.639,4969.72,-11594.9,-3188.75,5.12683,-35.3464,78.0283,8614.68,10349.9,1366.32,-3.80524,130.946,95.7288,11703.8,-1182.07,-2910.36,-30.3628,-10.4022,66.1673
3.206,25149.1,9781.25,-4749.44,1.14924,-40.3065,-36.993,4767.56,4088.77,10311.1,35.903,-162.804,49.8748,-20931.2,10804.0,-2072.96,31.5807,15.9556,-94.6996,-1636.56,-14507.9,174.605,44.1166,0.919919,138.439,5074.36,-11619.1,-3206.16,5.27472,-34.4499,77.8961,8153.95,10203.9,1264.75,-2.4197,129.558,97.0973,11594.3,-1283.9,-3008.35,-29.1144,-11.5554,65.7354
3.207,24984.5,9595.06,-4575.31,0.369882,-41.8369,-41.1745,4742.51,4118.62,10347.3,35.9129,-165.542,50.6847,-20703.2,10832.6,-2007.13,31.0813,11.8629,-98.1715,-1600.77,-14579.4,223.053,44.6504,1.11902,139.24,5179.0,-11643.2,-3223.57,5.42261,-33.5535,77.7639,7693.23,10057.8,1163.17,-1.03417,128.169,98.4659,11484.8,-1385.74,-3106.35,-27.866,-12.7087,65.3035
3.208,24820.0,9408.86,-4401.18,-0.409477,-43.3673,-45.3561,4717.46,4148.47,10383.5,35.9227,-168.279,51.4945,-20475.2,10861.2,-1941.3,30.582,7.77026,-101.643,-1564.98,-14650.8,271.501,45.1841,1.31813,140.041,5283.65,-11667.4,-3240.98,5.5705,-32.657,77.6318,7232.5,9911.73,1061.6,0.351359,126.78,99.8344,11375.3,-1487.57,-3204.34,-26.6176,-13.8619,64.8717
3.209,24688.4,9244.02,-4334.16,-2.78064,-44.4433,-49.8998,4694.78,4183.8,10415.9,35.9073,-171.022,52.3201,-20206.6,10896.2,-1884.17,30.0611,3.68371,-104.977,-1533.78,-14724.0,318.723,45.7486,1.53396,140.828,5379.86,-11690.1,-3263.84,5.72585,-31.7378,77.4833,6776.17,9766.02,964.671,1.61659,125.393,101.141,11265.5,-1584.66,-3290.59,-25.4516,-14.976,64.4066
3.21,24820.6,9250.03,-5123.97,-17.8862,-41.8839,-57.3406,4691.12,4263.07,10417.8,35.689,-173.815,53.2719,-19613.0,10982.1,-1896.73,29.3684,-0.353899,-107.206,-1539.29,-14811.0,356.141,46.5595,1.88362,141.509,5408.67,-11700.6,-3330.25,5.94089,-30.6367,77.2043,6354.99,9623.11,904.929,1.91945,124.01,101.954,11153.8,-1643.76,-3282.85,-24.9455,-15.7769,63.6756
3.211,24952.7,9256.04,-5913.79,-32.9918,-39.3246,-64.7815,4687.46,4342.34,10419.7,35.4707,-176.608,54.2237,-19019.4,11068.1,-1909.28,28.6758,-4.39151,-109.434,-1544.8,-14898.0,393.558,47.3703,2.23328,142.19,5437.47,-11711.0,-3396.67,6.15592,-29.5357,76.9252,5933.8,9480.2,845.188,2.22231,122.628,102.766,11042.1,-1702.85,-3275.1,-24.4393,-16.5778,62.9446
3.212,25084.9,9262.04,-6703.6,-48.0973,-36.7653,-72.2224,4683.8,4421.6,10421.6,35.2524,-179.4,55.1755,-18425.8,11154.0,-1921.84,27.9831,-8.42912,-111.663,-1550.31,-14985.1,430.975,48.1812,2.58293,142.871,5466.28,-11721.5,-3463.08,6.37095,-28.4346,76.6462,5512.62,9337.3,785.446,2.52517,121.246,103.579,10930.4,-1761.95,-3267.36,-23.9332,-17.3787,62.2135
3.213,25217.0,9268.05,-7493.42,-63.2029,-34.2059,-79.6632,4680.14,4500.87,10423.5,35.0341,-182.193,56.1273,-17832.3,11240.0,-1934.39,27.2904,-12.4667,-113.892,-1555.82,-15072.1,468.393,48.992,2.93259,143.552,5495.08,-11732.0,-3529.49,6.58598,-27.3336,76.3672,5091.44,9194.39,725.704,2.82803,119.864,104.391,10818.7,-1821.05,-3259.61,-23.427,-18.1796,61.4825
3.214,26020.9,10387.6,-12252.8,-86.3826,-24.0855,-93.6936,4699.44,4608.96,10426.5,34.613,-185.128,57.0751,-15971.0,11512.4,-2297.88,24.8736,-12.3658,-114.686,-1601.25,-15132.5,459.823,49.5111,3.16211,144.19,5526.05,-11733.1,-3580.55,7.13476,-25.9449,76.2026,4634.99,9108.68,832.122,0.825725,117.764,104.766,10774.5,-1882.68,-2944.86,-22.1542,-19.6183,60.8566
3.215,27160.7,12063.9,-18997.1,-113.599,-10.1845,-111.019,4730.23,4731.47,10430.0,34.0905,-188.135,58.0208,-13476.0,11878.0,-2836.84,21.5947,-10.1956,-114.764,-1666.65,-15179.8,428.26,49.8844,3.33156,144.808,5558.11,-11729.5,-3623.94,7.85042,-24.4124,76.0952,4160.91,9051.57,1021.62,-2.32917,115.306,104.923,10764.1,-1945.6,-2476.61,-20.4982,-21.376,60.2832
3.216,28300.5,13740.1,-25741.3,-140.816,3.71655,-128.344,4761.02,4853.98,10433.5,33.568,-191.141,58.9666,-10980.9,12243.6,-3375.8,18.3158,-8.0254,-114.841,-1732.04,-15227.0,396.698,50.2576,3.50102,145.426,5590.17,-11725.9,-3667.32,8.56608,-22.8799,75.9878,3686.83,8994.46,1211.12,-5.48406,112.847,105.08,10753.7,-2008.51,-2008.36,-18.8421,-23.1338,59.7099
3.217,29440.3,15416.4,-32485.5,-168.033,17.6176,-145.669,4791.8,4976.49,10437.1,33.0455,-194.147,59.9123,-8485.86,12609.2,-3914.75,15.037,-5.8552,-114.918,-1797.44,-15274.2,365.135,50.6308,3.67047,146.044,5622.23,-11722.3,-3710.7,9.28174,-21.3474,75.8804,3212.75,8937.36,1400.61,-8.63896,110.389,105.237,10743.2,-2071.42,-1540.11,-17.186,-24.8915,59.1365
3.218,29491.0,17330.3,-35642.0,-169.783,5.41341,-164.32,4820.95,5077.83,10450.1,32.5544,-197.21,60.8916,-5648.09,12873.7,-5493.45,12.2346,2.16431,-116.211,-1829.41,-15326.1,332.319,51.0245,3.85379,146.666,5643.58,-11719.2,-3778.55,10.0082,-19.7685,75.7538,2745.68,8920.5,1446.21,-13.0577,108.158,105.478,10778.0,-2145.7,-896.053,-14.5895,-27.1051,58.7044
3.219,25729.9,20075.5,-26241.5,-82.3987,-98.1588,-187.61,4844.37,5105.05,10496.6,32.173,-200.472,61.9883,-1610.85,12784.0,-10711.2,11.1002,30.6564,-121.759,-1744.4,-15394.5,295.119,51.49,4.08566,147.306,5627.49,-11717.8,-3932.05,10.7723,-18.0272,75.5604,2303.19,9044.53,988.146,-21.9001,106.725,106.016,10970.8,-2259.77,363.314,-8.70153,-30.9144,58.767
3.22,21968.7,22820.8,-16841.1,4.98548,-201.731,-210.9,4867.78,5132.27,10543.0,31.7915,-203.733,63.0849,2426.39,12694.4,-15929.0,9.96584,59.1485,-127.307,-1659.39,-15462.9,257.919,51.9555,4.31754,147.946,5611.39,-11716.5,-4085.54,11.5364,-16.2858,75.3669,1860.69,9168.56,530.082,-30.7425,105.292,106.553,11163.7,-2373.84,1622.68,-2.81357,-34.7237,58.8296
3.221,18207.6,25566.1,-7440.56,92.3697,-305.303,-234.19,4891.2,5159.49,10589.5,31.4101,-206.994,64.1816,6463.63,12604.8,-21146.8,8.83145,87.6405,-132.855,-1574.38,-15531.3,220.719,52.4209,4.54941,148.585,5595.3,-11715.1,-4239.03,12.3005,-14.5445,75.1734,1418.2,9292.59,72.0188,-39.5849,103.859,107.091,11356.5,-2487.92,2882.05,3.07438,-38.533,58.8922
3.222,14446.4,28311.3,1959.93,179.754,-408.875,-257.48,4914.61,5186.71,10635.9,31.0287,-210.255,65.2782,10500.9,12515.1,-26364.6,7.69705,116.133,-138.403,-1489.37,-15599.7,183.518,52.8864,4.78128,149.225,5579.21,-11713.7,-4392.53,13.0646,-12.8031,74.98,975.7,9416.62,-386.045,-48.4272,102.425,107.629,11549.3,-2601.99,4141.41,8.96233,-42.3424,58.9548
3.223,8087.42,24522.3,-1030.61,265.569,-476.744,-321.123,4905.98,5237.39,10780.3,30.6587,-214.037,66.3338,13599.7,12738.9,-24157.4,3.95938,132.355,-148.349,-1399.69,-15666.2,236.403,53.1207,4.54143,149.969,5582.31,-11662.2,-4604.98,12.9049,-11.1134,74.9514,616.481,9540.12,-99.8606,-58.6528,98.5276,106.968,12024.1,-2377.0,4681.41,5.40491,-41.6708,61.3893
3.224,986.148,18866.4,-7561.46,350.935,-534.413,-396.295,4888.19,5294.77,10952.7,30.2919,-217.967,67.3776,16430.4,13052.1,-19828.9,-0.522087,145.072,-159.552,-1308.68,-15732.0,315.025,53.2889,4.16679,150.744,5590.91,-11596.5,-4834.27,12.4812,-9.4384,74.97,281.056,9663.48,398.966,-69.2735,93.9257,105.965,12579.5,-2055.13,5015.87,-0.851197,-39.7191,64.5014
3.225,-6115.12,13210.5,-14092.3,436.301,-592.081,-471.467,4870.4,5352.15,11125.1,29.9252,-221.897,68.4214,19261.1,13365.4,-15500.3,-5.00355,157.788,-170.754,-1217.66,-15797.9,393.648,53.4571,3.79216,151.518,5599.51,-11530.7,-5063.57,12.0576,-7.76341,74.9886,-54.3696,9786.84,897.792,-79.8943,89.3238,104.962,13134.8,-1733.26,5350.33,-7.1073,-37.7673,67.6135
3.226,-13216.4,7554.57,-20623.1,521.667,-649.749,-546.639,4852.61,5409.53,11297.5,29.5584,-225.827,69.4652,22091.8,13678.7,-11171.8,-9.48502,170.505,-181.957,-1126.65,-15863.7,472.27,53.6253,3.41753,152.292,5608.11,-11464.9,-5292.87,11.6339,-6.08843,75.0072,-389.795,9910.2,1396.62,-90.515,84.7219,103.96,13690.2,-1411.39,5684.79,-13.3634,-35.8155,70.7256
3.227,-17933.0,2540.57,-23723.0,585.916,-691.383,-623.168,4817.75,5489.83,11488.0,28.8088,-230.06,70.4235,22381.9,15094.5,-7067.65,-6.35069,161.621,-195.411,-991.172,-15946.1,550.647,53.9147,3.48783,153.096,5657.09,-11424.6,-5499.08,10.7035,-4.26659,75.1655,-432.381,9938.15,1793.92,-98.361,78.9219,99.6195,14291.0,-1008.08,5780.1,-27.4042,-30.7924,74.3631
3.228,-17880.3,-1189.57,-19960.7,607.93,-700.949,-702.409,4748.74,5615.97,11714.8,27.2935,-234.897,71.2107,17590.9,18715.3,-3412.26,12.0152,109.536,-213.369,-766.777,-16061.6,628.534,54.4464,4.44802,153.958,5786.84,-11435.1,-5659.12,8.75976,-2.15104,75.603,110.712,9775.3,1988.18,-100.657,70.7257,88.6051,14982.9,-441.914,5397.11,-57.0143,-19.6266,79.0514
3.229,-17827.6,-4919.71,-16198.5,629.943,-710.516,-781.65,4679.74,5742.12,11941.6,25.7781,-239.734,71.9978,12799.8,22336.2,243.132,30.3812,57.4509,-231.327,-542.382,-16177.0,706.42,54.978,5.40821,154.819,5916.59,-11445.6,-5819.16,6.816,-0.0354879,76.0406,653.805,9612.45,2182.45,-102.954,62.5296,77.5907,15674.9,124.255,5014.12,-86.6245,-8.46076,83.7397
3.23,-17774.8,-8649.85,-12436.3,651.957,-720.082,-860.891,4610.73,5868.26,12168.4,24.2628,-244.571,72.785,8008.8,25957.0,3898.52,48.7471,5.36564,-249.286,-317.987,-16292.5,784.307,55.5097,6.3684,155.681,6046.34,-11456.1,-5979.2,4.87224,2.08006,76.4781,1196.9,9449.6,2376.71,-105.25,54.3335,66.5763,16366.8,690.424,4631.13,-116.235,2.70507,88.4279
3.231,-17722.1,-12380.0,-8674.05,673.97,-729.649,-940.133,4541.73,5994.4,12395.2,22.7475,-249.407,73.5722,3217.76,29577.9,7553.91,67.113,-46.7196,-267.244,-93.5918,-16408.0,862.193,56.0413,7.32859,156.543,6176.09,-11466.6,-6139.24,2.92847,4.19561,76.9157,1739.99,9286.75,2570.97,-107.547,46.1373,55.5619,17058.7,1256.59,4248.13,-145.845,13.8709,93.1162
3.232,-9340.03,-7763.36,590.366,635.906,-673.683,-936.004,4463.29,6038.35,12432.8,20.261,-254.433,74.1624,-8095.59,34574.4,5865.74,61.8009,-16.9217,-284.544,37.9219,-16657.9,776.208,56.5471,9.03513,157.273,6373.68,-11659.9,-6133.88,0.831615,6.92203,77.3763,3638.41,10568.1,616.504,-101.394,50.5005,43.0973,17311.6,1296.76,4145.99,-168.852,23.0707,95.6763
3.233,83.248,-2103.38,10542.6,590.331,-609.525,-921.455,4383.68,6072.03,12446.7,17.653,-259.481,74.7281,-20224.2,39743.0,3509.62,53.5291,23.1117,-301.763,157.825,-16924.7,669.738,57.0497,10.835,157.987,6579.75,-11875.9,-6107.85,-1.28438,9.72481,77.8398,5706.24,12030.1,-1606.55,-94.1861,56.4336,30.4514,17509.6,1271.18,4078.95,-191.035,32.0248,97.9703
3.234,9506.52,3556.6,20494.7,544.757,-545.367,-906.906,4304.07,6105.71,12460.6,15.0451,-264.53,75.2937,-32352.9,44911.5,1153.5,45.2572,63.145,-318.981,277.729,-17191.5,563.269,57.5523,12.6348,158.7,6785.82,-12092.0,-6081.81,-3.40038,12.5276,78.3033,7774.08,13492.0,-3829.6,-86.9778,62.3667,17.8055,17707.5,1245.59,4011.91,-213.217,40.9789,100.264
3.235,18929.8,9216.58,30446.9,499.182,-481.21,-892.356,4224.45,6139.39,12474.5,12.4371,-269.578,75.8593,-44481.5,50080.0,-1202.62,36.9854,103.178,-336.2,397.633,-17458.2,456.8,58.0549,14.4346,159.414,6991.89,-12308.1,-6055.78,-5.51637,15.3304,78.7668,9841.91,14953.9,-6052.66,-79.7695,68.2998,5.15962,17905.5,1220.01,3944.87,-235.399,49.933,102.558
3.236,30272.1,15434.1,38462.8,442.295,-422.579,-840.946,4175.76,6103.5,12392.4,10.2083,-274.392,76.4865,-49212.2,52076.6,-779.229,30.059,116.919,-346.057,448.751,-17738.3,360.173,58.5712,15.6644,160.058,7183.54,-12611.7,-5956.5,-7.04813,18.2387,78.8434,12926.0,17152.6,-9090.1,-77.5452,93.6328,-1.96275,17908.2,1102.68,3966.33,-243.721,54.6291,104.351
3.237,44013.1,22348.5,44058.3,371.266,-370.856,-743.461,4165.73,5980.64,12190.1,8.45325,-278.913,77.1906,-44695.4,50108.1,3118.56,24.8144,97.7946,-346.713,413.887,-18034.9,275.849,59.1046,16.1817,160.617,7357.16,-13024.8,-5765.67,-7.84959,21.279,78.4365,17280.3,20272.2,-13145.5,-81.5511,143.216,-2.18073,17666.7,870.663,4098.4,-234.716,54.003,105.518
3.238,57754.1,29262.8,49653.7,300.237,-319.133,-645.975,4155.7,5857.78,11987.7,6.69824,-283.434,77.8947,-40178.6,48139.7,7016.34,19.5698,78.67,-347.369,379.023,-18331.5,191.526,59.638,16.699,161.175,7530.79,-13438.0,-5574.83,-8.65105,24.3194,78.0295,21634.6,23391.9,-17200.9,-85.5569,192.798,-2.3987,17425.2,638.646,4230.48,-225.711,53.3768,106.685
3.239,71495.1,36177.2,55249.2,229.208,-267.41,-548.49,4145.67,5734.92,11785.4,4.94323,-287.955,78.5988,-35661.9,46171.2,10914.1,14.3252,59.5454,-348.025,344.159,-18628.1,107.202,60.1714,17.2163,161.733,7704.41,-13851.1,-5384.0,-9.45251,27.3597,77.6226,25988.9,26511.6,-21256.4,-89.5627,242.381,-2.61668,17183.7,406.629,4362.55,-216.707,52.7506,107.852
3.24,85236.1,43091.6,60844.6,158.179,-215.687,-451.004,4135.64,5612.07,11583.1,3.18822,-292.475,79.3029,-31145.1,44202.8,14811.9,9.08057,40.4208,-348.681,309.296,-18924.8,22.879,60.7048,17.7335,162.292,7878.04,-14264.2,-5193.17,-10.254,30.4,77.2157,30343.2,29631.2,-25311.8,-93.5685,291.964,-2.83466,16942.2,174.613,4494.63,-207.702,52.1244,109.019
3.241,87241.2,37538.9,55694.4,157.321,-212.86,-390.657,4198.81,5491.04,11365.3,2.79632,-296.206,80.5398,-25586.9,41734.6,14438.8,7.23727,21.8968,-327.115,285.593,-19004.5,-65.7779,60.5249,18.2951,162.89,8019.69,-14527.9,-4872.27,-7.98422,32.7726,75.9798,32529.1,30916.0,-21189.1,-96.6792,323.388,7.99745,16971.7,389.566,4570.13,-190.316,44.0798,110.757
3.242,89246.3,31986.1,50544.3,156.462,-210.032,-330.311,4261.98,5370.0,11147.5,2.40442,-299.936,81.7768,-20028.8,39266.4,14065.7,5.39398,3.37285,-305.549,261.89,-19084.3,-154.435,60.3451,18.8567,163.487,8161.34,-14791.7,-4551.37,-5.71446,35.1453,74.744,34715.0,32200.9,-17066.3,-99.7899,354.812,18.8296,17001.2,604.519,4645.64,-172.931,36.0352,112.495
3.243,91251.4,26433.4,45394.1,155.604,-207.205,-269.964,4325.15,5248.97,10929.7,2.01252,-303.666,83.0137,-14470.7,36798.3,13692.6,3.55069,-15.1511,-283.984,238.187,-19164.0,-243.092,60.1652,19.4182,164.085,8302.99,-15055.5,-4230.47,-3.44469,37.5179,73.5081,36900.9,33485.7,-12943.6,-102.901,386.236,29.6617,17030.7,819.472,4721.14,-155.545,27.9905,114.233
3.244,93256.6,20880.6,40244.0,154.745,-204.378,-209.617,4388.32,5127.94,10711.9,1.62062,-307.396,84.2506,-8912.55,34330.1,13319.5,1.7074,-33.6751,-262.418,214.485,-19243.7,-331.749,59.9854,19.9798,164.683,8444.64,-15319.2,-3909.57,-1.17493,39.8906,72.2722,39086.8,34770.5,-8820.9,-106.011,417.66,40.4938,17060.2,1034.43,4796.65,-138.159,19.9459,115.97
3.245,88325.2,14268.5,35681.0,150.806,-212.978,-179.845,4425.04,5187.65,10618.7,1.25261,-311.258,85.5392,-4553.06,31856.0,13652.6,-5.04798,-46.2231,-246.971,297.116,-19179.9,-421.106,59.3284,20.3273,165.259,8540.82,-15342.6,-3565.51,2.61325,41.5386,70.9465,39468.1,33584.9,-1204.61,-108.597,402.538,41.7822,17224.8,1429.96,4710.79,-127.353,13.6032,117.022
3.246,77844.6,6808.77,31587.7,144.402,-230.72,-174.533,4440.59,5391.94,10625.3,0.903713,-315.224,86.8691,-1152.49,29377.1,14550.7,-15.733,-53.9902,-236.42,464.814,-19001.2,-511.023,58.2896,20.5035,165.817,8600.64,-15173.8,-3202.92,7.61617,42.6069,69.5488,38405.8,30422.8,9206.55,-110.762,350.179,35.4357,17497.5,1969.96,4495.85,-121.811,8.62191,117.524
3.247,67364.0,-650.922,27494.4,137.998,-248.462,-169.222,4456.15,5596.24,10631.8,0.554814,-319.19,88.199,2248.08,26898.2,15448.8,-26.4181,-61.7573,-225.869,632.512,-18822.5,-600.94,57.2509,20.6797,166.376,8660.46,-15004.9,-2840.33,12.6191,43.6752,68.1511,37343.5,27260.8,19617.7,-112.927,297.82,29.0893,17770.2,2509.96,4280.9,-116.269,3.64067,118.026
3.248,56883.4,-8110.62,23401.2,131.594,-266.204,-163.91,4471.7,5800.54,10638.4,0.205915,-323.156,89.5288,5648.65,24419.3,16346.8,-37.1031,-69.5244,-215.317,800.21,-18643.8,-690.857,56.2122,20.8559,166.934,8720.28,-14836.0,-2477.75,17.622,44.7435,66.7534,36281.3,24098.8,30028.9,-115.093,245.46,22.7428,18043.0,3049.97,4065.96,-110.727,-1.34057,118.528
3.249,46523.0,-14854.2,19578.2,123.124,-282.659,-158.364,4474.46,6010.6,10655.5,-0.126817,-327.216,90.8946,8647.95,21994.5,16985.7,-45.386,-75.2876,-205.675,974.912,-18447.5,-781.304,55.1582,20.8879,167.528,8781.68,-14641.0,-2137.01,22.4897,45.7094,65.3695,35010.4,20924.6,39249.2,-117.68,192.929,14.9139,18272.9,3552.28,3860.54,-106.059,-5.54065,118.83
3.25,37124.1,-15868.6,17917.9,98.1216,-288.812,-150.95,4374.83,6266.87,10757.3,-0.330215,-332.025,92.5476,8437.03,20002.7,15551.4,-34.4511,-65.0194,-203.307,1205.65,-18110.0,-875.997,53.9824,19.7661,168.41,8855.75,-14236.0,-1971.08,26.2752,45.8554,64.0964,32070.6,17653.7,38942.9,-123.638,139.021,-4.77431,18160.5,3753.09,3731.41,-108.379,-3.49144,117.536
3.251,27725.3,-16883.1,16257.6,73.1195,-294.965,-143.536,4275.21,6523.13,10859.1,-0.533614,-336.835,94.2005,8226.1,18011.0,14117.1,-23.5163,-54.7512,-200.938,1436.38,-17772.4,-970.689,52.8066,18.6443,169.291,8929.81,-13831.1,-1805.16,30.0607,46.0015,62.8233,29130.9,14382.7,38636.5,-129.597,85.1127,-24.4625,18048.1,3953.89,3602.27,-110.7,-1.44223,116.241
3.252,18326.5,-17897.6,14597.3,48.1174,-301.117,-136.122,4175.59,6779.4,10960.9,-0.737012,-341.644,95.8534,8015.18,16019.2,12682.7,-12.5814,-44.483,-198.57,1667.12,-17434.9,-1065.38,51.6308,17.5225,170.173,9003.87,-13426.2,-1639.23,33.8462,46.1475,61.5502,26191.2,11111.7,38330.2,-135.555,31.2045,-44.1507,17935.6,4154.7,3473.13,-113.02,0.606987,114.947
3.253,8927.73,-18912.0,12936.9,23.1153,-307.27,-128.708,4075.96,7035.66,11062.7,-0.94041,-346.454,97.5064,7804.26,14027.4,11248.4,-1.64658,-34.2148,-196.201,1897.85,-17097.4,-1160.07,50.4549,16.4007,171.054,9077.93,-13021.3,-1473.3,37.6317,46.2936,60.2771,23251.4,7840.77,38023.9,-141.514,-22.7037,-63.8389,17823.2,4355.51,3343.99,-115.341,2.6562,113.652
3.254,2238.5,-19092.7,10887.5,15.5447,-309.336,-114.75,4001.43,7164.22,11140.9,-1.36085,-351.612,99.3911,6535.63,12173.3,9235.54,10.4053,-21.0718,-197.355,2002.55,-16869.0,-1261.1,49.3971,15.0665,172.107,9201.09,-12688.5,-1437.14,38.9472,46.5474,58.87,20349.0,6456.95,33408.2,-139.103,-31.3041,-73.3354,17476.5,4125.49,3332.1,-118.476,4.84364,110.501
3.255,-3095.95,-18856.4,8643.54,16.6899,-309.358,-97.5216,3939.45,7228.93,11207.3,-1.88981,-356.945,101.392,4738.15,10388.1,6933.4,23.0156,-6.49148,-200.27,2044.22,-16695.2,-1365.29,48.3982,13.6262,173.246,9348.81,-12391.9,-1465.86,39.0277,46.8551,57.396,17465.2,6016.7,26637.8,-132.507,-17.2506,-77.7361,17012.6,3680.06,3378.82,-122.019,7.10021,106.421
3.256,-8430.4,-18620.2,6399.56,17.835,-309.38,-80.2927,3877.47,7293.65,11273.7,-2.41878,-362.277,103.392,2940.67,8602.83,4631.26,35.6259,8.08889,-203.185,2085.89,-16521.5,-1469.48,47.3993,12.1858,174.385,9496.52,-12095.2,-1494.58,39.1082,47.1629,55.9219,14581.3,5576.46,19867.4,-125.911,-3.19712,-82.1367,16548.7,3234.63,3425.55,-125.563,9.35677,102.34
3.257,-13764.8,-18383.9,4155.58,18.9802,-309.402,-63.0639,3815.48,7358.36,11340.1,-2.94774,-367.61,105.393,1143.19,6817.59,2329.12,48.2363,22.6693,-206.1,2127.56,-16347.7,-1573.67,46.4004,10.7455,175.524,9644.23,-11798.6,-1523.3,39.1887,47.4706,54.4478,11697.5,5136.21,13096.9,-119.316,10.8564,-86.5374,16084.9,2789.21,3472.28,-129.106,11.6133,98.2601
3.258,-18166.6,-17812.6,2299.34,24.2019,-308.183,-47.6432,3769.36,7428.18,11394.8,-3.46487,-373.061,107.577,-469.697,5308.78,276.923,58.2287,35.2759,-209.932,2168.01,-16227.9,-1679.32,45.4857,9.29171,176.659,9800.53,-11549.5,-1582.35,38.7923,48.0362,52.8287,8910.6,4743.75,6948.02,-108.002,32.6938,-88.1117,15594.8,2331.73,3389.79,-131.255,13.4626,93.9212
3.259,-19304.1,-16068.8,1800.17,43.6917,-302.618,-38.5511,3778.74,7515.89,11408.8,-3.94056,-378.925,110.405,-1436.5,4767.45,-900.455,59.0587,40.9744,-216.976,2204.14,-16296.9,-1790.04,44.8658,7.79093,177.778,9986.86,-11466.9,-1747.55,36.7266,49.5045,50.7019,6462.94,4518.51,2974.32,-80.1773,81.7748,-79.7934,15013.1,1832.1,2855.04,-128.523,13.8866,88.6767
3.26,-20441.6,-14324.9,1301.01,63.1816,-297.054,-29.459,3788.13,7603.6,11422.8,-4.41626,-384.789,113.232,-2403.3,4226.12,-2077.83,59.8887,46.673,-224.02,2240.28,-16365.9,-1900.76,44.2459,6.29015,178.898,10173.2,-11384.4,-1912.75,34.661,50.9729,48.5751,4015.27,4293.27,-999.381,-52.3522,130.856,-71.4751,14431.4,1332.47,2320.3,-125.792,14.3105,83.4322
3.261,-21579.1,-12581.1,801.848,82.6714,-291.49,-20.3669,3797.51,7691.31,11436.9,-4.89196,-390.653,116.059,-3370.1,3684.78,-3255.21,60.7187,52.3715,-231.064,2276.41,-16435.0,-2011.48,43.626,4.78936,180.017,10359.5,-11301.8,-2077.95,32.5953,52.4412,46.4483,1567.6,4068.03,-4973.08,-24.527,179.937,-63.1569,13849.7,832.838,1785.55,-123.061,14.7344,78.1877
3.262,-22716.5,-10837.3,302.685,102.161,-285.926,-11.2747,3806.9,7779.02,11450.9,-5.36766,-396.517,118.887,-4336.9,3143.45,-4432.59,61.5487,58.07,-238.108,2312.55,-16504.0,-2122.2,43.006,3.28858,181.136,10545.9,-11219.2,-2243.15,30.5296,53.9096,44.3215,-880.064,3842.8,-8946.78,3.29815,229.018,-54.8386,13268.0,333.207,1250.8,-120.329,15.1583,72.9432
3.263,-19869.7,-11605.2,3759.76,153.199,-228.233,-20.2721,3801.21,7912.58,11414.8,-4.67735,-402.717,123.07,-5231.8,3276.57,-5621.68,62.6778,61.2172,-244.895,2408.43,-16588.0,-2252.64,42.203,1.6876,182.488,10685.6,-11230.5,-2334.92,28.6298,56.4618,41.7316,-3118.61,3736.61,-9417.58,37.238,259.626,-45.1703,12765.6,-12.3268,650.895,-111.064,14.0114,67.4914
3.264,-15884.5,-13090.7,8347.19,213.251,-155.645,-34.4379,3791.22,8059.23,11364.5,-3.6539,-409.014,127.641,-6106.15,3602.39,-6814.13,63.8924,63.6354,-251.608,2521.38,-16676.3,-2388.71,41.3477,0.0579945,183.906,10812.0,-11268.7,-2405.72,26.7774,59.3236,39.0093,-5297.4,3664.45,-8887.55,72.9248,284.955,-35.1164,12285.9,-313.833,32.3698,-99.9316,12.4157,61.9804
3.265,-11899.3,-14576.3,12934.6,273.304,-83.058,-48.6037,3781.23,8205.89,11314.1,-2.63046,-415.31,132.211,-6980.5,3928.21,-8006.57,65.107,66.0536,-258.322,2634.33,-16764.7,-2524.78,40.4924,-1.57161,185.325,10938.4,-11306.9,-2476.51,24.9251,62.1854,36.287,-7476.19,3592.28,-8357.52,108.612,310.285,-25.0625,11806.2,-615.339,-586.155,-88.7993,10.8199,56.4693
3.266,-7914.16,-16061.8,17522.0,333.356,-10.4705,-62.7696,3771.24,8352.54,11263.8,-1.60701,-421.607,136.782,-7854.85,4254.02,-9199.02,66.3216,68.4718,-265.035,2747.28,-16853.0,-2660.85,39.6371,-3.20122,186.743,11064.8,-11345.1,-2547.3,23.0727,65.0473,33.5648,-9654.98,3520.11,-7827.48,144.299,335.615,-15.0085,11326.4,-916.845,-1204.68,-77.6669,9.22415,50.9583
3.267,-2770.68,-17331.7,21414.3,353.522,46.7943,-75.4345,3748.09,8457.12,11176.3,-0.612769,-428.049,141.609,-8979.39,4666.11,-10659.3,68.0891,69.6051,-269.188,2890.67,-16961.1,-2773.33,38.6944,-4.95539,188.11,11183.6,-11402.8,-2572.42,21.8264,67.8728,30.7907,-11653.1,3572.57,-7144.79,174.94,348.117,-6.41517,10926.3,-1171.89,-1616.53,-65.7606,7.38632,45.4939
3.268,4689.39,-18170.2,23916.2,293.916,73.4138,-85.0978,3698.61,8477.54,11014.7,0.323059,-434.782,146.952,-10604.3,5250.71,-12655.4,70.962,68.1685,-268.222,3094.93,-17108.7,-2838.62,37.5769,-6.95871,189.376,11287.4,-11499.6,-2506.17,21.7924,70.6258,27.9132,-13289.8,3874.27,-6156.78,195.489,334.965,-0.742998,10685.4,-1334.0,-1615.03,-52.306,5.06433,40.123
3.269,12149.5,-19008.6,26418.2,234.31,100.033,-94.7612,3649.14,8497.96,10853.1,1.25889,-441.515,152.294,-12229.2,5835.31,-14651.4,73.835,66.732,-267.255,3299.18,-17256.3,-2903.92,36.4594,-8.96203,190.641,11391.1,-11596.4,-2439.93,21.7584,73.3787,25.0356,-14926.5,4175.97,-5168.76,216.038,321.812,4.92917,10444.4,-1496.12,-1613.53,-38.8515,2.74234,34.752
3.27,19609.5,-19847.1,28920.1,174.704,126.653,-104.424,3599.66,8518.38,10691.5,2.19471,-448.249,157.636,-13854.1,6419.92,-16647.4,76.708,65.2954,-266.289,3503.44,-17403.9,-2969.22,35.342,-10.9653,191.906,11494.9,-11693.2,-2373.68,21.7244,76.1317,22.1581,-16563.3,4477.66,-4180.75,236.587,308.66,10.6013,10203.5,-1658.23,-1612.03,-25.397,0.420354,29.381
3.271,27069.6,-20685.6,31422.0,115.098,153.272,-114.088,3550.18,8538.81,10529.9,3.13054,-454.982,162.978,-15479.0,7004.52,-18643.4,79.5809,63.8588,-265.322,3707.69,-17551.6,-3034.51,34.2245,-12.9687,193.172,11598.6,-11790.0,-2307.44,21.6903,78.8846,19.2806,-18200.0,4779.36,-3192.73,257.137,295.508,16.2735,9962.56,-1820.35,-1610.53,-11.9425,-1.90164,24.01
3.272,33057.4,-13346.9,27763.9,59.4226,149.428,-101.587,3506.12,8519.83,10398.1,2.63535,-462.1,167.974,-15747.7,7489.64,-17107.9,72.2425,47.9223,-260.748,3873.7,-17684.1,-3160.55,33.1152,-15.2726,194.499,11708.2,-11850.0,-2239.35,22.9335,81.1343,16.7429,-19249.8,5178.44,-3255.25,251.217,272.741,17.3236,10166.6,-1885.09,-1018.55,-0.978194,-3.67646,20.389
3.273,38861.3,-4986.01,23335.9,4.23871,141.775,-86.3158,3462.73,8495.92,10270.1,1.96128,-469.266,172.926,-15846.9,7962.32,-15131.0,63.6275,30.1732,-255.724,4034.94,-17814.8,-3294.18,32.0069,-17.6141,195.833,11818.6,-11905.5,-2171.04,24.3364,83.321,14.2478,-20226.3,5589.68,-3449.07,241.989,248.772,17.796,10426.2,-1937.66,-352.761,9.67478,-5.38289,16.9867
3.274,44665.1,3374.88,18907.8,-50.9451,134.123,-71.0445,3419.33,8472.0,10142.1,1.28721,-476.432,177.878,-15946.1,8435.0,-13154.0,55.0126,12.4241,-250.699,4196.17,-17945.5,-3427.81,30.8987,-19.9557,197.168,11929.0,-11960.9,-2102.72,25.7392,85.5078,11.7527,-21202.9,6000.93,-3642.9,232.76,224.804,18.2683,10685.8,-1990.23,313.031,20.3278,-7.08932,13.5844
3.275,50468.9,11735.8,14479.7,-106.129,126.47,-55.7732,3375.94,8448.1,10014.1,0.613138,-483.598,182.831,-16045.4,8907.67,-11177.1,46.3977,-5.32499,-245.674,4357.4,-18076.2,-3561.44,29.7904,-22.2972,198.503,12039.4,-12016.4,-2034.41,27.1421,87.6945,9.25759,-22179.4,6412.18,-3836.73,223.532,200.835,18.7407,10945.4,-2042.8,978.822,30.9807,-8.79574,10.1822
3.276,54131.8,18014.7,12285.9,-111.538,116.007,-46.1869,3368.09,8437.21,9915.24,-1.26316,-491.597,188.088,-15425.1,9694.74,-9091.62,38.7404,-23.7197,-240.625,4449.92,-18213.5,-3689.45,28.5429,-24.8218,200.071,12137.8,-12012.0,-1988.77,28.6964,89.5262,7.0263,-22899.8,7179.35,-3772.92,208.663,177.93,19.5028,11276.2,-2121.05,1647.62,38.0919,-9.66055,8.14874
3.277,55118.4,21691.2,12884.9,-54.7274,102.03,-43.7069,3404.66,8442.59,9852.8,-4.64226,-500.638,193.728,-13905.6,10874.8,-6870.57,32.28,-42.9215,-235.547,4456.56,-18358.9,-3810.44,27.1214,-27.5751,201.931,12221.3,-11933.0,-1971.49,30.4402,90.914,5.12481,-23300.2,8391.41,-3387.08,186.744,156.354,20.627,11696.2,-2231.39,2320.18,40.7757,-9.47334,7.82639
3.278,56105.1,25367.7,13483.8,2.08285,88.0536,-41.2268,3441.23,8447.97,9790.35,-8.02135,-509.678,199.368,-12386.1,12054.8,-4649.52,25.8196,-62.1233,-230.468,4463.2,-18504.3,-3931.43,25.6999,-30.3284,203.792,12304.8,-11853.9,-1954.21,32.1839,92.3019,3.22331,-23700.7,9603.48,-3001.23,164.825,134.778,21.7512,12116.1,-2341.73,2992.75,43.4596,-9.28612,7.50403
3.279,57091.7,29044.2,14082.8,58.8931,74.077,-38.7468,3477.8,8453.36,9727.91,-11.4004,-518.718,205.008,-10866.6,13234.9,-2428.47,19.3591,-81.3251,-225.39,4469.84,-18649.8,-4052.41,24.2784,-33.0818,205.652,12388.3,-11774.9,-1936.93,33.9277,93.6897,1.32182,-24101.1,10815.5,-2615.38,142.906,113.201,22.8754,12536.0,-2452.06,3665.31,46.1435,-9.0989,7.18168
3.28,58078.3,32720.7,14681.8,115.703,60.1003,-36.2667,3514.37,8458.74,9665.47,-14.7795,-527.759,210.648,-9347.13,14414.9,-207.42,12.8987,-100.527,-220.312,4476.48,-18795.2,-4173.4,22.8569,-35.8351,207.512,12471.8,-11695.8,-1919.65,35.6714,95.0776,-0.579676,-24501.5,12027.6,-2229.53,120.987,91.6254,23.9996,12956.0,-2562.4,4337.87,48.8273,-8.91169,6.85933
3.281,53403.1,26786.8,13073.9,106.385,52.2533,-39.7521,3664.8,8444.43,9751.07,-18.1759,-538.103,216.46,-9716.1,14851.7,1017.94,15.0644,-108.295,-220.236,4533.48,-19069.1,-3963.59,22.2706,-38.1989,208.971,12612.7,-11605.0,-1943.78,35.9889,95.7817,-1.73437,-24324.5,12224.5,-2976.32,105.31,85.1772,21.0018,13182.2,-2879.93,4383.47,45.0953,-7.26284,7.79233
3.282,48727.9,20852.8,11466.1,97.0665,44.4063,-43.2375,3815.23,8430.12,9836.68,-21.5723,-548.447,222.272,-10085.1,15288.5,2243.3,17.23,-116.063,-220.16,4590.49,-19343.0,-3753.78,21.6844,-40.5627,210.43,12753.5,-11514.1,-1967.9,36.3065,96.4858,-2.88907,-24147.4,12421.4,-3723.1,89.6329,78.7291,18.004,13408.4,-3197.46,4429.08,41.3632,-5.614,8.72534
3.283,44052.7,14918.9,9858.23,87.7481,36.5593,-46.7228,3965.66,8415.8,9922.28,-24.9686,-558.791,228.084,-10454.0,15725.2,3468.65,19.3957,-123.831,-220.084,4647.49,-19616.9,-3543.98,21.0981,-42.9265,211.889,12894.3,-11423.3,-1992.02,36.624,97.19,-4.04377,-23970.4,12618.3,-4469.89,73.9557,72.2809,15.0063,13634.7,-3514.98,4474.69,37.6311,-3.96515,9.65834
3.284,39377.4,8984.97,8250.38,78.4297,28.7123,-50.2082,4116.09,8401.49,10007.9,-28.365,-569.135,233.896,-10823.0,16162.0,4694.01,21.5613,-131.6,-220.008,4704.5,-19890.7,-3334.17,20.5119,-45.2904,213.348,13035.2,-11332.4,-2016.14,36.9415,97.8941,-5.19846,-23793.4,12815.2,-5216.67,58.2785,65.8327,12.0085,13860.9,-3832.51,4520.29,33.8991,-2.31631,10.5914
3.285,33890.7,4298.04,7617.84,69.2962,23.8347,-39.6984,4291.34,8287.39,10219.5,-31.1385,-578.397,238.077,-11561.1,16347.2,5396.44,22.7161,-134.278,-225.104,4924.8,-20225.9,-3175.39,19.6194,-47.0567,214.556,13193.5,-11295.9,-1878.94,36.6093,97.4416,-6.26484,-23444.7,12581.2,-5706.2,49.1819,60.4964,6.85302,13958.9,-4152.6,4352.95,31.6793,-1.34026,11.582
3.286,27754.8,608.704,7765.55,60.3106,21.3327,-17.9923,4486.44,8093.47,10532.0,-33.4136,-586.792,240.952,-12594.6,16331.1,5680.52,23.0623,-132.883,-234.34,5275.74,-20610.2,-3057.44,18.482,-48.3451,215.564,13365.7,-11303.0,-1612.68,35.7573,96.0638,-7.26056,-22958.7,12002.5,-5989.92,45.3498,56.0497,-0.0286077,13954.2,-4474.74,4015.26,30.6694,-0.902439,12.6187
3.287,21618.9,-3080.63,7913.27,51.325,18.8306,3.7137,4681.54,7899.55,10844.5,-35.6888,-595.188,243.827,-13628.0,16314.9,5964.6,23.4086,-131.489,-243.575,5626.68,-20994.4,-2939.48,17.3446,-49.6335,216.571,13537.9,-11310.0,-1346.42,34.9054,94.686,-8.25628,-22472.7,11423.8,-6273.63,41.5177,51.603,-6.91023,13949.6,-4796.88,3677.56,29.6596,-0.464622,13.6555
3.288,15482.9,-6769.96,8060.98,42.3395,16.3285,25.4197,4876.64,7705.63,11157.0,-37.9639,-603.584,246.702,-14661.5,16298.8,6248.68,23.7548,-130.095,-252.81,5977.62,-21378.6,-2821.53,16.2072,-50.9219,217.579,13710.1,-11317.0,-1080.16,34.0534,93.3082,-9.25199,-21986.7,10845.0,-6557.35,37.6856,47.1563,-13.7919,13945.0,-5119.02,3339.87,28.6497,-0.0268049,14.6922
3.289,9484.36,-10260.0,8018.75,34.2139,14.3865,45.4074,5036.17,7519.32,11470.2,-40.3589,-611.813,249.264,-15454.0,16448.6,6330.44,23.6276,-127.631,-261.325,6367.8,-21749.4,-2714.7,15.0797,-52.3985,218.446,13889.8,-11323.6,-818.238,33.3434,91.6857,-10.2075,-21485.5,10305.1,-6768.93,34.7104,42.0877,-20.0584,13933.6,-5420.24,3039.3,28.0585,0.102303,15.7025
3.29,4584.43,-12156.1,6456.96,32.9689,16.9248,51.6478,4911.05,7393.93,11789.6,-43.7128,-618.7,249.32,-14319.1,17925.1,4793.63,19.7136,-116.61,-264.078,7071.88,-22012.3,-2696.85,14.0309,-55.381,218.192,14129.2,-11326.7,-591.006,33.7685,88.1052,-10.841,-20862.9,10075.3,-6403.42,38.5912,32.0441,-21.4041,13868.4,-5554.03,3035.75,30.8166,-2.23827,16.5013
3.291,-315.497,-14052.2,4895.16,31.7238,19.4631,57.8883,4785.94,7268.54,12109.0,-47.0667,-625.587,249.377,-13184.2,19401.7,3256.82,15.7996,-105.589,-266.83,7775.95,-22275.3,-2678.99,12.9821,-58.3636,217.938,14368.5,-11329.8,-363.773,34.1937,84.5247,-11.4746,-20240.4,9845.5,-6037.91,42.472,22.0005,-22.7499,13803.1,-5687.83,3032.2,33.5748,-4.57884,17.3
3.292,-5215.43,-15948.3,3333.37,30.4787,22.0014,64.1287,4660.83,7143.14,12428.4,-50.4206,-632.474,249.433,-12049.3,20878.3,1720.0,11.8855,-94.5678,-269.583,8480.03,-22538.3,-2661.14,11.9333,-61.3461,217.683,14607.8,-11332.9,-136.541,34.6188,80.9442,-12.1081,-19617.8,9615.71,-5672.4,46.3528,11.9568,-24.0956,13737.8,-5821.62,3028.65,36.333,-6.9194,18.0988
3.293,-10115.4,-17844.4,1771.57,29.2337,24.5397,70.3692,4535.71,7017.75,12747.8,-53.7745,-639.361,249.489,-10914.4,22354.9,183.192,7.9715,-83.5468,-272.336,9184.1,-22801.3,-2643.29,10.8846,-64.3286,217.429,14847.2,-11336.0,90.6918,35.0439,77.3637,-12.7416,-18995.3,9385.93,-5306.89,50.2335,1.91324,-25.4414,13672.6,-5955.42,3025.1,39.0912,-9.25997,18.8976
3.294,-11802.7,-17035.4,1924.44,25.3872,29.4372,57.7,4148.13,7033.92,12955.0,-54.5933,-645.83,249.586,-9225.91,22618.4,-937.083,8.30075,-72.5076,-266.746,9880.63,-22907.5,-2514.61,10.9887,-68.5114,216.26,15116.0,-11315.3,623.509,38.2905,71.0643,-12.8434,-18619.8,9213.48,-4822.6,52.3467,-8.24323,-26.1052,13733.0,-5978.19,3182.03,41.465,-11.7388,19.8235
3.295,-11883.8,-14873.8,2934.63,20.24,35.5144,35.576,3629.31,7120.86,13106.2,-54.1445,-652.091,249.703,-7260.55,22275.5,-1849.09,10.7516,-61.4593,-256.984,10573.4,-22935.3,-2330.53,11.6692,-73.2942,214.633,15399.4,-11282.8,1309.12,42.9479,63.4055,-12.6794,-18367.9,9069.71,-4278.93,53.5761,-18.4561,-26.4281,13856.3,-5945.44,3419.21,43.6466,-14.2866,20.8129
3.296,-11964.8,-12712.3,3944.82,15.0928,41.5916,13.452,3110.48,7207.81,13257.4,-53.6957,-658.352,249.821,-5295.19,21932.5,-2761.1,13.2025,-50.411,-247.222,11266.2,-22963.1,-2146.45,12.3498,-78.077,213.007,15682.9,-11250.3,1994.73,47.6052,55.7467,-12.5153,-18115.9,8925.94,-3735.25,54.8054,-28.669,-26.7509,13979.6,-5912.69,3656.39,45.8282,-16.8345,21.8023
3.297,-12045.9,-10550.7,4955.02,9.94567,47.6688,-8.67193,2591.66,7294.75,13408.5,-53.247,-664.612,249.938,-3329.84,21589.6,-3673.11,15.6534,-39.3627,-237.46,11958.9,-22990.8,-1962.36,13.0304,-82.8599,211.38,15966.4,-11217.7,2680.34,52.2625,48.0879,-12.3512,-17864.0,8782.17,-3191.58,56.0348,-38.8819,-27.0738,14102.9,-5879.95,3893.57,48.0098,-19.3824,22.7918
3.298,-11396.8,-8122.24,5963.85,6.89008,52.9875,-27.2982,2084.04,7365.25,13526.1,-51.891,-670.352,250.152,-1666.67,20826.3,-4356.93,18.0114,-30.4556,-228.012,12588.6,-22974.7,-1768.49,13.938,-87.3453,209.602,16133.1,-11197.6,3414.03,57.6273,39.3889,-12.1454,-17672.8,8621.24,-2673.87,55.9025,-49.0962,-27.7988,14247.5,-5842.6,4120.34,49.3694,-21.3566,23.9373
3.299,-8192.58,-4759.63,6967.95,11.155,55.6517,-33.6825,1615.6,7378.2,13526.0,-47.3598,-674.266,250.704,-1061.19,18591.9,-4242.1,20.0443,-29.0428,-219.666,12997.4,-22805.0,-1540.33,15.6406,-90.7895,207.292,15891.4,-11220.7,4316.02,65.4681,27.0493,-11.7934,-17694.4,8400.24,-2247.07,51.0046,-59.3156,-29.9314,14466.4,-5789.12,4310.68,47.8518,-21.3228,25.629
3.3,-4988.32,-1397.02,7972.05,15.42,58.3159,-40.0668,1147.17,7391.15,13525.8,-42.8286,-678.181,251.256,-455.699,16357.5,-4127.27,22.0771,-27.63,-211.319,13406.2,-22635.3,-1312.17,17.3431,-94.2337,204.983,15649.6,-11243.8,5218.01,73.309,14.7097,-11.4414,-17716.0,8179.24,-1820.27,46.1067,-69.535,-32.0639,14685.3,-5735.65,4501.02,46.3342,-21.289,27.3206
3.301,-1784.07,1965.58,8976.15,19.6849,60.98,-46.4512,678.734,7404.1,13525.7,-38.2975,-682.095,251.809,149.788,14123.1,-4012.44,24.1099,-26.2171,-202.973,13815.0,-22465.6,-1084.02,19.0457,-97.678,202.673,15407.9,-11267.0,6120.0,81.1499,2.37012,-11.0894,-17737.6,7958.24,-1393.47,41.2088,-79.7543,-34.1965,14904.3,-5682.18,4691.36,44.8165,-21.2552,29.0123
3.302,1420.19,5328.19,9980.25,23.9499,63.6442,-52.8355,210.3,7417.06,13525.6,-33.7663,-686.01,252.361,755.275,11888.7,-3897.61,26.1427,-24.8043,-194.626,14223.8,-22295.9,-855.862,20.7483,-101.122,200.364,15166.2,-11290.1,7021.99,88.9907,-9.96947,-10.7374,-17759.2,7737.24,-966.671,36.3109,-89.9737,-36.3291,15123.2,-5628.7,4881.7,43.2989,-21.2214,30.704
3.303,3927.33,6008.22,10535.6,23.3927,62.9895,-47.2585,19.7237,7462.41,13455.0,-28.6933,-687.349,252.443,783.754,10544.2,-3243.0,25.9685,-29.1099,-189.433,14438.3,-21955.4,-650.113,23.106,-102.133,198.631,14268.8,-11481.5,7163.77,94.883,-19.5611,-11.3772,-17562.8,7573.3,-1103.95,30.4606,-96.2989,-40.3258,15257.1,-5605.01,5067.16,39.1665,-19.5572,32.578
3.304,6235.3,5921.79,10962.7,21.4578,61.3865,-38.2641,-91.4647,7517.02,13364.3,-23.4655,-687.953,252.391,647.372,9453.78,-2434.16,25.1636,-35.0493,-185.14,14597.4,-21566.2,-450.766,25.6509,-102.449,197.062,13184.1,-11721.0,7088.35,100.219,-28.3677,-12.3003,-17304.0,7425.68,-1402.4,24.3382,-101.511,-44.8553,15366.6,-5589.82,5251.22,34.287,-17.4271,34.504
3.305,8543.28,5835.36,11389.9,19.5229,59.7836,-29.2696,-202.653,7571.62,13273.6,-18.2377,-688.557,252.339,510.99,8363.41,-1625.32,24.3588,-40.9887,-180.847,14756.5,-21177.0,-251.419,28.1958,-102.765,195.493,12099.4,-11960.5,7012.93,105.554,-37.1742,-13.2235,-17045.3,7278.05,-1700.85,18.2158,-106.724,-49.3847,15476.2,-5574.63,5435.28,29.4075,-15.297,36.4301
3.306,10851.2,5748.93,11817.0,17.588,58.1806,-20.2752,-313.842,7626.23,13182.9,-13.0099,-689.161,252.287,374.608,7273.03,-816.488,23.554,-46.9282,-176.554,14915.5,-20787.7,-52.0716,30.7407,-103.081,193.924,11014.7,-12200.0,6937.51,110.89,-45.9807,-14.1467,-16786.6,7130.42,-1999.31,12.0934,-111.937,-53.9141,15585.7,-5559.44,5619.34,24.528,-13.1668,38.3561
3.307,12449.6,5099.56,11931.2,16.4223,56.3433,-13.9264,-224.132,7553.59,13010.9,-6.60979,-689.425,250.28,202.75,6568.15,-221.375,22.6516,-51.2223,-173.448,14974.6,-20377.3,152.785,33.4033,-102.437,192.619,9851.49,-12419.9,6570.84,114.239,-51.7976,-15.4633,-16398.6,7050.78,-2324.67,6.68428,-115.507,-58.6434,15639.0,-5535.96,5774.49,19.6123,-10.9161,40.3089
3.308,12628.9,3324.3,11419.7,16.7949,54.0373,-12.869,267.374,7226.43,12676.2,2.13505,-689.01,244.362,-40.0626,6634.23,-53.7098,21.554,-52.2258,-172.715,14833.9,-19924.4,368.662,36.3012,-99.8716,191.842,8531.31,-12600.5,5621.66,113.617,-51.635,-17.5666,-15752.3,7107.13,-2703.85,2.70158,-115.794,-63.7726,15579.6,-5495.89,5871.83,14.6243,-8.42421,42.3151
3.309,12808.2,1549.04,10908.3,17.1676,51.7312,-11.8117,758.879,6899.28,12341.4,10.8799,-688.594,238.444,-282.875,6700.32,113.955,20.4564,-53.2292,-171.981,14693.1,-19471.6,584.538,39.1992,-97.3063,191.066,7211.12,-12781.1,4672.49,112.995,-51.4725,-19.67,-15106.0,7163.48,-3083.04,-1.28113,-116.08,-68.9018,15520.3,-5455.83,5969.17,9.63621,-5.93229,44.3214
3.31,12987.4,-226.219,10396.8,17.5402,49.4252,-10.7543,1250.39,6572.12,12006.7,19.6247,-688.179,232.527,-525.687,6766.4,281.62,19.3589,-54.2327,-171.248,14552.3,-19018.7,800.414,42.0972,-94.7411,190.289,5890.93,-12961.7,3723.31,112.373,-51.31,-21.7733,-14459.7,7219.82,-3462.22,-5.26384,-116.367,-74.031,15460.9,-5415.76,6066.51,4.64815,-3.44036,46.3277
3.311,13166.7,-2001.48,9885.27,17.9128,47.1191,-9.69693,1741.89,6244.97,11671.9,28.3696,-687.764,226.609,-768.5,6832.49,449.286,18.2613,-55.2362,-170.515,14411.6,-18565.8,1016.29,44.9951,-92.1758,189.512,4570.75,-13142.4,2774.14,111.75,-51.1475,-23.8766,-13813.4,7276.17,-3841.41,-9.24655,-116.653,-79.1602,15401.5,-5375.69,6163.85,-0.339903,-0.948437,48.3339
3.312,12281.5,-3003.91,9455.49,15.9939,45.4571,-8.29348,2850.6,5408.83,11204.2,41.0144,-686.414,214.823,-1051.07,6749.0,239.192,18.5587,-50.8452,-170.801,13870.7,-18197.7,1218.06,47.8144,-87.7836,189.78,3655.77,-13020.9,1836.88,107.101,-46.6087,-25.8106,-13279.1,7324.16,-3882.53,-10.5376,-115.639,-84.5289,15200.7,-5285.0,6159.25,-3.76346,1.23912,49.9511
3.313,11263.2,-3909.74,9035.92,13.7885,43.8755,-6.84678,4036.45,4509.08,10719.9,54.1468,-684.948,202.304,-1338.61,6646.82,-18.1212,19.0305,-45.78,-171.214,13279.9,-17840.3,1418.06,50.6238,-83.1629,190.18,2791.45,-12861.7,901.11,101.949,-41.5229,-27.7233,-12758.7,7371.11,-3881.39,-11.4921,-114.462,-89.9275,14982.3,-5187.98,6141.91,-6.99146,3.38863,51.5197
3.314,10244.9,-4815.57,8616.35,11.5832,42.294,-5.40007,5222.31,3609.32,10235.6,67.2792,-683.481,189.784,-1626.15,6544.64,-275.435,19.5023,-40.7147,-171.628,12689.0,-17482.8,1618.07,53.4332,-78.5422,190.579,1927.13,-12702.4,-34.6578,96.796,-36.437,-29.636,-12238.4,7418.06,-3880.25,-12.4467,-113.286,-95.3261,14763.8,-5090.96,6124.56,-10.2195,5.53814,53.0883
3.315,9226.66,-5721.4,8196.78,9.3778,40.7125,-3.95337,6408.17,2709.57,9751.29,80.4116,-682.014,177.265,-1913.69,6442.46,-532.748,19.9741,-35.6495,-172.041,12098.1,-17125.3,1818.07,56.2426,-73.9215,190.978,1062.8,-12543.2,-970.426,91.6435,-31.3512,-31.5488,-11718.0,7465.01,-3879.12,-13.4012,-112.109,-100.725,14545.3,-4993.94,6107.22,-13.4475,7.68765,54.6569
3.316,8191.55,-6080.57,8050.44,7.61356,39.3868,-3.25883,7750.43,1950.21,9524.73,92.3223,-679.375,165.383,-2078.82,6374.16,-511.75,21.0584,-31.0406,-171.823,11325.7,-16884.2,1933.79,58.9747,-69.8815,191.83,457.29,-12357.2,-1631.18,85.93,-27.0491,-33.7734,-11335.8,7496.63,-3774.31,-13.5129,-111.857,-105.996,14305.6,-4870.31,6105.42,-15.7925,9.54033,55.8044
3.317,7135.39,-5756.39,8245.62,6.4007,38.3811,-3.50449,9288.19,1366.35,9620.36,102.706,-675.271,154.299,-2090.94,6348.22,-142.863,22.9083,-27.0022,-170.814,10326.2,-16788.4,1944.15,61.6101,-66.5674,193.249,175.289,-12137.7,-1948.17,79.5152,-23.7264,-36.3879,-11126.3,7509.11,-3539.93,-12.5711,-112.762,-111.109,14039.2,-4713.42,6123.03,-17.0339,11.022,56.4255
3.318,6079.23,-5432.22,8440.8,5.18785,37.3753,-3.75015,10826.0,782.486,9715.98,113.09,-671.166,143.215,-2103.06,6322.28,226.023,24.7581,-22.9638,-169.806,9326.71,-16692.6,1954.51,64.2456,-63.2533,194.667,-106.711,-11918.2,-2265.16,73.1005,-20.4038,-39.0023,-10916.9,7521.58,-3305.54,-11.6293,-113.666,-116.221,13772.9,-4556.52,6140.65,-18.2753,12.5036,57.0467
3.319,5023.08,-5108.05,8635.98,3.975,36.3695,-3.99581,12363.7,198.625,9811.61,123.474,-667.062,132.13,-2115.18,6296.34,594.91,26.608,-18.9254,-168.797,8327.23,-16596.9,1964.87,66.881,-59.9391,196.086,-388.712,-11698.7,-2582.14,66.6858,-17.0812,-41.6167,-10707.4,7534.06,-3071.15,-10.6875,-114.571,-121.334,13506.6,-4399.63,6158.26,-19.5167,13.9852,57.6678
3.32,3966.92,-4783.87,8831.16,2.76214,35.3637,-4.24148,13901.5,-385.236,9907.24,133.857,-662.958,121.046,-2127.3,6270.4,963.797,28.4579,-14.887,-167.788,7327.76,-16501.1,1975.23,69.5164,-56.625,197.504,-670.712,-11479.3,-2899.13,60.2711,-13.7585,-44.2312,-10497.9,7546.53,-2836.76,-9.74568,-115.476,-126.446,13240.2,-4242.73,6175.88,-20.7581,15.4668,58.2889
3.321,3483.67,-3418.62,9066.77,-0.0309923,35.4025,-5.73137,15274.7,701.539,10244.3,138.919,-658.392,119.474,-2108.97,6524.2,1262.17,30.375,-14.7685,-165.373,6528.19,-16608.7,1514.39,70.6693,-55.9778,199.314,-701.888,-11386.2,-2938.06,55.6234,-14.1471,-47.6791,-10339.9,7809.74,-2881.36,-8.39952,-118.933,-130.842,13045.7,-4061.77,6275.57,-20.7982,16.4655,58.096
3.322,3000.42,-2053.37,9302.38,-2.82413,35.4414,-7.22127,16647.9,1788.31,10581.5,143.98,-653.827,117.903,-2090.65,6778.0,1560.54,32.2922,-14.65,-162.958,5728.61,-16716.3,1053.55,71.8221,-55.3306,201.125,-733.064,-11293.2,-2976.98,50.9757,-14.5357,-51.1271,-10181.8,8072.94,-2925.96,-7.05335,-122.389,-135.238,12851.2,-3880.8,6375.26,-20.8383,17.4641,57.903
3.323,2517.16,-688.118,9537.98,-5.61727,35.4802,-8.71117,18021.0,2875.09,10918.6,149.041,-649.262,116.331,-2072.33,7031.81,1858.91,34.2094,-14.5316,-160.543,4929.04,-16823.9,592.719,72.975,-54.6834,202.935,-764.24,-11200.2,-3015.91,46.328,-14.9243,-54.5751,-10023.7,8336.15,-2970.56,-5.70719,-125.846,-139.634,12656.7,-3699.84,6474.96,-20.8784,18.4628,57.7101
3.324,2033.91,677.135,9773.59,-8.4104,35.519,-10.2011,19394.2,3961.86,11255.7,154.103,-644.696,114.759,-2054.0,7285.61,2157.28,36.1265,-14.4131,-158.128,4129.47,-16931.5,131.883,74.1278,-54.0362,204.745,-795.416,-11107.2,-3054.83,41.6804,-15.3128,-58.023,-9865.69,8599.35,-3015.16,-4.36102,-129.303,-144.03,12462.1,-3518.88,6574.65,-20.9185,19.4614,57.5172
3.325,1912.76,1608.58,9918.83,-9.65011,35.3043,-9.98434,20470.5,5547.85,11561.7,163.723,-640.657,121.355,-2273.11,7495.48,2219.56,36.8713,-16.5949,-155.877,3618.59,-17003.6,-624.956,74.1482,-52.938,206.252,-815.71,-11060.5,-3052.45,38.6908,-17.0921,-61.9645,-9668.12,8952.2,-3191.65,-3.20692,-133.016,-147.71,12310.1,-3336.71,6671.27,-21.0744,20.581,56.9539
3.326,2081.3,2192.97,9991.77,-9.64706,34.8869,-8.4023,21309.3,7533.22,11843.0,176.989,-637.038,134.484,-2682.15,7670.21,2092.96,36.6782,-20.617,-153.757,3338.66,-17047.3,-1618.6,73.2625,-51.4792,207.517,-827.297,-11051.0,-3017.01,37.0276,-19.984,-66.3006,-9438.93,9376.75,-3473.65,-2.20646,-136.935,-150.819,12192.1,-3153.58,6765.43,-21.3229,21.7973,56.0944
3.327,2249.83,2777.36,10064.7,-9.64401,34.4694,-6.82025,22148.1,9518.59,12124.2,190.256,-633.419,147.614,-3091.19,7844.93,1966.36,36.485,-24.6391,-151.637,3058.73,-17091.0,-2612.24,72.3769,-50.0203,208.782,-838.884,-11041.5,-2981.58,35.3645,-22.8759,-70.6368,-9209.75,9801.31,-3755.64,-1.206,-140.854,-153.927,12074.2,-2970.45,6859.59,-21.5714,23.0136,55.2349
3.328,2418.37,3361.76,10137.7,-9.64097,34.0519,-5.23821,22986.9,11504.0,12405.4,203.523,-629.801,160.743,-3500.24,8019.66,1839.76,36.2919,-28.6612,-149.517,2778.8,-17134.8,-3605.88,71.4912,-48.5615,210.046,-850.471,-11032.0,-2946.14,33.7014,-25.7678,-74.973,-8980.57,10225.9,-4037.64,-0.205547,-144.773,-157.035,11956.2,-2787.32,6953.75,-21.82,24.2298,54.3753
3.329,2616.24,3745.75,10170.9,-9.60779,33.5966,-3.70111,23878.5,13326.2,12549.8,214.874,-625.383,173.857,-3909.02,8196.52,1679.49,35.9575,-32.6775,-147.372,2540.1,-17167.0,-4574.53,70.411,-46.7592,211.157,-859.435,-11036.7,-2914.36,32.3149,-28.6897,-79.3617,-8742.42,10659.8,-4306.68,0.735461,-148.487,-159.978,11842.1,-2610.07,7038.13,-22.0764,25.4591,53.4549
3.33,3048.84,2526.56,9886.62,-9.33362,32.8386,-2.52353,25192.6,13843.2,11599.6,210.901,-614.571,186.848,-4315.68,8390.46,1249.83,34.4934,-36.6466,-145.028,2631.28,-17107.7,-5343.18,67.7747,-42.2101,211.04,-847.405,-11155.2,-2911.82,33.1422,-31.8519,-84.1699,-8432.59,11169.1,-4472.03,1.20088,-150.571,-161.599,11759.3,-2479.79,7044.24,-22.3964,26.7917,52.0467
3.331,3481.44,1307.37,9602.34,-9.05944,32.0805,-1.34595,26506.6,14360.1,10649.4,206.927,-603.76,199.838,-4722.34,8584.41,820.164,33.0293,-40.6157,-142.683,2722.46,-17048.3,-6111.83,65.1384,-37.661,210.923,-835.375,-11273.7,-2909.28,33.9694,-35.0141,-88.9782,-8122.75,11678.3,-4637.39,1.6663,-152.654,-163.22,11676.6,-2349.52,7050.35,-22.7163,28.1243,50.6386
3.332,3914.04,88.1849,9318.05,-8.78526,31.3225,-0.16837,27820.7,14877.1,9699.26,202.953,-592.948,212.828,-5129.0,8778.35,390.499,31.5651,-44.5849,-140.339,2813.64,-16989.0,-6880.48,62.5021,-33.1118,210.806,-823.346,-11392.2,-2906.74,34.7967,-38.1762,-93.7864,-7812.92,12187.6,-4802.74,2.13173,-154.738,-164.841,11593.8,-2219.24,7056.46,-23.0363,29.457,49.2305
3.333,4346.65,-1131.0,9033.77,-8.51108,30.5644,1.00921,29134.7,15394.1,8749.08,198.98,-582.137,225.818,-5535.66,8972.29,-39.1653,30.101,-48.554,-137.994,2904.82,-16929.7,-7649.13,59.8659,-28.5627,210.689,-811.316,-11510.7,-2904.2,35.6239,-41.3384,-98.5947,-7503.08,12696.9,-4968.1,2.59715,-156.821,-166.462,11511.0,-2088.97,7062.57,-23.3563,30.7896,47.8224
3.334,4743.98,-2324.05,8735.95,-8.65683,30.0141,1.11337,30051.1,15765.7,8217.12,187.453,-570.596,234.908,-5590.65,9215.93,-335.972,29.1936,-51.1616,-135.545,3033.71,-16959.3,-8246.54,57.2632,-22.1227,209.878,-758.712,-11712.9,-2900.25,37.1276,-43.6051,-103.571,-7121.69,13225.0,-5121.56,3.44701,-157.592,-166.991,11406.1,-2000.36,7030.32,-23.4718,31.7745,46.1479
3.335,5123.69,-3504.03,8431.37,-9.01253,29.5676,0.680809,30768.6,16064.5,7894.26,172.151,-558.691,242.048,-5469.81,9484.43,-566.35,28.5647,-53.0885,-133.042,3181.45,-17033.4,-8758.33,54.6773,-14.7374,208.72,-685.821,-11956.8,-2895.59,38.9694,-45.4242,-108.632,-6704.51,13762.6,-5269.07,4.48911,-157.706,-166.975,11290.1,-1932.59,6978.88,-23.4852,32.5855,44.3403
