Time,RFoot_accel.x,RFoot_accel.y,RFoot_accel.z,RFoot_gyro.x,RFoot_gyro.y,RFoot_gyro.z,LFoot_accel.x,LFoot_accel.y,LFoot_accel.z,LFoot_gyro.x,LFoot_gyro.y,LFoot_gyro.z,RShank_accel.x,RShank_accel.y,RShank_accel.z,RShank_gyro.x,RShank_gyro.y,RShank_gyro.z,LShank_accel.x,LShank_accel.y,LShank_accel.z,LShank_gyro.x,LShank_gyro.y,LShank_gyro.z,RThigh_accel.x,RThigh_accel.y,RThigh_accel.z,RThigh_gyro.x,RThigh_gyro.y,RThigh_gyro.z,LThigh_accel.x,LThigh_accel.y,LThigh_accel.z,LThigh_gyro.x,LThigh_gyro.y,LThigh_gyro.z,Pelvis_accel.x,Pelvis_accel.y,Pelvis_accel.z,Pelvis_gyro.x,Pelvis_gyro.y,Pelvis_gyro.z
3.1,4906.69,-2134.04,4391.34,-143.138,398.029,133.51,3471.44,5020.18,7620.94,14.9923,-10.5942,4.34926,715.05,7163.29,-1347.13,8.67345,-18.0613,292.263,-897.354,-9623.05,-1756.33,-8.46928,-26.5047,30.8141,1050.7,-8723.12,-403.038,-50.1205,-60.9117,98.4654,-5407.67,7893.33,-2603.71,7.16846,72.4351,142.851,6703.71,-1600.78,1461.0,9.11611,16.4427,38.0097
3.101,5063.02,-2340.46,4437.07,-145.915,396.545,134.167,3465.86,4894.12,7636.93,14.7847,-10.6243,4.67164,619.894,7155.85,-1355.49,9.06734,-19.7565,293.984,-860.627,-9601.88,-1728.98,-8.49996,-27.9875,30.9899,984.728,-8762.25,-392.93,-50.0506,-63.5023,98.2964,-5448.02,7755.62,-2467.45,9.00466,71.5122,140.418,6728.59,-1610.46,1431.81,9.47523,16.4305,37.8537
3.102,5219.36,-2546.87,4482.8,-148.692,395.06,134.823,3460.28,4768.06,7652.92,14.577,-10.6545,4.99403,524.737,7148.41,-1363.85,9.46124,-21.4517,295.705,-823.901,-9580.71,-1701.63,-8.53064,-29.4702,31.1658,918.76,-8801.38,-382.822,-49.9808,-66.0929,98.1274,-5488.37,7617.9,-2331.19,10.8409,70.5893,137.986,6753.47,-1620.15,1402.62,9.83436,16.4183,37.6976
3.103,5353.01,-2716.23,4552.22,-150.866,393.662,135.688,3482.49,4687.14,7669.61,14.4895,-10.6252,5.35064,427.159,7147.29,-1355.21,9.65877,-23.2017,297.262,-818.695,-9615.42,-1647.15,-8.54882,-30.4334,31.2844,897.876,-8841.84,-363.807,-49.8896,-69.2024,97.8644,-5508.45,7556.54,-2223.49,11.9039,69.4537,136.314,6781.8,-1613.34,1386.53,10.4064,16.3731,37.3326
3.104,5480.17,-2875.0,4628.4,-152.867,392.289,136.611,3512.64,4619.12,7686.5,14.4362,-10.5788,5.71703,328.889,7147.98,-1341.71,9.80019,-24.9675,298.771,-822.495,-9666.09,-1584.93,-8.56344,-31.2482,31.3867,889.874,-8882.68,-342.248,-49.7922,-72.4601,97.5746,-5522.74,7517.0,-2123.96,12.7461,68.2573,134.859,6811.12,-1601.82,1374.18,11.0392,16.3184,36.9079
3.105,5607.34,-3033.77,4704.59,-154.868,390.915,137.535,3542.79,4551.09,7703.39,14.383,-10.5324,6.08342,230.619,7148.67,-1328.21,9.94161,-26.7332,300.28,-826.295,-9716.76,-1522.71,-8.57805,-32.063,31.489,881.872,-8923.53,-320.689,-49.6949,-75.7179,97.2848,-5537.02,7477.45,-2024.43,13.5882,67.061,133.404,6840.44,-1590.29,1361.83,11.6721,16.2637,36.4833
3.106,5734.51,-3192.54,4780.77,-156.869,389.542,138.459,3572.94,4483.07,7720.28,14.3298,-10.4861,6.44982,132.349,7149.36,-1314.72,10.083,-28.4989,301.789,-830.095,-9767.44,-1460.49,-8.59267,-32.8777,31.5913,873.87,-8964.37,-299.129,-49.5976,-78.9756,96.9949,-5551.31,7437.91,-1924.9,14.4304,65.8646,131.95,6869.75,-1578.77,1349.48,12.3049,16.209,36.0586
3.107,5852.95,-3334.76,4865.74,-158.577,388.169,139.587,3619.55,4434.02,7741.66,14.2719,-10.4367,6.70459,63.9679,7153.35,-1305.77,10.2151,-30.0901,303.275,-835.536,-9822.41,-1417.09,-8.65273,-33.4314,31.7105,873.298,-9011.83,-301.311,-49.489,-82.2798,96.7179,-5563.98,7385.47,-1827.64,14.187,65.1015,131.082,6895.88,-1566.73,1337.99,12.8846,16.0762,35.5955
3.108,5953.93,-3443.88,4968.29,-159.701,386.798,141.126,3699.07,4422.91,7772.0,14.205,-10.3813,6.73613,55.3656,7163.96,-1305.93,10.3283,-31.3319,304.716,-844.258,-9885.96,-1411.35,-8.8037,-33.4629,31.8633,887.586,-9072.53,-350.976,-49.3578,-85.6767,96.4665,-5573.44,7307.23,-1734.93,11.7725,65.2049,131.389,6915.64,-1553.64,1328.2,13.3578,15.7871,35.0555
3.109,6054.9,-3552.99,5070.84,-160.824,385.427,142.664,3778.59,4411.8,7802.35,14.138,-10.3258,6.76766,46.7632,7174.57,-1306.09,10.4416,-32.5738,306.156,-852.98,-9949.52,-1405.6,-8.95466,-33.4944,32.0162,901.875,-9133.24,-400.64,-49.2267,-89.0737,96.2151,-5582.89,7229.0,-1642.21,9.35806,65.3084,131.696,6935.39,-1540.55,1318.41,13.8311,15.4979,34.5154
3.11,6155.88,-3662.1,5173.39,-161.948,384.057,144.202,3858.11,4400.69,7832.69,14.0711,-10.2704,6.7992,38.1609,7185.18,-1306.25,10.5548,-33.8157,307.596,-861.703,-10013.1,-1399.86,-9.10563,-33.5259,32.1691,916.163,-9193.93,-450.305,-49.0956,-92.4706,95.9636,-5592.35,7150.76,-1549.5,6.94359,65.4118,132.002,6955.14,-1527.46,1308.62,14.3044,15.2088,33.9754
3.111,6256.86,-3771.22,5275.94,-163.071,382.686,145.74,3937.63,4389.59,7863.04,14.0041,-10.215,6.83074,29.5585,7195.79,-1306.41,10.6681,-35.0576,309.036,-870.425,-10076.6,-1394.11,-9.2566,-33.5574,32.3219,930.452,-9254.63,-499.969,-48.9645,-95.8675,95.7122,-5601.8,7072.53,-1456.79,4.52911,65.5153,132.309,6974.9,-1514.37,1298.83,14.7777,14.9197,33.4354
3.112,6338.16,-3827.3,5350.42,-163.814,381.252,147.229,3922.54,4478.23,7803.24,14.1174,-10.2621,6.94819,79.9926,7211.94,-1309.28,11.0015,-35.6318,310.487,-757.747,-10127.1,-1449.13,-9.58813,-32.952,32.2534,973.571,-9313.99,-545.458,-48.3773,-99.0684,95.7047,-5627.7,6932.25,-1374.94,2.44193,66.376,132.457,7031.01,-1482.39,1309.66,15.1671,14.7037,33.0154
3.113,6417.0,-3876.76,5421.4,-164.51,379.81,148.712,3895.62,4579.34,7732.17,14.2532,-10.322,7.07638,137.806,7228.78,-1312.48,11.3625,-36.1226,311.938,-629.895,-10176.0,-1511.75,-9.94223,-32.2671,32.1572,1020.29,-9373.17,-590.426,-47.7332,-102.245,95.7278,-5655.66,6784.22,-1294.45,0.395669,67.3314,132.585,7091.67,-1448.06,1323.07,15.546,14.4969,32.6104
3.114,6495.83,-3926.21,5492.37,-165.205,378.369,150.194,3868.71,4680.45,7661.1,14.389,-10.382,7.20457,195.62,7245.61,-1315.68,11.7234,-36.6134,313.39,-502.042,-10224.8,-1574.36,-10.2963,-31.5821,32.0609,1067.02,-9432.36,-635.393,-47.0891,-105.421,95.7508,-5683.61,6636.19,-1213.97,-1.6506,68.2868,132.713,7152.32,-1413.73,1336.47,15.9249,14.2901,32.2054
3.115,6574.67,-3975.67,5563.34,-165.901,376.927,151.677,3841.79,4781.56,7590.03,14.5248,-10.4419,7.33276,253.434,7262.45,-1318.89,12.0844,-37.1042,314.842,-374.19,-10273.7,-1636.98,-10.6504,-30.8972,31.9647,1113.74,-9491.54,-680.361,-46.4449,-108.597,95.7739,-5711.57,6488.16,-1133.48,-3.69686,69.2422,132.841,7212.98,-1379.39,1349.87,16.3039,14.0832,31.8004
3.116,6643.82,-4013.65,5626.01,-166.883,375.606,153.224,3800.05,4847.71,7583.91,14.34,-10.506,7.74178,330.789,7277.78,-1325.43,12.6192,-37.231,316.292,-259.883,-10305.9,-1674.79,-10.7641,-30.5483,31.9097,1180.39,-9564.08,-747.253,-45.6054,-111.57,95.7504,-5746.62,6347.71,-1061.84,-5.02865,70.2236,132.783,7261.47,-1363.62,1336.32,16.8386,13.9243,31.3037
3.117,6700.85,-4037.28,5678.3,-168.224,374.438,154.851,3739.78,4870.17,7658.96,13.7544,-10.5753,8.50186,432.572,7291.23,-1336.15,13.3713,-36.9027,317.741,-162.508,-10317.2,-1681.61,-10.5771,-30.6196,31.9062,1271.95,-9653.32,-841.552,-44.5217,-114.287,95.6687,-5790.53,6216.75,-1001.26,-5.46735,71.2376,132.491,7294.76,-1371.04,1289.07,17.5682,13.8253,30.6924
3.118,6757.89,-4060.92,5730.6,-169.565,373.269,156.478,3679.5,4892.63,7734.01,13.1689,-10.6446,9.26194,534.355,7304.67,-1346.87,14.1234,-36.5744,319.189,-65.1335,-10328.5,-1688.43,-10.3901,-30.6909,31.9026,1363.51,-9742.55,-935.851,-43.438,-117.004,95.5871,-5834.44,6085.79,-940.689,-5.90605,72.2517,132.2,7328.05,-1378.47,1241.83,18.2978,13.7262,30.0812
3.119,6814.92,-4084.56,5782.89,-170.906,372.101,158.106,3619.23,4915.09,7809.06,12.5833,-10.7139,10.022,636.138,7318.12,-1357.6,14.8755,-36.2461,320.638,32.2412,-10339.9,-1695.25,-10.2032,-30.7622,31.8991,1455.07,-9831.78,-1030.15,-42.3543,-119.722,95.5055,-5878.35,5954.82,-880.113,-6.34475,73.2657,131.908,7361.34,-1385.89,1194.58,19.0274,13.6272,29.4699
3.12,6871.95,-4108.19,5835.18,-172.247,370.932,159.733,3558.96,4937.54,7884.12,11.9977,-10.7832,10.7821,737.92,7331.56,-1368.32,15.6276,-35.9178,322.086,129.616,-10351.2,-1702.07,-10.0162,-30.8335,31.8956,1546.63,-9921.02,-1124.45,-41.2706,-122.439,95.4238,-5922.26,5823.86,-819.537,-6.78345,74.2797,131.616,7394.62,-1393.31,1147.34,19.757,13.5281,28.8586
3.121,6921.64,-4069.37,5920.05,-174.502,369.822,161.701,3590.35,4803.01,7849.97,12.5371,-10.9701,10.579,815.204,7350.82,-1356.04,16.6686,-35.1799,323.613,97.8445,-10345.9,-1692.95,-9.73486,-30.529,32.4999,1663.17,-9970.9,-1180.85,-39.8783,-124.481,95.1296,-5978.92,5717.71,-790.052,-6.52269,74.7921,130.886,7407.44,-1392.37,1128.82,20.8024,13.3398,28.2286
3.122,6971.32,-4030.55,6004.92,-176.756,368.712,163.669,3621.74,4668.48,7815.82,13.0765,-11.1571,10.3759,892.488,7370.07,-1343.76,17.7096,-34.4421,325.14,66.073,-10340.6,-1683.83,-9.45351,-30.2246,33.1043,1779.7,-10020.8,-1237.26,-38.4861,-126.523,94.8354,-6035.58,5611.55,-760.567,-6.26193,75.3045,130.156,7420.25,-1391.43,1110.31,21.8477,13.1514,27.5986
3.123,7021.0,-3991.72,6089.79,-179.011,367.602,165.637,3653.14,4533.95,7781.67,13.6159,-11.3441,10.1727,969.772,7389.32,-1331.47,18.7506,-33.7042,326.667,34.3015,-10335.2,-1674.72,-9.17216,-29.9201,33.7086,1896.24,-10070.7,-1293.67,-37.0939,-128.566,94.5411,-6092.25,5505.4,-731.082,-6.00117,75.8169,129.425,7433.06,-1390.49,1091.79,22.893,12.9631,26.9686
3.124,7070.69,-3952.9,6174.65,-181.265,366.492,167.605,3684.53,4399.42,7747.53,14.1553,-11.5311,9.96963,1047.06,7408.58,-1319.19,19.7916,-32.9664,328.194,2.53006,-10329.9,-1665.6,-8.89081,-29.6156,34.3129,2012.78,-10120.6,-1350.07,-35.7016,-130.608,94.2469,-6148.91,5399.24,-701.597,-5.7404,76.3293,128.695,7445.87,-1389.54,1073.28,23.9383,12.7747,26.3386
3.125,7116.9,-3941.81,6242.07,-182.682,365.028,169.33,3723.63,4345.65,7735.87,14.9026,-11.5532,9.82845,1093.22,7456.29,-1305.98,20.8987,-31.9465,329.625,-69.4666,-10343.3,-1713.63,-8.87217,-28.8719,34.7987,2138.12,-10124.8,-1422.24,-34.253,-132.246,93.9305,-6201.59,5295.3,-682.95,-5.49581,76.4578,127.981,7455.05,-1391.13,1054.58,24.6159,12.4649,25.8447
3.126,7160.33,-3952.89,6295.52,-183.429,363.281,170.859,3768.89,4356.51,7742.22,15.816,-11.4435,9.73681,1114.48,7526.77,-1292.01,22.0588,-30.7011,330.979,-173.643,-10371.8,-1807.38,-9.0637,-27.7767,35.1897,2270.5,-10092.6,-1507.01,-32.7592,-133.562,93.5965,-6251.1,5193.12,-672.974,-5.26416,76.279,127.28,7461.31,-1394.73,1035.73,24.9992,12.0577,25.4598
3.127,7203.75,-3963.98,6348.97,-184.175,361.533,172.389,3814.16,4367.36,7748.56,16.7295,-11.3338,9.64517,1135.74,7597.24,-1278.05,23.2189,-29.4556,332.332,-277.82,-10400.2,-1901.13,-9.25523,-26.6815,35.5807,2402.89,-10060.4,-1591.79,-31.2654,-134.878,93.2624,-6300.6,5090.95,-662.999,-5.03251,76.1003,126.579,7467.58,-1398.34,1016.87,25.3825,11.6506,25.0749
3.128,7247.18,-3975.07,6402.42,-184.922,359.785,173.918,3859.42,4378.21,7754.9,17.643,-11.2241,9.55354,1157.01,7667.72,-1264.09,24.379,-28.2102,333.686,-381.997,-10428.6,-1994.88,-9.44677,-25.5863,35.9717,2535.27,-10028.2,-1676.57,-29.7717,-136.193,92.9284,-6350.1,4988.77,-653.023,-4.80085,75.9216,125.878,7473.85,-1401.94,998.021,25.7658,11.2435,24.69
3.129,7293.01,-3980.89,6456.49,-185.663,358.024,175.518,3894.62,4418.63,7759.3,18.3745,-11.129,9.54877,1174.88,7742.32,-1252.52,25.5146,-26.9194,335.015,-467.037,-10450.7,-2089.77,-9.67924,-24.5704,36.3412,2661.39,-9993.4,-1758.69,-28.3018,-137.464,92.6121,-6404.27,4886.84,-648.508,-4.5506,75.6775,125.186,7481.96,-1406.13,978.527,26.1706,10.8584,24.3135
3.13,7357.98,-3944.5,6515.49,-186.36,356.153,177.678,3849.26,4695.57,7748.12,17.6495,-11.151,10.239,1165.67,7849.93,-1260.16,26.4545,-25.2658,336.15,-398.982,-10422.8,-2193.76,-10.2393,-24.1882,36.5389,2737.39,-9938.35,-1819.58,-27.0229,-138.375,92.4377,-6495.77,4786.82,-687.684,-4.15156,74.9106,124.568,7504.84,-1414.98,953.887,26.7473,10.6494,24.0044
3.131,7422.95,-3908.11,6574.5,-187.057,354.282,179.838,3803.9,4972.5,7736.94,16.9246,-11.1729,10.9292,1156.46,7957.54,-1267.8,27.3945,-23.6123,337.286,-330.928,-10394.9,-2297.76,-10.7993,-23.806,36.7367,2813.39,-9883.3,-1880.48,-25.744,-139.286,92.2634,-6587.26,4686.81,-726.859,-3.75253,74.1438,123.95,7527.72,-1423.84,929.248,27.3239,10.4405,23.6952
3.132,7487.92,-3871.73,6633.51,-187.754,352.411,181.998,3758.54,5249.44,7725.75,16.1997,-11.1949,11.6194,1147.24,8065.15,-1275.44,28.3344,-21.9588,338.421,-262.873,-10367.1,-2401.75,-11.3594,-23.4238,36.9344,2889.39,-9828.26,-1941.37,-24.4651,-140.197,92.089,-6678.76,4586.8,-766.034,-3.35349,73.3769,123.332,7550.6,-1432.69,904.608,27.9006,10.2316,23.3861
3.133,7552.9,-3835.34,6692.52,-188.451,350.54,184.158,3713.19,5526.38,7714.57,15.4748,-11.2168,12.3097,1138.03,8172.76,-1283.08,29.2744,-20.3052,339.556,-194.819,-10339.2,-2505.74,-11.9194,-23.0415,37.1321,2965.39,-9773.21,-2002.27,-23.1862,-141.108,91.9146,-6770.26,4486.79,-805.21,-2.95445,72.61,122.714,7573.48,-1441.54,879.969,28.4772,10.0226,23.077
3.134,7599.39,-3844.62,6762.32,-188.987,348.313,186.129,3634.45,5610.77,7676.81,15.3258,-11.1349,13.3343,1135.4,8293.71,-1278.97,30.1625,-18.5765,340.587,-134.07,-10292.5,-2590.31,-12.1667,-23.1155,37.2652,3046.69,-9720.44,-2087.89,-22.109,-141.532,91.8031,-6870.86,4382.35,-845.207,-2.43616,71.506,122.079,7583.77,-1429.36,870.954,29.1334,9.80251,22.7314
3.135,7636.65,-3876.75,6837.53,-189.445,345.908,188.005,3539.03,5598.89,7625.76,15.4648,-11.0011,14.5261,1136.07,8421.33,-1268.99,31.0247,-16.8101,341.567,-76.9747,-10236.5,-2665.17,-12.2576,-23.4175,37.366,3130.63,-9668.81,-2185.87,-21.1325,-141.712,91.7231,-6976.03,4275.69,-885.615,-1.85825,70.2334,121.436,7587.77,-1406.66,869.752,29.8293,9.57681,22.3676
3.136,7673.91,-3908.87,6912.74,-189.902,343.503,189.881,3443.61,5587.01,7574.71,15.6038,-10.8673,15.718,1136.74,8548.96,-1259.01,31.8869,-15.0437,342.547,-19.8793,-10180.5,-2740.02,-12.3485,-23.7195,37.4667,3214.56,-9617.17,-2283.85,-20.1561,-141.893,91.643,-7081.19,4169.04,-926.024,-1.28034,68.9608,120.793,7591.77,-1383.96,868.55,30.5252,9.3511,22.0039
3.137,7711.16,-3940.99,6987.94,-190.359,341.097,191.757,3348.19,5575.13,7523.66,15.7429,-10.7334,16.9098,1137.41,8676.58,-1249.03,32.7492,-13.2773,343.527,37.2161,-10124.5,-2814.88,-12.4395,-24.0215,37.5675,3298.5,-9565.54,-2381.83,-19.1796,-142.073,91.563,-7186.36,4062.39,-966.432,-0.702424,67.6882,120.15,7595.77,-1361.26,867.348,31.2212,9.1254,21.6401
3.138,7749.32,-3966.9,7060.84,-190.823,338.708,193.59,3264.79,5524.33,7501.5,16.6974,-10.2995,18.0624,1133.81,8807.52,-1241.6,33.5826,-11.5527,344.466,60.5657,-10063.3,-2946.06,-12.8237,-24.2941,37.6631,3371.9,-9511.84,-2476.31,-18.3065,-142.085,91.5625,-7286.54,3966.62,-1005.29,-0.157634,66.3229,119.527,7598.51,-1349.17,859.484,31.8764,8.88912,21.3131
3.139,7790.63,-3971.06,7125.65,-191.313,336.371,195.272,3223.46,5337.28,7580.49,20.5062,-8.81537,19.0778,1115.26,8950.11,-1243.11,34.3153,-9.97454,345.261,-34.1952,-9983.93,-3274.37,-14.2343,-24.4643,37.7411,3408.37,-9450.91,-2558.55,-17.7952,-141.51,91.8407,-7369.3,3908.96,-1038.74,0.271223,64.6336,118.97,7596.83,-1374.22,828.305,32.3889,8.6158,21.1144
3.14,7831.93,-3975.22,7190.45,-191.802,334.035,196.955,3182.13,5150.23,7659.48,24.3151,-7.33123,20.0932,1096.7,9092.69,-1244.62,35.0481,-8.39639,346.056,-128.956,-9904.53,-3602.67,-15.645,-24.6345,37.819,3444.84,-9389.97,-2640.78,-17.284,-140.934,92.1189,-7452.06,3851.29,-1072.18,0.70008,62.9443,118.414,7595.16,-1399.28,797.125,32.9014,8.34248,20.9158
3.141,7873.24,-3979.39,7255.26,-192.292,331.698,198.638,3140.81,4963.19,7738.47,28.1239,-5.84708,21.1086,1078.15,9235.28,-1246.13,35.7808,-6.81824,346.851,-223.717,-9825.12,-3930.98,-17.0557,-24.8046,37.897,3481.32,-9329.04,-2723.02,-16.7727,-140.359,92.3972,-7534.82,3793.63,-1105.63,1.12894,61.2549,117.858,7593.49,-1424.33,765.946,33.4139,8.06916,20.7172
3.142,7914.55,-3983.55,7320.07,-192.781,329.362,200.321,3099.48,4776.14,7817.46,31.9327,-4.36293,22.1239,1059.59,9377.87,-1247.63,36.5135,-5.24009,347.646,-318.478,-9745.72,-4259.29,-18.4664,-24.9748,37.9749,3517.79,-9268.1,-2805.25,-16.2614,-139.783,92.6754,-7617.58,3735.97,-1139.08,1.55779,59.5656,117.301,7591.82,-1449.39,734.766,33.9264,7.79584,20.5186
3.143,7986.99,-3991.18,7385.85,-193.202,327.176,202.124,2930.88,5106.58,7588.6,31.6887,-3.08235,23.9581,1017.27,9518.02,-1229.55,37.0835,-4.00776,348.216,-391.703,-9711.78,-4748.94,-19.5484,-26.8673,37.3892,3508.07,-9189.22,-2832.66,-15.5748,-138.878,93.2749,-7731.2,3662.18,-1173.94,1.90246,57.7988,116.894,7583.56,-1463.76,725.77,34.3229,7.58027,20.4144
3.144,8068.32,-3999.81,7451.91,-193.602,325.032,203.962,2725.91,5584.89,7271.8,30.2867,-1.85992,26.0262,968.164,9657.49,-1205.86,37.6069,-2.87424,348.722,-458.775,-9690.82,-5284.69,-20.5365,-29.252,36.6138,3485.16,-9105.21,-2844.4,-14.8382,-137.879,93.9663,-7853.63,3583.79,-1209.2,2.22308,56.01,116.53,7573.43,-1475.07,723.111,34.6862,7.38121,20.3371
3.145,8149.66,-4008.44,7517.97,-194.002,322.889,205.801,2520.94,6063.19,6954.99,28.8847,-0.637499,28.0944,919.056,9796.96,-1182.18,38.1303,-1.74072,349.227,-525.847,-9669.86,-5820.44,-21.5247,-31.6367,35.8384,3462.25,-9021.21,-2856.14,-14.1016,-136.88,94.6576,-7976.06,3505.41,-1244.46,2.54369,54.2211,116.165,7563.29,-1486.39,720.453,35.0496,7.18215,20.2599
3.146,8230.99,-4017.07,7584.02,-194.403,320.745,207.639,2315.98,6541.49,6638.18,27.4827,0.584925,30.1625,869.948,9936.42,-1158.5,38.6538,-0.607196,349.732,-592.92,-9648.91,-6356.19,-22.5128,-34.0214,35.063,3439.33,-8937.2,-2867.87,-13.365,-135.881,95.349,-8098.49,3427.02,-1279.73,2.8643,52.4323,115.801,7553.15,-1497.7,717.794,35.4129,6.98308,20.1827
3.147,8323.06,-4030.03,7654.13,-194.858,318.671,209.442,2208.16,7075.94,6509.33,25.8033,1.30881,33.2226,820.642,10074.6,-1130.68,39.141,0.42424,350.215,-581.869,-9641.19,-6554.65,-22.5178,-37.5977,34.4828,3404.52,-8877.75,-2860.98,-12.7017,-135.046,96.0613,-8213.02,3362.38,-1323.32,3.14308,50.6461,115.458,7539.32,-1506.95,706.994,35.8836,6.84523,20.1207
3.148,8436.59,-4051.62,7732.34,-195.421,316.737,211.176,2294.64,7722.67,6756.4,23.5692,1.03563,38.2666,770.941,10210.1,-1094.6,39.5559,1.2515,350.652,-414.572,-9659.94,-6078.53,-20.5568,-43.5569,34.293,3345.9,-8867.42,-2816.84,-12.1851,-134.536,96.8156,-8311.78,3325.23,-1383.56,3.33821,48.8653,115.161,7518.11,-1512.05,679.912,36.5691,6.8298,20.0892
3.149,8550.13,-4073.22,7810.55,-195.985,314.802,212.91,2381.11,8369.41,7003.46,21.3351,0.762442,43.3106,721.241,10345.7,-1058.52,39.9707,2.07877,351.089,-247.276,-9678.7,-5602.41,-18.5957,-49.5162,34.1031,3287.28,-8857.09,-2772.69,-11.6685,-134.027,97.5699,-8410.53,3288.08,-1443.8,3.53333,47.0844,114.864,7496.9,-1517.15,652.831,37.2545,6.81437,20.0576
3.15,8663.67,-4094.82,7888.76,-196.549,312.867,214.643,2467.59,9016.15,7250.52,19.101,0.489257,48.3546,671.54,10481.2,-1022.44,40.3855,2.90603,351.526,-79.979,-9697.46,-5126.3,-16.6346,-55.4755,33.9133,3228.67,-8846.76,-2728.54,-11.1519,-133.517,98.3242,-8509.29,3250.94,-1504.04,3.72845,45.3036,114.566,7475.69,-1522.26,625.749,37.94,6.79894,20.0261
3.151,8777.2,-4116.41,7966.96,-197.113,310.933,216.377,2554.07,9662.89,7497.58,16.8669,0.216072,53.3987,621.839,10616.7,-986.357,40.8003,3.7333,351.963,87.3176,-9716.22,-4650.18,-14.6736,-61.4348,33.7234,3170.05,-8836.42,-2684.39,-10.6352,-133.008,99.0785,-8608.04,3213.79,-1564.29,3.92358,43.5228,114.269,7454.48,-1527.36,598.667,38.6255,6.7835,19.9945
3.152,8831.48,-4283.23,8029.5,-194.945,308.993,216.297,2721.38,8748.81,7472.32,17.1061,0.250401,52.9698,587.861,10749.1,-959.392,41.0689,4.36226,352.313,-78.5734,-9787.3,-4337.24,-13.1825,-63.9508,34.7014,3118.06,-8843.53,-2647.59,-10.1483,-133.789,99.5199,-8674.23,3186.78,-1609.76,3.87425,41.9438,113.857,7463.66,-1535.63,596.48,39.338,6.3382,19.8143
3.153,8878.35,-4468.19,8090.08,-192.435,307.054,215.989,2898.79,7639.62,7413.02,17.6545,0.323169,51.8567,555.848,10881.0,-933.566,41.3193,4.96644,352.651,-286.113,-9864.93,-4044.71,-11.7501,-66.0363,35.8253,3066.91,-8852.81,-2611.71,-9.66506,-134.732,99.9222,-8736.35,3161.04,-1653.38,3.79437,40.3899,113.431,7476.64,-1544.3,597.406,40.054,5.83915,19.6155
3.154,8925.23,-4653.15,8150.66,-189.926,305.114,215.682,3076.2,6530.43,7353.72,18.2029,0.395937,50.7437,523.836,11012.9,-907.74,41.5696,5.57062,352.989,-493.652,-9942.56,-3752.17,-10.3177,-68.1219,36.9493,3015.75,-8862.09,-2575.83,-9.18182,-135.675,100.324,-8798.46,3135.3,-1697.01,3.71449,38.8361,113.005,7489.61,-1552.96,598.332,40.7699,5.34011,19.4167
3.155,8972.1,-4838.12,8211.23,-187.416,303.174,215.374,3253.61,5421.25,7294.42,18.7513,0.468705,49.6307,491.823,11144.8,-881.914,41.8199,6.1748,353.328,-701.192,-10020.2,-3459.64,-8.88532,-70.2074,38.0732,2964.59,-8871.37,-2539.95,-8.69858,-136.617,100.727,-8860.58,3109.56,-1740.63,3.6346,37.2823,112.578,7502.59,-1561.63,599.257,41.4859,4.84107,19.2179
3.156,9066.11,-4909.21,8282.19,-186.315,301.313,215.978,3510.03,4715.56,7273.8,19.1612,0.627331,49.0964,472.617,11279.1,-879.939,42.0559,6.79703,353.619,-1018.31,-10097.2,-3239.59,-8.15424,-71.4668,38.9408,2882.43,-8873.0,-2498.09,-8.06967,-138.39,101.209,-8907.9,3100.29,-1772.7,3.40217,35.7523,112.178,7512.52,-1559.72,588.075,42.1149,4.48125,18.9893
3.157,9219.04,-4837.97,8366.12,-186.973,299.55,217.722,3865.23,4514.24,7301.54,19.398,0.893278,49.2857,469.419,11416.1,-907.775,42.274,7.44181,353.851,-1472.39,-10173.4,-3110.16,-8.29978,-71.6934,39.4882,2761.51,-8865.07,-2448.75,-7.25867,-141.2,101.791,-8936.73,3111.6,-1790.34,2.97906,34.2521,111.811,7518.64,-1544.59,561.758,42.6353,4.29546,18.7236
3.158,9371.97,-4766.73,8450.06,-187.631,297.787,219.465,4220.43,4312.92,7329.29,19.6348,1.15922,49.4751,466.221,11553.2,-935.612,42.4921,8.0866,354.084,-1926.47,-10249.6,-2980.73,-8.44532,-71.92,40.0355,2640.6,-8857.13,-2399.41,-6.44768,-144.01,102.373,-8965.56,3122.91,-1807.97,2.55594,32.752,111.443,7524.77,-1529.45,535.442,43.1556,4.10968,18.4578
3.159,9524.89,-4695.48,8533.99,-188.289,296.024,221.209,4575.62,4111.6,7357.03,19.8716,1.42517,49.6644,463.024,11690.3,-963.448,42.7102,8.73138,354.316,-2380.55,-10325.8,-2851.3,-8.59086,-72.1466,40.5828,2519.68,-8849.19,-2350.07,-5.63668,-146.82,102.956,-8994.39,3134.22,-1825.6,2.13282,31.2518,111.076,7530.9,-1514.32,509.125,43.676,3.92389,18.1921
3.16,9677.82,-4624.24,8617.92,-188.947,294.261,222.952,4930.82,3910.28,7384.77,20.1084,1.69112,49.8537,459.826,11827.4,-991.285,42.9283,9.37617,354.548,-2834.63,-10402.0,-2721.87,-8.7364,-72.3731,41.1301,2398.76,-8841.26,-2300.73,-4.82569,-149.63,103.538,-9023.21,3145.52,-1843.23,1.7097,29.7517,110.709,7537.02,-1499.18,482.808,44.1963,3.73811,17.9263
3.161,9807.49,-4731.99,8760.88,-188.854,292.293,225.062,4953.07,4092.15,7392.56,20.8162,2.03272,50.8324,484.584,11958.2,-1035.44,43.2549,10.4642,354.597,-2765.28,-10375.4,-2612.37,-9.57696,-73.7899,41.1769,2284.31,-8800.68,-2331.38,-3.79081,-153.375,103.916,-8971.91,3173.29,-1826.45,0.889184,28.2169,110.361,7566.09,-1501.33,466.321,44.451,3.33496,17.4568
3.162,9937.15,-4839.74,8903.84,-188.76,290.325,227.172,4975.33,4274.01,7400.34,21.524,2.37431,51.8112,509.342,12088.9,-1079.6,43.5815,11.5523,354.645,-2695.93,-10348.7,-2502.86,-10.4175,-75.2066,41.2238,2169.86,-8760.09,-2362.03,-2.75594,-157.119,104.295,-8920.62,3201.05,-1809.68,0.0686643,26.6821,110.014,7595.16,-1503.49,449.834,44.7056,2.9318,16.9873
3.163,10066.8,-4947.5,9046.8,-188.667,288.356,229.282,4997.59,4455.88,7408.13,22.2317,2.71591,52.79,534.1,12219.7,-1123.76,43.9081,12.6403,354.693,-2626.57,-10322.0,-2393.36,-11.2581,-76.6233,41.2706,2055.41,-8719.51,-2392.68,-1.72106,-160.864,104.673,-8869.32,3228.81,-1792.9,-0.751855,25.1474,109.667,7624.23,-1505.64,433.347,44.9603,2.52865,16.5178
3.164,10196.5,-5055.25,9189.76,-188.573,286.388,231.392,5019.84,4637.74,7415.92,22.9395,3.05751,53.7687,558.858,12350.5,-1167.92,44.2347,13.7284,354.742,-2557.22,-10295.4,-2283.86,-12.0987,-78.04,41.3174,1940.96,-8678.93,-2423.33,-0.686188,-164.609,105.052,-8818.02,3256.58,-1776.13,-1.57237,23.6126,109.319,7653.29,-1507.79,416.86,45.215,2.1255,16.0483
3.165,10296.9,-5190.3,9250.4,-187.274,284.586,232.73,4940.59,4801.6,7410.43,22.6659,3.12958,54.2756,604.514,12479.7,-1206.85,44.5166,14.9826,354.769,-2390.45,-10289.8,-2246.63,-12.4894,-79.0637,41.0785,1808.14,-8659.86,-2492.72,0.269948,-167.922,105.36,-8772.55,3285.27,-1743.21,-2.28155,21.8661,109.005,7687.67,-1483.99,411.356,45.4415,1.84033,15.6588
3.166,10373.9,-5347.2,9245.18,-185.011,282.916,233.45,4780.12,4951.05,7394.31,21.6073,2.98602,54.4048,666.888,12607.7,-1241.6,44.7625,16.3698,354.779,-2145.74,-10301.0,-2267.22,-12.5202,-79.773,40.611,1660.64,-8658.01,-2593.1,1.16309,-170.89,105.611,-8731.75,3314.7,-1697.39,-2.90166,19.9502,108.716,7726.3,-1439.43,414.639,45.6456,1.64954,15.3331
3.167,10450.9,-5504.09,9239.95,-182.748,281.247,234.171,4619.65,5100.51,7378.2,20.5487,2.84246,54.5341,729.261,12735.7,-1276.35,45.0085,17.757,354.789,-1901.03,-10312.3,-2287.82,-12.551,-80.4822,40.1436,1513.13,-8656.15,-2693.48,2.05624,-173.858,105.863,-8690.94,3344.13,-1651.56,-3.52177,18.0343,108.427,7764.92,-1394.87,417.922,45.8496,1.45874,15.0074
3.168,10527.8,-5660.98,9234.73,-180.485,279.578,234.891,4459.18,5249.96,7362.09,19.4901,2.69891,54.6634,791.635,12863.6,-1311.1,45.2545,19.1442,354.799,-1656.32,-10323.6,-2308.41,-12.5818,-81.1914,39.6761,1365.62,-8654.29,-2793.86,2.94938,-176.826,106.114,-8650.14,3373.56,-1605.74,-4.14188,16.1183,108.138,7803.55,-1350.31,421.205,46.0537,1.26795,14.6818
3.169,10607.3,-5820.53,9245.61,-178.24,277.915,235.569,4310.6,5374.52,7346.72,18.5185,2.5749,54.8325,853.209,12995.2,-1346.57,45.4917,20.5645,354.805,-1425.12,-10325.8,-2320.52,-12.5409,-81.8722,39.2669,1220.63,-8653.22,-2898.35,3.81001,-179.616,106.373,-8603.25,3402.57,-1559.74,-4.74847,14.159,107.824,7839.92,-1308.61,424.311,46.2616,1.09649,14.3797
3.17,10706.3,-6001.31,9385.32,-176.146,276.303,235.902,4257.07,5299.97,7337.33,18.2434,2.60732,55.3209,908.385,13155.5,-1387.77,45.6586,22.2499,354.788,-1302.02,-10255.5,-2264.7,-11.9258,-82.3247,39.3245,1095.71,-8658.4,-3035.72,4.41055,-180.982,106.687,-8507.76,3428.29,-1512.39,-5.24687,11.8527,107.31,7858.23,-1289.87,425.993,46.5,1.07967,14.2666
3.171,10805.2,-6182.09,9525.03,-174.051,274.692,236.235,4203.55,5225.42,7327.95,17.9683,2.63973,55.8092,963.562,13315.7,-1428.97,45.8254,23.9354,354.77,-1178.92,-10185.2,-2208.89,-11.3107,-82.7773,39.3821,970.794,-8663.58,-3173.08,5.01109,-182.348,107.001,-8412.27,3454.0,-1465.04,-5.74527,9.54638,106.795,7876.55,-1271.12,427.676,46.7385,1.06285,14.1534
3.172,10904.2,-6362.87,9664.75,-171.956,273.081,236.569,4150.03,5150.86,7318.56,17.6932,2.67215,56.2975,1018.74,13475.9,-1470.17,45.9923,25.6208,354.752,-1055.82,-10114.9,-2153.08,-10.6957,-83.2299,39.4396,845.876,-8668.76,-3310.45,5.61162,-183.714,107.315,-8316.78,3479.71,-1417.69,-6.24367,7.24006,106.28,7894.86,-1252.38,429.358,46.977,1.04603,14.0403
3.173,11003.2,-6543.65,9804.46,-169.861,271.47,236.902,4096.51,5076.31,7309.18,17.418,2.70456,56.7859,1073.91,13636.2,-1511.38,46.1592,27.3062,354.734,-932.717,-10044.6,-2097.27,-10.0806,-83.6824,39.4972,720.959,-8673.94,-3447.82,6.21216,-185.08,107.629,-8221.29,3505.42,-1370.34,-6.74207,4.93375,105.765,7913.18,-1233.63,431.041,47.2154,1.02921,13.9272
3.174,11086.9,-6683.78,9932.89,-168.463,269.762,237.655,4115.9,4926.44,7329.81,17.4828,2.64173,56.9794,1129.76,13809.0,-1549.67,46.3663,29.2101,354.742,-948.914,-9988.52,-2036.85,-9.78055,-83.8311,39.7826,625.358,-8699.88,-3563.12,6.48591,-185.081,107.819,-8138.45,3514.99,-1318.28,-6.86393,2.2704,105.143,7921.62,-1207.72,448.26,47.3777,0.915066,13.7942
3.175,11162.8,-6803.58,10055.7,-167.414,268.005,238.617,4171.74,4738.92,7365.45,17.7175,2.53128,57.0255,1185.94,13988.0,-1586.52,46.5934,31.2233,354.762,-1034.76,-9939.58,-1974.13,-9.63798,-83.8278,40.1819,544.416,-8736.19,-3667.38,6.59626,-184.399,107.946,-8061.94,3516.49,-1263.87,-6.79753,-0.571466,104.467,7925.13,-1178.23,473.249,47.5018,0.752259,13.6513
3.176,11238.8,-6923.39,10178.5,-166.364,266.249,239.579,4227.59,4551.39,7401.09,17.9522,2.42083,57.0715,1242.12,14167.1,-1623.36,46.8206,33.2365,354.781,-1120.6,-9890.65,-1911.41,-9.49541,-83.8245,40.5812,463.474,-8772.51,-3771.64,6.70661,-183.717,108.073,-7985.43,3518.0,-1209.46,-6.73114,-3.41333,103.791,7928.63,-1148.73,498.237,47.626,0.589453,13.5084
3.177,11314.8,-7043.19,10301.3,-165.314,264.492,240.54,4283.43,4363.87,7436.73,18.1869,2.31038,57.1176,1298.3,14346.2,-1660.2,47.0477,35.2497,354.801,-1206.45,-9841.71,-1848.69,-9.35283,-83.8213,40.9805,382.533,-8808.82,-3875.9,6.81696,-183.036,108.2,-7908.92,3519.5,-1155.04,-6.66474,-6.25519,103.116,7932.13,-1119.24,523.225,47.7502,0.426647,13.3655
3.178,11388.7,-7152.12,10422.0,-164.266,262.665,241.661,4343.38,4207.34,7473.5,18.4196,2.24082,57.0915,1343.0,14524.8,-1700.08,47.3085,37.3576,354.835,-1279.52,-9810.45,-1780.07,-9.23885,-83.741,41.3709,339.104,-8848.41,-3964.02,6.95167,-182.113,108.313,-7829.82,3526.13,-1098.46,-6.59267,-9.17326,102.374,7939.11,-1088.24,544.567,47.8952,0.201214,13.1944
3.179,11455.3,-7222.96,10535.4,-163.226,260.592,243.336,4417.71,4159.31,7514.21,18.6454,2.31434,56.8128,1347.5,14701.8,-1750.58,47.687,39.7965,354.919,-1307.85,-9841.08,-1690.84,-9.22492,-83.3912,41.7302,426.973,-8899.49,-3995.67,7.17166,-180.35,108.375,-7741.64,3550.7,-1034.27,-6.50074,-12.3581,101.399,7958.24,-1051.95,553.149,48.1133,-0.243412,12.9249
3.18,11522.0,-7293.8,10648.9,-162.187,258.518,245.012,4492.04,4111.27,7554.93,18.8713,2.38787,56.534,1352.0,14878.9,-1801.07,48.0655,42.2355,355.002,-1336.19,-9871.71,-1601.61,-9.21099,-83.0414,42.0895,514.841,-8950.56,-4027.31,7.39165,-178.586,108.437,-7653.46,3575.27,-970.083,-6.40881,-15.5429,100.425,7977.37,-1015.67,561.73,48.3314,-0.688039,12.6553
3.181,11588.6,-7364.64,10762.3,-161.147,256.445,246.687,4566.37,4063.24,7595.65,19.0971,2.4614,56.2552,1356.5,15055.9,-1851.57,48.444,44.6745,355.086,-1364.53,-9902.34,-1512.38,-9.19706,-82.6915,42.4489,602.71,-9001.64,-4058.96,7.61164,-176.822,108.5,-7565.28,3599.84,-905.895,-6.31688,-18.7277,99.4501,7996.49,-979.389,570.312,48.5495,-1.13267,12.3858
3.182,11655.2,-7435.48,10875.8,-160.107,254.372,248.362,4640.7,4015.2,7636.37,19.3229,2.53492,55.9765,1361.0,15232.9,-1902.06,48.8224,47.1135,355.169,-1392.86,-9932.97,-1423.15,-9.18312,-82.3417,42.8082,690.579,-9052.71,-4090.6,7.83163,-175.058,108.562,-7477.1,3624.4,-841.707,-6.22495,-21.9125,98.4755,8015.62,-943.107,578.894,48.7675,-1.57729,12.1163
3.183,11742.5,-7541.31,10980.7,-158.705,252.048,250.115,4682.61,4010.65,7610.87,19.5627,2.37075,55.7987,1318.78,15431.6,-1955.29,49.2527,49.7416,355.448,-1381.22,-9961.52,-1366.88,-9.02159,-81.9176,43.2046,800.459,-9101.82,-4073.44,8.23421,-173.047,108.551,-7377.35,3655.67,-793.137,-6.26441,-25.1938,97.4319,8006.18,-941.388,598.849,48.7764,-2.08143,11.7456
3.184,11835.8,-7657.15,11083.2,-157.199,249.652,251.889,4715.26,4018.52,7566.44,19.8065,2.13868,55.6499,1263.21,15636.4,-2009.29,49.6977,52.4238,355.782,-1358.15,-9989.46,-1320.02,-8.81789,-81.4723,43.6117,916.628,-9150.37,-4042.35,8.68897,-170.964,108.519,-7274.29,3688.85,-749.029,-6.34141,-28.5027,96.3686,7988.58,-949.546,622.054,48.7254,-2.60257,11.3459
3.185,11929.0,-7772.98,11185.6,-155.694,247.257,253.664,4747.91,4026.39,7522.02,20.0504,1.9066,55.501,1207.64,15841.3,-2063.3,50.1427,55.106,356.117,-1335.09,-10017.4,-1273.16,-8.61419,-81.027,44.0187,1032.8,-9198.91,-4011.25,9.14372,-168.882,108.488,-7171.24,3722.03,-704.922,-6.41841,-31.8116,95.3053,7970.98,-957.703,645.26,48.6744,-3.12372,10.9463
3.186,12022.3,-7888.82,11288.1,-154.188,244.861,255.439,4780.56,4034.26,7477.59,20.2942,1.67452,55.3521,1152.07,16046.1,-2117.3,50.5877,57.7881,356.451,-1312.02,-10045.4,-1226.31,-8.41048,-80.5816,44.4258,1148.97,-9247.45,-3980.15,9.59848,-166.8,108.456,-7068.18,3755.21,-660.814,-6.49541,-35.1206,94.2419,7953.37,-965.861,668.465,48.6234,-3.64486,10.5466
3.187,12131.4,-7987.55,11383.5,-152.786,242.533,257.362,4794.13,4056.19,7451.22,20.4041,1.40048,55.1288,1078.72,16256.8,-2180.21,51.0327,60.5624,356.82,-1292.55,-10074.8,-1196.3,-8.22052,-80.0628,44.8716,1282.03,-9283.46,-3934.88,10.076,-164.672,108.331,-6954.14,3785.98,-624.139,-6.41672,-38.3915,93.1224,7939.79,-964.422,672.055,48.5032,-4.18003,10.1905
3.188,12272.3,-8052.09,11464.8,-151.591,240.341,259.581,4769.55,4106.26,7460.97,20.2461,1.04251,54.7565,969.786,16479.0,-2260.92,51.4777,63.5211,357.256,-1280.27,-10107.4,-1199.97,-8.05803,-79.397,45.3948,1448.9,-9294.4,-3861.25,10.5992,-162.452,108.019,-6818.12,3811.92,-602.329,-6.02665,-41.5863,91.8904,7934.25,-943.791,636.414,48.2445,-4.74325,9.92143
3.189,12413.1,-8116.63,11546.0,-150.397,238.148,261.8,4744.97,4156.34,7470.73,20.0882,0.684551,54.3842,860.857,16701.3,-2341.62,51.9227,66.4798,357.692,-1267.98,-10139.9,-1203.64,-7.89555,-78.7313,45.9181,1615.76,-9305.33,-3787.63,11.1224,-160.232,107.707,-6682.1,3837.87,-580.518,-5.63658,-44.7812,90.6584,7928.72,-923.16,600.773,47.9859,-5.30647,9.65235
3.19,12554.0,-8181.17,11627.2,-149.202,235.955,264.02,4720.39,4206.41,7480.48,19.9302,0.326589,54.0119,751.927,16923.5,-2422.33,52.3678,69.4384,358.128,-1255.7,-10172.5,-1207.32,-7.73307,-78.0655,46.4413,1782.62,-9316.27,-3714.0,11.6456,-158.012,107.394,-6546.09,3863.82,-558.708,-5.2465,-47.976,89.4264,7923.18,-902.529,565.132,47.7272,-5.8697,9.38326
3.191,12694.9,-8245.7,11708.4,-148.007,233.763,266.239,4695.81,4256.48,7490.23,19.7722,-0.0313738,53.6397,642.998,17145.8,-2503.04,52.8128,72.3971,358.565,-1243.42,-10205.0,-1210.99,-7.57058,-77.3998,46.9646,1949.48,-9327.21,-3640.37,12.1688,-155.793,107.082,-6410.07,3889.76,-536.897,-4.85643,-51.1709,88.1944,7917.64,-881.898,529.491,47.4685,-6.43292,9.11418
3.192,12914.6,-8323.36,11725.5,-146.752,231.582,268.635,4693.17,4322.56,7534.86,19.3523,-0.507487,53.6225,487.505,17361.9,-2675.38,53.2661,75.9092,358.818,-1187.99,-10238.2,-1177.52,-7.32676,-76.5861,47.5262,2087.61,-9338.36,-3577.25,12.1964,-153.524,106.668,-6263.87,3909.63,-613.259,-3.87799,-53.6221,86.4175,7922.61,-855.851,541.665,47.3452,-6.97789,8.81004
3.193,13144.1,-8402.66,11734.5,-145.49,229.402,271.053,4693.26,4390.63,7583.86,18.8996,-0.998369,53.6498,326.192,17577.2,-2859.18,53.7204,79.4904,359.049,-1127.17,-10271.4,-1139.41,-7.07276,-75.754,48.0925,2222.14,-9349.53,-3515.45,12.1621,-151.249,106.241,-6116.4,3928.75,-701.892,-2.82601,-55.9804,84.5725,7928.9,-829.126,559.815,47.2387,-7.52057,8.50152
3.194,13373.7,-8481.96,11743.5,-144.227,227.223,273.471,4693.35,4458.7,7632.86,18.4469,-1.48925,53.6771,164.879,17792.5,-3042.98,54.1747,83.0716,359.28,-1066.35,-10304.6,-1101.3,-6.81877,-74.9219,48.6589,2356.66,-9360.71,-3453.64,12.1277,-148.975,105.814,-5968.94,3947.86,-790.524,-1.77403,-58.3387,82.7276,7935.18,-802.402,577.966,47.1323,-8.06326,8.193
3.195,13603.3,-8561.27,11752.5,-142.965,225.043,275.888,4693.45,4526.78,7681.86,17.9943,-1.98013,53.7044,3.56605,18007.8,-3226.77,54.6291,86.6529,359.511,-1005.52,-10337.9,-1063.19,-6.56477,-74.0898,49.2252,2491.19,-9371.89,-3391.84,12.0934,-146.7,105.387,-5821.47,3966.97,-879.157,-0.722054,-60.6969,80.8826,7941.46,-775.677,596.117,47.0259,-8.60594,7.88448
3.196,13857.4,-8576.77,11797.7,-141.715,222.823,278.411,4687.33,4537.64,7720.67,17.645,-2.55327,53.6135,-229.878,18210.9,-3424.14,55.0264,90.3549,359.663,-951.09,-10345.5,-1021.14,-6.34751,-73.2238,49.7705,2639.43,-9388.97,-3304.16,11.9576,-144.789,104.823,-5673.21,3969.28,-998.856,0.73792,-62.41,79.046,7944.6,-755.659,617.493,46.9871,-9.07144,7.57982
3.197,14142.2,-8512.54,11888.2,-140.48,220.551,281.066,4673.44,4476.98,7746.76,17.4249,-3.22921,53.3749,-553.487,18398.8,-3638.46,55.3523,94.2077,359.716,-904.639,-10321.2,-974.18,-6.17616,-72.3154,50.2892,2804.8,-9413.43,-3184.13,11.6949,-143.333,104.09,-5523.96,3950.6,-1157.39,2.70789,-63.3167,77.2199,7943.81,-744.024,642.902,47.0327,-9.44046,7.27998
3.198,14427.0,-8448.31,11978.6,-139.245,218.279,283.721,4659.56,4416.32,7772.84,17.2049,-3.90516,53.1363,-877.096,18586.6,-3852.78,55.6783,98.0605,359.77,-858.188,-10296.9,-927.217,-6.00482,-71.407,50.808,2970.17,-9437.89,-3064.11,11.4323,-141.877,103.357,-5374.71,3931.92,-1315.92,4.67785,-64.2233,75.3939,7943.02,-732.389,668.311,47.0784,-9.80948,6.98015
3.199,14711.8,-8384.08,12069.0,-138.01,216.008,286.375,4645.68,4355.66,7798.93,16.9848,-4.58111,52.8976,-1200.7,18774.5,-4067.1,56.0042,101.913,359.824,-811.738,-10272.6,-880.254,-5.83347,-70.4986,51.3268,3135.53,-9462.35,-2944.08,11.1697,-140.421,102.623,-5225.47,3913.23,-1474.45,6.64782,-65.1299,73.5678,7942.23,-720.754,693.721,47.124,-10.1785,6.68031
3.2,14996.6,-8319.84,12159.5,-136.775,213.736,289.03,4631.8,4295.0,7825.02,16.7648,-5.25706,52.659,-1524.31,18962.4,-4281.42,56.3302,105.766,359.877,-765.287,-10248.3,-833.29,-5.66212,-69.5902,51.8456,3300.9,-9486.81,-2824.05,10.9071,-138.965,101.89,-5076.22,3894.55,-1632.99,8.61779,-66.0365,71.7417,7941.44,-709.118,719.13,47.1696,-10.5475,6.38048
3.201,15306.2,-7941.83,12287.2,-136.619,211.136,292.361,4584.43,4225.82,7885.6,16.2316,-5.99762,52.3115,-1905.46,19152.1,-4193.78,55.4915,108.307,359.823,-748.444,-10265.5,-784.407,-5.37594,-68.4984,52.5488,3457.94,-9483.07,-2690.96,10.8368,-138.525,101.258,-4935.03,3912.47,-1813.8,11.6071,-65.3877,69.6235,7933.81,-710.863,726.073,46.6689,-11.1415,6.32128
3.202,15615.9,-7563.81,12414.9,-136.463,208.537,295.692,4537.07,4156.65,7946.19,15.6985,-6.73819,51.9639,-2286.61,19341.8,-4106.13,54.6529,110.848,359.77,-731.601,-10282.8,-735.524,-5.08977,-67.4066,53.2519,3614.98,-9479.33,-2557.86,10.7665,-138.085,100.626,-4793.85,3930.38,-1994.62,14.5963,-64.739,67.5054,7926.19,-712.608,733.016,46.1682,-11.7354,6.26209
3.203,15925.5,-7185.8,12542.6,-136.307,205.937,299.023,4489.71,4087.47,8006.77,15.1653,-7.47875,51.6164,-2667.75,19531.5,-4018.49,53.8142,113.388,359.716,-714.758,-10300.0,-686.642,-4.80359,-66.3148,53.9551,3772.02,-9475.58,-2424.77,10.6963,-137.646,99.9944,-4652.66,3948.3,-2175.43,17.5856,-64.0902,65.3873,7918.57,-714.352,739.96,45.6675,-12.3293,6.20289
3.204,16235.1,-6807.79,12670.3,-136.151,203.337,302.354,4442.34,4018.3,8067.36,14.6322,-8.21931,51.2689,-3048.9,19721.2,-3930.85,52.9756,115.929,359.662,-697.915,-10317.2,-637.759,-4.51741,-65.223,54.6583,3929.06,-9471.84,-2291.68,10.626,-137.206,99.3625,-4511.48,3966.22,-2356.25,20.5749,-63.4414,63.2691,7910.94,-716.097,746.903,45.1669,-12.9233,6.14369
3.205,16566.0,-6356.12,12738.8,-137.533,201.268,305.869,4425.13,3919.81,8089.31,14.5611,-8.87978,51.0018,-3410.71,19892.9,-3736.46,51.8415,117.299,359.564,-674.715,-10350.4,-593.518,-4.25774,-64.0786,55.4103,4058.43,-9465.01,-2172.15,10.7475,-137.272,98.748,-4350.56,3985.11,-2501.08,24.0026,-61.9918,61.1174,7900.74,-715.846,749.947,44.6045,-13.6833,6.00657
3.206,16914.1,-5845.52,12760.2,-140.146,199.623,309.531,4432.02,3797.87,8080.36,14.8596,-9.47618,50.7991,-3757.06,20050.4,-3456.67,50.4711,117.733,359.432,-646.43,-10396.5,-552.99,-4.01929,-62.8921,56.2015,4165.67,-9455.71,-2063.48,11.0225,-137.743,98.1474,-4173.86,4004.79,-2617.13,27.7812,-59.9016,58.9389,7888.46,-713.999,749.872,43.9929,-14.5762,5.80711
3.207,17262.1,-5334.93,12781.5,-142.758,197.977,313.194,4438.92,3675.93,8071.4,15.1581,-10.0726,50.5965,-4103.41,20207.9,-3176.89,49.1007,118.167,359.299,-618.145,-10442.5,-512.463,-3.78084,-61.7056,56.9927,4272.91,-9446.41,-1954.81,11.2974,-138.214,97.5468,-3997.16,4024.47,-2733.18,31.5597,-57.8113,56.7604,7876.19,-712.152,749.798,43.3813,-15.4691,5.60764
3.208,17610.1,-4824.33,12802.8,-145.371,196.332,316.856,4445.81,3553.99,8062.44,15.4566,-10.669,50.3938,-4449.75,20365.3,-2897.1,47.7303,118.601,359.166,-589.86,-10488.5,-471.935,-3.54238,-60.5191,57.7838,4380.15,-9437.11,-1846.13,11.5724,-138.685,96.9461,-3820.46,4044.15,-2849.22,35.3382,-55.7211,54.5818,7863.91,-710.305,749.723,42.7698,-16.362,5.40817
3.209,17957.2,-4342.23,12815.9,-148.049,194.76,320.387,4449.32,3452.41,8051.63,15.7179,-11.2776,50.1577,-4787.64,20509.9,-2638.49,46.4446,118.995,358.989,-566.502,-10535.0,-437.789,-3.31174,-59.3452,58.5731,4480.3,-9432.76,-1741.76,11.8626,-139.196,96.3676,-3648.64,4070.2,-2946.18,38.9647,-53.4361,52.4134,7849.95,-711.238,749.585,42.1971,-17.2429,5.20345
3.21,18297.2,-4088.04,12763.2,-151.251,193.771,322.859,4425.76,3513.7,8025.94,15.6815,-11.9839,49.6537,-5057.83,20551.9,-2549.35,45.8362,119.071,358.455,-582.561,-10585.1,-454.692,-3.14358,-58.273,59.3471,4523.77,-9468.02,-1671.72,12.2748,-140.031,95.9653,-3515.8,4147.23,-2890.42,41.3748,-49.5935,50.3257,7822.45,-734.413,748.943,41.9362,-18.0273,4.95663
3.211,18637.3,-3833.85,12710.6,-154.454,192.782,325.331,4402.19,3575.0,8000.26,15.6451,-12.6903,49.1498,-5328.02,20593.8,-2460.21,45.2277,119.147,357.921,-598.62,-10635.3,-471.595,-2.97543,-57.2007,60.1212,4567.24,-9503.29,-1601.69,12.687,-140.866,95.563,-3382.95,4224.25,-2834.67,43.7849,-45.7508,48.238,7794.95,-757.589,748.3,41.6753,-18.8117,4.70981
3.212,18977.4,-3579.66,12658.0,-157.656,191.793,327.803,4378.62,3636.29,7974.57,15.6087,-13.3967,48.6458,-5598.21,20635.7,-2371.07,44.6193,119.223,357.387,-614.679,-10685.4,-488.499,-2.80727,-56.1284,60.8953,4610.71,-9538.55,-1531.66,13.0992,-141.701,95.1607,-3250.11,4301.27,-2778.91,46.195,-41.9081,46.1503,7767.46,-780.765,747.658,41.4144,-19.5961,4.46299
3.213,19317.4,-3325.47,12605.3,-160.859,190.804,330.276,4355.06,3697.58,7948.88,15.5722,-14.1031,48.1419,-5868.4,20677.6,-2281.93,44.0109,119.299,356.853,-630.738,-10735.5,-505.402,-2.63912,-55.0561,61.6694,4654.17,-9573.81,-1461.63,13.5115,-142.536,94.7584,-3117.27,4378.29,-2723.15,48.6051,-38.0655,44.0626,7739.96,-803.941,747.016,41.1534,-20.3805,4.21618
3.214,19648.6,-3281.38,12549.1,-163.598,189.741,331.758,4352.27,3828.64,7949.35,15.1651,-14.8597,47.8438,-6058.09,20672.4,-2242.17,43.5973,118.955,356.275,-656.611,-10777.3,-513.764,-2.47999,-54.194,62.465,4672.08,-9617.74,-1470.73,13.8925,-143.063,94.292,-2920.3,4442.22,-2607.49,49.5556,-33.3745,42.193,7712.48,-812.916,710.564,41.0641,-21.0906,4.07328
3.215,19975.3,-3342.35,12491.0,-166.106,188.642,332.745,4359.87,3994.58,7962.88,14.5727,-15.6414,47.6487,-6207.52,20643.7,-2227.1,43.2812,118.401,355.675,-687.392,-10814.8,-517.855,-2.32537,-53.4369,63.2715,4677.2,-9666.0,-1519.39,14.258,-143.438,93.7936,-2691.26,4499.61,-2461.88,49.7763,-28.2594,40.4325,7685.01,-814.791,656.208,41.0605,-21.7634,3.98235
3.216,20302.1,-3403.32,12433.0,-168.613,187.542,333.731,4367.48,4160.53,7976.42,13.9803,-16.4231,47.4536,-6356.95,20614.9,-2212.04,42.965,117.847,355.075,-718.172,-10852.3,-521.946,-2.17075,-52.6799,64.0779,4682.32,-9714.26,-1568.04,14.6234,-143.812,93.2951,-2462.22,4557.0,-2316.27,49.997,-23.1443,38.672,7657.54,-816.667,601.851,41.0569,-22.4363,3.89142
3.217,20628.9,-3464.29,12375.0,-171.121,186.443,334.718,4375.08,4326.47,7989.96,13.3879,-17.2048,47.2585,-6506.39,20586.1,-2196.97,42.6489,117.293,354.475,-748.953,-10889.8,-526.037,-2.01613,-51.9228,64.8844,4687.44,-9762.52,-1616.7,14.9889,-144.186,92.7967,-2233.19,4614.39,-2170.66,50.2177,-18.0292,36.9115,7630.07,-818.542,547.495,41.0533,-23.1091,3.80049
3.218,20947.4,-3501.04,12317.9,-173.614,185.212,335.796,4393.04,4442.41,8000.68,12.9221,-17.9804,47.1465,-6636.31,20553.4,-2174.97,42.2534,116.502,353.797,-779.636,-10925.9,-530.699,-1.86317,-51.2501,65.697,4684.52,-9816.16,-1675.66,15.3165,-144.386,92.2869,-2004.4,4682.79,-2032.3,50.0389,-12.5515,35.2562,7604.64,-816.371,498.245,41.0366,-23.7849,3.70913
3.219,21237.1,-3453.07,12264.2,-176.057,183.52,337.19,4447.26,4383.33,8001.56,12.8995,-18.7345,47.3256,-6697.93,20506.5,-2128.72,41.5806,114.882,352.842,-809.981,-10957.2,-537.362,-1.71599,-50.8728,66.5311,4653.42,-9888.66,-1770.7,15.5114,-143.974,91.7376,-1776.5,4789.71,-1919.33,48.4618,-5.80439,33.9691,7586.34,-800.04,466.866,40.9741,-24.4708,3.61629
3.22,21526.8,-3405.09,12210.5,-178.5,181.828,338.584,4501.47,4324.25,8002.44,12.877,-19.4886,47.5046,-6759.56,20459.6,-2082.46,40.9077,113.262,351.888,-840.325,-10988.5,-544.025,-1.56881,-50.4955,67.3652,4622.33,-9961.15,-1865.74,15.7063,-143.561,91.1882,-1548.6,4896.63,-1806.36,46.8846,0.942677,32.682,7568.04,-783.709,435.486,40.9117,-25.1567,3.52345
3.221,21816.5,-3357.11,12156.8,-180.943,180.136,339.978,4555.69,4265.17,8003.32,12.8544,-20.2427,47.6837,-6821.18,20412.7,-2036.21,40.2348,111.642,350.934,-870.67,-11019.8,-550.688,-1.42162,-50.1181,68.1993,4591.24,-10033.6,-1960.78,15.9012,-143.149,90.6389,-1320.71,5003.55,-1693.39,45.3075,7.68975,31.395,7549.74,-767.379,404.107,40.8492,-25.8427,3.43062
3.222,22106.2,-3309.14,12103.1,-183.386,178.444,341.371,4609.91,4206.09,8004.2,12.8318,-20.9968,47.8628,-6882.81,20365.8,-1989.95,39.5619,110.022,349.979,-901.014,-11051.2,-557.35,-1.27444,-49.7408,69.0334,4560.14,-10106.1,-2055.81,16.0961,-142.737,90.0895,-1092.81,5110.47,-1580.42,43.7303,14.4368,30.1079,7531.44,-751.048,372.728,40.7867,-26.5286,3.33778
3.223,22309.1,-3345.12,11990.7,-183.812,176.893,342.78,4640.71,4167.02,8041.75,12.8016,-21.8237,47.6493,-6947.21,20393.9,-1984.72,38.8123,108.404,348.382,-936.963,-11066.5,-556.885,-1.20743,-49.5738,69.7228,4519.75,-10148.7,-2142.04,16.262,-141.828,89.4019,-830.615,5170.91,-1492.5,42.4195,22.5613,29.2361,7517.4,-748.671,320.08,40.7366,-27.1525,3.35298
3.224,22487.1,-3405.09,11861.5,-183.662,175.383,344.192,4664.82,4133.66,8089.79,12.7693,-22.6714,47.3236,-7012.41,20443.4,-1991.22,38.0407,106.788,346.6,-974.512,-11077.2,-554.382,-1.16333,-49.467,70.3708,4476.7,-10182.6,-2225.74,16.4196,-140.778,88.6747,-558.624,5218.08,-1411.72,41.1848,31.0794,28.4829,7504.59,-750.282,261.356,40.69,-27.7586,3.39904
3.225,22665.2,-3465.06,11732.2,-183.512,173.873,345.604,4688.93,4100.31,8137.82,12.7369,-23.519,46.9979,-7077.61,20492.9,-1997.72,37.2692,105.171,344.818,-1012.06,-11088.0,-551.879,-1.11922,-49.3602,71.0189,4433.66,-10216.5,-2309.45,16.5771,-139.727,87.9475,-286.633,5265.25,-1330.95,39.9501,39.5975,27.7297,7491.78,-751.892,202.632,40.6435,-28.3647,3.44511
3.226,22843.2,-3525.03,11603.0,-183.362,172.364,347.016,4713.05,4066.95,8185.85,12.7046,-24.3667,46.6722,-7142.81,20542.4,-2004.21,36.4976,103.554,343.036,-1049.61,-11098.7,-549.377,-1.07512,-49.2533,71.667,4390.61,-10250.5,-2393.16,16.7347,-138.676,87.2203,-14.6414,5312.41,-1250.17,38.7154,48.1156,26.9766,7478.96,-753.503,143.907,40.5969,-28.9708,3.49117
3.227,23022.4,-3614.25,11448.3,-182.514,170.928,348.187,4717.33,4052.69,8224.0,12.7281,-25.1959,46.4056,-7204.66,20587.4,-2025.14,35.7927,102.163,341.181,-1079.36,-11102.9,-542.107,-1.05932,-49.2355,72.2895,4358.89,-10280.6,-2460.35,17.0209,-137.505,86.4834,242.842,5344.11,-1180.61,37.8714,56.8906,26.313,7462.57,-757.196,82.7914,40.7078,-29.4062,3.53071
3.228,23204.0,-3761.99,11242.6,-180.269,169.64,348.876,4681.96,4076.59,8242.39,12.8635,-25.9883,46.257,-7259.84,20623.5,-2074.92,35.2211,101.224,339.179,-1093.5,-11093.8,-525.303,-1.10013,-49.3955,72.8611,4349.84,-10303.0,-2494.49,17.5645,-136.091,85.7268,471.31,5344.87,-1133.47,37.8091,66.1792,25.8285,7439.0,-765.054,16.8923,41.1337,-29.5001,3.5572
3.229,23385.6,-3909.73,11037.0,-178.025,168.353,349.566,4646.58,4100.49,8260.78,12.9989,-26.7806,46.1084,-7315.01,20659.6,-2124.71,34.6495,100.285,337.176,-1107.65,-11084.7,-508.5,-1.14095,-49.5555,73.4326,4340.78,-10325.4,-2528.64,18.1081,-134.677,84.9702,699.777,5345.62,-1086.33,37.7467,75.4678,25.344,7415.43,-772.913,-49.0068,41.5597,-29.594,3.58368
3.23,23567.2,-4057.46,10831.3,-175.78,167.066,350.255,4611.21,4124.39,8279.17,13.1342,-27.573,45.9597,-7370.18,20695.7,-2174.49,34.0779,99.3459,335.173,-1121.79,-11075.6,-491.696,-1.18176,-49.7155,74.0042,4331.73,-10347.8,-2562.79,18.6517,-133.263,84.2137,928.245,5346.38,-1039.19,37.6843,84.7564,24.8596,7391.86,-780.771,-114.906,41.9856,-29.6878,3.61017
3.231,23748.8,-4205.2,10625.7,-173.535,165.778,350.945,4575.83,4148.3,8297.56,13.2696,-28.3654,45.8111,-7425.36,20731.8,-2224.28,33.5063,98.4067,333.171,-1135.94,-11066.5,-474.892,-1.22257,-49.8755,74.5758,4322.68,-10370.2,-2596.94,19.1953,-131.849,83.4571,1156.71,5347.13,-992.049,37.6219,94.045,24.3751,7368.29,-788.629,-180.805,42.4115,-29.7817,3.63666
3.232,23910.7,-4429.13,10487.5,-169.941,164.972,350.527,4541.29,4184.79,8286.11,13.3362,-29.1702,45.942,-7500.47,20757.7,-2291.67,32.9854,98.0785,331.178,-1133.53,-11054.7,-477.407,-1.14665,-50.0916,75.2145,4326.73,-10353.9,-2621.58,19.6881,-130.458,82.8056,1358.83,5392.31,-864.891,37.967,102.246,23.9946,7388.69,-821.817,-232.043,43.2172,-29.707,3.77667
3.233,24070.1,-4662.59,10357.7,-166.177,164.226,349.971,4506.85,4222.85,8270.92,13.3942,-29.9765,46.1078,-7578.08,20782.3,-2361.26,32.4709,97.8266,329.186,-1129.04,-11042.7,-482.336,-1.05613,-50.3148,75.8616,4332.43,-10332.7,-2645.05,20.1746,-129.071,82.1672,1557.66,5443.03,-727.73,38.363,110.311,23.6271,7414.59,-858.172,-281.449,44.0704,-29.6112,3.93087
3.234,24229.6,-4896.05,10227.9,-162.414,163.48,349.415,4472.42,4260.92,8255.74,13.4522,-30.7828,46.2736,-7655.69,20807.0,-2430.86,31.9563,97.5747,327.195,-1124.56,-11030.6,-487.266,-0.965615,-50.5379,76.5087,4338.13,-10311.5,-2668.51,20.6611,-127.683,81.5288,1756.49,5493.76,-590.569,38.7591,118.377,23.2595,7440.49,-894.526,-330.855,44.9235,-29.5153,4.08507
3.235,24389.0,-5129.51,10098.2,-158.651,162.733,348.859,4437.98,4298.98,8240.55,13.5102,-31.5892,46.4394,-7733.29,20831.6,-2500.45,31.4418,97.3228,325.203,-1120.08,-11018.5,-492.195,-0.875099,-50.7611,77.1558,4343.82,-10290.3,-2691.97,21.1475,-126.296,80.8904,1955.32,5544.49,-453.408,39.1552,126.442,22.892,7466.38,-930.88,-380.261,45.7767,-29.4195,4.23927
3.236,24542.1,-5359.13,9954.74,-154.196,162.036,347.979,4413.54,4306.18,8238.26,13.6092,-32.397,46.5679,-7775.94,20833.6,-2558.85,30.9864,97.2912,323.237,-1108.54,-11013.5,-511.725,-0.794785,-50.9379,77.8658,4352.4,-10253.1,-2708.79,21.5309,-124.85,80.3315,2125.44,5622.78,-267.126,39.6503,133.241,22.651,7483.77,-957.736,-420.265,46.7654,-29.2915,4.42748
3.237,24687.4,-5583.97,9794.25,-148.875,161.401,346.692,4401.61,4274.79,8252.1,13.7593,-33.2065,46.6499,-7774.89,20807.4,-2603.24,30.605,97.5349,321.304,-1088.18,-11017.5,-549.506,-0.727225,-51.057,78.6543,4364.59,-10195.6,-2717.3,21.7853,-123.33,79.8718,2259.67,5735.51,-19.4422,40.2694,138.457,22.5682,7490.51,-972.719,-448.516,47.9235,-29.1232,4.65821
3.238,24832.6,-5808.81,9633.77,-143.554,160.765,345.405,4389.68,4243.4,8265.93,13.9094,-34.0161,46.7319,-7773.84,20781.1,-2647.63,30.2235,97.7786,319.371,-1067.82,-11021.4,-587.287,-0.659664,-51.176,79.4427,4376.77,-10138.2,-2725.82,22.0398,-121.81,79.4122,2393.91,5848.25,228.241,40.8885,143.674,22.4855,7497.25,-987.701,-476.767,49.0816,-28.955,4.88894
3.239,24977.9,-6033.65,9473.28,-138.233,160.13,344.119,4377.75,4212.02,8279.77,14.0596,-34.8256,46.8139,-7772.79,20754.8,-2692.03,29.8421,98.0223,317.438,-1047.46,-11025.4,-625.067,-0.592104,-51.295,80.2312,4388.95,-10080.8,-2734.33,22.2942,-120.291,78.9525,2528.14,5960.99,475.925,41.5076,148.89,22.4027,7504.0,-1002.68,-505.018,50.2397,-28.7867,5.11966
3.24,25123.1,-6258.49,9312.79,-132.912,159.494,342.832,4365.82,4180.63,8293.6,14.2097,-35.6352,46.8959,-7771.74,20728.6,-2736.42,29.4606,98.266,315.505,-1027.1,-11029.4,-662.848,-0.524544,-51.4141,81.0197,4401.14,-10023.4,-2742.85,22.5487,-118.771,78.4929,2662.38,6073.73,723.609,42.1267,154.107,22.3199,7510.74,-1017.67,-533.27,51.3978,-28.6185,5.35039
3.241,25193.3,-6352.57,9134.87,-126.226,158.648,341.12,4390.79,4160.21,8287.28,14.6552,-36.4677,47.0719,-7773.59,20711.4,-2798.29,29.0115,99.0054,313.371,-1012.47,-11052.7,-710.108,-0.41998,-51.2695,81.939,4418.89,-9984.8,-2745.6,22.5938,-117.499,78.301,2748.99,6227.26,944.756,41.8439,155.149,22.6019,7505.09,-1015.54,-539.821,51.9382,-28.4893,5.67197
3.242,25263.5,-6446.65,8956.96,-119.539,157.802,339.408,4415.77,4139.79,8280.96,15.1007,-37.3002,47.248,-7775.43,20694.2,-2860.15,28.5624,99.7449,311.238,-997.834,-11076.1,-757.368,-0.315416,-51.1249,82.8583,4436.65,-9946.25,-2748.36,22.6389,-116.227,78.1091,2835.6,6380.8,1165.9,41.561,156.19,22.8839,7499.45,-1013.41,-546.372,52.4787,-28.3601,5.99355
3.243,25333.6,-6540.72,8779.04,-112.852,156.957,337.696,4440.74,4119.37,8274.63,15.5462,-38.1328,47.424,-7777.27,20677.1,-2922.02,28.1134,100.484,309.105,-983.201,-11099.5,-804.628,-0.210852,-50.9803,83.7777,4454.41,-9907.7,-2751.11,22.684,-114.955,77.9171,2922.21,6534.33,1387.05,41.2781,157.232,23.1659,7493.8,-1011.28,-552.923,53.0191,-28.2309,6.31513
3.244,25403.8,-6634.8,8601.12,-106.165,156.111,335.984,4465.71,4098.95,8268.31,15.9918,-38.9653,47.6,-7779.12,20659.9,-2983.88,27.6643,101.224,306.972,-968.568,-11122.8,-851.888,-0.106289,-50.8357,84.697,4472.16,-9869.15,-2753.87,22.7292,-113.684,77.7252,3008.82,6687.87,1608.2,40.9953,158.274,23.4479,7488.16,-1009.16,-559.474,53.5595,-28.1018,6.63671
3.245,25449.6,-6565.48,8432.5,-99.5422,155.133,334.079,4509.02,4096.86,8268.68,16.3236,-39.9303,47.6232,-7827.1,20640.6,-3035.99,27.291,102.289,304.715,-967.405,-11144.9,-876.188,0.0608405,-50.6809,85.5902,4506.28,-9818.2,-2747.94,22.6578,-112.452,77.5487,3126.75,6863.43,1766.6,40.0971,157.031,23.7972,7497.56,-1014.05,-551.695,53.707,-28.0571,7.03151
3.246,25476.0,-6365.45,8271.33,-92.9711,154.049,332.02,4567.0,4109.44,8274.42,16.5644,-41.0012,47.5242,-7911.98,20619.6,-3080.3,26.9784,103.616,302.36,-977.019,-11165.9,-882.12,0.278022,-50.5179,86.4625,4553.5,-9757.33,-2735.04,22.4932,-111.253,77.3844,3269.75,7056.62,1874.81,38.7067,153.961,24.2004,7519.0,-1024.57,-532.452,53.5402,-28.08,7.48487
3.247,25502.4,-6165.43,8110.15,-86.4,152.966,329.961,4624.98,4122.01,8280.15,16.8052,-42.0722,47.4251,-7996.87,20598.6,-3124.6,26.6659,104.943,300.005,-986.632,-11187.0,-888.053,0.495203,-50.3549,87.3348,4600.71,-9696.46,-2722.15,22.3287,-110.054,77.2201,3412.74,7249.81,1983.01,37.3163,150.891,24.6035,7540.45,-1035.08,-513.209,53.3734,-28.1029,7.93823
3.248,25528.8,-5965.4,7948.98,-79.8289,151.882,327.902,4682.96,4134.59,8285.89,17.0461,-43.1431,47.3261,-8081.75,20577.6,-3168.91,26.3533,106.269,297.65,-996.245,-11208.0,-893.985,0.712385,-50.1919,88.2072,4647.92,-9635.59,-2709.26,22.1641,-108.854,77.0559,3555.74,7443.0,2091.22,35.9259,147.82,25.0067,7561.89,-1045.6,-493.966,53.2066,-28.1258,8.3916
3.249,25558.0,-5741.81,7789.05,-73.3642,150.755,325.817,4736.37,4156.35,8297.91,17.2601,-44.2268,47.2401,-8176.69,20561.1,-3214.89,26.0174,107.57,295.251,-1003.16,-11227.4,-895.412,0.9309,-50.0176,89.08,4694.78,-9579.15,-2696.28,22.0023,-107.68,76.9012,3708.86,7637.73,2186.04,34.6177,144.467,25.4827,7586.02,-1055.97,-474.019,52.9921,-28.1327,8.84458
3.25,25609.4,-5329.66,7639.09,-67.7507,149.28,323.524,4753.28,4251.56,8360.26,17.2601,-45.4125,47.2586,-8352.07,20580.1,-3274.24,25.4952,108.665,292.499,-988.529,-11234.0,-860.799,1.16008,-49.7528,89.957,4738.75,-9558.09,-2682.56,21.8632,-106.708,76.823,3942.96,7844.74,2173.82,33.9672,138.849,26.5407,7631.65,-1065.16,-448.445,52.3958,-28.0116,9.29445
3.251,25660.8,-4917.51,7489.14,-62.1372,147.805,321.232,4770.18,4346.76,8422.61,17.2601,-46.5982,47.2771,-8527.44,20599.2,-3333.6,24.973,109.761,289.746,-973.893,-11240.6,-826.186,1.38927,-49.488,90.8339,4782.72,-9537.04,-2668.83,21.724,-105.736,76.7449,4177.06,8051.75,2161.6,33.3166,133.231,27.5988,7677.29,-1074.36,-422.87,51.7995,-27.8905,9.74432
3.252,25712.1,-4505.37,7339.18,-56.5237,146.329,318.939,4787.09,4441.97,8484.96,17.26,-47.7838,47.2956,-8702.81,20618.2,-3392.95,24.4507,110.856,286.994,-959.258,-11247.1,-791.572,1.61845,-49.2232,91.7108,4826.68,-9515.98,-2655.1,21.5849,-104.764,76.6667,4411.16,8258.76,2149.38,32.6661,127.613,28.6569,7722.92,-1083.55,-397.295,51.2032,-27.7694,10.1942
3.253,25763.5,-4093.22,7189.22,-50.9103,144.854,316.646,4803.99,4537.17,8547.31,17.26,-48.9695,47.3141,-8878.19,20637.3,-3452.3,23.9285,111.951,284.242,-944.622,-11253.7,-756.959,1.84763,-48.9584,92.5877,4870.65,-9494.92,-2641.38,21.4457,-103.792,76.5885,4645.26,8465.77,2137.16,32.0155,121.996,29.715,7768.55,-1092.75,-371.721,50.6069,-27.6482,10.6441
3.254,25832.9,-3585.01,6953.83,-46.3705,143.244,314.147,4773.56,4545.95,8593.03,17.2954,-50.2102,47.4601,-9100.28,20687.7,-3533.42,23.2563,112.908,281.183,-934.329,-11302.0,-725.849,2.06729,-48.6832,93.4034,4914.88,-9502.44,-2619.5,21.4016,-102.753,76.4217,4928.62,8614.79,2048.16,32.5289,116.429,30.8844,7805.77,-1097.79,-335.572,49.8332,-27.6726,11.1265
3.255,25911.2,-3028.76,6675.71,-42.3676,141.566,311.544,4719.46,4511.52,8630.42,17.3486,-51.4785,47.6699,-9345.72,20753.9,-3625.42,22.5091,113.796,277.97,-926.207,-11371.1,-696.491,2.28218,-48.4027,94.1884,4959.24,-9524.24,-2593.54,21.4051,-101.682,76.2106,5236.61,8734.81,1920.77,33.6241,110.889,32.1095,7838.79,-1100.75,-294.137,48.9708,-27.7698,11.6253
3.256,25989.6,-2472.52,6397.6,-38.3646,139.888,308.942,4665.37,4477.09,8667.81,17.4017,-52.7467,47.8797,-9591.17,20820.1,-3717.43,21.7619,114.683,274.758,-918.085,-11440.2,-667.134,2.49706,-48.1222,94.9733,5003.59,-9546.04,-2567.59,21.4085,-100.611,75.9995,5544.6,8854.84,1793.38,34.7194,105.348,33.3346,7871.8,-1103.7,-252.701,48.1085,-27.8669,12.124
3.257,26068.0,-1916.27,6119.48,-34.3617,138.21,306.34,4611.27,4442.66,8705.21,17.4549,-54.0149,48.0894,-9836.62,20886.2,-3809.43,21.0147,115.571,271.545,-909.963,-11509.3,-637.776,2.71195,-47.8418,95.7583,5047.95,-9567.83,-2541.64,21.412,-99.5398,75.7883,5852.6,8974.86,1665.99,35.8146,99.8075,34.5597,7904.82,-1106.66,-211.265,47.2461,-27.9641,12.6227
3.258,26154.5,-1383.93,5830.66,-30.5987,136.619,303.52,4562.24,4381.17,8730.21,17.6635,-55.2317,48.2235,-10099.3,20929.3,-3911.97,20.3723,116.479,268.293,-901.776,-11570.5,-616.251,2.96421,-47.5793,96.5564,5085.52,-9587.43,-2526.06,21.4179,-98.4261,75.5776,6181.6,9087.54,1535.48,37.2245,94.6814,35.6788,7944.11,-1098.46,-170.813,46.3481,-28.0624,13.1494
3.259,26269.6,-935.264,5504.39,-27.6754,135.335,299.937,4530.96,4224.98,8711.84,18.4164,-56.2686,48.0928,-10422.3,20891.5,-4051.39,20.0966,117.461,264.904,-893.363,-11603.8,-622.142,3.34727,-47.3794,97.4003,5099.34,-9599.33,-2546.82,21.4328,-97.1638,75.3683,6584.16,9174.49,1394.04,39.7352,91.0057,36.4268,8005.4,-1051.22,-133.802,45.3253,-28.1646,13.7738
3.26,26384.8,-486.598,5178.12,-24.7521,134.051,296.355,4499.69,4068.8,8693.46,19.1693,-57.3054,47.9621,-10745.4,20853.7,-4190.81,19.8209,118.443,261.514,-884.95,-11637.0,-628.034,3.73033,-47.1796,98.2443,5113.15,-9611.22,-2567.58,21.4478,-95.9016,75.1591,6986.71,9261.44,1252.59,42.246,87.33,37.1748,8066.68,-1003.97,-96.7913,44.3024,-28.2669,14.3983
3.261,26499.9,-37.9319,4851.85,-21.8288,132.766,292.772,4468.41,3912.62,8675.09,19.9221,-58.3423,47.8314,-11068.4,20815.9,-4330.24,19.5452,119.425,258.124,-876.537,-11670.3,-633.925,4.11339,-46.9798,99.0882,5126.97,-9623.11,-2588.33,21.4627,-94.6393,74.9498,7389.26,9348.4,1111.15,44.7567,83.6543,37.9228,8127.96,-956.728,-59.7803,43.2796,-28.3691,15.0227
3.262,26615.0,410.734,4525.58,-18.9054,131.482,289.19,4437.14,3756.44,8656.72,20.675,-59.3791,47.7007,-11391.5,20778.1,-4469.66,19.2695,120.407,254.734,-868.124,-11703.6,-639.816,4.49645,-46.78,99.9321,5140.79,-9635.01,-2609.09,21.4776,-93.377,74.7405,7791.81,9435.35,969.705,47.2675,79.9786,38.6708,8189.24,-909.484,-22.7694,42.2568,-28.4713,15.6471
3.263,26726.8,802.225,4163.18,-16.8272,130.615,284.45,4415.39,3796.59,8674.19,21.0444,-60.5796,47.4778,-11810.5,20663.4,-4656.67,19.4917,121.366,251.804,-864.187,-11730.6,-619.458,4.88741,-46.5555,100.863,5165.38,-9631.49,-2632.87,21.4238,-92.009,74.5652,8243.18,9532.74,887.542,49.1233,77.8857,38.8964,8298.23,-875.571,-10.3235,41.2695,-28.4868,16.4361
3.264,26837.6,1177.38,3790.45,-14.9904,129.867,279.379,4396.37,3892.85,8701.91,21.3041,-61.8269,47.2285,-12257.0,20526.7,-4857.27,19.8561,122.319,249.004,-861.53,-11755.7,-591.6,5.28063,-46.3239,101.819,5193.04,-9623.57,-2657.52,21.3504,-90.6108,74.3996,8708.5,9633.11,822.317,50.7921,76.2451,38.9726,8420.86,-845.467,-4.89613,40.2923,-28.4774,17.272
3.265,26948.4,1552.54,3417.72,-13.1537,129.12,274.309,4377.35,3989.1,8729.63,21.5639,-63.0741,46.9793,-12703.5,20389.9,-5057.87,20.2206,123.271,246.205,-858.873,-11780.9,-563.742,5.67384,-46.0923,102.776,5220.7,-9615.65,-2682.17,21.2769,-89.2126,74.234,9173.82,9733.48,757.092,52.4609,74.6045,39.0488,8543.49,-815.363,0.531223,39.3151,-28.4681,18.1079
3.266,27059.2,1927.69,3044.99,-11.3169,128.372,269.238,4358.33,4085.36,8757.36,21.8236,-64.3214,46.73,-13150.0,20253.2,-5258.47,20.585,124.224,243.405,-856.215,-11806.0,-535.884,6.06706,-45.8607,103.732,5248.36,-9607.73,-2706.81,21.2035,-87.8143,74.0684,9639.14,9833.84,691.868,54.1297,72.9639,39.1251,8666.12,-785.258,5.95857,38.3378,-28.4587,18.9439
3.267,27179.7,2318.96,2656.41,-10.4025,127.631,264.038,4353.45,4173.82,8773.7,22.0218,-65.5769,46.6846,-13662.2,20063.5,-5450.07,21.1243,125.039,240.783,-846.664,-11824.4,-498.091,6.4337,-45.5917,104.71,5285.62,-9600.19,-2711.89,21.1178,-86.3446,73.8796,10136.5,9953.36,630.733,54.853,71.854,38.7792,8783.07,-751.881,8.45012,37.36,-28.3813,19.812
3.268,27319.9,2742.45,2236.12,-11.333,126.901,258.58,4376.85,4246.67,8767.3,22.0968,-66.8492,47.0469,-14305.9,19768.0,-5623.67,22.0133,125.578,238.515,-823.324,-11829.3,-440.432,6.74719,-45.2479,105.731,5342.05,-9593.41,-2677.85,21.0073,-84.7316,73.6444,10698.0,10111.2,577.777,53.6852,71.8056,37.589,8888.67,-711.958,5.07005,36.3809,-28.1677,20.7446
3.269,27460.0,3165.93,1815.82,-12.2634,126.172,253.121,4400.25,4319.53,8760.9,22.1718,-68.1214,47.4091,-14949.6,19472.5,-5797.27,22.9023,126.116,236.248,-799.983,-11834.1,-382.772,7.06067,-44.9042,106.753,5398.48,-9586.63,-2643.8,20.8969,-83.1187,73.4092,11259.4,10269.0,524.822,52.5174,71.7572,36.3988,8994.27,-672.035,1.68999,35.4018,-27.9542,21.6771
3.27,27600.1,3589.42,1395.53,-13.1938,125.443,247.662,4423.66,4392.38,8754.5,22.2468,-69.3937,47.7714,-15593.2,19177.0,-5970.87,23.7912,126.655,233.98,-776.643,-11839.0,-325.112,7.37416,-44.5604,107.774,5454.92,-9579.85,-2609.75,20.7865,-81.5058,73.174,11820.9,10426.8,471.867,51.3496,71.7088,35.2085,9099.87,-632.112,-1.69008,34.4227,-27.7406,22.6097
3.271,27740.2,4012.91,975.23,-14.1242,124.714,242.203,4447.06,4465.24,8748.1,22.3218,-70.6659,48.1336,-16236.9,18881.5,-6144.47,24.6802,127.194,231.712,-753.303,-11843.8,-267.453,7.68764,-44.2166,108.796,5511.35,-9573.07,-2575.7,20.676,-79.8929,72.9388,12382.4,10584.6,418.912,50.1818,71.6604,34.0183,9205.47,-592.189,-5.07014,33.4436,-27.527,23.5422
3.272,27894.7,4466.31,631.589,-16.9095,123.388,236.575,4478.5,4387.79,8768.69,22.7419,-72.0412,48.0666,-16949.1,18509.9,-6187.59,25.5751,126.129,229.172,-714.823,-11873.5,-217.976,8.00263,-43.8142,109.72,5563.86,-9576.67,-2528.99,20.5635,-78.0176,72.7578,13123.7,10830.1,315.61,45.8028,73.2724,31.6355,9296.42,-534.346,-24.3855,31.648,-27.1042,24.6086
3.273,28050.9,4923.45,297.53,-19.9266,121.988,230.926,4510.95,4291.56,8792.66,23.2051,-73.4294,47.946,-17669.9,18128.9,-6214.4,26.4707,124.865,226.598,-674.451,-11906.3,-169.522,8.31781,-43.4045,110.631,5615.88,-9581.56,-2480.7,20.4507,-76.1095,72.5836,13887.5,11086.5,206.015,41.0224,75.0919,29.1035,9385.54,-474.263,-45.6928,29.7503,-26.6552,25.6916
3.274,28207.2,5380.59,-36.5295,-22.9437,120.588,225.277,4543.4,4195.32,8816.62,23.6682,-74.8176,47.8254,-18390.7,17747.8,-6241.21,27.3663,123.6,224.024,-634.079,-11939.1,-121.068,8.63299,-42.9948,111.543,5667.9,-9586.46,-2432.41,20.3378,-74.2013,72.4095,14651.4,11343.0,96.4204,36.242,76.9115,26.5715,9474.66,-414.18,-67.0001,27.8526,-26.2062,26.7746
3.275,28363.4,5837.73,-370.589,-25.9609,119.188,219.628,4575.85,4099.09,8840.59,24.1314,-76.2058,47.7048,-19111.4,17366.8,-6268.02,28.2619,122.336,221.45,-593.706,-11971.9,-72.6141,8.94817,-42.5851,112.454,5719.91,-9591.35,-2384.12,20.225,-72.2932,72.2353,15415.2,11599.5,-13.1744,31.4616,78.7311,24.0396,9563.78,-354.098,-88.3074,25.9549,-25.7573,27.8577
3.276,28604.0,6290.62,-759.733,-29.7125,118.097,213.904,4593.79,4032.6,8881.09,24.518,-77.6446,47.5262,-19717.6,16961.2,-6199.72,29.1889,119.901,218.334,-566.822,-11979.9,-23.8993,9.26175,-42.1468,113.418,5772.69,-9585.64,-2326.34,20.0399,-70.4237,72.0631,16216.9,11894.6,-139.461,25.6546,81.1848,21.4688,9643.89,-295.777,-123.21,23.866,-25.1941,28.8076
3.277,28949.8,6738.18,-1217.73,-34.3823,117.393,208.085,4593.6,4003.31,8942.24,24.8089,-79.1468,47.275,-20180.6,16524.9,-6012.51,30.1551,116.005,214.54,-556.798,-11957.0,25.1417,9.57331,-41.6727,114.448,5826.4,-9566.68,-2256.69,19.7645,-68.6025,71.8935,17065.9,12237.9,-286.612,18.5646,84.4312,18.8494,9712.75,-239.66,-175.106,21.5381,-24.4883,29.591
3.278,29295.7,7185.74,-1675.73,-39.0521,116.689,202.266,4593.4,3974.01,9003.4,25.0998,-80.6489,47.0238,-20643.6,16088.6,-5825.31,31.1212,112.109,210.745,-546.773,-11934.1,74.1827,9.88487,-41.1986,115.478,5880.12,-9547.71,-2187.04,19.489,-66.7812,71.7239,17914.8,12581.3,-433.764,11.4745,87.6775,16.23,9781.6,-183.543,-227.002,19.2102,-23.7824,30.3745
3.279,29641.6,7633.3,-2133.74,-43.7218,115.984,196.448,4593.2,3944.72,9064.56,25.3907,-82.151,46.7727,-21106.6,15652.3,-5638.11,32.0874,108.213,206.951,-536.749,-11911.2,123.224,10.1964,-40.7245,116.508,5933.83,-9528.75,-2117.39,19.2135,-64.9599,71.5543,18763.8,12924.6,-580.915,4.38445,90.9239,13.6107,9850.46,-127.426,-278.898,16.8822,-23.0765,31.158
3.28,29987.5,8080.86,-2591.74,-48.3916,115.28,190.629,4593.01,3915.42,9125.72,25.6815,-83.6532,46.5215,-21569.6,15216.0,-5450.91,33.0535,104.317,203.157,-526.724,-11888.3,172.265,10.508,-40.2505,117.538,5987.55,-9509.78,-2047.74,18.9381,-63.1387,71.3847,19612.8,13268.0,-728.067,-2.70561,94.1703,10.9913,9919.31,-71.3084,-330.794,14.5543,-22.3707,31.9414
3.281,30623.2,8320.31,-3094.0,-50.8064,116.277,183.758,4595.01,3871.77,9130.99,26.1546,-85.159,46.4482,-21964.8,14851.9,-5454.62,34.9017,100.29,197.602,-548.346,-11909.1,189.119,10.8493,-39.5616,118.595,6024.29,-9488.96,-1979.51,18.5492,-61.3836,71.1229,20234.4,13607.7,-931.001,-10.2843,98.9877,9.95171,9968.17,-51.0095,-401.7,13.0679,-21.8577,32.6346
3.282,31258.9,8559.75,-3596.26,-53.2212,117.274,176.886,4597.02,3828.12,9136.27,26.6277,-86.6649,46.3749,-22360.0,14487.7,-5458.33,36.7499,96.2626,192.048,-569.967,-11930.0,205.973,11.1907,-38.8728,119.652,6061.02,-9468.14,-1911.28,18.1603,-59.6285,70.861,20856.0,13947.4,-1133.94,-17.8629,103.805,8.9121,10017.0,-30.7105,-472.606,11.5815,-21.3448,33.3278
3.283,31894.6,8799.2,-4098.53,-55.636,118.271,170.015,4599.03,3784.47,9141.54,27.1007,-88.1708,46.3016,-22755.2,14123.6,-5462.05,38.5981,92.2352,186.494,-591.588,-11950.9,222.828,11.532,-38.184,120.709,6097.76,-9447.32,-1843.04,17.7714,-57.8734,70.5992,21477.6,14287.1,-1336.87,-25.4416,108.623,7.87249,10065.9,-10.4115,-543.512,10.095,-20.8319,34.0209
3.284,32530.2,9038.65,-4600.79,-58.0508,119.268,163.144,4601.04,3740.82,9146.82,27.5738,-89.6767,46.2283,-23150.4,13759.4,-5465.76,40.4463,88.2078,180.939,-613.209,-11971.8,239.682,11.8734,-37.4951,121.766,6134.5,-9426.49,-1774.81,17.3825,-56.1182,70.3373,22099.2,14626.8,-1539.8,-33.0202,113.44,6.83289,10114.7,9.88753,-614.418,8.60862,-20.3189,34.7141
3.285,33219.0,9155.38,-5058.48,-59.3116,119.993,156.133,4591.4,3679.32,9156.61,28.2588,-91.2631,45.9639,-23496.5,13362.3,-5521.57,41.8558,84.4241,174.796,-620.842,-11995.0,309.11,12.182,-36.858,122.719,6170.25,-9415.37,-1700.42,17.0303,-54.5608,70.0702,22503.4,14840.8,-1662.32,-40.258,118.735,6.76794,10161.0,31.8155,-690.469,8.1156,-19.7898,35.269
3.286,33950.1,9173.96,-5480.51,-59.6491,120.501,149.01,4572.44,3603.54,9170.02,29.1133,-92.9141,45.5468,-23803.4,12938.9,-5619.06,42.9142,80.8355,168.183,-617.285,-12020.2,420.597,12.4645,-36.2623,123.589,6205.21,-9411.99,-1621.11,16.7073,-53.1615,69.7989,22733.7,14954.3,-1720.49,-47.2232,124.412,7.48273,10205.2,55.0466,-770.637,8.41729,-19.2478,35.7133
3.287,34681.3,9192.53,-5902.53,-59.9866,121.008,141.887,4553.48,3527.76,9183.43,29.9679,-94.565,45.1296,-24110.2,12515.4,-5716.54,43.9726,77.2468,161.569,-613.728,-12045.4,532.083,12.747,-35.6666,124.459,6240.17,-9408.62,-1541.79,16.3844,-51.7622,69.5276,22964.0,15067.7,-1778.66,-54.1883,130.089,8.19752,10249.5,78.2777,-850.804,8.71899,-18.7057,36.1576
3.288,35412.5,9211.1,-6324.56,-60.3242,121.516,134.765,4534.52,3451.98,9196.84,30.8225,-96.216,44.7125,-24417.0,12092.0,-5814.03,45.031,73.6581,154.955,-610.17,-12070.6,643.57,13.0295,-35.0708,125.329,6275.14,-9405.24,-1462.48,16.0615,-50.3629,69.2563,23194.4,15181.2,-1836.84,-61.1534,135.766,8.9123,10293.7,101.509,-930.971,9.02069,-18.1637,36.6019
3.289,36114.8,9258.45,-6743.88,-60.9233,121.83,127.927,4520.54,3382.31,9214.48,31.6645,-97.8836,44.2972,-24703.4,11673.8,-5877.74,46.0376,70.0447,148.245,-608.312,-12095.3,752.869,13.3128,-34.4739,126.218,6310.39,-9399.26,-1383.94,15.7635,-48.9989,68.9834,23370.8,15277.8,-1855.68,-67.8373,141.304,9.73751,10339.9,126.605,-1005.29,9.3929,-17.6216,37.024
3.29,36586.9,9536.03,-7141.57,-63.6153,120.601,123.366,4546.41,3361.48,9265.93,32.4063,-99.6851,43.8967,-24826.2,11297.9,-5671.21,46.6291,66.2334,140.763,-620.049,-12116.4,844.666,13.6022,-33.867,127.253,6348.01,-9372.47,-1311.63,15.6656,-47.9174,68.6984,23116.1,15239.6,-1559.9,-72.2709,145.734,11.4461,10402.3,166.627,-1032.87,10.3292,-17.0794,37.2681
3.291,37059.0,9813.6,-7539.25,-66.3073,119.372,118.805,4572.29,3340.66,9317.39,33.1481,-101.486,43.4963,-24949.0,10922.0,-5464.69,47.2206,62.4222,133.282,-631.786,-12137.5,936.464,13.8916,-33.2601,128.288,6385.62,-9345.68,-1239.33,15.5678,-46.836,68.4133,22861.4,15201.4,-1264.11,-76.7046,150.163,13.1546,10464.7,206.648,-1060.44,11.2655,-16.5371,37.5121
3.292,37531.0,10091.2,-7936.93,-68.9993,118.143,114.244,4598.16,3319.83,9368.85,33.8899,-103.288,43.0958,-25071.8,10546.0,-5258.16,47.8121,58.6109,125.8,-643.523,-12158.5,1028.26,14.1811,-32.6533,129.324,6423.23,-9318.89,-1167.02,15.4699,-45.7546,68.1283,22606.7,15163.3,-968.331,-81.1382,154.592,14.8632,10527.1,246.67,-1088.01,12.2019,-15.9949,37.7562
3.293,38003.1,10368.7,-8334.62,-71.6913,116.914,109.682,4624.03,3299.0,9420.31,34.6317,-105.089,42.6954,-25194.6,10170.1,-5051.64,48.4036,54.7997,118.319,-655.26,-12179.6,1120.06,14.4705,-32.0464,130.359,6460.85,-9292.1,-1094.71,15.372,-44.6732,67.8433,22352.1,15125.1,-672.546,-85.5719,159.021,16.5718,10589.5,286.691,-1115.58,13.1382,-15.4527,38.0002
3.294,38112.1,10796.9,-8673.46,-72.6663,113.883,105.845,4650.05,3267.56,9458.11,35.4151,-106.891,42.2554,-25220.8,9953.67,-4777.62,48.7666,50.9618,109.943,-652.779,-12213.0,1188.25,14.8106,-31.2748,131.384,6485.22,-9275.6,-1038.74,15.345,-43.8295,67.5132,21849.8,15015.2,-149.414,-87.3108,160.91,19.0006,10646.6,336.912,-1113.47,13.5221,-15.0289,38.4063
3.295,38039.6,11300.3,-8982.9,-72.7829,109.951,102.369,4676.15,3230.81,9489.08,36.2194,-108.692,41.7958,-25198.7,9816.96,-4469.85,49.0153,47.1107,101.12,-643.19,-12252.5,1244.64,15.1761,-30.4208,132.404,6502.97,-9264.26,-990.956,15.3535,-43.1047,67.1606,21223.6,14869.5,487.393,-87.7024,161.529,21.7896,10701.0,392.231,-1096.51,13.6298,-14.6644,38.8934
3.296,37967.1,11803.7,-9292.33,-72.8994,106.019,98.8927,4702.25,3194.06,9520.05,37.0237,-110.494,41.3361,-25176.5,9680.25,-4162.08,49.264,43.2596,92.2972,-633.6,-12292.1,1301.03,15.5416,-29.5668,133.423,6520.72,-9252.91,-943.169,15.362,-42.3799,66.808,20597.5,14723.8,1124.2,-88.094,162.148,24.5786,10755.5,447.551,-1079.55,13.7375,-14.2999,39.3805
3.297,37894.6,12307.1,-9601.76,-73.016,102.087,95.4167,4728.35,3157.31,9551.02,37.828,-112.295,40.8764,-25154.4,9543.54,-3854.31,49.5126,39.4084,83.4744,-624.011,-12331.6,1357.42,15.9071,-28.7128,134.443,6538.47,-9241.56,-895.381,15.3704,-41.6551,66.4554,19971.3,14578.1,1761.01,-88.4855,162.766,27.3675,10809.9,502.871,-1062.59,13.8452,-13.9353,39.8676
3.298,37701.6,12807.1,-9867.46,-72.5694,97.555,91.8964,4743.12,3121.62,9585.3,38.6039,-114.149,40.4078,-25092.6,9457.83,-3538.95,49.5776,35.6234,74.5952,-616.343,-12373.1,1413.39,16.2323,-27.8925,135.449,6549.41,-9235.61,-854.758,15.3502,-40.9712,66.0544,19305.6,14397.2,2400.69,-88.2248,162.621,29.9916,10854.3,553.558,-1052.56,13.7621,-13.5309,40.327
3.299,37087.2,13295.3,-9980.06,-70.1517,90.9251,88.2212,4718.24,3089.66,9631.16,39.2806,-116.187,39.9082,-24891.7,9550.62,-3197.05,48.9997,32.0699,65.5192,-615.401,-12421.7,1467.94,16.4161,-27.1901,136.41,6536.5,-9248.54,-839.213,15.2296,-40.4304,65.4838,18501.2,14093.1,3050.42,-85.6812,159.803,32.0386,10863.5,588.03,-1066.76,13.0112,-12.9869,40.6895
3.3,36472.7,13783.4,-10092.7,-67.7341,84.2951,84.546,4693.36,3057.7,9677.02,39.9573,-118.225,39.4085,-24690.8,9643.41,-2855.14,48.4217,28.5163,56.4431,-614.459,-12470.3,1522.48,16.6,-26.4878,137.37,6523.59,-9261.46,-823.668,15.109,-39.8896,64.9133,17696.8,13788.9,3700.16,-83.1375,156.984,34.0855,10872.7,622.502,-1080.97,12.2602,-12.4428,41.0521
3.301,35858.3,14271.5,-10205.3,-65.3164,77.6652,80.8708,4668.48,3025.74,9722.88,40.634,-120.262,38.9088,-24489.9,9736.2,-2513.24,47.8438,24.9628,47.3671,-613.518,-12519.0,1577.03,16.7839,-25.7854,138.33,6510.68,-9274.39,-808.122,14.9884,-39.3488,64.3428,16892.4,13484.8,4349.89,-80.5938,154.166,36.1324,10881.9,656.974,-1095.18,11.5093,-11.8988,41.4146
3.302,35243.8,14759.7,-10317.9,-62.8988,71.0353,77.1956,4643.6,2993.78,9768.74,41.3107,-122.3,38.4092,-24289.0,9828.99,-2171.33,47.2659,21.4092,38.291,-612.576,-12567.6,1631.57,16.9678,-25.0831,139.291,6497.77,-9287.32,-792.577,14.8677,-38.808,63.7722,16088.1,13180.7,4999.63,-78.0502,151.348,38.1794,10891.1,691.446,-1109.39,10.7583,-11.3547,41.7771
3.303,34378.8,15094.1,-10232.0,-60.6163,63.2942,73.1892,4614.39,2994.71,9789.92,42.0503,-124.439,37.9178,-24006.0,10075.2,-1852.5,46.0092,19.2321,29.7898,-547.175,-12630.5,1666.72,17.4187,-24.1523,140.303,6481.11,-9333.46,-796.622,14.6345,-38.3299,63.2713,15343.7,12882.7,5470.88,-73.8864,147.526,39.805,10896.6,691.874,-1117.59,9.62431,-10.8471,42.0514
3.304,33442.1,15384.6,-10089.5,-58.3724,55.2357,69.0882,4583.94,3005.03,9804.06,42.8078,-126.607,37.4289,-23699.4,10365.3,-1540.27,44.5586,17.4483,21.4528,-463.357,-12697.6,1696.32,17.946,-23.1563,141.331,6463.38,-9389.09,-806.265,14.3691,-37.8698,62.7902,14616.5,12586.5,5891.13,-69.2597,143.417,41.3102,10901.1,682.574,-1124.07,8.38085,-10.35,42.3006
3.305,32505.4,15675.1,-9946.94,-56.1286,47.1771,64.9873,4553.5,3015.36,9818.19,43.5654,-128.775,36.9399,-23392.8,10655.4,-1228.03,43.1081,15.6645,13.1158,-379.539,-12764.6,1725.93,18.4733,-22.1603,142.358,6445.66,-9444.72,-815.907,14.1037,-37.4096,62.3092,13889.4,12290.3,6311.38,-64.633,139.309,42.8154,10905.5,673.274,-1130.55,7.13739,-9.85279,42.5497
3.306,31568.7,15965.6,-9804.41,-53.8847,39.1186,60.8863,4523.05,3025.68,9832.32,44.3229,-130.943,36.451,-23086.2,10945.5,-915.799,41.6575,13.8807,4.77885,-295.721,-12831.7,1755.53,19.0006,-21.1643,143.386,6427.93,-9500.34,-825.55,13.8383,-36.9495,61.8282,13162.2,11994.1,6731.63,-60.0063,135.201,44.3206,10910.0,663.974,-1137.03,5.89394,-9.35562,42.7988
3.307,30660.8,16143.4,-9629.67,-51.7021,31.0264,56.6474,4500.08,3043.11,9850.01,45.0838,-133.212,35.9733,-22783.8,11193.5,-654.201,40.182,12.6654,-3.18338,-236.272,-12895.8,1783.73,19.4716,-20.1588,144.446,6396.48,-9539.93,-834.823,13.6245,-36.4864,61.3695,12470.4,11722.1,7016.29,-54.9309,131.429,45.832,10912.8,636.268,-1154.99,4.75747,-9.01258,43.0012
3.308,29810.6,16095.7,-9390.53,-49.642,22.8671,52.1327,4492.07,3074.75,9874.82,45.8515,-135.685,35.5183,-22489.7,11357.5,-493.873,38.6566,12.587,-10.3961,-225.561,-12954.1,1809.12,19.8298,-19.1346,145.572,6337.57,-9547.44,-843.357,13.514,-36.0174,60.9557,11849.7,11498.3,7029.77,-48.9579,128.329,47.3556,10912.5,571.747,-1195.9,3.83498,-8.97782,43.11
3.309,28960.3,16047.9,-9151.39,-47.5818,14.7077,47.6179,4484.06,3106.39,9899.62,46.6191,-138.157,35.0632,-22195.6,11521.4,-333.546,37.1312,12.5086,-17.6088,-214.85,-13012.4,1834.52,20.1881,-18.1104,146.698,6278.67,-9554.94,-851.892,13.4034,-35.5484,60.5419,11228.9,11274.6,7043.25,-42.9849,125.229,48.8793,10912.2,507.226,-1236.82,2.91249,-8.94306,43.2188
3.31,28110.1,16000.2,-8912.25,-45.5217,6.54838,43.1032,4476.05,3138.04,9924.43,47.3868,-140.63,34.6081,-21901.5,11685.3,-173.219,35.6058,12.4302,-24.8215,-204.14,-13070.7,1859.91,20.5463,-17.0861,147.824,6219.76,-9562.44,-860.426,13.2929,-35.0794,60.128,10608.1,11050.9,7056.74,-37.012,122.13,50.403,10911.9,442.706,-1277.73,1.99,-8.9083,43.3276
3.311,27259.8,15952.4,-8673.12,-43.4616,-1.61097,38.5885,4468.04,3169.68,9949.24,48.1544,-143.103,34.153,-21607.3,11849.2,-12.8911,34.0804,12.3518,-32.0343,-193.429,-13129.0,1885.3,20.9046,-16.0619,148.95,6160.86,-9569.95,-868.96,13.1824,-34.6104,59.7142,9987.35,10827.1,7070.22,-31.039,119.03,51.9267,10911.6,378.185,-1318.65,1.06751,-8.87354,43.4365
3.312,26616.4,15647.4,-8369.83,-40.4194,-9.15134,34.0986,4484.09,3171.43,9984.52,49.0566,-145.459,33.8279,-21346.3,11956.3,140.993,32.8271,13.441,-38.0803,-234.735,-13189.0,1890.65,21.1856,-15.2353,149.83,6143.99,-9608.55,-873.164,13.2103,-34.2708,59.1927,9552.57,10702.1,6853.75,-24.4895,116.854,53.7962,10877.2,267.936,-1406.81,1.13918,-8.95684,42.9954
3.313,25998.9,15310.2,-8058.52,-37.2545,-16.6143,29.6119,4503.15,3169.45,10021.1,49.9756,-147.8,33.5191,-21089.5,12056.4,294.072,31.6078,14.6761,-43.9805,-282.543,-13249.3,1893.49,21.4568,-14.4335,150.679,6132.38,-9651.05,-876.828,13.2555,-33.9472,58.6579,9141.05,10589.4,6608.54,-17.8679,114.793,55.709,10838.7,151.972,-1500.87,1.33512,-9.05489,42.4855
3.314,25381.3,14972.9,-7747.21,-34.0895,-24.0773,25.1252,4522.2,3167.47,10057.7,50.8946,-150.142,33.2102,-20832.6,12156.4,447.151,30.3885,15.9111,-49.8808,-330.351,-13309.5,1896.33,21.7281,-13.6316,151.528,6120.78,-9693.54,-880.491,13.3006,-33.6237,58.123,8729.53,10476.8,6363.32,-11.2463,112.732,57.6218,10800.1,36.0071,-1594.94,1.53105,-9.15294,41.9757
3.315,24763.8,14635.7,-7435.9,-30.9246,-31.5403,20.6385,4541.26,3165.49,10094.3,51.8137,-152.483,32.9013,-20575.7,12256.4,600.229,29.1692,17.1462,-55.781,-378.158,-13369.7,1899.17,21.9994,-12.8297,152.377,6109.17,-9736.03,-884.154,13.3458,-33.3002,57.5881,8318.0,10364.1,6118.11,-4.62471,110.671,59.5346,10761.5,-79.9576,-1689.01,1.72699,-9.25099,41.4658
3.316,24315.3,14247.9,-7108.96,-27.363,-38.1303,16.2325,4551.81,3158.32,10122.3,52.7893,-154.942,32.5651,-20331.6,12295.8,737.564,28.0231,18.3445,-61.5173,-416.565,-13434.7,1903.09,22.2389,-12.0119,153.239,6092.91,-9786.19,-891.008,13.4651,-32.992,57.0563,7988.44,10280.2,5847.67,1.69431,108.657,61.8855,10732.3,-208.915,-1779.6,2.16203,-9.54939,40.8039
3.317,24078.2,13796.7,-6762.49,-23.3056,-43.6291,11.9273,4551.72,3144.66,10139.5,53.8359,-157.548,32.1948,-20103.3,12259.5,855.218,26.9684,19.497,-67.0486,-443.221,-13505.6,1908.36,22.4387,-11.174,154.119,6070.85,-9845.92,-901.85,13.6771,-32.7031,56.5284,7761.34,10232.5,5545.71,7.63511,106.7,64.7842,10714.8,-354.112,-1865.84,2.89595,-10.0982,39.9519
3.318,23841.0,13345.5,-6416.01,-19.2483,-49.1278,7.62213,4551.63,3131.01,10156.7,54.8824,-160.154,31.8245,-19875.0,12223.2,972.871,25.9138,20.6494,-72.5799,-469.877,-13576.5,1913.63,22.6385,-10.3361,154.999,6048.8,-9905.66,-912.693,13.8891,-32.4142,56.0005,7534.23,10184.7,5243.74,13.5759,104.744,67.6829,10697.2,-499.31,-1952.08,3.62987,-10.647,39.0999
3.319,23603.8,12894.3,-6069.54,-15.1909,-54.6266,3.31695,4551.54,3117.35,10174.0,55.9289,-162.76,31.4542,-19646.7,12186.9,1090.53,24.8591,21.8018,-78.1113,-496.532,-13647.5,1918.9,22.8383,-9.49824,155.879,6026.74,-9965.39,-923.536,14.101,-32.1253,55.4726,7307.12,10136.9,4941.77,19.5167,102.788,70.5816,10679.7,-644.507,-2038.32,4.36379,-11.1958,38.248
3.32,23366.7,12443.1,-5723.06,-11.1335,-60.1253,-0.988226,4551.46,3103.69,10191.2,56.9754,-165.366,31.0839,-19418.4,12150.6,1208.18,23.8044,22.9543,-83.6426,-523.188,-13718.4,1924.17,23.0381,-8.66036,156.759,6004.68,-10025.1,-934.379,14.313,-31.8364,54.9447,7080.02,10089.1,4639.8,25.4575,100.831,73.4803,10662.1,-789.705,-2124.56,5.09771,-11.7447,37.396
3.321,23536.8,11941.4,-5298.78,-6.95964,-63.7586,-4.63735,4556.29,3127.1,10182.8,58.2915,-168.056,30.9959,-19284.2,12007.8,1159.59,22.8363,24.3998,-89.0584,-527.179,-13772.8,1872.16,23.3293,-8.00959,157.574,5957.81,-10067.1,-936.012,14.7933,-31.4522,54.5189,6921.85,10065.7,4346.24,29.5621,98.4978,77.4548,10656.6,-941.011,-2193.45,6.20408,-12.9202,36.3371
3.322,23706.9,11439.7,-4874.49,-2.78573,-67.3918,-8.28647,4561.12,3150.51,10174.4,59.6076,-170.746,30.908,-19150.0,11865.1,1111.0,21.8682,25.8453,-94.4743,-531.17,-13827.2,1820.14,23.6205,-7.35882,158.389,5910.94,-10109.1,-937.646,15.2737,-31.0679,54.0932,6763.67,10042.3,4052.67,33.6666,96.1645,81.4294,10651.0,-1092.32,-2262.33,7.31045,-14.0957,35.2782
3.323,23877.0,10937.9,-4450.21,1.38818,-71.025,-11.9356,4565.95,3173.91,10166.1,60.9238,-173.435,30.8201,-19015.8,11722.3,1062.41,20.9001,27.2908,-99.8901,-535.16,-13881.7,1768.13,23.9117,-6.70805,159.204,5864.07,-10151.0,-939.279,15.754,-30.6837,53.6674,6605.5,10018.9,3759.11,37.7712,93.8311,85.4039,10645.4,-1243.62,-2331.22,8.41683,-15.2712,34.2193
3.324,24047.1,10436.2,-4025.92,5.56208,-74.6583,-15.5847,4570.78,3197.32,10157.7,62.2399,-176.125,30.7321,-18881.5,11579.6,1013.82,19.932,28.7364,-105.306,-539.151,-13936.1,1716.11,24.2029,-6.05728,160.019,5817.2,-10193.0,-940.913,16.2344,-30.2995,53.2416,6447.33,9995.51,3465.55,41.8757,91.4977,89.3785,10639.9,-1394.93,-2400.1,9.5232,-16.4467,33.1604
3.325,24315.4,9972.15,-3659.2,9.87434,-77.254,-18.9449,4579.93,3247.69,10141.4,63.6644,-178.827,30.7046,-18665.3,11507.3,933.139,19.2953,30.1785,-110.379,-589.011,-13973.7,1687.6,24.4332,-5.50379,160.887,5768.78,-10231.3,-938.525,16.8224,-29.9254,52.7608,6287.68,9980.93,3169.16,45.0987,89.5847,93.588,10652.2,-1525.73,-2470.52,10.7925,-17.5246,31.9382
3.326,24662.4,9538.28,-3338.53,14.2973,-79.0197,-22.074,4592.53,3319.65,10119.0,65.1757,-181.539,30.7253,-18383.4,11491.4,826.786,18.9237,31.6179,-115.178,-675.566,-13997.7,1677.88,24.6149,-5.0281,161.798,5719.1,-10266.6,-932.921,17.4966,-29.5595,52.2359,6126.85,9973.39,2870.52,47.6164,88.0079,97.9854,10678.9,-1640.13,-2542.16,12.1922,-18.5244,30.5854
3.327,25009.3,9104.42,-3017.85,18.7202,-80.7854,-25.203,4605.13,3391.6,10096.5,66.687,-184.25,30.746,-18101.6,11475.5,720.432,18.5521,33.0573,-119.978,-762.121,-14021.7,1668.16,24.7965,-4.55242,162.709,5669.43,-10302.0,-927.317,18.1708,-29.1935,51.711,5966.02,9965.86,2571.88,50.1341,86.4311,102.383,10705.6,-1754.53,-2613.79,13.5919,-19.5242,29.2325
3.328,25356.3,8670.55,-2697.18,23.1432,-82.5511,-28.3321,4617.73,3463.55,10074.0,68.1982,-186.962,30.7667,-17819.7,11459.7,614.079,18.1805,34.4967,-124.777,-848.675,-14045.8,1658.44,24.9782,-4.07674,163.62,5619.76,-10337.4,-921.713,18.845,-28.8276,51.1862,5805.19,9958.33,2273.24,52.6518,84.8542,106.78,10732.3,-1868.93,-2685.43,14.9917,-20.524,27.8797
3.329,25718.1,8269.5,-2504.78,27.3593,-83.8957,-31.8512,4631.06,3532.28,10055.6,69.7308,-189.666,30.8007,-17484.1,11453.8,490.992,17.8107,35.9676,-129.442,-929.481,-14076.9,1643.71,25.1383,-3.6349,164.544,5573.27,-10374.2,-913.121,19.5369,-28.4615,50.6526,5646.77,9953.31,1983.36,55.0233,83.3948,111.129,10758.4,-1982.3,-2748.06,16.4237,-21.4542,26.5325
3.33,26199.2,8130.98,-3338.57,29.9205,-81.8709,-38.4905,4650.19,3575.17,10069.8,71.4333,-192.309,30.941,-16718.5,11528.2,234.036,17.4547,37.6907,-133.04,-964.29,-14164.6,1588.92,25.1255,-3.46379,165.575,5552.23,-10422.3,-880.621,20.3702,-28.0939,50.0497,5507.69,9968.39,1763.57,56.2254,82.8747,115.093,10780.4,-2087.46,-2738.66,18.1144,-21.8273,25.2311
3.331,26680.3,7992.46,-4172.37,32.4818,-79.8462,-45.1299,4669.32,3618.06,10084.0,73.1358,-194.953,31.0812,-15952.9,11602.7,-22.92,17.0988,39.4137,-136.638,-999.1,-14252.3,1534.13,25.1127,-3.29268,166.606,5531.2,-10470.4,-848.12,21.2034,-27.7264,49.4468,5368.61,9983.46,1543.78,57.4275,82.3546,119.057,10802.3,-2192.62,-2729.25,19.8051,-22.2004,23.9297
3.332,27161.3,7853.95,-5006.16,35.0431,-77.8214,-51.7692,4688.46,3660.95,10098.3,74.8384,-197.596,31.2214,-15187.2,11677.2,-279.876,16.7429,41.1368,-140.236,-1033.91,-14340.1,1479.35,25.0999,-3.12157,167.638,5510.16,-10518.5,-815.62,22.0367,-27.3588,48.8439,5229.53,9998.54,1324.0,58.6297,81.8345,123.021,10824.3,-2297.77,-2719.85,21.4957,-22.5736,22.6283
3.333,27642.4,7715.43,-5839.95,37.6044,-75.7967,-58.4086,4707.59,3703.84,10112.5,76.5409,-200.24,31.3617,-14421.6,11751.6,-536.831,16.387,42.8598,-143.834,-1068.72,-14427.8,1424.56,25.0871,-2.95046,168.669,5489.13,-10566.6,-783.12,22.87,-26.9913,48.241,5090.44,10013.6,1104.21,59.8318,81.3144,126.985,10846.3,-2402.93,-2710.45,23.1864,-22.9467,21.3269
3.334,27890.2,7859.59,-6976.3,48.2796,-79.997,-70.8789,4703.13,3771.64,10119.4,78.3949,-202.932,31.698,-12551.0,11971.4,-1431.36,15.8426,49.911,-145.211,-1069.23,-14462.9,1374.8,25.102,-3.03853,169.568,5466.54,-10610.6,-759.589,23.8795,-26.6118,47.6303,4963.86,10051.1,961.468,58.211,81.7649,130.304,10904.1,-2518.36,-2334.93,26.1618,-23.9344,20.1427
3.335,28021.5,8145.09,-8263.92,63.0118,-87.3099,-86.2646,4686.86,3851.89,10122.6,80.3246,-205.647,32.1323,-10128.1,12263.9,-2644.67,15.2041,59.6263,-145.477,-1052.6,-14471.6,1327.56,25.1307,-3.2562,170.401,5443.18,-10652.6,-740.542,24.9772,-26.2265,47.0157,4843.52,10099.9,857.251,55.1787,82.7008,133.301,10979.9,-2638.93,-1776.37,29.7794,-25.2293,19.0171
3.336,28152.7,8430.59,-9551.54,77.7441,-94.6228,-101.65,4670.59,3932.14,10125.8,82.2543,-208.363,32.5666,-7705.1,12556.5,-3857.98,14.5655,69.3416,-145.743,-1035.97,-14480.3,1280.32,25.1594,-3.47386,171.234,5419.81,-10694.5,-721.495,26.0749,-25.8411,46.4011,4723.18,10148.7,753.034,52.1464,83.6366,136.298,11055.6,-2759.5,-1217.8,33.3971,-26.5242,17.8915
3.337,28283.9,8716.09,-10839.2,92.4763,-101.936,-117.036,4654.33,4012.39,10129.0,84.184,-211.078,33.001,-5282.13,12849.0,-5071.29,13.927,79.0569,-146.009,-1019.33,-14489.0,1233.07,25.1882,-3.69153,172.067,5396.45,-10736.5,-702.448,27.1726,-25.4558,45.7865,4602.84,10197.4,648.816,49.1141,84.5725,139.296,11131.4,-2880.07,-659.227,37.0148,-27.8192,16.7658
3.338,27556.6,8835.96,-11362.0,116.172,-118.013,-136.215,4631.53,4095.2,10138.3,86.1663,-213.88,33.5032,-2345.37,13121.2,-6621.98,13.4585,90.6492,-146.125,-992.795,-14507.5,1192.94,25.2237,-4.00963,172.871,5372.77,-10771.9,-714.208,28.2828,-25.1506,45.1742,4488.63,10262.0,480.261,44.3346,85.8725,141.888,11253.4,-2993.61,52.9328,41.1217,-29.4033,15.8606
3.339,23824.8,8376.13,-9208.09,171.24,-164.765,-168.672,4585.87,4186.94,10168.7,88.3326,-216.986,34.2429,2389.63,13322.5,-9353.46,13.5853,108.811,-145.718,-931.599,-14560.4,1177.69,25.2834,-4.67928,173.571,5348.0,-10784.1,-833.793,29.4365,-25.1259,44.5699,4395.88,10381.9,86.5237,33.4399,88.4468,143.062,11537.6,-3082.57,1302.66,46.9413,-31.9997,15.727
3.34,20092.9,7916.3,-7054.19,226.308,-211.517,-201.128,4540.2,4278.68,10199.2,90.4989,-220.092,34.9826,7124.62,13523.9,-12084.9,13.7121,126.973,-145.31,-870.402,-14613.3,1162.43,25.343,-5.34892,174.272,5323.23,-10796.3,-953.378,30.5902,-25.1012,43.9657,4303.12,10501.8,-307.214,22.5453,91.0212,144.236,11821.7,-3171.52,2552.39,52.7609,-34.5961,15.5933
3.341,16361.1,7456.48,-4900.28,281.376,-258.269,-233.585,4494.54,4370.41,10229.7,92.6653,-223.198,35.7223,11859.6,13725.2,-14816.4,13.8389,145.135,-144.902,-809.206,-14666.1,1147.18,25.4026,-6.01856,174.972,5298.46,-10808.5,-1072.96,31.7439,-25.0765,43.3614,4210.37,10621.7,-700.951,11.6506,93.5955,145.411,12105.9,-3260.47,3802.12,58.5805,-37.1925,15.4597
3.342,12629.2,6996.65,-2746.38,336.444,-305.021,-266.042,4448.88,4462.15,10260.2,94.8316,-226.303,36.4621,16594.6,13926.5,-17547.9,13.9656,163.297,-144.495,-748.01,-14719.0,1131.93,25.4622,-6.68821,175.672,5273.69,-10820.7,-1192.55,32.8976,-25.0518,42.7572,4117.61,10741.7,-1094.69,0.755954,96.1699,146.585,12390.0,-3349.42,5051.85,64.4001,-39.7889,15.326
3.343,6072.36,4210.73,-40.0781,382.627,-348.028,-322.76,4403.0,4543.56,10400.9,97.0632,-230.009,37.2596,22912.2,14766.6,-15660.0,9.02761,166.442,-145.683,-687.1,-14810.7,1224.6,25.7161,-7.70365,176.523,5289.0,-10802.1,-1429.77,33.4574,-25.5777,42.3364,4097.98,10894.5,-1505.64,-10.7458,98.0318,145.456,12936.6,-2979.14,5275.47,60.1384,-36.2525,18.1099
3.344,-1291.6,760.212,2824.05,426.272,-389.965,-386.411,4357.05,4622.01,10573.2,99.3135,-233.885,38.0737,29681.8,15789.1,-12452.4,2.64248,165.296,-147.327,-626.273,-14913.5,1348.1,26.0255,-8.8179,177.418,5315.76,-10774.8,-1700.6,33.8475,-26.261,41.968,4099.24,11056.7,-1921.51,-22.4209,99.6901,143.67,13558.1,-2477.64,5205.91,52.9962,-30.964,21.7275
3.345,-8655.56,-2690.31,5688.17,469.916,-431.902,-450.061,4311.11,4700.47,10745.6,101.564,-237.762,38.8878,36451.5,16811.7,-9244.7,-3.74265,164.151,-148.972,-565.446,-15016.3,1471.61,26.3349,-9.93214,178.312,5342.52,-10747.5,-1971.43,34.2375,-26.9443,41.5997,4100.5,11218.9,-2337.37,-34.0961,101.349,141.884,14179.6,-1976.15,5136.36,45.854,-25.6754,25.345
3.346,-16019.5,-6140.83,8552.3,513.56,-473.839,-513.712,4265.16,4778.93,10917.9,103.814,-241.639,39.7019,43221.2,17834.3,-6037.03,-10.1278,163.005,-150.616,-504.619,-15119.1,1595.12,26.6443,-11.0464,179.206,5369.28,-10720.1,-2242.27,34.6276,-27.6276,41.2313,4101.76,11381.2,-2753.24,-45.7712,103.007,140.098,14801.1,-1474.65,5066.8,38.7118,-20.3869,28.9625
3.347,-21310.1,-8869.25,11595.0,535.255,-492.931,-569.939,4223.14,4832.25,11115.0,105.772,-245.809,40.4846,46179.8,19488.5,-3247.96,-10.3921,151.484,-157.02,-427.496,-15250.6,1722.16,27.0165,-11.8319,180.101,5430.77,-10702.6,-2486.22,34.5886,-28.5446,40.98,4277.65,11493.0,-2769.19,-53.3436,102.418,135.359,15464.2,-921.139,4817.67,24.8615,-12.942,33.3505
3.348,-22453.8,-10153.5,14995.0,513.051,-466.334,-611.317,4188.95,4835.32,11362.0,107.146,-250.567,41.2047,41516.3,22406.2,-1296.08,1.58506,119.212,-172.944,-317.785,-15439.4,1856.28,27.5144,-11.9598,180.997,5561.74,-10704.8,-2676.42,33.6914,-29.9291,40.9629,4802.78,11504.0,-1985.31,-52.7104,97.3329,124.714,16210.6,-263.594,4209.38,-2.40526,-1.1844,39.2793
3.349,-23597.6,-11437.7,18395.0,490.847,-439.737,-652.696,4154.77,4838.39,11609.0,108.519,-255.324,41.9247,36852.8,25323.8,655.798,13.5622,86.9406,-188.867,-208.073,-15628.2,1990.4,28.0124,-12.0878,181.893,5692.71,-10707.0,-2866.61,32.7942,-31.3136,40.9458,5327.92,11515.0,-1201.44,-52.0772,92.2482,114.07,16956.9,393.952,3601.09,-29.672,10.5732,45.2081
3.35,-24741.4,-12722.0,21795.0,468.642,-413.14,-694.075,4120.58,4841.46,11855.9,109.893,-260.082,42.6448,32189.2,28241.4,2607.67,25.5394,54.6687,-204.791,-98.3615,-15817.1,2124.52,28.5103,-12.2157,182.79,5823.67,-10709.2,-3056.81,31.8971,-32.698,40.9287,5853.05,11526.1,-417.556,-51.444,87.1635,103.425,17703.2,1051.5,2992.8,-56.9387,22.3308,51.1369
3.351,-25885.1,-14006.2,25194.9,446.438,-386.543,-735.453,4086.4,4844.53,12102.9,111.266,-264.84,43.3648,27525.7,31159.0,4559.55,37.5166,22.3969,-220.714,11.3502,-16005.9,2258.63,29.0082,-12.3437,183.686,5954.64,-10711.4,-3247.0,30.9999,-34.0825,40.9116,6378.18,11537.1,366.323,-50.8108,82.0788,92.7808,18449.6,1709.04,2384.52,-84.2054,34.0883,57.0657
3.352,-18658.2,-9127.98,28488.6,403.255,-333.616,-704.108,4018.36,4907.4,12121.2,111.439,-270.012,44.062,16847.6,34242.9,2592.74,31.7078,46.5266,-238.879,108.163,-16446.1,2130.48,29.8277,-11.175,183.82,6136.82,-10895.3,-3305.97,29.228,-35.4078,41.0205,7850.06,12258.2,155.459,-44.1088,79.7728,75.8598,18607.4,1773.41,2751.4,-104.943,40.7902,60.6849
3.353,-10385.0,-3479.46,31768.9,357.449,-277.398,-663.672,3946.09,4977.74,12111.0,111.462,-275.235,44.7562,5417.74,37347.4,136.095,23.6757,77.7066,-257.324,203.364,-16917.8,1969.55,30.6873,-9.84427,183.859,6325.41,-11101.9,-3348.52,27.3468,-36.7256,41.1451,9440.28,13068.2,-179.748,-36.6481,77.8141,58.1542,18691.7,1763.63,3240.18,-124.864,46.8601,64.0153
3.354,-2111.75,2169.06,35049.3,311.643,-221.18,-623.236,3873.82,5048.08,12100.8,111.485,-280.459,45.4505,-6012.14,40452.1,-2320.55,15.6436,108.887,-275.769,298.564,-17389.5,1808.62,31.5469,-8.51354,183.898,6513.99,-11308.5,-3391.08,25.4656,-38.0435,41.2697,11030.5,13878.1,-514.955,-29.1875,75.8554,40.4486,18775.9,1753.86,3728.97,-144.785,52.9299,67.3457
3.355,6161.49,7817.58,38329.7,265.837,-164.962,-582.8,3801.55,5118.42,12090.6,111.508,-285.683,46.1447,-17442.0,43556.6,-4777.2,7.6115,140.067,-294.213,393.765,-17861.2,1647.69,32.4065,-7.18281,183.937,6702.58,-11515.1,-3433.64,23.5844,-39.3614,41.3943,12620.7,14688.0,-850.162,-21.7269,73.8967,22.743,18860.2,1744.08,4217.75,-164.706,58.9998,70.6761
3.356,15905.4,11997.7,39930.7,231.469,-123.406,-531.865,3763.34,5219.19,11952.4,112.033,-290.514,47.0047,-26235.0,44090.7,-4640.27,4.60458,165.211,-309.079,421.517,-18294.8,1501.29,33.4113,-6.5145,184.177,6893.86,-11800.7,-3446.73,21.7843,-40.1701,41.2765,14698.0,16253.5,-1935.55,-22.5172,82.5953,8.85892,18763.7,1747.94,4801.13,-174.547,61.9662,73.5277
3.357,27487.8,14342.4,39432.6,211.398,-100.178,-467.806,3767.71,5358.02,11654.3,113.185,-294.856,48.0718,-31731.8,41411.7,-1261.39,7.87914,182.812,-319.469,364.959,-18680.8,1373.06,34.5975,-6.67421,184.669,7088.52,-12185.2,-3422.98,20.0857,-40.3425,40.8558,17384.2,18763.6,-3958.68,-33.6212,104.616,-0.248186,18441.2,1768.84,5502.74,-171.789,61.0532,75.7809
3.358,39070.1,16687.0,38934.5,191.327,-76.9497,-403.747,3772.07,5496.85,11356.2,114.337,-299.197,49.1389,-37228.6,38732.6,2117.5,11.1537,200.413,-329.86,308.401,-19066.7,1244.84,35.7837,-6.83393,185.16,7283.18,-12569.7,-3399.24,18.3871,-40.5149,40.435,20070.5,21273.7,-5981.8,-44.7252,126.636,-9.35529,18118.8,1789.74,6204.35,-169.03,60.1402,78.0341
3.359,50652.4,19031.7,38436.4,171.255,-53.7216,-339.688,3776.43,5635.68,11058.0,115.489,-303.539,50.206,-42725.4,36053.5,5496.38,14.4283,218.014,-340.251,251.843,-19452.7,1116.61,36.9699,-6.99364,185.652,7477.83,-12954.2,-3375.49,16.6886,-40.6873,40.0142,22756.7,23783.7,-8004.93,-55.8292,148.656,-18.4624,17796.3,1810.64,6905.96,-166.272,59.2271,80.2874
3.36,62234.7,21376.3,37938.2,151.184,-30.4935,-275.629,3780.79,5774.51,10759.9,116.641,-307.88,51.2731,-48222.3,33374.4,8875.27,17.7028,235.615,-350.641,195.285,-19838.6,988.383,38.1562,-7.15336,186.143,7672.49,-13338.7,-3351.75,14.99,-40.8597,39.5935,25442.9,26293.8,-10028.0,-66.9332,170.676,-27.5695,17473.8,1831.54,7607.57,-163.514,58.3141,82.5406
3.361,66340.0,17491.5,33584.3,171.824,-43.3871,-250.728,3934.77,5760.5,10541.2,118.988,-311.275,53.1984,-41561.7,32928.6,10883.4,17.575,208.643,-333.341,111.21,-19985.4,781.041,38.2826,-7.15544,187.11,7863.16,-13739.5,-3202.25,15.2867,-39.809,38.3041,28134.4,28550.4,-10847.1,-90.5999,212.554,-21.8153,17618.3,2380.79,7584.64,-156.379,54.7681,86.0119
3.362,70445.2,13606.7,29230.4,192.464,-56.2807,-225.827,4088.76,5746.49,10322.5,121.335,-314.671,55.1237,-34901.2,32482.7,12891.5,17.4472,181.672,-316.041,27.1364,-20132.2,573.699,38.4091,-7.15752,188.077,8053.83,-14140.3,-3052.74,15.5834,-38.7584,37.0146,30826.0,30807.1,-11666.2,-114.267,254.431,-16.0612,17762.7,2930.05,7561.7,-149.245,51.222,89.4832
3.363,74550.5,9721.83,24876.5,213.105,-69.1743,-200.926,4242.75,5732.48,10103.7,123.682,-318.066,57.049,-28240.7,32036.8,14899.6,17.3194,154.701,-298.741,-56.9377,-20278.9,366.356,38.5355,-7.1596,189.045,8244.5,-14541.1,-2903.24,15.8801,-37.7077,35.7252,33517.5,33063.7,-12485.2,-137.933,296.308,-10.307,17907.2,3479.3,7538.77,-142.11,47.676,92.9545
3.364,78655.7,5837.0,20522.6,233.745,-82.0679,-176.025,4396.73,5718.47,9885.01,126.029,-321.461,58.9744,-21580.2,31591.0,16907.7,17.1916,127.73,-281.441,-141.012,-20425.7,159.014,38.662,-7.16168,190.012,8435.18,-14942.0,-2753.74,16.1768,-36.6571,34.4358,36209.1,35320.3,-13304.3,-161.6,338.186,-4.55283,18051.6,4028.55,7515.83,-134.976,44.1299,96.4258
3.365,76508.9,2046.27,17196.5,251.498,-99.6881,-167.158,4485.69,5755.01,9771.58,128.893,-325.19,61.0019,-16706.4,30444.7,17115.4,15.9956,108.341,-266.853,-132.371,-20429.9,4.33271,38.4592,-7.08436,190.741,8597.05,-15204.2,-2553.71,17.9956,-35.2711,33.0266,37781.2,35571.5,-11489.5,-172.069,365.263,0.693621,18284.3,4562.54,7198.46,-131.162,40.3447,99.0538
3.366,69360.4,-1669.18,14692.7,266.941,-121.09,-171.119,4522.64,5831.99,9742.4,132.171,-329.186,63.1111,-13261.9,28738.2,15882.8,13.9451,95.0172,-254.436,-49.5592,-20320.1,-108.219,37.993,-6.94353,191.279,8735.88,-15355.6,-2313.26,21.032,-33.6169,31.5217,38457.7,34218.3,-7567.72,-171.981,380.5,5.5339,18587.7,5084.3,6645.54,-130.005,36.3683,101.007
3.367,62212.0,-5384.62,12188.9,282.384,-142.491,-175.08,4559.59,5908.98,9713.21,135.449,-333.182,65.2203,-9817.47,27031.7,14650.2,11.8946,81.6938,-242.018,33.2528,-20210.2,-220.772,37.5267,-6.8027,191.818,8874.72,-15507.0,-2072.82,24.0685,-31.9626,30.0167,39134.1,32865.1,-3645.89,-171.893,395.737,10.3742,18891.0,5606.07,6092.62,-128.848,32.3919,102.96
3.368,55063.5,-9100.06,9685.05,297.827,-163.893,-179.041,4596.53,5985.96,9684.03,138.726,-337.179,67.3295,-6373.01,25325.2,13417.6,9.84417,68.3703,-229.601,116.065,-20100.4,-333.324,37.0605,-6.66187,192.357,9013.55,-15658.4,-1832.37,27.1049,-30.3084,28.5118,39810.6,31511.9,275.94,-171.804,410.974,15.2144,19194.3,6127.84,5539.7,-127.69,28.4154,104.914
3.369,47750.6,-12126.0,7474.74,308.401,-184.436,-180.556,4615.01,6077.3,9663.1,142.08,-341.239,69.4332,-3249.7,23561.8,12257.5,8.41507,56.3663,-218.688,219.926,-19977.9,-431.885,36.4927,-6.74138,192.887,9147.75,-15770.9,-1590.79,30.2652,-28.673,27.018,40212.6,29888.4,4462.63,-169.325,420.082,18.633,19429.9,6587.58,5009.87,-126.477,24.4276,106.464
3.37,39122.1,-9635.73,7612.49,280.019,-198.115,-162.508,4485.73,6283.46,9708.27,146.042,-345.81,71.4922,-2695.56,21343.1,11678.0,11.957,54.9185,-219.809,492.181,-19754.1,-418.525,35.1127,-8.5837,193.35,9244.81,-15572.0,-1340.19,34.4164,-27.1887,25.6131,38418.1,26101.9,10768.2,-147.717,380.165,10.6777,19122.8,6551.1,4664.74,-124.814,20.3483,104.789
3.371,30493.7,-7145.48,7750.25,251.637,-211.793,-144.46,4356.46,6489.62,9753.45,150.005,-350.381,73.5513,-2141.41,19124.3,11098.4,15.4989,53.4706,-220.931,764.436,-19530.4,-405.164,33.7327,-10.426,193.812,9341.87,-15373.2,-1089.59,38.5676,-25.7044,24.2082,36623.7,22315.4,17073.8,-126.109,340.249,2.72243,18815.7,6514.61,4319.61,-123.15,16.269,103.115
3.372,21865.2,-4655.23,7888.0,223.255,-225.472,-126.412,4227.19,6695.77,9798.62,153.967,-354.953,75.6103,-1587.27,16905.6,10518.8,19.0408,52.0227,-222.052,1036.69,-19306.6,-391.803,32.3527,-12.2683,194.275,9438.94,-15174.3,-838.988,42.7187,-24.2201,22.8032,34829.2,18528.9,23379.4,-104.502,300.332,-5.23286,18508.6,6478.13,3974.48,-121.487,12.1896,101.44
3.373,13236.7,-2164.98,8025.76,194.872,-239.15,-108.363,4097.92,6901.93,9843.79,157.929,-359.524,77.6694,-1033.13,14686.9,9939.24,22.5827,50.5749,-223.174,1308.95,-19082.8,-378.443,30.9727,-14.1106,194.737,9536.0,-14975.5,-588.386,46.8699,-22.7358,21.3983,33034.8,14742.4,29685.1,-82.8938,260.415,-13.1881,18201.5,6441.65,3629.34,-119.824,8.11033,99.7653
3.374,6833.39,225.893,8164.05,164.964,-249.093,-79.7236,3996.91,7086.73,9851.91,161.723,-364.315,80.2836,-1422.54,12688.1,9369.89,28.6623,49.6238,-227.812,1526.15,-18922.0,-481.224,29.3434,-16.9077,195.164,9647.42,-14718.1,-371.969,50.0953,-21.7512,19.9978,30048.1,11666.8,31516.4,-66.1111,222.987,-22.0125,17583.1,6007.13,3428.8,-116.801,4.23545,95.8566
3.375,1542.61,2567.07,8302.61,134.291,-257.168,-45.7884,3910.05,7260.86,9841.51,165.433,-369.215,83.1755,-2283.73,10799.2,8805.66,36.0108,48.9212,-234.209,1715.82,-18792.6,-642.077,27.5895,-20.1822,195.574,9766.02,-14431.3,-172.645,52.8579,-21.0163,18.5994,26465.3,8946.76,31110.7,-51.7409,186.805,-31.2713,16809.2,5373.59,3300.54,-113.098,0.462786,90.8309
3.376,-3748.17,4908.25,8441.17,103.619,-265.242,-11.8531,3823.18,7434.98,9831.12,169.143,-374.115,86.0673,-3144.92,8910.33,8241.42,43.3594,48.2185,-240.606,1905.5,-18663.1,-802.929,25.8357,-23.4567,195.983,9884.62,-14144.6,26.6791,55.6205,-20.2815,17.201,22882.5,6226.7,30704.9,-37.3707,150.622,-40.5301,16035.3,4740.05,3172.29,-109.396,-3.30988,85.8052
3.377,-9038.95,7249.42,8579.73,72.9468,-273.317,22.0821,3736.32,7609.1,9820.72,172.852,-379.015,88.9592,-4006.11,7021.47,7677.19,50.7079,47.5159,-247.003,2095.17,-18533.7,-963.782,24.0818,-26.7312,196.392,10003.2,-13857.8,226.003,58.383,-19.5467,15.8026,19299.7,3506.64,30299.1,-23.0005,114.439,-49.7889,15261.4,4106.52,3044.04,-105.693,-7.08254,80.7794
3.378,-13683.6,8714.71,8609.23,47.7399,-280.921,49.8975,3667.1,7766.38,9804.56,176.629,-383.986,91.9504,-4832.89,5430.53,7187.55,55.6409,44.8661,-253.192,2250.31,-18446.4,-1135.98,22.4203,-30.2002,196.713,10136.6,-13588.6,417.586,60.8112,-19.0376,14.2914,15742.1,1292.39,28630.8,-9.98792,90.1836,-56.7905,14497.0,3437.87,2839.18,-101.331,-10.4442,75.1471
3.379,-16066.8,7114.36,8257.01,41.6615,-286.88,56.2936,3659.65,7864.71,9768.25,180.641,-389.206,95.2896,-5539.22,4882.35,6958.99,52.1193,35.4015,-258.652,2284.55,-18506.3,-1347.91,21.0821,-34.3502,196.728,10321.9,-13380.6,582.072,62.0689,-19.3187,12.3857,12272.6,848.475,22543.6,-1.72701,107.676,-55.892,13765.9,2646.34,2366.2,-94.662,-12.3672,67.3918
3.38,-18450.0,5514.0,7904.79,35.5831,-292.84,62.6896,3652.19,7963.04,9731.95,184.652,-394.425,98.6288,-6245.56,4334.17,6730.43,48.5978,25.9369,-264.112,2318.8,-18566.2,-1559.84,19.7439,-38.5002,196.742,10507.2,-13172.6,746.559,63.3267,-19.5997,10.4799,8803.15,404.559,16456.3,6.53391,125.168,-54.9934,13034.8,1854.82,1893.22,-87.9931,-14.2902,59.6365
3.381,-20833.2,3913.65,7552.56,29.5047,-298.799,69.0856,3644.74,8061.37,9695.64,188.663,-399.645,101.968,-6951.89,3785.99,6501.88,45.0763,16.4723,-269.573,2353.05,-18626.0,-1771.77,18.4058,-42.6501,196.756,10692.5,-12964.6,911.045,64.5845,-19.8808,8.57418,5333.67,-39.357,10369.1,14.7948,142.66,-54.0948,12303.7,1063.3,1420.25,-81.3241,-16.2133,51.8811
3.382,-23216.4,2313.3,7200.34,23.4263,-304.758,75.4816,3637.29,8159.69,9659.33,192.674,-404.864,105.307,-7658.23,3237.81,6273.32,41.5548,7.00768,-275.033,2387.3,-18685.9,-1983.7,17.0676,-46.8001,196.77,10877.9,-12756.6,1075.53,65.8422,-20.1619,6.66843,1864.19,-483.273,4281.84,23.0557,160.152,-53.1963,11572.6,271.771,947.271,-74.6552,-18.1363,44.1258
3.383,-23639.0,-731.673,6639.49,24.7297,-304.803,58.5731,3609.5,8341.16,9669.57,196.735,-410.619,109.269,-6923.2,3410.43,5331.36,37.8945,4.46874,-274.954,2464.43,-18803.8,-2144.31,16.1693,-51.3803,196.928,11108.7,-12637.3,1214.45,67.2642,-20.9816,4.32814,-1237.85,-558.618,-45.1301,37.7389,194.405,-46.4705,10994.0,-275.258,295.671,-64.6232,-18.5862,35.6842
3.384,-23501.3,-4189.4,6019.04,28.142,-303.158,35.0061,3575.9,8546.38,9693.1,200.809,-416.527,113.409,-5776.35,3789.0,4185.56,34.1946,3.90856,-273.292,2553.81,-18938.4,-2290.27,15.3967,-56.0834,197.127,11352.5,-12543.3,1346.05,68.7332,-21.9554,1.8637,-4234.92,-528.658,-3869.16,54.2569,233.446,-38.0798,10458.9,-752.43,-406.965,-53.6303,-18.6152,27.0465
3.385,-23363.6,-7647.13,5398.58,31.5544,-301.514,11.439,3542.3,8751.6,9716.63,204.883,-422.436,117.55,-4629.51,4167.56,3039.76,30.4946,3.34839,-271.631,2643.2,-19072.9,-2436.22,14.6242,-60.7864,197.327,11596.4,-12449.4,1477.66,70.2021,-22.9291,-0.600747,-7231.99,-498.697,-7693.19,70.775,272.487,-29.6891,9923.82,-1229.6,-1109.6,-42.6375,-18.6442,18.4087
3.386,-23225.9,-11104.9,4778.13,34.9668,-299.869,-12.128,3508.69,8956.82,9740.17,208.957,-428.344,121.69,-3482.66,4546.12,1893.97,26.7947,2.78821,-269.969,2732.58,-19207.4,-2582.18,13.8516,-65.4895,197.526,11840.2,-12355.4,1609.27,71.671,-23.9028,-3.06519,-10229.1,-468.737,-11517.2,87.2931,311.528,-21.2984,9388.74,-1706.78,-1812.24,-31.6446,-18.6732,9.77102
3.387,-22431.1,-13829.8,4342.49,38.3286,-296.719,-33.3451,3471.54,9169.47,9759.67,213.072,-434.388,126.121,-2078.26,4751.26,723.921,24.6287,4.37593,-266.133,2863.92,-19336.7,-2709.0,13.1318,-70.5696,197.962,12081.8,-12277.0,1702.65,73.2187,-24.6344,-5.603,-13135.2,-583.663,-14181.4,105.787,343.4,-14.1725,8944.64,-2085.79,-2353.33,-19.8705,-18.7287,1.38808
3.388,-20322.1,-15089.2,4276.48,41.589,-290.555,-49.8623,3427.29,9396.97,9771.11,217.268,-440.703,131.134,-158.754,4609.54,-494.616,25.5305,10.2594,-257.946,3079.17,-19455.7,-2797.57,12.5175,-76.4036,198.872,12318.7,-12229.7,1719.6,74.924,-24.8818,-8.28754,-15859.4,-988.362,-14525.8,128.232,360.933,-9.57634,8682.53,-2268.5,-2571.33,-6.53388,-18.8372,-6.4853
3.389,-18213.0,-16348.6,4210.48,44.8495,-284.391,-66.3796,3383.04,9624.48,9782.55,221.464,-447.019,136.147,1760.75,4467.83,-1713.15,26.4323,16.1429,-249.759,3294.41,-19574.7,-2886.14,11.9032,-82.2375,199.782,12555.6,-12182.4,1736.54,76.6292,-25.1292,-10.9721,-18583.7,-1393.06,-14870.3,150.678,378.467,-4.98015,8420.41,-2451.2,-2789.34,6.80272,-18.9457,-14.3587
3.39,-16104.0,-17607.9,4144.47,48.11,-278.228,-82.8969,3338.79,9851.98,9793.99,225.66,-453.334,141.16,3680.25,4326.11,-2931.69,27.3341,22.0264,-241.573,3509.66,-19693.7,-2974.71,11.2889,-88.0715,200.691,12792.6,-12135.1,1753.48,78.3345,-25.3766,-13.6566,-21308.0,-1797.76,-15214.7,173.123,396.0,-0.383963,8158.29,-2633.91,-3007.34,20.1393,-19.0542,-22.2321
3.391,-13995.0,-18867.3,4078.46,51.3704,-272.064,-99.4141,3294.53,10079.5,9805.43,229.856,-459.65,146.173,5599.76,4184.39,-4150.23,28.2359,27.91,-233.386,3724.91,-19812.7,-3063.28,10.6746,-93.9055,201.601,13029.5,-12087.9,1770.43,80.0398,-25.624,-16.3412,-24032.2,-2202.46,-15559.2,195.569,413.533,4.21222,7896.18,-2816.62,-3225.34,33.4759,-19.1628,-30.1055
3.392,-10796.4,-17650.8,4484.67,58.3414,-265.338,-97.2036,3216.3,10237.4,9863.34,233.471,-466.438,151.279,6567.15,3536.43,-4896.02,30.086,34.2654,-223.506,4062.7,-19997.9,-3089.96,9.73289,-100.149,202.324,13196.8,-11994.5,1475.4,79.675,-22.9466,-19.1361,-26524.9,-2264.55,-14750.4,211.743,404.782,6.15567,7883.6,-2876.11,-2956.74,43.8193,-19.9291,-36.2407
3.393,-7461.53,-16124.7,4949.9,65.7763,-258.541,-92.6522,3133.81,10386.7,9927.07,237.013,-473.286,156.396,7415.53,2825.18,-5582.72,32.0547,40.6799,-213.414,4415.81,-20191.4,-3108.9,8.75023,-106.445,203.022,13355.3,-11895.5,1141.37,79.0515,-19.9037,-21.9448,-28988.7,-2283.81,-13797.5,227.133,392.746,7.76753,7902.21,-2920.19,-2627.3,53.7885,-20.7777,-42.1587
3.394,-4126.7,-14598.7,5415.13,73.2111,-251.744,-88.1007,3051.33,10535.9,9990.8,240.556,-480.133,161.513,8263.91,2113.93,-6269.42,34.0234,47.0944,-203.322,4768.92,-20384.8,-3127.83,7.76758,-112.74,203.721,13513.9,-11796.4,807.341,78.428,-16.8607,-24.7535,-31452.4,-2303.07,-12844.6,242.523,380.709,9.37938,7920.83,-2964.28,-2297.87,63.7577,-21.6264,-48.0767
3.395,-791.874,-13072.6,5880.36,80.6459,-244.948,-83.5492,2968.85,10685.1,10054.5,244.099,-486.981,166.63,9112.29,1402.67,-6956.12,35.9921,53.5088,-193.23,5122.04,-20578.3,-3146.77,6.78492,-119.035,204.42,13672.5,-11697.3,473.313,77.8045,-13.8177,-27.5622,-33916.2,-2322.33,-11891.7,257.913,368.673,10.9912,7939.44,-3008.37,-1968.43,73.7269,-22.475,-53.9947
3.396,2727.45,-11631.7,6567.56,97.0585,-234.405,-81.5759,2847.05,10822.0,10086.4,247.185,-494.262,171.787,9137.99,796.057,-7543.34,38.6874,59.7653,-185.546,5469.3,-20786.3,-3232.09,5.90255,-125.316,204.924,13775.0,-11612.6,127.206,75.5631,-8.80919,-30.4662,-35845.5,-2033.08,-10736.6,266.137,350.434,10.8287,8033.02,-3047.15,-1580.32,81.5273,-23.1038,-58.6094
3.397,6477.41,-10297.3,7532.22,124.693,-219.181,-82.8254,2676.11,10943.5,10078.3,249.7,-502.083,176.993,8135.34,320.229,-8006.19,42.291,65.8242,-180.872,5809.25,-21012.5,-3400.4,5.14553,-131.579,205.183,13807.3,-11545.7,-233.998,71.2994,-1.34372,-33.4894,-37106.9,-1358.21,-9328.64,265.402,324.441,8.44803,8220.29,-3079.32,-1118.85,86.6168,-23.4578,-61.5951
3.398,10227.4,-8962.84,8496.88,152.328,-203.957,-84.0748,2505.16,11064.9,10070.3,252.216,-509.905,182.199,7132.69,-155.599,-8469.04,45.8946,71.8831,-176.198,6149.2,-21238.7,-3568.71,4.38851,-137.842,205.443,13839.7,-11478.8,-595.203,67.0357,6.12174,-36.5126,-38368.3,-683.332,-7920.72,264.668,298.448,6.06739,8407.56,-3111.48,-657.387,91.7062,-23.8119,-64.5807
3.399,13977.3,-7628.41,9461.54,179.963,-188.733,-85.3243,2334.22,11186.4,10062.3,254.732,-517.727,187.406,6130.05,-631.427,-8931.89,49.4982,77.9421,-171.524,6489.15,-21464.9,-3737.01,3.63149,-144.104,205.703,13872.1,-11412.0,-956.407,62.7719,13.5872,-39.5358,-39629.7,-8.45533,-6512.8,263.933,272.455,3.68676,8594.84,-3143.65,-195.923,96.7956,-24.166,-67.5664
3.4,17727.3,-6293.98,10426.2,207.598,-173.509,-86.5737,2163.27,11307.8,10054.2,257.247,-525.549,192.612,5127.4,-1107.25,-9394.74,53.1018,84.001,-166.85,6829.09,-21691.1,-3905.32,2.87448,-150.367,205.963,13904.5,-11345.1,-1317.61,58.5082,21.0527,-42.559,-40891.1,666.421,-5104.88,263.199,246.462,1.30613,8782.11,-3175.81,265.541,101.885,-24.52,-70.552
3.401,21018.7,-4322.04,11535.0,224.746,-144.856,-101.336,1987.39,11398.7,9846.29,259.349,-534.423,197.929,2593.85,-874.97,-9921.54,57.8927,90.6962,-166.758,7023.12,-21855.3,-4063.06,2.43848,-157.378,205.895,13935.1,-11458.4,-1251.43,54.5974,30.1385,-46.0256,-40036.6,2573.04,-3734.54,250.52,215.547,1.32525,8939.78,-3247.13,551.129,103.682,-24.3482,-70.25
3.402,24310.1,-2350.11,12643.8,241.895,-116.203,-116.098,1811.51,11489.6,9638.34,261.45,-543.297,203.245,60.3106,-642.687,-10448.3,62.6837,97.3915,-166.667,7217.15,-22019.5,-4220.81,2.00248,-164.389,205.827,13965.7,-11571.6,-1185.24,50.6866,39.2243,-49.4922,-39182.1,4479.66,-2364.21,237.841,184.632,1.34436,9097.45,-3318.45,836.717,105.478,-24.1764,-69.948
3.403,27601.5,-378.172,13752.6,259.044,-87.5496,-130.86,1635.63,11580.5,9430.39,263.552,-552.172,208.561,-2473.23,-410.403,-10975.1,67.4746,104.087,-166.576,7411.18,-22183.8,-4378.55,1.56648,-171.4,205.759,13996.3,-11684.9,-1119.06,46.7758,48.31,-52.9587,-38327.6,6386.27,-993.872,225.162,153.717,1.36348,9255.12,-3389.78,1122.31,107.275,-24.0046,-69.646
3.404,30892.9,1593.76,14861.4,276.192,-58.8963,-145.622,1459.75,11671.4,9222.44,265.653,-561.046,213.878,-5006.78,-178.119,-11501.9,72.2656,110.782,-166.485,7605.21,-22348.0,-4536.29,1.13048,-178.41,205.691,14026.9,-11798.2,-1052.87,42.865,57.3958,-56.4253,-37473.1,8292.89,376.463,212.483,122.802,1.38259,9412.79,-3461.1,1407.89,109.071,-23.8328,-69.344
3.405,33385.2,4683.44,16122.8,273.97,-33.7322,-154.169,1285.84,11593.8,8887.72,267.671,-570.725,219.169,-7353.49,383.301,-11441.1,74.9555,113.762,-167.547,7729.64,-22433.6,-4637.2,0.950127,-185.47,205.469,14236.8,-11823.6,-852.135,41.3129,66.1657,-58.8499,-35761.2,9625.12,778.005,193.218,96.4944,1.13957,9557.22,-3601.06,1602.14,109.998,-23.7493,-67.5125
3.406,35238.3,8667.3,17506.2,256.25,-11.3594,-157.743,1113.52,11381.3,8451.59,269.621,-581.049,224.44,-9550.75,1208.03,-10910.3,75.9646,113.77,-169.533,7798.39,-22456.2,-4692.63,0.974295,-192.569,205.123,14590.1,-11778.7,-543.751,41.6478,74.6829,-60.4408,-33363.2,10497.8,404.512,168.685,73.8727,0.686837,9691.07,-3795.94,1723.32,110.228,-23.7365,-64.4574
3.407,37091.4,12651.2,18889.5,238.531,11.0135,-161.318,941.205,11168.9,8015.47,271.571,-591.374,229.711,-11748.0,2032.76,-10379.4,76.9737,113.778,-171.518,7867.13,-22478.9,-4748.06,0.998463,-199.667,204.777,14943.4,-11733.8,-235.368,41.9828,83.2,-62.0318,-30965.2,11370.6,31.0196,144.151,51.2509,0.234102,9824.92,-3990.81,1844.49,110.459,-23.7236,-61.4023
3.408,38944.5,16635.0,20272.9,220.811,33.3863,-164.892,768.886,10956.5,7579.34,273.521,-601.698,234.981,-13945.3,2857.48,-9848.49,77.9829,113.786,-173.504,7935.88,-22501.5,-4803.5,1.02263,-206.766,204.431,15296.7,-11688.9,73.016,42.3177,91.7172,-63.6227,-28567.3,12243.3,-342.473,119.618,28.6292,-0.218632,9958.77,-4185.69,1965.67,110.689,-23.7107,-58.3472
3.409,40599.5,20203.4,21516.9,203.788,54.0518,-167.054,620.241,10709.1,7113.9,275.471,-611.805,240.384,-15992.7,3733.12,-9222.63,78.2572,112.475,-175.719,7992.21,-22503.4,-4844.93,1.07317,-213.97,204.096,15666.3,-11639.8,543.254,43.5682,98.773,-64.9433,-26230.4,12955.3,-783.589,95.1711,6.96769,-0.901377,10084.0,-4385.92,2082.55,110.769,-23.7481,-55.1495
3.41,40669.1,20448.3,21645.5,192.336,61.0581,-157.919,660.986,10182.4,6413.99,277.42,-620.178,246.838,-16842.0,5015.99,-7837.0,72.653,100.604,-179.769,7949.26,-22339.0,-4774.34,1.33467,-222.015,203.852,16165.4,-11556.9,2308.33,52.1434,94.138,-64.1003,-24381.7,12381.7,-1765.7,71.4216,-7.01258,-3.42421,10139.9,-4628.95,2165.11,109.641,-24.1878,-50.8115
3.411,40738.6,20693.1,21774.1,180.884,68.0645,-148.784,701.73,9655.75,5714.07,279.368,-628.551,253.293,-17691.2,6298.86,-6451.38,67.0487,88.7341,-183.82,7906.31,-22174.7,-4703.75,1.59617,-230.059,203.608,16664.6,-11474.0,4073.41,60.7186,89.503,-63.2574,-22533.0,11808.1,-2747.81,47.672,-20.9929,-5.94703,10195.9,-4871.98,2247.66,108.512,-24.6274,-46.4734
3.412,40808.2,20937.9,21902.7,169.432,75.0709,-139.649,742.475,9129.07,5014.16,281.317,-636.924,259.747,-18540.4,7581.73,-5065.75,61.4445,76.8638,-187.871,7863.36,-22010.4,-4633.16,1.85767,-238.104,203.364,17163.8,-11391.2,5838.48,69.2938,84.8679,-62.4144,-20684.3,11234.5,-3729.91,23.9225,-34.9731,-8.46986,10251.8,-5115.01,2330.22,107.384,-25.0671,-42.1353
3.413,40877.8,21182.7,22031.3,157.98,82.0773,-130.513,783.219,8602.39,4314.25,283.265,-645.297,266.202,-19389.6,8864.6,-3680.12,55.8403,64.9935,-191.922,7820.4,-21846.0,-4562.56,2.11918,-246.149,203.12,17662.9,-11308.3,7603.56,77.8691,80.2329,-61.5715,-18835.6,10661.0,-4712.02,0.172988,-48.9534,-10.9927,10307.7,-5358.04,2412.78,106.255,-25.5068,-37.7972
3.414,39443.6,17826.9,20698.8,151.424,83.5906,-120.485,1047.07,8203.78,3721.12,286.109,-652.341,272.925,-19331.4,10205.8,-2579.33,47.9837,50.427,-195.637,7796.45,-21584.9,-4270.14,3.10431,-254.94,203.047,17419.8,-11353.6,9018.44,89.4856,66.4219,-60.1597,-17519.2,10053.1,-5354.96,-14.9486,-60.0983,-12.1796,10352.1,-5552.69,2543.95,103.445,-25.7365,-33.5642
3.415,37257.6,12670.8,18635.8,147.316,82.3574,-110.009,1422.48,7869.2,3181.37,289.401,-658.721,279.783,-18819.4,11576.3,-1620.95,39.0009,34.5125,-199.183,7782.01,-21275.5,-3866.79,4.45126,-264.104,203.06,16805.6,-11462.9,10258.2,102.623,48.0229,-58.4635,-16468.9,9428.12,-5828.31,-25.7562,-69.8256,-12.6986,10390.7,-5723.15,2699.42,99.7929,-25.8613,-29.3838
3.416,35071.6,7514.6,16572.9,143.207,81.1242,-99.5334,1797.88,7534.61,2641.63,292.693,-665.101,286.641,-18307.4,12946.7,-662.577,30.018,18.5979,-202.73,7767.56,-20966.1,-3463.44,5.79821,-273.268,203.073,16191.4,-11572.2,11498.0,115.76,29.6239,-56.7673,-15418.7,8803.14,-6301.65,-36.5638,-79.5529,-13.2175,10429.3,-5893.62,2854.9,96.1411,-25.986,-25.2033
3.417,32885.6,2358.45,14509.9,139.099,79.891,-89.0577,2173.29,7200.03,2101.88,295.985,-671.482,293.499,-17795.5,14317.1,295.799,21.0352,2.68339,-206.277,7753.11,-20656.6,-3060.1,7.14516,-282.432,203.086,15577.2,-11681.5,12737.8,128.897,11.2249,-55.0711,-14368.4,8178.15,-6775.0,-47.3715,-89.2801,-13.7365,10467.9,-6064.08,3010.37,92.4893,-26.1108,-21.0228
3.418,30333.8,-2821.81,12477.5,135.153,77.7353,-78.3488,2562.99,6927.61,1665.77,300.021,-677.655,300.002,-17032.0,15613.0,973.836,13.0842,-11.455,-209.008,7791.28,-20325.4,-2650.39,8.66337,-290.875,203.026,14698.9,-11727.4,13437.6,140.656,-5.83342,-53.1018,-13387.6,7590.26,-7106.94,-55.9905,-98.6838,-14.1006,10519.9,-6202.89,3171.47,88.1992,-25.978,-16.901
3.419,26501.7,-8086.43,10551.9,131.774,72.3505,-66.8233,3002.73,6872.76,1592.37,306.66,-683.105,305.267,-15388.5,16648.2,670.69,8.74445,-19.3766,-208.882,8013.63,-19918.1,-2218.44,10.781,-296.791,202.709,12896.2,-11551.1,12247.4,147.591,-18.1995,-50.1765,-12650.0,7132.18,-6943.96,-56.9493,-106.955,-13.9227,10619.2,-6230.94,3352.27,81.6748,-24.9438,-12.9845
3.42,22669.6,-13351.0,8626.23,128.395,66.9657,-55.2978,3442.46,6817.91,1518.97,313.299,-688.555,310.532,-13745.0,17683.4,367.543,4.40472,-27.2983,-208.756,8235.97,-19510.8,-1786.49,12.8986,-302.707,202.392,11093.5,-11374.8,11057.2,154.526,-30.5655,-47.2511,-11912.4,6674.1,-6780.98,-57.9082,-115.226,-13.7448,10718.4,-6258.98,3533.08,75.1503,-23.9097,-9.06794
3.421,18837.4,-18615.7,6700.61,125.016,61.5809,-43.7722,3882.19,6763.06,1445.56,319.938,-694.005,315.796,-12101.5,18718.6,64.396,0.064979,-35.2199,-208.63,8458.32,-19103.5,-1354.53,15.0162,-308.624,202.075,9290.88,-11198.5,9866.94,161.461,-42.9316,-44.3258,-11174.8,6216.02,-6618.0,-58.8671,-123.498,-13.5669,10817.6,-6287.03,3713.88,68.6259,-22.8756,-5.15141
3.422,15005.3,-23880.3,4774.99,121.638,56.1961,-32.2467,4321.92,6708.21,1372.16,326.576,-699.455,321.061,-10457.9,19753.8,-238.751,-4.27476,-43.1416,-208.504,8680.66,-18696.2,-922.579,17.1338,-314.54,201.758,7488.23,-11022.3,8676.73,168.396,-55.2977,-41.4004,-10437.2,5757.94,-6455.02,-59.8259,-131.769,-13.389,10916.9,-6315.07,3894.68,62.1015,-21.8415,-1.23489
3.423,11470.4,-26038.0,3914.82,120.517,52.7487,-24.3161,4973.08,6342.58,1757.69,337.358,-702.16,322.576,-8736.95,20182.2,-795.118,-4.30929,-44.438,-206.391,8871.15,-18043.1,-777.404,19.5914,-317.144,203.049,5879.87,-10655.2,7223.45,167.172,-59.5672,-38.5754,-9704.62,5464.61,-6291.42,-58.524,-137.474,-14.332,11034.3,-6201.41,4029.4,54.3269,-20.1485,2.77962
3.424,8020.46,-27308.0,3359.06,120.041,49.8548,-17.4126,5684.64,5888.15,2274.36,349.324,-704.08,323.019,-6993.84,20437.2,-1423.83,-3.11377,-43.8415,-203.712,9052.54,-17319.6,-714.166,22.1463,-318.801,204.8,4327.04,-10233.6,5695.0,163.616,-61.5235,-35.7789,-8973.51,5218.34,-6127.66,-56.5761,-142.447,-15.5952,11156.9,-6047.26,4150.96,46.1952,-18.2673,6.82211
3.425,4570.47,-28578.0,2803.31,119.565,46.9609,-10.5092,6396.21,5433.73,2791.02,361.29,-706.0,323.463,-5250.74,20692.2,-2052.55,-1.91825,-43.245,-201.032,9233.92,-16596.2,-650.928,24.7011,-320.458,206.551,2774.21,-9812.04,4166.55,160.061,-63.4798,-32.9825,-8242.39,4972.07,-5963.89,-54.6282,-147.419,-16.8584,11279.6,-5893.11,4272.52,38.0634,-16.3861,10.8646
3.426,1120.49,-29848.1,2247.56,119.089,44.067,-3.60569,7107.77,4979.3,3307.68,373.256,-707.92,323.906,-3507.63,20947.1,-2681.26,-0.722725,-42.6485,-198.352,9415.31,-15872.7,-587.69,27.2559,-322.115,208.301,1221.37,-9390.47,2638.11,156.505,-65.4361,-30.1861,-7511.27,4725.81,-5800.12,-52.6803,-152.391,-18.1217,11402.2,-5738.95,4394.07,29.9317,-14.5049,14.9071
3.427,-1470.93,-29450.3,2128.97,117.759,42.8639,-0.447469,7899.79,4611.94,3919.99,388.834,-707.873,323.082,-2041.84,21015.2,-3225.97,0.948122,-40.8031,-195.636,9582.39,-15190.7,-588.193,30.5161,-323.104,210.283,-89.872,-8999.31,1406.95,150.69,-66.3769,-27.9889,-6780.33,4566.79,-5734.84,-50.5234,-155.409,-20.3395,11514.9,-5527.8,4524.27,22.2783,-12.5419,19.1574
3.428,-2345.22,-25716.9,2884.7,114.721,45.0426,-4.77975,8852.72,4418.73,4723.6,411.636,-703.89,319.72,-1130.67,20709.3,-3602.68,3.56962,-36.4599,-192.849,9720.85,-14591.3,-716.178,35.187,-322.758,212.729,-917.94,-8669.0,770.371,140.355,-65.2868,-26.9902,-6049.76,4582.28,-5866.54,-47.9485,-154.517,-24.4667,11607.8,-5202.65,4671.74,15.5818,-10.4154,23.8234
3.429,-3219.51,-21983.4,3640.43,111.682,47.2213,-9.11204,9805.66,4225.52,5527.21,434.437,-699.908,316.359,-219.51,20403.4,-3979.38,6.19112,-32.1167,-190.061,9859.3,-13992.0,-844.162,39.858,-322.411,215.174,-1746.01,-8338.68,133.793,130.019,-64.1968,-25.9915,-5319.18,4597.77,-5998.24,-45.3735,-153.625,-28.5938,11700.6,-4877.5,4819.21,8.88537,-8.28886,28.4893
3.43,-4093.8,-18250.0,4396.17,108.644,49.4,-13.4443,10758.6,4032.3,6330.82,457.239,-695.925,312.998,691.655,20097.6,-4356.08,8.81261,-27.7734,-187.273,9997.76,-13392.6,-972.147,44.5289,-322.064,217.62,-2574.08,-8008.36,-502.784,119.684,-63.1067,-24.9928,-4588.6,4613.26,-6129.94,-42.7986,-152.733,-32.721,11793.5,-4552.35,4966.68,2.18889,-6.16232,33.1552
3.431,-4968.09,-14516.6,5151.9,105.605,51.5786,-17.7766,11711.5,3839.09,7134.43,480.04,-691.943,309.637,1602.82,19791.7,-4732.79,11.4341,-23.4302,-184.486,10136.2,-12793.3,-1100.13,49.1998,-321.717,220.065,-3402.15,-7678.05,-1139.36,109.349,-62.0167,-23.9941,-3858.03,4628.75,-6261.64,-40.2236,-151.841,-36.8481,11886.3,-4227.2,5114.15,-4.50759,-4.03577,37.8212
3.432,-3765.4,-9510.3,6658.65,101.111,53.564,-23.7515,12681.5,5151.23,6444.55,503.256,-680.158,309.322,1549.4,19307.3,-4576.77,12.6031,-19.1369,-182.18,10291.1,-12928.4,-1400.54,56.7962,-316.354,218.983,-3865.07,-7531.62,-1377.54,98.1198,-61.6761,-24.3549,-3227.87,4955.8,-6528.34,-36.5194,-145.945,-43.0721,11915.5,-3983.27,5284.29,-6.85976,-2.28565,43.012
3.433,-2303.08,-4344.87,8259.28,96.4355,55.5252,-29.9318,13653.6,6651.54,5567.98,526.523,-667.398,309.388,1375.42,18800.6,-4354.16,13.5906,-14.8499,-179.935,10448.1,-13155.4,-1722.5,64.7583,-310.364,217.46,-4282.35,-7408.18,-1565.92,86.7792,-61.4292,-24.8857,-2610.27,5321.79,-6811.92,-32.674,-139.425,-49.5581,11936.8,-3749.51,5457.27,-8.66888,-0.582576,48.2684
3.434,-840.76,820.565,9859.91,91.7599,57.4864,-36.1121,14625.7,8151.85,4691.42,549.79,-654.639,309.453,1201.43,18293.9,-4131.56,14.578,-10.5629,-177.69,10605.0,-13382.3,-2044.47,72.7204,-304.374,215.937,-4699.63,-7284.74,-1754.31,75.4385,-61.1823,-25.4164,-1992.66,5687.77,-7095.49,-28.8286,-132.904,-56.0442,11958.0,-3515.74,5630.24,-10.478,1.1205,53.5248
3.435,621.557,5986.0,11460.5,87.0842,59.4476,-42.2924,15597.7,9652.17,3814.85,573.056,-641.879,309.518,1027.45,17787.2,-3908.95,15.5655,-6.27593,-175.445,10762.0,-13609.3,-2366.43,80.6826,-298.383,214.414,-5116.91,-7161.29,-1942.69,64.0978,-60.9354,-25.9471,-1375.06,6053.76,-7379.07,-24.9831,-126.383,-62.5302,11979.3,-3281.97,5803.22,-12.2871,2.82357,58.7813
