Time,RFoot_accel.x,RFoot_accel.y,RFoot_accel.z,RFoot_gyro.x,RFoot_gyro.y,RFoot_gyro.z,LFoot_accel.x,LFoot_accel.y,LFoot_accel.z,LFoot_gyro.x,LFoot_gyro.y,LFoot_gyro.z,RShank_accel.x,RShank_accel.y,RShank_accel.z,RShank_gyro.x,RShank_gyro.y,RShank_gyro.z,LShank_accel.x,LShank_accel.y,LShank_accel.z,LShank_gyro.x,LShank_gyro.y,LShank_gyro.z,RThigh_accel.x,RThigh_accel.y,RThigh_accel.z,RThigh_gyro.x,RThigh_gyro.y,RThigh_gyro.z,LThigh_accel.x,LThigh_accel.y,LThigh_accel.z,LThigh_gyro.x,LThigh_gyro.y,LThigh_gyro.z,Pelvis_accel.x,Pelvis_accel.y,Pelvis_accel.z,Pelvis_gyro.x,Pelvis_gyro.y,Pelvis_gyro.z
3.45,7181.24,-5609.36,10196.8,-154.615,307.148,223.672,5114.27,3438.26,8203.73,37.9356,-15.5164,19.5631,1780.29,11670.2,-1473.04,40.8473,18.283,349.459,-2155.1,-10247.9,-2040.23,-9.17981,-39.3777,27.7326,3950.49,-8929.39,-1036.27,-57.3987,-107.134,88.7951,-6567.04,7002.6,-2911.55,26.9147,98.1579,145.181,7142.84,-1483.0,1847.24,23.3919,16.732,31.9215
3.451,7305.34,-5659.14,10360.3,-154.393,305.963,223.138,5210.87,3405.72,8229.58,38.0257,-15.7932,19.659,1746.24,11823.0,-1482.16,41.3322,18.5452,350.973,-2222.64,-10277.8,-1941.45,-8.76468,-39.9513,28.2774,3920.41,-8953.23,-1046.95,-57.9219,-108.479,89.0087,-6621.8,6919.6,-2877.15,26.1653,96.4891,144.208,7179.78,-1471.52,1835.34,24.1076,16.1514,31.4119
3.452,7429.44,-5708.91,10523.8,-154.171,304.777,222.603,5307.47,3373.18,8255.43,38.1157,-16.0699,19.755,1712.2,11975.9,-1491.28,41.8171,18.8073,352.487,-2290.18,-10307.7,-1842.68,-8.34955,-40.5249,28.8223,3890.33,-8977.06,-1057.63,-58.4451,-109.823,89.2223,-6676.55,6836.6,-2842.75,25.4159,94.8203,143.235,7216.71,-1460.05,1823.43,24.8233,15.5707,30.9023
3.453,7553.55,-5758.68,10687.2,-153.949,303.592,222.069,5404.07,3340.64,8281.28,38.2057,-16.3466,19.851,1678.15,12128.8,-1500.39,42.302,19.0695,354.002,-2357.72,-10337.6,-1743.9,-7.93441,-41.0984,29.3671,3860.25,-9000.9,-1068.32,-58.9684,-111.168,89.4359,-6731.31,6753.6,-2808.35,24.6665,93.1514,142.262,7253.64,-1448.58,1811.53,25.539,14.9901,30.3926
3.454,7717.0,-5803.47,10780.5,-153.26,302.778,221.383,5351.41,3337.19,8316.62,38.2606,-16.7435,20.1264,1635.62,12266.8,-1467.49,42.8069,19.308,355.387,-2357.89,-10362.9,-1664.63,-7.786,-41.809,29.6356,3794.52,-9002.64,-1081.41,-59.2363,-112.788,89.5432,-6797.09,6666.9,-2765.49,23.8024,91.1408,141.194,7274.37,-1434.01,1782.79,26.2483,14.5584,29.8336
3.455,7900.13,-5845.77,10838.7,-152.336,302.149,220.622,5224.12,3348.29,8356.7,38.2979,-17.2004,20.4917,1588.86,12397.5,-1413.58,43.3217,19.5346,356.706,-2324.39,-10385.9,-1595.1,-7.77094,-42.5881,29.7659,3710.95,-8993.33,-1095.7,-59.3766,-114.546,89.5974,-6868.39,6578.36,-2718.39,22.881,88.9592,140.077,7286.99,-1417.91,1745.64,26.9544,14.2013,29.2498
3.456,8083.26,-5888.06,10897.0,-151.412,301.52,219.862,5096.83,3359.39,8396.78,38.3353,-17.6574,20.8569,1542.1,12528.1,-1359.67,43.8365,19.7612,358.026,-2290.89,-10408.9,-1525.58,-7.75588,-43.3671,29.8963,3627.39,-8984.02,-1109.99,-59.517,-116.304,89.6516,-6939.69,6489.81,-2671.3,21.9595,86.7777,138.96,7299.6,-1401.8,1708.49,27.6605,13.8441,28.666
3.457,8266.39,-5930.36,10955.2,-150.488,300.891,219.101,4969.54,3370.49,8436.86,38.3726,-18.1143,21.2221,1495.34,12658.8,-1305.76,44.3514,19.9878,359.346,-2257.38,-10432.0,-1456.05,-7.74083,-44.1462,30.0266,3543.82,-8974.71,-1124.29,-59.6573,-118.062,89.7058,-7010.98,6401.26,-2624.2,21.0381,84.5961,137.843,7312.22,-1385.69,1671.34,28.3666,13.487,28.0822
3.458,8455.99,-5973.91,11029.9,-149.549,300.336,218.312,4838.33,3370.12,8471.45,38.3849,-18.5805,21.5498,1450.55,12782.9,-1261.66,44.8839,20.3154,360.643,-2211.03,-10446.4,-1400.13,-7.75325,-44.838,30.0837,3458.81,-8981.94,-1151.16,-59.7049,-119.924,89.7687,-7089.73,6306.04,-2578.31,20.0894,82.4013,136.688,7321.07,-1372.76,1639.29,29.0135,13.1259,27.5218
3.459,8668.23,-6021.85,11162.4,-148.559,300.04,217.424,4693.4,3329.61,8486.84,38.3097,-19.0791,21.7459,1412.7,12884.2,-1251.92,45.4785,20.996,361.858,-2119.67,-10430.5,-1391.81,-7.86186,-45.2244,29.8843,3368.76,-9047.01,-1222.04,-59.4282,-122.15,89.8619,-7194.57,6187.46,-2536.67,19.0455,80.1601,135.401,7316.7,-1370.93,1625.1,29.4531,12.751,27.0434
3.46,8880.47,-6069.78,11294.9,-147.569,299.744,216.537,4548.48,3289.11,8502.22,38.2345,-19.5778,21.942,1374.84,12985.6,-1242.17,46.0731,21.6766,363.074,-2028.32,-10414.7,-1383.49,-7.97047,-45.6108,29.6848,3278.7,-9112.08,-1292.93,-59.1516,-124.376,89.9551,-7299.4,6068.89,-2495.02,18.0017,77.9189,134.113,7312.34,-1369.11,1610.9,29.8928,12.376,26.565
3.461,9092.71,-6117.72,11427.5,-146.579,299.449,215.65,4403.55,3248.6,8517.61,38.1592,-20.0764,22.138,1336.98,13086.9,-1232.42,46.6677,22.3572,364.289,-1936.97,-10398.9,-1375.17,-8.07908,-45.9972,29.4854,3188.64,-9177.15,-1363.81,-58.8749,-126.601,90.0483,-7404.23,5950.31,-2453.37,16.9578,75.6776,132.826,7307.98,-1367.28,1596.71,30.3325,12.0011,26.0866
3.462,9304.95,-6165.65,11560.0,-145.588,299.153,214.762,4258.62,3208.09,8533.0,38.084,-20.575,22.3341,1299.13,13188.2,-1222.67,47.2623,23.0378,365.505,-1845.62,-10383.0,-1366.85,-8.18769,-46.3836,29.286,3098.58,-9242.22,-1434.7,-58.5983,-128.827,90.1415,-7509.07,5831.74,-2411.72,15.9139,73.4364,131.538,7303.61,-1365.45,1582.51,30.7722,11.6262,25.6082
3.463,9513.57,-6256.03,11702.0,-144.659,298.77,214.326,4213.7,3164.97,8521.81,37.9895,-21.0225,22.3351,1234.1,13287.3,-1138.81,47.749,23.7189,366.456,-1789.5,-10375.6,-1341.52,-8.09203,-46.5253,29.1149,2976.59,-9269.46,-1530.25,-57.8334,-130.784,90.3796,-7594.01,5721.16,-2367.5,15.0782,71.3114,130.167,7302.98,-1366.36,1584.93,31.1349,11.0693,25.2321
3.464,9721.16,-6358.53,11846.8,-143.747,298.362,214.019,4197.34,3121.1,8503.03,37.8896,-21.4554,22.2804,1161.32,13385.8,-1033.78,48.2048,24.4002,367.332,-1743.44,-10370.6,-1311.33,-7.93801,-46.5971,28.9519,2845.46,-9285.89,-1632.86,-56.9291,-132.663,90.659,-7673.27,5612.87,-2322.54,14.302,69.2196,128.772,7303.41,-1368.06,1592.1,31.4757,10.4603,24.8852
3.465,9928.74,-6461.03,11991.5,-142.835,297.954,213.712,4180.99,3077.24,8484.26,37.7897,-21.8884,22.2256,1088.54,13484.3,-928.743,48.6606,25.0814,368.208,-1697.37,-10365.6,-1281.15,-7.78399,-46.6689,28.7888,2714.34,-9302.31,-1735.47,-56.0248,-134.542,90.9385,-7752.54,5504.58,-2277.58,13.5258,67.1278,127.376,7303.84,-1369.76,1599.26,31.8165,9.85138,24.5383
3.466,10136.3,-6563.54,12136.3,-141.923,297.546,213.404,4164.63,3033.37,8465.48,37.6898,-22.3213,22.1709,1015.76,13582.8,-823.708,49.1164,25.7627,369.084,-1651.31,-10360.6,-1250.96,-7.62997,-46.7407,28.6258,2583.22,-9318.74,-1838.08,-55.1205,-136.422,91.2179,-7831.8,5396.29,-2232.62,12.7495,65.036,125.981,7304.27,-1371.45,1606.43,32.1573,9.24244,24.1914
3.467,10337.4,-6667.26,12246.8,-141.039,297.301,213.412,4174.07,2993.28,8449.04,37.5371,-22.7701,22.0711,957.252,13695.5,-746.912,49.5466,26.5863,369.96,-1619.81,-10352.9,-1219.35,-7.43015,-46.7627,28.5166,2449.53,-9341.96,-1944.36,-54.0721,-138.07,91.5976,-7898.67,5289.88,-2176.36,12.0079,62.949,124.622,7301.3,-1368.22,1607.59,32.498,8.61676,23.8006
3.468,10525.4,-6773.42,12288.9,-140.212,297.384,214.048,4235.11,2960.74,8437.26,37.2789,-23.2507,21.8814,927.289,13836.6,-726.596,49.9256,27.6947,370.837,-1617.41,-10339.9,-1184.89,-7.13873,-46.6853,28.5152,2310.69,-9378.74,-2057.98,-52.7357,-139.255,92.1779,-7940.76,5187.21,-2097.51,11.3356,60.8715,123.338,7291.53,-1355.13,1596.73,32.8385,7.9576,23.3221
3.469,10713.3,-6879.57,12330.9,-139.385,297.467,214.685,4296.16,2928.2,8425.49,37.0207,-23.7314,21.6916,897.325,13977.7,-706.28,50.3045,28.8032,371.714,-1615.02,-10326.8,-1150.42,-6.84732,-46.6078,28.5139,2171.85,-9415.53,-2171.61,-51.3993,-140.44,92.7581,-7982.84,5084.54,-2018.67,10.6632,58.794,122.054,7281.76,-1342.03,1585.87,33.179,7.29843,22.8437
3.47,10901.3,-6985.73,12373.0,-138.558,297.55,215.322,4357.2,2895.66,8413.72,36.7625,-24.212,21.5018,867.362,14118.8,-685.964,50.6835,29.9116,372.591,-1612.63,-10313.8,-1115.96,-6.5559,-46.5303,28.5125,2033.01,-9452.31,-2285.23,-50.0629,-141.625,93.3384,-8024.93,4981.87,-1939.82,9.99081,56.7166,120.769,7271.99,-1328.94,1575.01,33.5196,6.63927,22.3652
3.471,11089.3,-7091.89,12415.0,-137.731,297.633,215.959,4418.24,2863.12,8401.95,36.5043,-24.6926,21.312,837.399,14259.9,-665.649,51.0624,31.02,373.467,-1610.24,-10300.7,-1081.5,-6.26448,-46.4529,28.5111,1894.17,-9489.1,-2398.86,-48.7264,-142.809,93.9186,-8067.02,4879.2,-1860.97,9.31844,54.6391,119.485,7262.23,-1315.85,1564.15,33.8601,5.98011,21.8868
3.472,11238.4,-7151.84,12476.3,-136.483,297.357,217.296,4459.02,2861.29,8398.74,36.1288,-25.1623,21.1992,857.668,14409.4,-636.519,51.522,32.3501,374.112,-1616.12,-10265.9,-1046.86,-6.07358,-46.2034,28.5157,1753.24,-9545.51,-2479.58,-47.1001,-143.668,94.4535,-8108.15,4774.39,-1773.15,8.65117,51.752,118.142,7250.71,-1316.88,1551.04,33.9785,5.31435,21.3915
3.473,11382.7,-7206.02,12539.9,-135.181,297.035,218.721,4497.28,2863.29,8396.61,35.7386,-25.6307,21.0959,884.217,14559.9,-606.288,51.9917,33.7079,374.727,-1623.04,-10228.4,-1012.2,-5.89523,-45.9323,28.521,1612.05,-9604.39,-2556.19,-45.4375,-144.486,94.9826,-8149.16,4669.31,-1684.21,7.98454,48.7636,116.791,7238.99,-1319.68,1537.64,34.069,4.64776,20.894
3.474,11527.0,-7260.2,12603.6,-133.88,296.714,220.145,4535.54,2865.3,8394.47,35.3484,-26.0992,20.9927,910.765,14710.4,-576.057,52.4613,35.0657,375.343,-1629.96,-10190.9,-977.547,-5.71689,-45.6613,28.5262,1470.85,-9663.26,-2632.8,-43.7749,-145.303,95.5118,-8190.18,4564.24,-1595.27,7.31792,45.7753,115.441,7227.26,-1322.47,1524.25,34.1596,3.98117,20.3966
3.475,11671.2,-7314.38,12667.3,-132.578,296.392,221.57,4573.79,2867.31,8392.33,34.9582,-26.5676,20.8895,937.314,14860.8,-545.826,52.931,36.4235,375.958,-1636.87,-10153.4,-942.889,-5.53855,-45.3903,28.5315,1329.66,-9722.13,-2709.42,-42.1124,-146.121,96.0409,-8231.19,4459.16,-1506.33,6.65129,42.7869,114.09,7215.53,-1325.27,1510.86,34.2502,3.31458,19.8992
3.476,11801.2,-7353.27,12701.0,-131.236,295.794,223.193,4592.47,2864.93,8377.43,34.6251,-26.9851,20.7515,948.469,15012.2,-545.59,53.4639,37.9547,376.6,-1659.85,-10117.9,-891.303,-5.38971,-45.0937,28.5215,1199.63,-9752.91,-2776.9,-40.3784,-146.789,96.5628,-8267.33,4359.34,-1403.76,5.9494,39.2274,112.744,7204.97,-1313.11,1494.39,34.3274,2.67439,19.4822
3.477,11913.1,-7373.05,12697.3,-129.843,294.85,225.064,4586.66,2857.07,8346.58,34.3634,-27.339,20.57,940.381,15164.7,-582.848,54.0757,39.7027,377.274,-1702.89,-10084.9,-818.556,-5.27774,-44.7651,28.4924,1083.58,-9748.56,-2832.97,-38.5553,-147.271,97.0757,-8297.38,4266.07,-1284.16,5.20344,34.954,111.403,7195.86,-1282.26,1474.09,34.3879,2.06719,19.1659
3.478,12025.1,-7392.82,12693.6,-128.45,293.907,226.936,4580.86,2849.21,8315.72,34.1017,-27.6928,20.3885,932.294,15317.3,-620.106,54.6876,41.4507,377.948,-1745.93,-10051.9,-745.809,-5.16578,-44.4366,28.4633,967.52,-9744.22,-2889.03,-36.7322,-147.753,97.5886,-8327.44,4172.81,-1164.55,4.45748,30.6805,110.062,7186.76,-1251.42,1453.79,34.4484,1.45998,18.8495
3.479,12137.1,-7412.6,12689.9,-127.058,292.963,228.807,4575.05,2841.34,8284.86,33.84,-28.0467,20.207,924.207,15469.8,-657.363,55.2995,43.1988,378.622,-1788.97,-10019.0,-673.062,-5.05381,-44.108,28.4342,851.464,-9739.87,-2945.1,-34.909,-148.234,98.1015,-8357.49,4079.55,-1044.95,3.71153,26.407,108.721,7177.65,-1220.57,1433.49,34.5089,0.852778,18.5331
3.48,12249.1,-7432.38,12686.1,-125.665,292.019,230.678,4569.25,2833.48,8254.01,33.5784,-28.4006,20.0255,916.119,15622.3,-694.621,55.9114,44.9468,379.296,-1832.01,-9986.0,-600.315,-4.94185,-43.7794,28.4051,735.407,-9735.52,-3001.17,-33.0859,-148.716,98.6144,-8387.54,3986.28,-925.345,2.96557,22.1336,107.38,7168.54,-1189.73,1413.19,34.5694,0.245574,18.2168
3.481,12245.0,-7410.35,12643.7,-124.594,290.225,232.756,4583.88,2754.28,8248.64,33.3155,-28.6968,19.5732,848.799,15802.6,-611.029,55.9872,46.6616,379.865,-1851.91,-9974.91,-542.835,-4.75836,-43.3079,28.4685,671.113,-9772.49,-3103.26,-30.8388,-149.201,99.2079,-8403.97,3907.55,-861.147,2.01786,18.0222,106.105,7154.08,-1152.13,1404.48,34.7379,-0.421636,17.8418
3.482,12240.8,-7388.31,12601.3,-123.523,288.43,234.834,4598.51,2675.08,8243.27,33.0527,-28.9929,19.1209,781.479,15982.8,-527.437,56.0631,48.3765,380.434,-1871.8,-9963.83,-485.356,-4.57486,-42.8365,28.532,606.819,-9809.45,-3205.36,-28.5917,-149.685,99.8014,-8420.39,3828.82,-796.949,1.07014,13.9108,104.829,7139.61,-1114.53,1395.77,34.9064,-1.08885,17.4669
3.483,12236.6,-7366.28,12558.9,-122.451,286.636,236.912,4613.15,2595.88,8237.89,32.7898,-29.2891,18.6685,714.159,16163.1,-443.844,56.1389,50.0913,381.003,-1891.7,-9952.75,-427.876,-4.39137,-42.365,28.5954,542.525,-9846.41,-3307.45,-26.3446,-150.169,100.395,-8436.82,3750.09,-732.752,0.122434,9.79934,103.553,7125.15,-1076.94,1387.07,35.075,-1.75606,17.0919
3.484,12232.5,-7344.25,12516.5,-121.38,284.842,238.99,4627.78,2516.68,8232.52,32.527,-29.5853,18.2162,646.839,16343.4,-360.252,56.2147,51.8061,381.572,-1911.59,-9941.67,-370.396,-4.20788,-41.8935,28.6589,478.232,-9883.37,-3409.54,-24.0975,-150.654,100.988,-8453.24,3671.35,-668.554,-0.825277,5.68792,102.277,7110.68,-1039.34,1378.36,35.2435,-2.42327,16.717
3.485,12198.2,-7293.48,12500.9,-120.081,282.564,240.94,4631.8,2460.25,8238.98,32.1968,-29.8737,17.7122,610.435,16525.4,-332.486,56.3903,53.5475,382.033,-1919.59,-9936.12,-334.374,-4.0111,-41.3945,28.7379,458.626,-9891.81,-3503.36,-21.8977,-150.995,101.538,-8451.14,3608.71,-613.596,-1.62601,2.61338,100.969,7098.86,-1011.11,1369.48,35.4629,-3.16339,16.2888
3.486,12139.8,-7219.72,12506.8,-118.6,279.9,242.789,4627.35,2422.05,8254.89,31.8127,-30.1559,17.1669,598.763,16708.8,-349.38,56.6458,55.3101,382.408,-1918.07,-9935.01,-315.518,-3.80369,-40.8734,28.8292,474.77,-9877.42,-3590.55,-19.7356,-151.22,102.051,-8434.23,3558.93,-566.031,-2.30915,0.368323,99.6355,7089.15,-990.385,1360.47,35.7231,-3.96184,15.8182
3.487,12081.4,-7145.96,12512.8,-117.118,277.235,244.637,4622.89,2383.84,8270.8,31.4286,-30.4381,16.6215,587.091,16892.2,-366.275,56.9012,57.0727,382.782,-1916.54,-9933.9,-296.661,-3.59628,-40.3524,28.9206,490.915,-9863.02,-3677.75,-17.5736,-151.446,102.565,-8417.31,3509.15,-518.466,-2.9923,-1.87673,98.3017,7079.43,-969.656,1351.46,35.9834,-4.7603,15.3475
3.488,12023.1,-7072.2,12518.7,-115.637,274.571,246.486,4618.43,2345.64,8286.72,31.0445,-30.7203,16.0762,575.42,17075.6,-383.17,57.1566,58.8352,383.157,-1915.02,-9932.79,-277.805,-3.38887,-39.8313,29.012,507.059,-9848.63,-3764.95,-15.4116,-151.671,103.079,-8400.39,3459.38,-470.9,-3.67545,-4.12178,96.968,7069.72,-948.927,1342.45,36.2436,-5.55875,14.8769
3.489,11964.8,-6990.88,12520.1,-114.23,271.857,248.32,4615.29,2314.08,8299.72,30.6725,-30.9893,15.546,552.839,17257.5,-396.979,57.357,60.5743,383.496,-1914.14,-9931.04,-259.244,-3.1867,-39.3049,29.0854,521.314,-9832.58,-3851.04,-13.2787,-151.823,103.56,-8379.73,3416.04,-424.443,-4.30096,-5.99421,95.6433,7059.99,-927.744,1331.86,36.4723,-6.33749,14.4221
3.49,11907.1,-6849.04,12485.2,-113.415,268.755,250.036,4622.7,2335.69,8289.44,30.3968,-31.1526,15.137,442.988,17426.7,-386.108,57.1175,62.1252,383.548,-1918.45,-9924.17,-243.049,-3.02644,-38.7355,29.0143,520.456,-9803.27,-3928.3,-11.3786,-151.383,103.785,-8329.04,3424.17,-386.847,-4.46538,-4.88563,94.3906,7050.08,-902.925,1308.58,36.4493,-6.95854,14.0944
3.491,11849.5,-6707.2,12450.2,-112.601,265.652,251.753,4630.1,2357.3,8279.17,30.1212,-31.316,14.728,333.137,17596.0,-375.238,56.8781,63.6762,383.6,-1922.75,-9917.3,-226.855,-2.86618,-38.166,28.9432,519.597,-9773.96,-4005.56,-9.47845,-150.943,104.009,-8278.35,3432.31,-349.25,-4.6298,-3.77704,93.138,7040.17,-878.106,1285.3,36.4263,-7.57958,13.7666
3.492,11791.8,-6565.37,12415.3,-111.786,262.549,253.469,4637.51,2378.91,8268.89,29.8456,-31.4794,14.319,223.286,17765.3,-364.367,56.6386,65.2271,383.652,-1927.06,-9910.43,-210.66,-2.70592,-37.5966,28.8721,518.739,-9744.65,-4082.81,-7.57833,-150.503,104.233,-8227.67,3440.45,-311.654,-4.79422,-2.66846,91.8853,7030.25,-853.287,1262.02,36.4033,-8.20063,13.4389
3.493,11734.2,-6423.53,12380.4,-110.972,259.446,255.186,4644.92,2400.52,8258.62,29.5699,-31.6427,13.91,113.435,17934.5,-353.496,56.3991,66.778,383.704,-1931.36,-9903.56,-194.466,-2.54565,-37.0271,28.801,517.881,-9715.35,-4160.07,-5.67821,-150.063,104.457,-8176.98,3448.59,-274.058,-4.95864,-1.55988,90.6326,7020.34,-828.468,1238.74,36.3803,-8.82167,13.1112
3.494,11741.3,-6228.4,12352.0,-110.895,255.949,257.018,4656.95,2424.76,8229.98,29.3016,-31.7677,13.4989,-37.421,18072.6,-335.959,56.1107,67.9652,383.49,-1923.0,-9876.71,-191.595,-2.4108,-36.3882,28.7168,553.646,-9663.52,-4246.85,-3.44316,-149.097,104.892,-8057.82,3446.01,-293.933,-4.90931,1.31674,89.582,7021.62,-809.033,1215.7,36.1101,-9.33801,12.9215
3.495,11780.8,-6006.63,12326.8,-111.187,252.254,258.909,4671.3,2450.32,8192.17,29.0368,-31.8735,13.0868,-208.779,18195.0,-315.087,55.7977,68.9706,383.142,-1908.3,-9839.88,-195.386,-2.28865,-35.7145,28.6262,607.724,-9600.44,-4338.4,-1.04063,-147.867,105.432,-7904.42,3438.08,-342.543,-4.75312,5.07738,88.6324,7028.49,-792.29,1192.76,35.7164,-9.802,12.801
3.496,11820.2,-5784.85,12301.7,-111.478,248.56,260.8,4685.66,2475.89,8154.36,28.7721,-31.9793,12.6747,-380.137,18317.4,-294.216,55.4847,69.976,382.795,-1893.6,-9803.04,-199.177,-2.1665,-35.0408,28.5355,661.801,-9537.36,-4429.94,1.3619,-146.638,105.972,-7751.02,3430.15,-391.154,-4.59693,8.83802,87.6827,7035.36,-775.547,1169.83,35.3227,-10.266,12.6804
3.497,11859.7,-5563.08,12276.5,-111.77,244.865,262.69,4700.01,2501.45,8116.55,28.5073,-32.0851,12.2626,-551.495,18439.8,-273.345,55.1718,70.9813,382.447,-1878.9,-9766.2,-202.969,-2.04436,-34.3671,28.4448,715.878,-9474.28,-4521.49,3.76443,-145.408,106.512,-7597.62,3422.22,-439.765,-4.44074,12.5987,86.7331,7042.23,-758.804,1146.89,34.929,-10.73,12.5598
3.498,11924.3,-5328.85,12268.6,-112.193,241.067,264.607,4712.46,2522.65,8087.49,28.2676,-32.206,11.8785,-743.749,18566.2,-251.197,54.7848,71.8631,382.093,-1867.27,-9733.2,-211.989,-1.90383,-33.7217,28.3962,764.45,-9410.28,-4595.35,6.01121,-143.955,107.049,-7439.89,3421.65,-488.213,-4.2382,16.5052,85.9288,7048.01,-745.477,1125.64,34.4915,-11.1979,12.4409
3.499,12076.6,-5051.02,12320.8,-113.077,236.905,266.612,4718.28,2528.56,8089.04,28.1156,-32.3796,11.592,-1009.14,18706.5,-224.582,54.1386,72.3121,381.714,-1866.39,-9713.61,-239.312,-1.69897,-33.1755,28.4949,793.752,-9343.04,-4607.35,7.71287,-141.718,107.577,-7266.98,3446.85,-536.092,-3.87343,20.9223,85.6327,7049.98,-744.106,1110.27,33.9006,-11.6797,12.3277
3.5,12228.9,-4773.19,12373.0,-113.961,232.743,268.617,4724.1,2534.47,8090.6,27.9635,-32.5533,11.3056,-1274.53,18846.8,-197.967,53.4925,72.761,381.334,-1865.52,-9694.02,-266.635,-1.49412,-32.6293,28.5935,823.054,-9275.8,-4619.35,9.41454,-139.48,108.105,-7094.06,3472.04,-583.972,-3.50867,25.3395,85.3367,7051.95,-742.734,1094.9,33.3097,-12.1614,12.2145
3.501,12381.1,-4495.35,12425.1,-114.845,228.582,270.622,4729.91,2540.39,8092.16,27.8115,-32.7269,11.0192,-1539.92,18987.0,-171.352,52.8463,73.21,380.955,-1864.64,-9674.43,-293.957,-1.28926,-32.0831,28.6922,852.356,-9208.57,-4631.35,11.1162,-137.243,108.633,-6921.15,3497.23,-631.852,-3.1439,29.7566,85.0407,7053.92,-741.363,1079.54,32.7188,-12.6432,12.1014
3.502,12533.4,-4217.52,12477.3,-115.73,224.42,272.627,4735.73,2546.3,8093.72,27.6594,-32.9005,10.7327,-1805.31,19127.3,-144.737,52.2002,73.659,380.576,-1863.77,-9654.85,-321.28,-1.0844,-31.5369,28.7908,881.659,-9141.33,-4643.35,12.8179,-135.005,109.16,-6748.24,3522.42,-679.731,-2.77913,34.1738,84.7446,7055.9,-739.991,1064.17,32.1278,-13.125,11.9882
3.503,12749.1,-3991.2,12581.2,-116.773,220.265,274.278,4734.59,2522.31,8102.43,27.5576,-33.0865,10.4263,-2066.16,19228.3,-99.4342,51.3797,73.662,380.127,-1896.63,-9637.45,-350.06,-0.953182,-31.0869,28.7717,908.996,-9079.08,-4612.77,13.8773,-132.465,109.755,-6618.53,3496.11,-639.499,-2.14607,37.1021,84.8618,7040.1,-736.861,1060.12,31.4938,-13.7213,11.9091
3.504,12982.9,-3779.59,12699.9,-117.863,216.112,275.828,4731.45,2489.79,8113.18,27.4702,-33.2761,10.1142,-2325.71,19318.0,-48.7914,50.5095,73.5376,379.658,-1939.14,-9620.69,-379.257,-0.843,-30.6644,28.7189,935.773,-9018.24,-4570.02,14.7532,-129.837,110.369,-6501.17,3455.08,-574.091,-1.43635,39.605,85.097,7019.23,-733.227,1059.3,30.8474,-14.3504,11.8397
3.505,13216.7,-3567.98,12818.5,-118.952,211.959,277.378,4728.32,2457.26,8123.93,27.3827,-33.4656,9.80202,-2585.27,19407.7,1.85133,49.6392,73.4132,379.189,-1981.64,-9603.92,-408.453,-0.732817,-30.2418,28.6661,962.55,-8957.41,-4527.27,15.6291,-127.21,110.982,-6383.8,3414.06,-508.683,-0.726625,42.1079,85.3321,6998.35,-729.594,1058.49,30.201,-14.9795,11.7704
3.506,13450.5,-3356.37,12937.2,-120.041,207.806,278.928,4725.19,2424.73,8134.68,27.2953,-33.6551,9.48988,-2844.82,19497.5,52.4941,48.769,73.2887,378.72,-2024.15,-9587.15,-437.65,-0.622635,-29.8192,28.6133,989.327,-8896.58,-4484.52,16.5051,-124.583,111.596,-6266.44,3373.03,-443.276,-0.0169035,44.6108,85.5673,6977.48,-725.96,1057.68,29.5546,-15.6086,11.7011
3.507,13700.2,-3199.14,13048.5,-121.048,203.877,280.222,4726.11,2413.14,8135.09,27.1955,-33.82,9.20322,-3115.15,19580.1,85.9422,48.0405,72.9419,378.375,-2070.47,-9583.19,-460.081,-0.531653,-29.4898,28.6063,1012.15,-8824.37,-4424.12,17.0908,-122.011,112.264,-6160.62,3340.72,-372.47,0.731482,46.322,85.7422,6957.94,-724.868,1059.73,28.953,-16.3538,11.6026
3.508,13981.7,-3150.65,13145.1,-121.89,200.396,281.004,4735.13,2443.43,8114.85,27.0709,-33.9355,8.96755,-3407.01,19648.5,85.001,47.5957,72.1502,378.276,-2124.44,-9604.83,-468.981,-0.479073,-29.3467,28.6907,1027.05,-8729.41,-4328.44,17.0963,-119.551,113.04,-6077.9,3325.85,-290.869,1.55719,46.4495,85.7967,6941.07,-728.859,1067.53,28.4409,-17.3309,11.446
3.509,14263.3,-3102.16,13241.7,-122.732,196.915,281.786,4744.16,2473.72,8094.6,26.9463,-34.051,8.73188,-3698.88,19716.8,84.0597,47.1509,71.3585,378.178,-2178.4,-9626.47,-477.881,-0.426493,-29.2036,28.7751,1041.96,-8634.46,-4232.75,17.1018,-117.09,113.816,-5995.17,3310.97,-209.268,2.38291,46.577,85.8512,6924.19,-732.849,1075.32,27.9289,-18.308,11.2893
3.51,14544.9,-3053.68,13338.3,-123.574,193.434,282.568,4753.19,2504.01,8074.36,26.8217,-34.1666,8.4962,-3990.75,19785.2,83.1185,46.7061,70.5668,378.079,-2232.36,-9648.12,-486.781,-0.373912,-29.0604,28.8595,1056.86,-8539.5,-4137.06,17.1072,-114.629,114.593,-5912.45,3296.09,-127.667,3.20862,46.7045,85.9057,6907.32,-736.84,1083.12,27.4169,-19.2851,11.1327
3.511,14826.4,-3005.19,13434.9,-124.416,189.953,283.35,4762.21,2534.3,8054.11,26.6971,-34.2821,8.26053,-4282.61,19853.5,82.1772,46.2612,69.7752,377.98,-2286.32,-9669.76,-495.681,-0.321332,-28.9173,28.944,1071.77,-8444.54,-4041.38,17.1127,-112.168,115.369,-5829.72,3281.22,-46.0663,4.03433,46.832,85.9602,6890.45,-740.831,1090.91,26.9048,-20.2623,10.9761
3.512,15105.1,-3099.48,13481.7,-125.277,187.369,283.509,4780.63,2578.65,8034.27,26.751,-34.3356,8.1862,-4444.53,19901.0,-26.7144,45.9554,69.0284,377.737,-2314.21,-9703.35,-512.362,-0.345221,-28.9058,29.0408,1129.38,-8417.43,-3894.31,16.5913,-110.162,116.491,-5694.06,3292.85,-19.0674,4.90133,45.2943,85.8445,6898.01,-748.004,1085.07,26.1796,-21.0888,10.9406
3.513,15383.3,-3211.62,13522.2,-126.139,184.897,283.59,4800.21,2624.76,8014.47,26.8273,-34.3813,8.13203,-4590.2,19945.9,-149.1,45.6669,68.2873,377.476,-2338.84,-9738.43,-530.017,-0.378668,-28.9108,29.1392,1192.32,-8398.8,-3740.83,16.004,-108.213,117.655,-5551.78,3307.79,1.10622,5.77348,43.5486,85.7076,6908.62,-755.575,1077.52,25.4277,-21.8965,10.9203
3.514,15661.5,-3323.77,13562.7,-127.002,182.425,283.671,4819.8,2670.87,7994.68,26.9035,-34.4271,8.07787,-4735.87,19990.7,-271.485,45.3784,67.5462,377.214,-2363.46,-9773.52,-547.671,-0.412116,-28.9158,29.2377,1255.26,-8380.17,-3587.34,15.4167,-106.264,118.82,-5409.5,3322.73,21.2799,6.64563,41.8028,85.5707,6919.23,-763.146,1069.97,24.6757,-22.7042,10.9
3.515,15939.8,-3435.91,13603.2,-127.864,179.953,283.752,4839.38,2716.98,7974.88,26.9797,-34.4728,8.02371,-4881.54,20035.6,-393.871,45.0899,66.8051,376.953,-2388.09,-9808.6,-565.326,-0.445563,-28.9207,29.3361,1318.2,-8361.54,-3433.85,14.8294,-104.315,119.984,-5267.21,3337.67,41.4535,7.51778,40.0571,85.4338,6929.85,-770.718,1062.43,23.9238,-23.5119,10.8797
3.516,16215.1,-3566.43,13609.2,-128.846,177.924,283.697,4854.17,2746.51,7957.94,27.0895,-34.5358,8.00202,-4996.85,20072.7,-518.792,44.7496,66.0279,376.732,-2408.93,-9831.37,-608.278,-0.515976,-29.0807,29.4342,1370.65,-8352.57,-3288.7,14.1931,-102.667,121.155,-5139.7,3324.62,43.2862,8.52857,37.9153,85.0785,6913.04,-782.629,1049.82,23.4045,-24.1741,10.7858
3.517,16486.8,-3719.94,13572.0,-129.977,176.448,283.474,4862.94,2755.32,7944.55,27.2411,-34.6202,8.02093,-5074.21,20100.1,-646.883,44.3445,65.2054,376.563,-2425.02,-9838.74,-682.853,-0.632596,-29.4343,29.532,1409.97,-8355.67,-3153.95,13.4955,-101.395,122.334,-5030.64,3276.56,22.1929,9.71266,35.2786,84.4504,6861.96,-799.965,1030.89,23.1759,-24.6545,10.6002
3.518,16758.4,-3873.44,13534.7,-131.108,174.971,283.25,4871.72,2764.13,7931.16,27.3928,-34.7046,8.03984,-5151.56,20127.4,-774.974,43.9394,64.3829,376.393,-2441.12,-9846.12,-757.427,-0.749216,-29.7879,29.6297,1449.29,-8358.76,-3019.21,12.7979,-100.124,123.513,-4921.57,3228.5,1.09949,10.8968,32.6419,83.8223,6810.88,-817.301,1011.96,22.9474,-25.1348,10.4145
3.519,17030.1,-4026.95,13497.5,-132.238,173.495,283.027,4880.5,2772.94,7917.78,27.5445,-34.7891,8.05875,-5228.91,20154.8,-903.065,43.5342,63.5604,376.224,-2457.22,-9853.49,-832.002,-0.865836,-30.1416,29.7275,1488.61,-8361.86,-2884.46,12.1003,-98.8524,124.692,-4812.51,3180.45,-19.9939,12.0809,30.0052,83.1941,6759.8,-834.637,993.029,22.7188,-25.6152,10.2289
3.52,17301.8,-4180.45,13460.3,-133.369,172.019,282.803,4889.27,2781.75,7904.39,27.6961,-34.8735,8.07766,-5306.26,20182.2,-1031.16,43.1291,62.7379,376.054,-2473.32,-9860.87,-906.577,-0.982455,-30.4952,29.8253,1527.93,-8364.95,-2749.72,11.4027,-97.581,125.871,-4703.45,3132.39,-41.0873,13.2649,27.3685,82.566,6708.72,-851.973,974.099,22.4902,-26.0955,10.0432
3.521,17613.1,-4226.19,13382.0,-134.237,171.428,282.504,4890.28,2826.57,7895.86,27.7868,-34.8885,8.09578,-5326.01,20185.9,-1129.35,42.5234,62.2567,375.351,-2480.73,-9841.73,-947.991,-1.04142,-30.9123,29.8982,1593.61,-8405.88,-2636.86,10.8501,-96.5982,126.827,-4602.73,3120.81,-167.232,14.6306,24.6714,81.7425,6625.71,-883.558,974.669,23.0735,-27.2065,9.53308
3.522,17924.4,-4271.92,13303.6,-135.105,170.836,282.204,4891.29,2871.39,7887.33,27.8774,-34.9036,8.11391,-5345.75,20189.6,-1227.53,41.9176,61.7755,374.648,-2488.13,-9822.59,-989.405,-1.10038,-31.3294,29.9712,1659.28,-8446.81,-2524.01,10.2975,-95.6154,127.782,-4502.02,3109.23,-293.377,15.9963,21.9744,80.919,6542.7,-915.144,975.239,23.6567,-28.3176,9.02297
3.523,18235.7,-4317.66,13225.3,-135.973,170.245,281.905,4892.29,2916.21,7878.79,27.968,-34.9186,8.13203,-5365.49,20193.4,-1325.72,41.3119,61.2943,373.944,-2495.53,-9803.45,-1030.82,-1.15935,-31.7465,30.0442,1724.95,-8487.74,-2411.15,9.74489,-94.6326,128.738,-4401.3,3097.66,-419.522,17.362,19.2773,80.0955,6459.69,-946.729,975.809,24.24,-29.4286,8.51285
3.524,18547.0,-4363.39,13147.0,-136.841,169.653,281.606,4893.3,2961.03,7870.26,28.0586,-34.9337,8.15016,-5385.24,20197.1,-1423.91,40.7061,60.8131,373.241,-2502.94,-9784.32,-1072.23,-1.21831,-32.1636,30.1171,1790.62,-8528.67,-2298.3,9.19228,-93.6498,129.693,-4300.59,3086.08,-545.667,18.7277,16.5803,79.2719,6376.68,-978.315,976.379,24.8233,-30.5396,8.00274
3.525,18850.5,-4367.32,13067.3,-137.557,169.354,281.287,4889.52,3000.03,7861.15,28.1104,-34.8873,8.16052,-5401.39,20231.4,-1529.86,40.3198,60.5563,372.389,-2496.28,-9770.86,-1093.6,-1.33121,-32.5841,30.2331,1878.7,-8584.52,-2222.42,8.65161,-92.803,130.401,-4210.42,3094.48,-673.948,20.1433,14.0518,78.4132,6334.84,-1001.32,989.061,25.1049,-31.9697,7.45715
3.526,19147.8,-4337.81,12986.5,-138.152,169.289,280.953,4881.92,3034.38,7851.59,28.1312,-34.7918,8.16467,-5414.66,20290.2,-1642.02,40.1089,60.4792,371.419,-2478.39,-9761.94,-1098.94,-1.48725,-33.0072,30.3834,1984.71,-8652.3,-2176.12,8.12051,-92.065,130.912,-4128.68,3118.88,-803.939,21.5988,11.6581,77.5263,6325.94,-1017.45,1011.43,25.1452,-33.6551,6.88318
3.527,19445.1,-4308.3,12905.7,-138.746,169.224,280.619,4874.31,3068.72,7842.03,28.152,-34.6962,8.16883,-5427.93,20349.0,-1754.17,39.898,60.402,370.448,-2460.49,-9753.02,-1104.27,-1.6433,-33.4303,30.5338,2090.72,-8720.08,-2129.83,7.5894,-91.327,131.422,-4046.94,3143.27,-933.93,23.0542,9.2644,76.6394,6317.03,-1033.58,1033.81,25.1855,-35.3404,6.30921
3.528,19742.4,-4278.79,12824.9,-139.341,169.159,280.285,4866.7,3103.07,7832.47,28.1728,-34.6007,8.17299,-5441.21,20407.8,-1866.33,39.6871,60.3248,369.478,-2442.59,-9744.1,-1109.6,-1.79934,-33.8535,30.6841,2196.72,-8787.87,-2083.53,7.05829,-90.5891,131.932,-3965.2,3167.66,-1063.92,24.5097,6.8707,75.7525,6308.13,-1049.72,1056.18,25.2258,-37.0257,5.73524
3.529,20031.6,-4249.89,12738.1,-139.974,169.123,279.926,4860.45,3139.83,7821.39,28.2032,-34.5095,8.19521,-5461.04,20460.1,-1980.6,39.5239,60.2929,368.47,-2418.28,-9738.61,-1118.7,-1.93102,-34.2838,30.8418,2300.27,-8853.11,-2034.36,6.54136,-89.9134,132.395,-3894.88,3201.69,-1188.65,25.93,4.58573,74.8698,6296.86,-1061.93,1080.39,25.1776,-38.6912,5.16482
3.53,20256.7,-4225.94,12603.2,-140.914,169.312,279.368,4864.98,3195.89,7798.2,28.3112,-34.4536,8.36202,-5533.37,20460.7,-2111.85,39.7415,60.6236,367.158,-2342.67,-9760.55,-1157.92,-1.86777,-34.7724,31.058,2384.15,-8898.04,-1962.22,6.13784,-89.736,132.475,-3915.86,3312.81,-1271.29,27.0691,3.17051,74.0201,6266.7,-1042.71,1119.27,24.421,-40.1981,4.62283
3.531,20481.7,-4201.99,12468.2,-141.854,169.501,278.809,4869.51,3251.96,7775.01,28.4191,-34.3976,8.52882,-5605.69,20461.3,-2243.1,39.9592,60.9542,365.846,-2267.06,-9782.48,-1197.14,-1.80452,-35.2609,31.2743,2468.03,-8942.97,-1890.08,5.73433,-89.5587,132.555,-3936.84,3423.92,-1353.93,28.2081,1.75528,73.1704,6236.54,-1023.5,1158.14,23.6644,-41.7049,4.08084
3.532,20706.7,-4178.04,12333.3,-142.793,169.69,278.25,4874.04,3308.03,7751.83,28.527,-34.3416,8.69563,-5678.02,20461.9,-2374.35,40.1768,61.2849,364.534,-2191.45,-9804.42,-1236.37,-1.74127,-35.7494,31.4905,2551.9,-8987.9,-1817.93,5.33081,-89.3813,132.635,-3957.82,3535.04,-1436.57,29.3472,0.34006,72.3208,6206.38,-1004.29,1197.02,22.9078,-43.2117,3.53885
3.533,20931.8,-4154.09,12198.4,-143.733,169.88,277.691,4878.57,3364.09,7728.64,28.635,-34.2857,8.86243,-5750.35,20462.5,-2505.6,40.3945,61.6156,363.222,-2115.84,-9826.35,-1275.59,-1.67802,-36.2379,31.7068,2635.78,-9032.83,-1745.79,4.92729,-89.2039,132.716,-3978.8,3646.15,-1519.2,30.4862,-1.07516,71.4711,6176.22,-985.073,1235.9,22.1511,-44.7185,2.99686
3.534,21146.8,-4142.66,12042.8,-144.617,169.989,276.922,4881.1,3405.46,7734.29,28.6732,-34.3214,9.12795,-5856.09,20470.1,-2604.57,40.6668,61.8538,361.713,-2043.95,-9829.7,-1327.81,-1.635,-36.5705,32.0252,2701.79,-9081.46,-1660.09,4.63452,-89.5386,132.532,-3966.41,3758.85,-1554.54,31.0391,-1.51701,70.424,6172.52,-968.347,1307.74,21.4492,-46.1274,2.6289
3.535,21356.8,-4137.48,11876.8,-145.472,170.058,276.048,4882.61,3439.47,7754.35,28.6766,-34.403,9.44283,-5978.55,20481.1,-2687.41,40.9665,62.0459,360.107,-1973.93,-9823.77,-1386.54,-1.60209,-36.8251,32.3947,2758.87,-9131.95,-1567.61,4.39712,-90.1292,132.216,-3937.33,3872.34,-1566.24,31.299,-1.47218,69.2782,6182.05,-952.864,1396.06,20.7746,-47.4873,2.34796
3.536,21566.7,-4132.3,11710.9,-146.327,170.127,275.174,4884.13,3473.48,7774.41,28.6799,-34.4845,9.7577,-6101.0,20492.2,-2770.26,41.2661,62.2379,358.501,-1903.91,-9817.83,-1445.27,-1.56918,-37.0797,32.7642,2815.94,-9182.44,-1475.14,4.15971,-90.7199,131.9,-3908.26,3985.83,-1577.93,31.5588,-1.42734,68.1324,6191.58,-937.382,1484.39,20.1,-48.8471,2.06703
3.537,21776.7,-4127.12,11544.9,-147.182,170.196,274.299,4885.64,3507.49,7794.48,28.6833,-34.566,10.0726,-6223.46,20503.2,-2853.1,41.5658,62.43,356.894,-1833.89,-9811.9,-1504.0,-1.53627,-37.3343,33.1338,2873.02,-9232.93,-1382.66,3.92231,-91.3105,131.584,-3879.18,4099.31,-1589.62,31.8187,-1.3825,66.9866,6201.12,-921.899,1572.71,19.4254,-50.207,1.78609
3.538,21967.3,-4137.06,11375.5,-147.722,170.2,273.296,4878.8,3542.84,7812.64,28.6959,-34.6661,10.3766,-6355.91,20515.1,-2936.1,41.8373,62.6709,355.263,-1768.36,-9813.17,-1560.5,-1.53748,-37.591,33.5003,2921.23,-9284.73,-1287.29,3.75645,-92.0736,131.203,-3845.47,4226.66,-1582.01,32.0611,-0.732046,65.836,6207.14,-904.686,1646.36,18.8268,-51.5586,1.50482
3.539,22090.0,-4199.9,11194.1,-147.163,169.977,271.839,4842.71,3582.91,7824.16,28.741,-34.8309,10.6424,-6523.34,20529.8,-3019.68,42.0105,63.083,353.545,-1718.54,-9839.68,-1609.22,-1.65812,-37.855,33.8563,2938.41,-9341.09,-1181.78,3.84098,-93.44,130.595,-3795.57,4402.51,-1506.85,32.2426,2.03808,64.6684,6200.85,-881.42,1668.67,18.4942,-52.8814,1.22238
3.54,22212.6,-4262.74,11012.7,-146.604,169.755,270.383,4806.63,3622.98,7835.68,28.7861,-34.9958,10.9082,-6690.78,20544.6,-3103.27,42.1836,63.4951,351.826,-1668.73,-9866.2,-1657.93,-1.77876,-38.119,34.2124,2955.59,-9397.45,-1076.26,3.9255,-94.8063,129.987,-3745.66,4578.36,-1431.69,32.4242,4.8082,63.5008,6194.56,-858.153,1690.98,18.1616,-54.2042,0.939951
3.541,22335.3,-4325.58,10831.2,-146.044,169.532,268.926,4770.54,3663.04,7847.2,28.8313,-35.1606,11.174,-6858.22,20559.4,-3186.85,42.3567,63.9072,350.108,-1618.92,-9892.71,-1706.64,-1.8994,-38.383,34.5684,2972.77,-9453.81,-970.752,4.01003,-96.1727,129.38,-3695.75,4754.21,-1356.53,32.6057,7.57833,62.3332,6188.28,-834.887,1713.29,17.829,-55.527,0.657518
3.542,22458.0,-4388.42,10649.8,-145.485,169.309,267.47,4734.46,3703.11,7858.72,28.8764,-35.3255,11.4398,-7025.65,20574.1,-3270.43,42.5298,64.3193,348.39,-1569.11,-9919.22,-1755.35,-2.02004,-38.647,34.9245,2989.95,-9510.17,-865.241,4.09455,-97.5391,128.772,-3645.84,4930.05,-1281.37,32.7872,10.3485,61.1656,6181.99,-811.62,1735.6,17.4964,-56.8498,0.375085
3.543,22581.0,-4396.86,10443.4,-144.918,168.644,266.062,4731.23,3728.1,7844.12,29.0222,-35.4388,11.7453,-7181.98,20548.3,-3364.25,42.7918,64.4136,346.983,-1542.17,-9941.38,-1792.54,-1.99653,-38.7727,35.333,3010.43,-9563.34,-770.235,4.49871,-99.4342,128.049,-3536.98,5136.45,-1120.66,31.7659,14.947,60.2783,6148.86,-800.858,1728.22,17.4514,-58.2095,0.115757
3.544,22704.2,-4389.74,10229.9,-144.349,167.853,264.669,4737.39,3748.79,7822.06,29.1968,-35.5375,12.0621,-7335.13,20510.9,-3461.01,43.0793,64.417,345.664,-1521.77,-9962.29,-1826.43,-1.93183,-38.859,35.7565,3031.86,-9615.59,-678.231,4.99418,-101.48,127.292,-3411.28,5351.56,-935.495,30.4011,20.0679,59.4711,6108.07,-793.668,1712.35,17.4886,-59.5798,-0.136971
3.545,22827.4,-4382.63,10016.4,-143.781,167.061,263.276,4743.55,3769.47,7800.01,29.3714,-35.6362,12.3788,-7488.28,20473.5,-3557.76,43.3667,64.4204,344.346,-1501.37,-9983.2,-1860.32,-1.86713,-38.9452,36.18,3053.29,-9667.84,-586.228,5.48966,-103.527,126.535,-3285.59,5566.68,-750.333,29.0362,25.1888,58.6639,6067.27,-786.478,1696.49,17.5258,-60.9501,-0.389698
3.546,22950.6,-4375.52,9802.94,-143.212,166.27,261.883,4749.71,3790.15,7777.95,29.5461,-35.7349,12.6956,-7641.43,20436.1,-3654.51,43.6541,64.4239,343.027,-1480.97,-10004.1,-1894.21,-1.80244,-39.0315,36.6035,3074.72,-9720.09,-494.224,5.98514,-105.573,125.779,-3159.89,5781.8,-565.172,27.6714,30.3097,57.8567,6026.47,-779.288,1680.62,17.5631,-62.3203,-0.642426
3.547,23091.1,-4386.56,9571.09,-142.74,165.429,260.482,4756.05,3805.14,7766.56,29.6974,-35.8717,13.0737,-7792.61,20369.3,-3750.28,43.9693,64.4009,341.764,-1464.73,-10025.2,-1916.8,-1.78828,-39.0759,37.0314,3084.22,-9765.17,-418.483,6.42879,-107.701,124.95,-2989.5,6004.11,-350.132,25.7295,36.1187,57.4693,5997.65,-764.688,1670.69,17.7135,-63.6947,-0.791024
3.548,23266.3,-4433.91,9302.53,-142.464,164.486,259.066,4762.76,3808.74,7776.5,29.8023,-36.085,13.5742,-7939.84,20243.8,-3844.1,44.3398,64.3251,340.612,-1456.82,-10046.8,-1916.78,-1.8752,-39.0367,37.4683,3069.85,-9795.9,-375.268,6.76878,-109.995,123.977,-2729.72,6240.79,-75.3361,22.6334,43.304,57.9213,5992.79,-735.269,1672.64,18.0905,-65.077,-0.731362
3.549,23441.5,-4481.25,9033.97,-142.188,163.544,257.65,4769.46,3812.34,7786.44,29.9071,-36.2983,14.0748,-8087.07,20118.3,-3937.91,44.7103,64.2493,339.459,-1448.92,-10068.3,-1916.77,-1.96212,-38.9974,37.9051,3055.49,-9826.64,-332.052,7.10877,-112.288,123.004,-2469.94,6477.47,199.46,19.5374,50.4892,58.3733,5987.92,-705.85,1674.58,18.4674,-66.4594,-0.6717
3.55,23616.7,-4528.6,8765.42,-141.912,162.602,256.234,4776.17,3815.94,7796.38,30.012,-36.5116,14.5753,-8234.31,19992.9,-4031.73,45.0809,64.1735,338.307,-1441.01,-10089.9,-1916.75,-2.04904,-38.9582,38.3419,3041.13,-9857.37,-288.837,7.44876,-114.581,122.031,-2210.17,6714.15,474.256,16.4413,57.6745,58.8253,5983.06,-676.431,1676.53,18.8443,-67.8418,-0.612038
3.551,23791.9,-4575.95,8496.86,-141.636,161.66,254.818,4782.87,3819.55,7806.32,30.1168,-36.7249,15.0759,-8381.54,19867.4,-4125.55,45.4514,64.0976,337.154,-1433.1,-10111.4,-1916.73,-2.13597,-38.919,38.7787,3026.76,-9888.1,-245.622,7.78875,-116.875,121.058,-1950.39,6950.84,749.052,13.3453,64.8598,59.2773,5978.19,-647.012,1678.47,19.2213,-69.2241,-0.552376
3.552,24032.7,-4665.18,8219.02,-139.901,160.796,253.267,4787.97,3801.31,7804.0,30.1715,-36.927,15.5314,-8527.09,19739.0,-4266.18,45.792,64.3305,335.67,-1429.57,-10147.9,-1912.3,-2.05581,-39.1301,39.3559,3056.07,-9970.02,-261.027,8.09749,-119.159,120.006,-1603.52,7103.51,1095.13,9.37608,73.0034,60.5333,5960.14,-595.93,1675.59,19.8465,-70.5557,-0.437192
3.553,24281.7,-4759.66,7940.02,-137.984,159.942,251.699,4792.87,3780.34,7800.13,30.2199,-37.1276,15.9812,-8672.43,19610.3,-4412.66,46.1288,64.6019,334.145,-1426.58,-10186.3,-1907.31,-1.95478,-39.3725,39.9507,3090.84,-10058.3,-283.761,8.40232,-121.442,118.943,-1245.77,7245.68,1450.11,5.29774,81.2668,61.8898,5940.44,-542.14,1672.11,20.5028,-71.8809,-0.315068
3.554,24530.7,-4854.13,7661.03,-136.067,159.088,250.131,4797.77,3759.38,7796.27,30.2683,-37.3283,16.4311,-8817.77,19481.5,-4559.14,46.4656,64.8733,332.619,-1423.59,-10224.7,-1902.32,-1.85374,-39.615,40.5454,3125.61,-10146.7,-306.494,8.70715,-123.725,117.881,-888.014,7387.86,1805.1,1.21941,89.5303,63.2463,5920.73,-488.35,1668.63,21.1591,-73.206,-0.192945
3.555,24779.7,-4948.6,7382.03,-134.151,158.233,248.563,4802.67,3738.41,7792.41,30.3168,-37.529,16.881,-8963.11,19352.8,-4705.62,46.8024,65.1448,331.093,-1420.6,-10263.1,-1897.33,-1.75271,-39.8574,41.1401,3160.37,-10235.0,-329.227,9.01198,-126.008,116.819,-530.259,7530.03,2160.09,-2.85893,97.7937,64.6027,5901.03,-434.561,1665.15,21.8154,-74.5312,-0.0708212
3.556,25077.2,-4982.49,7104.46,-132.045,157.379,247.252,4817.84,3734.4,7798.42,30.4464,-37.7813,17.25,-9125.29,19206.2,-4814.6,47.1641,65.508,329.182,-1409.36,-10301.7,-1888.51,-1.64379,-40.0454,41.7401,3185.57,-10325.1,-385.287,9.38837,-127.913,115.585,-160.932,7661.11,2440.85,-6.81932,106.094,66.2258,5885.74,-389.686,1650.74,22.6383,-75.6894,0.136584
3.557,25435.3,-4940.64,6828.67,-129.705,156.525,246.263,4845.84,3751.58,7816.77,30.6774,-38.0982,17.5181,-9308.53,19037.3,-4876.68,47.5567,65.9861,326.789,-1387.79,-10340.7,-1874.89,-1.52503,-40.1654,42.3466,3198.79,-10417.3,-483.006,9.85422,-129.346,114.137,222.86,7778.3,2628.84,-10.6323,114.44,68.1822,5875.97,-355.955,1622.69,23.6695,-76.6389,0.45059
3.558,25793.4,-4898.8,6552.88,-127.365,155.671,245.273,4873.84,3768.76,7835.13,30.9084,-38.4151,17.7862,-9491.77,18868.4,-4938.77,47.9493,66.4642,324.396,-1366.23,-10379.7,-1861.28,-1.40627,-40.2855,42.9532,3212.01,-10509.6,-580.725,10.3201,-130.779,112.689,606.653,7895.5,2816.83,-14.4452,122.786,70.1386,5866.19,-322.224,1594.64,24.7007,-77.5884,0.764597
3.559,26151.4,-4856.95,6277.1,-125.024,154.817,244.284,4901.84,3785.94,7853.48,31.1395,-38.732,18.0543,-9675.01,18699.5,-5000.85,48.342,66.9422,322.003,-1344.67,-10418.7,-1847.66,-1.28751,-40.4055,43.5597,3225.24,-10601.9,-678.444,10.7859,-132.211,111.241,990.445,8012.69,3004.81,-18.2581,131.132,72.0949,5856.42,-288.493,1566.59,25.7319,-78.5379,1.0786
3.56,26509.5,-4815.11,6001.31,-122.684,153.962,243.295,4929.83,3803.12,7871.83,31.3705,-39.0489,18.3224,-9858.25,18530.6,-5062.94,48.7346,67.4203,319.609,-1323.11,-10457.7,-1834.05,-1.16875,-40.5255,44.1663,3238.46,-10694.1,-776.163,11.2518,-133.644,109.793,1374.24,8129.89,3192.8,-22.0711,139.478,74.0513,5846.64,-254.762,1538.54,26.763,-79.4874,1.39261
3.561,26852.4,-4709.61,5727.01,-120.54,152.898,242.986,4952.91,3783.68,7864.99,31.5123,-39.3238,18.6717,-10103.0,18409.3,-5088.85,48.9639,68.0498,316.636,-1339.35,-10470.6,-1816.78,-1.23706,-40.6336,44.8885,3283.38,-10785.0,-879.387,12.0981,-134.213,108.383,1730.62,8149.03,3345.3,-25.4211,146.388,76.1901,5805.82,-197.832,1461.78,27.6346,-79.982,1.91508
3.562,27195.2,-4604.11,5452.71,-118.397,151.835,242.677,4975.99,3764.23,7858.16,31.654,-39.5987,19.021,-10347.7,18287.9,-5114.77,49.1932,68.6792,313.662,-1355.59,-10483.6,-1799.51,-1.30537,-40.7416,45.6108,3328.3,-10875.8,-982.611,12.9445,-134.783,106.973,2086.99,8168.17,3497.8,-28.7711,153.298,78.329,5764.99,-140.903,1385.03,28.5062,-80.4767,2.43754
3.563,27538.0,-4498.61,5178.42,-116.253,150.771,242.368,4999.07,3744.78,7851.33,31.7958,-39.8736,19.3704,-10592.4,18166.6,-5140.69,49.4225,69.3087,310.689,-1371.83,-10496.6,-1782.24,-1.37368,-40.8497,46.333,3373.22,-10966.7,-1085.83,13.7909,-135.352,105.563,2443.37,8187.31,3650.3,-32.1212,160.207,80.4678,5724.17,-83.9731,1308.27,29.3778,-80.9714,2.96001
3.564,27880.9,-4393.11,4904.12,-114.11,149.707,242.059,5022.15,3725.33,7844.49,31.9376,-40.1485,19.7197,-10837.1,18045.3,-5166.6,49.6518,69.9381,307.715,-1388.06,-10509.6,-1764.97,-1.442,-40.9577,47.0553,3418.14,-11057.6,-1189.06,14.6372,-135.922,104.154,2799.75,8206.45,3802.81,-35.4712,167.117,82.6067,5683.34,-27.0436,1231.51,30.2494,-81.4661,3.48247
3.565,28146.9,-4289.15,4643.85,-111.175,148.52,241.553,5013.71,3707.7,7834.14,32.0903,-40.5168,20.1143,-11030.7,17950.6,-5170.62,49.9962,70.7936,304.515,-1378.62,-10522.4,-1759.32,-1.35607,-41.068,47.7612,3489.19,-11109.8,-1313.66,15.5522,-135.989,102.404,3144.18,8228.55,3955.76,-38.8798,172.605,84.6162,5663.83,15.2898,1124.73,31.1172,-81.5613,4.00819
3.566,28351.3,-4186.41,4394.8,-107.608,147.234,240.889,4980.05,3691.51,7820.98,32.2519,-40.9598,20.5451,-11183.5,17877.2,-5157.11,50.4325,71.8298,301.133,-1348.64,-10535.0,-1762.97,-1.14676,-41.18,48.4541,3581.14,-11131.0,-1455.37,16.5222,-135.654,100.383,3479.04,8253.01,4109.08,-42.3352,176.955,86.5221,5661.38,45.9463,993.937,31.9819,-81.3371,4.53651
3.567,28555.8,-4083.68,4145.75,-104.04,145.949,240.225,4946.39,3675.32,7807.81,32.4134,-41.4029,20.976,-11336.2,17803.9,-5143.61,50.8688,72.866,297.75,-1318.66,-10547.7,-1766.61,-0.937442,-41.292,49.147,3673.09,-11152.3,-1597.08,17.4921,-135.319,98.3621,3813.91,8277.47,4262.4,-45.7907,181.305,88.428,5658.93,76.6027,863.144,32.8466,-81.1128,5.06483
3.568,28760.3,-3980.94,3896.7,-100.472,144.663,239.561,4912.73,3659.13,7794.65,32.5749,-41.8459,21.4068,-11488.9,17730.5,-5130.1,51.3051,73.9023,294.368,-1288.67,-10560.3,-1770.25,-0.728126,-41.404,49.8399,3765.04,-11173.6,-1738.79,18.4621,-134.984,96.341,4148.78,8301.94,4415.72,-49.2462,185.656,90.334,5656.47,107.259,732.35,33.7113,-80.8885,5.59314
3.569,28950.3,-3866.89,3655.06,-96.9057,143.363,238.844,4884.96,3642.58,7785.7,32.7325,-42.2698,21.8257,-11630.6,17662.9,-5114.3,51.7372,75.0083,290.952,-1259.84,-10572.8,-1765.57,-0.525234,-41.4825,50.5446,3857.3,-11187.4,-1881.36,19.444,-134.573,94.3463,4484.14,8320.88,4551.48,-52.5401,189.7,92.2526,5654.88,133.99,600.178,34.5424,-80.5952,6.16443
3.57,29024.0,-3662.32,3472.68,-93.3473,141.943,237.704,4904.39,3623.17,7810.48,32.8581,-42.5397,22.1491,-11683.5,17641.0,-5080.12,52.1355,76.6727,287.264,-1240.23,-10584.0,-1694.27,-0.373732,-41.2929,51.3437,3952.04,-11141.3,-2030.84,20.5214,-133.551,92.5627,4823.49,8295.7,4546.77,-54.5421,191.299,94.2722,5660.18,129.312,456.97,35.1045,-79.7496,7.07947
3.571,29097.8,-3457.75,3290.31,-89.7889,140.522,236.563,4923.82,3603.76,7835.25,32.9837,-42.8097,22.4725,-11736.5,17619.1,-5045.95,52.5338,78.3371,283.576,-1220.62,-10595.2,-1622.97,-0.222229,-41.1034,52.1428,4046.78,-11095.2,-2180.32,21.5989,-132.528,90.7791,5162.83,8270.51,4542.06,-56.5441,192.899,96.2919,5665.48,124.635,313.762,35.6666,-78.9039,7.99451
3.572,29171.5,-3253.18,3107.93,-86.2306,139.102,235.422,4943.25,3584.35,7860.03,33.1093,-43.0797,22.796,-11789.4,17597.3,-5011.78,52.9321,80.0015,279.889,-1201.02,-10606.5,-1551.67,-0.070726,-40.9139,52.942,4141.52,-11049.1,-2329.8,22.6764,-131.505,88.9955,5502.17,8245.33,4537.35,-58.546,194.498,98.3115,5670.78,119.958,170.554,36.2288,-78.0582,8.90956
3.573,29245.3,-3048.61,2925.55,-82.6722,137.681,234.282,4962.68,3564.94,7884.8,33.2349,-43.3497,23.1194,-11842.4,17575.4,-4977.6,53.3304,81.6659,276.201,-1181.41,-10617.7,-1480.37,0.0807769,-40.7243,53.7411,4236.26,-11003.0,-2479.28,23.7538,-130.483,87.2118,5841.52,8220.14,4532.64,-60.548,196.097,100.331,5676.08,115.28,27.346,36.7909,-77.2126,9.8246
3.574,29254.0,-2775.36,2726.18,-80.273,136.384,233.358,4987.6,3553.19,7896.67,33.2773,-43.7615,23.3917,-11925.1,17580.5,-4926.45,53.5728,83.6301,272.415,-1153.75,-10624.0,-1418.58,0.147602,-40.6231,54.6772,4325.68,-10911.2,-2611.33,24.8305,-128.822,85.7451,6125.77,8192.44,4524.14,-61.3787,195.704,101.734,5678.58,110.654,-135.158,37.4762,-75.8979,10.7213
3.575,29230.2,-2467.77,2518.32,-78.4533,135.147,232.542,5015.28,3545.28,7902.09,33.278,-44.2444,23.6385,-12022.7,17599.1,-4866.8,53.7372,85.7442,268.581,-1122.07,-10628.0,-1361.54,0.172089,-40.5659,55.6818,4412.44,-10796.4,-2734.66,25.9069,-126.843,84.4367,6382.46,8163.48,4513.75,-61.6236,194.314,102.828,5679.66,106.052,-307.311,38.2231,-74.3487,11.6087
3.576,29206.3,-2160.17,2310.46,-76.6337,133.911,231.727,5042.95,3537.36,7907.5,33.2788,-44.7272,23.8853,-12120.3,17617.6,-4807.15,53.9016,87.8583,264.746,-1090.39,-10631.9,-1304.51,0.196576,-40.5088,56.6864,4499.2,-10681.7,-2857.99,26.9833,-124.864,83.1284,6639.16,8134.52,4503.35,-61.8686,192.925,103.923,5680.75,101.451,-479.464,38.9701,-72.7994,12.4962
3.577,29182.5,-1852.58,2102.6,-74.8141,132.675,230.911,5070.63,3529.44,7912.92,33.2795,-45.21,24.1321,-12218.0,17636.2,-4747.5,54.066,89.9725,260.912,-1058.71,-10635.8,-1247.47,0.221063,-40.4516,57.691,4585.97,-10567.0,-2981.31,28.0596,-122.884,81.8201,6895.86,8105.56,4492.96,-62.1136,191.536,105.017,5681.84,96.8497,-651.617,39.717,-71.2502,13.3837
3.578,29151.8,-1517.7,1900.72,-73.1309,131.387,230.258,5084.31,3516.68,7921.89,33.2962,-45.6815,24.3418,-12350.4,17646.1,-4665.21,54.0964,92.0575,256.989,-1016.23,-10636.0,-1192.04,0.231569,-40.3629,58.7053,4678.28,-10441.0,-3088.73,29.0267,-120.815,80.6016,7174.3,8069.61,4451.71,-61.7358,189.786,105.938,5682.75,85.3991,-815.396,40.5425,-69.5939,14.2919
3.579,29097.0,-1087.3,1719.75,-71.9248,129.92,230.174,5049.05,3487.0,7943.3,33.3687,-46.1134,24.4216,-12604.5,17625.6,-4503.67,53.6579,94.0405,252.755,-935.954,-10622.8,-1142.25,0.19314,-40.1636,59.7536,4790.03,-10275.6,-3140.45,29.6112,-118.431,79.6976,7528.83,8009.16,4302.47,-59.1786,186.774,106.252,5683.0,49.9759,-949.868,41.6432,-67.5628,15.2728
3.58,29042.2,-656.9,1538.78,-70.7188,128.454,230.09,5013.78,3457.31,7964.72,33.4412,-46.5453,24.5013,-12858.7,17605.0,-4342.13,53.2194,96.0236,248.521,-855.679,-10609.7,-1092.46,0.154712,-39.9643,60.8019,4901.77,-10110.2,-3192.17,30.1957,-116.048,78.7936,7883.35,7948.72,4153.22,-56.6214,183.763,106.567,5683.26,14.5527,-1084.34,42.7438,-65.5317,16.2536
3.581,28987.4,-226.501,1357.8,-69.5127,126.987,230.006,4978.51,3427.63,7986.13,33.5137,-46.9772,24.581,-13112.9,17584.4,-4180.59,52.7809,98.0067,244.287,-775.403,-10596.5,-1042.67,0.116283,-39.765,61.8502,5013.51,-9944.8,-3243.89,30.7802,-113.664,77.8896,8237.88,7888.28,4003.98,-54.0642,180.751,106.881,5683.52,-20.8705,-1218.81,43.8445,-63.5007,17.2345
3.582,28932.6,203.897,1176.83,-68.3067,125.52,229.922,4943.24,3397.94,8007.54,33.5862,-47.409,24.6608,-13367.1,17563.9,-4019.06,52.3424,99.9897,240.053,-695.128,-10583.3,-992.874,0.0778543,-39.5657,62.8984,5125.26,-9779.39,-3295.61,31.3647,-111.28,76.9856,8592.41,7827.83,3854.73,-51.5069,177.74,107.195,5683.78,-56.2937,-1353.28,44.9451,-61.4696,18.2153
3.583,28813.4,672.656,1036.5,-66.7207,123.593,229.978,4951.49,3379.24,8043.76,33.485,-47.914,24.7108,-13698.4,17548.2,-3783.0,51.8443,101.418,235.522,-662.155,-10566.0,-924.574,0.234356,-39.3997,63.8337,5268.18,-9602.11,-3301.8,31.4846,-108.847,76.4052,8980.88,7735.81,3614.5,-46.7032,173.963,106.772,5715.95,-94.4932,-1427.83,45.9734,-59.1414,19.0816
3.584,28675.9,1152.37,907.79,-65.026,121.533,230.075,4972.17,3363.68,8084.22,33.3342,-48.4399,24.7524,-14051.7,17533.9,-3525.66,51.3291,102.688,230.906,-642.697,-10547.5,-850.985,0.446552,-39.2432,64.7366,5420.02,-9421.43,-3294.98,31.4718,-106.401,75.9172,9379.06,7634.77,3348.28,-41.2576,169.967,106.138,5757.24,-133.486,-1485.25,46.9811,-56.7285,19.9152
3.585,28538.3,1632.09,779.076,-63.3314,119.473,230.171,4992.85,3348.11,8124.67,33.1834,-48.9658,24.794,-14405.0,17519.6,-3268.32,50.814,103.958,226.29,-623.238,-10529.1,-777.397,0.658749,-39.0867,65.6395,5571.86,-9240.76,-3288.15,31.4591,-103.955,75.4292,9777.23,7533.73,3082.06,-35.812,165.971,105.504,5798.53,-172.479,-1542.68,47.9888,-54.3155,20.7487
3.586,28400.7,2111.81,650.362,-61.6368,117.413,230.268,5013.54,3332.55,8165.12,33.0326,-49.4917,24.8356,-14758.4,17505.3,-3010.97,50.2989,105.228,221.675,-603.78,-10510.6,-703.808,0.870945,-38.9302,66.5424,5723.69,-9060.08,-3281.33,31.4463,-101.508,74.9412,10175.4,7432.69,2815.84,-30.3663,161.975,104.871,5839.82,-211.471,-1600.1,48.9964,-51.9025,21.5823
3.587,28246.8,2649.05,510.552,-60.8251,115.267,230.672,5017.0,3307.52,8196.16,32.9349,-50.0271,24.862,-15147.9,17464.1,-2772.44,49.8625,106.17,217.154,-572.103,-10502.4,-642.343,1.05068,-38.6562,67.5613,5878.76,-8898.33,-3254.11,31.2549,-99.142,74.5926,10596.5,7351.08,2528.77,-24.2501,157.259,103.927,5901.93,-262.905,-1640.91,50.02,-49.4758,22.3571
3.588,28060.1,3301.32,348.551,-61.7793,112.95,231.69,4986.01,3263.55,8208.37,32.9436,-50.5815,24.858,-15609.8,17369.3,-2571.52,49.5838,106.457,212.823,-515.989,-10514.8,-605.123,1.16549,-38.1473,68.8123,6040.28,-8774.41,-3186.1,30.7064,-96.9354,74.5226,11063.3,7308.36,2200.02,-16.7925,151.103,102.364,6005.68,-339.219,-1648.51,51.0754,-47.0216,23.0144
3.589,27873.4,3953.59,186.549,-62.7334,110.632,232.708,4955.03,3219.59,8220.57,32.9522,-51.1359,24.854,-16071.8,17274.4,-2370.6,49.305,106.744,208.491,-459.875,-10527.2,-567.903,1.28031,-37.6384,70.0633,6201.79,-8650.5,-3118.08,30.1578,-94.7288,74.4525,11530.2,7265.64,1871.26,-9.33487,144.946,100.802,6109.43,-415.533,-1656.11,52.1309,-44.5674,23.6718
3.59,27686.8,4605.86,24.5478,-63.6876,108.314,233.726,4924.05,3175.62,8232.78,32.9608,-51.6904,24.85,-16533.7,17179.6,-2169.68,49.0262,107.031,204.16,-403.76,-10539.5,-530.683,1.39512,-37.1295,71.3142,6363.31,-8526.58,-3050.07,29.6092,-92.5223,74.3825,11997.1,7222.92,1542.51,-1.87727,138.79,99.2391,6213.18,-491.847,-1663.7,53.1863,-42.1132,24.3291
3.591,27500.1,5258.13,-137.454,-64.6417,105.996,234.744,4893.07,3131.66,8244.99,32.9694,-52.2448,24.846,-16995.7,17084.7,-1968.77,48.7474,107.318,199.829,-347.646,-10551.9,-493.463,1.50993,-36.6205,72.5652,6524.83,-8402.66,-2982.06,29.0606,-90.3157,74.3125,12464.0,7180.2,1213.76,5.58032,132.634,97.6763,6316.94,-568.161,-1671.3,54.2417,-39.6591,24.9864
3.592,27263.2,5883.26,-247.862,-67.2375,102.667,235.815,4872.33,3082.94,8243.14,32.8454,-52.9529,24.6283,-17473.4,16924.0,-1780.47,48.2477,106.405,195.955,-288.886,-10554.2,-457.842,1.85481,-35.9882,73.6067,6708.17,-8320.07,-2887.01,28.512,-88.5405,74.3607,12977.9,7204.44,1077.69,11.1051,123.755,95.522,6431.46,-650.226,-1633.47,54.3307,-36.6174,25.6243
3.593,27020.1,6504.99,-351.822,-70.0385,99.2109,236.893,4852.88,3033.63,8239.54,32.7049,-53.6803,24.3839,-17953.2,16755.0,-1593.75,47.7203,105.343,192.139,-229.795,-10555.3,-422.421,2.22845,-35.3404,74.6219,6894.24,-8242.64,-2788.57,27.9633,-86.8193,74.4237,13497.7,7237.05,965.699,16.3882,114.535,93.2937,6547.33,-733.01,-1589.97,54.2988,-33.5022,26.2598
3.594,26776.9,7126.73,-455.782,-72.8395,95.7552,237.971,4833.43,2984.31,8235.93,32.5644,-54.4076,24.1394,-18432.9,16586.0,-1407.03,47.193,104.28,188.323,-170.705,-10556.3,-387.0,2.60209,-34.6927,75.6372,7080.3,-8165.21,-2690.14,27.4146,-85.0981,74.4867,14017.5,7269.66,853.713,21.6713,105.316,91.0654,6663.2,-815.794,-1546.46,54.267,-30.3871,26.8952
3.595,26533.8,7748.46,-559.742,-75.6405,92.2995,239.048,4813.98,2935.0,8232.32,32.4239,-55.135,23.895,-18912.6,16417.0,-1220.3,46.6656,103.218,184.506,-111.614,-10557.3,-351.578,2.97573,-34.0449,76.6525,7266.37,-8087.79,-2591.71,26.8659,-83.3769,74.5496,14537.3,7302.27,741.726,26.9544,96.096,88.8371,6779.07,-898.577,-1502.95,54.2352,-27.272,27.5307
3.596,26268.7,8300.07,-653.744,-78.3377,88.3027,239.205,4813.97,2909.03,8225.05,32.2294,-55.8261,23.6454,-19338.7,16268.4,-1019.02,45.9635,101.082,180.862,-59.8549,-10553.9,-308.199,3.26107,-33.2466,77.852,7453.31,-8006.88,-2491.68,26.285,-81.8165,74.6029,15078.7,7392.75,683.12,30.3556,86.0515,86.0794,6922.42,-955.914,-1433.53,53.5093,-24.189,28.078
3.597,25976.0,8764.03,-735.298,-80.905,83.6294,238.211,4838.26,2912.23,8213.21,31.9676,-56.4718,23.3893,-19697.7,16145.2,-799.526,45.0429,97.6049,177.434,-17.2606,-10544.8,-254.873,3.43604,-32.2601,79.282,7641.36,-7921.62,-2389.65,25.6639,-80.4571,74.6441,15646.9,7555.56,691.24,31.4042,74.9758,82.6599,7100.13,-981.442,-1331.72,51.9158,-21.1463,28.5151
3.598,25683.4,9227.98,-816.853,-83.4723,78.9562,237.217,4862.54,2915.43,8201.37,31.7058,-57.1176,23.1332,-20056.7,16022.1,-580.034,44.1224,94.1279,174.006,25.3337,-10535.8,-201.547,3.61101,-31.2737,80.712,7829.4,-7836.36,-2287.61,25.0428,-79.0977,74.6852,16215.1,7718.38,699.36,32.4529,63.9001,79.2405,7277.83,-1006.97,-1229.9,50.3223,-18.1035,28.9522
3.599,25390.7,9691.94,-898.407,-86.0396,74.283,236.223,4886.83,2918.63,8189.52,31.444,-57.7634,22.8771,-20415.7,15898.9,-360.542,43.2018,90.6508,170.578,67.928,-10526.7,-148.22,3.78598,-30.2872,82.1419,8017.45,-7751.1,-2185.58,24.4216,-77.7383,74.7264,16783.3,7881.19,707.48,33.5016,52.8244,75.8211,7455.53,-1032.5,-1128.09,48.7289,-15.0608,29.3893
3.6,25098.0,10155.9,-979.962,-88.6069,69.6097,235.228,4911.11,2921.84,8177.68,31.1822,-58.4091,22.621,-20774.7,15775.8,-141.049,42.2812,87.1737,167.15,110.522,-10517.7,-94.8936,3.96095,-29.3007,83.5719,8205.49,-7665.85,-2083.54,23.8005,-76.3789,74.7675,17351.5,8044.01,715.6,34.5503,41.7487,72.4016,7633.24,-1058.03,-1026.28,47.1354,-12.018,29.8264
3.601,25061.4,10551.5,-1403.06,-91.4034,66.1685,231.906,4920.45,2909.91,8235.87,30.8461,-59.1744,22.2418,-20804.4,15695.1,107.279,41.4025,81.3043,163.614,145.507,-10502.4,-55.9776,4.35074,-27.7149,85.0472,8385.11,-7611.14,-2002.97,23.2748,-75.3799,74.5131,17781.8,8266.79,805.124,31.4989,31.4084,68.5632,7802.87,-1116.22,-937.916,45.2004,-9.38573,29.9884
3.602,25024.8,10947.1,-1826.16,-94.1999,62.7273,228.583,4929.79,2897.98,8294.06,30.5099,-59.9396,21.8626,-20834.0,15614.3,355.607,40.5238,75.4348,160.078,180.493,-10487.0,-17.0615,4.74054,-26.1291,86.5224,8564.72,-7556.42,-1922.4,22.7491,-74.3808,74.2587,18212.1,8489.57,894.648,28.4475,21.0682,64.7248,7972.5,-1174.41,-849.554,43.2654,-6.75342,30.1505
3.603,24988.2,11342.6,-2249.26,-96.9964,59.286,225.26,4939.13,2886.05,8352.25,30.1737,-60.7048,21.4835,-20863.6,15533.6,603.935,39.6451,69.5653,156.542,215.478,-10471.7,21.8545,5.13033,-24.5433,87.9977,8744.33,-7501.71,-1841.83,22.2234,-73.3818,74.0043,18642.4,8712.35,984.172,25.3961,10.7279,60.8864,8142.13,-1232.6,-761.191,41.3304,-4.12111,30.3125
3.604,24951.5,11738.2,-2672.36,-99.7929,55.8448,221.937,4948.47,2874.12,8410.44,29.8375,-61.47,21.1043,-20893.3,15452.9,852.263,38.7665,63.6959,153.005,250.463,-10456.4,60.7706,5.52012,-22.9575,89.473,8923.94,-7447.0,-1761.25,21.6977,-72.3827,73.7499,19072.7,8935.13,1073.7,22.3447,0.3876,57.048,8311.75,-1290.79,-672.829,39.3953,-1.4888,30.4745
3.605,25238.6,12004.8,-3143.24,-101.301,53.1571,218.017,4958.76,2837.41,8441.27,29.5486,-62.2888,20.7323,-20898.7,15288.7,849.014,38.3493,58.391,148.739,285.557,-10451.8,103.611,6.01888,-21.3282,90.866,9080.42,-7388.7,-1692.07,21.1248,-71.4311,73.3187,19345.2,9164.56,1025.42,18.256,-7.25045,54.1258,8467.99,-1348.26,-624.589,38.2081,0.57698,30.3852
3.606,25784.6,12168.2,-3652.35,-101.777,51.0723,213.618,4969.81,2780.87,8450.23,29.2975,-63.1504,20.3661,-20884.7,15057.6,644.506,38.3012,53.538,143.89,320.738,-10455.9,149.591,6.60482,-19.664,92.1932,9218.38,-7327.53,-1631.98,20.5142,-70.5174,72.746,19491.4,9399.3,866.911,13.3375,-12.7267,51.9366,8613.51,-1405.16,-608.448,37.6191,2.18953,30.0947
3.607,26330.6,12331.5,-4161.46,-102.254,48.9875,209.219,4980.86,2724.32,8459.19,29.0463,-64.012,19.9999,-20870.7,14826.6,439.997,38.2532,48.6849,139.04,355.918,-10460.0,195.57,7.19075,-17.9998,93.5203,9356.34,-7266.37,-1571.9,19.9035,-69.6037,72.1734,19637.6,9634.05,708.4,8.41903,-18.203,49.7474,8759.03,-1462.06,-592.307,37.0301,3.80208,29.8042
3.608,26876.6,12494.9,-4670.56,-102.73,46.9027,204.821,4991.91,2667.78,8468.14,28.7952,-64.8736,19.6337,-20856.8,14595.6,235.488,38.2052,43.8318,134.19,391.099,-10464.1,241.55,7.77668,-16.3356,94.8475,9494.3,-7205.2,-1511.82,19.2928,-68.69,71.6008,19783.7,9868.8,549.889,3.50054,-23.6793,47.5583,8904.55,-1518.95,-576.166,36.441,5.41463,29.5137
3.609,27450.5,12606.5,-5161.33,-102.755,44.794,200.27,4998.12,2613.66,8482.71,28.5297,-65.7392,19.2521,-20847.3,14349.3,10.2646,38.1237,39.3176,129.197,429.913,-10466.4,285.505,8.34321,-14.6568,96.1918,9628.27,-7147.57,-1457.77,18.6855,-67.7703,70.9895,19891.7,10104.9,371.667,-1.33197,-28.3129,45.6637,9041.22,-1575.78,-564.615,36.1198,6.9446,29.188
3.61,28248.0,12304.2,-5505.34,-99.1672,42.4946,194.497,4965.63,2578.95,8542.16,28.1494,-66.6365,18.747,-20874.4,13981.9,-380.678,37.774,37.5152,123.062,497.788,-10454.5,313.264,8.75447,-12.8609,97.6734,9730.28,-7118.25,-1451.93,18.1052,-66.8017,70.0693,19694.5,10351.6,35.7576,-5.4766,-26.205,46.126,9107.11,-1632.05,-589.789,37.9407,7.81391,28.581
3.611,29045.4,12001.9,-5849.35,-95.579,40.1952,188.725,4933.15,2544.24,8601.6,27.7691,-67.5339,18.242,-20901.4,13614.4,-771.621,37.4242,35.7127,116.928,565.663,-10442.6,341.023,9.16574,-11.0651,99.1551,9832.29,-7088.94,-1446.1,17.5249,-65.8332,69.149,19497.3,10598.3,-300.152,-9.62122,-24.0971,46.5884,9172.99,-1688.32,-614.963,39.7615,8.68322,27.974
3.612,29842.8,11699.6,-6193.37,-91.9907,37.8958,182.953,4900.66,2509.53,8661.05,27.3888,-68.4312,17.737,-20928.5,13247.0,-1162.56,37.0745,33.9102,110.793,633.538,-10430.7,368.781,9.577,-9.26923,100.637,9934.3,-7059.62,-1440.26,16.9446,-64.8647,68.2287,19300.1,10845.1,-636.062,-13.7659,-21.9893,47.0507,9238.88,-1744.59,-640.137,41.5824,9.55253,27.3669
3.613,30640.3,11397.3,-6537.38,-88.4025,35.5964,177.181,4868.17,2474.82,8720.49,27.0086,-69.3286,17.232,-20955.5,12879.5,-1553.51,36.7248,32.1077,104.658,701.413,-10418.9,396.54,9.98827,-7.47339,102.118,10036.3,-7030.31,-1434.43,16.3643,-63.8961,67.3084,19102.9,11091.8,-971.971,-17.9105,-19.8814,47.513,9304.76,-1800.86,-665.31,43.4033,10.4218,26.7599
3.614,31176.5,11105.8,-6859.17,-83.4925,32.8464,170.759,4842.07,2487.56,8752.85,26.6138,-70.4801,16.81,-20880.8,12498.0,-1745.48,36.3585,30.999,98.2013,703.037,-10424.5,408.571,10.6159,-5.82527,103.677,10091.7,-7000.35,-1478.96,15.6461,-62.9153,66.2258,18754.7,11305.5,-1150.69,-20.9489,-14.2626,49.052,9408.23,-1792.12,-649.097,45.1467,10.8831,26.2247
3.615,31582.2,10819.6,-7169.84,-77.9217,29.8712,164.013,4819.16,2524.04,8771.65,26.2119,-71.7588,16.4295,-20755.2,12109.6,-1837.96,35.9839,30.2373,91.5838,671.536,-10438.9,412.739,11.3518,-4.25101,105.275,10123.8,-6970.06,-1548.68,14.859,-61.9282,65.062,18330.9,11502.7,-1250.8,-23.4342,-6.88848,51.1294,9530.5,-1750.88,-612.191,46.8513,11.1404,25.7255
3.616,31987.9,10533.5,-7480.52,-72.3508,26.896,157.267,4796.26,2560.51,8790.46,25.8099,-73.0375,16.049,-20629.6,11721.1,-1930.45,35.6093,29.4756,84.9662,640.034,-10453.3,416.907,12.0876,-2.67675,106.873,10155.9,-6939.78,-1618.41,14.072,-60.9412,63.8982,17907.2,11699.8,-1350.92,-25.9194,0.485684,53.2067,9652.77,-1709.64,-575.284,48.556,11.3977,25.2263
3.617,32393.5,10247.4,-7791.2,-66.78,23.9208,150.521,4773.36,2596.99,8809.26,25.4079,-74.3162,15.6685,-20504.0,11332.6,-2022.94,35.2347,28.7138,78.3486,608.533,-10467.7,421.075,12.8235,-1.10249,108.47,10188.0,-6909.5,-1688.13,13.2849,-59.9542,62.7344,17483.5,11897.0,-1451.04,-28.4047,7.85985,55.284,9775.04,-1668.4,-538.377,50.2606,11.655,24.727
3.618,32679.0,10037.8,-8058.22,-60.9748,20.6342,143.916,4760.83,2629.71,8823.11,25.0744,-75.5791,15.2979,-20370.3,10984.5,-2087.15,34.9341,28.0659,71.6405,578.303,-10487.3,418.167,13.5442,0.505716,110.067,10216.6,-6881.25,-1753.08,12.5285,-58.9295,61.5558,17035.6,12092.9,-1480.42,-30.5777,15.3989,57.5409,9910.94,-1617.44,-496.913,51.6477,11.8366,24.2868
3.619,32543.5,10096.1,-8172.48,-54.3495,16.258,137.806,4784.62,2649.3,8819.61,24.9803,-76.7866,14.9621,-20208.2,10778.0,-2052.44,34.8929,27.8162,64.6155,552.524,-10524.9,390.494,14.2121,2.23273,111.661,10232.8,-6860.09,-1801.35,11.8793,-57.7728,60.3255,16502.8,12284.3,-1262.24,-31.6575,23.5149,60.4264,10094.6,-1532.47,-439.5,51.9232,11.7529,24.0533
3.62,32408.1,10154.4,-8286.74,-47.7243,11.8819,131.695,4808.42,2668.89,8816.11,24.8862,-77.994,14.6264,-20046.0,10571.5,-2017.73,34.8517,27.5665,57.5904,526.744,-10562.6,362.822,14.8799,3.95975,113.254,10249.1,-6838.93,-1849.63,11.2301,-56.6161,59.0952,15970.1,12475.7,-1044.06,-32.7373,31.6309,63.3119,10278.2,-1447.49,-382.087,52.1987,11.6693,23.8197
3.621,32272.7,10212.8,-8401.0,-41.099,7.50567,125.585,4832.21,2688.48,8812.62,24.7922,-79.2015,14.2906,-19883.9,10364.9,-1983.01,34.8104,27.3168,50.5654,500.964,-10600.3,335.15,15.5477,5.68677,114.848,10265.3,-6817.77,-1897.9,10.5809,-55.4594,57.8648,15437.3,12667.1,-825.883,-33.8171,39.7469,66.1974,10461.8,-1362.52,-324.673,52.4743,11.5857,23.5862
3.622,32137.2,10271.1,-8515.26,-34.4737,3.12949,119.475,4856.0,2708.07,8809.12,24.6981,-80.409,13.9549,-19721.7,10158.4,-1948.3,34.7692,27.0672,43.5403,475.185,-10638.0,307.477,16.2156,7.41378,116.442,10281.6,-6796.62,-1946.18,9.93165,-54.3027,56.6345,14904.6,12858.5,-607.704,-34.8969,47.8629,69.0828,10645.5,-1277.55,-267.26,52.7498,11.502,23.3526
3.623,31655.8,10538.1,-8465.66,-28.1282,-1.71129,113.667,4907.68,2693.2,8807.91,24.7212,-81.6432,13.5925,-19544.3,10069.1,-1911.27,34.4591,27.1027,36.1521,425.72,-10695.1,299.262,16.7708,9.06251,117.952,10239.4,-6808.16,-1993.54,9.28773,-52.8419,55.4018,14318.0,12978.4,-258.28,-35.1862,53.3619,72.2746,10829.4,-1243.68,-237.471,52.1789,11.5458,23.4497
3.624,31075.5,10864.8,-8369.24,-21.8627,-6.68482,107.946,4967.33,2668.49,8807.35,24.7778,-82.8851,13.2225,-19362.5,10013.3,-1873.58,34.0722,27.2198,28.6601,369.488,-10757.7,296.606,17.2938,10.6889,119.438,10180.7,-6829.05,-2040.64,8.64531,-51.2943,54.1683,13716.0,13077.9,128.644,-35.2497,58.1132,75.5538,11013.5,-1224.41,-215.574,51.3662,11.6259,23.6413
3.625,30495.2,11191.5,-8272.82,-15.5972,-11.6583,102.224,5026.97,2643.78,8806.8,24.8344,-84.1269,12.8525,-19180.7,9957.56,-1835.9,33.6852,27.3369,21.1681,313.256,-10820.4,293.95,17.8168,12.3152,120.924,10121.9,-6849.94,-2087.74,8.00289,-49.7466,52.9349,13114.1,13177.4,515.567,-35.3131,62.8646,78.833,11197.6,-1205.14,-193.677,50.5535,11.706,23.8329
3.626,29914.9,11518.2,-8176.4,-9.33163,-16.6319,96.5029,5086.62,2619.07,8806.24,24.891,-85.3687,12.4825,-18998.9,9901.79,-1798.21,33.2983,27.4539,13.6761,257.025,-10883.0,291.294,18.3398,13.9416,122.411,10063.1,-6870.83,-2134.85,7.36048,-48.1989,51.7015,12512.1,13276.9,902.49,-35.3766,67.6159,82.1123,11381.7,-1185.88,-171.781,49.7408,11.7861,24.0245
3.627,29306.2,11819.9,-8026.68,-3.71789,-21.5149,90.6405,5135.9,2612.88,8808.51,24.935,-86.6082,12.1236,-18827.9,9882.26,-1767.87,32.7822,27.7685,6.2468,216.882,-10932.0,269.076,18.8034,15.476,123.913,9996.31,-6895.64,-2174.02,6.75038,-46.5978,50.5273,11922.3,13333.9,1273.9,-35.1777,70.8039,85.4016,11545.3,-1174.28,-160.039,49.2506,11.7666,24.2152
3.628,28640.6,12071.6,-7770.36,0.59226,-26.2169,84.4961,5164.44,2643.73,8816.4,24.954,-87.8431,11.7871,-18678.6,9935.19,-1752.24,32.0078,28.478,-1.05693,208.918,-10953.5,207.735,19.1481,16.8264,125.449,9913.53,-6928.29,-2197.35,6.20492,-44.8896,49.4714,11357.0,13305.8,1614.29,-34.454,70.8652,88.711,11667.9,-1178.02,-168.607,49.4055,11.5481,24.4039
3.629,27975.1,12323.3,-7514.04,4.90241,-30.9189,78.3518,5192.98,2674.57,8824.3,24.973,-89.0781,11.4506,-18529.3,9988.13,-1736.61,31.2334,29.1876,-8.36066,200.955,-10975.1,146.393,19.4929,18.1768,126.985,9830.76,-6960.94,-2220.68,5.65945,-43.1814,48.4155,10791.6,13277.7,1954.69,-33.7303,70.9265,92.0204,11790.4,-1181.76,-177.176,49.5604,11.3296,24.5927
3.63,27309.5,12575.0,-7257.72,9.21256,-35.6209,72.2074,5221.52,2705.42,8832.2,24.992,-90.313,11.1141,-18380.0,10041.1,-1720.97,30.459,29.8971,-15.6644,192.991,-10996.6,85.0517,19.8376,19.5273,128.521,9747.99,-6993.6,-2244.01,5.11399,-41.4732,47.3596,10226.2,13249.6,2295.08,-33.0066,70.9877,95.3298,11913.0,-1185.5,-185.744,49.7153,11.1111,24.7814
3.631,26644.0,12826.7,-7001.4,13.5227,-40.3229,66.063,5250.05,2736.26,8840.09,25.011,-91.5479,10.7776,-18230.7,10094.0,-1705.34,29.6845,30.6067,-22.9681,185.027,-11018.2,23.7102,20.1824,20.8777,130.057,9665.22,-7026.25,-2267.34,4.56853,-39.765,46.3036,9660.86,13221.5,2635.47,-32.2828,71.049,98.6392,12035.6,-1189.24,-194.313,49.8701,10.8925,24.9702
3.632,26116.3,12889.5,-6713.18,15.9043,-43.8792,59.8452,5206.31,2842.6,8848.71,25.1158,-92.9624,10.7835,-18125.2,10145.6,-1664.81,28.9823,32.1148,-29.5971,157.879,-11034.4,-35.1647,20.3413,21.9782,131.684,9529.24,-7096.82,-2261.88,3.85608,-38.0389,45.4056,9207.25,13106.0,2854.27,-30.7683,67.7981,101.752,12133.7,-1221.2,-225.728,50.7406,10.041,24.9648
3.633,25605.9,12928.7,-6420.96,18.0448,-47.2922,53.6182,5153.53,2958.38,8857.41,25.2313,-94.3994,10.8321,-18025.1,10197.1,-1621.17,28.2892,33.7228,-36.1417,128.332,-11049.9,-93.7314,20.4771,23.0473,133.321,9386.61,-7172.13,-2252.82,3.12276,-36.3105,44.5273,8767.6,12979.6,3057.86,-29.155,64.1331,104.839,12228.6,-1256.7,-260.0,51.7005,9.11036,24.9353
3.634,25095.5,12967.8,-6128.75,20.1854,-50.7053,47.3911,5100.75,3074.16,8866.11,25.3469,-95.8364,10.8807,-17925.1,10248.5,-1577.53,27.596,35.3308,-42.6864,98.7857,-11065.4,-152.298,20.6128,24.1165,134.959,9243.98,-7247.45,-2243.76,2.38944,-34.5821,43.649,8327.95,12853.3,3261.45,-27.5417,60.4682,107.927,12323.6,-1292.19,-294.271,52.6605,8.17971,24.9057
3.635,24585.2,13007.0,-5836.53,22.3259,-54.1184,41.1641,5047.97,3189.94,8874.81,25.4624,-97.2734,10.9294,-17825.0,10300.0,-1533.88,26.9028,36.9387,-49.231,69.2393,-11080.9,-210.865,20.7485,25.1857,136.597,9101.35,-7322.76,-2234.71,1.65612,-32.8537,42.7707,7888.31,12726.9,3465.05,-25.9283,56.8032,111.015,12418.5,-1327.68,-328.543,53.6204,7.24906,24.8761
3.636,24206.0,12947.6,-5523.09,23.7494,-57.0905,35.2068,5005.49,3282.91,8892.92,25.6677,-98.69,11.0048,-17707.4,10346.1,-1491.7,26.3159,38.6647,-55.3104,55.1698,-11120.8,-268.602,20.9284,26.1583,138.096,8950.36,-7416.51,-2237.31,1.01433,-31.25,41.9392,7537.17,12550.8,3583.9,-24.1101,52.4059,113.94,12478.4,-1333.87,-375.37,54.4329,6.4207,25.0461
3.637,23990.9,12765.0,-5183.11,24.2767,-59.5112,29.5867,4975.9,3347.37,8922.78,25.985,-100.081,11.1137,-17567.8,10385.7,-1451.33,25.8618,40.5381,-60.8084,60.4465,-11191.2,-325.302,21.1635,27.0102,139.423,8788.92,-7533.32,-2254.48,0.486964,-29.802,41.1662,7296.68,12312.5,3596.82,-22.0357,47.0932,116.662,12494.4,-1303.43,-437.894,55.0612,5.7202,25.4655
3.638,23775.8,12582.4,-4843.12,24.8039,-61.9319,23.9666,4946.31,3411.83,8952.65,26.3024,-101.472,11.2225,-17428.2,10425.3,-1410.96,25.4077,42.4116,-66.3063,65.7232,-11261.6,-382.002,21.3986,27.8622,140.749,8627.48,-7650.12,-2271.65,-0.0404058,-28.354,40.3932,7056.19,12074.2,3609.74,-19.9613,41.7805,119.384,12510.5,-1273.0,-500.417,55.6894,5.0197,25.8849
3.639,23560.8,12399.8,-4503.14,25.3312,-64.3527,18.3465,4916.72,3476.29,8982.51,26.6198,-102.864,11.3313,-17288.6,10464.9,-1370.59,24.9536,44.285,-71.8043,70.9999,-11332.0,-438.702,21.6337,28.7141,142.076,8466.04,-7766.93,-2288.82,-0.567776,-26.9061,39.6202,6815.7,11836.0,3622.66,-17.8869,36.4677,122.105,12526.6,-1242.56,-562.94,56.3177,4.3192,26.3044
3.64,23345.7,12217.2,-4163.16,25.8584,-66.7734,12.7263,4887.12,3540.76,9012.37,26.9372,-104.255,11.4402,-17149.0,10504.5,-1330.22,24.4994,46.1584,-77.3023,76.2766,-11402.4,-495.402,21.8689,29.566,143.402,8304.6,-7883.73,-2305.99,-1.09515,-25.4581,38.8472,6575.21,11597.7,3635.58,-15.8125,31.155,124.827,12542.6,-1212.13,-625.464,56.946,3.61871,26.7238
3.641,23348.3,11903.4,-3916.82,25.692,-68.8311,8.19511,4858.91,3626.03,9026.61,27.3607,-105.952,11.9792,-17000.4,10546.1,-1305.93,24.3279,48.0861,-81.9906,2.92416,-11495.2,-571.117,22.0643,30.1897,144.852,8171.75,-8045.47,-2300.05,-1.01748,-24.1989,38.1411,6432.03,11348.3,3558.29,-14.1144,25.8462,126.824,12638.5,-1234.55,-597.521,54.5066,2.25716,27.36
3.642,23350.9,11589.5,-3670.49,25.5256,-70.8887,3.66388,4830.7,3711.31,9040.85,27.7841,-107.65,12.5182,-16851.7,10587.7,-1281.65,24.1563,50.0137,-86.6789,-70.4282,-11588.0,-646.832,22.2597,30.8134,146.302,8038.9,-8207.2,-2294.11,-0.939818,-22.9397,37.435,6288.84,11098.9,3481.0,-12.4162,20.5375,128.821,12734.5,-1256.97,-569.579,52.0671,0.895613,27.9962
3.643,23353.5,11275.7,-3424.16,25.3592,-72.9464,-0.867351,4802.49,3796.58,9055.08,28.2076,-109.347,13.0572,-16703.1,10629.3,-1257.37,23.9847,51.9413,-91.3672,-143.781,-11680.8,-722.546,22.4551,31.437,147.751,7906.05,-8368.93,-2288.17,-0.862154,-21.6804,36.7289,6145.66,10849.5,3403.71,-10.7181,15.2287,130.817,12830.4,-1279.38,-541.636,49.6277,-0.465933,28.6323
3.644,23356.2,10961.9,-3177.83,25.1927,-75.004,-5.39858,4774.28,3881.86,9069.32,28.6311,-111.045,13.5962,-16554.5,10671.0,-1233.08,23.8131,53.8689,-96.0555,-217.133,-11773.7,-798.261,22.6505,32.0607,149.201,7773.21,-8530.67,-2282.23,-0.78449,-20.4212,36.0228,6002.48,10600.1,3326.43,-9.02,9.91997,132.814,12926.4,-1301.8,-513.693,47.1883,-1.82748,29.2685
3.645,23397.8,10571.7,-2918.33,25.5089,-76.9731,-9.32006,4770.6,3947.53,9087.47,29.1745,-112.849,14.2534,-16410.8,10732.5,-1200.14,23.6579,55.5293,-100.508,-306.41,-11881.5,-854.803,22.7937,32.5631,150.503,7648.95,-8680.57,-2290.8,-0.596572,-19.2379,35.2558,5899.06,10423.5,3142.46,-7.43701,5.60739,134.555,12984.7,-1308.53,-539.82,43.6758,-3.03476,30.077
3.646,23470.7,10120.2,-2648.32,26.2112,-78.8713,-12.7537,4786.54,3997.53,9108.75,29.8139,-114.738,15.0052,-16271.1,10810.1,-1160.27,23.5156,56.9757,-104.771,-408.428,-12001.2,-896.007,22.8951,32.9685,151.686,7531.57,-8821.0,-2310.99,-0.320452,-18.1154,34.4401,5827.44,10305.1,2873.16,-5.94613,2.09176,136.092,13012.9,-1302.72,-609.202,39.3048,-4.11863,31.0234
3.647,23543.5,9668.77,-2378.3,26.9135,-80.7695,-16.1874,4802.48,4047.52,9130.03,30.4532,-116.627,15.757,-16131.4,10887.6,-1120.41,23.3733,58.4222,-109.035,-510.445,-12121.0,-937.211,22.9966,33.3739,152.869,7414.2,-8961.44,-2331.18,-0.0443321,-16.993,33.6243,5755.82,10186.7,2603.86,-4.45525,-1.42388,137.629,13041.2,-1296.9,-678.584,34.9338,-5.20249,31.9698
3.648,23616.4,9217.32,-2108.28,27.6158,-82.6678,-19.6211,4818.41,4097.52,9151.31,31.0926,-118.516,16.5087,-15991.7,10965.2,-1080.54,23.2311,59.8687,-113.298,-612.463,-12240.8,-978.415,23.0981,33.7792,154.053,7296.82,-9101.88,-2351.37,0.231788,-15.8705,32.8086,5684.21,10068.4,2334.56,-2.96437,-4.93951,139.166,13069.4,-1291.08,-747.966,30.5629,-6.28636,32.9162
3.649,23685.7,8760.76,-1842.4,28.4253,-84.4936,-23.0007,4837.41,4147.16,9176.79,31.7627,-120.411,17.2587,-15862.5,11047.6,-1042.36,23.0879,61.1942,-117.529,-712.397,-12356.3,-1014.55,23.1982,34.1157,155.227,7179.88,-9232.63,-2374.41,0.551443,-14.7126,32.0098,5619.35,9960.94,2057.08,-1.54886,-8.14703,140.66,13089.3,-1293.85,-833.129,26.2742,-7.30084,33.8309
3.65,23726.0,8263.28,-1609.64,30.0931,-85.7404,-25.9472,4880.83,4193.98,9235.94,32.6789,-122.349,17.9946,-15817.8,11168.7,-1017.65,22.9371,61.5515,-121.499,-795.661,-12437.8,-1010.11,23.2879,33.9011,156.333,7066.46,-9285.87,-2420.25,1.21938,-13.2716,31.3475,5608.57,9941.17,1714.2,-0.736285,-8.88962,141.809,13042.0,-1365.35,-1044.54,22.6443,-7.76025,34.4917
3.651,23766.4,7765.8,-1376.88,31.7608,-86.9871,-28.8938,4924.25,4240.8,9295.09,33.5951,-124.288,18.7305,-15773.1,11289.8,-992.934,22.7862,61.9088,-125.468,-878.926,-12519.3,-1005.68,23.3776,33.6865,157.44,6953.04,-9339.12,-2466.08,1.88731,-11.8306,30.6851,5597.79,9921.4,1371.32,0.0762919,-9.6322,142.959,12994.8,-1436.85,-1255.95,19.0143,-8.21967,35.1525
3.652,23806.8,7268.32,-1144.12,33.4286,-88.2339,-31.8403,4967.67,4287.62,9354.23,34.5113,-126.226,19.4664,-15728.3,11410.8,-968.221,22.6354,62.2661,-129.438,-962.191,-12600.9,-1001.24,23.4672,33.4719,158.546,6839.62,-9392.37,-2511.92,2.55524,-10.3896,30.0227,5587.0,9901.63,1028.44,0.888869,-10.3748,144.108,12947.5,-1508.35,-1467.36,15.3844,-8.67908,35.8133
3.653,23847.2,6770.84,-911.367,35.0964,-89.4806,-34.7869,5011.08,4334.44,9413.38,35.4275,-128.165,20.2022,-15683.6,11531.9,-943.508,22.4846,62.6234,-133.407,-1045.46,-12682.4,-996.804,23.5569,33.2572,159.652,6726.2,-9445.61,-2557.75,3.22317,-8.94859,29.3603,5576.22,9881.86,685.562,1.70145,-11.1174,145.258,12900.2,-1579.85,-1678.77,11.7545,-9.1385,36.4741
3.654,23793.8,6330.78,-673.769,36.5964,-90.191,-37.5768,5035.71,4355.35,9445.03,36.2896,-130.239,21.0264,-15666.1,11654.1,-920.531,22.3862,62.092,-137.031,-1130.67,-12796.7,-1009.88,23.6028,32.9152,160.621,6621.31,-9481.82,-2624.42,3.98432,-7.50854,28.8379,5599.95,9898.57,316.165,1.86159,-9.77873,145.76,12814.7,-1675.76,-1906.87,9.03066,-9.49937,36.9455
3.655,23693.6,5919.43,-433.751,38.0126,-90.6331,-40.2883,5050.93,4363.31,9462.93,37.1247,-132.38,21.8947,-15662.2,11776.9,-898.42,22.3142,61.1162,-140.482,-1216.86,-12927.3,-1031.72,23.6268,32.5094,161.521,6520.69,-9509.5,-2701.5,4.79208,-6.06896,28.3854,5640.93,9933.52,-66.49,1.69553,-7.39947,145.938,12710.1,-1783.88,-2143.32,6.75993,-9.81097,37.3221
3.656,23593.4,5508.09,-193.732,39.4288,-91.0753,-42.9998,5066.15,4371.27,9480.84,37.9598,-134.521,22.763,-15658.3,11899.7,-876.31,22.2421,60.1404,-143.934,-1303.05,-13057.9,-1053.55,23.6508,32.1036,162.421,6420.07,-9537.18,-2778.58,5.59984,-4.62938,27.933,5681.92,9968.47,-449.145,1.52947,-5.0202,146.116,12605.4,-1892.0,-2379.77,4.4892,-10.1226,37.6987
3.657,23493.2,5096.74,46.286,40.845,-91.5175,-45.7113,5081.38,4379.23,9498.74,38.7949,-136.662,23.6313,-15654.4,12022.4,-854.199,22.17,59.1646,-147.385,-1389.24,-13188.5,-1075.38,23.6748,31.6978,163.322,6319.45,-9564.86,-2855.66,6.40759,-3.18981,27.4805,5722.9,10003.4,-831.801,1.3634,-2.64094,146.294,12500.8,-2000.12,-2616.22,2.21846,-10.4342,38.0753
3.658,23371.1,4721.38,284.085,42.144,-91.9266,-48.4124,5095.19,4373.69,9516.53,39.6563,-138.835,24.4077,-15632.1,12144.4,-836.413,22.1339,57.8683,-150.68,-1472.39,-13314.1,-1091.41,23.6957,31.217,164.185,6216.53,-9591.37,-2924.88,7.24248,-1.76725,27.1102,5768.53,10034.6,-1221.15,0.840498,0.379978,146.135,12377.9,-2074.73,-2832.57,0.100386,-10.6826,38.3043
3.659,23172.6,4471.97,514.114,43.0329,-92.22,-51.0768,5104.03,4320.89,9533.9,40.6094,-141.118,24.8625,-15545.4,12263.7,-833.763,22.2238,55.4503,-153.428,-1544.92,-13422.5,-1087.11,23.7054,30.4737,164.921,6105.56,-9613.73,-2966.59,8.1723,-0.404236,27.027,5830.43,10052.8,-1633.92,-0.931335,5.6467,144.799,12191.2,-2032.07,-2978.58,-1.48338,-10.71,38.0167
3.66,22974.0,4222.55,744.144,43.9218,-92.5134,-53.7413,5112.87,4268.1,9551.28,41.5626,-143.401,25.3173,-15458.6,12383.0,-831.112,22.3137,53.0322,-156.177,-1617.45,-13530.8,-1082.81,23.7151,29.7305,165.657,5994.6,-9636.09,-3008.3,9.10211,0.958775,26.9439,5892.33,10070.9,-2046.7,-2.70317,10.9134,143.463,12004.5,-1989.41,-3124.58,-3.06715,-10.7374,37.7291
3.661,22775.5,3973.14,974.174,44.8106,-92.8068,-56.4057,5121.72,4215.3,9568.65,42.5157,-145.685,25.772,-15371.9,12502.3,-828.462,22.4036,50.6142,-158.925,-1689.97,-13639.2,-1078.51,23.7249,28.9872,166.393,5883.63,-9658.45,-3050.01,10.0319,2.32179,26.8607,5954.22,10089.1,-2459.47,-4.475,16.1802,142.128,11817.8,-1946.75,-3270.59,-4.65091,-10.7648,37.4415
3.662,22576.9,3723.72,1204.2,45.6995,-93.1002,-59.0701,5130.56,4162.51,9586.03,43.4689,-147.968,26.2268,-15285.1,12621.5,-825.812,22.4935,48.1962,-161.673,-1762.5,-13747.5,-1074.21,23.7346,28.244,167.129,5772.66,-9680.82,-3091.72,10.9618,3.6848,26.7776,6016.12,10107.2,-2872.25,-6.24684,21.4469,140.792,11631.1,-1904.09,-3416.59,-6.23468,-10.7922,37.1539
3.663,22327.6,3527.28,1309.31,45.2588,-93.3003,-62.4746,5108.51,4155.9,9607.58,44.8486,-150.329,27.1287,-14956.0,12753.7,-832.92,22.5819,44.9691,-163.667,-1862.36,-13861.3,-1063.42,23.7721,27.4493,167.794,5665.5,-9714.17,-3100.6,11.7736,4.7675,26.947,6116.93,10099.9,-3352.9,-9.34977,29.494,138.066,11447.9,-1856.47,-3446.45,-8.04513,-11.3086,36.6961
3.664,22063.6,3345.96,1378.73,44.4382,-93.4737,-66.0905,5077.64,4162.48,9630.33,46.3502,-152.711,28.1584,-14557.6,12889.6,-842.816,22.6699,41.5109,-165.445,-1970.03,-13976.7,-1050.78,23.8174,26.64,168.438,5559.43,-9750.67,-3100.1,12.5517,5.77011,27.1886,6228.86,10085.2,-3852.94,-12.833,38.3355,134.943,11265.7,-1807.43,-3443.13,-9.92036,-11.9647,36.1896
3.665,21799.7,3164.65,1448.14,43.6176,-93.6472,-69.7064,5046.76,4169.06,9653.08,47.8519,-155.094,29.188,-14159.2,13025.5,-852.713,22.7579,38.0527,-167.223,-2077.71,-14092.0,-1038.13,23.8628,25.8307,169.083,5453.36,-9787.16,-3099.6,13.3298,6.77273,27.4302,6340.79,10070.5,-4352.99,-16.3163,47.177,131.821,11083.6,-1758.39,-3439.8,-11.7956,-12.6207,35.6832
3.666,21535.8,2983.33,1517.56,42.797,-93.8206,-73.3223,5015.89,4175.65,9675.84,49.3535,-157.476,30.2177,-13760.8,13161.4,-862.609,22.8459,34.5945,-169.001,-2185.38,-14207.4,-1025.49,23.9082,25.0214,169.727,5347.29,-9823.65,-3099.11,14.1079,7.77534,27.6717,6452.72,10055.8,-4853.03,-19.7995,56.0184,128.698,10901.4,-1709.35,-3436.48,-13.6708,-13.2768,35.1767
3.667,21404.7,2891.35,880.392,42.1025,-92.3991,-79.0511,5008.86,4185.44,9707.58,50.7985,-159.873,31.1726,-13129.3,13312.7,-833.115,22.3971,31.4376,-170.51,-2278.34,-14312.5,-1008.13,23.953,24.1202,170.354,5245.23,-9860.14,-3098.54,14.8172,8.74454,27.9621,6547.29,10022.4,-5365.14,-23.2935,65.762,125.003,10738.5,-1675.54,-3372.28,-15.3561,-13.9137,34.6003
3.668,21539.1,2978.01,-1169.93,41.6602,-87.7875,-89.0058,5049.54,4201.65,9757.33,52.1304,-162.299,31.9781,-12031.5,13495.0,-724.842,20.8748,28.8835,-171.483,-2341.87,-14397.3,-981.354,23.9969,23.0352,170.946,5151.2,-9896.63,-3097.84,15.3888,9.64692,28.3501,6607.16,9951.64,-5901.37,-26.8091,77.3098,120.164,10613.9,-1672.18,-3186.31,-16.6617,-14.5125,33.884
3.669,21673.4,3064.68,-3220.25,41.2179,-83.176,-98.9606,5090.21,4217.85,9807.07,53.4622,-164.725,32.7835,-10933.7,13677.3,-616.569,19.3525,26.3293,-172.455,-2405.4,-14482.1,-954.574,24.0407,21.9502,171.538,5057.18,-9933.11,-3097.14,15.9605,10.5493,28.7381,6667.02,9880.88,-6437.6,-30.3247,88.8576,115.325,10489.4,-1668.81,-3000.35,-17.9673,-15.1113,33.1677
3.67,21807.8,3151.34,-5270.58,40.7756,-78.5645,-108.915,5130.89,4234.06,9856.82,54.794,-167.151,33.589,-9835.93,13859.6,-508.296,17.8303,23.7751,-173.427,-2468.92,-14567.0,-927.795,24.0846,20.8652,172.13,4963.15,-9969.59,-3096.45,16.5321,11.4517,29.1261,6726.89,9810.12,-6973.83,-33.8403,100.405,110.486,10364.9,-1665.45,-2814.39,-19.2729,-15.7101,32.4514
3.671,21942.2,3238.01,-7320.9,40.3334,-73.953,-118.87,5171.56,4250.27,9906.56,56.1259,-169.577,34.3945,-8738.14,14041.9,-400.023,16.308,21.221,-174.399,-2532.45,-14651.8,-901.016,24.1284,19.7802,172.722,4869.12,-10006.1,-3095.75,17.1038,12.354,29.5141,6786.75,9739.35,-7510.06,-37.3558,111.953,105.647,10240.3,-1662.09,-2628.43,-20.5784,-16.3089,31.7351
3.672,21482.3,3447.6,-8097.64,65.9975,-85.5002,-130.85,5160.44,4249.63,9919.88,57.4209,-172.24,35.1375,-6645.56,14264.2,-511.459,12.6393,23.636,-175.745,-2537.96,-14711.7,-859.625,24.054,18.569,173.237,4796.28,-10031.0,-3125.61,17.5846,13.0243,29.9217,6803.94,9582.24,-7915.37,-42.3588,124.422,99.3989,10290.7,-1634.99,-2193.29,-19.0025,-16.6749,31.5489
3.673,20948.2,3672.56,-8715.19,94.925,-99.0672,-143.082,5142.85,4246.88,9928.64,58.7112,-174.933,35.8728,-4428.64,14491.5,-650.358,8.70236,26.6722,-177.138,-2536.22,-14768.4,-816.408,23.9648,17.3419,173.742,4726.09,-10054.5,-3159.28,18.054,13.6656,30.3318,6815.79,9414.33,-8304.32,-47.5478,137.005,92.9742,10362.9,-1604.91,-1727.0,-17.0663,-17.0118,31.4289
3.674,20414.1,3897.51,-9332.74,123.852,-112.634,-155.315,5125.25,4244.13,9937.41,60.0016,-177.626,36.6081,-2211.71,14718.8,-789.257,4.76539,29.7083,-178.53,-2534.48,-14825.2,-773.191,23.8756,16.1149,174.248,4655.9,-10078.0,-3192.96,18.5235,14.3068,30.7419,6827.64,9246.42,-8693.26,-52.7367,149.588,86.5495,10435.1,-1574.84,-1260.7,-15.1302,-17.3487,31.3089
3.675,19879.9,4122.47,-9950.28,152.78,-126.201,-167.547,5107.65,4241.38,9946.17,61.292,-180.319,37.3434,5.21319,14946.0,-928.157,0.828425,32.7445,-179.922,-2532.74,-14882.0,-729.974,23.7863,14.8879,174.753,4585.71,-10101.6,-3226.64,18.9929,14.9481,31.1519,6839.49,9078.51,-9082.21,-57.9256,162.172,80.1248,10507.4,-1544.77,-794.413,-13.194,-17.6856,31.1889
3.676,17310.1,4588.37,-8627.98,191.328,-163.392,-189.28,5083.21,4256.83,9958.46,62.6332,-183.153,38.1025,2697.49,15192.5,-1357.64,-3.28719,40.289,-181.974,-2520.36,-14922.5,-668.153,23.8248,13.6435,175.241,4521.25,-10137.3,-3295.09,19.2464,15.3747,31.4697,6786.87,8904.58,-9293.65,-65.0898,175.291,73.3401,10707.2,-1470.21,-214.387,-11.383,-17.174,31.9337
3.677,12195.6,5355.45,-4880.87,241.9,-230.111,-222.889,5050.21,4295.04,9975.15,64.0379,-186.164,38.8914,5983.96,15462.9,-2150.35,-7.62612,53.4687,-184.851,-2494.7,-14942.7,-583.077,24.0228,12.3772,175.707,4463.94,-10188.3,-3407.01,19.2301,15.5329,31.6721,6653.66,8723.14,-9283.24,-74.7228,189.081,66.1054,11066.6,-1340.06,507.808,-9.72836,-15.6018,33.7594
3.678,7081.19,6122.52,-1133.76,292.473,-296.831,-256.498,5017.21,4333.24,9991.84,65.4426,-189.175,39.6803,9270.43,15733.3,-2943.07,-11.9651,66.6484,-187.728,-2469.03,-14963.0,-498.001,24.2207,11.111,176.173,4406.64,-10239.3,-3518.93,19.2138,15.6912,31.8745,6520.45,8541.7,-9272.82,-84.3559,202.871,58.8707,11426.0,-1209.9,1230.0,-8.07372,-14.0297,35.5851
3.679,1966.74,6889.6,2613.35,343.046,-363.55,-290.106,4984.21,4371.45,10008.5,66.8472,-192.186,40.4692,12556.9,16003.7,-3735.78,-16.304,79.8282,-190.605,-2443.37,-14983.2,-412.924,24.4187,9.84474,176.64,4349.33,-10290.3,-3630.85,19.1974,15.8495,32.0769,6387.25,8360.26,-9262.4,-93.9889,216.661,51.636,11785.4,-1079.74,1952.2,-6.41907,-12.4575,37.4108
3.68,-3147.7,7656.68,6360.46,393.618,-430.27,-323.715,4951.21,4409.65,10025.2,68.2519,-195.197,41.2581,15843.4,16274.1,-4528.49,-20.6429,93.0079,-193.481,-2417.7,-15003.4,-327.848,24.6167,8.5785,177.106,4292.03,-10341.3,-3742.77,19.1811,16.0078,32.2793,6254.04,8178.82,-9251.99,-103.622,230.451,44.4013,12144.8,-949.584,2674.39,-4.76443,-10.8853,39.2366
3.681,-7749.64,5412.05,5169.39,401.954,-456.881,-377.546,4950.67,4353.65,10160.9,69.8378,-198.383,41.9718,17315.8,17498.3,-3423.42,-19.1869,97.1623,-198.875,-2331.69,-15062.3,-196.377,25.1179,7.62235,177.523,4293.55,-10357.3,-3871.99,18.3511,15.4958,32.6394,5959.91,7951.95,-7961.62,-108.539,239.36,36.2284,12527.6,-334.307,2754.63,-17.9038,-5.32594,43.5149
3.682,-12351.6,3167.41,3978.33,410.289,-483.493,-431.377,4950.14,4297.64,10296.5,71.4237,-201.569,42.6855,18788.2,18722.5,-2318.35,-17.731,101.317,-204.269,-2245.68,-15121.2,-64.9051,25.6191,6.6662,177.939,4295.07,-10373.4,-4001.21,17.5211,14.9838,32.9996,5665.79,7725.08,-6671.24,-113.456,248.268,28.0555,12910.4,280.971,2834.88,-31.0431,0.23346,47.7932
3.683,-16953.5,922.779,2787.26,418.624,-510.104,-485.208,4949.6,4241.63,10432.1,73.0095,-204.755,43.3992,20260.5,19946.8,-1213.27,-16.275,105.471,-209.663,-2159.67,-15180.0,66.5664,26.1202,5.71005,178.356,4296.59,-10389.4,-4130.42,16.6911,14.4718,33.3597,5371.66,7498.21,-5380.87,-118.373,257.177,19.8827,13293.2,896.249,2915.12,-44.1824,5.79286,52.0715
3.684,-21555.5,-1321.85,1596.2,426.96,-536.716,-539.04,4949.07,4185.62,10567.7,74.5954,-207.941,44.1129,21732.9,21171.0,-108.197,-14.819,109.625,-215.057,-2073.66,-15238.9,198.038,26.6214,4.7539,178.773,4298.11,-10405.5,-4259.64,15.8611,13.9599,33.7199,5077.54,7271.33,-4090.5,-123.29,266.086,11.7098,13676.0,1511.53,2995.37,-57.3217,11.3523,56.3498
3.685,-22497.1,-2046.38,2958.55,418.89,-543.05,-569.03,4937.75,4124.13,10734.2,75.5355,-211.596,44.4656,20361.1,23069.0,1010.77,-11.739,107.921,-221.152,-2015.71,-15343.4,308.81,27.1544,4.22699,179.047,4350.33,-10407.7,-4299.04,14.6845,12.9584,34.1558,4804.83,7169.43,-2452.84,-118.842,269.32,2.09054,13970.4,2052.81,2894.67,-75.9875,16.6736,60.2926
3.686,-20510.6,-1554.83,6363.64,397.696,-533.163,-579.948,4917.8,4058.27,10925.3,75.9588,-215.626,44.5294,16713.9,25506.1,2140.85,-7.35959,101.53,-227.807,-1980.21,-15484.4,403.021,27.713,4.04346,179.207,4443.1,-10398.9,-4266.58,13.2306,11.5653,34.6522,4549.26,7167.5,-537.349,-106.902,268.014,-8.68574,14194.2,2534.9,2649.21,-99.0744,21.8046,63.9672
3.687,-18524.0,-1063.28,9768.72,376.502,-523.276,-590.865,4897.86,3992.4,11116.4,76.3822,-219.657,44.5932,13066.6,27943.1,3270.92,-2.98022,95.1383,-234.462,-1944.7,-15625.4,497.233,28.2715,3.85993,179.367,4535.88,-10390.1,-4234.12,11.7768,10.1722,35.1487,4293.68,7165.56,1378.14,-94.9629,266.709,-19.462,14418.0,3016.99,2403.76,-122.161,26.9355,67.6417
3.688,-16537.4,-571.728,13173.8,355.308,-513.389,-601.783,4877.92,3926.53,11307.5,76.8055,-223.687,44.6571,9419.4,30380.2,4401.0,1.39915,88.7469,-241.118,-1909.2,-15766.5,591.445,28.8301,3.67641,179.527,4628.65,-10381.3,-4201.67,10.3229,8.77916,35.6452,4038.11,7163.63,3293.63,-83.0234,265.403,-30.2383,14641.7,3499.09,2158.3,-145.248,32.0665,71.3162
3.689,-13865.3,0.531689,16566.5,332.704,-499.164,-607.768,4851.78,3879.21,11490.3,77.1442,-227.817,44.7476,5629.41,32592.8,5298.32,5.46299,84.3641,-247.729,-1874.35,-15914.3,670.453,29.4006,3.49178,179.669,4730.8,-10386.7,-4154.77,8.88371,7.32798,36.1479,3791.95,7240.78,5098.91,-70.0466,263.643,-41.0812,14850.3,3940.92,1945.26,-166.726,36.6229,74.7593
3.69,-5709.32,1218.45,19860.2,298.815,-450.243,-574.294,4776.17,3980.2,11606.3,76.805,-232.74,45.0524,697.342,33009.5,4333.62,7.00251,96.0499,-253.987,-1844.77,-16116.5,627.827,30.0664,3.29834,179.671,4907.96,-10505.1,-3992.34,7.56153,5.412,36.7003,3621.07,7950.59,6022.49,-48.7717,258.252,-52.4569,14937.7,4060.66,1991.54,-175.332,36.5831,76.351
3.691,2446.71,2436.37,23153.9,264.926,-401.321,-540.821,4700.55,4081.19,11722.2,76.4659,-237.663,45.3571,-4234.72,33426.2,3368.93,8.54204,107.736,-260.245,-1815.2,-16318.8,585.2,30.7323,3.1049,179.673,5085.11,-10623.6,-3829.91,6.23935,3.49601,37.2527,3450.19,8660.39,6946.06,-27.4968,252.861,-63.8327,15025.1,4180.41,2037.81,-183.937,36.5433,77.9428
3.692,10602.7,3654.29,26447.7,231.038,-352.4,-507.348,4624.93,4182.19,11838.2,76.1268,-242.585,45.6619,-9166.79,33843.0,2404.23,10.0816,119.421,-266.502,-1785.63,-16521.0,542.574,31.3982,2.91146,179.674,5262.27,-10742.0,-3667.48,4.91717,1.58003,37.8051,3279.31,9370.2,7869.64,-6.22187,247.47,-75.2084,15112.5,4300.16,2084.09,-192.543,36.5035,79.5345
3.693,18758.8,4872.22,29741.4,197.149,-303.478,-473.874,4549.31,4283.18,11954.2,75.7876,-247.508,45.9666,-14098.9,34259.7,1439.53,11.6211,131.107,-272.76,-1756.05,-16723.3,499.948,32.0641,2.71802,179.676,5439.42,-10860.5,-3505.06,3.59499,-0.335953,38.3576,3108.44,10080.0,8793.22,15.0531,242.079,-86.5842,15199.9,4419.91,2130.36,-201.148,36.4638,81.1263
3.694,26728.0,4876.88,31561.6,181.727,-267.521,-433.413,4539.44,4379.06,11868.2,76.1278,-252.065,46.7944,-16132.2,33145.2,1460.33,12.9605,139.741,-275.403,-1752.25,-16933.5,399.536,32.5874,2.22086,179.852,5634.61,-11023.6,-3341.78,2.6927,-2.23699,38.6607,3165.76,11149.0,9380.64,27.4556,234.075,-94.2918,15256.0,4434.92,2180.19,-198.245,33.6554,82.1467
3.695,34603.8,4274.91,32645.2,175.539,-238.047,-389.459,4562.45,4472.38,11681.3,76.8075,-256.439,47.8836,-16716.3,31265.1,1973.88,14.1998,146.85,-276.238,-1761.32,-17147.8,270.232,33.0395,1.57183,180.114,5838.81,-11209.0,-3178.07,2.00036,-4.13056,38.8393,3337.18,12397.6,9799.97,35.4221,224.764,-100.165,15296.6,4397.57,2231.8,-189.587,29.4628,82.8816
3.696,42479.7,3672.94,33728.7,169.351,-208.572,-345.504,4585.46,4565.7,11494.4,77.4873,-260.813,48.9729,-17300.3,29385.1,2487.43,15.4391,153.958,-277.073,-1770.4,-17362.0,140.928,33.4916,0.922798,180.377,6043.02,-11394.3,-3014.37,1.30802,-6.02413,39.0179,3508.6,13646.2,10219.3,43.3885,215.453,-106.039,15337.2,4360.22,2283.42,-180.93,25.2701,83.6164
3.697,50355.5,3070.97,34812.3,163.163,-179.098,-301.55,4608.47,4659.02,11307.5,78.1671,-265.187,50.0622,-17884.3,27505.0,3000.98,16.6784,161.066,-277.909,-1779.48,-17576.3,11.6242,33.9436,0.273768,180.64,6247.22,-11579.7,-2850.67,0.615683,-7.91771,39.1964,3680.01,14894.9,10638.6,51.3549,206.142,-111.913,15377.8,4322.87,2335.03,-172.272,21.0775,84.3512
3.698,56765.1,2329.77,35011.7,157.826,-155.384,-258.878,4649.43,4740.39,11110.6,79.1444,-269.353,51.1445,-17804.9,25696.8,3550.86,17.1169,164.388,-276.532,-1785.71,-17771.0,-125.955,34.2525,-0.42899,181.006,6444.56,-11771.1,-2684.7,0.21201,-9.74158,39.2575,3980.65,16115.9,10911.9,56.0163,195.829,-115.617,15424.8,4321.61,2348.48,-162.912,16.9166,84.8213
3.699,58042.9,1101.31,32116.6,155.468,-151.832,-220.696,4753.25,4779.97,10878.8,81.1628,-272.792,52.2025,-15403.6,24140.3,4227.86,14.7522,154.457,-267.415,-1781.99,-17897.2,-292.499,34.06,-1.3198,181.735,6617.87,-11983.3,-2510.82,0.818663,-11.3215,38.9076,4733.54,17240.7,10674.0,49.1101,182.007,-111.726,15494.6,4446.63,2228.36,-151.093,12.8671,84.3651
3.7,59320.6,-127.156,29221.6,153.11,-148.281,-182.514,4857.06,4819.55,10647.1,83.1812,-276.231,53.2605,-13002.3,22583.9,4904.86,12.3874,144.526,-258.297,-1778.26,-18023.5,-459.042,33.8675,-2.2106,182.464,6791.17,-12195.6,-2336.94,1.42532,-12.9014,38.5577,5486.43,18365.5,10436.0,42.2038,168.184,-107.835,15564.4,4571.65,2108.24,-139.274,8.81751,83.9089
3.701,60598.4,-1355.62,26326.6,150.751,-144.729,-144.332,4960.87,4859.13,10415.3,85.1996,-279.669,54.3185,-10601.0,21027.4,5581.87,10.0227,134.595,-249.18,-1774.53,-18149.8,-625.586,33.675,-3.10141,183.193,6964.48,-12407.8,-2163.06,2.03197,-14.4814,38.2078,6239.32,19490.2,10198.0,35.2975,154.362,-103.944,15634.2,4696.67,1988.13,-127.455,4.76795,83.4526
3.702,61876.1,-2584.09,23431.5,148.393,-141.178,-106.149,5064.68,4898.71,10183.5,87.218,-283.108,55.3765,-8199.75,19470.9,6258.87,7.65802,124.664,-240.062,-1770.8,-18276.1,-792.129,33.4825,-3.99222,183.922,7137.79,-12620.1,-1989.17,2.63862,-16.0613,37.8579,6992.21,20615.0,9960.06,28.3913,140.539,-100.053,15703.9,4821.69,1868.01,-115.636,0.718387,82.9964
3.703,56797.6,-4986.91,20515.6,160.519,-149.972,-92.6379,5074.35,5131.73,10182.3,89.3167,-287.033,57.0965,-6183.54,18070.3,6466.14,5.0886,115.729,-229.924,-1648.84,-18323.9,-935.197,32.8248,-5.40314,184.748,7302.67,-12747.0,-1810.37,4.65984,-17.1077,37.2352,7595.23,20804.5,8880.22,21.8065,131.012,-93.4041,15786.0,4919.65,1632.34,-108.193,-0.995855,81.2478
3.704,49903.0,-7725.27,17593.6,176.782,-162.294,-86.1751,5057.12,5420.01,10247.0,91.4382,-291.098,59.0057,-4277.34,16714.3,6539.21,2.46068,107.08,-219.495,-1493.11,-18349.4,-1071.56,32.0342,-6.96267,185.603,7465.14,-12849.6,-1630.17,7.08523,-18.0016,36.5346,8155.42,20726.7,7559.84,15.3136,122.712,-85.967,15871.6,5009.88,1363.65,-102.001,-2.04286,79.13
3.705,43008.4,-10463.6,14671.7,193.046,-174.615,-79.7123,5039.89,5708.29,10311.6,93.5598,-295.162,60.9149,-2371.15,15358.3,6612.28,-0.167238,98.4302,-209.065,-1337.37,-18374.8,-1207.92,31.2436,-8.5222,186.457,7627.61,-12952.1,-1449.97,9.51061,-18.8955,35.834,8715.62,20649.0,6239.47,8.82072,114.412,-78.5299,15957.3,5100.11,1094.96,-95.809,-3.08987,77.0122
3.706,36113.9,-13202.0,11749.7,209.31,-186.937,-73.2495,5022.67,5996.58,10376.2,95.6814,-299.226,62.824,-464.957,14002.4,6685.35,-2.79516,89.7807,-198.636,-1181.63,-18400.3,-1344.28,30.4531,-10.0817,187.311,7790.08,-13054.6,-1269.77,11.936,-19.7894,35.1333,9275.81,20571.3,4919.1,2.32782,106.111,-71.0928,16042.9,5190.34,826.276,-89.6168,-4.13688,74.8944
3.707,29622.1,-14619.0,9291.38,219.426,-198.54,-66.9988,4967.99,6252.07,10451.3,97.7474,-303.491,64.8993,1040.95,12677.1,6502.12,-3.3778,84.8062,-190.113,-983.875,-18407.3,-1466.49,29.6933,-11.8553,188.206,7949.54,-13109.7,-1114.72,14.4172,-20.3545,34.3505,9450.25,20152.9,3607.94,-1.88344,102.059,-64.8812,16035.1,5211.21,617.054,-84.7407,-4.74418,72.1045
3.708,23936.0,-13393.4,7760.29,217.248,-208.709,-61.1724,4838.42,6441.96,10547.1,99.7023,-308.16,67.3067,1746.29,11413.4,5806.29,0.130108,87.1819,-185.403,-702.075,-18377.3,-1560.41,28.995,-14.057,189.185,8102.97,-13069.9,-1009.98,17.01,-20.2619,33.4033,8853.18,19053.3,2315.2,-1.53146,106.503,-61.121,15840.6,5093.33,526.76,-82.4967,-4.47207,67.9702
3.709,18249.9,-12167.8,6229.2,215.07,-218.878,-55.346,4708.85,6631.85,10642.9,101.657,-312.828,69.7141,2451.63,10149.7,5110.47,3.63801,89.5576,-180.694,-420.275,-18347.3,-1654.33,28.2967,-16.2586,190.163,8256.4,-13030.1,-905.242,19.6028,-20.1694,32.4561,8256.11,17953.7,1022.47,-1.17948,110.947,-57.3607,15646.1,4975.46,436.466,-80.2527,-4.19996,63.8359
3.71,12563.7,-10942.1,4698.1,212.891,-229.047,-49.5196,4579.28,6821.75,10738.7,103.612,-317.496,72.1215,3156.97,8885.97,4414.64,7.14592,91.9333,-175.984,-138.475,-18317.3,-1748.25,27.5984,-18.4603,191.141,8409.83,-12990.2,-800.504,22.1956,-20.0769,31.5088,7659.04,16854.1,-270.268,-0.827497,115.391,-53.6004,15451.6,4857.58,346.172,-78.0088,-3.92784,59.7016
3.711,6877.62,-9716.5,3167.01,210.713,-239.215,-43.6931,4449.71,7011.64,10834.5,105.567,-322.164,74.5289,3862.3,7622.26,3718.82,10.6538,94.3091,-171.275,143.325,-18287.3,-1842.17,26.9002,-20.662,192.12,8563.26,-12950.4,-695.767,24.7884,-19.9843,30.5616,7061.97,15754.6,-1563.0,-0.475515,119.835,-49.8401,15257.1,4739.71,255.878,-75.7648,-3.65573,55.5673
3.712,3258.47,-9877.73,3021.09,227.357,-237.175,-51.4206,4332.62,7111.31,10925.1,107.48,-327.589,77.4336,3207.58,6559.63,2385.76,18.2719,102.87,-172.777,359.188,-18312.3,-1959.76,26.5523,-23.1683,193.077,8717.15,-12861.0,-657.079,26.0786,-19.4548,29.3398,5676.16,14757.8,-2455.86,5.0473,134.778,-47.4652,14911.8,4424.78,312.093,-74.6082,-4.1267,50.839
3.713,-102.323,-10212.3,3048.31,246.355,-233.609,-60.8424,4217.1,7199.71,11015.0,109.387,-333.107,80.4004,2382.85,5522.14,973.041,26.4037,112.205,-175.056,566.808,-18344.2,-2080.3,26.2483,-25.7127,194.032,8871.1,-12765.4,-626.648,27.206,-18.8707,28.0837,4191.77,13773.9,-3298.73,11.2165,151.033,-45.2634,14547.7,4085.22,386.62,-73.5876,-4.69056,46.0365
3.714,-3463.11,-10546.9,3075.53,265.352,-230.043,-70.2642,4101.57,7288.1,11105.0,111.294,-338.626,83.3672,1558.12,4484.65,-439.674,34.5355,121.54,-177.335,774.429,-18376.1,-2200.85,25.9442,-28.2572,194.986,9025.05,-12669.8,-596.216,28.3334,-18.2866,26.8276,2707.37,12790.0,-4141.6,17.3856,167.289,-43.0616,14183.6,3745.65,461.148,-72.5669,-5.25441,41.2341
3.715,-6823.9,-10881.5,3102.75,284.349,-226.476,-79.6859,3986.05,7376.49,11194.9,113.202,-344.145,86.334,733.391,3447.17,-1852.39,42.6674,130.874,-179.614,982.049,-18408.0,-2321.39,25.6402,-30.8016,195.941,9179.0,-12574.1,-565.785,29.4607,-17.7025,25.5715,1222.97,11806.0,-4984.48,23.5548,183.544,-40.8599,13819.5,3406.09,535.676,-71.5463,-5.81827,36.4316
3.716,-8594.86,-10438.9,3701.43,312.436,-211.575,-91.6532,3889.04,7444.04,11256.0,115.442,-349.749,89.4419,-571.528,2690.7,-3211.79,49.0309,138.991,-183.51,1132.73,-18494.9,-2424.6,25.2996,-33.5934,196.773,9359.11,-12485.8,-577.349,30.2125,-17.1357,24.1997,-213.206,10985.7,-5610.89,31.4937,200.462,-37.8194,13407.7,2985.42,557.278,-70.0581,-6.24227,31.4498
3.717,-8378.53,-9024.88,5014.42,351.884,-182.503,-106.803,3815.18,7485.51,11281.1,118.098,-355.458,92.7262,-2476.68,2285.51,-4504.56,53.184,145.585,-189.427,1212.25,-18650.3,-2506.14,24.9133,-36.6946,197.453,9571.92,-12406.5,-641.408,30.4948,-16.5906,22.6832,-1589.11,10369.7,-5966.75,41.6447,218.208,-33.7306,12936.2,2463.36,512.722,-67.9855,-6.49147,26.2438
3.718,-8162.2,-7610.83,6327.41,391.333,-153.432,-121.952,3741.31,7526.99,11306.1,120.755,-361.167,96.0105,-4381.84,1880.32,-5797.33,57.3372,152.179,-195.344,1291.76,-18805.7,-2587.68,24.5271,-39.7957,198.132,9784.73,-12327.3,-705.467,30.777,-16.0454,21.1668,-2965.01,9753.75,-6322.6,51.7958,235.953,-29.6418,12464.8,1941.3,468.166,-65.913,-6.74066,21.0379
3.719,-7945.87,-6196.79,7640.4,430.782,-124.36,-137.101,3667.45,7568.47,11331.2,123.411,-366.876,99.2948,-6286.99,1475.13,-7090.1,61.4903,158.773,-201.261,1371.27,-18961.2,-2669.22,24.1408,-42.8969,198.812,9997.54,-12248.0,-769.526,31.0593,-15.5003,19.6504,-4340.9,9137.79,-6678.46,61.9468,253.699,-25.553,11993.3,1419.24,423.61,-63.8404,-6.98985,15.8319
3.72,-7729.55,-4782.74,8953.39,470.23,-95.2888,-152.25,3593.59,7609.95,11356.3,126.067,-372.585,102.579,-8192.15,1069.94,-8382.87,65.6435,165.368,-207.178,1450.79,-19116.6,-2750.76,23.7546,-45.9981,199.491,10210.3,-12168.7,-833.585,31.3416,-14.9551,18.1339,-5716.8,8521.84,-7034.31,72.0979,271.445,-21.4642,11521.8,897.187,379.055,-61.7678,-7.23905,10.626
3.721,-4029.56,-3119.17,10662.0,459.379,-55.8862,-160.082,3553.84,7759.52,11382.7,127.876,-378.873,106.507,-9868.25,1495.35,-9148.54,65.6148,167.514,-211.489,1516.85,-19343.3,-2775.03,23.3639,-49.7595,200.009,10489.5,-12173.9,-1016.7,31.263,-13.755,16.1225,-6499.44,8214.14,-6612.23,83.9273,276.988,-14.6878,11209.7,498.855,217.207,-58.0921,-6.34915,5.77825
3.722,-329.569,-1455.6,12370.5,448.527,-16.4835,-167.914,3514.1,7909.1,11409.1,129.684,-385.161,110.434,-11544.4,1920.77,-9914.2,65.5862,169.661,-215.8,1582.92,-19570.1,-2799.3,22.9733,-53.5209,200.526,10768.7,-12179.0,-1199.81,31.1845,-12.5549,14.111,-7282.08,7906.45,-6190.14,95.7567,282.53,-7.9113,10897.6,100.523,55.3596,-54.4164,-5.45926,0.930546
3.723,3370.42,207.968,14079.1,437.675,22.9191,-175.746,3474.35,8058.68,11435.5,131.492,-391.449,114.362,-13220.5,2346.19,-10679.9,65.5576,171.808,-220.111,1648.98,-19796.8,-2823.56,22.5826,-57.2823,201.044,11047.9,-12184.2,-1382.92,31.1059,-11.3547,12.0995,-8064.71,7598.76,-5768.06,107.586,288.073,-1.13483,10585.4,-297.809,-106.488,-50.7408,-4.56936,-3.91716
3.724,7070.41,1871.54,15787.7,426.823,62.3218,-183.578,3434.6,8208.26,11461.9,133.301,-397.737,118.29,-14896.6,2771.6,-11445.5,65.5289,173.954,-224.422,1715.05,-20023.6,-2847.83,22.1919,-61.0437,201.562,11327.1,-12189.3,-1566.03,31.0274,-10.1546,10.0881,-8847.35,7291.07,-5345.98,119.415,293.615,5.64165,10273.3,-696.141,-268.335,-47.0651,-3.67946,-8.76487
3.725,11798.3,3156.49,17530.7,387.893,88.4434,-189.426,3428.54,8412.91,11517.3,135.303,-405.073,123.038,-16012.7,3457.6,-11751.5,64.9934,172.715,-225.993,1793.81,-20280.0,-2833.74,21.9307,-64.9726,202.144,11637.4,-12208.1,-1772.96,30.7817,-8.217,7.94313,-9334.83,7051.28,-4748.66,129.083,290.23,12.1135,10040.2,-989.11,-331.282,-41.7906,-2.84687,-12.9284
3.726,17348.4,4138.54,19301.4,326.501,103.94,-193.687,3449.42,8661.62,11595.7,137.46,-413.248,128.445,-16681.0,4352.06,-11689.7,64.0523,168.768,-225.371,1882.73,-20560.3,-2788.95,21.7731,-69.0356,202.779,11972.7,-12237.8,-1998.94,30.4024,-5.68942,5.69144,-9586.19,6865.82,-4011.15,137.022,279.703,18.3418,9870.39,-1197.79,-315.109,-35.237,-2.06011,-16.5446
3.727,22898.6,5120.6,21072.0,265.108,119.437,-197.948,3470.3,8910.33,11674.2,139.616,-421.423,133.851,-17349.2,5246.52,-11628.0,63.1112,164.821,-224.749,1971.65,-20840.6,-2744.16,21.6155,-73.0985,203.413,12308.0,-12267.5,-2224.93,30.0231,-3.16185,3.43975,-9837.55,6680.37,-3273.64,144.961,269.176,24.57,9700.56,-1406.46,-298.935,-28.6834,-1.27335,-20.1608
3.728,28448.8,6102.65,22842.7,203.715,134.934,-202.21,3491.18,9159.04,11752.7,141.773,-429.597,139.257,-18017.5,6140.98,-11566.2,62.1701,160.873,-224.127,2060.57,-21120.8,-2699.38,21.4578,-77.1615,204.047,12643.3,-12297.2,-2450.91,29.6438,-0.634272,1.18806,-10088.9,6494.91,-2536.13,152.899,258.649,30.7982,9530.74,-1615.14,-282.762,-22.1299,-0.486597,-23.777
3.729,33776.5,6976.19,24135.1,147.534,148.188,-205.007,3522.94,9388.37,11813.0,144.118,-437.826,144.716,-18576.0,7009.07,-11365.4,61.0084,155.844,-223.232,2163.59,-21405.9,-2654.61,21.295,-81.1798,204.702,12981.9,-12324.5,-2644.74,29.3904,1.8411,-1.0587,-10305.2,6323.43,-1873.53,159.836,247.433,36.4868,9384.96,-1809.92,-228.281,-15.3869,0.0161067,-27.2352
3.73,37324.8,6981.65,21601.0,133.037,143.499,-196.098,3641.73,9462.69,11728.5,147.964,-446.489,150.599,-18256.9,7666.19,-10052.1,58.0826,142.164,-220.144,2379.43,-21729.7,-2609.95,21.0905,-84.8409,205.522,13347.5,-12333.1,-2581.29,30.1446,3.89888,-3.2661,-10240.6,6263.73,-1810.17,158.754,230.708,37.8582,9431.64,-1893.47,132.662,-7.12851,-1.75361,-29.4295
3.731,40873.1,6987.1,19067.0,118.54,138.811,-187.188,3760.53,9537.01,11644.0,151.81,-455.152,156.483,-17937.8,8323.3,-8738.73,55.1567,128.484,-217.057,2595.27,-22053.5,-2565.29,20.8859,-88.502,206.341,13713.1,-12341.7,-2517.84,30.8988,5.95666,-5.4735,-10176.0,6204.04,-1746.82,157.673,213.982,39.2296,9478.32,-1977.03,493.605,1.12988,-3.52332,-31.6239
3.732,44421.5,6992.56,16532.9,104.044,134.122,-178.278,3879.33,9611.33,11559.5,155.657,-463.814,162.366,-17618.7,8980.41,-7425.4,52.2309,114.803,-213.97,2811.11,-22377.2,-2520.63,20.6814,-92.163,207.161,14078.6,-12350.3,-2454.38,31.6529,8.01444,-7.6809,-10111.5,6144.35,-1683.47,156.592,197.256,40.601,9525.0,-2060.59,854.548,9.38827,-5.29304,-33.8182
3.733,47969.8,6998.01,13998.9,89.547,129.434,-169.368,3998.12,9685.65,11475.1,159.503,-472.477,168.25,-17299.6,9637.53,-6112.08,49.305,101.123,-210.883,3026.94,-22701.0,-2475.97,20.4769,-95.8241,207.981,14444.2,-12358.9,-2390.93,32.4071,10.0722,-9.8883,-10046.9,6084.66,-1620.11,155.51,180.53,41.9724,9571.68,-2144.15,1215.49,17.6467,-7.06276,-36.0126
3.734,48170.1,6498.03,13153.6,93.8136,118.53,-147.397,4063.78,9617.64,11383.2,161.631,-482.662,174.279,-16575.7,10225.8,-4467.07,43.5598,84.2605,-209.139,3273.48,-22952.1,-2507.44,20.3996,-99.1942,208.738,14790.5,-12367.7,-2217.54,34.2109,11.574,-11.8542,-9826.43,6223.49,-2122.21,149.826,168.31,39.8087,9717.98,-2175.05,1644.37,24.9303,-9.44881,-37.1799
3.735,46696.4,5745.34,13152.6,107.462,104.519,-118.894,4102.87,9478.46,11287.7,162.9,-493.61,180.381,-15649.4,10779.7,-2656.21,36.4048,65.807,-208.067,3535.37,-23166.8,-2576.97,20.386,-102.419,209.464,15127.2,-12376.4,-1989.17,36.5394,12.7979,-13.6992,-9528.03,6461.59,-2907.04,141.84,158.344,35.8773,9914.09,-2179.63,2107.21,31.7265,-12.143,-37.8338
3.736,45222.7,4992.65,13151.7,121.11,90.5072,-90.391,4141.96,9339.29,11192.1,164.168,-504.557,186.483,-14723.1,11333.6,-845.361,29.2499,47.3534,-206.995,3797.25,-23381.5,-2646.5,20.3724,-105.643,210.19,15463.8,-12385.2,-1760.8,38.8679,14.0217,-15.5443,-9229.63,6699.68,-3691.86,133.855,148.377,31.946,10110.2,-2184.21,2570.05,38.5228,-14.8373,-38.4876
3.737,43749.0,4239.95,13150.7,134.758,76.4957,-61.8883,4181.05,9200.11,11096.6,165.437,-515.504,192.585,-13796.8,11887.6,965.493,22.095,28.8998,-205.923,4059.14,-23596.3,-2716.03,20.3588,-108.868,210.916,15800.4,-12394.0,-1532.44,41.1965,15.2455,-17.3894,-8931.23,6937.78,-4476.69,125.869,138.411,28.0146,10306.3,-2188.78,3032.89,45.3191,-17.5315,-39.1415
3.738,41223.3,3053.08,12903.6,145.042,64.6634,-36.5427,4212.24,9021.31,10914.7,166.769,-526.709,198.987,-12852.7,12519.8,2529.01,15.0179,12.4106,-205.402,4252.96,-23776.5,-2779.16,20.4749,-112.21,211.634,16118.3,-12378.0,-1333.69,43.3145,16.8425,-19.1035,-8617.94,7213.48,-5266.16,117.76,130.642,23.4358,10515.9,-2205.48,3459.33,50.9334,-20.1098,-39.3505
3.739,35015.6,346.563,11794.7,143.549,60.4583,-22.2471,4215.78,8703.82,10430.8,168.324,-538.815,206.44,-11846.2,13426.4,3226.85,8.21356,2.79646,-206.811,4208.54,-23836.1,-2819.92,21.0451,-115.964,212.323,16370.5,-12275.3,-1238.62,44.6958,19.7455,-20.3593,-8252.54,7620.81,-6071.91,109.222,130.568,16.5909,10772.4,-2264.59,3758.36,52.4111,-22.2822,-38.0025
3.74,28807.9,-2359.95,10685.8,142.056,56.2532,-7.95155,4219.33,8386.34,9946.84,169.878,-550.922,213.892,-10839.7,14333.0,3924.68,1.40921,-6.81763,-208.219,4164.12,-23895.7,-2860.68,21.6152,-119.718,213.013,16622.7,-12172.5,-1143.54,46.0771,22.6486,-21.615,-7887.15,8028.14,-6877.66,100.684,130.494,9.74601,11029.0,-2323.7,4057.4,53.8888,-24.4546,-36.6545
3.741,22600.2,-5066.46,9576.97,140.563,52.0481,6.34402,4222.87,8068.85,9462.9,171.432,-563.029,221.345,-9833.18,15239.6,4622.52,-5.39514,-16.4317,-209.627,4119.71,-23955.4,-2901.44,22.1854,-123.471,213.703,16874.9,-12069.8,-1048.47,47.4584,25.5517,-22.8707,-7521.75,8435.47,-7683.41,92.1465,130.42,2.90113,11285.6,-2382.81,4356.44,55.3665,-26.627,-35.3066
3.742,16392.6,-7772.98,8468.1,139.07,47.843,20.6396,4226.41,7751.37,8978.96,172.987,-575.135,228.797,-8826.67,16146.3,5320.36,-12.1995,-26.0458,-211.035,4075.29,-24015.0,-2942.2,22.7555,-127.225,214.393,17127.1,-11967.0,-953.394,48.8397,28.4547,-24.1265,-7156.35,8842.8,-8489.16,83.6086,130.346,-3.94376,11542.2,-2441.93,4655.48,56.8441,-28.7994,-33.9586
3.743,11135.3,-9434.23,7897.78,133.992,45.3378,25.3289,4519.59,7537.66,8797.03,176.851,-585.954,234.56,-7891.74,17062.9,5104.2,-13.292,-24.9911,-211.753,3997.3,-24155.8,-2844.57,22.9019,-131.422,214.94,17365.8,-11854.1,-778.791,49.7057,32.4958,-24.7114,-6977.84,9178.02,-8593.72,77.6528,131.815,-10.5131,11819.6,-2544.92,4797.12,54.7474,-29.2097,-31.3549
3.744,6149.68,-10796.8,7481.33,127.888,43.3182,27.2736,4895.51,7353.61,8701.39,181.375,-596.406,239.841,-6977.28,17982.5,4626.91,-12.7525,-20.8882,-212.274,3909.72,-24319.8,-2707.41,22.9273,-135.746,215.447,17600.8,-11738.3,-581.467,50.4245,36.8621,-25.1047,-6852.73,9492.64,-8497.94,72.4349,133.725,-17.0037,12103.1,-2660.46,4893.79,51.6294,-29.1167,-28.3924
3.745,1164.03,-12159.4,7064.89,121.785,41.2986,29.2183,5271.44,7169.56,8605.75,185.899,-606.857,245.121,-6062.81,18902.0,4149.61,-12.213,-16.7853,-212.796,3822.14,-24483.9,-2570.24,22.9526,-140.07,215.954,17835.7,-11622.5,-384.142,51.1433,41.2284,-25.4979,-6727.62,9807.25,-8402.16,67.2169,135.636,-23.4943,12386.6,-2776.0,4990.46,48.5114,-29.0236,-25.4299
3.746,-3821.63,-13522.1,6648.44,115.682,39.279,31.163,5647.37,6985.51,8510.1,190.423,-617.309,250.401,-5148.34,19821.6,3672.32,-11.6735,-12.6824,-213.317,3734.55,-24647.9,-2433.08,22.9779,-144.394,216.46,18070.6,-11506.7,-186.818,51.8621,45.5947,-25.8912,-6602.51,10121.9,-8306.38,61.9989,137.546,-29.9849,12670.1,-2891.54,5087.13,45.3934,-28.9305,-22.4674
3.747,-7278.84,-13314.0,6611.18,108.904,39.3626,25.6128,5934.2,6794.64,8495.46,194.697,-627.583,254.151,-4415.56,20493.8,3189.89,-9.92026,-7.88077,-212.841,3823.31,-24811.5,-2296.45,22.5582,-148.779,216.711,18226.0,-11450.6,93.712,53.2585,49.4476,-26.1357,-6590.91,10368.4,-7944.63,57.7458,137.324,-35.8413,12922.5,-3030.66,5156.15,42.3317,-28.415,-19.3756
3.748,-7679.15,-9964.71,7332.29,100.778,43.6526,5.07273,6042.84,6590.16,8642.83,198.472,-637.505,254.841,-4046.18,20671.2,2697.21,-5.73948,-1.68165,-210.371,4264.74,-24974.3,-2160.91,21.2484,-153.285,216.448,18222.1,-11513.8,540.652,56.0102,52.2734,-26.0827,-6806.33,10478.8,-7050.93,55.4227,132.839,-40.4292,13113.1,-3216.95,5169.87,39.3827,-27.0549,-16.0251
3.749,-8079.46,-6615.4,8053.4,92.6518,47.9425,-15.4673,6151.48,6385.69,8790.2,202.248,-647.426,255.531,-3676.79,20848.6,2204.52,-1.55869,4.51748,-207.901,4706.18,-25137.0,-2025.36,19.9386,-157.791,216.185,18218.3,-11577.0,987.592,58.762,55.0993,-26.0298,-7021.75,10589.2,-6157.22,53.0995,128.353,-45.0172,13303.6,-3403.25,5183.58,36.4336,-25.6947,-12.6745
3.75,-8479.78,-3266.09,8774.52,84.5257,52.2324,-36.0074,6260.12,6181.21,8937.57,206.023,-657.347,256.22,-3307.41,21026.0,1711.83,2.62209,10.7166,-205.431,5147.61,-25299.8,-1889.81,18.6287,-162.297,215.922,18214.5,-11640.3,1434.53,61.5137,57.9252,-25.9768,-7237.17,10699.6,-5263.52,50.7763,123.868,-49.6051,13494.1,-3589.54,5197.29,33.4846,-24.3346,-9.32399
3.751,-8880.09,83.2223,9495.63,76.3995,56.5223,-56.5474,6368.76,5976.73,9084.94,209.798,-667.269,256.91,-2938.02,21203.4,1219.15,6.80288,16.9157,-202.96,5589.04,-25462.6,-1754.26,17.3189,-166.803,215.659,18210.7,-11703.5,1881.47,64.2655,60.751,-25.9238,-7452.59,10810.0,-4369.81,48.4531,119.382,-54.193,13684.7,-3775.84,5211.01,30.5356,-22.9744,-5.97346
3.752,-7040.48,3534.02,10398.6,73.8335,57.1127,-57.5847,6101.92,6066.07,9130.95,214.006,-674.233,258.385,-3250.19,20790.1,1150.97,7.72658,18.2639,-199.452,6452.48,-25432.5,-1643.36,16.5161,-172.187,214.76,17583.8,-11852.6,2295.54,68.3811,60.3824,-25.7476,-7842.63,10860.8,-3594.29,47.0301,110.12,-58.0494,13858.5,-3969.79,5189.94,28.5985,-21.9393,-3.02788
3.753,-4920.89,6997.49,11324.3,71.9625,57.2406,-56.1841,5788.14,6192.14,9164.28,218.268,-680.828,259.958,-3647.56,20302.9,1135.86,8.24315,19.0058,-195.814,7368.67,-25378.4,-1535.54,15.7766,-177.68,213.781,16879.1,-12012.5,2705.5,72.6671,59.6145,-25.5559,-8254.5,10904.1,-2833.55,45.7196,100.261,-61.8142,14030.2,-4164.7,5164.52,26.7879,-20.9449,-0.132933
3.754,-2801.29,10461.0,12250.1,70.0915,57.3686,-54.7835,5474.37,6318.21,9197.62,222.53,-687.422,261.531,-4044.92,19815.8,1120.76,8.75971,19.7476,-192.176,8284.87,-25324.2,-1427.72,15.0371,-183.173,212.803,16174.4,-12172.3,3115.46,76.9531,58.8466,-25.3642,-8666.37,10947.5,-2072.8,44.4091,90.4015,-65.5791,14201.9,-4359.61,5139.1,24.9773,-19.9504,2.76202
3.755,-681.691,13924.5,13175.8,68.2205,57.4965,-53.3829,5160.59,6444.27,9230.96,226.793,-694.017,263.104,-4442.29,19328.6,1105.65,9.27628,20.4895,-188.538,9201.06,-25270.1,-1319.89,14.2976,-188.666,211.824,15469.7,-12332.2,3525.42,81.2391,58.0787,-25.1726,-9078.24,10990.8,-1312.06,43.0986,80.5422,-69.344,14373.6,-4554.52,5113.69,23.1666,-18.9559,5.65697
3.756,1441.8,15374.6,13595.5,67.4997,56.1323,-48.1419,4823.07,6632.15,9330.63,231.256,-698.248,264.85,-4860.01,18864.5,1276.81,8.89766,19.0411,-184.964,10165.0,-25046.5,-1203.44,14.7021,-194.113,210.684,14519.5,-12440.9,3755.84,84.9506,56.467,-24.7577,-9510.53,11088.6,-828.276,41.9445,71.2799,-72.98,14516.4,-4719.22,5072.57,21.6923,-18.3534,8.18869
3.757,3570.15,14308.1,13382.7,68.2168,52.903,-38.1004,4455.89,6897.29,9513.2,235.972,-699.523,266.813,-5303.17,18429.2,1680.82,7.40005,14.8549,-181.469,11188.7,-24611.0,-1076.19,16.5365,-199.502,209.341,13262.5,-12485.9,3761.84,87.944,53.8005,-24.0639,-9968.34,11254.5,-690.7,40.9859,62.7638,-76.4549,14623.2,-4846.17,5011.82,20.6383,-18.2408,10.2664
3.758,5698.51,13241.6,13169.9,68.9339,49.6737,-28.0589,4088.7,7162.43,9695.78,240.687,-700.799,268.776,-5746.33,17993.9,2084.83,5.90244,10.6688,-177.974,12212.4,-24175.6,-948.94,18.371,-204.891,207.998,12005.5,-12530.8,3767.84,90.9374,51.1341,-23.3702,-10426.2,11420.5,-553.124,40.0273,54.2476,-79.9298,14730.0,-4973.11,4951.06,19.5842,-18.1283,12.3441
3.759,7826.87,12175.1,12957.1,69.651,46.4443,-18.0174,3721.52,7427.58,9878.36,245.403,-702.075,270.74,-6189.5,17558.7,2488.83,4.40483,6.48263,-174.479,13236.1,-23740.1,-821.691,20.2054,-210.28,206.656,10748.4,-12575.7,3773.84,93.9308,48.4677,-22.6764,-10884.0,11586.4,-415.548,39.0687,45.7314,-83.4048,14836.8,-5100.06,4890.31,18.5302,-18.0157,14.4218
3.76,9955.22,11108.7,12744.3,70.3681,43.215,-7.97587,3354.33,7692.72,10060.9,250.119,-703.35,272.703,-6632.66,17123.4,2892.84,2.90722,2.29648,-170.984,14259.8,-23304.7,-694.442,22.0398,-215.669,205.313,9491.39,-12620.6,3779.83,96.9242,45.8012,-21.9826,-11341.8,11752.3,-277.972,38.1101,37.2153,-86.8797,14943.6,-5227.01,4829.56,17.4762,-17.9032,16.4994
3.761,10260.7,7765.12,11750.7,67.2909,42.052,-3.71293,2935.58,8126.3,10320.2,254.931,-704.022,274.268,-6704.53,16734.8,3055.59,3.02635,-4.43299,-167.353,14920.1,-22547.8,-709.673,24.8401,-217.167,204.225,8329.53,-12524.2,3423.19,96.6142,44.0246,-21.4199,-11855.6,11927.4,-392.152,37.4867,32.6381,-89.5454,15020.1,-5282.68,4906.78,17.0152,-18.1476,17.9091
3.762,10566.1,4421.58,10757.1,64.2138,40.889,0.550006,2516.83,8559.88,10579.5,259.742,-704.695,275.834,-6776.39,16346.2,3218.34,3.14548,-11.1625,-163.721,15580.4,-21790.9,-724.903,27.6405,-218.666,203.136,7167.67,-12427.8,3066.54,96.3041,42.2479,-20.8572,-12369.4,12102.5,-506.331,36.8634,28.0609,-92.2111,15096.6,-5338.35,4984.01,16.5541,-18.392,19.3188
3.763,10871.6,1078.04,9763.46,61.1366,39.726,4.81295,2098.08,8993.46,10838.8,264.554,-705.367,277.4,-6848.26,15957.6,3381.09,3.26462,-17.8919,-160.089,16240.7,-21034.0,-740.134,30.4408,-220.165,202.048,6005.82,-12331.3,2709.89,95.9941,40.4712,-20.2945,-12883.2,12277.6,-620.511,36.24,23.4838,-94.8768,15173.1,-5394.02,5061.23,16.0931,-18.6364,20.7285
3.764,11177.1,-2265.5,8769.84,58.0595,38.563,9.07589,1679.34,9427.04,11098.0,269.366,-706.039,278.965,-6920.12,15569.0,3543.84,3.38375,-24.6214,-156.458,16900.9,-20277.1,-755.365,33.2412,-221.663,200.96,4843.96,-12234.9,2353.25,95.684,38.6946,-19.7318,-13397.0,12452.7,-734.69,35.6166,18.9066,-97.5425,15249.7,-5449.7,5138.45,15.6321,-18.8808,22.1382
3.765,10961.1,-4683.38,8083.11,55.266,37.8428,8.93795,1452.99,9831.73,11242.6,276.72,-707.746,279.656,-6890.67,15006.0,3375.53,4.41336,-30.5634,-153.063,17277.0,-19436.1,-728.116,35.8749,-220.524,200.339,3872.61,-12124.9,1904.74,93.1804,37.8346,-19.8661,-13851.5,12567.7,-798.592,35.0462,15.325,-99.7003,15311.3,-5483.06,5187.23,14.6843,-18.437,23.1667
3.766,10328.1,-6360.72,7641.89,52.6994,37.4769,5.27933,1380.57,10213.3,11295.3,286.107,-710.28,279.647,-6780.17,14303.4,2942.37,6.17137,-35.8756,-149.857,17425.6,-18527.8,-666.883,38.3753,-217.276,200.092,3053.67,-12004.0,1382.76,88.9218,37.7079,-20.5579,-14258.5,12634.6,-822.271,34.5182,12.54,-101.452,15361.1,-5498.59,5213.27,13.3473,-17.4426,23.8902
3.767,9695.04,-8038.07,7200.68,50.1328,37.1111,1.6207,1308.14,10594.9,11348.0,295.495,-712.815,279.637,-6669.67,13600.9,2509.22,7.92937,-41.1877,-146.651,17574.2,-17619.5,-605.651,40.8757,-214.027,199.845,2234.74,-11883.1,860.769,84.6633,37.5813,-21.2496,-14665.5,12701.6,-845.951,33.9902,9.75499,-103.204,15410.8,-5514.11,5239.3,12.0102,-16.4482,24.6137
3.768,9062.0,-9715.41,6759.46,47.5663,36.7452,-2.03793,1235.72,10976.4,11400.7,304.882,-715.349,279.628,-6559.17,12898.3,2076.06,9.68737,-46.4998,-143.445,17722.8,-16711.2,-544.419,43.3762,-210.779,199.598,1415.8,-11762.1,338.783,80.4047,37.4546,-21.9414,-15072.5,12768.6,-869.63,33.4623,6.96996,-104.955,15460.6,-5529.64,5265.33,10.6731,-15.4538,25.3373
3.769,8422.73,-11079.0,6392.03,45.0031,36.4774,-5.60416,1240.96,11271.6,11376.6,314.79,-717.518,278.931,-6423.39,12186.4,1643.38,11.4102,-51.4965,-140.34,17810.7,-15831.3,-495.583,45.8379,-207.16,199.415,626.833,-11651.2,-175.17,75.8389,37.4241,-22.8414,-15454.9,12826.1,-887.105,32.9145,4.11648,-106.631,15500.0,-5536.39,5293.9,9.22221,-14.2618,25.9903
3.77,7733.69,-9932.25,6614.9,42.467,36.9937,-8.43123,1867.44,10875.2,10737.3,328.869,-716.768,272.731,-6085.38,11400.2,1214.5,12.8517,-53.9704,-138.046,17413.0,-15178.4,-545.924,47.99,-200.581,199.741,77.6146,-11620.5,-624.855,68.8151,38.163,-25.4078,-15640.5,12808.5,-854.945,32.2078,0.715383,-107.7,15456.7,-5472.92,5342.74,6.8612,-11.4884,26.0794
3.771,7044.65,-8785.54,6837.77,39.9309,37.5101,-11.2583,2493.93,10478.8,10098.1,342.947,-716.018,266.53,-5747.36,10613.9,785.608,14.2932,-56.4443,-135.753,17015.2,-14525.4,-596.266,50.1421,-194.003,200.067,-471.604,-11589.8,-1074.54,61.7912,38.9019,-27.9741,-15826.0,12790.8,-822.785,31.5012,-2.68571,-108.769,15413.4,-5409.45,5391.58,4.5002,-8.71502,26.1684
3.772,6355.61,-7638.82,7060.64,37.3949,38.0265,-14.0854,3120.42,10082.3,9458.8,357.025,-715.268,260.33,-5409.34,9827.65,356.72,15.7347,-58.9182,-133.459,16617.5,-13872.5,-646.607,52.2941,-187.424,200.392,-1020.82,-11559.0,-1524.22,54.7674,39.6408,-30.5404,-16011.6,12773.1,-790.626,30.7946,-6.08681,-109.838,15370.1,-5345.98,5440.42,2.13919,-5.94163,26.2575
3.773,5666.56,-6492.1,7283.5,34.8588,38.5429,-16.9124,3746.91,9685.94,8819.55,371.103,-714.518,254.129,-5071.33,9041.39,-72.1672,17.1763,-61.3921,-131.166,16219.8,-13219.6,-696.948,54.4462,-180.845,200.718,-1570.04,-11528.3,-1973.91,47.7435,40.3797,-33.1067,-16197.1,12755.5,-758.466,30.0879,-9.48791,-110.906,15326.8,-5282.51,5489.26,-0.221818,-3.16825,26.3466
3.774,5214.15,-4989.83,7704.12,33.4925,38.3508,-17.3823,5151.9,9454.37,8334.59,376.437,-708.794,245.672,-4596.92,8399.45,-220.145,17.3488,-63.2556,-129.789,15641.3,-12935.0,-940.533,56.4418,-174.292,200.449,-1961.55,-11577.8,-2224.73,40.9935,40.658,-36.402,-16241.8,12732.2,-714.019,29.4489,-14.2879,-111.509,15153.4,-5131.38,5607.22,-1.73608,-0.396753,26.1458
3.775,4880.06,-3309.78,8223.61,32.7111,37.8045,-16.6735,6946.15,9305.22,7926.78,377.397,-700.582,236.087,-4054.32,7829.67,-227.669,16.8868,-64.8139,-128.872,14972.3,-12834.5,-1280.74,58.3592,-167.751,199.883,-2274.2,-11667.4,-2376.13,34.3804,40.7061,-40.0617,-16216.2,12706.1,-663.429,28.8435,-19.7874,-111.879,14915.0,-4936.41,5759.73,-2.82696,2.3738,25.8002
3.776,4545.96,-1629.73,8743.1,31.9297,37.2582,-15.9647,8740.4,9156.07,7518.97,378.358,-692.37,226.502,-3511.72,7259.89,-235.192,16.4248,-66.3722,-127.954,14303.4,-12734.1,-1620.95,60.2766,-161.21,199.317,-2586.85,-11757.0,-2527.52,27.7673,40.7541,-43.7215,-16190.5,12680.1,-612.839,28.2382,-25.2868,-112.248,14676.6,-4741.44,5912.25,-3.91784,5.14434,25.4545
3.777,4211.87,50.3149,9262.59,31.1483,36.7118,-15.256,10534.7,9006.91,7111.17,379.319,-684.158,216.916,-2969.12,6690.1,-242.716,15.9628,-67.9305,-127.036,13634.5,-12633.7,-1961.15,62.194,-154.669,198.751,-2899.49,-11846.6,-2678.91,21.1542,40.8021,-47.3812,-16164.8,12654.0,-562.248,27.6329,-30.7863,-112.618,14438.2,-4546.47,6064.77,-5.00873,7.91489,25.1088
3.778,3912.25,1427.9,9688.27,30.1709,36.0982,-14.4123,12368.3,9363.27,6851.6,377.733,-675.517,209.708,-2475.29,6180.75,-211.786,15.3082,-69.4869,-126.297,12964.2,-12620.5,-2360.24,64.136,-147.545,198.179,-3179.05,-11956.6,-2783.87,15.163,40.2783,-51.1123,-16106.1,12644.2,-499.647,27.0407,-36.7715,-112.807,14186.1,-4343.8,6217.76,-5.66465,10.4587,24.8006
3.779,3733.29,1746.89,9785.62,28.5069,35.2488,-13.0967,14339.6,11488.9,7110.87,367.236,-665.375,210.821,-2152.17,5882.91,-46.271,13.9795,-71.0367,-126.185,12289.4,-12912.5,-2965.41,66.1644,-138.379,197.59,-3342.79,-12137.8,-2726.31,11.3482,37.7527,-55.0932,-15931.7,12691.4,-395.006,26.4944,-44.457,-112.362,13886.0,-4114.19,6372.45,-4.79821,12.2091,24.6236
3.78,3554.34,2065.88,9882.97,26.843,34.3995,-11.781,16310.9,13614.5,7370.14,356.738,-655.232,211.934,-1829.05,5585.06,119.244,12.6508,-72.5865,-126.073,11614.6,-13204.6,-3570.58,68.1928,-129.214,197.0,-3506.53,-12319.1,-2668.74,7.53348,35.2272,-59.0741,-15757.3,12738.7,-290.366,25.9481,-52.1426,-111.918,13585.9,-3884.57,6527.13,-3.93178,13.9594,24.4466
3.781,3375.38,2384.87,9980.32,25.1791,33.5501,-10.4654,18282.3,15740.1,7629.42,346.24,-645.09,213.046,-1505.93,5287.22,284.759,11.322,-74.1363,-125.96,10939.8,-13496.6,-4175.75,70.2212,-120.048,196.411,-3670.28,-12500.4,-2611.17,3.71873,32.7016,-63.055,-15582.9,12785.9,-185.725,25.4018,-59.8281,-111.473,13285.8,-3654.96,6681.82,-3.06534,15.7097,24.2696
3.782,3196.43,2703.85,10077.7,23.5152,32.7007,-9.14973,20253.6,17865.7,7888.69,335.742,-634.948,214.159,-1182.81,4989.38,450.275,9.99332,-75.6861,-125.848,10265.0,-13788.7,-4780.92,72.2496,-110.882,195.822,-3834.02,-12681.7,-2553.6,-0.0960176,30.1761,-67.0359,-15408.5,12833.2,-81.0846,24.8555,-67.5136,-111.028,12985.8,-3425.35,6836.5,-2.19891,17.46,24.0926
3.783,3238.53,2190.55,9966.14,22.4196,31.8065,-8.02023,21870.0,20299.4,8041.1,331.088,-624.783,225.305,-1130.95,5014.27,552.411,9.40418,-76.4763,-125.202,9393.18,-14114.6,-5429.94,75.0519,-97.3288,195.599,-3955.08,-12928.0,-2441.11,-1.76487,25.479,-71.5038,-15166.8,12895.2,-17.2987,24.7381,-75.5086,-109.906,12672.3,-3183.18,6877.2,-2.00706,18.414,23.9734
3.784,3343.8,1439.44,9794.92,21.4864,30.8994,-6.94392,23384.9,22821.1,8162.97,328.104,-614.613,239.318,-1156.61,5131.37,636.44,9.02634,-77.0494,-124.403,8465.13,-14450.2,-6091.5,78.0754,-82.5221,195.481,-4063.94,-13192.9,-2312.92,-2.82062,20.1614,-76.1109,-14905.9,12961.4,34.8146,24.7433,-83.5921,-108.591,12355.0,-2937.41,6885.32,-2.00796,19.1405,23.8708
3.785,3449.07,688.333,9623.71,20.5531,29.9924,-5.86761,24899.9,25342.8,8284.84,325.119,-604.442,253.33,-1182.26,5248.47,720.468,8.64851,-77.6225,-123.604,7537.07,-14785.8,-6753.05,81.0988,-67.7153,195.363,-4172.8,-13457.8,-2184.73,-3.87636,14.8439,-80.718,-14644.9,13027.7,86.9278,24.7485,-91.6756,-107.275,12037.7,-2691.65,6893.45,-2.00885,19.867,23.7682
