Time,RFoot_accel.x,RFoot_accel.y,RFoot_accel.z,RFoot_gyro.x,RFoot_gyro.y,RFoot_gyro.z,LFoot_accel.x,LFoot_accel.y,LFoot_accel.z,LFoot_gyro.x,LFoot_gyro.y,LFoot_gyro.z,RShank_accel.x,RShank_accel.y,RShank_accel.z,RShank_gyro.x,RShank_gyro.y,RShank_gyro.z,LShank_accel.x,LShank_accel.y,LShank_accel.z,LShank_gyro.x,LShank_gyro.y,LShank_gyro.z,RThigh_accel.x,RThigh_accel.y,RThigh_accel.z,RThigh_gyro.x,RThigh_gyro.y,RThigh_gyro.z,LThigh_accel.x,LThigh_accel.y,LThigh_accel.z,LThigh_gyro.x,LThigh_gyro.y,LThigh_gyro.z,Pelvis_accel.x,Pelvis_accel.y,Pelvis_accel.z,Pelvis_gyro.x,Pelvis_gyro.y,Pelvis_gyro.z
3.42,4448.8,-1920.4,8453.43,22.4136,-35.6891,-10.1432,5296.16,4394.56,7736.17,5.09687,344.472,-205.86,-450.688,10123.6,-815.764,-5.96874,7.19045,-57.1707,485.28,-10861.3,-277.383,-8.50768,31.1342,-341.167,281.826,9346.91,-2628.29,-12.9422,-38.744,-72.2623,-5641.01,-7688.39,-2232.48,-45.076,106.936,-128.933,8745.26,330.168,650.718,-48.2844,27.379,-15.3513
3.4205,4428.9,-1932.1,8447.46,22.505,-35.7705,-9.92125,5379.87,4555.97,7768.15,4.9095,343.826,-205.504,-474.696,10099.8,-832.036,-5.92936,7.02488,-57.171,505.811,-10954.5,-302.802,-7.95873,31.2025,-341.478,289.82,9308.91,-2607.05,-12.9071,-38.665,-72.6398,-5673.62,-7684.98,-2268.19,-45.32,106.405,-128.869,8746.34,319.045,641.966,-48.4334,27.3225,-15.1794
3.421,4409.01,-1943.79,8441.49,22.5964,-35.8519,-9.69935,5463.57,4717.37,7800.13,4.72213,343.181,-205.148,-498.704,10076.1,-848.307,-5.88998,6.85931,-57.1713,526.342,-11047.6,-328.222,-7.40978,31.2708,-341.789,297.815,9270.92,-2585.8,-12.872,-38.586,-73.0173,-5706.23,-7681.58,-2303.91,-45.5639,105.874,-128.806,8747.42,307.922,633.214,-48.5824,27.2659,-15.0075
3.4215,4389.11,-1955.49,8435.53,22.6879,-35.9333,-9.47746,5547.28,4878.77,7832.11,4.53476,342.535,-204.791,-522.713,10052.3,-864.579,-5.8506,6.69374,-57.1716,546.873,-11140.8,-353.641,-6.86084,31.3391,-342.1,305.809,9232.92,-2564.56,-12.8369,-38.507,-73.3948,-5738.83,-7678.18,-2339.63,-45.8079,105.343,-128.743,8748.5,296.8,624.461,-48.7315,27.2094,-14.8356
3.422,4369.21,-1967.19,8429.56,22.7793,-36.0148,-9.25556,5630.98,5040.18,7864.09,4.34739,341.889,-204.435,-546.721,10028.5,-880.851,-5.81121,6.52817,-57.1719,567.405,-11233.9,-379.061,-6.31188,31.4074,-342.411,313.803,9194.92,-2543.31,-12.8018,-38.428,-73.7724,-5771.44,-7674.77,-2375.34,-46.0518,104.812,-128.68,8749.58,285.677,615.709,-48.8805,27.1529,-14.6636
3.4225,4360.55,-2016.66,8427.86,22.7573,-36.1584,-9.17279,5734.6,5173.67,7905.14,3.97511,341.307,-204.349,-566.448,10008.9,-894.406,-5.70076,6.26135,-57.1985,572.828,-11326.8,-394.572,-5.66818,31.56,-342.728,321.649,9167.13,-2510.94,-12.7313,-38.4864,-74.1087,-5809.29,-7676.54,-2390.32,-46.2549,104.196,-128.636,8751.15,263.763,601.375,-48.9624,27.0871,-14.5447
3.423,4360.88,-2096.35,8429.56,22.6446,-36.3519,-9.20132,5854.15,5284.84,7953.45,3.45489,340.776,-204.481,-582.751,9992.56,-905.787,-5.53344,5.91353,-57.246,566.164,-11419.6,-402.158,-4.94868,31.78,-343.05,329.376,9147.49,-2469.67,-12.6325,-38.6547,-74.4122,-5851.34,-7682.44,-2388.71,-46.4252,103.511,-128.609,8753.12,233.216,582.574,-48.9904,27.0139,-14.468
3.4235,4361.21,-2176.03,8431.27,22.5319,-36.5453,-9.22986,5973.7,5396.01,8001.75,2.93468,340.245,-204.612,-599.053,9976.24,-917.168,-5.36612,5.56571,-57.2936,559.501,-11512.3,-409.743,-4.22918,32.0001,-343.372,337.103,9127.85,-2428.4,-12.5336,-38.823,-74.7156,-5893.39,-7688.34,-2387.1,-46.5955,102.826,-128.582,8755.09,202.669,563.774,-49.0185,26.9407,-14.3914
3.424,4361.54,-2255.72,8432.98,22.4192,-36.7388,-9.25839,6093.25,5507.17,8050.06,2.41447,339.714,-204.743,-615.355,9959.92,-928.549,-5.1988,5.21789,-57.3412,552.837,-11605.1,-417.328,-3.50968,32.2202,-343.693,344.83,9108.22,-2387.14,-12.4347,-38.9913,-75.0191,-5935.44,-7694.23,-2385.49,-46.7659,102.141,-128.555,8757.06,172.123,544.973,-49.0466,26.8675,-14.3147
3.4245,4361.87,-2335.4,8434.69,22.3065,-36.9323,-9.28693,6212.8,5618.34,8098.37,1.89425,339.183,-204.874,-631.658,9943.6,-939.931,-5.03148,4.87007,-57.3888,546.174,-11697.8,-424.913,-2.79018,32.4402,-344.015,352.557,9088.58,-2345.87,-12.3359,-39.1596,-75.3225,-5977.49,-7700.13,-2383.88,-46.9362,101.457,-128.528,8759.03,141.576,526.173,-49.0746,26.7943,-14.2381
3.425,4362.2,-2415.09,8436.4,22.1938,-37.1257,-9.31546,6332.35,5729.51,8146.67,1.37404,338.652,-205.005,-647.96,9927.28,-951.312,-4.86416,4.52225,-57.4364,539.51,-11790.6,-432.499,-2.07068,32.6603,-344.337,360.284,9068.94,-2304.6,-12.237,-39.3278,-75.626,-6019.54,-7706.03,-2382.27,-47.1065,100.772,-128.5,8761.0,111.029,507.373,-49.1027,26.7211,-14.1615
3.4255,4362.53,-2494.77,8438.11,22.0811,-37.3192,-9.344,6451.9,5840.68,8194.98,0.853825,338.121,-205.136,-664.262,9910.97,-962.693,-4.69684,4.17444,-57.484,532.847,-11883.3,-440.084,-1.35118,32.8803,-344.658,368.011,9049.31,-2263.33,-12.1381,-39.4961,-75.9294,-6061.59,-7711.93,-2380.66,-47.2768,100.087,-128.473,8762.97,80.4824,488.572,-49.1308,26.648,-14.0848
3.426,4362.86,-2574.46,8439.82,21.9684,-37.5126,-9.37253,6571.45,5951.84,8243.29,0.333611,337.589,-205.267,-680.565,9894.65,-974.075,-4.52952,3.82662,-57.5315,526.183,-11976.0,-447.669,-0.63168,33.1004,-344.98,375.738,9029.67,-2222.06,-12.0393,-39.6644,-76.2329,-6103.64,-7717.83,-2379.05,-47.4472,99.4019,-128.446,8764.94,49.9356,469.772,-49.1588,26.5748,-14.0082
3.4265,4363.19,-2654.14,8441.53,21.8557,-37.7061,-9.40107,6691.0,6063.01,8291.59,-0.186603,337.058,-205.398,-696.867,9878.33,-985.456,-4.3622,3.4788,-57.5791,519.52,-12068.8,-455.254,0.0878202,33.3204,-345.302,383.465,9010.03,-2180.79,-11.9404,-39.8327,-76.5363,-6145.69,-7723.73,-2377.45,-47.6175,98.717,-128.419,8766.91,19.3888,450.972,-49.1869,26.5016,-13.9316
3.427,4370.01,-2710.2,8443.66,21.5272,-37.9483,-9.58122,6824.01,6139.46,8351.91,-0.826642,336.489,-205.702,-712.891,9870.89,-999.374,-4.25157,3.23687,-57.589,482.524,-12146.6,-445.523,0.832556,33.583,-345.599,381.69,8983.5,-2140.95,-11.9088,-40.0227,-76.7511,-6184.3,-7745.95,-2368.58,-47.602,97.9917,-128.349,8773.45,-4.59772,432.999,-49.199,26.465,-13.8606
3.4275,4380.07,-2754.43,8446.0,21.0907,-38.2148,-9.83717,6963.75,6198.56,8418.23,-1.52659,335.902,-206.093,-728.777,9867.9,-1014.56,-4.16929,3.04789,-57.5801,430.361,-12216.9,-427.133,1.58991,33.8669,-345.884,375.164,8953.52,-2101.81,-11.9109,-40.2235,-76.9215,-6221.2,-7776.34,-2356.08,-47.4935,97.2462,-128.259,8782.26,-25.3041,415.44,-49.203,26.4468,-13.7925
3.428,4390.14,-2798.67,8448.35,20.6543,-38.4814,-10.0931,7103.5,6257.65,8484.56,-2.22654,335.314,-206.483,-744.662,9864.9,-1029.75,-4.08701,2.8589,-57.5712,378.199,-12287.2,-408.743,2.34726,34.1508,-346.169,368.637,8923.54,-2062.67,-11.913,-40.4243,-77.0919,-6258.1,-7806.73,-2343.59,-47.3851,96.5006,-128.169,8791.08,-46.0105,397.881,-49.2071,26.4286,-13.7244
3.4285,4400.21,-2842.91,8450.69,20.2178,-38.7479,-10.3491,7243.24,6316.74,8550.88,-2.9265,334.726,-206.874,-760.547,9861.9,-1044.93,-4.00472,2.66992,-57.5624,326.037,-12357.5,-390.353,3.10462,34.4347,-346.455,362.111,8893.56,-2023.54,-11.9151,-40.625,-77.2623,-6295.0,-7837.12,-2331.09,-47.2766,95.7551,-128.079,8799.9,-66.7168,380.322,-49.2111,26.4104,-13.6562
3.429,4410.27,-2887.14,8453.04,19.7813,-39.0145,-10.605,7382.98,6375.83,8617.21,-3.62645,334.138,-207.264,-776.432,9858.91,-1060.12,-3.92244,2.48093,-57.5535,273.874,-12427.8,-371.964,3.86197,34.7186,-346.74,355.585,8863.58,-1984.4,-11.9172,-40.8258,-77.4327,-6331.9,-7867.51,-2318.59,-47.1682,95.0096,-127.988,8808.71,-87.4232,362.764,-49.2152,26.3922,-13.5881
3.4295,4420.34,-2931.38,8455.38,19.3449,-39.2811,-10.861,7522.73,6434.92,8683.53,-4.3264,333.55,-207.655,-792.318,9855.91,-1075.3,-3.84016,2.29195,-57.5446,221.712,-12498.1,-353.574,4.61933,35.0024,-347.025,349.058,8833.59,-1945.27,-11.9193,-41.0266,-77.6031,-6368.8,-7897.9,-2306.1,-47.0597,94.264,-127.898,8817.53,-108.13,345.205,-49.2192,26.374,-13.52
3.43,4430.4,-2975.62,8457.73,18.9084,-39.5476,-11.117,7662.47,6494.02,8749.86,-5.02635,332.962,-208.045,-808.203,9852.91,-1090.49,-3.75788,2.10296,-57.5357,169.549,-12568.4,-335.184,5.37668,35.2863,-347.31,342.532,8803.61,-1906.13,-11.9214,-41.2274,-77.7735,-6405.7,-7928.29,-2293.6,-46.9513,93.5185,-127.808,8826.35,-128.836,327.646,-49.2233,26.3558,-13.4519
3.4305,4440.47,-3019.85,8460.07,18.4719,-39.8141,-11.3729,7802.21,6553.11,8816.18,-5.7263,332.374,-208.436,-824.088,9849.91,-1105.68,-3.6756,1.91398,-57.5268,117.387,-12638.8,-316.794,6.13403,35.5702,-347.596,336.006,8773.63,-1867.0,-11.9235,-41.4282,-77.9439,-6442.6,-7958.69,-2281.11,-46.8428,92.773,-127.717,8835.17,-149.542,310.087,-49.2273,26.3376,-13.3837
3.431,4450.54,-3064.09,8462.42,18.0354,-40.0807,-11.6289,7941.96,6612.2,8882.51,-6.42625,331.786,-208.826,-839.973,9846.92,-1120.86,-3.59332,1.725,-57.5179,65.2245,-12709.1,-298.405,6.89139,35.8541,-347.881,329.479,8743.65,-1827.86,-11.9256,-41.629,-78.1143,-6479.5,-7989.08,-2268.61,-46.7344,92.0274,-127.627,8843.98,-170.249,292.528,-49.2314,26.3194,-13.3156
3.4315,4445.14,-3050.27,8473.55,17.6432,-40.396,-11.8114,8068.26,6637.93,8941.85,-7.05662,331.254,-209.289,-838.377,9850.97,-1152.47,-3.49468,1.63801,-57.5063,-12.0926,-12785.5,-266.8,7.53146,36.3217,-348.184,310.393,8732.04,-1796.98,-11.7814,-41.8093,-78.2313,-6513.86,-8018.09,-2249.16,-46.2793,91.389,-127.403,8847.38,-187.637,282.267,-49.2009,26.34,-13.2848
3.432,4435.33,-3019.86,8487.21,17.2635,-40.7252,-11.9731,8190.73,6654.14,8999.19,-7.66711,330.737,-209.773,-831.787,9857.04,-1188.76,-3.39136,1.58016,-57.4939,-96.5967,-12863.7,-231.421,8.13802,36.8417,-348.491,287.717,8725.69,-1768.46,-11.5954,-41.9837,-78.3331,-6547.49,-8046.7,-2227.73,-45.725,90.7813,-127.141,8849.23,-204.077,274.09,-49.1606,26.3717,-13.2646
3.4325,4425.51,-2989.46,8500.86,16.8838,-41.0544,-12.1347,8313.19,6670.34,9056.54,-8.2776,330.221,-210.256,-825.196,9863.11,-1225.06,-3.28804,1.52231,-57.4815,-181.101,-12941.9,-196.041,8.74458,37.3618,-348.799,265.042,8719.34,-1739.94,-11.4093,-42.1581,-78.4348,-6581.12,-8075.32,-2206.29,-45.1708,90.1735,-126.878,8851.07,-220.517,265.914,-49.1203,26.4034,-13.2444
3.433,4415.69,-2959.05,8514.51,16.5042,-41.3836,-12.2963,8435.66,6686.55,9113.88,-8.88809,329.704,-210.74,-818.605,9869.17,-1261.35,-3.18473,1.46446,-57.4691,-265.605,-13020.1,-160.662,9.35114,37.8819,-349.107,242.367,8712.98,-1711.42,-11.2233,-42.3325,-78.5366,-6614.75,-8103.94,-2184.85,-44.6166,89.5657,-126.616,8852.92,-236.957,257.737,-49.0799,26.4351,-13.2242
3.4335,4405.88,-2928.64,8528.16,16.1245,-41.7128,-12.4579,8558.12,6702.75,9171.23,-9.49858,329.188,-211.223,-812.015,9875.24,-1297.64,-3.08141,1.40661,-57.4567,-350.109,-13098.3,-125.282,9.9577,38.402,-349.415,219.692,8706.63,-1682.9,-11.0373,-42.5069,-78.6384,-6648.38,-8132.56,-2163.42,-44.0624,88.958,-126.354,8854.77,-253.397,249.561,-49.0396,26.4668,-13.204
3.434,4396.06,-2898.23,8541.81,15.7448,-42.042,-12.6195,8680.59,6718.96,9228.57,-10.1091,328.671,-211.707,-805.424,9881.31,-1333.94,-2.97809,1.34876,-57.4444,-434.613,-13176.5,-89.9024,10.5643,38.9221,-349.722,197.017,8700.28,-1654.37,-10.8513,-42.6813,-78.7402,-6682.01,-8161.17,-2141.98,-43.5082,88.3502,-126.092,8856.62,-269.837,241.384,-48.9993,26.4985,-13.1838
3.4345,4386.25,-2867.82,8555.46,15.3651,-42.3713,-12.7812,8803.05,6735.16,9285.91,-10.7196,328.154,-212.19,-798.834,9887.38,-1370.23,-2.87478,1.29091,-57.432,-519.117,-13254.6,-54.5227,11.1708,39.4422,-350.03,174.341,8693.92,-1625.85,-10.6652,-42.8557,-78.8419,-6715.64,-8189.79,-2120.55,-42.954,87.7424,-125.829,8858.46,-286.277,233.208,-48.959,26.5302,-13.1636
3.435,4376.43,-2837.42,8569.11,14.9855,-42.7005,-12.9428,8925.52,6751.36,9343.26,-11.3301,327.638,-212.674,-792.243,9893.44,-1406.53,-2.77146,1.23306,-57.4196,-603.621,-13332.8,-19.1431,11.7774,39.9623,-350.338,151.666,8687.57,-1597.33,-10.4792,-43.0301,-78.9437,-6749.27,-8218.41,-2099.11,-42.3998,87.1347,-125.567,8860.31,-302.717,225.031,-48.9186,26.5619,-13.1434
3.4355,4366.62,-2807.01,8582.76,14.6058,-43.0297,-13.1044,9047.98,6767.57,9400.6,-11.9405,327.121,-213.157,-785.652,9899.51,-1442.82,-2.66814,1.17521,-57.4072,-688.126,-13411.0,16.2365,12.3839,40.4823,-350.646,128.991,8681.21,-1568.81,-10.2932,-43.2046,-79.0455,-6782.9,-8247.02,-2077.68,-41.8456,86.5269,-125.305,8862.16,-319.157,216.855,-48.8783,26.5936,-13.1231
3.436,4362.94,-2781.66,8582.21,14.3595,-43.4513,-13.1299,9166.52,6762.46,9466.24,-12.4665,326.763,-213.585,-780.492,9892.11,-1455.71,-2.65539,1.1841,-57.4327,-785.074,-13489.1,43.1466,12.6955,40.9516,-350.909,130.409,8667.26,-1550.2,-9.9985,-43.393,-79.0105,-6811.47,-8263.6,-2057.45,-41.0759,86.1102,-124.92,8867.25,-343.171,211.541,-48.8626,26.4921,-13.1426
3.4365,4360.03,-2756.94,8579.89,14.1298,-43.8845,-13.1383,9284.58,6754.7,9532.91,-12.9819,326.424,-214.007,-775.509,9883.03,-1465.68,-2.65396,1.20133,-57.4628,-883.577,-13567.1,68.9981,12.9701,41.4144,-351.167,134.839,8652.35,-1532.82,-9.69024,-43.5832,-78.9585,-6839.41,-8278.67,-2037.38,-40.2793,85.7173,-124.52,8872.74,-368.131,206.586,-48.8499,26.374,-13.1671
3.437,4357.11,-2732.22,8577.56,13.9001,-44.3177,-13.1468,9402.63,6746.93,9599.58,-13.4972,326.085,-214.428,-770.527,9873.95,-1475.64,-2.65253,1.21856,-57.493,-982.081,-13645.2,94.8495,13.2447,41.8773,-351.425,139.269,8637.45,-1515.45,-9.38198,-43.7734,-78.9064,-6867.34,-8293.74,-2017.31,-39.4827,85.3244,-124.12,8878.23,-393.091,201.63,-48.8372,26.2558,-13.1915
3.4375,4354.2,-2707.5,8575.23,13.6704,-44.7509,-13.1552,9520.68,6739.17,9666.26,-14.0126,325.746,-214.85,-765.545,9864.86,-1485.6,-2.6511,1.23578,-57.5232,-1080.58,-13723.2,120.701,13.5194,42.3402,-351.682,143.699,8622.54,-1498.08,-9.07372,-43.9636,-78.8544,-6895.28,-8308.81,-1997.24,-38.6861,84.9315,-123.72,8883.72,-418.051,196.674,-48.8245,26.1376,-13.2159
3.438,4351.29,-2682.78,8572.91,13.4407,-45.184,-13.1637,9638.73,6731.4,9732.93,-14.528,325.408,-215.271,-760.563,9855.78,-1495.57,-2.64968,1.25301,-57.5533,-1179.09,-13801.3,146.552,13.794,42.803,-351.94,148.129,8607.63,-1480.71,-8.76546,-44.1538,-78.8024,-6923.22,-8323.89,-1977.17,-37.8895,84.5387,-123.319,8889.21,-443.011,191.719,-48.8119,26.0195,-13.2404
3.4385,4348.38,-2658.06,8570.58,13.2111,-45.6172,-13.1721,9756.78,6723.63,9799.6,-15.0433,325.069,-215.692,-755.58,9846.7,-1505.53,-2.64825,1.27024,-57.5835,-1277.59,-13879.3,172.404,14.0687,43.2659,-352.198,152.558,8592.72,-1463.34,-8.4572,-44.344,-78.7503,-6951.16,-8338.96,-1957.1,-37.0929,84.1458,-122.919,8894.71,-467.971,186.763,-48.7992,25.9013,-13.2648
3.439,4345.46,-2633.34,8568.25,12.9814,-46.0504,-13.1806,9874.83,6715.87,9866.28,-15.5587,324.73,-216.114,-750.598,9837.61,-1515.5,-2.64682,1.28747,-57.6137,-1376.09,-13957.4,198.255,14.3433,43.7288,-352.456,156.988,8577.82,-1445.96,-8.14894,-44.5342,-78.6983,-6979.1,-8354.03,-1937.02,-36.2962,83.7529,-122.519,8900.2,-492.931,181.807,-48.7865,25.7832,-13.2892
3.4395,4342.55,-2608.62,8565.93,12.7517,-46.4836,-13.189,9992.88,6708.1,9932.95,-16.0741,324.391,-216.535,-745.616,9828.53,-1525.46,-2.64539,1.3047,-57.6439,-1474.6,-14035.4,224.107,14.6179,44.1916,-352.714,161.418,8562.91,-1428.59,-7.84068,-44.7244,-78.6462,-7007.04,-8369.1,-1916.95,-35.4996,83.36,-122.119,8905.69,-517.891,176.851,-48.7739,25.665,-13.3137
3.44,4339.64,-2583.9,8563.6,12.522,-46.9168,-13.1975,10110.9,6700.33,9999.62,-16.5895,324.053,-216.956,-740.634,9819.45,-1535.43,-2.64396,1.32193,-57.674,-1573.1,-14113.4,249.958,14.8926,44.6545,-352.971,165.848,8548.0,-1411.22,-7.53241,-44.9146,-78.5942,-7034.98,-8384.17,-1896.88,-34.703,82.9672,-121.719,8911.18,-542.851,171.896,-48.7612,25.5469,-13.3381
3.4405,4324.08,-2588.81,8570.31,12.1421,-47.5149,-13.4276,10212.1,6690.86,10036.4,-17.08,323.777,-217.341,-730.69,9812.1,-1555.31,-2.74001,1.37793,-57.7031,-1652.21,-14178.6,283.137,15.0377,45.1844,-353.303,176.222,8542.42,-1412.63,-7.16485,-45.1216,-78.3837,-7065.76,-8384.12,-1865.52,-33.7731,82.9665,-121.18,8932.44,-568.96,168.406,-48.7688,25.3507,-13.3901
3.441,4308.52,-2593.72,8577.03,11.7621,-48.113,-13.6577,10313.2,6681.39,10073.1,-17.5705,323.502,-217.726,-720.747,9804.75,-1575.2,-2.83607,1.43393,-57.7321,-1731.33,-14243.8,316.315,15.1828,45.7143,-353.634,186.596,8536.83,-1414.03,-6.79728,-45.3286,-78.1731,-7096.53,-8384.07,-1834.17,-32.8432,82.9658,-120.642,8953.69,-595.07,164.916,-48.7764,25.1544,-13.4421
3.4415,4292.96,-2598.63,8583.74,11.3822,-48.7111,-13.8878,10414.3,6671.92,10109.9,-18.0611,323.227,-218.111,-710.803,9797.41,-1595.09,-2.93213,1.48992,-57.7611,-1810.44,-14308.9,349.494,15.3279,46.2441,-353.966,196.97,8531.24,-1415.44,-6.42971,-45.5356,-77.9626,-7127.31,-8384.02,-1802.81,-31.9133,82.9651,-120.103,8974.95,-621.179,161.426,-48.784,24.9582,-13.4941
3.442,4277.4,-2603.55,8590.46,11.0022,-49.3093,-14.1179,10515.5,6662.45,10146.7,-18.5516,322.952,-218.496,-700.859,9790.06,-1614.98,-3.02819,1.54592,-57.7901,-1889.55,-14374.1,382.672,15.473,46.774,-354.297,207.344,8525.66,-1416.85,-6.06214,-45.7426,-77.7521,-7158.09,-8383.97,-1771.45,-30.9834,82.9645,-119.565,8996.2,-647.289,157.936,-48.7916,24.762,-13.5461
3.4425,4261.84,-2608.46,8597.17,10.6223,-49.9074,-14.348,10616.6,6652.98,10183.4,-19.0422,322.677,-218.88,-690.916,9782.72,-1634.86,-3.12424,1.60192,-57.8192,-1968.66,-14439.3,415.851,15.6181,47.3039,-354.628,217.717,8520.07,-1418.25,-5.69457,-45.9496,-77.5416,-7188.87,-8383.93,-1740.09,-30.0535,82.9638,-119.026,9017.46,-673.398,154.446,-48.7992,24.5658,-13.5981
3.443,4246.28,-2613.37,8603.88,10.2423,-50.5055,-14.5782,10717.8,6643.51,10220.2,-19.5327,322.402,-219.265,-680.972,9775.37,-1654.75,-3.2203,1.65792,-57.8482,-2047.78,-14504.4,449.029,15.7632,47.8338,-354.96,228.091,8514.48,-1419.66,-5.327,-46.1567,-77.3311,-7219.64,-8383.88,-1708.74,-29.1236,82.9631,-118.487,9038.71,-699.508,150.956,-48.8068,24.3696,-13.6501
3.4435,4230.73,-2618.28,8610.6,9.86235,-51.1036,-14.8083,10818.9,6634.04,10257.0,-20.0233,322.127,-219.65,-671.029,9768.03,-1674.64,-3.31636,1.71392,-57.8772,-2126.89,-14569.6,482.208,15.9083,48.3637,-355.291,238.465,8508.89,-1421.07,-4.95943,-46.3637,-77.1205,-7250.42,-8383.83,-1677.38,-28.1937,82.9624,-117.949,9059.97,-725.618,147.466,-48.8144,24.1734,-13.7021
3.444,4215.17,-2623.19,8617.31,9.4824,-51.7018,-15.0384,10920.0,6624.57,10293.7,-20.5138,321.852,-220.035,-661.085,9760.68,-1694.52,-3.41241,1.76992,-57.9062,-2206.0,-14634.7,515.387,16.0534,48.8935,-355.622,248.839,8503.31,-1422.47,-4.59187,-46.5707,-76.91,-7281.2,-8383.78,-1646.02,-27.2638,82.9617,-117.41,9081.22,-751.727,143.976,-48.822,23.9772,-13.7541
3.4445,4198.56,-2631.25,8625.66,9.09467,-52.3159,-15.2522,11018.7,6618.35,10325.0,-21.0224,321.596,-220.433,-651.892,9755.06,-1713.16,-3.50827,1.82038,-57.9474,-2285.23,-14699.0,546.258,16.1984,49.4318,-355.956,257.224,8499.58,-1425.54,-4.23143,-46.7677,-76.6897,-7308.53,-8382.64,-1616.02,-26.3229,83.0252,-116.863,9101.34,-778.979,139.638,-48.8256,23.7956,-13.8142
3.445,4173.6,-2664.48,8647.05,8.64478,-53.0581,-15.3359,11097.4,6638.09,10312.2,-21.6752,321.498,-220.936,-648.701,9763.2,-1721.81,-3.60254,1.82654,-58.086,-2365.36,-14756.2,558.672,16.3427,50.0369,-356.308,249.692,8510.8,-1441.85,-3.92809,-46.885,-76.3914,-7308.25,-8372.8,-1596.84,-25.2946,83.6015,-116.249,9112.31,-815.367,128.517,-48.7964,23.7305,-13.9392
3.4455,4148.63,-2697.71,8668.44,8.19489,-53.8003,-15.4196,11176.0,6657.83,10299.4,-22.3281,321.4,-221.44,-645.51,9771.34,-1730.45,-3.6968,1.83269,-58.2246,-2445.49,-14813.5,571.087,16.4869,50.642,-356.659,242.16,8522.01,-1458.15,-3.62474,-47.0022,-76.0931,-7307.97,-8362.96,-1577.66,-24.2663,84.1778,-115.635,9123.29,-851.754,117.396,-48.7673,23.6655,-14.0641
3.446,4123.67,-2730.94,8689.83,7.74501,-54.5425,-15.5032,11254.7,6677.57,10286.6,-22.9809,321.302,-221.943,-642.319,9779.47,-1739.09,-3.79107,1.83885,-58.3632,-2525.63,-14870.7,583.501,16.6312,51.2471,-357.01,234.628,8533.23,-1474.46,-3.3214,-47.1195,-75.7948,-7307.69,-8353.12,-1558.48,-23.238,84.7541,-115.021,9134.26,-888.142,106.275,-48.7381,23.6005,-14.1891
3.4465,4098.71,-2764.17,8711.22,7.29511,-55.2847,-15.5869,11333.3,6697.31,10273.8,-23.6338,321.204,-222.447,-639.128,9787.61,-1747.74,-3.88534,1.845,-58.5017,-2605.76,-14927.9,595.916,16.7755,51.8522,-357.362,227.096,8544.44,-1490.77,-3.01805,-47.2368,-75.4966,-7307.41,-8343.28,-1539.3,-22.2097,85.3304,-114.407,9145.24,-924.53,95.1538,-48.7089,23.5354,-14.3141
3.447,4073.74,-2797.4,8732.61,6.84523,-56.0269,-15.6706,11412.0,6717.05,10261.1,-24.2866,321.106,-222.95,-635.938,9795.75,-1756.38,-3.9796,1.85116,-58.6403,-2685.9,-14985.1,608.33,16.9198,52.4573,-357.713,219.564,8555.66,-1507.08,-2.71471,-47.354,-75.1982,-7307.13,-8333.44,-1520.12,-21.1814,85.9067,-113.793,9156.21,-960.918,84.0328,-48.6798,23.4704,-14.439
3.4475,4048.78,-2830.63,8754.0,6.39534,-56.769,-15.7543,11490.7,6736.79,10248.3,-24.9395,321.008,-223.454,-632.747,9803.89,-1765.02,-4.07387,1.85731,-58.7789,-2766.03,-15042.4,620.744,17.064,53.0624,-358.065,212.032,8566.87,-1523.39,-2.41136,-47.4713,-74.9,-7306.86,-8323.6,-1500.94,-20.1531,86.483,-113.178,9167.19,-997.305,72.9119,-48.6506,23.4053,-14.564
3.448,4023.81,-2863.86,8775.39,5.94545,-57.5112,-15.8379,11569.3,6756.53,10235.5,-25.5923,320.91,-223.957,-629.556,9812.03,-1773.67,-4.16813,1.86346,-58.9175,-2846.16,-15099.6,633.159,17.2083,53.6675,-358.416,204.5,8578.08,-1539.69,-2.10802,-47.5885,-74.6017,-7306.58,-8313.76,-1481.76,-19.1248,87.0593,-112.564,9178.16,-1033.69,61.7909,-48.6215,23.3403,-14.689
3.4485,3998.85,-2897.09,8796.78,5.49556,-58.2534,-15.9216,11648.0,6776.27,10222.7,-26.2451,320.812,-224.46,-626.365,9820.17,-1782.31,-4.2624,1.86962,-59.056,-2926.3,-15156.8,645.573,17.3526,54.2726,-358.768,196.968,8589.3,-1556.0,-1.80467,-47.7058,-74.3034,-7306.3,-8303.92,-1462.58,-18.0964,87.6356,-111.95,9189.14,-1070.08,50.6699,-48.5923,23.2753,-14.8139
3.449,3968.27,-2931.77,8817.75,4.95824,-59.0682,-16.0594,11723.3,6803.85,10218.5,-26.8967,320.721,-224.921,-624.876,9825.38,-1789.11,-4.35175,1.89357,-59.1938,-2993.85,-15214.4,657.9,17.4706,54.8929,-359.078,194.33,8601.23,-1572.04,-1.53373,-47.8098,-73.9866,-7298.62,-8289.28,-1437.17,-17.1212,88.2912,-111.341,9198.41,-1104.12,42.535,-48.5619,23.1951,-14.9526
3.4495,3918.02,-2971.51,8837.29,4.11491,-60.1371,-16.3869,11786.7,6858.89,10244.5,-27.5439,320.656,-225.234,-629.34,9820.33,-1789.44,-4.42388,1.97981,-59.3285,-3017.37,-15273.1,669.92,17.4965,55.5666,-359.243,208.819,8615.69,-1587.13,-1.37621,-47.8676,-73.6053,-7265.05,-8257.84,-1389.95,-16.3317,89.224,-110.749,9201.71,-1129.94,44.8509,-48.5272,23.062,-15.1392
3.45,3867.78,-3011.25,8856.82,3.27158,-61.206,-16.7143,11850.1,6913.92,10270.4,-28.1912,320.59,-225.547,-633.805,9815.29,-1789.77,-4.49602,2.06606,-59.4632,-3040.88,-15331.9,681.94,17.5225,56.2404,-359.409,223.309,8630.15,-1602.23,-1.21869,-47.9254,-73.2239,-7231.48,-8226.4,-1342.72,-15.5422,90.1568,-110.157,9205.0,-1155.76,47.1668,-48.4925,22.9289,-15.3258
3.4505,3817.54,-3050.99,8876.35,2.42825,-62.2749,-17.0418,11913.5,6968.95,10296.4,-28.8384,320.524,-225.86,-638.269,9810.25,-1790.1,-4.56816,2.1523,-59.5979,-3064.4,-15390.6,693.96,17.5485,56.9141,-359.574,237.798,8644.6,-1617.32,-1.06117,-47.9831,-72.8426,-7197.91,-8194.96,-1295.49,-14.7526,91.0896,-109.566,9208.3,-1181.57,49.4827,-48.4579,22.7957,-15.5124
3.451,3767.29,-3090.73,8895.88,1.58492,-63.3439,-17.3692,11976.9,7023.99,10322.4,-29.4856,320.458,-226.173,-642.734,9805.2,-1790.44,-4.6403,2.23855,-59.7326,-3087.91,-15449.4,705.98,17.5745,57.5878,-359.74,252.288,8659.06,-1632.41,-0.903654,-48.0409,-72.4612,-7164.34,-8163.52,-1248.27,-13.9631,92.0225,-108.974,9211.6,-1207.39,51.7987,-48.4232,22.6626,-15.699
3.4515,3717.05,-3130.47,8915.42,0.741592,-64.4128,-17.6966,12040.4,7079.02,10348.3,-30.1328,320.392,-226.486,-647.198,9800.16,-1790.77,-4.71244,2.32479,-59.8673,-3111.43,-15508.1,718.0,17.6005,58.2615,-359.906,266.777,8673.52,-1647.5,-0.746134,-48.0986,-72.0799,-7130.77,-8132.08,-1201.04,-13.1736,92.9553,-108.382,9214.9,-1233.21,54.1146,-48.3885,22.5295,-15.8856
3.452,3666.8,-3170.2,8934.95,-0.101737,-65.4817,-18.0241,12103.8,7134.05,10374.3,-30.78,320.327,-226.799,-651.663,9795.11,-1791.1,-4.78458,2.41103,-60.002,-3134.95,-15566.9,730.02,17.6265,58.9352,-360.071,281.266,8687.97,-1662.6,-0.588614,-48.1564,-71.6985,-7097.2,-8100.65,-1153.81,-12.3841,93.8881,-107.79,9218.2,-1259.03,56.4305,-48.3538,22.3964,-16.0722
3.4525,3616.56,-3209.94,8954.48,-0.945066,-66.5506,-18.3515,12167.2,7189.09,10400.2,-31.4272,320.261,-227.112,-656.127,9790.07,-1791.43,-4.85672,2.49728,-60.1367,-3158.46,-15625.6,742.039,17.6525,59.609,-360.237,295.756,8702.43,-1677.69,-0.431095,-48.2141,-71.3172,-7063.63,-8069.21,-1106.58,-11.5945,94.8209,-107.198,9221.5,-1284.85,58.7465,-48.3191,22.2633,-16.2588
3.453,3566.32,-3249.68,8974.01,-1.7884,-67.6195,-18.679,12230.6,7244.12,10426.2,-32.0744,320.195,-227.425,-660.592,9785.02,-1791.76,-4.92885,2.58352,-60.2714,-3181.98,-15684.4,754.059,17.6785,60.2827,-360.403,310.245,8716.88,-1692.78,-0.273575,-48.2719,-70.9358,-7030.06,-8037.77,-1059.36,-10.805,95.7537,-106.607,9224.79,-1310.67,61.0624,-48.2844,22.1301,-16.4454
3.4535,3520.66,-3281.58,8999.74,-2.62378,-68.8576,-19.0336,12286.6,7304.65,10445.4,-32.6884,320.062,-227.677,-660.323,9770.95,-1792.79,-4.95654,2.69878,-60.3734,-3205.33,-15744.7,750.11,17.7528,60.9743,-360.585,329.21,8727.21,-1711.64,-0.131331,-48.3185,-70.5714,-6991.92,-8000.14,-1011.17,-10.2029,96.6567,-105.989,9229.8,-1331.49,64.1627,-48.2497,21.9228,-16.6248
3.454,3484.17,-3297.81,9037.86,-3.44329,-70.434,-19.4427,12327.6,7376.16,10451.0,-33.2359,319.796,-227.809,-650.589,9738.81,-1795.19,-4.89533,2.87205,-60.4099,-3228.35,-15808.2,714.221,17.9239,61.7017,-360.799,357.125,8729.28,-1738.03,-0.0196403,-48.3426,-70.2407,-6944.64,-7950.13,-961.041,-9.97561,97.5,-105.319,9238.22,-1342.33,68.8318,-48.215,21.5669,-16.7898
3.4545,3447.68,-3314.04,9075.99,-4.2628,-72.0104,-19.8518,12368.6,7447.67,10456.7,-33.7833,319.529,-227.941,-640.855,9706.67,-1797.59,-4.83413,3.04533,-60.4464,-3251.38,-15871.7,678.332,18.095,62.4291,-361.014,385.041,8731.34,-1764.43,0.0920508,-48.3667,-69.9101,-6897.35,-7900.12,-910.917,-9.74831,98.3432,-104.65,9246.65,-1353.17,73.5009,-48.1803,21.211,-16.9548
3.455,3411.2,-3330.27,9114.11,-5.08231,-73.5867,-20.2609,12409.7,7519.18,10462.3,-34.3308,319.262,-228.072,-631.122,9674.54,-1799.99,-4.77292,3.21861,-60.4829,-3274.4,-15935.2,642.443,18.2661,63.1565,-361.228,412.956,8733.41,-1790.82,0.203742,-48.3909,-69.5795,-6850.06,-7850.11,-860.793,-9.52102,99.1865,-103.98,9255.07,-1364.01,78.1699,-48.1456,20.8551,-17.1198
3.4555,3374.71,-3346.49,9152.24,-5.90182,-75.1631,-20.67,12450.7,7590.69,10468.0,-34.8783,318.995,-228.204,-621.388,9642.4,-1802.39,-4.71171,3.39188,-60.5194,-3297.43,-15998.7,606.554,18.4372,63.8839,-361.443,440.871,8735.47,-1817.21,0.315433,-48.415,-69.2489,-6802.78,-7800.1,-810.668,-9.29373,100.03,-103.31,9263.49,-1374.85,82.839,-48.1109,20.4992,-17.2847
3.456,3338.22,-3362.72,9190.36,-6.72133,-76.7395,-21.0791,12491.7,7662.2,10473.6,-35.4257,318.729,-228.336,-611.654,9610.26,-1804.79,-4.6505,3.56516,-60.5559,-3320.45,-16062.2,570.665,18.6083,64.6113,-361.657,468.787,8737.54,-1843.61,0.427124,-48.4391,-68.9183,-6755.49,-7750.09,-760.544,-9.06643,100.873,-102.641,9271.91,-1385.7,87.5081,-48.0762,20.1433,-17.4497
3.4565,3301.73,-3378.95,9228.48,-7.54084,-78.3159,-21.4882,12532.8,7733.71,10479.2,-35.9732,318.462,-228.468,-601.92,9578.12,-1807.2,-4.58929,3.73844,-60.5925,-3343.48,-16125.7,534.776,18.7794,65.3387,-361.872,496.702,8739.6,-1870.0,0.538815,-48.4633,-68.5876,-6708.21,-7700.08,-710.42,-8.83914,101.716,-101.971,9280.33,-1396.54,92.1772,-48.0415,19.7874,-17.6147
3.457,3265.24,-3395.18,9266.61,-8.36035,-79.8923,-21.8973,12573.8,7805.23,10484.9,-36.5207,318.195,-228.599,-592.186,9545.99,-1809.6,-4.52808,3.91172,-60.629,-3366.5,-16189.2,498.887,18.9505,66.0661,-362.086,524.617,8741.67,-1896.39,0.650506,-48.4874,-68.257,-6660.92,-7650.07,-660.295,-8.61184,102.56,-101.301,9288.76,-1407.38,96.8463,-48.0068,19.4315,-17.7797
3.4575,3228.76,-3411.4,9304.73,-9.17986,-81.4687,-22.3064,12614.9,7876.74,10490.5,-37.0682,317.928,-228.731,-582.452,9513.85,-1812.0,-4.46687,4.08499,-60.6655,-3389.53,-16252.7,462.998,19.1216,66.7935,-362.301,552.533,8743.73,-1922.79,0.762197,-48.5116,-67.9264,-6613.64,-7600.06,-610.171,-8.38455,103.403,-100.632,9297.18,-1418.22,101.515,-47.9721,19.0756,-17.9447
3.458,3186.44,-3432.21,9324.92,-10.0957,-83.0345,-22.7207,12648.0,7952.99,10489.2,-37.725,317.515,-228.994,-566.257,9493.32,-1807.12,-4.4331,4.24195,-60.7423,-3407.66,-16320.6,426.196,19.3149,67.4894,-362.423,578.504,8745.07,-1945.59,0.829726,-48.5396,-67.6175,-6560.23,-7545.06,-569.002,-8.40544,104.175,-99.9654,9299.65,-1428.02,106.689,-47.8847,18.7265,-18.0921
3.4585,3136.83,-3458.73,9322.69,-11.132,-84.587,-23.1417,12671.4,8035.16,10479.2,-38.5184,316.92,-229.421,-541.987,9487.31,-1793.15,-4.43364,4.3785,-60.8695,-3419.67,-16393.8,388.251,19.536,68.1461,-362.431,602.044,8745.49,-1963.91,0.842051,-48.5724,-67.3357,-6499.19,-7483.83,-539.027,-8.73656,104.858,-99.3033,9294.69,-1436.54,112.493,-47.7315,18.386,-18.2177
3.459,3087.22,-3485.25,9320.46,-12.1682,-86.1394,-23.5626,12694.8,8117.33,10469.2,-39.3119,316.325,-229.848,-517.717,9481.29,-1779.18,-4.43417,4.51505,-60.9967,-3431.68,-16467.1,350.306,19.7572,68.8027,-362.439,625.585,8745.91,-1982.23,0.854375,-48.6053,-67.0539,-6438.14,-7422.61,-509.052,-9.06768,105.541,-98.6412,9289.72,-1445.05,118.297,-47.5782,18.0455,-18.3433
3.4595,3037.61,-3511.77,9318.24,-13.2045,-87.6919,-23.9836,12718.2,8199.5,10459.2,-40.1054,315.729,-230.274,-493.447,9475.28,-1765.21,-4.4347,4.6516,-61.1238,-3443.69,-16540.4,312.361,19.9783,69.4594,-362.446,649.125,8746.34,-2000.56,0.8667,-48.6381,-66.7721,-6377.1,-7361.38,-479.077,-9.3988,106.224,-97.979,9284.76,-1453.56,124.101,-47.4249,17.705,-18.4689
3.46,2988.0,-3538.3,9316.01,-14.2407,-89.2444,-24.4046,12741.6,8281.67,10449.1,-40.8988,315.134,-230.701,-469.177,9469.26,-1751.24,-4.43524,4.78815,-61.251,-3455.7,-16613.7,274.416,20.1994,70.116,-362.454,672.665,8746.76,-2018.88,0.879025,-48.671,-66.4903,-6316.06,-7300.16,-449.102,-9.72992,106.907,-97.3169,9279.8,-1462.07,129.905,-47.2716,17.3645,-18.5945
3.4605,2938.39,-3564.82,9313.78,-15.277,-90.7969,-24.8255,12765.0,8363.84,10439.1,-41.6923,314.539,-231.128,-444.907,9463.25,-1737.27,-4.43577,4.9247,-61.3782,-3467.7,-16687.0,236.471,20.4206,70.7726,-362.462,696.206,8747.19,-2037.2,0.89135,-48.7038,-66.2085,-6255.01,-7238.93,-419.127,-10.061,107.59,-96.6548,9274.83,-1470.58,135.709,-47.1184,17.024,-18.7201
3.461,2888.78,-3591.34,9311.55,-16.3132,-92.3494,-25.2465,12788.4,8446.01,10429.1,-42.4858,313.943,-231.555,-420.637,9457.24,-1723.3,-4.43631,5.06125,-61.5054,-3479.71,-16760.2,198.526,20.6417,71.4293,-362.469,719.746,8747.61,-2055.52,0.903674,-48.7367,-65.9267,-6193.97,-7177.7,-389.152,-10.3922,108.273,-95.9927,9269.87,-1479.1,141.513,-46.9651,16.6835,-18.8457
3.4615,2839.17,-3617.87,9309.33,-17.3495,-93.9018,-25.6674,12811.8,8528.18,10419.1,-43.2792,313.348,-231.981,-396.367,9451.22,-1709.33,-4.43684,5.1978,-61.6325,-3491.72,-16833.5,160.581,20.8629,72.0859,-362.477,743.286,8748.04,-2073.84,0.915999,-48.7695,-65.6449,-6132.92,-7116.48,-359.178,-10.7233,108.956,-95.3306,9264.91,-1487.61,147.317,-46.8118,16.3429,-18.9713
3.462,2789.56,-3644.39,9307.1,-18.3857,-95.4543,-26.0884,12835.2,8610.35,10409.1,-44.0727,312.752,-232.408,-372.097,9445.21,-1695.35,-4.43737,5.33435,-61.7597,-3503.73,-16906.8,122.636,21.084,72.7426,-362.485,766.827,8748.46,-2092.16,0.928324,-48.8024,-65.3631,-6071.88,-7055.25,-329.203,-11.0544,109.639,-94.6684,9259.94,-1496.12,153.121,-46.6585,16.0024,-19.0969
3.4625,2777.22,-3658.89,9270.03,-19.3242,-96.6085,-26.496,12857.5,8682.69,10382.1,-44.9343,312.084,-232.94,-361.126,9446.98,-1678.89,-4.43285,5.43739,-61.8738,-3518.33,-16980.6,81.5547,21.3616,73.3545,-362.414,795.618,8748.82,-2105.35,0.97778,-48.8474,-65.1177,-6015.3,-6998.79,-297.844,-11.5501,110.259,-93.9288,9249.87,-1504.35,160.561,-46.5142,15.6707,-19.2381
3.463,2794.7,-3663.77,9205.08,-20.1845,-97.4442,-26.893,12878.8,8747.17,10341.6,-45.8505,311.356,-233.556,-360.796,9454.97,-1660.42,-4.42429,5.51363,-61.9775,-3535.0,-17054.8,37.9648,21.6844,73.9307,-362.282,828.611,8749.12,-2114.44,1.05694,-48.902,-64.9014,-5962.29,-6946.13,-265.377,-12.1774,110.83,-93.1271,9235.71,-1512.36,169.311,-46.377,15.346,-19.3918
3.4635,2812.17,-3668.65,9140.13,-21.0448,-98.2798,-27.2899,12900.2,8811.66,10301.2,-46.7666,310.628,-234.173,-360.465,9462.96,-1641.96,-4.41572,5.58987,-62.0812,-3551.67,-17129.1,-5.62513,22.0072,74.5069,-362.149,861.603,8749.42,-2123.53,1.1361,-48.9567,-64.6851,-5909.28,-6893.47,-232.911,-12.8046,111.4,-92.3255,9221.56,-1520.38,178.061,-46.2398,15.0214,-19.5455
3.464,2829.65,-3673.53,9075.18,-21.9051,-99.1154,-27.6869,12921.6,8876.14,10260.7,-47.6827,309.901,-234.789,-360.134,9470.96,-1623.49,-4.40716,5.66611,-62.185,-3568.34,-17203.3,-49.2151,22.33,75.0831,-362.016,894.596,8749.73,-2132.62,1.21526,-49.0114,-64.4688,-5856.27,-6840.82,-200.445,-13.4319,111.971,-91.5238,9207.4,-1528.39,186.81,-46.1026,14.6967,-19.6992
3.4645,2847.13,-3678.41,9010.23,-22.7654,-99.951,-28.0838,12943.0,8940.62,10220.2,-48.5988,309.173,-235.405,-359.803,9478.95,-1605.03,-4.39859,5.74235,-62.2887,-3585.01,-17277.5,-92.805,22.6528,75.6593,-361.883,927.588,8750.03,-2141.71,1.29442,-49.066,-64.2525,-5803.27,-6788.16,-167.979,-14.0592,112.541,-90.7222,9193.24,-1536.4,195.56,-45.9655,14.372,-19.8529
3.465,2864.61,-3683.29,8945.28,-23.6256,-100.787,-28.4808,12964.4,9005.1,10179.7,-49.515,308.446,-236.021,-359.473,9486.94,-1586.56,-4.39003,5.81859,-62.3924,-3601.68,-17351.8,-136.395,22.9755,76.2355,-361.75,960.581,8750.33,-2150.8,1.37358,-49.1207,-64.0362,-5750.26,-6735.5,-135.513,-14.6865,113.112,-89.9205,9179.08,-1544.41,204.309,-45.8283,14.0473,-20.0065
3.4655,2882.09,-3688.17,8880.33,-24.4859,-101.622,-28.8777,12985.8,9069.58,10139.2,-50.4311,307.718,-236.637,-359.142,9494.94,-1568.09,-4.38147,5.89483,-62.4961,-3618.35,-17426.0,-179.985,23.2983,76.8117,-361.617,993.573,8750.64,-2159.89,1.45275,-49.1754,-63.8199,-5697.25,-6682.85,-103.047,-15.3138,113.682,-89.1188,9164.93,-1552.42,213.059,-45.6911,13.7226,-20.1602
3.466,2899.57,-3693.06,8815.39,-25.3462,-102.458,-29.2747,13007.1,9134.06,10098.7,-51.3472,306.99,-237.253,-358.811,9502.93,-1549.63,-4.3729,5.97107,-62.5998,-3635.02,-17500.2,-223.575,23.6211,77.3879,-361.484,1026.57,8750.94,-2168.98,1.53191,-49.23,-63.6035,-5644.25,-6630.19,-70.5805,-15.9411,114.253,-88.3172,9150.77,-1560.43,221.808,-45.5539,13.398,-20.3139
3.4665,2917.05,-3697.94,8750.44,-26.2065,-103.294,-29.6716,13028.5,9198.54,10058.2,-52.2634,306.263,-237.87,-358.48,9510.92,-1531.16,-4.36434,6.04731,-62.7035,-3651.69,-17574.5,-267.165,23.9439,77.9641,-361.351,1059.56,8751.25,-2178.07,1.61107,-49.2847,-63.3872,-5591.24,-6577.53,-38.1143,-16.5684,114.823,-87.5155,9136.61,-1568.44,230.558,-45.4167,13.0733,-20.4676
3.467,3013.03,-3655.94,8668.96,-26.7347,-103.409,-29.9834,13059.8,9252.42,10032.0,-53.1828,305.629,-238.489,-359.716,9519.86,-1524.74,-4.48079,6.06116,-62.9267,-3699.0,-17634.8,-297.831,24.2545,78.4669,-361.238,1078.45,8741.41,-2169.03,1.66851,-49.4104,-63.1811,-5528.78,-6538.51,-8.82679,-17.2934,115.111,-86.6187,9114.62,-1567.88,227.994,-45.3351,12.7882,-20.5406
3.4675,3148.26,-3590.51,8579.22,-27.0968,-103.163,-30.2526,13096.1,9301.0,10012.9,-54.1039,305.041,-239.11,-361.734,9529.27,-1524.34,-4.65976,6.0438,-63.2097,-3761.63,-17688.2,-322.034,24.559,78.9331,-361.135,1090.29,8726.51,-2150.94,1.71509,-49.5715,-62.9801,-5461.6,-6506.3,18.8714,-18.0673,115.258,-85.6743,9088.71,-1563.04,219.774,-45.2812,12.523,-20.5734
3.468,3283.49,-3525.08,8489.48,-27.4589,-102.918,-30.5219,13132.4,9349.58,9993.73,-55.0249,304.454,-239.731,-363.753,9538.69,-1523.93,-4.83872,6.02644,-63.4927,-3824.26,-17741.5,-346.238,24.8635,79.3992,-361.032,1102.14,8711.61,-2132.84,1.76168,-49.7327,-62.779,-5394.42,-6474.1,46.5696,-18.8411,115.405,-84.73,9062.79,-1558.19,211.554,-45.2273,12.2578,-20.6061
3.4685,3418.72,-3459.64,8399.75,-27.821,-102.673,-30.7911,13168.7,9398.16,9974.59,-55.946,303.867,-240.352,-365.772,9548.1,-1523.53,-5.01769,6.00908,-63.7757,-3886.89,-17794.9,-370.442,25.168,79.8654,-360.93,1113.98,8696.7,-2114.74,1.80826,-49.8938,-62.578,-5327.24,-6441.89,74.2677,-19.615,115.551,-83.7856,9036.88,-1553.34,203.334,-45.1734,11.9926,-20.6388
3.469,3553.95,-3394.21,8310.01,-28.1831,-102.428,-31.0603,13204.9,9446.74,9955.46,-56.8671,303.28,-240.974,-367.79,9557.51,-1523.13,-5.19665,5.99172,-64.0587,-3949.52,-17848.3,-394.645,25.4725,80.3315,-360.827,1125.82,8681.8,-2096.65,1.85485,-50.0549,-62.377,-5260.06,-6409.69,101.966,-20.3888,115.698,-82.8412,9010.97,-1548.5,195.114,-45.1195,11.7274,-20.6716
3.4695,3689.18,-3328.78,8220.27,-28.5452,-102.182,-31.3295,13241.2,9495.32,9936.33,-57.7881,302.692,-241.595,-369.809,9566.92,-1522.72,-5.37562,5.97436,-64.3416,-4012.15,-17901.7,-418.849,25.777,80.7977,-360.724,1137.67,8666.9,-2078.55,1.90143,-50.2161,-62.1759,-5192.88,-6377.48,129.664,-21.1627,115.844,-81.8968,8985.05,-1543.65,186.894,-45.0656,11.4622,-20.7043
3.47,3824.41,-3263.35,8130.53,-28.9073,-101.937,-31.5987,13277.5,9543.9,9917.19,-58.7092,302.105,-242.216,-371.828,9576.33,-1522.32,-5.55458,5.957,-64.6246,-4074.78,-17955.0,-443.053,26.0815,81.2638,-360.621,1149.51,8652.0,-2060.45,1.94801,-50.3772,-61.9749,-5125.7,-6345.28,157.362,-21.9366,115.991,-80.9525,8959.14,-1538.81,178.674,-45.0118,11.1969,-20.737
3.4705,3959.64,-3197.92,8040.79,-29.2694,-101.692,-31.868,13313.7,9592.47,9898.06,-59.6303,301.518,-242.837,-373.846,9585.75,-1521.92,-5.73355,5.93964,-64.9076,-4137.41,-18008.4,-467.256,26.386,81.7299,-360.518,1161.35,8637.09,-2042.36,1.9946,-50.5384,-61.7739,-5058.52,-6313.07,185.06,-22.7104,116.138,-80.0081,8933.23,-1533.96,170.454,-44.9579,10.9317,-20.7698
3.471,4094.87,-3132.48,7951.05,-29.6315,-101.447,-32.1372,13350.0,9641.05,9878.93,-60.5514,300.93,-243.458,-375.865,9595.16,-1521.51,-5.91251,5.92228,-65.1906,-4200.04,-18061.8,-491.46,26.6906,82.1961,-360.415,1173.2,8622.19,-2024.26,2.04118,-50.6995,-61.5728,-4991.34,-6280.87,212.759,-23.4843,116.284,-79.0637,8907.31,-1529.11,162.233,-44.904,10.6665,-20.8025
3.4715,4260.01,-3045.66,7895.13,-29.4108,-100.819,-32.1415,13407.3,9677.02,9909.11,-61.6033,299.964,-243.973,-391.247,9603.06,-1513.62,-6.08106,5.88128,-65.5832,-4261.4,-18104.7,-525.731,26.8019,82.7238,-360.451,1199.55,8619.3,-1998.58,2.05264,-50.9222,-61.4523,-4930.74,-6257.65,222.694,-24.1784,116.208,-78.0673,8875.72,-1526.18,146.997,-44.9189,10.4636,-20.8276
3.472,4433.69,-2952.72,7848.86,-29.0235,-100.083,-32.0702,13470.7,9709.38,9953.39,-62.6926,298.889,-244.458,-410.447,9610.53,-1503.59,-6.24664,5.83352,-66.007,-4322.4,-18144.7,-562.879,26.858,83.2691,-360.527,1230.05,8619.85,-1970.74,2.05407,-51.1625,-61.3547,-4872.03,-6237.01,227.555,-24.8497,116.068,-77.0559,8842.51,-1523.8,129.755,-44.9534,10.2785,-20.8506
3.4725,4607.37,-2859.78,7802.59,-28.6363,-99.3467,-31.9988,13534.1,9741.74,9997.66,-63.7819,297.814,-244.943,-429.646,9618.0,-1493.55,-6.41222,5.78577,-66.4309,-4383.4,-18184.7,-600.026,26.9142,83.8144,-360.603,1260.55,8620.39,-1942.9,2.05549,-51.4028,-61.2571,-4813.32,-6216.36,232.416,-25.521,115.928,-76.0446,8809.3,-1521.42,112.514,-44.9879,10.0933,-20.8736
3.473,4781.06,-2766.84,7756.33,-28.2491,-98.6104,-31.9275,13597.4,9774.09,10041.9,-64.8712,296.739,-245.427,-448.846,9625.47,-1483.52,-6.57779,5.73801,-66.8548,-4444.4,-18224.6,-637.174,26.9703,84.3597,-360.679,1291.05,8620.94,-1915.06,2.05691,-51.6431,-61.1595,-4754.6,-6195.72,237.277,-26.1923,115.788,-75.0332,8776.09,-1519.04,95.2725,-45.0224,9.90821,-20.8965
3.4735,4954.74,-2673.9,7710.06,-27.8618,-97.874,-31.8561,13660.8,9806.45,10086.2,-65.9606,295.664,-245.912,-468.046,9632.94,-1473.48,-6.74337,5.69025,-67.2787,-4505.4,-18264.6,-674.322,27.0265,84.905,-360.755,1321.56,8621.48,-1887.22,2.05834,-51.8833,-61.0619,-4695.89,-6175.07,242.137,-26.8636,115.649,-74.0219,8742.88,-1516.65,78.0311,-45.0569,9.72308,-20.9195
3.474,5128.43,-2580.96,7663.8,-27.4746,-97.1376,-31.7847,13724.1,9838.81,10130.5,-67.0499,294.589,-246.397,-487.245,9640.41,-1463.45,-6.90895,5.64249,-67.7026,-4566.4,-18304.6,-711.469,27.0826,85.4503,-360.831,1352.06,8622.03,-1859.38,2.05976,-52.1236,-60.9643,-4637.18,-6154.43,246.998,-27.5349,115.509,-73.0105,8709.67,-1514.27,60.7897,-45.0914,9.53795,-20.9424
3.4745,5302.11,-2488.02,7617.53,-27.0874,-96.4013,-31.7134,13787.5,9871.17,10174.8,-68.1392,293.514,-246.882,-506.445,9647.89,-1453.41,-7.07453,5.59474,-68.1264,-4627.4,-18344.5,-748.617,27.1388,85.9956,-360.907,1382.56,8622.57,-1831.53,2.06119,-52.3639,-60.8668,-4578.46,-6133.78,251.859,-28.2062,115.369,-71.9992,8676.46,-1511.89,43.5483,-45.1259,9.35282,-20.9654
3.475,5475.79,-2395.08,7571.26,-26.7001,-95.6649,-31.642,13850.8,9903.53,10219.0,-69.2285,292.439,-247.366,-525.645,9655.36,-1443.38,-7.2401,5.54698,-68.5503,-4688.4,-18384.5,-785.765,27.1949,86.5409,-360.983,1413.06,8623.11,-1803.69,2.06261,-52.6042,-60.7692,-4519.75,-6113.14,256.72,-28.8775,115.229,-70.9878,8643.25,-1509.5,26.3069,-45.1604,9.1677,-20.9884
3.4755,5649.48,-2302.14,7525.0,-26.3129,-94.9285,-31.5707,13914.2,9935.89,10263.3,-70.3178,291.364,-247.851,-544.844,9662.83,-1433.35,-7.40568,5.49922,-68.9742,-4749.4,-18424.5,-822.912,27.251,87.0861,-361.059,1443.56,8623.66,-1775.85,2.06404,-52.8445,-60.6716,-4461.04,-6092.49,261.581,-29.5488,115.089,-69.9765,8610.03,-1507.12,9.06544,-45.195,8.98257,-21.0113
3.476,5751.65,-2229.97,7507.93,-25.6276,-94.0288,-31.3691,13956.3,9942.13,10267.3,-71.4511,289.949,-248.256,-553.276,9672.37,-1417.44,-7.52725,5.37595,-69.3964,-4797.5,-18450.7,-857.552,27.1304,87.7846,-361.178,1461.1,8635.71,-1762.59,1.94923,-53.0541,-60.6504,-4391.7,-6095.84,256.449,-29.9244,114.991,-69.1618,8592.36,-1507.48,-1.1446,-45.323,8.75981,-21.0757
3.4765,5844.88,-2160.4,7494.52,-24.905,-93.1087,-31.1513,13995.8,9945.11,10266.2,-72.5898,288.491,-248.651,-560.362,9682.18,-1400.8,-7.64332,5.24323,-69.8184,-4843.99,-18475.3,-891.877,26.9878,88.5022,-361.302,1477.01,8649.19,-1751.15,1.8199,-53.2599,-60.6388,-4321.03,-6102.19,250.069,-30.2632,114.897,-68.3716,8576.62,-1508.19,-10.4757,-45.4627,8.53234,-21.1453
3.477,5938.12,-2090.84,7481.1,-24.1824,-92.1885,-30.9335,14035.3,9948.09,10265.1,-73.7286,287.033,-249.046,-567.447,9691.99,-1384.16,-7.75939,5.11052,-70.2403,-4890.48,-18499.8,-926.203,26.8451,89.2198,-361.426,1492.93,8662.68,-1739.7,1.69057,-53.4657,-60.6272,-4250.36,-6108.54,243.689,-30.6019,114.804,-67.5815,8560.89,-1508.9,-19.8068,-45.6024,8.30487,-21.2149
3.4775,6031.35,-2021.27,7467.69,-23.4598,-91.2684,-30.7157,14074.8,9951.07,10264.0,-74.8674,285.576,-249.441,-574.533,9701.79,-1367.52,-7.87546,4.9778,-70.6623,-4936.97,-18524.4,-960.529,26.7024,89.9374,-361.55,1508.84,8676.16,-1728.26,1.56124,-53.6715,-60.6156,-4179.69,-6114.89,237.309,-30.9407,114.71,-66.7913,8545.16,-1509.6,-29.138,-45.7421,8.0774,-21.2844
3.478,6124.58,-1951.7,7454.27,-22.7373,-90.3483,-30.4978,14114.3,9954.04,10263.0,-76.0061,284.118,-249.836,-581.619,9711.6,-1350.88,-7.99153,4.84509,-71.0843,-4983.46,-18548.9,-994.855,26.5597,90.655,-361.674,1524.76,8689.64,-1716.82,1.43191,-53.8773,-60.604,-4109.02,-6121.24,230.929,-31.2794,114.617,-66.0012,8529.42,-1510.31,-38.4691,-45.8818,7.84994,-21.354
3.4785,6217.81,-1882.13,7440.86,-22.0147,-89.4281,-30.28,14153.8,9957.02,10261.9,-77.1449,282.661,-250.231,-588.704,9721.4,-1334.23,-8.1076,4.71238,-71.5063,-5029.95,-18573.5,-1029.18,26.417,91.3726,-361.798,1540.68,8703.13,-1705.38,1.30258,-54.0831,-60.5924,-4038.35,-6127.58,224.549,-31.6181,114.524,-65.211,8513.69,-1511.02,-47.8002,-46.0215,7.62247,-21.4236
3.479,6311.05,-1812.56,7427.44,-21.2921,-88.508,-30.0622,14193.3,9960.0,10260.8,-78.2836,281.203,-250.626,-595.79,9731.21,-1317.59,-8.22367,4.57966,-71.9283,-5076.44,-18598.0,-1063.51,26.2744,92.0902,-361.922,1556.59,8716.61,-1693.94,1.17325,-54.2889,-60.5808,-3967.68,-6133.93,218.169,-31.9569,114.43,-64.4209,8497.95,-1511.72,-57.1313,-46.1612,7.395,-21.4931
3.4795,6404.28,-1743.0,7414.03,-20.5695,-87.5878,-29.8444,14232.8,9962.98,10259.7,-79.4224,279.745,-251.022,-602.876,9741.01,-1300.95,-8.33974,4.44695,-72.3502,-5122.92,-18622.6,-1097.83,26.1317,92.8078,-362.045,1572.51,8730.1,-1682.5,1.04391,-54.4948,-60.5692,-3897.01,-6140.28,211.789,-32.2956,114.337,-63.6308,8482.22,-1512.43,-66.4624,-46.3009,7.16753,-21.5627
3.48,6497.51,-1673.43,7400.61,-19.8469,-86.6677,-29.6265,14272.3,9965.96,10258.6,-80.5611,278.288,-251.417,-609.961,9750.82,-1284.31,-8.45581,4.31423,-72.7722,-5169.41,-18647.1,-1132.16,25.989,93.5254,-362.169,1588.42,8743.58,-1671.05,0.914584,-54.7006,-60.5576,-3826.34,-6146.63,205.409,-32.6343,114.243,-62.8406,8466.49,-1513.14,-75.7936,-46.4406,6.94007,-21.6323
3.4805,6497.5,-1701.92,7404.8,-19.2408,-85.8366,-29.4559,14297.0,9974.08,10265.3,-81.4092,276.84,-251.611,-618.756,9751.9,-1280.27,-8.37635,4.13155,-73.1713,-5207.63,-18664.9,-1157.26,25.8215,94.2132,-362.336,1598.49,8739.94,-1646.35,0.777369,-54.7715,-60.457,-3769.19,-6165.75,196.593,-32.6118,114.298,-62.2619,8450.07,-1503.05,-80.4912,-46.495,6.78809,-21.6896
3.481,6497.48,-1730.4,7408.99,-18.6347,-85.0055,-29.2852,14321.8,9982.19,10272.0,-82.2573,275.391,-251.806,-627.551,9752.99,-1276.23,-8.2969,3.94886,-73.5704,-5245.85,-18682.8,-1182.36,25.6541,94.9011,-362.502,1608.56,8736.3,-1621.64,0.640155,-54.8424,-60.3563,-3712.04,-6184.86,187.777,-32.5893,114.354,-61.6831,8433.65,-1492.96,-85.1889,-46.5494,6.63611,-21.7468
3.4815,6497.47,-1758.89,7413.18,-18.0286,-84.1744,-29.1146,14346.5,9990.31,10278.7,-83.1054,273.943,-252.0,-636.346,9754.07,-1272.19,-8.21744,3.76617,-73.9695,-5284.07,-18700.6,-1207.46,25.4866,95.5889,-362.668,1618.63,8732.67,-1596.94,0.50294,-54.9133,-60.2557,-3654.89,-6203.98,178.962,-32.5668,114.409,-61.1044,8417.23,-1482.87,-89.8865,-46.6039,6.48414,-21.8041
3.482,6497.46,-1787.38,7417.37,-17.4225,-83.3433,-28.944,14371.2,9998.43,10285.4,-83.9535,272.495,-252.195,-645.141,9755.16,-1268.15,-8.13799,3.58348,-74.3685,-5322.29,-18718.4,-1232.56,25.3192,96.2767,-362.835,1628.69,8729.03,-1572.23,0.365726,-54.9842,-60.1551,-3597.74,-6223.09,170.146,-32.5442,114.464,-60.5256,8400.81,-1472.78,-94.5842,-46.6583,6.33216,-21.8614
3.4825,6497.44,-1815.86,7421.56,-16.8164,-82.5122,-28.7733,14395.9,10006.5,10292.1,-84.8016,271.047,-252.389,-653.936,9756.25,-1264.11,-8.05853,3.4008,-74.7676,-5360.51,-18736.2,-1257.66,25.1517,96.9645,-363.001,1638.76,8725.39,-1547.52,0.228512,-55.0551,-60.0545,-3540.59,-6242.21,161.331,-32.5217,114.519,-59.9469,8384.39,-1462.69,-99.2818,-46.7127,6.18019,-21.9187
3.483,6497.43,-1844.35,7425.75,-16.2103,-81.6811,-28.6027,14420.7,10014.7,10298.8,-85.6497,269.599,-252.583,-662.731,9757.33,-1260.07,-7.97908,3.21811,-75.1667,-5398.73,-18754.1,-1282.76,24.9842,97.6523,-363.167,1648.83,8721.75,-1522.82,0.0912971,-55.126,-59.9539,-3483.44,-6261.33,152.515,-32.4992,114.574,-59.3681,8367.97,-1452.6,-103.979,-46.7672,6.02821,-21.976
3.4835,6497.42,-1872.84,7429.94,-15.6042,-80.85,-28.432,14445.4,10022.8,10305.5,-86.4978,268.15,-252.778,-671.526,9758.42,-1256.03,-7.89962,3.03542,-75.5658,-5436.95,-18771.9,-1307.86,24.8168,98.3401,-363.334,1658.9,8718.11,-1498.11,-0.0459173,-55.1968,-59.8532,-3426.29,-6280.44,143.699,-32.4767,114.63,-58.7894,8351.55,-1442.52,-108.677,-46.8216,5.87623,-22.0332
3.484,6497.4,-1901.32,7434.14,-14.9981,-80.0189,-28.2614,14470.1,10030.9,10312.2,-87.3459,266.702,-252.972,-680.321,9759.5,-1251.99,-7.82017,2.85273,-75.9649,-5475.17,-18789.7,-1332.97,24.6493,99.0279,-363.5,1668.97,8714.47,-1473.41,-0.183132,-55.2677,-59.7526,-3369.14,-6299.56,134.884,-32.4541,114.685,-58.2106,8335.13,-1432.43,-113.375,-46.876,5.72426,-22.0905
3.4845,6490.32,-1932.93,7437.9,-14.4176,-79.193,-28.1048,14496.2,10037.2,10319.0,-88.1547,265.293,-253.14,-689.525,9761.74,-1246.22,-7.75115,2.6786,-76.3558,-5512.22,-18805.8,-1358.98,24.4917,99.7124,-363.644,1677.92,8712.31,-1450.39,-0.307636,-55.3131,-59.6582,-3309.68,-6318.75,127.802,-32.4147,114.75,-57.6555,8319.16,-1421.57,-119.089,-46.9292,5.58405,-22.1511
3.485,6426.69,-1989.49,7438.27,-14.0419,-78.4089,-28.0612,14533.4,10029.0,10326.5,-88.6493,264.193,-253.096,-702.001,9773.25,-1226.66,-7.76562,2.57287,-76.6812,-5539.91,-18808.4,-1392.31,24.4128,100.371,-363.614,1677.92,8721.98,-1440.88,-0.330463,-55.154,-59.6132,-3231.72,-6338.51,134.593,-32.2404,114.893,-57.2895,8306.82,-1404.59,-132.931,-46.9727,5.53799,-22.2384
3.4855,6363.05,-2046.04,7438.65,-13.6662,-77.6248,-28.0176,14570.6,10020.7,10334.1,-89.1439,263.094,-253.052,-714.478,9784.76,-1207.09,-7.78009,2.46714,-77.0067,-5567.6,-18810.9,-1425.64,24.3339,101.03,-363.583,1677.92,8731.65,-1431.37,-0.35329,-54.9948,-59.5682,-3153.77,-6358.28,141.384,-32.0661,115.036,-56.9235,8294.47,-1387.62,-146.773,-47.0163,5.49194,-22.3256
3.486,6299.42,-2102.6,7439.02,-13.2905,-76.8407,-27.974,14607.8,10012.5,10341.7,-89.6385,261.995,-253.008,-726.955,9796.27,-1187.52,-7.79455,2.36141,-77.3321,-5595.29,-18813.4,-1458.96,24.2549,101.688,-363.552,1677.93,8741.32,-1421.86,-0.376117,-54.8357,-59.5232,-3075.82,-6378.04,148.175,-31.8917,115.18,-56.5575,8282.13,-1370.64,-160.615,-47.0598,5.44589,-22.4129
3.4865,6235.78,-2159.16,7439.4,-12.9149,-76.0566,-27.9304,14645.0,10004.2,10349.3,-90.133,260.895,-252.964,-739.432,9807.78,-1167.95,-7.80902,2.25569,-77.6576,-5622.98,-18815.9,-1492.29,24.176,102.347,-363.521,1677.93,8750.99,-1412.35,-0.398943,-54.6765,-59.4782,-2997.86,-6397.81,154.965,-31.7174,115.323,-56.1915,8269.79,-1353.66,-174.458,-47.1033,5.39983,-22.5001
3.487,6172.15,-2215.71,7439.77,-12.5392,-75.2725,-27.8868,14682.2,9995.96,10356.8,-90.6276,259.796,-252.92,-751.908,9819.29,-1148.38,-7.82349,2.14996,-77.983,-5650.67,-18818.4,-1525.62,24.0971,103.006,-363.491,1677.94,8760.66,-1402.84,-0.42177,-54.5174,-59.4332,-2919.91,-6417.57,161.756,-31.543,115.466,-55.8255,8257.45,-1336.68,-188.3,-47.1468,5.35378,-22.5874
3.4875,6108.51,-2272.27,7440.14,-12.1635,-74.4885,-27.8432,14719.4,9987.71,10364.4,-91.1222,258.696,-252.876,-764.385,9830.8,-1128.81,-7.83796,2.04423,-78.3085,-5678.35,-18821.0,-1558.95,24.0181,103.665,-363.46,1677.94,8770.33,-1393.33,-0.444597,-54.3583,-59.3882,-2841.95,-6437.34,168.547,-31.3687,115.609,-55.4595,8245.1,-1319.7,-202.142,-47.1903,5.30772,-22.6747
3.488,6044.88,-2328.83,7440.52,-11.7878,-73.7044,-27.7996,14756.6,9979.46,10372.0,-91.6167,257.597,-252.832,-776.862,9842.31,-1109.24,-7.85243,1.9385,-78.634,-5706.04,-18823.5,-1592.27,23.9392,104.323,-363.429,1677.94,8780.0,-1383.82,-0.467424,-54.1992,-59.3432,-2764.0,-6457.1,175.338,-31.1944,115.753,-55.0935,8232.76,-1302.73,-215.984,-47.2339,5.26167,-22.7619
3.4885,5981.25,-2385.38,7440.89,-11.4121,-72.9203,-27.756,14793.8,9971.21,10379.5,-92.1113,256.498,-252.788,-789.339,9853.82,-1089.67,-7.8669,1.83277,-78.9594,-5733.73,-18826.0,-1625.6,23.8603,104.982,-363.399,1677.95,8789.67,-1374.31,-0.49025,-54.04,-59.2982,-2686.05,-6476.87,182.129,-31.02,115.896,-54.7275,8220.42,-1285.75,-229.827,-47.2774,5.21561,-22.8492
3.489,5916.91,-2431.75,7445.59,-11.0847,-72.1974,-27.7043,14837.9,9959.98,10382.7,-92.4897,255.522,-252.758,-795.959,9865.34,-1071.58,-7.89039,1.73642,-79.2788,-5763.89,-18831.1,-1665.8,23.7916,105.691,-363.301,1676.14,8797.92,-1368.21,-0.519238,-53.8397,-59.2689,-2609.33,-6494.88,186.209,-30.8597,116.057,-54.42,8206.14,-1270.69,-245.185,-47.3098,5.16426,-22.9249
3.4895,5850.11,-2442.46,7465.44,-10.9263,-71.6886,-27.6243,14906.2,9938.28,10370.5,-92.4615,254.977,-252.779,-782.08,9876.88,-1058.62,-7.94549,1.67289,-79.5767,-5802.69,-18844.9,-1730.05,23.7588,106.579,-362.968,1668.01,8801.18,-1374.05,-0.56979,-53.4951,-59.2944,-2536.94,-6506.75,180.804,-30.7483,116.279,-54.317,8185.1,-1262.35,-265.85,-47.3035,5.09435,-22.9602
3.49,5783.31,-2453.17,7485.29,-10.7679,-71.1798,-27.5443,14974.5,9916.58,10358.3,-92.4333,254.432,-252.799,-768.201,9888.42,-1045.66,-8.00058,1.60936,-79.8747,-5841.5,-18858.8,-1794.3,23.726,107.466,-362.636,1659.88,8804.45,-1379.89,-0.620343,-53.1506,-59.32,-2464.54,-6518.63,175.399,-30.637,116.501,-54.2141,8164.06,-1254.02,-286.515,-47.2973,5.02444,-22.9956
3.4905,5716.52,-2463.89,7505.15,-10.6095,-70.671,-27.4644,15042.8,9894.89,10346.1,-92.4052,253.888,-252.82,-754.322,9899.96,-1032.7,-8.05568,1.54583,-80.1727,-5880.3,-18872.6,-1858.55,23.6931,108.354,-362.303,1651.75,8807.72,-1385.72,-0.670895,-52.8061,-59.3455,-2392.15,-6530.5,169.995,-30.5257,116.723,-54.1111,8143.02,-1245.68,-307.181,-47.291,4.95453,-23.0309
3.491,5649.72,-2474.6,7525.0,-10.4511,-70.1622,-27.3844,15111.1,9873.19,10333.9,-92.377,253.343,-252.84,-740.443,9911.51,-1019.74,-8.11077,1.4823,-80.4707,-5919.1,-18886.5,-1922.8,23.6603,109.241,-361.97,1643.61,8810.99,-1391.56,-0.721447,-52.4615,-59.3711,-2319.76,-6542.37,164.59,-30.4143,116.945,-54.0082,8121.98,-1237.34,-327.846,-47.2847,4.88462,-23.0663
3.4915,5582.92,-2485.31,7544.85,-10.2926,-69.6534,-27.3044,15179.4,9851.49,10321.7,-92.3488,252.798,-252.861,-726.564,9923.05,-1006.79,-8.16587,1.41877,-80.7686,-5957.9,-18900.3,-1987.04,23.6275,110.128,-361.638,1635.48,8814.26,-1397.4,-0.771999,-52.117,-59.3967,-2247.36,-6554.25,159.185,-30.303,117.167,-53.9052,8100.94,-1229.0,-348.511,-47.2784,4.81471,-23.1016
3.492,5516.12,-2496.02,7564.7,-10.1342,-69.1446,-27.2244,15247.7,9829.8,10309.5,-92.3206,252.254,-252.881,-712.685,9934.59,-993.829,-8.22096,1.35524,-81.0666,-5996.7,-18914.2,-2051.29,23.5947,111.016,-361.305,1627.35,8817.53,-1403.23,-0.822551,-51.7725,-59.4222,-2174.97,-6566.12,153.78,-30.1916,117.389,-53.8022,8079.9,-1220.67,-369.176,-47.2721,4.7448,-23.137
3.4925,5449.33,-2506.73,7584.55,-9.97579,-68.6358,-27.1445,15316.0,9808.1,10297.4,-92.2924,251.709,-252.901,-698.806,9946.13,-980.871,-8.27606,1.2917,-81.3646,-6035.5,-18928.0,-2115.54,23.5619,111.903,-360.973,1619.22,8820.8,-1409.07,-0.873104,-51.4279,-59.4478,-2102.58,-6577.99,148.375,-30.0803,117.612,-53.6993,8058.86,-1212.33,-389.841,-47.2658,4.67489,-23.1723
3.493,5382.53,-2517.44,7604.4,-9.81737,-68.127,-27.0645,15384.3,9786.4,10285.2,-92.2643,251.164,-252.922,-684.927,9957.68,-967.913,-8.33115,1.22817,-81.6626,-6074.31,-18941.9,-2179.79,23.529,112.79,-360.64,1611.08,8824.07,-1414.91,-0.923656,-51.0834,-59.4733,-2030.19,-6589.87,142.97,-29.969,117.834,-53.5963,8037.82,-1203.99,-410.506,-47.2596,4.60498,-23.2077
3.4935,5336.61,-2513.27,7626.4,-9.69168,-67.6917,-26.9661,15470.1,9770.99,10273.8,-91.9817,250.781,-253.049,-676.119,9970.33,-951.297,-8.39402,1.17722,-81.9671,-6110.52,-18968.4,-2243.57,23.5377,113.649,-360.233,1609.14,8831.77,-1414.42,-0.949936,-50.7321,-59.5075,-1955.02,-6597.97,137.484,-29.8916,118.107,-53.5337,8020.04,-1191.38,-420.593,-47.2289,4.52664,-23.202
3.494,5332.45,-2479.32,7652.69,-9.63145,-67.4035,-26.8309,15590.8,9768.16,10264.0,-91.1905,250.719,-253.389,-677.453,9985.21,-927.365,-8.47245,1.15141,-82.2847,-6141.55,-19020.1,-2306.43,23.6292,114.449,-359.676,1619.6,8848.32,-1401.27,-0.927673,-50.3673,-59.559,-1874.32,-6598.54,131.835,-29.8821,118.482,-53.5517,8008.76,-1170.21,-409.523,-47.1493,4.43145,-23.1142
3.4945,5328.28,-2445.38,7678.97,-9.57123,-67.1152,-26.6956,15711.6,9765.32,10254.3,-90.3993,250.658,-253.729,-678.786,10000.1,-903.433,-8.55088,1.12561,-82.6023,-6172.57,-19071.8,-2369.28,23.7207,115.248,-359.119,1630.05,8864.87,-1388.12,-0.90541,-50.0025,-59.6104,-1793.62,-6599.11,126.187,-29.8726,118.857,-53.5698,7997.48,-1149.03,-398.454,-47.0698,4.33626,-23.0265
3.495,5324.12,-2411.43,7705.26,-9.51101,-66.8269,-26.5604,15832.4,9762.49,10244.6,-89.6081,250.596,-254.069,-680.12,10015.0,-879.501,-8.62931,1.09981,-82.9199,-6203.6,-19123.5,-2432.14,23.8123,116.048,-358.562,1640.5,8881.42,-1374.97,-0.883147,-49.6376,-59.6619,-1712.92,-6599.68,120.538,-29.8632,119.232,-53.5878,7986.21,-1127.86,-387.384,-46.9902,4.24107,-22.9387
3.4955,5319.96,-2377.49,7731.55,-9.45078,-66.5387,-26.4251,15953.1,9759.65,10234.8,-88.8169,250.535,-254.408,-681.453,10029.8,-855.569,-8.70774,1.074,-83.2375,-6234.63,-19175.2,-2494.99,23.9038,116.848,-358.005,1650.95,8897.97,-1361.82,-0.860884,-49.2728,-59.7133,-1632.21,-6600.25,114.89,-29.8537,119.607,-53.6059,7974.93,-1106.69,-376.314,-46.9107,4.14588,-22.851
3.496,5315.79,-2343.54,7757.84,-9.39056,-66.2504,-26.2899,16073.9,9756.82,10225.1,-88.0257,250.474,-254.748,-682.786,10044.7,-831.637,-8.78617,1.0482,-83.5551,-6265.66,-19226.9,-2557.85,23.9953,117.648,-357.448,1661.4,8914.53,-1348.68,-0.838621,-48.908,-59.7648,-1551.51,-6600.82,109.241,-29.8442,119.982,-53.6239,7963.66,-1085.52,-365.244,-46.8311,4.05069,-22.7632
3.4965,5311.63,-2309.6,7784.12,-9.33033,-65.9621,-26.1546,16194.6,9753.98,10215.3,-87.2344,250.412,-255.088,-684.12,10059.6,-807.704,-8.8646,1.0224,-83.8727,-6296.69,-19278.6,-2620.7,24.0869,118.448,-356.891,1671.85,8931.08,-1335.53,-0.816358,-48.5432,-59.8162,-1470.81,-6601.39,103.592,-29.8348,120.357,-53.6419,7952.38,-1064.34,-354.175,-46.7516,3.9555,-22.6755
3.497,5307.47,-2275.65,7810.41,-9.27011,-65.6739,-26.0194,16315.4,9751.14,10205.6,-86.4432,250.351,-255.428,-685.453,10074.5,-783.772,-8.94302,0.996592,-84.1904,-6327.72,-19330.3,-2683.56,24.1784,119.248,-356.334,1682.3,8947.63,-1322.38,-0.794095,-48.1784,-59.8677,-1390.1,-6601.96,97.9438,-29.8253,120.732,-53.66,7941.1,-1043.17,-343.105,-46.672,3.86031,-22.5877
3.4975,5303.31,-2241.71,7836.7,-9.20988,-65.3856,-25.8841,16436.2,9748.31,10195.9,-85.652,250.29,-255.768,-686.787,10089.4,-759.84,-9.02145,0.970788,-84.508,-6358.75,-19382.0,-2746.41,24.27,120.047,-355.777,1692.75,8964.18,-1309.23,-0.771832,-47.8135,-59.9191,-1309.4,-6602.53,92.2953,-29.8158,121.107,-53.678,7929.83,-1022.0,-332.035,-46.5925,3.76512,-22.5
3.498,5314.07,-2204.86,7854.39,-9.08746,-65.1143,-25.7475,16565.6,9750.25,10173.9,-84.6496,250.343,-256.205,-693.82,10101.7,-738.708,-9.09486,0.958518,-84.7627,-6418.89,-19433.5,-2781.97,24.3629,120.703,-355.166,1696.65,8975.1,-1296.89,-0.755845,-47.4209,-60.004,-1227.34,-6614.21,96.0565,-29.9001,121.519,-53.6297,7922.38,-1002.83,-321.764,-46.4736,3.6758,-22.4047
3.4985,5343.5,-2164.37,7861.34,-8.88731,-64.8641,-25.6093,16705.8,9758.17,10136.7,-83.3831,250.541,-256.763,-707.979,10111.0,-721.076,-9.162,0.963165,-84.9387,-6515.41,-19484.8,-2783.39,24.4576,121.18,-354.489,1692.36,8978.97,-1285.55,-0.747703,-46.9934,-60.1307,-1143.58,-6639.78,111.58,-30.1015,121.979,-53.4983,7919.71,-986.174,-312.49,-46.3057,3.59383,-22.3
3.499,5372.92,-2123.89,7868.29,-8.68714,-64.6139,-25.471,16846.0,9766.09,10099.5,-82.1166,250.738,-257.321,-722.137,10120.3,-703.444,-9.22913,0.967812,-85.1148,-6611.93,-19536.0,-2784.81,24.5522,121.656,-353.811,1688.07,8982.84,-1274.21,-0.739562,-46.5659,-60.2574,-1059.81,-6665.35,127.103,-30.3029,122.438,-53.367,7917.04,-969.517,-303.217,-46.1377,3.51186,-22.1954
3.4995,5402.34,-2083.41,7875.24,-8.48699,-64.3636,-25.3327,16986.2,9774.0,10062.3,-80.8502,250.936,-257.879,-736.296,10129.5,-685.812,-9.29626,0.972459,-85.2908,-6708.45,-19587.3,-2786.23,24.6469,122.132,-353.133,1683.78,8986.71,-1262.87,-0.73142,-46.1384,-60.3841,-976.049,-6690.91,142.627,-30.5043,122.898,-53.2356,7914.38,-952.859,-293.943,-45.9698,3.42988,-22.0907
3.5,5431.77,-2042.93,7882.19,-8.28683,-64.1134,-25.1945,17126.4,9781.92,10025.1,-79.5837,251.133,-258.437,-750.455,10138.8,-668.18,-9.3634,0.977106,-85.4669,-6804.98,-19638.6,-2787.65,24.7416,122.609,-352.456,1679.48,8990.58,-1251.53,-0.723279,-45.7109,-60.5107,-892.286,-6716.48,158.15,-30.7056,123.358,-53.1043,7911.71,-936.202,-284.669,-45.8018,3.34791,-21.986
3.5005,5461.19,-2002.44,7889.14,-8.08667,-63.8632,-25.0562,17266.6,9789.84,9987.92,-78.3172,251.331,-258.995,-764.613,10148.1,-650.548,-9.43053,0.981753,-85.6429,-6901.5,-19689.8,-2789.07,24.8363,123.085,-351.778,1675.19,8994.46,-1240.19,-0.715137,-45.2834,-60.6374,-808.522,-6742.05,173.674,-30.907,123.817,-52.9729,7909.04,-919.544,-275.396,-45.6338,3.26593,-21.8814
3.501,5490.62,-1961.96,7896.09,-7.88651,-63.613,-24.9179,17406.8,9797.76,9950.72,-77.0508,251.528,-259.553,-778.772,10157.3,-632.916,-9.49767,0.9864,-85.819,-6998.02,-19741.1,-2790.49,24.931,123.561,-351.101,1670.9,8998.33,-1228.85,-0.706996,-44.8559,-60.7641,-724.759,-6767.61,189.197,-31.1084,124.277,-52.8416,7906.38,-902.887,-266.122,-45.4659,3.18396,-21.7767
3.5015,5520.04,-1921.48,7903.04,-7.68635,-63.3628,-24.7796,17547.0,9805.67,9913.51,-75.7843,251.725,-260.111,-792.931,10166.6,-615.284,-9.5648,0.991047,-85.995,-7094.55,-19792.3,-2791.92,25.0256,124.038,-350.423,1666.61,9002.2,-1217.51,-0.698854,-44.4284,-60.8908,-640.996,-6793.18,204.721,-31.3098,124.736,-52.7102,7903.71,-886.229,-256.849,-45.2979,3.10199,-21.672
3.502,5549.47,-1881.0,7909.99,-7.48619,-63.1126,-24.6414,17687.2,9813.59,9876.31,-74.5178,251.923,-260.669,-807.089,10175.8,-597.652,-9.63194,0.995694,-86.1711,-7191.07,-19843.6,-2793.34,25.1203,124.514,-349.745,1662.32,9006.07,-1206.17,-0.690713,-44.0009,-61.0175,-557.233,-6818.75,220.244,-31.5112,125.196,-52.5789,7901.04,-869.572,-247.575,-45.13,3.02001,-21.5673
3.5025,5564.69,-1862.95,7918.13,-7.24147,-62.8816,-24.5178,17832.0,9826.98,9813.31,-73.1896,252.073,-261.244,-807.856,10177.1,-575.022,-9.64694,1.01988,-86.3614,-7307.35,-19877.5,-2826.57,25.1175,124.925,-348.894,1650.35,9006.59,-1195.9,-0.730683,-43.6122,-61.1712,-463.247,-6836.79,264.319,-31.7949,125.648,-52.4473,7901.41,-856.777,-244.469,-44.9217,2.85564,-21.4611
3.503,5568.55,-1862.86,7927.22,-6.9611,-62.6658,-24.4061,17980.5,9844.75,9729.67,-71.812,252.187,-261.833,-797.909,10172.0,-548.393,-9.62025,1.05969,-86.5632,-7439.44,-19897.5,-2885.25,25.0368,125.283,-347.904,1632.24,9004.42,-1186.48,-0.809142,-43.2545,-61.3466,-361.083,-6848.82,331.234,-32.1443,126.093,-52.3157,7904.21,-847.072,-246.295,-44.6812,2.62534,-21.3537
3.5035,5572.4,-1862.77,7936.31,-6.68073,-62.4501,-24.2944,18129.0,9862.51,9646.02,-70.4344,252.3,-262.422,-787.962,10166.9,-521.764,-9.59355,1.0995,-86.765,-7571.53,-19917.5,-2943.94,24.956,125.641,-346.913,1614.13,9002.24,-1177.07,-0.8876,-42.8968,-61.522,-258.919,-6860.85,398.15,-32.4937,126.538,-52.1841,7907.0,-837.367,-248.122,-44.4407,2.39504,-21.2463
3.504,5576.26,-1862.68,7945.4,-6.40036,-62.2344,-24.1826,18277.5,9880.28,9562.38,-69.0569,252.413,-263.011,-778.015,10161.8,-495.135,-9.56685,1.13931,-86.9667,-7703.62,-19937.5,-3002.62,24.8753,125.999,-345.923,1596.02,9000.07,-1167.65,-0.966059,-42.5392,-61.6974,-156.755,-6872.88,465.066,-32.8431,126.983,-52.0524,7909.8,-827.662,-249.949,-44.2002,2.16473,-21.1389
3.5045,5580.12,-1862.59,7954.49,-6.11999,-62.0187,-24.0709,18426.0,9898.05,9478.73,-67.6793,252.526,-263.6,-768.069,10156.7,-468.507,-9.54016,1.17912,-87.1685,-7835.71,-19957.5,-3061.3,24.7945,126.357,-344.932,1577.91,8997.9,-1158.23,-1.04452,-42.1815,-61.8728,-54.5913,-6884.9,531.982,-33.1926,127.428,-51.9208,7912.6,-817.957,-251.776,-43.9598,1.93443,-21.0315
3.505,5583.98,-1862.5,7963.58,-5.83962,-61.803,-23.9592,18574.5,9915.81,9395.09,-66.3017,252.639,-264.189,-758.122,10151.6,-441.878,-9.51346,1.21893,-87.3703,-7967.8,-19977.6,-3119.99,24.7138,126.715,-343.942,1559.8,8995.73,-1148.82,-1.12298,-41.8238,-62.0482,47.5727,-6896.93,598.897,-33.542,127.873,-51.7892,7915.4,-808.252,-253.602,-43.7193,1.70413,-20.9241
3.5055,5587.83,-1862.41,7972.67,-5.55925,-61.5872,-23.8474,18722.9,9933.58,9311.44,-64.9241,252.752,-264.778,-748.175,10146.5,-415.249,-9.48677,1.25874,-87.5721,-8099.89,-19997.6,-3178.67,24.633,127.074,-342.951,1541.7,8993.55,-1139.4,-1.20144,-41.4661,-62.2235,149.737,-6908.96,665.813,-33.8914,128.318,-51.6575,7918.19,-798.547,-255.429,-43.4788,1.47383,-20.8167
3.506,5591.69,-1862.32,7981.76,-5.27888,-61.3715,-23.7357,18871.4,9951.34,9227.8,-63.5465,252.865,-265.367,-738.228,10141.4,-388.62,-9.46007,1.29856,-87.7738,-8231.98,-20017.6,-3237.35,24.5523,127.432,-341.961,1523.59,8991.38,-1129.98,-1.27989,-41.1084,-62.3989,251.901,-6920.99,732.729,-34.2408,128.763,-51.5259,7920.99,-788.842,-257.256,-43.2383,1.24353,-20.7093
3.5065,5595.55,-1862.23,7990.85,-4.99852,-61.1558,-23.6239,19019.9,9969.11,9144.15,-62.169,252.978,-265.956,-728.281,10136.3,-361.992,-9.43337,1.33837,-87.9756,-8364.07,-20037.6,-3296.03,24.4715,127.79,-340.97,1505.48,8989.21,-1120.57,-1.35835,-40.7508,-62.5743,354.065,-6933.02,799.644,-34.5903,129.208,-51.3942,7923.78,-779.137,-259.083,-42.9978,1.01323,-20.6019
3.507,5602.49,-1873.08,8004.93,-4.76954,-61.0301,-23.4283,19160.3,9983.52,9047.51,-60.8339,252.788,-266.387,-725.769,10136.7,-332.357,-9.36757,1.40825,-88.1964,-8510.51,-20074.0,-3332.45,24.3463,128.093,-340.069,1484.72,9003.15,-1118.82,-1.42458,-40.386,-62.785,470.957,-6957.19,877.885,-34.9126,129.685,-51.2165,7919.45,-769.004,-256.24,-42.7986,0.757208,-20.4747
3.5075,5610.97,-1889.39,8021.49,-4.56627,-60.9494,-23.1907,19296.6,9996.25,8944.38,-59.5202,252.447,-266.738,-726.975,10139.9,-301.219,-9.28221,1.49318,-88.4268,-8664.12,-20118.6,-3357.72,24.1989,128.369,-339.213,1462.63,9025.14,-1120.91,-1.4847,-40.0177,-63.0132,595.214,-6987.44,961.788,-35.2214,130.178,-51.0156,7911.55,-758.658,-251.063,-42.6199,0.488324,-20.3376
3.508,5619.45,-1905.69,8038.05,-4.363,-60.8687,-22.9532,19433.0,10009.0,8841.25,-58.2065,252.105,-267.089,-728.18,10143.0,-270.081,-9.19685,1.5781,-88.6571,-8817.74,-20163.2,-3383.0,24.0514,128.645,-338.356,1440.54,9047.13,-1123.01,-1.54481,-39.6494,-63.2415,719.472,-7017.68,1045.69,-35.5303,130.671,-50.8148,7903.65,-748.311,-245.886,-42.4413,0.219441,-20.2006
3.5085,5627.93,-1922.0,8054.62,-4.15972,-60.788,-22.7156,19569.3,10021.7,8738.11,-56.8927,251.764,-267.441,-729.385,10146.1,-238.944,-9.11149,1.66303,-88.8874,-8971.35,-20207.8,-3408.28,23.9039,128.92,-337.5,1418.45,9069.12,-1125.1,-1.60493,-39.281,-63.4698,843.729,-7047.93,1129.59,-35.8391,131.163,-50.6139,7895.75,-737.964,-240.709,-42.2626,-0.0494426,-20.0635
3.509,5636.41,-1938.31,8071.18,-3.95645,-60.7074,-22.478,19705.6,10034.4,8634.97,-55.579,251.423,-267.792,-730.59,10149.3,-207.806,-9.02613,1.74795,-89.1178,-9124.96,-20252.4,-3433.56,23.7565,129.196,-336.643,1396.36,9091.12,-1127.19,-1.66504,-38.9127,-63.6981,967.986,-7078.17,1213.5,-36.1479,131.656,-50.4131,7887.84,-727.617,-235.532,-42.084,-0.318326,-19.9264
3.5095,5644.89,-1954.62,8087.74,-3.75317,-60.6267,-22.2405,19842.0,10047.2,8531.84,-54.2653,251.081,-268.144,-731.796,10152.4,-176.668,-8.94077,1.83288,-89.3481,-9278.58,-20297.0,-3458.83,23.609,129.471,-335.787,1374.27,9113.11,-1129.28,-1.72516,-38.5444,-63.9263,1092.24,-7108.42,1297.4,-36.4567,132.149,-50.2122,7879.94,-717.27,-230.355,-41.9053,-0.58721,-19.7894
3.51,5653.37,-1970.93,8104.31,-3.5499,-60.546,-22.0029,19978.3,10059.9,8428.71,-52.9516,250.74,-268.495,-733.001,10155.6,-145.531,-8.85541,1.9178,-89.5785,-9432.19,-20341.6,-3484.11,23.4615,129.747,-334.931,1352.18,9135.1,-1131.37,-1.78527,-38.1761,-64.1546,1216.5,-7138.67,1381.3,-36.7656,132.642,-50.0114,7872.04,-706.923,-225.177,-41.7267,-0.856093,-19.6523
3.5105,5661.85,-1987.24,8120.87,-3.34662,-60.4653,-21.7653,20114.6,10072.6,8325.57,-51.6378,250.399,-268.847,-734.206,10158.7,-114.393,-8.77005,2.00273,-89.8088,-9585.8,-20386.2,-3509.39,23.3141,130.023,-334.074,1330.09,9157.09,-1133.46,-1.84539,-37.8078,-64.3829,1340.76,-7168.91,1465.2,-37.0744,133.134,-49.8105,7864.14,-696.577,-220.0,-41.548,-1.12498,-19.5153
3.511,5670.33,-2003.55,8137.44,-3.14335,-60.3846,-21.5278,20250.9,10085.4,8222.43,-50.3241,250.058,-269.198,-735.411,10161.8,-83.2552,-8.68469,2.08766,-90.0391,-9739.42,-20430.8,-3534.67,23.1666,130.298,-333.218,1308.0,9179.08,-1135.55,-1.9055,-37.4395,-64.6112,1465.01,-7199.16,1549.11,-37.3832,133.627,-49.6097,7856.24,-686.23,-214.823,-41.3694,-1.39386,-19.3782
3.5115,5668.29,-2005.88,8142.28,-3.01029,-60.3913,-21.3182,20349.7,10077.6,8093.88,-49.1832,249.283,-269.245,-728.977,10173.6,-61.6523,-8.61227,2.21781,-90.2663,-9880.32,-20436.8,-3566.38,22.8641,130.478,-332.4,1309.94,9194.81,-1131.3,-1.98968,-36.9993,-64.8232,1610.44,-7235.99,1652.34,-37.6308,134.035,-49.2616,7859.03,-687.708,-205.708,-41.2438,-1.6012,-19.2015
3.512,5663.23,-2004.21,8143.79,-2.89729,-60.4229,-21.1166,20437.7,10064.0,7958.05,-48.0917,248.385,-269.205,-720.361,10187.9,-42.7737,-8.54354,2.36089,-90.4925,-10017.6,-20431.6,-3599.94,22.5173,130.631,-331.592,1318.74,9208.74,-1125.24,-2.08072,-36.5386,-65.0305,1761.91,-7274.7,1761.08,-37.8609,134.419,-48.8713,7864.87,-692.566,-195.468,-41.1334,-1.79095,-19.0136
3.5125,5658.18,-2002.54,8145.29,-2.7843,-60.4546,-20.915,20525.8,10050.4,7822.22,-47.0002,247.487,-269.165,-711.744,10202.3,-23.895,-8.47482,2.50397,-90.7188,-10154.9,-20426.5,-3633.5,22.1704,130.784,-330.785,1327.55,9222.68,-1119.19,-2.17177,-36.0779,-65.2379,1913.38,-7313.41,1869.83,-38.091,134.803,-48.4811,7870.71,-697.423,-185.228,-41.023,-1.9807,-18.8256
3.513,5653.13,-2000.87,8146.79,-2.6713,-60.4862,-20.7134,20613.8,10036.8,7686.4,-45.9087,246.589,-269.124,-703.128,10216.6,-5.01637,-8.4061,2.64705,-90.945,-10292.1,-20421.3,-3667.06,21.8236,130.937,-329.978,1336.35,9236.61,-1113.13,-2.26281,-35.6172,-65.4452,2064.85,-7352.13,1978.58,-38.3212,135.187,-48.0909,7876.55,-702.28,-174.988,-40.9126,-2.17045,-18.6376
3.5135,5648.08,-1999.21,8148.29,-2.55831,-60.5178,-20.5118,20701.8,10023.1,7550.57,-44.8172,245.691,-269.084,-694.511,10230.9,13.8623,-8.33738,2.79012,-91.1713,-10429.4,-20416.2,-3700.62,21.4768,131.089,-329.17,1345.15,9250.55,-1107.07,-2.35386,-35.1565,-65.6525,2216.32,-7390.84,2087.33,-38.5513,135.57,-47.7007,7882.39,-707.138,-164.748,-40.8022,-2.3602,-18.4497
3.514,5643.03,-1997.54,8149.79,-2.44531,-60.5495,-20.3102,20789.8,10009.5,7414.75,-43.7257,244.793,-269.044,-685.895,10245.2,32.7409,-8.26865,2.9332,-91.3975,-10566.7,-20411.0,-3734.18,21.13,131.242,-328.363,1353.95,9264.48,-1101.01,-2.4449,-34.6957,-65.8599,2367.79,-7429.55,2196.08,-38.7814,135.954,-47.3105,7888.23,-711.995,-154.508,-40.6917,-2.54995,-18.2617
3.5145,5637.98,-1995.87,8151.29,-2.33232,-60.5811,-20.1086,20877.9,9995.9,7278.92,-42.6342,243.895,-269.004,-677.278,10259.5,51.6196,-8.19993,3.07628,-91.6238,-10703.9,-20405.9,-3767.74,20.7831,131.395,-327.556,1362.75,9278.42,-1094.95,-2.53595,-34.235,-66.0672,2519.26,-7468.27,2304.83,-39.0115,136.338,-46.9202,7894.07,-716.853,-144.268,-40.5813,-2.7397,-18.0737
3.515,5632.92,-1994.2,8152.8,-2.21932,-60.6128,-19.907,20965.9,9982.28,7143.1,-41.5427,242.997,-268.964,-668.661,10273.8,70.4982,-8.13121,3.21936,-91.85,-10841.2,-20400.7,-3801.3,20.4363,131.547,-326.749,1371.55,9292.35,-1088.9,-2.62699,-33.7743,-66.2746,2670.74,-7506.98,2413.57,-39.2416,136.722,-46.53,7899.91,-721.71,-134.028,-40.4709,-2.92946,-17.8858
3.5155,5627.87,-1992.54,8154.3,-2.10632,-60.6444,-19.7054,21053.9,9968.67,7007.27,-40.4512,242.099,-268.924,-660.045,10288.1,89.3769,-8.06248,3.36244,-92.0763,-10978.5,-20395.6,-3834.85,20.0895,131.7,-325.941,1380.36,9306.28,-1082.84,-2.71804,-33.3136,-66.4819,2822.21,-7545.69,2522.32,-39.4717,137.106,-46.1398,7905.75,-726.567,-123.788,-40.3605,-3.11921,-17.6978
3.516,5601.21,-1984.75,8168.67,-2.09789,-60.6847,-19.4867,21100.5,9946.27,6845.59,-39.669,240.723,-268.496,-646.994,10301.3,109.341,-8.01724,3.53039,-92.2794,-11088.1,-20360.7,-3853.13,19.7639,131.69,-325.116,1387.9,9322.85,-1076.38,-2.84066,-32.8897,-66.6552,2976.98,-7598.34,2622.67,-39.5221,137.499,-45.9308,7904.98,-736.567,-126.791,-40.2428,-3.25024,-17.5313
3.5165,5571.84,-1976.19,8184.65,-2.10252,-60.726,-19.2659,21142.0,9922.77,6680.68,-38.9254,239.287,-268.021,-633.389,10314.5,129.441,-7.97492,3.70146,-92.4797,-11194.3,-20322.2,-3869.49,19.4409,131.66,-324.288,1395.29,9339.74,-1069.87,-2.96723,-32.4704,-66.8242,3132.16,-7652.74,2721.97,-39.5499,137.893,-45.7444,7903.39,-747.209,-131.45,-40.1243,-3.37394,-17.3676
3.517,5542.48,-1967.64,8200.63,-2.10715,-60.7674,-19.0451,21183.4,9899.27,6515.76,-38.1818,237.851,-267.545,-619.784,10327.6,149.541,-7.93261,3.87252,-92.68,-11300.4,-20283.6,-3885.86,19.1179,131.63,-323.461,1402.68,9356.63,-1063.36,-3.0938,-32.0511,-66.9932,3287.34,-7707.13,2821.27,-39.5778,138.286,-45.558,7901.8,-757.851,-136.109,-40.0057,-3.49763,-17.2039
3.5175,5513.11,-1959.08,8216.61,-2.11178,-60.8087,-18.8243,21224.9,9875.77,6350.85,-37.4383,236.416,-267.07,-606.179,10340.7,169.641,-7.8903,4.04359,-92.8803,-11406.6,-20245.1,-3902.23,18.7949,131.6,-322.633,1410.07,9373.53,-1056.85,-3.22037,-31.6318,-67.1622,3442.52,-7761.53,2920.57,-39.6057,138.68,-45.3716,7900.2,-768.493,-140.768,-39.8871,-3.62133,-17.0401
3.518,5483.75,-1950.53,8232.59,-2.11641,-60.8501,-18.6034,21266.3,9852.27,6185.93,-36.6947,234.98,-266.594,-592.574,10353.9,189.741,-7.84798,4.21465,-93.0805,-11512.8,-20206.5,-3918.59,18.4719,131.57,-321.806,1417.46,9390.42,-1050.35,-3.34695,-31.2126,-67.3312,3597.7,-7815.92,3019.87,-39.6336,139.074,-45.1852,7898.61,-779.135,-145.426,-39.7686,-3.74502,-16.8764
3.5185,5454.38,-1941.98,8248.57,-2.12105,-60.8914,-18.3826,21307.8,9828.77,6021.02,-35.9511,233.544,-266.119,-578.969,10367.0,209.841,-7.80567,4.38572,-93.2808,-11618.9,-20168.0,-3934.96,18.1489,131.54,-320.978,1424.85,9407.31,-1043.84,-3.47352,-30.7933,-67.5003,3752.89,-7870.32,3119.17,-39.6615,139.468,-44.9988,7897.02,-789.777,-150.085,-39.65,-3.86872,-16.7126
3.519,5425.02,-1933.42,8264.55,-2.12568,-60.9328,-18.1618,21349.2,9805.27,5856.1,-35.2076,232.108,-265.643,-565.364,10380.1,229.94,-7.76336,4.55678,-93.4811,-11725.1,-20129.4,-3951.32,17.8259,131.51,-320.15,1432.24,9424.21,-1037.33,-3.60009,-30.374,-67.6693,3908.07,-7924.71,3218.47,-39.6893,139.862,-44.8124,7895.43,-800.419,-154.744,-39.5314,-3.99241,-16.5489
3.5195,5395.65,-1924.87,8280.54,-2.13031,-60.9741,-17.9409,21390.6,9781.78,5691.19,-34.464,230.673,-265.168,-551.759,10393.3,250.04,-7.72104,4.72785,-93.6814,-11831.3,-20090.9,-3967.69,17.5029,131.48,-319.323,1439.63,9441.1,-1030.82,-3.72666,-29.9547,-67.8383,4063.25,-7979.11,3317.77,-39.7172,140.256,-44.626,7893.83,-811.061,-159.403,-39.4129,-4.11611,-16.3851
3.52,5366.29,-1916.31,8296.52,-2.13494,-61.0154,-17.7201,21432.1,9758.28,5526.27,-33.7204,229.237,-264.692,-538.153,10406.4,270.14,-7.67873,4.89891,-93.8816,-11937.4,-20052.3,-3984.05,17.1799,131.45,-318.495,1447.02,9457.99,-1024.31,-3.85323,-29.5354,-68.0073,4218.43,-8033.5,3417.07,-39.7451,140.65,-44.4397,7892.24,-821.703,-164.062,-39.2943,-4.2398,-16.2214
3.5205,5366.46,-1864.77,8312.79,-2.01895,-61.0911,-17.5194,21438.7,9722.76,5361.1,-33.1663,227.189,-263.919,-533.539,10419.8,277.129,-7.68528,5.0876,-94.1166,-12036.4,-19994.8,-4004.27,16.852,131.04,-317.244,1453.87,9477.82,-1018.9,-3.92519,-29.1516,-68.1573,4368.24,-8077.71,3503.96,-39.2819,140.984,-44.5439,7889.78,-838.985,-177.154,-39.2074,-4.32911,-16.1447
3.521,5366.62,-1813.22,8329.07,-1.90296,-61.1667,-17.3186,21445.4,9687.24,5195.93,-32.6123,225.142,-263.146,-528.925,10433.3,284.119,-7.69183,5.27629,-94.3516,-12135.4,-19937.3,-4024.48,16.524,130.629,-315.993,1460.72,9497.64,-1013.48,-3.99715,-28.7679,-68.3073,4518.06,-8121.92,3590.84,-38.8187,141.318,-44.6481,7887.31,-856.267,-190.245,-39.1205,-4.41842,-16.0681
3.5215,5366.79,-1761.68,8345.34,-1.78696,-61.2423,-17.1179,21452.1,9651.72,5030.76,-32.0582,223.094,-262.373,-524.311,10446.7,291.108,-7.69837,5.46498,-94.5866,-12234.4,-19879.7,-4044.69,16.196,130.219,-314.742,1467.57,9517.47,-1008.06,-4.06912,-28.3842,-68.4574,4667.87,-8166.14,3677.72,-38.3556,141.651,-44.7523,7884.85,-873.549,-203.337,-39.0336,-4.50772,-15.9914
3.522,5366.96,-1710.13,8361.62,-1.67097,-61.3179,-16.9171,21458.7,9616.2,4865.59,-31.5042,221.046,-261.6,-519.697,10460.2,298.097,-7.70492,5.65366,-94.8216,-12333.3,-19822.2,-4064.91,15.8681,129.809,-313.491,1474.43,9537.3,-1002.64,-4.14108,-28.0004,-68.6074,4817.68,-8210.35,3764.6,-37.8924,141.985,-44.8565,7882.39,-890.831,-216.429,-38.9467,-4.59703,-15.9148
3.5225,5367.12,-1658.58,8377.89,-1.55498,-61.3936,-16.7164,21465.4,9580.69,4700.42,-30.9501,218.998,-260.827,-515.083,10473.6,305.086,-7.71147,5.84235,-95.0566,-12432.3,-19764.7,-4085.12,15.5401,129.398,-312.239,1481.28,9557.12,-997.226,-4.21304,-27.6167,-68.7574,4967.49,-8254.56,3851.49,-37.4292,142.319,-44.9607,7879.93,-908.113,-229.521,-38.8598,-4.68634,-15.8382
3.523,5367.29,-1607.04,8394.17,-1.43899,-61.4692,-16.5156,21472.0,9545.17,4535.25,-30.3961,216.951,-260.054,-510.469,10487.0,312.075,-7.71802,6.03104,-95.2916,-12531.3,-19707.2,-4105.34,15.2121,128.988,-310.988,1488.13,9576.95,-991.808,-4.28501,-27.2329,-68.9074,5117.31,-8298.77,3938.37,-36.966,142.653,-45.0649,7877.46,-925.395,-242.613,-38.7729,-4.77564,-15.7615
3.5235,5367.46,-1555.49,8410.45,-1.32299,-61.5448,-16.3149,21478.7,9509.65,4370.08,-29.842,214.903,-259.281,-505.854,10500.5,319.064,-7.72457,6.21973,-95.5266,-12630.3,-19649.6,-4125.55,14.8842,128.578,-309.737,1494.98,9596.78,-986.391,-4.35697,-26.8492,-69.0574,5267.12,-8342.98,4025.25,-36.5028,142.986,-45.1691,7875.0,-942.677,-255.705,-38.686,-4.86495,-15.6849
3.524,5367.63,-1503.95,8426.72,-1.207,-61.6204,-16.1141,21485.3,9474.13,4204.91,-29.288,212.855,-258.508,-501.24,10513.9,326.054,-7.73112,6.40842,-95.7616,-12729.2,-19592.1,-4145.77,14.5562,128.168,-308.486,1501.84,9616.6,-980.973,-4.42893,-26.4654,-69.2074,5416.93,-8387.19,4112.13,-36.0396,143.32,-45.2733,7872.54,-959.959,-268.797,-38.5991,-4.95426,-15.6082
3.5245,5369.03,-1456.61,8442.76,-1.08702,-61.7206,-15.8997,21488.8,9437.12,4045.78,-28.7374,210.7,-257.704,-496.361,10525.6,332.194,-7.73544,6.60869,-95.9955,-12827.7,-19532.3,-4170.03,14.2302,127.774,-307.199,1509.62,9635.61,-974.286,-4.49155,-26.0897,-69.3545,5561.84,-8432.06,4197.23,-35.5188,143.649,-45.3913,7872.76,-977.726,-280.855,-38.5097,-5.04717,-15.5431
3.525,5380.33,-1442.92,8456.9,-0.935128,-62.0167,-15.5756,21467.0,9388.16,3934.94,-28.2153,207.682,-256.657,-489.358,10522.7,331.545,-7.72196,6.90164,-96.2206,-12922.0,-19454.4,-4226.65,13.9203,127.518,-305.622,1524.82,9648.03,-957.441,-4.47943,-25.7782,-69.4782,5667.55,-8482.19,4268.04,-34.5368,143.939,-45.6201,7894.45,-999.376,-284.647,-38.4004,-5.16897,-15.5702
3.5255,5391.63,-1429.23,8471.04,-0.783238,-62.3128,-15.2515,21445.1,9339.2,3824.09,-27.6932,204.665,-255.609,-482.356,10519.8,330.896,-7.70849,7.19459,-96.4458,-13016.4,-19376.5,-4283.28,13.6104,127.261,-304.046,1540.02,9660.46,-940.595,-4.46731,-25.4667,-69.6019,5773.26,-8532.32,4338.86,-33.5548,144.229,-45.8488,7916.14,-1021.03,-288.438,-38.291,-5.29077,-15.5972
3.526,5402.92,-1415.54,8485.18,-0.631347,-62.609,-14.9274,21423.3,9290.24,3713.25,-27.1711,201.647,-254.561,-475.354,10517.0,330.247,-7.69501,7.48754,-96.671,-13110.7,-19298.6,-4339.91,13.3005,127.005,-302.47,1555.23,9672.88,-923.75,-4.45519,-25.1552,-69.7256,5878.96,-8582.45,4409.67,-32.5728,144.52,-46.0775,7937.83,-1042.68,-292.23,-38.1817,-5.41257,-15.6243
3.5265,5414.22,-1401.85,8499.32,-0.479457,-62.9051,-14.6034,21401.5,9241.28,3602.41,-26.649,198.629,-253.513,-468.351,10514.1,329.598,-7.68153,7.78049,-96.8962,-13205.1,-19220.7,-4396.54,12.9907,126.748,-300.893,1570.43,9685.31,-906.904,-4.44307,-24.8437,-69.8493,5984.67,-8632.58,4480.49,-31.5909,144.81,-46.3062,7959.52,-1064.33,-296.021,-38.0723,-5.53437,-15.6513
3.527,5425.52,-1388.17,8513.46,-0.327566,-63.2013,-14.2793,21379.6,9192.33,3491.56,-26.1268,195.612,-252.465,-461.349,10511.2,328.949,-7.66806,8.07345,-97.1214,-13299.4,-19142.8,-4453.16,12.6808,126.492,-299.317,1585.64,9697.73,-890.059,-4.43095,-24.5322,-69.9729,6090.37,-8682.71,4551.3,-30.6089,145.1,-46.535,7981.21,-1085.98,-299.813,-37.963,-5.65617,-15.6784
3.5275,5436.82,-1374.48,8527.61,-0.175676,-63.4974,-13.9552,21357.8,9143.37,3380.72,-25.6047,192.594,-251.417,-454.346,10508.4,328.3,-7.65458,8.3664,-97.3466,-13393.8,-19064.9,-4509.79,12.3709,126.235,-297.741,1600.84,9710.16,-873.213,-4.41883,-24.2208,-70.0966,6196.08,-8732.84,4622.12,-29.6269,145.391,-46.7637,8002.9,-1107.63,-303.604,-37.8536,-5.77796,-15.7054
3.528,5448.12,-1360.79,8541.75,-0.0237853,-63.7936,-13.6312,21335.9,9094.41,3269.88,-25.0826,189.577,-250.37,-447.344,10505.5,327.651,-7.6411,8.65935,-97.5718,-13488.1,-18987.0,-4566.42,12.061,125.979,-296.164,1616.04,9722.58,-856.367,-4.40671,-23.9093,-70.2203,6301.79,-8782.97,4692.93,-28.6449,145.681,-46.9924,8024.59,-1129.28,-307.396,-37.7443,-5.89976,-15.7325
3.5285,5459.42,-1347.1,8555.89,0.128105,-64.0897,-13.3071,21314.1,9045.45,3159.03,-24.5605,186.559,-249.322,-440.342,10502.7,327.002,-7.62763,8.9523,-97.797,-13582.5,-18909.1,-4623.04,11.7511,125.722,-294.588,1631.25,9735.01,-839.522,-4.39459,-23.5978,-70.344,6407.49,-8833.1,4763.74,-27.6629,145.971,-47.2211,8046.28,-1150.93,-311.188,-37.6349,-6.02156,-15.7595
3.529,5466.06,-1343.42,8573.02,0.276644,-64.391,-13.0088,21292.8,8991.55,3046.3,-24.0785,183.443,-248.248,-436.811,10504.2,326.933,-7.61143,9.263,-98.0334,-13679.7,-18833.4,-4669.04,11.4597,125.374,-292.963,1642.46,9744.15,-820.403,-4.36815,-23.3017,-70.4464,6513.56,-8884.11,4828.8,-26.5932,146.243,-47.4886,8064.75,-1173.6,-316.227,-37.5137,-6.15055,-15.7752
3.5295,5456.41,-1374.75,8600.65,0.413452,-64.7105,-12.8006,21273.7,8920.37,2926.93,-23.7368,179.981,-247.081,-445.431,10521.1,328.894,-7.5857,9.63582,-98.3092,-13787.0,-18765.2,-4677.82,11.2334,124.703,-291.171,1639.71,9741.79,-793.329,-4.2916,-23.0594,-70.4746,6620.87,-8938.21,4873.69,-25.2168,146.451,-47.8915,8071.95,-1199.87,-325.633,-37.3511,-6.30471,-15.7513
3.53,5446.77,-1406.08,8628.27,0.55026,-65.0299,-12.5924,21254.5,8849.19,2807.57,-23.3951,176.519,-245.915,-454.051,10538.0,330.854,-7.55998,10.0086,-98.5851,-13894.2,-18697.0,-4686.59,11.007,124.033,-289.379,1636.96,9739.43,-766.254,-4.21504,-22.8171,-70.5028,6728.19,-8992.31,4918.59,-23.8403,146.659,-48.2945,8079.15,-1226.13,-335.04,-37.1885,-6.45886,-15.7273
3.5305,5437.12,-1437.42,8655.89,0.687068,-65.3493,-12.3842,21235.3,8778.01,2688.2,-23.0533,173.058,-244.749,-462.672,10554.9,332.815,-7.53425,10.3815,-98.8609,-14001.5,-18628.8,-4695.37,10.7807,123.362,-287.587,1634.22,9737.08,-739.179,-4.13848,-22.5748,-70.531,6835.5,-9046.41,4963.48,-22.4639,146.866,-48.6975,8086.34,-1252.4,-344.446,-37.0259,-6.61302,-15.7034
3.531,5427.48,-1468.75,8683.51,0.823876,-65.6687,-12.176,21216.1,8706.83,2568.84,-22.7116,169.596,-243.582,-471.292,10571.8,334.776,-7.50852,10.7543,-99.1367,-14108.8,-18560.6,-4704.15,10.5543,122.692,-285.794,1631.47,9734.72,-712.105,-4.06192,-22.3324,-70.5592,6942.82,-9100.51,5008.38,-21.0874,147.074,-49.1004,8093.54,-1278.67,-353.853,-36.8633,-6.76718,-15.6794
3.5315,5417.83,-1500.08,8711.13,0.960684,-65.9882,-11.9678,21197.0,8635.65,2449.47,-22.3699,166.134,-242.416,-479.912,10588.7,336.736,-7.4828,11.1271,-99.4126,-14216.0,-18492.4,-4712.93,10.3279,122.021,-284.002,1628.72,9732.36,-685.03,-3.98536,-22.0901,-70.5873,7050.13,-9154.61,5053.27,-19.711,147.282,-49.5034,8100.73,-1304.93,-363.26,-36.7007,-6.92134,-15.6555
3.532,5408.19,-1531.41,8738.75,1.09749,-66.3076,-11.7596,21177.8,8564.47,2330.11,-22.0282,162.672,-241.25,-488.532,10605.6,338.697,-7.45707,11.4999,-99.6884,-14323.3,-18424.2,-4721.71,10.1016,121.351,-282.21,1625.97,9730.0,-657.955,-3.90881,-21.8478,-70.6155,7157.45,-9208.71,5098.17,-18.3345,147.49,-49.9063,8107.93,-1331.2,-372.666,-36.5381,-7.07549,-15.6315
3.5325,5398.54,-1562.75,8766.37,1.2343,-66.627,-11.5514,21158.6,8493.29,2210.74,-21.6865,159.211,-240.083,-497.153,10622.5,340.658,-7.43135,11.8728,-99.9642,-14430.6,-18356.0,-4730.48,9.87523,120.68,-280.417,1623.22,9727.65,-630.881,-3.83225,-21.6055,-70.6437,7264.77,-9262.81,5143.06,-16.958,147.697,-50.3093,8115.13,-1357.46,-382.073,-36.3756,-7.22965,-15.6076
3.533,5388.89,-1594.08,8793.99,1.37111,-66.9464,-11.3432,21139.4,8422.11,2091.38,-21.3448,155.749,-238.917,-505.773,10639.4,342.618,-7.40562,12.2456,-100.24,-14537.9,-18287.8,-4739.26,9.64887,120.01,-278.625,1620.48,9725.29,-603.806,-3.75569,-21.3632,-70.6719,7372.08,-9316.91,5187.95,-15.5816,147.905,-50.7123,8122.32,-1383.73,-391.479,-36.213,-7.38381,-15.5836
3.5335,5383.59,-1620.27,8819.86,1.45141,-67.3191,-11.1052,21146.6,8344.26,1962.86,-21.1187,152.434,-237.717,-512.716,10662.4,346.374,-7.40529,12.5867,-100.523,-14660.1,-18214.0,-4739.47,9.4454,119.127,-276.708,1615.74,9719.36,-578.314,-3.65651,-21.13,-70.7132,7462.53,-9360.47,5227.58,-14.135,147.987,-51.0784,8127.7,-1405.14,-392.986,-36.0204,-7.61515,-15.5689
3.534,5386.95,-1636.17,8842.22,1.41871,-67.7981,-10.8077,21206.6,8253.07,1816.03,-21.1238,149.411,-236.449,-516.307,10697.5,353.721,-7.45577,12.8643,-100.822,-14812.2,-18129.2,-4722.54,9.2877,117.821,-274.542,1607.03,9706.29,-555.987,-3.51207,-20.9148,-70.781,7519.26,-9382.94,5256.69,-12.5482,147.815,-51.371,8129.43,-1416.84,-378.692,-35.7677,-8.00087,-15.5725
3.5345,5390.32,-1652.08,8864.59,1.38601,-68.2771,-10.5102,21266.5,8161.88,1669.2,-21.1289,146.389,-235.18,-519.898,10732.6,361.068,-7.50625,13.142,-101.121,-14964.3,-18044.3,-4705.62,9.13,116.515,-272.375,1598.31,9693.22,-533.66,-3.36764,-20.6997,-70.8487,7575.98,-9405.42,5285.79,-10.9615,147.643,-51.6636,8131.17,-1428.54,-364.399,-35.5151,-8.38658,-15.5761
3.535,5393.69,-1667.99,8886.95,1.3533,-68.7561,-10.2127,21326.5,8070.69,1522.37,-21.134,143.366,-233.912,-523.488,10767.6,368.415,-7.55673,13.4197,-101.419,-15116.4,-17959.5,-4688.69,8.9723,115.209,-270.209,1589.6,9680.15,-511.333,-3.22321,-20.4845,-70.9164,7632.71,-9427.89,5314.89,-9.37469,147.472,-51.9561,8132.9,-1440.24,-350.105,-35.2625,-8.7723,-15.5796
3.5355,5397.05,-1683.89,8909.32,1.3206,-69.2351,-9.91521,21386.4,7979.5,1375.54,-21.1391,140.343,-232.644,-527.079,10802.7,375.762,-7.6072,13.6973,-101.718,-15268.5,-17874.7,-4671.76,8.81461,113.903,-268.043,1580.88,9667.08,-489.006,-3.07878,-20.2694,-70.9842,7689.43,-9450.37,5343.99,-7.78791,147.3,-52.2487,8134.64,-1451.94,-335.812,-35.0099,-9.15801,-15.5832
3.536,5400.42,-1699.8,8931.68,1.2879,-69.7141,-9.6177,21446.4,7888.32,1228.71,-21.1442,137.321,-231.376,-530.669,10837.8,383.109,-7.65768,13.975,-102.017,-15420.6,-17789.8,-4654.83,8.65691,112.597,-265.876,1572.17,9654.01,-466.679,-2.93435,-20.0542,-71.0519,7746.16,-9472.84,5373.09,-6.20113,147.128,-52.5413,8136.37,-1463.64,-321.518,-34.7573,-9.54373,-15.5868
3.5365,5403.79,-1715.7,8954.04,1.2552,-70.1931,-9.3202,21506.3,7797.13,1081.88,-21.1493,134.298,-230.108,-534.26,10872.9,390.455,-7.70816,14.2527,-102.315,-15572.7,-17705.0,-4637.9,8.49921,111.291,-263.71,1563.46,9640.94,-444.352,-2.78992,-19.8391,-71.1196,7802.88,-9495.32,5402.19,-4.61436,146.957,-52.8338,8138.11,-1475.34,-307.225,-34.5047,-9.92944,-15.5904
3.537,5407.16,-1731.61,8976.41,1.22249,-70.6721,-9.0227,21566.3,7705.94,935.054,-21.1544,131.276,-228.839,-537.85,10907.9,397.802,-7.75863,14.5303,-102.614,-15724.8,-17620.1,-4620.98,8.34151,109.986,-261.543,1554.74,9627.87,-422.025,-2.64549,-19.6239,-71.1874,7859.61,-9517.79,5431.3,-3.02758,146.785,-53.1264,8139.84,-1487.04,-292.931,-34.252,-10.3152,-15.594
3.5375,5410.52,-1747.51,8998.77,1.18979,-71.1511,-8.7252,21626.2,7614.75,788.224,-21.1595,128.253,-227.571,-541.441,10943.0,405.149,-7.80911,14.808,-102.912,-15876.8,-17535.3,-4604.05,8.18382,108.68,-259.377,1546.03,9614.8,-399.698,-2.50106,-19.4088,-71.2551,7916.33,-9540.27,5460.4,-1.4408,146.613,-53.419,8141.57,-1498.74,-278.638,-33.9994,-10.7009,-15.5976
3.538,5402.46,-1753.01,9023.88,1.02595,-71.6847,-8.42109,21719.8,7537.68,659.272,-21.1791,125.433,-226.267,-537.21,10973.2,404.737,-7.83751,15.0569,-103.204,-16041.7,-17452.6,-4606.07,7.94076,107.465,-257.12,1533.6,9610.05,-382.851,-2.33215,-19.2308,-71.3315,7968.35,-9562.2,5479.77,-0.0755986,146.243,-53.7127,8142.67,-1503.28,-265.338,-33.7082,-11.0636,-15.5981
3.5385,5380.12,-1745.5,9052.41,0.698189,-72.2863,-8.10871,21855.5,7478.26,552.666,-21.2169,122.866,-224.917,-523.202,10997.2,394.627,-7.83831,15.27,-103.487,-16222.5,-17372.7,-4631.77,7.59099,106.366,-254.749,1516.53,9615.72,-372.855,-2.13265,-19.0993,-71.4187,8014.47,-9583.46,5486.97,1.01263,145.625,-54.0079,8142.95,-1498.87,-253.28,-33.3689,-11.3977,-15.5948
3.539,5357.77,-1737.98,9080.94,0.370427,-72.8879,-7.79633,21991.1,7418.84,446.06,-21.2547,120.299,-223.568,-509.195,11021.2,384.517,-7.8391,15.483,-103.771,-16403.3,-17292.7,-4657.47,7.24123,105.267,-252.379,1499.46,9621.38,-362.858,-1.93315,-18.9678,-71.506,8060.58,-9604.72,5494.18,2.10086,145.006,-54.3031,8143.24,-1494.45,-241.222,-33.0295,-11.7318,-15.5915
3.5395,5335.42,-1730.47,9109.48,0.0426651,-73.4896,-7.48395,22126.8,7359.42,339.453,-21.2925,117.731,-222.219,-495.187,11045.2,374.406,-7.8399,15.696,-104.054,-16584.1,-17212.7,-4683.17,6.89147,104.168,-250.008,1482.39,9627.04,-352.862,-1.73365,-18.8364,-71.5932,8106.71,-9625.98,5501.38,3.18909,144.388,-54.5983,8143.52,-1490.03,-229.164,-32.6902,-12.0659,-15.5882
3.54,5313.08,-1722.96,9138.01,-0.285097,-74.0912,-7.17157,22262.4,7300.0,232.847,-21.3303,115.164,-220.869,-481.179,11069.3,364.296,-7.8407,15.909,-104.337,-16764.9,-17132.7,-4708.88,6.5417,103.069,-247.637,1465.31,9632.7,-342.866,-1.53415,-18.7049,-71.6805,8152.83,-9647.24,5508.58,4.27732,143.769,-54.8935,8143.81,-1485.62,-217.106,-32.3508,-12.3999,-15.5849
3.5405,5290.73,-1715.44,9166.54,-0.612859,-74.6928,-6.8592,22398.0,7240.58,126.241,-21.3681,112.597,-219.52,-467.171,11093.3,354.186,-7.84149,16.1221,-104.62,-16945.7,-17052.8,-4734.58,6.19194,101.969,-245.266,1448.24,9638.36,-332.87,-1.33465,-18.5734,-71.7677,8198.95,-9668.5,5515.79,5.36555,143.151,-55.1887,8144.09,-1481.2,-205.048,-32.0115,-12.734,-15.5816
3.541,5268.39,-1707.93,9195.07,-0.94062,-75.2945,-6.54682,22533.7,7181.16,19.6348,-21.4059,110.03,-218.17,-453.164,11117.3,344.075,-7.84229,16.3351,-104.903,-17126.5,-16972.8,-4760.28,5.84218,100.87,-242.896,1431.17,9644.02,-322.873,-1.13515,-18.4419,-71.855,8245.07,-9689.76,5522.99,6.45378,142.532,-55.4839,8144.38,-1476.78,-192.991,-31.6721,-13.0681,-15.5783
3.5415,5246.04,-1700.42,9223.61,-1.26838,-75.8961,-6.23444,22669.3,7121.74,-86.9714,-21.4437,107.462,-216.821,-439.156,11141.4,333.965,-7.84309,16.5481,-105.186,-17307.3,-16892.8,-4785.98,5.49242,99.7709,-240.525,1414.1,9649.68,-312.877,-0.935646,-18.3104,-71.9422,8291.19,-9711.02,5530.2,7.54201,141.914,-55.7791,8144.66,-1472.37,-180.933,-31.3328,-13.4022,-15.575
3.542,5223.7,-1692.9,9252.14,-1.59614,-76.4977,-5.92206,22805.0,7062.32,-193.578,-21.4815,104.895,-215.472,-425.148,11165.4,323.855,-7.84389,16.7611,-105.47,-17488.1,-16812.9,-4811.69,5.14265,98.6717,-238.154,1397.03,9655.34,-302.881,-0.736146,-18.179,-72.0295,8337.3,-9732.28,5537.4,8.63024,141.296,-56.0743,8144.95,-1467.95,-168.875,-30.9934,-13.7362,-15.5717
3.5425,5224.23,-1675.36,9250.03,-1.51528,-77.1039,-5.58208,22949.8,7016.8,-278.016,-21.365,102.652,-214.153,-422.948,11188.7,315.562,-7.85267,16.9625,-105.776,-17648.0,-16744.4,-4829.0,4.71012,97.7241,-235.801,1378.91,9666.9,-294.802,-0.535218,-18.0758,-72.1023,8394.79,-9735.83,5511.86,9.33144,140.441,-56.1865,8155.44,-1469.64,-174.208,-30.6589,-14.0743,-15.5535
3.543,5243.08,-1649.8,9223.41,-1.10751,-77.7138,-5.22002,23102.0,6982.4,-344.72,-21.125,100.668,-212.859,-430.192,11211.4,308.723,-7.86784,17.1545,-106.1,-17791.1,-16685.3,-4839.6,4.21137,96.8978,-233.461,1359.97,9683.17,-288.257,-0.333149,-17.9952,-72.1637,8461.37,-9725.23,5460.12,9.723,139.397,-56.1523,8174.11,-1476.22,-193.455,-30.3282,-14.4156,-15.5233
3.5435,5261.93,-1624.23,9196.79,-0.699737,-78.3236,-4.85795,23254.2,6947.99,-411.425,-20.885,98.6836,-211.566,-437.437,11234.1,301.885,-7.88301,17.3465,-106.424,-17934.3,-16626.1,-4850.19,3.71261,96.0715,-231.121,1341.03,9699.44,-281.712,-0.13108,-17.9147,-72.2251,8527.94,-9714.63,5408.38,10.1146,138.354,-56.1182,8192.78,-1482.8,-212.701,-29.9975,-14.7568,-15.4932
3.544,5280.78,-1598.67,9170.16,-0.291966,-78.9335,-4.49589,23406.4,6913.59,-478.129,-20.6449,96.6994,-210.272,-444.682,11256.8,295.046,-7.89818,17.5385,-106.748,-18077.5,-16566.9,-4860.79,3.21386,95.2452,-228.782,1322.08,9715.72,-275.166,0.0709888,-17.8341,-72.2865,8594.52,-9704.03,5356.64,10.5061,137.311,-56.084,8211.44,-1489.38,-231.947,-29.6668,-15.0981,-15.463
3.5445,5299.63,-1573.11,9143.54,0.115804,-79.5433,-4.13383,23558.6,6879.19,-544.833,-20.4049,94.7153,-208.978,-451.927,11279.5,288.208,-7.91335,17.7306,-107.072,-18220.7,-16507.7,-4871.39,2.71511,94.4189,-226.442,1303.14,9731.99,-268.621,0.273058,-17.7536,-72.3478,8661.1,-9693.43,5304.9,10.8977,136.267,-56.0499,8230.11,-1495.96,-251.194,-29.3361,-15.4394,-15.4329
3.545,5318.47,-1547.54,9116.92,0.523574,-80.1532,-3.77176,23710.7,6844.78,-611.538,-20.1649,92.7311,-207.685,-459.172,11302.2,281.369,-7.92852,17.9226,-107.396,-18363.9,-16448.5,-4881.99,2.21636,93.5927,-224.102,1284.19,9748.26,-262.076,0.475127,-17.673,-72.4092,8727.67,-9682.83,5253.16,11.2893,135.224,-56.0158,8248.77,-1502.54,-270.44,-29.0055,-15.7806,-15.4027
3.5455,5337.32,-1521.98,9090.3,0.931344,-80.763,-3.4097,23862.9,6810.38,-678.242,-19.9249,90.7469,-206.391,-466.416,11324.9,274.53,-7.94369,18.1146,-107.72,-18507.0,-16389.3,-4892.59,1.7176,92.7664,-221.763,1265.25,9764.54,-255.531,0.677196,-17.5925,-72.4706,8794.25,-9672.22,5201.42,11.6808,134.18,-55.9816,8267.44,-1509.12,-289.687,-28.6748,-16.1219,-15.3726
3.546,5356.17,-1496.41,9063.68,1.33911,-81.3728,-3.04764,24015.1,6775.98,-744.946,-19.6848,88.7628,-205.097,-473.661,11347.6,267.692,-7.95886,18.3066,-108.044,-18650.2,-16330.1,-4903.19,1.21885,91.9401,-219.423,1246.3,9780.81,-248.986,0.879265,-17.5119,-72.532,8860.83,-9661.62,5149.69,12.0724,133.137,-55.9475,8286.11,-1515.7,-308.933,-28.3441,-16.4632,-15.3424
3.5465,5375.02,-1470.85,9037.05,1.74688,-81.9827,-2.68557,24167.3,6741.57,-811.651,-19.4448,86.7786,-203.804,-480.906,11370.3,260.853,-7.97403,18.4986,-108.368,-18793.4,-16271.0,-4913.79,0.720099,91.1138,-217.083,1227.36,9797.08,-242.441,1.08133,-17.4314,-72.5933,8927.41,-9651.02,5097.95,12.4639,132.093,-55.9133,8304.77,-1522.28,-328.179,-28.0134,-16.8044,-15.3123
3.547,5379.26,-1478.05,9022.56,1.56188,-82.6218,-2.41791,24303.2,6681.45,-868.133,-18.6581,85.1193,-202.615,-499.339,11394.5,259.253,-8.00904,18.6531,-108.641,-18902.8,-16213.9,-4869.37,0.277411,90.1621,-214.928,1219.83,9812.89,-239.081,1.11362,-17.3399,-72.6311,9003.91,-9617.75,5023.49,12.4532,130.765,-55.8385,8316.35,-1530.95,-347.912,-27.6231,-17.0907,-15.2791
3.5475,5376.21,-1501.64,9014.12,1.0805,-83.2755,-2.19744,24430.9,6608.46,-919.504,-17.5981,83.6223,-201.479,-523.367,11419.5,260.271,-8.05398,18.7889,-108.889,-18995.2,-16158.0,-4797.46,-0.137243,89.1477,-212.865,1218.02,9828.47,-237.315,1.06101,-17.243,-72.6571,9085.37,-9573.15,4937.69,12.2413,129.293,-55.7434,8324.38,-1540.67,-367.889,-27.2029,-17.3496,-15.2444
3.548,5373.15,-1525.23,9005.68,0.599115,-83.9292,-1.97698,24558.6,6535.46,-970.875,-16.5381,82.1254,-200.344,-547.395,11444.5,261.289,-8.09892,18.9246,-109.137,-19087.7,-16102.1,-4725.54,-0.551898,88.1332,-210.801,1216.21,9844.04,-235.548,1.00841,-17.1461,-72.6831,9166.84,-9528.55,4851.88,12.0294,127.822,-55.6483,8332.41,-1550.39,-387.865,-26.7827,-17.6084,-15.2097
3.5485,5370.1,-1548.82,8997.24,0.11773,-84.5829,-1.75651,24686.3,6462.47,-1022.25,-15.478,80.6284,-199.208,-571.422,11469.4,262.307,-8.14386,19.0603,-109.385,-19180.1,-16046.2,-4653.62,-0.966552,87.1188,-208.738,1214.39,9859.62,-233.781,0.9558,-17.0491,-72.7091,9248.3,-9483.95,4766.07,11.8175,126.351,-55.5531,8340.44,-1560.1,-407.841,-26.3626,-17.8672,-15.175
3.549,5367.04,-1572.41,8988.8,-0.363655,-85.2366,-1.53605,24814.0,6389.48,-1073.62,-14.418,79.1315,-198.072,-595.45,11494.4,263.326,-8.18879,19.1961,-109.633,-19272.5,-15990.2,-4581.7,-1.38121,86.1043,-206.675,1212.58,9875.19,-232.014,0.903193,-16.9522,-72.7352,9329.77,-9439.35,4680.26,11.6056,124.88,-55.458,8348.48,-1569.82,-427.817,-25.9424,-18.126,-15.1403
3.5495,5363.99,-1596.0,8980.36,-0.845039,-85.8903,-1.31558,24941.7,6316.49,-1124.99,-13.358,77.6345,-196.936,-619.478,11519.4,264.344,-8.23373,19.3318,-109.88,-19365.0,-15934.3,-4509.79,-1.79586,85.0899,-204.612,1210.76,9890.77,-230.248,0.850586,-16.8553,-72.7612,9411.24,-9394.74,4594.45,11.3937,123.408,-55.3629,8356.51,-1579.54,-447.794,-25.5223,-18.3848,-15.1056
3.55,5360.94,-1619.59,8971.92,-1.32642,-86.5441,-1.09512,25069.4,6243.5,-1176.36,-12.2979,76.1376,-195.801,-643.506,11544.4,265.362,-8.27867,19.4675,-110.128,-19457.4,-15878.4,-4437.87,-2.21052,84.0755,-202.548,1208.95,9906.34,-228.481,0.79798,-16.7584,-72.7872,9492.7,-9350.14,4508.64,11.1817,121.937,-55.2677,8364.54,-1589.26,-467.77,-25.1021,-18.6436,-15.0709
3.5505,5357.88,-1643.18,8963.48,-1.80781,-87.1978,-0.874653,25197.1,6170.51,-1227.73,-11.2379,74.6407,-194.665,-667.533,11569.4,266.38,-8.3236,19.6033,-110.376,-19549.9,-15822.5,-4365.95,-2.62517,83.061,-200.485,1207.14,9921.92,-226.714,0.745373,-16.6614,-72.8132,9574.17,-9305.54,4422.84,10.9698,120.466,-55.1726,8372.57,-1598.98,-487.746,-24.682,-18.9025,-15.0363
3.551,5354.83,-1666.77,8955.04,-2.28919,-87.8515,-0.654188,25324.8,6097.52,-1279.1,-10.1779,73.1437,-193.529,-691.561,11594.3,267.398,-8.36854,19.739,-110.624,-19642.3,-15766.6,-4294.04,-3.03982,82.0466,-198.422,1205.32,9937.49,-224.948,0.692766,-16.5645,-72.8392,9655.63,-9260.94,4337.03,10.7579,118.994,-55.0775,8380.6,-1608.69,-507.723,-24.2618,-19.1613,-15.0016
3.5515,5355.56,-1662.32,8982.78,-2.58516,-88.444,-0.442853,25410.8,5958.66,-1327.86,-8.30139,71.7652,-192.516,-703.213,11616.2,275.415,-8.40083,19.8744,-110.83,-19703.7,-15695.2,-4191.82,-3.42321,80.7695,-196.503,1209.46,9956.21,-221.003,0.629897,-16.4951,-72.859,9738.94,-9207.16,4202.93,10.2001,117.21,-54.7791,8398.61,-1617.02,-525.169,-23.958,-19.3244,-14.9622
3.552,5357.37,-1649.86,9020.84,-2.82815,-89.0191,-0.234127,25485.0,5800.98,-1375.87,-6.19164,70.4205,-191.538,-711.33,11637.2,285.431,-8.4295,20.0098,-111.023,-19756.2,-15619.5,-4080.96,-3.79766,79.4174,-194.626,1215.29,9975.83,-216.437,0.564095,-16.4336,-72.8771,9822.78,-9150.76,4055.04,9.5435,115.335,-54.4225,8419.46,-1624.96,-541.893,-23.6875,-19.4601,-14.9216
3.5525,5359.18,-1637.39,9058.91,-3.07114,-89.5941,-0.0254018,25559.1,5643.3,-1423.88,-4.08189,69.0758,-190.559,-719.447,11658.2,295.447,-8.45817,20.1452,-111.217,-19808.6,-15543.8,-3970.09,-4.17211,78.0653,-192.748,1221.12,9995.44,-211.87,0.498294,-16.372,-72.8952,9906.61,-9094.37,3907.15,8.88687,113.46,-54.066,8440.32,-1632.89,-558.617,-23.4169,-19.5959,-14.8809
3.553,5360.99,-1624.93,9096.97,-3.31412,-90.1691,0.183324,25633.2,5485.62,-1471.89,-1.97214,67.7311,-189.581,-727.563,11679.2,305.463,-8.48685,20.2805,-111.411,-19861.1,-15468.0,-3859.22,-4.54656,76.7132,-190.871,1226.95,10015.1,-207.303,0.432493,-16.3105,-72.9133,9990.45,-9037.97,3759.25,8.23024,111.586,-53.7095,8461.17,-1640.83,-575.341,-23.1464,-19.7317,-14.8403
3.5535,5362.8,-1612.47,9135.04,-3.55711,-90.7442,0.39205,25707.3,5327.94,-1519.9,0.137603,66.3864,-188.602,-735.68,11700.2,315.478,-8.51552,20.4159,-111.604,-19913.6,-15392.3,-3748.35,-4.92101,75.3611,-188.994,1232.78,10034.7,-202.737,0.366691,-16.2489,-72.9314,10074.3,-8981.57,3611.36,7.57361,109.711,-53.353,8482.02,-1648.76,-592.065,-22.8758,-19.8674,-14.7996
3.554,5364.61,-1600.01,9173.1,-3.8001,-91.3192,0.600775,25781.5,5170.26,-1567.91,2.24735,65.0416,-187.624,-743.797,11721.2,325.494,-8.5442,20.5512,-111.798,-19966.1,-15316.6,-3637.48,-5.29546,74.009,-187.116,1238.61,10054.3,-198.17,0.30089,-16.1874,-72.9495,10158.1,-8925.17,3463.47,6.91698,107.837,-52.9965,8502.88,-1656.69,-608.789,-22.6052,-20.0032,-14.759
3.5545,5366.43,-1587.55,9211.17,-4.04309,-91.8943,0.809501,25855.6,5012.58,-1615.92,4.3571,63.6969,-186.646,-751.913,11742.2,335.51,-8.57287,20.6866,-111.992,-20018.5,-15240.9,-3526.62,-5.66991,72.6569,-185.239,1244.44,10073.9,-193.604,0.235088,-16.1258,-72.9676,10242.0,-8868.78,3315.58,6.26035,105.962,-52.6399,8523.73,-1664.63,-625.512,-22.3347,-20.139,-14.7184
3.555,5368.24,-1575.08,9249.23,-4.28608,-92.4693,1.01823,25929.7,4854.9,-1663.93,6.46685,62.3522,-185.667,-760.03,11763.2,345.526,-8.60154,20.8219,-112.185,-20071.0,-15165.1,-3415.75,-6.04436,71.3048,-183.361,1250.27,10093.5,-189.037,0.169287,-16.0643,-72.9857,10325.8,-8812.38,3167.68,5.60372,104.088,-52.2834,8544.59,-1672.56,-642.236,-22.0641,-20.2747,-14.6777
3.5555,5370.05,-1562.62,9287.3,-4.52907,-93.0444,1.22695,26003.8,4697.22,-1711.94,8.57659,61.0075,-184.689,-768.146,11784.2,355.542,-8.63022,20.9573,-112.379,-20123.5,-15089.4,-3304.88,-6.41881,69.9527,-181.484,1256.1,10113.1,-184.47,0.103485,-16.0027,-73.0038,10409.6,-8755.98,3019.79,4.9471,102.213,-51.9269,8565.44,-1680.5,-658.96,-21.7936,-20.4105,-14.6371
3.556,5365.31,-1539.2,9286.0,-4.91724,-93.6454,1.58957,26002.1,4469.65,-1794.34,11.229,59.5919,-183.802,-763.037,11790.4,379.323,-8.68811,21.0595,-112.619,-20176.0,-14978.1,-3213.11,-6.83856,68.5193,-179.573,1280.84,10119.7,-185.233,0.159812,-16.0129,-72.9555,10479.7,-8682.76,2781.41,3.71026,100.319,-51.6332,8575.96,-1701.18,-690.468,-21.4994,-20.5304,-14.6812
3.5565,5359.76,-1514.42,9279.78,-5.32357,-94.2497,1.97142,25990.9,4233.34,-1881.04,13.9493,58.1675,-182.926,-756.275,11794.7,404.824,-8.74965,21.1575,-112.865,-20228.6,-14862.4,-3123.73,-7.26397,67.0758,-177.659,1307.95,10124.7,-186.661,0.231405,-16.0322,-72.8989,10548.0,-8607.44,2531.73,2.40089,98.4214,-51.3472,8585.2,-1723.46,-723.824,-21.2023,-20.6484,-14.736
3.557,5354.21,-1489.63,9273.56,-5.72989,-94.854,2.35327,25979.7,3997.03,-1967.73,16.6695,56.743,-182.05,-749.513,11799.0,430.326,-8.81119,21.2555,-113.112,-20281.2,-14746.7,-3034.34,-7.68938,65.6323,-175.744,1335.05,10129.7,-188.089,0.302997,-16.0514,-72.8424,10616.4,-8532.12,2282.04,1.09153,96.5243,-51.0613,8594.43,-1745.74,-757.18,-20.9053,-20.7664,-14.7907
3.5575,5348.66,-1464.84,9267.34,-6.13621,-95.4583,2.73513,25968.5,3760.72,-2054.43,19.3898,55.3185,-181.174,-742.75,11803.3,455.828,-8.87273,21.3536,-113.358,-20333.7,-14631.0,-2944.96,-8.11478,64.1888,-173.83,1362.15,10134.6,-189.518,0.37459,-16.0706,-72.7858,10684.8,-8456.8,2032.35,-0.217832,94.6271,-50.7754,8603.66,-1768.02,-790.536,-20.6082,-20.8843,-14.8455
3.558,5343.11,-1440.06,9261.12,-6.54254,-96.0627,3.11698,25957.3,3524.41,-2141.13,22.11,53.8941,-180.298,-735.988,11807.6,481.329,-8.93427,21.4516,-113.604,-20386.3,-14515.3,-2855.58,-8.54019,62.7453,-171.915,1389.26,10139.6,-190.946,0.446183,-16.0898,-72.7293,10753.1,-8381.49,1782.67,-1.5272,92.73,-50.4895,8612.89,-1790.3,-823.891,-20.3111,-21.0023,-14.9003
3.5585,5337.56,-1415.27,9254.9,-6.94886,-96.667,3.49883,25946.1,3288.11,-2227.82,24.8303,52.4696,-179.421,-729.226,11811.9,506.831,-8.99582,21.5496,-113.85,-20438.8,-14399.6,-2766.19,-8.9656,61.3018,-170.0,1416.36,10144.6,-192.374,0.517775,-16.109,-72.6727,10821.5,-8306.17,1532.98,-2.83656,90.8328,-50.2035,8622.12,-1812.58,-857.247,-20.014,-21.1202,-14.955
3.559,5332.01,-1390.48,9248.68,-7.35518,-97.2713,3.88069,25934.9,3051.8,-2314.52,27.5506,51.0452,-178.545,-722.463,11816.2,532.332,-9.05736,21.6477,-114.096,-20491.4,-14283.9,-2676.81,-9.39101,59.8583,-168.086,1443.47,10149.5,-193.803,0.589368,-16.1282,-72.6161,10889.8,-8230.85,1283.29,-4.14592,88.9357,-49.9176,8631.35,-1834.86,-890.603,-19.7169,-21.2382,-15.0098
3.5595,5326.45,-1365.7,9242.46,-7.76151,-97.8756,4.26254,25923.7,2815.49,-2401.22,30.2708,49.6207,-177.669,-715.701,11820.5,557.834,-9.1189,21.7457,-114.342,-20544.0,-14168.2,-2587.43,-9.81642,58.4148,-166.171,1470.57,10154.5,-195.231,0.660961,-16.1474,-72.5596,10958.2,-8155.53,1033.6,-5.45529,87.0385,-49.6317,8640.58,-1857.14,-923.959,-19.4198,-21.3562,-15.0645
3.56,5320.9,-1340.91,9236.24,-8.16783,-98.4799,4.64439,25912.5,2579.18,-2487.91,32.9911,48.1962,-176.793,-708.939,11824.8,583.335,-9.18044,21.8437,-114.588,-20596.5,-14052.5,-2498.04,-10.2418,56.9713,-164.256,1497.68,10159.4,-196.659,0.732554,-16.1667,-72.503,11026.5,-8080.21,783.916,-6.76465,85.1414,-49.3458,8649.82,-1879.42,-957.315,-19.1227,-21.4741,-15.1193
3.5605,5324.05,-1299.58,9246.19,-8.39941,-99.1443,4.94113,25794.2,2296.95,-2518.52,36.148,46.007,-175.766,-705.159,11833.2,603.707,-9.29857,21.7874,-114.887,-20636.6,-13926.7,-2326.97,-10.3809,55.4382,-162.289,1521.88,10148.8,-210.597,0.889275,-16.2535,-72.4636,11073.2,-8006.92,502.205,-8.3983,83.401,-48.9058,8664.08,-1864.2,-988.946,-18.8418,-21.4579,-15.207
3.561,5327.2,-1258.24,9256.13,-8.63099,-99.8087,5.23787,25675.9,2014.72,-2549.12,39.3049,43.8178,-174.738,-701.38,11841.7,624.079,-9.4167,21.7311,-115.186,-20676.6,-13800.8,-2155.89,-10.52,53.9051,-160.322,1546.08,10138.2,-224.534,1.046,-16.3403,-72.4242,11119.9,-7933.64,220.494,-10.032,81.6605,-48.4659,8678.33,-1848.97,-1020.58,-18.5609,-21.4417,-15.2947
3.5615,5330.35,-1216.91,9266.08,-8.86257,-100.473,5.53461,25557.5,1732.49,-2579.73,42.4618,41.6287,-173.71,-697.6,11850.1,644.451,-9.53483,21.6749,-115.485,-20716.6,-13675.0,-1984.82,-10.6591,52.3719,-158.355,1570.28,10127.6,-238.471,1.20272,-16.4271,-72.3848,11166.6,-7860.35,-61.2167,-11.6656,79.9201,-48.0259,8692.59,-1833.75,-1052.21,-18.2799,-21.4255,-15.3824
3.562,5333.5,-1175.58,9276.03,-9.09415,-101.138,5.83134,25439.2,1450.26,-2610.33,45.6186,39.4395,-172.682,-693.821,11858.6,664.822,-9.65296,21.6186,-115.784,-20756.6,-13549.2,-1813.74,-10.7982,50.8388,-156.388,1594.48,10117.0,-252.409,1.35944,-16.5139,-72.3454,11213.2,-7787.07,-342.928,-13.2993,78.1797,-47.586,8706.85,-1818.53,-1083.84,-17.999,-21.4093,-15.4701
3.5625,5336.65,-1134.25,9285.98,-9.32573,-101.802,6.12808,25320.8,1168.03,-2640.94,48.7755,37.2503,-171.654,-690.041,11867.0,685.194,-9.77109,21.5623,-116.083,-20796.7,-13423.4,-1642.67,-10.9372,49.3056,-154.421,1618.68,10106.4,-266.346,1.51616,-16.6007,-72.3061,11259.9,-7713.78,-624.639,-14.9329,76.4393,-47.1461,8721.11,-1803.31,-1115.47,-17.7181,-21.3931,-15.5578
3.563,5339.8,-1092.92,9295.93,-9.55731,-102.466,6.42482,25202.5,885.802,-2671.54,51.9324,35.0611,-170.627,-686.261,11875.5,705.566,-9.88922,21.506,-116.382,-20836.7,-13297.5,-1471.59,-11.0763,47.7725,-152.454,1642.88,10095.8,-280.284,1.67288,-16.6876,-72.2667,11306.6,-7640.5,-906.35,-16.5666,74.6988,-46.7061,8735.36,-1788.09,-1147.1,-17.4372,-21.3769,-15.6454
3.5635,5342.95,-1051.58,9305.88,-9.78889,-103.131,6.72156,25084.2,603.572,-2702.15,55.0893,32.8719,-169.599,-682.482,11883.9,725.938,-10.0074,21.4497,-116.681,-20876.7,-13171.7,-1300.52,-11.2154,46.2393,-150.487,1667.07,10085.2,-294.221,1.8296,-16.7744,-72.2273,11353.3,-7567.21,-1188.06,-18.2002,72.9584,-46.2662,8749.62,-1772.87,-1178.74,-17.1562,-21.3606,-15.7331
3.564,5346.1,-1010.25,9315.83,-10.0205,-103.795,7.0183,24965.8,321.342,-2732.75,58.2462,30.6827,-168.571,-678.702,11892.4,746.309,-10.1255,21.3934,-116.98,-20916.7,-13045.9,-1129.44,-11.3545,44.7062,-148.519,1691.27,10074.6,-308.159,1.98633,-16.8612,-72.1879,11400.0,-7493.93,-1469.77,-19.8339,71.218,-45.8263,8763.88,-1757.65,-1210.37,-16.8753,-21.3444,-15.8208
3.5645,5350.94,-970.158,9326.93,-10.225,-104.473,7.3378,24839.0,32.5803,-2766.34,61.3528,28.514,-167.559,-675.71,11900.6,765.389,-10.2412,21.3332,-117.281,-20950.6,-12919.1,-965.357,-11.5075,43.1637,-146.542,1714.59,10064.3,-323.414,2.15295,-16.9511,-72.1481,11448.1,-7424.73,-1737.3,-21.4084,69.5036,-45.3756,8778.36,-1745.27,-1240.75,-16.5913,-21.2939,-15.9054
3.565,5369.29,-939.981,9347.21,-10.2132,-105.255,7.83948,24644.2,-308.44,-2823.81,64.0563,26.5094,-166.672,-679.015,11907.4,774.13,-10.3379,21.2416,-117.601,-20935.4,-12784.9,-857.168,-11.7723,41.5464,-144.483,1730.82,10056.2,-349.213,2.39878,-17.0657,-72.1051,11507.7,-7388.28,-1891.39,-22.5099,67.9974,-44.8388,8794.57,-1755.58,-1261.13,-16.2829,-20.9691,-15.9647
3.5655,5387.64,-909.804,9367.5,-10.2013,-106.037,8.34115,24449.3,-649.46,-2881.28,66.7599,24.5048,-165.786,-682.32,11914.2,782.871,-10.4345,21.15,-117.92,-20920.2,-12650.7,-748.978,-12.037,39.9291,-142.425,1747.06,10048.2,-375.011,2.64461,-17.1802,-72.062,11567.4,-7351.83,-2045.48,-23.6113,66.4913,-44.302,8810.79,-1765.89,-1281.51,-15.9745,-20.6442,-16.024
3.566,5405.99,-879.627,9387.78,-10.1895,-106.82,8.84282,24254.5,-990.479,-2938.75,69.4634,22.5002,-164.899,-685.625,11920.9,791.613,-10.5312,21.0585,-118.24,-20905.0,-12516.5,-640.789,-12.3018,38.3117,-140.366,1763.29,10040.1,-400.81,2.89043,-17.2948,-72.019,11627.1,-7315.38,-2199.57,-24.7128,64.9851,-43.7652,8827.0,-1776.2,-1301.89,-15.666,-20.3194,-16.0834
3.5665,5424.34,-849.45,9408.07,-10.1776,-107.602,9.3445,24059.7,-1331.5,-2996.22,72.167,20.4956,-164.013,-688.93,11927.7,800.354,-10.6278,20.9669,-118.56,-20889.9,-12382.3,-532.6,-12.5665,36.6944,-138.307,1779.52,10032.0,-426.608,3.13626,-17.4094,-71.976,11686.7,-7278.93,-2353.65,-25.8143,63.479,-43.2284,8843.22,-1786.52,-1322.27,-15.3576,-19.9945,-16.1427
3.567,5442.69,-819.273,9428.35,-10.1658,-108.384,9.84617,23864.9,-1672.52,-3053.69,74.8705,18.4911,-163.126,-692.235,11934.4,809.095,-10.7245,20.8753,-118.879,-20874.7,-12248.1,-424.411,-12.8313,35.0771,-136.248,1795.75,10023.9,-452.407,3.38209,-17.5239,-71.933,11746.4,-7242.48,-2507.74,-26.9157,61.9728,-42.6916,8859.44,-1796.83,-1342.65,-15.0492,-19.6697,-16.2021
3.5675,5461.04,-789.095,9448.63,-10.154,-109.167,10.3478,23670.0,-2013.54,-3111.15,77.5741,16.4865,-162.239,-695.54,11941.2,817.837,-10.8211,20.7837,-119.199,-20859.5,-12113.9,-316.222,-13.096,33.4598,-134.19,1811.99,10015.8,-478.206,3.62792,-17.6385,-71.8899,11806.1,-7206.02,-2661.83,-28.0172,60.4667,-42.1548,8875.65,-1807.14,-1363.03,-14.7407,-19.3448,-16.2614
3.568,5479.39,-758.918,9468.92,-10.1421,-109.949,10.8495,23475.2,-2354.56,-3168.62,80.2777,14.4819,-161.353,-698.845,11948.0,826.578,-10.9178,20.6921,-119.519,-20844.3,-11979.7,-208.033,-13.3607,31.8425,-132.131,1828.22,10007.7,-504.004,3.87375,-17.7531,-71.8469,11865.7,-7169.57,-2815.92,-29.1187,58.9605,-41.618,8891.87,-1817.45,-1383.41,-14.4323,-19.02,-16.3207
3.5685,5497.74,-728.741,9489.2,-10.1303,-110.731,11.3512,23280.4,-2695.58,-3226.09,82.9812,12.4773,-160.466,-702.15,11954.7,835.319,-11.0144,20.6005,-119.838,-20829.1,-11845.5,-99.8434,-13.6255,30.2252,-130.072,1844.45,9999.65,-529.803,4.11957,-17.8676,-71.8039,11925.4,-7133.12,-2970.01,-30.2201,57.4544,-41.0812,8908.08,-1827.77,-1403.79,-14.1239,-18.6951,-16.3801
3.569,5513.79,-711.063,9504.68,-10.2214,-111.496,11.8231,23101.5,-3016.17,-3295.3,85.3171,10.6176,-159.558,-704.731,11965.3,842.453,-11.0838,20.5206,-120.159,-20814.0,-11710.0,-32.3298,-13.8706,28.8153,-127.981,1860.38,9990.93,-557.543,4.37102,-17.9863,-71.7473,11975.7,-7107.22,-3106.9,-31.1033,55.9319,-40.5861,8929.01,-1830.22,-1420.5,-13.809,-18.3692,-16.4233
3.5695,5521.75,-737.129,9503.3,-10.673,-112.198,12.1906,22978.4,-3265.26,-3405.62,86.3663,9.26484,-158.572,-704.78,11989.5,843.959,-11.0576,20.4814,-120.486,-20799.1,-11570.0,-107.18,-14.0471,28.1316,-125.775,1875.23,9979.99,-592.077,4.64214,-18.1193,-71.6435,11993.5,-7118.26,-3183.62,-31.2225,54.3523,-40.2371,8966.43,-1805.15,-1424.36,-13.4718,-18.0396,-16.4101
3.57,5529.72,-763.196,9501.93,-11.1246,-112.9,12.5581,22855.2,-3514.34,-3515.93,87.4154,7.9121,-157.587,-704.829,12013.7,845.465,-11.0314,20.4422,-120.813,-20784.3,-11429.9,-182.031,-14.2237,27.4479,-123.569,1890.07,9969.05,-626.612,4.91326,-18.2523,-71.5397,12011.2,-7129.3,-3260.35,-31.3417,52.7726,-39.8881,9003.85,-1780.09,-1428.22,-13.1345,-17.71,-16.3969
3.5705,5537.69,-789.263,9500.55,-11.5762,-113.602,12.9256,22732.1,-3763.43,-3626.24,88.4646,6.55937,-156.601,-704.879,12037.9,846.971,-11.0053,20.4031,-121.14,-20769.5,-11289.9,-256.881,-14.4002,26.7641,-121.364,1904.92,9958.11,-661.146,5.18438,-18.3854,-71.4358,12028.9,-7140.34,-3337.07,-31.4608,51.193,-39.5391,9041.26,-1755.02,-1432.08,-12.7973,-17.3805,-16.3837
3.571,5545.65,-815.329,9499.18,-12.0278,-114.305,13.2931,22609.0,-4012.52,-3736.55,89.5137,5.20664,-155.615,-704.928,12062.0,848.477,-10.9791,20.3639,-121.467,-20754.6,-11149.8,-331.732,-14.5767,26.0804,-119.158,1919.77,9947.17,-695.681,5.4555,-18.5184,-71.332,12046.7,-7151.38,-3413.79,-31.58,49.6134,-39.1901,9078.68,-1729.96,-1435.94,-12.46,-17.0509,-16.3705
3.5715,5553.62,-841.396,9497.81,-12.4794,-115.007,13.6606,22485.9,-4261.61,-3846.86,90.5629,3.8539,-154.63,-704.977,12086.2,849.984,-10.953,20.3247,-121.794,-20739.8,-11009.8,-406.582,-14.7532,25.3967,-116.952,1934.61,9936.23,-730.215,5.72662,-18.6514,-71.2281,12064.4,-7162.41,-3490.51,-31.6992,48.0337,-38.8411,9116.1,-1704.89,-1439.8,-12.1228,-16.7213,-16.3572
3.572,5561.59,-867.462,9496.44,-12.931,-115.709,14.0281,22362.8,-4510.7,-3957.17,91.612,2.50117,-153.644,-705.026,12110.4,851.49,-10.9268,20.2856,-122.121,-20724.9,-10869.7,-481.433,-14.9297,24.713,-114.747,1949.46,9925.29,-764.75,5.99774,-18.7845,-71.1243,12082.1,-7173.45,-3567.24,-31.8184,46.4541,-38.4921,9153.52,-1679.83,-1443.66,-11.7855,-16.3917,-16.344
3.5725,5569.56,-893.529,9495.06,-13.3826,-116.411,14.3956,22239.6,-4759.78,-4067.48,92.6612,1.14844,-152.659,-705.075,12134.5,852.996,-10.9006,20.2464,-122.448,-20710.1,-10729.7,-556.283,-15.1063,24.0293,-112.541,1964.31,9914.35,-799.284,6.26885,-18.9175,-71.0204,12099.8,-7184.49,-3643.96,-31.9375,44.8744,-38.1431,9190.94,-1654.76,-1447.52,-11.4483,-16.0621,-16.3308
3.573,5577.52,-919.596,9493.69,-13.8342,-117.114,14.7631,22116.5,-5008.87,-4177.79,93.7103,-0.204298,-151.673,-705.124,12158.7,854.502,-10.8745,20.2072,-122.775,-20695.3,-10589.6,-631.134,-15.2828,23.3455,-110.335,1979.16,9903.41,-833.819,6.53997,-19.0505,-70.9166,12117.6,-7195.53,-3720.68,-32.0567,43.2948,-37.7942,9228.35,-1629.7,-1451.38,-11.111,-15.7325,-16.3176
3.5735,5580.52,-941.693,9487.28,-14.0528,-117.833,15.1611,22051.8,-5172.37,-4251.2,94.3092,-1.58788,-150.419,-704.179,12177.7,848.394,-10.8326,20.1301,-123.094,-20686.6,-10460.6,-709.929,-15.4419,22.8711,-108.094,1991.29,9896.57,-868.253,6.80502,-19.1534,-70.8171,12140.1,-7204.43,-3780.87,-31.915,41.9022,-37.4929,9258.94,-1611.62,-1463.94,-10.7855,-15.3661,-16.304
3.574,5573.59,-955.851,9470.79,-13.8056,-118.588,15.6203,22104.1,-5164.7,-4250.8,94.0077,-3.03318,-148.628,-701.244,12186.2,827.058,-10.7595,19.9771,-123.398,-20690.2,-10353.8,-796.613,-15.5664,22.8154,-105.783,1998.0,9897.92,-902.487,7.05793,-19.1961,-70.7262,12172.3,-7209.07,-3808.0,-31.2514,40.8837,-37.2871,9275.87,-1607.52,-1493.9,-10.4834,-14.9262,-16.2895
3.5745,5566.66,-970.009,9454.29,-13.5584,-119.343,16.0794,22156.3,-5157.02,-4250.4,93.7062,-4.47847,-146.837,-698.31,12194.7,805.721,-10.6863,19.824,-123.702,-20693.9,-10246.9,-883.298,-15.6908,22.7597,-103.472,2004.71,9899.26,-936.721,7.31084,-19.2387,-70.6353,12204.5,-7213.7,-3835.12,-30.5879,39.8652,-37.0813,9292.8,-1603.42,-1523.86,-10.1813,-14.4862,-16.275
3.575,5559.73,-984.167,9437.8,-13.3112,-120.098,16.5386,22208.6,-5149.35,-4250.0,93.4047,-5.92377,-145.046,-695.375,12203.2,784.384,-10.6132,19.671,-124.005,-20697.5,-10140.0,-969.982,-15.8153,22.704,-101.16,2011.43,9900.61,-970.955,7.56375,-19.2814,-70.5444,12236.6,-7218.34,-3862.25,-29.9244,38.8468,-36.8755,9309.73,-1599.31,-1553.82,-9.87925,-14.0463,-16.2605
3.5755,5552.8,-998.324,9421.32,-13.0639,-120.852,16.9977,22260.8,-5141.68,-4249.61,93.1032,-7.36906,-143.255,-692.44,12211.7,763.048,-10.54,19.5179,-124.309,-20701.2,-10033.2,-1056.67,-15.9397,22.6482,-98.8491,2018.14,9901.96,-1005.19,7.81666,-19.324,-70.4535,12268.8,-7222.97,-3889.37,-29.2608,37.8283,-36.6698,9326.66,-1595.21,-1583.78,-9.57717,-13.6064,-16.246
3.576,5545.86,-1012.48,9404.83,-12.8167,-121.607,17.4569,22313.0,-5134.0,-4249.21,92.8017,-8.81436,-141.464,-689.506,12220.2,741.711,-10.4669,19.3649,-124.612,-20704.9,-9926.28,-1143.35,-16.0642,22.5925,-96.5377,2024.85,9903.31,-1039.42,8.06957,-19.3667,-70.3626,12301.0,-7227.61,-3916.5,-28.5973,36.8098,-36.464,9343.59,-1591.11,-1613.74,-9.27509,-13.1664,-16.2315
3.5765,5538.93,-1026.64,9388.33,-12.5695,-122.362,17.916,22365.3,-5126.33,-4248.81,92.5002,-10.2597,-139.672,-686.571,12228.7,720.374,-10.3937,19.2118,-124.916,-20708.5,-9819.4,-1230.04,-16.1886,22.5368,-94.2264,2031.56,9904.66,-1073.66,8.32248,-19.4093,-70.2717,12333.1,-7232.24,-3943.62,-27.9338,35.7913,-36.2582,9360.52,-1587.0,-1643.7,-8.973,-12.7265,-16.217
3.577,5532.0,-1040.8,9371.84,-12.3223,-123.116,18.3752,22417.5,-5118.65,-4248.41,92.1987,-11.7049,-137.881,-683.637,12237.2,699.038,-10.3206,19.0588,-125.219,-20712.2,-9712.53,-1316.72,-16.3131,22.481,-91.9151,2038.27,9906.01,-1107.89,8.57539,-19.452,-70.1808,12365.3,-7236.88,-3970.75,-27.2702,34.7728,-36.0524,9377.45,-1582.9,-1673.66,-8.67092,-12.2865,-16.2025
3.5775,5525.07,-1054.96,9355.35,-12.0751,-123.871,18.8343,22469.7,-5110.98,-4248.01,91.8972,-13.1502,-136.09,-680.702,12245.7,677.701,-10.2474,18.9057,-125.523,-20715.8,-9605.65,-1403.4,-16.4375,22.4253,-89.6038,2044.99,9907.36,-1142.13,8.8283,-19.4946,-70.0899,12397.5,-7241.51,-3997.88,-26.6067,33.7543,-35.8466,9394.38,-1578.8,-1703.63,-8.36884,-11.8466,-16.188
3.578,5523.37,-1077.69,9351.8,-12.1808,-124.639,19.2326,22560.3,-5041.95,-4245.11,91.3702,-14.4369,-133.972,-682.246,12243.3,650.069,-10.1811,18.7361,-125.834,-20718.3,-9506.69,-1473.55,-16.5126,22.3285,-87.2613,2057.37,9906.97,-1168.52,9.01071,-19.4901,-69.9968,12376.2,-7251.01,-4027.18,-25.7933,33.2402,-35.7003,9416.79,-1573.12,-1733.68,-8.05987,-11.3221,-16.1596
3.5785,5528.22,-1111.14,9364.42,-12.7277,-125.424,19.5549,22698.9,-4896.24,-4239.09,90.5614,-15.5254,-131.444,-689.388,12227.2,614.569,-10.1234,18.5459,-126.154,-20719.4,-9417.63,-1523.02,-16.5259,22.1802,-84.8799,2076.85,9904.41,-1185.1,9.10501,-19.4264,-69.9009,12288.2,-7266.59,-4059.2,-24.7926,33.3565,-35.6282,9446.05,-1565.46,-1763.84,-7.7423,-10.692,-16.1137
3.579,5533.07,-1144.59,9377.04,-13.2747,-126.208,19.8772,22837.4,-4750.52,-4233.06,89.7527,-16.6139,-128.917,-696.529,12211.2,579.069,-10.0657,18.3556,-126.474,-20720.4,-9328.56,-1572.49,-16.5392,22.032,-82.4985,2096.33,9901.85,-1201.68,9.19931,-19.3628,-69.805,12200.2,-7282.16,-4091.23,-23.7918,33.4727,-35.5561,9475.3,-1557.8,-1794.0,-7.42472,-10.0618,-16.0678
3.5795,5537.92,-1178.03,9389.66,-13.8216,-126.993,20.1995,22975.9,-4604.8,-4227.03,88.9439,-17.7023,-126.389,-703.671,12195.2,543.569,-10.0079,18.1653,-126.794,-20721.5,-9239.49,-1621.95,-16.5525,21.8838,-80.1171,2115.81,9899.29,-1218.27,9.29361,-19.2992,-69.709,12112.1,-7297.74,-4123.26,-22.7911,33.589,-35.484,9504.56,-1550.15,-1824.16,-7.10715,-9.4317,-16.022
3.58,5542.77,-1211.48,9402.28,-14.3685,-127.778,20.5218,23114.5,-4459.08,-4221.01,88.1351,-18.7908,-123.862,-710.813,12179.2,508.069,-9.95019,17.9751,-127.114,-20722.5,-9150.42,-1671.42,-16.5658,21.7356,-77.7357,2135.29,9896.73,-1234.85,9.38791,-19.2355,-69.6131,12024.1,-7313.32,-4155.28,-21.7904,33.7053,-35.4119,9533.82,-1542.49,-1854.32,-6.78958,-8.80155,-15.9761
3.5805,5547.61,-1244.93,9414.9,-14.9155,-128.563,20.844,23253.0,-4313.37,-4214.98,87.3264,-19.8792,-121.334,-717.955,12163.1,472.568,-9.89245,17.7848,-127.434,-20723.6,-9061.36,-1720.89,-16.5791,21.5874,-75.3543,2154.77,9894.17,-1251.44,9.48221,-19.1719,-69.5172,11936.1,-7328.9,-4187.31,-20.7897,33.8215,-35.3399,9563.08,-1534.83,-1884.49,-6.47201,-8.17141,-15.9303
3.581,5552.46,-1278.38,9427.51,-15.4624,-129.347,21.1663,23391.5,-4167.65,-4208.95,86.5176,-20.9677,-118.807,-725.096,12147.1,437.068,-9.83471,17.5945,-127.754,-20724.6,-8972.29,-1770.36,-16.5924,21.4392,-72.9729,2174.25,9891.61,-1268.02,9.57651,-19.1083,-69.4212,11848.1,-7344.48,-4219.33,-19.789,33.9378,-35.2678,9592.34,-1527.17,-1914.65,-6.15444,-7.54126,-15.8844
3.5815,5557.31,-1311.83,9440.13,-16.0093,-130.132,21.4886,23530.0,-4021.93,-4202.93,85.7088,-22.0562,-116.279,-732.238,12131.1,401.568,-9.77697,17.4042,-128.075,-20725.7,-8883.22,-1819.83,-16.6057,21.2909,-70.5915,2193.72,9889.05,-1284.61,9.67081,-19.0447,-69.3253,11760.0,-7360.05,-4251.36,-18.7882,34.0541,-35.1957,9621.6,-1519.52,-1944.81,-5.83687,-6.91112,-15.8385
3.582,5562.16,-1345.28,9452.75,-16.5562,-130.917,21.8109,23668.6,-3876.21,-4196.9,84.9,-23.1446,-113.752,-739.38,12115.1,366.068,-9.71924,17.214,-128.395,-20726.7,-8794.15,-1869.3,-16.619,21.1427,-68.2101,2213.2,9886.49,-1301.19,9.76511,-18.981,-69.2294,11672.0,-7375.63,-4283.39,-17.7875,34.1703,-35.1236,9650.86,-1511.86,-1974.97,-5.5193,-6.28097,-15.7927
3.5825,5554.26,-1377.15,9466.11,-16.9708,-131.81,22.0774,23838.2,-3701.1,-4240.22,83.7463,-23.6636,-111.159,-744.245,12107.4,326.71,-9.69245,17.0205,-128.747,-20749.0,-8720.47,-1911.27,-16.567,20.8597,-65.8449,2234.9,9882.96,-1314.43,9.76098,-18.8832,-69.1176,11572.3,-7374.02,-4306.92,-17.1625,34.7851,-35.0988,9669.24,-1507.87,-1989.22,-5.25474,-5.69991,-15.7273
3.583,5536.17,-1407.75,9480.07,-17.2794,-132.79,22.2993,24032.8,-3502.46,-4323.01,82.3166,-23.727,-108.515,-747.289,12106.3,284.267,-9.69043,16.8246,-129.125,-20788.3,-8659.11,-1947.24,-16.4627,20.4687,-63.4925,2258.38,9878.64,-1324.99,9.67812,-18.758,-68.9932,11463.3,-7358.66,-4323.67,-16.8382,35.7986,-35.1116,9678.91,-1506.81,-1990.73,-5.03261,-5.1581,-15.6464
3.5835,5518.08,-1438.36,9494.02,-17.588,-133.77,22.5212,24227.4,-3303.82,-4405.8,80.8869,-23.7903,-105.871,-750.333,12105.2,241.823,-9.6884,16.6286,-129.503,-20827.6,-8597.74,-1983.22,-16.3584,20.0778,-61.1402,2281.86,9874.32,-1335.54,9.59526,-18.6328,-68.8688,11354.2,-7343.29,-4340.42,-16.5138,36.812,-35.1245,9688.58,-1505.75,-1992.24,-4.81047,-4.6163,-15.5655
