Time,RFoot_accel.x,RFoot_accel.y,RFoot_accel.z,RFoot_gyro.x,RFoot_gyro.y,RFoot_gyro.z,LFoot_accel.x,LFoot_accel.y,LFoot_accel.z,LFoot_gyro.x,LFoot_gyro.y,LFoot_gyro.z,RShank_accel.x,RShank_accel.y,RShank_accel.z,RShank_gyro.x,RShank_gyro.y,RShank_gyro.z,LShank_accel.x,LShank_accel.y,LShank_accel.z,LShank_gyro.x,LShank_gyro.y,LShank_gyro.z,RThigh_accel.x,RThigh_accel.y,RThigh_accel.z,RThigh_gyro.x,RThigh_gyro.y,RThigh_gyro.z,LThigh_accel.x,LThigh_accel.y,LThigh_accel.z,LThigh_gyro.x,LThigh_gyro.y,LThigh_gyro.z,Pelvis_accel.x,Pelvis_accel.y,Pelvis_accel.z,Pelvis_gyro.x,Pelvis_gyro.y,Pelvis_gyro.z
4.06,5089.85,-685.452,5464.5,-138.205,415.032,31.9831,3743.72,3313.44,8501.61,5.21149,12.3015,-3.95628,3148.79,4890.99,-724.422,40.4609,-34.5724,245.356,-1696.41,-10045.7,-329.038,-7.27875,7.26349,54.8961,-4825.83,7875.44,-1571.36,28.0123,27.4817,124.81,3501.98,-10924.5,-1287.73,-18.7726,7.49089,44.0491,8613.45,-1945.74,808.774,1.45389,26.8076,13.1192
4.0605,5215.7,-895.119,5501.78,-137.608,415.578,31.3918,3723.71,3349.38,8499.52,5.19519,12.1862,-3.87722,3112.81,4929.18,-690.695,39.7861,-34.583,246.077,-1672.11,-10046.9,-317.866,-7.31495,7.27653,54.8343,-4827.25,7843.13,-1576.05,27.6821,27.4979,125.21,3458.08,-10930.7,-1295.29,-18.4925,8.53219,44.1404,8609.26,-1950.19,816.999,1.68101,26.9187,12.9753
4.061,5341.55,-1104.79,5539.06,-137.011,416.123,30.8005,3703.71,3385.32,8497.43,5.17888,12.071,-3.79817,3076.83,4967.37,-656.967,39.1112,-34.5936,246.798,-1647.82,-10048.0,-306.694,-7.35115,7.28957,54.7726,-4828.67,7810.83,-1580.74,27.3519,27.5141,125.61,3414.19,-10936.9,-1302.85,-18.2123,9.5735,44.2318,8605.07,-1954.64,825.223,1.90813,27.0298,12.8315
4.0615,5467.4,-1314.45,5576.34,-136.414,416.669,30.2092,3683.71,3421.26,8495.33,5.16258,11.9557,-3.71911,3040.84,5005.55,-623.239,38.4364,-34.6041,247.519,-1623.52,-10049.1,-295.522,-7.38735,7.30261,54.7108,-4830.09,7778.52,-1585.43,27.0217,27.5304,126.01,3370.29,-10943.1,-1310.4,-17.9321,10.6148,44.3232,8600.89,-1959.08,833.448,2.13525,27.1409,12.6876
4.062,5593.25,-1524.12,5613.63,-135.817,417.214,29.6179,3663.71,3457.2,8493.24,5.14628,11.8404,-3.64006,3004.86,5043.74,-589.512,37.7616,-34.6147,248.24,-1599.23,-10050.2,-284.35,-7.42355,7.31564,54.649,-4831.51,7746.22,-1590.12,26.6915,27.5466,126.41,3326.4,-10949.4,-1317.96,-17.6519,11.6561,44.4145,8596.7,-1963.53,841.672,2.36237,27.252,12.5437
4.0625,5684.84,-1722.34,5650.99,-135.15,417.502,28.9648,3654.26,3470.88,8486.82,5.16087,11.7084,-3.58792,2967.44,5091.61,-561.8,37.1847,-34.7227,248.911,-1587.65,-10064.2,-296.627,-7.36338,7.31413,54.598,-4837.51,7717.04,-1598.88,26.2428,27.576,126.764,3281.02,-10932.4,-1333.0,-17.3619,12.5672,44.6417,8600.85,-1968.91,850.811,2.65031,27.2883,12.339
4.063,5749.01,-1911.39,5688.41,-134.427,417.583,28.2621,3653.25,3466.73,8476.93,5.20018,11.563,-3.5573,2928.86,5147.23,-538.902,36.6861,-34.9085,249.544,-1586.26,-10088.4,-327.663,-7.22611,7.30097,54.5558,-4847.18,7690.38,-1610.89,25.6994,27.6158,127.083,3234.45,-10897.0,-1354.01,-17.0642,13.3742,44.9776,8611.69,-1975.04,860.68,2.9869,27.2648,12.0857
4.0635,5813.19,-2100.45,5725.84,-133.704,417.665,27.5594,3652.25,3462.59,8467.05,5.23948,11.4176,-3.52669,2890.28,5202.85,-516.004,36.1876,-35.0944,250.176,-1584.87,-10112.7,-358.699,-7.08885,7.28781,54.5135,-4856.85,7663.71,-1622.91,25.156,27.6556,127.401,3187.88,-10861.5,-1375.03,-16.7664,14.1812,45.3135,8622.52,-1981.17,870.55,3.32348,27.2413,11.8324
4.064,5877.37,-2289.51,5763.26,-132.981,417.746,26.8568,3651.24,3458.45,8457.16,5.27879,11.2722,-3.49607,2851.71,5258.47,-493.106,35.6891,-35.2802,250.808,-1583.47,-10136.9,-389.734,-6.95158,7.27464,54.4712,-4866.52,7637.04,-1634.93,24.6126,27.6955,127.719,3141.31,-10826.1,-1396.04,-16.4686,14.9882,45.6493,8633.36,-1987.3,880.42,3.66007,27.2178,11.579
4.0645,5941.55,-2478.57,5800.68,-132.259,417.828,26.1541,3650.24,3454.31,8447.28,5.3181,11.1268,-3.46546,2813.13,5314.08,-470.207,35.1905,-35.4661,251.441,-1582.08,-10161.1,-420.77,-6.81431,7.26148,54.4289,-4876.19,7610.38,-1646.95,24.0693,27.7353,128.038,3094.74,-10790.6,-1417.06,-16.1708,15.7952,45.9852,8644.19,-1993.43,890.289,3.99666,27.1943,11.3257
4.065,6005.73,-2667.62,5838.11,-131.536,417.909,25.4514,3649.23,3450.17,8437.39,5.35741,10.9814,-3.43485,2774.55,5369.7,-447.309,34.692,-35.6519,252.073,-1580.69,-10185.4,-451.806,-6.67705,7.24832,54.3866,-4885.86,7583.71,-1658.97,23.5259,27.7752,128.356,3048.17,-10755.2,-1438.07,-15.8731,16.6022,46.3211,8655.02,-1999.56,900.159,4.33324,27.1708,11.0723
4.0655,6069.9,-2856.68,5875.53,-130.813,417.991,24.7488,3648.22,3446.02,8427.51,5.39672,10.8359,-3.40423,2735.98,5425.32,-424.411,34.1935,-35.8378,252.705,-1579.3,-10209.6,-482.842,-6.53978,7.23516,54.3443,-4895.52,7557.04,-1670.98,22.9825,27.815,128.674,3001.6,-10719.7,-1459.08,-15.5753,17.4092,46.657,8665.86,-2005.69,910.028,4.66983,27.1473,10.819
4.066,6134.08,-3045.74,5912.96,-130.09,418.072,24.0461,3647.22,3441.88,8417.62,5.43602,10.6905,-3.37362,2697.4,5480.94,-401.512,33.6949,-36.0236,253.338,-1577.9,-10233.9,-513.878,-6.40251,7.222,54.302,-4905.19,7530.38,-1683.0,22.4391,27.8548,128.993,2955.03,-10684.2,-1480.1,-15.2775,18.2162,46.9928,8676.69,-2011.82,919.898,5.00642,27.1238,10.5657
4.0665,6198.26,-3234.79,5950.38,-129.367,418.154,23.3434,3646.21,3437.74,8407.74,5.47533,10.5451,-3.343,2658.82,5536.55,-378.614,33.1964,-36.2095,253.97,-1576.51,-10258.1,-544.913,-6.26525,7.20884,54.2597,-4914.86,7503.71,-1695.02,21.8957,27.8947,129.311,2908.46,-10648.8,-1501.11,-14.9797,19.0232,47.3287,8687.53,-2017.95,929.768,5.343,27.1002,10.3123
4.067,6232.64,-3361.66,5958.79,-128.237,418.277,22.7114,3660.31,3412.57,8400.7,5.49381,10.4313,-3.35462,2621.47,5594.18,-346.897,32.6903,-36.4385,254.593,-1589.86,-10262.9,-551.439,-6.12586,7.28854,54.2205,-4930.8,7481.26,-1707.62,21.2699,28.0085,129.536,2851.74,-10597.4,-1515.48,-14.7914,19.5803,47.7482,8708.4,-2014.39,940.257,5.69956,26.9099,10.1125
4.0675,6252.11,-3457.44,5952.7,-126.903,418.423,22.1147,3681.95,3376.88,8395.09,5.50187,10.3332,-3.38737,2584.73,5652.82,-310.771,32.1803,-36.6891,255.212,-1610.58,-10258.0,-545.711,-5.98542,7.41467,54.1828,-4949.89,7460.92,-1720.5,20.6028,28.1594,129.715,2789.93,-10538.0,-1526.52,-14.6578,20.0124,48.2094,8734.29,-2005.98,951.056,6.06611,26.6362,9.93945
4.068,6271.58,-3553.22,5946.61,-125.57,418.568,21.518,3703.6,3341.19,8389.47,5.50994,10.2351,-3.42011,2547.98,5711.45,-274.645,31.6704,-36.9397,255.831,-1631.3,-10253.1,-539.982,-5.84497,7.5408,54.1451,-4968.97,7440.58,-1733.39,19.9358,28.3102,129.894,2728.13,-10478.7,-1537.56,-14.5243,20.4446,48.6706,8760.19,-1997.58,961.854,6.43266,26.3625,9.76639
4.0685,6291.06,-3649.0,5940.51,-124.236,418.713,20.9213,3725.25,3305.5,8383.86,5.518,10.137,-3.45285,2511.24,5770.08,-238.519,31.1605,-37.1903,256.45,-1652.02,-10248.2,-534.253,-5.70453,7.66693,54.1074,-4988.05,7420.24,-1746.27,19.2688,28.4611,130.072,2666.32,-10419.3,-1548.6,-14.3907,20.8767,49.1319,8786.08,-1989.18,972.653,6.79921,26.0888,9.59334
4.069,6310.53,-3744.78,5934.42,-122.902,418.858,20.3246,3746.89,3269.81,8378.25,5.52607,10.0389,-3.48559,2474.5,5828.72,-202.393,30.6506,-37.4409,257.069,-1672.74,-10243.3,-528.525,-5.56409,7.79306,54.0697,-5007.13,7399.89,-1759.16,18.6018,28.6119,130.251,2604.52,-10359.9,-1559.64,-14.2571,21.3088,49.5931,8811.97,-1980.77,983.452,7.16576,25.8151,9.42028
4.0695,6330.01,-3840.55,5928.33,-121.569,419.003,19.7278,3768.54,3234.12,8372.64,5.53413,9.94085,-3.51833,2437.76,5887.35,-166.267,30.1407,-37.6914,257.687,-1693.45,-10238.5,-522.796,-5.42364,7.91919,54.032,-5026.21,7379.55,-1772.04,17.9347,28.7628,130.43,2542.71,-10300.5,-1570.68,-14.1235,21.741,50.0543,8837.87,-1972.37,994.251,7.5323,25.5414,9.24722
4.07,6349.48,-3936.33,5922.24,-120.235,419.148,19.1311,3790.18,3198.43,8367.02,5.5422,9.84277,-3.55107,2401.01,5945.98,-130.141,29.6308,-37.942,258.306,-1714.17,-10233.6,-517.067,-5.2832,8.04532,53.9943,-5045.29,7359.21,-1784.92,17.2677,28.9136,130.609,2480.91,-10241.2,-1581.72,-13.9899,22.1731,50.5155,8863.76,-1963.97,1005.05,7.89885,25.2677,9.07416
4.0705,6368.95,-4032.11,5916.15,-118.901,419.294,18.5344,3811.83,3162.75,8361.41,5.55026,9.74468,-3.58382,2364.27,6004.62,-94.0155,29.1209,-38.1926,258.925,-1734.89,-10228.7,-511.339,-5.14275,8.17145,53.9566,-5064.37,7338.87,-1797.81,16.6007,29.0645,130.787,2419.1,-10181.8,-1592.76,-13.8563,22.6052,50.9768,8889.65,-1955.56,1015.85,8.2654,24.994,8.9011
4.071,6388.43,-4127.89,5910.05,-117.568,419.439,17.9377,3833.48,3127.06,8355.8,5.55833,9.6466,-3.61656,2327.53,6063.25,-57.8896,28.611,-38.4432,259.544,-1755.61,-10223.8,-505.61,-5.00231,8.29757,53.9189,-5083.45,7318.53,-1810.69,15.9336,29.2153,130.966,2357.3,-10122.4,-1603.81,-13.7228,23.0374,51.438,8915.55,-1947.16,1026.65,8.63195,24.7203,8.72804
4.0715,6401.12,-4164.88,5875.37,-115.389,419.742,17.5818,3848.36,3109.21,8360.63,5.60504,9.56077,-3.68189,2284.77,6132.78,-29.5615,28.1559,-38.6945,260.101,-1789.1,-10220.5,-509.245,-4.85205,8.41946,53.7929,-5098.45,7297.93,-1827.07,15.3986,29.3956,131.029,2277.74,-10062.9,-1615.68,-13.6874,23.1284,51.9258,8937.52,-1938.55,1011.7,8.78919,24.4615,8.612
4.072,6411.87,-4185.08,5832.52,-112.969,420.09,17.2946,3861.31,3096.46,8368.44,5.66279,9.47843,-3.75654,2240.3,6205.43,-3.4613,27.7166,-38.946,260.64,-1826.23,-10217.7,-515.555,-4.699,8.54013,53.6415,-5112.28,7277.25,-1844.45,14.9012,29.5843,131.058,2193.1,-10003.3,-1627.8,-13.6802,23.1219,52.4211,8958.37,-1929.89,989.395,8.88664,24.207,8.51225
4.0725,6422.62,-4205.28,5789.67,-110.549,420.439,17.0074,3874.27,3083.72,8376.26,5.72054,9.3961,-3.83119,2195.83,6278.08,22.6389,27.2773,-39.1974,261.18,-1863.37,-10214.9,-521.865,-4.54594,8.6608,53.4902,-5126.11,7256.58,-1861.83,14.4038,29.773,131.088,2108.47,-9943.76,-1639.91,-13.6729,23.1154,52.9164,8979.21,-1921.22,967.09,8.98408,23.9525,8.4125
4.073,6433.38,-4225.48,5746.83,-108.129,420.787,16.7203,3887.22,3070.97,8384.07,5.7783,9.31377,-3.90583,2151.36,6350.73,48.739,26.8379,-39.4489,261.719,-1900.51,-10212.1,-528.175,-4.39288,8.78148,53.3389,-5139.94,7235.9,-1879.21,13.9064,29.9618,131.118,2023.84,-9884.19,-1652.03,-13.6656,23.1089,53.4118,9000.06,-1912.55,944.785,9.08152,23.698,8.31275
4.0735,6444.13,-4245.68,5703.98,-105.708,421.136,16.4331,3900.18,3058.22,8391.88,5.83605,9.23144,-3.98048,2106.89,6423.38,74.8392,26.3986,-39.7004,262.258,-1937.64,-10209.3,-534.485,-4.23983,8.90215,53.1875,-5153.77,7215.23,-1896.59,13.409,30.1505,131.147,1939.2,-9824.61,-1664.14,-13.6584,23.1024,53.9071,9020.91,-1903.89,922.48,9.17896,23.4435,8.213
4.074,6454.88,-4265.88,5661.13,-103.288,421.484,16.1459,3913.13,3045.48,8399.7,5.8938,9.14911,-4.05513,2062.41,6496.03,100.939,25.9593,-39.9518,262.798,-1974.78,-10206.6,-540.795,-4.08677,9.02282,53.0362,-5167.6,7194.55,-1913.97,12.9116,30.3392,131.177,1854.57,-9765.04,-1676.26,-13.6511,23.096,54.4024,9041.76,-1895.22,900.175,9.27641,23.189,8.11325
4.0745,6465.63,-4286.07,5618.28,-100.868,421.833,15.8588,3926.08,3032.73,8407.51,5.95156,9.06677,-4.12977,2017.94,6568.68,127.039,25.5199,-40.2033,263.337,-2011.91,-10203.8,-547.105,-3.93371,9.14349,52.8849,-5181.43,7173.88,-1931.35,12.4143,30.5279,131.206,1769.93,-9705.46,-1688.37,-13.6439,23.0895,54.8978,9062.61,-1886.55,877.87,9.37385,22.9345,8.0135
4.075,6476.39,-4306.27,5575.43,-98.4481,422.181,15.5716,3939.04,3019.98,8415.33,6.00931,8.98444,-4.20442,1973.47,6641.33,153.14,25.0806,-40.4548,263.876,-2049.05,-10201.0,-553.415,-3.78065,9.26416,52.7336,-5195.26,7153.2,-1948.72,11.9169,30.7166,131.236,1685.3,-9645.89,-1700.49,-13.6366,23.083,55.3931,9083.46,-1877.89,855.566,9.47129,22.68,7.91375
4.0755,6487.14,-4326.47,5532.58,-96.028,422.53,15.2845,3951.99,3007.24,8423.14,6.06706,8.90211,-4.27907,1929.0,6713.98,179.24,24.6413,-40.7062,264.416,-2086.18,-10198.2,-559.725,-3.6276,9.38484,52.5822,-5209.09,7132.53,-1966.1,11.4195,30.9053,131.265,1600.66,-9586.31,-1712.6,-13.6294,23.0765,55.8885,9104.31,-1869.22,833.261,9.56874,22.4255,7.814
4.076,6496.7,-4320.55,5521.08,-93.0522,422.882,15.2837,3956.45,3004.54,8431.59,6.07539,8.84046,-4.36345,1872.23,6766.09,189.376,24.4012,-40.9595,264.872,-2107.97,-10192.9,-539.249,-3.63206,9.2491,52.4857,-5204.07,7115.65,-1949.92,11.2315,30.9743,131.105,1533.24,-9544.4,-1718.39,-13.6934,22.7303,56.3467,9109.53,-1865.15,819.309,9.70203,22.2395,7.80205
4.0765,6506.11,-4311.36,5513.49,-90.007,423.234,15.3187,3959.85,3003.11,8440.12,6.07755,8.7814,-4.44904,1813.92,6815.63,197.518,24.1859,-41.213,265.318,-2127.84,-10187.3,-515.426,-3.65622,9.08132,52.396,-5196.68,7099.24,-1929.55,11.0821,31.0283,130.922,1467.98,-9504.7,-1723.39,-13.7663,22.3415,56.8004,9112.79,-1861.65,806.402,9.8398,22.0622,7.80107
4.077,6515.52,-4302.17,5505.91,-86.9617,423.586,15.3537,3963.25,3001.68,8448.65,6.0797,8.72234,-4.53464,1755.62,6865.17,205.659,23.9707,-41.4664,265.764,-2147.71,-10181.7,-491.602,-3.68037,8.91354,52.3063,-5189.3,7082.83,-1909.18,10.9327,31.0823,130.738,1402.71,-9464.99,-1728.39,-13.8393,21.9528,57.254,9116.05,-1858.15,793.495,9.97758,21.8848,7.8001
4.0775,6524.92,-4292.98,5498.33,-83.9165,423.938,15.3887,3966.64,3000.24,8457.18,6.08185,8.66327,-4.62023,1697.32,6914.72,213.8,23.7555,-41.7199,266.21,-2167.58,-10176.2,-467.779,-3.70453,8.74575,52.2166,-5181.91,7066.43,-1888.8,10.7833,31.1364,130.555,1337.44,-9425.28,-1733.38,-13.9122,21.5641,57.7076,9119.32,-1854.65,780.588,10.1154,21.7074,7.79913
4.078,6534.33,-4283.79,5490.74,-80.8712,424.29,15.4237,3970.04,2998.81,8465.71,6.08401,8.60421,-4.70583,1639.01,6964.26,221.941,23.5403,-41.9734,266.656,-2187.45,-10170.6,-443.955,-3.72869,8.57797,52.1269,-5174.53,7050.02,-1868.43,10.634,31.1904,130.371,1272.18,-9385.58,-1738.38,-13.9852,21.1754,58.1613,9122.58,-1851.15,767.681,10.2531,21.53,7.79815
4.0785,6543.74,-4274.59,5483.16,-77.826,424.642,15.4588,3973.44,2997.38,8474.24,6.08616,8.54515,-4.79143,1580.71,7013.81,230.083,23.3251,-42.2268,267.102,-2207.32,-10165.0,-420.132,-3.75284,8.41018,52.0372,-5167.14,7033.61,-1848.05,10.4846,31.2444,130.188,1206.91,-9345.88,-1743.38,-14.0581,20.7866,58.6149,9125.84,-1847.65,754.774,10.3909,21.3526,7.79718
4.079,6553.15,-4265.4,5475.58,-74.7807,424.994,15.4938,3976.83,2995.94,8482.77,6.08832,8.48609,-4.87702,1522.4,7063.35,238.224,23.1099,-42.4803,267.548,-2227.2,-10159.4,-396.308,-3.777,8.2424,51.9475,-5159.75,7017.21,-1827.68,10.3352,31.2984,130.004,1141.64,-9306.17,-1748.38,-14.1311,20.3979,59.0686,9129.11,-1844.16,741.866,10.5287,21.1752,7.7962
4.0795,6562.56,-4256.21,5467.99,-71.7355,425.346,15.5288,3980.23,2994.51,8491.3,6.09047,8.42703,-4.96262,1464.1,7112.89,246.365,22.8947,-42.7338,267.993,-2247.07,-10153.8,-372.485,-3.80115,8.07462,51.8578,-5152.37,7000.8,-1807.31,10.1859,31.3524,129.82,1076.38,-9266.46,-1753.38,-14.204,20.0092,59.5222,9132.37,-1840.66,728.959,10.6664,20.9978,7.79523
4.08,6571.97,-4247.02,5460.41,-68.6902,425.698,15.5638,3983.63,2993.07,8499.83,6.09262,8.36796,-5.04821,1405.8,7162.44,254.506,22.6795,-42.9873,268.439,-2266.94,-10148.2,-348.661,-3.82531,7.90683,51.7681,-5144.98,6984.4,-1786.93,10.0365,31.4065,129.637,1011.11,-9226.76,-1758.37,-14.277,19.6205,59.9758,9135.63,-1837.16,716.052,10.8042,20.8204,7.79425
4.0805,6589.0,-4217.22,5470.49,-65.703,425.911,15.8267,3978.58,3016.06,8492.44,6.08205,8.26367,-5.0327,1344.56,7198.09,259.583,22.7062,-43.0899,268.907,-2287.48,-10118.0,-348.332,-3.80992,7.6311,51.6919,-5126.74,6977.48,-1739.83,10.01,31.0032,129.345,951.643,-9207.29,-1763.87,-14.2597,19.034,60.2377,9152.25,-1811.75,704.286,10.8184,20.6479,7.80211
4.081,6606.04,-4187.41,5480.56,-62.7157,426.124,16.0896,3973.52,3039.05,8485.05,6.07147,8.15937,-5.01719,1283.32,7233.74,264.66,22.7329,-43.1926,269.374,-2308.02,-10087.8,-348.003,-3.79452,7.35536,51.6158,-5108.5,6970.57,-1692.73,9.98348,30.6,129.053,892.174,-9187.82,-1769.37,-14.2425,18.4475,60.4995,9168.86,-1786.34,692.52,10.8325,20.4753,7.80997
4.0815,6623.07,-4157.6,5490.64,-59.7285,426.337,16.3525,3968.47,3062.05,8477.67,6.0609,8.05508,-5.00168,1222.09,7269.39,269.737,22.7596,-43.2952,269.841,-2328.55,-10057.6,-347.673,-3.77913,7.07963,51.5396,-5090.25,6963.66,-1645.62,9.95697,30.1967,128.761,832.705,-9168.35,-1774.86,-14.2253,17.8611,60.7613,9185.48,-1760.93,680.754,10.8467,20.3027,7.81783
4.082,6640.11,-4127.8,5500.72,-56.7412,426.55,16.6154,3963.42,3085.04,8470.28,6.05032,7.95078,-4.98617,1160.85,7305.04,274.814,22.7863,-43.3979,270.308,-2349.09,-10027.4,-347.344,-3.76374,6.80389,51.4635,-5072.01,6956.74,-1598.52,9.93047,29.7934,128.469,773.236,-9148.88,-1780.36,-14.208,17.2746,61.0231,9202.09,-1735.51,668.987,10.8608,20.1301,7.82568
4.0825,6657.14,-4097.99,5510.8,-53.754,426.763,16.8783,3958.37,3108.03,8462.89,6.03975,7.84649,-4.97066,1099.62,7340.69,279.891,22.813,-43.5005,270.775,-2369.63,-9997.21,-347.015,-3.74835,6.52816,51.3874,-5053.76,6949.83,-1551.42,9.90396,29.3902,128.178,713.766,-9129.41,-1785.85,-14.1908,16.6881,61.2849,9218.71,-1710.1,657.221,10.875,19.9575,7.83354
4.083,6674.18,-4068.19,5520.88,-50.7667,426.976,17.1412,3953.31,3131.02,8455.5,6.02917,7.74219,-4.95515,1038.38,7376.34,284.968,22.8397,-43.6032,271.242,-2390.17,-9967.01,-346.686,-3.73295,6.25242,51.3112,-5035.52,6942.92,-1504.31,9.87745,28.9869,127.886,654.297,-9109.94,-1791.35,-14.1736,16.1017,61.5467,9235.32,-1684.69,645.455,10.8892,19.7849,7.8414
4.0835,6691.21,-4038.38,5530.96,-47.7795,427.189,17.4041,3948.26,3154.01,8448.11,6.0186,7.6379,-4.93964,977.144,7411.99,290.045,22.8664,-43.7058,271.709,-2410.71,-9936.8,-346.356,-3.71756,5.97669,51.2351,-5017.27,6936.01,-1457.21,9.85094,28.5837,127.594,594.828,-9090.47,-1796.85,-14.1563,15.5152,61.8086,9251.94,-1659.28,633.689,10.9033,19.6123,7.84926
4.084,6708.25,-4008.57,5541.04,-44.7922,427.402,17.667,3943.21,3177.0,8440.72,6.00802,7.5336,-4.92412,915.908,7447.64,295.122,22.8931,-43.8085,272.176,-2431.25,-9906.6,-346.027,-3.70217,5.70095,51.1589,-4999.03,6929.09,-1410.11,9.82444,28.1804,127.302,535.359,-9070.99,-1802.34,-14.1391,14.9287,62.0704,9268.55,-1633.87,621.923,10.9175,19.4397,7.85712
4.0845,6723.85,-3979.91,5554.4,-41.8723,427.576,17.9315,3938.94,3199.69,8433.0,6.0042,7.42954,-4.91223,857.921,7483.6,299.809,22.9386,-43.879,272.659,-2450.72,-9879.08,-347.418,-3.70996,5.42295,51.0759,-4980.51,6924.11,-1364.49,9.78149,27.7128,127.005,476.305,-9051.5,-1807.59,-14.1196,14.3342,62.317,9280.5,-1609.51,610.133,10.9523,19.2799,7.86623
4.085,6727.99,-3960.38,5594.09,-39.4909,427.441,18.2092,3940.94,3220.06,8422.61,6.05438,7.32739,-4.92928,825.93,7522.0,301.377,23.135,-43.6922,273.263,-2461.65,-9873.05,-362.572,-3.90327,5.12681,50.938,-4959.8,6934.58,-1330.76,9.60703,26.7304,126.664,420.567,-9031.85,-1810.88,-14.0821,13.675,62.4427,9255.04,-1593.57,598.15,11.1528,19.2222,7.88537
4.0855,6732.13,-3940.85,5633.77,-37.1095,427.307,18.4869,3942.94,3240.43,8412.21,6.10456,7.22523,-4.94633,793.938,7560.41,302.944,23.3314,-43.5054,273.867,-2472.57,-9867.02,-377.727,-4.09657,4.83067,50.8,-4939.08,6945.05,-1297.04,9.43257,25.748,126.323,364.829,-9012.2,-1814.16,-14.0446,13.0157,62.5683,9229.59,-1577.62,586.167,11.3532,19.1646,7.90451
4.086,6736.27,-3921.32,5673.46,-34.7281,427.173,18.7646,3944.93,3260.8,8401.82,6.15475,7.12308,-4.96338,761.947,7598.81,304.511,23.5278,-43.3187,274.471,-2483.49,-9860.99,-392.881,-4.28988,4.53454,50.6621,-4918.37,6955.51,-1263.32,9.2581,24.7656,125.982,309.091,-8992.54,-1817.44,-14.0071,12.3565,62.6939,9204.15,-1561.68,574.184,11.5537,19.107,7.92365
4.0865,6740.41,-3901.79,5713.14,-32.3467,427.038,19.0423,3946.93,3281.17,8391.42,6.20493,7.02092,-4.98043,729.956,7637.21,306.078,23.7242,-43.1319,275.075,-2494.42,-9854.96,-408.036,-4.48318,4.2384,50.5241,-4897.65,6965.98,-1229.59,9.08364,23.7832,125.64,253.353,-8972.89,-1820.73,-13.9696,11.6973,62.8195,9178.69,-1545.73,562.201,11.7541,19.0493,7.94279
4.087,6744.56,-3882.27,5752.82,-29.9653,426.904,19.32,3948.93,3301.54,8381.03,6.25511,6.91876,-4.99748,697.965,7675.62,307.646,23.9206,-42.9451,275.678,-2505.34,-9848.92,-423.19,-4.67649,3.94226,50.3862,-4876.93,6976.45,-1195.87,8.90918,22.8008,125.299,197.615,-8953.24,-1824.01,-13.9322,11.038,62.9451,9153.25,-1529.79,550.218,11.9545,18.9917,7.96193
4.0875,6748.7,-3862.74,5792.51,-27.5839,426.769,19.5977,3950.93,3321.9,8370.63,6.3053,6.81661,-5.01452,665.973,7714.02,309.213,24.117,-42.7584,276.282,-2516.27,-9842.89,-438.344,-4.86979,3.64613,50.2482,-4856.22,6986.92,-1162.14,8.73471,21.8185,124.958,141.877,-8933.58,-1827.3,-13.8947,10.3788,63.0707,9127.79,-1513.84,538.235,12.155,18.9341,7.98107
4.088,6752.84,-3843.21,5832.19,-25.2025,426.635,19.8754,3952.93,3342.27,8360.24,6.35548,6.71445,-5.03157,633.982,7752.43,310.78,24.3133,-42.5716,276.886,-2527.19,-9836.86,-453.499,-5.0631,3.34999,50.1103,-4835.5,6997.38,-1128.42,8.56025,20.8361,124.617,86.1389,-8913.93,-1830.58,-13.8572,9.71958,63.1963,9102.34,-1497.9,526.252,12.3554,18.8764,8.00021
4.0885,6756.98,-3823.68,5871.88,-22.821,426.501,20.1531,3954.92,3362.64,8349.85,6.40566,6.6123,-5.04862,601.991,7790.83,312.348,24.5097,-42.3849,277.49,-2538.11,-9830.83,-468.653,-5.2564,3.05385,49.9723,-4814.79,7007.85,-1094.69,8.38579,19.8537,124.276,30.4009,-8894.28,-1833.86,-13.8197,9.06035,63.3219,9076.89,-1481.95,514.269,12.5559,18.8188,8.01935
4.089,6756.62,-3810.15,5915.98,-20.6134,426.305,20.403,3958.65,3382.58,8339.95,6.4335,6.52051,-5.04403,581.219,7827.19,316.872,24.7096,-42.1652,278.136,-2549.15,-9823.21,-484.612,-5.41571,2.78521,49.8517,-4797.4,7018.47,-1065.5,8.21545,18.8089,123.907,-20.8037,-8881.06,-1835.33,-13.7712,8.37607,63.4321,9058.8,-1466.41,502.179,12.7325,18.7688,8.02788
4.0895,6740.53,-3817.6,5975.55,-19.0142,425.896,20.5558,3968.42,3401.04,8331.8,6.3831,6.46503,-4.96371,599.717,7856.4,331.747,24.9216,-41.8304,278.928,-2560.57,-9810.01,-503.384,-5.45605,2.6128,49.7916,-4791.69,7029.64,-1052.2,8.05953,17.5459,123.44,-56.1414,-8890.38,-1830.42,-13.6842,7.60411,63.4885,9066.47,-1452.24,489.711,12.8257,18.7457,7.9993
4.09,6724.45,-3825.06,6035.12,-17.4149,425.486,20.7086,3978.2,3419.49,8323.65,6.33271,6.40954,-4.88338,618.215,7885.61,346.622,25.1335,-41.4955,279.719,-2571.98,-9796.81,-522.156,-5.49639,2.44039,49.7314,-4785.97,7040.81,-1038.89,7.9036,16.2829,122.973,-91.479,-8899.7,-1825.51,-13.5973,6.83214,63.5448,9074.13,-1438.08,477.243,12.9188,18.7226,7.97072
4.0905,6708.36,-3832.52,6094.68,-15.8156,425.077,20.8614,3987.97,3437.95,8315.5,6.28231,6.35406,-4.80305,636.714,7914.82,361.497,25.3455,-41.1607,280.511,-2583.4,-9783.61,-540.928,-5.53672,2.26798,49.6713,-4780.25,7051.97,-1025.58,7.74768,15.0199,122.506,-126.817,-8909.02,-1820.6,-13.5103,6.06018,63.6012,9081.79,-1423.92,464.776,13.012,18.6995,7.94213
4.091,6692.27,-3839.98,6154.25,-14.2163,424.667,21.0142,3997.75,3456.4,8307.35,6.23192,6.29857,-4.72273,655.211,7944.02,376.372,25.5575,-40.8259,281.303,-2594.82,-9770.41,-559.7,-5.57706,2.09556,49.6112,-4774.53,7063.14,-1012.27,7.59176,13.7568,122.039,-162.154,-8918.34,-1815.69,-13.4233,5.28822,63.6575,9089.46,-1409.76,452.308,13.1052,18.6763,7.91355
4.0915,6676.18,-3847.43,6213.82,-12.617,424.258,21.167,4007.52,3474.86,8299.2,6.18152,6.24309,-4.6424,673.71,7973.23,391.247,25.7694,-40.491,282.094,-2606.24,-9757.21,-578.472,-5.61739,1.92315,49.5511,-4768.81,7074.3,-998.959,7.43584,12.4938,121.572,-197.492,-8927.66,-1810.78,-13.3364,4.51625,63.7139,9097.12,-1395.6,439.841,13.1984,18.6532,7.88497
4.092,6660.09,-3854.89,6273.39,-11.0177,423.848,21.3198,4017.29,3493.31,8291.05,6.13113,6.18761,-4.56207,692.208,8002.44,406.122,25.9814,-40.1562,282.886,-2617.65,-9744.01,-597.244,-5.65773,1.75074,49.4909,-4763.1,7085.47,-985.65,7.27992,11.2308,121.104,-232.83,-8936.98,-1805.87,-13.2494,3.74429,63.7702,9104.78,-1381.44,427.373,13.2916,18.6301,7.85638
4.0925,6644.0,-3862.35,6332.96,-9.41847,423.439,21.4725,4027.07,3511.76,8282.9,6.08073,6.13212,-4.48175,710.706,8031.65,420.996,26.1934,-39.8214,283.678,-2629.07,-9730.81,-616.016,-5.69806,1.57833,49.4308,-4757.38,7096.63,-972.341,7.124,9.96779,120.637,-268.167,-8946.3,-1800.96,-13.1625,2.97233,63.8266,9112.45,-1367.27,414.906,13.3848,18.607,7.8278
4.093,6627.91,-3869.8,6392.53,-7.81918,423.029,21.6253,4036.84,3530.22,8274.75,6.03034,6.07664,-4.40142,729.204,8060.85,435.871,26.4054,-39.4865,284.469,-2640.49,-9717.61,-634.788,-5.7384,1.40591,49.3707,-4751.66,7107.8,-959.031,6.96808,8.70477,120.17,-303.505,-8955.62,-1796.05,-13.0755,2.20036,63.8829,9120.11,-1353.11,402.438,13.478,18.5839,7.79922
4.0935,6614.8,-3876.17,6442.68,-6.43404,422.568,21.7825,4039.3,3546.6,8268.42,5.94427,6.02735,-4.3002,759.621,8089.06,454.226,26.5675,-39.1545,285.263,-2641.98,-9710.93,-653.49,-5.77943,1.27977,49.308,-4748.1,7111.16,-950.031,6.87828,7.52162,119.676,-332.622,-8965.21,-1788.51,-12.9801,1.42055,63.9239,9122.69,-1334.21,389.623,13.5384,18.5761,7.81236
4.094,6607.64,-3880.34,6474.01,-5.47719,422.004,21.9484,4027.12,3558.82,8265.76,5.78687,5.99047,-4.15718,813.878,8115.27,479.54,26.6299,-38.8282,286.062,-2623.64,-9717.32,-672.053,-5.82183,1.24615,49.2401,-4748.85,7098.92,-949.65,6.92073,6.4982,119.129,-349.297,-8975.32,-1775.71,-12.8677,0.625046,63.9339,9115.1,-1305.82,376.115,13.5335,18.599,7.90895
4.0945,6600.48,-3884.52,6505.35,-4.52033,421.439,22.1144,4014.95,3571.05,8263.09,5.62947,5.95358,-4.01416,868.135,8141.48,504.854,26.6923,-38.5019,286.86,-2605.29,-9723.71,-690.617,-5.86423,1.21253,49.1721,-4749.61,7086.68,-949.268,6.96318,5.47478,118.582,-365.972,-8985.44,-1762.92,-12.7554,-0.170459,63.944,9107.52,-1277.43,362.606,13.5286,18.622,8.00553
4.095,6593.32,-3888.7,6536.68,-3.56347,420.875,22.2803,4002.77,3583.27,8260.43,5.47206,5.91669,-3.87115,922.392,8167.68,530.168,26.7547,-38.1755,287.658,-2586.94,-9730.09,-709.18,-5.90664,1.17892,49.1042,-4750.36,7074.44,-948.886,7.00564,4.45136,118.034,-382.647,-8995.56,-1750.12,-12.6431,-0.965965,63.9541,9099.93,-1249.04,349.097,13.5237,18.6449,8.10212
4.0955,6586.16,-3892.87,6568.01,-2.60661,420.311,22.4463,3990.59,3595.5,8257.77,5.31466,5.87981,-3.72813,976.649,8193.89,555.482,26.8172,-37.8492,288.457,-2568.59,-9736.48,-727.744,-5.94904,1.1453,49.0363,-4751.12,7062.2,-948.504,7.04809,3.42794,117.487,-399.322,-9005.68,-1737.32,-12.5307,-1.76147,63.9641,9092.34,-1220.65,335.588,13.5187,18.6679,8.19871
4.096,6578.99,-3897.05,6599.34,-1.64975,419.747,22.6122,3978.42,3607.72,8255.1,5.15725,5.84292,-3.58512,1030.91,8220.1,580.795,26.8796,-37.5228,289.255,-2550.24,-9742.86,-746.307,-5.99145,1.11169,48.9684,-4751.87,7049.96,-948.122,7.09054,2.40452,116.939,-415.997,-9015.8,-1724.53,-12.4184,-2.55698,63.9742,9084.75,-1192.26,322.079,13.5138,18.6908,8.29529
4.0965,6571.83,-3901.22,6630.67,-0.692896,419.182,22.7781,3966.24,3619.95,8252.44,4.99985,5.80604,-3.4421,1085.16,8246.31,606.109,26.942,-37.1965,290.054,-2531.89,-9749.25,-764.87,-6.03385,1.07807,48.9005,-4752.62,7037.72,-947.74,7.13299,1.3811,116.392,-432.673,-9025.92,-1711.73,-12.3061,-3.35248,63.9843,9077.17,-1163.87,308.57,13.5089,18.7137,8.39188
4.097,6564.67,-3905.4,6662.0,0.263962,418.618,22.9441,3954.06,3632.17,8249.77,4.84245,5.76915,-3.29908,1139.42,8272.52,631.423,27.0044,-36.8702,290.852,-2513.54,-9755.63,-783.434,-6.07626,1.04445,48.8325,-4753.38,7025.48,-947.358,7.17544,0.357674,115.845,-449.348,-9036.04,-1698.94,-12.1937,-4.14799,63.9943,9069.58,-1135.48,295.062,13.504,18.7367,8.48847
4.0975,6557.51,-3909.58,6693.33,1.22082,418.054,23.11,3941.89,3644.4,8247.11,4.68504,5.73227,-3.15607,1193.68,8298.72,656.737,27.0668,-36.5438,291.65,-2495.19,-9762.02,-801.997,-6.11866,1.01084,48.7646,-4754.13,7013.24,-946.976,7.21789,-0.665747,115.297,-466.023,-9046.16,-1686.14,-12.0814,-4.94349,64.0044,9061.99,-1107.09,281.553,13.4991,18.7596,8.58505
4.098,6556.19,-3913.04,6717.81,1.96901,417.478,23.4012,3934.45,3653.42,8243.65,4.51968,5.71737,-3.02346,1245.86,8326.32,679.777,27.0543,-36.2176,292.397,-2476.36,-9765.69,-808.437,-6.19159,1.01578,48.7528,-4753.73,7001.78,-954.088,7.2892,-1.43985,114.74,-479.889,-9059.25,-1668.62,-11.9457,-5.75321,63.9819,9054.74,-1086.84,275.721,13.4873,18.7397,8.65432
4.0985,6562.16,-3915.6,6733.72,2.45636,416.887,23.8489,3932.94,3658.43,8239.21,4.34436,5.72996,-2.90385,1295.45,8355.66,699.974,26.9479,-35.8915,293.08,-2456.94,-9765.96,-799.722,-6.30267,1.06891,48.8112,-4751.87,6991.28,-970.567,7.39659,-1.9023,114.169,-490.245,-9076.04,-1645.19,-11.7808,-6.58071,63.9188,9047.92,-1076.74,279.485,13.4671,18.6662,8.68944
4.099,6568.14,-3918.17,6749.64,2.94371,416.296,24.2966,3931.44,3663.44,8234.76,4.16905,5.74254,-2.78425,1345.05,8385.0,720.172,26.8416,-35.5654,293.763,-2437.51,-9766.23,-791.007,-6.41375,1.12205,48.8696,-4750.01,6980.78,-987.047,7.50397,-2.36475,113.599,-500.6,-9092.83,-1621.76,-11.6159,-7.4082,63.8557,9041.09,-1066.65,283.248,13.4469,18.5927,8.72455
4.0995,6574.11,-3920.74,6765.55,3.43106,415.706,24.7443,3929.93,3668.46,8230.32,3.99373,5.75513,-2.66464,1394.64,8414.34,740.369,26.7352,-35.2392,294.446,-2418.08,-9766.51,-782.293,-6.52484,1.17518,48.928,-4748.15,6970.28,-1003.53,7.61136,-2.8272,113.028,-510.956,-9109.63,-1598.33,-11.4511,-8.23569,63.7925,9034.27,-1056.56,287.012,13.4267,18.5192,8.75967
4.1,6580.09,-3923.3,6781.46,3.91841,415.115,25.192,3928.42,3673.47,8225.87,3.81842,5.76772,-2.54503,1444.23,8443.68,760.567,26.6289,-34.9131,295.129,-2398.66,-9766.78,-773.578,-6.63592,1.22832,48.9863,-4746.29,6959.78,-1020.01,7.71874,-3.28965,112.458,-521.311,-9126.42,-1574.91,-11.2862,-9.06319,63.7294,9027.44,-1046.46,290.776,13.4065,18.4458,8.79479
4.1005,6586.06,-3925.87,6797.37,4.40576,414.525,25.6396,3926.91,3678.49,8221.43,3.6431,5.7803,-2.42543,1493.82,8473.03,780.764,26.5225,-34.587,295.812,-2379.23,-9767.05,-764.863,-6.747,1.28146,49.0447,-4744.43,6949.29,-1036.49,7.82613,-3.7521,111.887,-531.667,-9143.22,-1551.48,-11.1213,-9.89068,63.6663,9020.62,-1036.37,294.54,13.3863,18.3723,8.8299
4.101,6592.04,-3928.44,6813.28,4.89311,413.934,26.0873,3925.4,3683.5,8216.98,3.46778,5.79289,-2.30582,1543.42,8502.37,800.962,26.4162,-34.2609,296.495,-2359.8,-9767.33,-756.148,-6.85808,1.33459,49.1031,-4742.57,6938.79,-1052.96,7.93351,-4.21455,111.317,-542.022,-9160.01,-1528.05,-10.9564,-10.7182,63.6031,9013.79,-1026.27,298.303,13.3661,18.2988,8.86502
4.1015,6598.01,-3931.0,6829.2,5.38045,413.343,26.535,3923.9,3688.51,8212.54,3.29247,5.80548,-2.18622,1593.01,8531.71,821.159,26.3099,-33.9348,297.178,-2340.38,-9767.6,-747.434,-6.96916,1.38773,49.1615,-4740.71,6928.29,-1069.44,8.0409,-4.677,110.746,-552.378,-9176.81,-1504.62,-10.7916,-11.5457,63.54,9006.97,-1016.18,302.067,13.3459,18.2253,8.90014
4.102,6603.98,-3933.57,6845.11,5.8678,412.753,26.9827,3922.39,3693.53,8208.09,3.11715,5.81807,-2.06661,1642.6,8561.05,841.357,26.2035,-33.6087,297.861,-2320.95,-9767.88,-738.719,-7.08024,1.44086,49.2199,-4738.86,6917.79,-1085.92,8.14828,-5.13944,110.176,-562.733,-9193.6,-1481.19,-10.6267,-12.3732,63.4769,9000.14,-1006.09,305.831,13.3257,18.1518,8.93526
4.1025,6623.71,-3922.26,6863.54,6.25865,412.218,27.6803,3916.34,3707.46,8205.83,2.99352,5.80837,-1.91472,1667.36,8587.51,861.498,26.1041,-33.3617,298.438,-2301.43,-9765.37,-744.781,-7.12641,1.47403,49.2382,-4746.1,6901.63,-1109.73,8.26558,-5.34354,109.653,-568.286,-9211.0,-1459.84,-10.4415,-13.2206,63.3999,8990.69,-990.082,296.29,13.3691,18.0444,9.00898
4.103,6654.44,-3899.85,6884.0,6.5723,411.729,28.5779,3906.65,3728.52,8205.31,2.91125,5.78084,-1.737,1672.26,8611.68,881.594,26.0103,-33.1779,298.93,-2281.83,-9760.64,-762.663,-7.12064,1.49122,49.2244,-4760.64,6880.95,-1139.39,8.39082,-5.34094,109.168,-569.997,-9228.88,-1440.16,-10.2401,-14.0841,63.3118,8979.13,-969.348,276.106,13.4636,17.9099,9.1136
4.1035,6685.17,-3877.44,6904.45,6.88594,411.24,29.4755,3896.96,3749.58,8204.79,2.82897,5.75331,-1.55928,1677.15,8635.86,901.691,25.9164,-32.9942,299.422,-2262.23,-9755.91,-780.545,-7.11487,1.50841,49.2107,-4775.17,6860.26,-1169.05,8.51606,-5.33835,108.683,-571.707,-9246.75,-1420.47,-10.0387,-14.9476,63.2238,8967.57,-948.613,255.921,13.5581,17.7754,9.21822
4.104,6715.89,-3855.03,6924.91,7.19959,410.75,30.3731,3887.27,3770.64,8204.27,2.74669,5.72579,-1.38155,1682.04,8660.03,921.787,25.8225,-32.8104,299.913,-2242.63,-9751.18,-798.428,-7.1091,1.5256,49.1969,-4789.7,6839.57,-1198.72,8.64129,-5.33575,108.199,-573.418,-9264.63,-1400.78,-9.83724,-15.811,63.1357,8956.0,-927.879,235.736,13.6525,17.6408,9.32284
4.1045,6746.62,-3832.62,6945.36,7.51324,410.261,31.2707,3877.58,3791.7,8203.75,2.66441,5.69826,-1.20383,1686.94,8684.2,941.883,25.7287,-32.6267,300.405,-2223.04,-9746.45,-816.31,-7.10333,1.5428,49.1832,-4804.23,6818.88,-1228.38,8.76653,-5.33316,107.714,-575.129,-9282.5,-1381.1,-9.63583,-16.6745,63.0477,8944.44,-907.144,215.552,13.747,17.5063,9.42745
4.105,6777.35,-3810.2,6965.82,7.82688,409.772,32.1683,3867.89,3812.76,8203.24,2.58213,5.67074,-1.02611,1691.83,8708.37,961.98,25.6348,-32.4429,300.897,-2203.44,-9741.72,-834.192,-7.09756,1.55999,49.1694,-4818.76,6798.2,-1258.04,8.89176,-5.33056,107.229,-576.839,-9300.38,-1361.41,-9.43441,-17.538,62.9596,8932.88,-886.41,195.367,13.8414,17.3718,9.53207
4.1055,6808.08,-3787.79,6986.27,8.14053,409.283,33.0658,3858.21,3833.82,8202.72,2.49985,5.64321,-0.84839,1696.73,8732.54,982.076,25.541,-32.2592,301.389,-2183.84,-9736.99,-852.075,-7.09178,1.57718,49.1557,-4833.3,6777.51,-1287.71,9.017,-5.32797,106.744,-578.55,-9318.26,-1341.72,-9.23299,-18.4015,62.8716,8921.32,-865.675,175.183,13.9359,17.2372,9.63669
4.106,6838.8,-3765.38,7006.73,8.45418,408.793,33.9634,3848.52,3854.88,8202.2,2.41757,5.61568,-0.670668,1701.62,8756.71,1002.17,25.4471,-32.0755,301.881,-2164.25,-9732.26,-869.957,-7.08601,1.59437,49.1419,-4847.83,6756.82,-1317.37,9.14224,-5.32537,106.259,-580.26,-9336.14,-1322.03,-9.03157,-19.2649,62.7835,8909.76,-844.94,154.998,14.0303,17.1027,9.74131
4.1065,6869.53,-3742.97,7027.18,8.76782,408.304,34.861,3838.83,3875.94,8201.68,2.3353,5.58815,-0.492946,1706.52,8780.88,1022.27,25.3533,-31.8917,302.373,-2144.65,-9727.53,-887.84,-7.08024,1.61156,49.1282,-4862.36,6736.13,-1347.03,9.26747,-5.32277,105.775,-581.971,-9354.01,-1302.35,-8.83015,-20.1284,62.6954,8898.19,-824.206,134.814,14.1248,16.9682,9.84593
4.107,6906.73,-3696.21,7037.52,9.16432,407.939,35.9658,3821.11,3887.48,8194.85,2.28017,5.54528,-0.350075,1692.21,8819.38,1046.45,25.3359,-31.7357,302.764,-2120.42,-9728.21,-912.36,-7.05835,1.68352,49.2047,-4888.92,6718.87,-1391.0,9.46285,-4.92523,105.341,-579.992,-9360.01,-1285.74,-8.70347,-20.967,62.5981,8896.86,-802.092,132.523,14.1263,16.7919,9.94187
4.1075,6947.17,-3637.29,7042.79,9.60223,407.637,37.1742,3799.38,3894.24,8184.87,2.23862,5.49472,-0.224627,1668.31,8865.05,1072.69,25.3567,-31.5936,303.104,-2093.88,-9731.59,-940.199,-7.0284,1.78286,49.3264,-4921.5,6703.33,-1442.12,9.6933,-4.33021,104.934,-576.167,-9360.08,-1270.66,-8.61415,-21.7931,62.496,8900.64,-779.287,139.179,14.0814,16.5948,10.0335
4.108,6987.61,-3578.36,7048.07,10.0401,407.335,38.3826,3777.65,3901.01,8174.89,2.19708,5.44416,-0.0991804,1644.42,8910.73,1098.92,25.3775,-31.4516,303.445,-2067.34,-9734.98,-968.039,-6.99844,1.88219,49.4481,-4954.07,6687.79,-1493.24,9.92375,-3.73519,104.526,-572.342,-9360.14,-1255.59,-8.52484,-22.6193,62.394,8904.43,-756.483,145.835,14.0364,16.3976,10.1251
4.1085,7028.05,-3519.43,7053.34,10.4781,407.033,39.5909,3755.92,3907.78,8164.91,2.15553,5.39361,0.0262666,1620.52,8956.4,1125.15,25.3983,-31.3095,303.786,-2040.79,-9738.36,-995.878,-6.96849,1.98153,49.5698,-4986.64,6672.24,-1544.36,10.1542,-3.14017,104.119,-568.517,-9360.21,-1240.52,-8.43552,-23.4454,62.292,8908.21,-733.679,152.491,13.9915,16.2005,10.2167
4.109,7068.48,-3460.5,7058.62,10.916,406.732,40.7993,3734.19,3914.55,8154.93,2.11398,5.34305,0.151714,1596.62,9002.07,1151.38,25.4191,-31.1674,304.126,-2014.25,-9741.75,-1023.72,-6.93854,2.08087,49.6915,-5019.22,6656.7,-1595.48,10.3846,-2.54515,103.711,-564.693,-9360.27,-1225.45,-8.3462,-24.2715,62.1899,8911.99,-710.875,159.147,13.9466,16.0033,10.3083
4.1095,7108.92,-3401.57,7063.89,11.3539,406.43,42.0077,3712.46,3921.32,8144.95,2.07244,5.2925,0.277161,1572.72,9047.74,1177.61,25.4398,-31.0253,304.467,-1987.71,-9745.13,-1051.56,-6.90858,2.18021,49.8132,-5051.79,6641.15,-1646.6,10.6151,-1.95013,103.304,-560.868,-9360.33,-1210.37,-8.25689,-25.0977,62.0879,8915.77,-688.07,165.803,13.9016,15.8062,10.3999
4.11,7149.36,-3342.64,7069.17,11.7918,406.128,43.2161,3690.73,3928.09,8134.97,2.03089,5.24194,0.402608,1548.82,9093.41,1203.84,25.4606,-30.8832,304.807,-1961.17,-9748.51,-1079.4,-6.87863,2.27955,49.9349,-5084.37,6625.61,-1697.73,10.8455,-1.35511,102.896,-557.043,-9360.4,-1195.3,-8.16757,-25.9238,61.9859,8919.56,-665.266,172.459,13.8567,15.609,10.4916
4.1105,7189.8,-3283.71,7074.44,12.2297,405.826,44.4244,3669.0,3934.85,8124.98,1.98934,5.19139,0.528055,1524.92,9139.09,1230.07,25.4814,-30.7411,305.148,-1934.63,-9751.9,-1107.24,-6.84867,2.37889,50.0566,-5116.94,6610.06,-1748.85,11.076,-0.760091,102.489,-553.218,-9360.46,-1180.23,-8.07825,-26.75,61.8839,8923.34,-642.462,179.115,13.8117,15.4119,10.5832
4.111,7230.23,-3224.79,7079.72,12.6676,405.524,45.6328,3647.27,3941.62,8115.0,1.9478,5.14083,0.653502,1501.02,9184.76,1256.3,25.5022,-30.5991,305.488,-1908.08,-9755.28,-1135.07,-6.81872,2.47822,50.1783,-5149.52,6594.52,-1799.97,11.3064,-0.165071,102.082,-549.394,-9360.53,-1165.15,-7.98893,-27.5761,61.7818,8927.12,-619.657,185.771,13.7668,15.2147,10.6748
4.1115,7282.19,-3185.53,7080.12,13.2105,405.309,46.9822,3647.9,3931.15,8125.77,1.86814,5.11858,0.762827,1470.51,9233.98,1266.6,25.6577,-30.3666,305.856,-1894.64,-9753.64,-1151.04,-6.69463,2.59126,50.2913,-5185.06,6573.99,-1850.0,11.5621,0.899396,101.841,-535.002,-9363.57,-1155.29,-7.96055,-28.4011,61.7466,8931.77,-608.003,168.816,13.7901,14.9889,10.801
4.112,7337.44,-3151.9,7079.13,13.7834,405.119,48.3718,3654.91,3915.74,8142.48,1.77759,5.10441,0.867546,1438.12,9284.21,1272.35,25.8517,-30.1083,306.232,-1884.93,-9750.57,-1163.62,-6.54364,2.70822,50.4019,-5221.45,6552.04,-1899.71,11.825,2.09799,101.648,-517.592,-9367.47,-1146.91,-7.94959,-29.2258,61.7305,8936.68,-599.533,145.114,13.8329,14.7548,10.9372
4.1125,7392.69,-3118.27,7078.14,14.3562,404.929,49.7615,3661.92,3900.33,8159.18,1.68704,5.09024,0.972264,1405.72,9334.45,1278.09,26.0456,-29.85,306.608,-1875.22,-9747.49,-1176.19,-6.39265,2.82517,50.5124,-5257.84,6530.08,-1949.43,12.0878,3.29659,101.456,-500.181,-9371.37,-1138.54,-7.93862,-30.0505,61.7144,8941.58,-591.064,121.413,13.8758,14.5207,11.0733
4.113,7447.94,-3084.64,7077.15,14.9291,404.74,51.1511,3668.93,3884.93,8175.88,1.59649,5.07607,1.07698,1373.33,9384.68,1283.84,26.2395,-29.5917,306.984,-1865.52,-9744.41,-1188.76,-6.24166,2.94213,50.6229,-5294.23,6508.13,-1999.15,12.3507,4.49518,101.263,-482.77,-9375.27,-1130.16,-7.92765,-30.8752,61.6984,8946.48,-582.595,97.7119,13.9186,14.2867,11.2094
4.1135,7503.19,-3051.0,7076.15,15.5019,404.55,52.5407,3675.95,3869.52,8192.58,1.50594,5.0619,1.1817,1340.94,9434.92,1289.58,26.4335,-29.3334,307.36,-1855.81,-9741.33,-1201.34,-6.09067,3.05908,50.7335,-5330.62,6486.18,-2048.86,12.6135,5.69378,101.07,-465.36,-9379.17,-1121.78,-7.91668,-31.6998,61.6823,8951.38,-574.125,74.0106,13.9614,14.0526,11.3455
4.114,7558.44,-3017.37,7075.16,16.0748,404.36,53.9304,3682.96,3854.11,8209.28,1.41539,5.04773,1.28642,1308.54,9485.15,1295.33,26.6274,-29.0751,307.735,-1846.1,-9738.25,-1213.91,-5.93968,3.17604,50.844,-5367.01,6464.23,-2098.58,12.8764,6.89238,100.878,-447.949,-9383.07,-1113.4,-7.90571,-32.5245,61.6662,8956.28,-565.656,50.3093,14.0043,13.8185,11.4817
4.1145,7613.69,-2983.74,7074.17,16.6476,404.171,55.32,3689.97,3838.71,8225.98,1.32485,5.03356,1.39114,1276.15,9535.39,1301.07,26.8213,-28.8168,308.111,-1836.4,-9735.18,-1226.49,-5.78869,3.29299,50.9546,-5403.39,6442.27,-2148.3,13.1393,8.09097,100.685,-430.539,-9386.97,-1105.03,-7.89474,-33.3492,61.6501,8961.19,-557.187,26.6081,14.0471,13.5844,11.6178
4.115,7668.94,-2950.11,7073.18,17.2205,403.981,56.7097,3696.98,3823.3,8242.68,1.2343,5.01939,1.49586,1243.75,9585.63,1306.82,27.0153,-28.5585,308.487,-1826.69,-9732.1,-1239.06,-5.6377,3.40995,51.0651,-5439.78,6420.32,-2198.02,13.4021,9.28957,100.492,-413.128,-9390.87,-1096.65,-7.88377,-34.1739,61.634,8966.09,-548.717,2.90679,14.0899,13.3504,11.7539
4.1155,7724.19,-2916.48,7072.19,17.7933,403.791,58.0993,3704.0,3807.89,8259.38,1.14375,5.00521,1.60058,1211.36,9635.86,1312.57,27.2092,-28.3002,308.863,-1816.98,-9729.02,-1251.63,-5.48671,3.5269,51.1757,-5476.17,6398.37,-2247.73,13.665,10.4882,100.3,-395.718,-9394.77,-1088.27,-7.8728,-34.9985,61.6179,8970.99,-540.248,-20.7945,14.1327,13.1163,11.8901
4.116,7777.24,-2938.87,7082.95,18.4199,403.411,59.4047,3714.21,3778.83,8263.59,1.0837,4.89783,1.7151,1198.96,9680.0,1295.86,27.649,-27.926,309.305,-1827.97,-9744.57,-1235.11,-5.35272,3.69611,51.2288,-5506.21,6364.7,-2282.07,13.9282,11.991,100.226,-363.513,-9396.22,-1085.19,-8.0391,-35.7193,61.5119,8976.82,-546.409,-29.5266,14.1925,12.9807,12.0109
4.1165,7830.02,-2968.27,7095.17,19.0533,403.008,60.6996,3724.82,3748.06,8266.23,1.02747,4.77879,1.83085,1189.07,9723.38,1276.35,28.1195,-27.5373,309.756,-1841.54,-9762.45,-1214.94,-5.22084,3.87186,51.2748,-5535.45,6329.57,-2314.48,14.1914,13.5319,100.167,-329.459,-9397.35,-1082.78,-8.22756,-36.4271,61.3947,8982.76,-554.4,-36.3876,14.2543,12.8575,12.1298
4.117,7882.79,-2997.67,7107.4,19.6866,402.604,61.9945,3735.43,3717.3,8268.87,0.971237,4.65975,1.94661,1179.18,9766.76,1256.84,28.59,-27.1487,310.206,-1855.11,-9780.33,-1194.78,-5.08897,4.0476,51.3208,-5564.7,6294.44,-2346.9,14.4546,15.0728,100.109,-295.406,-9398.49,-1080.36,-8.41601,-37.135,61.2775,8988.71,-562.39,-43.2486,14.3162,12.7343,12.2487
4.1175,7935.57,-3027.07,7119.62,20.32,402.201,63.2893,3746.04,3686.53,8271.51,0.915004,4.54072,2.06236,1169.28,9810.13,1237.33,29.0606,-26.76,310.657,-1868.69,-9798.2,-1174.62,-4.95709,4.22335,51.3667,-5593.94,6259.31,-2379.31,14.7178,16.6137,100.05,-261.352,-9399.63,-1077.94,-8.60447,-37.8428,61.1604,8994.65,-570.38,-50.1096,14.378,12.6111,12.3677
4.118,7988.34,-3056.48,7131.84,20.9534,401.797,64.5842,3756.65,3655.76,8274.15,0.858772,4.42168,2.17811,1159.39,9853.51,1217.82,29.5311,-26.3714,311.108,-1882.26,-9816.08,-1154.45,-4.82522,4.3991,51.4127,-5623.19,6224.18,-2411.73,14.981,18.1546,99.9913,-227.298,-9400.76,-1075.53,-8.79293,-38.5506,61.0432,9000.59,-578.37,-56.9706,14.4399,12.4878,12.4866
4.1185,8041.12,-3085.88,7144.07,21.5867,401.394,65.8791,3767.26,3624.99,8276.79,0.802539,4.30264,2.29386,1149.5,9896.89,1198.32,30.0016,-25.9827,311.558,-1895.83,-9833.96,-1134.29,-4.69334,4.57484,51.4587,-5652.43,6189.05,-2444.14,15.2442,19.6955,99.9326,-193.244,-9401.9,-1073.11,-8.98139,-39.2584,60.926,9006.53,-586.361,-63.8316,14.5017,12.3646,12.6055
4.119,8093.89,-3115.28,7156.29,22.2201,400.99,67.174,3777.86,3594.22,8279.43,0.746306,4.1836,2.40961,1139.6,9940.27,1178.81,30.4721,-25.594,312.009,-1909.4,-9851.83,-1114.12,-4.56147,4.75059,51.5047,-5681.67,6153.92,-2476.56,15.5074,21.2364,99.8739,-159.191,-9403.03,-1070.69,-9.16984,-39.9662,60.8088,9012.48,-594.351,-70.6926,14.5636,12.2414,12.7244
4.1195,8146.67,-3144.68,7168.52,22.8534,400.587,68.4688,3788.47,3563.46,8282.07,0.690073,4.06457,2.52536,1129.71,9983.65,1159.3,30.9426,-25.2054,312.46,-1922.97,-9869.71,-1093.96,-4.42959,4.92633,51.5506,-5710.92,6118.79,-2508.97,15.7706,22.7773,99.8152,-125.137,-9404.17,-1068.28,-9.3583,-40.674,60.6916,9018.42,-602.341,-77.5536,14.6254,12.1181,12.8434
4.12,8199.44,-3174.08,7180.74,23.4868,400.183,69.7637,3799.08,3532.69,8284.71,0.63384,3.94553,2.64112,1119.82,10027.0,1139.79,31.4132,-24.8167,312.91,-1936.54,-9887.59,-1073.8,-4.29772,5.10208,51.5966,-5740.16,6083.67,-2541.38,16.0338,24.3182,99.7565,-91.0831,-9405.31,-1065.86,-9.54676,-41.3818,60.5744,9024.36,-610.331,-84.4146,14.6873,11.9949,12.9623
4.1205,8219.57,-3257.27,7181.1,24.1902,399.575,70.7027,3785.67,3529.03,8294.29,0.629336,3.84962,2.66346,1137.68,10085.4,1107.67,31.9309,-24.183,313.4,-1949.99,-9889.62,-1045.56,-4.20154,5.28542,51.6574,-5755.06,6063.28,-2557.24,16.2506,25.8499,99.6703,-72.8193,-9418.93,-1074.79,-9.68007,-41.8382,60.5118,9026.14,-593.247,-80.4024,14.6558,11.9239,13.0065
4.121,8239.69,-3340.47,7181.46,24.8936,398.967,71.6416,3772.25,3525.37,8303.86,0.624831,3.7537,2.6858,1155.55,10143.8,1075.55,32.4486,-23.5492,313.889,-1963.44,-9891.66,-1017.33,-4.10536,5.46877,51.7181,-5769.95,6042.9,-2573.09,16.4673,27.3816,99.5842,-54.5555,-9432.56,-1083.73,-9.81338,-42.2946,60.4491,9027.92,-576.163,-76.3902,14.6244,11.8528,13.0507
4.1215,8259.82,-3423.66,7181.82,25.597,398.359,72.5806,3758.83,3521.71,8313.44,0.620326,3.65779,2.70815,1173.42,10202.2,1043.43,32.9663,-22.9155,314.379,-1976.88,-9893.69,-989.101,-4.00918,5.65211,51.7789,-5784.85,6022.51,-2588.95,16.6841,28.9133,99.4981,-36.2917,-9446.19,-1092.66,-9.94669,-42.7509,60.3864,9029.7,-559.079,-72.378,14.5929,11.7818,13.0948
4.122,8279.94,-3506.86,7182.18,26.3004,397.751,73.5195,3745.41,3518.05,8323.01,0.615822,3.56188,2.73049,1191.29,10260.6,1011.31,33.484,-22.2817,314.868,-1990.33,-9895.73,-960.87,-3.91301,5.83545,51.8397,-5799.74,6002.13,-2604.8,16.9009,30.4451,99.412,-18.0279,-9459.81,-1101.6,-10.08,-43.2073,60.3238,9031.48,-541.995,-68.3658,14.5614,11.7108,13.139
4.1225,8300.07,-3590.05,7182.54,27.0038,397.144,74.4585,3731.99,3514.4,8332.59,0.611317,3.46597,2.75283,1209.15,10319.0,979.187,34.0017,-21.6479,315.358,-2003.77,-9897.76,-932.638,-3.81683,6.0188,51.9004,-5814.64,5981.75,-2620.66,17.1176,31.9768,99.3258,0.235872,-9473.44,-1110.53,-10.2133,-43.6636,60.2611,9033.26,-524.911,-64.3536,14.53,11.6398,13.1832
4.123,8320.19,-3673.24,7182.89,27.7072,396.536,75.3974,3718.57,3510.74,8342.16,0.606812,3.37005,2.77518,1227.02,10377.3,947.067,34.5194,-21.0142,315.847,-2017.22,-9899.79,-904.406,-3.72065,6.20214,51.9612,-5829.53,5961.36,-2636.51,17.3344,33.5085,99.2397,18.4997,-9487.07,-1119.46,-10.3466,-44.12,60.1984,9035.04,-507.827,-60.3415,14.4985,11.5687,13.2274
4.1235,8340.32,-3756.44,7183.25,28.4107,395.928,76.3364,3705.15,3507.08,8351.74,0.602308,3.27414,2.79752,1244.89,10435.7,914.947,35.0371,-20.3804,316.337,-2030.67,-9901.83,-876.174,-3.62447,6.38548,52.022,-5844.42,5940.98,-2652.37,17.5511,35.0402,99.1536,36.7635,-9500.69,-1128.4,-10.4799,-44.5763,60.1357,9036.82,-490.743,-56.3293,14.4671,11.4977,13.2716
4.124,8360.44,-3839.63,7183.61,29.1141,395.32,77.2754,3691.73,3503.42,8361.31,0.597803,3.17823,2.81986,1262.75,10494.1,882.827,35.5548,-19.7467,316.826,-2044.11,-9903.86,-847.943,-3.52829,6.56883,52.0827,-5859.32,5920.6,-2668.22,17.7679,36.572,99.0675,55.0273,-9514.32,-1137.33,-10.6132,-45.0327,60.0731,9038.6,-473.659,-52.3171,14.4356,11.4267,13.3158
4.1245,8377.72,-3925.03,7184.64,29.8154,394.674,78.1938,3680.95,3500.06,8370.75,0.595697,3.07399,2.83988,1283.29,10554.6,850.429,36.0617,-19.0733,317.315,-2057.07,-9905.98,-821.41,-3.4346,6.73753,52.1326,-5873.12,5900.68,-2681.31,17.9922,38.0565,98.9865,72.5695,-9526.84,-1146.73,-10.7413,-45.4695,60.018,9042.37,-459.198,-47.3791,14.4188,11.3445,13.3529
4.125,8372.28,-4028.09,7191.03,30.5002,393.73,78.9483,3691.25,3499.04,8379.08,0.61278,2.90316,2.84127,1325.18,10631.6,815.809,36.482,-18.0832,317.798,-2066.11,-9908.82,-808.475,-3.36076,6.7891,52.095,-5878.2,5884.43,-2672.27,18.2773,39.1641,98.9464,84.3393,-9530.55,-1159.81,-10.8277,-45.7496,60.0241,9062.11,-465.718,-35.0343,14.5199,11.1733,13.3335
4.1255,8366.83,-4131.15,7197.42,31.185,392.785,79.7028,3701.54,3498.02,8387.41,0.629863,2.73233,2.84265,1367.06,10708.7,781.188,36.9022,-17.093,318.282,-2075.15,-9911.66,-795.539,-3.28693,6.84067,52.0574,-5883.29,5868.19,-2663.22,18.5624,40.2716,98.9063,96.1091,-9534.26,-1172.89,-10.9141,-46.0298,60.0302,9081.85,-472.238,-22.6895,14.6209,11.0021,13.3141
4.126,8361.39,-4234.21,7203.81,31.8698,391.84,80.4573,3711.84,3497.01,8395.74,0.646947,2.56149,2.84404,1408.95,10785.7,746.568,37.3225,-16.1029,318.766,-2084.2,-9914.5,-782.604,-3.21309,6.89224,52.0198,-5888.37,5851.95,-2654.17,18.8475,41.3792,98.8662,107.879,-9537.97,-1185.97,-11.0005,-46.31,60.0363,9101.59,-478.758,-10.3447,14.7219,10.8309,13.2947
4.1265,8355.94,-4337.27,7210.2,32.5545,390.896,81.2117,3722.14,3495.99,8404.07,0.66403,2.39066,2.84543,1450.84,10862.8,711.947,37.7427,-15.1127,319.249,-2093.24,-9917.34,-769.668,-3.13926,6.94382,51.9822,-5893.45,5835.71,-2645.13,19.1326,42.4867,98.8261,119.649,-9541.68,-1199.05,-11.0869,-46.5902,60.0424,9121.33,-485.279,2.00011,14.8229,10.6597,13.2752
4.127,8350.5,-4440.33,7216.59,33.2393,389.951,81.9662,3732.43,3494.97,8412.4,0.681113,2.21983,2.84682,1492.72,10939.8,677.326,38.163,-14.1226,319.733,-2102.28,-9920.18,-756.732,-3.06542,6.99539,51.9446,-5898.53,5819.47,-2636.08,19.4176,43.5943,98.786,131.419,-9545.38,-1212.13,-11.1733,-46.8703,60.0485,9141.07,-491.799,14.3449,14.9239,10.4885,13.2558
4.1275,8345.05,-4543.39,7222.98,33.9241,389.006,82.7207,3742.73,3493.96,8420.73,0.698196,2.049,2.84821,1534.61,11016.9,642.706,38.5832,-13.1324,320.216,-2111.32,-9923.02,-743.797,-2.99158,7.04696,51.9071,-5903.61,5803.23,-2627.03,19.7027,44.7018,98.746,143.188,-9549.09,-1225.21,-11.2597,-47.1505,60.0545,9160.81,-498.319,26.6897,15.0249,10.3173,13.2364
4.128,8339.61,-4646.45,7229.37,34.6089,388.062,83.4752,3753.03,3492.94,8429.06,0.715279,1.87817,2.8496,1576.5,11093.9,608.086,39.0035,-12.1423,320.7,-2120.36,-9925.86,-730.861,-2.91775,7.09853,51.8695,-5908.69,5786.99,-2617.99,19.9878,45.8094,98.7059,154.958,-9552.8,-1238.29,-11.346,-47.4307,60.0606,9180.54,-504.839,39.0345,15.1259,10.1461,13.217
4.1285,8334.16,-4749.51,7235.76,35.2937,387.117,84.2297,3763.32,3491.92,8437.39,0.732363,1.70733,2.85099,1618.38,11170.9,573.465,39.4237,-11.1521,321.183,-2129.4,-9928.7,-717.926,-2.84391,7.1501,51.8319,-5913.77,5770.75,-2608.94,20.2729,46.9169,98.6658,166.728,-9556.51,-1251.37,-11.4324,-47.7109,60.0667,9200.28,-511.359,51.3793,15.2269,9.97494,13.1975
4.129,8324.1,-4848.06,7248.71,36.0044,386.084,85.0048,3770.87,3488.55,8442.65,0.76397,1.54315,2.8399,1661.0,11250.8,539.306,39.7906,-10.0979,321.656,-2138.98,-9933.98,-704.014,-2.77417,7.19897,51.8154,-5917.15,5756.82,-2596.62,20.5922,47.8777,98.6119,179.376,-9561.35,-1264.36,-11.5084,-47.9602,60.0644,9218.56,-519.799,55.3884,15.3103,9.82305,13.1976
4.1295,8297.89,-4930.8,7284.66,36.8061,384.742,85.8521,3768.82,3476.95,8437.2,0.846413,1.40222,2.78516,1706.17,11340.3,506.763,39.9709,-8.81934,322.092,-2150.43,-9947.82,-686.684,-2.71878,7.23838,51.8726,-5914.58,5750.95,-2572.88,21.0313,48.3248,98.5099,195.097,-9570.17,-1277.05,-11.548,-48.1018,60.0326,9231.71,-534.957,30.2229,15.3321,9.73873,13.266
4.13,8271.68,-5013.54,7320.61,37.6077,383.399,86.6994,3766.76,3465.34,8431.75,0.928855,1.2613,2.73042,1751.34,11429.9,474.22,40.1512,-7.54081,322.529,-2161.88,-9961.66,-669.354,-2.66339,7.2778,51.9297,-5912.01,5745.08,-2549.13,21.4704,48.7719,98.4079,210.818,-9579.0,-1289.73,-11.5875,-48.2435,60.0008,9244.86,-550.115,5.05728,15.3539,9.65441,13.3344
4.1305,8245.47,-5096.27,7356.56,38.4094,382.057,87.5467,3764.7,3453.73,8426.29,1.0113,1.12037,2.67567,1796.51,11519.5,441.677,40.3315,-6.26227,322.965,-2173.34,-9975.5,-652.023,-2.60799,7.31721,51.9869,-5909.44,5739.21,-2525.38,21.9095,49.2189,98.3059,226.539,-9587.82,-1302.41,-11.6271,-48.3851,59.969,9258.02,-565.273,-20.1083,15.3756,9.57009,13.4028
4.131,8219.26,-5179.01,7392.51,39.2111,380.715,88.394,3762.64,3442.13,8420.84,1.09374,0.979443,2.62093,1841.68,11609.0,409.134,40.5118,-4.98373,323.401,-2184.79,-9989.34,-634.693,-2.5526,7.35662,52.0441,-5906.87,5733.34,-2501.63,22.3486,49.666,98.2038,242.261,-9596.64,-1315.09,-11.6666,-48.5267,59.9373,9271.17,-580.431,-45.2739,15.3974,9.48577,13.4712
4.1315,8193.05,-5261.75,7428.46,40.0127,379.373,89.2413,3760.58,3430.52,8415.38,1.17618,0.838517,2.56618,1886.85,11698.6,376.591,40.6921,-3.70519,323.837,-2196.24,-10003.2,-617.363,-2.49721,7.39603,52.1013,-5904.3,5727.47,-2477.88,22.7877,50.1131,98.1018,257.982,-9605.46,-1327.78,-11.7061,-48.6683,59.9055,9284.32,-595.589,-70.4395,15.4192,9.40145,13.5395
4.132,8166.84,-5344.49,7464.4,40.8144,378.03,90.0886,3758.53,3418.92,8409.93,1.25863,0.69759,2.51144,1932.02,11788.1,344.048,40.8724,-2.42666,324.273,-2207.69,-10017.0,-600.033,-2.44181,7.43544,52.1585,-5901.73,5721.6,-2454.14,23.2268,50.5602,97.9998,273.703,-9614.29,-1340.46,-11.7457,-48.8099,59.8737,9297.48,-610.747,-95.605,15.4409,9.31713,13.6079
4.1325,8140.63,-5427.23,7500.35,41.6161,376.688,90.9359,3756.47,3407.31,8404.47,1.34107,0.556664,2.45669,1977.19,11877.7,311.505,41.0527,-1.14812,324.709,-2219.14,-10030.8,-582.703,-2.38642,7.47485,52.2157,-5899.16,5715.73,-2430.39,23.6659,51.0073,97.8977,289.424,-9623.11,-1353.14,-11.7852,-48.9515,59.8419,9310.63,-625.905,-120.771,15.4627,9.23281,13.6763
4.133,8114.42,-5509.97,7536.3,42.4177,375.346,91.7832,3754.41,3395.7,8399.02,1.42351,0.415738,2.40195,2022.36,11967.3,278.962,41.233,0.13042,325.146,-2230.59,-10044.7,-565.373,-2.33103,7.51427,52.2729,-5896.59,5709.86,-2406.64,24.105,51.4544,97.7957,305.145,-9631.93,-1365.82,-11.8248,-49.0931,59.8102,9323.78,-641.063,-145.936,15.4845,9.14849,13.7447
4.1335,8097.84,-5577.42,7586.25,43.1599,373.908,92.7347,3756.8,3381.63,8395.7,1.4923,0.263486,2.34179,2061.77,12054.7,251.267,41.3124,1.45094,325.563,-2242.13,-10050.7,-548.749,-2.28931,7.57873,52.3345,-5887.76,5706.35,-2382.85,24.565,51.7071,97.6472,321.797,-9639.34,-1376.16,-11.8169,-49.2102,59.7865,9342.82,-651.371,-165.221,15.5126,9.10787,13.7902
4.134,8100.52,-5614.29,7664.22,43.7833,372.279,93.8943,3768.1,3362.6,8396.66,1.53378,0.0885826,2.27082,2089.67,12137.8,233.268,41.1902,2.85541,325.944,-2253.82,-10041.0,-533.535,-2.27494,7.69331,52.405,-5866.42,5707.54,-2358.99,25.0666,51.5711,97.4059,340.311,-9643.93,-1381.82,-11.714,-49.2783,59.7791,9373.61,-651.979,-172.744,15.5534,9.15464,13.7898
4.1345,8103.19,-5651.15,7742.18,44.4067,370.65,95.054,3779.4,3343.58,8397.63,1.57526,-0.0863206,2.19985,2117.57,12221.0,215.269,41.068,4.25988,326.324,-2265.52,-10031.2,-518.321,-2.26057,7.80789,52.4755,-5845.08,5708.73,-2335.13,25.5683,51.4351,97.1645,358.825,-9648.51,-1387.48,-11.6111,-49.3464,59.7718,9404.41,-652.587,-180.268,15.5943,9.20141,13.7895
4.135,8105.87,-5688.02,7820.14,45.0301,369.022,96.2137,3790.7,3324.56,8398.59,1.61674,-0.261224,2.12888,2145.47,12304.2,197.27,40.9457,5.66436,326.704,-2277.22,-10021.5,-503.107,-2.24621,7.92247,52.546,-5823.74,5709.92,-2311.27,26.07,51.2991,96.9232,377.339,-9653.1,-1393.14,-11.5082,-49.4145,59.7644,9435.21,-653.195,-187.791,15.6351,9.24819,13.7891
4.1355,8108.55,-5724.88,7898.11,45.6535,367.393,97.3734,3801.99,3305.53,8399.55,1.65822,-0.436127,2.05791,2173.37,12387.3,179.271,40.8235,7.06883,327.085,-2288.91,-10011.8,-487.893,-2.23184,8.03704,52.6164,-5802.4,5711.11,-2287.41,26.5716,51.1631,96.6818,395.853,-9657.68,-1398.8,-11.4053,-49.4826,59.757,9466.01,-653.804,-195.314,15.6759,9.29496,13.7888
4.136,8111.22,-5761.75,7976.07,46.2768,365.764,98.5331,3813.29,3286.51,8400.51,1.69971,-0.61103,1.98694,2201.26,12470.5,161.272,40.7013,8.4733,327.465,-2300.61,-10002.1,-472.679,-2.21748,8.15162,52.6869,-5781.05,5712.3,-2263.54,27.0733,51.0271,96.4405,414.367,-9662.27,-1404.46,-11.3024,-49.5507,59.7496,9496.8,-654.412,-202.838,15.7168,9.34173,13.7885
4.1365,8113.9,-5798.62,8054.04,46.9002,364.135,99.6927,3824.59,3267.48,8401.47,1.74119,-0.785933,1.91597,2229.16,12553.7,143.273,40.579,9.87778,327.846,-2312.3,-9992.36,-457.465,-2.20311,8.2662,52.7574,-5759.71,5713.49,-2239.68,27.575,50.8911,96.1991,432.881,-9666.85,-1410.12,-11.1996,-49.6188,59.7422,9527.6,-655.02,-210.361,15.7576,9.3885,13.7881
4.137,8116.57,-5835.48,8132.0,47.5236,362.506,100.852,3835.89,3248.46,8402.43,1.78267,-0.960836,1.845,2257.06,12636.8,125.274,40.4568,11.2823,328.226,-2324.0,-9982.64,-442.251,-2.18874,8.38078,52.8279,-5738.37,5714.68,-2215.82,28.0767,50.7551,95.9578,451.395,-9671.44,-1415.77,-11.0967,-49.6869,59.7349,9558.4,-655.628,-217.884,15.7984,9.43527,13.7878
4.1375,8119.25,-5872.35,8209.96,48.147,360.878,102.012,3847.19,3229.44,8403.39,1.82415,-1.13574,1.77403,2284.96,12720.0,107.275,40.3346,12.6867,328.606,-2335.7,-9972.92,-427.038,-2.17438,8.49535,52.8983,-5717.03,5715.87,-2191.96,28.5783,50.6191,95.7164,469.909,-9676.03,-1421.43,-10.9938,-49.7549,59.7275,9589.2,-656.237,-225.408,15.8393,9.48204,13.7874
4.138,8141.82,-5880.66,8275.13,48.6743,359.353,103.3,3851.04,3215.93,8408.61,1.86811,-1.29337,1.71084,2300.51,12801.0,96.6137,40.1448,14.0589,328.942,-2341.37,-9965.31,-410.697,-2.15175,8.64095,52.9614,-5691.36,5727.0,-2164.97,29.0642,50.2461,95.3879,488.49,-9682.04,-1421.47,-10.8811,-49.7872,59.7428,9609.91,-659.128,-228.272,15.848,9.45731,13.7716
4.1385,8189.27,-5853.28,8324.31,49.0815,357.959,104.75,3845.58,3209.31,8419.15,1.91518,-1.42941,1.65737,2300.61,12879.3,95.1249,39.8707,15.3908,329.221,-2339.52,-9960.34,-392.949,-2.1188,8.82532,53.0151,-5660.27,5750.54,-2134.06,29.5303,49.5769,94.9505,507.155,-9689.84,-1414.46,-10.7562,-49.7747,59.7864,9618.01,-664.873,-225.314,15.8166,9.34321,13.7365
4.139,8236.72,-5825.91,8373.49,49.4888,356.564,106.199,3840.12,3202.69,8429.69,1.96225,-1.56545,1.6039,2300.71,12957.6,93.636,39.5965,16.7227,329.5,-2337.67,-9955.36,-375.201,-2.08585,9.0097,53.0687,-5629.19,5774.08,-2103.16,29.9964,48.9076,94.5131,525.82,-9697.64,-1407.46,-10.6313,-49.7622,59.83,9626.11,-670.618,-222.356,15.7852,9.2291,13.7013
4.1395,8284.17,-5798.53,8422.67,49.896,355.17,107.648,3834.66,3196.07,8440.22,2.00931,-1.7015,1.55043,2300.81,13035.9,92.1472,39.3224,18.0546,329.779,-2335.82,-9950.39,-357.453,-2.0529,9.19407,53.1224,-5598.11,5797.62,-2072.26,30.4625,48.2384,94.0757,544.485,-9705.43,-1400.46,-10.5064,-49.7497,59.8735,9634.21,-676.362,-219.398,15.7537,9.115,13.6662
4.14,8331.62,-5771.15,8471.85,50.3033,353.776,109.098,3829.2,3189.45,8450.76,2.05638,-1.83754,1.49696,2300.91,13114.2,90.6584,39.0483,19.3864,330.058,-2333.97,-9945.42,-339.705,-2.01995,9.37844,53.1761,-5567.02,5821.16,-2041.35,30.9286,47.5691,93.6383,563.15,-9713.23,-1393.46,-10.3815,-49.7372,59.9171,9642.3,-682.107,-216.439,15.7223,9.00089,13.631
4.1405,8379.07,-5743.78,8521.02,50.7105,352.381,110.547,3823.74,3182.84,8461.3,2.10344,-1.97358,1.44349,2301.02,13192.5,89.1696,38.7741,20.7183,330.337,-2332.12,-9940.45,-321.957,-1.987,9.56281,53.2298,-5535.94,5844.7,-2010.45,31.3947,46.8998,93.2009,581.816,-9721.03,-1386.46,-10.2566,-49.7247,59.9607,9650.4,-687.852,-213.481,15.6909,8.88678,13.5959
4.141,8426.52,-5716.4,8570.2,51.1178,350.987,111.996,3818.28,3176.22,8471.83,2.15051,-2.10962,1.39002,2301.12,13270.8,87.6807,38.5,22.0502,330.616,-2330.27,-9935.48,-304.209,-1.95405,9.74718,53.2835,-5504.85,5868.24,-1979.55,31.8608,46.2306,92.7635,600.481,-9728.83,-1379.46,-10.1316,-49.7122,60.0043,9658.5,-693.597,-210.523,15.6595,8.77268,13.5607
4.1415,8473.97,-5689.02,8619.38,51.525,349.593,113.446,3812.82,3169.6,8482.37,2.19758,-2.24566,1.33655,2301.22,13349.1,86.1919,38.2259,23.3821,330.896,-2328.42,-9930.5,-286.461,-1.92111,9.93156,53.3372,-5473.77,5891.78,-1948.65,32.3269,45.5613,92.3261,619.146,-9736.63,-1372.46,-10.0067,-49.6997,60.0479,9666.6,-699.342,-207.564,15.6281,8.65857,13.5256
4.142,8521.42,-5661.65,8668.56,51.9323,348.198,114.895,3807.37,3162.98,8492.91,2.24464,-2.3817,1.28309,2301.32,13427.4,84.7031,37.9517,24.7139,331.175,-2326.57,-9925.53,-268.713,-1.88816,10.1159,53.3909,-5442.68,5915.32,-1917.74,32.793,44.8921,91.8887,637.811,-9744.42,-1365.46,-9.88183,-49.6872,60.0915,9674.7,-705.086,-204.606,15.5967,8.54447,13.4904
4.1425,8604.15,-5639.29,8713.12,52.3147,346.941,116.4,3805.81,3160.92,8496.42,2.28452,-2.5637,1.20285,2279.01,13495.0,83.1457,37.653,25.9628,331.439,-2330.54,-9927.06,-249.948,-1.91282,10.3043,53.4366,-5408.73,5941.02,-1885.11,33.1674,44.0259,91.3484,648.521,-9758.21,-1366.32,-9.71937,-49.6358,60.1683,9681.03,-704.811,-196.219,15.647,8.52858,13.4432
4.143,8715.12,-5620.96,8753.98,52.6771,345.794,117.95,3807.38,3162.5,8494.31,2.31864,-2.78246,1.10119,2238.76,13554.1,81.5334,37.3347,27.1451,331.692,-2339.18,-9933.8,-230.369,-1.98358,10.4958,53.4757,-5372.48,5968.46,-1851.1,33.4684,43.0022,90.726,652.868,-9776.78,-1373.49,-9.52686,-49.5532,60.2718,9685.93,-699.719,-183.488,15.7628,8.59128,13.3863
4.1435,8826.08,-5602.63,8794.84,53.0395,344.646,119.501,3808.94,3164.08,8492.2,2.35276,-3.00123,0.999539,2198.52,13613.3,79.9211,37.0163,28.3275,331.945,-2347.82,-9940.54,-210.791,-2.05434,10.6873,53.5149,-5336.23,5995.9,-1817.08,33.7694,41.9785,90.1035,657.214,-9795.35,-1380.66,-9.33436,-49.4706,60.3752,9690.83,-694.626,-170.758,15.8785,8.65397,13.3294
4.144,8937.05,-5584.3,8835.71,53.402,343.499,121.051,3810.51,3165.67,8490.09,2.38689,-3.21999,0.897884,2158.28,13672.4,78.3088,36.6979,29.5099,332.198,-2356.45,-9947.28,-191.213,-2.1251,10.8788,53.5541,-5299.98,6023.34,-1783.07,34.0705,40.9548,89.481,661.561,-9813.92,-1387.82,-9.14186,-49.3881,60.4786,9695.73,-689.534,-158.027,15.9942,8.71667,13.2725
4.1445,9048.02,-5565.97,8876.57,53.7644,342.352,122.601,3812.07,3167.25,8487.98,2.42101,-3.43875,0.79623,2118.03,13731.6,76.6965,36.3795,30.6923,332.451,-2365.09,-9954.02,-171.634,-2.19585,11.0703,53.5933,-5263.72,6050.78,-1749.06,34.3715,39.9311,88.8585,665.907,-9832.49,-1394.99,-8.94936,-49.3055,60.582,9700.63,-684.442,-145.297,16.11,8.77936,13.2156
4.145,9158.98,-5547.64,8917.43,54.1268,341.204,124.151,3813.64,3168.83,8485.87,2.45513,-3.65752,0.694576,2077.79,13790.7,75.0842,36.0612,31.8747,332.704,-2373.73,-9960.76,-152.056,-2.26661,11.2618,53.6325,-5227.47,6078.22,-1715.04,34.6725,38.9074,88.236,670.253,-9851.06,-1402.16,-8.75686,-49.2229,60.6854,9705.54,-679.35,-132.566,16.2257,8.84206,13.1588
4.1455,9269.95,-5529.31,8958.29,54.4893,340.057,125.701,3815.2,3170.41,8483.76,2.48925,-3.87628,0.592922,2037.54,13849.8,73.4719,35.7428,33.0571,332.957,-2382.37,-9967.49,-132.478,-2.33737,11.4533,53.6717,-5191.22,6105.66,-1681.03,34.9735,37.8837,87.6135,674.6,-9869.64,-1409.32,-8.56436,-49.1403,60.7888,9710.44,-674.257,-119.835,16.3414,8.90475,13.1019
4.146,9380.92,-5510.98,8999.16,54.8517,338.91,127.252,3816.77,3172.0,8481.65,2.52338,-4.09505,0.491268,1997.3,13909.0,71.8596,35.4244,34.2395,333.21,-2391.0,-9974.23,-112.9,-2.40813,11.6449,53.7109,-5154.97,6133.1,-1647.01,35.2745,36.86,86.9911,678.946,-9888.21,-1416.49,-8.37185,-49.0578,60.8922,9715.34,-669.165,-107.105,16.4572,8.96745,13.045
4.1465,9491.88,-5492.65,9040.02,55.2141,337.762,128.802,3818.33,3173.58,8479.54,2.5575,-4.31381,0.389614,1957.06,13968.1,70.2473,35.106,35.4219,333.462,-2399.64,-9980.97,-93.3212,-2.47888,11.8364,53.7501,-5118.72,6160.54,-1613.0,35.5756,35.8363,86.3686,683.293,-9906.78,-1423.66,-8.17935,-48.9752,60.9956,9720.24,-664.073,-94.3743,16.5729,9.03014,12.9881
4.147,9608.72,-5487.92,9081.99,55.4127,336.866,130.272,3817.21,3154.54,8488.84,2.61961,-4.50989,0.284422,1901.54,14020.9,57.1224,34.8131,36.5358,333.622,-2404.96,-9991.96,-86.3364,-2.56609,12.0205,53.7633,-5074.15,6186.82,-1592.57,35.6681,34.7624,85.5944,678.812,-9922.9,-1424.8,-7.93207,-48.9008,61.1232,9724.32,-666.212,-99.0349,16.6445,9.09651,12.9044
4.1475,9728.49,-5489.98,9124.51,55.5292,336.094,131.703,3814.75,3125.18,8503.85,2.69571,-4.69464,0.177462,1838.38,14070.5,38.2413,34.533,37.6155,333.735,-2408.62,-10005.1,-85.6482,-2.66153,12.201,53.7635,-5025.41,6212.52,-1578.93,35.6565,33.6634,84.7444,669.918,-9937.81,-1422.94,-7.65739,-48.8306,61.2629,9727.99,-671.967,-112.391,16.694,9.16471,12.8072
4.148,9848.27,-5492.04,9167.04,55.6457,335.322,133.133,3812.29,3095.82,8518.85,2.77181,-4.87938,0.0705018,1775.23,14120.1,19.3602,34.2528,38.6953,333.848,-2412.28,-10018.2,-84.9601,-2.75696,12.3815,53.7638,-4976.67,6238.21,-1565.29,35.6449,32.5644,83.8944,661.024,-9952.71,-1421.07,-7.38272,-48.7603,61.4025,9731.66,-677.722,-125.747,16.7435,9.23291,12.71
4.1485,9968.04,-5494.09,9209.56,55.7623,334.551,134.564,3809.82,3066.46,8533.85,2.84791,-5.06413,-0.0364583,1712.07,14169.7,0.479054,33.9727,39.775,333.96,-2415.94,-10031.3,-84.2719,-2.8524,12.562,53.764,-4927.94,6263.91,-1551.65,35.6333,31.4654,83.0445,652.131,-9967.61,-1419.21,-7.10804,-48.6901,61.5422,9735.33,-683.477,-139.103,16.793,9.30111,12.6128
4.149,10087.8,-5496.15,9252.09,55.8788,333.779,135.994,3807.36,3037.11,8548.85,2.92401,-5.24887,-0.143418,1648.91,14219.3,-18.4021,33.6925,40.8547,334.073,-2419.59,-10044.4,-83.5838,-2.94783,12.7425,53.7643,-4879.2,6289.61,-1538.01,35.6217,30.3664,82.1945,643.237,-9982.52,-1417.35,-6.83336,-48.6198,61.6819,9739.0,-689.232,-152.459,16.8425,9.36931,12.5157
4.1495,10207.6,-5498.21,9294.61,55.9954,333.007,137.424,3804.9,3007.75,8563.86,3.00011,-5.43362,-0.250379,1585.76,14268.9,-37.2832,33.4124,41.9344,334.186,-2423.25,-10057.5,-82.8957,-3.04326,12.923,53.7646,-4830.47,6315.3,-1524.38,35.6101,29.2674,81.3445,634.343,-9997.42,-1415.48,-6.55869,-48.5496,61.8215,9742.67,-694.987,-165.816,16.892,9.43752,12.4185
4.15,10327.4,-5500.27,9337.14,56.1119,332.236,138.855,3802.43,2978.39,8578.86,3.07621,-5.61836,-0.357339,1522.6,14318.5,-56.1643,33.1322,43.0141,334.299,-2426.91,-10070.6,-82.2075,-3.1387,13.1035,53.7648,-4781.73,6341.0,-1510.74,35.5985,28.1684,80.4945,625.449,-10012.3,-1413.62,-6.28401,-48.4793,61.9612,9746.34,-700.742,-179.172,16.9415,9.50572,12.3213
4.1505,10447.1,-5502.33,9379.66,56.2285,331.464,140.285,3799.97,2949.04,8593.86,3.15231,-5.80311,-0.464299,1459.44,14368.2,-75.0454,32.8521,44.0939,334.411,-2430.57,-10083.7,-81.5194,-3.23413,13.284,53.7651,-4732.99,6366.7,-1497.1,35.5869,27.0694,79.6445,616.555,-10027.2,-1411.75,-6.00933,-48.4091,62.1008,9750.01,-706.497,-192.528,16.9909,9.57392,12.2241
4.151,10566.9,-5504.39,9422.18,56.345,330.692,141.716,3797.51,2919.68,8608.87,3.22841,-5.98785,-0.571259,1396.29,14417.8,-93.9266,32.5719,45.1736,334.524,-2434.23,-10096.8,-80.8312,-3.32957,13.4645,53.7653,-4684.26,6392.39,-1483.46,35.5753,25.9704,78.7945,607.661,-10042.1,-1409.89,-5.73466,-48.3388,62.2405,9753.68,-712.252,-205.884,17.0404,9.64212,12.127
4.1515,10690.0,-5550.15,9476.12,56.3026,330.126,143.054,3806.43,2919.99,8609.76,3.27727,-6.20892,-0.654667,1328.9,14484.1,-116.067,32.3722,46.2267,334.565,-2432.11,-10100.8,-93.5416,-3.39396,13.5755,53.7764,-4642.32,6426.16,-1470.87,35.3531,24.8855,77.8772,596.782,-10054.3,-1400.47,-5.43395,-48.3428,62.4063,9738.03,-723.275,-214.344,17.1034,9.69496,12.0269
4.152,10814.0,-5608.38,9533.31,56.2147,329.619,144.367,3818.61,2928.77,8606.63,3.31835,-6.44036,-0.731345,1260.3,14555.1,-139.14,32.1955,47.2723,334.585,-2428.34,-10102.1,-110.08,-3.44947,13.6667,53.7905,-4602.34,6462.24,-1458.58,35.0708,23.8047,76.9406,585.337,-10065.6,-1388.88,-5.12581,-48.3679,62.5795,9716.87,-735.803,-221.405,17.1701,9.74342,11.9259
4.1525,10938.1,-5666.62,9590.5,56.1268,329.112,145.679,3830.79,2937.56,8603.5,3.35943,-6.6718,-0.808024,1191.7,14626.2,-162.212,32.0187,48.3178,334.605,-2424.57,-10103.4,-126.618,-3.50499,13.758,53.8047,-4562.35,6498.32,-1446.3,34.7886,22.7239,76.004,573.891,-10077.0,-1377.3,-4.81767,-48.393,62.7528,9695.7,-748.33,-228.467,17.2369,9.79188,11.8249
4.153,11062.1,-5724.86,9647.69,56.0389,328.604,146.991,3842.97,2946.34,8600.37,3.4005,-6.90324,-0.884702,1123.1,14697.2,-185.284,31.842,49.3634,334.625,-2420.8,-10104.7,-143.157,-3.56051,13.8492,53.8188,-4522.36,6534.39,-1434.01,34.5063,21.6431,75.0675,562.445,-10088.4,-1365.72,-4.50953,-48.4182,62.926,9674.54,-760.858,-235.528,17.3036,9.84034,11.724
4.1535,11186.2,-5783.1,9704.88,55.951,328.097,148.304,3855.15,2955.13,8597.24,3.44158,-7.13468,-0.961381,1054.49,14768.3,-208.356,31.6652,50.4089,334.645,-2417.03,-10106.1,-159.695,-3.61602,13.9404,53.833,-4482.37,6570.47,-1421.72,34.224,20.5623,74.1309,551.0,-10099.7,-1354.13,-4.20139,-48.4433,63.0992,9653.37,-773.385,-242.589,17.3704,9.88879,11.623
4.154,11310.2,-5841.33,9762.07,55.8631,327.589,149.616,3867.32,2963.91,8594.11,3.48266,-7.36612,-1.03806,985.894,14839.3,-231.428,31.4885,51.4544,334.664,-2413.25,-10107.4,-176.234,-3.67154,14.0316,53.8472,-4442.38,6606.55,-1409.43,33.9417,19.4815,73.1943,539.554,-10111.1,-1342.55,-3.89324,-48.4684,63.2725,9632.21,-785.913,-249.651,17.4372,9.93725,11.5221
4.1545,11434.2,-5899.57,9819.27,55.7752,327.082,150.928,3879.5,2972.7,8590.98,3.52374,-7.59756,-1.11474,917.293,14910.4,-254.5,31.3117,52.5,334.684,-2409.48,-10108.7,-192.772,-3.72706,14.1228,53.8613,-4402.39,6642.63,-1397.14,33.6594,18.4007,72.2578,528.109,-10122.4,-1330.97,-3.5851,-48.4936,63.4457,9611.04,-798.441,-256.712,17.5039,9.98571,11.4211
4.155,11558.3,-5957.81,9876.46,55.6873,326.575,152.241,3891.68,2981.48,8587.85,3.56482,-7.829,-1.19142,848.692,14981.4,-277.572,31.135,53.5455,334.704,-2405.71,-10110.1,-209.311,-3.78257,14.2141,53.8755,-4362.4,6678.7,-1384.85,33.3772,17.3199,71.3212,516.663,-10133.8,-1319.38,-3.27696,-48.5187,63.619,9589.88,-810.968,-263.773,17.5707,10.0342,11.3202
4.1555,11682.3,-6016.05,9933.65,55.5994,326.067,153.553,3903.86,2990.27,8584.72,3.6059,-8.06044,-1.2681,780.091,15052.5,-300.645,30.9583,54.5911,334.724,-2401.94,-10111.4,-225.849,-3.83809,14.3053,53.8896,-4322.41,6714.78,-1372.57,33.0949,16.2391,70.3846,505.218,-10145.2,-1307.8,-2.96882,-48.5438,63.7922,9568.71,-823.496,-270.835,17.6375,10.0826,11.2192
4.156,11794.0,-6078.39,9966.85,55.7296,325.776,154.767,3907.53,3006.35,8588.33,3.63997,-8.29308,-1.29907,711.007,15132.7,-320.537,30.935,55.4773,334.763,-2421.33,-10104.6,-236.607,-3.85956,14.3143,53.9364,-4285.05,6741.13,-1377.4,32.648,15.4522,69.4776,518.198,-10137.1,-1289.07,-2.71111,-48.664,63.9572,9580.85,-836.245,-269.738,17.6646,10.2276,11.066
4.1565,11904.1,-6141.25,9997.05,55.8872,325.512,155.97,3910.14,3023.34,8592.79,3.67316,-8.52587,-1.32434,641.863,15214.0,-340.031,30.9309,56.3436,334.804,-2443.61,-10096.7,-246.643,-3.87677,14.313,53.9873,-4248.02,6766.27,-1384.38,32.1806,14.702,68.5743,534.233,-10126.6,-1269.45,-2.45971,-48.796,64.1211,9597.15,-849.023,-267.621,17.6868,10.3846,10.9062
4.157,12014.2,-6204.1,10027.3,56.0447,325.248,157.172,3912.75,3040.33,8597.24,3.70636,-8.75866,-1.3496,572.719,15295.4,-359.525,30.9269,57.2099,334.845,-2465.9,-10088.9,-256.678,-3.89399,14.3118,54.0381,-4210.99,6791.4,-1391.36,31.7132,13.9518,67.671,550.267,-10116.2,-1249.82,-2.20831,-48.928,64.285,9613.45,-861.8,-265.504,17.709,10.5417,10.7464
4.1575,12124.3,-6266.95,10057.5,56.2022,324.984,158.375,3915.36,3057.32,8601.7,3.73956,-8.99145,-1.37487,503.574,15376.7,-379.02,30.9228,58.0763,334.886,-2488.18,-10081.0,-266.714,-3.9112,14.3105,54.089,-4173.95,6816.54,-1398.34,31.2458,13.2016,66.7677,566.301,-10105.7,-1230.2,-1.95691,-49.06,64.4489,9629.74,-874.577,-263.387,17.7312,10.6987,10.5867
4.158,12234.4,-6329.81,10087.7,56.3597,324.72,159.577,3917.96,3074.31,8606.15,3.77275,-9.22424,-1.40013,434.43,15458.1,-398.514,30.9187,58.9426,334.927,-2510.46,-10073.2,-276.75,-3.92841,14.3092,54.1399,-4136.92,6841.67,-1405.32,30.7783,12.4514,65.8644,582.335,-10095.2,-1210.57,-1.70551,-49.1919,64.6128,9646.04,-887.355,-261.27,17.7533,10.8557,10.4269
4.1585,12344.6,-6392.66,10117.9,56.5173,324.456,160.779,3920.57,3091.3,8610.61,3.80595,-9.45703,-1.4254,365.286,15539.4,-418.009,30.9146,59.8089,334.968,-2532.75,-10065.3,-286.785,-3.94562,14.308,54.1907,-4099.89,6866.8,-1412.3,30.3109,11.7012,64.9611,598.369,-10084.8,-1190.95,-1.4541,-49.3239,64.7767,9662.34,-900.132,-259.153,17.7755,11.0128,10.2671
4.159,12454.7,-6455.52,10148.1,56.6748,324.192,161.982,3923.18,3108.29,8615.06,3.83914,-9.68981,-1.45066,296.141,15620.8,-437.503,30.9106,60.6752,335.009,-2555.03,-10057.5,-296.821,-3.96284,14.3067,54.2416,-4062.85,6891.94,-1419.28,29.8435,10.951,64.0578,614.403,-10074.3,-1171.33,-1.2027,-49.4559,64.9406,9678.64,-912.909,-257.036,17.7977,11.1698,10.1074
4.1595,12564.8,-6518.37,10178.3,56.8323,323.927,163.184,3925.79,3125.28,8619.52,3.87234,-9.9226,-1.47593,226.997,15702.1,-456.997,30.9065,61.5415,335.05,-2577.32,-10049.6,-306.856,-3.98005,14.3054,54.2925,-4025.82,6917.07,-1426.26,29.3761,10.2008,63.1545,630.437,-10063.8,-1151.7,-0.9513,-49.5879,65.1045,9694.93,-925.687,-254.919,17.8199,11.3268,9.94761
4.16,12674.9,-6581.23,10208.5,56.9898,323.663,164.386,3928.4,3142.27,8623.97,3.90553,-10.1554,-1.50119,157.853,15783.5,-476.492,30.9024,62.4079,335.091,-2599.6,-10041.8,-316.892,-3.99726,14.3042,54.3433,-3988.79,6942.21,-1433.24,28.9086,9.45061,62.2512,646.471,-10053.3,-1132.08,-0.699898,-49.7199,65.2684,9711.23,-938.464,-252.803,17.8421,11.4839,9.78785
4.1605,12751.7,-6626.48,10206.3,57.4376,323.632,165.664,3900.27,3152.35,8629.94,3.97905,-10.3783,-1.47614,90.8735,15853.6,-508.662,31.008,63.0196,335.208,-2613.63,-10043.8,-314.838,-4.06332,14.3022,54.3964,-3952.84,6954.4,-1435.53,28.4324,8.92742,61.3061,646.794,-10061.9,-1105.96,-0.537062,-49.8784,65.4958,9703.02,-952.43,-259.089,17.8944,11.4994,9.7206
4.161,12828.6,-6671.73,10204.1,57.8854,323.6,166.942,3872.15,3162.44,8635.92,4.05258,-10.6013,-1.45109,23.8943,15923.8,-540.833,31.1135,63.6313,335.324,-2627.66,-10045.8,-312.784,-4.12938,14.3001,54.4496,-3916.89,6966.59,-1437.83,27.9561,8.40424,60.361,647.117,-10070.4,-1079.83,-0.374225,-50.0368,65.7232,9694.81,-966.396,-265.375,17.9466,11.5149,9.65335
4.1615,12905.4,-6716.98,10202.0,58.3331,323.569,168.22,3844.03,3172.53,8641.88,4.1261,-10.8242,-1.42604,-43.0849,15993.9,-573.003,31.2191,64.243,335.44,-2641.68,-10047.9,-310.73,-4.19544,14.2981,54.5027,-3880.95,6978.78,-1440.12,27.4798,7.88105,59.4159,647.44,-10078.9,-1053.71,-0.211389,-50.1952,65.9507,9686.61,-980.361,-271.661,17.9989,11.5304,9.58611
4.162,12982.2,-6762.24,10199.8,58.7809,323.537,169.497,3815.9,3182.62,8647.85,4.19962,-11.0472,-1.40099,-110.064,16064.0,-605.173,31.3246,64.8547,335.556,-2655.71,-10049.9,-308.676,-4.2615,14.2961,54.5558,-3845.0,6990.97,-1442.42,27.0035,7.35786,58.4708,647.762,-10087.5,-1027.59,-0.0485526,-50.3537,66.1781,9678.4,-994.327,-277.947,18.0511,11.5459,9.51886
4.1625,13059.1,-6807.49,10197.6,59.2287,323.505,170.775,3787.78,3192.71,8653.83,4.27315,-11.2701,-1.37594,-177.043,16134.2,-637.344,31.4302,65.4664,335.673,-2669.74,-10051.9,-306.622,-4.32757,14.2941,54.6089,-3809.05,7003.16,-1444.71,26.5272,6.83467,57.5257,648.085,-10096.0,-1001.46,0.114284,-50.5121,66.4055,9670.19,-1008.29,-284.233,18.1034,11.5615,9.45161
4.163,13135.9,-6852.74,10195.4,59.6765,323.474,172.053,3759.65,3202.8,8659.8,4.34667,-11.4931,-1.35088,-244.023,16204.3,-669.514,31.5357,66.0781,335.789,-2683.77,-10054.0,-304.568,-4.39363,14.2921,54.662,-3773.11,7015.35,-1447.01,26.051,6.31149,56.5805,648.408,-10104.5,-975.339,0.27712,-50.6706,66.6329,9661.98,-1022.26,-290.52,18.1557,11.577,9.38437
4.1635,13212.7,-6897.99,10193.3,60.1242,323.442,173.331,3731.53,3212.89,8665.77,4.42019,-11.716,-1.32583,-311.002,16274.5,-701.685,31.6413,66.6898,335.905,-2697.79,-10056.0,-302.514,-4.45969,14.2901,54.7152,-3737.16,7027.54,-1449.3,25.5747,5.7883,55.6354,648.731,-10113.1,-949.215,0.439956,-50.829,66.8603,9653.77,-1036.22,-296.806,18.2079,11.5925,9.31712
4.164,13289.6,-6943.25,10191.1,60.572,323.411,174.608,3703.4,3222.98,8671.74,4.49371,-11.939,-1.30078,-377.981,16344.6,-733.855,31.7469,67.3015,336.021,-2711.82,-10058.0,-300.46,-4.52575,14.2881,54.7683,-3701.21,7039.73,-1451.6,25.0984,5.26511,54.6903,649.053,-10121.6,-923.091,0.602793,-50.9874,67.0877,9645.56,-1050.19,-303.092,18.2602,11.608,9.24987
4.1645,13362.3,-6987.69,10191.9,61.0226,323.37,175.856,3679.24,3231.0,8677.45,4.57704,-12.1674,-1.27529,-443.372,16411.7,-764.934,31.8525,67.8907,336.159,-2725.23,-10060.1,-297.292,-4.59361,14.284,54.8247,-3665.19,7049.84,-1452.36,24.6229,4.75765,53.7486,646.95,-10130.4,-897.441,0.756751,-51.1498,67.3055,9636.58,-1061.14,-309.064,18.3261,11.6161,9.17608
4.165,13402.5,-7025.71,10216.5,61.4962,323.26,176.86,3686.78,3222.5,8681.12,4.73877,-12.4395,-1.24628,-496.06,16454.5,-787.285,31.9593,68.2997,336.468,-2733.72,-10063.0,-285.203,-4.67593,14.2637,54.9074,-3628.6,7043.34,-1440.85,24.1535,4.37599,52.8346,625.437,-10140.9,-875.576,0.839687,-51.3439,67.4456,9621.42,-1048.01,-312.523,18.5011,11.5651,9.04993
4.1655,13442.7,-7063.73,10241.1,61.9698,323.15,177.863,3694.32,3214.01,8684.79,4.9005,-12.7117,-1.21728,-548.748,16497.3,-809.636,32.0661,68.7088,336.777,-2742.21,-10066.0,-273.115,-4.75824,14.2434,54.9902,-3592.01,7036.84,-1429.34,23.684,3.99433,51.9205,603.925,-10151.5,-853.71,0.922624,-51.538,67.5857,9606.27,-1034.88,-315.981,18.6761,11.5141,8.92378
4.166,13482.9,-7101.75,10265.7,62.4434,323.039,178.867,3701.86,3205.51,8688.46,5.06223,-12.9838,-1.18827,-601.437,16540.0,-831.987,32.1729,69.1178,337.086,-2750.69,-10068.9,-261.027,-4.84055,14.2231,55.0729,-3555.41,7030.34,-1417.84,23.2146,3.61268,51.0064,582.412,-10162.1,-831.845,1.00556,-51.732,67.7258,9591.11,-1021.74,-319.44,18.8511,11.4631,8.79763
4.1665,13523.1,-7139.77,10290.4,62.9169,322.929,179.871,3709.39,3197.02,8692.13,5.22396,-13.256,-1.15927,-654.125,16582.8,-854.338,32.2797,69.5269,337.395,-2759.18,-10071.8,-248.938,-4.92286,14.2028,55.1557,-3518.82,7023.83,-1406.33,22.7452,3.23102,50.0923,560.899,-10172.7,-809.98,1.0885,-51.9261,67.866,9575.96,-1008.61,-322.899,19.0261,11.4121,8.67147
4.167,13563.3,-7177.79,10315.0,63.3905,322.818,180.875,3716.93,3188.52,8695.8,5.38569,-13.5281,-1.13026,-706.813,16625.6,-876.689,32.3865,69.9359,337.704,-2767.67,-10074.7,-236.85,-5.00517,14.1826,55.2384,-3482.23,7017.33,-1394.82,22.2757,2.84936,49.1782,539.387,-10183.3,-788.115,1.17143,-52.1202,68.0061,9560.8,-995.474,-326.357,19.2011,11.361,8.54532
4.1675,13603.4,-7215.81,10339.6,63.8641,322.708,181.879,3724.47,3180.02,8699.48,5.54742,-13.8002,-1.10126,-759.501,16668.3,-899.04,32.4933,70.345,338.013,-2776.15,-10077.6,-224.762,-5.08748,14.1623,55.3212,-3445.63,7010.83,-1383.31,21.8063,2.46771,48.2641,517.874,-10193.8,-766.25,1.25437,-52.3142,68.1462,9545.65,-982.34,-329.816,19.3761,11.31,8.41917
4.168,13643.6,-7253.83,10364.2,64.3376,322.597,182.882,3732.01,3171.53,8703.15,5.70915,-14.0724,-1.07225,-812.189,16711.1,-921.391,32.6,70.754,338.322,-2784.64,-10080.5,-212.673,-5.1698,14.142,55.4039,-3409.04,7004.33,-1371.8,21.3369,2.08605,47.3501,496.361,-10204.4,-744.384,1.33731,-52.5083,68.2864,9530.49,-969.206,-333.275,19.5511,11.259,8.29302
4.1685,13683.8,-7291.85,10388.8,64.8112,322.487,183.886,3739.55,3163.03,8706.82,5.87089,-14.3445,-1.04325,-864.877,16753.9,-943.741,32.7068,71.1631,338.631,-2793.13,-10083.4,-200.585,-5.25211,14.1217,55.4867,-3372.44,6997.82,-1360.3,20.8674,1.70439,46.436,474.849,-10215.0,-722.519,1.42024,-52.7023,68.4265,9515.33,-956.072,-336.733,19.7261,11.208,8.16686
4.169,13715.9,-7325.67,10417.7,65.2283,322.31,184.78,3745.31,3157.01,8707.72,6.00641,-14.6155,-1.02462,-910.411,16798.5,-966.196,32.8292,71.5356,338.938,-2802.63,-10089.3,-189.641,-5.33378,14.1077,55.5652,-3339.15,6989.73,-1353.48,20.4215,1.35324,45.5525,459.019,-10222.0,-705.867,1.49632,-52.8516,68.5695,9500.83,-946.702,-340.193,19.8881,11.1494,8.03896
4.1695,13719.4,-7344.79,10461.2,65.4477,321.9,185.288,3744.88,3159.66,8698.96,6.05021,-14.8823,-1.04234,-930.907,16849.6,-989.016,33.0061,71.7803,339.239,-2815.71,-10105.5,-182.701,-5.4132,14.1158,55.6288,-3317.43,6976.09,-1363.09,20.0577,1.10884,44.7764,463.079,-10216.3,-707.46,1.54837,-52.8442,68.7224,9488.6,-950.506,-343.655,20.0048,11.0641,7.90492
4.17,13722.9,-7363.91,10504.8,65.6671,321.49,185.796,3744.45,3162.31,8690.19,6.094,-15.1492,-1.06005,-951.403,16900.7,-1011.84,33.183,72.025,339.539,-2828.78,-10121.7,-175.762,-5.49262,14.1239,55.6925,-3295.71,6962.44,-1372.69,19.6939,0.86444,44.0002,467.14,-10210.6,-709.053,1.60042,-52.8368,68.8752,9476.37,-954.311,-347.118,20.1214,10.9789,7.77089
4.1705,13726.5,-7383.03,10548.4,65.8865,321.08,186.304,3744.02,3164.96,8681.42,6.1378,-15.4161,-1.07777,-971.898,16951.8,-1034.65,33.3598,72.2697,339.84,-2841.85,-10137.9,-168.822,-5.57204,14.1319,55.7561,-3273.98,6948.8,-1382.3,19.3301,0.620041,43.224,471.2,-10205.0,-710.646,1.65247,-52.8294,69.0281,9464.13,-958.115,-350.58,20.238,10.8937,7.63685
4.171,13730.0,-7402.15,10591.9,66.1059,320.67,186.811,3743.59,3167.6,8672.66,6.18159,-15.683,-1.09549,-992.394,17002.9,-1057.47,33.5367,72.5144,340.14,-2854.92,-10154.1,-161.883,-5.65146,14.14,55.8198,-3252.26,6935.15,-1391.91,18.9663,0.375643,42.4479,475.26,-10199.3,-712.238,1.70453,-52.822,69.181,9451.9,-961.919,-354.043,20.3547,10.8084,7.50282
4.1715,13733.6,-7421.27,10635.5,66.3254,320.26,187.319,3743.16,3170.25,8663.89,6.22539,-15.9498,-1.1132,-1012.89,17054.0,-1080.29,33.7136,72.7591,340.441,-2868.0,-10170.3,-154.943,-5.73089,14.1481,55.8834,-3230.53,6921.5,-1401.52,18.6025,0.131244,41.6717,479.321,-10193.6,-713.831,1.75658,-52.8146,69.3339,9439.67,-965.724,-357.506,20.4713,10.7232,7.36878
4.172,13737.1,-7440.39,10679.0,66.5448,319.85,187.827,3742.73,3172.9,8655.12,6.26919,-16.2167,-1.13092,-1033.39,17105.1,-1103.11,33.8905,73.0038,340.741,-2881.07,-10186.5,-148.004,-5.81031,14.1562,55.9471,-3208.81,6907.86,-1411.12,18.2387,-0.113155,40.8955,483.381,-10188.0,-715.424,1.80863,-52.8072,69.4867,9427.44,-969.528,-360.968,20.5879,10.638,7.23474
4.1725,13740.7,-7459.51,10722.6,66.7642,319.44,188.335,3742.3,3175.55,8646.35,6.31298,-16.4836,-1.14863,-1053.88,17156.2,-1125.93,34.0674,73.2485,341.042,-2894.14,-10202.7,-141.064,-5.88973,14.1642,56.0107,-3187.09,6894.21,-1420.73,17.875,-0.357554,40.1193,487.441,-10182.3,-717.017,1.86069,-52.7998,69.6396,9415.21,-973.332,-364.431,20.7046,10.5527,7.10071
4.173,13744.2,-7478.63,10766.2,66.9836,319.03,188.843,3741.87,3178.2,8637.59,6.35678,-16.7505,-1.16635,-1074.38,17207.3,-1148.75,34.2443,73.4932,341.342,-2907.21,-10218.8,-134.125,-5.96915,14.1723,56.0744,-3165.36,6880.57,-1430.34,17.5112,-0.601952,39.3432,491.501,-10176.6,-718.61,1.91274,-52.7924,69.7925,9402.98,-977.137,-367.894,20.8212,10.4675,6.96667
4.1735,13739.8,-7499.4,10802.7,67.2501,318.601,189.253,3741.94,3182.4,8636.79,6.39633,-17.0295,-1.19886,-1090.02,17258.7,-1177.55,34.407,73.7403,341.638,-2916.38,-10231.5,-128.775,-6.05136,14.1747,56.1473,-3139.49,6869.2,-1433.21,17.183,-0.840131,38.5964,490.094,-10178.6,-720.901,1.95384,-52.7066,69.9241,9395.47,-981.962,-364.823,20.9336,10.3519,6.84875
4.174,13719.6,-7523.45,10825.2,67.6109,318.134,189.466,3742.99,3189.73,8651.94,6.42739,-17.3328,-1.26098,-1095.96,17310.7,-1218.29,34.5415,73.9922,341.923,-2917.75,-10237.0,-126.603,-6.13913,14.1656,56.2389,-3105.33,6862.39,-1422.61,16.9262,-1.06587,37.9082,477.752,-10195.7,-724.588,1.97306,-52.4639,70.0133,9397.4,-988.829,-348.686,21.0378,10.1754,6.76308
4.1745,13699.4,-7547.51,10847.7,67.9716,317.667,189.679,3744.05,3197.06,8667.09,6.45845,-17.636,-1.32309,-1101.9,17362.6,-1259.04,34.676,74.244,342.209,-2919.12,-10242.4,-124.431,-6.2269,14.1565,56.3304,-3071.18,6855.58,-1412.01,16.6693,-1.29161,37.2201,465.41,-10212.8,-728.276,1.99227,-52.2212,70.1025,9399.33,-995.696,-332.549,21.1419,9.99894,6.6774
4.175,13679.2,-7571.56,10870.2,68.3324,317.2,189.892,3745.1,3204.39,8682.23,6.48951,-17.9393,-1.38521,-1107.84,17414.6,-1299.79,34.8105,74.4959,342.495,-2920.48,-10247.9,-122.259,-6.31468,14.1474,56.4219,-3037.02,6848.77,-1401.42,16.4124,-1.51735,36.532,453.068,-10230.0,-731.964,2.01148,-51.9785,70.1916,9401.26,-1002.56,-316.412,21.246,9.82248,6.59173
4.1755,13659.0,-7595.62,10892.6,68.6931,316.733,190.105,3746.16,3211.71,8697.38,6.52056,-18.2426,-1.44733,-1113.78,17466.6,-1340.54,34.945,74.7478,342.781,-2921.85,-10253.4,-120.087,-6.40245,14.1383,56.5134,-3002.86,6841.97,-1390.82,16.1556,-1.74309,35.8439,440.726,-10247.1,-735.652,2.03069,-51.7358,70.2808,9403.19,-1009.43,-300.275,21.3501,9.64602,6.50605
4.176,13638.8,-7619.68,10915.1,69.0539,316.266,190.318,3747.21,3219.04,8712.53,6.55162,-18.5459,-1.50944,-1119.72,17518.5,-1381.28,35.0795,74.9997,343.067,-2923.22,-10258.9,-117.916,-6.49023,14.1292,56.605,-2968.7,6835.16,-1380.22,15.8987,-1.96883,35.1558,428.384,-10264.2,-739.339,2.0499,-51.4931,70.37,9405.12,-1016.3,-284.138,21.4542,9.46956,6.42038
4.1765,13618.5,-7643.73,10937.6,69.4146,315.799,190.531,3748.26,3226.37,8727.68,6.58268,-18.8492,-1.57156,-1125.66,17570.5,-1422.03,35.214,75.2516,343.353,-2924.58,-10264.4,-115.744,-6.578,14.1201,56.6965,-2934.54,6828.35,-1369.62,15.6418,-2.19457,34.4677,416.042,-10281.3,-743.027,2.06912,-51.2504,70.4592,9407.05,-1023.16,-268.001,21.5583,9.2931,6.3347
4.177,13598.3,-7667.79,10960.1,69.7754,315.332,190.744,3749.32,3233.7,8742.83,6.61374,-19.1525,-1.63368,-1131.6,17622.4,-1462.78,35.3485,75.5035,343.639,-2925.95,-10269.9,-113.572,-6.66578,14.111,56.788,-2900.38,6821.54,-1359.02,15.3849,-2.42031,33.7796,403.7,-10298.4,-746.715,2.08833,-51.0077,70.5483,9408.98,-1030.03,-251.864,21.6624,9.11664,6.24903
4.1775,13578.1,-7691.84,10982.6,70.1361,314.865,190.957,3750.37,3241.02,8757.97,6.6448,-19.4557,-1.69579,-1137.54,17674.4,-1503.52,35.483,75.7553,343.924,-2927.32,-10275.4,-111.4,-6.75355,14.102,56.8795,-2866.22,6814.73,-1348.42,15.1281,-2.64605,33.0915,391.358,-10315.6,-750.403,2.10754,-50.765,70.6375,9410.91,-1036.9,-235.727,21.7666,8.94018,6.16335
4.178,13570.8,-7718.09,10995.6,70.712,314.332,191.06,3751.72,3249.08,8769.1,6.67486,-19.7885,-1.70698,-1137.26,17719.7,-1544.31,35.5621,76.0102,344.143,-2928.94,-10280.1,-113.192,-6.82233,14.0737,56.9599,-2830.32,6805.42,-1333.9,14.7789,-2.92085,32.4373,380.353,-10331.7,-748.083,2.15883,-50.4219,70.7342,9401.11,-1038.04,-216.603,21.8729,8.71761,6.0923
4.1785,13579.6,-7747.07,10996.8,71.5569,313.716,191.025,3753.44,3258.05,8775.19,6.70369,-20.1581,-1.65451,-1129.22,17756.6,-1585.13,35.5721,76.2689,344.277,-2930.86,-10283.8,-119.939,-6.86735,14.0214,57.0264,-2792.25,6792.99,-1314.47,14.3145,-3.25699,31.8255,371.02,-10346.4,-738.253,2.25023,-49.9533,70.8404,9376.65,-1032.04,-193.744,21.982,8.43739,6.03954
4.179,13588.4,-7776.06,10998.0,72.4018,313.1,190.99,3755.16,3267.03,8781.28,6.73252,-20.5276,-1.60203,-1121.17,17793.6,-1625.96,35.582,76.5276,344.411,-2932.79,-10287.5,-126.686,-6.91238,13.9692,57.0928,-2754.18,6780.56,-1295.04,13.85,-3.59313,31.2137,361.686,-10361.2,-728.424,2.34163,-49.4847,70.9467,9352.19,-1026.03,-170.884,22.0912,8.15717,5.98677
4.1795,13597.2,-7805.04,10999.1,73.2466,312.483,190.956,3756.88,3276.0,8787.38,6.76134,-20.8972,-1.54956,-1113.13,17830.6,-1666.78,35.592,76.7863,344.544,-2934.72,-10291.2,-133.432,-6.9574,13.917,57.1593,-2716.11,6768.13,-1275.62,13.3856,-3.92927,30.602,352.353,-10376.0,-718.594,2.43302,-49.0161,71.0529,9327.73,-1020.03,-148.025,22.2003,7.87694,5.934
4.18,13606.0,-7834.03,11000.3,74.0915,311.867,190.921,3758.6,3284.97,8793.47,6.79017,-21.2667,-1.49708,-1105.09,17867.5,-1707.61,35.6019,77.045,344.678,-2936.64,-10295.0,-140.179,-7.00243,13.8647,57.2258,-2678.04,6755.69,-1256.19,12.9211,-4.26541,29.9902,343.02,-10390.8,-708.765,2.52442,-48.5475,71.1591,9303.27,-1014.02,-125.166,22.3094,7.59672,5.88124
4.1805,13614.8,-7863.01,11001.5,74.9364,311.251,190.887,3760.32,3293.94,8799.57,6.81899,-21.6363,-1.44461,-1097.05,17904.5,-1748.44,35.6119,77.3037,344.812,-2938.57,-10298.7,-146.926,-7.04746,13.8125,57.2922,-2639.97,6743.26,-1236.76,12.4566,-4.60155,29.3784,333.687,-10405.6,-698.935,2.61581,-48.0789,71.2653,9278.81,-1008.02,-102.307,22.4186,7.3165,5.82847
4.181,13623.6,-7892.0,11002.7,75.7813,310.635,190.852,3762.04,3302.91,8805.66,6.84782,-22.0059,-1.39214,-1089.0,17941.5,-1789.26,35.6218,77.5624,344.946,-2940.5,-10302.4,-153.672,-7.09248,13.7602,57.3587,-2601.91,6730.83,-1217.33,11.9922,-4.93769,28.7667,324.354,-10420.4,-689.106,2.70721,-47.6103,71.3715,9254.35,-1002.01,-79.4478,22.5277,7.03628,5.77571
4.1815,13632.3,-7920.98,11003.9,76.6261,310.019,190.817,3763.75,3311.89,8811.75,6.87665,-22.3754,-1.33966,-1080.96,17978.4,-1830.09,35.6317,77.8211,345.08,-2942.43,-10306.1,-160.419,-7.13751,13.708,57.4252,-2563.84,6718.39,-1197.91,11.5277,-5.27383,28.1549,315.021,-10435.1,-679.276,2.7986,-47.1417,71.4777,9229.9,-996.004,-56.5887,22.6368,6.75606,5.72294
4.182,13641.1,-7949.97,11005.1,77.471,309.402,190.783,3765.47,3320.86,8817.85,6.90547,-22.745,-1.28719,-1072.92,18015.4,-1870.91,35.6417,78.0798,345.214,-2944.35,-10309.8,-167.166,-7.18253,13.6557,57.4916,-2525.77,6705.96,-1178.48,11.0633,-5.60997,27.5431,305.688,-10449.9,-669.447,2.89,-46.6731,71.5839,9205.44,-989.998,-33.7295,22.7459,6.47584,5.67017
4.1825,13668.0,-7983.76,10985.1,78.5466,308.88,190.735,3765.61,3322.57,8823.13,6.97922,-23.1143,-1.24432,-1069.31,18043.5,-1925.36,35.562,78.4217,345.267,-2944.02,-10318.3,-171.434,-7.21238,13.5864,57.5459,-2486.4,6695.13,-1161.39,10.6421,-5.91541,27.09,298.842,-10463.3,-662.632,2.90793,-46.2173,71.619,9191.22,-991.702,-28.8441,22.8795,6.10876,5.60146
4.183,13709.4,-8021.4,10948.2,79.8067,308.433,190.678,3764.48,3318.49,8827.77,7.0889,-23.4835,-1.20915,-1069.24,18064.4,-1990.71,35.4106,78.8302,345.255,-2941.87,-10330.7,-173.72,-7.23007,13.5034,57.5905,-2445.99,6685.57,-1146.19,10.2556,-6.19629,26.7638,293.985,-10475.5,-658.228,2.86709,-45.7716,71.5972,9185.2,-999.574,-38.3376,23.0325,5.67219,5.51999
4.1835,13750.8,-8059.03,10911.3,81.0668,307.987,190.62,3763.36,3314.4,8832.41,7.19858,-23.8526,-1.17397,-1069.18,18085.3,-2056.05,35.2592,79.2386,345.244,-2939.72,-10343.0,-176.006,-7.24777,13.4204,57.635,-2405.59,6676.02,-1130.98,9.86905,-6.47717,26.4376,289.129,-10487.7,-653.824,2.82625,-45.3259,71.5754,9179.17,-1007.45,-47.8311,23.1856,5.23561,5.43853
4.184,13792.2,-8096.67,10874.4,82.3269,307.54,190.563,3762.23,3310.31,8837.05,7.30826,-24.2217,-1.13879,-1069.11,18106.3,-2121.4,35.1078,79.6471,345.232,-2937.57,-10355.3,-178.292,-7.26547,13.3374,57.6796,-2365.18,6666.46,-1115.77,9.48252,-6.75806,26.1113,284.273,-10499.9,-649.42,2.78541,-44.8802,71.5536,9173.15,-1015.32,-57.3246,23.3387,4.79904,5.35706
4.1845,13833.6,-8134.31,10837.5,83.587,307.093,190.505,3761.1,3306.22,8841.69,7.41794,-24.5909,-1.10361,-1069.05,18127.2,-2186.74,34.9565,80.0556,345.221,-2935.42,-10367.6,-180.578,-7.28316,13.2543,57.7242,-2324.78,6656.9,-1100.57,9.09599,-7.03894,25.7851,279.417,-10512.1,-645.017,2.74457,-44.4345,71.5318,9167.13,-1023.19,-66.8181,23.4917,4.36247,5.27559
4.185,13875.0,-8171.94,10800.6,84.8471,306.646,190.447,3759.98,3302.13,8846.33,7.52762,-24.96,-1.06843,-1068.99,18148.2,-2252.09,34.8051,80.4641,345.209,-2933.27,-10379.9,-182.864,-7.30086,13.1713,57.7687,-2284.37,6647.35,-1085.36,8.70947,-7.31982,25.4589,274.561,-10524.3,-640.613,2.70373,-43.9888,71.51,9161.11,-1031.06,-76.3116,23.6448,3.9259,5.19412
4.1855,13916.3,-8209.58,10763.7,86.1073,306.199,190.39,3758.85,3298.04,8850.97,7.6373,-25.3291,-1.03325,-1068.92,18169.1,-2317.43,34.6537,80.8726,345.198,-2931.13,-10392.2,-185.149,-7.31855,13.0883,57.8133,-2243.97,6637.79,-1070.15,8.32294,-7.6007,25.1327,269.704,-10536.5,-636.209,2.66289,-43.5431,71.4882,9155.08,-1038.93,-85.8051,23.7978,3.48933,5.11266
4.186,13957.7,-8247.22,10726.8,87.3674,305.752,190.332,3757.72,3293.95,8855.6,7.74698,-25.6983,-0.998076,-1068.86,18190.0,-2382.78,34.5023,81.281,345.186,-2928.98,-10404.6,-187.435,-7.33625,13.0053,57.8578,-2203.56,6628.24,-1054.94,7.93641,-7.88158,24.8065,264.848,-10548.7,-631.805,2.62205,-43.0975,71.4663,9149.06,-1046.8,-95.2986,23.9509,3.05276,5.03119
4.1865,13999.1,-8284.85,10689.9,88.6275,305.305,190.275,3756.6,3289.86,8860.24,7.85666,-26.0674,-0.962898,-1068.8,18211.0,-2448.12,34.3509,81.6895,345.174,-2926.83,-10416.9,-189.721,-7.35395,12.9223,57.9024,-2163.16,6618.68,-1039.74,7.54988,-8.16246,24.4802,259.992,-10560.9,-627.401,2.58121,-42.6518,71.4445,9143.04,-1054.68,-104.792,24.1039,2.61619,4.94972
4.187,14067.7,-8316.5,10645.6,89.7646,305.075,190.198,3750.49,3278.89,8861.65,7.93687,-26.4588,-0.909044,-1080.83,18231.0,-2493.19,34.166,82.1945,345.012,-2930.5,-10425.7,-191.738,-7.41215,12.7978,57.9257,-2119.74,6610.78,-1021.58,7.09577,-8.29253,24.3285,265.717,-10556.0,-623.433,2.60757,-42.2809,71.4829,9145.18,-1054.96,-100.067,24.2786,2.23997,4.87958
4.1875,14150.0,-8345.15,10597.7,90.8402,304.953,190.111,3741.9,3264.48,8861.43,8.00236,-26.8613,-0.845853,-1098.92,18250.5,-2528.12,33.9644,82.7478,344.774,-2937.08,-10432.7,-193.62,-7.4906,12.6526,57.9384,-2074.81,6603.7,-1001.95,6.60787,-8.34719,24.2639,276.733,-10542.5,-619.682,2.66752,-41.9474,71.5515,9151.41,-1051.46,-88.2318,24.4641,1.89393,4.81512
4.188,14232.2,-8373.8,10549.7,91.9157,304.832,190.025,3733.3,3250.07,8861.21,8.06784,-27.2637,-0.782661,-1117.01,18270.0,-2563.05,33.7628,83.3011,344.536,-2943.65,-10439.7,-195.502,-7.56905,12.5075,57.9511,-2029.89,6596.62,-982.323,6.11997,-8.40185,24.1994,287.75,-10529.0,-615.932,2.72748,-41.614,71.62,9157.65,-1047.95,-76.3969,24.6496,1.5479,4.75065
4.1885,14314.5,-8402.46,10501.8,92.9913,304.71,189.938,3724.71,3235.66,8861.0,8.13333,-27.6662,-0.71947,-1135.1,18289.6,-2597.98,33.5611,83.8544,344.298,-2950.23,-10446.8,-197.383,-7.64751,12.3623,57.9638,-1984.97,6589.54,-962.694,5.63207,-8.45651,24.1349,298.766,-10515.6,-612.181,2.78743,-41.2805,71.6886,9163.88,-1044.44,-64.562,24.835,1.20186,4.68618
4.189,14396.7,-8431.11,10453.9,94.0669,304.589,189.851,3716.12,3221.24,8860.78,8.19881,-28.0687,-0.656278,-1153.19,18309.1,-2632.91,33.3595,84.4077,344.06,-2956.81,-10453.8,-199.265,-7.72596,12.2171,57.9764,-1940.05,6582.46,-943.065,5.14417,-8.51118,24.0703,309.782,-10502.1,-608.43,2.84739,-40.947,71.7571,9170.11,-1040.94,-52.7271,25.0205,0.855818,4.62171
4.1895,14479.0,-8459.76,10405.9,95.1425,304.467,189.765,3707.52,3206.83,8860.57,8.2643,-28.4712,-0.593087,-1171.28,18328.6,-2667.84,33.1579,84.961,343.822,-2963.39,-10460.8,-201.147,-7.80441,12.0719,57.9891,-1895.12,6575.38,-923.436,4.65627,-8.56584,24.0058,320.798,-10488.6,-604.68,2.90735,-40.6136,71.8257,9176.34,-1037.43,-40.8923,25.206,0.509779,4.55724
4.19,14561.2,-8488.41,10358.0,96.218,304.345,189.678,3698.93,3192.42,8860.35,8.32978,-28.8737,-0.529896,-1189.37,18348.1,-2702.77,32.9562,85.5142,343.584,-2969.97,-10467.9,-203.029,-7.88286,11.9267,58.0018,-1850.2,6568.3,-903.807,4.16837,-8.6205,23.9412,331.814,-10475.1,-600.929,2.9673,-40.2801,71.8942,9182.57,-1033.93,-29.0574,25.3915,0.16374,4.49278
4.1905,14643.4,-8517.07,10310.1,97.2936,304.224,189.591,3690.34,3178.01,8860.13,8.39527,-29.2762,-0.466704,-1207.46,18367.7,-2737.7,32.7546,86.0675,343.346,-2976.55,-10474.9,-204.911,-7.96132,11.7815,58.0145,-1805.27,6561.22,-884.178,3.68047,-8.67516,23.8767,342.83,-10461.6,-597.178,3.02726,-39.9466,71.9628,9188.8,-1030.42,-17.2225,25.5769,-0.182298,4.42831
4.191,14725.7,-8545.72,10262.2,98.3692,304.102,189.505,3681.74,3163.6,8859.92,8.46075,-29.6787,-0.403513,-1225.55,18387.2,-2772.63,32.553,86.6208,343.109,-2983.12,-10481.9,-206.793,-8.03977,11.6363,58.0272,-1760.35,6554.14,-864.549,3.19257,-8.72982,23.8121,353.846,-10448.2,-593.428,3.08721,-39.6132,72.0313,9195.03,-1026.91,-5.38762,25.7624,-0.528337,4.36384
4.1915,14832.7,-8599.05,10193.7,98.6785,303.834,188.985,3688.64,3175.85,8863.04,8.55557,-30.0812,-0.344908,-1273.02,18403.6,-2803.99,32.3633,87.2816,342.749,-3003.89,-10495.5,-213.224,-8.15523,11.4541,58.0485,-1711.11,6544.62,-847.641,2.6948,-8.68717,24.0159,352.836,-10443.0,-583.19,3.11171,-39.4015,72.0052,9192.18,-1030.34,-5.55681,25.878,-0.911263,4.32252
4.192,14946.8,-8659.43,10119.4,98.7689,303.524,188.341,3699.96,3195.73,8867.11,8.65877,-30.4838,-0.287614,-1328.87,18419.1,-2834.34,32.177,87.9732,342.354,-3028.7,-10510.9,-220.954,-8.28127,11.2614,58.0723,-1660.64,6534.41,-831.509,2.19421,-8.61672,24.2962,348.39,-10440.2,-571.098,3.12607,-39.2247,71.9521,9186.73,-1035.74,-9.15573,25.9735,-1.30473,4.28782
4.1925,15060.9,-8719.82,10045.1,98.8594,303.214,187.698,3711.28,3215.61,8871.18,8.76197,-30.8864,-0.23032,-1384.73,18434.6,-2864.68,31.9907,88.6647,341.959,-3053.52,-10526.4,-228.684,-8.40731,11.0686,58.0961,-1610.18,6524.19,-815.378,1.69362,-8.54627,24.5766,343.945,-10437.5,-559.007,3.14043,-39.0479,71.8989,9181.29,-1041.14,-12.7547,26.0691,-1.69819,4.25311
4.193,15174.9,-8780.2,9970.74,98.9498,302.904,187.054,3722.6,3235.49,8875.25,8.86516,-31.289,-0.173025,-1440.58,18450.1,-2895.03,31.8045,89.3562,341.564,-3078.34,-10541.8,-236.414,-8.53334,10.8758,58.1199,-1559.71,6513.98,-799.247,1.19303,-8.47582,24.857,339.499,-10434.7,-546.915,3.15479,-38.8711,71.8458,9175.84,-1046.55,-16.3536,26.1646,-2.09166,4.21841
4.1935,15289.0,-8840.58,9896.42,99.0402,302.595,186.411,3733.92,3255.37,8879.32,8.96836,-31.6915,-0.115731,-1496.44,18465.6,-2925.37,31.6182,90.0478,341.169,-3103.15,-10557.2,-244.144,-8.65938,10.683,58.1437,-1509.24,6503.77,-783.115,0.692437,-8.40537,25.1373,335.054,-10431.9,-534.824,3.16915,-38.6943,71.7926,9170.39,-1051.95,-19.9525,26.2602,-2.48512,4.1837
4.194,15403.1,-8900.96,9822.11,99.1306,302.285,185.767,3745.24,3275.24,8883.39,9.07156,-32.0941,-0.0584371,-1552.3,18481.2,-2955.71,31.4319,90.7393,340.775,-3127.97,-10572.7,-251.874,-8.78542,10.4902,58.1676,-1458.77,6493.55,-766.984,0.191846,-8.33491,25.4177,330.608,-10429.1,-522.732,3.18351,-38.5175,71.7395,9164.95,-1057.35,-23.5514,26.3557,-2.87859,4.149
4.1945,15517.2,-8961.35,9747.79,99.221,301.975,185.124,3756.56,3295.12,8887.46,9.17476,-32.4967,-0.00114293,-1608.15,18496.7,-2986.06,31.2457,91.4308,340.38,-3152.78,-10588.1,-259.604,-8.91145,10.2974,58.1914,-1408.3,6483.34,-750.853,-0.308745,-8.26446,25.698,326.163,-10426.4,-510.641,3.19787,-38.3407,71.6864,9159.5,-1062.76,-27.1504,26.4513,-3.27205,4.11429
4.195,15631.3,-9021.73,9673.47,99.3115,301.665,184.48,3767.88,3315.0,8891.54,9.27796,-32.8992,0.0561513,-1664.01,18512.2,-3016.4,31.0594,92.1224,339.985,-3177.6,-10603.5,-267.334,-9.03749,10.1047,58.2152,-1357.83,6473.12,-734.721,-0.809336,-8.19401,25.9784,321.717,-10423.6,-498.549,3.21223,-38.1639,71.6332,9154.05,-1068.16,-30.7493,26.5468,-3.66552,4.07959
4.1955,15745.4,-9082.11,9599.15,99.4019,301.355,183.837,3779.2,3334.88,8895.61,9.38116,-33.3018,0.113445,-1719.86,18527.7,-3046.75,30.8731,92.8139,339.59,-3202.42,-10619.0,-275.064,-9.16352,9.91188,58.239,-1307.36,6462.91,-718.59,-1.30993,-8.12356,26.2588,317.271,-10420.8,-486.458,3.22659,-37.9871,71.5801,9148.61,-1073.56,-34.3482,26.6424,-4.05899,4.04488
4.196,15813.5,-9076.19,9549.97,99.5869,300.961,183.19,3768.66,3328.22,8901.67,9.50183,-33.7679,0.185146,-1797.1,18543.4,-3060.69,30.7658,93.4795,339.026,-3219.93,-10618.3,-293.572,-9.32969,9.67927,58.2352,-1247.21,6445.6,-699.362,-1.67516,-7.92463,26.6529,315.348,-10441.0,-491.899,3.18408,-37.9707,71.518,9142.92,-1081.19,-42.4485,26.762,-4.51904,4.01119
4.1965,15875.9,-9061.98,9503.93,99.7838,300.556,182.544,3755.39,3318.24,8907.98,9.6247,-34.2419,0.258647,-1877.02,18559.0,-3072.59,30.6683,94.1419,338.44,-3236.53,-10615.7,-313.428,-9.50088,9.44168,58.2279,-1185.85,6427.4,-679.747,-2.02348,-7.70964,27.0612,313.739,-10464.1,-499.531,3.13447,-37.9744,71.4549,9137.21,-1089.09,-51.1115,26.8847,-4.98741,3.97763
4.197,15938.3,-9047.76,9457.9,99.9807,300.151,181.897,3742.12,3308.26,8914.29,9.74756,-34.716,0.332148,-1956.93,18574.7,-3084.49,30.5709,94.8042,337.855,-3253.13,-10613.0,-333.283,-9.67206,9.2041,58.2207,-1124.49,6409.21,-660.132,-2.37179,-7.49465,27.4696,312.13,-10487.2,-507.164,3.08485,-37.9781,71.3917,9131.49,-1096.99,-59.7745,27.0074,-5.45578,3.94406
4.1975,16000.7,-9033.55,9411.86,100.178,299.746,181.251,3728.85,3298.28,8920.6,9.87042,-35.19,0.405649,-2036.84,18590.4,-3096.39,30.4734,95.4666,337.269,-3269.72,-10610.4,-353.139,-9.84325,8.96652,58.2135,-1063.12,6391.01,-640.517,-2.72011,-7.27966,27.8779,310.522,-10510.2,-514.797,3.03523,-37.9817,71.3285,9125.77,-1104.89,-68.4374,27.13,-5.92416,3.9105
4.198,16063.1,-9019.34,9365.82,100.374,299.342,180.605,3715.58,3288.3,8926.91,9.99328,-35.6641,0.47915,-2116.76,18606.1,-3108.29,30.376,96.1289,336.684,-3286.32,-10607.7,-372.994,-10.0144,8.72893,58.2062,-1001.76,6372.81,-620.902,-3.06843,-7.06467,28.2863,308.913,-10533.3,-522.429,2.98562,-37.9854,71.2654,9120.06,-1112.79,-77.1004,27.2527,-6.39253,3.87693
4.1985,16125.5,-9005.12,9319.78,100.571,298.937,179.958,3702.31,3278.32,8933.22,10.1161,-36.1381,0.552651,-2196.67,18621.8,-3120.19,30.2785,96.7913,336.098,-3302.92,-10605.1,-392.85,-10.1856,8.49135,58.199,-940.403,6354.61,-601.287,-3.41674,-6.84968,28.6946,307.305,-10556.4,-530.062,2.936,-37.989,71.2022,9114.34,-1120.7,-85.7634,27.3753,-6.8609,3.84337
4.199,16187.9,-8990.91,9273.75,100.768,298.532,179.312,3689.04,3268.34,8939.54,10.239,-36.6121,0.626152,-2276.58,18637.5,-3132.09,30.181,97.4536,335.513,-3319.52,-10602.4,-412.705,-10.3568,8.25376,58.1917,-879.042,6336.42,-581.672,-3.76506,-6.63469,29.103,305.696,-10579.5,-537.694,2.88639,-37.9927,71.139,9108.63,-1128.6,-94.4264,27.498,-7.32927,3.80981
4.1995,16250.3,-8976.7,9227.71,100.965,298.127,178.665,3675.77,3258.36,8945.85,10.3619,-37.0862,0.699653,-2356.5,18653.1,-3143.99,30.0836,98.116,334.927,-3336.12,-10599.8,-432.561,-10.528,8.01618,58.1845,-817.682,6318.22,-562.057,-4.11337,-6.4197,29.5113,304.087,-10602.5,-545.327,2.83677,-37.9963,71.0759,9102.91,-1136.5,-103.089,27.6206,-7.79765,3.77624
4.2,16312.7,-8962.48,9181.67,101.162,297.722,178.019,3662.49,3248.38,8952.16,10.4847,-37.5602,0.773154,-2436.41,18668.8,-3155.89,29.9861,98.7783,334.342,-3352.72,-10597.1,-452.416,-10.6992,7.77859,58.1772,-756.321,6300.02,-542.442,-4.46169,-6.20471,29.9197,302.479,-10625.6,-552.959,2.78715,-38.0,71.0127,9097.2,-1144.4,-111.752,27.7433,-8.26602,3.74268
4.2005,16364.6,-8910.07,9130.31,101.67,297.077,177.559,3648.92,3268.57,8945.28,10.5424,-37.9782,0.898176,-2501.74,18687.7,-3140.72,29.8742,99.1744,333.654,-3356.98,-10600.1,-449.568,-10.8047,7.54348,58.237,-705.653,6284.95,-519.792,-4.3458,-5.64777,30.2112,299.391,-10628.2,-544.788,2.79524,-38.1481,70.9438,9087.44,-1149.5,-111.558,27.8702,-8.7939,3.71978
4.201,16416.4,-8857.65,9078.95,102.179,296.432,177.1,3635.35,3288.77,8938.4,10.6,-38.3962,1.0232,-2567.06,18706.5,-3125.55,29.7623,99.5704,332.967,-3361.25,-10603.1,-446.721,-10.9102,7.30838,58.2968,-654.985,6269.87,-497.142,-4.22992,-5.09084,30.5028,296.303,-10630.9,-536.616,2.80333,-38.2963,70.8749,9077.69,-1154.61,-111.365,27.997,-9.32178,3.69689
4.2015,16468.2,-8805.24,9027.58,102.687,295.787,176.64,3621.78,3308.96,8931.53,10.6576,-38.8141,1.14822,-2632.38,18725.4,-3110.39,29.6505,99.9665,332.28,-3365.51,-10606.1,-443.873,-11.0157,7.07327,58.3566,-604.317,6254.8,-474.493,-4.11403,-4.5339,30.7944,293.215,-10633.5,-528.444,2.81142,-38.4444,70.8061,9067.93,-1159.71,-111.171,28.1239,-9.84965,3.67399
4.202,16520.0,-8752.82,8976.22,103.195,295.142,176.181,3608.21,3329.16,8924.65,10.7153,-39.2321,1.27325,-2697.71,18744.3,-3095.22,29.5386,100.363,331.592,-3369.77,-10609.1,-441.025,-11.1212,6.83816,58.4164,-553.649,6239.73,-451.843,-3.99814,-3.97696,31.086,290.126,-10636.2,-520.273,2.81951,-38.5926,70.7372,9058.18,-1164.82,-110.977,28.2508,-10.3775,3.65109
4.2025,16571.8,-8700.41,8924.86,103.703,294.497,175.722,3594.64,3349.36,8917.77,10.7729,-39.6501,1.39827,-2763.03,18763.1,-3080.06,29.4267,100.759,330.905,-3374.04,-10612.1,-438.177,-11.2267,6.60306,58.4762,-502.98,6224.65,-429.194,-3.88226,-3.42002,31.3776,287.038,-10638.8,-512.101,2.8276,-38.7407,70.6683,9048.42,-1169.92,-110.783,28.3777,-10.9054,3.6282
4.203,16623.7,-8647.99,8873.5,104.212,293.852,175.262,3581.07,3369.55,8910.89,10.8305,-40.068,1.52329,-2828.36,18782.0,-3064.89,29.3148,101.155,330.218,-3378.3,-10615.1,-435.329,-11.3322,6.36795,58.536,-452.312,6209.58,-406.544,-3.76637,-2.86309,31.6692,283.95,-10641.4,-503.93,2.83569,-38.8888,70.5994,9038.67,-1175.02,-110.589,28.5046,-11.4333,3.6053
4.2035,16675.5,-8595.58,8822.14,104.72,293.207,174.803,3567.49,3389.75,8904.02,10.8882,-40.486,1.64831,-2893.68,18800.8,-3049.73,29.2029,101.551,329.53,-3382.56,-10618.0,-432.482,-11.4377,6.13284,58.5957,-401.644,6194.51,-383.895,-3.65048,-2.30615,31.9608,280.862,-10644.1,-495.758,2.84378,-39.037,70.5306,9028.91,-1180.13,-110.395,28.6314,-11.9612,3.58241
4.204,16727.3,-8543.16,8770.77,105.228,292.562,174.343,3553.92,3409.94,8897.14,10.9458,-40.904,1.77334,-2959.0,18819.7,-3034.56,29.091,101.947,328.843,-3386.83,-10621.0,-429.634,-11.5432,5.89774,58.6555,-350.976,6179.43,-361.245,-3.5346,-1.74921,32.2524,277.774,-10646.7,-487.586,2.85187,-39.1851,70.4617,9019.16,-1185.23,-110.202,28.7583,-12.489,3.55951
4.2045,16773.9,-8493.71,8718.89,105.712,291.88,173.872,3542.67,3427.99,8892.16,11.0141,-41.3339,1.89841,-3022.6,18837.4,-3016.7,28.9776,102.342,328.152,-3389.51,-10624.8,-425.424,-11.6431,5.67894,58.7164,-298.029,6162.2,-339.521,-3.33258,-1.15911,32.5145,272.081,-10650.0,-479.795,2.8606,-39.3346,70.3949,9008.63,-1189.73,-112.268,28.8936,-13.0203,3.53974
4.205,16778.7,-8468.02,8662.78,105.997,290.901,173.307,3549.93,3428.81,8902.32,11.1674,-41.86,2.02392,-3072.35,18846.1,-2977.26,28.8525,102.732,327.428,-3379.54,-10634.7,-410.32,-11.6982,5.59062,58.7855,-226.848,6127.7,-325.206,-2.44153,-0.303684,32.5402,245.542,-10658.1,-475.043,2.8745,-39.4943,70.3448,8991.88,-1189.42,-132.414,29.0962,-13.5786,3.54491
4.2055,16783.5,-8442.32,8606.68,106.283,289.922,172.743,3557.2,3429.64,8912.49,11.3207,-42.386,2.14943,-3122.11,18854.8,-2937.82,28.7273,103.122,326.704,-3369.58,-10644.7,-395.215,-11.7534,5.5023,58.8546,-155.667,6093.19,-310.891,-1.55048,0.551741,32.5659,219.003,-10666.2,-470.29,2.88839,-39.6541,70.2947,8975.13,-1189.1,-152.561,29.2988,-14.137,3.55008
4.206,16788.3,-8416.63,8550.58,106.568,288.944,172.178,3564.47,3430.46,8922.66,11.474,-42.912,2.27494,-3171.86,18863.4,-2898.37,28.6022,103.512,325.981,-3359.61,-10654.6,-380.11,-11.8085,5.41398,58.9237,-84.4859,6058.69,-296.575,-0.659434,1.40717,32.5916,192.465,-10674.4,-465.538,2.90228,-39.8138,70.2445,8958.38,-1188.79,-172.707,29.5014,-14.6953,3.55525
4.2065,16793.2,-8390.93,8494.47,106.854,287.965,171.613,3571.74,3431.29,8932.82,11.6273,-43.438,2.40045,-3221.62,18872.1,-2858.93,28.477,103.902,325.257,-3349.64,-10664.6,-365.006,-11.8637,5.32566,58.9928,-13.3048,6024.19,-282.26,0.231616,2.26259,32.6173,165.926,-10682.5,-460.786,2.91617,-39.9735,70.1944,8941.63,-1188.47,-192.853,29.7039,-15.2537,3.56043
4.207,16798.0,-8365.23,8438.37,107.14,286.986,171.048,3579.01,3432.12,8942.99,11.7807,-43.964,2.52595,-3271.37,18880.7,-2819.49,28.3519,104.291,324.533,-3339.68,-10674.5,-349.901,-11.9188,5.23735,59.0619,57.8762,5989.68,-267.945,1.12267,3.11802,32.643,139.388,-10690.6,-456.034,2.93006,-40.1333,70.1443,8924.88,-1188.16,-213.0,29.9065,-15.812,3.5656
4.2075,16802.8,-8339.54,8382.27,107.425,286.007,170.483,3586.27,3432.94,8953.16,11.934,-44.4901,2.65146,-3321.13,18889.4,-2780.04,28.2267,104.681,323.809,-3329.71,-10684.5,-334.797,-11.974,5.14903,59.131,129.057,5955.18,-253.629,2.01371,3.97344,32.6688,112.849,-10698.8,-451.282,2.94395,-40.293,70.0942,8908.13,-1187.84,-233.146,30.1091,-16.3703,3.57078
4.208,16807.6,-8313.84,8326.17,107.711,285.028,169.918,3593.54,3433.77,8963.32,12.0873,-45.0161,2.77697,-3370.88,18898.0,-2740.6,28.1016,105.071,323.085,-3319.74,-10694.5,-319.692,-12.0291,5.06071,59.2001,200.238,5920.68,-239.314,2.90476,4.82887,32.6945,86.3105,-10706.9,-446.53,2.95784,-40.4528,70.0441,8891.38,-1187.53,-253.293,30.3117,-16.9287,3.57595
4.2085,16812.4,-8288.14,8270.06,107.996,284.049,169.353,3600.81,3434.59,8973.49,12.2406,-45.5421,2.90248,-3420.64,18906.7,-2701.16,27.9764,105.461,322.362,-3309.78,-10704.4,-304.588,-12.0843,4.97239,59.2692,271.419,5886.18,-224.998,3.79581,5.68429,32.7202,59.7719,-10715.0,-441.778,2.97173,-40.6125,69.994,8874.63,-1187.21,-273.439,30.5143,-17.487,3.58112
4.209,16815.8,-8271.34,8216.36,108.273,283.02,168.763,3611.14,3432.15,8984.61,12.4024,-46.0727,3.00982,-3475.29,18919.9,-2674.08,27.8951,105.836,321.607,-3300.79,-10713.5,-291.63,-12.1342,4.89512,59.3498,343.532,5859.41,-213.707,4.78201,6.6619,32.6666,35.6781,-10729.0,-439.503,3.03929,-40.765,69.9543,8862.96,-1188.82,-290.473,30.7144,-18.0358,3.58827
4.2095,16814.3,-8285.68,8171.08,108.518,281.816,168.085,3632.17,3418.24,8999.08,12.5936,-46.6195,3.05356,-3547.12,18949.0,-2690.31,27.9669,106.158,320.746,-3295.26,-10719.7,-286.187,-12.1656,4.8565,59.4707,418.902,5859.7,-213.0,6.10124,8.06716,32.3355,20.1409,-10763.3,-445.898,3.29466,-40.8921,69.9514,8869.08,-1197.17,-296.614,30.9062,-18.5512,3.60234
4.21,16812.8,-8300.02,8125.79,108.763,280.611,167.406,3653.21,3404.33,9013.54,12.7849,-47.1663,3.09731,-3618.94,18978.0,-2706.54,28.0387,106.481,319.885,-3289.73,-10725.9,-280.745,-12.197,4.81788,59.5915,494.273,5860.0,-212.293,7.42046,9.47242,32.0045,4.60361,-10797.6,-452.293,3.55004,-41.0192,69.9485,8875.2,-1205.52,-302.754,31.098,-19.0666,3.61641
4.2105,16811.3,-8314.36,8080.5,109.008,279.407,166.727,3674.24,3390.42,9028.0,12.9761,-47.7131,3.14105,-3690.77,19007.1,-2722.77,28.1105,106.804,319.023,-3284.19,-10732.0,-275.302,-12.2284,4.77927,59.7123,569.644,5860.29,-211.586,8.73969,10.8777,31.6734,-10.9336,-10832.0,-458.688,3.80542,-41.1464,69.9455,8881.32,-1213.87,-308.895,31.2898,-19.5819,3.63048
4.211,16809.8,-8328.7,8035.21,109.253,278.202,166.048,3695.27,3376.51,9042.47,13.1674,-48.2599,3.1848,-3762.59,19036.2,-2738.99,28.1823,107.126,318.162,-3278.66,-10738.2,-269.86,-12.2598,4.74065,59.8331,645.015,5860.59,-210.879,10.0589,12.2829,31.3423,-26.4709,-10866.3,-465.084,4.0608,-41.2735,69.9426,8887.44,-1222.22,-315.036,31.4816,-20.0973,3.64454
4.2115,16808.3,-8343.04,7989.92,109.498,276.997,165.369,3716.31,3362.6,9056.93,13.3586,-48.8067,3.22854,-3834.41,19065.2,-2755.22,28.2541,107.449,317.301,-3273.13,-10744.4,-264.417,-12.2912,4.70204,59.9539,720.386,5860.89,-210.172,11.3781,13.6882,31.0113,-42.0081,-10900.6,-471.479,4.31618,-41.4006,69.9397,8893.56,-1230.57,-321.176,31.6734,-20.6127,3.65861
4.212,16806.8,-8357.37,7944.64,109.743,275.793,164.691,3737.34,3348.69,9071.4,13.5499,-49.3534,3.27229,-3906.24,19094.3,-2771.45,28.326,107.772,316.439,-3267.59,-10750.5,-258.975,-12.3226,4.66342,60.0748,795.757,5861.18,-209.465,12.6974,15.0934,30.6802,-57.5454,-10935.0,-477.874,4.57156,-41.5277,69.9367,8899.68,-1238.92,-327.317,31.8652,-21.1281,3.67268
4.2125,16805.3,-8371.71,7899.35,109.988,274.588,164.012,3758.38,3334.78,9085.86,13.7411,-49.9002,3.31603,-3978.06,19123.4,-2787.68,28.3978,108.094,315.578,-3262.06,-10756.7,-253.532,-12.354,4.62481,60.1956,871.128,5861.48,-208.758,14.0166,16.4987,30.3491,-73.0826,-10969.3,-484.27,4.82694,-41.6548,69.9338,8905.81,-1247.26,-333.458,32.057,-21.6434,3.68675
4.213,16803.8,-8386.05,7854.06,110.233,273.384,163.333,3779.41,3320.87,9100.32,13.9323,-50.447,3.35978,-4049.89,19152.5,-2803.9,28.4696,108.417,314.717,-3256.53,-10762.9,-248.089,-12.3854,4.58619,60.3164,946.499,5861.78,-208.05,15.3358,17.904,30.0181,-88.6199,-11003.6,-490.665,5.08231,-41.7819,69.9309,8911.93,-1255.61,-339.598,32.2488,-22.1588,3.70082
4.2135,16814.1,-8395.73,7811.95,110.527,272.074,162.737,3795.27,3307.34,9111.24,14.0972,-50.9563,3.42777,-4121.34,19183.9,-2815.02,28.5147,108.782,313.803,-3248.58,-10769.6,-242.023,-12.4079,4.52161,60.4328,1023.9,5873.95,-206.032,16.6236,19.5157,29.5765,-101.118,-11022.2,-494.871,5.27899,-41.8621,69.9532,8915.29,-1266.76,-352.21,32.4265,-22.6331,3.69824
4.214,16847.7,-8396.1,7776.18,110.921,270.555,162.306,3800.77,3294.58,9115.05,14.2094,-51.3904,3.54427,-4192.05,19220.3,-2815.91,28.5064,109.231,312.783,-3235.8,-10777.5,-234.709,-12.4126,4.4051,60.5403,1105.37,5909.9,-201.39,17.8487,21.5405,28.914,-107.538,-11009.5,-494.697,5.35824,-41.8483,70.0258,8913.13,-1283.51,-377.765,32.576,-23.0253,3.66238
4.2145,16881.3,-8396.46,7740.41,111.315,269.036,161.874,3806.27,3281.83,9118.87,14.3216,-51.8246,3.66077,-4262.77,19256.6,-2816.8,28.4982,109.68,311.764,-3223.02,-10785.3,-227.396,-12.4173,4.28859,60.6479,1186.84,5945.85,-196.749,19.0737,23.5652,28.2514,-113.957,-10996.7,-494.523,5.4375,-41.8346,70.0985,8910.98,-1300.26,-403.32,32.7255,-23.4175,3.62652
4.215,16914.9,-8396.83,7704.65,111.709,267.517,161.443,3811.76,3269.07,9122.68,14.4338,-52.2587,3.77727,-4333.48,19293.0,-2817.69,28.4899,110.129,310.745,-3210.25,-10793.2,-220.082,-12.422,4.17208,60.7554,1268.31,5981.79,-192.107,20.2987,25.59,27.5889,-120.377,-10983.9,-494.35,5.51676,-41.8209,70.1712,8908.82,-1317.01,-428.874,32.8751,-23.8096,3.59065
4.2155,16948.6,-8397.19,7668.88,112.102,265.998,161.012,3817.26,3256.31,9126.49,14.546,-52.6929,3.89377,-4404.2,19329.3,-2818.58,28.4816,110.578,309.726,-3197.47,-10801.1,-212.768,-12.4267,4.05557,60.863,1349.77,6017.74,-187.466,21.5238,27.6147,26.9263,-126.797,-10971.2,-494.176,5.59602,-41.8071,70.2439,8906.67,-1333.76,-454.429,33.0246,-24.2018,3.55479
4.216,16982.2,-8397.56,7633.12,112.496,264.479,160.581,3822.76,3243.56,9130.31,14.6582,-53.127,4.01027,-4474.91,19365.6,-2819.47,28.4733,111.027,308.707,-3184.69,-10809.0,-205.455,-12.4314,3.93905,60.9706,1431.24,6053.68,-182.824,22.7488,29.6395,26.2638,-133.217,-10958.4,-494.002,5.67528,-41.7934,70.3166,8904.51,-1350.51,-479.984,33.1741,-24.594,3.51893
4.2165,17015.8,-8397.93,7597.35,112.89,262.959,160.15,3828.26,3230.8,9134.12,14.7704,-53.5612,4.12677,-4545.63,19402.0,-2820.36,28.4651,111.476,307.687,-3171.91,-10816.8,-198.141,-12.4361,3.82254,61.0781,1512.71,6089.63,-178.183,23.9738,31.6643,25.6012,-139.636,-10945.6,-493.829,5.75453,-41.7797,70.3892,8902.35,-1367.26,-505.538,33.3236,-24.9861,3.48307
4.217,17049.4,-8398.29,7561.58,113.284,261.44,159.719,3833.76,3218.04,9137.93,14.8826,-53.9953,4.24327,-4616.34,19438.3,-2821.25,28.4568,111.925,306.668,-3159.14,-10824.7,-190.827,-12.4408,3.70603,61.1857,1594.18,6125.57,-173.541,25.1989,33.689,24.9387,-146.056,-10932.9,-493.655,5.83379,-41.7659,70.4619,8900.2,-1384.01,-531.093,33.4731,-25.3783,3.4472
4.2175,17083.1,-8398.66,7525.82,113.677,259.921,159.288,3839.26,3205.29,9141.75,14.9948,-54.4295,4.35977,-4687.05,19474.6,-2822.14,28.4485,112.374,305.649,-3146.36,-10832.6,-183.514,-12.4455,3.58952,61.2932,1675.65,6161.52,-168.9,26.4239,35.7138,24.2761,-152.476,-10920.1,-493.482,5.91305,-41.7522,70.5346,8898.04,-1400.76,-556.648,33.6226,-25.7705,3.41134
4.218,17137.5,-8392.24,7483.88,113.946,258.37,158.901,3841.56,3189.31,9141.53,15.1655,-54.9406,4.4036,-4761.03,19521.1,-2801.16,28.3677,112.624,304.619,-3146.01,-10837.6,-176.134,-12.5141,3.39343,61.4191,1755.55,6216.89,-159.746,27.4131,37.9577,23.5577,-154.742,-10930.7,-485.445,6.03551,-41.7918,70.5643,8894.74,-1410.43,-578.587,33.7941,-26.1313,3.38592
4.2185,17218.0,-8377.33,7434.24,114.057,256.78,158.57,3839.88,3169.32,9136.26,15.4094,-55.5478,4.35658,-4839.08,19580.3,-2752.85,28.1961,112.625,303.574,-3161.19,-10839.1,-168.673,-12.6626,3.09788,61.568,1833.48,6296.54,-144.953,28.1076,40.4756,22.7695,-151.815,-10970.6,-467.581,6.21197,-41.898,70.5404,8890.01,-1411.26,-596.007,33.9929,-26.453,3.37356
4.219,17298.5,-8362.43,7384.59,114.169,255.19,158.24,3838.19,3149.32,9130.99,15.6534,-56.155,4.30956,-4917.13,19639.4,-2704.55,28.0244,112.626,302.53,-3176.37,-10840.6,-161.212,-12.8111,2.80232,61.7169,1911.42,6376.2,-130.159,28.802,42.9936,21.9813,-148.888,-11010.4,-449.716,6.38844,-42.0042,70.5165,8885.27,-1412.08,-613.428,34.1917,-26.7746,3.3612
4.2195,17379.0,-8347.52,7334.94,114.28,253.6,157.909,3836.51,3129.32,9125.72,15.8973,-56.7622,4.26254,-4995.19,19698.6,-2656.24,27.8528,112.627,301.486,-3191.55,-10842.0,-153.751,-12.9596,2.50676,61.8658,1989.35,6455.85,-115.366,29.4965,45.5115,21.1931,-145.961,-11050.3,-431.852,6.5649,-42.1105,70.4926,8880.54,-1412.91,-630.848,34.3904,-27.0963,3.34884
4.22,17459.5,-8332.62,7285.29,114.392,252.01,157.578,3834.82,3109.33,9120.45,16.1412,-57.3695,4.21553,-5073.24,19757.7,-2607.93,27.6812,112.628,300.442,-3206.73,-10843.5,-146.289,-13.1081,2.21121,62.0147,2067.29,6535.51,-100.573,30.1909,48.0294,20.4049,-143.034,-11090.1,-413.988,6.74136,-42.2167,70.4687,8875.8,-1413.74,-648.268,34.5892,-27.418,3.33648
4.2205,17539.9,-8317.71,7235.65,114.504,250.42,157.247,3833.14,3089.33,9115.18,16.3851,-57.9767,4.16851,-5151.29,19816.9,-2559.63,27.5096,112.629,299.397,-3221.92,-10845.0,-138.828,-13.2567,1.91565,62.1636,2145.23,6615.16,-85.7791,30.8854,50.5474,19.6167,-140.108,-11130.0,-396.123,6.91783,-42.3229,70.4447,8871.07,-1414.56,-665.689,34.788,-27.7396,3.32412
4.221,17620.4,-8302.81,7186.0,114.615,248.83,156.916,3831.46,3069.34,9109.92,16.629,-58.5839,4.12149,-5229.34,19876.1,-2511.32,27.338,112.631,298.353,-3237.1,-10846.5,-131.367,-13.4052,1.62009,62.3124,2223.16,6694.81,-70.9856,31.5799,53.0653,18.8285,-137.181,-11169.8,-378.259,7.09429,-42.4292,70.4208,8866.33,-1415.39,-683.109,34.9868,-28.0613,3.31176
4.2215,17700.9,-8287.9,7136.35,114.727,247.24,156.585,3829.77,3049.34,9104.65,16.8729,-59.1911,4.07447,-5307.4,19935.2,-2463.01,27.1664,112.632,297.309,-3252.28,-10847.9,-123.906,-13.5537,1.32454,62.4613,2301.1,6774.47,-56.1922,32.2743,55.5832,18.0403,-134.254,-11209.6,-360.394,7.27075,-42.5354,70.3969,8861.59,-1416.22,-700.53,35.1856,-28.3829,3.2994
4.222,17781.4,-8273.0,7086.71,114.838,245.65,156.254,3828.09,3029.34,9099.38,17.1168,-59.7984,4.02745,-5385.45,19994.4,-2414.71,26.9948,112.633,296.265,-3267.46,-10849.4,-116.444,-13.7022,1.02898,62.6102,2379.03,6854.12,-41.3987,32.9688,58.1011,17.2521,-131.327,-11249.5,-342.53,7.44722,-42.6417,70.373,8856.86,-1417.04,-717.95,35.3844,-28.7046,3.28704
4.2225,17854.5,-8279.95,7037.5,114.777,243.953,155.731,3818.0,3031.67,9092.03,17.3177,-60.3112,4.03618,-5464.45,20047.4,-2368.11,26.7556,112.402,295.199,-3275.28,-10852.0,-118.703,-13.9381,0.643323,62.7556,2474.24,6950.99,-10.5847,33.298,60.6423,16.513,-131.16,-11261.9,-339.05,7.5846,-42.7957,70.3544,8859.95,-1416.21,-728.995,35.5092,-29.003,3.27414
4.223,17921.7,-8304.4,6988.64,114.579,242.17,155.053,3801.2,3051.86,9083.03,17.4841,-60.7486,4.08949,-5544.2,20095.6,-2322.88,26.4622,111.987,294.116,-3277.21,-10855.3,-128.739,-14.2438,0.185585,62.8983,2583.25,7061.64,33.0458,33.3351,63.2021,15.813,-133.202,-11252.3,-347.077,7.69073,-42.9881,70.3402,8869.31,-1414.06,-734.94,35.5749,-29.2828,3.26081
4.2235,17988.9,-8328.84,6939.77,114.38,240.386,154.376,3784.4,3072.04,9074.02,17.6505,-61.1859,4.1428,-5623.95,20143.8,-2277.64,26.1688,111.572,293.033,-3279.14,-10858.7,-138.774,-14.5496,-0.272154,63.0409,2692.26,7172.28,76.6763,33.3722,65.7618,15.1131,-135.243,-11242.8,-355.104,7.79685,-43.1804,70.3259,8878.66,-1411.91,-740.885,35.6405,-29.5627,3.24747
4.224,18056.1,-8353.28,6890.92,114.181,238.603,153.698,3767.6,3092.23,9065.01,17.817,-61.6232,4.19612,-5703.71,20192.0,-2232.41,25.8754,111.157,291.95,-3281.07,-10862.1,-148.809,-14.8554,-0.729893,63.1835,2801.28,7282.92,120.307,33.4093,68.3215,14.4132,-137.285,-11233.2,-363.131,7.90298,-43.3728,70.3117,8888.02,-1409.75,-746.83,35.7061,-29.8425,3.23414
4.2245,18123.3,-8377.73,6842.06,113.982,236.82,153.02,3750.8,3112.41,9056.0,17.9834,-62.0605,4.24943,-5783.46,20240.1,-2187.18,25.582,110.741,290.867,-3283.0,-10865.5,-158.844,-15.1611,-1.18763,63.3261,2910.29,7393.56,163.937,33.4464,70.8813,13.7133,-139.326,-11223.7,-371.158,8.0091,-43.5651,70.2975,8897.38,-1407.6,-752.775,35.7717,-30.1223,3.22081
4.225,18190.5,-8402.17,6793.2,113.783,235.037,152.343,3734.0,3132.6,9046.99,18.1499,-62.4979,4.30275,-5863.21,20288.3,-2141.95,25.2886,110.326,289.784,-3284.93,-10868.8,-168.879,-15.4669,-1.64537,63.4688,3019.3,7504.21,207.568,33.4835,73.441,13.0134,-141.368,-11214.1,-379.186,8.11523,-43.7575,70.2832,8906.73,-1405.45,-758.72,35.8373,-30.4022,3.20747
4.2255,18257.7,-8426.61,6744.33,113.584,233.254,151.665,3717.2,3152.79,9037.98,18.3163,-62.9352,4.35606,-5942.97,20336.5,-2096.72,24.9952,109.911,288.701,-3286.86,-10872.2,-178.915,-15.7727,-2.10311,63.6114,3128.32,7614.85,251.198,33.5206,76.0008,12.3134,-143.409,-11204.6,-387.213,8.22136,-43.9498,70.269,8916.09,-1403.29,-764.665,35.903,-30.682,3.19414
4.226,18324.9,-8451.06,6695.48,113.385,231.47,150.988,3700.4,3172.97,9028.98,18.4827,-63.3726,4.40937,-6022.72,20384.7,-2051.48,24.7018,109.496,287.618,-3288.79,-10875.6,-188.95,-16.0784,-2.56085,63.754,3237.33,7725.49,294.829,33.5577,78.5605,11.6135,-145.451,-11195.0,-395.24,8.32748,-44.1422,70.2547,8925.44,-1401.14,-770.61,35.9686,-30.9618,3.1808
4.2265,18392.1,-8475.5,6646.62,113.186,229.687,150.31,3683.59,3193.16,9019.97,18.6492,-63.8099,4.46269,-6102.47,20432.9,-2006.25,24.4084,109.081,286.534,-3290.72,-10879.0,-198.985,-16.3842,-3.01859,63.8966,3346.34,7836.14,338.459,33.5948,81.1203,10.9136,-147.492,-11185.4,-403.267,8.43361,-44.3346,70.2405,8934.8,-1398.99,-776.555,36.0342,-31.2417,3.16747
4.227,18424.3,-8478.45,6576.09,113.085,227.932,149.588,3687.43,3232.8,9010.8,18.8196,-64.2764,4.50473,-6175.77,20465.6,-1981.39,24.0748,108.448,285.434,-3308.78,-10868.4,-216.866,-16.6845,-3.45194,64.0383,3450.81,7930.45,371.793,33.3183,83.4368,10.3206,-132.785,-11195.1,-402.798,8.53387,-44.5329,70.2402,8936.45,-1411.52,-790.142,36.1577,-31.4545,3.141
4.2275,18439.0,-8470.64,6494.73,113.031,226.19,148.845,3701.58,3282.17,9001.56,18.992,-64.7576,4.54113,-6245.83,20490.7,-1966.71,23.7212,107.706,284.325,-3334.91,-10850.8,-238.669,-16.982,-3.87311,64.1796,3553.01,8016.6,399.979,32.885,85.6318,9.78103,-109.702,-11214.3,-398.081,8.6312,-44.7342,70.2468,8934.25,-1431.39,-807.551,36.3102,-31.6337,3.10797
4.228,18453.7,-8462.84,6413.38,112.978,224.449,148.102,3715.73,3331.54,8992.31,19.1643,-65.2388,4.57753,-6315.89,20515.8,-1952.02,23.3675,106.964,283.216,-3361.04,-10833.3,-260.473,-17.2795,-4.29427,64.3208,3655.21,8102.75,428.164,32.4517,87.8267,9.24147,-86.6204,-11233.5,-393.364,8.72853,-44.9355,70.2535,8932.05,-1451.26,-824.96,36.4626,-31.813,3.07494
